time[ms],accX[g],accY[g],accZ[g],Value 1,Value 2,Value 3
50985340,-0.729,0.336,0.594,-1.347,-4.305,1.68
50985350,-0.741,0.33,0.577,-1.47,-5.232,1.382
50985360,-0.741,0.345,0.588,1.085,-6.107,0.28
50985370,-0.711,0.342,0.581,1.102,-7,-1.925
50985380,-0.721,0.344,0.604,0.175,-6.265,-3.482
50985390,-0.733,0.336,0.546,-0.735,-4.882,-5.635
50985400,-0.702,0.337,0.606,1.417,-5.95,-5.197
50985410,-0.78,0.388,0.665,-1.715,-6.02,-4.445
50985420,-0.776,0.379,0.601,-7.84,-6.457,-8.557
50985420,-0.635,0.294,0.569,-6.615,-9.642,-9.03
50985440,-0.665,0.32,0.596,-5.127,-8.365,-3.132
50985440,-0.767,0.38,0.611,-8.207,-2.572,-2.065
50985460,-0.732,0.354,0.608,-11.812,-1.82,-6.387
50985460,-0.679,0.288,0.585,-14.525,-3.255,-5.022
50985480,-0.745,0.327,0.634,-15.067,-3.29,-2.205
50985480,-0.768,0.351,0.649,-16.887,-4.567,-5.005
50985500,-0.69,0.288,0.605,-19.425,-7.525,-7.402
50985500,-0.683,0.285,0.594,-19.67,-8.137,-5.162
50985510,-0.707,0.325,0.618,-17.237,-6.3,-4.305
50985520,-0.738,0.347,0.665,-17.447,-5.687,-6.002
50985530,-0.725,0.315,0.661,-22.382,-5.46,-8.89
50985540,-0.695,0.302,0.571,-23.485,-4.83,-10.325
50985550,-0.741,0.339,0.626,-19.722,-5.582,-9.782
50985560,-0.717,0.346,0.62,-21.945,-6.02,-13.405
50985570,-0.675,0.346,0.615,-27.16,-6.615,-18.917
50985580,-0.693,0.329,0.649,-31.517,-5.407,-21.752
50985590,-0.734,0.29,0.591,-35.805,-4.007,-24.202
50985600,-0.751,0.31,0.574,-36.452,-4.935,-26.425
50985610,-0.764,0.327,0.629,-36.347,-8.47,-26.442
50985620,-0.765,0.31,0.634,-41.755,-11.48,-27.09
50985630,-0.835,0.221,0.623,-48.247,-17.15,-25.025
50985640,-0.779,0.209,0.608,-47.057,-24.15,-19.355
50985650,-0.82,0.192,0.655,-42.84,-27.825,-11.427
50985660,-0.852,0.215,0.59,-37.012,-33.11,-10.57
50985670,-0.813,0.196,0.663,-32.007,-39.27,-8.68
50985680,-0.71,0.162,0.648,-26.53,-42.56,-8.242
50985690,-0.684,0.182,0.691,-18.13,-43.47,-5.88
50985700,-0.623,0.197,0.689,-12.075,-39.882,-3.097
50985710,-0.573,0.227,0.722,-9.45,-31.727,-2.222
50985720,-0.563,0.176,0.719,-10.605,-19.25,0.332
50985730,-0.595,0.177,0.68,-5.022,-7.402,1.557
50985740,-0.607,0.225,0.758,2.52,1.347,1.12
50985750,-0.555,0.191,0.731,2.975,14.385,3.937
50985760,-0.599,0.195,0.719,3.062,27.755,8.89
50985770,-0.65,0.178,0.701,5.057,38.272,12.792
50985780,-0.679,0.169,0.675,8.085,46.112,14.857
50985790,-0.69,0.192,0.671,12.617,50.907,14.595
50985800,-0.731,0.211,0.671,16.537,53.795,16.537
50985810,-0.744,0.217,0.652,18.27,55.982,19.565
50985820,-0.732,0.205,0.633,21.402,58.187,20.65
50985830,-0.738,0.208,0.626,25.742,59.64,22.435
50985830,-0.75,0.244,0.618,28.84,59.535,23.887
50985850,-0.756,0.278,0.608,30.607,58.695,23.152
50985850,-0.771,0.284,0.595,31.465,57.452,21.717
50985870,-0.788,0.3,0.592,31.955,54.74,18.532
50985870,-0.809,0.326,0.657,31.272,50.33,14.105
50985890,-0.807,0.299,0.575,23.712,40.687,13.545
50985890,-0.724,0.328,0.619,20.562,33.985,13.632
50985910,-0.749,0.318,0.582,19.11,32.462,15.592
50985910,-0.752,0.351,0.522,18.882,32.637,13.247
50985920,-0.822,0.408,0.672,21.735,33.53,9.502
50985930,-0.767,0.365,0.597,18.007,34.265,3.675
50985940,-0.738,0.365,0.594,17.937,36.26,3.535
50985950,-0.795,0.389,0.589,20.23,40.11,8.89
50985960,-0.778,0.442,0.582,22.277,43.347,6.93
50985970,-0.776,0.467,0.569,24.71,47.67,4.007
50985980,-0.809,0.555,0.62,30.17,54.512,0.227
50985990,-0.831,0.611,0.654,31.85,57.452,-1.592
50986000,-0.849,0.643,0.642,24.167,56,-3.552
50986010,-0.87,0.626,0.622,19.722,51.135,-8.435
50986020,-0.933,0.623,0.64,18.83,43.942,-14.472
50986030,-1.019,0.595,0.656,13.632,30.677,-24.797
50986040,-1.053,0.552,0.653,7.402,12.075,-37.677
50986050,-1.077,0.479,0.607,-0.35,-10.08,-47.722
50986060,-1.067,0.455,0.593,-3.745,-31.395,-56.91
50986070,-1.055,0.409,0.57,-6.615,-51.922,-60.69
50986080,-0.968,0.396,0.555,-8.225,-66.36,-70.945
50986090,-0.895,0.385,0.533,-14.525,-72.537,-83.09
50986100,-0.875,0.342,0.498,-26.46,-72.24,-88.637
50986110,-0.846,0.329,0.47,-40.145,-68.25,-90.44
50986120,-0.84,0.298,0.399,-53.655,-62.16,-88.27
50986130,-0.851,0.283,0.33,-65.555,-55.965,-82.985
50986140,-0.846,0.226,0.243,-78.557,-56.682,-70.49
50986150,-0.916,0.159,0.177,-81.2,-69.93,-59.727
50986160,-0.854,0.11,0.144,-78.295,-76.002,-49.262
50986170,-0.753,0.085,0.166,-72.047,-73.832,-33.127
50986170,-0.761,0.07,0.225,-67.742,-70.332,-15.995
50986190,-0.799,0.049,0.277,-65.082,-67.97,-3.815
50986190,-0.768,0.037,0.344,-63.7,-66.955,1.452
50986210,-0.771,0.015,0.39,-66.955,-66.5,9.642
50986210,-0.771,-0.02,0.39,-73.15,-66.132,11.62
50986230,-0.753,-0.038,0.405,-77.297,-65.117,9.117
50986230,-0.702,-0.061,0.442,-78.505,-65.012,2.222
50986250,-0.675,-0.113,0.434,-78.75,-64.557,-0.315
50986250,-0.594,-0.13,0.487,-73.377,-61.81,0.175
50986260,-0.586,-0.126,0.526,-75.04,-56.997,5.932
50986270,-0.568,-0.146,0.547,-79.887,-52.675,6.387
50986280,-0.542,-0.159,0.56,-81.112,-47.477,4.742
50986290,-0.516,-0.175,0.584,-80.447,-42.332,2.047
50986300,-0.52,-0.198,0.577,-79.905,-39.445,2.87
50986310,-0.546,-0.235,0.578,-72.397,-41.282,9.275
50986320,-0.549,-0.246,0.594,-59.185,-44.695,18.48
50986330,-0.536,-0.176,0.635,-46.76,-47.74,27.125
50986340,-0.565,-0.152,0.676,-36.89,-50.19,35.402
50986350,-0.574,-0.107,0.75,-31.902,-54.215,40.127
50986360,-0.615,-0.116,0.811,-33.862,-61.005,44.94
50986370,-0.648,-0.177,0.884,-33.792,-70.542,49.577
50986380,-0.669,-0.217,0.899,-35.14,-83.422,53.375
50986390,-0.734,-0.277,0.927,-29.242,-103.582,59.15
50986400,-0.718,-0.293,0.952,-13.79,-123.34,67.042
50986410,-0.591,-0.233,1.035,13.16,-131.407,77.437
50986420,-0.492,-0.138,1.143,39.427,-122.64,86.887
50986430,-0.455,-0.034,1.23,54.932,-96.32,86.415
50986440,-0.465,0.04,1.266,60.13,-60.987,74.305
50986450,-0.483,0.074,1.251,59.22,-27.79,59.237
50986460,-0.507,0.059,1.154,56.087,-3.587,48.982
50986470,-0.484,0.035,1.032,57.4,9.03,43.645
50986480,-0.425,0,0.893,67.97,15.032,43.085
50986490,-0.335,0.004,0.745,86.782,20.597,44.03
50986500,-0.228,0.048,0.622,109.83,30.555,45.255
50986510,-0.121,0.125,0.477,133.262,46.795,44.887
50986520,-0.049,0.184,0.328,156.747,71.54,46.55
50986530,0.003,0.266,0.181,174.16,105.21,45.5
50986540,-0.036,0.342,0.096,184.625,144.305,40.985
50986550,-0.245,0.43,0.159,183.085,182.507,34.055
50986560,-0.544,0.654,0.401,163.1,211.487,16.625
50986570,-1.243,0.662,0.626,117.005,216.107,23.275
50986580,-1.785,0.637,0.763,63.595,187.81,0.402
50986580,-1.998,0.653,0.94,34.755,136.342,-54.005
50986600,-1.984,0.464,0.742,6.755,51.957,-83.597
50986600,-1.384,0.233,0.443,5.95,-49.945,-77.595
50986620,-0.781,0.212,0.39,27.3,-121.047,-29.802
50986620,-0.611,0.4,0.464,39.882,-137.375,17.08
50986640,-0.624,0.49,0.521,38.517,-120.487,36.68
50986640,-0.572,0.447,0.52,34.107,-91.402,31.535
50986660,-0.481,0.461,0.575,32.445,-58.712,22.837
50986660,-0.479,0.454,0.584,22.05,-27.755,19.32
50986670,-0.457,0.462,0.6,14.105,0.192,9.572
50986680,-0.464,0.446,0.623,3.867,23.765,-0.98
50986690,-0.508,0.417,0.655,-7.087,39.357,-11.06
50986700,-0.598,0.407,0.693,-17.027,44.922,-16.975
50986710,-0.697,0.395,0.716,-25.445,39.637,-21.157
50986720,-0.748,0.409,0.755,-33.232,28,-30.59
50986730,-0.771,0.37,0.731,-42.542,9.992,-40.337
50986740,-0.743,0.296,0.707,-43.575,-9.222,-41.72
50986750,-0.724,0.257,0.712,-37.362,-26.827,-34.895
50986760,-0.707,0.262,0.731,-29.207,-39.147,-26.11
50986770,-0.691,0.265,0.76,-21.437,-45.325,-17.972
50986780,-0.663,0.273,0.764,-18.427,-43.75,-12.512
50986790,-0.617,0.252,0.725,-17.885,-36.365,-10.36
50986800,-0.577,0.222,0.689,-12.162,-23.782,-7.56
50986810,-0.556,0.23,0.678,-6.422,-8.89,-4.252
50986820,-0.572,0.258,0.684,-4.147,6.142,-2.432
50986830,-0.632,0.281,0.694,-5.775,17.955,-4.007
50986840,-0.711,0.288,0.698,-10.57,24.097,-9.117
50986850,-0.757,0.283,0.669,-17.517,23.117,-17.71
50986860,-0.75,0.283,0.636,-24.972,17.587,-28.717
50986870,-0.736,0.264,0.549,-33.617,9.922,-35.752
50986880,-0.721,0.236,0.496,-39.865,4.917,-40.075
50986890,-0.758,0.259,0.616,-46.112,3.342,-50.015
50986900,-0.9,0.31,0.764,-54.372,-3.99,-65.94
50986910,-1.075,0.284,0.766,-63.77,-31.5,-83.632
50986920,-1.137,0.207,0.766,-70.14,-81.305,-96.757
50986920,-1.071,0.163,0.675,-73.237,-141.89,-103.547
50986940,-0.916,0.163,0.626,-74.83,-193.847,-105.595
50986940,-0.706,0.166,0.642,-74.742,-224.805,-102.69
50986960,-0.503,0.138,0.664,-71.802,-237.247,-93.712
50986960,-0.331,0.082,0.702,-64.277,-227.605,-76.947
50986980,-0.201,0.116,0.813,-58.555,-198.117,-50.802
50986980,-0.121,0.098,0.825,-63.297,-154.63,-20.072
50987000,-0.059,0.036,0.77,-60.935,-97.317,5.32
50987000,-0.142,-0.037,0.785,-42.612,-34.86,29.225
50987010,-0.38,-0.075,0.828,-20.195,17.202,50.505
50987020,-0.621,-0.068,0.814,0.192,52.955,59.797
50987030,-0.722,-0.021,0.828,24.01,70.822,56.525
50987040,-0.72,0.027,0.862,47.337,73.307,50.855
50987050,-0.628,0.105,0.923,64.68,68.407,47.6
50987060,-0.551,0.152,0.877,64.435,62.475,48.3
50987070,-0.455,0.178,0.85,68.477,58.835,44.047
50987080,-0.419,0.195,0.818,72.922,59.85,41.107
50987090,-0.428,0.213,0.809,76.475,61.197,38.885
50987100,-0.49,0.273,0.83,69.492,60.252,35.595
50987110,-0.572,0.275,0.815,50.242,53.2,30.117
50987120,-0.647,0.225,0.8,37.555,43.697,23.765
50987130,-0.692,0.189,0.779,30.957,32.305,19.845
50987140,-0.693,0.192,0.767,26.32,20.772,17.185
50987150,-0.671,0.202,0.749,20.79,11.095,15.172
50987160,-0.638,0.218,0.744,14.91,6.282,13.37
50987170,-0.606,0.237,0.733,7.455,4.427,12.652
50987180,-0.582,0.242,0.698,-2.572,5.39,14.367
50987190,-0.583,0.226,0.664,-12.127,8.365,17.36
50987200,-0.642,0.209,0.675,-18.48,12.722,18.532
50987210,-0.761,0.182,0.692,-22.05,13.107,16.957
50987220,-0.849,0.157,0.703,-20.037,6.282,12.25
50987230,-0.835,0.186,0.724,-12.197,-6.37,6.265
50987240,-0.75,0.232,0.74,-5.845,-18.847,2.59
50987250,-0.646,0.26,0.744,-3.062,-26.687,0.7
50987260,-0.572,0.275,0.755,-0.822,-27.422,1.785
50987270,-0.54,0.274,0.755,1.715,-23.38,5.582
50987280,-0.511,0.307,0.761,2.187,-14.787,7.21
50987290,-0.516,0.337,0.769,-0.262,-2.852,7.017
50987300,-0.548,0.35,0.757,-1.907,10.29,4.655
50987310,-0.58,0.371,0.733,-6.265,22.382,-0.14
50987320,-0.591,0.38,0.709,-11.865,31.395,-7.49
50987330,-0.611,0.401,0.719,-16.292,36.12,-14.42
50987330,-0.67,0.401,0.741,-21.962,35.21,-18.987
50987350,-0.709,0.393,0.758,-28.98,30.327,-24.097
50987350,-0.721,0.382,0.774,-36.47,23.152,-30.502
50987360,-0.72,0.346,0.757,-45.185,15.89,-37.38
50987370,-0.698,0.288,0.746,-53.445,9.047,-43.837
50987380,-0.68,0.224,0.721,-62.842,3.885,-47.425
50987390,-0.637,0.173,0.719,-69.615,2.327,-50.977
50987400,-0.65,0.108,0.687,-75.897,3.027,-51.957
50987410,-0.653,0.104,0.686,-74.025,3.797,-49.892
50987420,-0.64,0.112,0.725,-70.157,4.672,-46.567
50987430,-0.668,0.079,0.726,-68.267,6.772,-42.717
50987440,-0.645,0.063,0.749,-66.342,9.975,-43.855
50987450,-0.604,0.009,0.767,-63.14,13.09,-45.867
50987460,-0.565,-0.055,0.773,-55.16,20.317,-42.577
50987470,-0.672,-0.007,0.802,-46.707,28.07,-34.58
50987480,-0.793,0.024,0.804,-46.13,25.865,-34.545
50987490,-0.756,-0.003,0.793,-49.56,16.747,-38.745
50987500,-0.69,-0.095,0.762,-45.937,5.46,-35.77
50987510,-0.693,-0.14,0.77,-41.877,-7.07,-27.44
50987520,-0.738,-0.206,0.752,-40.897,-23.747,-19.04
50987530,-0.493,-0.23,0.735,-28.752,-29.172,-5.162
50987540,-0.486,-0.202,0.859,-6.387,-9.012,18.095
50987550,-0.691,-0.195,0.928,-3.727,9.625,25.305
50987560,-0.814,-0.201,0.89,-8.54,14.98,19.722
50987570,-0.79,-0.206,0.909,-6.072,12.95,14.525
50987580,-0.73,-0.191,0.876,-6.247,5.092,10.202
50987590,-0.767,-0.203,0.801,-8.82,-6.632,8.277
50987600,-0.647,-0.231,0.771,-5.705,-19.162,5.39
50987610,-0.575,-0.25,0.755,6.527,-24.202,8.96
50987620,-0.594,-0.214,0.744,16.502,-25.41,13.86
50987630,-0.606,-0.179,0.752,25.375,-26.722,17.552
50987640,-0.6,-0.165,0.761,28.997,-29.592,20.842
50987650,-0.559,-0.153,0.744,31.01,-31.36,21.63
50987660,-0.522,-0.145,0.734,34.86,-28.052,21.612
50987670,-0.492,-0.119,0.732,38.517,-19.652,19.512
50987670,-0.498,-0.08,0.747,41.457,-9.642,16.467
50987690,-0.532,-0.056,0.741,44.24,-2.8,13.667
50987690,-0.552,-0.004,0.743,47.127,-0.14,10.097
50987710,-0.593,0.057,0.754,44.135,-2.117,5.495
50987710,-0.686,0.066,0.755,37.047,-11.987,-1.085
50987730,-0.823,0.04,0.734,30.17,-34.737,-10.01
50987730,-0.921,0.021,0.76,29.015,-73.36,-20.387
50987750,-0.795,0.061,0.815,32.725,-115.78,-24.342
50987750,-0.861,0.094,0.81,25.602,-154.14,-21.437
50987760,-0.902,0.11,0.768,10.167,-189.49,-28.875
50987770,-0.713,0.113,0.745,-2.205,-218.907,-42.525
50987780,-0.487,0.132,0.71,-13.79,-233.747,-52.92
50987790,-0.316,0.109,0.685,-23.31,-228.095,-54.11
50987800,-0.171,0.054,0.697,-26.915,-206.605,-47.687
50987810,-0.085,-0.021,0.743,-20.492,-172.987,-32.532
50987820,-0.073,-0.046,0.813,-10.36,-131.74,-14.157
50987830,-0.04,-0.025,0.894,1.89,-86.59,2.117
50987840,-0.025,0.033,0.956,14.77,-39.917,12.915
50987850,-0.019,0.058,0.973,23.45,4.305,18.97
50987860,-0.03,0.063,0.935,30.922,45.745,19.25
50987870,-0.102,0.069,0.924,45.5,79.73,21.437
50987880,-0.297,0.049,0.897,63.717,100.187,38.99
50987890,-0.345,0.146,0.898,80.675,109.532,33.582
50987900,-0.373,0.245,0.931,92.47,117.722,22.067
50987910,-0.432,0.268,0.929,96.53,124.67,19.162
50987920,-0.486,0.302,0.927,96.67,129.815,15.54
50987930,-0.568,0.353,0.92,93.502,134.207,11.602
50987940,-0.683,0.389,0.896,84.77,136.115,6.142
50987950,-0.755,0.417,0.844,68.11,133.857,-3.115
50987960,-0.798,0.416,0.775,47.285,128.24,-13.72
50987970,-0.811,0.381,0.699,28.262,121.275,-22.54
50987980,-0.803,0.353,0.637,12.495,113.575,-25.13
50987990,-0.791,0.322,0.57,-0.385,104.632,-25.69
50988000,-0.792,0.286,0.537,-7.455,96.985,-23.485
50988010,-0.806,0.257,0.537,-12.897,90.16,-19.32
50988020,-0.794,0.277,0.56,-19.6,83.475,-18.27
50988030,-0.794,0.27,0.566,-28.297,76.702,-19.337
50988030,-0.796,0.247,0.578,-36.697,71.277,-20.825
50988050,-0.793,0.235,0.576,-47.862,65.607,-23.887
50988050,-0.791,0.191,0.555,-57.207,59.307,-27.492
50988070,-0.807,0.142,0.543,-61.442,50.872,-30.31
50988070,-0.823,0.09,0.532,-60.62,40.372,-29.907
50988080,-0.809,0.059,0.532,-53.375,29.715,-26.512
50988090,-0.791,0.048,0.541,-43.032,20.545,-21.595
50988100,-0.775,0.051,0.563,-32.585,15.05,-18.497
50988110,-0.768,0.069,0.611,-26.39,13.475,-17.71
50988120,-0.779,0.063,0.648,-26.302,13.965,-17.255
50988130,-0.798,0.061,0.693,-28.472,14.805,-19.302
50988140,-0.825,0.038,0.756,-30.677,13.895,-18.252
50988150,-0.81,0.116,0.832,-44.992,13.44,-18.427
50988160,-0.795,0.107,0.784,-74.06,11.917,-26.775
50988170,-0.781,0,0.72,-86.73,10.797,-35.507
50988180,-0.723,-0.068,0.681,-83.09,9.135,-38.587
50988190,-0.69,-0.081,0.632,-72.065,6.072,-32.585
50988200,-0.687,-0.048,0.621,-55.58,4.462,-22.417
50988210,-0.721,-0.018,0.633,-43.032,0.122,-11.742
50988220,-0.749,0.001,0.644,-38.885,-7.91,-7.56
50988230,-0.759,0.007,0.666,-39.112,-19.46,-7.7
50988240,-0.769,-0.03,0.66,-44.117,-30.502,-7.577
50988250,-0.759,-0.061,0.633,-47.46,-42.647,-9.31
50988260,-0.734,-0.134,0.641,-38.71,-53.742,-10.115
50988270,-0.731,-0.153,0.673,-24.832,-65.415,-6.86
50988280,-0.739,-0.208,0.731,-9.327,-77.402,0.175
50988290,-0.679,-0.205,0.782,0.997,-86.467,2.152
50988300,-0.636,-0.214,0.842,8.802,-88.76,2.887
50988310,-0.532,-0.213,0.976,12.005,-80.587,5.18
50988320,-0.436,-0.276,0.943,4.112,-55.632,9.292
50988330,-0.483,-0.229,0.998,-1.715,-20.965,10.412
50988340,-0.715,-0.268,1.005,-1.452,-0.665,13.317
50988350,-0.679,-0.263,0.952,-0.595,-0.857,15.015
50988360,-0.625,-0.249,0.903,1.715,-5.985,23.135
50988370,-0.645,-0.218,0.88,7.402,-9.1,34.387
50988380,-0.644,-0.162,0.829,13.737,-16.082,35.962
50988390,-0.492,-0.167,0.763,13.475,-23.712,31.815
50988400,-0.39,-0.187,0.706,16.747,-14.017,34.37
50988410,-0.419,-0.157,0.714,28.42,7.402,42.7
50988420,-0.527,-0.102,0.759,34.615,29.715,51.31
50988420,-0.643,-0.1,0.703,31.43,45.902,57.61
50988440,-0.723,-0.146,0.679,32.585,63.49,63.245
50988440,-0.798,-0.164,0.661,40.25,82.057,68.11
50988460,-0.869,-0.104,0.682,41.195,96.88,66.447
50988460,-0.94,-0.03,0.668,35.927,105.122,64.505
50988480,-0.871,0.042,0.625,29.05,113.645,62.667
50988480,-0.846,0.092,0.613,17.062,123.252,64.05
50988500,-0.942,0.115,0.569,-0.56,125.702,69.422
50988500,-0.992,0.12,0.531,-16.187,120.032,73.727
50988510,-0.896,0.169,0.503,-29.137,111.51,74.76
50988520,-0.803,0.181,0.486,-40.897,109.655,76.737
50988530,-0.895,0.171,0.483,-50.68,105.91,76.86
50988540,-0.945,0.171,0.462,-58.695,90.842,71.82
50988550,-0.894,0.165,0.491,-56.087,68.792,72.012
50988560,-0.837,0.189,0.487,-55.702,47.18,72.03
50988570,-0.777,0.237,0.504,-54.232,29.645,62.965
50988580,-0.725,0.258,0.515,-56.875,14.455,51.607
50988590,-0.654,0.26,0.505,-61.005,1.522,41.317
50988600,-0.61,0.252,0.504,-62.895,-6.755,35.437
50988610,-0.605,0.268,0.514,-64.47,-11.742,30.345
50988620,-0.611,0.27,0.522,-66.867,-15.417,24.43
50988630,-0.641,0.24,0.533,-67.06,-20.632,18.322
50988640,-0.663,0.231,0.546,-64.102,-25.322,13.615
50988650,-0.687,0.241,0.583,-60.707,-30.642,9.607
50988660,-0.701,0.237,0.598,-58.257,-36.015,4.655
50988670,-0.719,0.221,0.616,-54.197,-40.057,-1.452
50988680,-0.747,0.21,0.644,-49.157,-43.995,-7.385
50988690,-0.742,0.211,0.682,-43.715,-48.755,-11.182
50988700,-0.733,0.199,0.713,-39.287,-52.675,-11.69
50988710,-0.702,0.191,0.738,-35.612,-55.685,-12.022
50988720,-0.67,0.178,0.747,-32.987,-56.437,-10.395
50988730,-0.66,0.152,0.773,-30.502,-54.547,-7.052
50988740,-0.687,0.132,0.788,-31.22,-51.047,-4.06
50988750,-0.725,0.075,0.762,-29.12,-49.875,-3.01
50988760,-0.727,0.05,0.779,-21.91,-48.965,-3.867
50988760,-0.734,0.042,0.751,-16.887,-48.492,-3.762
50988780,-0.719,0.025,0.745,-7.787,-48.895,-4.672
50988780,-0.688,0.012,0.723,0.262,-47.477,-1.837
50988800,-0.661,0.011,0.704,7.017,-42.35,4.672
50988800,-0.679,0.004,0.679,12.18,-32.9,12.635
50988820,-0.694,0.034,0.687,13.737,-20.037,16.292
50988820,-0.717,0.04,0.681,10.045,-6.23,15.89
50988830,-0.776,0.048,0.694,5.25,4.392,15.19
50988840,-0.856,0.014,0.679,-2.38,8.715,14.367
50988850,-0.909,0,0.66,-9.082,5.582,13.877
50988860,-0.923,-0.047,0.661,-11.48,-3.062,14.105
50988870,-0.895,-0.053,0.647,-11.27,-13.002,14.507
50988880,-0.86,-0.05,0.657,-7.035,-20.912,16.432
50988890,-0.818,-0.056,0.679,-2.31,-24.395,18.865
50988900,-0.79,-0.055,0.692,-0.49,-23.415,18.235
50988910,-0.776,-0.03,0.724,2.327,-22.942,14.805
50988920,-0.759,-0.021,0.76,4.182,-25.55,14.192
50988930,-0.723,0,0.775,4.917,-31.237,15.102
50988940,-0.678,0.04,0.781,4.987,-36.732,14.98
50988950,-0.654,0.059,0.787,5.32,-41.492,13.65
50988960,-0.608,0.083,0.788,4.2,-43.942,10.517
50988970,-0.571,0.103,0.766,1.89,-44.467,5.932
50988980,-0.529,0.117,0.754,-1.382,-41.772,0.35
50988990,-0.497,0.126,0.745,-3.937,-35.77,-4.34
50989000,-0.51,0.133,0.742,-6.72,-26.827,-7.612
50989010,-0.554,0.131,0.742,-10.622,-19.757,-11.217
50989020,-0.612,0.113,0.739,-14.525,-16.73,-14.087
50989030,-0.66,0.085,0.73,-16.38,-18.06,-14.77
50989040,-0.692,0.07,0.73,-15.225,-21.56,-13.982
50989050,-0.724,0.054,0.743,-13.212,-26.495,-13.737
50989060,-0.735,0.042,0.758,-11.637,-32.06,-14.682
50989070,-0.715,0.021,0.769,-10.132,-36.487,-14.472
50989080,-0.693,0.007,0.788,-8.085,-35.892,-12.25
50989090,-0.693,-0.014,0.807,-7,-33.057,-8.645
50989100,-0.687,-0.03,0.828,-5.285,-28.42,-5.285
50989110,-0.694,-0.054,0.85,-2.765,-23.695,-1.592
50989120,-0.695,-0.081,0.868,0.997,-20.422,1.995
50989130,-0.673,-0.093,0.883,7.017,-19.215,4.637
50989140,-0.644,-0.091,0.91,14.945,-18.795,6.965
50989150,-0.614,-0.076,0.922,23.03,-18.97,8.085
50989160,-0.576,-0.05,0.924,30.362,-18.935,7.7
50989170,-0.538,-0.025,0.916,37.467,-17.745,7.122
50989170,-0.502,0.007,0.898,44.03,-14.157,5.74
50989190,-0.482,0.033,0.87,48.982,-7.91,3.185
50989190,-0.474,0.08,0.84,51.082,0.472,-1.33
50989210,-0.48,0.126,0.801,49.945,9.607,-7.14
50989210,-0.501,0.156,0.761,47.145,17.482,-11.322
50989230,-0.525,0.194,0.711,41.65,24.832,-14.07
50989230,-0.545,0.228,0.677,35.735,31.237,-16.222
50989250,-0.593,0.234,0.65,27.755,36.05,-16.222
50989250,-0.641,0.24,0.623,19.81,36.855,-15.522
50989260,-0.672,0.259,0.601,11.655,34.842,-13.755
50989270,-0.682,0.23,0.561,7.087,31.465,-10.64
50989280,-0.706,0.229,0.558,6.72,29.592,-5.11
50989290,-0.723,0.254,0.552,1.802,26.652,-1.715
50989300,-0.745,0.246,0.557,-3.097,24.377,0.105
50989310,-0.756,0.227,0.556,-9.135,22.33,2.047
50989320,-0.748,0.226,0.55,-15.61,21.542,3.867
50989330,-0.757,0.23,0.563,-21.262,21.175,5.197
50989340,-0.774,0.222,0.565,-28.315,20.737,5.18
50989350,-0.787,0.197,0.57,-34.405,18.48,3.675
50989360,-0.804,0.173,0.576,-38.08,14.157,1.75
50989370,-0.818,0.159,0.603,-37.38,5.652,-0.297
50989380,-0.823,0.147,0.627,-33.302,-5.18,-0.455
50989390,-0.807,0.138,0.666,-26.652,-18.497,0.087
50989400,-0.751,0.148,0.695,-18.62,-31.15,1.592
50989410,-0.698,0.147,0.733,-9.187,-40.845,6.982
50989420,-0.661,0.151,0.779,-1.26,-44.502,14.297
50989430,-0.63,0.173,0.803,1.925,-43.75,17.307
50989440,-0.618,0.171,0.829,4.392,-39.48,16.327
50989450,-0.615,0.156,0.832,5.092,-35,14
50989460,-0.608,0.156,0.862,10.377,-31.692,11.952
50989470,-0.594,0.139,0.874,16.485,-30.345,12.617
50989480,-0.565,0.145,0.877,22.155,-28.787,14.262
50989490,-0.539,0.152,0.888,26.967,-26.722,17.08
50989500,-0.534,0.152,0.889,29.61,-22.662,20.405
50989510,-0.532,0.157,0.868,29.907,-18.13,21.192
50989510,-0.541,0.168,0.881,32.41,-12.11,18.497
50989530,-0.568,0.164,0.844,26.285,-7,16.975
50989530,-0.571,0.151,0.829,23.397,-2.852,12.67
50989550,-0.575,0.165,0.803,17.412,2.187,7
50989550,-0.588,0.16,0.78,11.515,7.052,-0.367
50989570,-0.618,0.161,0.761,5.775,11.112,-6.877
50989570,-0.65,0.147,0.707,-3.675,12.127,-11.445
50989580,-0.66,0.128,0.686,-8.54,10.937,-16.03
50989590,-0.667,0.117,0.654,-13.072,8.102,-19.232
50989600,-0.672,0.117,0.646,-16.625,5.005,-19.18
50989610,-0.708,0.085,0.647,-20.02,0.455,-14.525
50989620,-0.7,0.083,0.651,-20.422,-4.287,-11.585
50989630,-0.678,0.101,0.686,-17.832,-6.615,-7.787
50989640,-0.689,0.091,0.709,-17.675,-6.545,-2.03
50989650,-0.687,0.082,0.724,-18.69,-6.177,0.28
50989660,-0.675,0.088,0.759,-17.99,-4.795,-0.315
50989670,-0.674,0.082,0.788,-18.165,-4.077,-1.802
50989680,-0.686,0.081,0.778,-21.892,-5.075,-2.59
50989690,-0.702,0.043,0.768,-20.002,-9.8,-2.485
50989700,-0.683,0.049,0.801,-14.385,-15.435,-2.012
50989710,-0.658,0.048,0.77,-14.7,-21.962,-0.175
50989720,-0.634,0.045,0.782,-9.047,-26.565,-0.14
50989730,-0.6,0.052,0.79,-5.127,-30.625,-1.225
50989740,-0.549,0.065,0.804,-1.732,-32.83,-3.325
50989750,-0.533,0.073,0.8,-1.277,-32.655,-3.097
50989760,-0.529,0.077,0.815,-2.362,-31.15,-5.11
50989770,-0.507,0.088,0.833,-7.892,-29.19,-9.625
50989780,-0.46,0.089,0.824,-16.047,-24.622,-12.285
50989790,-0.446,0.077,0.844,-22.732,-17.78,-12.67
50989800,-0.368,0.014,0.838,-29.697,-3.465,-11.48
50989810,-0.287,-0.087,0.836,-29.382,25.812,-5.425
50989820,-0.575,-0.001,0.924,-15.417,59.622,3.692
50989830,-0.8,0.075,0.976,-15.61,65.187,3.447
50989840,-0.783,0.039,0.915,-27.23,50.575,-0.665
50989850,-0.71,0.031,0.869,-29.767,35.927,-1.557
50989860,-0.662,0.052,0.807,-32.602,28.14,-0.84
50989870,-0.647,0.045,0.742,-35.017,28.472,-1.435
50989880,-0.719,0.026,0.7,-33.652,30.485,-2.17
50989890,-0.734,0.033,0.673,-30.31,28.105,-1.82
50989900,-0.81,0.028,0.654,-26.722,18.025,-0.35
50989910,-0.8,0.035,0.66,-19.477,1.75,-1.557
50989920,-0.77,0.054,0.692,-14.21,-13.772,-2.415
50989920,-0.717,0.059,0.744,-11.095,-23.1,-3.237
50989940,-0.689,0.058,0.788,-10.272,-22.96,-3.167
50989940,-0.736,0.047,0.809,-13.457,-18.882,-1.54
50989960,-0.769,0.054,0.832,-17.657,-19.477,-1.312
50989960,-0.758,0.07,0.836,-23.922,-25.69,-1.645
50989980,-0.675,0.046,0.814,-28.42,-30.87,-0.577
50989980,-0.619,0.054,0.809,-30.082,-29.505,0.63
50990000,-0.634,0.014,0.793,-31.745,-25.987,1.522
50990000,-0.631,0.021,0.778,-31.36,-23.852,-2.59
50990010,-0.585,-0.003,0.775,-32.445,-24.202,-5.197
50990020,-0.566,-0.073,0.749,-27.562,-21.717,-3.185
50990030,-0.551,-0.063,0.764,-18.882,-20.335,-3.657
50990040,-0.544,-0.022,0.745,-15.645,-19.372,-3.237
50990050,-0.548,-0.053,0.746,-9.852,-18.497,0.945
50990060,-0.564,-0.071,0.715,-6.107,-19.197,6.352
50990070,-0.608,-0.071,0.701,0.21,-23.205,8.907
50990080,-0.568,-0.014,0.701,5.74,-27.247,7.735
50990090,-0.529,-0.023,0.701,7.245,-28.962,5.687
50990100,-0.533,-0.043,0.709,12.74,-26.81,6.3
50990110,-0.561,-0.03,0.737,17.64,-23.73,11.497
50990120,-0.598,-0.029,0.748,20.177,-21.822,17.15
50990130,-0.594,-0.022,0.75,23.082,-23.59,20.457
50990140,-0.565,-0.005,0.746,24.36,-25.375,23.765
50990150,-0.565,-0.006,0.732,27.37,-25.585,27.877
50990160,-0.573,-0.003,0.755,32.865,-23.957,30.45
50990170,-0.563,0.011,0.773,35.91,-22.557,30.345
50990180,-0.544,0.004,0.774,38.78,-19.547,29.137
50990190,-0.541,-0.004,0.769,43.925,-15.995,29.085
50990200,-0.533,0.017,0.779,49.14,-12.005,29.68
50990210,-0.546,0.048,0.812,51.887,-8.995,28.945
50990220,-0.549,0.074,0.842,51.047,-5.635,26.092
50990230,-0.563,0.108,0.881,45.622,-0.787,22.172
50990240,-0.613,0.132,0.891,36.382,3.727,17.255
50990250,-0.666,0.111,0.878,26.267,5.582,12.127
50990260,-0.693,0.113,0.856,20.422,3.15,10.78
50990260,-0.686,0.131,0.866,17.99,-0.297,13.335
50990280,-0.685,0.116,0.874,15.4,-2.555,15.47
50990280,-0.643,0.081,0.849,14.297,-1.855,15.015
50990300,-0.617,0.084,0.843,14.665,1.067,16.782
50990300,-0.668,0.071,0.821,14.087,1.697,23.257
50990320,-0.688,0.049,0.811,17.657,-1.942,31.22
50990320,-0.69,-0.01,0.816,24.272,-6.895,42.175
50990330,-0.656,-0.019,0.831,37.03,-6.23,50.802
50990340,-0.637,0.034,0.884,50.837,2.887,52.395
50990350,-0.634,0.077,0.921,55.282,16.555,46.165
50990360,-0.612,0.077,0.929,51.642,31.5,34.825
50990370,-0.589,0.059,0.909,45.815,42.122,24.447
50990380,-0.508,0.076,0.906,39.445,49.577,18.48
50990390,-0.48,0.152,0.886,29.785,58.012,15.522
50990400,-0.543,0.202,0.84,12.285,67.515,11.2
50990410,-0.6,0.19,0.782,-5.67,71.05,2.082
50990420,-0.579,0.178,0.748,-20.947,65.572,-11.305
50990430,-0.496,0.174,0.673,-34.335,58.222,-22.837
50990440,-0.457,0.232,0.691,-39.515,56.927,-31.185
50990450,-0.487,0.2,0.615,-48.825,52.097,-32.007
50990460,-0.46,0.217,0.623,-48.44,46.27,-37.695
50990470,-0.532,0.18,0.563,-51.765,39.76,-33.162
50990480,-0.557,0.205,0.549,-43.172,32.987,-30.905
50990490,-0.61,0.23,0.583,-33.022,27.317,-31.01
50990500,-0.673,0.241,0.624,-25.777,19.792,-29.767
50990510,-0.693,0.283,0.667,-21.297,9.485,-36.785
50990520,-0.713,0.308,0.711,-21.525,1.12,-40.547
50990530,-0.774,0.289,0.728,-26.337,-8.487,-39.112
50990540,-0.818,0.293,0.759,-30.467,-20.317,-40.6
50990550,-0.836,0.281,0.758,-35.42,-34.405,-41.352
50990560,-0.826,0.266,0.771,-38.465,-47.355,-43.26
50990570,-0.782,0.226,0.752,-41.125,-58.117,-43.89
50990580,-0.637,0.132,0.717,-40.04,-62.947,-42.507
50990590,-0.262,0.009,0.709,-25.182,-37.222,-33.845
50990600,-0.585,0.097,0.835,6.912,16.38,-13.965
50990610,-0.912,0.253,0.917,19.04,33.407,-11.585
50990620,-0.94,0.193,0.862,0.472,15.225,-17.395
50990630,-0.794,0.032,0.766,-7.07,-6.772,-19.617
50990640,-0.684,0.024,0.753,-0.857,-14.49,-16.625
50990650,-0.678,0.068,0.771,4.427,-12.162,-12.267
50990660,-0.681,0.082,0.787,5.792,-8.155,-13.965
50990670,-0.691,0.031,0.814,8.225,-4.795,-16.047
50990670,-0.646,-0.039,0.817,14.262,-5.372,-14.735
50990690,-0.602,-0.071,0.815,24.797,-4.882,-8.855
50990690,-0.625,-0.076,0.777,38.64,-2.012,0.28
50990710,-0.633,-0.081,0.766,56.175,2.45,5.355
50990710,-0.633,-0.069,0.803,79.03,6.755,8.75
50990730,-0.62,-0.018,0.852,96.145,10.552,13.23
50990730,-0.625,0.047,0.907,106.732,13.37,17.955
50990740,-0.673,0.103,0.945,111.772,13.387,21.7
50990750,-0.689,0.144,0.956,112.647,9.03,21.227
50990760,-0.665,0.18,0.955,110.407,3.29,19.932
50990770,-0.627,0.207,0.924,104.947,-1.855,18.427
50990780,-0.598,0.23,0.892,100.905,-4.2,16.047
50990790,-0.604,0.238,0.865,96.862,-4.935,13.912
50990800,-0.622,0.247,0.831,90.527,-5.652,8.487
50990810,-0.63,0.25,0.802,85.47,-9.59,-0.542
50990820,-0.619,0.253,0.773,82.25,-16.555,-8.995
50990830,-0.597,0.247,0.742,79.975,-26.652,-14.525
50990840,-0.56,0.235,0.696,81.375,-37.432,-18.952
50990850,-0.511,0.243,0.657,85.085,-46.637,-24.377
50990860,-0.492,0.248,0.641,91.892,-52.622,-28.087
50990870,-0.446,0.31,0.643,97.177,-56.157,-34.142
50990880,-0.432,0.32,0.625,98.21,-57.26,-38.412
50990890,-0.413,0.321,0.589,98.455,-54.355,-46.725
50990900,-0.409,0.319,0.556,98.332,-46.392,-56.455
50990910,-0.425,0.281,0.475,98.665,-38.062,-65.59
50990920,-0.406,0.263,0.383,104.16,-28.035,-73.955
50990930,-0.358,0.307,0.339,113.417,-18.497,-76.65
50990940,-0.417,0.324,0.313,120.785,-12.652,-70.28
50990950,-0.542,0.362,0.333,128.222,-12.512,-62.737
50990960,-0.71,0.394,0.381,130.865,-17.43,-56.525
50990970,-0.833,0.452,0.474,128.8,-29.662,-51.747
50990980,-0.909,0.542,0.571,118.737,-49.665,-47.127
50990990,-0.896,0.61,0.641,100.152,-74.497,-42.735
50991000,-0.833,0.626,0.685,76.895,-95.445,-37.152
50991010,-0.717,0.651,0.722,52.972,-105.087,-33.162
50991010,-0.651,0.651,0.75,29.015,-101.902,-30.905
50991030,-0.603,0.623,0.778,7.77,-87.99,-31.605
50991030,-0.57,0.587,0.793,-10.447,-68.005,-35.875
50991050,-0.582,0.529,0.805,-24.727,-45.097,-41.877
50991050,-0.579,0.499,0.833,-35.875,-23.152,-49.367
50991070,-0.565,0.464,0.839,-48.457,-5.232,-57.75
50991070,-0.616,0.406,0.837,-59.36,8.172,-63.35
50991080,-0.668,0.348,0.828,-65.905,16.852,-69.492
50991090,-0.698,0.302,0.813,-69.65,18.865,-75.267
50991100,-0.715,0.253,0.79,-70.997,16.275,-76.79
50991110,-0.722,0.232,0.784,-68.705,8.82,-72.59
50991120,-0.737,0.205,0.767,-66.955,-0.525,-64.925
50991130,-0.718,0.194,0.768,-66.08,-9.695,-60.882
50991140,-0.718,0.167,0.78,-68.04,-17.955,-58.607
50991150,-0.749,0.111,0.781,-68.092,-28.962,-58.047
50991160,-0.72,0.09,0.797,-64.61,-42.595,-58.152
50991170,-0.767,-0.013,0.774,-52.517,-62.055,-46.62
50991180,-0.619,0.091,0.833,-36.575,-79.45,-48.982
50991190,-0.553,0.137,0.861,-38.062,-87.64,-50.627
50991200,-0.57,0.08,0.862,-41.667,-90.072,-39.095
50991210,-0.519,0.087,0.895,-43.155,-88.427,-31.955
50991220,-0.473,0.13,0.93,-52.692,-80.622,-28.647
50991230,-0.477,0.108,0.925,-66.972,-67.602,-27.527
50991240,-0.451,0.056,0.879,-82.722,-50.155,-32.777
50991250,-0.413,-0.025,0.838,-93.607,-29.645,-38.605
50991260,-0.424,-0.086,0.802,-99.312,-9.87,-42.017
50991270,-0.486,-0.206,0.755,-92.89,1.855,-36.61
50991280,-0.45,-0.176,0.786,-82.302,9.992,-34.702
50991290,-0.456,-0.197,0.769,-78.242,19.162,-30.73
50991300,-0.53,-0.213,0.807,-68.04,27.125,-22.785
50991310,-0.612,-0.21,0.816,-61.11,27.475,-19.985
50991320,-0.62,-0.173,0.844,-55.702,23.94,-22.505
50991330,-0.616,-0.153,0.86,-53.707,19.32,-29.365
50991340,-0.612,-0.151,0.835,-53.252,14.927,-36.82
50991350,-0.603,-0.15,0.822,-49.84,9.1,-38.412
50991360,-0.563,-0.172,0.763,-42.875,1.907,-33.827
50991370,-0.516,-0.169,0.733,-26.477,-2.73,-23.992
50991380,-0.464,-0.107,0.715,-11.795,-1.382,-12.425
50991390,-0.445,-0.028,0.735,1.277,5.705,-1.312
50991400,-0.462,0.015,0.735,4.83,18.06,5.897
50991410,-0.503,0.033,0.74,4.725,32.287,10.622
50991410,-0.554,0.069,0.757,-0.017,45.202,12.11
50991420,-0.627,0.053,0.765,-5.827,53.287,12.617
50991430,-0.691,0.038,0.771,-9.73,55.212,10.097
50991440,-0.733,0.051,0.788,-11.655,51.275,6.177
50991450,-0.762,0.067,0.78,-17.237,42.787,0.595
50991460,-0.774,0.048,0.768,-20.877,32.147,-3.167
50991470,-0.726,0.067,0.733,-24.92,21.717,-10.36
50991480,-0.727,0.013,0.701,-23.502,13.737,-11.235
50991490,-0.725,-0.026,0.662,-18.042,7.455,-7.07
50991500,-0.712,0.014,0.663,-6.755,1.4,-2.362
50991510,-0.68,0.085,0.655,-0.927,-0.455,-7.735
50991520,-0.683,0.068,0.631,2.957,0.752,-11.69
50991530,-0.701,0.057,0.619,4.305,1.155,-9.275
50991540,-0.709,0.064,0.611,2.205,-1.697,-6.737
50991550,-0.73,0.055,0.612,2.327,-5.792,-8.487
50991560,-0.749,0.043,0.609,-1.015,-9.572,-12.005
50991570,-0.773,0.021,0.611,-4.725,-14.542,-16.747
50991580,-0.809,0.004,0.613,-8.452,-21.507,-19.495
50991590,-0.812,-0.001,0.635,-12.862,-31.902,-22.732
50991600,-0.79,-0.012,0.664,-17.167,-43.802,-26.652
50991610,-0.754,-0.033,0.695,-22.592,-57.54,-27.702
50991620,-0.72,-0.078,0.713,-28.175,-70.63,-24.115
50991630,-0.712,-0.124,0.741,-29.05,-82.967,-15.995
50991640,-0.673,-0.238,0.785,-26.985,-91.455,-6.002
50991650,-0.639,-0.27,0.839,-18.55,-97.405,3.22
50991660,-0.664,-0.291,0.846,-6.877,-103.512,13.615
50991670,-0.594,-0.331,0.959,15.417,-109.585,14.647
50991680,-0.527,-0.252,0.958,18.9,-108.202,18.497
50991690,-0.436,-0.256,1.031,18.69,-100.782,28.14
50991700,-0.404,-0.343,0.983,15.785,-79.345,38.78
50991710,-0.525,-0.332,1.066,7.035,-58.362,36.382
50991720,-0.539,-0.34,1.11,3.57,-52.307,26.565
50991730,-0.407,-0.388,1.025,-1.26,-54.232,29.032
50991740,-0.272,-0.389,0.974,6.895,-43.557,42.56
50991750,-0.213,-0.329,0.936,14.017,-19.39,54.565
50991760,-0.24,-0.307,0.9,22.75,9.38,61.425
50991760,-0.207,-0.26,0.832,26.897,41.492,66.92
50991780,-0.171,-0.189,0.818,28.857,77.822,72.765
50991780,-0.213,-0.121,0.794,26.967,115.447,77.297
50991800,-0.359,-0.097,0.744,19.81,147.735,82.442
50991800,-0.491,-0.11,0.648,8.347,170.012,85.855
50991820,-0.566,-0.129,0.586,2.152,183.767,91.945
50991820,-0.61,-0.121,0.55,-1.312,193.025,103.512
50991830,-0.648,-0.098,0.508,-6.265,199.657,112.595
50991840,-0.659,-0.05,0.472,-14.017,205.992,116.585
50991850,-0.637,-0.041,0.389,-22.662,211.802,116.532
50991860,-0.664,-0.01,0.385,-28.28,219.852,116.392
50991870,-0.769,0.016,0.371,-35.98,219.765,115.885
50991880,-0.802,0.036,0.374,-39.305,213.15,112.612
50991890,-0.822,0.05,0.402,-39.69,202.317,109.375
50991900,-0.86,0.07,0.415,-41.107,190.19,104.772
50991910,-0.886,0.099,0.46,-41.125,173.792,94.202
50991920,-0.918,0.106,0.47,-41.212,152.88,81.882
50991930,-0.917,0.152,0.539,-39.62,131.197,66.605
50991940,-0.927,0.166,0.571,-41.562,109.322,54.46
50991950,-0.871,0.171,0.604,-36.977,88.34,42.612
50991960,-0.801,0.191,0.636,-35.682,72.31,36.417
50991970,-0.784,0.198,0.656,-34.807,61.967,32.585
50991980,-0.769,0.225,0.662,-38.797,57.05,26.88
50991990,-0.754,0.191,0.655,-36.82,54.39,24.447
50992000,-0.77,0.209,0.669,-33.355,56.157,20.51
50992010,-0.842,0.198,0.691,-27.93,54.53,16.17
50992020,-0.888,0.212,0.675,-26.95,49.752,9.695
50992030,-0.913,0.185,0.66,-20.58,39.585,7.892
50992040,-0.9,0.181,0.64,-15.137,30.117,7.297
50992050,-0.906,0.158,0.618,-6.842,21.035,7.857
50992060,-0.875,0.165,0.614,-1.277,16.555,4.777
50992070,-0.848,0.188,0.592,-1.12,14.717,6.737
50992080,-0.86,0.132,0.562,4.095,15.19,18.655
50992090,-0.785,0.187,0.549,5.232,22.855,19.145
50992100,-0.756,0.189,0.497,0.735,35.315,21.91
50992100,-0.773,0.174,0.434,-0.052,49.175,28.612
50992120,-0.8,0.17,0.382,-0.42,63.665,34.545
50992120,-0.838,0.192,0.347,-0.49,76.387,36.82
50992140,-0.917,0.2,0.333,2.082,83.86,39.62
50992140,-0.998,0.237,0.341,5.11,85.61,39.55
50992160,-1.061,0.256,0.361,4.48,83.492,34.877
50992160,-1.104,0.265,0.384,0.857,77.647,26.88
50992170,-1.137,0.255,0.38,-2.205,65.607,18.725
50992180,-1.119,0.253,0.355,-3.237,53.392,11.445
50992190,-1.123,0.244,0.344,-2.205,40.967,7.227
50992200,-1.09,0.248,0.327,-1.242,29.032,0.717
50992210,-1.063,0.235,0.345,-0.472,19.075,-6.142
50992220,-1.072,0.227,0.363,1.925,6.597,-11.06
50992230,-1.101,0.222,0.356,6.93,-11.235,-11.777
50992240,-1.114,0.226,0.402,12.95,-34.037,-12.757
50992250,-1.081,0.271,0.432,12.372,-56.91,-17.692
50992260,-1.142,0.325,0.474,3.605,-79.24,-26.355
50992270,-1.076,0.329,0.438,-8.382,-100.957,-39.935
50992280,-0.851,0.232,0.365,-20.895,-113.662,-49.367
50992290,-0.612,0.14,0.305,-27.597,-105.98,-48.352
50992300,-0.498,0.116,0.281,-26.6,-76.825,-33.985
50992310,-0.513,0.1,0.305,-22.557,-39.27,-13.492
50992320,-0.614,0.099,0.318,-19.827,-2.817,4.585
50992330,-0.706,0.132,0.367,-22.732,26.967,19.162
50992340,-0.921,0.134,0.378,-24.342,52.955,32.515
50992350,-1.102,0.096,0.391,-21.507,62.545,37.117
50992360,-1.134,0.102,0.407,-23.17,58.66,26.827
50992370,-1.191,0.073,0.352,-23.117,43.067,19.652
50992380,-1.122,0.054,0.377,-10.762,22.977,12.67
50992390,-0.971,0.086,0.357,-3.762,5.285,5.565
50992400,-0.94,0.071,0.336,-0.612,-11.112,5.302
50992410,-0.799,0.07,0.331,11.777,-15.19,13.737
50992420,-0.719,0.103,0.39,22.26,-2.59,26.442
50992430,-0.82,0.122,0.398,20.667,17.115,35.192
50992440,-0.933,0.115,0.391,20.492,31.255,39.2
50992450,-0.984,0.136,0.375,21.735,35.98,39.585
50992460,-1.072,0.108,0.368,23.345,33.442,39.865
50992470,-1.023,0.135,0.4,25.025,25.69,36.12
50992480,-1.111,0.123,0.368,23.345,12.25,31.727
50992490,-0.839,0.141,0.291,10.377,-0.962,18.69
50992500,-0.725,0.199,0.33,15.82,20.352,23.852
50992510,-0.996,0.198,0.345,14.84,35.175,29.767
50992510,-1.027,0.197,0.3,2.957,34.982,20.93
50992530,-0.968,0.199,0.303,5.075,31.902,17.675
50992530,-0.973,0.228,0.302,-0.49,32.252,13.562
50992550,-1.04,0.236,0.306,-8.435,29.925,5.792
50992550,-1.101,0.2,0.29,-15.942,21.052,-2.66
50992570,-1.103,0.181,0.276,-20.842,6.037,-13.422
50992570,-1.111,0.169,0.261,-21.49,-15.032,-22.032
50992580,-1.106,0.163,0.257,-19.267,-39.48,-28.42
50992590,-1.082,0.16,0.261,-16.397,-65.572,-34.44
50992600,-0.948,0.177,0.272,-13.195,-86.012,-38.797
50992610,-0.69,0.187,0.26,-9.835,-86.467,-37.1
50992620,-0.535,0.144,0.371,-7.192,-52.325,-23.572
50992630,-0.969,0.081,0.403,-5.932,-13.895,-3.255
50992640,-1.17,0.155,0.469,-4.427,-2.012,-0.297
50992650,-1.093,0.189,0.473,-6.037,-13.702,-8.12
50992660,-0.993,0.161,0.394,-12.32,-25.305,-14.647
50992670,-0.972,0.126,0.369,-13.667,-25.655,-14.542
50992680,-1.072,0.153,0.372,-11.795,-27.597,-10.832
50992690,-1.054,0.179,0.34,-13.282,-35.245,-10.185
50992700,-1.052,0.12,0.323,-13.16,-44.065,-7.857
50992710,-1.002,0.094,0.371,-4.9,-52.43,-3.447
50992720,-0.925,0.152,0.408,4.707,-61.985,0.245
50992730,-0.716,0.191,0.371,8.575,-68.967,-2.922
50992740,-0.551,0.196,0.364,5.215,-52.745,-9.345
50992750,-0.801,0.16,0.332,4.445,-33.302,-10.22
50992760,-0.746,0.276,0.361,4.165,-32.427,-13.107
50992770,-0.554,0.191,0.337,-4.707,-22.207,-9.835
50992780,-0.827,0.118,0.343,-4.672,3.15,-0.42
50992790,-1.222,0.16,0.477,0.105,-4.41,2.485
50992800,-0.646,0.056,0.347,0.997,-16.642,-2.66
50992810,-0.879,0.136,0.575,13.3,13.877,9.852
50992820,-1.209,0.186,0.506,0.437,12.827,9.152
50992830,-1.092,0.127,0.472,-3.447,-3.29,-2.59
50992830,-0.954,0.095,0.481,-1.557,-10.955,-7.875
50992850,-0.945,0.116,0.444,-5.705,-7.542,-8.907
50992850,-1.141,0.096,0.4,-11.147,-11.83,-12.25
50992870,-1.019,0.112,0.378,-8.715,-24.062,-18.165
50992870,-0.955,0.149,0.406,-6.352,-31.955,-17.045
50992890,-1.034,0.165,0.431,-14.49,-38.22,-14.14
50992890,-1.042,0.158,0.414,-22.907,-47.022,-15.12
50992910,-1.088,0.156,0.471,-24.045,-57.68,-17.57
50992910,-1.059,0.189,0.503,-26.932,-70.63,-20.895
50992920,-0.922,0.193,0.557,-30.537,-73.237,-20.02
50992930,-1.003,0.179,0.608,-34.982,-69.055,-18.41
50992940,-0.986,0.198,0.597,-40.005,-73.027,-21.21
50992950,-0.795,0.187,0.577,-40.197,-73.412,-23.012
50992960,-0.792,0.173,0.556,-39.882,-65.957,-22.54
50992970,-0.822,0.172,0.485,-43.89,-63.595,-28.437
50992980,-0.754,0.135,0.415,-47.302,-64.942,-34.195
50992990,-0.835,0.092,0.436,-50.277,-61.95,-32.637
50993000,-0.957,0.033,0.443,-54.022,-71.277,-30.625
50993010,-0.78,-0.038,0.512,-52.272,-79.432,-23.345
50993020,-0.903,-0.076,0.563,-52.08,-79.957,-9.52
50993030,-0.942,-0.091,0.585,-54.845,-87.22,-8.295
50993040,-0.783,-0.094,0.597,-52.99,-90.72,-12.6
50993050,-0.822,-0.083,0.619,-51.782,-88.935,-14.63
50993060,-0.851,-0.08,0.596,-51.607,-90.457,-17.08
50993070,-0.797,-0.032,0.606,-45.517,-94.255,-18.83
50993080,-0.75,0.008,0.611,-43.295,-101.15,-20.702
50993090,-0.46,-0.012,0.594,-45.325,-96.32,-23.432
50993100,-0.584,0.006,0.661,-40.092,-72.747,-19.04
50993110,-0.805,0.027,0.669,-42.787,-65.222,-18.025
50993120,-0.718,-0.003,0.652,-44.87,-68.915,-20.772
50993130,-0.757,-0.05,0.653,-43.12,-71.295,-19.25
50993140,-0.855,-0.064,0.654,-41.265,-74.357,-19.372
50993150,-0.889,-0.082,0.654,-37.152,-82.635,-18.322
50993160,-0.896,-0.088,0.65,-33.337,-95.917,-14.892
50993170,-0.805,-0.075,0.655,-28.665,-110.25,-9.835
50993180,-0.745,-0.08,0.651,-23.362,-120.977,-4.812
50993190,-0.692,-0.102,0.654,-20.142,-130.83,-2.432
50993200,-0.606,-0.123,0.644,-14.63,-139.317,2.047
50993210,-0.552,-0.13,0.622,-10.57,-146.457,10.447
50993220,-0.544,-0.145,0.613,-9.485,-153.23,22.837
50993230,-0.567,-0.177,0.576,-7.997,-162.942,37.205
50993240,-0.44,-0.194,0.63,-2.782,-168.717,50.155
50993250,-0.25,-0.145,0.799,0.437,-155.802,48.895
50993260,-0.153,-0.104,0.896,-3.255,-127.505,30.887
50993260,-0.182,-0.122,0.927,-11.935,-100.187,10.972
50993280,-0.174,-0.135,0.961,-7.787,-81.882,4.112
50993280,-0.202,-0.123,0.945,-5.057,-69.125,9.047
50993300,-0.244,-0.119,0.942,-0.997,-55.177,8.977
50993300,-0.323,-0.079,0.944,0.84,-41.247,5.425
50993320,-0.418,-0.071,0.935,0.21,-31.955,2.135
50993320,-0.479,-0.097,0.925,-0.227,-27.475,-0.98
50993330,-0.449,-0.087,0.925,2.187,-23.782,-5.967
50993340,-0.501,-0.064,0.932,3.85,-17.395,-10.937
50993350,-0.462,-0.066,0.957,2.397,-10.92,-17.622
50993360,-0.361,-0.082,0.999,1.4,0.647,-20.947
50993370,-0.353,-0.097,1.025,1.417,16.642,-18.41
50993380,-0.282,-0.138,1.021,0.665,37.765,-16.66
50993390,-0.146,-0.207,1.022,-0.192,58.94,-19.547
50993400,0.003,-0.27,0.982,0.087,85.627,-21.087
50993410,-0.007,-0.322,0.902,7.35,116.235,-15.995
50993420,-0.122,-0.332,0.827,21.507,140.945,-7.875
50993430,-0.252,-0.36,0.787,39.515,153.457,2.957
50993440,-0.378,-0.457,0.745,64.907,150.57,12.967
50993450,-0.559,-0.386,0.78,98.84,149.1,23.362
50993460,-0.82,-0.149,0.933,138.932,132.265,30.537
50993470,-0.692,-0.347,1.031,163.835,107.782,36.732
50993480,-0.304,-0.39,1.035,213.15,127.75,41.002
50993490,-0.39,-0.063,1.047,277.06,164.552,51.572
50993500,-0.693,0.173,1.035,296.327,180.722,66.377
50993510,-0.872,0.316,0.981,286.965,171.482,65.52
50993520,-0.851,0.368,0.877,270.83,148.837,50.715
50993530,-0.788,0.424,0.765,256.27,121.45,31.937
50993540,-0.766,0.481,0.646,236.477,92.295,16.695
50993550,-0.709,0.512,0.541,216.895,62.982,1.575
50993560,-0.674,0.536,0.489,200.41,34.807,-12.11
50993570,-0.673,0.608,0.48,181.527,9.117,-29.435
50993580,-0.696,0.666,0.481,155.96,-12.792,-50.417
50993580,-0.721,0.67,0.459,125.93,-32.725,-76.702
50993600,-0.708,0.637,0.427,96.215,-50.155,-103.005
50993600,-0.719,0.574,0.389,69.457,-64.242,-122.517
50993620,-0.703,0.555,0.37,48.93,-71.19,-138.687
50993620,-0.725,0.53,0.368,26.862,-71.26,-149.992
50993640,-0.757,0.474,0.381,6.632,-68.6,-155.452
50993640,-0.765,0.417,0.38,-10.762,-64.312,-158.322
50993660,-0.746,0.356,0.381,-26.337,-57.995,-154.035
50993660,-0.742,0.299,0.382,-36.102,-52.08,-139.912
50993670,-0.784,0.232,0.355,-40.67,-46.06,-119.735
50993680,-0.788,0.216,0.383,-38.237,-36.68,-102.025
50993690,-0.845,0.186,0.415,-35.14,-28.21,-85.995
50993700,-0.914,0.142,0.432,-32.585,-24.045,-72.677
50993710,-0.938,0.119,0.437,-27.125,-23.642,-63.35
50993720,-0.944,0.119,0.469,-18.795,-23.607,-55.825
50993730,-0.935,0.156,0.501,-13.79,-24.167,-50.067
50993740,-0.912,0.188,0.502,-14.087,-24.097,-49.227
50993750,-0.907,0.178,0.491,-17.675,-24.482,-49.28
50993760,-0.899,0.158,0.474,-21.682,-25.252,-47.88
50993770,-0.898,0.149,0.487,-23.38,-26.302,-43.977
50993780,-0.914,0.166,0.508,-26.302,-28.682,-36.785
50993790,-0.916,0.177,0.522,-31.71,-32.077,-30.117
50993800,-0.903,0.18,0.546,-38.902,-33.442,-22.067
50993810,-0.895,0.172,0.573,-48.09,-33.425,-12.512
50993820,-0.886,0.155,0.578,-58.537,-32.637,-3.71
50993830,-0.874,0.12,0.567,-65.712,-33.67,2.782
50993840,-0.863,0.094,0.571,-67.147,-36.015,7.735
50993850,-0.853,0.061,0.543,-68.81,-37.712,14.752
50993860,-0.791,0.051,0.563,-61.39,-38.377,16.065
50993870,-0.764,0.067,0.602,-52.115,-39.41,13.807
50993880,-0.76,0.075,0.64,-45.727,-40.11,10.535
50993890,-0.697,0.083,0.634,-42.385,-41.195,3.43
50993900,-0.641,0.085,0.651,-37.712,-38.097,-0.49
50993910,-0.62,0.072,0.644,-38.395,-32.112,0.262
50993920,-0.612,0.074,0.668,-37.87,-25.602,-0.49
50993930,-0.606,0.08,0.688,-39.952,-19.74,0.402
50993940,-0.592,0.06,0.682,-43.995,-13.335,0.892
50993950,-0.624,0.046,0.693,-45.605,-9.397,0.665
50993960,-0.648,0.026,0.706,-47.442,-9.66,-1.312
50993970,-0.802,-0.18,0.59,-31.552,-17.902,4.952
50993980,-0.714,-0.009,0.729,-13.142,-26.722,-8.89
50993990,-0.765,0.011,0.752,-18.112,-38.36,-11.357
50994000,-0.753,-0.044,0.729,-26.39,-50.295,-22.137
50994010,-0.709,-0.068,0.753,-26.74,-61.775,-30.38
50994010,-0.673,-0.086,0.745,-30.555,-72.257,-29.33
50994030,-0.618,-0.096,0.741,-30.012,-79.327,-24.937
50994030,-0.561,-0.095,0.74,-28.227,-81.025,-21.7
50994050,-0.527,-0.103,0.762,-27.23,-77.49,-17.57
50994050,-0.543,-0.136,0.787,-26.985,-73.78,-11.48
50994070,-0.571,-0.151,0.798,-26.792,-72.975,-9.66
50994070,-0.593,-0.188,0.812,-23.52,-76.632,-7.857
50994080,-0.592,-0.225,0.798,-19.705,-84.682,-2.59
50994090,-0.584,-0.257,0.798,-10.675,-95.55,5.232
50994100,-0.571,-0.28,0.82,1.33,-102.427,16.8
50994110,-0.573,-0.296,0.886,14.017,-104.667,28.945
50994120,-0.563,-0.268,0.959,20.895,-102.392,41.527
50994130,-0.595,-0.269,0.998,20.982,-101.517,52.447
50994140,-0.661,-0.264,1.025,17.552,-100.852,60.392
50994150,-0.725,-0.232,1.062,9.292,-106.715,58.152
50994160,-0.813,-0.265,1.049,-1.662,-122.955,46.865
50994170,-0.79,-0.241,1.024,-8.155,-148.032,32.637
50994180,-0.648,-0.188,1.023,-9.712,-178.78,19.932
50994190,-0.359,-0.114,0.989,-18.777,-204.33,10.132
50994200,0.098,-0.265,0.93,-36.155,-199.5,7.822
50994210,0.319,-0.44,0.899,-32.462,-137.462,14.175
50994220,0.157,-0.176,1.177,0.542,-58.187,17.412
50994230,-0.32,-0.121,1.209,-3.587,-23.345,17.71
50994240,-0.24,-0.167,1.108,-16.852,-22.47,7.227
50994250,-0.18,-0.228,0.977,-25.147,-28.157,3.815
50994260,-0.198,-0.3,0.875,-25.567,-29.522,4.147
50994270,-0.173,-0.284,0.885,-11.462,-25.935,0.7
50994280,-0.115,-0.201,0.927,-0.892,-18.235,-2.572
50994290,-0.114,-0.115,0.962,-3.605,-7.437,-4.252
50994300,-0.151,-0.084,0.952,-17.01,4.48,-3.22
50994310,-0.132,-0.128,0.912,-31.64,19.425,-3.255
50994320,-0.124,-0.153,0.896,-45.92,41.562,-4.795
50994330,-0.182,-0.203,0.858,-56.122,68.355,-7.542
50994330,-0.222,-0.266,0.809,-62.317,93.887,-11.095
50994350,-0.269,-0.389,0.68,-64.12,109.48,-6.912
50994350,-0.322,-0.533,0.631,-48.335,121.572,10.167
50994370,-0.472,-0.555,0.696,-15.855,134.82,32.882
50994370,-0.39,-0.407,0.807,14.962,160.895,50.05
50994390,-0.422,-0.303,0.895,30.712,200.952,66.395
50994390,-0.453,-0.262,0.854,26.215,247.537,69.02
50994410,-0.51,-0.225,0.766,7.7,287.332,61.967
50994410,-0.634,-0.244,0.585,-13.265,307.737,61.792
50994420,-0.675,-0.244,0.435,-21.7,314.16,69.912
50994430,-0.741,-0.177,0.39,-20.3,311.64,85.732
50994440,-0.851,-0.076,0.439,-20.055,292.985,102.847
50994450,-0.846,0.012,0.431,-24.815,264.022,114.362
50994460,-0.765,0.052,0.421,-28.07,237.142,122.01
50994470,-0.724,0.066,0.387,-29.942,216.072,128.187
50994480,-0.728,0.077,0.388,-29.19,198.572,127.417
50994490,-0.716,0.13,0.37,-27.702,181.825,119.017
50994500,-0.69,0.172,0.358,-22.89,165.532,111.422
50994510,-0.64,0.202,0.384,-16.625,152.827,104.247
50994520,-0.678,0.233,0.372,-8.487,147.455,96.932
50994530,-0.744,0.276,0.445,-11.305,128.502,83.282
50994540,-0.711,0.278,0.461,-7.805,122.675,68.81
50994550,-0.859,0.303,0.517,4.165,116.742,58.975
50994560,-0.941,0.302,0.513,4.182,103.46,45.5
50994570,-0.926,0.291,0.561,6.667,90.142,31.29
50994580,-0.925,0.272,0.533,5.582,75.512,19.092
50994590,-0.985,0.301,0.55,-2.747,58.415,28.017
50994600,-1.05,0.167,0.556,28.612,36.277,46.742
50994610,-0.87,0.331,0.566,28.472,27.51,41.79
50994620,-0.75,0.319,0.491,15.225,30.52,35.892
50994630,-0.787,0.219,0.468,19.215,45.885,44.38
50994640,-0.837,0.222,0.444,23.747,62.842,54.932
50994650,-0.889,0.26,0.451,27.562,76.982,61.985
50994660,-0.999,0.267,0.416,28.91,88.27,64.067
50994670,-1.099,0.237,0.468,26.88,90.807,59.115
50994680,-1.213,0.284,0.445,24.377,76.807,50.47
50994690,-1.262,0.262,0.429,22.592,53.06,44.747
50994700,-1.356,0.144,0.479,22.435,17.185,36.312
50994710,-1.207,0.213,0.451,31.01,-29.085,30.765
50994720,-0.812,0.321,0.398,31.727,-49.087,27.125
50994730,-0.781,0.294,0.443,18.952,-31.062,26.18
50994740,-1.125,0.318,0.394,2.17,-16.065,26.39
50994750,-1.042,0.33,0.325,-7.367,-17.587,18.515
50994760,-1.002,0.24,0.287,-11.515,-19.145,12.897
50994760,-1.095,0.159,0.226,-11.515,-25.217,12.005
50994780,-1.044,0.153,0.25,0.962,-34.597,12.407
50994780,-1.028,0.166,0.318,17.062,-41.51,16.537
50994800,-0.947,0.23,0.362,30.73,-39.042,21.017
50994800,-0.857,0.299,0.408,35.962,-21.227,23.38
50994810,-0.964,0.312,0.435,28.14,-1.802,22.977
50994820,-1.05,0.244,0.412,16.992,2.782,21.14
50994830,-1.055,0.243,0.44,15.732,-9.45,18.445
50994840,-1.19,0.244,0.423,11.025,-35.595,17.832
50994850,-0.972,0.215,0.328,-3.657,-70.315,12.285
50994860,-0.89,0.244,0.374,1.54,-74.27,24.045
50994870,-1.001,0.286,0.369,0.822,-82.215,28.402
50994880,-0.796,0.278,0.355,-5.757,-85.802,22.61
50994890,-0.755,0.257,0.394,-0.577,-73.29,30.222
50994900,-0.841,0.274,0.407,-0.822,-56.385,31.692
50994910,-0.833,0.295,0.437,-4.34,-44.747,22.54
50994920,-0.827,0.279,0.466,-5.582,-34.825,16.205
50994930,-0.851,0.287,0.462,-9.082,-27.44,11.812
50994940,-0.879,0.268,0.456,-10.815,-24.727,7.945
50994950,-0.901,0.272,0.466,-11.392,-29.382,5.005
50994960,-0.886,0.276,0.46,-11.637,-38.552,6.405
50994970,-0.821,0.278,0.461,-11.147,-47.215,12.145
50994980,-0.748,0.296,0.455,-13.65,-45.745,18.112
50994990,-0.75,0.306,0.442,-19.95,-33.25,20.387
50995000,-0.808,0.285,0.443,-29.82,-16.992,16.712
50995010,-0.899,0.228,0.462,-36.662,-5.985,12.145
50995020,-0.902,0.232,0.448,-36.855,-3.167,10.57
50995030,-0.861,0.285,0.453,-36.627,-0.927,11.305
50995040,-0.893,0.262,0.439,-39.007,1.592,11.847
50995050,-0.967,0.2,0.399,-38.097,-2.17,11.742
50995060,-0.996,0.19,0.404,-29.575,-12.81,15.575
50995070,-0.981,0.243,0.431,-20.51,-29.907,23.957
50995080,-0.946,0.288,0.428,-16.012,-45.902,31.657
50995080,-0.962,0.29,0.428,-14.07,-57.837,32.655
50995100,-0.942,0.293,0.423,-12.792,-69.772,28.087
50995100,-0.955,0.291,0.439,-9.1,-82.897,27.317
50995120,-0.947,0.311,0.467,-6.947,-97.107,28.77
50995120,-0.865,0.314,0.471,-4.935,-109.445,29.785
50995140,-0.804,0.276,0.49,-2.012,-115.255,33.407
50995140,-0.741,0.259,0.525,3.937,-115.027,37.957
50995160,-0.705,0.27,0.568,13.615,-107.432,41.3
50995160,-0.745,0.312,0.637,20.177,-95.865,40.722
50995170,-0.826,0.317,0.645,20.177,-88.34,32.812
50995180,-0.839,0.285,0.614,17.132,-89.32,21.087
50995190,-0.784,0.242,0.578,22.557,-97.177,14.507
50995200,-0.732,0.197,0.489,32.287,-112.14,17.062
50995210,-0.477,0.269,0.566,52.307,-122.342,33.127
50995220,-0.188,0.445,0.661,68.46,-86.17,55.842
50995230,-0.596,0.459,0.692,43.54,-40.915,51.94
50995240,-0.614,0.323,0.654,28.07,-11.427,30.922
50995250,-0.714,0.343,0.687,27.142,-0.752,24.447
50995260,-0.641,0.354,0.664,19.25,-1.05,19.495
50995270,-0.641,0.321,0.64,16.817,-0.717,17.325
50995280,-0.73,0.307,0.621,17.5,-1.54,17.972
50995290,-0.772,0.294,0.602,22.137,-11.392,21.787
50995300,-0.761,0.323,0.619,29.995,-26.477,25.007
50995310,-0.703,0.375,0.608,33.442,-41.615,24.85
50995320,-0.742,0.383,0.589,33.145,-54.565,23.485
50995330,-0.693,0.427,0.607,32.462,-70.49,20.247
50995340,-0.716,0.516,0.547,25.865,-86.905,16.695
50995350,-0.506,0.353,0.5,14.945,-98.157,10.045
50995360,-0.409,0.42,0.585,29.715,-91.122,7.91
50995370,-0.467,0.545,0.655,30.782,-80.885,8.662
50995380,-0.482,0.533,0.685,19.582,-72.52,4.375
50995390,-0.419,0.501,0.692,17.465,-66.307,2.275
50995400,-0.34,0.519,0.715,18.252,-53.55,2.222
50995410,-0.342,0.544,0.754,14.91,-34.387,0.087
50995420,-0.399,0.566,0.761,8.907,-13.037,-4.445
50995430,-0.45,0.547,0.747,1.82,5.88,-13.247
50995440,-0.418,0.5,0.767,-3.622,20.317,-22.802
50995450,-0.568,0.505,0.687,-7.507,30.73,-26.057
50995460,-0.636,0.491,0.717,-17.395,29.785,-29.557
50995470,-0.629,0.399,0.682,-18.13,20.107,-27.002
50995480,-0.632,0.45,0.696,-13.317,8.47,-19.495
50995480,-0.647,0.472,0.697,-14.105,-0.507,-14.105
50995500,-0.612,0.467,0.704,-19.477,-5.967,-12.477
50995500,-0.597,0.473,0.713,-25.392,-4.602,-12.355
50995510,-0.584,0.48,0.742,-33.722,0.927,-16.17
50995520,-0.583,0.473,0.742,-45.762,9.047,-22.26
50995530,-0.637,0.377,0.697,-56.927,14.822,-27.65
50995540,-0.652,0.256,0.664,-57.715,11.41,-25.795
50995550,-0.699,0.259,0.652,-46.287,-1.12,-11.97
50995560,-0.735,0.269,0.625,-36.155,-17.832,3.762
50995570,-0.676,0.278,0.613,-23.362,-29.102,11.13
50995580,-0.61,0.33,0.638,-12.302,-28.7,10.062
50995590,-0.587,0.355,0.638,-10.22,-21.455,4.55
50995600,-0.568,0.374,0.651,-12.005,-11.69,0.63
50995610,-0.576,0.373,0.651,-15.907,-2.572,-0.35
50995620,-0.589,0.361,0.647,-17.517,3.517,0.385
50995630,-0.609,0.355,0.637,-16.537,5.25,3.482
50995640,-0.645,0.32,0.634,-13.702,3.657,9.117
50995650,-0.647,0.315,0.653,-7.962,-2.695,14.56
50995660,-0.576,0.341,0.674,-2.607,-7.28,18.287
50995670,-0.527,0.348,0.69,-0.542,-5.197,19.495
50995680,-0.513,0.355,0.709,-1.155,2.03,15.925
50995690,-0.517,0.373,0.738,-2.572,8.802,12.652
50995700,-0.528,0.396,0.75,-7.84,14.962,9.887
50995710,-0.556,0.409,0.755,-14.595,20.247,5.355
50995720,-0.599,0.418,0.742,-23.555,24.202,-2.117
50995730,-0.649,0.38,0.706,-32.655,22.68,-9.362
50995740,-0.694,0.251,0.658,-35.367,14.157,-11.06
50995750,-0.653,0.262,0.691,-23.292,0.787,-8.767
50995760,-0.654,0.326,0.722,-14.28,-14.98,-3.482
50995770,-0.635,0.311,0.691,-11.445,-28.192,2.257
50995780,-0.584,0.329,0.734,-2.362,-33.53,4.795
50995790,-0.562,0.357,0.766,-1.715,-30.817,3.132
50995800,-0.605,0.341,0.768,-4.27,-26.652,-0.752
50995810,-0.604,0.333,0.767,-5.127,-25.427,-5.11
50995820,-0.612,0.302,0.764,-1.277,-25.795,-5.652
50995830,-0.588,0.29,0.774,6.615,-28.787,-4.112
50995830,-0.563,0.309,0.785,13.93,-31.15,-0.595
50995850,-0.53,0.285,0.772,19.092,-31.78,2.677
50995850,-0.484,0.208,0.782,31.15,-28.28,5.285
50995870,-0.334,0.386,0.863,47.407,-17.972,6.317
50995870,-0.534,0.509,0.857,34.842,-5.46,5.215
50995890,-0.603,0.403,0.83,16.607,0.157,-6.912
50995890,-0.544,0.426,0.766,8.382,0.332,-17.08
50995910,-0.6,0.448,0.734,-7.577,2.327,-21.227
50995910,-0.685,0.397,0.696,-19.687,-1.977,-24.482
50995920,-0.585,0.386,0.687,-27.142,-11.112,-24.92
50995930,-0.588,0.381,0.712,-31.552,-16.362,-18.725
50995940,-0.597,0.364,0.768,-39.392,-17.01,-19.267
50995950,-0.382,0.395,0.741,-43.33,-9.607,-25.882
50995960,-0.425,0.423,0.771,-52.097,10.57,-27.685
50995970,-0.651,0.307,0.666,-69.632,23.537,-30.205
50995980,-0.709,0.161,0.602,-68.845,17.972,-33.005
50995990,-0.675,0.134,0.581,-50.767,0.262,-23.835
50996000,-0.603,0.195,0.613,-24.902,-15.312,-9.45
50996010,-0.536,0.26,0.646,-4.252,-21.542,-0.595
50996020,-0.495,0.288,0.675,9.17,-15.715,2.222
50996030,-0.523,0.322,0.699,18.62,-2.905,3.727
50996040,-0.583,0.347,0.715,20.825,10.815,3.43
50996050,-0.659,0.335,0.711,19.88,18.165,-1.697
50996060,-0.758,0.297,0.701,22.575,12.442,-6.527
50996070,-0.801,0.304,0.726,32.602,-8.61,-9.222
50996080,-0.741,0.35,0.751,44.31,-35.997,-11.252
50996090,-0.662,0.419,0.828,48.142,-60.007,-18.882
50996100,-0.631,0.486,0.916,36.54,-79.782,-31.395
50996110,-0.581,0.505,0.949,13.982,-99.19,-41.772
50996120,-0.472,0.509,0.891,-8.89,-110.11,-50.102
50996130,-0.446,0.414,0.817,-31.43,-109.707,-55.632
50996140,-0.451,0.312,0.76,-46.952,-102.462,-64.89
50996150,-0.376,0.289,0.728,-54.862,-88.532,-77.157
50996160,-0.307,0.21,0.686,-58.152,-68.302,-80.342
50996170,-0.321,0.072,0.645,-53.742,-47.845,-70.962
50996170,-0.316,0.029,0.645,-38.255,-24.115,-54.617
50996190,-0.367,0.076,0.697,-20.247,3.395,-35.927
50996190,-0.47,0.099,0.74,-8.75,31.01,-23.152
50996210,-0.649,0.076,0.814,-0.507,51.957,-16.747
50996210,-0.765,0.1,0.903,12.425,57.347,-12.477
50996230,-0.814,0.187,0.953,20.51,48.895,-8.365
50996230,-0.773,0.22,0.953,17.937,34.947,-9.712
50996250,-0.73,0.234,0.951,14.105,23.485,-16.327
50996250,-0.726,0.245,0.934,6.825,14.035,-24.692
50996260,-0.698,0.241,0.889,-2.572,4.69,-34.457
50996270,-0.632,0.231,0.841,-10.605,-3.902,-42.14
50996280,-0.564,0.215,0.8,-15.925,-9.222,-45.745
50996290,-0.485,0.204,0.776,-17.08,-9.082,-45.08
50996300,-0.447,0.188,0.769,-16.572,-5.092,-39.34
50996310,-0.425,0.167,0.749,-14.875,1.61,-27.615
50996320,-0.404,0.19,0.77,-11.795,13.405,-15.855
50996330,-0.429,0.224,0.795,-12.32,28.227,-5.617
50996340,-0.546,0.236,0.796,-18.217,43.05,0.805
50996350,-0.68,0.21,0.801,-26.985,49.192,-1.12
50996360,-0.752,0.149,0.796,-32.707,47.145,-9.397
50996370,-0.837,0.115,0.783,-32.935,35.857,-16.59
50996380,-0.913,0.121,0.79,-30.257,14.997,-24.377
50996390,-0.948,0.144,0.838,-27.055,-13.422,-34.965
50996400,-0.962,0.201,0.905,-25.112,-46.235,-48.65
50996410,-0.966,0.247,0.966,-26.582,-83.405,-64.732
50996420,-0.78,0.274,0.969,-31.622,-120.575,-75.32
50996430,-0.622,0.223,0.889,-40.092,-150.885,-72.922
50996440,-0.455,0.193,0.796,-48.632,-162.767,-67.83
50996450,-0.225,0.199,0.741,-53.252,-147.262,-64.102
50996460,-0.147,0.174,0.782,-54.232,-112.245,-60.252
50996470,-0.13,0.088,0.809,-52.78,-75.722,-59.675
50996480,-0.149,0.058,0.835,-39.13,-38.342,-48.895
50996490,-0.323,0.085,0.891,-22.067,-10.185,-22.05
50996500,-0.516,0.113,0.902,-16.292,-3.36,4.217
50996510,-0.566,0.091,0.899,-11.34,-12.617,20.842
50996520,-0.564,0.056,0.814,-8.067,-22.872,36.347
50996530,-0.535,0.107,0.785,-3.307,-26.232,51.52
50996540,-0.499,0.186,0.821,-3.815,-25.532,67.55
50996550,-0.467,0.214,0.807,-11.042,-20.685,80.482
50996560,-0.455,0.215,0.822,-16.415,-12.04,89.495
50996570,-0.52,0.191,0.82,-20.65,-10.867,102.2
50996580,-0.606,0.119,0.774,-19.145,-24.325,125.387
50996580,-0.608,0.132,0.769,-6.037,-44.747,155.435
50996600,-0.622,0.169,0.783,5.74,-62.597,186.847
50996600,-0.651,0.21,0.808,6.527,-73.465,203.332
50996620,-0.632,0.238,0.793,-0.315,-78.015,198.59
50996620,-0.572,0.275,0.774,-7.98,-75.32,172.147
50996640,-0.565,0.33,0.829,-19.547,-72.957,136.465
50996640,-0.522,0.327,0.871,-35.875,-76.807,97.037
50996660,-0.328,0.303,0.878,-50.207,-84.21,53.077
50996660,-0.218,0.25,0.891,-58.782,-90.895,27.825
50996670,-0.184,0.113,0.832,-70.035,-100.905,24.552
50996680,-0.108,-0.04,0.856,-65.065,-114.485,39.34
50996690,-0.028,-0.125,0.829,-49.962,-113.977,66.552
50996700,-0.038,-0.119,0.974,-24.307,-103.057,90.125
50996710,-0.27,-0.228,0.983,-17.29,-99.172,99.872
50996720,-0.024,-0.305,1.051,-0.665,-91.857,78.085
50996730,0.14,-0.042,1.236,29.82,-76.422,46.795
50996740,0.037,0.172,1.251,24.71,-64.295,34.965
50996750,-0.026,0.135,1.133,-3.272,-52.01,31.08
50996760,0.004,0.036,1.088,-18.935,-28.35,28.717
50996770,0.02,0.043,1.086,-19.722,6.877,22.452
50996780,-0.172,0.091,1.045,-28.315,37.03,12.512
50996790,-0.266,0.063,0.95,-40.442,43.067,5.617
50996800,-0.214,-0.006,0.876,-41.002,35.297,4.847
50996810,-0.279,-0.085,0.807,-32.55,21.315,14.367
50996820,-0.335,-0.029,0.824,-11.217,6.037,23.397
50996830,-0.283,-0.034,0.824,9.502,-12.215,27.965
50996840,0.006,0.007,0.855,31.097,-16.8,30.59
50996850,0.115,0.136,0.882,45.71,5.862,36.995
50996860,0.002,0.184,0.859,41.282,40.862,37.012
50996870,-0.065,0.166,0.784,31.132,70.595,27.072
50996880,-0.076,0.117,0.723,28.437,89.775,17.71
50996890,-0.077,0.148,0.72,28.525,105.105,12.845
50996900,-0.187,0.175,0.78,25.707,119.455,6.3
50996910,-0.311,0.168,0.855,18.445,127.312,-5.355
50996920,-0.371,0.082,0.907,9.625,123.042,-13.982
50996920,-0.266,0.036,0.923,11.165,115.237,-12.81
50996940,-0.196,0.075,0.96,17.797,120.855,-9.922
50996940,-0.21,0.054,0.89,16.852,133.402,-9.205
50996960,-0.265,0.087,0.869,24.727,150.85,-5.53
50996960,-0.358,0.18,0.904,33.53,170.012,-8.767
50996980,-0.645,0.156,0.865,29.907,172.305,-16.642
50996980,-0.871,0.177,0.788,23.292,143.99,-22.697
50997000,-0.818,0.277,0.75,23.292,98.945,-22.12
50997000,-0.673,0.31,0.728,23.292,62.772,-12.827
50997010,-0.666,0.235,0.703,18.742,44.31,0.245
50997020,-0.647,0.202,0.796,23.012,33.11,2.502
50997030,-0.476,0.192,0.901,29.627,27.23,6.895
50997040,-0.436,0.208,0.917,32.042,35.805,15.435
50997050,-0.07,-0.203,1.214,39.48,53.34,17.045
50997060,-0.396,-0.082,1.309,85.33,82.775,28.21
50997070,-0.739,0.211,1.223,69.23,85.435,29.032
50997080,-0.238,0.036,1.146,57.05,74.917,-5.425
50997090,-0.316,0.001,0.944,62.125,93.572,-12.267
50997100,-0.505,0.124,0.896,66.185,119.84,-24.692
50997110,-0.76,0.201,0.835,61.932,123.077,-45.377
50997120,-0.906,0.323,0.73,50.837,101.955,-53.217
50997130,-0.884,0.379,0.613,33.67,71.382,-47.547
50997140,-0.897,0.406,0.562,18.41,47.337,-50.067
50997150,-0.948,0.524,0.557,-2.975,28.385,-65.922
50997160,-1.109,0.437,0.508,-27.282,-1.085,-76.195
50997170,-1.198,0.39,0.478,-39.322,-52.675,-71.995
50997180,-1.242,0.435,0.523,-45.097,-113.715,-50.645
50997190,-1.112,0.471,0.574,-47.792,-167.93,-31.01
50997200,-0.877,0.61,0.644,-62.23,-199.237,-27.632
50997210,-0.801,0.474,0.632,-80.167,-209.685,-25.83
50997220,-0.589,0.358,0.605,-88.952,-208.005,-23.415
50997230,-0.312,0.271,0.633,-88.672,-189.21,-23.625
50997240,-0.183,0.231,0.7,-82.075,-150.132,-21.892
50997250,-0.163,0.203,0.767,-78.05,-103.705,-24.762
50997260,-0.257,0.15,0.844,-74.48,-64.12,-33.267
50997270,-0.369,0.074,0.846,-69.37,-43.05,-42.455
50997280,-0.414,0.04,0.908,-61.407,-37.117,-50.505
50997290,-0.215,-0.218,0.917,-47.25,-29.995,-54.74
50997300,-0.195,-0.107,0.989,-3.027,0,-50.68
50997310,-0.496,0.142,1.172,18.55,11.41,-47.127
50997320,-0.55,0.07,1.075,-1.26,-0.84,-44.502
50997330,-0.454,0.008,1.006,-3.342,-16.31,-44.03
50997330,-0.444,-0.014,0.947,-4.427,-27.44,-35.507
50997350,-0.394,-0.028,0.91,-6.02,-28.91,-29.487
50997350,-0.353,0.009,0.938,-5.915,-19.547,-29.732
50997370,-0.362,0.014,0.937,-14.21,-0.735,-33.022
50997370,-0.447,0.006,0.952,-27.37,18.305,-40.407
50997390,-0.497,-0.014,0.938,-43.732,30.24,-50.855
50997390,-0.461,-0.047,0.947,-56.997,33.897,-57.61
50997410,-0.481,-0.134,0.897,-67.585,27.825,-48.597
50997410,-0.53,-0.251,0.858,-65.572,16.747,-29.47
50997420,-0.508,-0.262,0.892,-51.292,9.31,-14.332
50997430,-0.475,-0.276,0.94,-34.93,5.845,-0.35
50997440,-0.46,-0.249,0.973,-19.18,10.22,11.795
50997450,-0.539,-0.244,1.043,-12.25,8.33,16.117
50997460,-0.448,-0.302,1.027,-16.537,5.547,16.607
50997470,-0.312,-0.402,1,-0.595,13.737,18.48
50997480,-0.352,-0.408,1.014,29.085,29.277,26.355
50997490,-0.412,-0.309,1.001,50.96,40.022,33.39
50997500,-0.39,-0.219,1.027,69.142,50.102,34.282
50997510,-0.384,-0.177,1.006,80.64,58.065,30.712
50997520,-0.362,-0.128,0.971,88.41,65.292,23.555
50997530,-0.383,-0.034,0.911,93.642,71.26,14.14
50997540,-0.42,0.062,0.807,95.777,72.59,1.067
50997550,-0.393,0.14,0.716,95.34,67.182,-14.122
50997560,-0.369,0.2,0.623,96.11,59.062,-26.897
50997570,-0.388,0.294,0.583,95.27,47.372,-38.867
50997580,-0.409,0.346,0.535,87.937,35.21,-49.612
50997590,-0.429,0.369,0.424,71.33,24.045,-60.812
50997600,-0.453,0.351,0.438,63.56,17.027,-72.485
50997610,-0.511,0.409,0.439,44.94,7.805,-78.155
50997620,-0.553,0.436,0.417,22.12,-3.797,-80.307
50997630,-0.589,0.411,0.436,4.147,-15.802,-80.01
50997640,-0.609,0.327,0.432,-12.18,-27.492,-77.612
50997650,-0.587,0.252,0.441,-19.355,-31.115,-77.595
50997660,-0.596,0.2,0.504,-18.427,-24.36,-79.52
50997670,-0.633,0.162,0.578,-14.875,-15.295,-82.845
50997670,-0.653,0.118,0.661,-11.725,-8.12,-89.967
50997690,-0.641,0.104,0.725,-9.712,-3.045,-99.015
50997690,-0.607,0.1,0.798,-7.962,-1.575,-101.062
50997710,-0.573,0.057,0.821,-7.402,-0.77,-94.43
50997710,-0.567,0.023,0.796,-5.127,2.187,-81.795
50997730,-0.629,-0.027,0.75,-0.682,6.737,-64.697
50997730,-0.677,-0.068,0.701,8.995,11.48,-50.19
50997750,-0.675,-0.076,0.685,21.49,16.555,-33.635
50997750,-0.673,-0.038,0.732,32.69,20.982,-17.745
50997760,-0.709,0.001,0.783,36.645,24.01,-6.667
50997770,-0.692,0.044,0.818,32.252,24.482,-5.005
50997780,-0.673,0.042,0.821,23.24,25.707,-2.73
50997790,-0.726,0.002,0.809,15.645,24.535,2.135
50997800,-0.768,-0.015,0.821,9.73,20.475,5.11
50997810,-0.751,0.014,0.866,3.832,14.157,6.195
50997820,-0.792,-0.005,0.92,-6.23,6.247,9.485
50997830,-0.868,-0.141,0.93,-14.612,-9.345,13.65
50997840,-0.728,-0.147,0.983,-0.98,-22.225,14.647
50997850,-0.744,-0.079,1.052,9.502,-37.712,18.637
50997860,-0.516,-0.118,1.041,4.672,-42.892,22.575
50997870,-0.28,-0.13,1.008,8.592,-13.72,31.307
50997880,-0.473,-0.066,1.008,12.705,24.15,36.732
50997890,-0.682,-0.057,0.963,5.932,47.407,31.255
50997900,-0.734,-0.094,0.932,-3.377,51.782,24.937
50997910,-0.671,-0.128,0.865,-8.767,48.387,22.452
50997920,-0.659,-0.13,0.821,-6.142,45.15,23.887
50997930,-0.636,-0.092,0.811,-2.415,42.682,25.48
50997940,-0.565,-0.036,0.785,-2.52,43.96,29.645
50997950,-0.507,0.017,0.764,-7.49,54.722,34.02
50997960,-0.467,0.049,0.753,-18.935,74.987,34.527
50997970,-0.504,0.042,0.744,-33.6,98.455,34.965
50997980,-0.622,0.01,0.698,-45.692,117.355,36.19
50997990,-0.744,-0.039,0.652,-51.257,126.63,33.04
50998000,-0.848,-0.071,0.631,-46.795,126.315,27.125
50998010,-0.926,-0.061,0.667,-33.18,114.415,21.507
50998020,-0.942,-0.033,0.698,-17.43,89.6,17.605
50998030,-0.889,-0.015,0.707,-1.295,61.827,17.15
50998040,-0.839,0.022,0.736,13.825,37.135,19.495
50998050,-0.77,0.063,0.728,20.79,17.325,21.472
50998060,-0.675,0.062,0.677,22.872,6.37,22.19
50998070,-0.599,0.055,0.678,26.39,5.81,21.472
50998080,-0.525,0.099,0.667,28.105,18.76,24.15
50998080,-0.553,0.149,0.665,28.385,43.575,31.167
50998100,-0.601,0.176,0.668,27.685,70.945,32.62
50998100,-0.673,0.148,0.616,22.54,92.925,32.97
50998120,-0.789,0.138,0.576,19.442,103.967,34.107
50998120,-0.887,0.172,0.549,19.04,103.18,34.632
50998140,-0.925,0.177,0.503,20.177,94.22,36.102
50998140,-0.87,0.184,0.481,25.147,87.097,36.417
50998160,-0.821,0.214,0.483,30.59,84.63,35.665
50998160,-0.832,0.249,0.478,33.267,87.43,32.917
50998170,-0.854,0.266,0.464,32.357,89.967,29.417
50998180,-0.846,0.286,0.463,29.907,89.67,23.922
50998190,-0.812,0.32,0.451,24.22,86.24,18.375
50998200,-0.801,0.315,0.406,15.4,80.99,16.065
50998210,-0.81,0.263,0.367,11.445,73.902,15.54
50998220,-0.801,0.227,0.413,13.16,68.32,14.385
50998230,-0.924,0.201,0.32,11.165,50.015,8.837
50998240,-0.595,0.24,0.329,9.362,42.332,2.59
50998250,-0.657,0.27,0.419,27.86,62.65,9.45
50998260,-0.919,0.299,0.432,18.445,65.03,3.342
50998270,-0.907,0.273,0.402,5.215,55.527,-9.117
50998280,-0.814,0.243,0.382,0.262,46.41,-11.637
50998290,-0.839,0.201,0.341,-5.302,41.282,-9.887
50998300,-0.841,0.134,0.348,-3.202,42.787,-11.357
50998310,-0.94,0.163,0.35,-5.075,37.87,-15.837
50998320,-1.089,0.151,0.297,-13.177,24.5,-15.277
50998330,-0.985,0.098,0.303,-10.815,11.672,-18.935
50998340,-0.893,0.129,0.331,-6.72,9.607,-23.905
50998350,-0.949,0.132,0.275,-14.525,12.845,-26.512
50998360,-1.025,0.143,0.322,-29.855,18.375,-24.15
50998370,-1.067,0.062,0.316,-24.395,14.507,-19.845
50998380,-0.988,0.09,0.424,-16.082,17.552,-21.227
50998390,-1.058,0.054,0.471,-17.377,19.687,-16.065
50998400,-1.154,0.027,0.46,-13.772,5.617,-12.565
50998410,-1.12,0.029,0.464,-10.185,-14.787,-15.872
50998420,-1.186,-0.034,0.449,-4.497,-38.377,-18.725
50998420,-1.081,0.016,0.434,12.792,-65.38,-18.077
50998440,-0.979,0.063,0.453,31.29,-85.172,-11.077
50998440,-0.874,0.089,0.479,37.485,-88.147,-7.367
50998460,-0.768,0.082,0.511,36.715,-74.41,1.61
50998460,-0.675,0.116,0.528,36.767,-47.11,6.16
50998480,-0.701,0.19,0.551,32.2,-13.422,1.452
50998480,-0.831,0.153,0.446,14.875,9.677,-1.68
50998500,-0.915,0.039,0.372,3.57,18.9,-2.047
50998500,-1.025,0.043,0.383,3.955,16.065,-3.377
50998510,-1.104,0.077,0.442,9.555,-0.245,-5.337
50998520,-1.096,0.097,0.467,13.72,-27.247,-8.26
50998530,-0.922,0.112,0.468,17.482,-47.74,-12.355
50998540,-0.808,0.098,0.469,15.312,-48.842,-13.212
50998550,-0.79,0.059,0.501,14.892,-36.68,-9.03
50998560,-0.905,0.069,0.54,17.027,-25.34,-3.097
50998570,-0.962,0.116,0.55,15.12,-25.795,-3.167
50998580,-0.957,0.107,0.525,11.637,-32.217,-4.9
50998590,-0.874,0.154,0.506,7.227,-37.8,-7.017
50998600,-0.907,0.216,0.399,-7.647,-39.06,-7.07
50998610,-0.946,0.035,0.373,-14.017,-37.222,-11.83
50998620,-0.997,-0.021,0.455,5.582,-35.98,-9.957
50998630,-1.097,0.108,0.481,13.3,-50.575,-8.715
50998640,-0.922,0.169,0.477,6.737,-59.692,-13.16
50998650,-0.795,0.153,0.492,2.73,-54.302,-10.85
50998660,-0.763,0.154,0.462,0.7,-40.81,-8.925
50998670,-0.843,0.118,0.452,1.207,-22.995,-4.2
50998680,-0.898,0.098,0.446,0.717,-11.357,-8.137
50998690,-0.911,0.108,0.497,-0.332,-10.062,-16.205
50998700,-0.93,0.123,0.495,-1.47,-18.34,-17.692
50998710,-0.854,0.166,0.532,-1.575,-28.805,-17.29
50998720,-0.773,0.182,0.591,-6.982,-32.602,-18.305
50998730,-0.777,0.229,0.647,-18.777,-30.747,-24.78
50998740,-0.726,0.232,0.644,-33.39,-26.267,-35.752
50998750,-0.667,0.094,0.631,-48.895,-15.067,-39.602
50998760,-0.669,-0.103,0.516,-47.705,-1.295,-23.73
50998770,-0.638,-0.003,0.549,-21.42,17.605,-7.07
50998780,-0.702,0.1,0.56,-12.687,33.74,0.577
50998790,-0.843,0.075,0.536,-14.455,44.17,7.437
50998800,-0.881,0.024,0.516,-14.105,44.327,9.345
50998810,-0.84,0.027,0.51,-10.57,41.632,4.742
50998820,-0.895,0.039,0.499,-9.992,40.127,4.165
50998830,-0.881,0.048,0.484,-11.077,37.345,2.642
50998830,-0.876,0.05,0.459,-11.917,35.717,0.805
50998850,-0.888,0.073,0.467,-14.472,35.7,-0.892
50998850,-0.945,0.092,0.447,-18.952,32.707,-0.735
50998860,-0.975,0.083,0.437,-24.237,24.202,-1.872
50998870,-0.9,0.019,0.378,-28.017,16.012,-2.082
50998880,-0.855,0.014,0.404,-15.96,14.892,0.84
50998890,-0.907,-0.001,0.378,-13.93,16.345,10.675
50998900,-0.924,0.015,0.401,-4.725,16.782,13.65
50998910,-0.941,0.041,0.43,1.05,16.187,13.177
50998920,-0.929,0.042,0.436,-0.49,16.135,12.425
50998930,-0.927,0.043,0.46,-2.082,15.802,11.585
50998940,-0.962,0.05,0.463,-4.935,14.385,8.12
50998950,-0.979,0.047,0.486,-6.965,11.147,4.76
50998960,-0.999,0.025,0.498,-8.872,5.757,1.61
50998970,-0.981,0.016,0.488,-8.067,-0.892,-0.84
50998980,-0.934,0.032,0.497,-5.372,-2.135,-1.89
50998990,-0.933,0.046,0.505,-4.165,0.052,-2.1
50999000,-0.94,0.037,0.498,-5.652,1.295,-2.66
50999010,-0.927,0.022,0.483,-7.245,0.28,-4.147
50999020,-0.906,0.015,0.474,-7,-0.402,-4.182
50999030,-0.905,0.029,0.481,-4.13,-2.187,-1.942
50999040,-0.913,0.047,0.477,-2.012,-4.917,0.455
50999050,-0.919,0.055,0.473,-1.767,-8.085,0.927
50999060,-0.913,0.055,0.462,-0.612,-10.902,1.155
50999070,-0.899,0.064,0.469,-0.157,-12.372,0.717
50999080,-0.881,0.075,0.445,-1.522,-11.83,-0.332
50999090,-0.871,0.077,0.426,-2.852,-9.747,-0.892
50999100,-0.871,0.075,0.405,-3.027,-6.51,-0.507
50999110,-0.88,0.073,0.388,-1.645,-4.637,0.122
50999120,-0.882,0.077,0.384,1.662,-3.43,1.26
50999130,-0.891,0.083,0.386,6.667,-3.972,2.87
50999140,-0.911,0.094,0.396,12.88,-5.512,4.795
50999150,-0.901,0.129,0.392,16.502,-7.822,6.282
50999160,-0.864,0.155,0.389,14.472,-6.877,6.02
50999170,-0.835,0.132,0.367,9.135,-1.785,5.04
50999170,-0.895,0.083,0.326,6.982,4.06,5.845
50999190,-0.906,0.072,0.332,9.87,8.47,4.9
50999190,-0.935,0.096,0.367,12.425,9.73,3.027
50999210,-1,0.095,0.393,13.037,4.497,0.402
50999210,-1.028,0.075,0.413,11.077,-6.597,-3.85
50999230,-1.019,0.059,0.426,10.745,-22.33,-8.365
50999230,-0.965,0.073,0.453,10.78,-36.592,-11.287
50999250,-0.88,0.099,0.489,7.84,-44.747,-12.705
50999250,-0.86,0.086,0.504,1.925,-46.27,-12.635
50999260,-0.837,0.048,0.548,-4.042,-42.735,-13.615
50999270,-0.801,-0.003,0.54,-7.525,-33.705,-11.462
50999280,-0.826,-0.007,0.559,-6.615,-23.642,-7.052
50999290,-0.862,0.017,0.575,-5.565,-16.8,-3.587
50999300,-0.862,0.019,0.579,-6.492,-14.262,-1.89
50999310,-0.805,0.017,0.56,-9.712,-12.267,-0.367
50999320,-0.813,0.009,0.544,-11.672,-6.352,2.467
50999330,-0.867,0.015,0.551,-12.845,-1.085,2.765
50999340,-0.926,0.015,0.543,-14.542,0.332,1.487
50999350,-0.948,-0.01,0.522,-16.047,-4.882,-1.137
50999360,-0.873,-0.02,0.486,-14.297,-10.22,-2.17
50999370,-0.825,-0.01,0.477,-8.295,-8.75,2.327
50999380,-0.856,0.023,0.491,-3.955,-3.395,4.812
50999390,-0.863,0.045,0.49,-2.905,0.087,3.745
50999400,-0.88,0.035,0.486,-3.01,2.59,3.815
50999410,-0.899,0.029,0.481,-2.31,3.237,3.692
50999420,-0.905,0.037,0.495,-1.277,2.52,3.097
50999430,-0.901,0.05,0.5,-1.645,0.28,2.502
50999440,-0.882,0.055,0.497,-3.15,-2.275,3.185
50999450,-0.893,0.045,0.494,-4.602,-3.272,3.85
50999460,-0.894,0.03,0.484,-5.652,-3.605,2.397
50999470,-0.854,0.012,0.48,-4.077,-2.625,3.08
50999480,-0.848,0.013,0.49,-1.89,0.612,6.632
50999490,-0.851,0.029,0.488,-0.77,4.287,9.135
50999500,-0.847,0.032,0.485,0.525,8.715,11.725
50999510,-0.87,0.019,0.479,2.66,13.37,14.77
50999520,-0.904,0.022,0.481,6.772,15.872,16.8
50999530,-0.931,0.042,0.485,10.762,15.172,18.025
50999540,-0.957,0.051,0.48,13.65,11.987,18.725
50999550,-0.972,0.052,0.48,15.872,6.947,17.92
50999550,-0.973,0.059,0.484,18.06,0.875,15.505
50999570,-0.967,0.07,0.483,19.512,-5.145,11.725
50999570,-0.961,0.079,0.482,20.37,-11.777,8.015
50999580,-0.975,0.061,0.464,20.562,-19.81,7.262
50999590,-0.944,0.069,0.473,22.452,-27.44,6.16
50999600,-0.928,0.082,0.471,21.612,-34.072,7.42
50999610,-0.901,0.093,0.47,22.19,-38.832,7.087
50999620,-0.856,0.112,0.489,21.175,-39.252,5.25
50999630,-0.828,0.109,0.481,17.727,-36.872,5.53
50999640,-0.826,0.103,0.492,16.975,-32.655,7.402
50999650,-0.827,0.114,0.497,15.435,-28.35,8.382
50999660,-0.84,0.083,0.478,15.977,-23.975,6.457
50999670,-0.801,0.111,0.498,21.997,-19.215,-0.42
50999680,-0.809,0.13,0.518,25.007,-14.805,-0.822
50999690,-0.81,0.162,0.548,24.517,-12.687,-0.087
50999700,-0.807,0.184,0.567,20.877,-11.707,0.49
50999710,-0.812,0.178,0.565,15.54,-12.74,3.115
50999720,-0.808,0.164,0.551,10.605,-14.7,5.547
50999730,-0.796,0.152,0.538,8.785,-17.57,7.56
50999740,-0.793,0.147,0.535,9.38,-19.512,8.96
50999750,-0.793,0.149,0.531,11.567,-21.227,8.662
50999760,-0.786,0.155,0.527,14.455,-22.662,7.507
50999770,-0.779,0.158,0.524,18.252,-24.552,6.44
50999780,-0.781,0.166,0.519,21.227,-26.267,5.18
50999790,-0.775,0.173,0.515,23.52,-28.227,3.167
50999800,-0.778,0.175,0.515,24.902,-29.05,1.155
50999810,-0.779,0.181,0.515,24.92,-28.857,-1.435
50999820,-0.769,0.181,0.509,23.712,-26.705,-3.535
50999830,-0.768,0.179,0.511,22.137,-23.17,-5.495
50999840,-0.767,0.186,0.511,20.125,-17.885,-7.822
50999850,-0.777,0.18,0.509,17.78,-11.812,-9.432
50999860,-0.791,0.172,0.506,15.767,-5.547,-9.712
50999870,-0.819,0.161,0.498,14.647,0.017,-9.782
50999880,-0.832,0.168,0.5,13.3,4.83,-9.642
50999890,-0.874,0.141,0.487,10.815,7.245,-6.265
50999900,-0.884,0.14,0.49,10.307,7.892,-5.635
50999910,-0.908,0.146,0.498,9.047,7.017,-3.045
50999920,-0.956,0.102,0.483,9.957,2.24,2.415
50999920,-0.943,0.131,0.509,14.245,-3.412,0.892
50999940,-0.922,0.143,0.515,11.55,-8.977,-2.852
50999940,-0.916,0.136,0.52,8.68,-13.055,-4.742
50999960,-0.902,0.118,0.518,5.81,-16.432,-5.04
50999960,-0.873,0.109,0.521,4.392,-17.657,-6.352
50999980,-0.855,0.103,0.529,3.57,-17.132,-7.595
50999980,-0.867,0.088,0.541,2.152,-15.505,-6.93
51000000,-0.867,0.082,0.547,0.56,-14.42,-6.492
51000000,-0.86,0.077,0.562,1.085,-12.792,-6.475
51000010,-0.861,0.076,0.578,1.47,-11.62,-5.582
51000020,-0.858,0.082,0.592,0.402,-10.57,-5.005
51000030,-0.858,0.081,0.607,-1.19,-9.835,-4.182
51000040,-0.858,0.081,0.619,-2.817,-8.732,-3.43
51000050,-0.852,0.088,0.631,-3.465,-8.732,-3.657
51000060,-0.857,0.099,0.655,-4.952,-9.572,-0.682
51000070,-0.866,0.099,0.639,-10.045,-12.652,4.252
51000080,-0.827,0.107,0.635,-10.237,-15.575,2.642
51000090,-0.821,0.096,0.634,-7.945,-17.99,2.695
51000100,-0.819,0.094,0.631,-5.687,-19.967,3.307
51000110,-0.804,0.106,0.633,-3.15,-22.592,3.255
51000120,-0.785,0.121,0.639,-1.032,-24.045,3.5
51000130,-0.776,0.12,0.64,0.787,-24.92,4.445
51000140,-0.764,0.128,0.642,2.73,-24.867,4.392
51000150,-0.754,0.138,0.64,3.885,-24.482,4.165
51000160,-0.753,0.136,0.633,4.602,-23.275,4.865
51000170,-0.742,0.135,0.62,6.3,-21.7,3.325
51000180,-0.729,0.143,0.612,9.66,-18.655,-0.175
51000190,-0.736,0.152,0.613,13.405,-15.347,-2.275
51000200,-0.763,0.149,0.61,15.627,-12.932,-2.8
51000210,-0.754,0.164,0.609,17.43,-11.952,-5.18
51000220,-0.764,0.162,0.597,17.045,-10.867,-6.317
51000230,-0.751,0.176,0.593,16.03,-9.537,-7.437
51000240,-0.758,0.177,0.582,14.455,-7.752,-7.262
51000250,-0.771,0.179,0.565,12.11,-5.285,-7.017
51000260,-0.778,0.182,0.558,9.8,-2.187,-6.895
51000260,-0.786,0.188,0.554,6.142,1.05,-7.035
51000280,-0.807,0.185,0.547,1.68,3.5,-5.932
51000280,-0.834,0.171,0.537,-2.38,5.127,-4.497
51000300,-0.844,0.163,0.529,-5.267,5.687,-4.025
51000300,-0.847,0.17,0.534,-7.472,5.355,-4.095
51000320,-0.88,0.151,0.528,-10.08,3.902,-1.697
51000320,-0.866,0.154,0.537,-10.972,1.732,-2.03
51000330,-0.858,0.154,0.545,-11.532,-1.032,-0.997
51000340,-0.871,0.141,0.54,-12.967,-3.955,2.485
51000350,-0.861,0.137,0.541,-12.337,-7.245,2.52
51000360,-0.845,0.14,0.549,-9.817,-9.327,0.402
51000370,-0.836,0.146,0.565,-6.877,-11.2,-0.577
51000380,-0.818,0.161,0.582,-4.585,-13.895,-2.03
51000390,-0.8,0.17,0.598,-3.447,-16.975,-3.675
51000400,-0.794,0.162,0.603,-3.272,-19.652,-4.34
51000410,-0.794,0.152,0.605,-2.415,-23.1,-4.83
51000420,-0.788,0.149,0.61,-0.717,-25.847,-4.76
51000430,-0.781,0.144,0.613,0.997,-28.35,-4.48
51000440,-0.773,0.141,0.614,2.537,-29.365,-4.585
51000450,-0.768,0.14,0.619,3.535,-29.837,-4.882
51000460,-0.767,0.134,0.619,3.605,-28.997,-4.882
51000470,-0.76,0.127,0.618,3.377,-27.877,-4.865
51000480,-0.748,0.119,0.619,2.852,-25.34,-4.375
51000490,-0.741,0.11,0.616,2.485,-21.875,-3.517
51000500,-0.743,0.101,0.623,2.66,-17.552,-1.907
51000510,-0.756,0.092,0.626,2.887,-14.647,0.665
51000520,-0.772,0.079,0.629,4.042,-13.02,3.622
51000530,-0.778,0.07,0.635,6.72,-13.3,5.582
51000540,-0.777,0.071,0.643,10.062,-14.052,6.02
51000550,-0.773,0.077,0.653,13.335,-15.575,5.512
51000560,-0.768,0.087,0.662,16.065,-16.957,4.935
51000570,-0.764,0.103,0.677,18.182,-18.865,4.655
51000580,-0.763,0.118,0.684,18.637,-21.122,4.865
51000590,-0.759,0.123,0.688,18.165,-24.255,4.672
51000600,-0.747,0.134,0.687,17.867,-26.652,3.762
51000610,-0.742,0.147,0.691,17.727,-29.435,2.975
51000620,-0.74,0.156,0.691,16.8,-31.937,2.485
51000630,-0.732,0.156,0.684,16.205,-34.562,1.382
51000640,-0.697,0.171,0.678,17.08,-35.437,-1.96
51000650,-0.682,0.177,0.677,18.34,-33.442,-4.147
51000660,-0.68,0.181,0.679,19.25,-29.82,-5.11
51000670,-0.674,0.202,0.689,19.792,-25.497,-7.91
51000670,-0.688,0.201,0.688,18.147,-21.455,-8.645
51000690,-0.706,0.188,0.681,16.135,-19.075,-8.172
51000690,-0.722,0.177,0.67,15.435,-18.357,-7.752
51000710,-0.734,0.176,0.667,16.222,-18.445,-7.892
51000710,-0.746,0.178,0.661,17.272,-19.687,-7.122
51000730,-0.747,0.184,0.659,18.48,-21.297,-5.967
51000730,-0.735,0.194,0.655,19.057,-23.082,-6.405
51000750,-0.722,0.203,0.653,19.46,-22.995,-7.07
51000750,-0.714,0.207,0.653,19.092,-21.77,-6.405
51000760,-0.711,0.202,0.641,18.025,-19.792,-4.025
51000770,-0.697,0.206,0.632,17.657,-17.307,-2.502
51000780,-0.68,0.221,0.628,17.237,-12.985,-2.205
51000790,-0.69,0.217,0.627,16.835,-8.54,-0.682
51000800,-0.694,0.218,0.62,16.59,-4.27,0.63
51000810,-0.697,0.226,0.619,17.115,-1.102,0.91
51000820,-0.702,0.236,0.618,17.447,2.31,1.82
51000830,-0.714,0.251,0.621,17.08,4.48,2.117
51000840,-0.728,0.26,0.615,15.435,5.705,1.207
51000850,-0.744,0.265,0.618,13.492,5.18,-0.175
51000860,-0.758,0.271,0.628,11.392,3.43,-1.365
51000870,-0.767,0.283,0.635,8.925,-0.805,-1.907
51000880,-0.768,0.298,0.648,5.88,-5.705,-0.98
51000890,-0.766,0.31,0.663,2.117,-11.217,0.14
51000900,-0.756,0.311,0.677,-3.587,-15.855,0.017
51000910,-0.745,0.299,0.69,-10.29,-19.652,-0.437
51000920,-0.733,0.281,0.697,-16.047,-22.085,-0.665
51000930,-0.724,0.261,0.698,-20.44,-24.097,-0.28
51000940,-0.712,0.239,0.707,-22.82,-24.15,-0.56
51000950,-0.706,0.233,0.717,-23.607,-23.625,-1.295
51000960,-0.711,0.212,0.729,-24.202,-22.697,-1.82
51000970,-0.715,0.177,0.732,-24.587,-21.997,-1.995
51000980,-0.714,0.147,0.743,-23.485,-20.51,-2.94
51000990,-0.713,0.124,0.758,-21.857,-18.987,-4.27
51001000,-0.702,0.122,0.794,-19.32,-18.182,-3.867
51001010,-0.759,0.116,0.816,-18.287,-23.24,-0.822
51001010,-0.769,0.064,0.799,-17.027,-28.735,-0.035
51001030,-0.701,0.047,0.806,-11.62,-29.015,1.382
51001030,-0.676,0.056,0.809,-7.595,-27.982,2.87
51001050,-0.663,0.047,0.799,-5.127,-23.66,2.607
51001050,-0.632,0.035,0.795,-1.785,-17.36,1.435
51001070,-0.62,0.033,0.793,1.522,-9.52,3.027
51001070,-0.622,0.042,0.792,3.727,-1.837,5.88
51001080,-0.632,0.047,0.783,4.987,5.197,8.645
51001090,-0.645,0.039,0.767,6.667,10.675,9.38
51001100,-0.648,0.054,0.769,8.347,14.962,8.417
51001110,-0.66,0.043,0.747,8.452,16.572,9.852
51001120,-0.649,0.046,0.73,11.655,16.275,11.27
51001130,-0.647,0.063,0.721,15.557,14.595,13.125
51001140,-0.65,0.088,0.708,17.43,12.407,13.965
51001150,-0.645,0.106,0.699,18.55,9.45,13.282
51001160,-0.64,0.113,0.686,18.62,6.51,13.02
51001170,-0.626,0.124,0.671,18.48,3.815,12.32
51001180,-0.613,0.137,0.657,18.497,2.922,11.69
51001190,-0.616,0.153,0.645,18.497,2.187,10.955
51001200,-0.637,0.17,0.636,17.43,1.242,10.64
51001210,-0.65,0.18,0.624,15.977,-1.067,9.957
51001220,-0.651,0.19,0.615,15.155,-3.29,8.557
51001230,-0.655,0.199,0.613,14.735,-5.53,7.105
51001240,-0.642,0.222,0.618,13.982,-6.79,5.827
51001250,-0.64,0.219,0.617,13.037,-7.927,7.665
51001260,-0.631,0.228,0.621,11.935,-7.77,9.73
51001270,-0.629,0.245,0.621,9.275,-7.192,10.92
51001280,-0.628,0.262,0.625,7.28,-5.722,12.18
51001290,-0.627,0.271,0.632,5.687,-4.462,12.792
51001300,-0.621,0.288,0.63,4.112,-2.502,12.757
51001310,-0.623,0.297,0.631,3.622,-0.262,11.41
51001320,-0.636,0.301,0.637,3.675,2.065,9.835
51001330,-0.648,0.309,0.646,3.447,3.01,7.857
51001340,-0.664,0.305,0.653,2.922,2.677,7.822
51001350,-0.679,0.291,0.653,2.66,0.437,9.205
51001360,-0.69,0.276,0.654,3.955,-2.747,9.817
51001370,-0.695,0.261,0.654,6.475,-5.967,9.905
51001380,-0.692,0.241,0.66,9.415,-8.96,10.045
51001390,-0.689,0.22,0.663,10.85,-11.62,10.605
51001400,-0.672,0.188,0.656,12.425,-13.825,10.972
51001410,-0.644,0.181,0.667,15.645,-14.262,11.13
51001420,-0.634,0.19,0.671,16.887,-12.932,13.282
51001420,-0.632,0.206,0.68,17.657,-10.36,14.892
51001440,-0.629,0.217,0.685,16.782,-7.21,15.225
51001440,-0.63,0.218,0.689,15.295,-3.85,14.682
51001460,-0.651,0.211,0.703,14.227,-1.505,14.98
51001460,-0.682,0.207,0.724,13.65,-0.77,15.662
51001480,-0.72,0.204,0.739,13.142,-2.66,15.435
51001480,-0.751,0.212,0.754,13.58,-6.195,15.207
51001500,-0.775,0.232,0.781,14.315,-11.217,15.347
51001500,-0.791,0.251,0.8,12.722,-16.765,14.647
51001510,-0.795,0.258,0.809,10.115,-22.487,12.897
51001520,-0.788,0.254,0.808,7.56,-27.527,11.742
51001530,-0.768,0.251,0.8,6.037,-32.042,11.865
51001540,-0.737,0.254,0.79,5.687,-34.702,13.37
51001550,-0.707,0.252,0.771,6.405,-36.312,15.61
51001560,-0.667,0.255,0.75,9.012,-35.122,18.2
51001570,-0.634,0.266,0.736,12.74,-31.622,20.772
51001580,-0.605,0.282,0.721,15.907,-25.497,22.61
51001590,-0.578,0.305,0.717,18.077,-17.902,23.292
51001600,-0.566,0.315,0.7,18.445,-10.045,23.415
51001610,-0.562,0.325,0.698,18.672,-3.587,23.047
51001620,-0.571,0.334,0.695,16.38,1.102,22.995
51001630,-0.59,0.337,0.695,13.737,2.695,22.575
51001640,-0.599,0.342,0.695,12.215,2.52,21.42
51001650,-0.614,0.344,0.701,11.217,-0.105,20.177
51001660,-0.626,0.343,0.71,10.132,-4.2,19.705
51001670,-0.625,0.346,0.717,8.977,-9.87,18.9
51001680,-0.62,0.353,0.724,7.455,-14.752,17.745
51001690,-0.621,0.361,0.728,5.862,-18.9,16.135
51001700,-0.605,0.379,0.73,4.217,-20.842,13.23
51001710,-0.581,0.391,0.732,2.38,-21.122,9.817
51001720,-0.567,0.384,0.731,0.07,-20.37,7.42
51001730,-0.561,0.375,0.728,-1.19,-19.267,6.125
51001740,-0.561,0.374,0.73,-1.295,-16.94,5.775
51001750,-0.565,0.377,0.734,-1.015,-13.37,5.075
51001760,-0.571,0.379,0.74,-0.962,-9.065,3.307
51001760,-0.577,0.378,0.743,-1.4,-4.952,1.26
51001780,-0.579,0.373,0.745,-1.925,-1.47,-0.07
51001780,-0.586,0.367,0.745,-2.677,0.787,-0.507
51001800,-0.589,0.363,0.735,-3.535,2.555,-0.98
51001800,-0.594,0.358,0.73,-4.025,4.13,-1.522
51001820,-0.594,0.355,0.722,-4.707,5.302,-2.135
51001820,-0.594,0.35,0.723,-5.547,5.897,-2.66
51001830,-0.607,0.339,0.726,-6.282,5.302,-2.625
51001840,-0.621,0.329,0.724,-6.562,3.85,-2.24
51001850,-0.631,0.324,0.727,-6.09,1.47,-2.205
51001860,-0.629,0.321,0.729,-5.232,-0.665,-2.537
51001870,-0.618,0.315,0.73,-4.305,-2.817,-3.115
51001880,-0.608,0.307,0.73,-3.482,-4.235,-3.36
51001890,-0.597,0.303,0.727,-2.782,-5.355,-3.395
51001900,-0.591,0.297,0.729,-2.45,-5.722,-2.975
51001910,-0.591,0.293,0.727,-2.275,-5.95,-2.432
51001920,-0.59,0.294,0.728,-2.047,-5.11,-2.135
51001930,-0.591,0.296,0.73,-2.222,-4.672,-1.837
51001940,-0.591,0.299,0.728,-2.695,-3.535,-1.75
51001950,-0.592,0.309,0.731,-3.062,-3.01,-1.96
51001960,-0.59,0.318,0.728,-3.902,-2.345,-2.065
51001970,-0.589,0.323,0.727,-4.76,-2.222,-2.205
51001980,-0.592,0.326,0.724,-5.897,-1.802,-2.292
51001990,-0.597,0.329,0.726,-6.825,-1.82,-2.432
51002000,-0.605,0.33,0.724,-7.752,-2.012,-2.537
51002010,-0.61,0.332,0.73,-8.33,-3.08,-2.677
51002020,-0.614,0.332,0.733,-8.592,-4.602,-2.485
51002030,-0.614,0.331,0.731,-8.592,-6.667,-2.24
51002040,-0.609,0.333,0.73,-7.98,-7.367,-2.152
51002050,-0.602,0.334,0.731,-7.122,-7.472,-2.485
51002060,-0.599,0.336,0.733,-6.44,-6.895,-2.747
51002070,-0.596,0.335,0.734,-5.827,-6.44,-3.027
51002080,-0.594,0.338,0.734,-5.127,-5.635,-2.992
51002090,-0.599,0.339,0.738,-4.41,-5.145,-2.835
51002100,-0.604,0.324,0.73,-3.36,-4.305,-3.657
51002110,-0.583,0.333,0.733,-1.26,-3.36,-7.245
51002120,-0.584,0.34,0.743,-0.017,-2.222,-7.647
51002130,-0.607,0.329,0.742,-0.332,-1.855,-4.025
51002140,-0.597,0.337,0.745,-1.032,-2.345,-2.835
51002150,-0.606,0.326,0.74,-2.222,-2.38,-1.452
51002160,-0.6,0.32,0.733,-2.992,-2.345,-1.995
51002170,-0.593,0.315,0.729,-2.432,-2.275,-2.66
51002170,-0.6,0.307,0.729,-1.592,-2.117,-1.89
51002190,-0.607,0.304,0.733,-1.155,-2.275,-0.857
51002190,-0.613,0.305,0.739,-1.19,-3.115,0.07
51002210,-0.617,0.297,0.735,-1.522,-3.745,1.172
51002210,-0.612,0.289,0.73,-0.752,-3.99,2.17
51002230,-0.611,0.286,0.732,0.805,-3.185,3.937
51002230,-0.61,0.284,0.728,2.607,-1.417,5.967
51002250,-0.603,0.289,0.727,4.742,2.17,7.84
51002250,-0.6,0.294,0.736,6.3,6.072,9.94
51002260,-0.602,0.298,0.739,7.192,10.325,11.97
51002270,-0.596,0.291,0.727,8.47,15.12,13.527
51002280,-0.57,0.287,0.721,10.885,23.677,15.067
51002290,-0.544,0.301,0.723,13.387,35.875,16.24
51002300,-0.531,0.319,0.721,14.63,51.362,17.01
51002310,-0.536,0.324,0.722,14.175,68.04,17.29
51002320,-0.551,0.325,0.716,12.775,84.84,17.377
51002330,-0.55,0.329,0.707,12.092,100.957,17.832
51002340,-0.542,0.335,0.696,11.375,117.967,18.952
51002350,-0.554,0.335,0.68,9.905,135.205,19.442
51002360,-0.606,0.331,0.649,7.49,149.905,18.392
51002370,-0.676,0.312,0.617,3.902,157.622,17.325
51002380,-0.739,0.326,0.6,0.087,160.387,18.882
51002390,-0.859,0.265,0.54,0,154.227,29.417
51002400,-0.879,0.309,0.578,8.067,144.48,29.767
51002410,-0.873,0.382,0.547,-2.922,135.205,21.962
51002420,-0.894,0.343,0.514,-12.232,126.49,16.677
51002430,-0.899,0.314,0.482,-18.952,119.157,11.357
51002440,-0.892,0.305,0.461,-25.357,112.7,4.042
51002450,-0.922,0.288,0.434,-30.117,105.682,-1.19
51002460,-0.924,0.278,0.412,-33.197,97.352,-6.597
51002470,-0.899,0.279,0.407,-33.232,87.745,-10.78
51002480,-0.912,0.267,0.401,-32.497,74.042,-10.36
51002490,-0.929,0.256,0.384,-31.045,58.642,-5.582
51002500,-0.908,0.267,0.378,-29.452,45.867,-0.77
51002510,-0.897,0.279,0.388,-28.297,36.207,0.052
51002510,-0.896,0.296,0.377,-30.467,30.397,-2.852
51002530,-0.862,0.299,0.381,-31.255,27.387,-9.467
51002530,-0.85,0.297,0.396,-33.092,27.125,-13.755
51002550,-0.877,0.299,0.406,-37.537,26.547,-16.135
51002550,-0.9,0.289,0.416,-41.317,24.43,-20.93
51002570,-0.891,0.297,0.434,-44.275,21.997,-26.18
51002570,-0.888,0.3,0.437,-51.537,16.975,-30.852
51002580,-0.899,0.282,0.401,-57.365,9.747,-33.862
51002590,-0.886,0.249,0.408,-53.287,0.77,-35.665
51002600,-0.872,0.257,0.429,-49,-8.802,-35.735
51002610,-0.84,0.301,0.422,-51.345,-17.185,-36.102
51002620,-0.84,0.28,0.414,-51.275,-25.217,-35.822
51002630,-0.839,0.264,0.416,-46.777,-32.34,-37.502
51002640,-0.828,0.262,0.411,-42.315,-37.765,-38.832
51002650,-0.8,0.281,0.423,-35.857,-42,-38.815
51002660,-0.781,0.294,0.421,-32.69,-43.68,-36.837
51002670,-0.764,0.301,0.413,-29.575,-42.875,-34.44
51002680,-0.727,0.312,0.399,-27.895,-38.115,-32.392
51002690,-0.705,0.31,0.403,-24.57,-30.135,-29.732
51002700,-0.721,0.331,0.418,-22.977,-20.58,-27.002
51002710,-0.775,0.319,0.43,-22.907,-13.79,-23.765
51002720,-0.836,0.283,0.43,-23.152,-10.36,-22.645
51002730,-0.862,0.261,0.439,-21.28,-11.007,-26.722
51002740,-0.902,0.256,0.475,-16.66,-14.227,-30.135
51002750,-0.947,0.26,0.518,-13.947,-24.535,-32.567
51002760,-0.964,0.256,0.549,-13.772,-38.342,-34.09
51002770,-0.921,0.248,0.561,-15.767,-52.605,-36.26
51002780,-0.872,0.235,0.571,-18.812,-64.487,-37.887
51002790,-0.832,0.216,0.583,-22.697,-71.837,-37.485
51002800,-0.793,0.202,0.577,-27.912,-74.042,-34.667
51002810,-0.738,0.153,0.563,-28.962,-72.73,-31.15
51002820,-0.735,0.09,0.584,-20.335,-68.145,-25.987
51002830,-0.71,0.06,0.601,-4.795,-61.547,-15.732
51002840,-0.694,0.103,0.661,9.642,-48.685,-3.447
51002850,-0.722,0.163,0.718,16.712,-36.05,1.312
51002860,-0.797,0.167,0.735,13.93,-26.775,1.96
51002870,-0.778,0.135,0.75,9.432,-21.49,-1.242
51002880,-0.696,0.106,0.723,9.45,-10.255,-1.855
51002890,-0.829,0.116,0.758,11.532,-0.542,2.24
51002900,-0.85,0.142,0.731,11.2,-0.84,0.28
51002910,-0.831,0.142,0.713,10.027,-4.147,2.152
51002920,-0.764,0.153,0.675,6.055,-4.55,4.182
51002920,-0.75,0.177,0.636,1.347,-0.402,6.212
51002930,-0.776,0.174,0.608,-2.887,3.92,8.207
51002940,-0.789,0.142,0.567,-5.932,4.795,8.662
51002950,-0.788,0.147,0.56,-6.37,3.622,7.875
51002960,-0.818,0.128,0.557,-6.58,2.187,9.205
51002970,-0.846,0.143,0.588,-6.352,-1.382,6.44
51002980,-0.835,0.126,0.606,-7.56,-6.475,3.972
51002990,-0.825,0.103,0.609,-8.61,-10.5,1.085
51003000,-0.838,0.098,0.603,-6.702,-12.512,-0.822
51003010,-0.836,0.111,0.602,-2.537,-14.56,-1.435
51003020,-0.832,0.121,0.602,0.56,-15.82,-0.56
51003030,-0.828,0.136,0.593,0.682,-17.85,0.472
51003040,-0.822,0.151,0.588,-0.735,-19.162,0.542
51003050,-0.825,0.148,0.589,-2.537,-21.245,0.752
51003060,-0.806,0.124,0.578,-3.92,-21.735,2.887
51003070,-0.78,0.135,0.585,-2.835,-21.367,3.202
51003080,-0.788,0.129,0.599,-1.277,-19.547,2.765
51003090,-0.789,0.132,0.615,-0.49,-18.515,1.942
51003100,-0.803,0.116,0.629,-1.942,-17.64,1.732
51003110,-0.781,0.127,0.632,-2.712,-17.867,-1.557
51003120,-0.761,0.129,0.635,-3.15,-16.992,-4.095
51003130,-0.749,0.135,0.631,-3.377,-16.275,-5.372
51003140,-0.754,0.134,0.634,-3.797,-15.4,-5.127
51003150,-0.759,0.129,0.632,-4.532,-15.855,-3.92
51003160,-0.741,0.136,0.631,-4.847,-15.82,-3.062
51003170,-0.728,0.131,0.638,-5.547,-15.015,-2.555
51003180,-0.737,0.131,0.639,-6.37,-13.65,-2.432
51003190,-0.746,0.127,0.635,-5.81,-12.547,-1.767
51003200,-0.75,0.127,0.637,-5.285,-11.637,-0.98
51003210,-0.746,0.129,0.643,-4.427,-11.165,-0.07
51003220,-0.738,0.129,0.639,-3.412,-9.765,0.577
51003230,-0.755,0.125,0.634,-2.45,-8.207,0.997
51003240,-0.77,0.136,0.633,-1.172,-7.087,0.577
51003250,-0.774,0.143,0.642,-0.945,-6.93,0.175
51003260,-0.78,0.137,0.643,-1.505,-7.14,-0.647
51003260,-0.784,0.133,0.641,-2.205,-8.032,-1.382
51003280,-0.781,0.135,0.643,-2.905,-9.222,-1.155
51003280,-0.776,0.131,0.643,-3.605,-9.8,-0.455
51003300,-0.77,0.133,0.645,-3.937,-10.15,-0.21
51003300,-0.764,0.131,0.646,-5.04,-10.237,0.525
51003320,-0.749,0.118,0.641,-5.932,-10.29,1.75
51003320,-0.739,0.119,0.639,-5.757,-9.275,2.607
51003330,-0.754,0.11,0.631,-5.197,-8.382,3.167
51003340,-0.754,0.123,0.638,-3.902,-7.997,1.015
51003350,-0.757,0.112,0.651,-2.537,-7.927,0.297
51003360,-0.752,0.105,0.662,-2.397,-7.35,0.665
51003370,-0.752,0.105,0.658,-1.96,-6.982,1.33
51003380,-0.758,0.118,0.656,-1.75,-6.177,1.855
51003390,-0.745,0.113,0.646,-1.872,-6.002,1.61
51003400,-0.743,0.118,0.648,-0.997,-5.11,1.452
51003410,-0.749,0.12,0.648,-0.805,-5.04,1.75
51003420,-0.759,0.117,0.64,-0.945,-4.952,2.292
51003430,-0.771,0.122,0.647,-0.437,-5.617,2.52
51003440,-0.774,0.123,0.65,-0.332,-6.912,2.677
51003450,-0.76,0.124,0.646,-0.087,-8.417,3.062
51003460,-0.751,0.13,0.654,0.437,-8.767,3.92
51003470,-0.745,0.134,0.662,0.192,-9.03,4.007
51003480,-0.734,0.132,0.66,-0.472,-8.12,3.885
51003490,-0.732,0.13,0.661,-0.63,-6.65,4.217
51003500,-0.741,0.132,0.659,-0.787,-5.197,3.815
51003510,-0.739,0.132,0.653,-0.927,-4.13,2.712
51003520,-0.748,0.128,0.656,-0.735,-2.66,2.012
51003530,-0.759,0.129,0.656,-0.665,-2.66,1.47
51003540,-0.757,0.127,0.656,-0.542,-2.73,1.557
51003550,-0.759,0.125,0.652,0.122,-3.185,2.45
51003560,-0.768,0.128,0.653,0.752,-3.815,3.272
51003570,-0.765,0.133,0.653,0.717,-5.04,3.255
51003580,-0.761,0.126,0.654,0.017,-6.002,3.237
51003590,-0.759,0.121,0.656,-0.332,-7.035,3.167
51003600,-0.757,0.117,0.655,0.087,-7.857,3.465
51003600,-0.748,0.12,0.651,0.945,-9.012,4.217
51003620,-0.762,0.133,0.654,1.925,-10.465,5.547
51003620,-0.751,0.136,0.661,1.155,-11.777,6.282
51003640,-0.728,0.143,0.652,0.227,-11.62,7.035
51003640,-0.702,0.167,0.66,-1.592,-8.837,8.242
51003660,-0.728,0.121,0.592,-5.565,-2.975,8.82
51003660,-0.707,0.13,0.642,-4.935,10.08,2.887
51003670,-0.801,0.157,0.665,-2.117,12.32,-1.032
51003680,-0.791,0.137,0.662,-5.915,9.52,-1.277
51003690,-0.779,0.116,0.665,-6.44,3.902,-0.21
51003700,-0.739,0.132,0.663,-6.282,0.805,1.61
51003710,-0.745,0.144,0.665,-7.07,0.297,4.637
51003720,-0.744,0.141,0.665,-8.732,0.385,6.09
51003730,-0.728,0.129,0.66,-11.182,1.085,6.37
51003740,-0.703,0.152,0.664,-12.372,2.992,5.022
51003750,-0.715,0.144,0.662,-12.652,5.39,6.09
51003760,-0.708,0.138,0.644,-14.962,10.15,7.297
51003770,-0.731,0.137,0.622,-16.87,15.96,7.035
51003780,-0.757,0.141,0.629,-17.92,20.877,4.34
51003790,-0.804,0.136,0.642,-20.002,21.175,2.415
51003800,-0.828,0.117,0.635,-20.23,15.33,1.085
51003810,-0.83,0.114,0.638,-17.622,6.632,1.802
51003820,-0.845,0.102,0.646,-14.35,-2.975,3.85
51003830,-0.792,0.124,0.642,-10.22,-12.057,2.887
51003840,-0.777,0.099,0.647,-4.69,-16.012,4.76
51003850,-0.754,0.118,0.626,-2.8,-17.097,3.99
51003860,-0.73,0.134,0.638,-1.295,-14.367,1.61
51003870,-0.724,0.134,0.639,-1.767,-11.97,0.805
51003880,-0.731,0.141,0.639,-3.972,-9.975,1.977
51003890,-0.737,0.13,0.636,-6.632,-10.22,4.34
51003900,-0.733,0.129,0.626,-7.98,-9.817,6.58
51003910,-0.747,0.119,0.624,-7.91,-8.47,7.192
51003920,-0.77,0.115,0.639,-6.877,-6.772,4.707
51003930,-0.795,0.109,0.653,-4.585,-8.4,2.957
51003940,-0.776,0.113,0.668,-3.097,-11.917,0.717
51003950,-0.764,0.107,0.676,-1.435,-14.98,1.872
51003960,-0.752,0.124,0.683,-0.56,-16.275,2.905
51003970,-0.764,0.114,0.67,-1.225,-16.66,3.325
51003980,-0.781,0.092,0.654,0.052,-17.78,0.98
51003990,-0.755,0.098,0.642,2.905,-18.76,-2.17
51004000,-0.723,0.103,0.642,7,-18.462,-3.167
51004010,-0.635,0.141,0.659,10.605,-13.055,-4.042
51004010,-0.664,0.135,0.693,7.892,-2.257,-1.942
51004030,-0.761,0.104,0.697,2.082,2.975,-0.84
51004030,-0.721,0.111,0.703,-0.262,2.905,-1.137
51004050,-0.732,0.093,0.697,-3.64,1.067,2.222
51004050,-0.744,0.079,0.683,-4.095,-3.202,4.55
51004070,-0.732,0.078,0.668,-1.645,-7.455,7.647
51004070,-0.71,0.089,0.65,0.437,-11.13,8.067
51004080,-0.693,0.104,0.657,5.88,-11.62,6.037
51004090,-0.711,0.114,0.674,7.752,-10.815,5.81
51004100,-0.705,0.129,0.68,7.035,-10.202,2.712
51004110,-0.712,0.139,0.695,8.33,-10.027,0.892
51004120,-0.733,0.136,0.702,6.807,-9.8,2.59
51004130,-0.716,0.147,0.712,5.057,-9.905,3.097
51004140,-0.721,0.158,0.71,3.517,-8.19,3.92
51004150,-0.738,0.153,0.694,0.7,-6.702,3.482
51004160,-0.733,0.141,0.682,-1.085,-5.092,1.645
51004170,-0.721,0.139,0.682,-1.102,-3.885,0.647
51004180,-0.725,0.148,0.68,-0.77,-2.537,1.137
51004190,-0.723,0.15,0.688,-1.347,-1.715,1.26
51004200,-0.72,0.145,0.691,-2.73,-0.857,0.665
51004210,-0.727,0.134,0.685,-3.307,-1.697,0.805
51004220,-0.717,0.132,0.681,-3.535,-1.172,1.452
51004230,-0.718,0.12,0.671,-3.255,-0.805,1.662
51004240,-0.703,0.113,0.679,-2.03,1.4,1.557
51004250,-0.73,0.117,0.699,-1.19,1.277,2.17
51004260,-0.707,0.129,0.71,-1.47,1.015,3.36
51004270,-0.673,0.117,0.696,-2.625,5.005,5.057
51004280,-0.733,0.103,0.69,-3.482,10.185,4.48
51004290,-0.737,0.116,0.686,-3.045,12.04,2.03
51004300,-0.702,0.117,0.685,-2.24,14.472,1.102
51004310,-0.729,0.118,0.678,-3.237,17.15,1.295
51004320,-0.749,0.125,0.673,-3.78,18.06,1.61
51004330,-0.745,0.128,0.662,-5.18,20.422,2.012
51004330,-0.791,0.119,0.669,-7.507,21.28,1.995
51004350,-0.761,0.123,0.679,-7.962,20.685,0.507
51004350,-0.75,0.113,0.679,-7.402,22.085,2.257
51004370,-0.764,0.111,0.676,-7.28,24.377,3.465
51004370,-0.732,0.135,0.665,-7.315,27.545,2.537
51004390,-0.742,0.145,0.681,-9.765,32.042,1.767
51004390,-0.773,0.119,0.652,-12.67,31.447,0.525
51004410,-0.738,0.125,0.643,-9.957,30.467,1.347
51004410,-0.74,0.153,0.63,-9.94,30.975,2.467
51004420,-0.78,0.152,0.621,-11.287,30.642,0.962
51004430,-0.78,0.13,0.606,-12.425,27.527,-1.12
51004440,-0.771,0.129,0.581,-9.712,22.75,-0.945
51004450,-0.824,0.128,0.561,-5.897,16.152,1.225
51004460,-0.789,0.126,0.548,-0.402,10.097,2.205
51004470,-0.771,0.16,0.571,4.2,7.42,2.152
51004480,-0.772,0.163,0.543,1.715,5.705,1.032
51004490,-0.842,0.155,0.564,-0.91,6.072,-0.035
51004500,-0.836,0.148,0.574,-1.417,4.025,-3.307
51004510,-0.807,0.132,0.566,-1.907,2.362,-3.605
51004520,-0.809,0.133,0.585,-0.297,3.115,-2.94
51004530,-0.812,0.116,0.602,0.052,4.585,-3.237
51004540,-0.828,0.104,0.608,-0.245,3.937,-3.867
51004550,-0.795,0.11,0.657,0.42,1.225,-4.532
51004560,-0.784,0.074,0.643,-0.63,3.745,-3.43
51004570,-0.82,0.078,0.635,-0.822,1.085,-4.917
51004580,-0.77,0.088,0.624,0.245,-2.992,-4.147
51004590,-0.753,0.091,0.605,1.68,-5.985,-2.117
51004600,-0.761,0.119,0.611,3.045,-8.067,-1.522
51004610,-0.753,0.14,0.612,1.487,-9.94,0.647
51004620,-0.752,0.137,0.608,-1.277,-8.715,1.4
51004630,-0.747,0.121,0.622,-3.08,-6.44,0.665
51004640,-0.766,0.109,0.605,-4.865,-4.83,1.452
51004650,-0.775,0.113,0.626,-3.605,-3.43,2.625
51004660,-0.787,0.107,0.644,-2.625,-1.767,3.412
51004670,-0.78,0.104,0.635,-2.292,-0.315,3.29
51004680,-0.817,0.118,0.617,-2.415,0.647,3.115
51004690,-0.825,0.123,0.602,-2.065,0.245,2.45
51004700,-0.818,0.109,0.585,-1.015,-1.05,2.065
51004710,-0.807,0.103,0.581,1.05,-2.345,1.662
51004720,-0.797,0.105,0.583,3.185,-2.117,1.75
51004730,-0.803,0.112,0.587,3.045,-1.995,1.575
51004740,-0.817,0.106,0.59,3.237,-2.38,1.942
51004750,-0.78,0.099,0.591,3.167,-3.307,2.117
51004760,-0.782,0.108,0.597,3.885,-3.132,3.745
51004760,-0.789,0.117,0.608,4.462,-1.907,4.795
51004780,-0.772,0.117,0.609,4.392,0.21,4.515
51004780,-0.799,0.127,0.606,3.727,2.642,4.077
51004800,-0.814,0.128,0.601,2.765,4.007,3.587
51004800,-0.827,0.121,0.598,2.24,3.395,3.115
51004820,-0.795,0.121,0.595,2.485,2.555,2.677
51004820,-0.814,0.125,0.592,1.802,1.015,2.765
51004830,-0.795,0.139,0.587,2.17,-0.612,2.59
51004840,-0.797,0.135,0.591,1.207,-0.945,2.59
51004850,-0.822,0.117,0.592,0.7,-2.73,1.89
51004860,-0.808,0.135,0.609,2.59,-3.097,2.012
51004870,-0.838,0.148,0.621,1.96,-5.215,1.54
51004880,-0.844,0.143,0.634,1.225,-8.872,-0.665
51004890,-0.82,0.133,0.621,0.175,-13.02,-2.03
51004900,-0.823,0.127,0.622,0,-14.542,-2.782
51004910,-0.812,0.141,0.625,0.297,-16.502,-3.92
51004920,-0.782,0.143,0.629,-0.577,-16.187,-3.832
51004930,-0.767,0.142,0.638,-1.837,-15.277,-3.815
51004940,-0.759,0.133,0.63,-3.185,-13.615,-3.605
51004950,-0.747,0.126,0.637,-2.992,-11.917,-2.94
51004960,-0.715,0.119,0.639,-2.065,-8.942,-2.432
51004970,-0.704,0.125,0.629,-2.747,-5.967,-2.065
51004980,-0.732,0.126,0.62,-3.377,-1.26,-0.507
51004990,-0.711,0.115,0.601,-3.167,3.517,0.332
51005000,-0.654,0.124,0.593,-1.837,12.372,2.747
51005010,-0.739,0.132,0.587,-1.137,22.767,5.687
51005020,-0.771,0.116,0.578,-1.575,32.252,3.885
51005030,-0.803,0.101,0.564,-1.557,38.71,1.715
51005040,-0.904,0.109,0.547,-2.642,37.345,-0.962
51005050,-0.958,0.102,0.525,-0.472,28.98,-2.8
51005060,-0.922,0.117,0.473,1.522,16.52,-2.957
51005070,-0.898,0.17,0.553,7.945,10.185,-1.592
51005080,-0.985,0.219,0.61,1.032,0.84,-6.527
51005080,-0.871,0.146,0.576,-8.05,-10.692,-10.167
51005100,-0.859,0.073,0.529,-9.572,-13.492,-8.435
51005100,-0.762,0.128,0.596,-8.102,-8.12,-10.57
51005120,-0.774,0.128,0.63,-8.89,-4.445,-12.197
51005120,-0.7,0.097,0.58,-5.267,-1.75,-8.697
51005140,-0.64,0.256,0.478,-2.24,10.027,-3.675
51005140,-0.881,0.223,0.511,-13.09,21.122,1.697
51005160,-0.962,-0.043,0.577,-9.047,18.2,0.35
51005160,-0.848,-0.049,0.632,14.542,-2.765,3.202
51005170,-0.747,0.153,0.675,28.682,-21.035,10.622
51005180,-0.805,0.219,0.673,27.265,-30.765,2.94
51005190,-0.805,0.103,0.606,24.92,-37.537,-4.655
51005200,-0.659,0.11,0.582,28.157,-35.402,-5.355
51005210,-0.664,0.175,0.674,22.645,-9.677,0.595
51005220,-0.9,0.12,0.685,6.562,14.612,-0.997
51005230,-0.904,0.094,0.659,-4.06,18.76,-7.84
51005240,-0.854,0.079,0.621,-7.297,14.332,-1.26
51005250,-0.793,0.101,0.603,-4.462,7.735,3.78
51005260,-0.796,0.125,0.593,-5.057,1.68,6.982
51005270,-0.785,0.111,0.573,-11.48,-4.112,7.175
51005280,-0.715,0.096,0.595,-13.177,-7.822,5.057
51005290,-0.696,0.095,0.632,-9.905,-9.765,8.89
51005300,-0.69,0.121,0.656,-10.395,-10.692,11.095
51005310,-0.655,0.137,0.662,-11.112,-9.835,10.167
51005320,-0.633,0.125,0.686,-11.76,-2.747,13.195
51005330,-0.654,0.109,0.707,-14.455,5.705,17.325
51005340,-0.704,0.073,0.698,-16.362,14.525,19.67
51005350,-0.693,0.064,0.722,-16.485,24.972,19.285
51005360,-0.708,0.08,0.808,-17.885,39.567,19.705
51005370,-0.736,0.061,0.804,-26.442,49.175,20.02
51005380,-0.822,-0.024,0.73,-34.072,57.68,30.397
51005390,-0.952,0.023,0.783,-32.742,59.622,32.095
51005400,-1.031,-0.006,0.634,-40.635,51.31,27.895
51005410,-0.882,-0.002,0.528,-31.412,48.72,23.152
51005420,-0.888,0.105,0.43,-19.95,48.65,19.267
51005430,-0.939,0.169,0.324,-18.357,46.515,16.922
51005440,-0.932,0.14,0.24,-14.227,37.432,15.837
51005450,-0.869,0.181,0.216,-1.732,22.505,13.142
51005460,-0.77,0.238,0.191,9.397,12.18,18.847
51005470,-0.708,0.312,0.223,13.282,15.872,22.662
51005480,-0.744,0.316,0.243,12.057,21.735,22.19
51005490,-0.806,0.27,0.292,14.245,24.255,22.522
51005500,-0.832,0.242,0.368,18.812,24.85,25.567
51005510,-0.844,0.23,0.433,21.42,24.517,26.775
51005510,-0.889,0.227,0.52,23.607,24.377,22.645
51005530,-0.952,0.197,0.611,20.65,23.275,19.407
51005530,-0.97,0.148,0.629,13.09,21.367,14.175
51005550,-0.962,0.147,0.644,10.675,21.157,4.952
51005550,-1.065,0.131,0.621,6.107,18.025,0.28
51005570,-1.039,0.112,0.505,3.29,9.625,-1.452
51005570,-0.964,0.179,0.457,7.297,2.975,-4.725
51005580,-0.979,0.199,0.413,6.93,-3.447,-4.672
51005590,-0.872,0.2,0.39,7.507,-3.885,-7.262
51005600,-0.896,0.189,0.432,6.055,0.157,-8.452
51005610,-0.911,0.184,0.446,3.027,0.84,-10.78
51005620,-0.807,0.139,0.494,3.43,0.56,-9.555
51005630,-0.76,0.14,0.525,9.03,7.227,-0.525
51005640,-0.812,0.239,0.546,12.652,13.772,4.392
51005650,-0.863,0.247,0.506,9.992,9.257,5.32
51005660,-0.71,0.177,0.452,11.585,12.722,8.837
51005670,-0.899,0.196,0.434,13.72,14.542,16.922
51005680,-0.918,0.201,0.457,10.71,9.03,14.192
51005690,-0.904,0.146,0.439,8.872,3.325,9.257
51005700,-0.921,0.129,0.415,6.317,-3.675,5.18
51005710,-0.917,0.158,0.431,9.065,-8.592,2.642
51005720,-0.939,0.195,0.429,11.095,-10.692,0.157
51005730,-0.966,0.178,0.45,9.397,-11.847,-4.235
51005740,-0.941,0.157,0.452,10.01,-11.2,-7.157
51005750,-0.971,0.144,0.467,8.837,-10.08,-7.227
51005760,-0.998,0.137,0.487,7.175,-14.595,-7.42
51005770,-0.954,0.136,0.523,9.205,-19.197,-7.682
51005780,-0.983,0.122,0.521,8.785,-23.275,-7.805
51005790,-1.003,0.146,0.523,11.532,-29.365,-5.302
51005800,-1.074,0.232,0.523,16.607,-34.405,-2.835
51005810,-0.959,0.256,0.463,17.36,-47.197,-12.057
51005820,-0.747,0.19,0.372,13.562,-51.467,-18.515
51005830,-0.81,0.094,0.406,11.725,-44.572,-16.975
51005830,-0.856,0.142,0.482,17.29,-38.99,-17.692
51005850,-0.842,0.187,0.497,17.797,-40.95,-20.177
51005850,-0.757,0.174,0.489,17.307,-43.33,-21.385
51005870,-0.695,0.185,0.475,16.922,-40.005,-17.64
51005870,-0.762,0.18,0.5,13.65,-34.807,-9.625
51005890,-0.774,0.151,0.529,10.587,-31.535,-6.317
51005890,-0.723,0.165,0.505,8.61,-28.49,-5.25
51005910,-0.737,0.197,0.539,6.737,-22.61,-4.217
51005910,-0.781,0.182,0.563,3.675,-18.095,-5.145
51005920,-0.797,0.165,0.56,1.067,-17.167,-5.355
51005930,-0.782,0.179,0.571,-0.21,-18.147,-4.007
51005940,-0.767,0.193,0.586,-1.505,-16.642,-3.657
51005950,-0.785,0.203,0.58,-5.46,-15.557,-4.952
51005960,-0.794,0.206,0.563,-10.465,-16.747,-4.252
51005970,-0.779,0.203,0.557,-15.575,-19.547,-2.642
51005980,-0.756,0.177,0.555,-20.93,-20.387,-1.575
51005990,-0.767,0.138,0.586,-25.007,-21.07,-0.367
51006000,-0.793,0.097,0.658,-26.477,-22.172,1.225
51006010,-0.821,0.091,0.721,-25.882,-26.442,3.605
51006020,-0.816,0.094,0.714,-24.36,-31.36,6.615
51006030,-0.769,0.088,0.701,-18.235,-30.59,9.555
51006040,-0.678,0.124,0.771,-10.902,-17.132,13.23
51006050,-0.693,0.108,0.854,-9.835,6.387,18.585
51006060,-0.816,0.087,0.942,-14.507,27.475,19.705
51006070,-0.72,0.067,0.917,-24.202,39.637,17.745
51006080,-0.716,-0.005,0.883,-26.11,62.3,19.442
51006090,-0.858,0.05,0.933,-12.88,70.612,12.757
51006100,-0.816,0.062,0.897,0.35,65.03,13.877
51006110,-0.817,0.015,0.817,18.917,60.725,23.222
51006120,-0.841,0.036,0.76,44.065,61.39,25.567
51006130,-0.855,0.089,0.697,70.892,62.177,23.415
51006140,-0.928,0.129,0.615,92.89,59.552,19.022
51006150,-0.961,0.171,0.573,116.48,50.995,9.152
51006160,-0.973,0.226,0.5,130.34,36.33,1.242
51006170,-0.991,0.3,0.426,144.217,15.067,-3.867
51006180,-0.99,0.393,0.371,154.997,-13.02,-7.507
51006190,-0.964,0.477,0.269,162.435,-45.71,-12.25
51006200,-0.859,0.538,0.181,165.147,-76.825,-18.025
51006210,-0.744,0.591,0.137,164.115,-103.477,-23.695
51006220,-0.7,0.65,0.137,154.017,-127.68,-30.765
51006230,-0.755,0.641,0.167,135.135,-151.795,-40.075
51006240,-0.78,0.59,0.231,112.787,-170.747,-51.17
51006250,-0.787,0.569,0.327,85.452,-184.537,-60.322
51006260,-0.782,0.566,0.438,53.147,-193.987,-67.497
51006260,-0.772,0.542,0.505,15.855,-198.117,-74.06
51006280,-0.747,0.469,0.54,-18.637,-196.77,-78.435
51006280,-0.698,0.385,0.558,-45.29,-192.027,-79.38
51006300,-0.677,0.283,0.544,-61.845,-185.92,-74.427
51006300,-0.66,0.195,0.533,-67.462,-176.435,-69.335
51006310,-0.641,0.124,0.536,-64.925,-163.747,-65.835
51006320,-0.645,0.063,0.56,-56.717,-148.662,-62.527
51006330,-0.655,0.024,0.609,-44.187,-133.7,-57.505
51006340,-0.698,0.002,0.672,-30.205,-121.135,-51.065
51006350,-0.669,0.034,0.747,-14.927,-112.052,-49.962
51006360,-0.64,0.082,0.799,-8.417,-101.692,-46.62
51006370,-0.627,0.054,0.787,-5.04,-89.95,-37.765
51006380,-0.579,0.07,0.797,0.192,-74.34,-34.685
51006390,-0.583,0.075,0.767,-1.61,-55.597,-33.88
51006400,-0.57,0.051,0.737,-0.7,-34.982,-34.79
51006410,-0.609,0.022,0.705,2.975,-17.78,-30.292
51006420,-0.588,0.079,0.727,9.887,-4.235,-33.04
51006430,-0.596,0.121,0.715,6.51,6.282,-38.447
51006440,-0.61,0.084,0.693,3.342,13.16,-38.902
51006450,-0.613,0.057,0.679,6.702,14.857,-35.787
51006460,-0.625,0.077,0.675,10.132,13.755,-31.692
51006470,-0.641,0.088,0.679,10.185,11.585,-26.582
51006480,-0.622,0.137,0.699,9.432,11.235,-27.177
51006490,-0.657,0.114,0.692,6.282,11.672,-25.777
51006500,-0.661,0.117,0.714,3.412,11.725,-23.485
51006510,-0.648,0.157,0.722,-5.6,11.532,-27.335
51006520,-0.653,0.142,0.737,-14.7,12.582,-29.61
51006530,-0.665,0.129,0.748,-23.222,13.23,-30.292
51006540,-0.672,0.124,0.775,-31.57,11.865,-29.12
51006550,-0.64,0.146,0.788,-42.35,9.835,-30.362
51006560,-0.636,0.103,0.774,-51.87,6.545,-31.5
51006570,-0.601,0.038,0.753,-55.545,2.59,-29.977
51006580,-0.581,-0.009,0.751,-52.797,1.295,-23.502
51006580,-0.602,-0.03,0.78,-44.38,1.365,-16.31
51006600,-0.619,-0.053,0.802,-36.767,0.997,-11.795
51006600,-0.582,-0.069,0.835,-28.105,3.902,-9.467
51006620,-0.635,-0.079,0.866,-23.222,8.995,-6.51
51006620,-0.678,-0.063,0.908,-19.32,11.41,-8.015
51006640,-0.712,-0.091,0.912,-18.357,9.012,-9.17
51006640,-0.685,-0.116,0.902,-17.657,4.48,-9.94
51006660,-0.64,-0.121,0.886,-15.855,0.437,-8.75
51006660,-0.617,-0.118,0.862,-12.11,-1.382,-5.862
51006670,-0.611,-0.111,0.828,-8.172,-1.452,-0.945
51006680,-0.586,-0.102,0.793,-5.285,1.907,3.115
51006690,-0.535,-0.072,0.749,-1.732,9.835,7.752
51006700,-0.514,-0.065,0.712,3.342,22.715,17.465
51006710,-0.504,-0.041,0.68,8.12,37.38,24.202
51006720,-0.513,0,0.664,11.707,54.582,27.685
51006730,-0.577,0.012,0.656,13.16,71.487,32.865
51006740,-0.636,0.044,0.665,11.305,84.787,33.442
51006750,-0.743,0.054,0.679,8.347,90.23,34.527
51006760,-0.842,0.047,0.689,4.27,85.697,30.712
51006770,-0.888,0.045,0.705,2.782,71.68,25.917
51006780,-0.927,0.033,0.71,2.59,51.747,23.17
51006790,-0.936,0.044,0.723,3.045,28.7,18.83
51006800,-0.946,0.065,0.734,3.517,4.725,13.79
51006810,-0.911,0.074,0.721,4.742,-20.107,6.702
51006820,-0.811,0.089,0.703,7.91,-39.602,2.012
51006830,-0.688,0.12,0.688,10.955,-49.98,-0.595
51006840,-0.605,0.171,0.687,11.585,-48.37,-0.7
51006850,-0.576,0.2,0.668,7.122,-38.377,0.35
51006860,-0.542,0.208,0.64,-0.595,-20.965,1.732
51006870,-0.551,0.189,0.586,-9.642,-0.84,4.865
51006880,-0.596,0.144,0.539,-16.38,20.755,7.682
51006890,-0.675,0.097,0.502,-18.112,39.742,7.665
51006900,-0.785,0.072,0.495,-14.735,50.697,5.215
51006910,-0.917,0.057,0.504,-9.432,48.335,1.89
51006920,-0.989,0.041,0.515,-2.502,33.197,-2.905
51006930,-0.985,0.056,0.541,5.635,7.945,-8.872
51006940,-0.95,0.086,0.576,11.9,-21.35,-13.125
51006950,-0.909,0.119,0.598,15.172,-48.737,-15.032
51006960,-0.864,0.148,0.601,14.262,-72.922,-16.817
51006970,-0.789,0.147,0.624,9.625,-91.157,-15.995
51006980,-0.754,0.108,0.631,4.812,-105.367,-8.925
51006980,-0.689,0.109,0.623,1.33,-116.112,-4.06
51007000,-0.632,0.11,0.667,0.507,-120.96,1.05
51007000,-0.619,0.081,0.702,-1.4,-123.287,7.157
51007010,-0.602,0.034,0.743,-1.942,-125.335,10.482
51007020,-0.499,-0.075,0.774,-0.857,-124.687,13.282
51007030,-0.398,-0.122,0.828,9.345,-111.107,20.65
51007040,-0.466,-0.012,1.016,22.715,-88.13,30.012
51007050,-0.502,0.045,1.144,15.4,-63.735,35.665
51007060,-0.555,-0.013,1.168,-5.652,-32.41,35.122
51007070,-0.594,-0.025,1.18,-15.102,-9.45,24.465
51007080,-0.612,-0.047,1.118,-27.632,2.187,18.725
51007090,-0.502,-0.124,1.055,-33.04,19.355,15.82
51007100,-0.501,-0.175,0.991,-30.047,45.815,15.085
51007110,-0.521,-0.171,0.9,-27.142,75.39,14.402
51007120,-0.549,-0.15,0.834,-22.977,101.272,11.952
51007130,-0.56,-0.142,0.749,-24.535,121.415,14.245
51007140,-0.585,-0.162,0.687,-27.702,140.962,22.102
51007150,-0.578,-0.15,0.571,-34.405,158.55,32.865
51007160,-0.59,-0.126,0.542,-24.99,182.962,46.497
51007170,-0.758,-0.074,0.554,-13.667,200.76,57.015
51007180,-0.897,-0.017,0.578,-19.862,206.01,63.28
51007190,-0.92,0.054,0.573,-27.825,193.742,63.315
51007200,-0.854,0.098,0.519,-34.405,179.602,67.48
51007210,-0.845,0.108,0.458,-40.687,169.925,79.187
51007220,-0.885,0.131,0.426,-50.417,161.122,87.115
51007230,-0.917,0.132,0.414,-59.867,148.225,90.965
51007240,-0.841,0.155,0.392,-65.275,136.745,92.067
51007250,-0.824,0.186,0.38,-74.077,131.74,95.9
51007260,-0.878,0.232,0.409,-82.967,122.22,91.455
51007270,-0.788,0.259,0.398,-82.81,107.03,82.827
51007280,-0.694,0.268,0.4,-82.932,93.24,78.995
51007290,-0.707,0.27,0.448,-82.127,81.007,76.37
51007300,-0.82,0.265,0.463,-80.255,66.815,71.977
51007310,-0.842,0.265,0.536,-76.877,51.292,61.022
51007320,-0.799,0.245,0.56,-74.917,38.605,47.845
51007330,-0.809,0.188,0.549,-73.535,31.955,35.105
51007330,-0.802,0.192,0.572,-66.727,28.192,22.645
51007350,-0.758,0.177,0.509,-58.292,25.62,14.227
51007350,-0.732,0.165,0.509,-47.075,24.727,11.497
51007370,-0.809,0.124,0.507,-32.69,19.39,14.192
51007370,-0.785,0.113,0.492,-19.25,12.32,17.797
51007390,-0.805,0.135,0.529,-5.39,7.805,26.197
51007390,-0.852,0.152,0.558,3.71,5.407,33.967
51007410,-0.866,0.2,0.588,6.3,5.53,33.617
51007410,-0.918,0.215,0.61,1.032,1.96,28.647
51007420,-0.887,0.194,0.555,-11.357,-6.282,23.38
51007430,-0.84,0.159,0.511,-17.027,-13.265,25.567
51007440,-0.834,0.138,0.491,-17.92,-15.33,27.597
51007450,-0.887,0.17,0.542,-11.217,-18.585,27.965
51007460,-0.988,0.161,0.568,-9.275,-30.765,24.5
51007470,-0.847,0.178,0.559,-6.807,-46.777,17.955
51007480,-0.795,0.189,0.562,-3.29,-53.182,17.237
51007490,-0.737,0.209,0.558,-2.117,-52.395,14.017
51007500,-0.67,0.209,0.539,-2.117,-45.097,12.775
51007510,-0.585,0.172,0.506,-2.957,-27.912,16.205
51007520,-0.607,0.173,0.552,3.115,-2.66,20.23
51007530,-0.7,0.155,0.49,2.31,18.515,25.007
51007540,-0.805,0.165,0.52,14.875,32.427,26.915
51007550,-0.814,0.226,0.536,21.612,40.67,25.935
51007560,-0.935,0.249,0.523,20.317,43.575,24.062
51007570,-1.052,0.247,0.486,13.947,37.415,18.48
51007580,-1.086,0.204,0.486,13.107,20.807,10.745
51007590,-1.091,0.181,0.475,19.04,-2.415,10.01
51007600,-0.951,0.175,0.489,29.872,-24.92,17.342
51007610,-0.914,0.169,0.541,41.702,-31.552,32.182
51007620,-1.18,0.313,0.713,46.357,-34.562,39.865
51007630,-1.239,0.391,0.713,31.062,-57.172,28.595
51007640,-1.062,0.275,0.605,11.567,-85.137,21.612
51007650,-1.053,0.191,0.575,5.477,-103.285,29.925
51007660,-1.064,0.229,0.568,9.432,-122.447,38.937
51007670,-0.966,0.275,0.549,12.145,-142.432,45.29
51007670,-0.879,0.241,0.534,12.722,-154.455,49.56
51007690,-0.808,0.205,0.541,14.595,-160.072,49.577
51007690,-0.86,0.196,0.577,19.477,-171.78,47.162
51007710,-0.168,0.355,0.568,32.375,-171.955,43.242
51007710,-0.276,0.305,0.618,21.945,-124.582,52.167
51007730,-0.478,0.318,0.564,1.855,-79.345,41.317
51007730,-0.425,0.277,0.671,0.787,-48.3,30.397
51007750,-0.467,0.276,0.672,-8.977,-25.777,26.547
51007750,-0.674,0.148,0.665,-9.782,-15.382,26.477
51007760,-0.626,0.189,0.671,4.252,-12.022,26.477
51007770,-0.664,0.257,0.65,14.91,-13.072,28.437
51007780,-0.662,0.26,0.594,21.192,-12.32,27.09
51007790,-0.679,0.281,0.571,29.207,-10.15,27.177
51007800,-0.692,0.329,0.551,31.692,-7.682,28.945
51007810,-0.827,0.371,0.59,30.747,-8.767,29.4
51007820,-0.864,0.402,0.641,26.25,-19.81,25.777
51007830,-0.933,0.421,0.726,21.875,-34.545,23.135
51007840,-0.918,0.453,0.711,19.285,-50.505,19.757
51007850,-0.735,0.424,0.669,16.73,-61.617,18.042
51007860,-0.646,0.332,0.654,14.91,-65.625,20.545
51007870,-0.549,0.318,0.648,19.845,-63.647,22.715
51007880,-0.56,0.422,0.718,31.22,-53.165,26.075
51007890,-0.607,0.499,0.709,27.142,-47.88,23.87
51007900,-0.658,0.481,0.679,11.462,-53.48,18.497
51007910,-0.595,0.497,0.637,-5.162,-63.14,13.51
51007920,-0.753,0.537,0.696,-19.932,-66.29,11.095
51007930,-1.008,0.505,0.689,-43.382,-92.505,10.325
51007940,-0.732,0.422,0.649,-61.25,-137.952,20.562
51007950,-0.577,0.366,0.642,-66.027,-157.045,40.617
51007960,-0.119,0.347,0.854,-61.652,-140.962,46.847
51007970,-0.148,0.229,0.986,-53.112,-93.8,44.275
51007980,-0.153,0.345,1.044,-47.705,-46.672,20.93
51007990,-0.3,0.323,0.91,-48.3,-16.432,-0.315
51008000,-0.408,0.293,0.849,-46.305,0.017,-9.485
51008010,-0.481,0.353,0.819,-36.82,6.632,-10.64
51008020,-0.493,0.333,0.769,-34.212,12.337,-17.08
51008030,-0.496,0.263,0.722,-33.477,18.882,-22.715
51008040,-0.563,0.279,0.69,-32.515,22.68,-20.912
51008050,-0.583,0.265,0.65,-33.617,21.735,-17.622
51008060,-0.476,0.224,0.657,-34.422,22.855,-20.002
51008070,-0.5,0.21,0.662,-32.445,30.1,-22.225
51008080,-0.569,0.218,0.687,-31.15,30.415,-23.992
51008080,-0.493,0.21,0.728,-28.682,26.145,-24.377
51008100,-0.525,0.231,0.803,-26.862,25.06,-20.667
51008100,-0.545,0.255,0.844,-27.405,22.715,-17.937
51008120,-0.523,0.268,0.892,-26.355,23.642,-17.5
51008120,-0.609,0.243,0.877,-27.44,27.002,-19.687
51008140,-0.646,0.226,0.835,-27.685,23.695,-22.592
51008140,-0.623,0.232,0.796,-26.46,17.202,-21.77
51008160,-0.637,0.22,0.753,-26.617,13.037,-20.3
51008160,-0.674,0.197,0.736,-26.81,8.925,-19.495
51008170,-0.671,0.204,0.729,-25.847,1.277,-17.255
51008180,-0.609,0.228,0.751,-24.447,-4.217,-15.96
51008190,-0.578,0.223,0.751,-25.165,-5.547,-16.24
51008200,-0.546,0.224,0.758,-24.797,-3.22,-17.202
51008210,-0.53,0.237,0.781,-24.255,-0.157,-17.342
51008220,-0.523,0.252,0.84,-23.082,6.317,-17.115
51008230,-0.587,0.255,0.874,-24.237,10.062,-17.78
51008240,-0.539,0.249,0.899,-26.197,12.022,-18.55
51008250,-0.582,0.255,0.906,-27.825,16.31,-20.72
51008260,-0.62,0.204,0.854,-32.515,16.642,-24.552
51008270,-0.536,0.174,0.795,-32.69,16.345,-24.412
51008280,-0.53,0.157,0.698,-32.637,20.912,-24.237
51008290,-0.514,0.099,0.639,-31.692,26.95,-26.232
51008300,-0.526,0.062,0.604,-23.607,32.305,-26.582
51008310,-0.474,0.08,0.603,-15.942,34.037,-27.65
51008320,-0.436,0.099,0.703,-11.497,39.182,-20.195
51008330,-0.509,0.149,0.736,-11.795,42.542,-16.292
51008340,-0.551,0.096,0.828,-13.317,45.937,-12.39
51008350,-0.621,0.166,0.886,-7.262,50.645,-6.807
51008360,-0.598,0.269,0.863,-6.492,57.75,-10.605
51008370,-0.636,0.178,0.809,-5.565,68.162,-10.587
51008380,-0.605,0.195,0.753,3.202,80.85,-6.947
51008390,-0.529,0.177,0.746,8.557,101.272,-9.117
51008400,-0.533,0.127,0.713,13.16,122.99,-12.337
51008410,-0.525,0.108,0.721,18.112,139.562,-13.002
51008420,-0.71,0.172,0.685,21.997,146.387,-7.175
51008420,-0.823,0.192,0.607,20.125,135.765,-4.97
51008440,-0.877,0.126,0.549,21.297,115.36,-3.202
51008440,-0.957,0.139,0.496,30.012,88.812,2.852
51008460,-0.983,0.246,0.483,37.345,58.747,9.275
51008460,-0.971,0.298,0.42,31.5,29.61,10.972
51008480,-0.868,0.148,0.243,32.182,14.997,8.26
51008480,-0.73,0.171,0.255,64.522,17.657,11.025
51008500,-0.785,0.258,0.391,84.91,24.622,23.17
51008500,-0.844,0.362,0.527,91.21,29.837,29.487
51008510,-0.857,0.438,0.638,89.95,33.302,28.822
51008520,-0.915,0.458,0.681,74.83,33.985,25.952
51008530,-1.133,0.428,0.702,57.452,22.225,22.61
51008540,-1.144,0.392,0.688,43.277,-3.272,16.905
51008550,-1.017,0.394,0.725,38.657,-29.575,13.265
51008560,-0.876,0.4,0.759,36.295,-43.032,14.595
51008570,-0.678,0.477,0.818,32.007,-33.302,12.565
51008580,-0.623,0.566,0.84,15.33,-1.347,4.025
51008590,-0.662,0.494,0.773,-6.282,39.025,-10.08
51008600,-0.751,0.329,0.685,-15.645,73.097,-21.437
51008610,-0.813,0.2,0.569,-13.527,89.355,-19.74
51008620,-0.819,0.161,0.508,9.87,92.855,-3.64
51008630,-0.828,0.261,0.517,43.785,91.787,15.382
51008640,-0.858,0.387,0.513,67.655,87.115,27.51
51008650,-0.889,0.445,0.518,78.172,78.487,30.555
51008660,-0.923,0.485,0.553,78.89,64.242,29.75
51008670,-0.997,0.482,0.559,68.565,40.005,31.22
51008680,-1.011,0.495,0.561,57.365,7.35,28.017
51008690,-0.958,0.511,0.534,47.617,-26.005,20.3
51008700,-0.924,0.497,0.509,39.725,-54.075,12.04
51008710,-0.866,0.49,0.467,31.255,-75.285,1.365
51008720,-0.813,0.484,0.461,24.43,-86.782,-10.202
51008730,-0.791,0.478,0.418,14.262,-91.175,-24.325
51008740,-0.774,0.472,0.396,4.76,-92.365,-40.95
51008750,-0.758,0.456,0.4,-3.832,-93.642,-55.825
51008760,-0.732,0.448,0.417,-12.302,-94.15,-66.535
51008770,-0.688,0.444,0.434,-21.315,-92.872,-73.57
51008780,-0.643,0.445,0.445,-30.765,-88.952,-78.067
51008790,-0.559,0.418,0.412,-41.877,-80.885,-79.747
51008800,-0.5,0.351,0.404,-50.575,-69.405,-73.885
51008810,-0.551,0.249,0.393,-52.255,-58.047,-60.532
51008820,-0.657,0.188,0.419,-47.827,-49.98,-45.657
51008830,-0.765,0.173,0.453,-40.215,-47.092,-32.952
51008830,-0.852,0.172,0.497,-31.465,-49.682,-25.2
51008850,-0.914,0.181,0.581,-24.062,-57.312,-22.242
51008850,-0.926,0.189,0.605,-20.16,-67.97,-21.49
51008870,-0.854,0.211,0.671,-14.052,-77.805,-28.752
51008870,-0.807,0.242,0.72,-18.27,-82.127,-33.372
51008890,-0.768,0.218,0.698,-30.52,-82.057,-37.45
51008890,-0.709,0.192,0.696,-39.41,-79.082,-43.732
51008910,-0.656,0.154,0.678,-48.842,-73.465,-48.037
51008910,-0.601,0.109,0.65,-55.072,-67.322,-49.507
51008920,-0.546,0.079,0.636,-56.157,-60.305,-46.497
51008930,-0.539,0.035,0.6,-56.297,-52.832,-37.73
51008940,-0.534,-0.009,0.601,-47.005,-43.592,-27.142
51008950,-0.543,-0.01,0.612,-37.94,-33.512,-15.05
51008960,-0.57,-0.019,0.649,-29.767,-22.645,-5.67
51008970,-0.616,-0.022,0.686,-23.817,-12.565,0.105
51008980,-0.652,-0.013,0.722,-21.227,-3.745,1.767
51008990,-0.687,-0.006,0.73,-22.697,1.977,2.065
51009000,-0.713,-0.003,0.733,-25.497,5.757,0.525
51009010,-0.747,-0.015,0.725,-31.447,6.107,-2.082
51009020,-0.755,-0.013,0.712,-36.837,3.902,-7.7
51009030,-0.763,-0.016,0.722,-42.367,-0.822,-12.04
51009040,-0.759,-0.022,0.707,-49.525,-6.107,-16.065
51009050,-0.747,-0.039,0.701,-54.635,-11.9,-19.565
51009060,-0.721,-0.039,0.702,-58.415,-16.835,-20.895
51009070,-0.718,-0.039,0.705,-64.225,-20.982,-20.72
51009080,-0.729,-0.069,0.714,-69.02,-24.01,-23.275
51009090,-0.772,-0.085,0.716,-72.957,-27.44,-29.785
51009100,-0.803,-0.069,0.749,-76.93,-31.307,-40.687
51009110,-0.854,-0.095,0.765,-83.16,-38.08,-53.182
51009120,-0.802,-0.064,0.754,-89.95,-46.532,-70.105
51009130,-0.671,-0.047,0.693,-100.31,-52.797,-83.842
51009140,-0.594,-0.079,0.649,-110.092,-57.487,-84.822
51009150,-0.606,-0.118,0.641,-112.595,-64.785,-77.367
51009160,-0.63,-0.102,0.661,-113.33,-77.105,-66.132
51009170,-0.634,-0.073,0.709,-116.41,-89.74,-54.477
51009170,-0.655,-0.08,0.766,-125.317,-100.257,-45.762
51009190,-0.625,-0.13,0.766,-136.517,-104.965,-46.27
51009190,-0.522,-0.156,0.716,-144.48,-103.197,-51.992
51009210,-0.453,-0.245,0.649,-143.552,-97.352,-51.852
51009210,-0.35,-0.301,0.604,-129.727,-86.852,-45.675
51009230,-0.262,-0.375,0.597,-102.707,-69.965,-31.885
51009230,-0.243,-0.383,0.642,-70.717,-46.987,-13.895
51009250,-0.355,-0.355,0.733,-48.702,-22.207,0.157
51009250,-0.497,-0.372,0.813,-35.175,-4.585,3.535
51009260,-0.568,-0.39,0.859,-30.502,2.607,0.07
51009270,-0.532,-0.482,0.841,-26.652,2.59,-3.01
51009280,-0.468,-0.53,0.817,-12.25,8.365,-0.875
