time[ms],accX[g],accY[g],accZ[g],Value 1,Value 2,Value 3
51710630,-0.755,-0.082,0.733,2.537,-10.587,9.345
51710640,-0.738,-0.094,0.713,0.297,-10.692,8.872
51710650,-0.742,-0.233,0.642,6.667,-6.055,8.295
51710660,-0.647,0,0.755,25.042,3.43,-1.015
51710670,-0.711,-0.04,0.679,7.717,13.965,0.857
51710680,-0.825,-0.119,0.675,4.445,21.437,3.237
51710690,-0.825,-0.132,0.66,3.395,18.077,2.467
51710700,-0.76,-0.084,0.661,3.552,14.892,-0.56
51710710,-0.792,-0.125,0.675,2.87,16.695,-3.29
51710720,-0.844,-0.144,0.706,0.525,17.342,-1.645
51710730,-0.875,-0.145,0.723,-5.687,12.6,1.977
51710740,-0.868,-0.127,0.774,-9.747,8.662,-2.152
51710750,-0.803,-0.064,0.785,-19.46,9.345,-12.635
51710760,-0.876,-0.238,0.786,-24.325,13.807,-14.735
51710770,-0.865,-0.256,0.795,-23.992,18.235,-12.267
51710780,-0.859,-0.241,0.805,-20.737,25.252,-8.347
51710790,-0.862,-0.252,0.808,-17.762,32.742,-5.932
51710800,-0.879,-0.264,0.795,-16.082,38.115,-1.995
51710810,-0.869,-0.285,0.745,-12.005,41.055,1.575
51710820,-0.816,-0.289,0.681,0.857,46.725,3.307
51710830,-0.768,-0.245,0.658,20.685,55.545,6.65
51710830,-0.745,-0.158,0.64,32.532,66.447,13.842
51710850,-0.762,-0.078,0.608,31.832,76.212,27.615
51710850,-0.828,-0.1,0.542,33.442,79.537,46.707
51710870,-0.849,-0.103,0.503,45.692,74.847,57.085
51710870,-0.876,-0.067,0.483,55.247,64.802,58.642
51710890,-0.871,-0.002,0.46,58.782,51.397,49.315
51710890,-0.868,0.029,0.439,59.482,37.59,37.66
51710910,-0.887,0.031,0.419,58.397,21.525,29.067
51710910,-0.896,0.033,0.391,57.4,3.955,21.21
51710920,-0.914,0.039,0.383,58.887,-15.575,12.092
51710930,-0.915,0.054,0.386,59.5,-35.262,1.942
51710940,-0.874,0.075,0.381,58.432,-52.745,-6.51
51710950,-0.824,0.088,0.38,56.665,-66.552,-12.057
51710960,-0.78,0.107,0.394,53.847,-75.285,-16.24
51710970,-0.749,0.12,0.419,49.402,-79.572,-19.582
51710980,-0.755,0.111,0.432,42.402,-82.145,-22.172
51710990,-0.749,0.096,0.446,36.645,-83.58,-26.565
51711000,-0.731,0.092,0.475,32.987,-82.88,-30.345
51711010,-0.725,0.103,0.509,26.897,-81.235,-32.305
51711020,-0.76,0.083,0.536,20.772,-80.78,-34.825
51711030,-0.8,0.055,0.58,15.347,-83.72,-38.342
51711040,-0.805,0.034,0.566,9.117,-90.09,-41.527
51711050,-0.744,-0.002,0.597,13.51,-94.552,-42.227
51711060,-0.688,0.009,0.629,15.82,-93.975,-36.872
51711070,-0.688,0.004,0.641,12.582,-90.562,-32.987
51711080,-0.679,-0.016,0.665,11.13,-83.895,-34.527
51711090,-0.662,-0.042,0.677,9.73,-76.142,-35.542
51711100,-0.664,-0.071,0.684,9.817,-66.815,-34.387
51711110,-0.658,-0.072,0.692,10.832,-56.595,-33.652
51711120,-0.662,-0.055,0.701,9.047,-45.955,-33.267
51711130,-0.669,-0.056,0.701,6.842,-35.98,-32.462
51711140,-0.639,-0.058,0.708,5.565,-24.832,-31.167
51711150,-0.615,-0.044,0.716,1.4,-12.6,-28.175
51711160,-0.645,-0.046,0.72,-5.565,1.487,-25.602
51711170,-0.687,-0.042,0.727,-13.23,14.262,-25.515
51711170,-0.733,-0.052,0.71,-24.657,22.715,-25.305
51711190,-0.775,-0.075,0.689,-34.002,24.832,-25.305
51711190,-0.821,-0.107,0.682,-39.76,22.067,-23.642
51711210,-0.856,-0.152,0.65,-41.807,14,-19.705
51711210,-0.863,-0.18,0.636,-38.36,3.535,-14.437
51711230,-0.867,-0.186,0.616,-33.88,-8.19,-9.345
51711230,-0.847,-0.207,0.628,-21.367,-17.657,-9.117
51711250,-0.808,-0.146,0.657,-10.745,-24.85,-9.975
51711250,-0.808,-0.135,0.673,-3.657,-31.307,-10.675
51711260,-0.764,-0.094,0.685,5.53,-36.015,-14.157
51711270,-0.734,-0.087,0.691,11.147,-40.337,-15.172
51711280,-0.689,-0.081,0.706,17.85,-42.56,-16.345
51711290,-0.663,-0.071,0.705,24.237,-42.262,-14.805
51711300,-0.625,-0.024,0.724,29.68,-38.867,-14.315
51711310,-0.582,0.021,0.74,29.4,-31.797,-13.947
51711320,-0.579,0.013,0.742,26.932,-22.225,-9.38
51711330,-0.584,0,0.727,23.082,-11.112,-5.355
51711340,-0.604,0,0.737,21.927,0.245,-1.54
51711350,-0.624,0.007,0.739,19.565,10.517,0.227
51711360,-0.661,-0.008,0.712,19.337,18.847,4.165
51711370,-0.706,-0.037,0.729,23.45,23.94,10.202
51711380,-0.76,-0.02,0.724,22.452,25.847,15.61
51711390,-0.768,-0.016,0.706,20.825,25.06,12.04
51711400,-0.782,-0.041,0.707,23.677,23.782,8.61
51711410,-0.802,-0.049,0.702,24.815,20.405,8.82
51711420,-0.806,-0.05,0.688,25.165,15.365,9.887
51711430,-0.803,-0.049,0.671,26.057,9.765,10.43
51711440,-0.785,-0.051,0.657,27.002,5.267,10.08
51711450,-0.751,-0.044,0.656,29.12,2.607,10.29
51711460,-0.725,-0.022,0.652,29.102,2.695,11.865
51711470,-0.71,0.004,0.653,27.037,4.322,12.967
51711480,-0.706,0.021,0.653,22.82,7.315,14.14
51711490,-0.709,0.026,0.66,17.797,9.975,14.315
51711500,-0.712,0.021,0.663,13.282,12.582,13.755
51711510,-0.719,0.018,0.671,9.135,13.825,13.475
51711520,-0.734,0.013,0.685,4.287,13.825,14.665
51711530,-0.748,0.002,0.691,-0.122,11.655,15.75
51711540,-0.753,-0.013,0.691,-2.555,8.435,15.872
51711550,-0.755,-0.019,0.694,-2.8,4.48,15.242
51711560,-0.755,-0.014,0.704,-1.68,1.382,14.437
51711570,-0.745,-0.006,0.708,-0.245,-1.715,13.737
51711580,-0.726,0.002,0.712,0.91,-3.22,12.95
51711580,-0.716,0.009,0.709,1.435,-3.622,12.162
51711600,-0.707,0.014,0.703,2.152,-2.73,11.462
51711600,-0.697,0.017,0.699,3.22,-1.505,11.042
51711620,-0.687,0.021,0.697,4.952,0.91,11.462
51711620,-0.684,0.031,0.698,6.912,4.235,12.442
51711640,-0.692,0.04,0.701,7.367,8.12,13.3
51711640,-0.703,0.042,0.694,6.982,11.742,13.335
51711660,-0.712,0.041,0.683,6.982,15.12,13.02
51711660,-0.727,0.042,0.676,7.402,17.587,13.037
51711670,-0.742,0.05,0.671,7.472,19.46,13.352
51711680,-0.753,0.054,0.665,7.052,20.597,12.985
51711690,-0.76,0.052,0.659,6.037,21.087,12.18
51711700,-0.776,0.044,0.651,4.987,20.72,11.62
51711710,-0.783,0.043,0.644,4.147,19.757,11.287
51711720,-0.788,0.043,0.639,3.727,18.777,11.025
51711730,-0.794,0.043,0.636,2.607,17.727,10.482
51711740,-0.8,0.037,0.637,1.242,16.502,9.555
51711750,-0.801,0.029,0.632,-0.017,14.595,9.135
51711760,-0.793,0.021,0.626,-0.875,13.02,9.345
51711770,-0.789,0.018,0.625,-0.84,11.882,9.432
51711780,-0.795,0.019,0.624,-0.56,11.322,9.8
51711790,-0.798,0.023,0.622,-0.28,10.465,9.712
51711800,-0.806,0.026,0.624,-0.227,9.502,9.292
51711810,-0.815,0.032,0.626,-0.542,7.122,8.872
51711820,-0.817,0.038,0.624,-1.12,3.99,8.417
51711830,-0.81,0.038,0.625,-1.172,0.42,7.98
51711840,-0.799,0.044,0.63,-1.155,-2.625,8.05
51711850,-0.792,0.052,0.632,-1.575,-5.442,8.417
51711860,-0.778,0.057,0.634,-2.117,-6.72,8.557
51711870,-0.766,0.06,0.639,-3.342,-7.35,8.75
51711880,-0.762,0.06,0.642,-4.865,-6.562,9.222
51711890,-0.763,0.057,0.647,-5.95,-5.757,9.31
51711900,-0.762,0.052,0.645,-7.087,-4.795,9.187
51711910,-0.761,0.044,0.64,-7.227,-4.165,8.925
51711920,-0.763,0.038,0.643,-6.422,-3.395,8.872
51711920,-0.768,0.038,0.646,-5.565,-3.43,8.89
51711940,-0.77,0.043,0.65,-4.76,-2.992,8.61
51711940,-0.772,0.046,0.654,-3.745,-3.08,7.98
51711960,-0.769,0.047,0.657,-2.852,-2.905,7.262
51711960,-0.759,0.05,0.656,-2.292,-2.94,6.667
51711980,-0.755,0.05,0.656,-2.012,-2.642,7.017
51711980,-0.752,0.053,0.657,-1.662,-2.31,7.507
51712000,-0.752,0.058,0.658,-1.697,-1.627,7.997
51712000,-0.752,0.058,0.655,-1.785,-1.137,8.225
51712010,-0.751,0.06,0.655,-1.382,-0.21,7.91
51712020,-0.752,0.065,0.655,-1.155,0.437,7.717
51712030,-0.754,0.071,0.652,-0.962,0.945,7.14
51712040,-0.753,0.079,0.651,-1.102,0.98,6.352
51712050,-0.75,0.085,0.649,-1.68,1.172,5.512
51712060,-0.745,0.09,0.643,-3.045,1.505,4.812
51712070,-0.749,0.088,0.64,-4.252,1.557,4.497
51712080,-0.749,0.091,0.637,-5.32,1.82,4.48
51712090,-0.747,0.09,0.634,-6.37,2.205,4.795
51712100,-0.745,0.09,0.631,-7.42,3.36,4.497
51712110,-0.745,0.088,0.629,-8.347,5.215,3.71
51712120,-0.741,0.084,0.622,-9.485,7.717,3.255
51712130,-0.718,0.08,0.621,-9.992,11.76,3.167
51712140,-0.7,0.079,0.623,-9.957,17.937,3.675
51712150,-0.737,0.064,0.622,-11.27,23.73,4.462
51712160,-0.737,0.082,0.638,-12.127,28.332,2.012
51712170,-0.797,0.06,0.625,-17.78,29.697,6.58
51712180,-0.838,0.014,0.607,-18.077,27.44,9.17
51712190,-0.846,0.012,0.606,-12.845,23.082,6.317
51712200,-0.869,0.011,0.603,-7.245,16.975,4.112
51712210,-0.866,0.001,0.607,0,9.625,0.262
51712220,-0.823,0.046,0.633,2.765,4.077,-2.082
51712230,-0.831,0.049,0.621,-1.085,-1.382,1.032
51712240,-0.822,0.036,0.609,-1.855,-4.9,0.717
51712250,-0.797,0.039,0.605,-0.385,-7.122,-1.592
51712260,-0.775,0.051,0.614,1.592,-7.07,-2.222
51712270,-0.767,0.071,0.628,1.172,-6.02,-0.892
51712280,-0.772,0.077,0.627,-2.747,-4.48,1.102
51712290,-0.779,0.061,0.626,-5.057,-3.22,1.4
51712300,-0.787,0.051,0.63,-5.372,-1.942,1.032
51712310,-0.8,0.049,0.641,-5.862,-2.187,1.785
51712320,-0.809,0.043,0.643,-6.632,-2.642,2.905
51712330,-0.807,0.04,0.648,-7.07,-3.167,2.782
51712330,-0.81,0.035,0.652,-7.122,-3.237,2.31
51712350,-0.812,0.027,0.651,-6.895,-3.692,1.925
51712350,-0.806,0.021,0.649,-6.125,-3.885,1.732
51712370,-0.794,0.02,0.65,-5.092,-3.622,1.977
51712370,-0.782,0.019,0.651,-4.007,-2.502,2.975
51712390,-0.771,0.017,0.654,-2.817,-0.227,3.902
51712390,-0.77,0.015,0.662,-1.89,2.992,5.215
51712410,-0.783,0.008,0.664,-1.697,6.107,7.07
51712410,-0.794,0.002,0.663,-0.735,8.627,8.557
51712420,-0.806,0.001,0.661,1.207,10.412,9.38
51712430,-0.814,0.004,0.657,3.342,11.322,9.975
51712440,-0.816,0.009,0.647,5.722,11.41,10.185
51712450,-0.809,0.012,0.634,8.522,11.042,10.097
51712460,-0.801,0.02,0.62,11.655,11.025,10.412
51712470,-0.79,0.03,0.608,14.892,10.955,11.13
51712480,-0.783,0.045,0.61,17.482,11.462,11.34
51712490,-0.772,0.088,0.599,15.89,12.25,10.587
51712500,-0.794,0.056,0.583,17.307,12.407,10.237
51712510,-0.79,0.069,0.596,20.895,12.582,7.997
51712520,-0.8,0.095,0.594,19.267,11.69,8.032
51712530,-0.803,0.1,0.588,17.5,9.992,7.315
51712540,-0.797,0.096,0.591,16.415,8.767,6.807
51712550,-0.812,0.096,0.582,13.562,6.86,8.522
51712560,-0.808,0.092,0.579,13.37,5.425,6.825
51712570,-0.803,0.104,0.583,13.667,4.48,5.53
51712580,-0.81,0.1,0.569,12.057,3.237,4.357
51712590,-0.798,0.095,0.576,13.947,2.432,1.96
51712600,-0.797,0.112,0.572,12.092,2.065,2.485
51712610,-0.806,0.104,0.558,11.13,0.997,2.275
51712620,-0.793,0.113,0.56,13.23,1.26,0.385
51712630,-0.828,0.084,0.535,15.697,-0.262,2.205
51712640,-0.8,0.121,0.571,21.315,-0.962,-0.647
51712650,-0.81,0.16,0.579,16.852,-1.505,0.91
51712660,-0.836,0.132,0.545,10.64,-2.38,2.117
51712670,-0.826,0.109,0.541,11.725,-3.202,-1.662
51712670,-0.828,0.129,0.548,11.952,-4.007,-3.08
51712690,-0.859,0.143,0.556,10.622,-6.772,-3.062
51712690,-0.873,0.138,0.553,8.575,-11.252,-4.585
51712710,-0.867,0.127,0.545,6.807,-17.115,-7
51712710,-0.86,0.118,0.546,7.087,-22.277,-9.625
51712730,-0.854,0.125,0.557,7.892,-27.475,-11.935
51712730,-0.848,0.129,0.56,7.595,-32.427,-13.825
51712750,-0.835,0.124,0.56,6.667,-36.505,-15.907
51712750,-0.829,0.107,0.565,7.56,-39.375,-18.182
51712760,-0.842,0.057,0.562,13.545,-42.805,-18.2
51712770,-0.789,0.116,0.613,18.042,-44.502,-20.265
51712780,-0.788,0.141,0.615,12.075,-45.15,-17.447
51712790,-0.785,0.11,0.596,7.28,-44.467,-17.675
51712800,-0.764,0.077,0.585,9.205,-43.155,-20.807
51712810,-0.744,0.085,0.605,14.787,-41.44,-22.085
51712820,-0.742,0.117,0.628,15.942,-39.48,-20.23
51712830,-0.744,0.114,0.627,13.317,-37.712,-18.287
51712840,-0.738,0.1,0.625,11.672,-35.42,-18.532
51712850,-0.727,0.1,0.628,10.85,-33.057,-18.952
51712860,-0.731,0.108,0.628,10.395,-30.975,-18.655
51712870,-0.726,0.115,0.618,10.15,-29.522,-19.145
51712880,-0.716,0.128,0.613,10.36,-28.07,-20.37
51712890,-0.725,0.142,0.6,10.657,-28.122,-20.58
51712900,-0.732,0.152,0.585,11.812,-28.962,-20.667
51712910,-0.721,0.179,0.566,13.072,-30.45,-20.51
51712920,-0.711,0.216,0.547,13.107,-31.062,-20.125
51712930,-0.704,0.257,0.535,12.46,-30.345,-20.912
51712940,-0.722,0.289,0.536,11.34,-29.225,-21.647
51712950,-0.743,0.343,0.55,8.4,-30.275,-23.065
51712960,-0.769,0.361,0.556,-0.472,-34.002,-24.902
51712970,-0.781,0.353,0.568,-12.04,-40.635,-29.47
51712980,-0.798,0.316,0.574,-24.15,-49.052,-33.95
51712990,-0.815,0.259,0.584,-34.492,-60.252,-37.992
51713000,-0.815,0.205,0.589,-42.437,-71.925,-43.19
51713010,-0.797,0.155,0.614,-47.005,-83.387,-49.192
51713020,-0.748,0.117,0.624,-48.282,-93.975,-52.027
51713030,-0.721,0.063,0.667,-45.22,-103.652,-47.67
51713040,-0.698,0.042,0.689,-47.547,-109.952,-43.785
51713050,-0.661,0.007,0.706,-50.102,-112.577,-43.225
51713060,-0.608,-0.027,0.724,-52.08,-110.005,-44.047
51713070,-0.542,-0.072,0.721,-52.885,-102.427,-45.745
51713080,-0.524,-0.112,0.745,-49.175,-90.86,-42.682
51713080,-0.54,-0.132,0.779,-43.732,-81.462,-37.52
51713100,-0.561,-0.151,0.815,-38.027,-75.932,-32.112
51713100,-0.601,-0.188,0.834,-31.99,-73.255,-28.927
51713120,-0.632,-0.224,0.867,-24.552,-72.87,-33.127
51713120,-0.642,-0.216,0.928,-17.29,-76.457,-41.107
51713130,-0.621,-0.204,0.959,-14.052,-84.805,-45.062
51713140,-0.511,-0.186,0.971,-12.845,-91.192,-47.775
51713150,-0.407,-0.172,0.953,-11.217,-90.982,-45.465
51713160,-0.366,-0.188,0.936,-8.977,-84,-38.85
51713170,-0.336,-0.214,0.918,-5.075,-74.48,-32.725
51713180,-0.388,-0.287,0.918,4.462,-67.637,-21.717
51713190,-0.35,-0.231,0.959,11.725,-59.115,-21.21
51713200,-0.402,-0.193,1.013,16.467,-50.575,-18.602
51713210,-0.448,-0.191,0.996,16.975,-46.567,-19.197
51713220,-0.406,-0.169,0.977,16.275,-45.36,-22.575
51713230,-0.331,-0.153,0.961,15.312,-41.842,-23.082
51713240,-0.27,-0.127,0.93,11.672,-33.547,-23.047
51713250,-0.264,-0.114,0.924,7.157,-22.155,-19.67
51713260,-0.285,-0.102,0.899,-0.787,-9.117,-17.132
51713270,-0.328,-0.115,0.872,-7.455,2.275,-15.47
51713280,-0.38,-0.137,0.847,-12.827,9.485,-13.002
51713290,-0.42,-0.155,0.837,-15.68,10.727,-10.552
51713300,-0.427,-0.179,0.826,-16.187,8.242,-8.977
51713310,-0.415,-0.193,0.794,-10.955,7.087,-5.74
51713320,-0.53,-0.264,0.873,14.35,2.94,10.745
51713330,-0.512,-0.123,0.905,18.515,-4.585,12.512
51713340,-0.498,-0.102,0.925,17.167,-9.835,9.432
51713350,-0.465,-0.122,0.947,16.117,-10.01,7.07
51713360,-0.439,-0.114,0.963,14.892,-7.875,5.88
51713370,-0.472,-0.088,0.986,12.582,-7.297,6.492
51713380,-0.481,-0.075,1.007,7.42,-9.817,5.232
51713390,-0.415,-0.064,0.992,2.152,-12.81,2.992
51713400,-0.357,-0.058,0.958,-2.782,-9.625,3.08
51713410,-0.365,-0.059,0.941,-6.317,-2.905,4.392
51713420,-0.395,-0.065,0.918,-9.695,3.395,5.495
51713420,-0.4,-0.062,0.892,-12.67,8.89,5.617
51713440,-0.443,-0.077,0.886,-15.382,13.16,5.862
51713440,-0.514,-0.081,0.871,-17.552,10.22,4.76
51713460,-0.45,-0.14,0.896,-20.055,3.762,2.607
51713460,-0.456,-0.196,0.902,-17.062,2.012,0.332
51713480,-0.41,-0.161,0.908,-8.085,5.53,-4.62
51713480,-0.523,-0.149,0.929,-4.077,6.387,-4.165
51713500,-0.502,-0.128,0.941,-3.185,2.87,-8.067
51713500,-0.45,-0.111,0.928,-2.905,-0.192,-9.345
51713510,-0.405,-0.107,0.883,-4.13,0.385,-9.292
51713520,-0.417,-0.114,0.863,-3.202,3.99,-8.715
51713530,-0.451,-0.133,0.829,-1.347,5.88,-7.192
51713540,-0.462,-0.12,0.83,1.925,4.007,-6.125
51713550,-0.448,-0.102,0.834,3.692,0.402,-5.005
51713560,-0.436,-0.097,0.839,4.042,-1.995,-4.69
51713570,-0.431,-0.092,0.845,4.252,-2.782,-3.062
51713580,-0.43,-0.077,0.866,3.517,-1.89,0.087
51713590,-0.428,-0.077,0.878,0.63,0.052,2.187
51713600,-0.446,-0.092,0.883,-2.17,3.325,2.782
51713610,-0.488,-0.102,0.88,-5.88,5.407,3.132
51713620,-0.514,-0.104,0.893,-8.312,5.442,1.067
51713630,-0.535,-0.107,0.907,-10.64,2.38,-1.032
51713640,-0.503,-0.114,0.905,-13.51,-0.857,-3.885
51713650,-0.463,-0.118,0.9,-15.277,0.245,-4.812
51713660,-0.441,-0.122,0.899,-18.182,6.79,-4.9
51713670,-0.482,-0.156,0.913,-17.045,13.755,-2.695
51713680,-0.468,-0.143,0.921,-18.27,17.29,-1.855
51713690,-0.443,-0.137,0.916,-17.552,19.285,-3.045
51713700,-0.435,-0.142,0.906,-16.45,22.382,-3.29
51713710,-0.422,-0.149,0.878,-16.222,24.867,-2.8
51713720,-0.397,-0.161,0.822,-15.907,28.822,0.77
51713730,-0.393,-0.172,0.834,-12.005,33.407,5.775
51713740,-0.429,-0.166,0.852,-8.295,37.992,11.777
51713750,-0.48,-0.143,0.869,-6.475,38.587,15.435
51713760,-0.498,-0.147,0.874,-7.367,34.79,16.66
51713770,-0.465,-0.16,0.858,-8.067,30.432,17.727
51713780,-0.487,-0.161,0.847,-6.737,27.422,19.915
51713790,-0.488,-0.124,0.854,-6.3,24.587,20.037
51713800,-0.47,-0.12,0.823,-8.715,20.51,19.372
51713800,-0.44,-0.157,0.791,-6.51,17.447,21.49
51713820,-0.46,-0.173,0.785,-2.17,14.735,26.652
51713820,-0.472,-0.137,0.803,1.942,11.777,30.345
51713830,-0.519,-0.149,0.793,5.337,8.645,34.265
51713840,-0.522,-0.16,0.785,11.217,7.07,36.137
51713850,-0.461,-0.129,0.843,18.847,10.027,36.75
51713860,-0.481,-0.079,0.889,24.29,20.597,38.727
51713870,-0.659,-0.092,0.886,20.772,18.707,38.815
51713880,-0.574,-0.107,0.882,18.147,10.01,32.69
51713890,-0.48,-0.086,0.88,19.635,10.045,29.47
51713900,-0.485,-0.039,0.86,15.96,14.07,31.307
51713910,-0.542,-0.029,0.876,11.305,20.072,33.232
51713920,-0.573,-0.042,0.849,7.805,24.552,31.64
51713930,-0.669,-0.07,0.839,1.137,25.322,27.86
51713940,-0.733,-0.077,0.84,0.577,21.28,17.272
51713950,-0.682,-0.044,0.859,0.105,14.227,7.35
51713960,-0.632,-0.028,0.845,-4.112,9.362,1.26
51713970,-0.613,-0.035,0.821,-8.365,7.63,-1.767
51713980,-0.662,-0.052,0.799,-12.022,5.547,-1.225
51713990,-0.724,-0.076,0.769,-15.277,-5.372,-1.137
51714000,-0.673,-0.082,0.751,-14.297,-18.392,-6.142
51714010,-0.597,-0.074,0.762,-10.36,-25.025,-10.64
51714020,-0.531,-0.069,0.789,-4.97,-23.467,-13.545
51714030,-0.492,-0.056,0.81,0.735,-15.522,-14.735
51714040,-0.519,-0.046,0.834,3.045,-6.667,-14.175
51714050,-0.525,-0.068,0.81,1.015,-1.155,-12.932
51714060,-0.497,-0.061,0.805,0.997,6.37,-10.815
51714070,-0.532,-0.073,0.785,1.732,14.105,-6.79
51714080,-0.569,-0.067,0.794,4.375,20.387,-3.237
51714090,-0.6,-0.053,0.814,4.585,22.417,-2.327
51714100,-0.63,-0.056,0.824,2.292,20.212,-2.922
51714110,-0.642,-0.07,0.823,-1.137,14.612,-4.48
51714120,-0.637,-0.077,0.811,-3.797,8.067,-6.492
51714130,-0.618,-0.076,0.804,-5.302,2.082,-7.857
51714140,-0.611,-0.065,0.804,-6.842,-1.015,-8.435
51714150,-0.614,-0.059,0.807,-10.36,-3.675,-8.557
51714160,-0.635,-0.089,0.795,-13.51,-8.365,-7.35
51714170,-0.62,-0.098,0.787,-13.737,-14.717,-7.682
51714170,-0.604,-0.101,0.783,-12.967,-20.492,-8.26
51714190,-0.598,-0.112,0.768,-11.095,-25.462,-8.89
51714190,-0.59,-0.115,0.768,-7.962,-29.627,-10.307
51714210,-0.604,-0.109,0.777,-4.55,-33.512,-12.127
51714210,-0.633,-0.105,0.782,-2.362,-39.375,-15.697
51714230,-0.622,-0.116,0.777,-0.122,-48.562,-20.912
51714230,-0.596,-0.114,0.786,2.992,-58.187,-24.395
51714250,-0.55,-0.116,0.833,4.182,-67.69,-26.617
51714250,-0.365,-0.146,0.789,3.622,-64.33,-25.69
51714260,-0.34,-0.143,0.855,6.72,-44.835,-18.97
51714270,-0.447,-0.136,0.888,6.772,-25.69,-11.147
51714280,-0.508,-0.165,0.883,7.647,-14.21,-8.837
51714290,-0.526,-0.159,0.912,10.972,-9.695,-8.767
51714300,-0.526,-0.124,0.926,9.87,-6.79,-8.015
51714310,-0.521,-0.135,0.922,8.26,-5.075,-10.71
51714320,-0.498,-0.107,0.921,6.422,-2.1,-13.44
51714330,-0.473,-0.117,0.909,2.975,0.875,-13.457
51714340,-0.469,-0.12,0.885,1.54,5.687,-12.635
51714350,-0.488,-0.106,0.878,0.525,10.745,-11.532
51714360,-0.498,-0.08,0.891,-2.1,15.05,-11.602
51714370,-0.517,-0.07,0.877,-7.735,16.835,-14.385
51714380,-0.518,-0.109,0.854,-11.462,17.412,-20.58
51714390,-0.506,-0.118,0.861,-11.672,17.727,-23.117
51714400,-0.496,-0.107,0.85,-13.825,16.975,-21.717
51714410,-0.481,-0.131,0.866,-14.805,16.485,-18.672
51714420,-0.499,-0.158,0.861,-14.612,13.93,-14.542
51714430,-0.467,-0.162,0.868,-13.65,10.027,-10.675
51714440,-0.5,-0.174,0.875,-11.41,10.675,-5.495
51714450,-0.561,-0.193,0.861,-4.97,11.322,-5.232
51714460,-0.502,-0.149,0.848,-1.4,13.72,-13.86
51714470,-0.582,-0.168,0.844,2.992,15.155,-10.482
51714480,-0.615,-0.157,0.859,3.832,10.937,-5.005
51714490,-0.579,-0.159,0.845,-0.07,1.802,-12.372
51714500,-0.588,-0.158,0.846,-2.537,-6.492,-13.317
51714510,-0.579,-0.159,0.828,-3.22,-16.887,-10.815
51714510,-0.525,-0.133,0.843,-2.572,-22.995,-8.365
51714530,-0.527,-0.156,0.836,-5.6,-24.255,-2.8
51714530,-0.526,-0.178,0.847,-7.892,-22.015,-2.187
51714550,-0.495,-0.178,0.852,-9.17,-18.795,-2.135
51714550,-0.459,-0.159,0.868,-10.552,-11.602,-1.47
51714570,-0.512,-0.188,0.873,-13.965,-6.79,-1.19
51714570,-0.484,-0.19,0.864,-15.47,-3.22,-1.33
51714580,-0.487,-0.17,0.857,-17.237,1.487,-0.84
51714590,-0.517,-0.148,0.855,-19.495,6.475,-0.56
51714600,-0.588,-0.153,0.841,-22.977,6.247,-1.417
51714610,-0.591,-0.173,0.803,-23.765,-1.767,-5.162
51714620,-0.523,-0.169,0.768,-21.07,-10.657,-8.19
51714630,-0.51,-0.16,0.757,-18.655,-16.835,-8.872
51714640,-0.508,-0.164,0.745,-16.572,-21.262,-9.887
51714650,-0.499,-0.167,0.747,-13.72,-24.99,-9.677
51714660,-0.48,-0.155,0.747,-11.515,-28.682,-8.645
51714670,-0.447,-0.166,0.752,-7.787,-28.577,-8.522
51714680,-0.47,-0.189,0.765,-3.605,-27.405,-4.567
51714690,-0.459,-0.18,0.785,0.542,-26.022,-2.485
51714700,-0.465,-0.159,0.822,2.082,-22.26,-1.995
51714710,-0.512,-0.185,0.835,0.455,-21.507,-2.327
51714720,-0.455,-0.201,0.834,0.945,-20.475,-4.025
51714730,-0.443,-0.195,0.838,2.45,-16.275,-3.377
51714740,-0.5,-0.188,0.847,3.85,-11.987,-1.592
51714750,-0.551,-0.21,0.856,6.58,-13.16,-1.33
51714760,-0.534,-0.231,0.844,9.52,-19.302,-2.187
51714770,-0.466,-0.198,0.843,12.145,-24.955,-2.432
51714780,-0.523,-0.173,0.864,12.46,-30.52,0.665
51714790,-0.462,-0.207,0.848,15.067,-37.152,4.217
51714800,-0.412,-0.203,0.874,16.677,-37.66,7.192
51714810,-0.41,-0.183,0.889,15.225,-34.615,9.432
51714820,-0.402,-0.185,0.892,14.157,-28.717,11.147
51714830,-0.474,-0.2,0.908,14.892,-25.987,12.442
51714840,-0.453,-0.172,0.922,16.24,-28.542,12.635
51714850,-0.391,-0.169,0.91,16.135,-28.385,14.647
51714860,-0.373,-0.178,0.921,15.61,-22.19,19.022
51714870,-0.379,-0.202,0.904,15.732,-13.58,25.322
51714880,-0.402,-0.213,0.903,18.217,-2.432,32.55
51714890,-0.425,-0.207,0.906,21.367,10.307,39.182
51714900,-0.439,-0.209,0.901,25.252,25.235,43.925
51714910,-0.493,-0.183,0.918,27.335,40.267,47.477
51714920,-0.556,-0.167,0.903,20.37,54.705,46.007
51714920,-0.661,-0.176,0.903,21.805,63.962,56.455
51714940,-0.728,-0.174,0.884,23.117,66.307,67.165
51714940,-0.742,-0.116,0.875,24.307,63.332,73.377
51714960,-0.718,-0.099,0.862,16.677,62.195,77.437
51714960,-0.684,-0.069,0.802,3.92,64.365,80.92
51714980,-0.656,-0.038,0.753,-3.062,70.052,86.642
51714980,-0.639,-0.027,0.727,-5.53,82.67,91.735
51715000,-0.684,-0.045,0.721,-7.577,96.092,98.507
51715000,-0.679,0,0.698,-11.252,106.802,108.027
51715010,-0.695,0.023,0.685,-10.412,116.445,119.332
51715020,-0.736,0.084,0.688,-6.405,125.195,123.987
51715030,-0.898,0.043,0.716,-5.46,126.192,125.58
51715040,-0.761,0.205,0.787,-17.867,122.832,102.672
51715050,-0.78,0.143,0.656,-43.067,114.817,98.91
51715060,-0.767,0.131,0.648,-48.51,105.7,96.67
51715070,-0.797,0.143,0.662,-57.96,91.84,92.382
51715080,-0.781,0.106,0.605,-69.387,76.23,88.637
51715090,-0.678,0.096,0.577,-71.487,65.327,82.985
51715100,-0.585,0.103,0.591,-70.665,62.93,76.072
51715110,-0.554,0.103,0.582,-74.952,65.765,70.227
51715120,-0.546,0.082,0.584,-82.88,72.765,61.39
51715130,-0.652,0.042,0.607,-86.835,76.877,53.672
51715140,-0.774,0.002,0.634,-88.725,70.262,47.075
51715150,-0.792,0.007,0.668,-86.887,55.247,38.78
51715160,-0.786,-0.01,0.666,-81.637,38.692,34.527
51715170,-0.789,-0.029,0.675,-74.602,23.17,26.057
51715180,-0.744,-0.031,0.682,-70.595,10.517,16.765
51715190,-0.665,-0.041,0.679,-69.667,1.592,11.235
51715200,-0.626,-0.063,0.695,-68.005,-1.732,9.415
51715210,-0.621,-0.065,0.708,-63.192,-1.925,8.89
51715220,-0.57,-0.062,0.72,-59.045,1.715,8.312
51715230,-0.54,-0.08,0.731,-59.972,9.555,8.382
51715240,-0.563,-0.108,0.711,-60.077,19.092,9.38
51715250,-0.6,-0.125,0.744,-55.037,27.79,10.885
51715260,-0.687,-0.151,0.74,-50.925,30.852,14.035
51715260,-0.729,-0.16,0.766,-45.342,29.382,14.647
51715280,-0.779,-0.135,0.764,-42.315,26.757,13.37
51715280,-0.844,-0.176,0.75,-39.742,21.717,7.227
51715300,-0.902,-0.272,0.689,-25.462,9.31,5.582
51715300,-0.867,-0.181,0.781,-10.885,-7.612,-1.61
51715320,-0.784,-0.109,0.785,-14.665,-21.962,-13.037
51715320,-0.713,-0.215,0.694,-18.725,-30.275,-16.292
51715330,-0.596,-0.216,0.68,-6.755,-25.795,-21.052
51715340,-0.636,-0.175,0.704,0.542,-18.095,-14.56
51715350,-0.649,-0.169,0.662,0.647,-7.91,-6.457
51715360,-0.649,-0.19,0.651,8.19,6.685,-3.972
51715370,-0.701,-0.164,0.677,13.562,18.532,0.227
51715380,-0.754,-0.134,0.686,13.895,25.795,4.83
51715390,-0.793,-0.116,0.696,13.475,30.52,4.147
51715400,-0.794,-0.086,0.621,9.117,33.285,2.572
51715410,-0.913,-0.128,0.608,4.06,27.982,4.392
51715420,-0.927,-0.174,0.552,1.89,15.277,3.132
51715430,-0.857,-0.141,0.565,7.385,2.782,-0.945
51715440,-0.832,-0.097,0.554,9.502,-5.04,-1.067
51715450,-0.842,-0.084,0.541,10.202,-7.122,-0.385
51715460,-0.841,-0.097,0.536,13.002,-8.085,-1.785
51715470,-0.831,-0.084,0.563,15.225,-11.655,-1.102
51715480,-0.815,-0.069,0.556,15.487,-14.735,0.7
51715490,-0.79,-0.071,0.56,16.59,-15.225,2.922
51715500,-0.734,-0.055,0.558,17.325,-11.9,3.972
51715510,-0.717,-0.062,0.554,17.867,-5.565,7.91
51715520,-0.754,-0.063,0.563,19.495,0.175,12.932
51715530,-0.794,-0.043,0.573,21.542,3.115,15.47
51715540,-0.813,-0.052,0.54,20.422,5.232,16.59
51715550,-0.903,-0.09,0.575,21.752,4.812,15.767
51715560,-0.919,-0.068,0.561,25.13,-10.43,13.247
51715570,-0.734,-0.046,0.567,25.76,-15.505,10.395
51715580,-0.769,-0.022,0.618,30.397,-10.762,9.642
51715590,-0.859,-0.006,0.638,26.635,-10.465,12.74
51715600,-0.905,-0.024,0.629,21.14,-16.642,11.27
51715610,-0.867,-0.049,0.59,17.027,-25.025,6.597
51715620,-0.789,-0.06,0.594,18.742,-28.105,2.327
51715630,-0.738,-0.004,0.653,23.257,-26.197,0.927
51715640,-0.75,0.026,0.669,21.297,-23.52,2.607
51715650,-0.733,0.001,0.635,16.1,-20.282,3.867
51715660,-0.726,-0.012,0.64,16.117,-14.612,3.797
51715670,-0.756,0.001,0.665,16.415,-9.607,4.987
51715670,-0.764,0.032,0.677,14.875,-5.075,4.322
51715690,-0.786,0.04,0.694,11.742,-1.557,1.487
51715690,-0.789,0.03,0.678,7.332,-1.872,0.28
51715710,-0.771,0.013,0.661,3.255,-2.94,-0.175
51715710,-0.801,-0.013,0.666,1.522,-4.252,0.07
51715730,-0.816,0.005,0.692,2.135,-6.125,-2.485
51715730,-0.814,0.011,0.689,-0.052,-7.735,-5.512
51715750,-0.814,-0.004,0.68,-3.062,-9.135,-8.61
51715750,-0.796,-0.004,0.685,-4.462,-10.325,-11.532
51715760,-0.796,-0.01,0.673,-6.545,-10.115,-12.792
51715770,-0.795,-0.034,0.656,-7.595,-10.99,-14.227
51715780,-0.785,-0.04,0.654,-6.737,-12.967,-14.647
51715790,-0.712,-0.02,0.645,-5.635,-12.547,-13.912
51715800,-0.686,-0.015,0.639,-3.832,-5.075,-11.847
51715810,-0.746,-0.032,0.641,-3.85,3.99,-7.647
51715820,-0.817,-0.038,0.652,-3.377,8.662,-5.757
51715830,-0.845,-0.025,0.658,-3.692,6.387,-7.717
51715840,-0.837,-0.028,0.659,-6.072,0.647,-10.5
51715850,-0.826,-0.024,0.656,-8.277,-5.39,-13.79
51715860,-0.841,-0.035,0.661,-11.217,-12.267,-15.697
51715870,-0.859,-0.045,0.658,-14.997,-22.487,-18.27
51715880,-0.822,-0.037,0.65,-17.255,-32.27,-21.77
51715890,-0.8,-0.049,0.63,-18.83,-39.9,-23.397
51715900,-0.762,-0.053,0.619,-19.145,-45.062,-23.94
51715910,-0.674,-0.046,0.623,-18.515,-45.115,-24.937
51715920,-0.654,-0.058,0.622,-16.1,-41.265,-21.35
51715930,-0.535,-0.081,0.599,-14.21,-31.377,-15.977
51715940,-0.578,-0.13,0.666,-5.74,-7.052,-5.337
51715950,-0.89,-0.124,0.737,-0.28,2.677,1.837
51715960,-0.831,-0.052,0.72,-2.922,-4.69,-0.98
51715970,-0.765,-0.044,0.724,-2.415,-10.622,-7.455
51715980,-0.797,-0.119,0.713,-6.142,-13.02,-7.507
51715990,-0.77,-0.064,0.72,-6.93,-16.222,-10.482
51716000,-0.792,-0.095,0.706,-7.717,-21.227,-9.625
51716010,-0.763,-0.073,0.696,-10.342,-23.152,-15.452
51716010,-0.778,-0.115,0.694,-10.885,-24.92,-16.222
51716030,-0.75,-0.078,0.693,-11.41,-27.877,-19.705
51716030,-0.745,-0.107,0.67,-12.11,-30.712,-16.222
51716050,-0.709,-0.094,0.67,-10.902,-31.972,-13.895
51716050,-0.735,-0.099,0.668,-11.62,-32.917,-8.907
51716070,-0.724,-0.089,0.682,-7.752,-34.352,-11.06
51716070,-0.753,-0.079,0.684,-8.365,-39.235,-9.205
51716080,-0.75,-0.088,0.685,-9.835,-45.36,-9.485
51716090,-0.731,-0.09,0.7,-9.66,-50.802,-11.2
51716100,-0.698,-0.086,0.7,-11.41,-54.18,-11.602
51716110,-0.681,-0.086,0.708,-11.602,-55.475,-10.885
51716120,-0.673,-0.114,0.725,-9.152,-54.145,-7.945
51716130,-0.667,-0.102,0.771,-6.212,-52.29,-8.225
51716140,-0.633,-0.106,0.801,-6.895,-47.425,-10.745
51716150,-0.585,-0.102,0.821,-6.895,-38.062,-15.627
51716160,-0.6,-0.097,0.823,-9.695,-27.16,-17.5
51716170,-0.599,-0.135,0.798,-13.702,-18.252,-19.6
51716180,-0.639,-0.154,0.797,-13.492,-13.282,-21.297
51716190,-0.653,-0.13,0.793,-11.9,-13.965,-22.487
51716200,-0.645,-0.132,0.771,-11.672,-14.052,-23.117
51716210,-0.656,-0.152,0.735,-12.81,-13.755,-23.992
51716220,-0.675,-0.16,0.721,-11.06,-15.365,-22.82
51716230,-0.669,-0.144,0.714,-8.767,-20.422,-19.827
51716240,-0.646,-0.145,0.705,-8.47,-23.887,-17.325
51716250,-0.642,-0.151,0.709,-8.96,-26.425,-15.872
51716260,-0.637,-0.149,0.719,-10.027,-28.542,-14.367
51716270,-0.652,-0.164,0.716,-11.025,-30.345,-13.142
51716280,-0.644,-0.17,0.743,-9.677,-31.867,-13.23
51716290,-0.619,-0.159,0.752,-11.165,-34.002,-13.107
51716300,-0.605,-0.166,0.764,-11.235,-34.597,-12.092
51716310,-0.59,-0.165,0.773,-12.162,-36.295,-10.92
51716320,-0.55,-0.177,0.786,-11.515,-36.592,-9.432
51716330,-0.533,-0.189,0.809,-10.622,-34.912,-7.752
51716340,-0.575,-0.172,0.781,-11.725,-36.977,-6.352
51716350,-0.378,-0.167,0.774,-10.815,-33.127,-8.067
51716360,-0.426,-0.255,0.788,-8.925,-21.052,-5.285
51716370,-0.519,-0.268,0.78,-8.242,-14.647,-1.032
51716380,-0.499,-0.205,0.815,-1.645,-12.967,-1.89
51716390,-0.433,-0.195,0.81,-1.26,-9.012,-0.735
51716400,-0.409,-0.226,0.806,-1.977,-0.017,1.155
51716410,-0.381,-0.235,0.814,-0.525,12.635,3.115
51716420,-0.377,-0.239,0.809,1.242,28.21,6.615
51716420,-0.405,-0.241,0.815,2.677,44.257,9.922
51716440,-0.426,-0.233,0.86,3.92,60.34,14.262
51716440,-0.482,-0.249,0.832,1.767,75.145,19.565
51716460,-0.566,-0.239,0.828,4.497,87.587,21.035
51716460,-0.586,-0.24,0.783,3.885,94.132,20.982
51716470,-0.574,-0.259,0.786,5.81,106.277,18.182
51716480,-0.735,-0.263,0.788,10.832,111.16,19.547
51716490,-0.738,-0.22,0.754,14.945,107.782,20.58
51716500,-0.722,-0.171,0.744,18.392,104.545,19.145
51716510,-0.738,-0.143,0.719,13.3,102.217,17.622
51716520,-0.724,-0.16,0.663,6.86,96.967,15.767
51716530,-0.65,-0.173,0.578,5.32,92.225,15.837
51716540,-0.596,-0.169,0.54,9.415,93.607,23.607
51716550,-0.621,-0.138,0.513,15.085,102.27,33.337
51716560,-0.683,-0.101,0.525,19.425,113.172,37.59
51716570,-0.858,-0.195,0.489,28.052,117.582,47.722
51716580,-0.944,-0.125,0.499,37.887,109.882,49.297
51716590,-0.98,-0.084,0.513,38.937,95.602,35.752
51716600,-0.905,-0.102,0.481,30.747,85.785,15.505
51716610,-0.823,-0.082,0.471,28.98,79.957,-2.38
51716620,-0.766,-0.039,0.478,27.387,83.3,-11.55
51716630,-0.803,-0.008,0.466,26.67,86.45,-9.59
51716640,-0.849,-0.005,0.465,23.082,86.642,0.21
51716650,-0.919,-0.039,0.451,21.735,82.74,9.03
51716660,-0.932,-0.033,0.44,20.825,76.737,11.62
51716670,-0.955,-0.023,0.433,19.547,68.565,13.702
51716680,-0.958,-0.035,0.401,16.187,60.55,12.215
51716690,-0.967,-0.049,0.425,13.807,55.282,5.145
51716700,-0.939,-0.028,0.417,15.557,46.392,0.892
51716710,-0.947,-0.033,0.423,18.445,42.647,8.627
51716720,-0.972,0.017,0.502,19.95,39.427,12.46
51716730,-0.985,0.053,0.472,9.642,34.807,6.79
51716740,-0.948,0.011,0.467,2.502,26.565,4.165
51716750,-0.964,-0.084,0.432,4.13,21.892,15.557
51716760,-1.003,-0.037,0.465,13.055,17.115,14.577
51716760,-0.971,0.063,0.481,9.572,9.835,8.05
51716780,-0.932,-0.023,0.424,0.315,4.567,1.575
51716780,-0.969,-0.124,0.409,7.7,-2.642,4.34
51716800,-1.022,-0.073,0.454,21.875,-18.935,9.572
51716800,-1.02,0.037,0.524,23.205,-38.78,9.292
51716820,-0.947,0.023,0.538,17.377,-52.097,2.485
51716820,-0.81,0.014,0.496,12.88,-51.975,0.28
51716830,-0.775,-0.02,0.461,10.045,-40.355,5.232
51716840,-0.816,-0.059,0.431,6.352,-25.952,14.192
51716850,-0.938,-0.122,0.414,8.592,-19.11,20.177
51716860,-0.971,-0.087,0.464,13.335,-21.542,18.55
51716870,-0.94,-0.071,0.438,16.467,-27.265,15.172
51716880,-0.955,-0.054,0.507,26.267,-33.372,16.415
51716890,-0.91,0.015,0.522,28.262,-39.392,17.255
51716900,-0.851,0.053,0.537,23.17,-36.207,11.935
51716910,-0.813,0.07,0.525,9.1,-28.192,6.965
51716920,-0.799,0.058,0.5,-0.332,-19.705,5.442
51716930,-0.77,0.033,0.497,-5.932,-12.25,5.862
51716940,-0.796,-0.003,0.452,-10.43,-6.93,9.607
51716950,-0.907,-0.093,0.404,-2.957,-5.74,16.467
51716960,-0.879,-0.033,0.439,8.697,-11.48,20.632
51716970,-0.844,-0.036,0.464,11.217,-15.33,19.075
51716980,-0.774,-0.004,0.46,10.622,-13.177,20.09
51716990,-0.781,0.075,0.5,10.622,-6.422,19.985
51717000,-0.853,0.02,0.532,8.505,4.252,23.502
51717010,-0.87,0.02,0.55,9.835,9.747,27.335
51717020,-0.896,0.005,0.553,12.005,14.21,27.055
51717030,-0.873,-0.04,0.553,16.432,20.457,26.985
51717040,-0.777,0.006,0.536,21.962,30.747,27.037
51717050,-0.821,0.053,0.532,22.05,46.2,29.732
51717060,-0.991,0.014,0.53,19.442,54.862,29.872
51717070,-0.965,0.021,0.483,14.105,50.417,20.02
51717080,-0.888,0.005,0.487,14.315,47.425,12.337
51717090,-0.907,0.012,0.442,12.932,47.11,18.34
51717100,-0.952,0.026,0.433,13.807,43.977,18.445
51717110,-0.991,0.032,0.482,14.752,38.867,17.465
51717120,-1.004,0.056,0.507,11.62,30.625,14.437
51717130,-1.031,0.093,0.518,4.357,19.53,7.14
51717140,-0.95,0.098,0.472,-3.745,8.89,-4.847
51717140,-0.892,0.043,0.41,-9.8,3.867,-10.78
51717160,-0.903,-0.034,0.362,-5.442,-1.925,-5.442
51717160,-0.842,0.025,0.386,2.87,-7.892,1.837
51717170,-0.784,0.071,0.372,6.212,-8.242,5.775
51717180,-0.777,0.077,0.41,10.605,0.91,6.055
51717190,-0.789,0.159,0.443,8.085,11.882,0.805
51717200,-0.809,0.165,0.435,-7,27.195,-9.082
51717210,-0.92,0.009,0.408,-13.737,39.305,-6.947
51717220,-0.988,0.066,0.402,-9.852,40.722,-1.907
51717230,-1.069,0.077,0.395,-6.772,33.39,-3.307
51717240,-1.109,0.033,0.408,-9.555,17.552,-0.49
51717250,-1.009,0.035,0.346,-9.38,2.1,-7.595
51717260,-1.03,-0.046,0.376,1.995,-7.927,-1.557
51717270,-0.966,0.065,0.416,8.837,-18.025,2.24
51717280,-0.912,0.082,0.418,5.652,-21.227,1.802
51717290,-0.878,0.059,0.433,4.165,-17.482,-0.052
51717300,-0.897,0.087,0.423,0.315,-10.92,-0.332
51717310,-0.882,0.054,0.403,-6.037,-3.272,-3.727
51717320,-0.932,0.011,0.404,-2.747,0.525,1.137
51717330,-0.915,0.06,0.403,-4.9,0.682,-0.875
51717340,-1.002,-0.027,0.391,-1.697,-2.187,5.337
51717350,-0.983,0.054,0.441,2.345,-9.8,4.34
51717360,-1.011,0.055,0.428,-1.96,-16.87,1.032
51717370,-0.961,0.001,0.429,-5.215,-25.287,-3.57
51717380,-0.885,0.024,0.407,-6.3,-28.98,-4.025
51717390,-0.866,0.038,0.424,-5.372,-25.375,-3.85
51717400,-0.836,0.04,0.442,-7.857,-17.745,-4.672
51717410,-0.888,0.014,0.438,-10.535,-10.132,-2.555
51717420,-0.96,-0.046,0.405,-8.4,-9.502,3.307
51717430,-0.967,0.009,0.415,-3.15,-14.7,2.765
51717440,-0.978,0.014,0.408,-3.167,-23.992,4.06
51717450,-0.906,0.05,0.426,-2.572,-30.992,2.117
51717460,-0.873,0.066,0.441,-3.027,-31.622,2.24
51717470,-0.871,0.071,0.438,-3.552,-28.612,3.71
51717480,-0.911,0.063,0.447,-3.57,-26.215,5.372
51717490,-0.94,0.059,0.449,-3.167,-28.192,4.235
51717500,-0.85,0.07,0.444,-1.085,-27.702,0.962
51717510,-0.859,0.045,0.453,0.385,-22.557,2.187
51717510,-0.887,0.061,0.452,0.472,-18.707,2.677
51717530,-0.898,0.052,0.467,0.822,-15.137,2.397
51717530,-0.909,0.043,0.486,1.225,-12.145,3.78
51717550,-0.886,0.09,0.501,-1.242,-8.155,0.49
51717550,-0.874,0.065,0.491,-4.235,-3.5,-0.91
51717570,-0.896,-0.003,0.462,-4.655,-0.052,-0.105
51717570,-0.918,0.006,0.481,1.785,-0.262,3.22
51717580,-0.928,0.066,0.496,2.1,-1.382,2.782
51717590,-0.961,0.029,0.482,-0.56,-5.372,0.07
51717600,-0.897,0.018,0.48,-2.135,-10.465,-3.15
51717610,-0.876,0.038,0.497,-2.537,-12.005,-3.517
51717620,-0.971,0.045,0.541,-3.377,-14.595,-4.077
51717630,-0.902,0.067,0.488,-6.317,-25.882,-8.96
51717640,-0.768,0.023,0.412,-6.615,-28.787,-10.325
51717650,-0.661,-0.014,0.386,-1.89,-17.885,-4.147
51717660,-0.833,0.018,0.451,7.21,-0.052,5.337
51717670,-0.998,0.049,0.441,7.98,2.1,11.865
51717680,-0.938,0.062,0.44,6.72,-5.32,8.977
51717690,-0.909,0.043,0.465,6.44,-9.047,7.507
51717700,-0.894,0.066,0.5,6.177,-8.102,6.79
51717710,-0.922,0.069,0.508,3.797,-5.67,5.967
51717720,-0.965,0.053,0.515,1.575,-5.285,2.957
51717730,-0.916,0.059,0.512,-0.647,-8.085,-1.662
51717740,-0.913,0.052,0.516,-2.1,-10.745,-4.655
51717750,-0.819,0.06,0.517,-3.062,-11.567,-6.667
51717760,-0.842,0.048,0.504,-3.185,-5.757,-4.9
51717770,-0.891,0.035,0.526,-2.94,-1.277,-3.657
51717780,-0.871,0.069,0.556,-3.43,1.19,-5.46
51717790,-0.902,0.05,0.539,-5.757,4.427,-7.472
51717800,-0.892,0.081,0.55,-7.98,8.277,-13.23
51717810,-0.912,0.019,0.533,-10.762,10.815,-18.025
51717820,-0.89,0.006,0.507,-9.485,11.165,-18.637
51717830,-0.891,0.041,0.498,-8.225,9.992,-21.647
51717830,-0.865,0.026,0.46,-7.875,10.307,-22.977
51717850,-0.906,0.017,0.456,-6.982,11.585,-20.265
51717850,-0.94,0.027,0.436,-7.192,8.365,-18.987
51717870,-0.892,0.03,0.428,-5.932,5.652,-18.935
51717870,-0.893,0.037,0.421,-5.582,4.375,-18.13
51717890,-0.851,0.025,0.416,-5.792,4.707,-17.78
51717890,-0.843,0.008,0.422,-3.272,6.457,-15.837
51717910,-0.882,-0.013,0.433,-1.505,6.282,-10.64
51717910,-0.889,0.002,0.456,-0.735,4.497,-9.187
51717920,-0.913,-0.029,0.47,-1.872,3.727,-7.7
51717930,-0.895,-0.033,0.468,-1.767,3.115,-6.352
51717940,-0.898,-0.03,0.48,-0.91,4.882,-7.122
51717950,-0.905,-0.043,0.482,-0.962,5.95,-8.12
51717960,-0.894,-0.02,0.469,-1.82,4.55,-8.487
51717970,-0.886,-0.029,0.443,-2.31,1.89,-8.592
51717980,-0.825,-0.033,0.453,-0.437,0.402,-8.452
51717990,-0.811,-0.005,0.449,1.645,-0.35,-4.602
51718000,-0.859,-0.027,0.407,3.745,0.875,0.297
51718010,-0.9,-0.034,0.429,5.092,-2.205,4.672
51718020,-0.935,0.005,0.479,3.412,-7.84,7.857
51718030,-1.028,0.005,0.512,-2.66,-15.505,9.625
51718040,-1.131,-0.023,0.489,-11.48,-29.925,8.067
51718050,-1.047,-0.083,0.44,-17.185,-47.617,5.285
51718060,-0.875,-0.052,0.414,-10.885,-56.822,2.87
51718070,-0.747,0.014,0.394,-0.437,-52.115,6.825
51718080,-0.761,0.051,0.393,2.8,-40.705,11.025
51718090,-0.75,0.033,0.374,3.692,-35.525,15.155
51718100,-0.704,0.023,0.428,6.3,-31.115,20.475
51718110,-0.671,0.036,0.518,8.82,-22.68,26.32
51718120,-0.717,0.007,0.607,10.832,-10.237,29.767
51718130,-0.787,0.006,0.643,11.69,-0.507,29.435
51718140,-0.844,0.011,0.597,11.165,5.32,26.705
51718150,-0.921,0.018,0.526,10.465,9.012,23.275
51718160,-1.024,0.031,0.491,9.642,8.802,21.087
51718170,-1.117,0.042,0.481,6.58,4.112,16.257
51718180,-1.178,0.046,0.469,1.96,-5.39,10.08
51718190,-1.18,0.059,0.482,-3.797,-18.9,3.325
51718200,-1.128,0.087,0.516,-9.59,-31.43,-5.145
51718210,-1.101,0.071,0.52,-16.31,-43.207,-12.39
51718220,-1.002,0.046,0.506,-19.145,-53.585,-16.292
51718230,-0.842,0.056,0.519,-17.377,-58.432,-18.847
51718240,-0.706,0.063,0.535,-15.505,-56.105,-17.29
51718250,-0.631,0.044,0.547,-11.165,-47.425,-13.737
51718260,-0.618,0.012,0.592,-5.337,-36.767,-10.132
51718260,-0.622,0.018,0.624,-5.88,-24.797,-9.607
51718280,-0.695,-0.023,0.602,-10.447,-15.365,-9.152
51718280,-0.756,-0.038,0.6,-5.39,-9.257,-7.98
51718300,-0.789,0.006,0.584,-1.575,-6.947,-6.422
51718300,-0.833,0.026,0.564,-1.715,-4.445,-5.792
51718320,-0.895,0.025,0.539,-2.975,-3.272,-6.527
51718320,-0.945,0.015,0.526,-5.215,-6.475,-7.262
51718330,-0.963,-0.001,0.537,-7.035,-11.462,-9.135
51718340,-0.976,-0.007,0.559,-7.805,-16.537,-10.99
51718350,-0.98,0.001,0.572,-8.4,-23.852,-13.037
51718360,-0.927,0.004,0.575,-9.362,-30.17,-14.595
51718370,-0.909,-0.031,0.564,-6.002,-36.47,-14.017
51718380,-0.818,0.004,0.58,-1.575,-40.932,-14.98
51718390,-0.683,0.002,0.54,-4.987,-41.37,-12.74
51718400,-0.617,-0.02,0.526,-4.217,-35.332,-9.012
51718410,-0.636,-0.035,0.545,-1.96,-27.895,-1.032
51718420,-0.673,-0.047,0.563,1.382,-21.98,6.685
51718430,-0.692,-0.042,0.562,2.555,-17.71,9.047
51718440,-0.746,-0.074,0.526,3.605,-13.51,9.205
51718450,-0.773,-0.049,0.523,7.665,-11.462,11.27
51718460,-0.83,-0.047,0.523,9.187,-11.497,15.12
51718470,-0.839,-0.068,0.521,12.075,-15.05,18.567
51718480,-0.775,-0.054,0.52,15.505,-18.27,22.89
51718490,-0.7,-0.033,0.544,19.232,-19.372,26.67
51718500,-0.641,-0.029,0.563,21.455,-19.25,33.477
51718510,-0.576,-0.014,0.596,24.342,-17.552,43.33
51718520,-0.629,0.007,0.643,26.705,-12.407,51.485
51718530,-0.653,0.036,0.632,27.842,-4.392,55.492
51718540,-0.71,0.09,0.637,29.382,6.002,57.05
51718550,-0.797,0.128,0.636,26.74,15.732,56.28
51718560,-0.822,0.112,0.639,24.255,22.47,53.445
51718570,-0.849,0.14,0.678,24.78,30.205,51.135
51718580,-0.943,0.204,0.723,21.927,36.015,44.765
51718580,-0.847,0.199,0.675,13.055,37.415,29.837
51718600,-0.616,0.085,0.797,6.37,54.215,25.392
51718600,-0.871,0.133,0.767,10.692,75.81,29.102
51718620,-0.913,0.216,0.728,6.842,83.317,24.902
51718620,-0.894,0.182,0.5,-11.147,81.462,22.207
51718640,-0.666,-0.025,0.508,-8.785,82.915,19.495
51718640,-0.671,-0.051,0.54,19.757,96.88,21.28
51718660,-0.844,0.092,0.56,34.947,108.675,32.06
51718660,-0.909,0.139,0.603,43.855,115.797,29.907
51718670,-0.984,0.168,0.639,50.802,111.195,21.262
51718680,-1.075,0.174,0.636,47.127,95.777,14.227
51718690,-1.079,0.165,0.561,43.54,72.012,4.305
51718700,-0.981,0.162,0.457,43.557,51.1,-6.457
51718710,-0.904,0.143,0.386,45.395,42.297,-15.452
51718720,-0.984,0.113,0.353,50.47,33.862,-20.685
51718730,-1.139,0.139,0.354,55.895,15.417,-24.955
51718740,-1.284,0.176,0.371,59.027,-15.767,-29.242
51718750,-1.331,0.224,0.396,60.165,-58.835,-39.637
51718760,-1.309,0.205,0.382,60.252,-106.837,-48.125
51718770,-1.205,0.214,0.389,59.15,-150.482,-63.63
51718780,-1.079,0.263,0.383,47.95,-185.272,-81.497
51718790,-0.943,0.252,0.402,35,-209.265,-95.462
51718800,-0.866,0.202,0.321,16.327,-222.53,-104.51
51718810,-0.664,0.4,0.571,-1.19,-218.645,-104.667
51718820,-0.747,0.129,0.26,-30.502,-210.945,-77.962
51718830,-0.599,0.229,0.518,-16.922,-189.332,-72.065
51718840,-0.623,0.171,0.429,-39.987,-168.892,-72.31
51718850,-0.626,0.058,0.474,-35.77,-146.177,-80.027
51718860,-0.615,0.051,0.53,-30.677,-124.512,-81.042
51718870,-0.638,0.003,0.523,-24.78,-105.805,-80.64
51718880,-0.661,0.016,0.62,-4.2,-91.332,-81.567
51718890,-0.675,0.108,0.685,-3.727,-81.305,-80.5
51718900,-0.693,0.053,0.689,-10.412,-74.97,-79.275
51718910,-0.715,0.003,0.65,-10.395,-71.627,-75.11
51718920,-0.793,-0.033,0.731,-5.985,-74.427,-65.292
51718930,-0.791,0.027,0.746,-11.252,-82.005,-65.852
51718940,-0.781,-0.006,0.714,-16.817,-92.295,-67.462
51718950,-0.708,-0.044,0.686,-18.007,-100.03,-68.582
51718960,-0.621,-0.029,0.686,-18.392,-102.637,-66.482
51718970,-0.592,-0.041,0.72,-19.81,-98.087,-64.715
51718980,-0.556,-0.049,0.711,-23.607,-89.53,-64.61
51718990,-0.525,-0.081,0.726,-25.41,-80.692,-61.547
51719000,-0.511,-0.112,0.737,-26.792,-75.25,-56.192
51719010,-0.531,-0.126,0.774,-25.392,-72.782,-49.28
51719010,-0.545,-0.109,0.802,-25.462,-72.992,-38.832
51719030,-0.527,-0.094,0.83,-30.695,-72.8,-31.36
51719030,-0.537,-0.141,0.878,-34.632,-71.505,-23.537
51719050,-0.543,-0.142,0.902,-41.352,-71.032,-17.027
51719050,-0.512,-0.159,0.902,-49.63,-69.877,-13.212
51719070,-0.502,-0.229,0.873,-53.847,-65.835,-8.47
51719070,-0.522,-0.302,0.836,-50.68,-62.265,-3.622
51719080,-0.568,-0.31,0.809,-42.332,-63.595,7.087
51719090,-0.433,-0.288,0.815,-37.485,-62.667,1.207
51719100,-0.277,-0.377,0.816,-24.027,-46.305,7.35
51719110,-0.272,-0.421,0.849,-1.47,-17.902,21.892
51719120,-0.357,-0.326,0.924,22.785,8.365,31.99
51719130,-0.531,-0.227,0.976,31.885,19.88,33.232
51719140,-0.542,-0.234,0.94,29.907,17.85,25.707
51719150,-0.553,-0.196,0.92,33.005,13.772,28.997
51719160,-0.583,-0.158,0.864,31.377,4.97,31.955
51719170,-0.455,-0.109,0.866,24.062,-1.172,25.707
51719180,-0.409,-0.127,0.882,12.267,0.227,25.41
51719190,-0.443,-0.15,0.879,0.087,6.282,30.187
51719200,-0.523,-0.195,0.865,-6.125,10.36,31.412
51719210,-0.57,-0.192,0.884,-4.165,7.49,29.697
51719220,-0.604,-0.197,0.888,-3.5,0.7,31.01
51719230,-0.589,-0.235,0.893,-1.015,-10.307,36.575
51719240,-0.593,-0.274,0.873,10.027,-24.482,47.425
51719250,-0.556,-0.268,0.875,25.497,-44.992,56.787
51719260,-0.227,-0.173,0.832,40.022,-56.017,72.695
51719270,-0.225,-0.12,0.828,43.995,-30.1,89.39
51719280,-0.236,-0.077,0.861,37.765,14.297,76.737
51719290,-0.195,-0.095,0.841,29.067,59.027,63.262
51719300,-0.228,-0.081,0.865,25.497,103.775,59.64
51719310,-0.333,-0.008,0.907,21.927,143.412,55.055
51719320,-0.515,-0.027,0.893,11.427,165.882,50.767
51719330,-0.611,-0.089,0.846,6.352,168.157,51.59
51719330,-0.619,-0.089,0.832,11.375,160.44,60.55
51719350,-0.675,-0.058,0.818,19.407,150.465,72.31
51719350,-0.707,-0.052,0.761,21.962,141.505,80.29
51719370,-0.73,-0.061,0.736,24.745,139.317,84.035
51719370,-0.78,-0.032,0.738,28.77,138.845,82.372
51719390,-0.803,0.034,0.721,29.872,138.46,77.122
51719390,-0.836,0.066,0.709,25.865,137.392,69.86
51719410,-0.882,0.086,0.722,19.635,133.56,60.147
51719410,-0.85,0.134,0.722,12.25,125.177,50.61
51719420,-0.848,0.16,0.682,3.132,116.427,45.85
51719430,-0.888,0.166,0.628,-8.172,107.52,40.722
51719440,-0.862,0.166,0.574,-21.612,99.277,33.04
51719450,-0.833,0.131,0.53,-34.527,90.755,27.86
51719460,-0.83,0.088,0.472,-41.65,82.407,27.072
51719470,-0.83,0.091,0.491,-40.32,74.06,28.735
51719480,-0.854,0.097,0.498,-39.497,65.415,30.31
51719490,-0.778,0.142,0.51,-39.602,59.657,28.857
51719500,-0.813,0.131,0.522,-42.857,58.782,25.112
51719510,-0.881,0.1,0.526,-47.862,52.01,20.702
51719520,-0.867,0.096,0.526,-46.62,40.53,19.95
51719530,-0.821,0.13,0.532,-42.84,29.75,20.527
51719540,-0.827,0.147,0.527,-45.01,22.557,18.602
51719550,-0.836,0.128,0.514,-49.752,16.082,13.072
51719560,-0.832,0.114,0.539,-52.465,8.96,7.892
51719570,-0.844,0.114,0.553,-54.302,-2.012,6.107
51719580,-0.863,0.106,0.527,-54.705,-13.527,6.685
51719590,-0.868,0.092,0.526,-50.837,-25.007,5.127
51719600,-0.818,0.095,0.553,-43.12,-32.847,1.33
51719610,-0.778,0.093,0.57,-36.907,-39.515,-0.577
51719620,-0.756,0.082,0.565,-33.6,-42.805,-1.032
51719630,-0.751,0.073,0.566,-29.557,-41.107,-3.745
51719640,-0.768,0.066,0.577,-26.057,-37.835,-9.52
51719650,-0.751,0.056,0.572,-23.677,-35.35,-15.557
51719660,-0.714,0.048,0.583,-20.772,-31.202,-19.407
51719670,-0.743,0.039,0.603,-18.34,-25.252,-21.21
51719680,-0.801,0.037,0.614,-17.71,-22.242,-23.852
51719690,-0.845,0.034,0.605,-18.217,-25.252,-26.582
51719700,-0.87,0.018,0.595,-18.13,-33.057,-28.297
51719710,-0.863,-0.001,0.583,-15.89,-42.122,-28.962
51719720,-0.844,-0.011,0.581,-12.67,-51.117,-29.207
51719730,-0.804,-0.005,0.59,-10.587,-58.152,-29.085
51719740,-0.736,0.009,0.624,-10.272,-58.047,-26.95
51719750,-0.69,0.008,0.622,-12.845,-51.835,-25.427
51719760,-0.638,0.003,0.618,-17.535,-38.815,-24.185
51719760,-0.669,-0.016,0.624,-23.24,-21.122,-21.77
51719780,-0.756,-0.035,0.649,-28.612,-6.492,-21.28
51719780,-0.841,-0.054,0.664,-34.125,-1.837,-20.825
51719800,-0.875,-0.077,0.668,-36.225,-5.18,-19.687
51719800,-0.897,-0.089,0.676,-35.49,-11.742,-20.352
51719820,-0.877,-0.081,0.697,-35.052,-18.69,-25.392
51719820,-0.835,-0.077,0.704,-36.592,-22.732,-32.97
51719830,-0.787,-0.083,0.678,-39.672,-23.432,-41.142
51719840,-0.595,-0.161,0.638,-40.407,-19.547,-45.657
51719850,-0.448,-0.183,0.704,-30.555,11.76,-37.467
51719860,-0.86,-0.175,0.712,-20.492,30.625,-21.245
51719870,-1.017,-0.144,0.701,-20.93,18.165,-13.055
51719880,-0.849,-0.137,0.653,-21.42,0,-8.785
51719890,-0.741,-0.143,0.618,-18.427,-9.607,-7.98
51719900,-0.706,-0.116,0.634,-15.015,-6.807,-10.587
51719910,-0.757,-0.101,0.635,-17.605,-1.627,-13.825
51719920,-0.801,-0.107,0.636,-22.312,0.7,-19.075
51719930,-0.798,-0.128,0.638,-26.145,-1.225,-22.505
51719940,-0.778,-0.152,0.63,-28.192,-2.66,-22.277
51719950,-0.765,-0.168,0.652,-28.735,0.07,-20.527
51719960,-0.816,-0.171,0.661,-28.56,2.782,-19.582
51719970,-0.861,-0.166,0.651,-29.4,0.052,-20.492
51719980,-0.839,-0.21,0.637,-31.675,-4.952,-20.597
51719990,-0.818,-0.231,0.618,-29.347,-8.19,-21.035
51720000,-0.824,-0.233,0.635,-22.487,-13.072,-21.332
51720010,-0.797,-0.205,0.65,-18.252,-18.532,-20.545
51720020,-0.757,-0.178,0.651,-18.445,-21.087,-19.057
51720030,-0.765,-0.191,0.642,-21.84,-20.527,-18.287
51720040,-0.788,-0.221,0.641,-24.412,-20.16,-19.565
51720050,-0.79,-0.23,0.636,-24.57,-23.555,-20.422
51720060,-0.756,-0.221,0.631,-21.875,-27.842,-19.127
51720070,-0.726,-0.22,0.64,-18.865,-28.437,-16.817
51720080,-0.74,-0.223,0.641,-18.252,-27.685,-16.905
51720080,-0.748,-0.225,0.65,-19.18,-27.265,-20.44
51720100,-0.724,-0.224,0.653,-20.142,-26.932,-25.235
51720100,-0.707,-0.224,0.646,-20.09,-24.762,-28.927
51720120,-0.702,-0.218,0.648,-19.46,-21.595,-31.885
51720120,-0.688,-0.209,0.661,-19.215,-18.637,-33.285
51720140,-0.672,-0.191,0.657,-21.595,-16.59,-33.547
51720140,-0.643,-0.197,0.647,-24.062,-13.737,-32.392
51720160,-0.652,-0.221,0.62,-25.672,-9.432,-28.91
51720160,-0.686,-0.24,0.609,-25.235,-6.597,-25.882
51720170,-0.69,-0.244,0.608,-23.537,-6.195,-23.555
51720180,-0.702,-0.254,0.608,-21.49,-6.895,-19.267
51720190,-0.733,-0.276,0.611,-20.265,-8.522,-14.385
51720200,-0.754,-0.297,0.618,-18.13,-10.867,-11.112
51720210,-0.778,-0.331,0.628,-15.732,-13.965,-7.332
51720220,-0.808,-0.359,0.631,-11.865,-17.5,-3.465
51720230,-0.82,-0.351,0.637,-6.195,-23.992,-2.17
51720240,-0.75,-0.307,0.635,-1.33,-28.315,-2.642
51720250,-0.707,-0.299,0.662,0,-27.615,-4.462
51720260,-0.714,-0.302,0.653,-2.642,-25.375,-7.192
51720270,-0.681,-0.287,0.649,-3.885,-24.377,-10.027
51720280,-0.646,-0.286,0.648,-4.112,-22.995,-10.167
51720290,-0.644,-0.28,0.635,-3.36,-22.172,-8.015
51720300,-0.627,-0.261,0.643,-2.135,-20.72,-5.635
51720310,-0.589,-0.247,0.643,-2.1,-18.707,-4.27
51720320,-0.56,-0.244,0.647,-2.187,-14.315,-3.955
51720330,-0.549,-0.241,0.67,-2.695,-8.767,-4.55
51720340,-0.573,-0.241,0.683,-4.97,-3.727,-5.197
51720350,-0.591,-0.259,0.687,-7.437,0.35,-5.862
51720360,-0.623,-0.285,0.71,-8.4,3.22,-6.93
51720370,-0.646,-0.302,0.717,-8.312,3.657,-7.367
51720380,-0.666,-0.308,0.731,-7.472,3.325,-7.735
51720390,-0.698,-0.317,0.733,-7.647,2.275,-7.98
51720400,-0.738,-0.334,0.729,-8.172,0.682,-8.767
51720410,-0.773,-0.342,0.723,-7.98,-3.675,-10.867
51720420,-0.77,-0.349,0.709,-6.842,-9.065,-11.83
51720430,-0.765,-0.352,0.701,-4.847,-14.07,-11.62
51720440,-0.74,-0.35,0.668,-3.902,-19.075,-10.762
51720450,-0.687,-0.333,0.652,-2.642,-21.192,-9.047
51720460,-0.699,-0.334,0.628,-2.485,-20.72,-5.582
51720470,-0.708,-0.345,0.64,-2.922,-20.352,-3.185
51720480,-0.658,-0.341,0.633,-1.942,-20.842,-3.01
51720490,-0.635,-0.337,0.647,-0.437,-18.847,-1.942
51720500,-0.662,-0.347,0.658,0.402,-17.045,-0.77
51720500,-0.628,-0.352,0.639,1.627,-17.71,0.455
51720510,-0.606,-0.346,0.643,6.02,-16.485,3.762
51720520,-0.612,-0.32,0.663,9.52,-14.017,5.547
51720530,-0.585,-0.28,0.67,9.817,-11.865,3.955
51720540,-0.568,-0.273,0.706,6.685,-8.032,1.697
51720550,-0.625,-0.305,0.717,2.922,-5.425,0.385
51720560,-0.646,-0.314,0.718,2.695,-4.707,-0.402
51720570,-0.641,-0.299,0.724,4.305,-5.81,-1.19
51720580,-0.637,-0.292,0.717,3.535,-6.3,-1.295
51720590,-0.645,-0.294,0.695,1.732,-6.632,-1.96
51720600,-0.633,-0.295,0.676,1.942,-6.79,-2.45
51720610,-0.637,-0.288,0.669,3.535,-6.002,-1.067
51720620,-0.674,-0.28,0.689,2.835,-4.532,-0.14
51720630,-0.669,-0.286,0.703,0.437,-5.075,-1.137
51720640,-0.662,-0.308,0.703,-1.155,-5.932,-0.455
51720650,-0.663,-0.318,0.717,-0.98,-6.965,0.997
51720660,-0.67,-0.318,0.729,-0.385,-7.402,1.312
51720670,-0.682,-0.315,0.741,-0.997,-8.732,-0.7
51720680,-0.68,-0.325,0.733,-1.767,-10.097,-3.692
51720690,-0.676,-0.319,0.724,-0.962,-12.67,-6.685
51720700,-0.65,-0.305,0.73,0.21,-15.557,-7.367
51720710,-0.615,-0.297,0.716,-0.105,-16.082,-6.125
51720720,-0.623,-0.303,0.702,-1.715,-13.807,-4.847
51720730,-0.629,-0.307,0.693,-2.8,-12.81,-5.372
51720740,-0.604,-0.305,0.693,-2.52,-12.197,-5.722
51720750,-0.607,-0.312,0.703,-2.345,-10.885,-4.952
51720760,-0.628,-0.322,0.713,-3.36,-9.257,-4.602
51720770,-0.628,-0.337,0.713,-3.745,-9.24,-4.077
51720780,-0.622,-0.345,0.704,-2.572,-8.767,-3.622
51720790,-0.637,-0.34,0.706,-0.14,-8.452,-3.167
51720800,-0.641,-0.322,0.7,1.207,-9.24,-3.412
51720810,-0.633,-0.308,0.664,1.382,-10.832,-3.57
51720820,-0.594,-0.32,0.681,1.995,-8.995,-3.5
51720830,-0.658,-0.34,0.695,2.082,-8.837,-2.625
51720830,-0.625,-0.333,0.696,4.042,-11.025,-1.26
51720850,-0.584,-0.319,0.719,6.457,-10.692,0
51720850,-0.585,-0.32,0.724,5.547,-8.715,1.89
51720870,-0.587,-0.318,0.708,4.147,-6.755,2.415
51720870,-0.555,-0.321,0.742,4.707,-4.182,1.802
51720890,-0.583,-0.34,0.707,4.865,0.14,2.852
51720890,-0.579,-0.332,0.737,5.635,1.522,2.887
51720910,-0.556,-0.324,0.727,6.667,4.847,1.995
51720910,-0.56,-0.319,0.698,6.265,8.015,2.292
51720920,-0.514,-0.299,0.686,7.612,14.752,3.412
51720930,-0.536,-0.287,0.691,8.295,22.732,5.092
51720940,-0.548,-0.284,0.674,5.95,30.152,5.88
51720950,-0.568,-0.29,0.666,5.827,35.262,6.492
51720960,-0.594,-0.293,0.665,6.387,39.357,6.072
51720970,-0.641,-0.3,0.68,6.667,40.897,3.92
51720980,-0.722,-0.308,0.697,5.127,37.782,2.24
51720990,-0.759,-0.335,0.733,3.57,31.797,-0.402
51721000,-0.724,-0.328,0.743,5.18,26.267,-3.01
51721010,-0.708,-0.291,0.752,6.387,22.207,2.905
51721020,-0.787,-0.317,0.708,5.67,18.147,9.17
51721030,-0.739,-0.298,0.717,9.625,15.295,0.49
51721040,-0.694,-0.272,0.719,7.682,15.085,-1.662
51721050,-0.682,-0.268,0.698,4.567,17.307,-2.695
51721060,-0.71,-0.261,0.682,4.182,19.092,-4.322
51721070,-0.712,-0.253,0.683,3.552,17.027,-4.445
51721080,-0.682,-0.255,0.674,2.432,15.872,-4.182
51721090,-0.705,-0.282,0.687,0.962,17.062,-3.92
51721100,-0.727,-0.296,0.69,0.577,18.392,-6.685
51721110,-0.72,-0.28,0.703,1.277,18.41,-10.85
51721120,-0.732,-0.287,0.716,-1.452,19.705,-13.282
51721130,-0.817,-0.338,0.715,-5.95,18.445,-15.417
51721140,-0.842,-0.365,0.695,-6.842,12.302,-18.042
51721150,-0.847,-0.358,0.691,-4.182,2.905,-19.075
51721160,-0.818,-0.331,0.68,-1.942,-7.14,-18.637
51721170,-0.799,-0.317,0.664,-1.295,-15.89,-17.15
51721170,-0.772,-0.314,0.639,-1.89,-22.155,-17.045
51721190,-0.799,-0.317,0.638,-0.42,-29.767,-18.585
51721190,-0.667,-0.274,0.659,3.307,-36.75,-19.792
51721210,-0.673,-0.299,0.658,2.397,-36.907,-15.067
51721210,-0.719,-0.35,0.651,-1.015,-35.21,-12.582
51721230,-0.716,-0.36,0.669,0.752,-36.172,-15.435
51721230,-0.664,-0.335,0.702,4.952,-38.78,-18.2
51721250,-0.603,-0.293,0.726,7.682,-40.04,-17.325
51721250,-0.59,-0.293,0.714,5.617,-39.287,-13.702
51721260,-0.593,-0.315,0.673,2.765,-36.715,-12.67
51721270,-0.559,-0.309,0.66,3.78,-34.93,-12.95
51721280,-0.512,-0.291,0.676,4.27,-31.43,-11.322
51721290,-0.499,-0.288,0.7,2.24,-26.337,-8.767
51721300,-0.465,-0.289,0.714,-3.202,-19.477,-5.617
51721310,-0.477,-0.323,0.723,-8.487,-11.83,-1.592
51721320,-0.496,-0.347,0.705,-10.867,-5.512,2.222
51721330,-0.497,-0.351,0.696,-10.43,-0.175,5.495
51721340,-0.487,-0.344,0.692,-9.66,5.005,8.452
51721350,-0.472,-0.306,0.603,-9.432,11.655,10.832
51721360,-0.602,-0.355,0.666,-10.71,21.735,13.212
51721370,-0.68,-0.417,0.677,-10.832,20.685,7.997
51721380,-0.639,-0.396,0.671,-2.327,12.6,6.615
51721390,-0.645,-0.359,0.709,6.492,6.58,8.802
51721400,-0.652,-0.334,0.719,6.877,5.005,7.77
51721410,-0.665,-0.344,0.702,3.325,4.9,5.81
51721420,-0.662,-0.343,0.69,2.66,5.565,4.515
51721430,-0.675,-0.322,0.688,4.532,5.635,4.532
51721440,-0.704,-0.31,0.689,3.692,4.812,4.27
51721450,-0.709,-0.312,0.686,2.45,2.205,3.08
51721460,-0.687,-0.313,0.671,1.4,0.647,2.397
51721470,-0.699,-0.329,0.672,2.275,-0.21,2.677
51721480,-0.675,-0.305,0.691,4.427,-2.397,2.87
51721490,-0.638,-0.291,0.694,5.232,-4.235,5.075
51721500,-0.637,-0.306,0.702,4.637,-3.622,5.757
51721510,-0.633,-0.321,0.706,4.252,-2.887,4.462
51721520,-0.626,-0.315,0.726,3.552,-1.977,2.765
51721530,-0.641,-0.321,0.726,3.08,-1.032,2.24
51721540,-0.661,-0.329,0.731,2.887,-0.437,1.697
51721550,-0.667,-0.332,0.727,2.362,-0.857,0.647
51721560,-0.685,-0.343,0.716,2.432,-2.485,0.14
51721570,-0.698,-0.35,0.695,3.395,-5.337,-0.122
51721580,-0.669,-0.334,0.687,5.67,-8.33,-0.07
51721580,-0.643,-0.321,0.677,7.105,-8.767,0.962
51721600,-0.669,-0.324,0.665,6.947,-9.537,2.922
51721600,-0.655,-0.318,0.654,7.717,-12.74,4.9
51721620,-0.593,-0.317,0.656,10.465,-13.492,7.052
51721620,-0.602,-0.316,0.687,11.83,-10.692,9.187
51721640,-0.679,-0.343,0.755,11.48,-9.555,9.555
51721640,-0.59,-0.302,0.73,12.652,-11.532,6.055
51721660,-0.505,-0.255,0.737,14.665,-6.072,5.162
51721660,-0.579,-0.262,0.736,8.925,3.745,5.67
51721670,-0.613,-0.252,0.704,4.077,10.185,3.465
51721680,-0.623,-0.251,0.688,0.665,14.245,1.942
51721690,-0.634,-0.273,0.677,-1.767,16.975,2.152
51721700,-0.77,-0.305,0.694,-0.962,14.07,4.025
51721710,-0.722,-0.297,0.691,2.94,6.212,2.922
51721720,-0.725,-0.319,0.704,5.127,0.717,3.815
51721730,-0.728,-0.33,0.711,5.197,-3.062,5.092
51721740,-0.726,-0.319,0.725,6.51,-5.337,4.025
51721750,-0.696,-0.301,0.734,7.787,-7.84,1.837
51721760,-0.653,-0.277,0.747,8.207,-7.7,0.752
51721770,-0.642,-0.264,0.762,5.547,-5.705,-0.21
51721780,-0.638,-0.268,0.765,1.96,-2.397,-2.17
51721790,-0.629,-0.263,0.756,-0.595,-0.315,-4.462
51721800,-0.625,-0.252,0.76,-2.572,1.977,-5.215
51721810,-0.628,-0.246,0.737,-6.09,4.777,-6.86
51721820,-0.641,-0.269,0.712,-9.257,8.102,-10.412
51721830,-0.674,-0.284,0.693,-10.832,8.05,-13.58
51721840,-0.684,-0.28,0.688,-10.867,6.79,-13.965
51721850,-0.749,-0.273,0.695,-12.617,3.832,-12.967
51721860,-0.71,-0.259,0.71,-17.535,1.102,-14.402
51721870,-0.75,-0.309,0.75,-24.29,-0.402,-16.537
51721880,-0.827,-0.35,0.76,-27.3,-8.662,-15.995
51721890,-0.776,-0.323,0.758,-23.012,-21.14,-14.98
51721900,-0.728,-0.31,0.721,-20.23,-31.797,-13.422
51721910,-0.691,-0.337,0.728,-20.02,-36.54,-13.23
51721920,-0.681,-0.342,0.738,-17.815,-38.027,-15.33
51721920,-0.656,-0.329,0.753,-13.947,-37.397,-17.5
51721940,-0.652,-0.319,0.745,-15.102,-35.56,-19.67
51721940,-0.669,-0.326,0.73,-17.832,-35.42,-21.175
51721960,-0.642,-0.327,0.719,-19.267,-37.205,-22.575
51721960,-0.639,-0.339,0.722,-19.967,-38.29,-22.662
51721980,-0.667,-0.366,0.714,-21.98,-40.862,-23.257
51721980,-0.682,-0.397,0.693,-21.84,-45.377,-23.975
51722000,-0.685,-0.403,0.686,-19.197,-51.817,-23.957
51722000,-0.696,-0.396,0.689,-16.765,-58.782,-23.835
51722010,-0.647,-0.402,0.675,-15.907,-66.325,-23.222
51722020,-0.551,-0.393,0.685,-13.247,-68.652,-23.1
51722030,-0.486,-0.365,0.7,-11.637,-68.197,-20.125
51722040,-0.442,-0.353,0.699,-11.707,-65.485,-15.277
51722050,-0.38,-0.353,0.687,-12.39,-62.142,-11.095
51722060,-0.329,-0.379,0.658,-10.78,-57.207,-4.55
51722070,-0.3,-0.391,0.653,-4.2,-50.627,2.817
51722080,-0.322,-0.37,0.731,-1.557,-43.627,10.08
51722090,-0.272,-0.383,0.752,-5.932,-37.712,13.562
51722100,-0.241,-0.421,0.738,-7.227,-27.65,16.415
51722110,-0.311,-0.46,0.693,-4.882,-17.517,19.39
51722120,-0.355,-0.442,0.712,2.642,-12.53,19.95
51722130,-0.312,-0.416,0.714,10.115,-10.727,23.52
51722140,-0.316,-0.403,0.741,12.25,-1.12,25.882
51722150,-0.363,-0.399,0.77,9.782,12.442,23.432
51722160,-0.428,-0.369,0.779,6.527,22.522,19.95
51722170,-0.506,-0.374,0.765,4.147,26.302,20.37
51722180,-0.532,-0.41,0.761,6.002,29.61,19.845
51722190,-0.597,-0.425,0.779,10.342,32.882,16.082
51722200,-0.651,-0.381,0.789,14.157,33.425,10.027
51722210,-0.634,-0.338,0.796,15.067,32.077,3.535
51722220,-0.606,-0.322,0.729,11.41,34.422,3.937
51722230,-0.693,-0.365,0.701,8.032,36.435,7.892
51722240,-0.665,-0.319,0.737,10.727,32.41,6.212
51722250,-0.617,-0.317,0.769,10.85,29.837,7.227
51722260,-0.634,-0.37,0.766,6.265,30.345,6.317
51722270,-0.628,-0.383,0.735,5.652,26.95,6.055
51722280,-0.64,-0.357,0.738,9.852,21.315,7.91
51722290,-0.65,-0.345,0.748,11.602,15.977,7.735
51722300,-0.638,-0.357,0.748,10.99,11.357,6.3
51722310,-0.627,-0.363,0.755,10.99,8.33,4.585
51722320,-0.616,-0.348,0.761,10.797,5.39,3.797
51722330,-0.597,-0.339,0.751,10.01,3.342,4.655
51722330,-0.577,-0.33,0.735,9.38,2.537,5.565
51722350,-0.587,-0.338,0.737,7.525,2.345,6.212
51722350,-0.607,-0.36,0.737,6.387,0.752,6.282
51722370,-0.63,-0.372,0.733,8.557,-1.365,6.317
51722370,-0.641,-0.363,0.754,12.232,-3.972,6.247
51722390,-0.655,-0.371,0.788,14.035,-5.302,6.317
51722390,-0.689,-0.415,0.798,14.332,-7.682,5.915
51722410,-0.635,-0.406,0.775,18.147,-10.832,4.147
51722410,-0.558,-0.368,0.725,25.007,-11.235,3.762
51722420,-0.526,-0.33,0.659,30.537,-8.067,3.815
51722430,-0.454,-0.255,0.56,35.647,-5.915,3.045
51722440,-0.361,-0.172,0.55,39.077,-0.14,3.255
51722450,-0.293,-0.121,0.585,35.542,16.1,3.377
51722460,-0.377,-0.153,0.674,25.375,37.677,7.07
51722470,-0.517,-0.217,0.774,14.122,53.532,12.302
51722480,-0.64,-0.301,0.855,7.472,61.11,15.942
51722490,-0.744,-0.365,0.952,2.957,59.85,14.315
51722500,-0.746,-0.365,0.971,0.77,49.665,10.587
51722510,-0.7,-0.342,0.942,2.275,40.005,11.497
51722520,-0.638,-0.31,0.865,4.252,35.525,10.955
51722530,-0.545,-0.231,0.818,4.9,37.905,9.31
51722540,-0.518,-0.185,0.762,-1.855,49.84,5.775
51722550,-0.592,-0.23,0.692,-13.107,60.007,1.365
51722560,-0.649,-0.285,0.649,-18.637,62.125,-1.522
51722570,-0.697,-0.286,0.633,-14.77,55.965,-0.21
51722580,-0.729,-0.279,0.614,-10.22,47.722,4.777
51722590,-0.762,-0.297,0.633,-5.267,39.935,8.855
51722600,-0.782,-0.312,0.646,-0.717,32.025,10.045
51722610,-0.785,-0.315,0.676,3.5,23.607,8.487
51722620,-0.752,-0.302,0.68,6.09,16.712,7.367
51722630,-0.699,-0.288,0.705,8.627,12.827,7.507
51722640,-0.699,-0.278,0.701,7.262,12.53,8.365
51722650,-0.679,-0.262,0.669,2.747,13.247,9.222
51722660,-0.698,-0.242,0.662,-1.085,13.352,10.78
51722670,-0.833,-0.269,0.648,-5.827,4.217,10.43
51722670,-0.67,-0.285,0.625,-5.985,-5.302,5.757
51722690,-0.573,-0.264,0.648,-0.122,-2.642,6.597
51722690,-0.717,-0.246,0.679,1.067,4.812,9.835
51722710,-0.794,-0.236,0.707,-4.322,7.332,7.192
51722710,-0.78,-0.261,0.687,-9.817,4.935,3.885
51722730,-0.768,-0.29,0.671,-12.32,4.007,3.885
51722730,-0.808,-0.298,0.644,-12.565,1.05,5.617
51722750,-0.832,-0.292,0.634,-11.252,-5.355,5.687
51722750,-0.821,-0.283,0.652,-7.595,-12.145,3.972
51722760,-0.822,-0.293,0.675,-4.392,-18.76,2.45
51722770,-0.808,-0.292,0.705,-3.342,-24.57,-0.56
51722780,-0.78,-0.288,0.709,-3.867,-28.105,-4.305
51722790,-0.777,-0.294,0.709,-3.955,-32.112,-5.792
51722800,-0.805,-0.291,0.711,-3.815,-37.852,-5.425
51722810,-0.807,-0.292,0.697,-4.445,-46.707,-6.282
51722820,-0.719,-0.292,0.695,-3.202,-52.307,-9.397
51722830,-0.658,-0.293,0.701,-1.067,-53.445,-11.06
51722840,-0.635,-0.268,0.684,-1.032,-52.062,-9.66
51722850,-0.613,-0.25,0.674,-2.502,-48.457,-7.892
51722860,-0.58,-0.24,0.659,-5.722,-41.755,-6.282
51722870,-0.587,-0.248,0.623,-10.342,-34.317,-3.727
51722880,-0.57,-0.244,0.624,-13.16,-25.445,-1.575
51722890,-0.553,-0.241,0.628,-14.927,-16.852,1.242
51722900,-0.565,-0.24,0.626,-17.692,-8.61,5.022
51722910,-0.571,-0.236,0.634,-21.367,-0.157,7.84
51722920,-0.605,-0.25,0.617,-25.375,8.61,8.837
51722930,-0.664,-0.273,0.65,-28.612,15.417,8.12
51722940,-0.724,-0.424,0.648,-32.112,15.242,6.632
51722950,-0.769,-0.467,0.654,-17.115,10.395,2.747
51722960,-0.772,-0.383,0.7,2.537,-2.642,1.995
51722970,-0.707,-0.336,0.715,11.2,-12.162,1.732
51722980,-0.645,-0.317,0.732,12.88,-14.997,-5.862
51722990,-0.626,-0.329,0.717,10.307,-14.665,-10.57
51723000,-0.606,-0.333,0.706,11.672,-12.775,-11.672
51723010,-0.612,-0.323,0.71,14.962,-12.477,-8.4
51723020,-0.58,-0.292,0.724,15.715,-13.055,-7.035
51723030,-0.544,-0.277,0.713,13.107,-9.887,-7.017
51723040,-0.561,-0.288,0.699,10.692,-3.902,-6.282
51723050,-0.606,-0.296,0.697,9.205,-0.612,-5.232
51723060,-0.626,-0.3,0.7,8.365,-0.542,-3.867
51723070,-0.645,-0.303,0.706,7.437,-1.75,-2.66
51723080,-0.64,-0.294,0.715,6.265,-3.447,-1.942
51723080,-0.65,-0.293,0.727,4.9,-4.217,0.052
51723100,-0.691,-0.311,0.72,3.465,-5.232,2.625
51723100,-0.723,-0.324,0.72,3.727,-8.312,3.027
51723120,-0.72,-0.321,0.733,5.25,-13.982,1.627
51723120,-0.693,-0.303,0.74,7.752,-18.97,0.385
51723140,-0.661,-0.279,0.732,8.347,-22.19,0.017
51723140,-0.624,-0.278,0.717,6.405,-20.667,-0.945
51723160,-0.616,-0.286,0.712,4.725,-16.607,-2.31
51723160,-0.615,-0.279,0.714,3.745,-13.79,-1.942
51723170,-0.591,-0.268,0.716,3.342,-12.075,-0.77
51723180,-0.594,-0.263,0.727,1.627,-9.52,0.21
51723190,-0.595,-0.278,0.73,-1.715,-7.192,0.927
51723200,-0.599,-0.298,0.71,-4.602,-3.5,0.805
51723210,-0.611,-0.29,0.679,-3.99,-0.017,0.42
51723220,-0.749,-0.165,0.591,-3.08,-0.262,0.192
51723230,-0.558,-0.268,0.748,-12.67,-7.052,-5.18
51723240,-0.477,-0.443,0.73,-17.552,15.68,-8.837
51723250,-0.974,-0.45,0.78,-11.707,12.057,-6.37
51723260,-0.927,-0.358,0.794,-6.282,-11.812,-6.107
51723270,-0.726,-0.318,0.839,2.485,-29.925,-8.89
51723280,-0.826,-0.339,0.787,-1.12,-37.03,-5.775
51723290,-0.792,-0.289,0.799,-4.025,-43.33,-15.802
51723300,-0.678,-0.258,0.783,-4.777,-49.472,-23.537
51723310,-0.652,-0.255,0.764,-5.232,-52.885,-22.032
51723320,-0.644,-0.225,0.749,-6.51,-56.14,-19.88
51723330,-0.554,-0.199,0.764,-7.192,-57.715,-19.932
51723340,-0.407,-0.176,0.812,-9.047,-51.52,-20.3
51723350,-0.364,-0.192,0.869,-14.805,-39.147,-19.53
51723360,-0.391,-0.237,0.898,-24.815,-26.145,-20.737
51723370,-0.39,-0.282,0.864,-33.057,-16.712,-24.202
51723380,-0.414,-0.318,0.817,-37.31,-10.57,-24.587
51723390,-0.469,-0.354,0.747,-39.13,-5.74,-23.887
51723400,-0.528,-0.386,0.698,-38.692,-2.082,-24.92
51723410,-0.603,-0.413,0.673,-37.327,-3.027,-25.725
51723420,-0.629,-0.432,0.673,-34.247,-9.52,-26.652
51723420,-0.592,-0.428,0.677,-29.522,-16.642,-25.445
51723440,-0.569,-0.415,0.676,-25.9,-21.665,-20.475
51723440,-0.552,-0.394,0.704,-23.537,-23.607,-17.395
51723460,-0.535,-0.375,0.736,-22.82,-24.202,-16.922
51723460,-0.5,-0.363,0.774,-22.89,-23.152,-16.362
51723480,-0.497,-0.364,0.812,-24.867,-21.175,-14.927
51723480,-0.473,-0.383,0.808,-27.44,-18.165,-14.612
51723500,-0.47,-0.389,0.795,-26.897,-13.912,-15.085
51723500,-0.483,-0.378,0.784,-26.04,-9.572,-15.015
51723510,-0.475,-0.368,0.773,-26.355,-4.742,-14.525
51723520,-0.507,-0.364,0.776,-27.755,0.717,-13.912
51723530,-0.529,-0.378,0.787,-29.627,3.535,-15.47
51723540,-0.529,-0.4,0.783,-31.395,5.145,-17.29
51723550,-0.527,-0.421,0.755,-31.972,6.37,-18.217
51723560,-0.542,-0.44,0.733,-31.465,6.912,-18.585
51723570,-0.519,-0.445,0.73,-29.925,5.757,-19.005
51723580,-0.525,-0.458,0.721,-29.382,5.442,-19.145
51723590,-0.557,-0.491,0.701,-30.555,3.132,-18.497
51723600,-0.564,-0.513,0.682,-29.242,-0.297,-17.5
51723610,-0.571,-0.52,0.658,-25.62,-4.34,-17.15
51723620,-0.554,-0.506,0.661,-21.367,-6.93,-16.747
51723630,-0.545,-0.492,0.673,-18.882,-9.852,-16.117
51723640,-0.543,-0.503,0.673,-19.862,-12.005,-14.297
51723650,-0.538,-0.507,0.693,-19.705,-13.737,-13.282
51723660,-0.514,-0.496,0.698,-18.27,-14.07,-13.282
51723670,-0.522,-0.484,0.705,-16.747,-14.56,-11.812
51723680,-0.531,-0.465,0.732,-15.89,-14.525,-10.692
51723690,-0.564,-0.471,0.74,-16.24,-15.942,-9.555
51723700,-0.565,-0.472,0.757,-16.712,-18.34,-11.322
51723710,-0.569,-0.476,0.748,-20.265,-21.315,-12.302
51723720,-0.59,-0.502,0.731,-21.332,-25.095,-12.932
51723730,-0.553,-0.505,0.753,-19.74,-28.455,-14.7
51723740,-0.527,-0.501,0.754,-19.512,-30.1,-15.487
51723750,-0.5,-0.492,0.746,-19.985,-31.202,-16.135
51723760,-0.487,-0.487,0.745,-20.422,-32.13,-16.677
51723770,-0.477,-0.492,0.747,-21.822,-32.252,-18.637
51723780,-0.482,-0.516,0.725,-23.345,-31.675,-19.652
51723790,-0.49,-0.531,0.721,-23.17,-30.66,-20.772
51723800,-0.482,-0.541,0.716,-22.452,-30.45,-22.417
51723810,-0.464,-0.543,0.708,-21.892,-31.045,-23.642
51723820,-0.404,-0.526,0.694,-21.385,-32.182,-24.045
51723830,-0.368,-0.546,0.693,-20.982,-30.642,-23.485
51723830,-0.355,-0.569,0.691,-21.122,-28.175,-22.47
51723850,-0.345,-0.577,0.692,-20.405,-25.655,-21.437
51723850,-0.355,-0.57,0.688,-19.127,-23.975,-20.632
51723860,-0.351,-0.561,0.677,-18.637,-22.54,-19.005
51723870,-0.317,-0.557,0.665,-17.605,-21.647,-16.73
51723880,-0.294,-0.566,0.662,-16.03,-18.917,-14.087
51723890,-0.309,-0.595,0.634,-14.525,-16.327,-10.675
51723900,-0.335,-0.611,0.6,-10.237,-14.21,-7.612
51723910,-0.367,-0.594,0.662,-3.15,-13.702,-5.635
51723920,-0.395,-0.599,0.727,0,-13.667,-3.255
51723930,-0.405,-0.632,0.751,-4.112,-12.932,-1.715
51723940,-0.417,-0.626,0.766,-6.685,-10.797,-4.025
51723950,-0.449,-0.578,0.747,-7.367,-11.147,-6.09
51723960,-0.451,-0.537,0.751,-7.105,-13.86,-7.647
51723970,-0.441,-0.534,0.765,-8.067,-16.66,-9.59
51723980,-0.457,-0.561,0.762,-11.112,-16.992,-12.547
51723990,-0.489,-0.578,0.746,-13.16,-18.567,-14.402
51724000,-0.519,-0.581,0.737,-12.932,-22.855,-15.067
51724010,-0.481,-0.564,0.728,-11.41,-28.77,-15.347
51724020,-0.416,-0.547,0.734,-10.08,-32.182,-14.315
51724030,-0.401,-0.567,0.741,-9.45,-34.702,-13.177
51724040,-0.413,-0.623,0.748,-7.42,-38.657,-9.73
51724050,-0.303,-0.583,0.753,-3.01,-41.842,-8.767
51724060,-0.242,-0.549,0.741,-2.677,-40.407,-8.242
51724070,-0.239,-0.541,0.736,-6.597,-36.382,-9.59
51724080,-0.243,-0.591,0.713,-9.642,-33.197,-9.415
51724090,-0.203,-0.593,0.715,-11.672,-28.332,-10.447
51724100,-0.268,-0.656,0.697,-13.195,-23.87,-7.682
51724110,-0.259,-0.674,0.69,-11.252,-20.737,-7.542
51724120,-0.25,-0.633,0.676,-8.907,-16.292,-5.827
51724130,-0.338,-0.611,0.706,-9.537,-11.602,-3.657
51724140,-0.361,-0.62,0.717,-12.6,-11.077,-4.322
51724150,-0.377,-0.63,0.695,-13.317,-12.95,-6.002
51724160,-0.392,-0.629,0.7,-8.68,-16.922,-7.647
51724170,-0.339,-0.603,0.721,-3.062,-20.65,-9.38
51724170,-0.322,-0.602,0.713,-1.697,-21.595,-9.415
51724190,-0.336,-0.625,0.721,-1.347,-21.682,-9.45
51724190,-0.336,-0.637,0.739,-0.577,-23.502,-10.36
51724210,-0.313,-0.631,0.726,0.7,-25.27,-11.445
51724210,-0.276,-0.606,0.722,2.24,-26.022,-10.377
51724230,-0.248,-0.594,0.727,2.887,-23.257,-9.8
51724230,-0.264,-0.604,0.735,1.505,-20.685,-9.222
51724250,-0.283,-0.618,0.731,0.647,-20.282,-8.137
51724250,-0.297,-0.647,0.725,2.66,-22.505,-7.017
51724260,-0.281,-0.632,0.707,5.302,-23.38,-7.087
51724270,-0.307,-0.626,0.719,7.157,-23.992,-6.58
51724280,-0.296,-0.635,0.73,7.262,-24.272,-8.155
51724290,-0.29,-0.649,0.713,7.14,-24.71,-8.96
51724300,-0.292,-0.642,0.732,8.907,-24.307,-9.712
51724310,-0.209,-0.606,0.777,9.327,-24.062,-9.975
51724320,-0.092,-0.562,0.797,6.002,-18.41,-7.875
51724330,-0.065,-0.521,0.825,2.467,-8.417,-5.775
51724340,-0.063,-0.499,0.823,-2.502,1.54,-2.327
51724350,-0.168,-0.544,0.829,-7.91,6.405,0.315
51724360,-0.227,-0.596,0.815,-10.745,4.077,-2.152
51724370,-0.204,-0.593,0.795,-8.715,0.84,-4.217
51724380,-0.303,-0.572,0.823,-8.68,1.47,-4.182
51724390,-0.417,-0.598,0.813,-13.965,-2.082,-7.07
51724400,-0.417,-0.626,0.776,-17.412,-9.887,-12.687
51724410,-0.358,-0.597,0.772,-16.31,-16.397,-15.942
51724420,-0.342,-0.569,0.795,-16.94,-20.195,-15.487
51724430,-0.287,-0.574,0.789,-21.28,-23.415,-14.577
51724440,-0.227,-0.604,0.755,-24.797,-24.342,-13.282
51724450,-0.15,-0.592,0.752,-24.517,-22.645,-11.655
51724460,-0.135,-0.595,0.753,-24.045,-18.83,-7.402
51724470,-0.169,-0.627,0.74,-24.92,-16.17,-3.797
51724480,-0.134,-0.66,0.719,-21.56,-15.067,-0.07
51724490,-0.111,-0.627,0.744,-17.955,-10.43,0.332
51724500,-0.204,-0.653,0.736,-20.912,-5.652,-0.262
51724510,-0.217,-0.686,0.708,-22.575,-5.285,-2.397
51724520,-0.251,-0.704,0.693,-19.932,-5.687,-5.057
51724530,-0.33,-0.717,0.683,-16.94,-8.61,-6.86
51724530,-0.366,-0.722,0.65,-14.927,-16.257,-6.597
51724550,-0.381,-0.728,0.647,-10.675,-23.047,-8.75
51724550,-0.369,-0.718,0.634,-7.07,-30.152,-9.537
51724570,-0.287,-0.687,0.673,-3.605,-35.35,-8.855
51724570,-0.214,-0.664,0.708,-2.432,-38.342,-7.612
51724580,-0.088,-0.643,0.726,-2.712,-38.027,-5.267
51724590,0.008,-0.62,0.734,-2.975,-33.792,-0.7
51724600,0.029,-0.626,0.739,-2.8,-24.832,2.03
51724610,0.028,-0.634,0.733,-2.642,-16.485,5.075
51724620,0.018,-0.636,0.745,-3.78,-6.93,7.315
51724630,-0.072,-0.666,0.727,-8.82,1.207,8.26
51724640,-0.105,-0.697,0.695,-11.602,7.07,6.597
51724650,-0.113,-0.695,0.679,-9.362,10.85,8.382
51724660,-0.133,-0.667,0.699,-4.62,15.89,11.007
51724670,-0.15,-0.631,0.723,-3.36,19.827,14.192
51724680,-0.175,-0.62,0.738,-4.812,22.33,18.427
51724690,-0.259,-0.661,0.716,-6.02,22.085,18.69
51724700,-0.324,-0.681,0.69,-3.43,16.695,16.695
51724710,-0.301,-0.656,0.689,2.117,10.342,14.192
51724720,-0.347,-0.667,0.719,3.99,7.542,12.407
51724730,-0.378,-0.687,0.719,1.75,2.082,11.777
51724740,-0.385,-0.697,0.701,0.647,-4.777,10.692
51724750,-0.344,-0.704,0.713,2.1,-10.097,8.907
51724760,-0.331,-0.692,0.738,2.59,-11.777,8.277
51724770,-0.317,-0.674,0.741,1.067,-13.387,6.037
51724780,-0.278,-0.66,0.744,-0.49,-12.932,3.675
51724790,-0.26,-0.637,0.729,-0.63,-10.797,0.875
51724800,-0.239,-0.614,0.743,-0.175,-9.065,-1.277
51724810,-0.252,-0.619,0.757,-1.785,-5.985,-3.027
51724820,-0.281,-0.629,0.75,-4.602,-3.815,-5.635
51724830,-0.283,-0.649,0.753,-5.197,-4.585,-9.555
51724840,-0.233,-0.635,0.781,-4.147,-4.515,-14.175
51724850,-0.246,-0.617,0.788,-6.02,-3.255,-16.572
51724860,-0.252,-0.628,0.789,-9.817,-2.975,-21.315
51724870,-0.202,-0.621,0.786,-12.46,-2.835,-27.825
51724880,-0.201,-0.625,0.786,-16.485,-5.617,-32.532
51724890,-0.242,-0.671,0.706,-20.527,-15.312,-32.515
51724900,-0.288,-0.753,0.613,-17.202,-30.222,-27.037
51724910,-0.283,-0.769,0.638,-6.667,-45.167,-22.942
51724920,-0.167,-0.72,0.647,-0.525,-55.107,-22.522
51724920,-0.101,-0.712,0.584,3.062,-57.662,-17.605
51724940,-0.179,-0.772,0.653,8.575,-55.282,-12.985
51724940,-0.162,-0.733,0.636,9.187,-55.352,-13.982
51724960,-0.086,-0.704,0.689,11.9,-52.587,-14.787
51724960,-0.037,-0.648,0.723,10.465,-46.515,-13.93
51724980,-0.076,-0.624,0.744,6.492,-40.95,-10.36
51724980,0.048,-0.56,0.773,0.525,-36.347,-10.745
51725000,0.113,-0.613,0.811,-7.77,-24.132,-10.692
51725000,0.065,-0.666,0.799,-13.72,-11.62,-6.615
51725010,0.048,-0.6,0.8,-11.567,-3.465,-4.55
51725020,0.028,-0.582,0.809,-12.057,5.215,-5.845
51725030,-0.057,-0.61,0.782,-17.517,9.765,-4.025
51725040,-0.127,-0.648,0.762,-20.335,12.092,-7.035
51725050,-0.162,-0.694,0.765,-19.705,11.707,-11.252
51725060,-0.141,-0.691,0.746,-19.477,9.922,-12.39
51725070,-0.134,-0.678,0.72,-18.83,8.785,-11.305
51725080,-0.073,-0.652,0.713,-18.445,10.325,-9.152
51725090,-0.068,-0.64,0.71,-20.02,14.21,-6.037
51725100,-0.098,-0.695,0.702,-22.697,16.152,-3.08
51725110,-0.004,-0.713,0.688,-20.807,17.255,-1.172
51725120,0.012,-0.691,0.708,-16.59,22.662,1.872
51725130,0.007,-0.698,0.734,-15.627,27.212,4.095
51725140,-0.024,-0.708,0.711,-17.395,30.817,3.972
51725150,-0.14,-0.746,0.688,-18.41,32.06,0.28
51725160,-0.147,-0.745,0.655,-17.342,29.75,-4.235
51725170,-0.178,-0.735,0.616,-13.772,27.912,-4.69
51725180,-0.249,-0.727,0.632,-10.447,25.882,-3.517
51725190,-0.222,-0.73,0.618,-8.767,21.105,-1.33
51725200,-0.242,-0.744,0.614,-7.612,19.215,-0.262
51725210,-0.3,-0.768,0.626,-6.912,15.645,2.1
51725220,-0.277,-0.767,0.648,-4.917,10.15,0.507
51725230,-0.252,-0.769,0.65,-2.17,5.495,-2.73
51725240,-0.271,-0.756,0.646,0,2.327,-2.59
51725250,-0.23,-0.718,0.684,1.47,0.35,-3.115
51725260,-0.201,-0.709,0.713,1.137,-1.435,-3.902
51725260,-0.208,-0.705,0.716,-0.875,-3.71,-4.235
51725280,-0.203,-0.7,0.706,-2.467,-6.545,-5.512
51725280,-0.195,-0.712,0.694,-3.097,-7.945,-7.07
51725300,-0.158,-0.713,0.691,-3.115,-8.872,-7.63
51725300,-0.149,-0.694,0.687,-3.71,-8.382,-7.91
51725320,-0.198,-0.728,0.66,-5.897,-9.607,-8.26
51725320,-0.213,-0.77,0.625,-6.125,-13.282,-10.062
51725330,-0.213,-0.776,0.612,-2.52,-17.937,-11.795
51725340,-0.206,-0.774,0.631,1.312,-22.855,-12.005
51725350,-0.128,-0.749,0.615,4.392,-26.617,-11.2
51725360,-0.149,-0.748,0.645,7.332,-27.23,-10.272
51725370,-0.082,-0.74,0.657,9.485,-28.07,-10.797
51725380,0.005,-0.7,0.679,11.795,-25.042,-10.167
51725390,0.019,-0.674,0.704,11.97,-19.18,-6.72
51725400,-0.009,-0.676,0.698,10.745,-12.547,-4.095
51725410,-0.082,-0.699,0.691,10.762,-8.26,-5.442
51725420,-0.167,-0.733,0.704,11.567,-7.402,-7.77
51725430,-0.205,-0.732,0.715,11.392,-9.38,-10.307
51725440,-0.209,-0.721,0.699,10.5,-11.252,-10.78
51725450,-0.259,-0.722,0.704,9.695,-14.245,-9.957
51725460,-0.235,-0.701,0.718,7.595,-17.85,-9.922
51725470,-0.145,-0.672,0.736,5.46,-20.247,-8.977
51725480,-0.133,-0.662,0.775,2.257,-20.772,-6.667
51725490,-0.098,-0.653,0.788,-2.012,-21.42,-6.982
51725500,-0.067,-0.656,0.79,-6.002,-20.475,-9.012
51725510,-0.066,-0.653,0.789,-9.992,-17.727,-9.502
51725520,-0.108,-0.655,0.747,-12.985,-15.732,-10.692
51725530,-0.118,-0.678,0.721,-13.79,-18.27,-14.332
51725540,-0.12,-0.724,0.694,-12.617,-23.677,-17.36
51725550,-0.133,-0.778,0.662,-10.412,-31.745,-21.927
51725560,-0.013,-0.783,0.628,-5.057,-39.357,-24.885
51725570,0.048,-0.781,0.631,1.417,-41.107,-23.835
51725580,0.107,-0.777,0.624,5.197,-40.005,-22.505
51725590,0.347,-0.695,0.627,10.36,-34.352,-16.205
51725600,0.4,-0.662,0.686,12.25,-17.167,-2.73
51725610,0.304,-0.7,0.713,6.93,-0.525,7.315
51725620,0.343,-0.7,0.721,5.092,8.487,13.842
51725630,0.352,-0.68,0.712,7.945,20.93,19.6
51725640,0.26,-0.627,0.734,11.742,35.525,23.66
51725650,0.107,-0.635,0.761,10.167,46.812,26.547
51725660,-0.07,-0.698,0.687,4.515,52.535,24.01
51725670,-0.243,-0.724,0.655,6.667,51.992,18.637
51725670,-0.357,-0.711,0.649,12.162,42.612,14.665
51725690,-0.287,-0.697,0.653,16.695,33.302,11.252
51725690,-0.307,-0.755,0.723,16.362,35.052,8.4
51725710,-0.492,-0.773,0.69,13.3,29.12,12.635
51725710,-0.306,-0.656,0.692,18.725,19.74,10.132
51725730,-0.177,-0.626,0.747,20.352,17.552,9.275
51725730,-0.136,-0.66,0.755,14.402,20.457,17.517
51725750,-0.105,-0.668,0.752,6.982,25.76,19.512
51725750,0.014,-0.679,0.742,5.127,29.12,18.445
51725760,0.152,-0.613,0.709,6.72,37.607,23.782
51725770,0.1,-0.534,0.718,7.157,51.8,29.627
51725780,-0.089,-0.609,0.762,0.56,58.257,28.525
51725790,-0.115,-0.637,0.3,-6.002,54.827,20.125
51725800,-0.071,-0.355,0.888,14.017,57.032,16.502
51725810,-0.51,-0.647,1.125,2.152,58.975,15.505
51725820,-0.52,-1.014,0.795,-31.815,41.352,4.812
51725830,-0.423,-0.865,0.666,-17.622,24.255,-1.89
51725840,-0.469,-0.616,0.718,-0.77,16.397,0.805
51725850,-0.568,-0.598,0.742,-5.005,5.11,1.015
51725860,-0.5,-0.668,0.73,-18.48,-9.782,-5.967
51725870,-0.407,-0.737,0.682,-24.675,-19.845,-15.54
51725880,-0.362,-0.779,0.636,-21.262,-27.387,-16.205
51725890,-0.325,-0.748,0.694,-14.035,-35.192,-14.682
51725900,-0.211,-0.731,0.69,-13.895,-40.635,-16.695
51725910,-0.089,-0.709,0.678,-14.735,-40.985,-18.532
51725920,-0.052,-0.7,0.667,-14.332,-36.697,-16.45
51725930,-0.044,-0.69,0.63,-13.3,-31.727,-15.12
51725940,-0.107,-0.721,0.612,-11.497,-28.017,-12.407
51725950,-0.177,-0.79,0.586,-9.065,-28.542,-10.342
51725960,-0.211,-0.828,0.577,-2.747,-31.517,-12.005
51725970,-0.243,-0.786,0.574,5.915,-37.275,-15.015
51725980,-0.133,-0.742,0.592,12.215,-43.155,-17.465
51725990,-0.046,-0.743,0.646,15.557,-41.055,-15.242
51726000,-0.045,-0.767,0.667,16.012,-34.002,-7.227
51726010,-0.086,-0.759,0.643,18.27,-29.067,-3.342
51726010,0.023,-0.687,0.651,24.43,-27.282,-1.522
51726030,0.081,-0.651,0.662,26.705,-20.3,3.64
51726030,0.091,-0.656,0.68,24.447,-11.112,10.08
51726050,0.045,-0.716,0.673,23.257,-1.505,13.562
51726050,0.021,-0.735,0.677,26.88,1.715,11.655
51726070,0.097,-0.689,0.67,34.195,5.32,11.287
51726070,-0.004,-0.657,0.704,36.365,13.597,12.442
51726080,-0.121,-0.653,0.742,32.69,18.777,11.812
51726090,-0.117,-0.655,0.764,29.33,18.48,8.19
51726100,-0.052,-0.618,0.809,28.98,20.527,8.26
51726110,-0.092,-0.596,0.842,26.372,24.797,10.447
51726120,-0.174,-0.613,0.819,19.197,26.407,9.467
51726130,-0.22,-0.602,0.786,15.522,22.47,5.617
51726140,-0.235,-0.573,0.797,15.19,17.517,2.45
51726150,-0.292,-0.592,0.81,12.915,13.86,2.485
51726160,-0.359,-0.63,0.811,8.4,9.012,2.415
51726170,-0.32,-0.63,0.804,6.09,1.995,-0.21
51726180,-0.278,-0.62,0.793,6.002,-3.727,-1.417
51726190,-0.283,-0.652,0.763,6.405,-10.64,0.315
51726200,-0.204,-0.667,0.75,8.452,-16.082,-0.997
51726210,-0.124,-0.65,0.763,9.117,-16.8,-3.202
51726220,-0.098,-0.667,0.734,8.487,-14.7,-3.78
51726230,-0.03,-0.634,0.736,9.747,-10.867,-3.902
51726240,-0.01,-0.624,0.755,9.8,-4.97,-2.677
51726250,-0.059,-0.671,0.712,7.717,-1.435,-0.385
51726260,-0.039,-0.675,0.645,11.13,-1.33,2.31
51726270,-0.034,-0.656,0.668,19.512,0.192,4.112
51726280,-0.083,-0.672,0.687,22.802,2.782,7.14
51726290,-0.13,-0.694,0.67,23.642,3.937,9.117
51726300,-0.161,-0.698,0.675,27.352,2.24,9.975
51726310,-0.129,-0.667,0.722,32.042,0.402,12.057
51726320,-0.149,-0.64,0.765,32.147,0.997,14.332
51726330,-0.16,-0.627,0.762,31.36,1.907,14.245
51726340,-0.127,-0.58,0.81,32.165,4.147,11.987
51726350,-0.175,-0.592,0.823,28.402,8.68,9.432
51726360,-0.17,-0.526,0.843,20.265,12.197,2.1
51726370,-0.154,-0.559,0.823,13.982,16.502,-2.747
51726380,-0.181,-0.582,0.811,16.24,19.827,1.26
51726390,-0.255,-0.568,0.795,15.907,17.517,6.002
51726400,-0.241,-0.581,0.831,20.212,13.405,2.275
51726410,-0.246,-0.587,0.849,16.537,10.605,-1.05
51726420,-0.271,-0.608,0.849,12.547,8.207,-3.325
51726420,-0.298,-0.607,0.843,9.432,7.035,-7.192
51726440,-0.316,-0.592,0.856,5.057,2.047,-9.957
51726440,-0.24,-0.581,0.843,3.062,-2.52,-10.937
51726460,-0.219,-0.581,0.839,1.89,-3.99,-8.522
51726460,-0.264,-0.576,0.849,1.382,-6.09,-6.107
51726480,-0.195,-0.535,0.863,1.33,-10.01,-10.762
51726480,-0.126,-0.513,0.875,-0.647,-9.887,-13.562
51726500,-0.102,-0.541,0.857,-3.027,-6.615,-13.475
51726500,-0.078,-0.524,0.84,-6.58,-0.787,-13.02
51726510,-0.063,-0.521,0.804,-10.99,1.942,-8.872
51726520,-0.023,-0.529,0.784,-11.217,5.88,-4.375
51726530,-0.074,-0.545,0.801,-9.59,8.645,-2.59
51726540,-0.074,-0.534,0.858,-7.525,8.96,-4.585
51726550,-0.027,-0.524,0.89,-7.455,11.76,-7.857
51726560,-0.093,-0.536,0.884,-12.81,18.532,-7.7
51726570,-0.171,-0.532,0.874,-19.355,21.577,-9.222
51726580,-0.182,-0.538,0.866,-24.22,21.542,-12.67
51726590,-0.181,-0.536,0.877,-26.827,19.407,-15.697
51726600,-0.178,-0.521,0.837,-30.607,18.042,-15.837
51726610,-0.27,-0.554,0.767,-36.522,15.277,-12.145
51726620,-0.327,-0.609,0.717,-40.25,5.285,-6.16
51726630,-0.3,-0.715,0.672,-38.78,-6.457,0.472
51726640,-0.254,-0.792,0.614,-29.96,-9.87,1.032
51726650,-0.231,-0.731,0.626,-15.172,-10.955,-3.885
51726660,-0.177,-0.652,0.647,-5.232,-12.792,-6.965
51726670,-0.12,-0.639,0.668,-1.96,-10.99,-6.107
51726680,-0.122,-0.682,0.655,-2.222,-7,-4.007
51726690,-0.115,-0.69,0.675,-0.577,-4.165,-3.167
51726700,-0.051,-0.67,0.698,2.695,-2.87,-0.157
51726710,-0.012,-0.666,0.714,5.495,1.312,6.317
51726720,-0.047,-0.679,0.698,5.95,7.245,12.407
51726730,-0.073,-0.665,0.665,8.452,11.62,15.382
51726740,-0.063,-0.637,0.691,13.93,16.012,17.097
51726750,-0.09,-0.619,0.733,16.1,21.017,18.952
51726760,-0.123,-0.608,0.754,13.93,24.832,20.387
51726760,-0.147,-0.612,0.775,11.2,28.332,20.545
51726780,-0.179,-0.614,0.793,9.03,30.537,20.492
51726780,-0.211,-0.6,0.791,7.28,31.5,20.422
51726800,-0.24,-0.575,0.793,6.65,31.36,20.282
51726800,-0.295,-0.582,0.796,4.672,31.85,17.78
51726820,-0.302,-0.554,0.778,-3.08,31.832,10.71
51726820,-0.365,-0.628,0.752,-5.425,28.35,11.935
51726830,-0.374,-0.645,0.75,-4.2,20.02,13.93
51726840,-0.364,-0.636,0.743,0.21,11.987,15.995
51726850,-0.342,-0.614,0.75,5.127,5.162,16.8
51726860,-0.336,-0.612,0.747,7.525,-1.33,19.53
51726870,-0.327,-0.613,0.756,8.89,-7.21,18.497
51726880,-0.289,-0.635,0.775,11.2,-10.43,14.017
51726890,-0.251,-0.638,0.765,12.355,-12.407,10.78
51726900,-0.254,-0.626,0.767,14.14,-12.757,8.802
51726910,-0.292,-0.636,0.776,16.327,-14.752,8.715
51726920,-0.225,-0.585,0.788,18.637,-16.572,7.192
51726930,-0.24,-0.578,0.778,20.667,-17.097,8.085
51726940,-0.231,-0.558,0.799,21.385,-14.98,6.79
51726950,-0.238,-0.541,0.796,19.547,-13.212,5.355
51726960,-0.251,-0.547,0.796,15.645,-10.272,3.955
51726970,-0.267,-0.561,0.806,12.355,-8.627,1.907
51726980,-0.282,-0.578,0.81,9.695,-9.345,1.19
51726990,-0.273,-0.585,0.82,7.84,-12.285,1.645
51727000,-0.251,-0.576,0.808,6.702,-14.245,3.43
51727010,-0.233,-0.565,0.82,4.97,-13.545,4.935
51727020,-0.237,-0.571,0.819,1.26,-12.32,5.477
51727030,-0.232,-0.585,0.802,-1.872,-11.76,4.97
51727040,-0.185,-0.58,0.805,-1.89,-9.957,4.515
51727050,-0.161,-0.563,0.798,-1.575,-5.407,6.79
51727060,-0.182,-0.556,0.785,-3.482,0.91,9.135
51727070,-0.189,-0.554,0.79,-5.46,7.035,9.012
51727080,-0.174,-0.542,0.778,-6.247,13.317,9.502
51727090,-0.196,-0.55,0.804,-7.385,19.565,13.16
51727100,-0.214,-0.571,0.787,-9.047,24.342,16.065
51727110,-0.206,-0.568,0.781,-7.07,28.07,16.572
51727120,-0.236,-0.558,0.752,-4.462,31.587,19.337
51727130,-0.291,-0.538,0.749,-3.605,33.967,21.105
51727140,-0.324,-0.534,0.747,-6.422,33.565,20.02
51727150,-0.304,-0.55,0.755,-9.975,33.95,15.89
51727160,-0.344,-0.579,0.752,-11.987,29.225,11.987
51727170,-0.375,-0.61,0.741,-11.847,22.155,10.307
51727170,-0.372,-0.609,0.74,-7.332,11.445,7.262
51727190,-0.356,-0.594,0.741,-1.312,0.84,6.107
51727190,-0.312,-0.576,0.753,2.957,-7.385,4.707
51727210,-0.265,-0.568,0.747,4.427,-11.077,1.82
51727210,-0.23,-0.55,0.753,3.762,-11.585,-0.962
51727220,-0.174,-0.546,0.752,1.505,-6.475,0.227
51727230,-0.2,-0.584,0.743,-0.735,0.472,5.022
51727240,-0.253,-0.627,0.751,-1.452,8.207,9.432
51727250,-0.284,-0.647,0.758,0.315,11.707,12.005
51727260,-0.292,-0.66,0.746,4.742,13.055,13.79
51727270,-0.291,-0.656,0.76,10.692,14.63,14.017
51727280,-0.307,-0.651,0.773,15.855,16.485,12.915
51727290,-0.324,-0.645,0.78,20.317,17.045,10.605
51727300,-0.342,-0.629,0.786,24.08,15.137,8.575
51727310,-0.339,-0.602,0.786,26.232,9.852,7.472
51727320,-0.316,-0.577,0.776,26.022,4.532,7.892
51727330,-0.276,-0.572,0.77,24.307,1.872,8.872
51727340,-0.266,-0.565,0.755,23.467,3.377,10.675
51727350,-0.272,-0.553,0.748,24.29,5.075,12.705
51727360,-0.271,-0.539,0.755,25.06,7.052,15.312
51727370,-0.28,-0.532,0.74,24.815,9.065,17.815
51727380,-0.276,-0.516,0.747,26.11,11.917,19.39
51727390,-0.27,-0.497,0.755,28.35,14.892,20.51
51727400,-0.285,-0.483,0.768,29.33,18.182,21.28
51727410,-0.312,-0.473,0.777,28.98,19.862,20.23
51727420,-0.351,-0.473,0.791,27.195,18.445,17.762
51727430,-0.39,-0.486,0.79,25.112,14.402,15.225
51727440,-0.415,-0.497,0.785,25.445,8.47,12.827
51727450,-0.452,-0.524,0.793,27.02,-0.192,10.762
51727460,-0.398,-0.538,0.782,31.115,-6.317,6.282
51727470,-0.318,-0.524,0.779,37.327,-8.977,1.995
51727480,-0.288,-0.516,0.777,42.875,-6.737,0.682
51727490,-0.28,-0.501,0.811,48.265,-0.997,0.437
51727500,-0.279,-0.495,0.832,51.94,4.182,3.64
51727510,-0.271,-0.491,0.862,54.565,9.012,8.96
51727510,-0.307,-0.502,0.9,54.442,14.612,14.735
51727530,-0.354,-0.508,0.914,50.242,19.565,16.397
51727530,-0.373,-0.51,0.901,43.347,21.192,14.56
51727550,-0.342,-0.528,0.84,39.55,21.735,15.137
51727550,-0.247,-0.478,0.833,41.16,27.422,16.345
51727570,-0.292,-0.449,0.798,40.075,32.917,23.992
51727570,-0.32,-0.425,0.777,38.64,35.857,30.747
51727580,-0.326,-0.408,0.778,40.04,36.102,35.402
51727590,-0.319,-0.394,0.757,42.157,34.825,40.775
51727600,-0.302,-0.363,0.753,44.59,37.59,45.797
51727610,-0.324,-0.322,0.763,44.73,42.385,49.437
51727620,-0.383,-0.293,0.768,41.965,47.46,49.595
51727630,-0.439,-0.273,0.774,36.435,49.105,44.887
51727640,-0.481,-0.275,0.769,30.205,46.515,38.955
51727650,-0.489,-0.268,0.764,25.585,40.81,33.652
51727660,-0.463,-0.242,0.765,22.015,36.12,30.607
51727670,-0.447,-0.202,0.766,17.535,32.847,28.507
51727680,-0.443,-0.174,0.764,8.942,31.482,28.735
51727690,-0.454,-0.189,0.751,0.875,31.307,30.17
51727700,-0.46,-0.189,0.75,-5.652,33.775,31.622
51727710,-0.503,-0.231,0.719,-14.472,36.627,33.267
51727720,-0.562,-0.313,0.687,-17.202,42.157,29.802
51727730,-0.612,-0.335,0.72,-13.107,46.445,21.717
51727740,-0.686,-0.365,0.761,-5.6,43.96,14.262
51727750,-0.735,-0.381,0.847,4.76,33.215,8.417
51727760,-0.754,-0.41,0.881,9.957,14.84,4.69
51727770,-0.675,-0.429,0.922,19.442,-3.167,-0.332
51727780,-0.589,-0.446,0.957,30.642,-15.487,-1.242
51727790,-0.551,-0.444,1.006,38.692,-21.507,2.065
51727800,-0.528,-0.46,1,42.402,-22.627,4.917
51727810,-0.45,-0.457,1.022,52.167,-16.31,6.807
51727820,-0.366,-0.406,1.033,54.425,-2.467,11.532
51727830,-0.347,-0.384,1.004,53.41,16.747,19.075
51727840,-0.38,-0.376,0.976,54.897,37.73,24.342
51727850,-0.449,-0.37,0.944,57.61,54.425,29.05
51727860,-0.523,-0.351,0.905,61.005,63.332,32.917
51727870,-0.574,-0.319,0.879,65.747,65.275,35
51727880,-0.601,-0.28,0.855,69.632,62.02,35.787
51727890,-0.616,-0.248,0.832,71.33,56.332,34.527
51727890,-0.628,-0.22,0.812,71.452,49.717,30.765
51727910,-0.633,-0.194,0.799,69.737,42.787,25.462
51727910,-0.627,-0.171,0.775,66.71,35.752,19.53
51727920,-0.609,-0.153,0.749,62.667,29.435,14.542
51727930,-0.589,-0.141,0.713,58.17,23.852,10.867
51727940,-0.57,-0.131,0.675,54.057,20.545,8.015
51727950,-0.554,-0.112,0.647,50.995,18.2,5.477
51727960,-0.548,-0.094,0.626,47.967,17.377,4.06
51727970,-0.555,-0.091,0.609,44.817,17.115,2.852
51727980,-0.573,-0.091,0.603,41.562,16.817,1.242
51727990,-0.594,-0.081,0.611,38.15,14.28,-0.647
51728000,-0.604,-0.063,0.606,33.337,10.062,-2.73
51728010,-0.607,-0.07,0.61,31.972,3.902,-4.847
51728020,-0.592,-0.048,0.622,30.03,-1.82,-6.632
51728030,-0.586,-0.04,0.618,26.95,-7.455,-7.052
51728040,-0.581,-0.029,0.628,24.412,-11.182,-8.102
51728050,-0.59,-0.04,0.621,22.89,-14.857,-11.06
51728060,-0.57,-0.026,0.63,24.045,-16.572,-16.205
51728070,-0.565,-0.013,0.65,23.607,-17.762,-18.2
51728080,-0.567,0.004,0.651,19.827,-17.552,-18.305
51728090,-0.567,-0.008,0.659,20.107,-17.237,-18.235
51728100,-0.569,-0.012,0.668,22.032,-16.17,-17.01
51728110,-0.567,0.012,0.685,20.842,-15.295,-15.067
51728120,-0.584,-0.001,0.692,19.775,-12.95,-11.602
51728130,-0.592,-0.013,0.714,21.612,-9.66,-9.065
51728140,-0.616,-0.015,0.746,22.61,-5.215,-5.635
51728150,-0.651,-0.002,0.748,18.06,-0.647,-3.202
51728160,-0.665,-0.005,0.776,16.677,4.287,-3.535
51728170,-0.678,-0.015,0.781,14.297,9.257,-4.2
51728180,-0.691,-0.005,0.81,12.512,13.807,-4.007
51728190,-0.708,0.002,0.816,7.245,16.747,-4.55
51728200,-0.719,0.01,0.802,0.945,18.532,-5.425
51728210,-0.727,-0.012,0.811,-1.417,18.742,-5.442
51728220,-0.744,-0.016,0.777,-4.777,17.517,-3.92
51728230,-0.736,-0.018,0.802,-2.257,16.642,-2.87
51728240,-0.74,0.001,0.781,-5.88,15.785,-0.647
51728250,-0.742,0,0.788,-5.18,15.785,-0.455
51728260,-0.75,0.01,0.798,-9.397,15.452,-0.56
51728260,-0.762,0.01,0.787,-16.17,14.56,-1.295
51728280,-0.795,-0.008,0.798,-19.075,12.11,-3.605
51728280,-0.814,-0.023,0.801,-22.05,6.44,-5.092
51728300,-0.819,-0.045,0.802,-23.24,-1.137,-6.405
51728300,-0.824,-0.062,0.806,-23.065,-8.872,-8.225
51728320,-0.814,-0.078,0.806,-21.945,-17.325,-11.2
51728320,-0.8,-0.09,0.82,-19.25,-25.427,-14.297
51728330,-0.771,-0.1,0.82,-18.322,-33.67,-15.557
51728340,-0.727,-0.121,0.812,-16.152,-39.445,-15.277
51728350,-0.696,-0.128,0.823,-12.407,-42.997,-14.787
51728360,-0.683,-0.132,0.83,-10.255,-45.255,-13.265
51728370,-0.663,-0.141,0.832,-8.75,-46.83,-11.427
51728380,-0.626,-0.147,0.843,-7.507,-46.252,-9.292
51728390,-0.604,-0.157,0.843,-7.297,-44.345,-5.722
51728400,-0.585,-0.161,0.85,-7.157,-39.672,-2.537
51728410,-0.584,-0.166,0.839,-9.485,-35.227,-2.747
51728420,-0.561,-0.173,0.836,-11.41,-31.552,-1.715
51728430,-0.547,-0.187,0.819,-12.092,-28.7,2.695
51728440,-0.515,-0.187,0.822,-10.57,-22.785,6.195
51728450,-0.521,-0.183,0.832,-11.06,-16.59,10.43
51728460,-0.544,-0.195,0.833,-15.277,-13.195,13.807
51728470,-0.526,-0.189,0.83,-20.562,-11.077,14.227
51728480,-0.519,-0.202,0.822,-26.915,-8.995,15.382
51728490,-0.509,-0.216,0.814,-32.795,-6.702,15.207
51728500,-0.516,-0.25,0.786,-37.17,-4.69,15.855
51728510,-0.514,-0.287,0.756,-36.75,-2.52,15.907
51728520,-0.523,-0.326,0.739,-30.922,0.367,15.33
51728530,-0.544,-0.341,0.731,-21.997,2.432,13.3
51728540,-0.549,-0.331,0.745,-13.02,2.975,10.307
51728550,-0.533,-0.32,0.755,-4.847,1.942,7.63
51728560,-0.509,-0.298,0.773,3.027,1.12,5.407
51728570,-0.502,-0.282,0.783,8.715,0.472,5.162
51728580,-0.508,-0.258,0.792,12.442,0.227,6.177
51728580,-0.522,-0.241,0.792,15.312,-0.332,6.825
51728600,-0.505,-0.208,0.793,18.427,-0.805,7.42
51728600,-0.503,-0.179,0.798,19.81,0.297,8.89
51728620,-0.52,-0.155,0.797,17.43,2.712,8.452
51728620,-0.497,-0.115,0.8,12.355,6.86,4.655
51728640,-0.517,-0.134,0.774,7.175,10.342,4.2
51728640,-0.53,-0.141,0.776,6.265,12.932,3.307
51728660,-0.55,-0.135,0.78,3.78,13.667,2.905
51728660,-0.573,-0.146,0.803,2.572,14.07,0.192
51728670,-0.577,-0.123,0.835,-1.172,14.245,-2.87
51728680,-0.614,-0.155,0.839,-6.037,12.582,-3.972
51728690,-0.596,-0.134,0.882,-9.625,10.885,-6.457
51728700,-0.609,-0.122,0.895,-18.917,10.255,-5.04
51728710,-0.616,-0.108,0.907,-30.642,11.777,-6.807
51728720,-0.615,-0.103,0.879,-47.442,16.047,-7.7
51728730,-0.634,-0.151,0.846,-62.51,22.592,-7.63
51728740,-0.669,-0.163,0.822,-77.28,33.285,-9.327
51728750,-0.701,-0.177,0.778,-94.412,45.255,-10.832
51728760,-0.687,-0.161,0.724,-111.842,58.712,-13.422
51728770,-0.77,-0.26,0.653,-121.887,67.392,-11.147
51728780,-0.866,-0.282,0.612,-128.765,72.03,-9.642
51728790,-0.92,-0.224,0.567,-141.452,66.377,-10.447
51728800,-0.95,-0.319,0.48,-142.992,53.427,-8.575
51728810,-0.907,-0.364,0.432,-129.692,38.412,-2.537
51728820,-1.067,-0.49,0.432,-98.385,14.157,18.427
51728830,-0.895,-0.195,0.597,-89.302,-4.69,2.152
51728840,-0.827,-0.197,0.529,-99.767,-18.707,2.292
51728850,-0.741,-0.335,0.547,-90.93,-26.145,7.56
51728860,-0.672,-0.351,0.541,-78.592,-30.117,7.665
51728870,-0.615,-0.333,0.602,-56.105,-29.837,3.465
51728880,-0.578,-0.276,0.685,-41.125,-28.577,0.717
51728890,-0.562,-0.274,0.708,-33.775,-29.12,0.437
51728900,-0.506,-0.247,0.738,-32.602,-27.807,-1.452
51728910,-0.478,-0.258,0.736,-32.147,-24.587,-2.012
51728920,-0.479,-0.265,0.751,-32.62,-19.18,1.645
51728930,-0.485,-0.272,0.74,-36.592,-12.39,6.527
51728940,-0.497,-0.306,0.731,-37.835,-3.832,9.117
51728950,-0.523,-0.307,0.731,-40.617,4.812,11.252
51728960,-0.581,-0.364,0.702,-40.232,11.112,13.737
51728970,-0.575,-0.375,0.714,-33.582,16.625,15.662
51728980,-0.633,-0.373,0.72,-28.42,20.58,21.945
51728990,-0.694,-0.387,0.724,-24.797,22.33,24.727
51729000,-0.716,-0.385,0.725,-25.252,21.892,22.26
51729010,-0.729,-0.395,0.716,-27.492,20.177,19.442
51729010,-0.799,-0.484,0.651,-24.395,15.382,19.88
51729030,-0.781,-0.433,0.677,-10.885,8.242,13.807
51729030,-0.751,-0.38,0.693,-6.247,1.47,7
51729050,-0.766,-0.414,0.662,-4.917,-5.635,9.835
51729050,-0.735,-0.425,0.635,0.245,-11.06,9.012
51729070,-0.708,-0.408,0.636,10.15,-13.737,4.882
51729070,-0.687,-0.357,0.647,18.427,-14.35,0.367
51729080,-0.688,-0.333,0.655,22.225,-15.295,1.19
51729090,-0.66,-0.293,0.669,19.722,-16.24,6.142
51729100,-0.656,-0.316,0.628,15.47,-16.87,13.842
51729110,-0.635,-0.329,0.625,19.862,-14.315,14.56
51729120,-0.627,-0.262,0.667,18.322,-8.557,12.53
51729130,-0.662,-0.237,0.66,6.685,-4.952,14.07
51729140,-0.675,-0.258,0.631,-3.85,-2.94,14.665
51729150,-0.672,-0.272,0.616,-10.552,-2.38,14.875
51729160,-0.686,-0.276,0.598,-16.94,-2.135,16.485
51729170,-0.695,-0.284,0.582,-21.857,-1.942,17.78
51729180,-0.707,-0.294,0.584,-25.585,-1.47,17.465
51729190,-0.733,-0.31,0.596,-29.96,-2.45,15.365
51729200,-0.748,-0.324,0.596,-35.157,-5.897,11.637
51729210,-0.745,-0.342,0.6,-40.512,-11.777,8.085
51729220,-0.766,-0.375,0.582,-45.307,-18.882,6.3
51729230,-0.763,-0.393,0.566,-48.527,-26.057,1.557
51729240,-0.762,-0.407,0.549,-49.35,-33.53,-3.552
51729250,-0.739,-0.416,0.534,-46.777,-41.44,-6.877
51729260,-0.694,-0.41,0.546,-41.737,-47.915,-10.535
51729270,-0.67,-0.402,0.57,-36.75,-53.462,-14.437
51729280,-0.68,-0.419,0.584,-30.52,-60.147,-17.657
51729290,-0.654,-0.435,0.605,-22.12,-68.652,-22.942
51729300,-0.611,-0.443,0.641,-11.952,-76.772,-27.685
51729310,-0.579,-0.432,0.686,-3.482,-83.912,-31.097
51729320,-0.548,-0.419,0.722,0.14,-90.055,-34.195
51729330,-0.479,-0.427,0.724,0.42,-94.185,-35.7
51729330,-0.408,-0.438,0.733,0.875,-92.172,-35.07
51729350,-0.345,-0.449,0.774,0.682,-85.05,-32.217
51729350,-0.076,-0.472,0.807,-0.402,-62.02,-23.975
51729370,-0.136,-0.584,0.911,4.777,-22.995,0.91
51729370,-0.38,-0.604,0.836,4.655,3.657,28.665
51729390,-0.685,-0.558,0.815,16.047,12.845,39.917
51729390,-0.768,-0.556,0.826,24.675,0.07,31.955
51729410,-0.591,-0.524,0.81,33.46,-10.255,19.18
51729410,-0.513,-0.512,0.798,41.562,-11.007,18.165
51729420,-0.593,-0.469,0.797,45.447,-6.965,20.93
51729430,-0.67,-0.379,0.82,43.4,-10.71,17.535
51729440,-0.619,-0.349,0.792,34.842,-18.742,9.625
51729450,-0.549,-0.41,0.747,30.065,-23.66,3.535
51729460,-0.49,-0.393,0.744,29.767,-22.855,4.305
51729470,-0.442,-0.368,0.758,29.925,-16.257,9.047
51729480,-0.378,-0.337,0.774,27.037,-2.205,16.222
51729490,-0.367,-0.309,0.791,20.09,18.112,23.922
51729500,-0.436,-0.321,0.791,12.652,40.285,32.357
51729510,-0.513,-0.327,0.803,5.74,57.855,38.867
51729520,-0.607,-0.365,0.79,2.082,67.06,41.125
51729530,-0.685,-0.406,0.791,5.635,67.305,40.425
51729540,-0.723,-0.43,0.787,15.365,60.637,38.745
51729550,-0.748,-0.463,0.769,29.242,49.157,37.712
51729560,-0.775,-0.455,0.745,48.93,35.647,39.462
51729570,-0.735,-0.358,0.772,66.22,22.207,38.062
51729580,-0.695,-0.305,0.77,75.337,11.935,35
51729590,-0.626,-0.277,0.762,80.255,7.402,29.592
51729600,-0.578,-0.267,0.757,83.282,9.38,26.687
51729610,-0.528,-0.227,0.731,85.277,15.96,27.317
51729620,-0.545,-0.221,0.725,88.217,25.41,32.48
51729630,-0.562,-0.182,0.725,85.925,35.822,34.58
51729640,-0.587,-0.168,0.7,81.112,43.995,36.872
51729650,-0.568,-0.146,0.682,78.417,52.15,39.917
51729660,-0.617,-0.141,0.666,78.155,59.535,43.89
51729670,-0.663,-0.116,0.652,78.242,62.457,43.242
51729680,-0.652,-0.091,0.634,78.452,63.682,41.282
51729690,-0.678,-0.088,0.611,77.927,62.912,40.985
51729700,-0.707,-0.089,0.602,79.537,61.04,40.617
51729710,-0.715,-0.08,0.61,83.02,58.205,41.58
51729720,-0.734,-0.075,0.616,87.762,53.41,42.577
51729730,-0.722,-0.049,0.641,89.775,50.12,42.052
51729740,-0.737,-0.004,0.654,85.33,47.53,39.392
51729750,-0.752,-0.003,0.639,75.757,43.4,35.857
51729760,-0.747,-0.003,0.617,69.615,39.515,33.495
51729760,-0.74,0.002,0.616,67.095,36.907,33.635
51729780,-0.788,0.005,0.593,64.68,32.69,34.3
51729780,-0.747,0.042,0.573,62.58,28.84,31.762
51729800,-0.695,0.08,0.551,56.647,29.067,30.537
51729800,-0.717,0.079,0.518,51.03,31.43,32.06
51729820,-0.73,0.097,0.497,49.752,33.337,33.845
51729820,-0.638,0.138,0.487,48.545,38.08,36.925
51729830,-0.576,0.184,0.479,43.942,50.785,41.93
51729840,-0.613,0.221,0.455,32.095,69.265,46.305
51729850,-0.692,0.218,0.444,17.027,86.117,46.48
51729860,-0.751,0.204,0.427,1.837,98.017,46.882
51729870,-0.839,0.179,0.404,-8.05,100.415,51.065
51729880,-0.936,0.164,0.421,-13.387,91.822,56.105
51729890,-0.942,0.163,0.416,-18.497,76.772,61.547
51729900,-0.922,0.136,0.403,-19.845,64.732,64.242
51729910,-0.955,0.099,0.408,-16.887,58.992,59.762
51729920,-0.991,0.101,0.429,-12.145,55.86,49.507
51729930,-0.989,0.109,0.473,-4.847,48.475,38.167
51729940,-0.985,0.089,0.484,4.095,37.765,27.405
51729950,-0.919,0.136,0.548,14.892,25.725,18.952
51729960,-0.901,0.147,0.564,15.54,13.195,19.232
51729970,-0.875,0.161,0.588,15.435,4.007,17.85
51729980,-0.863,0.153,0.588,10.622,-2.432,17.797
51729990,-0.847,0.119,0.593,7.63,-4.725,17.22
51730000,-0.842,0.149,0.594,1.26,-2.712,17.552
51730010,-0.894,0.103,0.564,-1.75,-1.47,14.472
51730020,-0.905,0.099,0.639,3.727,-2.065,6.912
51730030,-0.965,0.086,0.617,-4.095,-8.522,9.222
51730040,-0.961,0.059,0.603,-4.97,-18.042,8.907
51730050,-0.966,0.055,0.612,1.382,-27.685,6.055
51730060,-0.948,0.07,0.618,6.457,-37.502,4.62
51730070,-0.876,0.078,0.63,12.705,-44.712,4.427
51730080,-0.797,0.124,0.673,16.642,-44.327,5.687
51730080,-0.744,0.16,0.701,14.105,-34.685,3.517
51730100,-0.743,0.188,0.711,0.192,-19.495,-0.297
51730100,-0.826,0.131,0.651,-17.027,-6.615,-3.99
51730120,-0.894,0.09,0.654,-19.932,0.192,-12.687
51730120,-0.953,0.075,0.61,-27.545,-2.485,-18.095
51730140,-0.973,0.021,0.591,-25.287,-14.665,-22.802
51730140,-0.717,-0.016,0.574,-17.447,-21.297,-24.08
51730160,-0.739,-0.026,0.624,-5.88,-7.962,-17.01
51730160,-0.916,0.044,0.658,6.93,1.067,-11.077
51730170,-0.997,0.079,0.624,11.795,-7.122,-5.215
51730180,-0.965,0.073,0.578,16.24,-22.05,0.7
51730190,-0.828,0.121,0.564,21.087,-30.747,5.162
51730200,-0.721,0.162,0.564,19.67,-26.512,3.92
51730210,-0.708,0.176,0.54,11.13,-12.022,-0.017
51730220,-0.765,0.13,0.502,2.73,3.517,-2.012
51730230,-0.777,0.119,0.473,1.365,13.3,-1.137
51730240,-0.811,0.141,0.455,0.437,18.287,3.342
51730250,-0.868,0.111,0.453,-4.445,19.477,6.93
51730260,-0.898,0.094,0.411,-2.38,18.567,5.565
51730270,-0.873,0.139,0.462,4.83,15.365,2.8
51730280,-0.87,0.139,0.461,1.732,13.755,0.35
51730290,-0.931,0.086,0.445,0.997,7.455,-3.85
51730300,-0.928,0.089,0.455,6.597,-3.237,-3.237
51730310,-0.898,0.111,0.507,16.677,-15.785,1.715
51730320,-0.897,0.174,0.565,21.157,-24.185,1.89
51730330,-0.872,0.186,0.603,18.41,-32.987,0.77
51730340,-0.803,0.17,0.611,12.495,-34.142,-2.292
51730350,-0.854,0.182,0.642,9.397,-30.625,-5.442
51730360,-0.885,0.177,0.667,4.2,-33.267,-10.5
51730370,-0.753,0.176,0.684,-0.07,-33.39,-12.862
51730380,-0.781,0.174,0.721,-5.145,-23.187,-10.255
51730390,-0.892,0.189,0.725,-13.247,-16.03,-12.162
51730400,-0.89,0.18,0.661,-24.325,-15.96,-15.032
51730410,-0.881,0.102,0.634,-28.472,-12.81,-19.057
51730420,-0.956,0.054,0.66,-25.952,-12.46,-20.807
51730430,-0.99,0.086,0.639,-16.607,-25.952,-24.675
51730440,-0.742,0.127,0.603,-10.535,-34.475,-24.92
51730450,-0.833,0.126,0.601,-12.512,-30.31,-22.365
51730460,-0.87,0.083,0.58,-14.437,-30.607,-27.195
51730470,-0.813,0.108,0.569,-13.177,-33.127,-26.897
51730480,-0.785,0.117,0.572,-11.935,-34.195,-25.462
51730490,-0.767,0.102,0.567,-14.437,-33.162,-23.975
51730500,-0.753,0.081,0.558,-16.782,-31.377,-23.065
51730510,-0.766,0.071,0.558,-16.607,-30.782,-20.23
51730510,-0.802,0.051,0.559,-16.87,-34.65,-14.42
51730530,-0.809,0.034,0.555,-16.17,-41.877,-8.505
51730530,-0.794,0.026,0.56,-13.475,-48.107,-5.302
51730550,-0.765,0.029,0.58,-12.302,-49.315,-4.655
51730550,-0.726,0.029,0.604,-13.282,-48.282,-6.877
51730570,-0.702,0.04,0.628,-14.77,-45.57,-6.825
51730570,-0.693,0.02,0.632,-14.472,-43.645,-4.777
51730580,-0.686,0.005,0.626,-12.425,-40.757,-2.222
51730590,-0.672,0.019,0.628,-9.03,-38.78,-4.305
51730600,-0.636,0.043,0.604,-10.535,-37.152,-5.757
51730610,-0.602,0.057,0.589,-9.45,-34.265,-5.617
51730620,-0.596,0.062,0.597,-8.872,-28.612,-3.71
51730630,-0.599,0.01,0.592,-9.467,-23.065,0.262
51730640,-0.599,0.002,0.648,-5.617,-13.125,3.062
51730650,-0.815,0.048,0.704,-3.167,-8.942,6.72
51730660,-0.867,0.054,0.703,-6.422,-16.765,6.755
51730670,-0.848,0.007,0.704,-5.337,-26.04,8.785
51730680,-0.84,0.046,0.736,-2.117,-29.435,8.47
51730690,-0.876,0.07,0.776,-1.277,-31.465,7.507
51730700,-0.881,0.093,0.801,-1.137,-33.197,4.97
51730710,-0.849,0.103,0.792,-3.237,-35.91,0.14
51730720,-0.791,0.108,0.763,-5.792,-37.292,-4.515
51730730,-0.725,0.122,0.735,-8.697,-36.575,-7.682
51730740,-0.631,0.134,0.704,-11.987,-32.917,-8.295
51730750,-0.561,0.129,0.692,-15.207,-26.775,-9.52
51730760,-0.515,0.103,0.675,-18.865,-17.885,-11.9
51730770,-0.502,0.059,0.671,-21.245,-8.277,-13.58
51730780,-0.543,0.028,0.69,-23.03,0.945,-13.93
51730790,-0.648,-0.024,0.659,-22.977,4.952,-10.027
51730800,-0.671,-0.016,0.699,-19.705,3.762,-7.945
51730810,-0.729,-0.044,0.721,-20.44,1.802,-9.082
51730820,-0.768,-0.051,0.74,-21.157,0.175,-10.202
51730830,-0.792,-0.055,0.772,-21.157,-3.22,-10.255
51730830,-0.794,-0.053,0.793,-20.877,-7.787,-8.767
51730850,-0.772,-0.032,0.794,-22.207,-12.792,-9.152
51730850,-0.705,-0.009,0.797,-23.712,-14.42,-11.777
51730870,-0.643,0,0.799,-26.11,-10.762,-14.07
51730870,-0.589,-0.008,0.803,-27.475,-1.715,-14.857
51730890,-0.53,-0.023,0.831,-26.285,13.895,-15.347
51730890,-0.496,-0.022,0.854,-29.102,35.612,-19.582
51730910,-0.485,-0.055,0.876,-37.012,60.515,-25.305
51730910,-0.471,-0.117,0.871,-46.497,83.615,-27.632
51730920,-0.486,-0.236,0.706,-50.645,105.857,-21.07
51730930,-0.707,-0.229,0.626,-34.842,122.097,-7.822
51730940,-0.897,-0.249,0.587,-25.585,102.532,4.83
51730950,-0.78,-0.267,0.53,-17.167,76.125,20.877
51730960,-0.708,-0.249,0.568,9.52,57.662,38.885
51730970,-0.812,-0.104,0.595,32.007,46.515,51.31
51730980,-0.794,-0.038,0.667,35.857,34.16,48.352
51730990,-0.602,-0.252,0.569,32.025,30.607,39.725
51731000,-0.375,-0.26,0.495,63.717,62.072,36.137
51731010,-0.539,-0.094,0.583,107.502,101.01,45.587
51731020,-0.784,-0.021,0.572,119.385,124.11,62.842
51731030,-0.826,0.021,0.56,125.667,135.135,69.545
51731040,-0.888,0.047,0.582,137.462,137.27,73.307
51731050,-0.987,0.146,0.599,139.982,131.67,74.322
51731060,-1.063,0.225,0.595,131.635,119.437,67.007
51731070,-1.098,0.251,0.558,116.41,100.835,53.76
51731080,-1.12,0.236,0.515,99.732,78.137,38.64
51731090,-1.138,0.243,0.499,87.482,53.165,22.942
51731100,-1.15,0.269,0.475,73.167,26.495,5.845
51731110,-1.119,0.262,0.408,55.772,-3.535,-11.55
51731120,-1.065,0.19,0.323,44.555,-34.002,-23.45
51731130,-0.967,0.18,0.306,41.772,-59.885,-29.487
51731140,-0.901,0.177,0.284,40.512,-78.785,-30.555
51731150,-0.845,0.179,0.316,43.155,-88.83,-30.537
51731160,-0.781,0.224,0.353,41.055,-88.9,-32.69
51731170,-0.799,0.182,0.382,37.975,-83.86,-32.777
51731180,-0.817,0.208,0.448,34.755,-77.42,-34.527
51731190,-0.822,0.213,0.45,22.75,-73.307,-39.935
51731200,-0.865,0.164,0.466,23.152,-71.242,-37.625
51731210,-0.826,0.19,0.481,20.965,-70.962,-39.917
51731220,-0.819,0.181,0.475,18.112,-70.35,-40.652
51731230,-0.789,0.188,0.471,14.367,-67.585,-44.66
51731240,-0.801,0.169,0.486,12.372,-65.187,-45.78
51731250,-0.799,0.177,0.475,5.197,-63.07,-49.437
51731250,-0.807,0.173,0.464,-0.227,-61.845,-51.047
51731260,-0.813,0.157,0.468,-2.712,-61.985,-50.4
51731270,-0.8,0.162,0.468,-6.335,-63.665,-48.107
51731280,-0.766,0.16,0.452,-10.605,-63.192,-44.625
51731290,-0.731,0.162,0.468,-13.492,-59.027,-39.76
51731300,-0.741,0.173,0.485,-21.507,-51.87,-35.332
51731310,-0.775,0.16,0.475,-31.92,-44.555,-33.145
51731320,-0.806,0.129,0.484,-38.08,-38.675,-30.24
51731330,-0.805,0.155,0.504,-46.462,-34.842,-28.892
51731340,-0.85,0.131,0.526,-52.955,-32.62,-25.952
51731350,-0.888,0.128,0.562,-58.432,-33.722,-25.112
51731360,-0.896,0.142,0.576,-69.79,-37.415,-28.735
51731370,-0.898,0.138,0.576,-82.477,-42.14,-33.757
51731380,-0.895,0.105,0.56,-91.245,-47.022,-39.41
51731390,-0.913,0.077,0.572,-94.587,-57.242,-43.33
51731400,-0.933,0.064,0.566,-97.212,-74.357,-44.1
51731410,-0.907,0.022,0.535,-97.86,-94.097,-40.46
51731420,-0.823,-0.026,0.515,-90.16,-106.715,-36.05
51731430,-0.752,-0.049,0.534,-75.355,-112.682,-32.41
51731440,-0.71,-0.031,0.577,-62.352,-112.857,-29.54
51731450,-0.669,-0.013,0.637,-54.81,-109.847,-28.315
51731460,-0.625,-0.024,0.679,-53.235,-103.792,-27.982
51731470,-0.586,-0.049,0.724,-53.707,-94.937,-28.07
51731480,-0.584,-0.076,0.76,-54.705,-85.242,-26.477
51731490,-0.598,-0.108,0.774,-55.58,-77.647,-22.715
51731500,-0.626,-0.165,0.776,-52.237,-74.095,-16.52
51731510,-0.62,-0.179,0.778,-47.18,-72.572,-12.81
51731520,-0.599,-0.168,0.788,-42.77,-70.91,-11.462
51731530,-0.606,-0.175,0.791,-38.167,-70.402,-10.552
51731540,-0.632,-0.197,0.81,-31.605,-72.012,-11.48
51731550,-0.65,-0.191,0.833,-27.842,-78.032,-13.335
51731560,-0.641,-0.189,0.851,-26.687,-88.217,-15.662
51731570,-0.65,-0.225,0.841,-24.552,-100.082,-17.762
51731580,-0.604,-0.239,0.853,-21.84,-111.825,-20.055
51731580,-0.556,-0.267,0.848,-19.512,-124.635,-18.217
51731600,-0.48,-0.265,0.867,-15.662,-132.912,-20.457
51731600,-0.318,-0.32,0.919,-14.875,-134.365,-19.46
51731620,-0.137,-0.368,0.854,-12.862,-118.002,-11.987
51731620,-0.079,-0.231,1.019,-0.962,-79.8,-0.437
51731640,-0.153,-0.298,0.988,-3.605,-36.645,15.12
51731640,-0.294,-0.315,1.009,-1.785,-3.22,21.297
51731660,-0.491,-0.301,1.003,2.065,8.907,27.702
51731660,-0.585,-0.315,0.928,5.95,-0.647,31.08
51731670,-0.557,-0.308,0.909,17.395,-17.342,31.097
51731680,-0.559,-0.27,0.89,24.605,-31.937,28.49
51731690,-0.47,-0.208,0.922,25.585,-42.77,19.95
51731700,-0.456,-0.211,0.905,21.997,-47.565,14.087
51731710,-0.409,-0.196,0.911,21.227,-48.3,9.415
51731720,-0.367,-0.186,0.925,20.615,-46.445,10.115
51731730,-0.338,-0.171,0.895,18.025,-40.932,14.385
51731740,-0.369,-0.172,0.871,18.725,-31.027,18.637
51731750,-0.375,-0.163,0.874,18.637,-21.42,21.595
51731760,-0.348,-0.159,0.885,17.657,-11.497,22.592
51731770,-0.274,-0.166,0.876,14.315,-0.892,22.225
51731780,-0.176,-0.215,0.843,13.072,16.362,23.572
51731790,-0.087,-0.266,0.815,17.377,47.967,27.282
51731800,-0.105,-0.271,0.831,27.545,92.715,33.74
51731810,-0.233,-0.249,0.846,38.097,139.982,42.752
51731820,-0.373,-0.221,0.826,47.18,182.787,53.48
51731830,-0.513,-0.195,0.799,55.282,217.98,63.647
51731840,-0.692,-0.172,0.784,59.587,242.042,70.962
51731850,-0.846,-0.133,0.77,58.782,250.442,72.747
51731860,-0.993,-0.14,0.693,57.47,242.427,75.687
51731870,-1.06,-0.138,0.64,61.635,222.057,78.312
51731880,-1.042,-0.099,0.611,68.372,195.982,79.87
51731890,-1.009,-0.053,0.584,73.867,167.895,81.165
51731900,-0.947,-0.015,0.555,78.33,142.66,80.78
51731910,-0.85,0.038,0.521,81.567,123.147,78.05
51731920,-0.75,0.103,0.526,82.162,112.437,75.425
51731920,-0.673,0.16,0.543,78.54,112.175,71.54
51731940,-0.647,0.201,0.569,70.052,120.505,64.382
51731940,-0.705,0.205,0.585,58.502,128.537,56.577
51731960,-0.871,0.213,0.616,46.287,124.302,44.94
51731960,-0.784,0.251,0.547,31.202,105.997,31.027
51731980,-0.603,0.216,0.513,23.467,105.682,27.895
51731980,-0.708,0.175,0.516,26.127,114.66,28.052
51732000,-0.883,0.189,0.523,27.877,107.852,24.85
51732000,-0.893,0.187,0.495,29.732,85.365,21.752
51732010,-0.78,0.202,0.469,35.77,65.52,23.432
51732020,-0.756,0.225,0.464,43.137,58.415,29.925
51732030,-0.781,0.233,0.517,53.69,57.19,32.182
51732040,-0.753,0.303,0.527,47.355,63.14,27.51
51732050,-0.825,0.258,0.491,40.862,67.427,27.44
51732060,-0.905,0.272,0.513,37.555,68.285,27.737
51732070,-1.017,0.253,0.462,27.422,61.705,24.115
51732080,-1,0.228,0.455,21.612,45.955,17.08
51732090,-0.923,0.235,0.433,21.035,35.91,11.06
51732100,-0.93,0.242,0.437,21.035,29.032,8.207
51732110,-0.884,0.252,0.426,19.442,21.367,6.772
51732120,-0.837,0.24,0.415,19.075,17.745,8.645
51732130,-0.843,0.237,0.416,19.74,17.815,13.107
51732140,-0.874,0.252,0.432,22.155,17.832,17.132
51732150,-0.899,0.256,0.446,23.432,15.907,18.69
51732160,-0.897,0.258,0.46,24.167,13.23,18.76
51732170,-0.904,0.256,0.483,25.725,8.435,18.165
51732180,-0.892,0.292,0.47,24.027,3.99,18.112
51732190,-0.879,0.308,0.486,22.225,-0.735,17.99
51732200,-0.872,0.305,0.475,18.165,-3.115,16.8
51732210,-0.848,0.301,0.448,11.97,-3.062,15.89
51732220,-0.849,0.273,0.43,10.99,-0.595,18.287
51732230,-0.803,0.302,0.425,8.872,2.73,18.69
51732240,-0.864,0.278,0.428,7.455,6.597,20.282
51732250,-0.899,0.281,0.428,6.685,6.842,19.565
51732260,-0.919,0.267,0.418,3.955,3.657,17.867
51732270,-0.942,0.258,0.412,4.987,-2.205,17.692
51732280,-0.916,0.296,0.407,7.525,-9.572,19.845
51732290,-0.859,0.284,0.418,9.52,-12.565,20.3
51732300,-0.855,0.275,0.403,6.632,-9.187,18.13
51732310,-0.832,0.273,0.396,3.01,-3.692,13.772
51732320,-0.836,0.309,0.432,0.857,4.235,9.94
51732330,-0.91,0.311,0.436,-5.932,10.727,9.415
51732330,-1.019,0.287,0.433,-12.302,9.257,5.285
51732350,-1.021,0.235,0.397,-18.777,-1.855,-3.535
51732350,-1.002,0.191,0.379,-14.297,-20.002,-10.202
51732370,-0.989,0.168,0.367,-9.31,-40.705,-6.09
51732370,-1.006,0.14,0.353,2.45,-62.352,-1.347
51732390,-0.98,0.159,0.39,20.335,-82.32,3.692
51732390,-0.886,0.209,0.447,34.545,-98.472,6.632
51732410,-0.768,0.275,0.496,42.245,-105.91,9.695
51732410,-0.68,0.353,0.528,44.31,-96.495,14.28
51732420,-0.74,0.353,0.532,34.947,-75.722,18.2
51732430,-0.813,0.323,0.552,23.082,-54.127,15.277
51732440,-0.943,0.32,0.566,8.942,-43.102,8.715
51732450,-0.783,0.326,0.554,-2.327,-35.945,-0.35
51732460,-0.73,0.375,0.584,-7.105,-14.175,-3.972
51732470,-0.858,0.323,0.532,-19.162,7.962,-11.182
51732480,-0.894,0.258,0.459,-24.307,17.885,-19.88
51732490,-0.872,0.189,0.407,-23.117,12.285,-16.73
51732500,-0.806,0.152,0.384,-11.427,6.72,-6.002
51732510,-0.871,0.212,0.433,2.642,1.347,3.307
51732520,-0.946,0.241,0.464,10.692,-7.77,9.502
51732530,-0.908,0.278,0.49,15.767,-20.335,13.107
51732540,-0.832,0.303,0.503,14.927,-27.177,16.187
51732550,-0.791,0.34,0.507,9.24,-24.045,13.842
51732560,-0.773,0.337,0.5,-1.557,-14.63,8.837
51732570,-0.792,0.318,0.472,-12.18,-4.2,4.917
51732580,-0.84,0.291,0.431,-22.4,4.252,0.035
51732590,-0.858,0.253,0.417,-28.997,8.715,-5.495
51732600,-0.857,0.264,0.429,-28.91,9.607,-8.575
51732610,-0.859,0.267,0.44,-28.682,5.897,-8.347
51732620,-0.858,0.266,0.446,-27.037,0.787,-5.897
51732630,-0.855,0.274,0.456,-25.007,-4.917,-3.517
51732640,-0.876,0.268,0.463,-23.187,-10.447,-1.155
51732650,-0.858,0.274,0.465,-23.502,-16.992,-2.747
51732660,-0.813,0.324,0.429,-24.22,-18.48,-4.462
51732670,-0.866,0.227,0.43,-28.98,-19.092,-4.69
51732670,-0.805,0.205,0.488,-22.802,-20.212,-4.655
51732690,-0.852,0.318,0.553,-13.877,-22.995,-1.19
51732690,-0.913,0.315,0.547,-18.13,-28.77,-1.68
51732710,-0.814,0.239,0.54,-20.632,-36.82,-4.322
51732710,-0.811,0.311,0.579,-12.88,-40.46,-1.907
51732730,-0.85,0.322,0.566,-16.45,-45.167,-2.222
51732730,-0.781,0.277,0.541,-20.37,-50.137,-6.037
51732750,-0.779,0.271,0.54,-19.915,-53.935,-4.672
51732750,-0.787,0.269,0.535,-21.122,-57.295,-2.747
51732760,-0.75,0.261,0.538,-22.19,-58.24,-1.557
51732770,-0.698,0.276,0.563,-22.015,-55.037,0.91
51732780,-0.687,0.31,0.59,-25.777,-46.672,3.867
51732790,-0.721,0.3,0.611,-33.022,-36.977,5.057
51732800,-0.771,0.27,0.626,-39.462,-29.662,4.83
51732810,-0.822,0.222,0.607,-42.77,-27.93,3.657
51732820,-0.833,0.182,0.594,-38.972,-30.205,0.91
51732830,-0.768,0.194,0.606,-31.325,-34.265,-2.415
51732840,-0.713,0.233,0.636,-25.76,-34.877,-4.515
51732850,-0.691,0.238,0.635,-24.885,-31.377,-6.877
51732860,-0.671,0.226,0.626,-27.86,-21.997,-10.657
51732870,-0.69,0.211,0.615,-30.1,-11.147,-14.805
51732880,-0.716,0.228,0.632,-28.822,-1.575,-18.165
51732890,-0.747,0.241,0.627,-32.672,2.975,-19.67
51732900,-0.734,0.235,0.602,-38.325,5.512,-20.195
51732910,-0.735,0.265,0.545,-44.345,10.255,-19.407
51732920,-0.806,0.124,0.531,-56.717,8.242,-18.252
51732930,-0.686,0.105,0.545,-49.962,10.762,-14.052
51732940,-0.759,0.188,0.65,-38.132,13.755,-5.425
51732950,-0.822,0.181,0.664,-42.875,13.177,-2.642
51732960,-0.834,0.124,0.651,-46.34,11.672,-4.235
51732970,-0.842,0.109,0.667,-41.58,8.12,-5.145
51732980,-0.834,0.151,0.708,-35.367,1.837,-4.445
51732990,-0.815,0.192,0.705,-35.735,-5.075,-4.865
51733000,-0.791,0.187,0.688,-40.337,-11.865,-8.347
51733010,-0.791,0.172,0.656,-47.792,-15.942,-12.495
51733020,-0.773,0.143,0.642,-52.57,-19.127,-10.447
51733030,-0.782,0.104,0.615,-53.707,-20.492,-8.54
51733040,-0.714,0.112,0.639,-53.165,-17.517,-11.427
51733050,-0.697,0.102,0.641,-53.497,-11.917,-15.855
51733060,-0.726,0.085,0.617,-52.832,-5.285,-19.075
51733070,-0.721,0.066,0.595,-50.96,-2.817,-22.347
51733080,-0.587,0.026,0.609,-49.122,5.337,-23.905
51733080,-0.683,0.046,0.64,-42.857,20.335,-22.715
51733100,-0.778,0.08,0.628,-44.73,29.417,-24.937
51733100,-0.753,0.073,0.628,-49.56,35.507,-25.812
51733120,-0.875,-0.032,0.596,-46.935,36.575,-16.537
51733120,-0.92,0.006,0.623,-43.4,31.675,-16.38
51733140,-0.902,0.007,0.625,-44.94,22.575,-19.407
51733140,-0.921,-0.03,0.645,-39.742,13.107,-12.162
51733160,-0.869,-0.015,0.643,-42.595,4.69,-11.182
51733160,-0.821,-0.05,0.637,-42.857,2.905,-13.947
51733170,-0.824,-0.072,0.643,-39.637,5.967,-15.032
51733180,-0.844,-0.068,0.659,-36.68,9.73,-16.52
51733190,-0.851,-0.058,0.672,-34.37,11.777,-19.267
51733200,-0.829,-0.072,0.673,-34.107,14.087,-22.732
51733210,-0.823,-0.133,0.648,-33.6,16.642,-24.885
51733220,-0.831,-0.185,0.641,-28.105,18.655,-25.97
51733230,-0.829,-0.18,0.653,-18.2,17.062,-24.552
51733240,-0.89,-0.229,0.629,-7.35,12.267,-11.847
51733250,-0.89,-0.243,0.629,5.18,4.445,-0.857
51733260,-0.86,-0.221,0.624,18.917,-2.415,4.9
51733270,-0.864,-0.181,0.628,29.137,-5.862,8.347
51733280,-0.885,-0.145,0.594,38.535,-9.502,8.785
51733290,-0.822,-0.111,0.575,49.227,-13.387,6.615
51733300,-0.701,-0.095,0.574,59.657,-11.357,6.212
51733310,-0.608,-0.132,0.623,69.387,-6.44,8.085
51733320,-0.553,-0.224,0.635,74.095,6.23,15.295
51733330,-0.515,-0.144,0.617,93.292,35.647,25.515
51733340,-0.627,-0.063,0.686,117.46,58.24,33.775
51733350,-0.702,0.016,0.698,122.237,71.89,38.342
51733360,-0.762,0.042,0.694,120.47,77.42,37.52
51733370,-0.836,0.053,0.657,118.72,73.832,32.9
51733380,-0.886,0.075,0.653,118.492,63.175,27.475
51733390,-0.928,0.12,0.63,110.285,45.815,19.845
51733400,-0.965,0.155,0.614,99.085,24.185,7.945
51733410,-1,0.173,0.579,85.382,0.962,-6.842
51733420,-1.016,0.166,0.561,70.647,-22.82,-24.447
51733420,-1.026,0.181,0.57,53.9,-46.637,-43.137
51733440,-1.045,0.181,0.569,36.627,-71.277,-60.13
51733440,-1.032,0.192,0.573,19.512,-92.645,-74.375
51733460,-0.955,0.201,0.563,0.297,-109.165,-88.935
51733460,-0.863,0.198,0.501,-21.507,-121.38,-100.765
51733480,-0.768,0.181,0.431,-37.065,-128.572,-105.385
51733480,-0.658,0.218,0.436,-54.145,-127.225,-108.762
51733500,-0.636,0.228,0.383,-72.852,-125.195,-105.507
51733500,-0.648,0.16,0.35,-86.467,-123.445,-101.342
51733510,-0.641,0.072,0.307,-91.962,-120.05,-95.935
51733520,-0.623,0.008,0.305,-86.52,-111.562,-89.827
51733530,-0.626,-0.035,0.339,-72.275,-100.695,-85.47
51733540,-0.664,-0.052,0.368,-55.195,-90.265,-80.132
51733550,-0.665,-0.032,0.435,-36.82,-80.465,-76.702
51733560,-0.644,0.015,0.501,-23.1,-71.435,-74.2
51733570,-0.683,0,0.544,-14.787,-66.22,-68.635
51733580,-0.712,0.023,0.589,-14.245,-63.472,-65.222
51733590,-0.73,-0.004,0.626,-16.747,-62.93,-60.655
51733600,-0.719,-0.035,0.652,-21.35,-60.987,-54.232
51733610,-0.723,-0.039,0.681,-27.825,-59.342,-48.072
51733620,-0.724,-0.094,0.687,-34.422,-56.227,-42.157
51733630,-0.697,-0.083,0.704,-39.672,-51.345,-39.165
51733640,-0.723,-0.144,0.731,-40.792,-47.932,-34.44
51733650,-0.709,-0.163,0.743,-42.21,-46.217,-31.64
51733660,-0.682,-0.182,0.763,-40.95,-44.87,-31.15
51733670,-0.693,-0.229,0.778,-35.857,-45.08,-29.435
51733680,-0.689,-0.271,0.794,-27.037,-46.55,-29.575
51733690,-0.676,-0.289,0.823,-14.735,-50.12,-29.872
51733700,-0.672,-0.291,0.853,-0.402,-55.72,-29.26
51733710,-0.642,-0.281,0.873,11.567,-62.317,-30.747
51733720,-0.6,-0.272,0.888,22.067,-67.357,-32.76
51733730,-0.548,-0.246,0.894,29.697,-69.912,-36.067
51733740,-0.491,-0.215,0.886,34.16,-69.545,-39.322
51733750,-0.438,-0.196,0.878,37.222,-65.66,-40.46
51733760,-0.4,-0.177,0.877,39.042,-58.485,-37.8
51733770,-0.373,-0.146,0.871,36.96,-48.317,-32.777
51733780,-0.373,-0.125,0.858,30.922,-35.735,-26.88
51733790,-0.368,-0.138,0.831,24.692,-20.65,-21.28
51733800,-0.412,-0.163,0.828,25.025,-5.88,-7.227
51733810,-0.422,-0.119,0.816,18.777,7.962,3.43
51733820,-0.481,-0.126,0.794,16.485,20.667,10.272
51733830,-0.576,-0.15,0.804,15.942,29.47,14.595
51733830,-0.641,-0.138,0.803,12.442,30.8,14.192
51733850,-0.669,-0.14,0.793,9.222,27.457,12.53
51733850,-0.688,-0.156,0.785,8.645,21.49,11.777
51733870,-0.701,-0.153,0.784,9.922,15.085,10.622
51733870,-0.699,-0.134,0.787,11.287,8.627,9.292
51733890,-0.684,-0.122,0.79,12.477,3.062,7.367
51733890,-0.658,-0.121,0.794,15.032,-1.505,6.317
51733910,-0.631,-0.103,0.8,16.73,-3.972,7.542
51733910,-0.601,-0.077,0.795,15.977,-4.795,8.837
51733920,-0.584,-0.066,0.789,15.557,-2.747,9.03
51733930,-0.581,-0.06,0.797,15.47,-0.385,7.875
51733940,-0.589,-0.056,0.799,14.647,1.19,8.382
51733950,-0.584,-0.05,0.793,12.915,1.522,9.485
51733960,-0.569,-0.048,0.785,10.867,2.572,9.817
51733970,-0.555,-0.051,0.773,9.712,4.392,10.902
51733980,-0.558,-0.052,0.766,8.505,7.455,13.93
51733990,-0.568,-0.055,0.757,7,10.675,17.045
51734000,-0.57,-0.047,0.759,5.88,14.017,18.305
51734010,-0.58,-0.045,0.761,5.95,15.05,21.962
51734020,-0.597,-0.033,0.786,5.81,14.262,29.855
51734030,-0.616,-0.022,0.8,-1.312,11.567,35.157
51734040,-0.61,-0.023,0.805,-10.342,10.43,32.987
51734050,-0.612,-0.057,0.791,-18.06,9.8,29.662
51734060,-0.63,-0.086,0.783,-20.212,8.295,29.732
51734070,-0.633,-0.111,0.787,-17.237,4.515,30.905
51734080,-0.623,-0.095,0.801,-13.685,0.875,30.87
51734090,-0.626,-0.118,0.805,-10.132,-3.482,30.502
51734100,-0.594,-0.115,0.847,-6.772,-4.305,27.3
51734110,-0.602,-0.154,0.843,-9.887,-4.69,27.475
51734120,-0.592,-0.152,0.874,-10.307,-4.095,23.222
51734130,-0.621,-0.181,0.88,-10.307,-5.775,17.99
51734140,-0.601,-0.169,0.934,-9.117,-7.91,10.465
51734150,-0.617,-0.214,0.908,-13.125,-13.055,6.667
51734160,-0.573,-0.217,0.941,-11.165,-17.482,-2.555
51734170,-0.567,-0.233,0.915,-13.352,-22.715,-5.582
51734170,-0.543,-0.25,0.906,-10.517,-27.86,-7.875
51734190,-0.516,-0.266,0.9,-5.582,-31.045,-8.015
51734190,-0.493,-0.254,0.885,-5.81,-32.812,-6.335
51734210,-0.457,-0.246,0.878,-5.04,-31.937,-7.262
51734210,-0.416,-0.244,0.877,-2.975,-27.685,-9.537
51734230,-0.389,-0.229,0.867,-4.06,-19.705,-9.187
51734230,-0.394,-0.243,0.857,-3.675,-10.727,-7.21
51734250,-0.393,-0.227,0.859,-4.147,-0.472,-5.53
51734250,-0.418,-0.224,0.855,-5.075,9.31,-2.345
51734260,-0.442,-0.223,0.857,-5.827,17.43,0.752
51734270,-0.48,-0.239,0.842,-6.51,21.21,4.97
51734280,-0.495,-0.236,0.833,-5.442,23.117,8.522
51734290,-0.502,-0.219,0.833,-3.657,24.307,11.69
51734300,-0.519,-0.204,0.832,-3.447,25.182,14.49
51734310,-0.502,-0.189,0.823,-5.337,26.145,15.96
51734320,-0.471,-0.187,0.807,-8.557,30.677,18.76
51734330,-0.459,-0.193,0.797,-10.675,40.425,22.137
51734340,-0.465,-0.192,0.785,-14.455,54.285,23.66
51734350,-0.537,-0.221,0.751,-20.107,67.83,23.905
51734360,-0.594,-0.255,0.737,-16.835,76.615,25.112
51734370,-0.727,-0.346,0.727,-4.882,73.797,39.917
51734380,-0.758,-0.31,0.727,5.11,65.537,41.072
51734390,-0.763,-0.264,0.737,17.097,56.402,31.797
51734400,-0.781,-0.244,0.762,28.035,46.795,24.832
51734410,-0.771,-0.209,0.757,33.565,35.122,18.165
51734420,-0.751,-0.175,0.777,41.912,23.957,12.827
51734430,-0.747,-0.136,0.788,47.355,13.37,11.287
51734440,-0.72,-0.086,0.779,49.437,3.36,7.997
