time[ms],accX[g],accY[g],accZ[g],Value 1,Value 2,Value 3
42505640,-0.356,0.207,0.919,0.822,-1.137,6.177
42505650,-0.356,0.216,0.922,1.137,3.815,8.592
42505660,-0.348,0.231,0.926,0.49,10.045,11.392
42505670,-0.348,0.239,0.918,-0.98,16.782,15.61
42505680,-0.35,0.251,0.913,-2.362,22.89,20.195
42505690,-0.339,0.263,0.894,-4.235,28.087,24.955
42505700,-0.322,0.274,0.889,-6.282,31.097,29.89
42505710,-0.307,0.284,0.899,-8.05,31.727,33.915
42505720,-0.297,0.295,0.914,-10.01,29.522,35.052
42505730,-0.27,0.298,0.925,-12.285,25.48,30.782
42505740,-0.261,0.283,0.952,-13.37,20.23,24.29
42505750,-0.264,0.268,0.978,-13.212,11.83,15.487
42505760,-0.263,0.261,0.998,-12.53,1.155,3.57
42505770,-0.256,0.228,1.002,-11.305,-10.202,-7.927
42505780,-0.253,0.19,0.99,-8.172,-20.632,-17.325
42505780,-0.228,0.195,0.978,-4.357,-27.457,-26.967
42505800,-0.212,0.21,0.968,-3.99,-26.565,-35.437
42505800,-0.211,0.212,0.964,-8.732,-17.57,-42.962
42505820,-0.248,0.202,0.972,-18.322,-2.502,-49.367
42505820,-0.278,0.189,0.968,-30.957,15.47,-54.512
42505830,-0.311,0.168,0.949,-44.012,34.772,-55.457
42505840,-0.366,0.139,0.938,-54.617,52.482,-51.555
42505850,-0.426,0.118,0.935,-66.29,66.71,-45.132
42505860,-0.5,0.094,0.915,-77.997,76.317,-35.84
42505870,-0.58,0.069,0.901,-86.432,77.7,-23.835
42505880,-0.621,0.059,0.891,-92.68,73.15,-13.125
42505890,-0.64,0.055,0.871,-96.985,64.067,-3.447
42505900,-0.641,0.052,0.848,-99.085,52.99,4.515
42505910,-0.656,0.055,0.829,-98.21,39.952,10.64
42505920,-0.659,0.039,0.82,-91.735,24.797,15.697
42505930,-0.663,0.027,0.817,-79.887,7.542,19.267
42505940,-0.644,0.045,0.822,-63.577,-9.537,20.23
42505950,-0.609,0.082,0.82,-46.13,-23.66,18.515
42505960,-0.587,0.117,0.829,-29.645,-34.825,15.365
42505970,-0.568,0.159,0.85,-14.77,-44.52,12.46
42505980,-0.545,0.2,0.871,-4.497,-52.832,10.237
42505990,-0.522,0.23,0.883,-0.455,-59.5,8.312
42506000,-0.501,0.243,0.9,-1.732,-64.365,6.807
42506010,-0.484,0.24,0.927,-6.737,-67.812,5.67
42506020,-0.474,0.224,0.955,-14.105,-72.17,4.812
42506030,-0.447,0.2,0.979,-22.225,-77.297,3.727
42506040,-0.381,0.177,0.998,-30.152,-80.885,-1.19
42506050,-0.357,0.137,1.027,-36.085,-83.93,-7.332
42506060,-0.342,0.087,1.057,-39.917,-89.04,-15.47
42506070,-0.303,0.044,1.075,-41.877,-98.035,-25.742
42506080,-0.213,0.029,1.078,-42.21,-107.695,-37.87
42506090,-0.153,0.018,1.079,-40.95,-116.742,-48.93
42506100,-0.06,0.018,1.083,-39.795,-125.982,-58.047
42506110,0.066,0.032,1.08,-40.775,-132.247,-66.57
42506120,0.209,0.09,1.061,-45.622,-132.09,-73.255
42506130,0.332,0.115,1.02,-55.107,-122.64,-76.405
42506140,0.403,0.115,0.969,-67.515,-103.25,-78.855
42506150,0.402,0.073,0.918,-77.962,-77.087,-79.502
42506160,0.335,0.004,0.888,-80.307,-50.487,-76.51
42506170,0.267,-0.066,0.865,-71.487,-28.28,-70.017
42506170,0.204,-0.117,0.861,-52.64,-11.515,-61.267
42506190,0.151,-0.144,0.857,-29.33,2.205,-53.34
42506190,0.102,-0.143,0.857,-6.615,15.382,-47.565
42506210,0.056,-0.139,0.853,11.655,29.627,-43.925
42506210,-0.016,-0.129,0.85,23.852,43.085,-42.857
42506230,-0.129,-0.13,0.846,31.937,51.397,-43.085
42506230,-0.225,-0.136,0.841,37.59,53.497,-45.815
42506250,-0.312,-0.117,0.838,40.53,49.735,-50.155
42506250,-0.398,-0.116,0.84,40.6,40.285,-54.022
42506260,-0.475,-0.142,0.836,39.725,25.322,-56.857
42506270,-0.501,-0.149,0.822,40.127,7.542,-58.45
42506280,-0.476,-0.12,0.805,40.862,-8.032,-59.377
42506290,-0.451,-0.096,0.8,40.075,-17.832,-57.365
42506300,-0.419,-0.094,0.803,37.45,-22.015,-52.395
42506310,-0.343,-0.045,0.795,32.007,-20.545,-47.582
42506320,-0.295,-0.058,0.793,25.532,-11.62,-40.547
42506330,-0.267,-0.069,0.797,21.857,1.12,-29.277
42506340,-0.25,-0.065,0.802,20.545,15.382,-18.917
42506350,-0.245,-0.054,0.814,20.737,30.275,-9.975
42506360,-0.247,-0.038,0.825,21,44.187,-3.622
42506370,-0.258,-0.027,0.84,21,56.052,0.7
42506380,-0.278,-0.019,0.856,21,64.925,3.745
42506390,-0.301,-0.009,0.871,21.822,69.947,6.002
42506400,-0.332,0.004,0.898,22.54,70.735,7.892
42506410,-0.36,0.009,0.926,22.19,67.655,9.065
42506420,-0.387,0,0.957,21.245,60.865,9.992
42506430,-0.412,-0.002,0.982,19.162,50.96,9.222
42506440,-0.428,-0.031,1,16.695,39.69,7.472
42506450,-0.434,-0.061,1.022,16.642,27.545,5.792
42506460,-0.434,-0.061,1.052,16.467,14.927,3.64
42506470,-0.425,-0.063,1.078,13.702,3.412,1.365
42506480,-0.421,-0.093,1.098,9.397,-6.09,-0.157
42506490,-0.41,-0.117,1.111,5.232,-13.965,-0.175
42506500,-0.395,-0.131,1.12,1.75,-19.862,1.575
42506510,-0.384,-0.142,1.129,-1.225,-23.205,4.672
42506510,-0.37,-0.143,1.133,-3.92,-24.71,8.855
42506530,-0.367,-0.155,1.133,-6.982,-24.237,13.825
42506530,-0.361,-0.162,1.129,-9.537,-22.067,19.232
42506550,-0.35,-0.148,1.12,-12.372,-18.375,26.267
42506550,-0.322,-0.146,1.098,-15.872,-12.39,34.877
42506570,-0.288,-0.138,1.078,-19.53,-4.182,45.43
42506570,-0.272,-0.13,1.062,-23.432,4.515,57.05
42506580,-0.257,-0.117,1.049,-28.787,12.197,66.815
42506590,-0.243,-0.121,1.045,-35.21,18.322,71.505
42506600,-0.223,-0.128,1.023,-41.685,21.892,70.49
42506610,-0.233,-0.16,1.01,-44.065,22.925,66.605
42506620,-0.238,-0.134,1.019,-42.735,18.777,58.677
42506630,-0.241,-0.062,1.032,-41.912,7.77,47.197
42506640,-0.228,-0.028,1.022,-43.54,-8.487,35.332
42506650,-0.218,-0.038,1.002,-45.85,-26.355,23.187
42506660,-0.217,-0.047,0.981,-47.722,-44.31,11.007
42506670,-0.224,-0.06,0.955,-47.162,-61.74,0.892
42506680,-0.242,-0.083,0.937,-43.137,-76.755,-6.667
42506690,-0.207,-0.091,0.903,-36.837,-86.31,-12.862
42506700,-0.15,-0.047,0.879,-27.982,-88.462,-14.245
42506710,-0.095,0.001,0.854,-20.527,-80.727,-11.585
42506720,-0.061,0.048,0.837,-15.942,-63.175,-6.002
42506730,-0.067,0.08,0.822,-14.927,-39.585,3.955
42506740,-0.076,0.097,0.819,-18.095,-13.44,17.01
42506750,-0.108,0.086,0.823,-24.832,13.212,32.007
42506760,-0.154,0.083,0.833,-33.197,37.082,46.987
42506770,-0.193,0.074,0.866,-43.872,56.157,58.94
42506780,-0.246,0.05,0.897,-56.77,69.58,67.217
42506790,-0.306,0.01,0.917,-70.14,75.792,71.19
42506800,-0.369,-0.041,0.946,-81.375,73.902,71.417
42506810,-0.401,-0.091,0.966,-88.375,64.085,66.71
42506820,-0.425,-0.143,0.992,-90.405,48.195,58.695
42506830,-0.437,-0.196,1.009,-86.415,27.107,48.335
42506840,-0.422,-0.229,1.025,-76.02,2.765,35.647
42506850,-0.367,-0.247,1.045,-61.25,-21.822,20.037
42506860,-0.301,-0.241,1.055,-42.927,-43.575,2.31
42506870,-0.244,-0.211,1.065,-21.84,-62.702,-16.66
42506880,-0.181,-0.173,1.065,-0.14,-80.587,-35.56
42506890,-0.103,-0.122,1.056,20.037,-97.212,-53.217
42506900,-0.013,-0.058,1.037,37.24,-109.795,-68.6
42506910,0.083,-0.008,1.007,50.312,-115.605,-81.795
42506920,0.135,0.024,0.981,61.705,-114.187,-88.585
42506920,0.192,0.056,0.952,71.61,-106.802,-90.457
42506940,0.228,0.09,0.929,79.852,-92.417,-89.197
42506940,0.224,0.112,0.907,85.627,-73.202,-83.562
42506960,0.208,0.128,0.884,89.88,-52.08,-76.212
42506960,0.172,0.128,0.877,92.487,-29.645,-67.112
42506980,0.114,0.116,0.879,90.3,-6.16,-57.89
42506980,0.041,0.102,0.889,83.02,16.782,-48.597
42507000,-0.042,0.102,0.904,71.102,37.45,-38.867
42507000,-0.136,0.094,0.92,54.932,54.355,-28.227
42507010,-0.211,0.081,0.931,37.642,65.17,-16.992
42507020,-0.264,0.076,0.938,20.912,69.702,-5.215
42507030,-0.293,0.067,0.939,3.762,71.47,6.23
42507040,-0.329,0.026,0.93,-13.09,72.957,16.152
42507050,-0.369,-0.015,0.915,-27.79,73.832,21.805
42507060,-0.417,-0.045,0.908,-38.762,72.52,23.1
42507070,-0.478,-0.098,0.901,-44.887,66.587,18.935
42507080,-0.541,-0.133,0.916,-44.992,55.02,10.955
42507090,-0.565,-0.133,0.925,-42.542,36.015,1.155
42507100,-0.565,-0.132,0.938,-37.555,11.83,-6.825
42507110,-0.533,-0.146,0.952,-31.727,-14.245,-13.072
42507120,-0.475,-0.109,0.977,-24.587,-39.375,-18.532
42507130,-0.395,-0.104,0.977,-20.09,-61.25,-21.21
42507140,-0.311,-0.114,0.987,-13.562,-77.052,-21.77
42507150,-0.22,-0.075,0.985,-10.972,-86.047,-23.065
42507160,-0.144,-0.062,1.001,-11.445,-88.2,-23.852
42507170,-0.065,-0.043,1.007,-14.875,-84.805,-24.115
42507180,0.004,-0.069,1.006,-19.547,-76.055,-22.662
42507190,0.026,-0.097,1.023,-21.192,-63.262,-21.175
42507200,0.025,-0.111,1.03,-20.58,-50.767,-20.23
42507210,0.004,-0.128,1.045,-17.955,-41.055,-20.79
42507220,-0.015,-0.146,1.053,-13.615,-35.21,-22.995
42507230,-0.013,-0.168,1.063,-8.277,-32.305,-24.832
42507240,-0.037,-0.189,1.076,-2.222,-30.03,-26.337
42507250,-0.064,-0.218,1.085,2.555,-28.647,-28.315
42507260,-0.07,-0.275,1.077,10.272,-27.177,-28.052
42507260,-0.042,-0.205,1.07,16.152,-23.957,-28.49
42507280,-0.047,-0.162,1.07,14.227,-18.392,-26.075
42507280,-0.092,-0.155,1.071,10.867,-14.437,-19.407
42507300,-0.098,-0.145,1.054,10.447,-14.402,-15.68
42507300,-0.032,-0.131,1.025,10.202,-13.685,-12.477
42507320,-0.003,-0.099,1.003,6.947,-6.93,-6.422
42507320,0.021,-0.065,0.976,-0.297,6.422,1.68
42507330,0.011,-0.04,0.96,-12.267,24.272,11.13
42507340,-0.013,-0.023,0.942,-26.792,43.242,19.005
42507350,-0.043,-0.022,0.922,-42.385,61.722,26.617
42507360,-0.09,-0.057,0.912,-56.805,78.435,33.285
42507370,-0.164,-0.093,0.899,-68.67,92.575,37.957
42507380,-0.227,-0.118,0.889,-78.697,102.235,42.192
42507390,-0.297,-0.151,0.889,-86.66,106.575,42.122
42507400,-0.423,-0.192,0.895,-90.702,101.43,33.407
42507410,-0.537,-0.207,0.905,-92.4,81.69,23.24
42507420,-0.59,-0.228,0.915,-92.89,48.825,13.737
42507430,-0.562,-0.235,0.886,-89.547,8.662,0.892
42507440,-0.486,-0.18,0.835,-85.26,-29.82,-11.987
42507450,-0.406,-0.152,0.764,-81.655,-58.31,-22.155
42507460,-0.329,-0.254,0.726,-75.11,-79.327,-28.542
42507470,-0.362,-0.198,0.747,-69.86,-98.455,-37.222
42507480,-0.248,-0.415,0.826,-74.392,-113.592,-42.84
42507490,-0.3,-0.893,0.94,-61.162,-120.137,-35.472
42507500,-0.246,-0.507,0.947,3.43,-135.117,-27.387
42507510,-0.115,-0.379,1.014,46.987,-133.052,-17.832
42507520,0,-0.397,1.068,50.837,-123.935,-4.865
42507530,0.046,-0.333,1.046,39.48,-113.365,1.557
42507540,0.009,-0.28,1.065,16.782,-98.42,4.62
42507550,-0.028,-0.308,1.058,-3.377,-88.112,9.222
42507560,0.021,-0.359,1.077,-16.345,-83.65,6.755
42507570,0.056,-0.463,1.053,-22.067,-80.08,3.272
42507580,0.174,-0.519,1.079,-6.842,-73.237,-2.135
42507590,0.149,-0.415,1.057,6.002,-64.627,-3.972
42507600,0.155,-0.409,1.022,15.575,-56.875,-2.817
42507610,0.161,-0.429,0.988,26.477,-50.872,-0.945
42507620,0.172,-0.385,0.96,38.22,-45.045,-1.312
42507630,0.211,-0.359,0.932,49.752,-35.087,-0.752
42507640,0.23,-0.355,0.91,65.117,-18.76,1.347
42507650,0.25,-0.34,0.884,83.51,0.91,0.315
42507660,0.231,-0.321,0.866,100.887,21.63,-2.24
42507670,0.182,-0.251,0.86,114.957,37.835,-3.605
42507670,0.115,-0.124,0.9,114.94,42.402,-0.595
42507690,-0.015,-0.016,0.916,94.745,35.315,10.902
42507690,-0.176,0.1,0.937,55.475,11.585,26.915
42507710,-0.32,0.172,0.931,-1.295,-30.047,43.242
42507710,-0.409,0.126,0.884,-56.437,-80.832,48.58
42507730,-0.238,0.035,0.781,-102.007,-131.005,31.99
42507730,-0.127,-0.098,0.636,-128.555,-164.832,18.83
42507750,0.054,-0.217,0.624,-130.812,-178.22,9.642
42507750,0.14,-0.379,0.627,-114.152,-172.952,6.02
42507760,0.189,-0.261,0.69,-86.66,-158.865,8.47
42507770,0.183,-0.464,0.676,-64.592,-148.067,12.617
42507780,0.169,-0.411,0.743,-45.605,-148.785,19.565
42507790,0.275,-0.631,0.807,-31.01,-155.89,22.907
42507800,0.631,-0.699,0.953,-2.625,-149.992,2.922
42507810,0.663,-0.677,1.049,40.67,-117.635,-2.765
42507820,0.827,-0.659,1.107,82.512,-75.337,5.04
42507830,0.647,-0.577,1.077,119.857,-34.685,5.057
42507840,0.373,-0.432,0.999,146.545,-13.825,11.375
42507850,0.215,-0.34,0.923,151.287,-24.955,15.487
42507860,0.283,-0.314,0.844,141.312,-48.807,17.272
42507870,0.271,-0.278,0.826,131.932,-58.94,28.157
42507880,0.322,-0.271,0.813,127.19,-60.987,32.147
42507890,0.395,-0.181,0.819,119.472,-57.19,32.655
42507900,0.44,-0.185,0.827,103.32,-47.005,32.235
42507910,0.534,-0.237,0.844,90.107,-27.02,34.965
42507920,0.564,-0.202,0.914,83.055,0.595,42.28
42507930,0.513,-0.315,0.87,77.192,30.45,46.935
42507940,0.289,-0.286,0.996,90.737,48.755,47.547
42507950,0.211,-0.031,0.921,81.305,29.89,46.042
42507960,0.349,-0.072,0.98,64.26,20.125,37.135
42507970,0.373,-0.029,0.998,48.387,19.215,40.74
42507980,0.465,0.041,0.995,33.845,30.782,28.052
42507990,0.556,-0.049,1.003,12.67,50.54,16.187
42508000,0.539,-0.074,1.036,-3.29,75.827,3.902
42508010,0.468,-0.206,1.051,-18.672,96.582,-4.182
42508010,0.366,-0.355,1.029,-20.895,107.397,-11.445
42508030,0.319,-0.438,1.02,-1.715,109.165,-18.392
42508030,0.305,-0.368,1.034,29.19,102.987,-16.66
42508050,0.24,-0.264,1.041,51.205,101.045,-9.817
42508050,0.084,-0.296,1.069,70,99.96,-14.56
42508070,0.155,-0.26,1.101,90.947,96.407,-23.747
42508070,0.205,-0.212,1.118,97.947,102.41,-24.202
42508080,0.117,-0.192,1.104,90.72,113.645,-22.067
42508090,-0.045,-0.161,1.105,77.017,120.12,-15.715
42508100,-0.067,-0.113,1.096,64.68,119.98,-10.202
42508110,-0.036,-0.111,1.044,48.352,124.197,-7.122
42508120,-0.063,-0.089,1.011,32.025,134.12,-5.145
42508130,-0.101,-0.048,0.991,17.675,141.137,-3.762
42508140,-0.094,-0.006,0.957,3.027,145.145,-0.262
42508150,-0.129,0.026,0.94,-16.432,149.117,4.392
42508160,-0.173,0.029,0.935,-36.75,151.795,8.137
42508170,-0.168,0.021,0.925,-57.277,151.847,7.84
42508180,-0.219,-0.016,0.912,-76.667,148.785,7.665
42508190,-0.196,-0.048,0.88,-96.005,142.047,6.387
42508200,-0.228,-0.113,0.834,-116.497,135.38,2.152
42508210,-0.336,-0.134,0.848,-126.315,119.805,-6.842
42508220,-0.31,-0.133,0.854,-124.827,95.777,-14.63
42508230,-0.212,-0.133,0.859,-116.567,71.277,-18.2
42508240,-0.125,-0.099,0.856,-106.435,56.07,-16.8
42508250,-0.135,-0.099,0.835,-101.517,50.995,-10.5
42508260,-0.18,-0.108,0.821,-101.955,46.847,-7.42
42508270,-0.103,-0.07,0.829,-107.765,43.907,-6.002
42508280,-0.043,-0.038,0.849,-115.815,44.52,-2.152
42508290,-0.055,-0.046,0.876,-125.072,45.797,1.102
42508300,-0.062,-0.074,0.897,-132.09,45.255,0.07
42508310,-0.048,-0.101,0.933,-132.632,41.737,-6.58
42508320,-0.01,-0.113,0.97,-128.065,37.047,-15.732
42508330,0,-0.12,0.949,-123.9,33.162,-25.497
42508340,0.024,-0.139,0.969,-118.772,30.52,-35.63
42508350,-0.028,-0.183,0.942,-114.257,31.342,-45.29
42508360,-0.073,-0.22,0.936,-110.022,30.135,-56.997
42508370,-0.106,-0.227,0.924,-105.822,26.985,-64.697
42508380,-0.141,-0.209,0.898,-103.302,22.627,-68.652
42508390,-0.187,-0.215,0.869,-106.47,17.5,-70.035
42508400,-0.252,-0.23,0.853,-111.79,12.162,-71.662
42508410,-0.314,-0.265,0.81,-116.917,5.162,-75.775
42508420,-0.354,-0.321,0.769,-120.347,-4.952,-78.365
42508420,-0.403,-0.413,0.75,-115.307,-15.785,-77.105
42508440,-0.515,-0.405,0.751,-99.365,-29.365,-74.06
42508440,-0.48,-0.445,0.741,-84.402,-45.22,-71.61
42508460,-0.453,-0.489,0.753,-70.28,-55.125,-67.515
42508460,-0.438,-0.51,0.784,-56.297,-59.342,-65.31
42508480,-0.472,-0.519,0.799,-42.175,-62.317,-62.405
42508480,-0.489,-0.527,0.818,-28.735,-68.127,-58.187
42508500,-0.448,-0.549,0.839,-18.147,-75.862,-52.237
42508500,-0.448,-0.61,0.857,-7.98,-84.332,-44.87
42508510,-0.235,-0.595,0.854,5.11,-85.505,-41.475
42508520,-0.094,-0.59,0.949,12.722,-65.52,-30.047
42508530,-0.119,-0.627,1.022,24.587,-32.147,-14.192
42508540,-0.205,-0.609,1.044,44.292,-10.517,-9.73
42508550,-0.308,-0.579,1.029,59.657,-7.332,-8.505
42508560,-0.303,-0.537,0.983,69.93,-16.45,-10.01
42508570,-0.331,-0.519,0.932,74.497,-34.912,-18.9
42508580,-0.263,-0.475,0.893,77.735,-55.02,-28.892
42508590,-0.141,-0.42,0.862,80.132,-66.377,-35.297
42508600,-0.062,-0.367,0.871,78.872,-64.207,-36.995
42508610,-0.126,-0.392,0.865,78.067,-58.66,-35.507
42508620,-0.002,-0.337,0.854,85.417,-55.93,-42.647
42508630,-0.002,-0.342,0.849,86.59,-51.24,-44.782
42508640,0.015,-0.323,0.87,84.455,-47.967,-40.582
42508650,0.019,-0.271,0.907,78.312,-47.897,-33.932
42508660,0.076,-0.257,0.906,65.38,-47.897,-27.037
42508670,0.118,-0.257,0.905,46.97,-41.562,-19.127
42508680,0.116,-0.287,0.91,29.277,-29.487,-12.932
42508690,0.064,-0.337,0.945,15.505,-17.22,-10.955
42508700,0.018,-0.363,0.992,4.9,-13.142,-10.85
42508710,0.076,-0.387,1.022,-5.057,-11.917,-8.925
42508720,0.097,-0.459,1.042,-13.247,-6.632,-4.2
42508730,0.05,-0.511,1.073,-13.002,-0.42,-1.137
42508740,0,-0.502,1.078,-8.225,0.332,-0.577
42508750,-0.076,-0.521,1.002,-1.61,-6.597,1.627
42508760,-0.096,-0.427,0.906,3.762,-16.765,-1.365
42508760,-0.407,-0.403,0.782,5.775,-46.077,-8.12
42508780,0.011,-0.384,0.845,22.575,-77.157,-29.785
42508780,-0.014,-0.416,0.812,41.685,-92.137,-44.362
42508800,-0.034,-0.379,0.82,57.942,-107.94,-53.375
42508800,-0.033,-0.362,0.847,69.177,-126.98,-53.48
42508820,0.029,-0.304,0.871,71.33,-145.897,-52.517
42508820,0.107,-0.274,0.889,65.17,-158.13,-45.535
42508830,0.241,-0.247,0.893,52.815,-159.74,-37.73
42508840,0.346,-0.233,0.899,35.892,-146.422,-28.945
42508850,0.42,-0.243,0.901,18.725,-120.435,-21.245
42508860,0.483,-0.306,0.908,9.1,-87.57,-11.9
42508870,0.465,-0.295,0.921,7.367,-51.362,-1.907
42508880,0.5,-0.331,0.939,9.677,-17.99,7.297
42508890,0.481,-0.33,0.948,18.025,16.362,14.7
42508900,0.424,-0.316,0.975,26.827,46.252,20.23
42508910,0.37,-0.321,0.995,35.84,70.962,22.277
42508920,0.288,-0.316,1.017,45.255,89.32,18.655
42508930,0.224,-0.295,1.035,53.672,99.54,11.427
42508940,0.154,-0.291,1.044,59.972,101.22,4.97
42508950,0.1,-0.278,1.052,64.225,96.232,-1.05
42508960,0.064,-0.251,1.06,65.467,86.135,-5.635
42508970,0.045,-0.222,1.054,63.682,72.94,-7.892
42508980,0.029,-0.2,1.044,60.497,58.31,-9.607
42508990,0.029,-0.181,1.031,55.86,43.89,-10.797
42509000,0.042,-0.16,1.024,51.082,31.185,-11.637
42509010,0.061,-0.141,1.006,47.827,21.035,-12.495
42509020,0.081,-0.117,0.98,44.45,16.17,-14.665
42509030,0.082,-0.093,0.957,41.772,13.125,-16.502
42509040,0.085,-0.078,0.935,38.92,11.97,-14.087
42509050,0.068,-0.065,0.931,38.692,14.507,-11.9
42509060,0.075,-0.052,0.918,40.845,18.305,-12.39
42509070,0.082,-0.037,0.91,44.537,23.345,-13.597
42509080,0.077,-0.022,0.906,49.21,31.097,-13.16
42509090,0.062,-0.012,0.904,53.602,39.48,-10.22
42509100,0.045,-0.01,0.893,56.927,48.79,-7.157
42509110,0.017,-0.008,0.889,59.832,57.592,-4.707
42509120,-0.035,-0.006,0.9,61.757,64.015,-2.31
42509130,-0.098,0.008,0.918,61.477,65.905,-0.56
42509140,-0.125,0.016,0.919,57.19,63.35,1.61
42509150,-0.153,0.002,0.912,51.572,55.51,6.877
42509160,-0.151,-0.015,0.917,45.185,45.972,12.582
42509170,-0.146,-0.019,0.927,38.29,33.565,18.497
42509170,-0.131,0.001,0.934,30.607,20.09,27.44
42509190,-0.123,-0.001,0.94,20.772,6.37,36.995
42509190,-0.11,-0.038,0.948,12.67,-6.632,43.382
42509200,-0.084,-0.027,0.946,5.127,-15.802,46.095
42509210,-0.077,-0.08,0.926,-4.97,-19.267,47.302
42509220,-0.007,-0.193,0.931,-7.875,-15.33,35.7
42509230,-0.023,-0.132,0.921,-6.615,-7.525,25.48
42509240,-0.038,-0.124,0.94,-6.51,-1.645,18.917
42509250,-0.024,-0.147,0.955,-3.272,0.805,11.165
42509260,-0.023,-0.156,0.959,0.052,-1.085,7.682
42509270,0.018,-0.158,0.985,4.777,-4.34,6.965
42509280,0.01,-0.109,1.011,5.6,-7.087,12.687
42509290,-0.004,-0.096,1.026,0.105,-9.817,21.612
42509300,-0.001,-0.111,1.033,-9.66,-13.3,28.542
42509310,0.038,-0.11,1.01,-19.075,-13.72,31.395
42509320,0.016,-0.127,1.008,-27.597,-11.392,38.78
42509330,0.001,-0.2,0.975,-34.51,-9.765,43.732
42509340,-0.02,-0.254,0.973,-34.475,-8.732,39.025
42509350,-0.005,-0.243,0.986,-31.99,-9.73,31.062
42509360,-0.005,-0.297,0.991,-27.947,-13.842,25.69
42509370,0.016,-0.334,1.017,-20.632,-20.895,21.927
42509380,0.024,-0.305,1.048,-13.212,-28.56,21.577
42509390,0.015,-0.249,1.069,-8.715,-32.777,24.71
42509400,0.024,-0.243,1.08,-11.322,-30.607,28.192
42509410,-0.01,-0.318,1.071,-14.927,-26.705,27.72
42509420,-0.028,-0.337,1.034,-14.035,-23.852,26.757
42509430,-0.072,-0.326,0.993,-13.125,-24.202,26.565
42509440,-0.085,-0.343,1.005,-13.247,-30.257,22.942
42509450,-0.092,-0.398,1.028,-8.977,-43.207,17.71
42509460,-0.031,-0.409,1.051,-0.227,-55.51,16.292
42509470,0.044,-0.348,1.094,7.087,-59.115,15.767
42509480,0.099,-0.354,1.129,8.82,-55.02,14.892
42509490,0.141,-0.372,1.137,9.012,-45.99,15.61
42509500,0.163,-0.365,1.118,8.96,-32.322,18.69
42509510,0.174,-0.351,1.099,8.54,-14.91,23.712
42509510,0.193,-0.317,1.095,6.44,3.902,29.732
42509530,0.181,-0.272,1.067,0.857,22.82,38.762
42509530,0.184,-0.237,1.046,-6.825,42.192,48.055
42509550,0.164,-0.192,1.01,-16.695,60.795,53.9
42509550,0.092,-0.149,0.976,-29.155,76.632,62.247
42509570,0.044,-0.127,0.947,-43.102,87.325,67.742
42509570,-0.035,-0.063,0.905,-60.112,91.577,72.485
42509580,-0.132,-0.077,0.859,-75.477,90.65,77.507
42509590,-0.201,-0.105,0.826,-85.33,85.347,74.305
42509600,-0.235,-0.097,0.797,-89.302,74.97,60.672
42509610,-0.274,-0.094,0.78,-89.18,57.995,42.42
42509620,-0.281,-0.117,0.771,-85.75,35.087,27.457
42509630,-0.215,-0.144,0.756,-77.052,10.71,14.787
42509640,-0.162,-0.14,0.751,-65.082,-9.1,4.147
42509650,-0.167,-0.176,0.765,-52.692,-25.602,-0.332
42509660,-0.128,-0.198,0.803,-38.517,-41.265,-4.305
42509670,-0.11,-0.201,0.848,-25.515,-55.475,-8.347
42509680,-0.118,-0.233,0.887,-14.927,-69.545,-11.427
42509690,-0.088,-0.276,0.888,-3.045,-85.575,-14.577
42509700,-0.004,-0.307,0.881,12.617,-98.665,-15.995
42509710,0.024,-0.316,0.879,29.312,-105.63,-13.825
42509720,0.06,-0.337,0.868,47.04,-109.042,-11.007
42509730,0.098,-0.375,0.876,67.62,-112.07,-5.705
42509740,0.176,-0.387,0.92,89.46,-112.77,5.6
42509750,0.266,-0.357,1.008,107.152,-106.242,14.42
42509760,0.377,-0.266,1.122,112.98,-86.992,16.905
42509770,0.364,-0.251,1.197,101.745,-58.712,22.225
42509780,0.458,-0.244,1.266,86.677,-21.49,16.975
42509790,0.558,-0.206,1.264,66.482,20.965,5.18
42509800,0.572,-0.226,1.24,42.577,64.89,-4.795
42509810,0.537,-0.259,1.211,20.002,107.432,-8.942
42509820,0.352,-0.345,1.171,1.61,138.617,-11.637
42509830,0.301,-0.45,1.115,-4.27,158.147,-16.485
42509840,0.22,-0.51,1.046,1.417,169.032,-17.43
42509850,0.203,-0.481,0.989,10.202,177.66,-15.977
42509860,0.074,-0.524,0.922,14.192,185.745,-13.667
42509870,-0.104,-0.587,0.896,21.472,184.537,-6.86
42509870,-0.211,-0.589,0.883,34.755,172.2,-2.765
42509890,-0.214,-0.57,0.84,44.922,158.55,-4.62
42509890,-0.286,-0.591,0.83,51.397,145.67,-4.322
42509910,-0.322,-0.559,0.847,58.712,130.48,-3.657
42509910,-0.261,-0.531,0.842,65.03,119.525,-3.307
42509920,-0.283,-0.466,0.918,68.285,113.802,0.63
42509930,-0.463,-0.369,0.881,66.99,88.34,-2.695
42509940,0,-0.207,0.821,51.117,82.635,-3.202
42509950,-0.23,-0.333,0.889,11.27,93.065,-3.22
42509960,-0.309,-0.232,0.874,-5.442,99.837,-7.525
42509970,-0.206,-0.181,0.855,-12.11,110.775,-7.14
42509980,-0.184,-0.246,0.746,-30.66,120.085,-17.045
42509990,-0.228,-0.204,0.709,-42.787,128.817,-24.675
42510000,-0.318,-0.142,0.691,-50.12,133.367,-27.405
42510010,-0.364,-0.124,0.72,-53.865,136.692,-22.137
42510020,-0.43,-0.086,0.742,-56.805,134.82,-21.332
42510030,-0.526,-0.073,0.747,-60.742,125.352,-22.82
42510040,-0.601,-0.059,0.801,-66.36,106.225,-27.982
42510050,-0.715,-0.048,0.786,-71.277,75.302,-36.662
42510060,-0.443,0.048,0.743,-72.117,47.95,-45.255
42510070,-0.338,0.027,0.751,-82.04,43.645,-51.03
42510080,-0.626,-0.055,0.795,-88.462,40.53,-51.607
42510090,-0.67,-0.019,0.815,-83.545,15.872,-49.472
42510100,-0.551,-0.072,0.735,-85.207,-11.27,-43.837
42510110,-0.395,-0.207,0.741,-82.88,-20.702,-38.64
42510120,-0.202,-0.053,0.778,-61.302,5.425,-39.375
42510130,-0.397,-0.103,0.806,-44.66,32.882,-37.292
42510140,-0.436,-0.162,0.802,-26.18,52.587,-28.455
42510150,-0.43,-0.126,0.803,-6.912,67.742,-26.127
42510160,-0.498,-0.078,0.82,5.985,81.252,-29.925
42510170,-0.616,-0.084,0.848,13.93,87.237,-33.547
42510180,-0.657,-0.083,0.83,16.24,83.562,-36.435
42510190,-0.707,-0.046,0.857,13.79,74.147,-35.735
42510200,-0.722,-0.079,0.822,8.26,60.62,-38.64
42510210,-0.675,-0.09,0.813,5.74,50.417,-41.825
42510220,-0.701,-0.122,0.825,3.01,44.205,-45.797
42510230,-0.729,-0.136,0.832,6.265,37.17,-44.467
42510240,-0.748,-0.123,0.848,8.697,27.002,-39.62
42510250,-0.613,-0.206,0.793,12.18,19.705,-31.027
42510260,-0.609,-0.235,0.787,17.517,25.55,-18.952
42510260,-0.568,-0.301,0.737,32.007,32.742,-8.645
42510280,-0.364,-0.327,0.747,79.555,68.862,-1.855
42510280,-0.829,-0.207,0.803,100.572,100.992,-10.36
42510300,-1.049,0.022,0.775,83.86,69.352,-4.34
42510300,-0.694,-0.154,0.781,67.882,45.045,13.72
42510320,-0.823,-0.158,0.783,60.27,45.202,12.6
42510320,-0.821,0.016,0.785,48.86,33.565,5.355
42510330,-0.812,-0.027,0.745,30.1,17.027,15.137
42510340,-0.756,-0.072,0.692,13.562,2.94,17.587
42510350,-0.663,-0.064,0.67,7.717,-10.36,17.15
42510360,-0.55,-0.061,0.665,7,-15.19,17.92
42510370,-0.524,-0.096,0.677,4.76,-8.452,19.46
42510380,-0.509,-0.151,0.677,1.61,5.145,19.197
42510390,-0.513,-0.21,0.683,-1.085,22.995,16.642
42510400,-0.507,-0.235,0.731,1.032,44.415,15.155
42510410,-0.578,-0.273,0.756,4.427,65.327,16.135
42510420,-0.65,-0.29,0.787,7.962,84,17.692
42510430,-0.745,-0.29,0.808,9.397,93.572,20.807
42510440,-0.842,-0.258,0.832,9.38,92.26,23.467
42510450,-0.891,-0.246,0.831,7.91,82.372,22.61
42510460,-0.891,-0.224,0.785,5.687,67.672,18.777
42510470,-0.868,-0.155,0.745,0.612,56.472,15.172
42510480,-0.837,-0.183,0.72,-12.425,47.11,9.502
42510490,-0.894,-0.338,0.704,-18.917,34.79,2.642
42510500,-0.818,-0.3,0.639,-9.082,22.522,0.84
42510510,-0.707,-0.229,0.594,2.345,18.095,1.61
42510520,-0.694,-0.204,0.576,7.227,26.565,-3.027
42510530,-0.779,-0.202,0.599,8.435,34.02,-6.072
42510540,-0.852,-0.253,0.598,8.557,30.52,-9.817
42510550,-0.884,-0.252,0.614,11.9,18.9,-16.275
42510560,-0.922,-0.214,0.649,14.385,-3.675,-22.015
42510570,-0.912,-0.234,0.661,13.912,-35.682,-25.777
42510580,-0.958,-0.255,0.697,13.405,-73.132,-31.482
42510580,-0.92,-0.198,0.718,15.032,-118.037,-38.797
42510600,-0.739,-0.173,0.696,14.927,-156.747,-41.895
42510600,-0.521,-0.185,0.703,9.257,-173.915,-44.677
42510620,-0.38,-0.198,0.731,3.097,-167.072,-45.255
42510620,-0.193,-0.227,0.714,-4.252,-137.427,-39.76
42510640,-0.236,-0.189,0.729,-16.537,-85.487,-34.72
42510640,-0.26,-0.271,0.733,-32.025,-36.102,-36.207
42510660,-0.49,-0.333,0.748,-40.127,-1.242,-29.172
42510660,-0.544,-0.325,0.751,-39.847,8.785,-25.077
42510670,-0.524,-0.345,0.744,-39.182,7.735,-20.58
42510680,-0.499,-0.364,0.742,-37.555,11.375,-18.182
42510690,-0.485,-0.385,0.763,-35.577,22.54,-17.955
42510700,-0.561,-0.416,0.813,-26.04,33.6,-14.472
42510710,-0.623,-0.339,0.819,-13.282,41.09,-14.192
42510720,-0.674,-0.318,0.814,-10.92,40.11,-12.932
42510730,-0.668,-0.324,0.801,-11.147,36.33,-10.745
42510740,-0.651,-0.32,0.741,-9.94,35.052,-11.847
42510750,-0.643,-0.306,0.704,-9.66,36.645,-15.172
42510760,-0.678,-0.309,0.675,-7.315,37.082,-17.972
42510770,-0.612,-0.288,0.645,-2.73,40.705,-20.317
42510780,-0.682,-0.278,0.642,-0.42,48.265,-22.19
42510790,-0.694,-0.28,0.629,-0.157,51.38,-23.047
42510800,-0.688,-0.271,0.623,-0.035,52.115,-22.75
42510810,-0.734,-0.294,0.628,0.472,52.412,-20.58
42510820,-0.79,-0.334,0.644,2.415,49.052,-19.477
42510830,-0.747,-0.335,0.652,5.915,43.627,-21.84
42510840,-0.747,-0.329,0.67,9.117,40.897,-23.065
42510850,-0.704,-0.322,0.677,9.572,41.93,-23.94
42510860,-0.72,-0.335,0.7,7.525,45.097,-23.24
42510870,-0.773,-0.328,0.723,3.377,45.867,-23.275
42510880,-0.761,-0.308,0.727,-3.237,41.685,-24.132
42510890,-0.744,-0.314,0.709,-11.567,37.345,-23.012
42510900,-0.763,-0.351,0.699,-17.902,34.335,-20.597
42510910,-0.748,-0.361,0.678,-20.562,31.85,-18.935
42510920,-0.705,-0.361,0.651,-21.91,31.657,-17.902
42510930,-0.694,-0.394,0.616,-22.925,35.402,-17.622
42510940,-0.712,-0.419,0.599,-20.737,40.267,-17.815
42510950,-0.708,-0.426,0.585,-16.712,43.155,-18.812
42510960,-0.686,-0.414,0.566,-12.25,46.34,-20.65
42510970,-0.682,-0.404,0.539,-9.94,53.2,-23.1
42510980,-0.706,-0.405,0.539,-8.522,60.742,-25.112
42510990,-0.727,-0.404,0.537,-6.912,64.487,-25.095
42511000,-0.76,-0.41,0.534,-4.497,65.397,-23.275
42511010,-0.781,-0.426,0.529,-2.047,64.067,-22.732
42511010,-0.805,-0.433,0.538,1.855,60.147,-21.175
42511030,-0.76,-0.425,0.514,4.27,55.65,-20.09
42511030,-0.719,-0.405,0.486,2.117,56.875,-21.332
42511050,-0.772,-0.411,0.489,-2.8,59.92,-22.137
42511050,-0.822,-0.431,0.482,-5.897,56.192,-20.51
42511070,-0.825,-0.439,0.463,-5.985,48.195,-19.18
42511070,-0.815,-0.443,0.444,-4.602,40.425,-18.165
42511080,-0.824,-0.467,0.439,-0.087,33.722,-17.552
42511090,-0.814,-0.466,0.425,7.665,26.04,-19.337
42511100,-0.827,-0.466,0.423,15.207,17.745,-21.577
42511110,-0.835,-0.445,0.439,24.307,6.422,-22.645
42511120,-0.815,-0.406,0.442,29.907,-7.175,-23.082
42511130,-0.828,-0.391,0.44,28.402,-20.86,-25.112
42511140,-0.84,-0.376,0.454,23.887,-35.717,-24.465
42511150,-0.845,-0.394,0.457,18.34,-51.677,-21.997
42511160,-0.832,-0.413,0.454,13.492,-64.697,-21.07
42511170,-0.807,-0.444,0.463,11.095,-74.147,-19.39
42511180,-0.765,-0.455,0.479,11.655,-79.292,-17.412
42511190,-0.735,-0.48,0.502,14.822,-79.222,-14.945
42511200,-0.694,-0.505,0.53,20.93,-74.917,-12.215
42511210,-0.682,-0.508,0.567,29.977,-64.575,-7.892
42511220,-0.704,-0.466,0.61,37.957,-53.305,-6.405
42511230,-0.705,-0.429,0.645,41.755,-47.022,-4.602
42511240,-0.705,-0.404,0.655,42.63,-44.012,-1.645
42511250,-0.634,-0.35,0.66,40.162,-41.79,-0.997
42511260,-0.592,-0.334,0.665,33.355,-36.33,0.542
42511270,-0.591,-0.332,0.664,26.022,-28.752,2.502
42511280,-0.603,-0.325,0.657,19.6,-23.135,2.905
42511290,-0.604,-0.33,0.653,13.842,-20.685,3.92
42511300,-0.621,-0.337,0.646,9.87,-20.177,5.6
42511310,-0.613,-0.382,0.64,6.527,-20.842,6.405
42511320,-0.578,-0.408,0.643,8.96,-17.307,7.56
42511330,-0.573,-0.407,0.644,13.002,-10.5,5.215
42511330,-0.594,-0.411,0.642,16.345,-2.87,1.995
42511350,-0.625,-0.42,0.622,19.547,1.75,-2.17
42511350,-0.647,-0.42,0.61,23.1,3.64,-3.937
42511370,-0.674,-0.42,0.607,25.935,3.955,-2.975
42511370,-0.703,-0.43,0.602,28.7,3.902,-0.787
42511390,-0.725,-0.43,0.601,32.06,4.445,1.942
42511390,-0.743,-0.43,0.601,34.842,4.235,3.552
42511410,-0.713,-0.404,0.6,36.172,3.64,4.34
42511410,-0.727,-0.405,0.597,35.91,2.992,5.95
42511420,-0.759,-0.408,0.61,36.487,0.122,6.965
42511430,-0.758,-0.383,0.628,37.1,-6.055,7.542
42511440,-0.747,-0.375,0.647,37.38,-12.74,9.905
42511450,-0.733,-0.383,0.668,37.572,-17.5,12.022
42511460,-0.711,-0.363,0.675,38.325,-19.705,12.845
42511470,-0.705,-0.337,0.687,37.082,-20.79,13.107
42511480,-0.686,-0.345,0.692,35.77,-21.42,13.3
42511490,-0.686,-0.319,0.707,35.857,-22.242,12.547
42511500,-0.662,-0.272,0.718,33.582,-21.752,12.197
42511510,-0.677,-0.277,0.72,29.33,-19.39,13.265
42511520,-0.685,-0.278,0.721,25.69,-17.5,12.232
42511530,-0.681,-0.258,0.724,22.627,-16.415,10.587
42511540,-0.68,-0.254,0.724,19.092,-14.927,8.942
42511550,-0.673,-0.263,0.725,15.907,-11.427,6.107
42511560,-0.693,-0.263,0.721,14,-7.892,2.835
42511570,-0.745,-0.233,0.735,12.705,-6.195,-0.157
42511580,-0.77,-0.311,0.717,16.117,-20.02,-8.61
42511590,-0.258,-0.233,0.698,24.99,-26.127,-14.682
42511600,-0.609,-0.193,0.735,22.785,-0.91,-10.64
42511610,-0.646,-0.227,0.733,16.24,10.062,-6.807
42511620,-0.684,-0.255,0.73,10.255,8.19,-6.142
42511630,-0.665,-0.243,0.737,6.44,5.81,-4.882
42511640,-0.701,-0.266,0.736,2.415,6.37,-1.12
42511650,-0.736,-0.286,0.724,1.4,5.827,0
42511660,-0.774,-0.319,0.702,3.727,4.182,-0.105
42511670,-0.818,-0.365,0.697,11.865,-0.98,-1.662
42511680,-0.759,-0.302,0.667,24.027,-9.065,-8.487
42511690,-0.77,-0.254,0.662,29.942,-14.122,-12.6
42511700,-0.787,-0.28,0.664,35.385,-19.232,-11.445
42511710,-0.709,-0.259,0.682,44.397,-27.177,-13.387
42511720,-0.59,-0.236,0.71,52.08,-28.332,-16.345
42511730,-0.614,-0.144,0.725,52.902,-23.047,-14.472
42511740,-0.562,-0.162,0.711,44.957,-18.182,-15.05
42511750,-0.528,-0.16,0.712,33.985,-10.535,-16.205
42511760,-0.594,-0.229,0.715,22.627,-3.447,-13.877
42511760,-0.451,-0.308,0.723,20.125,4.235,-17.587
42511780,-0.602,-0.276,0.764,20.982,13.475,-20.265
42511780,-0.633,-0.246,0.772,17.885,14.595,-17.325
42511800,-0.479,-0.288,0.74,12.215,14.542,-17.902
42511800,-0.688,-0.318,0.718,8.225,21.822,-15.82
42511820,-0.795,-0.37,0.702,4.515,19.915,-9.362
42511820,-0.696,-0.377,0.666,1.225,7.927,-9.03
42511830,-0.723,-0.434,0.673,-0.98,4.2,-7.437
42511840,-0.783,-0.421,0.691,1.767,0.752,-0.857
42511850,-0.771,-0.403,0.73,4.69,-7.297,3.097
42511860,-0.727,-0.376,0.764,5.267,-15.575,6.125
42511870,-0.69,-0.359,0.762,8.067,-18.585,9.345
42511880,-0.677,-0.336,0.755,12.442,-19.162,6.072
42511890,-0.623,-0.246,0.748,13.737,-16.222,1.942
42511900,-0.761,-0.287,0.712,7.21,-13.335,5.32
42511910,-0.637,-0.265,0.769,8.54,-22.89,8.925
42511920,-0.569,-0.1,0.758,9.065,-22.207,7.91
42511930,-0.593,-0.205,0.807,-6.387,-11.602,13.93
42511940,-0.591,-0.262,0.828,-7.805,-5.582,16.835
42511950,-0.589,-0.157,0.824,-6.965,-2.467,12.74
42511960,-0.578,-0.169,0.798,-11.812,0.507,12.442
42511970,-0.567,-0.165,0.787,-16.66,6.492,13.597
42511980,-0.545,-0.222,0.804,-19.285,14.822,16.31
42511990,-0.495,-0.206,0.799,-13.002,25.27,20.58
42512000,-0.665,-0.046,0.781,-12.495,31.342,20.615
42512010,-0.596,-0.093,0.687,-29.837,24.08,17.027
42512020,-0.499,-0.154,0.647,-41.895,21.49,14.577
42512030,-0.511,-0.186,0.618,-46.9,28.49,11.217
42512040,-0.59,-0.197,0.607,-49.087,36.312,7.927
42512050,-0.638,-0.216,0.589,-49.42,36.452,5.652
42512060,-0.723,-0.204,0.559,-48.51,31.517,4.515
42512070,-0.696,-0.267,0.547,-48.177,22.715,3.71
42512080,-0.739,-0.313,0.558,-41.475,17.57,4.917
42512080,-0.746,-0.327,0.602,-31.342,14.7,7.175
42512100,-0.769,-0.344,0.633,-21.612,12.845,8.75
42512100,-0.837,-0.333,0.67,-12.792,9.747,10.202
42512120,-0.879,-0.288,0.678,-6.93,-3.447,9.73
42512120,-0.736,-0.256,0.631,-6.737,-18.077,3.517
42512140,-0.651,-0.301,0.625,-11.147,-16.852,3.08
42512140,-0.738,-0.335,0.672,-12.6,-4.987,10.272
42512160,-0.799,-0.35,0.723,-10.605,0.507,15.942
42512160,-0.758,-0.345,0.722,-6.545,-2.52,17.447
42512170,-0.707,-0.296,0.719,-5.355,-3.99,16.257
42512180,-0.7,-0.286,0.714,-8.89,-2.607,15.837
42512190,-0.682,-0.303,0.705,-13.615,-0.262,16.152
42512200,-0.698,-0.314,0.703,-16.957,2.065,17.64
42512210,-0.676,-0.312,0.691,-18.182,2.52,19.862
42512220,-0.673,-0.334,0.682,-16.642,3.99,22.102
42512230,-0.628,-0.337,0.665,-10.71,5.145,24.587
42512240,-0.652,-0.343,0.644,-2.467,9.222,27.107
42512250,-0.625,-0.362,0.625,7.052,14.647,29.015
42512260,-0.748,-0.422,0.648,18.9,19.652,31.185
42512270,-0.598,-0.286,0.626,33.88,17.692,30.45
42512280,-0.704,-0.326,0.644,44.59,23.082,30.082
42512290,-0.683,-0.277,0.615,54.635,21.017,26.6
42512300,-0.644,-0.19,0.607,63.665,20.65,21.892
42512310,-0.61,-0.125,0.615,66.062,25.095,18.235
42512320,-0.612,-0.084,0.581,61.705,32.567,16.59
42512330,-0.621,-0.075,0.57,58.275,42.735,16.572
42512340,-0.607,-0.04,0.544,50.54,54.722,11.27
42512350,-0.653,-0.038,0.538,38.342,69.142,6.44
42512360,-0.766,-0.095,0.566,25.095,80.08,1.645
42512370,-0.921,-0.138,0.593,15.627,80.605,-1.487
42512380,-1,-0.181,0.617,10.115,68.215,-2.117
42512390,-1.043,-0.215,0.626,7.21,51.485,-1.732
42512400,-1.067,-0.233,0.631,4.445,35.07,-1.382
42512410,-1.059,-0.251,0.63,1.767,19.915,1.365
42512420,-1.027,-0.272,0.62,0.997,6.51,7
42512430,-0.981,-0.267,0.611,2.187,-3.57,12.687
42512440,-0.93,-0.235,0.598,3.57,-10.325,16.975
42512450,-0.882,-0.202,0.581,3.307,-15.907,19.285
42512460,-0.837,-0.187,0.561,1.907,-20.79,19.67
42512470,-0.797,-0.176,0.553,1.05,-23.905,16.817
42512480,-0.76,-0.154,0.556,1.172,-25.83,12.267
42512490,-0.725,-0.137,0.574,1.207,-26.127,8.032
42512500,-0.704,-0.132,0.591,-0.07,-23.66,3.902
42512510,-0.705,-0.145,0.61,-2.205,-17.92,0.787
42512510,-0.732,-0.158,0.625,-3.587,-10.937,-0.717
42512530,-0.769,-0.174,0.648,-3.307,-4.76,-0.49
42512530,-0.784,-0.184,0.667,-1.33,-0.35,0.647
42512550,-0.778,-0.18,0.675,0.507,3.955,2.047
42512550,-0.719,-0.154,0.666,0.297,10.78,2.992
42512570,-0.679,-0.112,0.682,-2.607,21.105,4.69
42512570,-0.68,-0.109,0.664,-9.117,33.46,5.775
42512580,-0.688,-0.118,0.635,-15.785,45.377,6.912
42512590,-0.739,-0.151,0.61,-20.335,54.18,6.037
42512600,-0.807,-0.174,0.579,-20.51,57.435,5.547
42512610,-0.853,-0.213,0.558,-17.377,54.057,5.617
42512620,-0.852,-0.232,0.535,-12.67,48.125,5.022
42512630,-0.878,-0.25,0.519,-7.14,42.542,4.55
42512640,-0.877,-0.251,0.5,-3.255,38.5,2.905
42512650,-0.874,-0.237,0.483,-1.067,36.417,2.03
42512660,-0.887,-0.229,0.483,-0.035,33.635,2.502
42512670,-0.896,-0.202,0.481,0.42,29.662,3.22
42512680,-0.887,-0.181,0.482,-0.875,25.567,2.817
42512690,-0.888,-0.17,0.483,-2.712,22.137,1.96
42512700,-0.882,-0.146,0.487,-4.077,19.075,0.595
42512710,-0.883,-0.13,0.497,-5.197,15.26,0.052
42512720,-0.87,-0.123,0.499,-5.232,10.22,0.682
42512730,-0.849,-0.126,0.494,-3.237,5.792,1.872
42512740,-0.848,-0.138,0.491,0.542,4.165,2.415
42512750,-0.891,-0.155,0.497,5.022,4.865,0.455
42512760,-0.94,-0.177,0.505,10.272,4.812,-3.08
42512770,-0.997,-0.195,0.514,16.03,2.747,-6.265
42512780,-1.046,-0.197,0.513,22.137,-2.275,-7.91
42512790,-1.07,-0.194,0.522,28.192,-9.31,-6.86
42512800,-1.081,-0.167,0.533,33.915,-19.88,-2.905
42512810,-1.062,-0.165,0.533,37.66,-32.147,1.487
42512820,-1.02,-0.167,0.534,40.232,-40.845,3.92
42512830,-0.983,-0.158,0.545,41.282,-45.692,4.882
42512830,-0.978,-0.146,0.56,40.267,-48.545,4.007
42512850,-0.978,-0.143,0.569,38.01,-51.467,2.065
42512850,-0.978,-0.133,0.58,35.665,-55.895,0.297
42512870,-0.979,-0.106,0.599,33.39,-61.985,-1.19
42512870,-0.983,-0.087,0.623,31.832,-70.28,-1.802
42512890,-0.972,-0.079,0.646,30.765,-82.145,-1.47
42512890,-0.952,-0.077,0.657,29.645,-96.495,-0.612
42512910,-0.922,-0.072,0.673,29.295,-112.665,-0.84
42512910,-0.864,-0.06,0.676,30.59,-129.062,-2.555
42512920,-0.807,-0.057,0.675,32.952,-143.097,-4.707
42512930,-0.741,-0.064,0.67,36.137,-152.95,-7.315
42512940,-0.661,-0.051,0.682,40.11,-157.307,-10.255
42512950,-0.597,-0.029,0.672,44.012,-154.77,-11.865
42512960,-0.587,-0.028,0.694,44.625,-146.055,-12.372
42512970,-0.561,-0.005,0.706,44.625,-137.182,-14.21
42512980,-0.548,0.022,0.725,45.08,-128.712,-14.805
42512990,-0.558,0.027,0.733,42.717,-119.857,-14.507
42513000,-0.611,0.054,0.742,38.15,-114.677,-14.682
42513010,-0.634,0.04,0.738,32.252,-117.687,-15.12
42513020,-0.658,0.018,0.736,28.472,-125.09,-13.125
42513030,-0.666,0.011,0.739,25.147,-134.137,-13.72
42513040,-0.672,-0.008,0.735,21.665,-145.792,-18.392
42513050,-0.592,-0.024,0.727,20.282,-156.747,-18.532
42513060,-0.494,-0.004,0.75,19.267,-157.465,-13.632
42513070,-0.423,0.015,0.776,15.697,-148.592,-9.467
42513080,-0.403,0.017,0.789,9.712,-135.45,-4.042
42513090,-0.399,-0.02,0.803,5.127,-122.202,3.062
42513100,-0.364,-0.028,0.815,2.152,-109.97,5.845
42513110,-0.376,-0.031,0.834,0.665,-98.262,11.62
42513120,-0.372,-0.047,0.847,0.227,-90.177,18.69
42513130,-0.382,-0.045,0.884,0.437,-86.292,23.87
42513140,-0.382,-0.042,0.904,-1.47,-85.05,26.88
42513150,-0.392,-0.061,0.923,-4.672,-85.96,26.582
42513160,-0.39,-0.107,0.927,-4.812,-91.857,23.467
42513170,-0.34,-0.12,0.931,-1.12,-99.645,14.56
42513180,-0.282,-0.073,0.936,4.182,-106.61,2.135
42513190,-0.21,-0.042,0.921,4.9,-110.53,-5.932
42513200,-0.168,-0.037,0.907,0.735,-108.465,-9.187
42513210,-0.147,-0.037,0.907,-7.647,-102.41,-10.99
42513220,-0.113,-0.047,0.918,-18.497,-95.007,-10.482
42513230,-0.098,-0.079,0.923,-30.38,-85.785,-5.53
42513240,-0.085,-0.112,0.929,-40.25,-74.322,2.345
42513250,-0.079,-0.121,0.935,-47.197,-61.705,11.847
42513260,-0.107,-0.162,0.934,-51.205,-50.855,25.322
42513260,-0.155,-0.173,0.947,-51.555,-44.537,43.12
42513270,-0.19,-0.226,0.953,-52.57,-44.712,59.325
42513280,-0.135,-0.305,0.933,-50.732,-45.517,63.472
42513290,-0.211,-0.275,1.006,-40.18,-42.017,74.165
42513300,-0.224,-0.279,1.05,-36.05,-42.367,83.79
42513310,-0.238,-0.335,1.047,-31.097,-43.61,80.412
42513320,-0.24,-0.347,1.075,-19.11,-45.622,74.935
42513330,-0.195,-0.276,1.049,-13.44,-45.832,63.332
42513340,-0.172,-0.3,1.023,-7.805,-38.15,58.275
42513350,-0.163,-0.263,1.024,-0.297,-26.442,54.25
42513360,-0.192,-0.188,1.018,2.555,-12.232,53.777
42513370,-0.183,-0.191,0.993,1.067,3.465,47.757
42513380,-0.19,-0.136,0.976,-1.33,20.86,38.185
42513390,-0.246,-0.113,0.958,-5.092,36.89,36.767
42513400,-0.307,-0.117,0.937,-5.985,47.162,38.202
42513410,-0.372,-0.103,0.919,-6.807,48.527,37.047
42513420,-0.424,-0.119,0.9,-7.805,40.04,37.012
42513430,-0.467,-0.124,0.885,-7.752,24.64,38.325
42513440,-0.472,-0.128,0.873,-6.475,5.53,39.217
42513450,-0.457,-0.131,0.876,-3.937,-13.72,39.165
42513460,-0.433,-0.116,0.878,-3.675,-30.345,41.737
42513470,-0.386,-0.124,0.887,-5.127,-41.667,42.315
42513480,-0.348,-0.14,0.885,-5.95,-47.775,40.355
42513490,-0.277,-0.155,0.887,-6.195,-50.19,37.94
42513500,-0.189,-0.141,0.9,-6.195,-47.862,34.212
42513510,-0.154,-0.139,0.917,-7.927,-40.757,30.625
42513520,-0.127,-0.123,0.934,-11.34,-30.537,24.167
42513530,-0.142,-0.155,0.955,-16.17,-21.77,14.962
42513540,-0.144,-0.15,0.973,-18.06,-17.395,1.557
42513550,-0.139,-0.135,0.986,-18.777,-20.09,-10.045
42513560,-0.111,-0.144,0.994,-15.645,-27.58,-19.722
42513570,-0.075,-0.147,0.989,-10.605,-36.4,-26.057
42513580,-0.046,-0.156,0.978,-5.81,-43.505,-29.487
42513580,-0.031,-0.166,0.992,0.507,-51.17,-32.515
42513600,0.01,-0.156,0.997,8.102,-59.01,-34.615
42513600,0.031,-0.104,1.016,14.787,-63.297,-33.145
42513620,0.064,-0.122,1.002,17.202,-64.032,-32.357
42513620,0.056,-0.125,1.006,18.917,-63.087,-31.412
42513640,0.042,-0.098,0.997,15.96,-64.015,-25.13
42513640,0.056,-0.111,0.959,7.997,-63.595,-16.432
42513660,0.064,-0.138,0.934,-0.49,-56.577,-7.805
42513660,0.074,-0.142,0.928,-7.402,-44.45,-1.12
42513670,0.089,-0.137,0.921,-14.577,-31.71,7.98
42513680,0.065,-0.158,0.886,-25.427,-20.527,21.315
42513690,0.042,-0.178,0.9,-37.835,-9.59,29.732
42513700,-0.083,-0.202,0.949,-48.895,-5.197,33.792
42513710,-0.095,-0.285,0.97,-53.9,-10.395,29.242
42513720,0.005,-0.335,0.977,-50.19,-18.235,20.247
42513730,0.073,-0.36,0.998,-42.595,-17.342,9.73
42513740,0.116,-0.352,1.021,-26.18,-10.237,-4.672
42513750,0.189,-0.288,1.079,-3.85,-4.585,-16.975
42513760,0.203,-0.284,1.134,11.812,-1.68,-26.32
42513770,0.192,-0.308,1.146,24.167,-3.29,-38.902
42513780,0.234,-0.3,1.141,37.397,-8.925,-51.135
42513790,0.264,-0.193,1.118,54.162,-15.837,-59.202
42513800,0.247,-0.131,1.077,66.657,-31.08,-60.077
42513810,0.204,-0.087,1.032,72.992,-54.32,-61.6
42513820,0.259,0.006,0.995,70.21,-76.632,-68.022
42513830,0.353,0.102,0.96,56.892,-87.22,-76.335
42513840,0.425,0.135,0.883,34.807,-84.857,-88.497
42513850,0.503,0.141,0.832,7.14,-69.335,-100.87
42513860,0.539,0.12,0.786,-22.347,-43.522,-110.092
42513870,0.478,0.052,0.75,-51.152,-12.39,-114.625
42513880,0.347,-0.014,0.744,-77.297,17.657,-111.492
42513890,0.188,-0.075,0.731,-101.255,37.975,-102.515
42513900,0.07,-0.148,0.715,-118.212,49,-86.765
42513910,0.061,-0.207,0.69,-126.56,57.732,-65.555
42513920,-0.01,-0.285,0.687,-130.182,70.105,-40.635
42513930,-0.111,-0.351,0.698,-129.412,86.467,-20.755
42513940,-0.216,-0.416,0.7,-126.91,99.382,-13.772
42513950,-0.299,-0.446,0.729,-122.482,106.487,-14.192
42513960,-0.337,-0.457,0.743,-117.687,106.207,-16.572
42513960,-0.434,-0.503,0.736,-110.88,96.302,-16.642
42513980,-0.485,-0.568,0.766,-100.275,79.677,-15.662
42513980,-0.504,-0.703,0.866,-80.255,59.972,-13.702
42514000,-0.589,-0.884,1.037,-39.777,31.57,-11.007
42514000,-0.529,-0.925,1.132,22.277,-7.14,-10.99
42514010,-0.17,-0.668,1.159,85.242,-30.94,-8.54
42514020,0.034,-0.42,1.206,111.93,-24.535,-1.627
42514030,-0.07,-0.387,1.153,107.187,-6.352,-0.822
42514040,-0.217,-0.33,1.106,97.737,0.63,-7.735
42514050,-0.106,-0.283,1.06,84.962,-13.405,-8.977
42514060,0.144,-0.217,1.027,68.88,-14.49,-1.505
42514070,0.082,-0.211,1.023,52.15,3.272,5.512
42514080,0.045,-0.201,1.039,35.49,21.542,10.097
42514090,0.034,-0.219,1.04,19.11,38.045,12.145
42514100,-0.008,-0.246,1.049,4.112,52.132,11.182
42514110,-0.09,-0.26,1.061,-5.057,57.855,9.065
42514120,-0.143,-0.284,1.055,-6.79,53.375,9.957
42514130,-0.18,-0.327,1.029,-3.955,42.542,14.595
42514140,-0.208,-0.334,0.987,4.445,30.625,20.545
42514150,-0.25,-0.325,0.964,16.905,22.26,28.227
42514160,-0.291,-0.366,0.937,28.717,15.067,33.442
42514170,-0.34,-0.384,0.921,42.647,5.547,37.555
42514180,-0.339,-0.334,0.906,57.802,-4.217,42.49
42514190,-0.326,-0.285,0.907,69.195,-12.687,49.192
42514200,-0.32,-0.234,0.917,75.547,-20.982,63.087
42514210,-0.276,-0.173,0.923,76.3,-28.262,82.635
42514220,-0.229,-0.102,0.935,69.982,-31.727,103.687
42514230,-0.193,-0.048,0.943,56.42,-29.802,124.932
42514240,-0.234,-0.051,0.955,38.395,-24.255,144.917
42514250,-0.33,-0.147,0.978,20.002,-20.982,149.817
42514260,-0.371,-0.213,1.017,9.362,-24.832,131.88
42514270,-0.324,-0.223,1.024,7.577,-36.645,106.767
42514280,-0.2,-0.176,1.024,12.425,-52.78,92.172
42514290,-0.124,-0.163,1.021,19.215,-70.752,85.907
42514300,-0.037,-0.122,1.012,24.377,-88.235,87.325
42514310,0.048,-0.058,0.993,21.875,-99.242,95.462
42514320,0.08,-0.015,0.974,13.037,-99.54,105.997
42514330,0.142,-0.01,0.952,-2.012,-89.197,118.562
42514330,0.136,-0.031,0.936,-18.847,-71.347,129.657
42514350,0.061,-0.098,0.933,-34.247,-51.817,137.585
42514350,-0.06,-0.213,0.937,-45.465,-39.497,128.45
42514370,-0.065,-0.26,0.929,-43.172,-38.64,98.56
42514370,-0.038,-0.222,0.936,-32.9,-48.86,74.97
42514390,0.011,-0.132,0.951,-27.965,-67.69,56.857
42514390,0.03,-0.104,0.967,-34.125,-90.685,41.58
42514410,0.038,-0.124,0.969,-45.395,-114.782,34.142
42514410,0.089,-0.149,0.948,-52.797,-134.75,30.52
42514420,0.185,-0.184,0.931,-54.967,-142.275,29.277
42514430,0.265,-0.254,0.919,-51.8,-133.157,30.362
42514440,0.301,-0.322,0.937,-42.105,-108.675,34.335
42514450,0.289,-0.357,0.968,-28.437,-74.952,39.532
42514460,0.236,-0.369,0.995,-15.505,-38.867,42.35
42514470,0.186,-0.351,1.019,-5.215,-6.667,39.935
42514480,0.142,-0.332,1.028,4.095,17.727,35.997
42514490,0.095,-0.315,1.018,13.912,33.372,32.007
42514500,0.058,-0.286,1.003,24.36,40.547,28.052
42514510,0.027,-0.246,0.991,33.652,39.707,24.762
42514520,0.028,-0.19,0.98,39.725,32.112,21.98
42514530,0.055,-0.127,0.963,39.952,22.505,21.105
42514540,0.082,-0.087,0.941,33.845,14.787,21.595
42514550,0.097,-0.08,0.907,24.08,11.567,22.33
42514560,0.094,-0.081,0.879,13.772,12.705,23.467
42514570,0.068,-0.085,0.853,3.43,16.94,24.465
42514580,0.021,-0.105,0.834,-5.32,23.992,26.722
42514590,-0.055,-0.16,0.842,-10.64,30.695,28.892
42514600,-0.164,-0.23,0.863,-10.71,32.585,33.705
42514610,-0.243,-0.286,0.886,-2.905,25.375,41.51
42514620,-0.254,-0.278,0.922,9.59,12.197,49.647
42514630,-0.232,-0.255,0.961,19.04,-1.54,55.352
42514640,-0.169,-0.233,0.988,23.73,-13.475,59.377
42514650,-0.079,-0.201,1.007,25.62,-21.525,60.987
42514660,-0.049,-0.174,1.017,25.585,-26.88,58.94
42514670,0.003,-0.176,1.014,25.34,-32.235,54.512
42514670,0.054,-0.168,1.014,27.79,-40.337,49.997
42514690,0.076,-0.135,1.018,31.325,-50.33,44.047
42514690,0.161,-0.096,1.003,33.915,-60.287,37.047
42514710,0.269,-0.046,0.988,32.9,-65.485,31.167
42514710,0.341,-0.001,0.977,25.27,-61.845,26.757
42514730,0.367,0.001,0.964,12.915,-49.21,22.627
42514730,0.359,-0.004,0.946,-1.015,-30.38,16.835
42514750,0.335,-0.013,0.937,-14.717,-9.502,9.957
42514750,0.282,-0.029,0.92,-28.525,9.152,4.515
42514760,0.226,-0.043,0.906,-40.845,21.682,0.84
42514770,0.167,-0.066,0.897,-52.01,27.755,-3.43
42514780,0.061,-0.133,0.88,-59.412,25.095,-6.177
42514790,-0.02,-0.2,0.867,-58.03,10.237,-5.075
42514800,-0.024,-0.198,0.857,-49.507,-13.002,-5.302
42514810,0.02,-0.177,0.837,-42.437,-37.082,-6.527
42514820,0.054,-0.177,0.82,-40.145,-55.667,-8.627
42514830,0.093,-0.162,0.815,-42.14,-65.415,-12.967
42514840,0.121,-0.153,0.821,-49.63,-68.11,-19.25
42514850,0.142,-0.164,0.803,-58.59,-67.34,-29.452
42514860,0.122,-0.212,0.805,-65.502,-67.322,-38.57
42514870,0.114,-0.26,0.801,-67.76,-72.572,-48.247
42514880,0.119,-0.32,0.775,-61.792,-85.277,-53.515
42514890,0.214,-0.344,0.782,-49.56,-100.135,-54.687
42514900,0.415,-0.393,0.825,-40.11,-101.675,-53.847
42514910,0.54,-0.602,0.975,-28.122,-77.507,-49.245
42514920,0.562,-0.678,1.092,5.845,-36.68,-40.915
42514930,0.428,-0.467,1.202,32.235,4.445,-38.08
42514940,0.222,-0.45,1.223,33.495,16.502,-35.647
42514950,0.123,-0.459,1.179,29.575,-0.63,-26.005
42514960,0.223,-0.413,1.135,26.67,-26.687,-16.117
42514970,0.303,-0.489,1.08,10.867,-52.727,3.342
42514980,0.494,-0.606,1.046,5.267,-56.21,17.937
42514990,0.569,-0.672,1.075,13.58,-39.462,28.227
42515000,0.668,-0.651,1.102,21.14,-12.495,35.857
42515010,0.677,-0.675,1.132,23.992,23.695,36.82
42515020,0.728,-0.71,1.122,26.565,63.945,28.56
42515030,0.563,-0.736,1.135,30.992,97.405,22.855
42515040,0.478,-0.743,1.154,36.627,113.225,19.67
42515050,0.357,-0.733,1.15,40.512,112.192,21.315
42515060,0.328,-0.744,1.122,39.917,101.395,25.322
42515070,0.366,-0.771,1.068,39.235,90.737,25.165
42515080,0.37,-0.771,1.059,35.962,85.995,26.985
42515080,0.37,-0.738,1.04,29.207,86.275,28.192
42515100,0.415,-0.722,1.01,20.16,93.275,25.725
42515100,0.432,-0.68,0.983,10.447,105.035,22.225
42515120,0.471,-0.64,0.948,3.22,119.192,16.625
42515120,0.414,-0.703,0.881,-1.207,134.627,12.162
42515140,0.407,-0.538,0.877,-0.297,144.13,7.087
42515140,0.344,-0.529,0.84,-8.802,152.302,-3.99
42515160,0.272,-0.491,0.752,-19.81,156.887,-6.632
42515160,0.193,-0.41,0.717,-34.037,156.747,-13.37
42515170,0.114,-0.376,0.641,-50.207,154.735,-14.7
42515180,0.08,-0.349,0.554,-65.537,151.655,-21.472
42515190,0.059,-0.325,0.411,-73.15,154.752,-26.67
42515200,-0.122,-0.301,0.373,-93.275,153.93,-30.117
42515210,-0.157,-0.227,0.35,-95.725,142.73,-28.805
42515220,-0.047,-0.276,0.322,-90.72,143.377,-24.815
42515230,-0.178,-0.268,0.346,-86.747,152.302,-24.99
42515240,-0.222,-0.2,0.387,-73.22,155.505,-21.315
42515250,-0.266,-0.171,0.442,-62.51,155.61,-15.627
42515260,-0.296,-0.147,0.515,-56.595,157.797,-13.002
42515270,-0.377,-0.177,0.595,-53.795,159.862,-16.8
42515280,-0.494,-0.227,0.666,-47.075,154.245,-23.73
42515290,-0.554,-0.234,0.728,-32.917,135.765,-29.75
42515300,-0.625,-0.233,0.738,-15.19,108.517,-34.755
42515310,-0.781,-0.231,0.784,3.237,72.117,-35.577
42515320,-0.384,-0.222,0.769,19.512,25.567,-34.807
42515330,-0.253,-0.262,0.832,58.45,38.902,-36.365
42515340,-0.258,-0.188,0.74,98.577,60.112,-41.737
42515350,-0.292,0.026,0.827,121.205,85.855,-46.445
42515360,-0.36,-0.048,0.681,122.43,95.13,-35.997
42515370,-0.354,0.013,0.702,126.805,121.747,-21.175
42515380,-0.45,0,0.595,136.762,147.367,-23.397
42515390,-0.587,-0.057,0.529,145.162,164.062,-25.952
42515400,-0.698,0.045,0.525,161.472,168.227,-28.07
42515410,-0.702,0.108,0.512,168.595,165.9,-29.785
42515420,-0.814,0.136,0.502,161.717,165.48,-32.27
42515420,-0.948,0.16,0.504,149.432,155.715,-35.245
42515440,-1.05,0.128,0.505,138.53,135.38,-37.187
42515440,-0.996,0.124,0.52,130.76,110.512,-49.035
42515460,-0.944,0.059,0.534,127.697,93.24,-60.917
42515460,-0.957,0.043,0.588,137.637,84.717,-67.62
42515480,-0.907,0.046,0.658,150.622,80.972,-81.252
42515480,-0.801,0.144,0.682,156.73,75.337,-82.915
42515500,-0.711,0.238,0.712,148.802,76.072,-67.952
42515500,-0.698,0.299,0.732,130.34,90.002,-45.22
42515510,-0.746,0.337,0.782,104.825,109.462,-22.05
42515520,-0.872,0.326,0.799,74.55,125.597,-3.045
42515530,-0.945,0.269,0.79,46.147,129.885,8.645
42515540,-0.967,0.16,0.713,24.22,125.667,10.412
42515550,-1.011,0.102,0.729,16.117,118.387,9.537
42515560,-1.078,0.109,0.745,16.695,94.605,9.817
42515570,-1.04,0.095,0.751,17.062,68.215,10.605
42515580,-1.084,0.049,0.793,16.047,42.157,9.695
42515590,-1.087,0.019,0.805,18.112,11.987,7.56
42515600,-1.036,-0.047,0.791,18.585,-9.887,-3.447
42515610,-0.996,0.023,0.856,20.212,-26.88,-13.212
42515620,-0.891,0.014,0.854,19.705,-43.802,-11.917
42515630,-0.754,-0.03,0.822,13.3,-38.727,-19.162
42515640,-0.805,-0.087,0.847,12.477,-29.785,-18.76
42515650,-0.797,-0.105,0.854,13.002,-17.605,-23.275
42515660,-0.871,-0.188,0.88,13.072,-9.45,-22.802
42515670,-0.939,-0.208,0.843,18.882,-13.387,-26.407
42515680,-0.956,-0.235,0.803,24.867,-26.25,-32.497
42515690,-0.934,-0.261,0.733,30.45,-48.02,-30.52
42515700,-0.929,-0.227,0.62,35.367,-69.16,-23.572
42515710,-0.834,-0.144,0.573,33.092,-85.225,-19.355
42515720,-0.728,-0.118,0.519,23.782,-98.595,-16.17
42515730,-0.635,-0.151,0.501,15.715,-98.245,-8.732
42515740,-0.604,-0.068,0.556,8.085,-86.94,-0.28
42515750,-0.653,-0.106,0.668,-0.262,-76.317,9.432
42515760,-0.583,-0.208,0.679,-6.755,-70.752,11.69
42515770,-0.437,-0.227,0.707,-5.495,-50.907,10.832
42515780,-0.459,-0.146,0.832,5.267,-17.57,8.102
42515790,-0.524,-0.034,0.901,12.022,9.887,4.427
42515800,-0.614,0,0.936,10.342,27.177,0.84
42515810,-0.679,0.006,0.921,5.687,31.64,-3.045
42515820,-0.676,0,0.891,0.577,31.307,-8.155
42515830,-0.676,-0.016,0.875,-3.587,28.227,-14.35
42515830,-0.589,-0.01,0.81,-3.797,24.5,-15.61
42515850,-0.572,-0.025,0.778,-2.187,27.912,-11.042
42515850,-0.6,-0.055,0.752,3.552,33.845,-4.182
42515870,-0.617,-0.068,0.731,11.952,39.165,3.99
42515870,-0.629,-0.063,0.722,17.797,47.81,8.715
42515890,-0.636,-0.053,0.73,17.885,60.252,9.782
42515890,-0.654,-0.029,0.746,15.732,73.115,9.747
42515910,-0.716,-0.044,0.746,10.85,85.155,9.94
42515910,-0.783,-0.06,0.733,7.052,92.82,9.502
42515920,-0.841,-0.056,0.711,4.27,95.147,7.21
42515930,-0.894,-0.06,0.703,1.645,91.42,4.305
42515940,-0.967,-0.067,0.704,-2.1,78.662,1.417
42515950,-0.968,-0.072,0.681,-2.975,57.312,0.945
42515960,-0.959,-0.075,0.664,-4.147,32.76,3.307
42515970,-0.937,-0.064,0.646,-3.675,7.612,5.565
42515980,-0.884,-0.048,0.621,-2.572,-16.152,8.487
42515990,-0.756,-0.011,0.62,-2.047,-32.462,8.977
42516000,-0.742,-0.016,0.598,-5.705,-41.405,7.735
42516010,-0.681,-0.042,0.584,-8.242,-45.307,8.225
42516020,-0.603,-0.002,0.557,-9.17,-42.402,5.355
42516030,-0.574,0.023,0.546,-12.757,-32.725,2.992
42516040,-0.61,-0.011,0.546,-16.502,-19.775,3.062
42516050,-0.668,-0.005,0.548,-18.55,-8.942,0.105
42516060,-0.749,-0.014,0.576,-20.387,-5.46,-4.252
42516070,-0.848,-0.075,0.579,-21.665,-14.682,-8.837
42516080,-0.936,-0.124,0.598,-16.485,-34.247,-15.312
42516090,-0.953,-0.118,0.638,-4.987,-65.572,-20.317
42516100,-0.885,-0.083,0.682,5.425,-100.537,-19.967
42516110,-0.695,-0.046,0.703,9.345,-125.247,-16.87
42516120,-0.545,-0.107,0.731,9.082,-126.087,-12.25
42516130,-0.381,-0.048,0.707,10.43,-100.625,-3.92
42516140,-0.331,0.004,0.713,-0.175,-51.45,-4.812
42516150,-0.572,-0.13,0.78,-8.505,-1.715,-1.207
42516160,-0.771,-0.166,0.791,-4.2,22.505,-1.435
42516170,-0.903,-0.166,0.81,4.235,16.52,-6.23
42516170,-0.921,-0.128,0.821,14.192,-11.865,-9.975
42516190,-0.607,-0.053,0.732,24.36,-40.775,-6.02
42516190,-0.492,-0.033,0.742,27.265,-33.127,-1.242
42516210,-0.543,0.001,0.738,24.587,-3.955,-4.147
42516210,-0.684,-0.004,0.736,18.585,17.185,-5.897
42516230,-0.75,-0.013,0.711,10.745,19.915,-8.225
42516230,-0.7,-0.023,0.673,4.602,13.02,-11.637
42516250,-0.634,-0.008,0.645,1.732,8.907,-14.822
42516250,-0.612,0.002,0.637,0.052,13.002,-16.117
42516260,-0.651,0.023,0.653,-4.042,19.442,-17.482
42516270,-0.664,0.038,0.702,-8.207,21.752,-19.355
42516280,-0.644,0.018,0.747,-10.517,26.635,-18.62
42516290,-0.702,-0.023,0.776,-12.04,30.66,-18.69
42516300,-0.672,-0.059,0.782,-12.162,34.125,-21.052
42516310,-0.709,-0.072,0.798,-11.27,37.957,-21.087
42516320,-0.756,-0.067,0.795,-9.852,37.905,-19.547
42516330,-0.734,-0.094,0.759,-11.48,34.107,-20.947
42516340,-0.702,-0.081,0.719,-13.142,31.587,-20.982
42516350,-0.735,-0.091,0.69,-15.487,32.305,-17.482
42516360,-0.75,-0.091,0.669,-19.635,32.777,-12.477
42516370,-0.764,-0.066,0.66,-27.072,32.515,-4.445
42516380,-0.791,-0.106,0.661,-35.997,33.547,3.517
42516390,-0.78,-0.102,0.689,-44.065,33.057,4.392
42516400,-0.782,-0.208,0.688,-52.465,36.715,2.397
42516410,-0.868,-0.175,0.727,-52.937,41.685,-4.025
42516420,-0.94,-0.161,0.756,-55.072,31.325,-6.667
42516430,-0.862,-0.192,0.729,-55.002,19.127,-6.02
42516440,-0.837,-0.17,0.679,-57.032,13.86,-9.24
42516450,-0.809,-0.171,0.654,-57.837,10.99,-9.607
42516460,-0.794,-0.176,0.624,-58.485,9.047,-9.485
42516470,-0.805,-0.185,0.609,-57.172,7.735,-9.887
42516480,-0.835,-0.207,0.597,-55.265,6.65,-10.78
42516490,-0.789,-0.184,0.591,-54.862,3.762,-15.26
42516500,-0.777,-0.212,0.571,-52.57,2.817,-14.682
42516510,-0.787,-0.227,0.577,-46.847,1.417,-11.97
42516520,-0.728,-0.205,0.6,-39.235,-3.797,-9.817
42516530,-0.62,-0.213,0.597,-32.795,-5.635,-10.482
42516540,-0.578,-0.217,0.596,-25.567,-1.837,-13.23
42516550,-0.581,-0.21,0.586,-18.952,4.865,-17.115
42516560,-0.617,-0.211,0.579,-15.645,13.212,-21.402
42516570,-0.696,-0.231,0.58,-15.295,21.035,-24.395
42516580,-0.819,-0.259,0.591,-14.805,22.662,-21.997
42516580,-0.864,-0.276,0.599,-14.752,18.427,-16.572
42516600,-0.888,-0.287,0.602,-13.982,14.262,-12.547
42516600,-0.883,-0.268,0.597,-13.335,9.467,-8.295
42516620,-1.003,-0.356,0.487,-8.312,-7.385,-6.212
42516620,-0.569,-0.14,0.596,3.115,-10.937,-0.612
42516640,-0.947,-0.287,0.616,-10.622,3.605,-0.402
42516640,-0.808,-0.358,0.597,-10.325,-5.215,-1.61
42516660,-0.735,-0.277,0.609,-5.162,-12.915,-0.525
42516660,-0.655,-0.231,0.614,-4.252,-13.37,-1.137
42516670,-0.638,-0.221,0.613,-8.627,-10.185,2.1
42516680,-0.654,-0.282,0.608,-11.882,-6.65,5.337
42516690,-0.724,-0.311,0.616,-10.132,-6.352,6.335
42516700,-0.774,-0.284,0.627,-6.895,-12.005,5.897
42516710,-0.802,-0.25,0.67,-6.3,-18.27,6.265
42516720,-0.877,-0.273,0.666,-9.362,-22.452,7.927
42516730,-0.898,-0.297,0.635,-9.905,-25.76,5.67
42516740,-0.898,-0.242,0.63,-8.207,-28.962,1.137
42516750,-0.928,-0.239,0.637,-7.7,-32.952,-1.172
42516760,-0.935,-0.211,0.661,-6.597,-38.5,-4.847
42516770,-0.89,-0.159,0.712,-10.43,-42.157,-7.455
42516780,-0.803,-0.153,0.721,-23.03,-42.21,-8.207
42516790,-0.739,-0.201,0.685,-37.8,-38.78,-7.962
42516800,-0.642,-0.2,0.678,-48.93,-34.44,-6.072
42516810,-0.579,-0.218,0.656,-58.397,-29.137,-2.52
42516820,-0.564,-0.259,0.613,-64.207,-21.542,-1.872
42516830,-0.596,-0.315,0.579,-63.962,-14.56,-1.592
42516840,-0.671,-0.355,0.549,-57.907,-12.022,0.945
42516850,-0.734,-0.393,0.567,-49.682,-13.562,3.832
42516860,-0.804,-0.413,0.614,-40.092,-17.64,4.147
42516870,-0.901,-0.405,0.646,-32.76,-26.127,4.707
42516880,-0.959,-0.438,0.613,-25.392,-38.797,4.567
42516890,-0.971,-0.405,0.605,-15.662,-56.157,6.335
42516900,-0.955,-0.424,0.57,-8.137,-73.342,10.185
42516910,-0.856,-0.415,0.561,5.635,-89.652,18.76
42516920,-0.802,-0.382,0.538,21.49,-105.35,34.212
42516920,-0.5,-0.27,0.541,39.025,-119.385,50.312
42516940,-0.202,-0.113,0.642,46.567,-111.702,60.515
42516940,-0.195,-0.114,0.734,38.36,-85.207,59.5
42516960,-0.215,-0.159,0.833,30.38,-58.082,45.5
42516960,-0.349,-0.184,0.849,23.152,-37.17,32.06
42516980,-0.537,-0.163,0.816,18.585,-26.652,28.052
42516980,-0.737,-0.231,0.759,13.265,-21.927,24.955
42517000,-0.838,-0.207,0.756,10.92,-23.292,18.322
42517000,-0.914,-0.217,0.762,7.7,-27.93,18.497
42517010,-0.878,-0.258,0.773,4.007,-36.522,20.877
42517020,-0.867,-0.289,0.779,1.505,-45.92,22.312
42517030,-0.742,-0.263,0.757,1.085,-57.137,21.735
42517040,-0.629,-0.239,0.726,0.472,-61.775,20.422
42517050,-0.505,-0.221,0.725,-0.735,-60.9,20.09
42517060,-0.398,-0.216,0.729,-3.727,-52.167,18.305
42517070,-0.415,-0.27,0.718,-6.387,-40.215,15.575
42517080,-0.41,-0.277,0.714,-7.07,-29.137,12.6
42517090,-0.465,-0.284,0.717,-7.262,-18.322,11.76
42517100,-0.544,-0.278,0.717,-4.252,-12.215,9.362
42517110,-0.589,-0.222,0.753,-1.242,-10.01,7.262
42517120,-0.722,-0.242,0.802,-2.012,-9.922,6.842
42517130,-0.833,-0.253,0.848,-2.03,-16.222,5.39
42517140,-0.877,-0.237,0.864,-1.995,-28.56,4.987
42517150,-0.854,-0.246,0.886,-1.767,-44.712,4.497
42517160,-0.708,-0.2,0.827,2.852,-62.545,3.762
42517170,-0.582,-0.2,0.777,8.032,-74.305,3.92
42517180,-0.619,-0.286,0.772,12.932,-84.105,4.882
42517190,-0.207,-0.249,0.797,25.812,-98.227,12.617
42517200,-0.448,-0.285,0.743,34.685,-87.062,19.652
42517210,-0.325,-0.24,0.698,41.107,-89.915,26.11
42517220,-0.257,-0.182,0.711,46.48,-89.985,35.42
42517230,-0.197,-0.091,0.852,46.06,-80.097,48.212
42517240,-0.291,-0.069,0.935,37.467,-61.407,50.05
42517250,-0.434,-0.084,0.997,24.92,-46.007,43.155
42517260,-0.639,-0.118,0.992,13.492,-36.05,34.702
42517270,-0.887,-0.157,0.917,9.432,-39.077,29.715
42517280,-0.915,-0.167,0.893,12.25,-58.485,31.027
42517290,-0.806,-0.168,0.859,16.187,-79.992,32.69
42517300,-0.652,-0.192,0.826,21.052,-94.972,35.385
42517310,-0.457,-0.197,0.795,25.847,-104.055,41.877
42517320,-0.264,-0.2,0.794,29.242,-103.967,45.325
42517330,-0.113,-0.172,0.804,31.22,-94.797,44.415
42517330,-0.019,-0.19,0.826,31.867,-81.865,41.405
42517350,-0.022,-0.211,0.831,34.912,-67.375,34.562
42517350,-0.073,-0.171,0.81,39.76,-52.605,27.667
42517360,-0.184,-0.11,0.811,43.575,-38.045,24.272
42517370,-0.343,-0.042,0.892,41.825,-23.152,24.027
42517380,-0.527,-0.002,0.992,35.21,-13.072,20.877
42517390,-0.63,-0.031,1.069,30.73,-16.397,17.097
42517400,-0.636,-0.01,1.065,30.415,-28.245,17.29
42517410,-0.552,0.026,1.051,30.03,-40.757,24.045
42517420,-0.535,-0.031,1.001,29.907,-53.077,31.202
42517430,-0.323,-0.005,0.986,33.95,-67.637,39.55
42517440,-0.153,0.082,0.987,30.782,-64.435,46.007
42517450,-0.114,0.021,0.943,22.295,-51.275,43.802
42517460,0.038,0.034,0.952,19.915,-44.94,42.787
42517470,-0.099,-0.058,0.918,18.725,-35.07,43.155
42517480,-0.206,-0.185,0.907,21.717,-38.517,37.082
42517490,-0.22,-0.091,0.922,24.097,-39.742,34.317
42517500,-0.442,-0.049,0.975,20.142,-28.822,29.522
42517510,-0.507,-0.022,1.025,17.045,-29.715,23.345
42517520,-0.521,-0.018,1.017,17.15,-40.88,26.18
42517530,-0.445,0.008,0.977,19.862,-54.372,29.487
42517540,-0.312,0.009,0.935,20.65,-62.65,28.787
42517550,-0.224,0.03,0.905,21.84,-63.682,28.122
42517560,-0.168,0.034,0.896,23.275,-62.912,28.105
42517570,-0.116,0.039,0.886,23.607,-59.185,27.912
42517580,-0.093,0.074,0.932,21.332,-49.682,26.967
42517590,-0.151,0.044,0.966,18.9,-42.017,23.38
42517600,-0.127,0.085,1.014,18.06,-39.305,19.74
42517610,-0.182,0.101,1.089,14.297,-35.857,18.34
42517620,-0.23,0.113,1.159,10.08,-38.902,16.24
42517630,-0.237,0.111,1.141,4.34,-44.572,14.472
42517640,-0.277,0.062,1.079,-2.047,-48.912,15.767
42517650,-0.299,0.016,0.979,-3.832,-54.897,15.977
42517660,-0.259,-0.012,0.878,-1.032,-61.145,18.602
42517670,-0.156,-0.038,0.838,4.655,-63.087,22.61
42517670,-0.106,-0.086,0.804,12.565,-63.91,26.67
42517690,-0.018,-0.099,0.795,22.61,-62.842,33.757
42517690,-0.004,-0.106,0.789,32.025,-56.997,35.98
42517710,-0.013,-0.103,0.811,41.825,-52.08,33.582
42517710,0.035,-0.06,0.873,51.642,-47.565,32.742
42517730,-0.024,-0.013,0.959,59.167,-42.21,30.94
42517730,-0.065,0.068,1.011,63.367,-40.46,25.322
42517750,-0.071,0.123,1.055,64.662,-42.385,16.712
42517750,-0.053,0.13,1.042,64.68,-46.41,12.022
42517760,-0.137,0.169,1.088,64.312,-53.042,17.272
42517770,-0.137,0.209,1.132,65.835,-65.992,21.297
42517780,-0.141,0.261,1.156,66.57,-79.117,24.797
42517790,-0.086,0.298,1.17,62.93,-87.167,28.595
42517800,-0.132,0.258,1.145,54.722,-89.967,33.547
42517810,-0.072,0.189,1.118,50.872,-96.11,38.657
42517820,0.049,0.204,1.098,50.715,-100.8,45.675
42517830,0.229,0.248,1.075,47.88,-96.827,49.122
42517840,0.355,0.194,1.023,42.945,-85.085,49.122
42517850,0.468,0.207,0.932,43.102,-74.9,43.995
42517860,0.367,0.188,0.79,44.345,-62.317,32.69
42517870,0.21,0.07,0.632,47.442,-56.402,23.222
42517880,0.275,0.079,0.506,58.38,-58.38,18.217
42517890,0.121,0.101,0.545,68.267,-49,12.495
42517900,-0.02,0.082,0.709,76.107,-28.105,-4.147
42517910,-0.208,0.3,0.938,81.462,-12.757,-19.407
42517920,-0.394,0.306,1.146,74.112,-1.68,-21.805
42517930,-0.468,0.356,1.269,66.395,2.975,-8.662
42517940,-0.59,0.193,1.4,63.577,-18.515,13.422
42517950,0.2,0.484,1.361,65.187,-51.082,29.137
42517960,0.242,0.298,1.079,52.815,-57.12,40.267
42517970,0.682,0.284,0.832,41.72,-50.47,28.472
42517980,0.711,0.243,0.727,24.185,-12.495,9.572
42517990,0.475,0.097,0.747,10.57,20.352,-10.045
42518000,0.46,0.236,0.856,5.582,31.885,-19.722
42518010,0.154,0.336,1.016,-4.06,33.617,-16.327
42518020,0.043,0.347,1.001,-24.465,1.085,-9.327
42518030,0.509,0.318,1.057,-32.392,-15.015,-3.202
42518040,-0.092,0.422,1.016,-44.887,-8.505,-4.935
42518050,-0.059,0.44,0.968,-66.727,-32.76,-7.017
42518050,0.256,0.116,0.972,-73.482,-45.815,-3.587
42518070,0.384,0.219,1.041,-48.422,-12.162,-11.41
42518070,-0.211,0.403,0.93,-35.105,19.582,-17.955
42518080,-0.074,0.384,0.89,-34.842,10.517,-20.457
42518090,0.203,0.409,0.881,-30.065,8.452,-24.57
42518100,-0.056,0.446,0.921,-20.912,27.702,-22.68
42518110,-0.201,0.553,0.954,-14.63,29.225,-23.222
42518120,-0.142,0.569,0.983,-17.57,12.25,-20.055
42518130,0.021,0.529,0.99,-22.627,-3.447,-13.23
42518140,0.112,0.503,0.989,-27.475,-9.852,-5.792
42518150,0.204,0.43,0.99,-36.12,-12.53,-1.592
42518160,0.302,0.349,0.989,-47.617,-13.142,0.087
42518170,0.373,0.235,1.014,-58.047,-7.612,-0.14
42518180,0.327,0.148,0.956,-64.312,1.89,-1.19
42518190,0.159,0.052,0.881,-65.362,5.845,0.805
42518200,0.086,-0.002,0.867,-60.2,0.717,1.592
42518210,0.047,-0.013,0.89,-53.76,-2.817,-1.137
42518220,-0.079,-0.052,0.886,-47.495,-6.23,-6.772
42518230,-0.096,-0.025,0.896,-40.495,-15.382,-14.402
42518240,-0.068,-0.017,0.907,-34.807,-26.582,-16.117
42518250,0.025,0.014,0.962,-28.035,-35.542,-14.332
42518260,0.098,0.024,0.95,-19.897,-42.227,-11.637
42518270,0.144,0.077,0.867,-11.97,-48.37,-11.34
42518280,0.213,0.082,0.825,-6.615,-50.872,-11.742
42518290,0.198,0.048,0.811,-0.542,-49.91,-12.372
42518300,0.155,0.068,0.844,7.752,-53.515,-14.56
42518310,0.158,0.09,0.879,16.59,-60.182,-17.307
42518320,0.226,0.204,0.984,21.157,-63.175,-16.135
42518330,0.108,0.219,1.049,21.192,-66.395,-6.685
42518340,0.173,0.276,1.061,22.4,-77,-0.525
42518350,0.177,0.257,1.01,22.067,-83.107,2.1
42518360,0.172,0.215,0.935,22.837,-86.292,0.472
42518370,0.257,0.171,0.867,24.99,-88.007,-1.785
42518380,0.276,0.161,0.826,25.55,-84.35,0.105
42518390,0.305,0.145,0.807,23.432,-75.215,-2.765
42518400,0.337,0.106,0.84,20.597,-65.765,-8.75
42518410,0.385,0.108,0.894,22.277,-62.335,-9.327
42518420,0.404,0.167,0.911,25.567,-63.402,-8.75
42518420,0.447,0.16,0.917,27.23,-61.81,-10.167
42518440,0.418,0.172,0.9,28.91,-55.685,-10.57
42518440,0.42,0.226,0.889,29.137,-49.332,-9.607
42518460,0.47,0.261,0.938,24.395,-40.11,-6.912
42518460,0.445,0.269,0.942,17.115,-27.65,-7.14
42518480,0.442,0.254,0.956,10.342,-17.745,-9.397
42518480,0.357,0.246,0.977,5.022,-12.582,-7.367
42518500,0.284,0.262,0.952,1.207,-15.767,-6.492
42518500,0.3,0.248,0.932,-2.625,-22.662,-5.617
42518510,0.349,0.25,0.916,-3.675,-27.317,-4.48
42518520,0.394,0.282,0.919,-3.902,-28.63,-5.11
42518530,0.451,0.272,0.909,-5.232,-28.98,-4.69
42518540,0.499,0.264,0.858,-6.335,-29.347,-2.205
42518550,0.549,0.254,0.821,-8.435,-24.675,-2.065
42518560,0.52,0.216,0.804,-15.505,-14.227,-2.782
42518570,0.516,0.052,0.79,-20.842,-2.327,-3.92
42518580,0.481,0.031,0.857,-16.695,6.3,-8.575
42518590,0.479,0.181,0.89,-11.007,5.67,-6.615
42518600,0.454,0.155,0.91,-14.07,10.185,-6.72
42518610,0.354,0.179,0.919,-15.102,12.792,-7.787
42518620,0.261,0.192,0.912,-13.3,8.347,-6.002
42518630,0.24,0.202,0.905,-9.782,-0.245,-3.657
42518640,0.284,0.259,0.919,-5.827,-6.825,-2.485
42518650,0.265,0.293,0.923,-2.1,-8.75,-0.892
42518660,0.242,0.385,0.949,2.415,-11.252,1.26
42518670,0.234,0.404,0.958,3.377,-15.785,3.815
42518680,0.227,0.398,0.936,2.835,-21.56,4.917
42518690,0.257,0.328,0.916,-0.367,-30.257,6.86
42518700,0.343,0.274,0.869,-1.592,-36.89,8.54
42518710,0.434,0.276,0.843,-2.625,-36.452,8.47
42518720,0.508,0.196,0.807,-6.16,-31.08,8.155
42518730,0.552,0.15,0.788,-7.997,-23.87,6.597
42518740,0.539,0.093,0.826,-9.8,-14.682,4.357
42518750,0.41,0.069,0.869,-10.132,-8.277,-0.035
42518760,0.327,0.102,0.932,-10.902,-7.665,-3.99
42518760,0.23,0.085,1.002,-13.65,-8.575,-8.12
42518780,0.105,0.118,1.058,-14.962,-16.73,-11.62
42518780,0.132,0.189,1.064,-16.117,-33.897,-13.58
42518800,0.265,0.208,0.986,-17.57,-46.34,-16.502
42518800,0.26,0.252,0.884,-17.552,-53.637,-19.25
42518820,0.419,0.303,0.803,-17.99,-62.09,-21.42
42518820,0.504,0.317,0.76,-19.285,-57.12,-25.742
42518830,0.419,0.251,0.785,-19.687,-45.185,-34.755
42518840,0.409,0.178,0.816,-18.917,-38.01,-36.435
42518850,0.499,0.088,0.821,-16.485,-30.502,-32.392
42518860,0.598,0.035,0.782,-10.185,-20.562,-21.262
42518870,0.817,0.119,0.742,-5.267,-6.755,-14.63
42518880,0.805,0.073,0.694,-6.755,14.717,-18.812
42518890,0.772,0.005,0.663,-1.82,25.095,-20.247
42518900,0.696,0.101,0.715,5.565,24.395,-17.482
42518910,0.627,0.135,0.792,6.965,23.45,-16.887
42518920,0.475,0.199,0.855,7.14,24.115,-15.96
42518930,0.349,0.248,0.91,4.392,25.375,-19.67
42518940,0.299,0.205,0.89,0.315,23.66,-19.302
42518950,0.283,0.221,0.848,-0.14,20.16,-17.15
42518960,0.213,0.216,0.848,0.927,16.222,-14.385
42518970,0.216,0.243,0.872,1.61,11.305,-11.602
42518980,0.273,0.245,0.983,0.717,10.675,-10.36
42518990,0.183,0.232,1.091,1.365,4.672,-7.7
42519000,0.263,0.294,1.097,2.082,-14.787,-4.252
42519010,0.404,0.352,1.05,-1.085,-28.997,0.385
42519020,0.448,0.315,1.009,-8.295,-35.56,3.237
42519030,0.558,0.213,0.942,-14.367,-45.605,7.105
42519040,0.758,0.166,0.871,-16.065,-46.69,11.777
42519050,0.786,0.13,0.781,-16.24,-31.832,16.065
42519060,0.814,0.077,0.66,-16.38,-15.785,17.097
42519070,0.762,0.021,0.624,-13.965,2.625,16.782
42519080,0.644,0.06,0.687,-8.435,18.882,16.467
42519090,0.582,0.114,0.794,-5.162,30.012,15.557
42519100,0.477,0.184,0.892,-4.182,39.987,12.687
42519110,0.324,0.215,0.964,-3.99,43.242,10.5
42519120,0.262,0.277,0.998,-1.697,38.237,11.112
42519130,0.148,0.265,0.945,-1.61,32.042,12.197
42519140,0.16,0.268,0.902,-2.992,26.6,10.622
42519150,0.302,0.219,0.9,-3.85,24.587,10.85
42519160,0.353,0.178,0.934,-5.95,26.617,11.042
42519170,0.375,0.137,0.942,-9.852,19.057,12.197
42519170,0.556,0.134,0.934,-11.007,9.59,15.452
42519190,0.56,0.122,0.883,-14.105,13.422,15.89
42519190,0.475,0.059,0.833,-18.06,19.04,13.387
42519210,0.495,0.043,0.817,-14.332,23.66,13.422
42519210,0.417,0.06,0.811,-7.455,34.317,14.157
42519230,0.312,0.076,0.789,-2.327,42.157,11.97
42519230,0.368,0.083,0.789,2.73,48.125,9.327
42519250,0.324,0.146,0.868,6.072,59.01,9.905
42519250,0.193,0.126,0.941,5.897,62.93,6.44
42519260,0.211,0.077,0.971,5.442,53.847,1.802
42519270,0.323,0.098,0.965,5.565,48.895,-0.297
42519280,0.389,0.155,0.966,4.112,56.647,-2.922
42519290,0.512,0.184,0.958,0.122,70.052,-7.315
42519300,0.547,0.146,0.942,-5.407,89.635,-13.055
42519310,0.27,0.101,0.899,-6.492,96.285,-18.847
42519320,0.129,0.125,0.862,-3.062,72.31,-16.082
42519330,0.188,0.158,0.861,0.665,46.515,-9.8
42519340,0.137,0.204,0.912,3.867,39.305,-6.615
42519350,0.082,0.213,0.966,5.495,40.495,-8.295
42519360,0.06,0.236,0.961,5.162,41.562,-10.535
42519370,0.128,0.205,0.927,2.205,45.815,-10.027
42519380,0.409,0.292,0.872,-6.387,56.245,-17.692
42519390,0.741,0.152,0.888,-21.525,83.457,-31.447
42519400,0.813,0.073,0.908,-27.3,117.67,-51.065
42519410,0.225,-0.049,0.891,-23.362,122.885,-52.01
42519420,-0.001,-0.052,0.899,-10.15,89.512,-31.745
42519430,-0.341,0.061,0.934,0.822,72.31,-1.872
42519440,-0.256,0.074,1.037,8.907,56.56,2.747
42519450,-0.217,0.166,1.084,10.57,41.23,2.957
42519460,0.087,0.395,1.068,3.045,40.425,1.435
42519470,-0.047,0.175,1.026,-11.69,53.637,0.07
42519480,0.088,0.045,0.995,-9.52,57.05,-2.152
42519490,-0.055,0.203,0.979,-2.292,48.475,0.927
42519500,0.191,0.146,0.962,-2.327,32.935,-0.84
42519510,0.251,0.081,0.94,-2.852,30.765,-1.907
42519510,0.106,0.09,0.955,0.472,38.29,-0.682
42519530,0.051,0.11,0.999,4.357,37.047,-2.222
42519530,0.034,0.15,1.018,6.055,33.215,-1.907
42519550,-0.008,0.192,1.009,3.85,33.635,-1.487
42519550,-0.085,0.146,0.988,-1.592,34.982,-1.925
42519570,-0.097,0.13,0.981,-3.097,32.305,-1.452
42519570,-0.07,0.137,0.983,-4.865,28.822,-0.717
42519580,0.049,0.128,0.987,-8.26,30.205,-1.382
42519590,0.14,0.118,1.023,-12.372,39.602,-5.25
42519600,0.164,0.083,1.028,-16.187,50.75,-8.522
42519610,0.12,0.075,1.037,-16.94,57.732,-8.522
42519620,-0.112,0.014,1.024,-16.257,50.96,-6.842
42519630,-0.123,0.022,0.935,-10.885,22.47,-2.992
42519640,-0.018,0.084,0.96,-3.325,2.712,3.902
42519650,-0.07,0.042,0.925,-0.385,-5.425,5.967
42519660,-0.055,0.105,0.899,4.637,-11.637,3.185
42519670,-0.015,0.121,0.906,7.017,-13.842,1.277
42519680,0.033,0.121,0.908,8.662,-9.03,-0.875
42519690,-0.01,0.151,0.926,8.435,-0.35,-2.327
42519700,-0.017,0.195,0.921,7.822,6.737,-2.73
42519710,-0.066,0.189,0.976,5.285,17.675,-0.822
42519720,-0.185,0.179,0.986,3.657,23.87,-1.207
42519730,-0.207,0.194,1.023,2.975,22.627,-2.625
42519740,-0.29,0.185,1.059,2.38,16.87,-1.855
42519750,-0.314,0.184,1.08,3.43,4.847,1.557
42519760,-0.294,0.181,1.099,4.987,-9.275,5.442
42519770,-0.278,0.185,1.112,6.002,-21.402,7.892
42519780,-0.229,0.193,1.112,5.022,-32.865,8.277
42519790,-0.155,0.182,1.101,2.047,-43.575,7.927
42519800,-0.05,0.19,1.08,-1.575,-50.662,6.597
42519810,0.046,0.176,1.018,-5.705,-51.222,4.55
42519820,0.127,0.149,0.965,-8.645,-45.587,3.115
42519830,0.19,0.126,0.913,-9.905,-35.175,1.575
42519840,0.231,0.148,0.798,-9.712,-21.017,-0.892
42519850,0.2,0.097,0.769,-9.695,0.192,-1.032
42519860,0.083,0.076,0.74,-5.46,17.867,-3.622
42519870,-0.007,0.056,0.852,0.157,25.147,-2.397
42519880,0.005,0.021,0.885,6.3,21.122,-0.507
42519890,-0.038,0.071,0.963,12.617,18.637,4.62
42519900,-0.078,0.093,1.05,16.17,15.907,7.157
42519910,-0.062,0.028,1.183,16.222,9.782,8.837
42519920,-0.034,0.056,1.153,15.68,-5.442,5.792
42519920,0.043,0.106,1.08,12.792,-18.83,3.325
42519940,0.064,0.102,0.987,9.187,-23.45,1.19
42519940,0.086,0.126,0.921,7.49,-22.452,-1.295
42519960,0.133,0.125,0.896,6.16,-16.642,-2.677
42519960,0.141,0.114,0.909,4.252,-6.632,-3.132
42519980,0.137,0.117,0.933,2.555,3.885,-4.042
42519980,0.128,0.124,0.968,2.17,12.932,-4.305
42520000,0.086,0.152,0.998,1.627,21.507,-3.815
42520000,0.001,0.152,1.007,0.647,26.932,-3.307
42520010,-0.057,0.15,1.017,0.455,26.46,-3.395
42520020,-0.075,0.157,1.016,0.49,23.572,-4.112
42520030,-0.114,0.152,0.983,0.105,21.035,-3.955
42520040,-0.16,0.129,0.962,1.645,16.835,-3.045
42520050,-0.083,0.083,1.008,8.417,7.052,-4.252
42520060,-0.027,0.115,1.019,18.042,-0.822,-2.957
42520070,-0.046,0.139,0.967,25.077,-2.852,-2.012
42520080,-0.111,0.081,0.889,32.532,-6.79,-2.992
42520090,-0.049,0.103,0.843,48.772,-14.472,-2.38
42520100,0.011,0.02,0.806,67.13,-17.465,0.245
42520110,-0.08,0.004,0.65,89.88,-23.782,6.37
42520120,0.007,0.086,0.654,110.477,-34.527,16.502
42520130,0.068,0.147,0.687,119.332,-32.882,25.305
42520140,0.166,0.294,0.862,112.822,-23.047,21.087
42520150,0.234,0.408,0.993,90.317,-1.452,8.137
42520160,0.187,0.29,1.121,66.08,17.412,-5.11
42520170,0.106,0.299,1.165,52.587,27.755,-13.16
42520180,0.017,0.369,1.161,42.84,27.615,-16.187
42520190,-0.04,0.385,1.112,31.85,26.582,-21.28
42520200,-0.077,0.422,1.058,19.652,23.135,-28.332
42520210,-0.08,0.381,1.022,9.572,22.172,-33.005
42520220,-0.055,0.39,1.011,2.17,24.85,-35.402
42520230,-0.207,0.387,1.029,-6.632,33.25,-33.477
42520240,-0.235,0.333,1.037,-14.437,35.717,-32.847
42520250,-0.186,0.375,1.068,-18.76,33.792,-29.207
42520260,-0.312,0.368,1.064,-24.185,26.285,-19.32
42520260,-0.327,0.283,1.1,-27.825,8.592,-5.757
42520280,-0.381,0.183,1.079,-24.43,-16.257,7.787
42520280,-0.334,0.179,1.051,-14.245,-42.577,18.392
42520300,-0.215,0.22,1.015,-5.985,-62.475,26.215
42520300,-0.167,0.204,0.946,-3.045,-72.73,32.62
42520320,-0.042,0.185,0.887,-1.33,-75.442,35.542
42520320,0.071,0.203,0.838,-0.525,-66.78,35.21
42520330,0.067,0.197,0.789,-1.225,-51.362,32.585
42520340,0.057,0.176,0.764,-0.595,-40.075,29.242
42520350,0.046,0.164,0.748,3.902,-34.597,26.967
42520360,0.015,0.158,0.747,13.247,-35.577,24.78
42520370,0.057,0.2,0.778,24.027,-40.967,23.38
42520380,0.063,0.248,0.829,31.395,-47.95,22.522
42520390,0.251,0.343,0.848,33.827,-52.675,21.35
42520400,0.379,0.36,0.832,32.707,-44.817,19.915
42520410,0.388,0.368,0.898,31.675,-32.077,14.997
42520420,0.333,0.34,0.969,28.315,-18.83,7.21
42520430,0.074,0.288,1.047,26.337,-13.44,0.542
42520440,-0.073,0.276,1.12,27.982,-24.342,-1.085
42520450,-0.105,0.341,1.202,30.59,-39.76,4.392
42520460,-0.129,0.424,1.226,29.05,-51.677,9.852
42520470,-0.158,0.4,1.178,20.755,-63,14.297
42520480,-0.109,0.338,1.086,14.297,-75.11,18.76
42520490,-0.063,0.271,1.027,12.215,-85.522,23.712
42520500,0,0.206,0.913,12.232,-94.552,29.277
42520510,0.228,0.225,0.815,12.915,-96.495,32.427
42520520,0.306,0.206,0.755,15.365,-83.125,32.252
42520530,0.449,0.282,0.713,17.727,-64.417,28.14
42520540,0.475,0.339,0.752,17.587,-34.772,20.982
42520550,0.516,0.443,0.78,15.75,-1.522,11.007
42520560,0.505,0.492,0.822,10.675,35.7,-0.822
42520570,0.272,0.39,0.907,3.867,63.927,-10.885
42520580,0.132,0.375,1.023,2.38,61.705,-9.8
42520590,0.083,0.421,1.114,1.155,42.56,-1.645
42520600,0.084,0.412,1.126,-4.095,23.677,5.407
42520610,0.025,0.357,1.068,-9.712,11.97,9.152
42520620,-0.004,0.269,0.938,-12.337,2.852,11.48
42520630,-0.008,0.205,0.798,-11.305,-5.127,12.495
42520640,0.094,0.175,0.803,-8.995,-6.247,14.91
42520650,0.212,0.161,0.84,-5.127,-2.362,11.987
42520660,0.331,0.285,0.837,-2.065,6.282,3.377
42520670,0.422,0.366,0.856,-3.71,25.69,-6.02
42520670,0.382,0.399,0.918,-7.455,54.337,-14.857
42520690,0.448,0.47,0.978,-13.09,82.985,-24.657
42520690,0.559,0.518,1.006,-24.692,121.852,-39.865
42520710,0.441,0.44,0.994,-40.635,162.942,-57.557
42520710,0.405,0.395,1.007,-53.445,187.197,-61.425
42520730,0.21,0.311,0.966,-63.892,201.565,-52.867
42520730,-0.031,0.235,0.912,-70.647,197.785,-39.637
42520750,-0.014,0.225,0.94,-74.112,182.525,-22.417
42520750,-0.217,0.352,0.967,-87.517,174.615,-12.32
42520760,-0.322,0.254,0.89,-113.96,132.387,-16.957
42520770,-0.014,0.114,0.767,-131.582,103.46,-17.902
42520780,-0.175,-0.154,0.815,-127.085,92.242,-9.747
42520790,-0.182,-0.098,0.843,-96.005,98.595,0.822
42520800,-0.462,0.139,0.911,-66.5,110.425,-6.212
42520810,-0.473,0.073,0.954,-45.202,107.065,-7.822
42520820,-0.5,0.15,0.989,-18.865,100.345,-7.91
42520830,-0.567,0.285,0.96,3.307,95.987,-13.195
42520840,-0.717,0.2,0.922,17.92,85.085,-24.185
42520850,-0.877,0.222,0.845,44.117,54.057,-36.75
42520860,-0.766,0.265,0.848,67.41,6.422,-39.2
42520870,-0.653,0.33,0.834,79.065,-31.675,-41.405
42520880,-0.515,0.34,0.886,78.155,-50.872,-43.05
42520890,-0.342,0.294,0.993,70.455,-52.902,-41.247
42520900,-0.178,0.28,1.015,58.782,-51.817,-40.337
42520910,-0.193,0.331,1.05,43.452,-49.787,-38.22
42520920,-0.094,0.352,1.077,27.702,-44.012,-37.135
42520930,-0.09,0.282,1.116,10.132,-32.427,-38.57
42520940,0.044,0.352,1.099,-7.927,-14.91,-45.85
42520950,-0.064,0.236,1.063,-31.85,5.775,-50.96
42520960,-0.14,0.076,0.973,-41.352,17.062,-51.835
42520970,-0.242,0.069,0.906,-36.995,14.507,-46.69
42520980,-0.228,0.091,0.861,-30.222,8.522,-39.777
42520990,-0.232,0.061,0.854,-25.34,7.962,-33.74
42521000,-0.308,0.012,0.891,-15.802,5.932,-29.627
42521010,-0.234,0.12,0.89,-5.127,-6.335,-29.522
42521010,-0.119,0.162,0.92,1.89,-10.115,-34.685
42521030,-0.322,0.144,0.814,-1.505,-9.625,-44.782
42521030,0.079,0.204,0.85,-6.125,-22.4,-54.547
42521050,0.129,0.177,0.862,-20.405,1.312,-44.957
42521050,0.146,0.099,0.856,-30.817,45.955,-53.322
42521070,-0.017,0.052,0.879,-32.672,86.922,-58.747
42521070,-0.165,0.104,0.904,-31.675,110.39,-62.317
42521080,-0.216,0.082,0.871,-33.005,118.702,-61.145
42521090,-0.284,0.015,0.87,-29.347,119.997,-53.427
42521100,-0.395,0.019,0.876,-21.84,118.492,-46.445
42521110,-0.491,0.022,0.903,-16.012,113.242,-42.647
42521120,-0.526,-0.009,0.92,-10.762,102.69,-40.705
42521130,-0.502,0.014,0.926,-4.357,94.255,-40.915
42521140,-0.513,0.036,0.939,-0.7,93.555,-40.337
42521150,-0.546,0.058,0.925,-0.507,97.142,-40.127
42521160,-0.574,0.05,0.899,-2.17,100.257,-41.37
42521170,-0.54,0.054,0.858,-3.867,102.69,-41.755
42521180,-0.578,0.042,0.819,-6.125,105.402,-41.037
42521190,-0.661,-0.018,0.789,-5.355,104.895,-40.057
42521200,-0.57,-0.055,0.706,0.087,104.825,-44.905
42521210,-0.39,-0.021,0.567,5.057,125.58,-54.162
42521220,-0.589,-0.061,0.645,1.995,173.407,-59.29
42521230,-0.75,0.058,0.772,1.715,195.02,-62.422
42521240,-0.948,0.15,0.841,-0.752,186.725,-64.715
42521250,-0.951,0.071,0.871,-2.205,153.422,-63.262
42521260,-0.762,-0.015,0.724,2.765,122.167,-65.17
42521270,-0.646,-0.065,0.675,10.867,122.482,-63.437
42521280,-0.782,-0.052,0.735,19.442,135.275,-67.497
42521290,-0.964,-0.08,0.892,30.922,121.712,-75.145
42521300,-0.71,0.063,0.894,47.285,86.52,-71.68
42521310,-0.272,0.302,0.632,44.1,77.91,-53.2
42521320,-0.094,0.249,0.449,18.585,156.03,-29.015
42521330,-1.481,-0.612,0.94,-7.595,214.322,-12.075
42521340,-1.167,-0.14,0.931,49.332,114.695,-27.475
42521350,-0.452,0.347,0.866,82.705,60.62,-16.782
42521360,-0.62,0.089,0.763,56.612,91.262,-3.447
42521370,-0.764,0.074,0.694,37.03,127.68,-6.44
42521380,-0.816,0.037,0.633,30.047,145.162,-9.852
42521390,-0.847,0.041,0.525,29.137,151.112,-10.92
42521400,-0.824,0.023,0.401,27.142,157.115,-11.742
42521410,-0.876,0.019,0.305,24.552,167.037,-11.27
42521420,-0.967,0.021,0.245,21.35,173.862,-9.485
42521420,-0.983,-0.012,0.173,19.617,174.02,-7.455
42521440,-1.146,-0.013,0.16,20.335,166.285,-0.525
42521440,-1.217,-0.03,0.161,22.33,146.457,4.13
42521450,-1.186,-0.022,0.147,25.847,119.122,8.54
42521460,-1.109,-0.013,0.157,29.015,98.7,12.075
42521470,-1.045,-0.013,0.216,30.275,90.44,13.597
42521480,-1.015,-0.049,0.253,33.635,86.817,14.735
42521490,-0.866,0.031,0.276,40.302,89.372,12.582
42521500,-0.92,0.102,0.307,42.035,102.34,14.7
42521510,-0.947,0.14,0.298,37.59,114.152,14.822
42521520,-1.029,0.145,0.24,28.052,119.157,10.412
42521530,-1.09,0.063,0.172,19.652,111.02,7
42521540,-0.955,0.048,0.145,14.822,94.482,2.59
42521550,-0.951,-0.059,0.171,18.392,90.422,9.502
42521560,-0.96,0.121,0.228,27.702,92.75,5.617
42521570,-0.983,0.202,0.246,18.882,97.212,0.49
42521580,-1.12,0.054,0.187,-0.542,104.002,3.01
42521590,-1.174,0.155,0.182,-15.4,104.352,4.672
42521600,-1.259,0.053,0.116,-29.05,93.17,8.96
42521610,-1.246,-0.012,0.059,-37.52,73.342,11.182
42521620,-1.238,-0.07,0.043,-36.05,46.55,14.315
42521630,-1.408,-0.159,0.057,-27.317,10.937,14.245
42521640,-1.122,-0.052,0.103,-3.132,-41.352,10.727
42521650,-1.01,0.079,0.193,18.375,-74.777,6.807
42521660,-0.899,0.296,0.227,25.147,-91.245,11.777
42521670,-0.812,0.371,0.249,14.472,-85.242,8.172
42521680,-0.805,0.315,0.223,-7.98,-69.597,-1.47
42521690,-0.699,0.17,0.209,-23.537,-49.84,-6.282
42521700,-0.702,0.095,0.232,-16.047,-19.967,-8.942
42521710,-0.805,0.18,0.199,-2.59,8.645,-22.732
42521720,-0.712,0.042,0.25,3.745,27.405,-31.622
42521730,-0.727,-0.002,0.069,24.115,63.052,-16.887
42521740,-1.068,0.24,0.133,17.535,76.405,-5.565
42521750,-0.89,0.24,0.054,-1.697,83.492,-12.53
42521760,-0.965,0.147,0.005,-26.512,89.11,-6.265
42521760,-1.04,0.019,-0.019,-40.285,90.247,-3.955
42521780,-1.136,0.009,0.021,-40.827,77.927,1.872
42521780,-1.194,0.066,0.056,-37.467,53.165,4.742
42521800,-1.166,0.069,0.071,-38.307,21.787,5.407
42521800,-1.095,0.04,0.063,-37.45,-5.565,10.08
42521820,-1.012,0.052,0.08,-34.982,-21.752,15.977
42521820,-0.898,0.059,-0.025,-35.98,-13.702,25.06
42521830,-1.154,0.129,0.059,-41.23,-7.175,30.222
42521840,-0.697,0.057,0.037,-41.335,2.712,16.8
42521850,-1.071,0.097,0.082,-51.572,25.655,19.74
42521860,-1.019,0.126,0.065,-51.66,30.345,23.992
42521870,-1.058,0.133,0.04,-57.295,27.825,26.81
42521880,-1.163,0.089,0.04,-64.435,19.32,29.347
42521890,-1.124,0.061,0.028,-65.432,1.137,29.33
42521900,-1.1,0.07,0.003,-61.512,-18.025,28.595
42521910,-1.035,0.054,-0.02,-53.69,-34.562,29.89
42521920,-1.001,0.055,-0.017,-41.562,-45.797,33.617
42521930,-1.018,0.1,0.018,-29.312,-53.305,38.412
42521940,-1.044,0.157,0.021,-23.047,-61.232,39.357
42521950,-1.02,0.157,0.013,-23.485,-69.16,36.995
42521960,-1.064,0.176,0.009,-28.455,-77.105,30.31
42521970,-0.848,-0.102,-0.011,-27.807,-90.825,28.752
42521980,-0.83,0.079,0.101,-2.992,-73.307,25.83
42521990,-1.073,0.225,0.187,6.947,-65.782,22.032
42522000,-1.074,0.183,0.205,6.02,-75.74,21.962
42522010,-0.995,0.279,0.232,3.395,-90.317,21.962
42522020,-0.942,0.257,0.251,-2.905,-97.93,25.777
42522030,-0.888,0.199,0.265,-6.72,-98.035,27.632
42522040,-0.753,0.096,0.333,-0.227,-87.535,32.112
42522050,-0.798,0.3,0.394,14.262,-67.235,34.142
42522060,-0.923,0.29,0.389,15.085,-51.59,39.077
42522070,-0.942,0.28,0.35,12.022,-44.887,43.977
42522080,-0.961,0.263,0.291,5.18,-42.717,47.81
42522090,-0.879,0.246,0.247,-1.452,-37.975,50.225
42522100,-0.806,0.243,0.203,-9.957,-23.922,51.135
42522110,-0.934,0.188,0.177,-19.232,-1.907,55.965
42522120,-1.117,0.112,0.146,-22.907,7.315,62.02
42522130,-1.174,0.033,0.137,-17.622,-7.087,67.865
42522140,-1.089,0.035,0.17,-1.907,-30.38,73.412
42522140,-1.043,0.157,0.227,14.91,-51.292,77.402
42522160,-0.949,0.249,0.253,21.14,-61.53,81.55
42522160,-0.922,0.257,0.245,17.517,-58.975,81.655
42522170,-0.89,0.256,0.24,13.142,-47.11,76.877
42522180,-1.011,0.185,0.328,11.69,-41.422,71.732
42522190,-0.854,0.298,0.329,17.902,-42.157,63.227
42522200,-0.805,0.364,0.313,12.127,-29.645,54.512
42522210,-0.939,0.279,0.299,-2.782,-10.832,45.867
42522220,-1.034,0.149,0.297,-7.315,-5.355,34.247
42522230,-1.109,0.173,0.272,2.345,-13.02,19.11
42522240,-1.093,0.221,0.265,11.48,-25.392,3.622
42522250,-0.96,0.226,0.229,16.52,-37.205,-6.947
42522260,-1.001,0.182,0.198,24.22,-45.15,-6.86
42522270,-1.09,0.146,0.19,39.357,-56.035,-4.025
42522280,-1.078,0.185,0.226,56.21,-70.017,-3.097
42522290,-1.034,0.239,0.262,70.77,-83.527,-0.437
42522300,-0.831,0.365,0.302,78.05,-93.275,7.087
42522310,-0.794,0.475,0.376,72.135,-92.645,26.757
42522320,-0.737,0.48,0.45,57.54,-82.057,44.747
42522330,-0.709,0.543,0.5,37.205,-69.23,57.662
42522340,-0.717,0.561,0.513,12.337,-56.665,56.192
42522350,-0.641,0.36,0.523,-3.902,-41.842,61.337
42522360,-0.763,0.474,0.557,-9.222,-23.152,53.077
42522370,-0.719,0.526,0.52,-20.737,-13.422,41.195
42522380,-0.817,0.445,0.54,-30.73,-5.057,33.162
42522390,-0.887,0.492,0.55,-29.295,-5.775,17.272
42522400,-0.746,0.594,0.555,-27.965,-12.127,-0.682
42522410,-0.767,0.608,0.555,-35.805,-14.402,-9.975
42522420,-0.756,0.569,0.495,-46.69,-16.065,-17.465
42522430,-0.646,0.489,0.41,-50.312,-15.697,-26.18
42522440,-0.605,0.467,0.371,-41.702,-8.872,-30.187
42522450,-0.642,0.523,0.355,-31.517,3.132,-30.397
42522460,-0.753,0.492,0.346,-30.082,9.222,-29.872
42522470,-0.746,0.458,0.381,-28.857,9.625,-31.22
42522480,-0.778,0.443,0.374,-25.147,4.952,-33.145
42522490,-0.725,0.403,0.389,-19.6,1.487,-31.745
42522500,-0.715,0.397,0.417,-11.865,3.517,-30.8
42522510,-0.784,0.384,0.444,-6.265,9.677,-30.31
42522510,-0.832,0.367,0.457,-0.595,11.742,-31.57
42522530,-0.827,0.374,0.414,5.215,6.352,-33.005
42522530,-0.805,0.329,0.402,10.587,6.265,-29.225
42522550,-0.907,0.309,0.407,19.547,9.047,-24.412
42522550,-0.814,0.364,0.422,24.5,10.08,-27.335
42522570,-0.783,0.382,0.439,25.865,16.537,-27.79
42522570,-0.774,0.412,0.479,25.287,27.877,-28.752
42522580,-0.818,0.445,0.5,18.952,35.84,-30.45
42522590,-0.753,0.449,0.503,8.295,38.972,-30.047
42522600,-0.753,0.426,0.494,-3.692,47.757,-27.107
42522610,-0.784,0.398,0.464,-16.852,59.972,-26.652
42522620,-0.858,0.325,0.406,-25.865,68.967,-28.297
42522630,-0.916,0.248,0.342,-27.16,69.195,-31.115
42522640,-0.988,0.203,0.307,-21.227,60.882,-31.762
42522650,-0.964,0.205,0.288,-13.65,48.247,-32.165
42522660,-0.906,0.228,0.271,-8.05,39.777,-31.097
42522670,-0.805,0.296,0.289,-5.635,38.377,-27.335
42522680,-0.786,0.333,0.351,-8.785,45.552,-19.162
42522690,-0.8,0.271,0.394,-15.75,53.707,-14.14
42522700,-0.888,0.39,0.417,-24.307,53.76,-8.05
42522710,-0.831,0.305,0.369,-30.047,46.445,10.027
42522720,-1.028,0.236,0.384,-31.675,42.595,22.4
42522730,-0.933,0.259,0.329,-26.285,17.377,17.01
42522740,-0.593,0.336,0.353,-20.807,-1.26,16.24
42522750,-0.588,0.269,0.287,-17.885,17.272,15.575
42522760,-0.613,0.339,0.26,-27.737,44.8,-1.365
42522770,-0.726,0.302,0.213,-37.852,66.955,-6.545
42522780,-0.757,0.239,0.148,-46.235,82.425,-9.24
42522790,-0.834,0.229,0.071,-47.53,94.377,-6.282
42522800,-0.983,0.176,0.019,-45.342,103.705,-4.567
42522810,-1.125,0.162,0.011,-38.08,102.9,-5.757
42522820,-1.18,0.203,0.005,-29.015,91.122,-4.182
42522830,-1.253,0.177,0.003,-24.43,75.442,-2.275
42522830,-1.128,0.187,0.05,-14.752,59.762,-5.547
42522850,-1.232,0.226,0.149,-3.675,49.997,-5.46
42522850,-1.232,0.221,0.191,3.08,34.895,-6.317
42522870,-1.178,0.225,0.212,8.627,14.875,-5.862
42522870,-1.049,0.258,0.222,13.562,0.77,-2.467
42522890,-1.011,0.268,0.224,16.082,-3.01,-0.262
42522890,-0.895,0.286,0.213,17.01,-1.977,-1.907
42522910,-0.807,0.309,0.166,14.962,7.245,-3.15
42522910,-0.868,0.276,0.102,9.52,21.472,-3.272
42522920,-0.893,0.254,0.063,7.297,29.907,-5.372
42522930,-0.851,0.283,0.066,7.787,33.057,-7.665
42522940,-0.848,0.279,0.072,6.422,39.847,-10.64
42522950,-0.938,0.274,0.091,3.412,47.46,-15.872
42522960,-1.058,0.229,0.104,2.59,46.742,-17.325
42522970,-1.005,0.247,0.169,6.737,42.84,-20.755
42522980,-1.146,0.29,0.202,7.245,34.632,-20.702
42522990,-0.937,0.26,0.231,4.742,26.915,-20.247
42523000,-1.073,0.24,0.245,4.112,27.842,-17.797
42523010,-1.034,0.242,0.216,5.11,23.327,-17.517
42523020,-0.999,0.233,0.184,6.457,18.34,-14.262
42523030,-1.02,0.242,0.158,6.177,16.485,-12.145
42523040,-1.024,0.233,0.128,3.622,11.812,-12.687
42523050,-0.913,0.25,0.104,-0.227,9.345,-13.51
42523060,-0.905,0.243,0.084,-4.97,17.272,-15.102
42523070,-0.942,0.247,0.084,-9.31,26.022,-17.867
42523080,-0.964,0.23,0.041,-11.637,27.615,-19.057
42523090,-0.938,0.22,-0.022,-10.885,23.415,-17.902
42523100,-0.929,0.205,-0.035,-7.297,17.832,-13.65
42523110,-0.875,0.236,-0.012,-4.2,15.802,-10.657
42523120,-0.897,0.245,0.034,-4.742,21.612,-10.272
42523130,-1.026,0.208,0.068,-6.545,27.282,-12.985
42523140,-1.123,0.203,0.115,-6.072,20.3,-14.98
42523150,-0.974,0.216,0.158,-4.042,12.53,-14.385
42523160,-1.182,0.201,0.177,-8.295,13.055,-16.572
42523170,-1.199,0.124,0.141,-10.85,5.915,-20.457
42523180,-1.22,0.118,0.106,-8.172,-4.217,-19.915
42523190,-1.179,0.122,0.082,-4.935,-11.427,-18.2
42523200,-1.132,0.14,0.065,-2.362,-13.037,-17.307
42523210,-1.081,0.173,0.041,-2.257,-12.267,-15.522
42523220,-0.978,0.201,0.017,-4.48,-7.77,-14.227
42523230,-0.912,0.238,0.028,-7.402,1.242,-13.335
42523240,-0.835,0.262,0.04,-10.64,15.05,-13.982
42523250,-0.88,0.251,0.054,-13.982,31.272,-14.472
42523260,-1.016,0.168,0.053,-14.98,39.847,-14.402
42523260,-1.142,0.103,0.012,-11.147,33.967,-15.715
42523280,-1.174,0.085,-0.019,-6.055,19.005,-15.295
42523280,-1.206,0.067,-0.049,-1.452,5.845,-13.195
42523300,-1.259,0.063,-0.079,4.252,-8.137,-9.502
42523300,-1.158,0.111,-0.073,11.13,-25.462,-4.165
42523320,-0.983,0.162,-0.071,14.647,-33.355,-1.942
42523320,-0.949,0.148,-0.061,14.805,-31.325,-2.642
42523330,-0.917,0.159,-0.005,14.682,-31.815,-3.115
42523340,-0.843,0.181,0.049,15.452,-35.945,-1.015
42523350,-0.858,0.192,0.108,14.297,-36.68,0.122
42523360,-0.948,0.166,0.108,12.215,-37.257,1.365
42523370,-0.951,0.136,0.104,9.852,-37.275,5.74
42523380,-0.996,0.12,0.097,6.195,-23.012,9.59
42523390,-1.218,0.098,0.125,3.605,-2.152,15.68
42523400,-1.363,0.088,0.115,4.27,3.99,22.102
42523410,-1.311,0.092,0.119,9.695,-5.897,30.485
42523420,-1.274,0.168,0.152,16.31,-18.462,37.677
42523430,-1.253,0.175,0.117,20.457,-34.65,43.942
42523440,-1.269,0.174,0.078,28.735,-61.967,50.382
42523450,-1.169,0.229,0.073,38.885,-97.247,54.547
42523460,-0.971,0.255,0.041,42.542,-119.42,54.617
42523470,-0.908,0.228,0.016,42.297,-122.552,53.602
42523480,-0.745,0.265,0.018,41.965,-111.912,53.585
42523490,-0.74,0.283,0.055,39.182,-89.635,55.177
42523500,-0.735,0.312,0.157,34.895,-70.245,59.867
42523510,-0.786,0.36,0.246,28.157,-55.79,63.157
42523520,-0.847,0.364,0.292,20.912,-51.135,64.032
42523530,-0.917,0.334,0.269,15.295,-58.642,67.672
42523540,-0.987,0.249,0.212,13.51,-71.802,74.235
42523550,-1.048,0.207,0.171,17.482,-86.835,82.25
42523560,-1.057,0.257,0.178,22.802,-97.807,91.262
42523570,-1.059,0.289,0.174,24.132,-98.735,97.212
42523580,-1.035,0.378,0.238,21.927,-91.49,98.437
42523580,-0.981,0.482,0.302,12.477,-77.525,94.902
42523600,-0.992,0.463,0.328,2.152,-60.445,90.002
42523600,-1.062,0.516,0.33,-2.642,-48.422,87.465
42523620,-1.267,0.662,0.269,-16.94,-54.722,87.395
42523620,-0.914,0.039,0.325,-14.332,-71.137,102.27
42523640,-0.806,0.646,0.474,13.58,-59.395,85.487
42523640,-1.009,0.516,0.445,8.067,-60.147,87.57
42523660,-0.833,0.257,0.36,9.24,-77.595,86.205
42523660,-0.664,0.381,0.287,24.482,-87.937,88.217
42523670,-0.517,0.449,0.217,30.502,-79.677,86.782
42523680,-0.438,0.47,0.162,26.6,-56.017,71.802
42523690,-0.47,0.46,0.131,20.895,-29.785,54.635
42523700,-0.512,0.462,0.164,16.24,-9.87,42.385
42523710,-0.612,0.497,0.243,12.127,1.365,35.735
42523720,-0.602,0.514,0.309,6.177,2.782,30.292
42523730,-0.536,0.551,0.409,0.262,7.052,24.08
42523740,-0.579,0.587,0.445,-6.212,15.995,16.222
42523750,-0.702,0.526,0.452,-13.755,20.772,10.622
42523760,-0.75,0.471,0.408,-15.627,15.207,5.477
42523770,-0.981,0.425,0.373,-10.29,-1.89,3.955
42523780,-0.966,0.5,0.344,-4.69,-30.362,6.16
42523790,-0.818,0.584,0.407,0.682,-47.687,9.432
42523800,-0.767,0.584,0.309,4.182,-43.732,15.452
42523810,-0.763,0.597,0.202,2.03,-26.827,17.832
42523820,-0.826,0.485,0.197,0.525,-14.332,22.697
42523830,-0.862,0.504,0.192,3.027,-17.99,21.735
42523840,-0.725,0.546,0.236,2.625,-30.572,14.542
42523850,-0.61,0.511,0.318,1.995,-35.577,11.515
42523860,-0.542,0.63,0.413,0.805,-30.292,11.83
42523870,-0.477,0.645,0.489,-9.695,-18.567,14.945
42523880,-0.621,0.695,0.467,-27.877,-4.585,19.372
42523890,-1,0.463,0.403,-52.097,-19.285,26.757
42523900,-0.312,0.353,0.525,-46.41,-36.312,28.91
42523910,-0.187,0.668,0.607,-31.657,24.115,35.175
42523920,-1.124,0.65,0.787,-33.04,66.29,33.04
42523930,-1.127,0.563,0.772,-27.772,43.312,37.012
42523940,-1.066,0.676,0.721,-16.992,7.157,41.475
42523950,-0.945,0.682,0.678,-5.74,-17.517,42.787
42523960,-0.914,0.717,0.621,-3.92,-33.32,43.54
42523970,-0.813,0.681,0.553,-8.54,-48.055,46.13
42523980,-0.63,0.634,0.46,-13.965,-55.807,47.617
42523990,-0.485,0.638,0.397,-18.882,-48.982,48.912
42524000,-0.509,0.606,0.334,-25.532,-33.355,46.217
42524010,-0.673,0.513,0.288,-30.712,-26.722,39.9
42524010,-0.605,0.552,0.316,-27.44,-31.622,31.972
42524030,-0.59,0.603,0.309,-25.987,-28.035,24.64
42524030,-0.759,0.572,0.334,-29.68,-16.957,18.182
42524050,-0.922,0.534,0.4,-30.782,-17.762,14
42524050,-0.934,0.515,0.483,-26.88,-36.802,12.547
42524070,-0.877,0.54,0.513,-23.87,-66.482,14.595
42524070,-0.688,0.533,0.427,-23.607,-94.115,17.64
42524080,-0.359,0.504,0.354,-21.192,-99.137,14.647
42524090,-0.402,0.492,0.331,-15.067,-78.452,6.002
42524100,-0.57,0.489,0.373,-7.77,-61.547,-1.855
42524110,-0.467,0.508,0.471,5.372,-48.055,-11.76
42524120,-0.857,0.498,0.532,23.712,-38.395,-24.255
42524130,-1.218,0.454,0.437,53.235,-61.372,-44.817
42524140,-0.667,0.587,0.506,84.997,-105.507,-70.542
42524150,-0.265,0.794,0.628,88.847,-102.025,-68.915
42524160,-0.143,0.894,0.795,67.55,-69.912,-56.315
42524170,-0.301,0.75,0.822,43.697,-47.022,-24.482
42524180,-0.288,0.832,0.774,32.182,-35.245,-7.612
42524190,-0.355,0.75,0.596,14.315,-20.51,1.575
42524200,-0.513,0.626,0.416,1.242,-4.13,2.327
42524210,-0.561,0.558,0.336,-5.04,12.372,-2.187
42524220,-0.671,0.484,0.35,-8.452,25.672,-11.112
42524230,-0.676,0.51,0.412,-8.68,32.532,-19.285
42524240,-0.777,0.51,0.511,-10.395,26.635,-30.117
42524250,-0.721,0.594,0.602,-17.937,7.315,-34.51
42524260,-0.797,0.538,0.634,-30.957,-16.887,-27.247
42524270,-0.775,0.537,0.633,-39.042,-38.517,-22.96
42524280,-0.767,0.477,0.603,-43.872,-56.402,-17.01
42524290,-0.705,0.462,0.574,-42.822,-70.91,-7.822
42524300,-0.571,0.517,0.578,-38.08,-77,-1.505
42524310,-0.429,0.568,0.564,-35.665,-75.215,-0.98
42524320,-0.366,0.589,0.548,-35.35,-67.112,-0.14
42524330,-0.336,0.6,0.532,-35.927,-49.595,-2.747
42524330,-0.415,0.536,0.507,-34.842,-32.182,-7.805
42524350,-0.407,0.586,0.545,-28.122,-21.087,-11.34
42524350,-0.545,0.637,0.621,-25.497,-13.212,-13.195
42524370,-0.68,0.615,0.663,-26.67,-12.985,-18.165
42524370,-0.744,0.62,0.686,-25.795,-19.582,-25.9
42524390,-0.772,0.633,0.65,-26.407,-28.28,-34.86
42524390,-0.667,0.577,0.587,-29.26,-34.457,-45.71
42524410,-0.49,0.501,0.537,-29.907,-33.075,-58.012
42524410,-0.017,0.648,0.582,-35.472,-17.622,-63.63
42524420,-0.125,0.76,0.734,-64.907,2.87,-38.01
42524430,-0.484,0.688,0.856,-101.167,-10.867,-7.63
42524440,-0.621,0.571,0.962,-133.472,-52.745,11.112
42524450,-0.737,0.555,0.969,-165.06,-102.567,17.255
42524460,-0.833,0.496,0.901,-199.71,-145.372,12.757
42524470,-0.827,0.323,0.752,-224.927,-177.852,7.49
42524480,-0.86,0.256,0.674,-227.255,-191.397,2.117
42524490,-0.742,0.256,0.552,-218.785,-198.17,1.172
42524500,-0.862,0.129,0.534,-190.137,-194.285,10.447
42524510,-0.46,0.162,0.488,-137.672,-192.29,9.257
42524520,-0.397,0.144,0.478,-98.472,-172.462,26.337
42524530,-0.518,0.205,0.474,-60.62,-135.572,33.372
42524540,-0.577,0.171,0.47,-19.355,-108.64,32.725
42524550,-0.551,0.197,0.482,23.38,-96.407,30.31
42524560,-0.484,0.216,0.495,55.877,-91.035,28.297
42524570,-0.425,0.29,0.538,81.83,-78.435,26.407
42524580,-0.401,0.354,0.601,95.882,-63.385,22.452
42524590,-0.529,0.396,0.663,99.925,-62.93,18.795
42524600,-0.466,0.43,0.71,98.087,-79.117,14.595
42524610,-0.262,0.485,0.751,85.085,-97.51,16.555
42524620,-0.205,0.514,0.789,55.282,-104.51,32.76
42524630,-0.321,0.495,0.826,29.557,-103.407,50.925
42524640,-0.293,0.463,0.815,10.062,-106.802,57.89
42524650,-0.305,0.39,0.798,-3.657,-113.225,63.63
42524660,-0.236,0.303,0.789,-10.185,-121.502,65.887
42524670,-0.145,0.215,0.861,-0.7,-123.41,68.425
42524680,-0.113,0.297,0.822,13.317,-121.73,72.572
42524690,-0.25,0.27,0.867,15.225,-130.987,80.745
42524700,-0.06,0.28,1.044,31.867,-147.315,93.257
42524710,0.211,0.466,1.049,26.985,-148.067,103.862
42524720,0.002,0.471,1.093,7,-135.555,111.79
42524730,0.356,0.509,1.055,-4.76,-122.78,96.302
42524740,0.419,0.392,0.999,-24.202,-100.047,89.25
42524750,0.316,0.309,0.996,-37.24,-70.945,89.372
42524760,0.414,0.26,0.988,-38.937,-39.655,85.067
42524760,0.363,0.045,0.999,-31.5,-6.51,85.12
42524780,0.264,-0.06,1.054,-1.12,25.007,83.947
42524780,0.125,0.203,1.092,35.455,44.485,70.385
42524800,-0.069,0.373,1.116,45.867,38.885,59.517
42524800,-0.136,0.328,1.111,38.972,1.032,57.732
42524820,0.158,0.388,1.065,35.052,-51.012,53.305
42524820,0.402,0.437,1.013,28.63,-84.717,55.335
42524830,0.458,0.435,0.966,20.44,-89.477,60.602
42524840,0.506,0.353,0.941,12.127,-75.197,56.822
42524850,0.529,0.304,0.93,9.467,-49.175,45.412
42524860,0.521,0.319,0.939,12.337,-19.197,32.62
42524870,0.525,0.37,0.963,15.172,13.055,21.962
42524880,0.495,0.45,0.992,13.037,44.642,15.12
42524890,0.458,0.516,1.001,1.995,71.312,8.242
42524900,0.481,0.534,1.018,-13.895,95.69,0.035
42524910,0.491,0.524,1.041,-29.26,123.025,-11.427
42524920,0.517,0.563,1.034,-44.712,150.465,-23.712
42524930,0.5,0.554,1.024,-64.487,178.045,-23.362
42524940,0.374,0.504,1.021,-84.42,200.147,-20.562
42524950,0.365,0.609,1.02,-102.2,220.605,-17.5
42524960,0.365,0.497,1.034,-122.657,232.47,-6.002
42524970,0.233,0.364,1.043,-125.422,254.205,0.84
42524980,0.205,0.314,0.991,-114.625,273.262,-14.49
42524990,0.219,0.365,0.93,-94.027,298.34,-28.49
42525000,0.049,0.267,0.946,-68.617,318.937,-38.71
42525010,-0.202,0.2,0.935,-29.767,301.455,-46.637
42525020,-0.11,0.326,0.96,9.432,263.742,-55.807
42525030,-0.216,0.363,0.935,40.932,229.302,-61.442
42525040,-0.375,0.334,0.897,69.072,184.275,-63.402
42525050,-0.49,0.377,0.839,94.36,130.147,-70.962
42525060,-0.523,0.469,0.808,110.792,73.517,-82.337
42525070,-0.483,0.557,0.766,111.597,24.902,-96.337
42525080,-0.468,0.598,0.721,102.445,-5.967,-113.452
42525080,-0.477,0.619,0.685,89.162,-23.397,-135.362
42525100,-0.511,0.622,0.66,72.03,-36.067,-158.252
42525100,-0.539,0.599,0.625,51.082,-48.825,-180.337
42525120,-0.545,0.571,0.602,27.23,-62.387,-199.465
42525120,-0.546,0.532,0.567,2.257,-75.705,-214.34
42525140,-0.532,0.447,0.521,-21.035,-88.2,-221.235
42525140,-0.576,0.325,0.485,-37.24,-105.665,-214.147
42525160,-0.601,0.094,0.45,-37.082,-121.642,-186.76
42525160,-0.635,0.104,0.478,-23.555,-136.78,-142.485
42525170,-0.66,0.157,0.485,-22.575,-151.13,-102.41
42525180,-0.659,0.081,0.495,-25.322,-154.962,-66.85
42525190,-0.65,-0.005,0.541,-25.287,-152.985,-44.677
42525200,-0.568,0.015,0.62,-21.787,-144.375,-37.782
42525210,-0.479,0.098,0.716,-24.552,-129.062,-38.15
42525220,-0.434,0.119,0.797,-36.067,-108.622,-44.047
42525230,-0.418,0.073,0.843,-51.012,-87.535,-53.672
42525240,-0.43,0.024,0.865,-65.712,-71.767,-63.087
42525250,-0.426,0.033,0.885,-80.342,-62.825,-68.407
42525260,-0.447,-0.022,0.87,-96.092,-62.702,-64.452
42525270,-0.473,-0.048,0.882,-108.78,-69.265,-57.032
42525280,-0.432,-0.095,0.878,-121.852,-79.432,-53.795
42525290,-0.399,-0.17,0.861,-128.87,-88.707,-46.235
42525300,-0.344,-0.277,0.836,-126.42,-95.41,-34.825
42525310,-0.316,-0.381,0.886,-110.757,-101.377,-22.382
42525320,-0.325,-0.367,0.957,-85.645,-115.027,-17.902
42525330,-0.258,-0.277,0.985,-67.497,-137.567,-22.155
42525340,-0.1,-0.268,1.001,-58.38,-156.572,-25.935
42525350,0.025,-0.247,1.005,-57.085,-161.332,-26.18
42525360,0.07,-0.171,1.037,-69.475,-149.222,-23.625
42525370,0.184,-0.149,0.998,-97.72,-125.562,-27.335
42525380,0.264,-0.202,0.969,-126.332,-83.807,-31.762
42525390,0.255,-0.383,0.884,-148.575,-35.367,-35.07
42525400,-0.088,-0.643,0.961,-135.975,3.5,-12.582
42525410,-0.245,-0.501,1.024,-112.805,2.397,-2.8
42525420,-0.056,-0.434,1.016,-104.982,-15.137,-22.715
42525430,0.04,-0.586,0.982,-91,-18.445,-28.77
42525440,0.117,-0.627,1.002,-68.355,-16.397,-34.79
42525450,0.09,-0.63,1.056,-39.235,-9.485,-36.89
42525460,-0.04,-0.538,1.075,-10.535,-8.557,-36.662
42525470,-0.138,-0.324,1.054,-3.01,-31.185,-37.117
42525480,0.112,-0.257,1.016,-29.75,-52.727,-21.437
42525490,0.338,-0.35,1.05,-53.095,-22.102,-8.417
42525500,0.218,-0.557,1.025,-65.012,16.537,-9.24
42525510,0.271,-0.329,0.965,-62.352,39.13,-12.722
42525510,-0.38,-0.842,1.022,-40.635,40.547,34.947
42525530,-0.088,-0.54,0.969,-19.81,6.247,15.47
42525530,-0.144,-0.663,0.984,-1.505,-14.122,8.12
42525540,-0.072,-0.71,1.006,22.295,-32.707,9.817
42525550,-0.031,-0.56,1.033,46.2,-46.48,6.842
42525560,0.038,-0.509,1.018,60.742,-56.192,3.272
42525570,0.129,-0.451,1.016,66.115,-56.752,3.045
42525580,0.188,-0.381,1.004,63.315,-45.99,5.67
42525590,0.2,-0.347,0.986,55.317,-27.282,9.765
42525600,0.157,-0.318,0.952,45.535,-7.63,15.732
42525610,0.12,-0.27,0.941,37.1,8.995,23.292
42525620,0.047,-0.226,0.937,29.207,20.492,30.677
42525630,-0.003,-0.229,0.926,21.367,24.062,38.517
42525640,-0.054,-0.268,0.927,17.43,20.982,47.407
42525650,-0.093,-0.348,0.973,21.07,13.422,53.655
42525660,-0.1,-0.382,0.973,25.847,4.27,58.38
42525670,-0.18,-0.528,1.015,35.857,-0.332,64.225
42525680,-0.254,-0.701,1.052,59.167,-4.672,75.705
42525690,-0.237,-0.702,1.104,89.092,-7.56,87.307
42525700,-0.147,-0.564,1.131,114.117,-1.207,93.397
42525710,-0.071,-0.483,1.146,124.46,20.265,99.487
42525720,0.03,-0.326,1.124,122.045,53.637,102.567
42525730,0.207,-0.112,1.025,102.375,103.39,111.265
42525740,0.16,-0.084,0.915,68.792,171.027,126.367
42525750,0.019,0.024,0.816,32.637,236.827,140.577
42525760,-0.129,-0.088,0.621,1.697,290.64,148.365
42525770,-0.332,-0.099,0.505,-12.337,331.957,152.985
42525780,-0.562,-0.075,0.487,-20.387,349.195,154.332
42525790,-0.603,-0.007,0.443,-22.715,340.567,152.057
42525800,-0.592,0.078,0.485,-27.51,317.905,153.807
42525810,-0.581,0.282,0.501,-39.865,287.735,160.65
42525820,-0.52,0.345,0.525,-59.71,259.787,164.587
42525830,-0.476,0.296,0.543,-87.78,233.975,163.642
42525830,-0.396,0.274,0.543,-108.185,207.882,153.335
42525850,-0.314,0.208,0.559,-124.355,185.132,142.905
42525850,-0.391,0.15,0.643,-127.102,168.402,128.747
42525870,-0.409,0.133,0.682,-124.04,143.36,114.187
42525870,-0.432,0.097,0.711,-116.392,116.917,99.907
42525890,-0.383,0.094,0.762,-102.742,92.662,89.862
42525890,-0.369,0.1,0.79,-91.927,78.452,81.095
42525910,-0.368,0.099,0.803,-85.925,77.052,69.055
42525910,-0.426,0.085,0.822,-83.982,83.93,58.642
42525920,-0.52,0.055,0.829,-84.542,90.09,50.645
42525930,-0.606,0.005,0.829,-83.737,88.795,44.555
42525940,-0.672,-0.034,0.819,-77.682,80.972,42.21
42525950,-0.698,-0.05,0.805,-69.265,70.472,39.27
42525960,-0.695,-0.023,0.799,-62.212,61.11,35.192
42525970,-0.74,-0.057,0.754,-59.797,54.967,34.037
42525980,-0.824,-0.104,0.766,-52.972,49.087,30.292
42525990,-0.879,-0.097,0.787,-45.64,38.115,23.065
42526000,-0.91,-0.107,0.804,-39.375,21.84,20.055
42526010,-0.927,-0.107,0.81,-32.182,1.067,17.237
42526020,-0.942,-0.119,0.8,-25.165,-22.085,15.347
42526030,-0.926,-0.133,0.795,-17.237,-45.517,13.177
42526040,-0.822,-0.104,0.774,-9.765,-65.187,8.26
42526050,-0.657,-0.09,0.73,-5.95,-71.102,6.317
42526060,-0.55,-0.08,0.696,-3.272,-59.325,7.735
42526070,-0.5,-0.071,0.683,-0.63,-37.625,14.28
42526080,-0.534,-0.086,0.684,2.94,-12.25,21.805
42526090,-0.606,-0.091,0.689,5.232,10.832,25.182
42526100,-0.721,-0.053,0.69,2.94,24.045,22.295
42526110,-0.868,-0.02,0.759,-3.22,22.785,16.695
42526120,-1.112,-0.181,0.737,-9.082,-5.652,16.502
42526130,-0.773,-0.104,0.696,-7.7,-30.747,10.395
42526140,-0.823,-0.064,0.708,-14.542,-42.21,-0.875
42526150,-0.762,-0.135,0.689,-24.727,-48.632,-5.232
42526160,-0.698,-0.183,0.703,-29.277,-49.297,-6.405
42526170,-0.605,-0.145,0.676,-31.99,-42.577,-5.635
42526180,-0.541,-0.114,0.664,-38.185,-26.11,-2.59
42526190,-0.616,-0.131,0.674,-46.112,-6.93,6.352
42526200,-0.686,-0.197,0.685,-49.402,4.847,13.492
42526210,-0.706,-0.238,0.672,-47.18,10.447,15.575
42526220,-0.768,-0.193,0.665,-42.385,16.012,8.942
42526230,-0.892,-0.205,0.666,-38.22,11.707,-0.945
42526230,-0.965,-0.27,0.678,-31.255,-11.567,-8.382
42526250,-0.83,-0.315,0.734,-17.517,-36.767,-6.597
42526250,-0.832,-0.418,0.783,-2.205,-49.297,5.11
42526260,-0.812,-0.26,0.891,14.507,-41.51,14
42526270,-0.891,-0.213,0.906,19.687,-34.405,15.155
42526280,-0.942,-0.221,0.852,19.81,-38.115,19.67
42526290,-0.92,-0.163,0.818,20.317,-49.437,21.805
42526300,-0.891,-0.163,0.787,21.297,-62.877,21.455
42526310,-0.83,-0.141,0.761,22.137,-78.26,18.322
42526320,-0.77,-0.095,0.739,18.9,-90.772,15.61
42526330,-0.701,-0.065,0.721,13.142,-97.79,14.052
42526340,-0.609,-0.036,0.709,6.3,-97.125,13.877
42526350,-0.493,-0.034,0.715,-1.277,-87.36,14.595
42526360,-0.388,-0.039,0.713,-8.82,-67.182,16.712
42526370,-0.35,-0.075,0.711,-15.19,-39.34,18.567
42526380,-0.35,-0.084,0.735,-19.652,-10.377,19.18
42526390,-0.423,-0.128,0.72,-24.447,13.125,18.042
42526400,-0.476,-0.187,0.717,-25.672,28.77,15.907
42526410,-0.482,-0.223,0.704,-21.087,35.56,15.452
42526420,-0.495,-0.225,0.656,-11.97,41.195,15.96
42526430,-0.585,-0.224,0.612,0.735,45.78,14.717
42526440,-0.633,-0.187,0.583,13.142,42.297,15.137
42526450,-0.751,-0.144,0.567,21.42,34.422,18.06
42526460,-0.81,-0.117,0.57,27.422,24.902,21.455
42526470,-0.794,-0.061,0.604,28.262,18.41,25.427
42526480,-0.833,-0.067,0.644,23.257,20.93,26.967
42526490,-0.866,-0.06,0.69,17.465,26.635,27.317
42526500,-0.911,-0.026,0.716,9.555,26.81,27.597
42526510,-0.885,-0.053,0.725,1.54,19.775,26.53
42526520,-0.714,-0.175,0.755,1.715,15.977,28.157
42526530,-0.824,-0.099,0.811,13.107,26.915,30.887
42526540,-0.984,-0.092,0.816,16.712,12.687,25.917
42526550,-0.75,-0.072,0.802,25.392,-13.965,17.062
42526560,-0.703,-0.053,0.801,32.567,-26.337,11.427
42526570,-0.657,-0.078,0.776,43.26,-30.275,7.052
42526580,-0.863,-0.098,0.793,60.13,-36.242,4.62
42526580,-0.845,0.03,0.79,75.81,-59.027,1.925
42526600,-0.745,0.05,0.78,80.027,-79.712,-2.362
42526600,-0.717,0.019,0.79,76.632,-89.46,-4.462
42526620,-0.875,0.071,0.832,74.742,-103.355,-7.735
42526620,-0.233,0.179,0.801,65.415,-132.685,-20.667
42526640,-0.388,0.027,0.786,37.712,-104.667,-10.955
42526640,-0.592,0.131,0.825,32.392,-75.145,-8.925
42526660,-0.543,0.013,0.744,20.912,-63.385,-3.78
42526660,-0.586,0.185,0.803,10.272,-48.825,-1.505
42526670,-0.542,0.049,0.777,-6.177,-34.195,-6.615
42526680,-0.659,0.108,0.818,-19.425,-18.445,-8.085
42526690,-0.784,-0.01,0.827,-33.232,-10.377,-5.95
42526700,-0.82,-0.096,0.848,-36.715,-13.527,-1.155
42526710,-0.863,-0.106,0.87,-28.805,-21.77,4.865
42526720,-0.869,-0.079,0.871,-19.162,-33.075,10.062
42526730,-0.837,-0.052,0.87,-12.95,-46.305,11.532
42526740,-0.746,0.001,0.858,-10.115,-57.19,12.407
42526750,-0.662,0.012,0.841,-12.6,-62.212,13.825
42526760,-0.594,0.024,0.848,-17.202,-64.172,11.655
42526770,-0.482,0.032,0.858,-22.137,-64.855,10.465
42526780,-0.434,0.062,0.848,-29.137,-56.017,11.357
42526790,-0.74,0.017,0.797,-41.177,-48.405,11.532
42526800,-0.6,-0.097,0.795,-39.62,-66.622,10.01
42526810,-0.439,-0.032,0.828,-25.042,-80.535,2.94
42526820,-0.415,0.025,0.855,-18.637,-79.922,3.01
42526830,-0.504,0.052,0.858,-21.787,-77.7,6.405
42526840,-0.469,-0.023,0.923,-25.637,-81.095,9.992
42526850,-0.38,-0.043,0.957,-23.362,-85.89,8.435
42526860,-0.376,-0.049,0.958,-22.89,-87.92,2.38
42526870,-0.337,-0.026,0.968,-24.5,-91.105,-2.677
42526880,-0.279,-0.019,0.952,-30.957,-90.825,-3.587
42526890,-0.297,-0.036,0.938,-38.185,-83.825,-2.222
42526900,-0.337,-0.074,0.912,-42.525,-78.872,-2.065
42526910,-0.343,-0.094,0.88,-41.685,-77.542,-1.75
42526920,-0.394,-0.094,0.852,-38.517,-77.525,-1.347
42526920,-0.421,-0.072,0.829,-36.137,-79.992,-1.015
42526940,-0.593,-0.01,0.787,-36.645,-86.677,-1.592
42526940,-0.252,-0.147,0.795,-37.765,-100.957,1.452
42526960,-0.296,-0.067,0.908,-33.32,-77.472,6.702
42526960,-0.493,-0.117,0.943,-37.52,-65.94,7.07
42526980,-0.441,-0.113,0.95,-35.455,-76.16,11.322
42526980,-0.339,-0.106,0.956,-33.267,-83.737,12.18
42527000,-0.279,-0.125,0.947,-31.395,-85.225,11.27
42527000,-0.236,-0.137,0.933,-28.665,-87.465,8.785
42527010,-0.147,-0.147,0.934,-26.11,-89.67,5.81
42527020,-0.121,-0.14,0.925,-25.252,-87.43,2.677
42527030,-0.099,-0.106,0.899,-28.49,-84.7,-2.205
42527040,0.048,-0.139,0.915,-31.307,-74.252,-6.667
42527050,-0.047,-0.128,0.922,-34.16,-57.732,-11.707
42527060,0.012,-0.177,0.941,-35.437,-47.127,-13.055
42527070,-0.094,-0.184,0.952,-34.16,-39.707,-12.407
42527080,-0.1,-0.173,0.947,-32.462,-39.777,-13.072
42527090,-0.089,-0.196,0.943,-31.657,-39.655,-14.612
42527100,-0.153,-0.223,0.933,-29.05,-39.83,-14.892
42527110,-0.198,-0.211,0.932,-24.955,-43.82,-13.737
42527120,-0.246,-0.215,0.922,-21.962,-46.41,-12.162
42527130,-0.309,-0.212,0.913,-19.285,-51.152,-10.395
42527140,-0.265,-0.242,0.933,-17.92,-57.347,-8.032
42527150,-0.277,-0.268,0.929,-16.415,-61.355,-5.915
42527160,-0.197,-0.27,0.921,-13.072,-67.725,-2.642
42527170,-0.137,-0.256,0.883,-9.94,-71.05,1.382
42527180,-0.036,-0.245,0.867,-7.297,-71.505,2.275
42527190,0.062,-0.288,0.88,-3.675,-66.815,1.33
42527200,0.141,-0.298,0.912,2.485,-59.745,1.242
42527210,0.146,-0.288,0.904,8.382,-56.28,0.665
42527220,0.225,-0.248,0.896,14.332,-53.497,-2.187
42527230,0.243,-0.217,0.867,17.272,-43.575,-4.672
42527240,0.227,-0.203,0.855,19.075,-32.147,-5.127
42527250,0.247,-0.183,0.877,19.197,-18.9,-6.335
42527260,0.219,-0.184,0.888,19.005,-2.24,-7.542
42527270,0.09,-0.171,0.905,19.88,11.06,-8.785
42527280,-0.009,-0.204,0.945,20.09,14.84,-10.097
42527290,-0.138,-0.206,0.966,21.052,13.86,-10.132
42527300,-0.222,-0.181,1.01,21.717,8.417,-8.767
42527310,-0.243,-0.168,1.047,20.422,1.19,-6.842
42527320,-0.177,-0.134,1.092,17.675,-3.885,-3.832
42527330,-0.127,-0.132,1.138,12.932,-3.99,-1.697
42527330,-0.141,-0.143,1.151,8.242,-5.162,-1.242
42527350,-0.068,-0.132,1.128,4.655,-10.587,-1.032
42527350,0.008,-0.122,1.066,0.7,-11.48,-1.33
42527370,0.043,-0.135,1.01,-3.517,-7.56,-2.45
42527370,0.112,-0.169,0.994,-5.635,-3.185,-3.465
42527390,0.191,-0.165,1.003,-5.722,4.637,-4.322
42527390,0.243,-0.165,1.001,-6.93,19.022,-5.757
42527410,0.33,-0.175,0.998,-9.485,40.652,-8.855
42527410,0.414,-0.17,0.966,-12.95,73.447,-14.56
42527420,0.398,-0.183,0.904,-16.975,113.592,-21.035
42527430,0.311,-0.206,0.857,-18.62,149.257,-27.825
42527440,0.168,-0.251,0.846,-17.587,171.08,-33.127
42527450,0.042,-0.311,0.872,-13.002,175.105,-33.32
42527460,-0.029,-0.346,0.897,-6.72,166.512,-28.612
42527470,-0.05,-0.508,0.96,2.765,155.54,-20.335
42527480,-0.085,-0.347,0.99,32.917,153.772,-10.045
42527490,-0.14,-0.36,0.959,56.577,153.177,3.85
42527500,-0.347,-0.389,0.964,83.667,151.987,11.655
42527510,-0.299,-0.328,0.999,114.835,142.065,4.007
42527520,-0.244,-0.237,0.978,147.35,143.64,-12.775
42527530,-0.166,-0.368,1.03,180.582,157.307,-23.695
42527540,-0.288,-0.152,1.038,218.435,167.142,-37.012
42527550,-0.377,0,1.04,241.097,170.205,-46.795
42527560,-0.418,0.063,0.986,252.98,167.3,-54.74
42527570,-0.533,0.182,0.965,256.637,155.627,-67.165
42527580,-0.613,0.266,0.923,249.847,132.055,-80.062
42527590,-0.643,0.37,0.88,235.987,98.962,-92.47
42527600,-0.606,0.444,0.81,216.002,66.255,-105.717
42527610,-0.702,0.466,0.783,193.34,34.982,-115.517
42527620,-0.815,0.517,0.759,166.162,-8.26,-124.687
42527630,-0.882,0.55,0.756,134.085,-60.935,-131.127
42527640,-0.803,0.591,0.734,95.795,-114.712,-137.777
42527650,-0.69,0.573,0.686,53.55,-155.872,-144.55
42527660,-0.663,0.424,0.62,16.94,-179.462,-137.777
42527670,-0.602,0.303,0.616,-4.165,-193.777,-123.917
42527670,-0.616,0.258,0.631,-16.887,-205.24,-109.637
42527690,-0.506,0.336,0.661,-30.362,-204.767,-98.542
42527690,-0.52,0.233,0.705,-45.745,-194.25,-83.002
42527710,-0.576,0.193,0.802,-55.562,-181.212,-70.21
42527710,-0.507,0.24,0.829,-71.312,-168.752,-73.097
42527730,-0.459,0.179,0.877,-84.665,-151.025,-71.82
42527730,-0.381,0.131,0.905,-96.197,-134.207,-67.2
42527750,-0.366,0.022,0.9,-101.552,-119,-61.337
42527750,-0.366,-0.037,0.907,-96.442,-108.185,-52.202
42527760,-0.39,-0.086,0.917,-83.492,-104.947,-39.007
42527770,-0.388,-0.118,0.909,-63.472,-109.13,-24.342
42527780,-0.375,-0.125,0.933,-37.31,-115.885,-9.765
42527790,-0.291,-0.08,0.947,-13.107,-119.927,0.647
42527800,-0.196,-0.039,0.959,2.817,-112.945,7.35
42527810,-0.135,-0.013,0.967,9.502,-94.885,10.57
42527820,-0.093,0.002,0.969,10.377,-68.425,11.2
42527830,-0.081,0.03,0.965,7.56,-38.692,9.677
42527840,-0.108,0.062,0.963,1.365,-11.217,9.887
42527850,-0.152,0.062,0.956,-7.297,9.922,12.11
42527860,-0.192,0.07,0.952,-17.675,22.47,13.422
42527870,-0.234,0.083,0.934,-29.312,24.902,15.872
42527880,-0.269,0.069,0.906,-40.67,19.057,20.037
42527890,-0.301,0.016,0.882,-48.562,6.387,24.955
42527900,-0.307,-0.013,0.846,-51.065,-11.69,29.19
42527910,-0.258,-0.034,0.825,-51.31,-30.852,35.682
42527920,-0.183,-0.055,0.817,-49.087,-48.16,42.647
42527930,-0.094,-0.04,0.809,-48.702,-59.29,47.687
42527940,-0.021,-0.008,0.82,-52.867,-61.757,54.827
42527950,-0.064,-0.084,0.826,-58.502,-60.865,72.047
42527960,-0.02,-0.1,0.835,-61.95,-61.11,78.382
42527970,0.009,-0.112,0.843,-67.69,-57.557,80.727
42527980,0.022,-0.188,0.869,-73.937,-49.892,89.39
42527990,0.025,-0.272,0.878,-76.037,-41.545,92.452
42528000,0.072,-0.261,0.882,-74.9,-28.84,82.425
42528010,0.1,-0.276,0.938,-73.5,-12.46,73.552
42528020,0.116,-0.339,0.949,-74.217,2.415,68.495
42528030,0.098,-0.371,0.977,-70.49,14.07,58.467
42528040,0.137,-0.32,0.999,-69.702,23.135,46.847
42528050,0.074,-0.368,1.007,-73.43,27.825,46.812
42528060,0.043,-0.362,1.018,-75.46,26.53,47.005
42528070,0.01,-0.3,1.029,-83.825,20.037,48.405
42528080,-0.137,-0.38,1.001,-97.195,7.525,52.15
42528080,-0.08,-0.491,0.953,-98.402,-13.667,50.365
42528100,-0.071,-0.543,0.908,-89.827,-30.52,48.09
42528100,0.001,-0.543,0.903,-73.762,-41.072,42.962
42528120,0.023,-0.54,0.895,-60.27,-43.33,37.152
42528120,0.067,-0.54,0.886,-48.44,-40.757,30.38
42528140,0.077,-0.572,0.912,-37.117,-32.655,28.35
42528140,0.081,-0.598,0.956,-27.492,-24.85,28
42528160,0.147,-0.628,1.022,-15.977,-16.047,26.687
42528160,0.179,-0.606,1.081,-1.435,-3.342,24.255
42528170,0.19,-0.551,1.087,9.292,12.18,22.82
42528180,0.028,-0.56,1.092,14.945,24.99,25.2
42528190,-0.042,-0.557,1.06,22.925,21.717,21.472
42528200,-0.044,-0.568,1.013,37.8,12.915,12.39
42528210,-0.051,-0.543,0.976,58.082,6.352,5.845
42528220,-0.011,-0.405,0.997,78.085,2.625,-0.805
42528230,-0.115,-0.304,0.942,69.125,-2.625,-6.335
42528240,-0.11,-0.393,0.96,44.782,-18.882,-10.78
42528250,-0.015,-0.459,0.934,43.662,-29.82,-22.05
42528260,0.027,-0.419,0.93,49.787,-37.817,-28.122
42528270,0.084,-0.362,0.943,53.742,-42.245,-30.712
42528280,0.165,-0.327,0.958,51.432,-38.027,-28.787
42528290,0.194,-0.34,0.967,45.535,-24.272,-23.45
42528300,0.245,-0.331,0.965,40.705,-1.61,-19.81
42528310,0.196,-0.316,0.989,34.282,25.025,-17.045
42528320,0.104,-0.326,1.013,26.775,46.55,-14.49
42528330,0.026,-0.354,1.039,20.93,58.677,-10.605
42528340,-0.002,-0.372,1.052,16.975,65.205,-6.177
42528350,-0.049,-0.371,1.065,14.402,68.197,-4.707
42528360,-0.085,-0.365,1.063,13.247,67.69,-4.095
42528370,-0.117,-0.4,1.074,15.505,60.55,-4.865
42528380,-0.124,-0.397,1.081,21.402,47.46,-9.485
42528390,-0.099,-0.402,1.101,32.2,31.92,-11.777
42528400,-0.038,-0.326,1.107,40.635,15.767,-16.082
42528410,0.041,-0.265,1.112,41.58,5.197,-21.91
42528420,0.108,-0.244,1.099,42.787,5.232,-26.11
42528420,0.132,-0.224,1.071,42.787,12.145,-29.697
42528440,0.111,-0.212,1.042,44.222,20.93,-35.997
42528440,0.096,-0.197,1.022,49.84,27.037,-42.997
42528460,0.088,-0.149,0.995,57.837,29.435,-49.735
42528460,0.049,-0.099,0.985,66.815,29.89,-52.062
42528480,0.019,-0.01,0.978,71.697,25.97,-54.39
42528480,-0.031,0.067,0.924,67.637,19.74,-55.912
42528500,-0.047,0.062,0.904,61.337,10.255,-59.342
42528500,-0.017,0.113,0.869,59.08,9.73,-65.03
42528510,-0.058,0.147,0.828,53.182,11.9,-71.662
42528520,-0.139,0.13,0.812,43.855,11.322,-74.672
42528530,-0.216,0.095,0.785,36.907,3.535,-76.02
42528540,-0.234,0.095,0.769,36.05,-9.905,-75.652
42528550,-0.191,0.104,0.783,36.487,-20.737,-78.19
42528560,-0.212,0.131,0.803,35.455,-33.057,-81.9
42528570,-0.183,0.117,0.784,33.372,-49.875,-83.702
42528580,-0.098,0.084,0.798,32.042,-64.435,-84.297
42528590,-0.061,0.129,0.795,28.612,-70.892,-76.492
42528600,-0.156,0.135,0.817,20.002,-72.695,-62.825
42528610,-0.181,0.219,0.838,0.612,-76.947,-65.66
42528620,-0.229,0.176,0.83,-27.667,-80.937,-63.91
42528630,-0.226,0.131,0.801,-55.23,-82.635,-58.712
42528640,-0.278,0.058,0.789,-80.867,-83.51,-57.172
42528650,-0.349,-0.078,0.777,-98.052,-86.047,-51.695
42528660,-0.358,-0.197,0.771,-102.585,-88.567,-46.217
42528670,-0.402,-0.259,0.808,-96.547,-94.955,-43.015
42528680,-0.396,-0.288,0.894,-84,-105.717,-40.845
42528690,-0.361,-0.295,0.974,-70.087,-116.69,-38.22
42528700,-0.32,-0.3,1.037,-58.187,-124.95,-35.787
42528710,-0.274,-0.276,1.072,-50.505,-127.102,-32.55
42528720,-0.198,-0.274,1.113,-49.297,-124.022,-29.452
42528730,-0.131,-0.308,1.115,-50.382,-117.285,-27.492
42528740,-0.058,-0.353,1.123,-49.49,-106.102,-24.29
42528750,-0.011,-0.423,1.116,-39.83,-91.262,-14.805
42528760,0.038,-0.464,1.109,-20.37,-73.622,-1.155
42528770,0.115,-0.471,1.139,5.81,-52.167,13.09
42528780,0.208,-0.449,1.165,33.495,-24.482,27.265
42528790,0.258,-0.434,1.147,59.552,10.237,43.155
42528800,0.368,-0.315,1.121,80.325,56.875,56.402
42528810,0.322,-0.198,1.102,89.792,112.437,71.592
42528820,0.229,-0.078,1.1,81.182,166.775,86.432
42528830,0.101,-0.025,1.064,57.155,210.997,94.482
42528830,-0.109,0.001,1.023,29.837,238.875,99.575
42528850,-0.328,0.01,1.028,5.967,243.197,106.015
42528850,-0.409,0.12,1.066,-20.16,216.545,112.91
42528870,-0.508,0.145,1.056,-57.68,167.142,130.725
42528870,-0.558,0.056,0.974,-95.62,106.032,149.222
42528890,-0.542,-0.003,0.882,-126.122,46.777,151.287
42528890,-0.464,-0.07,0.807,-149.1,-5.985,144.235
42528910,-0.266,-0.151,0.764,-161.49,-48.65,130.83
42528910,-0.185,-0.234,0.766,-161.927,-77.577,119.105
42528920,-0.141,-0.31,0.757,-150.29,-103.197,106.452
42528930,-0.091,-0.39,0.739,-133.367,-131.845,88.795
42528940,-0.031,-0.416,0.751,-109.97,-164.15,71.19
42528950,-0.009,-0.505,0.764,-85.837,-197.05,55.037
42528960,0.146,-0.536,0.853,-51.415,-232.89,29.82
42528970,0.444,-0.482,0.91,-19.792,-255.832,8.855
42528980,0.49,-0.459,0.905,8.085,-246.33,15.837
42528990,0.458,-0.422,0.85,32.917,-234.78,12.18
42529000,0.682,-0.423,0.844,50.61,-225.942,5.74
42529010,0.765,-0.462,0.837,62.125,-194.81,3.517
42529020,0.644,-0.545,0.87,78.697,-150.22,5.425
42529030,0.753,-0.375,0.974,104.58,-108.517,-2.012
42529040,0.723,-0.211,1.004,100.38,-68.617,-7.49
42529050,0.423,-0.355,1.01,70.507,-39.567,-5.775
42529060,0.493,-0.399,1.01,61.512,-26.127,-11.777
42529070,0.414,-0.356,1.049,57.785,-21.945,-13.037
42529080,0.407,-0.369,1.06,50.732,-18.375,-13.335
42529090,0.431,-0.397,1.071,43.505,-8.487,-14.927
42529100,0.356,-0.443,1.073,39.165,6.16,-14.035
42529110,0.322,-0.488,1.098,42.402,21.052,-13.317
42529120,0.245,-0.493,1.116,46.375,35.297,-13.615
42529130,0.183,-0.503,1.156,48.842,50.505,-16.065
42529140,0.119,-0.491,1.157,50.295,71.487,-16.117
42529150,-0.067,-0.515,1.166,52.447,89.967,-15.855
42529160,-0.219,-0.505,1.153,55.44,99.575,-14.997
42529170,-0.192,-0.502,1.092,56.665,103.757,-8.715
42529170,-0.135,-0.479,1.041,62.422,112.612,2.8
42529190,0.008,-0.341,0.99,66.255,136.097,14.105
42529190,0.198,-0.182,0.98,57.82,181.44,25.83
42529210,0.198,-0.031,0.927,36.015,238.577,37.117
42529210,0.087,0.013,0.859,1.137,291.287,47.617
42529230,-0.097,-0.001,0.799,-32.077,322.7,58.765
42529230,-0.226,-0.045,0.733,-56.227,326.83,65.73
42529250,-0.358,-0.124,0.662,-68.862,306.355,70.525
42529250,-0.424,-0.125,0.648,-68.582,269.08,75.74
42529260,-0.414,-0.048,0.663,-61.985,222.652,78.627
42529270,-0.214,0.059,0.689,-59.22,178.902,81.69
42529280,-0.113,0.112,0.687,-64.242,146.265,84.805
42529290,-0.068,0.149,0.697,-73.342,121.94,81.235
42529300,-0.015,0.115,0.699,-85.557,97.947,71.032
42529310,-0.07,0.077,0.751,-91.14,74.777,52.972
42529320,-0.159,-0.01,0.778,-89.18,43.015,30.992
42529330,-0.143,-0.056,0.789,-78.872,0.175,6.457
42529340,-0.033,-0.066,0.782,-69.51,-37.432,-15.977
