time[ms],accX[g],accY[g],accZ[g],Value 1,Value 2,Value 3
42396300,-0.526,0.092,0.856,0.857,-4.025,-11.41
42396300,-0.522,0.102,0.86,3.132,-7.927,-10.412
42396320,-0.517,0.114,0.859,5.442,-12.757,-9.152
42396320,-0.493,0.131,0.864,7.227,-16.59,-8.767
42396330,-0.476,0.145,0.88,7.56,-18.637,-8.295
42396340,-0.466,0.148,0.882,7.157,-19.11,-7.227
42396350,-0.435,0.156,0.883,7.28,-17.692,-5.862
42396360,-0.407,0.163,0.885,7.577,-14.892,-4.445
42396370,-0.414,0.166,0.899,7.997,-10.955,-2.642
42396380,-0.433,0.166,0.918,8.225,-7.28,-1.277
42396390,-0.442,0.149,0.892,7.962,-4.06,-0.525
42396400,-0.411,0.137,0.881,9.187,-1.242,1.557
42396410,-0.412,0.147,0.88,10.745,2.065,3.045
42396420,-0.453,0.159,0.901,10.885,5.67,3.902
42396430,-0.458,0.146,0.877,9.817,7.7,4.812
42396440,-0.426,0.132,0.853,9.677,9.432,6.597
42396450,-0.457,0.145,0.863,10.377,10.937,8.12
42396460,-0.496,0.162,0.868,10.185,10.535,8.645
42396470,-0.484,0.163,0.856,9.047,8.872,9.345
42396480,-0.494,0.169,0.857,8.085,6.772,9.905
42396490,-0.513,0.181,0.86,6.912,4.252,9.467
42396500,-0.501,0.186,0.85,5.11,1.452,9.082
42396510,-0.49,0.187,0.845,3.097,-0.962,9.1
42396520,-0.493,0.19,0.85,1.592,-3.185,8.925
42396530,-0.489,0.195,0.853,0.157,-5.495,8.452
42396540,-0.478,0.19,0.857,-1.575,-7.735,8.155
42396550,-0.471,0.184,0.863,-3.185,-9.345,7.63
42396560,-0.464,0.178,0.867,-4.48,-10.202,6.965
42396570,-0.453,0.167,0.873,-5.25,-10.08,6.72
42396580,-0.45,0.156,0.877,-5.232,-9.117,6.772
42396590,-0.454,0.148,0.881,-4.217,-7.84,7.07
42396600,-0.461,0.142,0.884,-2.275,-6.772,7.595
42396610,-0.459,0.142,0.884,0.367,-6.212,8.347
42396620,-0.453,0.152,0.886,3.097,-5.547,9.1
42396630,-0.452,0.159,0.884,5.145,-4.427,9.817
42396640,-0.446,0.165,0.881,6.79,-3.115,10.43
42396640,-0.445,0.175,0.882,8.137,-1.75,11.007
42396660,-0.446,0.188,0.88,8.855,-0.385,11.34
42396660,-0.446,0.202,0.876,8.837,0.787,11.182
42396670,-0.452,0.209,0.876,7.962,1.872,10.482
42396680,-0.446,0.224,0.869,6.492,2.24,8.837
42396690,-0.449,0.233,0.867,5.407,2.292,8.172
42396700,-0.449,0.242,0.864,2.975,2.17,6.58
42396710,-0.44,0.245,0.859,-0.28,2.52,4.007
42396720,-0.443,0.241,0.86,-3.85,3.272,1.417
42396730,-0.457,0.225,0.859,-7.262,3.605,-1.032
42396740,-0.465,0.208,0.861,-9.677,3.535,-3.307
42396750,-0.474,0.196,0.861,-11.2,2.66,-5.145
42396760,-0.485,0.186,0.861,-11.847,1.102,-5.862
42396770,-0.488,0.167,0.86,-11.637,-0.945,-5.88
42396780,-0.494,0.158,0.866,-9.835,-3.447,-5.495
42396790,-0.488,0.161,0.867,-8.015,-5.775,-4.917
42396800,-0.513,0.162,0.901,-6.702,-7.682,-4.095
42396810,-0.553,0.147,0.932,-6.247,-10.762,-3.517
42396820,-0.478,0.113,0.875,-4.532,-12.022,-3.815
42396830,-0.412,0.074,0.813,1.33,-8.732,-0.805
42396840,-0.445,0.118,0.913,10.342,-3.972,4.2
42396850,-0.543,0.194,0.988,15.137,-1.61,4.987
42396860,-0.443,0.18,0.956,15.085,1.277,5.705
42396870,-0.324,0.166,0.912,15.295,8.452,7.927
42396880,-0.265,0.194,0.91,16.327,25.48,10.097
42396890,-0.234,0.199,0.901,15.68,47.39,12.67
42396900,-0.276,0.185,0.926,14.07,71.032,15.015
42396910,-0.34,0.17,0.925,11.445,91.35,15.085
42396920,-0.418,0.151,0.91,10.377,105.262,14.21
42396930,-0.506,0.15,0.884,10.587,111.93,12.04
42396940,-0.581,0.154,0.861,11.917,111.527,8.802
42396950,-0.641,0.166,0.847,13.632,104.615,5.25
42396960,-0.689,0.181,0.842,14.49,93.222,2.012
42396970,-0.727,0.181,0.84,13.405,79.292,-0.7
42396980,-0.756,0.184,0.838,11.165,63.542,-2.415
42396990,-0.775,0.197,0.841,7.857,47.6,-3.202
42397000,-0.9,0.203,0.926,1.067,28.63,-3.08
42397010,-0.743,0.174,0.913,-12.547,-0.595,-2.957
42397010,-0.767,0.187,0.902,-17.675,-30.397,3.08
42397030,-0.764,0.202,0.875,-23.275,-53.48,3.937
42397030,-0.66,0.196,0.846,-28.84,-70.42,3.78
42397050,-0.577,0.176,0.827,-30.782,-78.54,6.265
42397050,-0.513,0.187,0.826,-30.327,-77.28,6.842
42397070,-0.457,0.217,0.828,-32.462,-69.3,4.742
42397070,-0.449,0.213,0.828,-35.122,-56.875,6.055
42397080,-0.446,0.231,0.829,-38.395,-44.467,6.842
42397090,-0.435,0.241,0.814,-43.417,-32.095,7.682
42397100,-0.427,0.235,0.787,-47.792,-18.707,9.782
42397110,-0.429,0.231,0.754,-50.522,-4.865,11.48
42397120,-0.444,0.23,0.727,-51.222,10.167,13.737
42397130,-0.452,0.237,0.687,-52.622,24.815,14.7
42397140,-0.486,0.219,0.652,-52.43,38.167,16.485
42397150,-0.519,0.21,0.624,-50.19,48.51,17.447
42397160,-0.556,0.203,0.619,-46.602,54.74,17.622
42397170,-0.596,0.194,0.626,-41.965,54.897,18.007
42397180,-0.609,0.214,0.65,-38.115,50.207,17.85
42397190,-0.635,0.197,0.676,-36.505,41.737,16.87
42397200,-0.635,0.181,0.701,-35.402,30.03,13.86
42397210,-0.631,0.169,0.715,-33.705,15.872,10.43
42397220,-0.617,0.156,0.729,-31.377,1.61,6.825
42397230,-0.596,0.153,0.736,-30.152,-11.637,3.412
42397240,-0.561,0.144,0.738,-30.152,-22.435,1.627
42397250,-0.531,0.127,0.739,-30.205,-29.802,-0.35
42397260,-0.507,0.119,0.745,-29.697,-32.97,-1.82
42397270,-0.488,0.102,0.744,-30.03,-31.062,-1.75
42397280,-0.458,0.082,0.75,-30.38,-23.24,-2.047
42397290,-0.459,0.054,0.756,-30.887,-11.007,-3.395
42397300,-0.479,0.059,0.768,-31.132,2.782,-4.095
42397310,-0.489,0.044,0.772,-32.515,15.242,-5.547
42397320,-0.527,0.023,0.785,-33.897,24.08,-5.95
42397330,-0.553,0.016,0.783,-33.81,27.965,-5.792
42397330,-0.57,0.011,0.784,-32.742,28.63,-6.352
42397350,-0.591,-0.007,0.773,-31.167,26.547,-9.345
42397350,-0.618,-0.011,0.775,-27.002,21,-14.455
42397370,-0.615,0.002,0.775,-21.787,12.46,-19.985
42397370,-0.604,-0.002,0.772,-17.08,3.867,-24.272
42397390,-0.603,-0.01,0.772,-12.11,-3.447,-27.352
42397390,-0.615,-0.013,0.796,-6.545,-9.992,-29.785
42397410,-0.661,-0.052,0.827,-0.28,-19.197,-30.887
42397410,-0.646,-0.043,0.854,8.54,-32.462,-31.64
42397420,-0.586,0.004,0.867,15.925,-43.032,-30.257
42397430,-0.532,0.004,0.868,16.957,-45.71,-28.472
42397440,-0.503,-0.004,0.868,15.872,-41.3,-27.825
42397450,-0.41,-0.035,0.878,14.822,-32.217,-25.602
42397460,-0.303,-0.061,0.898,16.03,-8.417,-17.71
42397470,-0.489,0.005,0.934,17.272,28.122,-13.93
42397480,-0.572,-0.033,0.938,14.28,46.165,-14.892
42397490,-0.669,-0.007,0.947,11.462,46.462,-9.24
42397500,-0.662,0.009,0.934,2.642,33.635,-5.635
42397510,-0.653,0,0.93,-7.857,22.155,2.012
42397520,-0.643,0.001,0.925,-16.397,17.71,4.795
42397530,-0.663,-0.037,0.91,-22.277,17.325,4.375
42397540,-0.657,-0.046,0.873,-22.785,15.837,0.682
42397550,-0.639,-0.052,0.82,-19.757,11.55,-2.695
42397560,-0.612,-0.05,0.796,-13.877,6.265,-3.447
42397570,-0.599,-0.034,0.795,-7.787,1.347,-1.82
42397580,-0.561,-0.027,0.777,-1.767,-3.167,-0.77
42397590,-0.555,0.002,0.767,2.047,-4.76,-0.682
42397600,-0.581,0.008,0.789,3.412,-4.48,-0.157
42397610,-0.523,-0.015,0.763,5.827,-5.302,-1.417
42397620,-0.533,0.047,0.762,6.16,1.05,-3.15
42397630,-0.619,0.023,0.759,2.695,9.275,1.067
42397640,-0.624,0.053,0.716,1.452,12.197,1.137
42397650,-0.71,0.033,0.76,-1.54,12.337,5.757
42397660,-0.729,0.051,0.715,-4.76,0.14,4.392
42397670,-0.644,-0.04,0.835,-7.157,-4.41,8.312
42397680,-0.773,0.057,0.897,-6.912,-2.572,13.37
42397690,-0.736,-0.012,0.937,-9.905,-7.28,11.515
42397700,-0.775,-0.001,0.942,-10.85,-11.515,11.725
42397710,-0.727,0.021,0.905,-11.357,-15.977,7.49
42397720,-0.679,0.017,0.851,-10.902,-21.612,3.465
42397730,-0.651,0.052,0.819,-10.325,-27.877,0.665
42397740,-0.613,0.056,0.813,-11.147,-33.53,-1.155
42397750,-0.628,0.074,0.809,-14.175,-36.837,-3.115
42397760,-0.611,0.036,0.796,-16.625,-39.147,-5.635
42397760,-0.644,0.021,0.806,-15.05,-39.812,-5.967
42397780,-0.65,0.015,0.846,-13.23,-41.527,-7.945
42397780,-0.644,0.013,0.885,-12.057,-43.522,-11.095
42397800,-0.646,0.009,0.924,-13.282,-44.065,-15.12
42397800,-0.657,0.018,0.968,-16.502,-46.06,-18.777
42397820,-0.64,0.012,0.985,-22.785,-50.662,-20.107
42397820,-0.538,-0.008,0.969,-29.907,-53.147,-22.382
42397830,-0.478,-0.01,0.924,-35.262,-50.155,-27.072
42397840,-0.388,-0.021,0.849,-39.55,-45.465,-32.602
42397850,-0.326,-0.036,0.752,-40.635,-39.917,-34.877
42397860,-0.295,-0.034,0.71,-38.377,-32.147,-34.09
42397870,-0.296,-0.059,0.726,-34.965,-23.047,-31.78
42397880,-0.35,-0.084,0.781,-31.797,-15.855,-30.012
42397890,-0.38,-0.12,0.828,-28.7,-13.405,-26.827
42397900,-0.407,-0.132,0.874,-25.515,-13.23,-21.647
42397910,-0.453,-0.144,0.901,-24.552,-12.845,-16.642
42397920,-0.496,-0.173,0.893,-25.707,-13.072,-12.985
42397930,-0.527,-0.181,0.833,-26.425,-13.79,-12.705
42397940,-0.584,-0.154,0.808,-24.902,-15.925,-10.605
42397950,-0.562,-0.139,0.797,-23.73,-18.042,-6.93
42397960,-0.527,-0.116,0.823,-22.715,-17.552,-2.065
42397970,-0.547,-0.105,0.888,-21.56,-17.395,4.165
42397980,-0.544,-0.096,0.957,-19.722,-22.54,6.457
42397990,-0.555,-0.076,0.978,-19.425,-29.102,5.862
42398000,-0.574,-0.094,0.944,-21.122,-34.895,1.295
42398010,-0.607,-0.112,0.911,-19.6,-41.72,-2.975
42398020,-0.636,-0.155,0.88,-16.012,-50.277,-4.235
42398030,-0.673,-0.19,0.855,-10.902,-58.257,-5.022
42398040,-0.724,-0.217,0.856,-4.147,-68.775,-3.115
42398050,-0.755,-0.247,0.873,3.255,-83.247,0.98
42398060,-0.731,-0.243,0.872,10.99,-99.47,4.48
42398070,-0.628,-0.21,0.873,15.96,-114.082,8.382
42398080,-0.525,-0.199,0.901,16.66,-123.725,8.732
42398080,-0.296,-0.114,0.891,14.962,-129.85,5.862
42398100,-0.238,-0.074,0.873,11.515,-124.74,3.552
42398100,-0.212,-0.081,0.874,6.597,-114.835,0.437
42398120,-0.176,-0.103,0.896,2.835,-105.35,-2.17
42398120,-0.185,-0.113,0.906,0.14,-95.76,-5.215
42398140,-0.202,-0.113,0.928,-2.012,-88.655,-7.962
42398140,-0.185,-0.108,0.932,-3.5,-84,-10.832
42398160,-0.154,-0.087,0.903,-3.552,-78.925,-12.81
42398160,-0.112,-0.077,0.885,-3.815,-71.085,-13.685
42398170,-0.069,-0.089,0.869,-5.127,-60.637,-13.667
42398180,-0.034,-0.1,0.872,-5.635,-48.842,-13.177
42398190,-0.039,-0.131,0.877,-6.072,-37.275,-12.582
42398200,-0.105,-0.179,0.893,-5.897,-29.032,-11.917
42398210,-0.15,-0.208,0.896,-3.797,-26.337,-12.18
42398220,-0.173,-0.197,0.899,-0.962,-25.042,-10.832
42398230,-0.186,-0.192,0.919,0.56,-23.73,-9.677
42398240,-0.171,-0.179,0.94,2.555,-22.837,-9.012
42398250,-0.161,-0.158,0.948,4.812,-21.332,-8.96
42398260,-0.15,-0.15,0.941,6.58,-19.337,-9.415
42398270,-0.102,-0.126,0.924,8.242,-17.08,-8.96
42398280,-0.063,-0.114,0.913,8.942,-13.107,-8.505
42398290,-0.055,-0.132,0.923,9.362,-7.402,-9.152
42398300,-0.057,-0.121,0.949,10.57,-2.59,-10.22
42398310,-0.311,0.051,0.681,9.572,-0.945,-11.62
42398320,0.021,-0.042,0.963,-2.187,-11.34,-5.6
42398330,-0.116,-0.303,1.168,11.655,29.365,4.235
42398340,-0.281,-0.255,1.243,6.352,21.507,-8.89
42398350,-0.218,-0.125,1.108,11.69,-8.715,-9.257
42398360,-0.088,-0.038,0.998,10.202,-17.36,-8.925
42398370,-0.063,-0.068,0.927,7.227,-7.735,-5.355
42398380,-0.16,-0.079,0.887,4.742,3.097,-3.342
42398390,-0.116,-0.138,0.897,3.167,8.102,-2.835
42398400,-0.159,-0.153,0.961,4.935,13.125,0.262
42398410,-0.174,-0.155,0.997,7.105,12.6,1.785
42398420,-0.181,-0.124,1.029,8.487,8.505,2.257
42398430,-0.186,-0.116,1.04,8.242,6.072,1.592
42398440,-0.196,-0.103,1.012,7.105,3.727,-0.087
42398450,-0.196,-0.091,0.968,7.42,1.977,-2.17
42398460,-0.18,-0.097,0.952,7.857,2.607,-2.817
42398470,-0.202,-0.121,0.935,7.63,4.322,-2.537
42398480,-0.19,-0.14,0.939,8.522,4.567,-2.835
42398490,-0.165,-0.134,0.947,9.345,6.685,-2.502
42398500,-0.198,-0.132,0.944,10.08,8.872,-1.977
42398510,-0.226,-0.123,0.967,9.047,7.525,-0.787
42398510,-0.231,-0.163,0.948,10.57,5.827,3.01
42398530,-0.261,-0.147,0.954,14.647,3.412,5.145
42398530,-0.259,-0.125,0.977,18.34,-0.35,6.79
42398550,-0.251,-0.09,0.995,18.497,-4.06,9.765
42398550,-0.237,-0.097,1.013,17.29,-8.347,10.762
42398570,-0.178,-0.08,1.019,16.52,-11.427,6.37
42398570,-0.175,-0.061,1.01,15.942,-11.095,4.252
42398580,-0.189,-0.062,0.983,15.137,-10.815,3.727
42398590,-0.169,-0.058,0.959,14.822,-10.745,2.887
42398600,-0.144,-0.07,0.938,14.297,-7.875,2.817
42398610,-0.132,-0.076,0.916,13.737,-2.467,2.432
42398620,-0.132,-0.084,0.899,14,3.482,2.87
42398630,-0.13,-0.106,0.891,15.47,9.747,3.675
42398640,-0.122,-0.123,0.882,18.725,16.065,5.232
42398650,-0.125,-0.13,0.889,24.132,22.627,7.367
42398660,-0.157,-0.114,0.884,29.137,27.3,8.557
42398670,-0.164,-0.124,0.864,33.355,30.047,8.627
42398680,-0.174,-0.119,0.857,38.885,32.69,9.572
42398690,-0.202,-0.096,0.861,44.082,34.65,11.602
42398700,-0.245,-0.06,0.878,46.917,35.367,13.562
42398710,-0.258,-0.036,0.897,45.29,35.087,12.792
42398720,-0.258,-0.019,0.931,38.185,35.507,10.36
42398730,-0.25,0.027,0.957,26.022,37.87,6.037
42398740,-0.275,0.038,0.964,11.147,39.602,2.817
42398750,-0.322,-0.029,0.986,3.937,41.107,1.592
42398760,-0.703,0.073,1.024,3.85,30.975,-7.507
42398770,-0.507,-0.06,0.905,-13.65,-27.842,-21.385
42398780,-0.296,-0.091,1.006,-8.015,-56.245,5.022
42398790,0.026,-0.042,1.062,14.56,-31.045,10.692
42398800,-0.168,-0.043,1.106,20.492,8.697,5.057
42398810,-0.369,-0.007,1.146,29.207,31.57,1.872
42398820,-0.396,0.065,1.138,34.09,26.197,7.035
42398830,-0.313,0.11,1.104,28.42,14.14,9.747
42398830,-0.265,0.117,1.066,17.36,9.555,9.555
42398850,-0.27,0.099,1.057,5.127,12.232,9.975
42398850,-0.277,0.093,1.036,-5.565,17.937,8.277
42398870,-0.288,0.079,1.016,-14.297,23.975,4.585
42398870,-0.293,0.066,1,-21.245,29.382,1.4
42398890,-0.305,0.051,0.998,-25.97,33.127,1.137
42398890,-0.33,0.031,0.993,-28.017,33.932,1.505
42398910,-0.321,0.019,0.99,-27.93,32.637,1.575
42398910,-0.314,0.004,0.988,-26.372,29.785,2.257
42398920,-0.319,-0.008,0.977,-23.397,26.215,2.275
42398930,-0.3,-0.009,0.969,-19.022,21.665,1.137
42398940,-0.291,0.004,0.94,-15.102,16.642,0.402
42398950,-0.31,-0.036,0.951,-10.535,15.487,2.1
42398960,-0.354,-0.061,0.925,-2.975,11.34,5.197
42398970,-0.267,0.007,0.919,3.22,9.257,4.9
42398980,-0.295,-0.017,0.912,3.237,10.675,5.057
42398990,-0.32,-0.049,0.916,2.362,12.302,6.247
42399000,-0.327,-0.043,0.926,1.645,12.39,8.067
42399010,-0.35,-0.069,0.934,-0.175,11.182,8.96
42399020,-0.353,-0.09,0.941,-2.03,8.82,7.472
42399030,-0.356,-0.106,0.946,-3.22,5.827,4.97
42399040,-0.349,-0.113,0.952,-3.132,3.412,1.767
42399050,-0.363,-0.126,0.952,-2.03,0.752,-0.577
42399060,-0.332,-0.121,0.947,0.315,-0.892,-2.782
42399070,-0.324,-0.117,0.942,2.8,-0.315,-4.095
42399080,-0.315,-0.111,0.926,4.62,1.522,-4.917
42399090,-0.318,-0.102,0.917,6.37,3.412,-4.602
42399100,-0.322,-0.085,0.91,7.752,4.76,-3.692
42399110,-0.315,-0.07,0.9,8.365,5.705,-2.975
42399120,-0.295,-0.049,0.888,8.295,7.017,-2.782
42399130,-0.28,-0.024,0.879,7.437,9.817,-2.782
42399140,-0.274,-0.003,0.866,5.512,13.895,-3.185
42399150,-0.276,0.002,0.856,3.85,18.76,-3.482
42399160,-0.291,0.005,0.854,2.817,23.152,-4.007
42399170,-0.308,0.014,0.846,2.502,25.76,-4.637
42399180,-0.335,0.023,0.852,3.535,26.74,-4.742
42399190,-0.347,0.021,0.853,4.917,26.302,-5.53
42399200,-0.359,0.022,0.858,6.545,25.165,-6.685
42399210,-0.377,0.036,0.87,8.277,24.115,-7.91
42399220,-0.389,0.05,0.883,8.785,22.662,-9.117
42399230,-0.406,0.044,0.889,8.995,20.895,-9.467
42399240,-0.422,0.048,0.899,9.625,18.497,-10.29
42399250,-0.445,0.024,0.911,10.57,16.17,-12.302
42399260,-0.464,0.015,0.918,13.02,13.142,-14.227
42399260,-0.46,0.017,0.925,14.91,9.625,-16.66
42399280,-0.47,0.007,0.917,17.202,7.577,-18.06
42399280,-0.478,0,0.922,19.722,6.737,-18.9
42399300,-0.488,-0.005,0.91,21.28,6.23,-20.247
42399300,-0.493,0.011,0.906,21.945,6.072,-20.51
42399320,-0.505,-0.026,0.898,22.54,5.985,-19.512
42399320,-0.517,-0.027,0.885,25.532,4.497,-17.745
42399330,-0.529,-0.03,0.887,28.14,1.662,-16.922
42399340,-0.517,-0.042,0.884,29.802,-1.575,-16.957
42399350,-0.495,-0.041,0.882,30.17,-4.532,-17.675
42399360,-0.477,-0.033,0.878,29.277,-5.582,-17.062
42399370,-0.463,-0.028,0.884,27.492,-4.55,-14.682
42399380,-0.46,-0.034,0.893,25.147,-2.887,-11.76
42399390,-0.452,-0.032,0.908,21.577,-1.382,-9.292
42399400,-0.462,-0.04,0.918,17.255,-1.015,-6.842
42399410,-0.443,-0.021,0.904,13.895,-2.292,-4.655
42399420,-0.572,-0.004,1.027,7.647,-7.42,-0.227
42399430,-0.35,-0.053,0.895,-7.787,-13.737,-23.59
42399440,-0.427,-0.045,0.934,-2.415,-10.552,-14.56
42399450,-0.392,-0.009,0.937,-1.365,-14.245,-9.852
42399460,-0.383,-0.006,0.946,0.665,-16.38,-4.777
42399470,-0.358,-0.012,0.935,0.84,-18.147,-5.092
42399480,-0.344,0.008,0.94,1.102,-18.147,-3.885
42399490,-0.341,0.029,0.947,0.157,-16.992,-1.47
42399500,-0.341,0.017,0.941,-1.697,-15.557,0.175
42399510,-0.307,0.003,0.933,-2.555,-13.037,-1.242
42399520,-0.3,0.022,0.939,-0.91,-8.732,-3.01
42399530,-0.305,0.046,0.942,-1.242,-4.2,-2.362
42399540,-0.307,0.033,0.937,-2.222,0.087,-0.875
42399550,-0.326,0.014,0.926,-1.277,3.867,-0.385
42399560,-0.338,0.006,0.923,3.255,6.86,-0.77
42399570,-0.362,0.028,0.93,9.38,8.592,-0.507
42399580,-0.359,0.041,0.923,13.107,9.03,-2.012
42399580,-0.365,0.048,0.914,17.22,10.045,-3.027
42399600,-0.365,0.059,0.911,21.367,11.672,-4.077
42399600,-0.369,0.048,0.895,25.217,13.807,-6.457
42399620,-0.38,0.099,0.905,29.627,16.467,-8.435
42399620,-0.417,0.084,0.905,30.677,17.727,-4.865
42399640,-0.414,0.116,0.92,31.955,17.43,-7.77
42399640,-0.443,0.136,0.895,27.317,16.52,-7.35
42399660,-0.457,0.082,0.903,24.482,14.647,-5.407
42399660,-0.469,0.101,0.904,22.19,11.27,-5.022
42399670,-0.478,0.099,0.91,18.217,8.067,-4.34
42399680,-0.482,0.065,0.91,13.79,5.722,-4.112
42399690,-0.482,0.039,0.912,10.675,4.427,-5.635
42399700,-0.48,0.04,0.92,7.717,4.147,-8.487
42399710,-0.471,0.018,0.916,5.127,4.9,-9.275
42399720,-0.476,0.005,0.917,6.002,5.88,-7.385
42399730,-0.478,-0.023,0.905,7.472,6.842,-6.947
42399740,-0.471,-0.03,0.951,10.202,6.457,-14.997
42399750,-0.447,0.016,0.906,6.335,8.96,-28.157
42399760,-0.461,-0.016,0.921,10.867,13.702,-20.615
42399770,-0.41,-0.015,0.906,13.02,15.26,-23.24
42399780,-0.439,0.01,0.909,17.202,19.722,-20.842
42399790,-0.448,0.025,0.911,18.62,22.312,-18.287
42399800,-0.446,0.032,0.902,18.567,23.992,-16.257
42399810,-0.481,0.105,0.9,15.452,25.007,-12.722
42399820,-0.48,0.074,0.885,8.61,24.027,-9.45
42399830,-0.495,0.074,0.868,2.642,22.225,-7.717
42399840,-0.513,0.091,0.851,-2.117,19.022,-4.672
42399850,-0.556,-0.044,0.833,-2.607,13.615,1.872
42399860,-0.535,-0.002,0.839,4.165,5.652,-2.135
42399870,-0.478,0.188,0.87,1.522,0.105,-12.022
42399880,-0.509,0.042,0.837,-8.662,-0.997,-5.32
42399890,-0.484,-0.006,0.837,-7.647,-3.447,-2.432
42399900,-0.496,0.054,0.856,-7.385,-5.827,-4.935
42399910,-0.468,0.051,0.853,-8.855,-6.527,-6.387
42399920,-0.446,0.003,0.842,-7.822,-5.757,-6.335
42399930,-0.448,-0.04,0.846,0.875,-3.85,-0.367
42399940,-0.543,0.014,0.908,14.122,-4.69,13.195
42399950,-0.538,0.057,0.955,14.42,-12.005,13.825
42399960,-0.376,0.097,0.898,2.852,-14.122,-9.292
42399970,-0.45,0.089,0.896,-2.887,-6.65,-6.51
42399980,-0.438,0.025,0.89,-2.135,-4.095,1.645
42399990,-0.448,0.096,0.914,2.292,-2.45,5.547
42400000,-0.49,0.188,0.935,-3.605,-3.412,5.617
42400010,-0.366,0.059,0.855,-16.047,-4.2,-5.215
42400010,-0.479,0.049,0.865,-13.492,0.857,-0.437
42400030,-0.467,-0.008,0.853,-8.05,-0.98,5.057
42400030,-0.447,0,0.856,1.015,-2.957,2.852
42400050,-0.456,-0.005,0.862,9.45,-3.972,2.275
42400050,-0.439,0.021,0.883,19.11,-4.69,2.782
42400060,-0.429,0.021,0.882,25.48,-4.952,2.275
42400070,-0.428,0.126,0.933,32.252,-3.167,1.977
42400080,-0.458,0.122,0.943,27.702,-3.552,8.75
42400090,-0.451,0.051,0.926,20.912,-5.355,10.36
42400100,-0.456,0.054,0.921,18.795,-6.3,7.997
42400110,-0.444,0.087,0.914,15.907,-6.545,4.287
42400120,-0.417,0.081,0.896,12.39,-4.725,2.345
42400130,-0.411,0.066,0.877,10.622,-0.857,1.382
42400140,-0.419,0.102,0.878,9.065,2.747,0.14
42400150,-0.437,0.094,0.863,5.162,5.005,-0.122
42400160,-0.438,0.084,0.845,3.36,5.547,-1.347
42400170,-0.445,0.098,0.832,3.062,4.777,-2.415
42400180,-0.438,0.117,0.829,2.887,3.482,-1.995
42400190,-0.43,0.12,0.809,1.487,2.572,-0.455
42400200,-0.43,0.118,0.805,1.417,2.485,1.4
42400210,-0.429,0.122,0.802,0.455,3.552,1.277
42400220,-0.437,0.122,0.802,-1.102,6.125,0.717
42400230,-0.45,0.129,0.807,-2.747,9.135,-0.437
42400240,-0.467,0.138,0.81,-4.532,11.935,-1.347
42400250,-0.487,0.143,0.809,-6.912,14.105,-1.872
42400260,-0.502,0.139,0.807,-9.1,15.557,-2.292
42400270,-0.516,0.123,0.801,-10.062,16.782,-2.52
42400280,-0.55,0.102,0.801,-9.257,17.307,-1.785
42400290,-0.578,0.09,0.806,-7.35,15.802,-1.312
42400300,-0.594,0.087,0.811,-5.18,12.547,-1.067
42400310,-0.611,0.086,0.819,-3.657,8.435,-0.472
42400320,-0.612,0.076,0.825,-3.167,4.217,0.49
42400330,-0.597,0.075,0.829,-3.045,0.945,0.647
42400330,-0.585,0.077,0.835,-3.465,-0.35,0.875
42400350,-0.574,0.07,0.84,-4.27,-0.227,2.275
42400350,-0.558,0.061,0.841,-5.04,0.77,4.025
42400370,-0.553,0.055,0.843,-5.565,2.292,5.582
42400370,-0.549,0.049,0.846,-5.845,3.64,6.79
42400390,-0.544,0.05,0.854,-6.422,4.06,8.19
42400390,-0.535,0.053,0.864,-7.752,3.325,8.925
42400410,-0.521,0.06,0.86,-10.202,1.802,8.802
42400410,-0.509,0.06,0.863,-13.247,0.507,7.962
42400420,-0.502,0.057,0.862,-16.38,-1.155,6.072
42400430,-0.494,0.057,0.862,-19.46,-3.325,3.867
42400440,-0.482,0.057,0.859,-23.17,-6.352,1.54
42400450,-0.484,0.052,0.855,-27.002,-10.062,-0.98
42400460,-0.506,0.046,0.858,-30.012,-15.942,-4.567
42400470,-0.533,0.044,0.866,-31.675,-25.13,-8.75
42400480,-0.53,0.042,0.879,-33.162,-37.345,-12.722
42400490,-0.51,0.026,0.883,-31.972,-50.522,-14.91
42400500,-0.477,0.014,0.876,-29.207,-61.95,-16.38
42400510,-0.431,0.014,0.886,-25.935,-68.547,-17.657
42400520,-0.373,0.003,0.89,-23.362,-69.055,-18.882
42400530,-0.322,0.008,0.885,-21.665,-63.7,-18.9
42400540,-0.315,0.036,0.9,-22.435,-54.355,-16.152
42400550,-0.33,0.044,0.922,-27.125,-44.852,-11.13
42400560,-0.341,0.019,0.925,-33.687,-37.012,-8.505
42400570,-0.347,0,0.925,-37.695,-29.155,-9.345
42400580,-0.37,0.003,0.929,-40.46,-21.857,-10.36
42400590,-0.399,-0.023,0.926,-41.755,-17.167,-10.115
42400600,-0.435,-0.062,0.908,-38.202,-16.152,-9.467
42400610,-0.451,-0.071,0.909,-30.117,-18.147,-10.885
42400620,-0.43,-0.06,0.905,-21.35,-20.965,-14.017
42400630,-0.43,-0.054,0.92,-12.88,-22.837,-17.255
42400640,-0.425,-0.059,0.935,-4.865,-24.132,-19.337
42400650,-0.389,-0.063,0.939,2.1,-21.7,-20.65
42400660,-0.379,-0.047,0.953,7.595,-15.155,-20.09
42400670,-0.393,-0.031,0.959,10.832,-7.07,-19.302
42400680,-0.402,-0.019,0.95,11.987,-0.297,-19.32
42400690,-0.431,-0.031,0.953,12.005,3.5,-18.725
42400700,-0.422,-0.033,0.94,11.76,3.71,-18.165
42400710,-0.41,-0.018,0.933,10.815,1.68,-15.82
42400720,-0.419,-0.009,0.929,8.295,-0.472,-12.46
42400730,-0.41,-0.002,0.917,4.76,-3.482,-10.185
42400740,-0.39,-0.002,0.906,0.927,-5.582,-7.682
42400750,-0.369,-0.012,0.889,-1.837,-4.462,-5.355
42400750,-0.387,-0.02,0.883,-4.41,-2.012,-4.462
42400760,-0.387,-0.013,0.885,-6.58,-0.525,-5.81
42400770,-0.406,-0.029,0.885,-8.75,-0.087,-8.47
42400780,-0.402,-0.031,0.875,-10.22,-3.325,-11.042
42400790,-0.412,-0.042,0.874,-14.472,-9.747,-11.06
42400800,-0.364,-0.103,0.879,-16.205,-19.267,-9.24
42400810,-0.202,-0.135,0.919,-7.245,-18.97,-3.307
42400820,-0.173,-0.1,0.98,3.605,-2.765,0.525
42400830,-0.203,-0.055,1.007,4.725,18.06,-0.682
42400840,-0.251,-0.031,1.004,-0.647,33.425,-4.287
42400850,-0.332,-0.037,0.973,-9.992,37.117,-5.005
42400860,-0.307,-0.069,0.952,-15.855,35.542,-4.147
42400870,-0.288,-0.092,0.921,-20.247,39.392,-1.977
42400880,-0.349,-0.108,0.905,-23.24,47.057,2.17
42400890,-0.411,-0.12,0.893,-23.747,51.992,5.372
42400900,-0.493,-0.131,0.887,-23.135,50.96,6.912
42400910,-0.546,-0.154,0.884,-21.297,43.067,6.44
42400920,-0.54,-0.165,0.88,-16.765,32.217,5.337
42400930,-0.517,-0.167,0.88,-10.08,23.66,4.795
42400940,-0.522,-0.123,0.883,-3.605,19.25,3.64
42400950,-0.513,-0.104,0.883,-1.417,16.572,2.87
42400960,-0.528,-0.103,0.882,0.682,15.54,2.135
42400970,-0.527,-0.088,0.873,3.815,14.735,2.24
42400980,-0.552,-0.102,0.872,4.672,13.002,3.92
42400990,-0.55,-0.085,0.873,5.792,9.59,3.937
42401000,-0.532,-0.082,0.867,5.932,6.02,3.36
42401010,-0.519,-0.081,0.893,6.125,3.92,2.852
42401020,-0.459,-0.073,0.911,5.232,4.445,2.817
42401030,-0.468,-0.072,0.929,2.975,7.262,3.552
42401040,-0.506,-0.092,0.932,0.402,6.755,3.605
42401050,-0.459,-0.113,0.921,-0.07,2.327,1.33
42401060,-0.439,-0.076,0.901,1.155,1.47,-1.032
42401070,-0.456,-0.072,0.874,0.42,3.062,-2.187
42401080,-0.464,-0.082,0.856,-0.122,4.095,-3.22
42401080,-0.485,-0.096,0.846,0.542,4.06,-3.08
42401100,-0.501,-0.106,0.842,2.905,3.36,-2.52
42401100,-0.522,-0.103,0.842,5.67,1.61,-1.96
42401120,-0.527,-0.098,0.847,9.17,-1.662,-0.945
42401120,-0.509,-0.096,0.863,12.057,-4.847,0.892
42401140,-0.521,-0.093,0.881,13.982,-7.245,1.837
42401140,-0.491,-0.067,0.894,14.227,-8.54,0.682
42401160,-0.476,-0.043,0.913,12.215,-6.597,-0.717
42401160,-0.502,-0.055,0.914,8.295,-4.252,-1.592
42401170,-0.495,-0.066,0.906,6.58,-4.077,-3.22
42401180,-0.48,-0.057,0.898,6.352,-5.617,-3.605
42401190,-0.471,-0.052,0.887,5.39,-6.195,-3.727
42401200,-0.459,-0.066,0.883,4.007,-6.212,-2.975
42401210,-0.472,-0.079,0.881,3.062,-5.88,-1.907
42401220,-0.483,-0.082,0.868,3.115,-6.37,-1.505
42401230,-0.492,-0.076,0.847,4.025,-7.105,-0.14
42401240,-0.593,-0.125,0.765,8.942,-7.157,1.855
42401250,-0.451,0.048,0.874,17.535,-7.332,-3.99
42401260,-0.511,-0.074,0.918,10.29,-10.185,0.63
42401270,-0.476,-0.107,0.918,10.902,-11.585,-0.017
42401280,-0.49,-0.057,0.93,14.035,-12.337,-0.192
42401290,-0.485,-0.045,0.897,14.087,-14.175,-1.225
42401300,-0.459,-0.041,0.888,12.46,-15.645,-1.435
42401310,-0.433,-0.048,0.887,10.78,-15.155,-1.295
42401320,-0.407,-0.036,0.899,9.887,-12.792,-1.067
42401330,-0.387,-0.035,0.906,6.86,-9.922,-0.822
42401340,-0.363,-0.037,0.883,2.852,-6.527,-0.315
42401350,-0.398,-0.031,0.876,0.105,-1.907,0.227
42401360,-0.434,-0.026,0.869,-1.365,1.155,1.137
42401370,-0.48,-0.046,0.882,-2.1,1.417,2.747
42401380,-0.499,-0.048,0.917,-3.167,-0.105,4.445
42401390,-0.562,-0.037,0.974,-6.16,-3.325,6.16
42401400,-0.595,-0.073,1.008,-10.937,-10.36,7.245
42401410,-0.539,-0.079,1.03,-16.222,-17.395,5.845
42401420,-0.511,-0.043,1.049,-18.602,-20.842,2.905
42401430,-0.513,-0.018,1.068,-23.502,-19.617,-0.805
42401440,-0.475,-0.036,1.055,-28.875,-20.72,-3.955
42401440,-0.451,-0.038,1.026,-31.552,-24.605,-4.532
42401460,-0.384,-0.033,0.964,-33.495,-27.895,-4.76
42401460,-0.309,-0.058,0.908,-34.597,-25.672,-4.637
42401480,-0.258,-0.078,0.897,-32.812,-14,-5.022
42401480,-0.278,-0.059,0.881,-31.902,-0.577,-7.14
42401500,-0.327,-0.106,0.942,-35.787,8.75,-6.86
42401500,-0.247,-0.217,1.032,-35.525,19.67,-5.057
42401510,-0.226,-0.178,1.129,-32.462,36.75,-2.24
42401520,-0.252,-0.152,1.174,-37.03,56.157,-3.36
42401530,-0.257,-0.203,1.183,-45.08,72.87,-4.287
42401540,-0.282,-0.187,1.112,-54.407,89.932,-7.997
42401550,-0.423,-0.202,1.058,-65.222,102.97,-7.332
42401560,-0.562,-0.272,0.999,-69.632,103.232,-10.797
42401570,-0.64,-0.286,0.948,-66.535,91.945,-17.99
42401580,-0.715,-0.271,0.88,-62.072,69.352,-24.255
42401590,-0.71,-0.271,0.825,-58.712,41.195,-29.277
42401600,-0.699,-0.325,0.801,-49.892,13.23,-33.565
42401610,-0.738,-0.283,0.79,-30.992,-16.695,-38.377
42401620,-0.663,-0.166,0.757,-21.245,-50.855,-45.745
42401630,-0.683,-0.159,0.728,-22.312,-82.232,-45.605
42401640,-0.579,-0.192,0.687,-22.68,-105.717,-44.397
42401650,-0.463,-0.155,0.677,-22.697,-117.495,-42.735
42401660,-0.419,-0.134,0.667,-26.512,-117.197,-37.135
42401670,-0.392,-0.122,0.664,-32.462,-109.217,-27.79
42401680,-0.365,-0.12,0.641,-40.355,-96.285,-22.085
42401690,-0.381,-0.112,0.624,-48.125,-79.327,-15.802
42401700,-0.443,-0.12,0.609,-56.297,-63.472,-9.24
42401710,-0.509,-0.14,0.595,-63.542,-51.905,-5.512
42401720,-0.548,-0.18,0.581,-67.27,-46.287,-3.587
42401730,-0.577,-0.219,0.594,-64.925,-44.362,-0.437
42401740,-0.604,-0.24,0.617,-58.45,-46.48,2.415
42401750,-0.601,-0.255,0.641,-50.137,-51.432,5.145
42401760,-0.552,-0.266,0.664,-41.597,-54.845,6.72
42401770,-0.518,-0.3,0.68,-33.46,-55.195,6.142
42401780,-0.482,-0.274,0.713,-26.127,-52.99,0.437
42401790,-0.485,-0.247,0.751,-21.192,-52.587,-3.185
42401800,-0.477,-0.238,0.804,-22.242,-57.33,-3.027
42401810,-0.46,-0.268,0.812,-26.67,-66.587,-6.16
42401820,-0.411,-0.275,0.822,-29.382,-77.455,-8.732
42401830,-0.33,-0.291,0.82,-31.045,-85.172,-8.277
42401830,-0.259,-0.337,0.837,-29.715,-86.24,-6.072
42401850,-0.203,-0.457,0.892,-21.175,-81.882,-3.832
42401850,-0.079,-0.533,0.945,2.117,-70.77,-5.547
42401870,-0.047,-0.528,1.015,34.842,-49.577,-11.83
42401870,-0.062,-0.446,1.017,61.53,-28.63,-17.08
42401890,-0.108,-0.36,1.008,74.007,-15.137,-17.815
42401890,-0.11,-0.289,0.974,72.555,-6.72,-14.717
42401910,-0.215,-0.297,0.968,60.2,-2.292,-7.717
42401910,-0.195,-0.295,0.952,48.387,-3.692,-2.8
42401920,-0.215,-0.284,0.949,37.502,-5.075,-1.067
42401930,-0.218,-0.284,0.938,27.562,-6.755,1.942
42401940,-0.223,-0.282,0.93,18.9,-8.732,2.957
42401950,-0.216,-0.294,0.948,13.632,-10.325,3.43
42401960,-0.187,-0.305,0.967,10.692,-10.727,3.815
42401970,-0.186,-0.318,0.99,8.662,-8.68,3.115
42401980,-0.171,-0.335,1.014,7.437,-6.16,3.92
42401990,-0.154,-0.345,1.026,6.422,-2.87,5.757
42402000,-0.155,-0.34,1.03,5.775,2.082,7.105
42402010,-0.167,-0.335,1.017,5.477,8.067,7.945
42402020,-0.184,-0.32,0.997,6.352,14.787,9.327
42402030,-0.208,-0.316,0.981,7.455,21.017,11.707
42402040,-0.218,-0.319,0.956,8.645,25.952,14.42
42402050,-0.228,-0.323,0.927,11.217,31.692,18.077
42402060,-0.261,-0.31,0.918,16.922,38.185,24.57
42402070,-0.284,-0.32,0.904,24.115,43.907,29.925
42402080,-0.32,-0.34,0.886,33.81,49.35,31.692
42402090,-0.387,-0.352,0.88,48.842,51.59,32.952
42402100,-0.41,-0.343,0.878,68.145,50.75,34.3
42402110,-0.436,-0.314,0.879,87.482,49.91,34.755
42402120,-0.458,-0.276,0.889,102.042,48.475,33.565
42402130,-0.492,-0.247,0.895,110.407,44.485,33.232
42402140,-0.524,-0.209,0.913,113.015,38.482,33.967
42402150,-0.526,-0.161,0.933,108.36,30.625,34.982
42402160,-0.507,-0.11,0.948,96.985,22.47,37.047
42402170,-0.493,-0.08,0.948,80.465,15.697,40.495
42402170,-0.481,-0.077,0.937,61.6,11.55,42.77
42402190,-0.459,-0.079,0.926,43.837,9.66,41.562
42402190,-0.429,-0.081,0.909,29.47,8.715,39.025
42402210,-0.39,-0.084,0.898,20.02,8.557,36.172
42402210,-0.353,-0.074,0.887,14.227,8.732,32.515
42402230,-0.32,-0.06,0.872,10.955,9.8,27.475
42402230,-0.304,-0.037,0.863,10.36,10.815,21.857
42402250,-0.285,-0.002,0.857,11.322,10.272,16.135
42402250,-0.275,0.035,0.855,11.777,9.135,11.112
42402260,-0.277,0.072,0.859,10.675,7.21,6.912
42402270,-0.279,0.094,0.861,7.437,4.602,3.937
42402280,-0.278,0.104,0.864,2.345,1.785,2.047
42402290,-0.29,0.093,0.865,-3.675,-0.822,0.927
42402300,-0.291,0.071,0.867,-8.54,-3.167,0.052
42402310,-0.277,0.043,0.87,-10.867,-4.34,-1.715
42402320,-0.27,0.015,0.887,-10.885,-3.64,-4.83
42402330,-0.261,0.002,0.902,-10.062,-1.33,-8.575
42402340,-0.253,-0.017,0.912,-10.71,1.942,-13.107
42402350,-0.292,-0.057,0.924,-12.092,5.477,-17.762
42402360,-0.329,-0.087,0.93,-13.702,6.947,-22.89
42402370,-0.351,-0.119,0.93,-15.172,5.967,-27.125
42402380,-0.36,-0.157,0.927,-15.015,3.762,-30.607
42402390,-0.353,-0.194,0.926,-13.457,1.54,-32.41
42402400,-0.346,-0.22,0.927,-10.605,0.297,-32.025
42402410,-0.337,-0.228,0.931,-6.615,0.63,-29.575
42402420,-0.328,-0.235,0.942,-3.132,2.905,-26.53
42402430,-0.345,-0.231,0.957,-1.435,6.002,-24.85
42402440,-0.359,-0.219,0.97,-0.962,7.98,-23.572
42402450,-0.363,-0.208,0.977,-1.277,7.927,-22.872
42402460,-0.362,-0.199,0.979,-1.26,6.195,-22.96
42402470,-0.358,-0.181,0.979,-0.262,3.552,-22.96
42402480,-0.364,-0.174,0.976,1.732,0.612,-22.61
42402490,-0.377,-0.173,0.976,4.865,-2.747,-23.205
42402500,-0.376,-0.158,0.974,9.135,-6.65,-25.375
42402510,-0.379,-0.139,0.978,13.842,-10.535,-28.525
42402520,-0.377,-0.129,0.972,18.62,-13.912,-32.34
42402530,-0.378,-0.113,0.963,23.292,-17.255,-35.402
42402540,-0.368,-0.097,0.954,26.652,-19.722,-37.782
42402550,-0.372,-0.082,0.95,28.262,-20.737,-40.04
42402560,-0.375,-0.064,0.946,28,-21.35,-42.192
42402570,-0.379,-0.051,0.946,26.11,-22.295,-43.102
42402580,-0.379,-0.041,0.937,22.855,-23.38,-43.47
42402580,-0.369,-0.031,0.927,18.9,-23.345,-43.907
42402600,-0.365,-0.029,0.92,14.682,-21.507,-44.432
42402600,-0.354,-0.024,0.906,11.007,-18.2,-45.045
42402620,-0.357,-0.014,0.901,9.31,-14.052,-44.695
42402620,-0.352,-0.006,0.876,7.385,-10.29,-43.872
42402640,-0.382,-0.026,0.876,9.607,-7.35,-40.827
42402640,-0.403,-0.014,0.881,14.227,-7.542,-38.307
42402660,-0.408,-0.016,0.877,19.355,-9.782,-35.945
42402660,-0.393,-0.004,0.875,24.22,-10.955,-33.53
42402670,-0.401,0.027,0.893,26.915,-10.412,-31.115
42402680,-0.406,0.042,0.902,26.477,-8.12,-29.33
42402690,-0.43,0.031,0.92,26.302,-5.845,-26.967
42402700,-0.461,0.021,0.939,27.405,-6.09,-24.517
42402710,-0.472,0.012,0.953,29.242,-9.345,-21.385
42402720,-0.481,-0.017,0.963,30.712,-14.927,-16.432
42402730,-0.467,-0.023,0.969,31.325,-20.597,-10.71
42402740,-0.455,-0.013,0.978,30.187,-24.64,-4.515
42402750,-0.452,-0.012,0.981,26.39,-26.04,0.017
42402760,-0.457,-0.027,0.978,21.805,-25.812,1.715
42402770,-0.459,-0.037,0.97,19.442,-25.76,0.472
42402780,-0.46,-0.04,0.971,21.052,-27.562,-2.012
42402790,-0.456,-0.018,0.976,25.462,-32.672,-4.795
42402800,-0.429,0.01,0.98,30.31,-40.88,-6.457
42402810,-0.391,0.033,0.981,33.74,-50.33,-5.652
42402820,-0.359,0.044,0.986,35.227,-59.097,-3.675
42402830,-0.325,0.052,0.994,34.667,-67.987,-1.697
42402840,-0.288,0.049,0.993,32.48,-76.457,0.402
42402850,-0.247,0.013,0.984,29.505,-83.545,0.665
42402860,-0.178,0.018,0.96,29.645,-87.36,-3.062
42402870,-0.152,0.05,0.969,29.277,-86.047,-3.902
42402880,-0.143,0.021,0.964,25.147,-82.32,-0.805
42402890,-0.122,-0.009,0.94,18.952,-77.595,-0.507
42402900,-0.121,-0.036,0.921,12.67,-71.26,-1.295
42402910,-0.116,-0.076,0.919,6.755,-65.135,-1.452
42402920,-0.109,-0.112,0.913,2.975,-59.36,-1.172
42402920,-0.117,-0.137,0.917,1.225,-52.64,-1.032
42402940,-0.081,-0.166,0.931,0.14,-44.73,-4.305
42402940,-0.123,-0.167,0.943,-0.927,-36.995,-1.487
42402960,-0.123,-0.199,0.962,-2.047,-32.532,2.24
42402960,-0.127,-0.214,0.981,-2.677,-29.26,1.172
42402980,-0.137,-0.231,0.991,-2.59,-27.212,1.487
42402980,-0.092,-0.25,1.01,0.542,-25.095,0.192
42403000,-0.075,-0.138,0.992,1.942,-21.157,-1.417
42403000,-0.048,-0.124,0.967,1.347,-14.035,2.135
42403010,-0.041,-0.099,0.941,1.575,-5.722,2.292
42403020,-0.089,-0.065,0.906,2.03,1.907,4.042
42403030,-0.101,-0.025,0.919,4.06,5.95,3.885
42403040,-0.154,0.026,0.905,2.1,5.39,4.952
42403050,-0.175,0.049,0.907,-2.17,0.315,5.897
42403060,-0.192,0.068,0.913,-10.395,-5.687,5.372
42403070,-0.19,0.083,0.931,-19.687,-9.765,2.257
42403080,-0.161,0.078,0.951,-29.82,-9.817,-0.577
42403090,-0.157,0.01,0.965,-38.972,-6.387,-2.38
42403100,-0.166,-0.05,0.979,-43.12,-3.255,-5.915
42403110,-0.149,-0.089,0.997,-42.875,0.017,-6.107
42403120,-0.137,-0.148,1.025,-38.045,2.712,-3.535
42403130,-0.106,-0.172,1.047,-28.175,6.282,-2.905
42403140,-0.116,-0.183,1.074,-16.415,12.127,-1.015
42403150,-0.129,-0.192,1.087,-3.71,18.322,0.822
42403160,-0.158,-0.184,1.1,9.975,22.347,0.385
42403170,-0.154,-0.168,1.093,22.26,23.38,-2.887
42403180,-0.144,-0.131,1.096,31.115,23.38,-5.005
42403190,-0.15,-0.124,1.087,33.11,21.385,-6.807
42403200,-0.162,-0.141,1.088,33.705,17.36,-6.562
42403210,-0.154,-0.123,1.092,33.372,11.602,-5.057
42403220,-0.121,-0.118,1.086,30.485,6.422,-5.232
42403230,-0.114,-0.13,1.075,28.192,2.852,-4.322
42403240,-0.095,-0.126,1.071,26.985,-0.175,-2.73
42403250,-0.081,-0.115,1.063,24.885,-3.097,-0.717
42403260,-0.064,-0.142,1.049,22.382,-5.932,0.507
42403270,-0.032,-0.179,1.019,20.492,-8.645,0
42403280,0,-0.225,0.99,18.83,-8.225,-0.98
42403290,0.019,-0.262,0.973,18.165,-3.622,-3.307
42403300,0.011,-0.232,0.971,17.08,2.1,-6.352
42403310,0.001,-0.188,0.956,16.292,6.177,-7.717
42403320,0.005,-0.148,0.943,16.03,9.555,-8.505
42403330,0.02,-0.106,0.923,14.49,13.65,-11.707
42403330,-0.006,-0.079,0.917,12.74,18.165,-13.212
42403350,-0.028,-0.061,0.902,10.255,20.422,-14.647
42403350,-0.052,-0.041,0.879,8.802,21.017,-16.38
42403370,-0.078,-0.001,0.855,8.382,19.67,-16.975
42403370,-0.111,0.031,0.849,9.047,17.097,-15.452
42403390,-0.15,0.074,0.839,7.84,12.057,-14.157
42403390,-0.17,0.108,0.835,3.937,6.667,-15.855
42403410,-0.21,0.124,0.865,-1.645,0.875,-18.305
42403410,-0.222,0.143,0.834,-11.007,-7.77,-20.93
42403420,-0.274,0.121,0.899,-15.225,-18.41,-20.667
42403430,-0.262,0.163,0.932,-22.96,-34.79,-26.04
42403440,-0.261,0.17,0.959,-33.092,-51.572,-28.455
42403450,-0.256,0.163,0.984,-42.647,-68.985,-28.21
42403460,-0.207,0.158,0.987,-50.942,-86.257,-26.687
42403470,-0.188,0.151,0.994,-56.525,-100.782,-20.422
42403480,-0.126,0.122,0.995,-61.985,-110.617,-15.785
42403490,-0.068,0.088,1,-66.43,-113.837,-12.32
42403500,-0.001,0.064,0.993,-69.387,-107.555,-11.025
42403510,0.032,0.025,1.003,-70.665,-92.155,-12.11
42403520,0.01,-0.01,1.025,-68.81,-75.355,-11.637
42403530,-0.015,-0.034,1.049,-66.062,-62.177,-8.487
42403540,-0.048,-0.075,1.061,-63.7,-53.427,-4.62
42403550,-0.012,-0.113,1.079,-61.6,-43.312,-1.312
42403560,-0.045,-0.197,1.095,-58.957,-27.877,4.042
42403570,-0.107,-0.194,1.137,-52.482,-11.69,11.007
42403580,-0.171,-0.177,1.128,-46.847,-2.887,14.192
42403590,-0.278,-0.183,1.099,-45.202,-5.005,16.047
42403600,-0.316,-0.219,1.047,-43.085,-16.695,15.977
42403610,-0.299,-0.256,0.987,-36.417,-32.112,9.94
42403620,-0.24,-0.25,0.938,-23.747,-47.757,3.062
42403630,-0.206,-0.219,0.916,-8.505,-61.25,-0.035
42403640,-0.18,-0.194,0.894,6.72,-74.567,-2.012
42403650,-0.139,-0.15,0.877,19.792,-89.302,-6.93
42403660,-0.08,-0.113,0.861,28.577,-103.565,-10.78
42403670,0.019,-0.08,0.84,33.757,-114.817,-13.387
42403670,0.116,-0.052,0.822,35.385,-120.19,-14.052
42403690,0.195,-0.048,0.821,34.877,-117.967,-13.3
42403690,0.236,-0.073,0.835,33.425,-110.11,-11.917
42403710,0.289,-0.082,0.857,32.007,-100.292,-11.27
42403710,0.419,-0.083,0.909,28.175,-85.067,-9.817
42403730,0.425,-0.123,0.953,20.125,-60.76,-4.147
42403730,0.444,-0.181,0.96,16.502,-35.91,1.75
42403750,0.446,-0.214,0.958,18.007,-12.425,4.287
42403750,0.421,-0.163,0.945,20.58,11.497,9.957
42403760,0.463,-0.165,0.92,19.617,39.27,19.652
42403770,0.377,-0.204,0.919,17.587,73.167,28.122
42403780,0.169,-0.251,0.932,18.41,96.617,33.32
42403790,0.171,-0.277,0.95,24.675,102.06,33.547
42403800,0.135,-0.301,0.986,36.627,101.43,37.24
42403810,0.067,-0.322,1.047,49.437,99.295,41.947
42403820,0.029,-0.379,1.109,51.712,95.97,47.127
42403830,-0.228,-0.369,1.19,45.867,80.745,51.17
42403840,0.049,-0.303,1.198,47.46,56.945,36.277
42403850,0.04,-0.314,1.191,46.322,37.887,33.635
42403860,0.102,-0.205,1.184,50.977,32.515,37.782
42403870,0.175,-0.192,1.149,45.937,40.46,40.932
42403880,0.205,-0.188,1.117,36.592,63.35,44.03
42403890,0.192,-0.134,1.074,27.002,95.462,45.867
42403900,0.202,-0.053,1.027,14.892,134.277,47.775
42403910,0.2,-0.063,0.989,-2.94,180.337,51.73
42403920,0.159,-0.057,0.94,-16.835,230.615,58.152
42403930,-0.004,-0.007,0.892,-27.982,276.22,68.04
42403940,-0.175,0.002,0.854,-40.88,307.545,83.177
42403950,-0.303,-0.004,0.819,-50.75,324.975,95.847
42403960,-0.428,-0.016,0.789,-55.335,326.357,107.38
42403970,-0.54,0.033,0.784,-58.765,316.295,119.42
42403980,-0.658,0.017,0.795,-61.792,295.365,125.895
42403990,-0.663,0.016,0.776,-60.27,268.205,125.702
42404000,-0.66,0.012,0.758,-59.342,245.49,120.19
42404010,-0.647,0.009,0.738,-55.597,226.345,113.242
42404020,-0.674,0.079,0.751,-49.367,213.045,104.772
42404030,-0.602,-0.053,0.671,-52.78,199.272,93.8
42404040,-0.763,0.08,0.746,-51.467,190.435,85.4
42404050,-0.78,0.042,0.691,-53.865,168.822,80.657
42404060,-0.808,0.053,0.699,-57.172,146.23,77.945
42404070,-0.734,0.008,0.646,-62.492,127.12,69.825
42404080,-0.737,0.04,0.632,-68.547,113.802,62.965
42404080,-0.717,0.033,0.609,-74.375,106.015,61.705
42404100,-0.748,-0.052,0.601,-75.512,100.467,64.995
42404100,-0.737,-0.071,0.64,-69.685,97.387,66.29
42404120,-0.746,-0.084,0.667,-60.077,94.78,66.815
42404120,-0.734,-0.043,0.627,-50.33,93.467,66.115
42404140,-0.742,-0.006,0.623,-45.552,96.302,64.207
42404140,-0.794,-0.006,0.615,-48.142,96.547,57.802
42404160,-0.873,-0.045,0.612,-48.93,87.727,52.815
42404160,-0.905,-0.062,0.606,-45.377,68.6,48.177
42404170,-0.922,-0.051,0.614,-39.935,45.132,42.525
42404180,-0.873,-0.053,0.615,-35.91,21.542,35.945
42404190,-0.852,-0.074,0.612,-30.695,2.712,27.265
42404200,-0.871,-0.091,0.618,-22.802,-12.652,19.915
42404210,-0.883,-0.121,0.615,-14.822,-29.68,15.067
42404220,-0.866,-0.102,0.596,-7.035,-46.007,7.157
42404230,-0.897,-0.108,0.647,-2.87,-64.19,0.175
42404240,-0.898,-0.09,0.669,4.847,-80.36,-9.45
42404250,-0.875,-0.096,0.661,12.967,-100.152,-15.417
42404260,-0.85,-0.077,0.686,20.247,-121.94,-19.337
42404270,-0.759,-0.016,0.692,24.517,-141.015,-22.33
42404280,-0.662,0.028,0.703,24.167,-150.237,-22.225
42404290,-0.588,-0.052,0.695,21.052,-144.182,-23.222
42404300,-0.589,-0.149,0.71,24.675,-130.375,-26.04
42404310,-0.611,-0.172,0.749,35.98,-119.962,-25.742
42404320,-0.539,-0.139,0.775,47.39,-109.847,-22.89
42404330,-0.481,-0.113,0.802,55.282,-91.91,-18.287
42404340,-0.485,-0.082,0.829,59.71,-66.395,-13.3
42404350,-0.537,-0.055,0.86,60.707,-41.002,-9.8
42404360,-0.614,-0.057,0.878,59.867,-22.995,-5.845
42404370,-0.674,-0.061,0.878,55.405,-13.702,-4.165
42404380,-0.712,-0.052,0.88,49.822,-11.445,-5.827
42404390,-0.781,-0.037,0.87,44.817,-17.815,-9.345
42404400,-0.838,-0.032,0.848,40.11,-35.77,-12.6
42404410,-0.854,-0.022,0.828,38.64,-63.682,-14.595
42404420,-0.824,0.001,0.809,38.097,-96.705,-16.082
42404420,-0.696,0.05,0.782,35.42,-125.947,-17.482
42404440,-0.565,0.065,0.76,29.487,-143.272,-16.152
42404440,-0.448,0.075,0.753,21.332,-146.93,-13.912
42404460,-0.349,0.101,0.763,12.495,-138.792,-11.445
42404460,-0.268,0.122,0.782,1.592,-118.457,-8.032
42404480,-0.24,0.096,0.8,-9.765,-88.445,-3.395
42404480,-0.275,0.06,0.816,-18.375,-56.595,1.54
42404500,-0.323,0.03,0.819,-22.89,-29.137,5.267
42404500,-0.394,-0.001,0.831,-23.747,-8.942,8.137
42404510,-0.454,-0.031,0.841,-20.615,3.815,7.997
42404520,-0.53,-0.065,0.859,-14.315,9.502,4.2
42404530,-0.559,-0.087,0.875,-4.182,7.997,-3.255
42404540,-0.565,-0.081,0.875,8.242,2.012,-12.04
42404550,-0.578,-0.072,0.88,21.105,-5.792,-20.002
42404560,-0.596,-0.059,0.89,33.092,-15.19,-25.235
42404570,-0.588,-0.037,0.906,42.245,-26.442,-27.772
42404580,-0.534,-0.016,0.943,46.41,-40.057,-26.862
42404590,-0.549,-0.025,0.961,49.455,-53.48,-21.735
42404600,-0.486,-0.03,0.963,49.595,-72.047,-21.192
42404610,-0.467,0.003,0.972,50.645,-91.595,-22.19
42404620,-0.292,0.017,0.913,48.177,-107.642,-32.13
42404630,-0.249,0.056,0.921,44.94,-112.682,-28.875
42404640,-0.134,0.104,0.899,40.057,-101.115,-23.73
42404650,-0.156,0.117,0.882,28.332,-77.42,-17.902
42404660,-0.156,0.114,0.858,12.547,-53.637,-14.245
42404670,-0.144,0.09,0.851,-1.925,-28.56,-15.575
42404680,-0.149,0.08,0.846,-13.807,-3.692,-13.632
42404690,-0.217,0.023,0.856,-22.312,19.845,-12.582
42404700,-0.273,-0.002,0.857,-27.632,37.905,-14.332
42404710,-0.321,-0.016,0.866,-31.08,51.292,-15.872
42404720,-0.378,-0.032,0.875,-32.62,60.445,-16.397
42404730,-0.434,-0.025,0.92,-33.915,66.762,-16.73
42404740,-0.394,0.03,0.882,-38.202,74.55,-17.237
42404750,-0.378,0.005,0.787,-58.957,98.612,-16.082
42404760,-0.793,-0.151,0.825,-68.897,118.877,0.157
42404770,-0.716,-0.246,0.859,-51.397,103.775,2.362
42404780,-0.771,-0.167,0.908,-34.23,69.107,3.045
42404790,-0.728,-0.1,0.929,-18.777,29.505,10.482
42404800,-0.632,-0.098,0.938,-7.577,0.297,13.247
42404810,-0.543,-0.026,0.935,-1.347,-19.25,10.465
42404820,-0.431,0.007,0.895,-4.06,-26.6,7.787
42404830,-0.398,0.023,0.877,-12.495,-21.21,10.202
42404830,-0.321,0.038,0.861,-23.537,-5.757,12.355
42404840,-0.37,0.005,0.88,-33.547,13.23,20.107
42404850,-0.395,-0.015,0.881,-42.822,27.597,22.785
42404860,-0.518,-0.03,0.927,-44.94,30.94,20.527
42404870,-0.551,-0.126,0.932,-39.62,16.415,14.665
42404880,-0.474,-0.064,0.903,-27.807,-1.452,5.32
42404890,-0.391,-0.033,0.895,-16.625,-10.027,0.647
42404900,-0.299,-0.043,0.848,-11.707,-5.74,-3.325
42404910,-0.298,-0.051,0.845,-9.397,10.902,-5.897
42404920,-0.456,-0.068,0.856,-7.63,27.807,-6.352
42404930,-0.51,-0.07,0.86,-6.457,32.042,-9.327
42404940,-0.544,-0.106,0.837,-4.375,28.315,-7.42
42404950,-0.579,-0.107,0.834,-0.385,23.992,-6.58
42404960,-0.606,-0.122,0.831,5.022,18.095,-6.352
42404970,-0.644,-0.113,0.824,12.04,9.31,-5.6
42404980,-0.645,-0.095,0.824,17.57,-2.31,-4.742
42404990,-0.618,-0.095,0.833,22.155,-13.072,0.192
42405000,-0.581,-0.055,0.856,26.005,-21.262,4.427
42405010,-0.477,-0.025,0.853,24.675,-22.12,6.65
42405020,-0.474,-0.038,0.865,17.71,-12.722,10.307
42405030,-0.515,-0.029,0.872,9.677,-3.78,9.73
42405040,-0.522,-0.072,0.855,3.185,-0.035,8.522
42405050,-0.523,-0.073,0.859,3.605,1.015,7.577
42405060,-0.514,-0.065,0.865,6.107,0.612,7.315
42405070,-0.512,-0.066,0.865,7.892,-0.245,7.63
42405080,-0.472,-0.057,0.872,9.572,0.525,7.892
42405090,-0.513,-0.045,0.883,9.432,4.2,7.77
42405100,-0.541,-0.037,0.892,6.737,4.637,5.967
42405110,-0.566,-0.025,0.894,4.042,-1.662,5.652
42405120,-0.562,-0.035,0.884,2.205,-11.182,6.352
42405130,-0.569,-0.047,0.882,3.395,-21.507,6.247
42405140,-0.552,-0.076,0.857,7.35,-30.047,4.532
42405150,-0.545,-0.087,0.826,13.51,-34.632,1.26
42405160,-0.566,-0.063,0.83,21.245,-38.412,-3.237
42405170,-0.563,-0.048,0.824,28.105,-45.78,-7.717
42405170,-0.525,-0.018,0.815,32.777,-53.427,-10.202
42405190,-0.498,-0.024,0.813,34.387,-56.315,-10.29
42405190,-0.475,-0.015,0.851,36.242,-54.775,-8.4
42405210,-0.535,0.011,0.852,36.365,-54.582,-7.525
42405210,-0.453,-0.001,0.852,34.37,-54.04,-6.737
42405230,-0.457,-0.02,0.867,33.495,-49.035,-6.282
42405230,-0.439,0.057,0.87,32.69,-44.17,-9.677
42405250,-0.478,0.05,0.875,26.512,-41.895,-9.537
42405250,-0.405,0.013,0.895,21.612,-39.795,-4.777
42405260,-0.353,0.034,0.916,19.6,-33.197,-7.122
42405270,-0.414,-0.002,0.983,22.33,-29.312,-3.85
42405280,-0.281,0.01,0.971,25.76,-25.865,-2.152
42405290,-0.409,0.045,0.996,23.117,-18.095,4.357
42405300,-0.415,0.054,0.982,18.095,-18.935,9.31
42405310,-0.416,0.121,0.897,8.82,-24.832,11.2
42405320,-0.415,0.104,0.876,-7.42,-28.875,13.562
42405330,-0.454,-0.073,0.904,-9.152,-37.52,15.907
42405340,-0.359,-0.072,0.867,3.675,-41.667,12.652
42405350,-0.431,-0.013,0.887,12.092,-38.167,9.677
42405360,-0.41,0.032,0.952,13.422,-44.642,5.162
42405370,-0.377,-0.003,0.947,16.8,-52.167,3.115
42405380,-0.324,0.032,0.988,21.805,-53.725,7
42405390,-0.287,0.04,1,21.7,-48.93,13.387
42405400,-0.27,0.038,1.003,19.302,-34.58,18.882
42405410,-0.336,-0.006,1.001,14.805,-17.657,25.48
42405420,-0.404,0.004,1.043,11.83,-6.212,26.88
42405430,-0.426,-0.029,1.038,8.995,-6.422,22.54
42405440,-0.45,-0.035,1.056,10.01,-15.4,19.617
42405450,-0.472,-0.029,1.092,12.32,-32.69,16.327
42405460,-0.4,-0.013,1.121,15.907,-56.577,14.857
42405470,-0.299,0.026,1.125,19.46,-75.372,14.07
42405480,-0.169,0.078,1.092,18.392,-79.607,12.18
42405490,-0.075,0.086,1.05,12.337,-69.597,9.45
42405500,-0.05,0.077,1.012,6.195,-52.237,7.682
42405510,-0.019,0.078,0.973,2.607,-32.077,7.385
42405520,-0.032,0.1,0.944,1.47,-11.515,9.065
42405530,-0.052,0.124,0.919,0.07,7.385,12.145
42405530,-0.095,0.157,0.896,-2.957,23.38,15.522
42405550,-0.173,0.19,0.877,-8.487,34.352,18.602
42405550,-0.251,0.193,0.865,-17.29,38.255,20.352
42405570,-0.32,0.168,0.843,-26.652,35.157,20.58
42405570,-0.378,0.142,0.841,-34.615,26.95,17.902
42405580,-0.391,0.113,0.831,-41.002,16.03,11.112
42405590,-0.395,0.081,0.821,-43.767,3.955,4.795
42405600,-0.4,0.068,0.822,-43.085,-8.347,0.227
42405610,-0.383,0.052,0.811,-41.58,-19.04,-1.837
42405620,-0.331,0.039,0.793,-38.64,-24.29,-2.205
42405630,-0.263,0.014,0.78,-33.88,-20.545,0.665
42405640,-0.235,0,0.78,-26.302,-7.297,4.69
42405650,-0.238,0.001,0.794,-18.515,12.932,9.59
42405660,-0.297,-0.003,0.826,-12.6,35.455,13.912
42405670,-0.382,-0.002,0.854,-8.505,53.077,15.96
42405680,-0.473,0.001,0.88,-6.44,61.092,17.745
42405690,-0.55,-0.006,0.898,-6.09,57.645,19.477
42405700,-0.603,-0.019,0.913,-5.477,44.712,20.177
42405710,-0.622,-0.045,0.922,-3.552,25.672,20.842
42405720,-0.603,-0.055,0.93,0.91,3.587,21.98
42405730,-0.566,-0.045,0.937,5.6,-16.747,21.595
42405740,-0.521,-0.048,0.942,9.555,-33.95,19.687
42405750,-0.466,-0.036,0.956,14.157,-48.615,16.327
42405760,-0.419,-0.024,0.961,18.742,-60.602,13.51
42405770,-0.365,-0.022,0.973,23.817,-71.662,12.215
42405780,-0.307,0.011,0.993,28.787,-82.285,11.147
42405790,-0.244,0.05,1.017,29.522,-91.612,10.465
42405800,-0.149,0.08,1.022,25.077,-96.442,10.395
42405810,-0.096,0.101,1.031,17.325,-94.132,10.255
42405820,-0.024,0.108,1.014,7.42,-84.875,9.572
42405830,0,0.142,0.992,-4.147,-68.425,6.632
42405840,-0.009,0.16,0.973,-20.072,-49.962,2.45
42405850,-0.026,0.132,0.949,-36.19,-34.545,-2.152
42405860,-0.058,0.103,0.918,-47.407,-24.255,-6.51
42405870,-0.106,0.06,0.89,-52.657,-20.825,-9.887
42405880,-0.167,0.002,0.865,-49.735,-25.007,-13.107
42405890,-0.121,-0.056,0.87,-38.99,-34.335,-15.137
42405900,-0.067,-0.097,0.922,-19.95,-38.745,-14.892
42405910,-0.081,-0.038,0.99,1.89,-34.055,-12.6
42405920,-0.104,0.009,1.057,14.945,-28.385,-11.935
42405920,-0.114,0.033,1.084,18.935,-22.977,-7.157
42405940,-0.138,0.093,1.1,14.42,-15.557,-3.99
42405940,-0.018,0.054,1.1,2.537,-4.707,0.455
42405960,-0.188,0.032,1.115,-8.155,16.537,6.125
42405960,-0.201,0.014,1.076,-15.155,31.622,2.485
42405980,-0.328,-0.055,1.057,-17.622,38.867,2.38
42405980,-0.407,-0.029,1.033,-14,34.195,1.662
42406000,-0.408,-0.041,0.989,-10.115,20.37,0.052
42406000,-0.355,-0.029,0.958,-5.04,5.705,-1.365
42406010,-0.3,0.012,0.93,-1.82,-5.285,-0.892
42406020,-0.218,0.026,0.917,-2.345,-9.292,2.362
42406030,-0.177,0.04,0.904,-4.69,-5.442,5.652
42406040,-0.156,0.035,0.903,-8.68,5.145,7.472
42406050,-0.164,0.022,0.922,-12.67,14.175,7.262
42406060,-0.165,0.013,0.954,-15.155,18.252,8.155
42406070,-0.153,-0.014,0.98,-16.887,19.81,8.435
42406080,-0.178,-0.036,1.028,-16.45,21.507,6.457
42406090,-0.213,-0.047,1.089,-14.227,19.635,3.885
42406100,-0.205,-0.043,1.107,-13.702,13.055,0.297
42406110,-0.162,-0.055,1.095,-13.51,5.25,-1.662
42406120,-0.125,-0.066,1.044,-14.612,1.382,-2.537
42406130,-0.134,-0.08,1.005,-15.487,0.682,-4.095
42406140,-0.105,-0.062,0.973,-13.982,0.49,-7.157
42406150,-0.063,-0.061,0.919,-12.127,3.15,-10.132
42406160,-0.076,-0.067,0.87,-10.29,10.727,-11.515
42406170,-0.093,-0.069,0.85,-6.527,18.585,-10.167
42406180,-0.102,-0.056,0.845,-3.412,26.582,-7.07
42406190,-0.144,-0.061,0.859,-4.13,35.805,-3.745
42406200,-0.196,-0.064,0.9,-6.09,43.54,-0.647
42406210,-0.278,-0.097,0.947,-8.102,47.442,2.082
42406220,-0.341,-0.104,0.996,-8.417,46.865,3.727
42406230,-0.383,-0.085,1.042,-9.1,42.105,4.935
42406240,-0.437,-0.098,1.045,-11.392,36.172,5.932
42406250,-0.493,-0.089,1.026,-13.002,27.335,6.422
42406260,-0.55,-0.097,0.99,-13.51,14.647,7.525
42406260,-0.592,-0.109,0.967,-11.532,-1.645,9.852
42406280,-0.563,-0.048,0.964,-7.07,-19.582,13.265
42406280,-0.515,-0.023,0.964,-5.827,-32.095,15.207
42406300,-0.446,-0.005,0.97,-5.792,-40.092,15.277
42406300,-0.39,-0.006,0.986,-5.845,-44.922,13.317
42406320,-0.282,0.029,0.996,-5.915,-50.242,11.392
42406320,-0.196,0.029,0.979,-7.927,-52.255,10.867
42406330,-0.174,0.012,0.94,-10.237,-51.24,10.727
42406340,-0.131,0,0.925,-11.62,-51.03,10.675
42406350,-0.084,0.016,0.934,-13.755,-48.177,11.97
42406360,0.002,0.026,0.952,-18.637,-39.83,14.122
42406370,0.047,-0.016,0.971,-25.042,-25.462,14.892
42406380,-0.002,-0.081,0.976,-28.525,-12.512,14.875
42406390,-0.019,-0.11,0.992,-29.137,-5.775,12.932
42406400,-0.056,-0.136,0.993,-29.435,-0.262,11.147
42406410,-0.149,-0.183,0.96,-28.717,5.635,12.32
42406420,-0.29,-0.186,0.922,-25.357,8.627,17.097
42406430,-0.343,-0.159,0.91,-23.327,6.107,22.872
42406440,-0.379,-0.167,0.926,-21.35,2.31,30.502
42406450,-0.367,-0.136,0.955,-18.392,-3.185,38.185
42406460,-0.262,-0.117,0.963,-20.072,-5.652,44.765
42406470,-0.298,-0.184,0.943,-21.63,-5.092,46.952
42406480,-0.197,-0.123,0.98,-18.76,-6.895,37.117
42406490,-0.159,-0.139,0.959,-19.25,-6.387,28.77
42406500,-0.174,-0.14,0.963,-18.287,-6.562,23.345
42406510,-0.146,-0.095,0.957,-14.525,-9.135,19.617
42406520,-0.193,-0.123,0.97,-10.71,-9.012,15.942
42406530,-0.181,-0.05,1.009,-3.587,-11.095,13.055
42406540,-0.17,-0.035,1.008,-0.98,-10.465,11.585
42406550,-0.249,-0.022,0.994,0.997,-8.137,10.43
42406560,-0.254,0.007,1.017,1.505,-9.432,8.872
42406570,-0.372,-0.038,1.027,-1.855,-9.502,8.365
42406580,-0.424,-0.05,1.025,-3.692,-14.21,8.54
42406590,-0.385,-0.084,0.974,-4.41,-20.23,8.697
42406600,-0.305,-0.107,0.913,-4.515,-22.75,11.06
42406610,-0.234,-0.158,0.858,-4.41,-19.53,12.512
42406620,-0.179,-0.226,0.783,-0.245,-15.242,10.885
42406630,-0.081,-0.176,0.802,7.297,-9.59,7.822
42406640,-0.081,-0.225,0.853,10.115,-0.455,7.577
42406650,-0.75,0.116,0.542,14.665,1.715,4.532
42406660,0.807,-0.173,0.426,-31.78,-70.367,0.157
42406670,-0.014,-1.021,1.062,16.205,53.095,32.06
42406670,-0.922,0.108,1.481,48.912,55.86,19.827
42406690,-0.017,-0.435,1.289,31.535,-12.215,30.415
42406690,-0.269,-0.164,1.133,28.105,-19.495,15.68
42406710,-0.024,-0.195,0.976,31.762,-32.06,16.485
42406710,-0.122,0.006,0.807,38.447,-29.697,17.01
42406730,0.088,-0.011,0.816,39.252,-20.772,17.657
42406730,0.009,0.043,0.925,40.162,3.605,15.137
42406750,0,0.083,1.004,35.052,18.585,10.115
42406750,-0.004,0.055,1.084,23.765,32.55,5.302
42406760,-0.177,0.055,1.105,13.16,47.04,1.75
42406770,-0.254,0.053,1.056,3.307,49.42,-3.972
42406780,-0.315,0.054,1.035,-5.022,52.185,-11.935
42406790,-0.48,0.056,1.029,-10.587,51.275,-15.645
42406800,-0.513,0.05,1.025,-12.95,39.252,-15.767
42406810,-0.504,0.036,1.008,-14.245,26.845,-14.595
42406820,-0.472,-0.002,0.995,-14.245,17.08,-14.367
42406830,-0.422,-0.017,1.016,-10.552,6.93,-14.367
42406840,-0.305,-0.045,1,-10.622,-3.36,-11.585
42406850,-0.234,-0.108,0.984,-11.637,-6.142,-9.747
42406860,-0.196,-0.112,0.979,-11.987,-6.387,-8.19
42406870,-0.13,-0.118,0.967,-13.212,-7.14,-5.617
42406880,-0.072,-0.095,0.977,-14.367,-2.782,-5.18
42406890,-0.093,-0.091,0.959,-16.782,5.39,-6.23
42406900,-0.139,-0.086,0.943,-18.83,12.862,-7.402
42406910,-0.241,-0.105,0.955,-20.037,17.727,-7.157
42406920,-0.334,-0.104,0.998,-19.932,16.397,-5.425
42406930,-0.405,-0.107,1.044,-19.635,9.887,-3.237
42406940,-0.446,-0.086,1.083,-19.285,0.28,-1.767
42406950,-0.47,-0.063,1.097,-19.81,-12.477,-0.455
42406960,-0.386,-0.037,1.103,-21.735,-27.002,0.84
42406970,-0.317,-0.021,1.13,-26.285,-35.752,0.77
42406980,-0.268,-0.064,1.086,-33.215,-40.845,-1.277
42406990,-0.163,-0.098,0.921,-36.155,-42.682,-3.64
42407000,-0.072,-0.079,0.762,-31.29,-34.807,-1.487
42407010,-0.017,-0.088,0.677,-23.87,-12.022,2.572
42407010,-0.042,-0.117,0.709,-16.835,16.835,4.795
42407030,-0.144,-0.154,0.815,-12.53,34.457,4.532
42407030,-0.195,-0.184,0.88,-10.307,39.987,4.165
42407050,-0.498,-0.318,0.872,-5.127,39.882,8.732
42407050,-0.152,-0.287,1.01,10.78,28.927,8.382
42407070,-0.058,-0.347,1.159,22.277,44.59,6.772
42407070,-0.299,-0.275,1.222,29.067,65.607,8.365
42407080,-0.476,-0.225,1.263,32.357,72.257,13.037
42407090,-0.427,-0.25,1.218,30.432,69.86,11.55
42407100,-0.275,-0.24,1.12,34.737,80.517,8.365
42407110,-0.348,-0.162,1.069,36.995,97.422,9.222
42407120,-0.405,-0.063,1.056,31.167,105.665,7.927
42407130,-0.426,-0.015,1.025,19.88,103.705,7.017
42407140,-0.391,0.034,0.976,11.585,97.545,6.79
42407150,-0.407,0.029,0.938,9.222,88.637,7.42
42407160,-0.431,0.012,0.901,14.437,79.257,5.985
42407170,-0.49,0.001,0.888,29.505,70.105,1.522
42407180,-0.506,0.043,0.872,51.117,56.91,-6.282
42407190,-0.562,0.073,0.849,71.505,40.565,-11.602
42407200,-0.628,0.126,0.842,87.412,23.362,-17.727
42407210,-0.711,0.183,0.841,98.157,5.162,-27.125
42407220,-0.734,0.201,0.808,106.837,-18.935,-38.482
42407230,-0.734,0.225,0.757,113.452,-44.835,-44.292
42407240,-0.738,0.3,0.728,114.73,-70.315,-43.61
42407250,-0.718,0.369,0.707,104.352,-94.972,-40.355
42407260,-0.662,0.378,0.678,81.795,-121.327,-37.415
42407270,-0.579,0.382,0.673,54.302,-145.04,-32.462
42407280,-0.459,0.406,0.668,27.142,-161.98,-23.922
42407290,-0.328,0.403,0.675,-0.07,-166.285,-12.075
42407300,-0.225,0.354,0.669,-27.265,-160.93,0.735
42407310,-0.198,0.274,0.665,-50.522,-150.692,11.025
42407320,-0.217,0.157,0.69,-64.452,-138.862,21.945
42407330,-0.173,0.124,0.724,-72.957,-128.677,27.895
42407340,-0.2,0.113,0.776,-82.425,-119.28,30.747
42407350,-0.214,0.043,0.811,-95.48,-116.497,32.655
42407360,-0.223,-0.051,0.826,-104.16,-122.675,33.18
42407370,-0.183,-0.029,0.85,-112.192,-133.49,34.58
42407380,-0.141,-0.012,0.921,-125.615,-144.532,40.127
42407390,-0.148,-0.066,0.9,-148.627,-156.817,44.852
42407400,-0.011,-0.318,0.809,-157.587,-163.607,45.675
42407410,0.074,-0.384,0.86,-137.777,-161.962,45.115
42407420,0.085,-0.297,0.89,-119.455,-161.14,54.232
42407420,0.214,-0.376,0.864,-108.167,-155.382,60.357
42407440,0.302,-0.443,0.856,-96.722,-140.42,62.86
42407440,0.258,-0.404,0.897,-86.467,-120.697,64.557
42407460,0.234,-0.391,0.928,-81.725,-102.795,62.772
42407460,0.218,-0.438,0.928,-80.99,-90.352,60.987
42407480,0.128,-0.445,0.931,-81.252,-82.022,64.435
42407480,0.023,-0.463,0.933,-83.755,-79.397,69.755
42407500,0.028,-0.487,0.885,-88.375,-81.9,68.827
42407500,0.04,-0.494,0.841,-93.222,-82.845,68.355
42407510,0.012,-0.522,0.804,-95.077,-82.687,59.78
42407520,0.003,-0.571,0.784,-87.955,-88.182,46.41
42407530,0.034,-0.554,0.804,-75.267,-100.572,35.665
42407540,0.131,-0.541,0.81,-62.265,-111.877,29.785
42407550,0.246,-0.506,0.785,-53.882,-112.367,29.96
42407560,0.288,-0.539,0.784,-52.15,-101.342,32.532
42407570,0.346,-0.588,0.801,-50.732,-87.22,35.472
42407580,0.436,-0.625,0.828,-44.17,-69.335,34.597
42407590,0.515,-0.733,0.924,-31.412,-44.152,36.68
42407600,0.468,-0.787,1.064,-3.115,-13.755,38.132
42407610,0.306,-0.636,1.126,19.775,4.795,37.537
42407620,0.292,-0.718,1.106,26.355,9.45,34.177
42407630,0.2,-0.696,1.127,39.41,9.205,36.96
42407640,0.163,-0.553,1.055,49.735,3.955,30.1
42407650,0.177,-0.58,0.985,48.79,-3.325,22.33
42407660,0.226,-0.622,0.912,52.587,-3.08,19.53
42407670,0.274,-0.509,0.924,56.297,1.995,12.757
42407680,0.296,-0.531,0.894,57.085,12.425,5.687
42407690,0.222,-0.52,0.887,59.36,23.975,5.512
42407700,0.2,-0.507,0.941,64.61,30.59,4.375
42407710,0.175,-0.477,0.969,68.372,33.81,1.067
42407720,0.155,-0.48,0.984,65.625,29.89,-3.937
42407730,0.157,-0.464,1.004,60.042,23.397,-9.152
42407740,0.125,-0.499,1.041,55.16,15.12,-14.612
42407750,0.181,-0.493,1.042,52.587,5.845,-23.187
42407760,0.203,-0.484,1.041,48.037,3.692,-28.962
42407760,0.206,-0.498,1.028,42.595,3.64,-33.18
42407780,0.255,-0.499,1.007,38.377,7.157,-36.26
42407780,0.26,-0.519,0.979,34.457,16.642,-36.417
42407800,0.292,-0.539,0.956,35.262,28.665,-36.855
42407800,0.317,-0.53,0.925,40.092,44.117,-34.912
42407820,0.332,-0.504,0.913,47.022,62.405,-31.325
42407820,0.31,-0.483,0.91,54.022,81.287,-26.757
42407830,0.237,-0.453,0.927,60.69,97.405,-22.015
42407840,0.167,-0.393,0.952,67.025,107.38,-19.687
42407850,0.088,-0.371,0.973,65.607,111.702,-21.28
42407860,-0.115,-0.379,0.987,64.032,99.19,-26.792
42407870,0.066,-0.302,0.957,57.085,83.37,-28.122
42407880,-0.067,-0.335,0.936,40.775,77.822,-32.672
42407890,-0.111,-0.36,0.929,38.78,75.32,-38.447
42407900,-0.068,-0.314,0.903,42.577,71.837,-43.277
42407910,-0.085,-0.261,0.88,42.84,67.952,-47.547
42407920,-0.043,-0.214,0.869,37.59,69.352,-47.74
42407930,0.006,-0.183,0.861,29.785,78.365,-46.27
42407940,0.028,-0.157,0.839,21.472,93.922,-45.745
42407950,0.032,-0.122,0.822,12.337,112.84,-42.997
42407960,0.02,-0.073,0.79,2.065,133.192,-39.2
42407970,-0.039,-0.035,0.783,-9.275,151.725,-37.38
42407980,-0.13,-0.017,0.78,-21.612,164.482,-38.377
42407990,-0.234,-0.007,0.779,-33.775,166.617,-41.702
42408000,-0.371,0.013,0.795,-46.987,152.687,-42.455
42408010,-0.355,-0.023,0.785,-56.56,126.56,-41.807
42408020,-0.271,-0.023,0.773,-58.187,105,-41.65
42408030,-0.248,-0.031,0.77,-58.537,90.44,-40.652
42408040,-0.252,-0.039,0.781,-55.947,82.232,-39.06
42408050,-0.258,-0.077,0.778,-51.205,79.677,-41.055
42408060,-0.254,-0.091,0.786,-44.52,83.527,-49
42408070,-0.283,-0.106,0.815,-35.822,89.582,-56.017
42408080,-0.364,-0.114,0.853,-27.195,91.245,-58.292
42408090,-0.368,-0.141,0.844,-21.122,90.23,-61.74
42408100,-0.416,-0.157,0.871,-15.732,90.965,-66.482
42408110,-0.447,-0.159,0.881,-13.755,90.807,-72.345
42408120,-0.497,-0.171,0.874,-12.81,86.852,-76.002
42408130,-0.506,-0.166,0.889,-10.045,76.667,-75.215
42408140,-0.503,-0.199,0.841,-5.197,63.647,-68.95
42408150,-0.238,-0.198,0.831,9.135,59.307,-58.887
42408160,-0.406,-0.168,0.806,15.925,72.012,-43.155
42408170,-0.435,-0.152,0.87,15.592,72.24,-26.565
42408170,-0.341,-0.153,0.862,21.507,85.645,-23.117
42408190,-0.493,-0.193,0.88,24.08,100.065,-26.792
42408190,-0.535,-0.147,0.908,25.55,98.192,-31.08
42408210,-0.545,-0.15,0.919,27.037,85.05,-29.505
42408210,-0.535,-0.16,0.91,28.472,66.675,-26.022
42408230,-0.495,-0.151,0.898,31.307,50.19,-22.575
42408230,-0.463,-0.152,0.895,33.74,38.78,-21.595
42408250,-0.475,-0.14,0.901,35.49,27.65,-20.93
42408250,-0.462,-0.156,0.889,35.455,17.85,-20.16
42408260,-0.397,-0.163,0.905,36.137,14.245,-21.175
42408270,-0.351,-0.125,0.917,35.665,16.117,-21.63
42408280,-0.348,-0.151,0.922,29.855,26.495,-20.44
42408290,-0.455,-0.134,0.937,18.147,35.245,-17.64
42408300,-0.468,-0.177,0.925,2.852,39.095,-12.757
42408310,-0.55,-0.25,0.899,-10.517,44.765,-7.84
42408320,-0.491,-0.093,0.865,-22.487,51.03,0.542
42408330,-0.617,-0.243,0.822,-41.265,55.475,4.9
42408340,-0.659,-0.298,0.816,-42.63,50.942,15.557
42408350,-0.731,-0.358,0.82,-33.425,40.39,27.387
42408360,-0.596,-0.366,0.803,-21.822,32.97,24.797
42408370,-0.61,-0.308,0.816,-8.54,33.337,18.707
42408380,-0.594,-0.306,0.817,0.892,32.655,14.875
42408390,-0.569,-0.307,0.818,6.09,33.565,9.31
42408400,-0.588,-0.287,0.834,11.147,33.705,6.002
42408410,-0.568,-0.269,0.829,15.4,32.182,4.007
42408420,-0.564,-0.247,0.825,17.062,31.132,3.325
42408430,-0.554,-0.217,0.815,16.467,29.592,4.025
42408440,-0.56,-0.215,0.794,12.74,28.49,4.777
42408450,-0.546,-0.208,0.785,8.575,27.772,4.042
42408460,-0.568,-0.208,0.797,5.547,25.27,1.347
42408470,-0.536,-0.231,0.774,4.357,21.735,-4.112
42408480,-0.488,-0.232,0.741,4.287,20.877,-10.64
42408490,-0.49,-0.234,0.74,5.827,22.995,-15.435
42408500,-0.498,-0.246,0.715,6.247,25.917,-18.725
42408510,-0.526,-0.238,0.73,7.035,28.945,-19.092
42408510,-0.566,-0.244,0.74,5.88,27.65,-18.97
42408530,-0.59,-0.25,0.745,5.827,22.925,-18.83
42408530,-0.639,-0.26,0.763,7.717,15.12,-20.37
42408550,-0.667,-0.301,0.757,9.047,1.435,-23.362
42408550,-0.726,-0.313,0.759,13.212,-17.605,-29.277
42408570,-0.731,-0.28,0.778,17.325,-42.367,-33.757
42408570,-0.636,-0.274,0.769,15.785,-68.757,-32.41
42408580,-0.41,-0.271,0.746,11.707,-77,-27.265
42408590,-0.404,-0.246,0.761,4.917,-60.532,-21.91
42408600,-0.328,-0.22,0.744,-5.582,-37.257,-15.592
42408610,-0.393,-0.25,0.795,-13.51,-6.335,-1.487
42408620,-0.518,-0.272,0.823,-22.557,18.252,8.155
42408630,-0.611,-0.304,0.848,-30.607,26.967,12.827
42408640,-0.686,-0.359,0.856,-34.02,24.465,15.33
42408650,-0.677,-0.373,0.879,-30.345,14.56,12.39
42408660,-0.584,-0.385,0.878,-23.45,6.055,12.617
42408670,-0.552,-0.409,0.889,-13.3,6.44,13.65
42408680,-0.575,-0.352,0.889,-2.082,11.217,13.125
42408690,-0.64,-0.34,0.883,4.76,10.36,11.55
42408700,-0.612,-0.307,0.86,9.572,3.377,7.945
42408710,-0.565,-0.286,0.835,11.287,-4.007,6.527
42408720,-0.529,-0.247,0.803,9.31,-7.647,6.79
42408730,-0.52,-0.243,0.78,3.797,-6.842,7.77
42408740,-0.496,-0.249,0.766,-1.907,-3.36,10.045
42408750,-0.54,-0.263,0.757,-6.79,0.472,12.425
42408760,-0.554,-0.283,0.743,-9.607,2.45,13.615
42408770,-0.549,-0.288,0.725,-11.34,4.41,12.722
42408780,-0.58,-0.274,0.721,-12.407,7.105,13.317
42408790,-0.6,-0.303,0.711,-13.405,9.24,13.702
42408800,-0.618,-0.317,0.704,-12.232,10.57,13.072
42408810,-0.603,-0.289,0.712,-9.817,11.112,13.527
42408820,-0.62,-0.297,0.716,-9.747,13.195,16.747
42408830,-0.618,-0.3,0.723,-9.747,16.397,18.917
42408840,-0.641,-0.286,0.728,-10.377,18.322,18.165
42408850,-0.67,-0.291,0.736,-12.04,17.972,17.272
42408860,-0.671,-0.293,0.735,-12.652,14.892,14.35
42408870,-0.66,-0.284,0.742,-11.182,10.535,11.41
42408880,-0.657,-0.295,0.741,-8.82,5.302,9.082
42408890,-0.65,-0.293,0.749,-5.46,-0.77,6.02
42408900,-0.634,-0.276,0.751,-1.82,-7.612,4.585
42408910,-0.602,-0.264,0.771,0.77,-12.827,5.145
42408920,-0.566,-0.264,0.773,0.105,-13.877,6.405
42408920,-0.56,-0.255,0.78,-1.785,-9.135,8.435
42408940,-0.598,-0.251,0.792,-4.55,-2.992,10.832
42408940,-0.607,-0.27,0.77,-7.892,1.995,12.74
42408950,-0.66,-0.272,0.775,-8.785,6.107,14.297
42408960,-0.702,-0.306,0.76,-8.942,6.65,15.312
42408970,-0.751,-0.332,0.748,-6.685,1.785,16.8
42408980,-0.772,-0.34,0.728,-0.857,-8.382,19.215
42408990,-0.758,-0.329,0.728,6.667,-20.037,21.577
42409000,-0.734,-0.306,0.726,11.007,-29.82,20.965
42409010,-0.699,-0.291,0.752,13.195,-35.262,18.9
42409020,-0.617,-0.254,0.767,13.072,-35.455,15.732
42409030,-0.591,-0.25,0.776,10.955,-31.115,14.455
42409040,-0.589,-0.243,0.779,8.802,-26.04,14.437
42409050,-0.576,-0.251,0.774,7.49,-22.12,14.63
42409060,-0.548,-0.238,0.775,7.175,-19.372,15.19
42409070,-0.56,-0.234,0.782,7.175,-18.252,14.84
42409080,-0.564,-0.245,0.773,8.4,-19.267,13.037
42409090,-0.553,-0.255,0.774,12.897,-21.577,12.687
42409100,-0.545,-0.27,0.772,18.917,-22.225,11.55
42409110,-0.543,-0.27,0.778,25.707,-20.125,9.887
42409120,-0.536,-0.254,0.801,31.64,-17.36,10.01
42409130,-0.518,-0.234,0.814,33.442,-12.495,10.185
42409140,-0.551,-0.235,0.84,32.165,-4.147,9.992
42409150,-0.575,-0.234,0.853,29.942,3.36,8.872
42409160,-0.574,-0.198,0.874,25.357,9.467,7.367
42409170,-0.537,-0.194,0.869,16.887,15.19,6.597
42409180,-0.47,-0.213,0.846,9.59,25.567,8.767
42409190,-0.479,-0.205,0.829,5.827,44.31,12.162
42409200,-0.564,-0.208,0.819,2.87,61.46,12.985
42409210,-0.652,-0.217,0.812,2.152,68.967,13.195
42409220,-0.719,-0.214,0.804,3.202,65.695,13.265
42409230,-0.735,-0.193,0.788,4.97,54.232,11.847
42409240,-0.726,-0.188,0.764,5.302,39.83,8.977
42409250,-0.698,-0.169,0.746,3.832,26.425,5.722
42409260,-0.672,-0.16,0.73,0.927,15.592,3.43
42409260,-0.66,-0.153,0.713,-2.905,7.525,1.82
42409280,-0.668,-0.153,0.701,-6.387,0.262,0.542
42409280,-0.676,-0.16,0.693,-8.872,-8.767,-1.487
42409300,-0.686,-0.175,0.686,-9.345,-20.597,-3.972
42409300,-0.691,-0.188,0.682,-6.982,-34.702,-7.77
42409320,-0.67,-0.187,0.688,-3.657,-49.437,-14.122
42409320,-0.6,-0.176,0.686,-1.032,-61.845,-20.02
42409330,-0.51,-0.159,0.69,0.402,-67.462,-22.872
42409340,-0.457,-0.156,0.689,-0.805,-63.84,-23.17
42409350,-0.442,-0.167,0.69,-3.657,-52.885,-22.137
42409360,-0.47,-0.184,0.698,-6.422,-39.69,-20.23
42409370,-0.528,-0.198,0.718,-7.595,-29.645,-18.515
42409380,-0.558,-0.209,0.736,-7.42,-25.13,-17.465
42409390,-0.595,-0.222,0.761,-5.547,-26.057,-16.992
42409400,-0.602,-0.232,0.78,-2.642,-31.36,-18.06
42409410,-0.554,-0.242,0.795,0.315,-38.325,-19.18
42409420,-0.572,-0.213,0.837,2.712,-42.577,-20.37
42409430,-0.356,-0.244,0.813,3.01,-41.562,-18.48
42409440,-0.344,-0.237,0.845,4.515,-20.947,-14.612
42409450,-0.355,-0.265,0.865,3.727,4.935,-9.677
42409460,-0.528,-0.269,0.902,8.26,29.785,-4.515
42409470,-0.626,-0.26,0.907,8.942,35.157,-2.24
42409480,-0.657,-0.26,0.891,8.54,27.317,-2.467
42409490,-0.606,-0.248,0.868,8.032,16.065,-4.357
42409500,-0.547,-0.246,0.828,7.665,9.257,-5.985
42409510,-0.539,-0.257,0.798,7.367,8.89,-7.245
42409520,-0.537,-0.23,0.787,7.385,11.462,-7.21
42409530,-0.566,-0.234,0.774,6.09,13.737,-6.212
42409540,-0.579,-0.232,0.76,4.13,14.297,-6.037
42409550,-0.594,-0.218,0.747,0.49,13.142,-5.11
42409560,-0.614,-0.228,0.739,-4.305,11.112,-4.165
42409570,-0.603,-0.227,0.731,-8.54,9.135,-4.042
42409580,-0.573,-0.236,0.741,-11.952,8.89,-2.87
42409590,-0.588,-0.272,0.74,-12.722,10.132,-0.875
42409600,-0.648,-0.267,0.766,-9.835,11.13,-0.315
42409610,-0.66,-0.268,0.779,-8.05,7.07,-1.557
42409620,-0.634,-0.261,0.795,-6.177,2.8,-2.677
42409620,-0.604,-0.244,0.812,-5.845,1.365,-2.082
42409640,-0.605,-0.238,0.82,-8.015,3.482,-1.137
42409640,-0.627,-0.219,0.823,-12.197,5.6,-0.945
42409660,-0.661,-0.231,0.823,-18.987,5.617,-0.682
42409660,-0.672,-0.243,0.813,-24.71,2.485,-1.575
42409670,-0.639,-0.244,0.803,-28.035,-1.61,-0.42
42409680,-0.677,-0.267,0.787,-29.82,-2.8,2.66
42409690,-0.696,-0.269,0.777,-28.595,-5.337,4.567
42409700,-0.666,-0.254,0.775,-27.72,-9.345,7.507
42409710,-0.661,-0.246,0.758,-27.597,-11.357,10.5
42409720,-0.681,-0.259,0.734,-26.722,-14.385,11.742
42409730,-0.644,-0.247,0.722,-23.082,-18.865,11.322
42409740,-0.622,-0.245,0.74,-18.812,-21.577,11.025
42409750,-0.637,-0.263,0.764,-14.262,-22.802,8.505
42409760,-0.646,-0.272,0.797,-7.262,-26.285,5.932
42409770,-0.611,-0.278,0.827,0.735,-31.482,5.407
42409780,-0.68,-0.294,0.843,9.485,-37.835,7.315
42409790,-0.658,-0.27,0.854,20.195,-51.695,10.99
42409800,-0.557,-0.239,0.875,25.777,-63.525,16.747
42409810,-0.458,-0.193,0.853,23.432,-65.065,22.365
42409820,-0.434,-0.157,0.828,12.197,-58.572,27.405
42409830,-0.447,-0.184,0.794,-3.045,-50.295,29.645
42409840,-0.388,-0.21,0.736,-14.892,-40.687,30.03
42409850,-0.438,-0.258,0.707,-21.35,-28.49,28.455
42409860,-0.454,-0.292,0.716,-19.32,-21.035,25.322
42409870,-0.454,-0.294,0.753,-11.935,-17.185,21.035
42409880,-0.469,-0.289,0.784,-3.307,-14.472,16.135
42409890,-0.473,-0.28,0.806,2.887,-13.772,12.88
42409900,-0.502,-0.291,0.837,6.597,-14.367,11.812
42409910,-0.492,-0.283,0.857,8.767,-15.977,12.005
42409920,-0.515,-0.264,0.871,8.872,-16.922,14.21
42409930,-0.505,-0.253,0.855,6.72,-17.15,14.892
42409940,-0.536,-0.259,0.838,4.672,-17.045,15.592
42409950,-0.588,-0.291,0.806,4.9,-19.092,15.277
42409960,-0.549,-0.265,0.8,8.61,-23.59,14.157
42409970,-0.593,-0.263,0.784,10.815,-25.952,14.455
42409980,-0.636,-0.269,0.792,13.37,-29.452,13.09
42409990,-0.562,-0.231,0.823,15.715,-35,11.655
42410000,-0.525,-0.211,0.839,12.862,-35.21,13.475
42410010,-0.539,-0.205,0.837,6.405,-32.637,16.38
42410010,-0.498,-0.206,0.852,-0.472,-30.992,17.552
42410030,-0.512,-0.234,0.865,-6.667,-27.825,16.222
42410030,-0.522,-0.246,0.888,-9.992,-27.23,14.245
42410050,-0.515,-0.263,0.885,-10.36,-30.047,14.577
42410050,-0.528,-0.258,0.892,-8.365,-33.442,16.345
42410070,-0.55,-0.268,0.88,-5.985,-38.5,16.52
42410070,-0.576,-0.287,0.87,-1.225,-46.725,16.1
42410080,-0.537,-0.251,0.898,4.305,-57.75,16.1
42410090,-0.529,-0.246,0.89,6.86,-65.992,16.66
42410100,-0.495,-0.229,0.887,9.257,-72.887,16.817
42410110,-0.396,-0.188,0.886,8.47,-75.442,18.147
42410120,-0.345,-0.155,0.869,2.572,-67.637,17.587
42410130,-0.346,-0.164,0.837,-6.212,-55.562,17.412
42410140,-0.366,-0.172,0.822,-14.017,-44.94,17.097
42410150,-0.366,-0.157,0.833,-20.002,-37.257,14.21
42410160,-0.333,-0.179,0.841,-26.11,-28.56,10.57
42410170,-0.462,-0.245,0.844,-28.087,-21.315,7.822
42410180,-0.506,-0.24,0.894,-20.79,-28.962,7.927
42410190,-0.376,-0.235,0.963,-14.122,-38.867,9.59
42410200,-0.487,-0.264,0.998,-12.022,-38.972,7.122
42410210,-0.499,-0.195,1.034,-9.625,-48.842,3.92
42410220,-0.382,-0.221,1.014,-12.897,-60.392,-0.297
42410230,-0.318,-0.193,0.994,-16.835,-63.472,-4.847
42410240,-0.309,-0.205,0.939,-20.93,-61.74,-7.157
42410250,-0.282,-0.199,0.909,-24.64,-59.692,-9.362
42410260,-0.189,-0.2,0.869,-28.735,-54.215,-7.927
42410270,-0.265,-0.211,0.831,-32.165,-39.97,-6.282
42410280,-0.266,-0.203,0.841,-33.88,-30.8,-6.877
42410290,-0.232,-0.23,0.846,-36.645,-21.525,-5.25
42410300,-0.364,-0.277,0.837,-37.065,-11.392,-3.045
42410310,-0.38,-0.286,0.882,-31.552,-13.405,-0.945
42410320,-0.344,-0.266,0.929,-27.527,-16.87,-1.557
42410330,-0.399,-0.285,0.938,-26.81,-18.707,-4.795
42410330,-0.414,-0.287,0.945,-23.992,-26.407,-8.645
42410350,-0.355,-0.281,0.948,-21.84,-36.487,-11.76
42410350,-0.396,-0.294,0.924,-20.317,-41.475,-13.457
42410370,-0.307,-0.283,0.895,-17.885,-45.727,-13.282
42410370,-0.312,-0.282,0.861,-15.592,-44.817,-10.727
42410390,-0.313,-0.274,0.857,-13.002,-44.31,-8.172
42410390,-0.233,-0.277,0.877,-11.847,-43.435,-4.252
42410410,-0.294,-0.296,0.9,-13.352,-38.5,-0.787
42410410,-0.268,-0.314,0.943,-14.525,-39.882,-0.735
42410420,-0.189,-0.317,0.965,-16.012,-43.365,-2.31
42410430,-0.183,-0.305,0.973,-18.847,-45.167,-6.002
42410440,-0.373,-0.256,0.826,-21.787,-49.577,-10.622
42410450,-0.032,-0.115,0.855,-36.452,-90.58,-20.667
42410460,0.544,-0.754,0.924,-36.925,-42.647,-15.54
42410470,-0.586,-0.251,1.036,-13.387,-6.37,-10.605
42410480,-0.141,-0.327,1.029,-14.472,-37.607,-6.055
42410490,0.025,-0.41,0.9,-22.085,-39.392,-11.602
42410500,-0.118,-0.41,0.828,-19.95,-26.267,-4.2
42410510,-0.146,-0.374,0.791,-12.67,-19.302,-0.857
42410520,-0.085,-0.366,0.768,-9.082,-14.752,0.962
42410530,-0.129,-0.421,0.755,-5.057,-6.09,5.897
42410540,-0.176,-0.415,0.78,2.887,-0.577,7.665
42410550,-0.174,-0.405,0.847,8.33,1.19,6.125
42410560,-0.184,-0.416,0.905,9.222,2.642,4.182
42410570,-0.231,-0.387,0.916,7.717,0.892,4.007
42410580,-0.204,-0.423,0.907,7.455,-4.392,1.732
42410590,-0.174,-0.409,0.896,12.092,-8.155,-0.105
42410600,-0.211,-0.373,0.875,17.027,-9.922,0.017
42410610,-0.187,-0.362,0.864,20.387,-11.462,-0.402
42410620,-0.125,-0.345,0.862,24.132,-8.452,-0.91
42410630,-0.13,-0.296,0.884,24.675,-0.175,0.28
42410640,-0.161,-0.303,0.899,19.495,6.212,2.152
42410650,-0.16,-0.36,0.929,15.522,9.432,1.802
42410660,-0.178,-0.359,0.981,16.327,10.937,-0.07
42410670,-0.239,-0.334,1.024,17.552,8.277,-2.1
42410680,-0.257,-0.342,1.05,17.605,0.892,-5.092
42410690,-0.264,-0.332,1.062,20.195,-8.19,-8.645
42410700,-0.288,-0.306,1.076,23.257,-17.937,-12.127
42410710,-0.325,-0.321,1.093,25.987,-28.542,-17.482
42410720,-0.351,-0.34,1.118,32.602,-41.667,-25.532
42410730,-0.267,-0.309,1.096,43.872,-57.942,-35.14
42410740,-0.089,-0.266,1.004,57.925,-68.687,-41.44
42410750,0.035,-0.211,0.894,69.895,-64.645,-41.02
42410760,0.084,-0.19,0.82,76.457,-48.475,-34.475
42410760,0.12,-0.173,0.816,80.132,-25.287,-25.515
42410780,0.076,-0.139,0.838,78.347,2.1,-16.695
42410780,0.088,-0.127,0.88,67.952,33.232,-12.897
42410800,-0.045,-0.167,0.938,57.067,66.465,-6.212
42410800,-0.033,-0.15,0.958,59.045,98.787,-0.035
42410820,-0.094,-0.185,0.964,62.09,132.685,2.327
42410820,-0.218,-0.247,1.01,68.74,160.352,4.007
42410830,-0.399,-0.127,1.077,79.625,173.88,3.657
42410840,-0.704,-0.087,1.091,76.107,155.977,-1.155
42410850,-0.747,-0.069,1.081,71.61,109.55,-5.512
42410860,-0.641,-0.029,1.054,66.097,60.182,-9.922
42410870,-0.612,0.022,1.033,57.137,19.932,-15.155
42410880,-0.63,0.02,1.011,47.355,-14.7,-18.882
42410890,-0.68,-0.01,0.979,40.74,-52.622,-20.93
42410900,-0.678,-0.016,0.949,38.972,-94.377,-21.525
42410910,-0.644,-0.014,0.904,40.005,-137.952,-19.565
42410920,-0.502,0.023,0.879,41.387,-175.857,-14.892
42410930,-0.309,0.053,0.857,38.535,-195.387,-9.905
42410940,-0.154,0.048,0.848,32.06,-192.097,-3.71
42410950,-0.055,0.037,0.865,25.567,-169.242,2.467
42410960,-0.039,0.031,0.888,20.055,-137.2,8.347
42410970,-0.035,0.036,0.914,14.91,-104.317,13.16
42410980,-0.087,0.017,0.924,10.85,-76.44,17.5
42410990,-0.15,0.004,0.926,9.467,-57.662,19.74
42411000,-0.18,0,0.934,10.797,-48.79,21.35
42411010,-0.158,0.014,0.946,12.652,-46.707,21.892
42411020,-0.14,0.023,0.944,12.372,-47.792,21.735
42411030,-0.135,0.018,0.935,10.237,-51.275,22.662
42411040,-0.125,0.037,0.927,6.685,-56.98,24.01
42411050,-0.094,0.078,0.927,0.42,-63.42,25.112
42411060,-0.033,0.043,0.908,-8.575,-67.287,25.27
42411070,-0.007,-0.002,0.894,-14.997,-67.987,26.95
42411080,0.02,-0.01,0.881,-20.947,-66.832,26.11
42411080,0.07,-0.006,0.878,-25.602,-62.422,24.307
42411100,0.072,-0.04,0.875,-28.07,-57.417,25.077
42411100,0.06,-0.063,0.895,-28.595,-55.772,27.562
42411120,0.057,-0.075,0.914,-28.7,-58.485,30.555
42411120,0.06,-0.094,0.926,-29.172,-63.612,32.27
42411140,0.079,-0.116,0.936,-29.697,-70.14,30.695
42411140,0.094,-0.131,0.948,-29.295,-77.647,29.102
42411160,0.142,-0.13,0.966,-29.312,-84.595,28.035
42411160,0.198,-0.132,0.968,-31.937,-88.27,27.23
42411170,0.238,-0.159,0.96,-35.402,-86.432,27.387
42411180,0.254,-0.204,0.952,-36.837,-79.555,29.225
42411190,0.258,-0.23,0.949,-33.95,-70.122,32.952
42411200,0.28,-0.245,0.957,-30.047,-58.1,37.24
42411210,0.271,-0.265,0.963,-27.09,-45.272,41.982
42411220,0.259,-0.269,0.973,-24.622,-33.11,46.2
42411230,0.244,-0.26,0.987,-23.24,-22.347,47.74
42411240,0.223,-0.256,0.993,-23.292,-13.335,46.13
42411250,0.215,-0.254,0.987,-23.835,-7,41.037
42411260,0.191,-0.255,0.983,-23.117,-3.43,36.347
42411270,0.187,-0.255,0.974,-22.592,-2.817,32.532
42411280,0.188,-0.25,0.963,-23.292,-4.462,30.59
42411290,0.191,-0.243,0.955,-24.465,-6.405,29.05
42411300,0.201,-0.225,0.939,-26.25,-8.347,26.355
42411310,0.217,-0.224,0.917,-28.91,-9.012,23.992
42411320,0.22,-0.229,0.898,-32.077,-8.522,21.49
42411330,0.209,-0.251,0.88,-33.862,-9.537,21.35
42411340,0.203,-0.261,0.866,-33.827,-10.587,23.712
42411350,0.196,-0.269,0.853,-33.53,-8.435,27.317
42411360,0.162,-0.289,0.854,-32.742,-4.427,30.957
42411370,0.138,-0.3,0.867,-31.972,-1.382,33.145
42411380,0.132,-0.3,0.888,-32.13,-1.277,34.142
42411390,0.133,-0.308,0.901,-33.512,-3.132,33.355
42411400,0.126,-0.325,0.901,-34.982,-6.457,31.36
42411410,0.123,-0.325,0.911,-36.172,-11.042,27.545
42411420,0.118,-0.336,0.924,-37.922,-17.36,23.222
42411430,0.131,-0.36,0.929,-38.675,-25.515,18.69
42411440,0.159,-0.375,0.925,-36.68,-34.3,14.647
42411450,0.198,-0.379,0.92,-32.392,-42.28,10.36
42411460,0.243,-0.369,0.911,-26.232,-48.772,5.425
42411470,0.296,-0.354,0.903,-18.9,-52.185,0.035
42411480,0.331,-0.343,0.895,-11.62,-52.78,-5.635
42411490,0.368,-0.34,0.881,-5.355,-50.435,-10.027
42411500,0.394,-0.34,0.865,-0.105,-44.275,-12.267
42411510,0.394,-0.331,0.858,4.235,-34.177,-11.9
42411510,0.349,-0.333,0.864,6.65,-23.1,-9.555
42411530,0.302,-0.345,0.866,7,-13.632,-6.702
42411530,0.279,-0.349,0.87,6.807,-6.405,-4.007
42411550,0.263,-0.35,0.874,5.74,-0.472,-1.225
42411550,0.239,-0.341,0.879,3.062,4.725,1.505
42411570,0.206,-0.348,0.889,-1.68,8.365,2.87
42411570,0.185,-0.368,0.894,-7.402,9.537,1.995
42411580,0.166,-0.38,0.903,-11.427,7.262,-0.07
42411590,0.164,-0.384,0.915,-14.052,0.98,-0.77
42411600,0.175,-0.402,0.919,-16.31,-7.367,-0.927
42411610,0.209,-0.42,0.916,-16.537,-15.855,-1.872
42411620,0.219,-0.428,0.927,-12.845,-23.31,-1.837
42411630,0.238,-0.414,0.938,-9.397,-30.292,-4.095
42411640,0.279,-0.414,0.944,-8.05,-35.28,-5.582
42411650,0.326,-0.422,0.949,-7.175,-38.097,-4.305
42411660,0.371,-0.426,0.956,-6.335,-38.272,-3.027
42411670,0.385,-0.433,0.98,-5.25,-36.627,-2.817
42411680,0.382,-0.452,1.007,-5.617,-35.875,-4.83
42411690,0.39,-0.467,1.02,-6.772,-37.887,-10.43
42411700,0.408,-0.459,1.02,-6.37,-43.68,-16.222
42411710,0.448,-0.45,1.006,-6.212,-51.677,-20.51
42411720,0.503,-0.443,0.981,-7.595,-58.922,-24.465
42411730,0.558,-0.405,0.952,-10.692,-63.665,-26.985
42411740,0.596,-0.387,0.914,-16.24,-65.922,-28.875
42411750,0.65,-0.372,0.873,-22.137,-64.907,-32.567
42411760,0.717,-0.354,0.836,-28.875,-57.417,-38.762
42411770,0.732,-0.336,0.806,-38.22,-43.522,-47.005
42411780,0.713,-0.349,0.781,-49.647,-25.9,-56.07
42411790,0.636,-0.371,0.75,-59.5,-10.867,-63.122
42411800,0.546,-0.395,0.725,-65.24,-2.03,-67.217
42411810,0.496,-0.401,0.711,-67.777,2.17,-69.58
42411820,0.427,-0.416,0.692,-69.947,4.777,-68.687
42411830,0.362,-0.414,0.688,-70.56,8.33,-66.43
42411830,0.305,-0.419,0.683,-70.595,10.552,-61.582
42411850,0.284,-0.44,0.674,-65.957,11.69,-55.265
42411850,0.271,-0.423,0.688,-55.37,14.682,-46.252
42411870,0.246,-0.427,0.702,-44.922,22.05,-38.115
42411870,0.198,-0.456,0.712,-32.13,32.48,-31.832
42411890,0.155,-0.458,0.72,-15.47,42.14,-22.277
42411890,0.139,-0.43,0.735,2.59,51.957,-11.917
42411910,0.112,-0.381,0.759,17.43,64.102,0.175
42411910,0.082,-0.338,0.782,28.315,76.545,12.967
42411920,0.02,-0.314,0.81,35.052,86.205,25.235
42411930,-0.05,-0.297,0.831,38.447,90.002,34.475
42411940,-0.149,-0.29,0.845,39.707,86.275,38.08
42411950,-0.207,-0.326,0.844,41.737,72.31,36.767
42411960,-0.209,-0.337,0.859,47.897,49.577,36.26
42411970,-0.143,-0.321,0.874,54.687,25.182,37.835
42411980,-0.049,-0.296,0.897,59.097,6.545,37.345
42411990,0.064,-0.252,0.933,58.415,-2.975,33.792
42412000,0.153,-0.206,0.955,52.202,-5.407,30.117
42412010,0.191,-0.221,0.962,42.98,-4.497,27.23
42412020,0.177,-0.259,0.977,34.667,-5.04,21.805
42412030,0.199,-0.275,0.98,29.26,-10.202,13.877
42412040,0.219,-0.252,0.977,26.775,-19.04,6.842
42412050,0.246,-0.219,0.984,21.91,-30.817,0.857
42412060,0.248,-0.244,0.969,12.845,-45.36,-4.567
42412070,0.237,-0.253,0.941,4.83,-61.95,-8.225
42412080,0.234,-0.255,0.926,-3.027,-82.442,-13.317
42412090,0.236,-0.273,0.876,-11.112,-106.995,-16.642
42412100,0.307,-0.241,0.874,-21.332,-130.27,-18.007
42412110,0.465,-0.302,0.84,-35.07,-144.672,-22.54
42412120,0.539,-0.36,0.814,-42.875,-140.997,-19.057
42412130,0.615,-0.334,0.809,-46.935,-122.552,-13.37
42412140,0.764,-0.354,0.823,-54.355,-92.33,-2.275
42412150,0.696,-0.434,0.835,-59.937,-46.322,16.275
42412160,0.607,-0.581,0.918,-56.332,-6.895,31.832
42412170,0.567,-0.586,0.937,-43.942,15.557,41.282
42412180,0.492,-0.585,0.964,-31.64,25.077,44.065
42412190,0.391,-0.639,1.006,-23.1,21.857,44.747
42412200,0.404,-0.53,0.981,-16.135,12.565,42.98
42412210,0.355,-0.424,0.96,-21.14,8.925,42.927
42412220,0.266,-0.428,0.856,-33.53,7.017,44.607
42412230,0.267,-0.472,0.792,-38.115,5.372,35.945
42412240,0.272,-0.493,0.699,-29.627,2.187,28.525
42412250,0.236,-0.462,0.677,-18.41,-4.637,22.627
42412260,0.228,-0.504,0.677,-4.97,-18.55,18.655
42412260,0.345,-0.483,0.686,16.415,-32.322,17.237
42412280,0.341,-0.467,0.709,39.935,-37.415,15.75
42412280,0.376,-0.461,0.755,60.427,-39.095,13.02
42412300,0.422,-0.452,0.816,78.872,-39.13,16.187
42412300,0.446,-0.453,0.853,93.852,-31.64,17.972
42412320,0.377,-0.471,0.83,106.802,-21.21,16.082
42412320,0.393,-0.306,0.872,114.24,-17.762,4.41
42412330,0.453,-0.324,0.867,99.645,-20.877,-1.12
42412340,0.598,-0.332,0.874,85.015,-14.402,-6.142
42412350,0.712,-0.304,0.885,65.012,0.857,-5.547
42412360,0.797,-0.302,0.898,40.267,28.892,-3.01
42412370,0.787,-0.359,0.882,18.83,69.632,-1.855
42412380,0.866,-0.404,0.874,7.122,112.927,-4.007
42412390,0.799,-0.394,0.899,-3.885,160.702,-6.037
42412400,0.656,-0.434,0.881,-16.065,199.78,-5.162
42412410,0.542,-0.487,0.877,-27.072,228.62,-1.802
42412420,0.325,-0.516,0.881,-31.92,240.765,4.97
42412430,0.214,-0.544,0.902,-28.542,235.812,8.242
42412440,0.11,-0.527,0.927,-21.472,218.085,9.065
42412450,0.109,-0.541,0.909,-15.33,193.375,6.825
42412460,0.173,-0.516,0.898,-5.862,172.042,4.077
42412470,0.189,-0.491,0.893,2.432,159.46,2.957
42412480,0.138,-0.474,0.893,9.782,153.475,2.922
42412490,0.173,-0.444,0.885,16.677,152.582,1.365
42412500,0.158,-0.406,0.88,16.345,159.267,5.46
42412510,0.027,-0.363,0.882,11.217,169.96,13.545
42412520,-0.072,-0.37,0.875,5.162,177.1,16.52
42412530,-0.198,-0.398,0.872,1.592,175.682,18.112
42412540,-0.252,-0.392,0.863,1.347,165.025,18.392
42412550,-0.295,-0.384,0.865,1.802,150.57,19.792
42412560,-0.303,-0.341,0.871,0.21,137.217,20.405
42412570,-0.275,-0.283,0.869,-8.225,129.185,19.407
42412580,-0.326,-0.302,0.876,-19.215,123.707,13.352
42412580,-0.325,-0.319,0.855,-26.11,112.735,5.512
42412600,-0.401,-0.369,0.835,-27.667,97.23,7.857
42412600,-0.32,-0.379,0.801,-20.002,81.48,12.425
42412620,-0.212,-0.351,0.798,-11.375,77.017,16.222
42412620,-0.183,-0.355,0.798,-6.23,86.572,22.19
42412640,-0.23,-0.365,0.809,-4.007,102.865,25.34
42412640,-0.302,-0.34,0.831,-2.642,115.535,24.325
42412660,-0.403,-0.342,0.835,-3.15,117.81,22.627
42412660,-0.417,-0.349,0.831,-2.992,111.912,18.847
42412670,-0.43,-0.325,0.84,-6.912,102.445,15.277
42412680,-0.369,-0.324,0.829,-9.957,94.552,9.38
42412690,-0.399,-0.341,0.821,-12.425,89.617,2.817
42412700,-0.457,-0.353,0.813,-12.022,82.162,-2.852
42412710,-0.504,-0.346,0.814,-8.137,68.652,-8.225
42412720,-0.543,-0.339,0.812,-3.325,50.75,-13.387
42412730,-0.548,-0.359,0.805,2.87,32.34,-20.93
42412740,-0.599,-0.376,0.806,8.382,15.032,-31.027
42412750,-0.779,-0.358,0.83,12.897,-10.535,-47.565
42412760,-0.866,-0.356,0.84,20.545,-54.145,-68.757
42412770,-0.854,-0.34,0.814,27.282,-110.565,-89.53
42412780,-0.834,-0.269,0.792,31.745,-170.31,-110.827
42412790,-0.741,-0.2,0.759,31.85,-227.85,-130.742
42412800,-0.579,-0.127,0.718,25.165,-275.852,-146.335
42412810,-0.369,-0.08,0.681,10.307,-306.705,-154.262
42412820,-0.076,-0.077,0.636,-9.047,-311.885,-153.947
42412830,0.22,-0.111,0.627,-28.437,-285.425,-143.08
42412840,0.425,-0.202,0.652,-43.172,-226.905,-120.907
42412850,0.465,-0.264,0.697,-50.085,-146.317,-95.567
42412860,0.355,-0.341,0.757,-49.192,-62.615,-67.462
42412870,0.235,-0.366,0.846,-40.74,9.59,-38.027
42412880,-0.016,-0.387,0.904,-31.377,58.625,-17.885
42412890,-0.265,-0.405,0.993,-25.987,78.592,-8.452
42412900,-0.339,-0.419,1.002,-20.965,74.217,-0.315
42412910,-0.311,-0.413,0.966,-19.512,59.045,3.395
42412920,-0.347,-0.416,0.95,-19.512,40.95,10.115
42412930,-0.299,-0.418,0.922,-18.112,25.287,16.45
42412940,-0.247,-0.426,0.881,-15.47,14.805,20.93
42412950,-0.23,-0.416,0.885,-11.305,8.627,24.045
42412960,-0.195,-0.394,0.896,-5.582,4.112,25.55
42412970,-0.161,-0.373,0.892,-2.117,2.502,26.267
42412980,-0.124,-0.34,0.893,-3.325,3.85,25.935
42412990,-0.086,-0.326,0.888,-9.24,8.417,26.722
42413000,-0.086,-0.34,0.884,-17.412,15.417,29.015
42413010,-0.135,-0.372,0.884,-24.062,20.755,30.275
42413010,-0.203,-0.403,0.884,-26.897,20.44,30.94
42413030,-0.241,-0.417,0.886,-26.757,14.525,30.275
42413030,-0.242,-0.418,0.9,-26.162,6.037,28.42
42413040,-0.222,-0.46,0.914,-26.635,-3.185,24.377
42413050,-0.169,-0.481,0.923,-23.537,-10.342,18.935
42413060,-0.179,-0.482,0.935,-20.597,-14.857,14.105
42413070,-0.136,-0.505,0.945,-18.2,-19.215,8.697
42413080,-0.145,-0.516,0.944,-14.735,-21.35,6.335
42413090,-0.134,-0.523,0.943,-12.6,-25.252,2.852
42413100,-0.107,-0.539,0.94,-11.13,-29.592,1.365
42413110,-0.078,-0.532,0.939,-8.89,-30.485,0.91
42413120,-0.08,-0.537,0.947,-8.68,-29.155,-0.07
42413130,-0.098,-0.568,0.953,-9.555,-29.47,-1.68
42413140,-0.073,-0.594,0.952,-8.767,-31.972,-3.517
42413150,-0.048,-0.598,0.946,-6.37,-32.865,-4.042
42413160,-0.044,-0.598,0.941,-4.147,-32.672,-4.62
42413170,-0.006,-0.592,0.926,-1.207,-30.52,-4.847
42413180,0.019,-0.585,0.895,1.785,-25.182,-3.5
42413190,-0.015,-0.575,0.87,3.115,-18.147,-2.572
42413200,-0.059,-0.573,0.836,3.937,-14.717,-2.485
42413210,-0.098,-0.575,0.821,4.672,-16.502,-2.537
42413220,-0.127,-0.574,0.817,7.927,-23.572,-3.15
42413230,-0.102,-0.578,0.81,13.877,-33.285,-3.307
42413240,-0.029,-0.571,0.808,18.06,-39.602,-2.257
42413250,0.005,-0.557,0.808,18.76,-37.957,-0.542
42413260,-0.041,-0.565,0.823,18.235,-31.937,2.817
42413270,-0.04,-0.563,0.826,16.712,-26.88,3.185
42413280,-0.001,-0.593,0.826,16.222,-21.875,2.835
42413290,0.007,-0.603,0.835,19.775,-14.227,4.795
42413300,0.022,-0.582,0.844,25.13,-4.2,7.175
42413310,-0.006,-0.561,0.853,27.58,4.497,9.537
42413320,-0.036,-0.547,0.868,28.752,10.027,9.817
42413330,-0.088,-0.529,0.867,30.082,11.217,6.912
42413330,0.055,-0.55,0.873,29.26,9.975,5.355
42413350,-0.087,-0.48,0.865,23.52,18.112,8.942
42413350,-0.12,-0.474,0.881,14.682,19.74,6.422
42413370,-0.066,-0.503,0.848,8.68,18.427,4.532
42413370,-0.108,-0.494,0.844,5.705,20.037,3.167
42413390,-0.127,-0.491,0.841,4.655,19.39,1.12
42413390,-0.102,-0.465,0.832,1.575,19.127,0.315
42413410,-0.099,-0.458,0.836,-4.515,21.105,0.717
42413410,-0.101,-0.434,0.833,-10.832,22.907,1.382
42413420,-0.13,-0.432,0.836,-18.025,23.852,3.062
42413430,-0.152,-0.46,0.84,-23.607,20.072,5.722
42413440,-0.147,-0.486,0.831,-23.607,14.087,7.367
42413450,-0.123,-0.494,0.82,-19.985,10.272,7
42413460,-0.12,-0.485,0.823,-13.562,8.435,5.705
42413470,-0.117,-0.466,0.834,-5.705,8.68,4.585
42413480,-0.135,-0.463,0.847,1.12,8.837,3.447
42413490,-0.159,-0.468,0.858,8.067,6.107,2.03
42413500,-0.162,-0.475,0.868,16.467,0.525,2.257
42413510,-0.121,-0.459,0.878,26.215,-2.922,3.937
42413520,-0.126,-0.45,0.883,34.965,-2.467,5.127
42413530,-0.096,-0.424,0.899,41.93,1.225,5.617
42413540,-0.073,-0.374,0.915,45.097,6.737,6.877
42413550,-0.1,-0.369,0.908,44.59,11.305,8.225
42413560,-0.105,-0.353,0.911,43.837,13.807,8.592
42413570,-0.116,-0.333,0.901,40.565,15.837,8.837
42413580,-0.132,-0.338,0.899,34.755,17.307,7.577
42413590,-0.152,-0.349,0.89,29.785,17.325,5.95
42413600,-0.15,-0.364,0.885,27.562,17.867,2.852
42413610,-0.145,-0.366,0.884,28.962,19.127,-0.717
42413620,-0.143,-0.346,0.882,31.465,20.195,-2.537
42413630,-0.146,-0.312,0.894,32.392,20.912,-1.802
42413640,-0.142,-0.295,0.899,31.08,20.247,1.54
42413650,-0.13,-0.275,0.922,26.722,20.037,5.95
42413660,-0.115,-0.272,0.928,18.427,22.82,8.89
42413670,-0.123,-0.293,0.921,8.68,29.732,10.132
42413680,-0.161,-0.33,0.92,0.595,38.377,8.067
42413690,-0.208,-0.373,0.927,-0.332,42.315,3.692
42413700,-0.235,-0.394,0.926,3.972,39.55,1.645
42413710,-0.288,-0.416,0.932,10.027,32.165,2.135
42413720,-0.338,-0.426,0.954,19.337,17.937,5.302
42413730,-0.268,-0.394,0.972,29.085,2.152,9.117
42413730,-0.205,-0.341,0.972,35.7,-5.162,12.32
42413750,-0.205,-0.339,0.961,37.59,-3.22,13.667
42413750,-0.235,-0.359,0.949,38.762,-0.962,14.315
42413760,-0.244,-0.339,0.944,40.705,-2.747,14.997
42413770,-0.261,-0.321,0.925,41.125,-6.247,15.61
42413780,-0.273,-0.323,0.913,41.125,-10.675,15.242
42413790,-0.277,-0.34,0.894,43.12,-17.745,15.05
42413800,-0.291,-0.33,0.897,47.6,-25.462,15.75
42413810,-0.27,-0.308,0.896,53.287,-33.547,14.227
42413820,-0.248,-0.288,0.897,58.292,-39.76,15.33
42413830,-0.24,-0.27,0.901,60.357,-43.207,14.402
42413840,-0.205,-0.242,0.914,59.955,-43.732,11.235
42413850,-0.167,-0.218,0.919,58.1,-42.525,7.49
42413860,-0.154,-0.202,0.937,54.46,-40.057,4.935
42413870,-0.148,-0.207,0.96,50.487,-39.147,4.305
42413880,-0.132,-0.224,0.974,48.422,-41.527,5.092
42413890,-0.091,-0.225,0.986,50.452,-43.697,6.842
42413900,-0.099,-0.233,0.991,52.657,-44.24,6.545
42413910,-0.066,-0.255,0.993,57.75,-44.59,4.602
42413920,-0.03,-0.228,1.002,67.567,-41.737,3.325
42413930,0.001,-0.213,1,75.232,-36.802,1.837
42413940,-0.02,-0.182,0.99,80.605,-29.12,0.367
42413950,-0.056,-0.152,0.983,83.982,-24.552,-3.482
42413960,-0.061,-0.098,0.972,85.452,-25.182,-6.825
42413970,-0.036,-0.046,0.956,83.685,-27.527,-8.995
42413980,-0.022,-0.04,0.939,79.38,-28.805,-10.902
42413990,-0.021,-0.032,0.926,75.075,-29.907,-12.95
42414000,-0.024,-0.024,0.922,70.91,-32.55,-13.737
42414010,0.02,-0.026,0.921,68.862,-33.337,-13.02
42414020,-0.015,-0.042,0.929,68.022,-33.46,-11.62
42414030,-0.002,-0.026,0.933,67.69,-34.65,-13.16
42414040,-0.019,0.002,0.962,67.497,-36.12,-14.035
42414050,0.016,-0.008,0.969,67.305,-37.712,-18.27
42414060,0.044,-0.015,0.968,67.305,-36.207,-23.467
42414070,0.056,-0.024,0.977,67.952,-32.375,-25.147
42414080,0.053,-0.029,1.006,69.737,-26.74,-24.85
42414080,0.011,-0.057,1.021,74.445,-21.892,-26.81
42414100,0.02,-0.053,1.024,83.16,-17.92,-33.932
42414100,0,-0.044,1.04,93.152,-15.872,-39.865
42414120,-0.029,-0.055,1.044,102.34,-17.78,-47.722
42414120,-0.075,-0.034,1.042,113.05,-24.377,-55.842
42414140,-0.123,0.053,1.037,122.36,-39.305,-62.125
42414140,0.025,0.092,1.065,125.877,-58.205,-65.555
42414160,0.011,0.111,1.035,129.867,-70.525,-64.382
42414160,0.025,0.224,1.027,130.567,-78.82,-54.477
42414170,-0.004,0.25,1.005,123.2,-86.485,-46.235
42414180,-0.005,0.248,0.977,117.302,-96.757,-42.105
42414190,0.017,0.223,0.933,117.985,-108.447,-40.04
42414200,0.066,0.273,0.893,122.027,-114.957,-37.922
42414210,0.088,0.344,0.887,122.535,-116.322,-33.652
42414220,0.109,0.394,0.885,117.74,-113.662,-32.9
42414230,0.164,0.456,0.87,109.095,-108.64,-36.68
42414240,0.213,0.519,0.858,94.972,-98.63,-36.102
42414250,0.252,0.521,0.845,74.182,-83.877,-33.67
42414260,0.234,0.518,0.842,51.467,-64.977,-32.795
42414270,0.173,0.434,0.834,31.64,-46.882,-33.792
42414280,0.204,0.368,0.791,18.077,-31.15,-40.81
42414290,0.163,0.39,0.799,7.997,-17.727,-42.84
42414300,0.095,0.374,0.828,3.115,-13.282,-39.042
42414310,0.048,0.312,0.818,3.167,-19.915,-34.615
42414320,0.024,0.288,0.813,7.63,-32.69,-22.067
42414330,0.003,0.258,0.818,14.507,-49.472,-6.632
42414340,0.035,0.24,0.83,25.025,-69.282,7.822
42414350,0.035,0.215,0.827,39.655,-88.55,22.382
42414360,0.078,0.25,0.833,54.705,-106.82,33.617
42414370,0.173,0.347,0.859,63.525,-121.922,42.35
42414380,0.308,0.436,0.872,61.127,-126.28,50.277
42414390,0.486,0.505,0.897,48.335,-112.98,55.772
42414400,0.596,0.531,0.897,26.18,-81.812,61.005
42414410,0.677,0.447,0.879,-0.21,-31.465,65.765
42414420,0.723,0.438,0.951,-18.305,30.502,62.702
42414420,0.594,0.489,0.984,-37.94,82.757,54.792
42414440,0.649,0.536,1.001,-60.497,125.335,51.765
42414440,0.551,0.46,1.013,-85.365,165.865,51.38
42414460,0.447,0.32,0.99,-105.472,204.907,47.267
42414460,0.156,0.326,0.968,-121.415,230.685,35.017
42414480,-0.148,0.243,0.967,-135.047,221.357,26.775
42414480,0.069,0.14,0.992,-136.955,182.927,25.112
42414500,0.002,0.186,0.962,-135.432,148.995,23.87
42414500,-0.135,0.125,0.976,-131.582,115.64,22.505
42414510,-0.052,0.044,0.977,-120.837,76.492,18.9
42414520,0.034,0.028,0.965,-104.212,46.585,12.687
42414530,0.092,0.106,0.964,-84.875,31.185,3.552
42414540,0.084,0.089,0.978,-75.162,22.575,-3.692
42414550,0.127,0.072,0.966,-68.145,16.695,-3.535
42414560,0.14,0.13,0.985,-59.255,17.447,2.205
42414570,0.134,0.131,0.977,-52.815,22.102,9.082
42414580,0.157,0.113,0.978,-48.65,31.325,14
42414590,0.112,0.139,1.008,-47.617,43.207,19.162
42414600,0.04,0.129,1.023,-49.437,50.942,22.032
42414610,0.05,0.11,1.023,-54.32,57.61,20.702
42414620,0.018,0.043,1.009,-59.885,64.505,14.437
42414630,-0.003,0,0.999,-59.045,72.345,2.432
42414640,0.072,0.024,1.018,-51.047,79.835,-9.975
42414650,-0.008,0.033,0.984,-48.317,87.727,-13.807
42414660,-0.132,0.075,1.003,-46.252,88.97,-18.795
42414670,-0.057,0.039,0.989,-46.497,83.247,-21.892
42414680,-0.133,0.013,0.96,-44.047,80.325,-22.417
42414690,-0.247,0.009,0.96,-36.207,72.012,-23.205
42414700,-0.293,-0.024,0.959,-24.92,52.78,-25.445
42414710,-0.29,-0.038,0.955,-9.625,26.81,-27.93
42414720,-0.23,-0.041,0.948,4.2,2.467,-26.862
42414730,-0.2,0.032,0.951,14.7,-17.132,-25.112
42414740,-0.133,0.052,0.969,20.23,-26.845,-22.242
42414750,-0.053,0.074,0.974,21.7,-23.642,-23.187
42414760,-0.045,0.075,0.992,22.085,-13.737,-24.797
42414770,-0.017,0.073,1.02,23.17,-0.315,-27.037
42414780,-0.014,0.106,0.988,18.305,13.982,-28.56
42414790,-0.095,0.119,1.012,12.18,26.67,-30.03
42414800,-0.138,0.07,0.988,6.387,29.61,-31.29
42414810,-0.18,0.06,0.966,3.43,26.425,-31.43
42414820,-0.209,0.028,0.947,3.867,17.412,-30.362
42414830,-0.188,0.001,0.933,7.77,6.65,-28.962
42414830,-0.152,0.019,0.938,13.247,-1.12,-25.952
42414850,-0.146,0.019,0.949,16.625,-4.515,-22.872
42414850,-0.086,0.018,0.983,19.565,0.735,-21.472
42414870,-0.146,0.071,1.013,20.23,10.43,-18.445
42414870,-0.145,0.148,1.006,12.46,13.72,-16.082
42414890,-0.117,0.163,0.998,-3.64,19.425,-12.845
42414890,-0.161,0.082,1.006,-20.58,27.002,-9.695
42414910,-0.115,0.008,1.027,-29.12,29.19,-10.255
42414910,-0.221,0.045,1.001,-30.905,31.115,-11.182
42414920,-0.285,-0.009,0.98,-30.117,19.092,-8.592
42414930,-0.153,-0.058,0.911,-26.88,1.277,-9.607
42414940,-0.106,-0.015,0.889,-25.305,-1.715,-8.977
42414950,-0.093,-0.047,0.926,-24.377,2.222,-10.237
42414960,-0.083,-0.076,0.934,-18.322,4.917,-12.897
42414970,-0.097,-0.04,0.948,-12.635,5.652,-13.16
42414980,-0.061,-0.017,0.947,-10.15,6.125,-9.607
42414990,-0.119,-0.016,0.97,-10.325,8.68,-4.55
42415000,-0.07,-0.022,1.027,-15.347,10.692,-5.722
42415010,-0.012,-0.028,1.04,-18.007,17.15,-10.097
42415020,-0.079,-0.034,1.027,-19.057,27.23,-10.832
42415030,-0.175,-0.05,0.981,-21.315,27.405,-10.972
42415040,-0.133,-0.086,0.954,-20.912,20.79,-8.89
42415050,-0.153,-0.09,0.953,-18.182,20.055,-6.72
42415060,-0.208,-0.08,0.969,-15.242,17.78,-2.415
42415070,-0.181,-0.034,0.978,-13.685,12.267,1.172
42415080,-0.172,-0.051,0.945,-17.202,9.467,5.652
42415090,-0.162,-0.116,0.942,-15.067,10.605,5.232
42415100,-0.202,-0.07,0.943,-7.087,12.075,3.29
42415110,-0.271,-0.06,0.927,-0.997,5.775,12.862
42415120,-0.272,-0.077,0.915,3.132,-6.055,24.115
42415130,-0.201,-0.061,0.927,6.475,-14.192,30.537
42415140,-0.192,-0.038,0.956,10.482,-13.877,36.225
42415150,-0.207,-0.002,0.99,10.675,-13.947,43.785
42415160,-0.22,-0.01,0.993,7.157,-16.555,50.575
42415170,-0.236,-0.025,1.024,2.782,-22.05,54.6
42415170,-0.262,-0.052,1.046,1.68,-33.827,59.832
42415190,-0.359,-0.102,1.086,6.895,-53.777,62.632
42415190,-0.414,-0.104,1.069,19.005,-90.335,67.532
42415210,-0.321,-0.078,0.983,35.175,-130.357,76.405
42415210,-0.198,-0.015,0.901,51.485,-158.445,83.65
42415230,0.019,0.083,0.866,55.09,-165.025,86.327
42415230,0.315,0.171,0.895,44.38,-137.375,79.082
42415250,0.384,0.172,0.948,24.885,-80.675,64.645
42415250,0.269,0.089,0.987,8.75,-27.947,55.125
42415260,0.198,0.08,1.033,-0.7,0.822,53.567
42415270,0.275,0.055,1.015,-8.75,16.59,57.662
42415280,0.398,0.105,0.974,-17.255,39.042,65.012
42415290,0.387,0.008,0.933,-25.847,73.71,66.29
42415300,0.048,-0.28,0.851,-30.572,111.352,50.26
42415310,-0.292,-0.133,0.982,-14.752,100.572,34.177
42415320,-0.148,0.016,0.945,2.975,62.072,29.785
42415330,-0.111,-0.099,0.863,3.78,46.112,34.142
42415340,-0.192,-0.057,0.874,13.877,41.947,38.64
42415350,-0.341,0.007,0.879,19.337,32.375,41.667
42415360,-0.071,0.055,0.891,20.597,24.517,44.502
42415370,-0.228,0.087,0.922,17.08,43.382,41.422
42415380,-0.334,0.067,0.996,10.64,53.637,38.097
42415390,-0.344,0.083,1.061,6.877,48.02,36.452
42415400,-0.353,0.043,1.073,3.115,41.527,33.32
42415410,-0.443,0.01,1.048,2.327,32.165,26.74
42415420,-0.425,0.055,1.015,6.492,15.382,18.55
42415430,-0.393,0.068,0.976,11.06,0.017,12.425
42415440,-0.386,0.095,0.974,15.417,-10.797,7.682
42415450,-0.344,0.113,0.986,18.252,-18.375,1.75
42415460,-0.324,0.101,1.001,19.477,-23.73,-4.637
42415470,-0.28,0.108,1.012,21.175,-29.575,-8.522
42415480,-0.238,0.109,1.016,22.242,-34.79,-8.96
42415490,-0.195,0.089,1.016,21.822,-39.077,-9.065
42415500,-0.098,0.143,1.017,20.685,-41.93,-9.415
42415510,0,0.221,1.054,14.665,-39.287,-6.055
42415520,0.028,0.143,1.022,3.797,-28.542,-4.952
42415530,-0.005,0.061,0.996,-3.937,-13.86,-7.157
42415540,-0.04,0.061,0.981,-4.952,-5.495,-8.907
42415550,-0.03,0.06,0.947,-5.355,-1.155,-8.33
42415560,-0.094,0.007,0.903,-8.26,2.432,-4.987
42415570,-0.213,0.002,0.881,-6.282,-2.695,-2.572
42415580,-0.163,-0.006,0.901,-2.012,-18.41,-1.137
42415580,0.071,0.005,0.951,2.94,-22.662,0.98
42415600,-0.057,0.049,0.982,4.235,-6.335,3.587
42415600,-0.08,-0.01,1.01,0.857,8.382,4.112
42415620,-0.277,0.068,0.924,-0.84,13.632,10.045
42415620,-0.28,-0.033,0.899,-7.875,1.907,10.937
42415640,-0.076,-0.159,0.954,-6.545,-4.095,11.952
42415640,-0.112,0.066,1.024,3.097,1.435,10.815
42415660,-0.231,-0.069,1.01,0.472,7.437,10.22
42415660,-0.163,0.019,1.047,3.727,1.872,5.582
42415670,-0.063,0.017,1.054,2.765,1.557,8.085
42415680,-0.191,-0.008,1.027,-1.872,11.795,10.412
42415690,-0.143,0.041,1.047,-6.965,8.855,11.9
42415700,-0.105,0.052,1.049,-12.617,5.582,19.565
42415710,-0.131,0.023,1.058,-19.442,8.4,22.47
42415720,-0.142,0.027,1.063,-24.692,8.452,21.507
42415730,-0.079,-0.011,0.997,-29.61,10.78,19.862
42415740,-0.327,0.096,0.963,-37.607,25.48,22.557
42415750,-0.587,-0.009,0.929,-43.47,4.725,17.342
42415760,-0.018,-0.212,0.905,-34.037,-37.362,7.822
42415770,0.007,0.038,0.989,-11.427,-25.847,11.952
42415780,-0.164,-0.021,1.025,-9.992,-11.585,11.06
42415790,-0.169,-0.038,1.005,-8.75,-16.572,11.322
42415800,-0.01,0.052,0.984,-7.735,-23.467,7.017
42415810,-0.039,0.004,0.969,-9.24,-19.197,5.617
42415820,-0.086,0.015,0.944,-9.012,-13.195,1.68
42415830,-0.111,0.038,0.923,-6.352,-13.72,-2.257
42415840,-0.11,-0.006,0.883,-2.922,-16.852,-5.565
42415850,-0.07,0.038,0.881,1.995,-18.34,-7.297
42415860,-0.072,0.034,0.874,3.552,-15.365,-6.615
42415870,-0.128,0.017,0.886,4.007,-10.447,-4.147
42415880,-0.175,0.017,0.904,4.882,-8.785,-2.712
42415890,-0.191,0.01,0.93,6.195,-9.52,-2.817
42415900,-0.226,-0.006,0.948,8.662,-12.495,-4.112
42415910,-0.193,0,0.954,12.687,-17.85,-5.232
42415920,-0.128,0.02,0.957,16.17,-19.565,-3.132
42415920,-0.138,-0.001,0.949,18.392,-14.525,-0.91
42415940,-0.152,0.003,0.942,19.88,-11.375,-0.14
42415940,-0.086,-0.015,0.934,20.807,-9.992,0.437
42415960,-0.069,-0.02,0.935,22.085,-6.422,0.332
42415960,-0.087,0.016,0.951,24.78,-7.665,0.595
42415980,-0.143,-0.041,0.947,27.597,-13.282,1.715
42415980,-0.225,-0.002,0.992,33.95,-25.917,0.752
42416000,-0.198,0.051,1.038,38.045,-41.195,-2.117
42416000,-0.273,0.055,1.045,40.775,-54.495,-3.692
42416010,-0.073,0.149,1.089,42.7,-60.637,-1.382
42416020,-0.112,0.118,1.082,37.222,-49.997,-1.172
42416030,-0.155,0.111,1.06,32.41,-43.61,-1.417
42416040,-0.092,0.113,1.018,28.647,-44.975,-1.855
42416050,-0.063,0.081,0.967,26.495,-47.215,0.07
42416060,-0.009,0.041,0.915,27.265,-50.75,-0.332
42416070,0.138,0.083,0.886,30.922,-50.12,-2.257
42416080,0.26,0.058,0.875,31.71,-37.59,-6.3
42416090,0.201,0.017,0.853,31.867,-19.53,-13.055
42416100,0.157,0.033,0.851,35.367,-12.022,-16.345
42416110,0.221,0.074,0.863,37.957,-7.84,-16.117
42416120,0.2,0.09,0.915,36.627,4.48,-14.945
42416130,0.071,0.088,0.988,33.862,15.96,-15.347
42416140,-0.014,0.075,1.043,31.57,18.217,-17.552
42416150,-0.095,0.06,1.051,28.227,20.615,-20.247
42416160,-0.273,0.076,1.046,24.447,23.03,-20.405
42416170,-0.368,0.062,1.073,21.227,16.135,-18.585
42416180,-0.305,0.081,1.102,20.685,1.645,-16.065
42416190,-0.218,0.127,1.115,20.352,-11.375,-12.477
42416200,-0.129,0.102,1.126,17.64,-20.667,-8.61
42416210,-0.071,0.14,1.101,17.36,-28.542,-6.055
42416220,0.117,0.161,1.051,16.047,-35.595,-4.952
42416230,0.276,0.194,1.027,13.125,-26.705,-6.142
42416240,0.305,0.213,1.029,8.277,-6.667,-6.72
42416250,0.15,0.207,1.02,3.99,10.027,-7.245
42416260,0.055,0.24,1.069,1.085,9.922,-7.77
42416270,0.033,0.262,1.131,-3.675,4.322,-7.35
42416280,-0.101,0.269,1.185,-9.275,0.595,-7.35
42416290,-0.205,0.299,1.197,-13.982,-10.255,-6.405
42416300,-0.218,0.328,1.16,-20.125,-25.2,-4.83
42416310,-0.136,0.356,1.152,-26.862,-35.84,-3.762
42416320,-0.05,0.366,1.153,-34.51,-37.397,-1.977
42416330,0.094,0.363,1.146,-43.715,-32.165,0.105
42416330,0.288,0.335,1.12,-56.525,-14.35,-1.767
42416350,0.529,0.246,1.039,-71.925,23.24,-7.822
42416350,0.496,0.137,0.982,-84.752,74.41,-13.615
42416370,0.305,0.045,0.963,-90.317,112.997,-17.92
42416370,0.184,0.011,0.988,-90.702,128.03,-22.767
42416390,0.108,0.037,0.966,-95.445,125.002,-32.935
42416390,-0.048,-0.144,0.856,-107.45,120.47,-34.002
42416410,-0.129,-0.176,0.798,-88.707,121.31,-37.257
42416410,-0.201,-0.266,0.805,-67.83,102.252,-37.502
42416420,-0.075,-0.183,0.772,-47.932,83.877,-34.947
42416430,0.023,-0.228,0.794,-25.585,89.11,-36.225
42416440,0.01,-0.31,0.949,1.925,111.982,-32.427
42416450,0.093,-0.138,1.108,34.527,146.037,-35.595
42416460,-0.105,-0.103,1.144,56.787,182.595,-45.29
42416470,-0.243,-0.133,1.136,75.407,198.152,-57.032
42416480,-0.343,-0.142,1.096,93.59,194.18,-70.507
42416490,-0.459,-0.126,1.029,111.475,167.282,-79.887
42416500,-0.431,-0.017,0.956,126.49,128.87,-89.285
42416510,-0.461,0.072,0.876,131.897,86.8,-99.277
42416520,-0.51,0.162,0.831,130.462,39.13,-116.182
42416530,-0.569,0.275,0.786,120.785,-15.33,-136.885
42416540,-0.603,0.361,0.722,103.897,-76.16,-159.705
42416550,-0.563,0.403,0.658,76.685,-143.01,-179.41
42416560,-0.514,0.396,0.614,45.675,-207.812,-188.807
42416570,-0.389,0.404,0.58,17.22,-263.445,-191.362
42416580,-0.228,0.387,0.569,-9.047,-298.13,-181.947
42416590,-0.094,0.33,0.564,-34.16,-307.282,-164.972
42416600,0.009,0.285,0.579,-56.315,-291.637,-149.502
42416610,0.121,0.217,0.592,-73.517,-256.725,-139.475
42416620,0.215,0.164,0.622,-84.472,-205.852,-131.022
42416630,0.208,0.107,0.686,-93.52,-149.1,-114.135
42416640,0.148,0.043,0.742,-101.202,-96.442,-97.632
42416650,0.054,-0.08,0.788,-104.212,-52.762,-88.987
42416660,-0.064,-0.123,0.85,-101.045,-22.33,-89.757
42416670,-0.169,-0.147,0.906,-96.18,-7.175,-90.51
42416670,-0.261,-0.199,0.963,-85.977,-6.615,-83.93
42416690,-0.289,-0.226,1.006,-69.44,-16.695,-80.132
42416690,-0.225,-0.186,1.025,-48.597,-29.347,-78.435
42416710,-0.217,-0.14,1.054,-28.472,-38.832,-64.522
42416710,-0.217,-0.167,1.076,-13.37,-47.285,-49.787
42416730,-0.062,-0.164,1.03,-7.56,-52.377,-52.15
42416730,-0.012,-0.11,1.032,0.822,-44.712,-53.567
42416750,-0.055,-0.098,1.067,3.972,-36.785,-36.557
42416750,-0.021,-0.12,1.071,3.167,-32.077,-31.027
42416760,-0.017,-0.11,1.081,1.137,-26.32,-29.645
42416770,0.003,-0.096,1.077,-2.38,-20.492,-29.802
42416780,0.029,-0.118,1.084,-5.285,-13.002,-27.807
42416790,0.051,-0.123,1.071,-6.142,-3.727,-25.147
42416800,0.051,-0.123,1.071,-5.022,7,-21.875
42416810,0.056,-0.113,1.07,-4.007,16.24,-20.02
42416820,0.038,-0.128,1.076,-2.782,22.54,-17.272
42416830,0.011,-0.145,1.076,-1.365,25.095,-15.172
42416840,0.036,-0.079,1.087,0.315,25.987,-17.867
42416850,-0.105,-0.073,1.092,-1.872,23.362,-4.707
42416860,0.024,-0.228,1.044,-5.915,14.577,-13.912
42416870,0.094,-0.134,0.979,2.03,18.165,-33.25
42416880,-0.01,-0.078,1.016,11.777,24.097,-13.37
42416890,0.01,-0.154,1.001,15.96,21.507,-9.607
42416900,-0.014,-0.107,1.004,20.3,19.232,-12.67
42416910,0,-0.083,0.998,19.495,14.63,-17.237
42416920,0.037,-0.105,0.976,16.257,12.057,-20.702
42416930,0.027,-0.083,0.984,13.125,13.387,-21.437
42416940,0.02,-0.088,0.973,7.227,15.312,-22.47
42416950,0.02,-0.086,0.963,1.277,18.025,-24.727
42416960,0,-0.075,0.976,-5.477,20.3,-26.705
42416970,0.002,-0.083,0.972,-15.977,20.545,-31.412
42416980,-0.018,-0.114,0.973,-26.652,21.42,-35.945
42416990,-0.033,-0.128,0.972,-34.877,21.805,-39.41
42417000,-0.026,-0.126,0.985,-42.472,20.842,-42.332
42417010,-0.008,-0.126,0.974,-51.677,20.527,-46.742
42417020,0.014,-0.133,0.965,-61.39,22.627,-50.505
42417030,0.029,-0.157,0.952,-71.277,27.842,-51.677
42417040,0.052,-0.192,0.94,-78.05,35.595,-52.797
42417050,0.06,-0.197,0.932,-82.407,46.165,-54.32
42417060,0.02,-0.204,0.928,-87.325,56.28,-53.182
42417070,-0.07,-0.263,0.933,-87.202,60.2,-47.617
42417080,-0.143,-0.357,0.953,-78.05,52.29,-40.092
42417080,-0.165,-0.423,0.971,-60.69,34.457,-34.58
42417100,-0.185,-0.43,1.006,-37.135,11.725,-31.15
42417100,-0.121,-0.392,1.001,-15.225,-11.095,-27.352
42417120,-0.007,-0.33,1.011,0.017,-23.572,-19.285
42417120,0.026,-0.352,1.009,7.367,-24.692,-8.627
42417140,0.088,-0.368,1.006,11.637,-11.235,-3.692
42417140,0.035,-0.348,1.004,16.45,7.63,-2.397
42417150,0.031,-0.325,1.024,16.047,20.79,1.942
42417160,0.005,-0.308,1.039,8.75,30.485,8.96
42417170,0.02,-0.309,1.042,0.017,40.705,15.872
42417180,0.045,-0.272,1.071,-8.312,56.595,21.175
42417190,-0.061,-0.201,1.111,-26.74,67.497,27.685
42417200,-0.06,-0.358,1.088,-56.787,70.14,28.962
42417210,-0.042,-0.461,1.081,-65.082,80.92,18.497
42417220,-0.151,-0.397,1.056,-59.692,82.582,14.14
42417230,-0.222,-0.378,1.027,-59.622,69.965,13.247
42417240,-0.235,-0.475,1.012,-58.905,52.605,14.245
42417250,-0.168,-0.458,0.983,-50.82,38.815,12.547
42417260,-0.176,-0.402,0.957,-42.91,30.152,11.97
42417270,-0.201,-0.411,0.941,-37.905,21.315,15.785
42417280,-0.229,-0.418,0.935,-29.977,9.17,20.405
42417290,-0.18,-0.399,0.913,-18.445,-4.742,22.872
42417300,-0.155,-0.364,0.886,-8.522,-13.23,27.825
42417310,-0.158,-0.368,0.881,-1.207,-17.01,35.35
42417320,-0.167,-0.366,0.9,9.275,-20.877,44.642
42417330,-0.077,-0.325,0.895,18.917,-23.45,55.02
42417340,-0.018,-0.346,0.872,22.347,-12.88,66.062
42417350,-0.023,-0.402,0.882,22.89,10.36,74.13
42417360,-0.093,-0.402,0.921,21.577,36.487,74.06
42417370,-0.168,-0.42,0.939,21.892,57.942,68.6
42417380,-0.226,-0.403,0.948,26.32,71.925,62.265
42417390,-0.292,-0.378,0.964,32.025,77.087,59.412
42417400,-0.298,-0.392,0.952,36.785,76.947,65.047
42417410,-0.436,-0.353,0.977,39.095,72.555,75.757
42417420,-0.39,-0.311,0.966,39.06,61.232,82.232
42417420,-0.391,-0.303,0.955,35.577,52.972,94.342
42417440,-0.35,-0.289,0.919,30.31,49.525,103.827
42417440,-0.359,-0.276,0.903,25.83,50.575,115.29
42417460,-0.372,-0.307,0.885,26.792,55.982,128.415
42417460,-0.378,-0.312,0.844,30.537,65.8,133.91
42417480,-0.402,-0.263,0.846,36.925,80.045,134.977
42417480,-0.439,-0.222,0.857,41.982,95.007,133.927
42417500,-0.488,-0.177,0.863,44.607,106.102,131.792
42417500,-0.488,-0.156,0.882,43.907,111.457,133.157
42417510,-0.512,-0.112,0.885,41.982,115.745,136.307
42417520,-0.557,-0.071,0.877,37.817,120.33,131.705
42417530,-0.571,-0.041,0.855,33.162,123.165,118.982
42417540,-0.495,-0.02,0.795,32.637,124.18,111.422
42417550,-0.456,-0.024,0.765,32.987,129.552,106.4
42417560,-0.474,-0.049,0.713,35.245,136.395,102.252
42417570,-0.558,-0.027,0.729,42.28,141.347,99.12
42417580,-0.611,0.013,0.728,53.795,138.407,98.21
42417590,-0.67,0.04,0.727,61.495,131.145,97.195
42417600,-0.742,0.084,0.747,64.68,119.315,93.222
42417610,-0.729,0.165,0.764,63.35,104.282,86.835
42417620,-0.72,0.203,0.777,56.367,90.055,81.165
42417630,-0.715,0.24,0.767,47.162,76.405,73.167
42417640,-0.654,0.219,0.721,38.045,66.342,62.02
42417650,-0.562,0.233,0.671,29.295,64.155,54.635
42417660,-0.525,0.256,0.66,17.115,70.227,52.71
42417670,-0.567,0.275,0.646,5.18,77.787,50.575
42417680,-0.596,0.267,0.639,-5.565,82.512,49.77
42417690,-0.614,0.27,0.64,-16.135,84.595,46.602
42417700,-0.626,0.284,0.637,-27.142,85.137,39.987
42417710,-0.666,0.276,0.611,-38.675,85.26,34.125
42417720,-0.658,0.265,0.576,-52.08,85.627,27.562
42417730,-0.661,0.28,0.586,-69.142,86.66,23.31
42417740,-0.756,0.271,0.572,-85.785,81.725,21.77
42417750,-0.705,0.225,0.548,-101.482,74.532,18.602
42417760,-0.631,0.176,0.548,-112.017,74.41,18.007
42417770,-0.784,0.07,0.599,-108.185,74.322,21.665
42417780,-0.889,0.016,0.674,-88.182,64.54,26.827
42417790,-0.778,0.039,0.663,-61.407,48.492,29.19
42417800,-0.611,0.175,0.626,-46.165,53.865,28.017
42417810,-0.826,0.136,0.641,-47.39,71.505,20.23
42417820,-0.973,0.108,0.626,-45.08,67.287,3.815
42417820,-0.949,0.065,0.582,-46.095,43.995,-3.167
42417830,-0.881,0.081,0.588,-46.392,27.597,-10.885
42417840,-0.913,0.088,0.583,-41.912,15.05,-14.595
42417850,-0.939,0.024,0.6,-38.272,-2.222,-15.242
42417860,-0.951,-0.018,0.601,-30.59,-23.8,-17.465
42417870,-0.909,-0.006,0.591,-20.58,-44.66,-18.147
42417880,-0.824,0.001,0.572,-10.185,-61.53,-14.315
42417890,-0.748,-0.027,0.597,3.027,-69.3,-8.19
42417900,-0.563,-0.009,0.522,18.69,-62.387,-3.202
42417910,-0.568,-0.015,0.642,23.852,-39.9,9.135
42417920,-0.656,0.061,0.676,28.402,-11.13,11.9
42417930,-0.749,0.041,0.735,27.072,8.75,10.08
42417940,-0.751,0.088,0.656,16.24,11.27,6.79
42417950,-0.722,0.174,0.726,-11.217,14.875,9.537
42417960,-0.835,0.094,0.683,-22.015,23.8,14.752
42417970,-0.93,-0.081,0.575,-31.202,22.837,12.6
42417980,-0.907,-0.126,0.536,-28,12.425,7.857
42417990,-0.965,-0.111,0.558,-8.785,-3.15,5.355
42418000,-0.942,-0.108,0.583,12.092,-22.19,1.855
42418010,-0.905,-0.057,0.618,32.987,-36.942,-1.33
42418020,-0.888,-0.032,0.646,48.44,-47.67,-7.77
42418030,-0.796,0.102,0.671,57.155,-54.67,-15.487
42418040,-0.692,0.155,0.651,53.427,-55.125,-20.002
42418050,-0.678,0.158,0.623,41.72,-46.987,-27.597
42418060,-0.733,0.117,0.594,28.105,-38.885,-34.842
42418070,-0.77,0.093,0.577,16.957,-39.777,-36.452
42418080,-0.731,0.068,0.595,13.615,-51.205,-29.61
42418090,-0.86,0.05,0.541,2.87,-69.965,-18.672
42418100,-0.578,-0.069,0.575,-3.465,-84.875,-14.42
42418110,-0.431,0.093,0.597,1.697,-60.427,-17.762
42418120,-0.763,0.116,0.655,-1.12,-41.09,-17.482
42418130,-0.675,0.015,0.642,-6.755,-35.262,-21.647
42418140,-0.615,0.022,0.633,-9.17,-29.242,-25.305
42418150,-0.576,0.004,0.671,-12.6,-15.067,-25.497
42418160,-0.636,-0.058,0.678,-11.427,6.422,-23.835
42418170,-0.675,-0.031,0.763,-8.312,24.535,-25.112
42418170,-0.699,0.01,0.778,-4.865,38.675,-22.925
42418190,-0.786,-0.006,0.73,-9.59,50.347,-27.405
42418190,-0.967,-0.019,0.745,-18.165,52.29,-32.952
42418210,-1.088,-0.011,0.749,-23.485,29.785,-36.89
42418210,-1.113,0.001,0.724,-26.39,-8.225,-37.275
42418230,-0.947,-0.003,0.695,-28.157,-46.375,-33.092
42418230,-0.771,0.115,0.693,-35.017,-66.552,-27.317
42418250,-0.672,0.096,0.689,-50.032,-71.662,-26.425
42418250,-0.51,-0.086,0.721,-53.2,-66.78,-25.812
42418260,-0.505,-0.172,0.72,-38.22,-56.752,-29.89
42418270,-0.569,-0.07,0.672,-18.217,-44.187,-29.085
42418280,-0.633,0.098,0.584,-13.422,-44.625,-35.472
42418290,-0.3,-0.149,0.598,-17.64,-35.262,-23.782
42418300,-0.396,-0.119,0.673,-1.907,18.742,-11.62
42418310,-0.708,-0.013,0.691,7.385,58.345,-14.052
42418320,-0.819,-0.066,0.664,7.805,64.19,-10.115
42418330,-0.906,-0.094,0.689,2.625,50.942,-6.212
42418340,-0.945,-0.124,0.713,-1.242,34.615,-1.75
42418350,-0.889,-0.129,0.71,-0.367,19.285,-0.245
42418360,-0.931,-0.083,0.692,0.315,11.27,3.062
42418370,-0.994,-0.079,0.688,-3.237,1.592,4.077
42418380,-0.935,-0.121,0.705,-4.095,-9.765,11.06
42418390,-0.906,-0.111,0.695,0.227,-16.432,12.372
42418400,-0.921,-0.072,0.705,4.865,-24.482,13.387
42418410,-0.851,-0.059,0.719,7.087,-34.09,14.367
42418420,-0.812,-0.065,0.773,7.56,-41.667,13.72
42418430,-0.793,-0.06,0.796,9.397,-45.237,8.977
42418440,-0.778,-0.062,0.786,11.637,-49.28,3.465
42418450,-0.714,-0.034,0.769,15.295,-53.742,-2.397
42418460,-0.679,0.003,0.765,16.17,-55.23,-4.287
42418470,-0.643,0.016,0.745,14.752,-55.142,-4.48
42418480,-0.662,-0.003,0.743,10.272,-53.62,-5.442
42418490,-0.68,0.003,0.749,7.612,-54.74,-5.442
42418500,-0.676,0.005,0.753,2.94,-58.782,-4.935
42418510,-0.727,-0.004,0.76,-2.747,-63.612,-2.625
42418510,-0.745,-0.028,0.767,-8.137,-69.895,-0.175
42418530,-0.76,-0.054,0.759,-11.077,-75.407,1.365
42418530,-0.702,-0.048,0.763,-11.55,-77.315,0.84
42418550,-0.602,-0.006,0.769,-14.105,-71.662,1.872
42418550,-0.64,-0.011,0.765,-20.16,-59.517,2.852
42418570,-0.687,-0.021,0.721,-26.74,-50.172,0.262
42418570,-0.733,-0.002,0.698,-35.402,-44.082,-2.905
42418580,-0.745,-0.127,0.716,-39.795,-45.342,-4.2
42418590,-0.589,-0.154,0.736,-29.172,-47.127,-10.552
42418600,-0.631,-0.089,0.788,-18.392,-43.54,-13.65
42418610,-0.636,-0.09,0.798,-14.717,-43.155,-15.102
42418620,-0.558,-0.075,0.802,-14.297,-44.485,-16.082
42418630,-0.538,-0.054,0.793,-16.8,-41.002,-16.782
42418640,-0.545,-0.084,0.783,-20.597,-36.837,-17.832
42418650,-0.536,-0.12,0.771,-22.26,-34.335,-20.282
42418660,-0.514,-0.115,0.772,-21.63,-31.5,-23.397
42418670,-0.5,-0.112,0.765,-21.35,-28.087,-25.76
42418680,-0.511,-0.121,0.761,-20.912,-25.2,-25.287
42418690,-0.512,-0.119,0.769,-20.912,-25.392,-22.82
42418700,-0.482,-0.132,0.775,-22.312,-25.077,-19.6
42418710,-0.437,-0.116,0.796,-25.042,-19.932,-16.607
42418720,-0.409,-0.107,0.811,-29.75,-10.657,-15.4
42418730,-0.39,-0.105,0.832,-35.14,-1.452,-14.56
42418740,-0.379,-0.121,0.877,-41.597,3.29,-11.427
42418750,-0.314,-0.132,0.867,-46.497,6.545,-7.612
42418760,-0.309,-0.151,0.838,-46.655,12.372,-3.43
42418770,-0.342,-0.188,0.802,-42.525,19.81,0.7
42418780,-0.396,-0.215,0.782,-35.437,25.952,2.222
42418790,-0.438,-0.216,0.785,-28.402,30.765,-0.245
42418800,-0.491,-0.226,0.802,-22.032,34.562,-2.66
42418810,-0.561,-0.248,0.804,-15.47,35.42,-5.022
42418820,-0.638,-0.266,0.816,-9.047,32.217,-7.875
42418830,-0.703,-0.279,0.827,-4.41,24.622,-12.582
42418840,-0.799,-0.269,0.851,-0.455,12.162,-16.397
42418850,-0.614,-0.289,0.862,4.497,-6.387,-18.707
42418860,-0.65,-0.209,0.854,4.392,-8.295,-13.195
42418870,-0.734,-0.258,0.847,0.227,-13.177,-8.662
42418880,-0.677,-0.284,0.852,1.592,-25.602,-2.485
42418890,-0.548,-0.154,0.785,-1.225,-30.852,0.21
42418900,-0.587,-0.175,0.739,-13.335,-24.815,6.02
42418910,-0.557,-0.197,0.698,-18.812,-15.26,6.93
42418920,-0.567,-0.208,0.685,-20.737,-6.37,2.625
42418920,-0.545,-0.202,0.684,-17.972,-2.03,0.49
42418940,-0.549,-0.186,0.672,-14.717,3.342,-0.665
42418940,-0.623,-0.238,0.7,-12.845,9.467,-2.152
42418960,-0.648,-0.257,0.722,-6.072,9.012,-5.285
42418960,-0.633,-0.237,0.753,2.852,4.655,-8.295
42418980,-0.618,-0.222,0.792,7.542,1.645,-9.852
42418980,-0.622,-0.209,0.817,8.452,0.332,-9.66
42419000,-0.636,-0.209,0.824,6.685,-1.47,-7.857
42419000,-0.641,-0.208,0.832,3.535,-3.937,-6.09
42419010,-0.659,-0.219,0.817,0.262,-8.925,-2.835
42419020,-0.639,-0.215,0.808,-3.202,-15.277,3.22
42419030,-0.594,-0.215,0.799,-6.265,-18.13,6.93
42419040,-0.564,-0.209,0.794,-8.26,-17.22,6.632
42419050,-0.525,-0.192,0.807,-9.362,-15.855,5.232
42419060,-0.491,-0.181,0.817,-9.677,-13.562,3.692
42419070,-0.491,-0.181,0.829,-10.325,-11.007,2.327
42419080,-0.466,-0.202,0.836,-13.177,-10.045,2.257
42419090,-0.44,-0.224,0.835,-16.012,-8.89,3.5
42419100,-0.43,-0.222,0.829,-18.9,-6.772,5.985
42419110,-0.413,-0.223,0.808,-23.1,-3.85,9.24
42419120,-0.389,-0.21,0.776,-26.652,2.17,11.707
42419130,-0.438,-0.215,0.742,-28.157,11.287,13.3
42419140,-0.507,-0.262,0.733,-26.145,18.112,11.637
42419150,-0.542,-0.273,0.75,-19.862,22.47,8.592
42419160,-0.613,-0.293,0.772,-13.317,24.307,6.107
42419170,-0.654,-0.294,0.781,-5.722,23.205,3.587
42419180,-0.66,-0.273,0.795,1.277,19.967,0.525
42419190,-0.678,-0.256,0.814,4.427,17.395,-1.417
42419200,-0.692,-0.237,0.824,4.9,13.352,-1.032
42419210,-0.671,-0.242,0.808,3.815,8.487,-0.665
42419220,-0.681,-0.246,0.801,2.695,4.742,-1.575
42419230,-0.657,-0.241,0.788,1.855,1.015,-3.64
42419240,-0.656,-0.24,0.774,1.015,-3.447,-4.217
42419250,-0.637,-0.246,0.755,0.367,-6.667,-4.06
42419260,-0.612,-0.239,0.747,1.452,-7.385,-3.815
42419260,-0.591,-0.234,0.741,3.097,-6.667,-2.87
42419280,-0.575,-0.231,0.726,4.865,-6.212,-1.4
42419280,-0.54,-0.23,0.705,7.735,-5.705,0.35
42419300,-0.514,-0.224,0.69,11.2,-3.552,1.872
42419300,-0.521,-0.232,0.699,14.77,-0.682,3.097
42419320,-0.52,-0.232,0.719,18.725,1.032,2.975
42419320,-0.517,-0.234,0.747,22.137,2.712,3.045
42419330,-0.54,-0.226,0.772,24.062,5.25,3.307
42419340,-0.585,-0.236,0.776,24.692,5.46,3.412
42419350,-0.649,-0.273,0.71,27.527,0.665,2.905
42419360,-0.631,-0.293,0.677,39.55,-12.285,-0.752
42419370,-0.622,-0.282,0.626,55.23,-23.572,3.255
42419380,-0.652,-0.293,0.611,70.542,-39.287,8.522
42419390,-0.532,-0.273,0.685,86.747,-57.75,22.4
42419400,-0.529,-0.179,0.747,97.125,-71.452,44.17
42419410,-0.34,-0.058,0.828,97.842,-73.71,73.5
42419420,-0.246,0.058,0.847,87.675,-56.735,107.485
42419430,-0.344,0.033,0.889,60.217,-23.222,134.382
42419440,-0.496,-0.095,0.903,29.697,13.247,124.88
42419450,-0.545,-0.106,1,8.312,41.72,85.505
42419460,-0.636,-0.089,1.074,-7.455,57.627,42.822
42419470,-0.737,-0.151,1.12,-14.21,55.3,9.082
42419480,-0.89,-0.182,1.113,-11.777,37.87,-9.03
42419490,-0.941,-0.135,1.06,-2.607,8.015,-13.58
42419500,-0.82,-0.097,0.988,4.287,-22.802,-14.63
42419510,-0.679,-0.058,0.931,6.37,-39.497,-11.497
42419520,-0.652,-0.035,0.874,3.045,-42.892,-7.472
42419530,-0.623,-0.012,0.823,-1.137,-42.98,-8.12
42419540,-0.616,-0.024,0.794,-5.18,-45.762,-6.23
42419550,-0.57,-0.03,0.795,-7.682,-50.557,-0.665
42419560,-0.53,-0.051,0.801,-8.487,-51.502,5.11
42419570,-0.5,-0.05,0.823,-8.54,-48.055,6.58
42419580,-0.491,-0.04,0.846,-10.132,-43.837,6.632
42419590,-0.477,-0.037,0.877,-13.947,-40.635,7.105
42419600,-0.476,-0.046,0.9,-19.407,-37.31,5.862
42419610,-0.499,-0.06,0.911,-25.077,-34.51,3.605
42419620,-0.522,-0.075,0.92,-30.065,-35.315,2.642
42419630,-0.558,-0.105,0.914,-33.81,-40.6,3.395
42419640,-0.645,-0.111,0.942,-35.805,-50.802,5.407
42419650,-0.625,-0.16,0.907,-35.105,-73.08,8.557
42419660,-0.564,-0.137,0.882,-33.022,-86.257,13.265
42419670,-0.615,-0.14,0.854,-32.305,-93.24,14.98
42419670,-0.574,-0.138,0.81,-30.607,-97.93,14.262
42419690,-0.625,-0.121,0.78,-28.472,-105,14.77
42419690,-0.515,-0.092,0.781,-25.165,-113.785,14.542
42419710,-0.41,-0.089,0.795,-22.522,-114.467,14.035
42419710,-0.391,-0.095,0.853,-19.722,-107.24,9.572
42419730,-0.335,-0.102,0.916,-16.415,-99.382,4.252
42419730,-0.365,-0.118,0.97,-14.052,-93.38,2.362
42419750,-0.405,-0.153,1.014,-11.13,-94.22,2.502
42419750,-0.359,-0.141,1.043,-8.085,-99.417,0.945
42419760,-0.373,-0.144,1.057,-7.612,-105.857,-0.927
42419770,-0.332,-0.141,1.051,-10.22,-113.295,-1.522
42419780,-0.312,-0.172,1.067,-13.667,-117.127,-1.592
42419790,-0.274,-0.236,1.023,-13.475,-125.58,-7.927
42419800,-0.124,-0.17,0.951,-13.527,-129.78,-12.862
42419810,-0.155,-0.143,0.93,-20.195,-117.197,-8.225
42419820,-0.183,-0.284,0.827,-21.455,-112.14,-14.367
42419830,-0.066,-0.191,0.772,-15.837,-109.427,-15.54
42419840,-0.067,-0.132,0.77,-17.517,-95.2,-3.745
42419850,-0.034,-0.165,0.774,-22.085,-74.147,-0.437
42419860,-0.098,-0.17,0.782,-23.677,-52.78,4.935
42419870,-0.159,-0.182,0.804,-23.03,-38.727,11.76
42419880,-0.14,-0.212,0.827,-18.147,-31.185,17.412
42419890,-0.233,-0.237,0.878,-11.252,-28.875,21.367
42419900,-0.216,-0.223,0.934,-4.217,-34.125,20.44
42419910,-0.141,-0.213,0.966,3.22,-40.232,17.255
42419920,-0.094,-0.186,0.959,10.675,-42.455,13.755
42419930,-0.031,-0.141,0.975,15.382,-45.167,11.935
42419940,0.048,-0.114,0.966,16.047,-44.73,10.307
42419950,0.05,-0.107,0.964,14.647,-40.057,6.685
42419960,0.028,-0.103,0.964,12.18,-37.327,2.992
42419970,0.062,-0.109,0.963,8.592,-35.35,-0.49
42419980,0.056,-0.135,0.963,5.442,-30.292,-2.922
42419990,0.007,-0.155,0.959,4.602,-24.64,-5.127
42420000,-0.006,-0.157,0.956,6.037,-20.615,-6.282
42420010,-0.028,-0.168,0.943,7.822,-15.61,-5.11
42420010,-0.114,-0.191,0.945,10.5,-12.162,-3.482
42420030,-0.137,-0.209,0.936,15.19,-13.265,-3.342
42420030,-0.144,-0.202,0.919,22.015,-15.4,-4.935
42420050,-0.122,-0.169,0.919,27.072,-18.095,-5.635
42420050,-0.02,-0.147,0.932,26.95,-18.217,-3.657
42420070,0.064,-0.156,0.935,23.345,-9.082,-1.645
42420070,0.131,-0.164,0.925,19.197,7.822,-0.35
42420080,0.159,-0.163,0.905,15.557,29.575,1.592
42420090,0.149,-0.162,0.902,11.112,51.782,2.397
42420100,0.142,-0.151,0.91,5.057,72.8,2.852
42420110,0.178,-0.155,0.91,-1.295,91.665,2.205
42420120,0.151,-0.16,0.881,-5.32,111.177,2.222
42420130,0.184,-0.104,0.826,-5.88,131.46,1.12
