time[ms],accX[g],accY[g],accZ[g],Value 1,Value 2,Value 3
51492180,-0.645,-0.454,0.633,-13.3,-70.21,-51.432
51492190,-0.607,-0.533,0.666,-0.612,-72.38,-48.002
51492200,-0.539,-0.649,0.668,19.04,-71.05,-37.415
51492210,-0.569,-0.617,0.632,46.567,-63.892,-17.78
51492220,-0.613,-0.517,0.741,72.887,-56.717,-2.8
51492230,-0.415,-0.361,0.865,73.832,-43.82,2.135
51492240,-0.495,-0.354,0.913,42.472,-25.935,13.195
51492250,-0.478,-0.401,0.768,6.562,-9.047,20.177
51492260,-0.634,-0.444,0.649,-5.25,3.307,29.085
51492270,-0.771,-0.502,0.66,7.262,-0.822,36.085
51492280,-0.513,-0.424,0.636,29.102,-11.34,38.097
51492290,-0.555,-0.334,0.693,49.245,-11.305,48.86
51492300,-0.626,-0.271,0.737,55.632,-12.88,52.657
51492310,-0.565,-0.254,0.736,54.775,-17.465,46.077
51492320,-0.569,-0.29,0.791,60.042,-17.955,37.45
51492330,-0.546,-0.298,0.75,65.432,-20.965,27.125
51492340,-0.4,-0.203,0.763,68.897,-19.302,22.085
51492350,-0.45,-0.178,0.78,68.127,-8.697,26.705
51492360,-0.481,-0.202,0.728,66.237,-0.717,31.412
51492370,-0.399,-0.15,0.75,69.492,8.995,34.422
51492380,-0.434,-0.127,0.729,67.182,24.272,41.527
51492390,-0.465,-0.133,0.71,66.622,41.405,48.195
51492400,-0.544,-0.122,0.673,66.027,56.385,54.425
51492410,-0.607,-0.14,0.632,71.137,67.69,59.71
51492420,-0.676,-0.141,0.623,82.022,75.617,68.32
51492420,-0.727,-0.104,0.614,88.655,78.837,75.075
51492440,-0.76,-0.084,0.614,93.52,79.8,78.085
51492440,-0.835,-0.118,0.58,98.77,77.892,84
51492460,-0.834,-0.087,0.608,108.587,75.512,82.477
51492460,-0.863,-0.025,0.634,108.675,73.185,77.175
51492480,-0.984,-0.034,0.644,99.19,65.922,72.065
51492480,-0.982,-0.04,0.647,90.055,52.395,61.53
51492500,-0.873,-0.01,0.622,78.61,43.505,52.797
51492500,-0.863,0.008,0.625,66.325,41.65,47.88
51492510,-0.902,0.003,0.621,50.155,40.932,41.737
51492520,-0.886,-0.028,0.583,36.837,37.59,36.225
51492530,-0.849,-0.05,0.552,30.03,34.387,34.772
51492540,-0.865,-0.072,0.523,26.705,27.93,38.447
51492550,-0.845,-0.117,0.486,33.442,22.61,43.557
51492560,-0.767,-0.083,0.52,42.752,24.482,48.352
51492570,-0.808,-0.112,0.537,51.782,26.74,54.827
51492580,-0.784,-0.07,0.564,61.092,32.06,55.702
51492590,-0.784,-0.05,0.598,67.042,38.832,53.847
51492600,-0.822,-0.008,0.648,66.955,45.132,46.672
51492610,-0.855,0.041,0.691,57.872,48.72,36.802
51492620,-0.897,0.033,0.617,41.86,42.63,27.51
51492630,-0.779,0.037,0.571,29.942,42.49,20.282
51492640,-0.868,0.029,0.572,26.775,43.47,17.587
51492650,-0.88,0.015,0.52,17.762,37.187,19.215
51492660,-0.846,-0.042,0.518,28.017,31.745,21.875
51492670,-0.833,0.071,0.585,32.06,29.925,15.417
51492680,-0.881,0.061,0.569,20.055,28.7,13.37
51492690,-0.862,0.054,0.569,10.762,28.507,6.947
51492700,-0.798,0.055,0.555,1.47,31.867,1.417
51492710,-0.792,0.055,0.539,-4.217,38.535,0.875
51492720,-0.884,0.032,0.458,-12.215,42.77,9.555
51492730,-0.853,0.049,0.493,-11.777,41.265,-1.225
51492740,-0.904,-0.028,0.434,-11.917,35.98,1.995
51492750,-0.881,-0.056,0.426,-0.472,32.235,12.005
51492760,-0.86,0.05,0.475,12.635,30.45,16.642
51492770,-0.899,0.106,0.492,11.27,30.992,17.762
51492780,-0.923,0.077,0.477,5.075,31.85,16.205
51492790,-0.924,0.065,0.488,2.905,31.202,9.52
51492800,-0.977,-0.075,0.417,9.065,27.93,17.027
51492810,-0.907,-0.013,0.479,28.245,27.72,22.767
51492820,-0.93,0.08,0.513,38.15,30.082,24.832
51492830,-0.97,0.125,0.521,36.82,30.415,24.955
51492830,-0.934,0.152,0.492,31.64,29.12,19.687
51492850,-0.936,0.161,0.473,25.812,27.895,15.347
51492850,-0.991,0.145,0.464,17.692,24.99,10.08
51492870,-0.98,0.151,0.452,8.785,18.707,3.885
51492870,-1.004,0.151,0.444,0.717,11.375,1.295
51492890,-1.017,0.156,0.434,-7.28,2.625,-2.082
51492890,-1.005,0.147,0.415,-13.02,-5.232,-7.192
51492910,-0.937,0.105,0.415,-17.237,-11.06,-11.287
51492910,-0.935,0.06,0.426,-12.407,-14.157,-11.042
51492920,-0.881,0.075,0.422,-5.915,-13.79,-9.852
51492930,-0.858,0.114,0.424,0.612,-6.037,-7.472
51492940,-0.944,0.121,0.438,3.027,-2.782,-6.615
51492950,-0.954,0.094,0.427,2.327,-6.912,-9.887
51492960,-0.93,0.073,0.437,7.56,-13.422,-10.675
51492970,-1,0.081,0.466,14.367,-21.525,-10.045
51492980,-1.044,0.109,0.527,18.497,-40.372,-14.892
51492990,-0.703,0.14,0.496,17.395,-55.422,-20.265
51493000,-0.594,0.142,0.462,14.052,-43.032,-10.482
51493010,-0.809,0.09,0.477,10.22,-16.45,4.235
51493020,-0.99,0.1,0.509,6.965,-3.797,9.24
51493030,-0.971,0.127,0.55,6.842,-5.215,5.407
51493040,-0.93,0.104,0.536,2.117,-6.16,1.522
51493050,-1.017,0.079,0.508,0.892,-6.807,0.385
51493060,-0.956,0.111,0.515,2.38,-9.975,-3.08
51493070,-0.925,0.114,0.491,1.085,-12.81,-5.145
51493080,-0.932,0.055,0.539,3.745,-12.32,-4.795
51493090,-0.902,0.115,0.552,9.52,-14.052,-3.797
51493100,-0.796,0.167,0.541,8.33,-14.7,-2.975
51493110,-0.787,0.12,0.517,3.29,-11.06,-1.942
51493120,-0.78,0.092,0.489,2.257,-6.65,1.347
51493130,-0.762,0.106,0.499,6.895,-0.717,7.682
51493140,-0.83,0.14,0.484,6.965,3.832,13.247
51493150,-0.869,0.114,0.455,3.78,4.462,14.892
51493160,-0.945,0.065,0.459,5.565,0.682,15.925
51493170,-0.955,0.065,0.447,9.17,-7.927,12.6
51493170,-0.857,0.16,0.342,11.76,-15.697,6.02
51493190,-0.774,0.149,0.36,10.78,-7.84,2.31
51493190,-0.99,0.058,0.359,9.957,-5.547,8.522
51493210,-0.934,0.118,0.389,14.332,-13.965,9.817
51493210,-0.842,0.181,0.454,14.892,-16.222,10.552
51493230,-0.886,0.162,0.47,7.997,-13.072,11.287
51493230,-0.899,0.15,0.486,5.705,-9.03,10.937
51493250,-0.938,0.164,0.516,5.162,-7.857,9.887
51493250,-0.922,0.178,0.529,2.327,-7.7,5.88
51493260,-0.898,0.155,0.503,-0.262,-5.897,1.382
51493270,-0.925,0.147,0.487,-1.207,-3.395,-1.592
51493280,-0.869,0.167,0.456,-0.892,-3.535,-3.885
51493290,-0.893,0.144,0.463,-1.19,-2.1,-3.85
51493300,-0.934,0.104,0.474,-1.505,-4.847,-5.092
51493310,-0.84,0.139,0.449,1.995,-8.942,-6.09
51493320,-0.798,0.177,0.44,3.885,-7.035,-2.835
51493330,-0.893,0.153,0.466,1.295,-3.99,-0.735
51493340,-0.898,0.128,0.47,1.82,-9.152,-0.7
51493350,-0.804,0.167,0.487,5.302,-11.497,0.07
51493360,-0.827,0.182,0.501,3.99,-8.277,2.012
51493370,-0.852,0.184,0.516,1.347,-3.675,2.17
51493380,-0.88,0.165,0.523,-0.297,-2.73,1.907
51493390,-0.87,0.166,0.521,-1.19,-2.957,0.927
51493400,-0.912,0.174,0.523,-1.68,-2.782,0.577
51493410,-0.896,0.18,0.498,-4.637,-2.082,-2.695
51493420,-0.914,0.165,0.475,-6.982,-2.415,-5.512
51493430,-0.926,0.145,0.452,-7.752,-4.287,-7.91
51493440,-0.926,0.133,0.441,-8.33,-5.985,-10.832
51493450,-0.921,0.131,0.451,-8.627,-7.665,-13.72
51493460,-0.937,0.119,0.46,-8.382,-10.85,-15.452
51493470,-0.936,0.098,0.453,-8.715,-16.047,-17.675
51493480,-0.91,0.079,0.454,-7.647,-19.582,-18.987
51493490,-0.896,0.087,0.457,-6.317,-21.665,-18.725
51493500,-0.875,0.094,0.477,-5.407,-23.642,-16.17
51493510,-0.843,0.096,0.495,-6.055,-24.675,-10.727
51493520,-0.847,0.102,0.516,-8.417,-23.222,-7.14
51493530,-0.845,0.072,0.518,-6.667,-22.837,-3.57
51493540,-0.787,0.103,0.534,-3.902,-18.742,-5.215
51493550,-0.824,0.11,0.537,-2.782,-14.49,-3.692
51493560,-0.829,0.109,0.521,-2.835,-12.845,-4.2
51493570,-0.812,0.108,0.503,-0.945,-12.442,-5.04
51493580,-0.826,0.113,0.5,1.207,-11.41,-4.917
51493580,-0.824,0.101,0.51,1.715,-12.565,-5.425
51493600,-0.753,0.101,0.545,1.995,-9.222,-5.372
51493600,-1.024,0.085,0.423,-1.417,-14.927,-4.077
51493620,-0.511,0.024,0.337,-5.915,-34.912,-11.777
51493620,-0.37,0.045,0.417,7.682,2.117,10.15
51493640,-0.996,0.178,0.519,6.125,13.23,23.59
51493640,-0.917,0.092,0.534,0.07,7.63,19.25
51493660,-1.046,0.058,0.622,12.652,-1.522,22.277
51493660,-1.099,0.105,0.615,4.445,-11.252,14.385
51493670,-1.014,0.146,0.62,6.51,-19.792,4.62
51493680,-0.976,0.174,0.559,3.167,-24.15,-2.292
51493690,-0.955,0.139,0.516,-3.587,-30.905,-6.755
51493700,-0.848,0.142,0.535,-0.752,-37.065,-7.945
51493710,-0.795,0.16,0.563,-0.087,-41.457,-5.582
51493720,-0.765,0.177,0.603,-4.515,-41.597,-0.525
51493730,-0.78,0.155,0.628,-9.117,-40.845,7.945
51493740,-0.765,0.127,0.614,-10.045,-39.252,9.292
51493750,-0.73,0.139,0.632,-5.617,-33.215,4.672
51493760,-0.732,0.144,0.622,-6.387,-24.062,4.777
51493770,-0.745,0.129,0.596,-8.33,-15.207,5.127
51493780,-0.767,0.122,0.588,-6.457,-9.362,6.947
51493790,-0.769,0.114,0.561,-5.845,-5.862,9.065
51493800,-0.773,0.117,0.553,-4.112,-0.455,10.587
51493810,-0.802,0.133,0.554,-2.905,5.022,11.287
51493820,-0.842,0.119,0.527,-3.482,7.665,10.832
51493830,-0.843,0.109,0.507,-1.697,8.645,9.922
51493840,-0.845,0.12,0.509,0.857,10.36,9.59
51493850,-0.871,0.12,0.513,2.642,10.552,8.522
51493860,-0.864,0.11,0.509,5.232,9.677,5.267
51493870,-0.828,0.112,0.522,8.54,8.4,3.01
51493880,-0.821,0.104,0.518,8.732,7.28,6.667
51493890,-0.802,0.104,0.511,10.552,6.072,9.45
51493900,-0.813,0.11,0.526,13.702,3.867,13.072
51493910,-0.821,0.118,0.536,16.152,0.245,16.432
51493920,-0.808,0.132,0.559,17.622,-0.28,18.34
51493920,-0.798,0.149,0.599,17.867,3.01,19.442
51493940,-0.821,0.163,0.636,16.59,9.87,19.425
51493940,-0.81,0.184,0.642,14.14,18.27,17.377
51493960,-0.809,0.193,0.659,11.532,27.212,15.4
51493960,-0.787,0.195,0.626,8.995,35.542,12.775
51493980,-0.803,0.184,0.584,6.65,42.595,10.675
51493980,-0.845,0.165,0.537,3.08,44.502,13.615
51494000,-0.873,0.113,0.505,2.362,42.647,17.64
51494000,-0.838,0.062,0.456,6.562,43.645,21.385
51494010,-0.828,0.102,0.463,14.56,54.495,27.615
51494020,-0.906,0.147,0.465,17.045,59.797,30.625
51494030,-0.94,0.144,0.47,18.637,58.38,30.957
51494040,-0.875,0.148,0.457,21.735,52.552,30.957
51494050,-0.617,0.223,0.407,23.432,62.545,30.52
51494060,-0.766,0.268,0.497,15.767,91.332,32.427
51494070,-1.112,0.196,0.432,-0.752,89.302,30.537
51494080,-1.026,0.128,0.39,0.105,66.587,27.002
51494090,-0.909,0.209,0.433,5.757,50.155,21
51494100,-0.975,0.226,0.419,-1.995,33.652,17.237
51494110,-0.959,0.2,0.409,-6.86,14.997,12.145
51494120,-0.971,0.204,0.416,-8.662,-3.902,6.842
51494130,-0.99,0.213,0.413,-12.127,-23.66,0.385
51494140,-1.002,0.215,0.41,-15.312,-44.345,-6.982
51494150,-1.016,0.205,0.405,-18.147,-65.275,-14.385
51494160,-1.028,0.188,0.399,-17.027,-86.152,-21.665
51494170,-1.002,0.226,0.427,-15.785,-107.572,-31.132
51494180,-1.024,0.195,0.388,-19.88,-129.797,-34.545
51494190,-0.976,0.204,0.382,-15.19,-150.535,-40.985
51494200,-0.983,0.216,0.4,-10.045,-165.812,-45.115
51494210,-0.984,0.233,0.429,-4.567,-180.11,-51.38
51494220,-0.922,0.267,0.474,-2.485,-189.63,-54.81
51494230,-0.9,0.278,0.504,-4.935,-194.39,-50.767
51494240,-0.806,0.245,0.523,-5.722,-196.472,-45.832
51494250,-0.683,0.254,0.595,-3.902,-188.527,-36.102
51494260,-0.699,0.235,0.644,-2.31,-170.467,-20.072
51494270,-0.691,0.207,0.678,-0.595,-154.805,-9.1
51494280,-0.684,0.189,0.695,3.99,-141.767,-5.617
51494290,-0.678,0.156,0.706,6.702,-131.845,-7.857
51494300,-0.58,0.134,0.729,6.737,-120.207,-9.135
51494310,-0.554,0.114,0.761,9.047,-108.045,-6.002
51494320,-0.576,0.12,0.781,9.397,-98.245,-5.547
51494330,-0.577,0.133,0.804,5.845,-95.76,-8.347
51494330,-0.509,0.071,0.748,2.415,-92.33,-8.505
51494350,-0.439,0.091,0.738,8.802,-80.307,-7.227
51494350,-0.469,0.187,0.695,15.33,-69.317,-3.517
51494370,-0.533,0.293,0.801,16.257,-63.49,-1.347
51494370,-0.545,0.305,0.948,-0.332,-63.455,-2.24
51494390,-0.427,0.158,0.867,-24.972,-61.81,-3.885
51494390,-0.291,0.066,0.805,-34.93,-48.982,-4.13
51494410,-0.287,0.084,0.845,-33.18,-28.332,0.035
51494410,-0.373,0.119,0.899,-32.357,-6.527,2.607
51494420,-0.427,0.116,0.895,-32.41,10.08,-1.365
51494430,-0.435,0.092,0.9,-27.685,22.067,-4.987
51494440,-0.493,0.077,0.88,-22.785,30.817,-4.06
51494450,-0.58,0.058,0.853,-15.102,34.055,-1.207
51494460,-0.654,0.062,0.829,-6.615,32.042,0.91
51494470,-0.667,0.088,0.791,0.542,26.67,1.697
51494480,-0.665,0.115,0.77,7.105,19.407,3.01
51494490,-0.655,0.152,0.762,9.677,11.147,3.045
51494500,-0.641,0.168,0.756,9.87,5.337,0.91
51494510,-0.643,0.171,0.748,8.26,2.8,-3.552
51494520,-0.649,0.167,0.743,5.477,3.185,-8.12
51494530,-0.668,0.149,0.742,2.642,2.17,-10.937
51494540,-0.656,0.128,0.727,0.56,0.682,-11.707
51494550,-0.677,0.143,0.732,1.12,-0.542,-10.15
51494560,-0.709,0.125,0.732,-1.05,-7.892,-8.312
51494570,-0.616,0.104,0.744,-4.357,-12.267,-7.21
51494580,-0.63,0.106,0.756,-2.73,-6.527,-3.22
51494590,-0.713,0.117,0.777,-1.435,-5.39,-1.417
51494600,-0.68,0.107,0.782,-2.415,-12.967,-2.24
51494610,-0.6,0.097,0.768,-0.49,-21.297,-0.892
51494620,-0.567,0.115,0.786,3.937,-23.922,1.715
51494630,-0.57,0.135,0.811,6.387,-23.52,1.33
51494640,-0.563,0.138,0.817,5.53,-21.472,-1.05
51494650,-0.548,0.136,0.819,4.2,-19.127,-2.38
51494660,-0.545,0.136,0.824,3.167,-16.257,-2.03
51494670,-0.542,0.141,0.826,2.065,-13.282,-2.17
51494670,-0.54,0.139,0.824,1.172,-9.8,-2.94
51494690,-0.538,0.133,0.819,0.735,-6.615,-3.99
51494690,-0.539,0.129,0.822,0.42,-3.5,-4.55
51494710,-0.54,0.126,0.822,-0.455,-1.312,-4.76
51494710,-0.56,0.117,0.816,-1.592,0.612,-4.795
51494730,-0.577,0.108,0.812,-1.925,1.872,-5.897
51494730,-0.572,0.11,0.809,-0.997,2.117,-6.597
51494750,-0.577,0.111,0.806,0.262,0.787,-4.865
51494750,-0.593,0.112,0.805,1.277,-0.945,-1.785
51494760,-0.603,0.113,0.803,1.592,-2.835,0.332
51494770,-0.597,0.115,0.8,1.295,-4.2,1.19
51494780,-0.585,0.121,0.802,1.032,-4.882,1.767
51494790,-0.58,0.122,0.804,0.175,-5.092,2.38
51494800,-0.582,0.114,0.803,-0.7,-5.547,2.415
51494810,-0.576,0.114,0.803,-0.647,-6.002,2.432
51494820,-0.573,0.115,0.805,-0.542,-6.44,3.605
51494830,-0.577,0.114,0.805,-0.56,-6.51,4.357
51494840,-0.568,0.122,0.813,-0.367,-6.09,3.797
51494850,-0.563,0.126,0.812,-1.05,-5.775,3.955
51494860,-0.561,0.121,0.812,-1.12,-5.075,4.445
51494870,-0.556,0.125,0.815,-0.805,-3.745,3.762
51494880,-0.564,0.127,0.812,-1.802,-1.697,3.552
51494890,-0.569,0.125,0.808,-1.872,-0.437,3.36
51494900,-0.572,0.129,0.806,-1.382,0.542,2.24
51494910,-0.578,0.132,0.804,-1.312,0.735,0.682
51494920,-0.587,0.128,0.805,-1.225,0.385,0.035
51494930,-0.593,0.124,0.803,-0.735,-0.84,0
51494940,-0.59,0.124,0.799,0.315,-2.047,0
51494950,-0.586,0.13,0.817,1.032,-2.852,0.21
51494960,-0.575,0.124,0.802,1.067,-2.817,0.525
51494970,-0.581,0.127,0.81,1.487,-3.377,0.7
51494980,-0.588,0.118,0.808,1.137,-3.937,0.455
51494990,-0.576,0.114,0.805,0.98,-4.812,0.472
51495000,-0.572,0.122,0.81,1.89,-5.197,1.82
51495010,-0.575,0.13,0.811,1.855,-5.722,2.817
51495020,-0.565,0.133,0.811,0.612,-5.53,3.115
51495030,-0.566,0.128,0.811,-0.437,-4.987,3.29
51495040,-0.565,0.122,0.809,-0.77,-3.92,3.272
51495050,-0.556,0.117,0.806,0.262,-2.432,3.167
51495060,-0.555,0.125,0.809,1.085,-0.42,3.517
51495070,-0.563,0.135,0.814,1.067,0.735,4.06
51495080,-0.579,0.132,0.819,1.085,0.437,4.077
51495080,-0.565,0.121,0.806,0.927,-1.05,3.675
51495090,-0.568,0.117,0.801,2.082,-1.032,4.217
51495100,-0.585,0.129,0.81,3.622,-0.945,4.392
51495110,-0.575,0.139,0.808,3.587,-1.487,3.937
51495120,-0.567,0.14,0.802,2.59,-1.452,3.885
51495130,-0.57,0.147,0.8,1.417,-0.192,3.867
51495140,-0.582,0.151,0.798,0.21,1.12,3.115
51495150,-0.59,0.145,0.802,-1.155,1.697,1.855
51495160,-0.6,0.132,0.803,-1.627,0.84,1.347
51495170,-0.595,0.117,0.807,-0.262,-1.225,1.697
51495180,-0.582,0.102,0.818,2.502,-4.182,3.5
51495190,-0.581,0.079,0.824,6.632,-6.825,7
51495200,-0.572,0.065,0.834,12.775,-7.717,11.007
51495210,-0.524,0.073,0.831,20.212,-6.177,15.96
51495220,-0.457,0.098,0.831,27.72,1.872,22.05
51495230,-0.4,0.141,0.865,34.965,17.675,26.495
51495240,-0.362,0.169,0.906,39.532,39.725,28.21
51495250,-0.337,0.185,0.937,41.597,66.552,28.28
51495260,-0.357,0.185,0.95,43.382,96.11,28.892
51495270,-0.403,0.169,0.923,48.107,124.32,29.785
51495280,-0.494,0.174,0.917,56.857,147.91,31.517
51495290,-0.599,0.208,0.786,68.46,164.255,33.005
51495300,-0.714,0.256,0.751,82.722,172.62,34.58
51495310,-0.815,0.322,0.723,93.45,174.335,32.41
51495320,-0.946,0.378,0.735,98.315,168.402,27.72
51495330,-1.063,0.43,0.745,97.947,152.372,21.437
51495340,-1.211,0.481,0.772,94.237,126.927,15.365
51495350,-1.274,0.53,0.839,86.047,88.602,8.4
51495360,-1.258,0.507,0.809,70.437,37.607,2.747
51495370,-1.226,0.473,0.762,57.032,-16.012,0.752
51495380,-1.176,0.485,0.739,47.985,-70.665,-1.645
51495390,-1.083,0.487,0.706,39.462,-124.39,-6.702
51495400,-0.967,0.466,0.648,31.272,-171.255,-12.11
51495410,-0.817,0.433,0.625,29.207,-211.207,-17.57
51495420,-0.617,0.475,0.647,26.617,-238.367,-26.74
51495420,-0.466,0.493,0.666,18.34,-254.292,-35.42
51495440,-0.329,0.495,0.673,9.012,-259.98,-45.587
51495440,-0.213,0.484,0.688,0.56,-257.25,-56.682
51495460,-0.161,0.452,0.695,-9.187,-247.222,-67.13
51495460,-0.104,0.418,0.689,-19.687,-230.632,-79.03
51495480,-0.07,0.442,0.696,-29.067,-206.36,-90.352
51495480,-0.112,0.434,0.691,-37.502,-180.635,-99.137
51495500,-0.11,0.432,0.687,-47.862,-153.16,-107.87
51495500,-0.126,0.423,0.7,-57.697,-124.617,-111.947
51495510,-0.151,0.452,0.718,-70.052,-97.825,-112.7
51495520,-0.201,0.465,0.723,-87.517,-75.005,-110.827
51495530,-0.297,0.454,0.721,-107.117,-57.015,-106.557
51495540,-0.396,0.447,0.701,-129.15,-48.51,-99.487
51495550,-0.429,0.428,0.654,-153.457,-47.162,-88.987
51495560,-0.441,0.382,0.602,-175.927,-45.64,-75.827
51495570,-0.458,0.301,0.58,-193.042,-47.022,-61.81
51495580,-0.476,0.172,0.526,-203.857,-49.157,-48.457
51495590,-0.479,0.05,0.509,-203.227,-47.18,-36.417
51495600,-0.536,-0.089,0.532,-192.727,-48.002,-29.417
51495610,-0.591,-0.308,0.44,-163.52,-51.047,-32.935
51495620,-0.568,-0.266,0.691,-110.04,-53.13,-48.265
51495630,-0.699,-0.241,0.75,-107.31,-62.247,-52.64
51495640,-0.645,-0.297,0.798,-101.552,-73.692,-64.382
51495650,-0.527,-0.312,0.831,-96.215,-82.792,-72.502
51495660,-0.447,-0.345,0.879,-94.237,-87.01,-74.2
51495670,-0.386,-0.357,0.895,-98.28,-85.995,-74.795
51495680,-0.324,-0.413,0.884,-104.212,-81.707,-73.71
51495690,-0.28,-0.518,0.845,-105.315,-74.077,-70.752
51495700,-0.219,-0.571,0.839,-98.647,-63.297,-66.675
51495710,-0.2,-0.577,0.855,-89.722,-53.095,-59.815
51495720,-0.18,-0.605,0.875,-78.697,-41.772,-51.467
51495730,-0.173,-0.629,0.889,-65.642,-31.815,-41.702
51495740,-0.152,-0.642,0.923,-53.742,-23.257,-33.635
51495750,-0.12,-0.698,0.923,-45.202,-14.315,-29.015
51495760,-0.001,-0.704,0.931,-33.162,2.345,-24.43
51495760,-0.136,-0.645,0.959,-14.542,21.682,-11.917
51495780,-0.28,-0.651,1,-1.802,24.132,-0.595
51495780,-0.234,-0.64,0.972,9.327,18.112,2.1
51495800,-0.195,-0.579,0.979,16.502,13.387,3.815
51495800,-0.217,-0.538,0.953,21.227,15.592,9.537
51495820,-0.216,-0.512,0.946,25.917,18.9,11.917
51495820,-0.253,-0.485,0.935,28.927,19.792,11.935
51495830,-0.299,-0.444,0.948,29.907,17.342,10.5
51495840,-0.308,-0.401,0.95,29.697,12.04,6.562
51495850,-0.316,-0.377,0.947,30.047,4.007,1.995
51495860,-0.306,-0.357,0.943,30.852,-5.967,-3.255
51495870,-0.273,-0.321,0.944,32.252,-14.28,-8.785
51495880,-0.269,-0.295,0.94,33.652,-21.21,-11.812
51495890,-0.244,-0.293,0.942,34.002,-29.015,-15.26
51495900,-0.179,-0.273,0.948,32.882,-32.742,-17.867
51495910,-0.131,-0.261,0.964,31.78,-31.185,-15.697
51495920,-0.112,-0.248,0.974,29.277,-25.025,-12.127
51495930,-0.088,-0.225,0.981,23.747,-15.872,-9.572
51495940,-0.081,-0.252,0.966,19.67,-4.427,-2.905
51495950,-0.086,-0.271,0.962,20.125,7.84,9.537
51495960,-0.112,-0.251,0.966,21.77,20.475,24.08
51495970,-0.1,-0.19,0.995,17.622,34.387,31.167
51495980,-0.156,-0.201,0.999,12.932,48.265,40.075
51495990,-0.197,-0.204,1.004,4.567,60.147,43.54
51496000,-0.267,-0.258,0.983,1.067,69.282,45.255
51496010,-0.278,-0.223,0.962,-2.467,77.262,40.442
51496020,-0.352,-0.237,0.948,-2.45,81.375,35.822
51496030,-0.411,-0.234,0.94,-0.875,78.872,31.605
51496040,-0.448,-0.243,0.918,0.402,70.525,26.46
51496050,-0.464,-0.248,0.906,6.125,58.765,20.895
51496060,-0.468,-0.233,0.904,11.515,46.55,14.875
51496070,-0.448,-0.204,0.914,15.732,34.212,7.962
51496080,-0.433,-0.189,0.902,18.585,23.66,2.747
51496090,-0.442,-0.231,0.873,25.777,13.632,0.822
51496100,-0.385,-0.153,0.905,31.902,6.632,-1.645
51496110,-0.366,-0.115,0.895,27.282,1.662,-0.735
51496120,-0.357,-0.129,0.881,25.357,1.155,-2.152
51496130,-0.328,-0.114,0.872,23.59,3.237,-8.085
51496140,-0.339,-0.094,0.895,20.265,5.95,-8.137
51496150,-0.346,-0.087,0.863,9.712,7.192,-8.155
51496160,-0.336,-0.099,0.862,7.21,9.222,-6.387
51496170,-0.328,-0.083,0.853,0.017,12.057,-4.34
51496170,-0.337,-0.081,0.831,-4.812,15.68,-1.19
51496190,-0.354,-0.102,0.838,-6.02,19.092,1.242
51496190,-0.366,-0.109,0.827,-10.675,21.525,2.957
51496210,-0.36,-0.096,0.822,-14.315,24.115,4.112
51496210,-0.378,-0.124,0.827,-16.922,26.775,5.845
51496230,-0.391,-0.143,0.833,-18.952,28.892,7.49
51496230,-0.405,-0.165,0.816,-19.845,30.59,8.855
51496250,-0.42,-0.192,0.818,-15.417,32.69,9.397
51496250,-0.454,-0.199,0.836,-10.43,32.742,9.502
51496260,-0.485,-0.203,0.857,-7.805,29.837,8.54
51496270,-0.489,-0.2,0.868,-8.837,25.287,5.162
51496280,-0.505,-0.231,0.875,-7.665,19.53,1.33
51496290,-0.528,-0.265,0.884,-5.127,11.742,-2.362
51496300,-0.543,-0.268,0.897,-0.542,2.152,-3.185
51496310,-0.527,-0.278,0.895,1.277,-7.77,-5.092
51496320,-0.485,-0.269,0.894,6.405,-14.875,-7.7
51496330,-0.448,-0.259,0.884,11.322,-18.795,-9.957
51496340,-0.414,-0.228,0.879,15.925,-19.565,-10.43
51496350,-0.375,-0.203,0.876,19.285,-17.832,-10.43
51496360,-0.349,-0.182,0.87,21.105,-13.177,-8.662
51496370,-0.347,-0.162,0.864,22.015,-6.947,-5.512
51496380,-0.347,-0.114,0.853,19.46,0.595,-2.922
51496390,-0.371,-0.126,0.852,18.427,7.455,0.77
51496400,-0.385,-0.092,0.863,15.907,14,3.745
51496410,-0.418,-0.101,0.855,10.902,18.375,6.09
51496420,-0.445,-0.089,0.875,7.175,22.33,6.545
51496430,-0.485,-0.106,0.871,1.54,23.17,5.88
51496440,-0.505,-0.112,0.881,-0.227,21.927,5.285
51496450,-0.515,-0.109,0.875,-3.937,18.497,4.095
51496460,-0.518,-0.105,0.872,-6.055,14.84,2.205
51496470,-0.525,-0.107,0.877,-9.555,10.955,-0.297
51496480,-0.529,-0.099,0.876,-15.557,6.387,-3.412
51496490,-0.534,-0.144,0.87,-17.762,0.472,-5.862
51496500,-0.508,-0.134,0.871,-20.492,-4.69,-7.437
51496510,-0.5,-0.155,0.855,-21.927,-9.607,-7.63
51496510,-0.488,-0.168,0.854,-20.282,-12.95,-7.542
51496530,-0.468,-0.175,0.853,-19.687,-15.225,-6.86
51496530,-0.448,-0.174,0.869,-19.337,-15.487,-7.035
51496550,-0.444,-0.188,0.875,-19.512,-14.577,-7.945
51496550,-0.44,-0.203,0.875,-19.967,-13.475,-9.292
51496570,-0.442,-0.214,0.878,-19.04,-13.702,-10.115
51496570,-0.435,-0.219,0.878,-17.237,-14.805,-10.29
51496580,-0.425,-0.223,0.872,-15.662,-16.205,-9.835
51496590,-0.406,-0.232,0.858,-13.562,-15.925,-9.31
51496600,-0.392,-0.224,0.865,-10.657,-13.3,-9.17
51496610,-0.407,-0.212,0.88,-10.692,-10.167,-8.295
51496620,-0.426,-0.223,0.879,-12.32,-7.7,-7.875
51496630,-0.432,-0.235,0.876,-12.95,-6.405,-7.595
51496640,-0.446,-0.239,0.876,-12.897,-6.79,-6.877
51496650,-0.452,-0.242,0.881,-13.177,-8.557,-6.247
51496660,-0.452,-0.251,0.879,-13.667,-10.29,-6.387
51496670,-0.45,-0.259,0.883,-14,-11.847,-6.965
51496680,-0.452,-0.262,0.879,-14.77,-13.055,-7.35
51496690,-0.447,-0.263,0.879,-15.242,-14.647,-7.84
51496700,-0.444,-0.265,0.876,-15.645,-15.96,-8.155
51496710,-0.434,-0.261,0.87,-16.362,-17.465,-8.645
51496720,-0.426,-0.271,0.852,-16.607,-18.357,-9.012
51496730,-0.412,-0.268,0.85,-15.435,-18.672,-9.695
51496740,-0.405,-0.26,0.846,-14.63,-18.095,-9.782
51496750,-0.404,-0.254,0.859,-14.297,-18.165,-9.467
51496760,-0.404,-0.255,0.859,-15.137,-18.34,-8.96
51496770,-0.404,-0.263,0.856,-15.785,-19.547,-8.82
51496780,-0.397,-0.259,0.863,-16.152,-20.107,-9.205
51496790,-0.384,-0.245,0.86,-17.255,-20.86,-9.695
51496800,-0.374,-0.261,0.856,-17.605,-20.79,-9.52
51496810,-0.373,-0.271,0.859,-16.24,-20.195,-9.257
51496820,-0.378,-0.255,0.871,-16.607,-19.705,-9.677
51496830,-0.389,-0.257,0.871,-17.605,-20.545,-10.447
51496840,-0.39,-0.278,0.872,-18.042,-21.735,-11.497
51496850,-0.393,-0.283,0.876,-17.395,-23.922,-12.337
51496860,-0.395,-0.298,0.869,-15.085,-26.565,-12.722
51496870,-0.383,-0.294,0.872,-11.445,-29.365,-13.387
51496880,-0.372,-0.278,0.878,-9.467,-31.36,-13.247
51496890,-0.363,-0.273,0.877,-8.75,-32.375,-13.492
51496900,-0.354,-0.275,0.876,-8.505,-31.972,-13.93
51496910,-0.353,-0.275,0.878,-8.872,-31.43,-13.527
51496920,-0.355,-0.278,0.873,-9.607,-31.482,-12.145
51496920,-0.348,-0.281,0.871,-9.642,-31.85,-10.325
51496940,-0.34,-0.285,0.876,-9.467,-31.395,-8.102
51496940,-0.339,-0.287,0.879,-9.905,-30.152,-6.16
51496960,-0.333,-0.283,0.887,-11.147,-28.175,-4.69
51496960,-0.328,-0.29,0.889,-13.055,-25.935,-3.115
51496980,-0.33,-0.304,0.89,-14.717,-23.59,-2.012
51496980,-0.332,-0.309,0.892,-16.257,-21.157,-1.75
51497000,-0.337,-0.314,0.896,-17.832,-19.845,-1.907
51497000,-0.35,-0.325,0.895,-19.39,-19.932,-2.572
51497010,-0.351,-0.325,0.907,-20.317,-21.63,-4.252
51497020,-0.35,-0.323,0.909,-21.367,-25.077,-5.67
51497030,-0.346,-0.326,0.899,-21.682,-30.17,-6.877
51497040,-0.346,-0.335,0.887,-20.842,-35.665,-9.117
51497050,-0.335,-0.321,0.883,-19.18,-42.227,-12.582
51497060,-0.307,-0.306,0.875,-17.727,-49.122,-15.522
51497070,-0.271,-0.295,0.865,-15.785,-54.967,-16.94
51497080,-0.247,-0.296,0.864,-13.93,-58.66,-16.975
51497090,-0.219,-0.294,0.865,-12.722,-61.057,-17.097
51497100,-0.187,-0.297,0.857,-11.865,-61.6,-16.555
51497110,-0.148,-0.297,0.866,-10.482,-60.007,-14.752
51497120,-0.116,-0.295,0.874,-10.5,-55.72,-10.727
51497130,-0.091,-0.301,0.877,-11.83,-48.807,-6.667
51497140,-0.082,-0.305,0.887,-13.562,-39.305,-2.87
51497150,-0.097,-0.326,0.889,-15.137,-30.362,1.89
51497160,-0.105,-0.334,0.907,-15.68,-22.365,7.21
51497170,-0.13,-0.331,0.912,-16.52,-17.535,14.262
51497180,-0.144,-0.337,0.892,-15.977,-12.32,19.372
51497190,-0.157,-0.361,0.882,-11.06,-5.565,18.55
51497200,-0.137,-0.345,0.888,-7.14,4.077,12.985
51497210,-0.17,-0.373,0.872,-7.91,13.685,10.745
51497220,-0.212,-0.379,0.861,-4.69,20.23,4.952
51497230,-0.233,-0.359,0.867,-1.102,22.032,0.787
51497240,-0.245,-0.352,0.859,0.017,20.527,3.57
51497250,-0.253,-0.341,0.858,1.015,17.937,8.417
51497260,-0.259,-0.339,0.854,1.785,16.135,12.057
51497260,-0.251,-0.331,0.862,1.557,15.242,14.087
51497280,-0.245,-0.329,0.856,0.892,15.47,15.05
51497280,-0.246,-0.333,0.866,0.665,15.977,15.68
51497300,-0.229,-0.341,0.879,-1.032,17.202,15.785
51497300,-0.199,-0.346,0.88,-3.29,19.792,16.345
51497320,-0.218,-0.351,0.901,-5.215,22.767,18.707
51497320,-0.267,-0.371,0.909,-8.872,23.607,20.685
51497330,-0.281,-0.382,0.911,-12.477,21.735,21.332
51497340,-0.285,-0.407,0.894,-14.455,18.585,21.227
51497350,-0.279,-0.418,0.895,-12.197,16.292,19.145
51497360,-0.282,-0.426,0.897,-9.082,14.035,17.937
51497370,-0.291,-0.42,0.915,-5.827,10.43,16.555
51497380,-0.295,-0.414,0.926,-2.887,5.53,14.595
51497390,-0.281,-0.402,0.936,-0.857,0.507,11.515
51497400,-0.27,-0.399,0.934,0.035,-3.57,8.785
51497410,-0.252,-0.389,0.939,-0.63,-6.265,6.44
51497420,-0.24,-0.385,0.94,-2.415,-7.402,4.9
51497430,-0.238,-0.385,0.937,-4.322,-7.63,3.692
51497440,-0.235,-0.389,0.937,-7.052,-6.737,2.537
51497450,-0.259,-0.447,0.899,-8.715,-6.387,2.012
51497460,-0.26,-0.41,0.926,-0.875,-7.122,-1.312
51497470,-0.24,-0.369,0.945,-2.922,-7.91,-5.652
51497480,-0.253,-0.39,0.915,-5.6,-10.325,-4.2
51497490,-0.219,-0.41,0.9,-4.585,-10.517,-5.425
51497500,-0.203,-0.417,0.889,-2.03,-8.172,-2.817
51497510,-0.22,-0.399,0.897,0.14,-5.442,-1.557
51497520,-0.244,-0.389,0.908,-0.997,-2.17,-1.295
51497530,-0.243,-0.396,0.896,-3.587,-0.455,-1.557
51497540,-0.246,-0.407,0.901,-4.725,0.892,-0.892
51497550,-0.261,-0.418,0.885,-5.88,1.12,0.647
51497560,-0.263,-0.429,0.878,-5.827,0.875,2.362
51497570,-0.268,-0.431,0.877,-5.705,-1.067,4.095
51497580,-0.271,-0.448,0.873,-5.145,-3.622,5.705
51497590,-0.282,-0.454,0.886,-4.497,-6.685,8.295
51497600,-0.299,-0.461,0.88,-4.655,-9.8,12.04
51497610,-0.296,-0.473,0.884,-2.152,-12.355,13.352
51497620,-0.28,-0.476,0.884,1.452,-13.545,13.177
51497630,-0.246,-0.464,0.873,5.057,-13.37,13.825
51497640,-0.194,-0.445,0.883,8.68,-8.47,16.362
51497650,-0.155,-0.415,0.899,10.885,0.787,19.95
51497660,-0.155,-0.392,0.908,10.57,12.232,24.885
51497670,-0.142,-0.373,0.91,8.732,25.147,30.362
51497670,-0.154,-0.365,0.908,5.547,38.115,37.257
51497690,-0.213,-0.347,0.894,1.592,49.332,43.802
51497690,-0.277,-0.334,0.888,-3.325,57.68,47.932
51497710,-0.338,-0.331,0.874,-8.19,62.51,48.037
51497710,-0.398,-0.329,0.877,-12.565,62.615,44.467
51497730,-0.463,-0.339,0.846,-17.15,56.892,39.392
51497730,-0.501,-0.344,0.831,-17.167,46.725,30.852
51497750,-0.534,-0.341,0.822,-13.912,30.905,21.42
51497750,-0.544,-0.347,0.81,-9.502,9.537,13.23
51497760,-0.504,-0.357,0.783,-3.85,-12.425,7.175
51497770,-0.432,-0.347,0.775,4.252,-29.627,3.57
51497780,-0.387,-0.325,0.806,11.725,-40.845,1.61
51497790,-0.309,-0.347,0.843,15.207,-45.99,-0.332
51497800,-0.23,-0.354,0.854,18.76,-39.97,-0.997
51497810,-0.254,-0.343,0.897,23.327,-29.12,0.647
51497820,-0.307,-0.351,0.913,23.957,-20.23,2.66
51497830,-0.335,-0.357,0.942,24.342,-16.275,1.732
51497840,-0.346,-0.36,0.965,22.785,-16.065,-0.455
51497850,-0.345,-0.363,0.977,20.212,-18.27,-2.38
51497860,-0.344,-0.363,0.977,18.007,-20.597,-3.622
51497870,-0.349,-0.357,0.973,16.135,-23.835,-5.005
51497880,-0.345,-0.35,0.965,14.052,-27.965,-6.877
51497890,-0.306,-0.353,0.952,13.072,-32.655,-9.362
51497900,-0.264,-0.352,0.939,13.982,-35.122,-9.59
51497910,-0.231,-0.326,0.931,14.367,-35.297,-7.91
51497920,-0.185,-0.313,0.922,14.315,-30.8,-7.77
51497930,-0.149,-0.305,0.917,13.912,-22.942,-7.507
51497940,-0.123,-0.293,0.907,10.622,-11.795,-5.25
51497950,-0.083,-0.276,0.912,6.65,2.817,-3.29
51497960,-0.073,-0.276,0.906,2.205,20.947,-0.63
51497970,-0.125,-0.296,0.901,-0.84,38.447,3.692
51497980,-0.209,-0.311,0.899,-2.012,51.625,8.015
51497990,-0.292,-0.328,0.891,-2.082,57.627,10.815
51498000,-0.351,-0.334,0.892,-1.417,58.415,10.447
51498010,-0.41,-0.35,0.895,0.84,53.532,8.96
51498010,-0.44,-0.346,0.9,3.377,44.117,7.7
51498030,-0.446,-0.344,0.903,5.355,32.322,5.652
51498030,-0.443,-0.343,0.899,6.72,20.247,3.605
51498050,-0.417,-0.339,0.892,8.295,9.87,1.592
51498050,-0.395,-0.331,0.885,11.305,2.695,0.315
51498070,-0.363,-0.312,0.884,13.037,-0.35,-1.155
51498070,-0.353,-0.303,0.879,11.322,0.157,-0.49
51498080,-0.326,-0.279,0.883,6.107,3.955,0.017
51498090,-0.283,-0.297,0.841,-0.122,12.162,-0.227
51498100,-0.277,-0.333,0.834,4.777,23.747,6.247
51498110,-0.327,-0.304,0.857,7.717,34.947,16.852
51498120,-0.378,-0.265,0.867,2.205,43.802,23.555
51498130,-0.436,-0.287,0.844,-4.252,48.86,25.462
51498140,-0.438,-0.305,0.837,-6.545,51.222,22.54
51498150,-0.462,-0.33,0.843,-5.337,51.065,23.275
51498160,-0.489,-0.281,0.838,-6.912,47.145,26.162
51498170,-0.519,-0.29,0.821,-4.55,38.727,27.685
51498180,-0.483,-0.258,0.838,0.192,31.447,23.31
51498190,-0.477,-0.249,0.827,-2.397,24.237,20.632
51498200,-0.455,-0.205,0.822,-7.087,18.34,17.517
51498210,-0.435,-0.227,0.784,-11.235,13.037,12.985
51498220,-0.42,-0.223,0.802,-8.4,10.29,7.332
51498230,-0.445,-0.199,0.811,-13.352,6.23,6.125
51498240,-0.489,-0.231,0.785,-19.407,-0.542,4.13
51498250,-0.501,-0.27,0.785,-18.287,-9.52,-1.75
51498260,-0.504,-0.274,0.801,-17.36,-19.827,-7.105
51498270,-0.506,-0.277,0.811,-17.115,-31.797,-11.357
51498280,-0.495,-0.292,0.846,-16.275,-43.4,-16.275
51498290,-0.483,-0.262,0.852,-22.015,-54.32,-21.21
51498300,-0.493,-0.365,0.867,-23.695,-66.132,-26.25
51498310,-0.329,-0.518,0.877,-18.69,-73.22,-31.727
51498320,-0.16,-0.483,0.937,-2.73,-58.887,-27.002
51498330,-0.263,-0.408,1.044,12.022,-37.047,-13.3
51498340,-0.355,-0.406,1.064,11.305,-18.042,0.21
51498350,-0.413,-0.395,1.115,10.64,-8.137,4.952
51498360,-0.511,-0.414,1.085,2.537,-8.505,7.507
51498370,-0.542,-0.418,1.029,-2.152,-17.517,6.037
51498380,-0.507,-0.414,0.966,-2.66,-29.855,4.882
51498390,-0.45,-0.391,0.901,0.542,-41.405,6.527
51498400,-0.4,-0.361,0.854,3.202,-48.912,9.065
51498410,-0.293,-0.381,0.779,6.947,-48.947,12.67
51498420,-0.153,-0.391,0.766,20.965,-36.732,18.917
51498420,-0.05,-0.245,0.795,28.665,-8.312,29.487
51498440,-0.163,-0.263,0.774,29.54,24.797,48.3
51498440,-0.166,-0.175,0.805,26.355,57.68,50.295
51498450,-0.256,-0.184,0.812,20.772,85.365,57.54
51498460,-0.38,-0.23,0.799,16.782,103.18,68.705
51498470,-0.527,-0.183,0.827,16.082,106.382,81.007
51498480,-0.609,-0.15,0.861,9.135,99.05,75.337
51498490,-0.679,-0.16,0.871,-2.887,85.75,63.49
51498500,-0.704,-0.204,0.845,-14.122,66.255,50.855
51498510,-0.671,-0.205,0.815,-19.827,43.855,40.18
51498520,-0.602,-0.183,0.815,-25.025,24.552,29.907
51498530,-0.559,-0.154,0.811,-36.487,9.73,20.177
51498540,-0.482,-0.161,0.77,-51.17,0.315,8.33
51498550,-0.406,-0.211,0.726,-59.99,-2.695,2.327
51498560,-0.393,-0.242,0.676,-64.855,-1.347,5.267
51498570,-0.41,-0.256,0.667,-66.15,0.42,9.765
51498580,-0.425,-0.262,0.67,-66.412,2.222,13.072
51498590,-0.434,-0.29,0.668,-66.167,5.39,17.132
51498600,-0.468,-0.344,0.676,-62.265,9.1,22.05
51498610,-0.495,-0.356,0.706,-56.927,9.765,24.237
51498620,-0.518,-0.379,0.707,-53.077,8.4,24.395
51498630,-0.545,-0.393,0.744,-48.492,6.982,20.79
51498640,-0.599,-0.407,0.769,-45.797,2.66,13.842
51498650,-0.628,-0.435,0.779,-44.87,-7.017,4.462
51498660,-0.62,-0.446,0.799,-44.485,-18.707,-4.585
51498670,-0.602,-0.453,0.803,-43.785,-32.34,-12.057
51498680,-0.574,-0.459,0.805,-41.72,-47.022,-18.637
51498690,-0.525,-0.48,0.802,-37.362,-61.932,-23.397
51498700,-0.43,-0.495,0.804,-31.255,-71.47,-25.095
51498710,-0.335,-0.494,0.83,-25.917,-72.747,-23.065
51498720,-0.297,-0.494,0.852,-22.977,-66.78,-17.255
51498730,-0.267,-0.495,0.881,-21.42,-56.542,-11.252
51498740,-0.254,-0.528,0.915,-20.86,-41.72,-1.365
51498750,-0.309,-0.433,0.922,-33.11,-27.895,11.777
51498760,-0.34,-0.549,0.906,-36.627,-17.937,6.457
51498760,-0.221,-0.613,0.889,-31.622,-0.402,-1.067
51498780,-0.276,-0.555,0.9,-26.355,22.4,5.477
51498780,-0.48,-0.516,0.944,-17.745,31.727,14.402
51498800,-0.543,-0.513,0.936,-19.985,29.872,16.905
51498800,-0.542,-0.48,0.936,-17.64,24.745,17.937
51498820,-0.605,-0.472,0.905,-20.475,14.035,18.795
51498820,-0.574,-0.461,0.888,-19.267,2.38,12.547
51498830,-0.523,-0.421,0.879,-20.002,-4.987,10.132
51498840,-0.532,-0.437,0.837,-22.312,-10.762,9.467
51498850,-0.504,-0.422,0.85,-16.065,-15.312,6.597
51498860,-0.465,-0.39,0.818,-13.037,-18.935,6.352
51498870,-0.431,-0.399,0.819,-4.795,-19.197,3.692
51498880,-0.425,-0.368,0.819,0.157,-17.045,5.442
51498890,-0.432,-0.363,0.812,5.722,-17.202,7.367
51498900,-0.416,-0.335,0.79,10.815,-18.13,6.457
51498910,-0.372,-0.308,0.77,15.995,-18.445,2.362
51498920,-0.341,-0.274,0.74,21.035,-15.785,2.275
51498930,-0.312,-0.237,0.715,25.427,-11.287,2.817
51498940,-0.285,-0.197,0.689,28.945,-3.955,3.377
51498950,-0.28,-0.161,0.67,31.08,4.742,5.092
51498960,-0.288,-0.145,0.668,32.987,14.63,3.64
51498970,-0.305,-0.136,0.675,34.597,25.217,-0.28
51498980,-0.347,-0.135,0.706,33.635,35.087,-3.57
51498990,-0.429,-0.158,0.719,26.197,40.617,-6.002
51499000,-0.499,-0.196,0.726,18.672,41.177,-10.027
51499010,-0.543,-0.215,0.725,10.272,36.715,-16.03
51499020,-0.554,-0.24,0.737,2.1,29.767,-22.207
51499030,-0.483,-0.254,0.733,-9.275,25.375,-26.442
51499040,-0.417,-0.288,0.701,-21.735,27.475,-28.577
51499050,-0.402,-0.333,0.698,-33.582,35.577,-27.965
51499060,-0.495,-0.372,0.708,-49.63,44.73,-23.38
51499070,-0.691,-0.503,0.679,-64.785,39.795,-22.995
51499080,-0.745,-0.63,0.676,-67.55,22.557,-33.775
51499090,-0.699,-0.719,0.694,-61.355,0.297,-44.345
51499100,-0.653,-0.757,0.7,-50.277,-21.122,-47.617
51499110,-0.601,-0.751,0.828,-36.942,-42.035,-39.2
51499120,-0.552,-0.745,0.796,-42.647,-59.29,-17.92
51499130,-0.452,-0.905,0.772,-34.457,-67.76,-4.76
51499140,-0.074,-0.92,0.83,-8.54,-55.44,-2.975
51499140,-0.052,-0.739,0.9,7.245,-12.145,14.472
51499160,-0.368,-0.718,0.955,11.025,18.585,32.69
51499160,-0.446,-0.72,0.956,10.272,32.235,36.312
51499170,-0.484,-0.619,0.959,5.442,35.542,41.667
51499180,-0.511,-0.579,0.915,-5.057,30.117,41.37
51499190,-0.473,-0.567,0.862,-8.435,25.847,35.735
51499200,-0.471,-0.505,0.84,-12.582,21.927,31.535
51499210,-0.492,-0.462,0.794,-18.917,17.78,29.12
51499220,-0.469,-0.438,0.795,-20.947,14.07,21.245
51499230,-0.476,-0.389,0.769,-27.3,10.535,15.225
51499240,-0.48,-0.414,0.747,-30.905,5.67,7.647
51499250,-0.47,-0.419,0.726,-28.122,1.75,0.892
51499260,-0.474,-0.405,0.718,-24.797,-4.025,-4.865
51499270,-0.481,-0.407,0.699,-19.722,-11.847,-11.445
51499280,-0.468,-0.405,0.69,-11.935,-20.37,-16.537
51499290,-0.452,-0.413,0.66,-3.535,-29.995,-19.565
51499300,-0.489,-0.439,0.641,6.615,-41.79,-22.452
51499310,-0.539,-0.468,0.624,19.915,-56.787,-29.172
51499320,-0.5,-0.491,0.648,38.745,-70.682,-39.585
51499330,-0.511,-0.517,0.668,63.857,-81.252,-48.685
51499340,-0.552,-0.552,0.703,93.905,-94.57,-59.08
51499350,-0.546,-0.596,0.747,126.385,-115.325,-69.457
51499360,-0.515,-0.547,0.794,156.397,-142.765,-73.57
51499370,-0.43,-0.447,0.833,176.767,-172.602,-79.292
51499380,-0.298,-0.337,0.866,188.177,-198.327,-87.062
51499390,-0.175,-0.257,0.889,189.49,-218.942,-94.01
51499400,-0.003,-0.197,0.884,184.695,-227.412,-97.16
51499410,0.188,-0.14,0.881,179.795,-220.99,-91.402
51499420,0.325,-0.073,0.888,174.072,-199.325,-77.472
51499430,0.409,0.002,0.93,164.447,-165.13,-61.092
51499440,0.478,0.076,0.988,147.7,-118.475,-44.852
51499450,0.471,0.117,1.025,121.45,-64.085,-28.542
51499460,0.37,0.11,1.041,90.3,-8.715,-16.467
51499470,0.258,0.066,1.037,62.002,42.507,-9.73
51499480,0.114,0.011,1.022,40.285,85.557,-7.577
51499490,-0.066,-0.042,1.019,24.57,115.57,-11.165
51499500,-0.198,-0.065,1.021,10.36,133.297,-17.885
51499510,-0.296,-0.102,1.003,-4.69,139.177,-24.395
51499510,-0.357,-0.143,0.958,-16.117,136.937,-32.165
51499530,-0.431,-0.183,0.935,-21.017,125.912,-37.94
51499530,-0.5,-0.218,0.914,-20.09,106.855,-37.327
51499550,-0.543,-0.269,0.914,-11.865,81.427,-32.497
51499550,-0.533,-0.276,0.919,-3.08,55.86,-28
51499570,-0.536,-0.287,0.927,6.142,32.025,-21.945
51499570,-0.513,-0.309,0.912,15.05,12.337,-17.78
51499580,-0.426,-0.282,0.949,23.45,0.35,-17.08
51499590,-0.394,-0.251,0.963,22.102,-5.127,-12.722
51499600,-0.389,-0.263,0.947,19.11,-5.74,-9.765
51499610,-0.344,-0.264,0.963,22.225,-2.975,-11.007
51499620,-0.316,-0.247,0.976,20.265,2.362,-7.84
51499630,-0.314,-0.252,0.948,12.932,9.747,-2.38
51499640,-0.301,-0.272,0.908,10.08,18.62,-1.487
51499650,-0.285,-0.267,0.89,9.485,27.702,-0.017
51499660,-0.311,-0.259,0.882,7.875,35.892,6.58
51499670,-0.359,-0.27,0.866,8.295,40.512,13.545
51499680,-0.355,-0.252,0.869,9.835,42.962,16.642
51499690,-0.369,-0.245,0.858,9.765,43.592,20.265
51499700,-0.385,-0.238,0.854,11.305,43.925,22.89
51499710,-0.407,-0.233,0.851,12.075,41.72,24.272
51499720,-0.422,-0.237,0.851,12.88,38.237,24.307
51499730,-0.419,-0.234,0.854,14.84,33.39,24.045
51499740,-0.407,-0.231,0.855,17.01,29.487,24.727
51499750,-0.391,-0.224,0.857,20.195,26.827,25.095
51499760,-0.388,-0.225,0.859,25.497,25.812,26.057
51499770,-0.361,-0.205,0.836,30.625,26.25,25.812
51499780,-0.344,-0.184,0.825,36.837,29.19,26.617
51499790,-0.339,-0.146,0.831,42,33.967,27.44
51499800,-0.331,-0.111,0.809,44.24,40.862,28.332
51499810,-0.324,-0.08,0.803,45.29,48.79,29.365
51499820,-0.335,-0.046,0.799,43.732,58.467,30.87
51499830,-0.35,-0.019,0.762,40.757,68.46,32.025
51499830,-0.376,0.01,0.759,38.08,78.417,32.532
51499850,-0.427,0.049,0.767,33.722,86.432,32.007
51499850,-0.477,0.075,0.766,26.967,91.402,31.097
51499870,-0.529,0.079,0.798,19.46,91.77,30.03
51499870,-0.584,0.057,0.814,11.305,87.955,28.997
51499890,-0.607,0.039,0.84,4.725,80.57,26.565
51499890,-0.62,0.021,0.86,-1.802,71.785,24.045
51499910,-0.631,0.006,0.883,-6.422,61.915,22.295
51499910,-0.628,0.004,0.903,-9.87,51.66,19.985
51499920,-0.609,0.003,0.922,-13.387,41.492,17.465
51499930,-0.577,-0.002,0.937,-17.78,33.022,14.175
51499940,-0.54,0,0.951,-23.31,26.827,10.465
51499950,-0.518,0,0.958,-30.135,22.452,8.12
51499960,-0.5,-0.011,0.935,-38.185,19.81,7.875
51499970,-0.477,-0.014,0.899,-45.832,18.882,9.257
51499980,-0.462,-0.012,0.879,-52.937,18.707,12.932
51499990,-0.416,-0.009,0.866,-59.395,20.912,19.705
51500000,-0.386,-0.038,0.849,-63.962,26.775,31.78
51500010,-0.388,-0.066,0.833,-67.9,36.855,44.922
51500020,-0.436,-0.096,0.811,-74.252,49.805,52.902
51500030,-0.482,-0.129,0.784,-79.502,64.68,51.362
51500040,-0.528,-0.153,0.77,-81.042,79.45,43.365
51500050,-0.596,-0.166,0.774,-77.805,88.252,34.615
51500060,-0.667,-0.208,0.776,-71.907,88.707,28.525
51500070,-0.711,-0.247,0.776,-62.002,80.465,24.202
51500080,-0.747,-0.276,0.804,-47.652,67.042,19.985
51500090,-0.755,-0.259,0.808,-36.242,50.26,16.362
51500100,-0.757,-0.262,0.829,-22.505,32.672,13.79
51500110,-0.767,-0.254,0.841,-12.005,15.75,11.847
51500120,-0.751,-0.237,0.845,-5.267,1.802,8.627
51500130,-0.697,-0.221,0.823,-1.925,-8.75,3.675
51500140,-0.635,-0.222,0.809,3.395,-13.702,-0.385
51500150,-0.601,-0.214,0.812,9.135,-13.825,-2.012
51500160,-0.586,-0.181,0.811,10.85,-10.902,-1.925
51500170,-0.574,-0.162,0.786,9.485,-8.277,-0.332
51500180,-0.546,-0.138,0.769,7.892,-2.87,0.455
51500190,-0.541,-0.117,0.736,5.32,4.025,2.485
51500200,-0.552,-0.087,0.72,2.695,12.092,3.797
51500210,-0.573,-0.058,0.702,-2.975,19.11,3.955
51500220,-0.6,-0.043,0.685,-11.34,24.885,3.202
51500230,-0.643,-0.059,0.685,-20.037,27.352,1.96
51500240,-0.682,-0.074,0.682,-29.487,26.67,-0.805
51500250,-0.71,-0.104,0.668,-38.43,23.257,-2.625
51500260,-0.722,-0.129,0.668,-43.977,18.865,-4.305
51500260,-0.727,-0.139,0.668,-47.722,12.582,-5.005
51500280,-0.732,-0.152,0.652,-49.245,5.215,-5.04
51500280,-0.72,-0.159,0.625,-50.172,-0.7,-5.267
51500300,-0.69,-0.173,0.586,-47.792,-4.2,-6.212
51500300,-0.657,-0.167,0.582,-41.142,-5.075,-7.367
51500320,-0.658,-0.139,0.592,-35.175,-3.517,-7.577
51500320,-0.697,-0.131,0.627,-30.8,-3.045,-9.327
51500330,-0.73,-0.116,0.664,-30.712,-5.547,-13.055
51500340,-0.74,-0.129,0.687,-32.62,-12.862,-16.135
51500350,-0.799,-0.222,0.645,-31.342,-25.602,-10.64
51500360,-0.759,-0.244,0.673,-18.952,-37.922,-13.982
51500370,-0.745,-0.216,0.696,-8.33,-48.58,-18.987
51500380,-0.736,-0.219,0.722,0.157,-57.522,-20.877
51500390,-0.685,-0.2,0.768,4.322,-64.015,-22.382
51500400,-0.647,-0.192,0.851,1.61,-67.462,-20.702
51500410,-0.371,-0.344,1.001,-7.63,-59.727,-16.52
51500420,-0.337,-0.475,0.701,-0.035,-23.975,-4.882
51500430,-0.696,-0.404,0.885,43.575,3.237,3.797
51500440,-0.838,-0.303,0.927,73.395,-5.197,9.257
51500450,-0.768,-0.185,0.977,78.785,-30.712,14.787
51500460,-0.666,-0.123,0.943,64.417,-48.895,23.59
51500470,-0.597,-0.101,0.895,45.5,-55.492,25.13
51500480,-0.489,-0.103,0.875,33.95,-45.395,17.08
51500490,-0.514,-0.082,0.861,20.895,-29.942,10.797
51500500,-0.586,-0.118,0.809,10.902,-19.88,5.722
51500510,-0.607,-0.137,0.788,9.362,-18.2,1.575
51500520,-0.593,-0.144,0.749,10.097,-21.612,1.662
51500530,-0.584,-0.139,0.764,17.5,-25.55,3.85
51500540,-0.559,-0.103,0.763,18.392,-27.335,5.827
51500550,-0.534,-0.108,0.773,20.755,-26.442,6.387
51500560,-0.529,-0.085,0.812,19.757,-22.54,6.317
51500570,-0.522,-0.094,0.808,14.665,-18.987,5.477
51500580,-0.499,-0.088,0.822,10.465,-13.51,3.36
51500580,-0.483,-0.085,0.844,6.37,-6.51,1.645
51500600,-0.493,-0.092,0.851,-0.507,1.68,1.33
51500600,-0.535,-0.113,0.849,-7.367,8.557,-0.245
51500620,-0.542,-0.14,0.832,-13.195,13.037,-2.59
51500620,-0.507,-0.12,0.84,-17.08,17.5,-5.145
51500640,-0.553,-0.139,0.834,-22.89,21.822,-2.327
51500640,-0.565,-0.153,0.824,-27.982,23.817,-2.432
51500660,-0.582,-0.165,0.794,-31.115,22.75,-3.797
51500660,-0.583,-0.165,0.771,-31.465,20.265,-4.375
51500670,-0.566,-0.178,0.765,-28.262,19.932,-2.152
51500680,-0.558,-0.195,0.761,-24.885,21.875,-0.77
51500690,-0.546,-0.206,0.768,-20.23,26.512,0.21
51500700,-0.558,-0.175,0.774,-16.38,31.237,0.927
51500710,-0.588,-0.158,0.765,-16.957,30.187,1.75
51500720,-0.638,-0.216,0.659,-12.897,25.515,8.47
51500730,-0.577,-0.143,0.73,1.242,22.365,9.082
51500740,-0.569,-0.041,0.775,-4.987,21.385,10.64
51500750,-0.616,-0.118,0.853,-18.777,17.99,11.27
51500760,-0.49,-0.266,0.851,-23.852,19.18,9.852
51500770,-0.45,-0.32,0.902,-7.315,24.675,12.495
51500780,-0.529,-0.297,0.969,8.225,27.387,20.72
51500790,-0.583,-0.244,0.993,12.18,26.915,24.92
51500800,-0.617,-0.221,0.975,8.785,21.367,25.41
51500810,-0.617,-0.221,0.908,5.075,16.257,23.887
51500820,-0.648,-0.219,0.854,2.38,11.917,19.04
51500830,-0.664,-0.202,0.823,4.9,8.067,11.655
51500840,-0.662,-0.189,0.837,4.795,5.407,3.727
51500850,-0.701,-0.21,0.826,3.535,2.905,-2.152
51500860,-0.737,-0.217,0.852,1.452,-1.19,-9.852
51500870,-0.806,-0.254,0.862,-0.945,-10.727,-12.985
51500880,-0.806,-0.31,0.885,-2.17,-24.185,-16.152
51500890,-0.701,-0.357,0.845,3.29,-30.94,-20.72
51500900,-0.708,-0.332,0.881,15.172,-33.407,-25.847
51500910,-0.629,-0.273,0.891,18.077,-35.245,-33.075
51500920,-0.548,-0.326,0.841,21.612,-35.017,-23.397
51500930,-0.488,-0.365,0.788,32.375,-27.72,-10.412
51500940,-0.427,-0.275,0.813,40.757,-12.18,-15.102
51500950,-0.379,-0.187,0.791,38.797,9.747,-19.022
51500960,-0.445,-0.174,0.768,38.202,35.945,-15.137
51500970,-0.566,-0.197,0.758,40.355,54.39,-11.427
51500980,-0.628,-0.177,0.741,41.912,63.717,-7.735
51500990,-0.656,-0.118,0.725,40.6,66.36,-1.592
51501000,-0.701,-0.085,0.72,41.702,65.17,5.687
51501010,-0.736,-0.055,0.705,38.255,61.302,7.962
51501010,-0.762,-0.056,0.667,33.127,55.16,8.592
51501030,-0.771,-0.042,0.649,30.38,48.51,5.565
51501030,-0.783,-0.004,0.625,26.092,40.687,-1.225
51501050,-0.816,0.002,0.607,23.59,31.325,-7.98
51501050,-0.826,0.01,0.579,20.072,20.545,-15.645
51501070,-0.825,0.023,0.558,17.325,8.26,-20.947
51501070,-0.821,0.025,0.531,15.137,-4.812,-24.272
51501080,-0.806,0.044,0.525,13.772,-17.307,-25.83
51501090,-0.774,0.068,0.531,10.5,-28.122,-25.777
51501100,-0.76,0.063,0.54,6.51,-35.245,-22.697
51501110,-0.737,0.068,0.551,0.052,-39.165,-20.93
51501120,-0.714,0.052,0.55,-8.61,-39.9,-20.457
51501130,-0.711,0.023,0.556,-15.995,-38.552,-19.442
51501140,-0.695,0.013,0.558,-22.89,-36.522,-18.497
51501150,-0.674,0,0.573,-26.845,-33.267,-16.275
51501160,-0.675,0,0.602,-31.71,-28.63,-13.352
51501170,-0.685,0,0.623,-38.692,-25.077,-11.06
51501180,-0.694,-0.025,0.643,-46.567,-22.47,-7.07
51501190,-0.718,-0.061,0.666,-53.76,-22.19,-0.21
51501200,-0.734,-0.073,0.705,-63.525,-23.187,3.36
51501210,-0.717,-0.108,0.723,-74.602,-25.445,3.815
51501220,-0.691,-0.174,0.729,-79.485,-27.055,5.705
51501230,-0.663,-0.215,0.756,-78.855,-25.235,9.975
51501240,-0.662,-0.223,0.785,-83.23,-20.09,16.292
51501250,-0.691,-0.301,0.784,-87.447,-14,22.365
51501260,-0.72,-0.344,0.805,-87.587,-4.97,26.705
51501270,-0.76,-0.374,0.814,-87.552,0.682,29.627
51501280,-0.804,-0.414,0.788,-83.37,1.995,32.602
51501290,-0.794,-0.419,0.798,-71.855,-0.822,30.31
51501300,-0.8,-0.419,0.826,-59.5,-7.805,27.93
51501310,-0.791,-0.413,0.829,-49.332,-17.937,23.03
51501320,-0.73,-0.377,0.853,-38.71,-27.86,14.455
51501330,-0.678,-0.352,0.844,-33.285,-38.43,8.872
51501330,-0.629,-0.333,0.824,-30.835,-45.202,3.64
51501350,-0.576,-0.307,0.799,-30.152,-47.635,-2.03
51501350,-0.535,-0.303,0.767,-29.627,-45.832,-6.16
51501370,-0.473,-0.265,0.749,-31.937,-40.215,-8.207
51501370,-0.431,-0.271,0.694,-35.647,-32.462,-7.192
51501390,-0.404,-0.251,0.666,-37.59,-20.807,-5.302
51501390,-0.413,-0.259,0.609,-42.682,-7.927,-0.385
51501410,-0.428,-0.251,0.6,-43.032,5.145,4.532
51501410,-0.472,-0.255,0.582,-44.187,15.977,12.775
51501420,-0.534,-0.257,0.586,-45.71,24.045,19.67
51501430,-0.596,-0.284,0.553,-47.495,26.617,22.032
51501440,-0.61,-0.306,0.544,-41.79,27.23,21.507
51501450,-0.609,-0.293,0.509,-36.225,27.195,21.682
51501460,-0.617,-0.282,0.498,-27.09,26.477,20.702
51501470,-0.649,-0.282,0.471,-18.952,22.61,20.825
51501480,-0.658,-0.293,0.47,-11.497,18.567,21.647
51501490,-0.694,-0.308,0.502,-2.817,13.877,20.247
51501500,-0.745,-0.299,0.543,3.237,5.005,15.505
51501510,-0.748,-0.284,0.619,10.727,-9.065,7.805
51501520,-0.769,-0.31,0.636,15.242,-27.037,3.482
51501530,-0.775,-0.35,0.684,23.765,-48.982,-0.682
51501540,-0.755,-0.357,0.712,31.115,-71.4,-2.52
51501550,-0.684,-0.368,0.782,41.072,-91.385,-5.88
51501560,-0.596,-0.349,0.842,45.272,-105,-6.737
51501570,-0.386,-0.345,0.958,48.072,-106.697,-9.065
51501580,-0.278,-0.374,1.014,46.41,-90.65,-6.265
51501590,-0.193,-0.299,1.141,43.697,-60.935,-2.537
51501600,-0.106,-0.314,1.095,36.767,-11.427,7.735
51501610,-0.555,-0.378,1.153,29.225,29.662,15.802
51501620,-0.804,-0.364,1.092,24.99,33.32,12.022
51501630,-0.944,-0.37,1.014,29.872,6.107,12.232
51501640,-0.753,-0.4,0.897,43.452,-28.787,12.652
51501650,-0.409,-0.356,0.833,62.685,-39.69,10.657
51501660,-0.248,-0.235,0.839,72.362,-16.502,10.097
51501670,-0.233,-0.179,0.821,66.78,24.447,10.255
51501680,-0.223,-0.16,0.77,53.97,71.19,11.62
51501690,-0.303,-0.157,0.703,40.512,117.022,20.965
51501700,-0.521,-0.159,0.664,30.467,153.16,33.53
51501710,-0.718,-0.135,0.63,18.9,169.365,38.517
51501720,-0.802,-0.123,0.597,7.367,168.927,38.377
51501730,-0.831,-0.121,0.556,-0.525,157.972,38.062
51501740,-0.861,-0.109,0.526,-7.455,141.172,38.92
51501750,-0.883,-0.101,0.507,-13.965,120.365,38.57
51501760,-0.869,-0.101,0.485,-18.672,99.33,38.01
51501760,-0.842,-0.107,0.475,-21.262,81.655,37.502
51501780,-0.841,-0.106,0.461,-21.822,68.355,36.732
51501780,-0.843,-0.125,0.445,-19.145,57.942,34.37
51501800,-0.838,-0.13,0.465,-13.475,49.332,30.835
51501800,-0.83,-0.128,0.5,-7.927,40.617,27.492
51501820,-0.845,-0.128,0.534,-2.747,29.837,24.29
51501820,-0.896,-0.139,0.566,3.64,14.297,22.242
51501830,-0.915,-0.139,0.589,8.89,-5.617,21.63
51501840,-0.881,-0.153,0.615,16.152,-28.735,21.332
51501850,-0.845,-0.146,0.639,23.625,-50.295,21.665
51501860,-0.787,-0.122,0.656,29.575,-65.432,21.91
51501870,-0.649,-0.079,0.7,32.567,-67.147,20.772
51501880,-0.554,-0.047,0.747,29.015,-53.637,17.43
51501890,-0.578,-0.045,0.764,13.23,-33.022,11.375
51501900,-0.639,-0.085,0.745,0.455,-14.98,4.952
51501910,-0.717,-0.138,0.729,-5.617,-2.852,5.495
51501920,-0.773,-0.169,0.718,-7.28,-0.262,4.55
51501930,-0.839,-0.169,0.728,-3.535,-5.74,3.115
51501940,-0.811,-0.139,0.751,-0.28,-13.65,0.665
51501950,-0.735,-0.119,0.759,-3.745,-18.585,-3.465
51501960,-0.671,-0.141,0.76,-9.747,-13.79,-10.255
51501970,-0.661,-0.146,0.755,-15.242,-1.977,-16.047
51501980,-0.704,-0.174,0.744,-16.292,8.68,-18.69
51501990,-0.776,-0.199,0.719,-16.362,10.395,-16.17
51502000,-0.817,-0.218,0.697,-11.462,3.01,-10.955
51502010,-0.837,-0.191,0.696,-5.057,-7.315,-5.477
51502020,-0.861,-0.171,0.692,-2.222,-18.795,-4.375
51502030,-0.881,-0.165,0.686,-1.732,-32.707,-7.525
51502040,-0.892,-0.161,0.696,-2.17,-49.35,-9.992
51502050,-0.837,-0.151,0.692,-2.87,-67.812,-11.322
51502060,-0.692,-0.092,0.659,-7.997,-78.12,-11.952
51502070,-0.619,-0.124,0.641,-13.09,-74.655,-14.192
51502080,-0.572,-0.14,0.621,-17.307,-61.705,-15.487
51502080,-0.493,-0.136,0.643,-17.097,-42.105,-9.782
51502100,-0.574,-0.179,0.663,-18.672,-18.62,-1.067
51502100,-0.747,-0.22,0.704,-19.74,-1.61,1.96
51502120,-0.867,-0.201,0.775,-18.305,2.24,-0.14
51502120,-0.957,-0.18,0.805,-18.707,-7.262,0.56
51502140,-0.978,-0.17,0.811,-21.21,-23.887,-2.73
51502140,-0.947,-0.17,0.806,-23.292,-40.932,-9.187
51502160,-0.916,-0.154,0.825,-23.782,-54.53,-12.022
51502160,-0.924,-0.14,0.834,-27.475,-65.922,-12.092
51502170,-0.888,-0.124,0.847,-34.002,-75.95,-16.765
51502180,-0.849,-0.134,0.857,-40.25,-83.422,-19.967
51502190,-0.846,-0.17,0.864,-43.382,-90.737,-20.562
51502200,-0.815,-0.169,0.884,-44.607,-99.662,-20.387
51502210,-0.793,-0.184,0.888,-46.217,-109.305,-20.072
51502220,-0.774,-0.175,0.898,-47.845,-119.017,-23.467
51502230,-0.749,-0.225,0.846,-52.202,-131.582,-27.965
51502240,-0.699,-0.248,0.828,-46.2,-146.93,-33.197
51502250,-0.522,-0.19,0.841,-36.837,-161,-36.872
51502260,-0.338,-0.174,0.782,-37.502,-160.177,-34.072
51502270,-0.248,-0.181,0.784,-37.257,-142.117,-33.862
51502280,-0.273,-0.213,0.747,-42,-117.547,-29.68
51502290,-0.316,-0.229,0.734,-43.225,-95.06,-24.622
51502300,-0.352,-0.228,0.721,-45.815,-76.79,-17.482
51502310,-0.38,-0.245,0.712,-48.685,-63.665,-9.345
51502320,-0.45,-0.248,0.719,-51.957,-54.022,-4.795
51502330,-0.531,-0.246,0.72,-56.892,-53.2,-4.147
51502340,-0.567,-0.238,0.724,-63.14,-60.76,-8.82
51502350,-0.625,-0.245,0.724,-71.697,-76.895,-15.172
51502360,-0.63,-0.268,0.703,-80.412,-99.522,-23.73
51502370,-0.522,-0.289,0.684,-85.942,-124.022,-31.902
51502380,-0.362,-0.331,0.628,-85.732,-140.682,-35.122
51502390,-0.227,-0.378,0.638,-77.105,-144.41,-31.99
51502400,-0.138,-0.406,0.652,-65.695,-136.57,-24.062
51502410,-0.05,-0.4,0.717,-52.517,-120.977,-16.45
51502420,-0.038,-0.407,0.772,-44.1,-100.047,-5.687
51502430,-0.063,-0.423,0.833,-34.475,-76.965,1.015
51502440,-0.079,-0.376,0.895,-30.747,-54.092,4.777
51502450,-0.137,-0.36,0.901,-35.857,-34.947,7.42
51502460,-0.188,-0.387,0.879,-41.877,-19.337,7.105
51502470,-0.252,-0.406,0.879,-46.112,-9.362,5.075
51502480,-0.286,-0.407,0.837,-49.122,-5.67,2.327
51502490,-0.268,-0.418,0.791,-45.99,-6.965,-1.68
51502500,-0.222,-0.392,0.769,-42.14,-7.507,-4.62
51502500,-0.198,-0.37,0.723,-41.912,-7.332,-3.482
51502510,-0.176,-0.361,0.722,-42.525,-5.04,-4.952
51502520,-0.22,-0.424,0.833,-46.637,-4.812,-3.902
51502530,-0.142,-0.664,0.888,-51.695,-7.542,-5.11
51502540,-0.131,-0.704,0.934,-43.767,-4.935,-4.147
51502550,-0.329,-0.617,0.996,-36.767,-11.042,-0.455
51502560,-0.346,-0.581,0.933,-31.115,-27.16,-3.972
51502570,-0.225,-0.548,0.932,-25.41,-41.807,-12.845
51502580,-0.162,-0.601,0.882,-27.3,-47.862,-11.777
51502590,-0.109,-0.586,0.841,-28.437,-47.32,-12.565
51502600,-0.063,-0.619,0.821,-24.71,-39.357,-10.675
51502610,-0.127,-0.62,0.806,-21.175,-29.365,-8.242
51502620,-0.201,-0.609,0.775,-17.097,-26.547,-6.895
51502630,-0.16,-0.571,0.764,-13.055,-28.927,-7.84
51502640,-0.114,-0.546,0.754,-10.71,-29.277,-6.457
51502650,-0.116,-0.552,0.768,-11.095,-24.972,-5.582
51502660,-0.15,-0.561,0.782,-15.89,-20.09,-4.462
51502670,-0.172,-0.596,0.795,-17.57,-18.707,-4.34
51502680,-0.191,-0.631,0.805,-15.19,-19.18,-2.485
51502690,-0.207,-0.63,0.829,-8.33,-21.49,-2.415
51502700,-0.18,-0.589,0.848,-3.185,-23.432,-4.077
51502710,-0.074,-0.558,0.847,-1.225,-21.735,-5.25
51502720,0.009,-0.534,0.843,0.595,-10.797,-5.337
51502730,0.014,-0.514,0.854,1.015,5.092,-3.902
51502740,-0.023,-0.509,0.847,-1.855,19.477,-1.435
51502750,-0.081,-0.513,0.853,-4.392,29.54,0.315
51502760,-0.168,-0.517,0.851,-6.545,33.862,0.577
51502770,-0.211,-0.521,0.822,-8.627,31.447,-1.26
51502780,-0.232,-0.528,0.799,-7.665,26.267,-4.515
51502790,-0.293,-0.533,0.785,-4.217,15.47,-5.757
51502800,-0.339,-0.52,0.765,-0.822,-1.155,-3.29
51502810,-0.322,-0.498,0.762,2.8,-18.987,-1.295
51502820,-0.248,-0.488,0.745,4.812,-30.957,-0.35
51502830,-0.174,-0.468,0.743,7.857,-35.087,1.172
51502830,-0.162,-0.433,0.757,10.412,-32.567,3.132
51502850,-0.115,-0.454,0.72,6.422,-28.507,5.005
51502850,-0.023,-0.512,0.719,4.305,-18.147,6.597
51502870,-0.011,-0.551,0.757,7.227,-3.202,8.89
51502870,-0.101,-0.567,0.803,11.287,9.45,11.637
51502890,-0.155,-0.575,0.833,13.597,13.772,10.027
51502890,-0.155,-0.603,0.838,15.242,13.632,8.015
51502910,-0.18,-0.619,0.835,18.357,13.107,7.612
51502910,-0.211,-0.606,0.853,22.592,9.52,9.397
51502920,-0.219,-0.562,0.871,24.762,3.517,11.62
51502930,-0.204,-0.553,0.85,21.245,-2.03,10.622
51502940,-0.146,-0.557,0.848,18.025,-4.27,6.93
51502950,-0.128,-0.544,0.815,15.452,-1.977,4.34
51502960,-0.127,-0.531,0.806,17.99,3.255,3.675
51502970,-0.091,-0.493,0.808,20.23,10.517,3.272
51502980,-0.067,-0.51,0.816,19.705,21.735,5.512
51502990,-0.178,-0.487,0.845,20.44,33.215,10.255
51503000,-0.29,-0.478,0.848,18.795,33.722,13.44
51503010,-0.256,-0.489,0.827,17.71,28.595,14.367
51503020,-0.258,-0.472,0.851,19.687,26.565,15.137
51503030,-0.278,-0.448,0.876,19.425,25.112,14.542
51503040,-0.257,-0.445,0.881,16.187,24.062,13.265
51503050,-0.255,-0.442,0.864,13.807,24.045,11.707
51503060,-0.247,-0.438,0.845,12.46,24.692,10.465
51503070,-0.245,-0.45,0.824,11.55,25.865,11.06
51503080,-0.281,-0.445,0.842,11.882,29.19,11.812
51503090,-0.353,-0.443,0.872,10.745,26.407,11.305
51503100,-0.333,-0.453,0.877,8.522,16.345,9.677
51503110,-0.251,-0.459,0.874,8.61,7.752,7.875
51503120,-0.201,-0.47,0.874,9.047,6.422,6.51
51503130,-0.196,-0.478,0.865,8.645,9.117,6.807
51503140,-0.228,-0.467,0.869,9.52,13.405,6.877
51503150,-0.209,-0.456,0.875,9.082,16.572,5.495
51503160,-0.207,-0.47,0.859,7.297,20.947,3.692
51503170,-0.24,-0.484,0.853,6.09,23.537,2.03
51503170,-0.258,-0.486,0.836,6.615,23.887,2.362
51503190,-0.28,-0.489,0.831,8.925,23.065,3.29
51503190,-0.314,-0.479,0.836,11.462,21.455,3.92
51503210,-0.336,-0.481,0.822,13.09,17.132,4.077
51503210,-0.314,-0.478,0.817,16.222,13.055,4.812
51503230,-0.311,-0.457,0.822,19.477,10.517,6.562
51503230,-0.316,-0.435,0.82,20.282,8.89,8.295
51503250,-0.292,-0.425,0.818,19.88,7.262,9.187
51503250,-0.28,-0.407,0.821,19.197,7.122,9.887
51503260,-0.286,-0.39,0.836,17.045,7.98,9.24
51503270,-0.285,-0.406,0.851,13.405,9.03,7.017
51503280,-0.29,-0.431,0.855,11.532,10.272,5.197
51503290,-0.311,-0.424,0.874,12.39,10.885,4.06
51503300,-0.302,-0.42,0.884,12.775,9.94,3.08
51503310,-0.266,-0.425,0.882,12.862,10.097,3.115
51503320,-0.293,-0.434,0.884,13.422,13.44,3.377
51503330,-0.302,-0.393,0.912,9.922,16.187,-0.822
51503340,-0.283,-0.412,0.853,1.522,17.71,-6.02
51503350,-0.337,-0.481,0.856,8.54,17.552,0.612
51503360,-0.358,-0.459,0.857,13.772,12.687,8.697
51503370,-0.347,-0.459,0.859,18.13,10.01,7.805
51503380,-0.357,-0.476,0.86,24.57,9.625,7.682
51503390,-0.424,-0.518,0.83,33.057,4.515,10.01
51503400,-0.373,-0.443,0.925,48.475,-3.85,12.53
51503410,-0.447,-0.36,0.954,57.435,-13.3,16.572
51503420,-0.392,-0.317,0.956,52.832,-22.645,15.872
51503430,-0.336,-0.299,0.94,43.96,-27.632,12.32
51503440,-0.323,-0.281,0.884,34.632,-27.755,9.082
51503450,-0.285,-0.276,0.821,26.74,-25.672,7.035
51503460,-0.214,-0.273,0.785,23.187,-17.57,5.302
51503470,-0.199,-0.247,0.77,20.177,-4.69,5.792
51503480,-0.219,-0.229,0.756,14.402,9.362,7.367
51503490,-0.262,-0.221,0.756,8.96,20.79,9.94
51503500,-0.368,-0.207,0.767,2.73,26.757,12.442
51503510,-0.446,-0.194,0.78,-6.352,22.767,12.46
51503520,-0.455,-0.198,0.777,-16.642,11.97,11.462
51503530,-0.421,-0.224,0.757,-25.27,1.19,11.025
51503540,-0.431,-0.265,0.749,-31.237,-4.34,9.257
51503550,-0.418,-0.321,0.794,-33.477,-8.382,4.952
51503560,-0.269,-0.506,0.938,-29.68,-8.855,3.255
51503570,-0.196,-0.634,1.129,-12.215,4.34,7.472
51503580,-0.419,-0.539,1.281,8.155,13.422,12.6
51503580,-0.517,-0.395,1.261,10.29,3.71,11.847
51503600,-0.428,-0.379,1.112,0.507,-11.637,1.995
51503600,-0.363,-0.409,0.975,-7.647,-20.545,-7.98
51503620,-0.387,-0.396,0.879,-11.2,-26.722,-8.855
51503620,-0.43,-0.373,0.833,-11.567,-35.437,-5.932
51503640,-0.396,-0.354,0.816,-14.192,-44.975,-5.547
51503640,-0.341,-0.356,0.807,-18.707,-50.05,-5.355
51503660,-0.315,-0.372,0.808,-21.385,-48.895,-3.57
51503660,-0.339,-0.382,0.824,-21.245,-46.007,-0.857
51503670,-0.347,-0.375,0.848,-19.092,-45.167,0.682
51503680,-0.336,-0.367,0.881,-16.065,-46.13,2.835
51503690,-0.299,-0.351,0.898,-15.872,-47.092,4.112
51503700,-0.286,-0.372,0.896,-18.357,-45.08,3.727
51503710,-0.303,-0.406,0.878,-17.482,-44.31,3.57
51503720,-0.335,-0.382,0.875,-12.057,-47.757,4.112
51503730,-0.34,-0.36,0.851,-8.89,-56.157,5.565
51503740,-0.337,-0.361,0.839,-8.33,-64.417,5.512
51503750,-0.402,-0.349,0.847,-11.077,-75.95,4.357
51503760,-0.385,-0.266,0.832,-16.887,-94.797,1.575
51503770,0.089,-0.48,0.72,-23.572,-92.872,3.972
51503780,-0.059,-0.521,0.846,-8.435,-53.217,8.207
51503790,-0.44,-0.32,0.87,-10.15,-47.827,11.865
51503800,-0.075,-0.533,0.851,-20.055,-60.182,10.92
51503810,0.122,-0.532,0.913,2.205,-54.075,8.715
51503820,-0.045,-0.378,0.932,7.385,-43.242,18.007
51503830,0.01,-0.376,0.915,-2.747,-35.402,11.007
51503840,0.047,-0.481,0.87,-2.047,-28.367,5.39
51503850,0.079,-0.402,0.875,1.557,-19.355,4.06
51503860,0.006,-0.379,0.884,2.59,-8.96,2.975
51503870,-0.032,-0.394,0.878,0.087,-0.945,0.297
51503880,-0.067,-0.422,0.862,-1.33,6.387,1.172
51503890,-0.104,-0.42,0.869,2.887,12.862,2.03
51503900,-0.135,-0.402,0.875,6.09,18.217,3.08
51503910,-0.141,-0.401,0.867,5.845,22.365,2.432
51503920,-0.157,-0.411,0.878,5.46,26.197,2.03
51503920,-0.191,-0.423,0.889,4.9,25.2,1.47
51503940,-0.178,-0.429,0.883,5.092,22.05,1.032
51503940,-0.169,-0.424,0.872,6.527,19.775,0.752
51503960,-0.279,-0.35,0.866,6.615,16.345,-0.105
51503960,-0.179,-0.427,0.791,-1.75,3.167,-3.482
51503980,0.085,-0.552,0.766,2.502,9.835,-1.067
51503980,-0.148,-0.459,0.89,21.07,32.235,8.855
51504000,-0.368,-0.363,0.944,23.887,31.605,13.335
51504000,-0.225,-0.433,0.891,18.847,18.497,12.442
51504010,-0.197,-0.473,0.859,23.45,13.965,14.367
51504020,-0.255,-0.439,0.854,31.307,13.212,16.677
51504030,-0.264,-0.411,0.839,35,12.285,16.922
51504040,-0.219,-0.368,0.839,34.142,12.932,13.037
51504050,-0.118,-0.307,0.794,25.585,18.235,4.375
51504060,-0.167,-0.364,0.821,30.59,27.667,7.997
51504070,-0.132,-0.268,0.857,32.305,34.212,9.922
51504080,-0.189,-0.292,0.901,27.58,43.89,6.02
51504090,-0.22,-0.297,0.973,26.057,51.205,0.14
51504100,-0.283,-0.274,1.011,24.482,52.972,-3.36
51504110,-0.341,-0.266,1.034,24.78,49.77,-7.91
51504120,-0.375,-0.236,0.992,19.442,44.415,-11.48
51504130,-0.417,-0.254,0.942,13.37,38.727,-15.225
51504140,-0.45,-0.282,0.898,11.042,32.147,-16.45
51504150,-0.423,-0.283,0.867,14.052,24.5,-13.685
51504160,-0.382,-0.313,0.848,18.322,18.427,-8.872
51504170,-0.375,-0.348,0.831,23.257,13.002,-3.255
51504180,-0.333,-0.294,0.825,25.882,8.33,1.295
51504190,-0.29,-0.353,0.932,22.137,6.755,2.537
51504200,-0.255,-0.385,0.935,20.51,8.837,0.612
51504210,-0.293,-0.286,0.948,25.252,10.15,-1.522
51504220,-0.317,-0.233,0.962,23.887,9.117,-1.592
51504230,-0.311,-0.238,0.971,17.482,8.207,-3.202
51504240,-0.31,-0.227,1.008,13.317,9.59,-4.777
51504250,-0.329,-0.203,1.022,8.575,9.17,-5.092
51504260,-0.329,-0.201,1.019,3.762,8.172,-4.97
51504270,-0.314,-0.202,1.027,1.33,9.415,-6.545
51504280,-0.339,-0.22,1.016,-1.96,11.952,-8.977
51504290,-0.351,-0.236,0.99,-5.88,11.025,-12.39
51504300,-0.363,-0.267,0.975,-10.395,6.912,-12.81
51504310,-0.342,-0.276,0.967,-12.547,2.345,-13.212
51504320,-0.336,-0.295,0.96,-15.942,0.297,-13.72
51504330,-0.355,-0.303,0.956,-20.23,-1.68,-14.805
51504330,-0.387,-0.313,0.974,-24.832,-6.195,-14.822
51504350,-0.38,-0.321,1,-29.872,-11.777,-14.805
51504350,-0.344,-0.314,1.063,-33.985,-11.812,-16.485
51504370,-0.379,-0.304,1.115,-37.87,-5.757,-21.07
51504370,-0.388,-0.292,1.127,-43.47,3.237,-27.037
51504390,-0.41,-0.309,1.142,-49.262,10.745,-34.072
51504390,-0.362,-0.356,1.086,-55.667,14.402,-40.442
51504410,-0.321,-0.447,0.955,-61.53,13.282,-42.105
51504410,-0.252,-0.538,0.819,-59.377,11.69,-40.127
51504420,-0.149,-0.596,0.735,-46.935,11.795,-36.697
51504430,0.032,-0.643,0.721,-27.982,20.895,-32.672
51504440,0.06,-0.677,0.673,-6.002,42.035,-25.41
51504450,0.049,-0.756,0.726,18.847,63.42,-17.132
51504460,0.168,-0.791,0.775,48.632,85.575,-5.67
51504470,0.079,-0.688,0.861,84.227,111.247,10.99
51504480,-0.123,-0.572,0.928,108.027,130.322,25.06
51504490,-0.233,-0.523,0.94,118.195,135.52,30.03
51504500,-0.252,-0.494,0.895,125.702,132.072,31.395
51504510,-0.298,-0.438,0.869,134.855,127.802,34.125
51504520,-0.363,-0.355,0.835,140.892,122.027,33.862
51504530,-0.396,-0.287,0.785,140.84,114.31,30.117
51504540,-0.438,-0.237,0.743,138.075,106.89,25.585
51504550,-0.508,-0.194,0.709,134.085,96.775,22.312
51504560,-0.599,-0.163,0.679,129.272,82.355,19.757
51504570,-0.674,-0.138,0.662,124.6,62.457,15.33
51504580,-0.757,-0.118,0.667,118.825,38.027,9.38
51504590,-0.825,-0.121,0.655,111.247,6.072,1.4
51504600,-0.759,-0.054,0.637,105.735,-26.215,-8.662
51504610,-0.715,-0.011,0.64,103.372,-52.78,-14.997
51504620,-0.676,-0.01,0.607,98.087,-72.362,-19.232
51504630,-0.61,-0.014,0.583,96.687,-85.715,-22.487
51504640,-0.537,0.006,0.619,96.145,-91.052,-24.237
51504650,-0.467,0.049,0.654,91.315,-89.81,-24.832
51504660,-0.405,0.064,0.667,82.67,-81.812,-24.955
51504670,-0.353,0.02,0.636,76.02,-67.847,-25.252
51504670,-0.281,0.021,0.633,74.742,-46.41,-25.305
51504690,-0.234,0.041,0.659,76.842,-20.527,-21.822
51504690,-0.231,0.079,0.685,74.987,8.61,-16.502
51504710,-0.252,0.099,0.699,71.137,36.26,-11.48
51504710,-0.308,0.094,0.724,65.362,60.252,-5.792
51504730,-0.375,0.065,0.721,59.867,77.542,0.367
51504730,-0.448,0.034,0.722,60.34,88.76,7.07
51504750,-0.505,0.059,0.748,62.702,94.657,10.692
51504750,-0.554,0.07,0.782,64.067,94.605,12.652
51504760,-0.634,0.057,0.807,64.12,86.502,12.967
51504770,-0.668,0.044,0.83,66.08,75.705,12.6
51504780,-0.626,0.083,0.835,67.13,64.592,8.837
51504790,-0.653,0.111,0.86,67.742,51.047,7.682
51504800,-0.659,0.12,0.861,63.91,37.117,4.987
51504810,-0.627,0.092,0.86,63.857,24.062,3.517
51504820,-0.59,0.155,0.841,59.78,14.14,1.575
51504830,-0.59,0.163,0.839,63.42,6.037,0.087
51504840,-0.597,0.228,0.865,63.315,1.435,-0.052
51504850,-0.594,0.276,0.889,54.145,-3.272,-2.502
51504860,-0.566,0.289,0.916,42.525,-6.72,-9.362
51504870,-0.557,0.26,0.906,29.47,-8.19,-14.717
51504880,-0.558,0.269,0.925,16.117,-7.35,-17.78
51504890,-0.584,0.262,0.952,2.38,-7.297,-19.775
51504900,-0.596,0.23,0.951,-10.937,-8.4,-22.872
51504910,-0.585,0.195,0.93,-24.482,-9.082,-25.742
51504920,-0.602,0.158,0.929,-34.177,-8.19,-26.88
51504930,-0.63,0.146,0.949,-43.19,-8.96,-29.82
51504940,-0.681,0.076,0.933,-50.015,-13.335,-32.147
51504950,-0.665,0.012,0.904,-47.442,-21.647,-35.367
51504960,-0.602,-0.031,0.899,-37.975,-29.295,-35.35
51504970,-0.597,-0.029,0.898,-24.027,-35.42,-31.465
51504980,-0.563,0.01,0.903,-9.45,-38.92,-29.085
51504990,-0.523,0.014,0.902,1.19,-40.092,-27.037
51505000,-0.465,0.066,0.906,7.717,-35.7,-25.865
51505010,-0.449,0.089,0.906,10.867,-28.35,-23.887
51505020,-0.453,0.094,0.898,8.645,-18.41,-22.137
51505030,-0.435,0.135,0.881,2.52,-7.927,-21.28
51505040,-0.493,0.127,0.886,-3.78,0.595,-19.547
51505050,-0.516,0.135,0.859,-13.3,4.497,-19.985
51505060,-0.527,0.114,0.834,-20.177,8.522,-16.45
51505070,-0.556,0.089,0.825,-24.517,12.18,-14.595
51505080,-0.586,0.087,0.832,-28.63,13.265,-15.067
51505080,-0.624,0.054,0.815,-32.042,10.307,-15.785
51505100,-0.65,0.009,0.794,-32.48,5.25,-15.715
51505100,-0.648,-0.006,0.795,-27.632,-1.855,-17.325
51505120,-0.653,-0.016,0.799,-21.49,-9.152,-19.81
51505120,-0.644,-0.003,0.813,-14.402,-16.677,-22.312
51505140,-0.615,0.015,0.835,-9.817,-22.942,-25.55
51505140,-0.578,0.025,0.836,-7.192,-27.055,-27.177
51505160,-0.538,0.053,0.839,-7.157,-27.475,-27.79
51505160,-0.521,0.054,0.811,-9.8,-24.902,-26.11
51505170,-0.493,0.066,0.788,-10.92,-19.145,-23.24
51505180,-0.465,0.091,0.777,-11.847,-10.57,-18.007
51505190,-0.464,0.113,0.77,-13.632,-0.647,-11.847
51505200,-0.467,0.151,0.784,-20.212,10.972,-7.525
51505210,-0.504,0.161,0.793,-30.345,21.595,-2.922
51505220,-0.559,0.157,0.783,-42.91,29.715,-0.962
51505230,-0.611,0.152,0.761,-52.342,34.335,-2.012
51505240,-0.643,0.154,0.746,-59.57,35.612,-6.492
51505250,-0.659,0.144,0.714,-63.77,32.2,-9.677
51505260,-0.679,0.128,0.703,-64.05,25.532,-10.08
51505270,-0.698,0.097,0.684,-60.095,15.82,-9.397
51505280,-0.68,0.085,0.669,-54.442,6.212,-10.762
51505290,-0.668,0.054,0.694,-42.507,-2.117,-8.277
51505300,-0.694,0.058,0.713,-34.51,-10.15,-5.162
51505310,-0.65,0.081,0.728,-32.497,-16.817,-10.71
51505320,-0.6,0.076,0.712,-32.322,-19.39,-16.642
51505330,-0.579,0.059,0.679,-33.127,-19.075,-18.007
51505340,-0.569,0.035,0.656,-34.09,-14.717,-16.222
51505350,-0.696,-0.1,0.696,-24.062,-15.155,-2.292
51505360,-0.784,-0.019,0.785,-17.78,-25.9,7.647
51505370,-0.782,0.027,0.84,-30.327,-42.91,-5.617
51505380,-0.767,-0.095,0.871,-42.14,-56.77,-15.68
51505390,-0.792,-0.203,0.825,-50.872,-73.237,-25.147
51505400,-0.705,-0.19,0.834,-48.142,-87.062,-36.33
51505410,-0.602,-0.16,0.869,-45.027,-96.81,-40.81
51505420,-0.55,-0.229,0.866,-42.857,-105.612,-36.365
51505420,-0.404,-0.422,0.956,-32.462,-114.187,-20.597
51505440,-0.1,-0.711,0.831,-4.847,-98.367,4.322
51505440,-0.175,-0.475,1.011,59.027,-60.375,39.392
51505460,-0.706,-0.216,1.184,89.6,-56.752,61.18
51505460,-0.506,-0.199,1.153,87.78,-79.1,55.055
51505480,-0.035,-0.104,1.175,74.952,-73.08,52.71
51505480,-0.234,-0.18,1.038,45.412,-23.047,67.462
51505500,-0.578,-0.249,1.054,25.2,12.162,56.07
51505500,-0.413,-0.31,0.977,15.085,30.905,29.82
51505510,-0.417,-0.274,0.951,16.765,52.867,24.64
51505520,-0.584,-0.315,0.888,23.205,67.235,38.465
51505530,-0.579,-0.264,0.857,37.922,71.05,55.527
51505540,-0.593,-0.142,0.834,52.815,73.832,72.047
51505550,-0.636,-0.045,0.837,62.16,79.59,83.947
51505560,-0.674,-0.012,0.84,64.172,84,90.58
51505570,-0.699,0.023,0.856,64.575,85.417,93.502
51505580,-0.738,0.078,0.868,61.967,81.217,94.08
51505590,-0.777,0.118,0.863,57.907,69.055,91.035
51505600,-0.835,0.128,0.855,54.337,49.857,85.54
51505610,-0.816,0.155,0.86,54.355,22.102,78.05
51505620,-0.722,0.199,0.835,55.352,-7.35,73.552
51505630,-0.623,0.236,0.799,54.705,-33.04,70.77
51505640,-0.534,0.237,0.788,54.057,-54.985,66.955
51505650,-0.362,0.249,0.741,55.527,-63.857,68.32
51505660,-0.404,0.276,0.766,52.937,-61.897,73.587
51505670,-0.297,0.32,0.764,47.197,-56.192,67.585
51505680,-0.293,0.309,0.78,38.255,-47.652,64.067
51505690,-0.254,0.304,0.826,29.872,-37.485,59.815
51505700,-0.29,0.272,0.852,20.072,-27.982,58.94
51505710,-0.343,0.207,0.823,12.932,-26.232,58.642
51505720,-0.337,0.175,0.808,10.465,-29.12,58.66
51505730,-0.322,0.163,0.828,12.6,-31.15,59.85
51505740,-0.319,0.2,0.879,18.235,-33.372,57.12
51505750,-0.353,0.181,0.869,19.145,-40.022,54.407
51505760,-0.287,0.202,0.891,19.565,-46.27,53.217
51505770,-0.292,0.215,0.917,19.18,-49.017,56.297
51505780,-0.438,0.134,0.879,17.587,-65.59,57.855
51505790,-0.244,0.132,0.848,19.915,-85.925,52.692
51505800,-0.171,0.177,0.811,21.245,-91.035,53.97
51505810,-0.151,0.227,0.803,19.547,-84.91,48.335
51505820,-0.039,0.233,0.779,12.04,-69.755,38.57
51505830,0.004,0.23,0.75,6.51,-45.202,31.482
51505830,-0.009,0.251,0.736,1.785,-14.087,26.81
51505850,-0.074,0.236,0.738,-3.85,13.405,22.645
51505850,-0.134,0.179,0.722,-7.367,30.222,23.345
51505860,-0.249,0.17,0.724,-5.197,39.41,27.755
51505870,-0.358,0.203,0.752,-2.502,40.897,26.827
51505880,-0.402,0.218,0.772,-4.515,35.122,22.697
51505890,-0.373,0.207,0.769,-3.307,27.772,17.465
51505900,-0.347,0.207,0.778,1.75,21.385,16.502
51505910,-0.375,0.212,0.785,4.375,16.012,20.58
51505920,-0.394,0.229,0.809,5.862,12.075,21.91
51505930,-0.382,0.249,0.825,4.725,10.745,19.792
51505940,-0.37,0.281,0.857,0.507,13.947,16.047
51505950,-0.425,0.296,0.925,-9.31,17.395,10.535
51505960,-0.458,0.295,0.979,-24.115,15.155,1.172
51505970,-0.384,0.256,0.995,-39.13,11.462,-10.78
51505980,-0.331,0.171,0.985,-52.185,11.76,-23.415
51505990,-0.243,0.111,0.975,-58.52,20.597,-37.59
51506000,-0.204,0.096,0.992,-59.762,39.742,-50.627
51506010,-0.113,0.107,1.005,-62.02,68.705,-63.402
51506020,-0.223,0.109,1.059,-67.9,110.022,-75.862
51506030,-0.374,0.097,1.112,-79.677,128.852,-96.127
51506040,-0.429,-0.022,1.01,-90.072,128.45,-99.82
51506050,-0.389,-0.06,1.012,-73.062,118.44,-100.467
51506060,-0.404,-0.042,0.985,-54.057,105.472,-90.737
51506070,-0.43,-0.062,0.933,-33.32,89.775,-76.3
51506080,-0.466,-0.044,0.887,-9.45,76.65,-66.255
51506090,-0.547,-0.011,0.827,12.775,66.132,-54.827
51506100,-0.485,0.073,0.813,26.722,64.785,-45.745
51506110,-0.322,0.272,0.822,29.19,78.4,-43.767
51506120,-0.543,0.198,0.72,27.072,97.475,-14.157
51506130,-0.572,0.308,0.689,20.125,113.907,-17.5
51506140,-0.654,0.36,0.651,-1.137,126.052,-34.002
51506150,-0.712,0.331,0.619,-23.1,132.755,-47.232
51506160,-0.763,0.282,0.542,-41.667,133.455,-51.047
51506170,-0.871,0.217,0.516,-49.752,126.875,-45.22
51506170,-0.952,0.226,0.518,-53.095,110.775,-30.117
51506190,-1.066,0.143,0.5,-54.057,83.195,-10.465
51506190,-1.009,0.135,0.505,-48.23,55.772,-19.372
51506210,-0.981,0.118,0.554,-37.135,30.94,-28.402
51506210,-0.977,0.075,0.594,-26.53,7.595,-27.912
51506230,-0.921,0.08,0.655,-15.89,-13.3,-26.635
51506230,-0.849,0.094,0.704,-11.34,-28.595,-21.787
51506250,-0.899,0.015,0.678,-9.835,-39.97,-6.58
51506250,-0.805,0.064,0.755,0.367,-46.375,-7.245
51506260,-0.75,0.098,0.766,-3.535,-47.425,-13.265
51506270,-0.725,0.057,0.762,-8.172,-44.695,-13.86
51506280,-0.679,0.022,0.767,-6.982,-39.935,-14.927
51506290,-0.642,0.016,0.765,-4.865,-33.46,-13.685
51506300,-0.649,-0.001,0.778,-1.067,-27.107,-9.73
51506310,-0.655,-0.005,0.808,1.627,-23.835,-6.317
51506320,-0.575,-0.008,0.844,8.907,-19.267,4.077
51506330,-0.592,-0.006,0.843,16.065,-10.272,19.372
51506340,-0.645,-0.045,0.847,22.452,-0.892,19.32
51506350,-0.633,0.024,0.864,32.795,9.1,10.22
51506360,-0.726,0.042,0.863,29.697,10.255,5.407
51506370,-0.696,0.02,0.843,27.895,8.82,2.8
51506380,-0.676,0.051,0.881,32.532,6.562,1.347
51506390,-0.658,0.065,0.877,23.572,1.312,0.507
51506400,-0.638,0.041,0.816,16.135,0.962,1.312
51506410,-0.634,0.023,0.805,15.487,2.082,3.185
51506420,-0.636,0.003,0.753,14.472,4.27,5.442
51506430,-0.699,0.011,0.749,16.922,6.037,7.822
51506440,-0.725,0.026,0.751,16.38,5.512,7.297
51506450,-0.714,0.02,0.743,14.945,1.242,4.882
51506460,-0.695,0.026,0.747,14.017,-2.397,3.045
51506470,-0.687,0.022,0.741,12.915,-6.23,1.68
51506480,-0.695,0.003,0.733,12.827,-9.485,-0.175
51506490,-0.715,0.004,0.735,13.72,-14.84,-1.277
51506500,-0.709,0.011,0.717,13.825,-21.122,-0.962
51506510,-0.694,0.033,0.729,15.715,-26.022,-4.042
51506520,-0.695,0.037,0.733,16.73,-27.457,-6.3
51506530,-0.692,0.024,0.735,15.802,-27.93,-6.877
51506530,-0.7,0.018,0.725,16.432,-28.735,-6.247
51506550,-0.696,0.036,0.737,19.005,-30.17,-5.617
51506550,-0.696,0.066,0.758,20.422,-32.147,-5.372
51506570,-0.682,0.074,0.759,20.58,-36.085,-3.5
51506570,-0.63,0.086,0.763,19.705,-40.722,0.647
51506580,-0.585,0.086,0.778,20.685,-42.49,4.095
51506590,-0.584,0.099,0.803,20.79,-39.34,8.4
51506600,-0.569,0.095,0.805,18.13,-34.615,11.672
51506610,-0.544,0.063,0.819,18.865,-27.422,16.852
51506620,-0.512,0.061,0.839,22.452,-18.025,21.892
51506630,-0.507,0.058,0.855,26.775,-5.775,26.547
51506640,-0.523,0.057,0.873,32.672,7.577,29.68
51506650,-0.543,0.077,0.923,39.042,20.335,31.605
51506660,-0.632,0.053,0.927,43.312,27.58,36.627
51506670,-0.652,0.093,0.943,48.982,29.89,33.425
51506680,-0.662,0.095,0.935,56.647,27.037,28.822
51506690,-0.665,0.126,0.954,67.777,20.3,25.76
51506700,-0.666,0.161,0.949,70.682,11.987,20.685
51506710,-0.68,0.144,0.928,76.86,1.855,18.41
51506720,-0.634,0.163,0.903,86.012,-8.26,14.297
51506730,-0.563,0.192,0.873,93.677,-13.86,9.625
51506740,-0.523,0.246,0.861,101.57,-14.122,6.02
51506750,-0.513,0.268,0.824,104.58,-11.13,2.38
51506760,-0.466,0.336,0.817,105.49,-1.96,-4.252
51506770,-0.494,0.369,0.794,102.76,8.68,-6.51
51506780,-0.52,0.412,0.776,98.35,17.535,-9.24
51506790,-0.542,0.466,0.772,91.805,24.36,-13.545
51506800,-0.597,0.48,0.739,79.695,29.82,-18.147
51506810,-0.63,0.498,0.715,69.002,32.042,-27.58
51506820,-0.696,0.489,0.684,59.657,30.292,-34.282
51506830,-0.743,0.484,0.671,51.257,22.54,-37.555
51506840,-0.749,0.487,0.651,40.845,11.462,-39.795
51506850,-0.754,0.461,0.628,32.042,-0.07,-41.65
51506860,-0.754,0.459,0.604,25.55,-10.167,-44.24
51506870,-0.757,0.447,0.601,20.947,-19.792,-47.39
51506880,-0.708,0.467,0.6,14.315,-27.002,-50.365
51506890,-0.698,0.419,0.591,8.977,-31.902,-46.69
51506900,-0.625,0.437,0.596,4.357,-34.055,-43.26
51506910,-0.617,0.418,0.589,-0.962,-34.317,-39.375
51506920,-0.607,0.376,0.59,-2.712,-31.675,-38.535
51506920,-0.63,0.325,0.576,-1.837,-30.292,-34.632
51506940,-0.629,0.313,0.57,-0.647,-29.365,-34.86
51506940,-0.617,0.306,0.572,2.852,-27.387,-43.96
51506960,-0.528,0.382,0.655,5.337,-20.3,-63.84
51506960,-0.625,0.29,0.598,-7.665,-14.017,-58.135
51506980,-0.703,0.227,0.62,0.682,-15.837,-37.905
51506980,-0.686,0.321,0.684,5.757,-21.927,-37.765
51507000,-0.733,0.322,0.677,-2.275,-26.985,-42.14
51507000,-0.734,0.302,0.693,-7.665,-32.567,-50.487
51507010,-0.711,0.294,0.694,-15.522,-39.34,-56.105
51507020,-0.711,0.302,0.701,-25.147,-44.8,-59.43
51507030,-0.693,0.311,0.704,-37.047,-48.457,-63.997
51507040,-0.657,0.285,0.654,-52.062,-50.592,-68.652
51507050,-0.633,0.216,0.625,-62.055,-50.067,-69.107
51507060,-0.627,0.157,0.576,-67.217,-49.332,-60.375
51507070,-0.603,0.108,0.545,-65.59,-47.372,-50.067
51507080,-0.608,0.086,0.55,-58.835,-42.437,-41.125
51507090,-0.638,0.06,0.559,-51.835,-34.877,-34.965
51507100,-0.637,0.059,0.582,-44.135,-26.18,-34.212
51507110,-0.636,0.075,0.626,-37.747,-18.357,-36.19
51507120,-0.686,0.084,0.654,-35.56,-12.74,-38.955
51507130,-0.736,0.092,0.678,-36.96,-12.215,-44.187
51507140,-0.764,0.082,0.697,-42.122,-15.89,-48.527
51507150,-0.745,0.106,0.687,-50.452,-23.257,-51.432
51507160,-0.726,0.098,0.662,-57.242,-32.322,-50.785
51507170,-0.69,0.079,0.605,-63.472,-41.755,-47.005
51507180,-0.638,0.039,0.551,-63.472,-47.145,-38.762
51507190,-0.602,0.002,0.522,-57.662,-47.285,-28.192
51507200,-0.576,0.01,0.519,-50.085,-41.912,-18.69
51507210,-0.568,0.039,0.566,-43.365,-33.075,-12.162
51507220,-0.596,0.051,0.627,-41.002,-23.467,-8.225
51507230,-0.588,0.071,0.697,-43.26,-15.61,-8.837
51507240,-0.799,-0.139,0.666,-37.1,-16.922,1.802
51507250,-0.763,-0.046,0.777,-25.602,-25.585,-8.522
51507260,-0.771,-0.011,0.827,-30.695,-37.94,-19.722
51507260,-0.76,-0.06,0.823,-37.502,-50.872,-27.09
51507280,-0.707,-0.127,0.798,-40.232,-61.005,-35.175
51507280,-0.69,-0.196,0.787,-33.705,-67.637,-36.505
51507300,-0.642,-0.207,0.803,-19.04,-70.63,-40.25
51507300,-0.588,-0.228,0.77,-3.272,-70.472,-46.445
51507320,-0.475,-0.16,0.862,18.235,-61.547,-53.077
51507320,-0.376,-0.051,0.988,28.07,-49.472,-55.44
51507330,-0.301,-0.025,1.067,21.77,-31.08,-51.87
51507340,-0.28,-0.062,1.099,12.32,-6.632,-44.747
51507350,-0.392,-0.09,1.112,2.817,17.01,-35.385
51507360,-0.548,-0.069,1.119,-9.17,31.797,-29.662
51507370,-0.633,-0.103,1.077,-26.372,36.767,-28.175
51507380,-0.7,-0.206,0.986,-39.147,34.702,-28.752
51507390,-0.704,-0.261,0.915,-40.565,28.647,-31.342
51507400,-0.712,-0.224,0.91,-35.28,20.807,-34.615
51507410,-0.715,-0.165,0.906,-31.867,8.61,-40.215
51507420,-0.693,-0.127,0.916,-31.272,-7.157,-49.437
51507430,-0.66,-0.114,0.896,-33.355,-26.407,-58.03
51507440,-0.643,-0.083,0.874,-33.53,-47.827,-64.382
51507450,-0.514,-0.07,0.903,-39.55,-65.922,-67.445
51507460,-0.214,-0.168,0.835,-46.112,-59.727,-62.3
51507470,-0.312,-0.15,0.88,-37.817,-39.882,-47.442
51507480,-0.576,-0.069,0.935,-35.665,-31.43,-38.167
51507490,-0.57,-0.131,0.92,-48.212,-38.15,-41.912
51507500,-0.466,-0.22,0.846,-57.802,-45.622,-48.125
51507510,-0.413,-0.271,0.795,-56.49,-48.912,-45.535
51507520,-0.448,-0.273,0.811,-50.277,-51.327,-35.717
51507530,-0.431,-0.255,0.795,-49.105,-57.365,-25.095
51507540,-0.447,-0.31,0.752,-50.26,-62.107,-14.525
51507550,-0.509,-0.395,0.739,-47.32,-67.655,-6.702
51507560,-0.447,-0.424,0.7,-42.017,-73.395,-6.247
51507570,-0.349,-0.41,0.71,-29.277,-75.285,-3.552
51507580,-0.364,-0.38,0.759,-20.492,-73.867,1.102
51507590,-0.3,-0.362,0.766,-16.887,-71.207,2.905
51507600,-0.325,-0.351,0.795,-15.995,-63.98,4.55
51507610,-0.316,-0.364,0.782,-12.652,-60.147,2.747
51507620,-0.28,-0.334,0.776,-1.54,-55.142,1.925
51507630,-0.264,-0.272,0.832,8.925,-50.767,4.182
51507640,-0.26,-0.254,0.846,9.957,-48.37,3.64
51507650,-0.212,-0.253,0.817,12.775,-45.622,1.312
51507660,-0.229,-0.229,0.855,22.05,-40.705,3.832
51507670,-0.237,-0.199,0.857,22.925,-37.38,6.72
51507670,-0.221,-0.201,0.863,21.21,-31.727,6.527
51507690,-0.255,-0.219,0.877,18.917,-25.917,7.49
51507690,-0.306,-0.258,0.865,17.412,-24.482,11.865
51507710,-0.347,-0.293,0.858,20.195,-27.37,17.92
51507710,-0.362,-0.292,0.897,25.55,-31.902,23.1
51507730,-0.377,-0.277,0.953,27.527,-38.5,27.702
51507730,-0.341,-0.251,1.007,27.23,-44.292,32.27
51507750,-0.292,-0.224,1.034,25.34,-47.355,39.515
51507750,-0.329,-0.225,1.028,19.775,-48.667,49.647
51507760,-0.268,-0.152,0.972,15.995,-49.77,56.787
51507770,-0.422,-0.101,1.028,7.07,-59.972,69.807
51507780,-0.296,-0.312,0.822,-4.9,-64.382,76.405
51507790,-0.072,-0.26,0.883,17.027,-53.655,71.522
51507800,-0.073,-0.113,0.944,34.947,-39.987,75.512
51507810,0.052,0.09,1.039,34.282,-19.792,67.532
51507820,0.194,0.216,1.066,19.32,5.495,54.915
51507830,0.151,0.168,1.062,0.402,35.105,42.595
51507840,0.119,0.143,1.067,-23.047,63.945,26.11
51507850,0.063,0.078,1.071,-45.71,87.517,12.215
51507860,-0.092,-0.023,1.053,-60.55,106.277,4.112
51507870,-0.251,-0.14,0.992,-70.805,121.782,-5.967
51507880,-0.38,-0.226,0.994,-74.865,129.955,-21.402
51507890,-0.419,-0.336,0.887,-73.307,128.59,-29.697
51507900,-0.765,-0.446,0.916,-46.165,112.997,-10.99
51507910,-0.845,-0.346,0.944,-38.465,81.34,-22.785
51507920,-0.698,-0.341,0.873,-43.05,55.037,-37.187
51507930,-0.68,-0.364,0.844,-42.665,37.1,-45.482
51507940,-0.681,-0.363,0.8,-39.41,22.015,-44.747
51507950,-0.578,-0.367,0.716,-34.527,8.802,-35.332
51507960,-0.549,-0.332,0.729,-25.515,3.815,-23.135
51507970,-0.627,-0.278,0.746,-22.785,-1.872,-16.45
51507980,-0.491,-0.261,0.76,-25.165,-9.922,-14.227
51507990,-0.411,-0.246,0.8,-28.735,-11.13,-11.427
51508000,-0.457,-0.192,0.796,-36.242,-6.475,-13.282
51508010,-0.473,-0.126,0.764,-47.6,-7.245,-21.385
51508010,-0.496,-0.141,0.705,-64.767,-12.95,-28.997
51508030,-0.333,-0.269,0.7,-74.532,-19.39,-34.492
51508030,-0.193,-0.364,0.733,-61.285,-11.655,-32.55
51508050,-0.207,-0.41,0.893,-38.972,5.145,-23.17
51508050,-0.397,-0.528,0.926,-26.687,14.455,-8.452
51508070,-0.555,-0.552,0.895,-7.892,12.477,3.78
51508070,-0.658,-0.482,0.897,12.145,-2.957,8.505
51508080,-0.57,-0.427,0.884,10.78,-19.757,8.68
51508090,-0.507,-0.434,0.852,8.33,-26.757,4.952
51508100,-0.52,-0.435,0.856,10.552,-32.077,0.14
51508110,-0.757,-0.488,0.926,6.405,-51.537,-1.995
51508120,-0.559,-0.589,0.895,7.857,-84.735,-8.085
51508130,-0.241,-0.662,0.901,23.485,-96.407,-4.235
51508140,-0.099,-0.648,0.926,41.072,-77.455,14.017
51508150,-0.089,-0.638,0.902,46.392,-36.032,38.832
51508160,-0.153,-0.656,0.905,56.7,15.75,54.547
51508170,-0.335,-0.705,0.876,71.172,64.68,70.105
51508180,-0.418,-0.647,0.855,86.817,101.745,86.117
51508190,-0.604,-0.552,0.901,99.277,124.635,108.132
51508200,-0.804,-0.496,0.941,98.262,131.197,123.497
51508210,-0.825,-0.398,0.811,85.365,124.11,125.965
51508220,-0.818,-0.184,0.796,74.27,110.775,124.127
51508230,-0.897,-0.209,0.767,52.605,95.427,131.775
51508240,-0.838,-0.199,0.706,31.815,73.745,132.422
51508250,-0.487,-0.052,0.709,20.51,57.137,134.82
51508260,-0.087,0.137,0.697,0.105,67.76,152.11
51508270,0.096,0.206,0.573,-33.53,107.87,176.662
51508280,0.361,0.169,0.511,-62.895,177.87,200.147
51508290,0.38,0.091,0.317,-85.137,264.495,217.49
51508300,-0.083,0.002,0.176,-102.182,341.985,217.437
51508310,-0.747,-0.092,0.254,-96.285,359.152,202.23
51508320,-1.172,-0.097,0.459,-73.377,315.927,187.792
51508330,-1.685,-0.15,0.614,-50.365,215.092,167.527
51508340,-1.599,-0.091,0.682,-22.312,88.707,133.472
51508350,-1.129,0.016,0.637,5.25,-19.232,102.9
51508360,-0.674,0.153,0.612,12.652,-79.24,78.575
51508370,-0.297,0.147,0.552,4.34,-87.395,62.842
51508380,0.064,0.238,0.553,-8.26,-41.387,54.162
51508390,-0.174,0.275,0.646,-26.215,26.25,56.332
51508400,-0.485,0.183,0.585,-54.127,74.76,61.057
51508410,-0.619,0.106,0.607,-53.777,99.557,68.267
51508420,-0.996,0.025,0.846,-44.765,101.657,82.845
51508420,-1.266,-0.115,0.811,-36.977,55.772,80.587
51508440,-0.765,-0.029,0.566,-14.122,2.94,69.912
51508440,-0.343,0.21,0.631,16.205,6.317,76.807
51508460,-0.811,0.245,0.794,29.067,32.462,74.882
51508460,-0.784,0.192,0.664,5.705,33.81,53.987
51508480,-0.644,0.112,0.649,7.647,41.807,48.702
51508480,-0.849,0.126,0.607,15.82,42.385,57.82
51508500,-1.038,0.117,0.541,21.927,14.962,69.16
51508500,-0.879,0.141,0.522,42.42,-19.897,73.045
51508510,-0.74,0.241,0.602,58.73,-40.18,68.792
51508520,-0.717,0.341,0.66,52.5,-45.412,53.532
51508530,-0.679,0.356,0.688,34.335,-38.115,29.575
51508540,-0.683,0.243,0.655,14.367,-26.442,11.182
51508550,-0.665,0.156,0.702,10.815,-12.932,2.082
51508560,-0.708,0.168,0.747,13.44,0.192,4.9
51508570,-0.702,0.198,0.769,16.66,11.497,8.435
51508580,-0.921,0.18,0.899,18.165,21.822,12.722
51508590,-1.044,0.237,0.888,14.857,6.107,12.67
51508600,-0.833,0.269,0.796,13.002,-19.407,14.717
51508610,-0.732,0.248,0.682,8.907,-27.912,23.03
51508620,-0.796,0.165,0.559,10.22,-25.567,23.065
51508630,-0.711,0.218,0.571,18.41,-15.977,13.492
51508640,-0.728,0.237,0.576,18.987,0,11.935
51508650,-0.82,0.258,0.586,12.407,14.262,8.47
51508660,-0.975,0.25,0.514,0.402,19.145,0.91
51508670,-1.018,0.176,0.418,-9.8,4.462,-3.657
51508680,-0.905,0.109,0.356,-8.75,-15.102,3.045
51508690,-0.87,0.082,0.422,2.887,-23.432,16.065
51508700,-0.936,0.102,0.546,12.442,-25.322,21.28
51508710,-0.909,0.134,0.635,18.077,-28.647,17.657
51508720,-0.85,0.182,0.689,18.34,-29.47,13.37
51508730,-0.833,0.194,0.69,13.352,-28.507,10.255
51508740,-0.858,0.168,0.666,8.872,-25.865,9.345
51508750,-0.903,0.147,0.675,8.207,-23.887,10.097
51508760,-0.927,0.151,0.715,9.537,-24.622,11.935
51508760,-0.856,0.187,0.714,8.977,-28.017,15.732
51508780,-0.796,0.165,0.705,8.89,-26.197,22.312
51508780,-0.747,0.18,0.666,7.822,-17.5,21.017
51508800,-0.784,0.186,0.597,3.552,-11.34,18.217
51508800,-0.717,0.174,0.535,5.6,-10.85,17.43
51508820,-0.656,0.196,0.515,12.495,-9.03,20.282
51508820,-0.649,0.206,0.516,14.752,-6.702,21.07
51508830,-0.653,0.183,0.538,14.962,-5.722,21.752
51508840,-0.653,0.21,0.59,13.895,-8.89,23.03
51508850,-0.566,0.218,0.593,8.75,-9.782,22.102
51508860,-0.509,0.248,0.584,10.325,5.04,14.245
51508870,-0.594,0.219,0.572,3.5,24.29,9.642
51508880,-0.742,0.17,0.509,-1.557,33.425,14.227
51508890,-0.91,0.136,0.53,4.042,24.745,19.792
51508900,-0.882,0.168,0.539,11.707,1.82,27.755
51508910,-0.867,0.229,0.582,21.56,-18.06,36.33
51508920,-0.841,0.276,0.622,22.102,-28.472,34.877
51508930,-0.803,0.281,0.629,16.712,-31.902,27.667
51508940,-0.807,0.275,0.627,8.96,-31.202,22.505
51508950,-0.812,0.254,0.621,2.222,-30.275,18.322
51508960,-0.801,0.229,0.635,0.752,-30.327,13.562
51508970,-0.769,0.244,0.658,0.595,-31.447,8.33
51508980,-0.765,0.24,0.674,1.26,-33.32,4.742
51508990,-0.739,0.228,0.672,1.505,-35.665,1.225
51509000,-0.729,0.21,0.665,3.045,-38.01,-1.295
51509010,-0.673,0.226,0.665,6.737,-40.88,-2.52
51509020,-0.609,0.238,0.65,9.73,-39.025,-2.082
51509030,-0.576,0.244,0.64,11.62,-30.187,-2.485
51509040,-0.572,0.258,0.64,13.16,-16.537,-3.85
51509050,-0.621,0.246,0.622,12.967,-4.305,-1.977
51509060,-0.617,0.249,0.618,15.26,5.075,-2.45
51509070,-0.708,0.276,0.633,15.487,10.272,-3.885
51509080,-0.651,0.266,0.568,11.9,6.3,-6.72
51509090,-0.588,0.275,0.588,17.36,14.805,-4.427
51509100,-0.724,0.332,0.608,18.567,26.092,-5.127
51509110,-0.817,0.315,0.593,15.61,25.322,-7.822
51509120,-0.773,0.33,0.597,15.96,21.28,-10.867
51509130,-0.756,0.359,0.601,15.102,19.635,-13.685
51509140,-0.765,0.366,0.605,9.047,20.72,-20.37
51509150,-0.748,0.375,0.602,1.575,21.507,-28.822
51509160,-0.739,0.346,0.585,-6.037,22.732,-33.985
51509170,-0.694,0.346,0.584,-12.81,24.36,-38.325
51509170,-0.662,0.328,0.56,-19.092,27.79,-37.782
51509190,-0.625,0.316,0.54,-21.612,33.985,-33.425
51509190,-0.605,0.316,0.521,-20.79,44.292,-26.95
51509210,-0.525,0.333,0.521,-18.532,61.46,-22.452
51509210,-0.507,0.342,0.532,-18.532,85.977,-15.872
51509230,-0.536,0.353,0.545,-22.207,112.892,-11.865
51509230,-0.656,0.343,0.519,-29.785,137.182,-12.757
51509240,-0.787,0.46,0.608,-44.502,143.482,9.765
51509250,-1.264,0.069,0.432,-33.967,116.777,58.292
51509260,-1.168,0.295,0.554,-14.717,87.832,35.7
51509270,-1.108,0.343,0.527,-19.127,54.005,26.075
51509280,-1.037,0.3,0.499,-18.655,28.472,15.575
51509290,-0.988,0.276,0.456,-17.587,10.307,10.692
51509300,-0.909,0.293,0.445,-12.372,0.945,5.512
51509310,-0.879,0.326,0.462,-7.455,-1.12,6.352
51509320,-0.856,0.346,0.462,-9.992,0.875,6.107
51509330,-0.883,0.308,0.447,-12.075,4.602,3.517
51509340,-0.962,0.268,0.433,-8.085,6.195,-2.922
51509350,-0.99,0.296,0.512,-1.82,3.465,-10.972
51509360,-1.003,0.293,0.496,-5.95,-5.145,-8.82
51509370,-0.98,0.294,0.549,-4.007,-12.845,-13.615
51509380,-0.986,0.272,0.505,-9.187,-19.915,-9.1
51509390,-0.905,0.288,0.505,-11.235,-23.222,-18.515
51509400,-0.907,0.229,0.475,-13.352,-24.307,-22.68
51509410,-0.893,0.158,0.445,-6.265,-27.51,-20.51
51509420,-0.83,0.224,0.483,4.76,-27.317,-16.45
51509430,-0.812,0.223,0.491,6.877,-21.997,-14.07
51509440,-0.811,0.198,0.501,10.202,-14.227,-10.5
51509450,-0.828,0.209,0.535,12.985,-7.962,-8.452
51509460,-0.846,0.22,0.54,13.51,-5.862,-7.052
51509470,-0.822,0.21,0.546,14.227,-6.405,-5.74
51509480,-0.792,0.216,0.56,14.192,-5.18,-4.9
51509490,-0.8,0.226,0.536,11.795,-3.71,-2.432
51509500,-0.822,0.224,0.532,9.362,-2.082,-1.242
51509510,-0.831,0.223,0.523,7.402,-1.89,-0.945
51509510,-0.84,0.22,0.518,6.44,-3.692,-0.665
51509530,-0.844,0.213,0.508,6.37,-6.492,-1.592
51509530,-0.836,0.201,0.499,7,-8.715,-2.502
51509550,-0.834,0.203,0.5,8.75,-10.832,-3.657
51509550,-0.806,0.217,0.507,10.622,-11.182,-6.982
51509570,-0.848,0.211,0.514,9.152,-10.71,-1.89
51509570,-0.824,0.218,0.49,5.197,-8.977,0.175
51509580,-0.84,0.209,0.487,7.192,-4.9,-0.367
51509590,-0.848,0.226,0.501,8.067,-0.14,-1.68
51509600,-0.895,0.218,0.487,6.387,1.295,0.875
51509610,-0.895,0.211,0.483,7.28,-0.332,2.065
51509620,-0.887,0.219,0.471,9.59,-3.867,2.555
51509630,-0.868,0.229,0.46,12.53,-5.355,2.975
51509640,-0.844,0.249,0.473,14.945,-2.765,3.062
51509650,-0.855,0.266,0.484,14.262,0.56,3.517
51509660,-0.844,0.28,0.476,11.515,2.94,3.692
51509670,-0.846,0.288,0.472,10.395,6.597,4.217
51509680,-0.852,0.291,0.467,8.487,9.817,5.372
51509690,-0.845,0.309,0.47,5.652,11.095,7.122
51509700,-0.843,0.297,0.455,2.222,13.037,15.4
51509710,-0.841,0.306,0.436,-5.495,18.97,24.745
51509720,-0.852,0.281,0.426,-6.825,24.43,25.48
51509730,-0.868,0.286,0.433,-3.99,26.88,23.922
51509740,-0.873,0.289,0.449,-5.512,25.375,25.497
51509750,-0.878,0.272,0.42,-3.937,19.127,30.87
51509760,-0.84,0.267,0.403,1.12,13.807,37.765
51509770,-0.831,0.269,0.391,10.237,11.585,44.782
51509780,-0.879,0.277,0.425,20.23,7.507,49.787
51509790,-0.931,0.298,0.421,25.165,-0.542,53.97
51509800,-0.946,0.365,0.519,25.06,-10.937,58.38
51509810,-1.018,0.362,0.442,17.955,-24.762,65.695
51509820,-0.919,0.409,0.474,12.337,-32.182,60.182
51509830,-1.079,0.222,0.419,9.187,-50.207,52.657
51509840,-0.899,0.234,0.372,24.272,-72.03,54.11
51509850,-0.862,0.321,0.43,45.097,-82.687,70.42
51509860,-0.943,0.376,0.477,51.275,-90.23,76.107
51509870,-0.864,0.418,0.511,52.15,-97.16,70.42
51509880,-0.746,0.443,0.542,48.055,-98.14,65.817
51509890,-0.699,0.332,0.482,42.63,-89.25,62.527
51509900,-0.619,0.348,0.481,40.46,-77.14,62.002
51509910,-0.615,0.38,0.516,39.952,-58.485,66.15
51509910,-0.674,0.435,0.58,40.722,-41.02,66.412
51509920,-0.733,0.447,0.597,36.155,-29.785,63.49
51509930,-0.804,0.449,0.642,33.18,-26.512,58.922
51509940,-0.856,0.457,0.674,29.312,-34.825,54.827
51509950,-0.88,0.49,0.715,27.667,-53.935,49.647
51509960,-0.921,0.507,0.688,22.085,-83.335,43.697
51509970,-0.882,0.509,0.617,16.327,-121.835,35.927
51509980,-0.72,0.512,0.524,15.942,-159.32,29.977
51509990,-0.473,0.512,0.46,14.157,-181.912,26.635
51510000,-0.197,0.521,0.449,14.49,-179.445,27.16
51510010,-0.084,0.538,0.48,11.76,-148.995,33.74
51510020,-0.175,0.549,0.518,6.177,-103.53,40.915
51510030,-0.458,0.54,0.609,-2.765,-64.977,40.022
51510040,-0.58,0.48,0.674,-13.247,-53.13,29.557
51510050,-0.591,0.479,0.723,-17.29,-60.27,23.065
51510060,-0.572,0.525,0.761,-19.407,-72.73,20.51
51510070,-0.478,0.495,0.796,-21.28,-80.185,17.412
51510080,-0.573,0.403,0.752,-20.545,-83.055,17.447
51510090,-0.337,0.435,0.735,-16.642,-78.942,18.2
51510100,-0.353,0.468,0.769,-2.432,-55.107,22.592
51510110,-0.418,0.501,0.738,-0.402,-32.532,24.272
51510120,-0.494,0.491,0.692,0.542,-15.855,23.327
51510130,-0.511,0.511,0.672,4.935,-7.367,21.752
51510140,-0.497,0.562,0.652,5.967,-0.875,20.422
51510150,-0.542,0.612,0.649,2.222,4.427,16.082
51510160,-0.556,0.597,0.617,-11.252,3.447,6.125
51510170,-0.548,0.527,0.593,-22.75,-7.087,-0.91
51510180,-0.434,0.479,0.575,-29.452,-20.947,-5.512
51510190,-0.308,0.477,0.595,-30.205,-25.742,-9.187
51510200,-0.338,0.452,0.605,-33.355,-21.647,-12.302
51510210,-0.251,0.452,0.592,-36.452,-14.542,-18.095
51510220,-0.336,0.419,0.572,-39.917,-1.137,-21.367
51510230,-0.452,0.276,0.645,-36.662,12.967,-30.625
51510240,-0.401,0.276,0.74,-19.04,14.962,-36.26
51510250,-0.231,0.358,0.8,-5.407,21.052,-34.265
51510260,-0.255,0.317,0.805,-0.087,42.017,-35.875
51510260,-0.351,0.28,0.81,8.032,64.277,-44.135
51510280,-0.403,0.322,0.827,20.055,79.537,-49.945
51510280,-0.44,0.374,0.837,28.735,89.11,-53.9
51510300,-0.497,0.39,0.831,33.757,96.215,-62.702
51510300,-0.528,0.448,0.847,35.98,99.4,-78.277
51510320,-0.568,0.48,0.817,30.765,98.245,-95.742
51510320,-0.611,0.488,0.782,23.922,91.49,-110.46
51510330,-0.64,0.494,0.737,15.26,80.815,-119.647
51510340,-0.63,0.483,0.684,6.912,69.072,-125.09
51510350,-0.631,0.475,0.639,-1.207,58.257,-127.995
51510360,-0.637,0.48,0.589,-10.08,49.14,-128.782
51510370,-0.654,0.452,0.55,-18.182,41.755,-127.12
51510380,-0.605,0.456,0.465,-29.715,36.172,-125.65
51510390,-0.673,0.369,0.428,-29.015,31.99,-108.01
51510400,-0.714,0.369,0.418,-29.732,30.66,-91.682
51510410,-0.764,0.365,0.425,-30.24,31.482,-82.775
51510420,-0.779,0.4,0.468,-32.462,35.682,-85.347
51510430,-0.785,0.405,0.485,-42.175,41.72,-87.797
51510440,-0.804,0.385,0.495,-51.292,50.032,-89.722
51510450,-0.856,0.38,0.499,-59.867,57.155,-93.135
51510460,-0.847,0.436,0.585,-67.795,59.85,-94.29
51510470,-1.179,0.238,0.37,-85.47,44.205,-44.52
51510480,-1.219,0.098,0.47,-48.072,9.047,-15.907
51510490,-1.042,0.31,0.521,-33.845,-15.96,-37.66
51510500,-1.001,0.324,0.536,-37.607,-29.82,-45.307
51510510,-1.062,0.244,0.555,-35.997,-38.447,-39.445
51510520,-1.045,0.189,0.578,-35.682,-45.517,-33.652
51510530,-0.938,0.2,0.583,-34.072,-46.742,-32.095
51510540,-0.843,0.25,0.645,-25.9,-39.357,-37.555
51510550,-0.831,0.258,0.666,-27.895,-29.82,-39.655
51510560,-0.798,0.238,0.664,-33.757,-21.332,-43.942
51510570,-0.758,0.207,0.654,-35.962,-16.117,-46.322
51510580,-0.725,0.192,0.63,-36.435,-12.46,-46.55
51510580,-0.716,0.185,0.608,-36.05,-11.55,-45.377
51510600,-0.716,0.177,0.597,-34.597,-12.722,-40.6
51510600,-0.692,0.163,0.579,-34.615,-16.082,-34.562
51510620,-0.674,0.146,0.575,-33.075,-17.99,-30.012
51510620,-0.66,0.127,0.584,-29.33,-17.885,-26.337
51510640,-0.659,0.141,0.609,-28.21,-15.295,-24.622
51510640,-0.678,0.103,0.545,-33.232,-13.615,-22.925
51510660,-0.787,0.011,0.61,-21.822,-18.41,-16.45
51510660,-0.755,0.093,0.596,-24.745,-28.98,-23.397
51510670,-0.615,-0.007,0.592,-31.132,-36.102,-21.542
51510680,-0.555,-0.046,0.584,-18.602,-23.747,-8.26
51510690,-0.761,-0.021,0.693,-6.562,-7.962,6.352
51510700,-0.88,0.029,0.744,-3.972,-4.025,6.685
51510710,-0.918,-0.009,0.731,-9.222,-9.065,-0.245
51510720,-0.882,-0.03,0.732,-7.612,-15.592,-6.247
51510730,-0.831,-0.036,0.688,-6.195,-19.11,-8.382
51510740,-0.777,0.017,0.689,-2.45,-17.955,-8.487
51510750,-0.754,0.011,0.666,-2.852,-14.315,-6.457
51510760,-0.756,0.016,0.671,-2.03,-11.392,-5.022
51510770,-0.733,0.02,0.66,-1.977,-11.392,-2.345
51510780,-0.711,0.03,0.663,-2.66,-11.917,1.102
51510790,-0.696,0.035,0.659,-3.692,-10.815,3.57
51510800,-0.744,0.018,0.673,-2.695,-9.502,5.985
51510810,-0.744,0.035,0.675,-1.767,-10.447,5.687
51510820,-0.73,0.059,0.691,-1.697,-10.342,4.165
51510830,-0.742,0.06,0.671,-5.32,-8.82,3.657
51510840,-0.774,0.045,0.659,-3.867,-7.28,3.675
51510850,-0.771,0.053,0.666,-1.785,-8.592,2.817
51510860,-0.757,0.076,0.666,-1.417,-9.205,1.855
51510870,-0.767,0.081,0.661,-0.822,-9.817,1.12
51510880,-0.77,0.072,0.66,-0.735,-9.957,0.07
51510890,-0.774,0.063,0.665,0.175,-11.2,-0.752
51510900,-0.761,0.065,0.672,1.382,-12.022,-1.312
51510910,-0.75,0.069,0.677,1.592,-12.46,-0.122
51510920,-0.75,0.05,0.669,0.507,-12.565,3.465
51510930,-0.724,0.062,0.675,1.89,-12.67,2.38
51510940,-0.736,0.066,0.682,2.8,-11.392,2.625
51510950,-0.728,0.064,0.677,2.187,-10.605,2.712
51510960,-0.721,0.071,0.679,2.345,-9.257,2.047
51510970,-0.711,0.086,0.69,2.257,-7.717,1.26
51510980,-0.707,0.09,0.692,1.102,-5.39,1.155
51510990,-0.71,0.08,0.687,-0.227,-3.132,1.505
51511000,-0.725,0.074,0.689,-0.665,-1.26,2.415
51511010,-0.735,0.079,0.69,-0.175,-0.122,3.167
51511010,-0.723,0.086,0.702,-0.56,1.767,3.5
51511030,-0.721,0.076,0.679,-1.522,5.057,4.27
51511030,-0.762,0.064,0.668,-2.1,6.387,5.092
51511050,-0.766,0.073,0.658,-1.225,5.127,4.375
51511050,-0.75,0.088,0.663,0.175,3.202,3.115
51511070,-0.75,0.089,0.667,-0.612,0.84,1.89
51511070,-0.741,0.078,0.673,-1.207,-0.227,0.875
51511080,-0.734,0.072,0.674,-1.05,0.017,0.875
51511090,-0.752,0.072,0.677,-1.417,0.455,1.347
51511100,-0.749,0.068,0.671,-1.417,0.647,1.242
51511110,-0.742,0.068,0.666,-0.927,0.56,1.4
51511120,-0.75,0.068,0.662,-0.98,-0.122,1.732
51511130,-0.753,0.07,0.662,-0.892,-1.05,1.767
51511140,-0.759,0.066,0.664,-0.77,-2.135,1.522
51511150,-0.756,0.068,0.663,-0.91,-3.605,0.892
51511160,-0.742,0.073,0.664,-0.612,-3.902,0.35
51511170,-0.741,0.071,0.666,-0.525,-3.535,0.315
51511180,-0.748,0.07,0.674,-0.945,-3.167,0.245
51511190,-0.718,0.059,0.668,-0.455,-2.117,-0.035
51511200,-0.715,0.069,0.682,0.262,-0.07,1.085
51511210,-0.739,0.084,0.672,-0.087,0.63,2.467
51511220,-0.764,0.086,0.666,-1.417,0.21,2.31
51511230,-0.763,0.08,0.669,-2.747,-2.362,0.717
51511240,-0.731,0.076,0.669,-2.677,-4.025,-0.28
51511250,-0.722,0.085,0.678,-2.257,-3.605,0.315
51511260,-0.73,0.088,0.678,-3.692,-1.785,1.067
51511270,-0.728,0.082,0.682,-4.865,-0.507,1.627
51511280,-0.739,0.074,0.679,-5.53,1.295,2.45
51511290,-0.734,0.07,0.684,-5.022,2.905,3.062
51511300,-0.719,0.067,0.683,-4.69,5.582,4.287
51511310,-0.708,0.068,0.676,-4.917,9.082,6.545
51511320,-0.744,0.057,0.655,-4.532,13.072,10.587
51511330,-0.774,0.093,0.645,-5.145,14.087,11.602
51511330,-0.792,0.088,0.634,-6.475,14.122,10.465
51511350,-0.816,0.052,0.624,-7.472,10.902,7.455
51511350,-0.79,0.044,0.63,-6.23,6.947,3.395
51511370,-0.767,0.063,0.643,-4.882,5.617,0.805
51511370,-0.781,0.062,0.655,-5.442,3.552,-0.437
51511390,-0.774,0.069,0.654,-4.182,1.242,-2.432
51511390,-0.76,0.064,0.657,-2.975,-1.26,-3.255
51511410,-0.746,0.073,0.663,-1.855,-3.115,-3.08
51511410,-0.751,0.07,0.663,-0.945,-3.727,-1.102
51511420,-0.74,0.075,0.668,-0.752,-2.677,1.557
51511430,-0.717,0.081,0.668,-1.137,0.56,2.485
51511440,-0.728,0.068,0.644,-1.067,5.722,3.675
51511450,-0.753,0.06,0.628,-0.98,12.845,4.567
51511460,-0.78,0.065,0.611,-1.925,18.112,5.39
51511470,-0.814,0.07,0.608,-2.502,21.175,5.705
51511480,-0.84,0.077,0.605,-4.497,20.37,4.655
51511490,-0.844,0.072,0.6,-7.577,15.662,3.185
51511500,-0.82,0.086,0.604,-8.802,8.417,1.522
51511510,-0.821,0.076,0.62,-7.612,2.187,4.042
51511520,-0.797,0.076,0.626,-9.975,-3.22,3.01
51511530,-0.745,0.063,0.625,-8.032,-6.457,0.21
51511540,-0.747,0.065,0.637,-4.427,-5.18,-0.28
51511550,-0.736,0.082,0.648,-1.435,-2.502,-1.4
51511560,-0.749,0.081,0.654,0.385,0.822,-3.08
51511570,-0.748,0.081,0.662,0.892,2.012,-6.02
51511580,-0.737,0.091,0.667,2.327,4.13,-4.637
51511590,-0.738,0.108,0.658,-0.612,5.145,-2.625
51511600,-0.766,0.101,0.656,-4.952,7,-0.297
51511610,-0.775,0.074,0.632,-7.472,7.367,0.175
51511620,-0.758,0.101,0.643,-7.157,8.837,-2.222
51511630,-0.779,0.081,0.632,-10.027,9.87,-1.225
51511640,-0.81,0.069,0.628,-11.515,8.995,-2.065
51511650,-0.777,0.072,0.632,-9.94,8.417,-3.202
51511660,-0.776,0.074,0.646,-11.165,9.012,-3.71
51511670,-0.779,0.061,0.646,-13.79,8.452,-3.832
51511680,-0.781,0.043,0.657,-12.267,8.295,-3.832
51511690,-0.786,0.054,0.635,-10.587,6.842,-3.64
51511700,-0.784,0.062,0.623,-9.835,5.197,-3.185
51511710,-0.786,0.066,0.624,-9.59,5.057,-2.432
51511720,-0.795,0.04,0.619,-10.937,4.725,-1.96
51511730,-0.793,0.018,0.611,-8.662,3.08,-1.26
51511740,-0.79,0.03,0.617,-6.072,1.785,-2.012
51511750,-0.776,0.038,0.622,-4.48,0.14,-2.065
51511760,-0.777,0.035,0.623,-4.34,-0.455,-1.557
51511760,-0.796,0.009,0.603,-5.547,-1.925,-0.91
51511780,-0.797,0.001,0.597,-2.712,-4.322,-0.385
51511780,-0.775,0.017,0.598,0.525,-5.88,-0.857
51511800,-0.781,0.033,0.604,2.397,-6.527,-1.225
51511800,-0.797,0.037,0.613,2.012,-7.437,-1.242
51511820,-0.803,0.037,0.618,0.927,-8.715,-1.505
51511820,-0.808,0.027,0.622,0.385,-11.025,-1.4
51511830,-0.818,0.035,0.626,0.665,-13.912,-1.015
51511840,-0.798,0.047,0.634,0.84,-16.275,-0.787
51511850,-0.776,0.048,0.637,0.84,-16.52,-0.14
51511860,-0.779,0.047,0.635,0.595,-15.697,0.472
51511870,-0.759,0.053,0.645,1.82,-13.02,-0.647
51511880,-0.744,0.06,0.654,2.712,-9.765,-1.942
51511890,-0.739,0.054,0.667,1.54,-6.265,-1.435
51511900,-0.763,0.051,0.667,1.68,-3.955,0.507
51511910,-0.748,0.055,0.668,1.4,-3.36,0.752
51511920,-0.735,0.057,0.659,0.507,-1.645,1.592
51511930,-0.754,0.045,0.653,-0.595,0.577,3.377
51511940,-0.765,0.044,0.644,-1.61,2.66,4.585
51511950,-0.78,0.055,0.625,-2.082,3.517,5.337
51511960,-0.793,0.047,0.63,-3.115,3.132,4.812
51511970,-0.787,0.011,0.624,-2.66,2.117,3.832
51511980,-0.774,0.011,0.616,0.822,2.082,4.725
51511990,-0.801,0.031,0.613,3.657,1.015,6.212
51512000,-0.816,0.015,0.589,4.917,-1.662,5.302
51512010,-0.873,-0.022,0.578,7.56,-8.942,3.01
51512020,-0.938,-0.028,0.6,12.897,-19.967,-1.522
51512030,-0.804,-0.024,0.66,20.737,-31.395,-8.435
51512040,-0.526,-0.008,0.735,27.982,-26.827,-6.527
51512050,-0.475,0.01,0.743,31.71,-6.142,10.045
51512060,-0.596,0.051,0.736,26.302,15.872,26.232
51512070,-0.627,0.057,0.683,20.055,34.597,34.545
51512080,-0.658,0.066,0.661,17.71,53.357,39.602
51512080,-0.742,0.052,0.631,8.942,64.592,46.182
51512100,-0.733,0.027,0.602,2.187,70.612,48.86
51512100,-0.781,0.009,0.604,3.692,74.602,51.31
51512120,-0.842,0.013,0.593,5.25,73.57,47.6
51512120,-0.864,0.054,0.611,7.367,66.412,38.937
51512140,-0.901,0.039,0.576,8.837,55.702,39.83
51512140,-0.859,0.049,0.548,16.485,45.097,33.442
51512160,-0.841,0.095,0.562,24.132,40.25,27.037
51512160,-0.852,0.089,0.544,29.732,34.387,28.28
51512170,-0.818,0.152,0.535,38.255,31.027,24.045
51512180,-0.796,0.222,0.532,42.017,32.76,16.747
51512190,-0.79,0.271,0.577,42.647,37.59,6.51
51512200,-0.828,0.238,0.55,35.14,38.85,13.265
51512210,-0.841,0.296,0.548,25.287,38.605,18.55
51512220,-0.865,0.347,0.513,12.057,39.515,16.117
51512230,-0.945,0.302,0.472,3.447,36.417,18.112
51512240,-0.906,0.348,0.398,-12.985,33.11,19.827
51512250,-0.899,0.33,0.343,-24.36,30.712,22.26
51512260,-0.966,0.339,0.336,-28.927,29.295,23.625
51512270,-0.98,0.338,0.338,-32.812,24.272,14.455
51512280,-0.998,0.311,0.399,-32.97,16.625,5.057
51512290,-1.037,0.245,0.407,-35.805,5.057,-4.725
51512300,-1.04,0.194,0.393,-35.997,-6.195,-15.645
51512310,-1.006,0.157,0.413,-29.05,-16.275,-24.237
51512320,-0.947,0.135,0.429,-21.56,-26.022,-30.835
51512330,-0.888,0.13,0.478,-15.785,-34.982,-34.755
51512340,-0.831,0.125,0.529,-13.02,-40.845,-35.735
51512350,-0.776,0.114,0.572,-14.14,-43.067,-34.422
51512360,-0.779,0.101,0.594,-19.145,-41.65,-24.307
51512370,-0.769,0.079,0.555,-26.67,-37.415,-11.095
51512380,-0.721,0.085,0.564,-25.217,-27.807,-8.382
51512390,-0.763,0.071,0.565,-23.712,-15.837,-3.552
51512400,-0.792,0.054,0.558,-23.117,-6.195,2.94
51512410,-0.829,0.055,0.53,-22.505,-0.91,9.957
51512420,-0.851,0.067,0.521,-18.777,2.695,15.295
51512430,-0.862,0.077,0.514,-13.527,4.252,16.502
51512440,-0.871,0.097,0.52,-9.555,4.637,14.805
51512450,-0.881,0.111,0.52,-7.77,3.272,15.12
51512460,-0.887,0.12,0.516,-7.437,0.087,14.892
51512470,-0.888,0.126,0.516,-5.775,-4.392,11.515
51512480,-0.869,0.146,0.52,-4.515,-8.277,6.405
51512490,-0.84,0.163,0.526,-4.847,-11.357,0.892
51512500,-0.843,0.166,0.523,-6.51,-12.547,-3.447
51512510,-0.853,0.163,0.524,-9.345,-13.597,-7.77
51512510,-0.883,0.141,0.523,-10.762,-15.382,-10.832
51512530,-0.899,0.133,0.521,-10.902,-19.74,-13.475
51512530,-0.885,0.129,0.52,-10.552,-24.43,-15.68
51512550,-0.877,0.124,0.53,-9.362,-27.685,-17.272
51512550,-0.831,0.109,0.541,-8.802,-28.682,-18.532
51512570,-0.824,0.082,0.535,-7.105,-25.252,-16.45
51512570,-0.827,0.076,0.536,-3.797,-22.505,-14.017
51512580,-0.8,0.078,0.537,0.017,-19.915,-12.442
51512590,-0.825,0.081,0.55,3.027,-17.622,-9.905
51512600,-0.836,0.082,0.571,3.237,-16.922,-8.312
51512610,-0.828,0.072,0.564,2.52,-18.13,-7.245
51512620,-0.811,0.076,0.574,3.15,-18.025,-6.72
51512630,-0.803,0.085,0.57,4.077,-17.657,-6.807
51512640,-0.836,0.08,0.579,4.025,-16.887,-6.597
51512650,-0.846,0.058,0.564,5.337,-18.532,-8.715
51512660,-0.839,0.069,0.579,9.205,-18.882,-11.025
51512670,-0.806,0.073,0.587,11.165,-19.267,-10.797
51512680,-0.733,0.073,0.592,11.147,-16.38,-8.68
51512690,-0.736,0.088,0.613,12.162,-9.607,-5.057
51512700,-0.796,0.103,0.612,10.832,-3.377,-1.627
51512710,-0.809,0.103,0.589,7.717,-0.77,-0.665
51512720,-0.815,0.096,0.568,5.302,-0.332,-0.717
51512730,-0.862,0.089,0.559,4.305,-2.555,-1.417
51512740,-0.855,0.084,0.559,4.865,-6.615,-3.85
51512750,-0.8,0.089,0.566,5.722,-10.167,-6.02
51512760,-0.821,0.092,0.58,5.197,-10.482,-5.495
51512770,-0.849,0.076,0.574,6.685,-10.535,-5.005
51512780,-0.83,0.071,0.584,9.852,-12.267,-5.372
51512790,-0.796,0.088,0.595,11.585,-13.702,-5.162
51512800,-0.783,0.096,0.594,11.707,-11.917,-3.832
51512810,-0.782,0.107,0.598,10.552,-9.887,-3.045
51512820,-0.764,0.109,0.593,8.662,-6.317,-1.715
51512830,-0.802,0.111,0.594,6.527,-3.92,0.035
51512830,-0.786,0.119,0.596,4.585,-1.75,0.77
51512850,-0.809,0.119,0.588,2.012,-0.175,1.662
51512850,-0.835,0.11,0.579,-0.262,0.507,1.365
51512870,-0.844,0.096,0.567,-1.172,-0.84,-0.087
51512870,-0.843,0.094,0.565,-0.49,-2.922,-1.207
51512890,-0.842,0.089,0.565,0.63,-5.775,-2.537
51512890,-0.835,0.088,0.57,2.397,-7.472,-3.937
51512910,-0.828,0.083,0.575,4.322,-9.152,-4.917
51512910,-0.834,0.085,0.571,5.897,-11.007,-5.617
51512920,-0.828,0.086,0.587,8.05,-14.227,-6.632
51512930,-0.781,0.095,0.593,9.117,-14.962,-6.702
51512940,-0.799,0.114,0.596,7.927,-13.86,-5.67
51512950,-0.789,0.108,0.604,6.842,-12.302,-5.582
51512960,-0.771,0.104,0.602,5.985,-9.817,-4.917
51512970,-0.767,0.113,0.608,3.902,-6.982,-3.272
51512980,-0.777,0.112,0.605,1.575,-4.112,-1.627
51512990,-0.797,0.098,0.599,-0.717,-2.485,-0.647
51513000,-0.812,0.092,0.59,-1.767,-2.327,-0.175
51513010,-0.818,0.09,0.593,-1.505,-3.307,-0.122
51513020,-0.821,0.093,0.585,-1.225,-4.445,-0.787
51513030,-0.82,0.091,0.589,-1.015,-6.09,-1.557
51513040,-0.829,0.086,0.583,-0.612,-7.175,-2.222
51513050,-0.825,0.08,0.597,0.875,-8.645,-3.027
51513060,-0.816,0.075,0.585,1.767,-9.065,-3.202
51513070,-0.803,0.078,0.591,3.955,-9.275,-2.502
51513080,-0.793,0.082,0.599,5.495,-8.382,-1.627
51513090,-0.778,0.094,0.611,6.002,-7.227,-0.84
51513100,-0.773,0.086,0.623,6.037,-5.722,0.595
51513110,-0.763,0.069,0.609,4.305,-5.04,3.08
51513120,-0.723,0.086,0.614,6.247,-1.592,4.217
51513130,-0.737,0.096,0.633,7.787,4.69,8.172
51513140,-0.745,0.101,0.627,5.442,12.215,11.567
51513150,-0.719,0.097,0.613,4.112,19.355,15.347
51513160,-0.737,0.096,0.602,3.22,25.777,20.527
51513170,-0.797,0.104,0.582,2.415,29.505,24.535
51513180,-0.822,0.115,0.58,2.905,30.852,26.232
51513190,-0.838,0.13,0.562,3.062,31.115,26.477
51513200,-0.881,0.141,0.558,2.765,30.747,25.462
51513210,-0.906,0.143,0.547,3.01,28.297,22.19
51513220,-0.886,0.149,0.548,4.042,23.642,18.042
51513230,-0.825,0.166,0.561,3.78,18.567,14.525
51513240,-0.79,0.182,0.564,0.315,15.925,12.67
51513250,-0.772,0.192,0.567,-5.862,14.892,11.917
51513260,-0.795,0.191,0.552,-13.65,15.33,11.742
51513260,-0.839,0.197,0.535,-20.562,15.312,10.482
51513270,-0.883,0.201,0.53,-26.757,13.282,6.895
51513280,-0.917,0.184,0.526,-33.127,8.155,0.525
51513290,-0.94,0.149,0.501,-36.925,0.892,-6.93
51513300,-0.944,0.124,0.499,-35.98,-9.38,-13.65
51513310,-0.931,0.11,0.504,-33.897,-21.157,-20.422
51513320,-0.927,0.09,0.517,-32.182,-33.075,-26.757
51513330,-0.921,0.078,0.517,-27.667,-42.367,-31.36
51513340,-0.89,0.08,0.551,-21.367,-49.07,-34.37
51513350,-0.838,0.075,0.591,-18.637,-52.237,-33.827
51513360,-0.709,0.081,0.651,-20.58,-50.312,-24.587
51513370,-0.647,0.008,0.6,-22.382,-34.002,-9.327
51513380,-0.718,-0.005,0.635,-11.497,-16.187,-3.062
51513390,-0.689,0.012,0.591,-0.682,-3.92,-2.607
51513400,-0.735,0.054,0.59,8.33,6.86,2.205
51513410,-0.825,0.084,0.62,7.682,8.505,5.162
51513420,-0.817,0.059,0.595,1.907,4.69,2.45
51513430,-0.82,0.041,0.581,1.557,1.837,1.645
51513440,-0.835,0.062,0.584,2.415,-1.295,1.592
51513450,-0.82,0.078,0.588,2.275,-4.515,0.525
51513460,-0.814,0.076,0.598,1.802,-5.022,-0.035
51513470,-0.801,0.069,0.592,1.61,-4.41,0.227
51513480,-0.801,0.073,0.585,2.432,-2.59,1.75
51513490,-0.814,0.086,0.58,2.607,-2.03,2.747
51513500,-0.826,0.098,0.581,1.662,-2.555,2.572
51513510,-0.833,0.104,0.584,0.927,-3.605,1.487
51513520,-0.834,0.103,0.583,0.017,-4.357,-0.122
51513530,-0.82,0.094,0.584,-1.487,-6.422,-2.187
51513540,-0.797,0.088,0.589,-2.292,-7.105,-3.255
51513550,-0.791,0.082,0.597,-2.537,-6.807,-2.835
51513560,-0.796,0.081,0.6,-2.607,-4.847,-1.837
51513570,-0.808,0.079,0.597,-2.082,-3.57,-0.805
51513580,-0.821,0.079,0.588,-2.1,-3.22,-0.665
51513580,-0.818,0.077,0.588,-1.557,-3.902,-1.365
51513600,-0.82,0.074,0.581,-0.962,-4.235,-1.89
51513600,-0.817,0.078,0.581,-0.14,-5.285,-2.45
51513620,-0.814,0.084,0.586,0.14,-5.967,-2.87
51513620,-0.813,0.083,0.594,-0.875,-6.492,-3.412
51513640,-0.797,0.071,0.598,-1.802,-6.527,-3.57
51513640,-0.787,0.063,0.597,-2.24,-5.705,-2.572
51513660,-0.793,0.062,0.596,-1.785,-3.85,-0.595
51513660,-0.797,0.069,0.599,-1.172,-2.187,0.997
51513670,-0.798,0.07,0.595,-1.33,-0.927,1.995
51513680,-0.806,0.066,0.585,-1.435,-0.7,2.642
51513690,-0.81,0.068,0.592,-1.05,-1.137,2.975
51513700,-0.8,0.072,0.596,-0.367,-1.032,3.202
51513710,-0.809,0.075,0.594,-0.07,-0.665,3.71
51513720,-0.829,0.07,0.594,-0.122,-0.962,3.692
51513730,-0.834,0.063,0.589,0.927,-2.082,2.922
51513740,-0.828,0.064,0.588,2.905,-3.29,2.117
51513750,-0.837,0.057,0.582,4.725,-5.232,1.102
51513760,-0.839,0.057,0.574,7.385,-7.665,-0.385
51513770,-0.81,0.07,0.589,11.095,-9.677,-1.295
51513780,-0.776,0.081,0.609,12.232,-9.87,-1.05
51513790,-0.74,0.076,0.629,10.972,-7.77,0.49
51513800,-0.672,0.069,0.651,9.327,-1.12,5.145
51513810,-0.686,0.08,0.638,8.085,11.077,13.685
51513820,-0.775,0.08,0.613,7.297,25.707,21.07
51513830,-0.789,0.043,0.582,8.277,32.9,23.94
51513840,-0.811,-0.019,0.558,13.107,36.505,26.477
51513850,-0.833,-0.035,0.547,27.475,37.992,25.375
51513860,-0.911,-0.046,0.573,45.99,36.312,28.875
51513870,-0.914,-0.058,0.544,61.302,29.452,36.522
51513880,-0.782,0.058,0.567,85.33,24.692,41.825
51513890,-0.756,0.146,0.611,107.187,27.632,60.515
51513900,-0.776,0.162,0.624,118.002,38.412,74.707
51513910,-0.759,0.221,0.608,114.152,52.535,76.877
51513920,-0.718,0.244,0.555,105.14,69.475,76.737
51513930,-0.705,0.293,0.528,101.202,84.98,74.217
51513940,-0.724,0.328,0.491,94.097,96.11,70.455
51513940,-0.774,0.338,0.457,85.33,101.132,63.752
51513960,-0.832,0.338,0.426,76.247,99.767,56.962
51513960,-0.872,0.323,0.407,70.385,90.93,51.432
51513980,-0.926,0.314,0.366,68.337,79.135,43.102
51513980,-0.922,0.348,0.358,70.35,67.077,31.587
51514000,-0.939,0.364,0.36,73.622,57.207,21.945
51514000,-0.928,0.407,0.361,71.82,50.19,10.342
51514010,-0.934,0.413,0.334,60.445,45.15,5.057
51514020,-0.93,0.415,0.349,50.137,39.532,3.885
51514030,-0.934,0.414,0.328,35.997,32.41,4.952
51514040,-0.93,0.404,0.318,25.935,23.712,2.852
51514050,-0.934,0.395,0.312,18.06,14.962,-0.84
51514060,-0.933,0.382,0.285,10.132,5.425,-5.582
51514070,-0.913,0.368,0.28,6.615,-4.637,-9.187
51514080,-0.909,0.345,0.253,3.202,-11.917,-9.572
51514090,-0.9,0.332,0.253,1.645,-13.982,-11.095
51514100,-0.916,0.326,0.269,3.43,-11.83,-9.992
51514110,-0.939,0.339,0.307,4.987,-9.135,-8.925
51514120,-0.959,0.332,0.341,3.675,-7.91,-2.852
51514130,-0.92,0.343,0.352,2.66,-7.857,0.437
51514140,-0.896,0.339,0.36,3.622,-5.81,2.432
51514150,-0.889,0.345,0.38,5.67,-2.205,3.832
51514160,-0.89,0.348,0.39,6.212,0.437,6.072
51514170,-0.894,0.348,0.397,7.227,1.347,7.035
51514180,-0.899,0.363,0.404,8.575,0.822,7.472
51514190,-0.902,0.369,0.42,10.15,-2.327,7.49
51514200,-0.891,0.383,0.448,12.617,-6.475,5.25
51514210,-0.896,0.371,0.434,13.335,-11.76,3.202
51514220,-0.895,0.378,0.44,14.927,-16.94,-0.21
51514230,-0.907,0.382,0.435,14.77,-24.115,-1.855
51514240,-0.906,0.379,0.418,13.667,-32.777,-3.342
51514250,-0.906,0.394,0.413,14.892,-42.787,-6.335
51514260,-0.925,0.371,0.39,15.032,-51.782,-12.355
51514270,-0.856,0.402,0.38,18.707,-59.22,-27.195
51514280,-0.858,0.414,0.399,21.892,-64.47,-34.545
51514290,-0.883,0.403,0.368,16.73,-70.857,-34.44
51514300,-0.857,0.451,0.398,14.507,-75.967,-40.775
51514310,-0.861,0.482,0.419,5.687,-79.065,-47.687
51514320,-0.896,0.453,0.415,-7.245,-82.53,-52.202
51514330,-0.907,0.437,0.427,-17.57,-89.197,-57.75
51514330,-0.939,0.395,0.445,-26.46,-98.455,-58.152
51514350,-0.912,0.356,0.429,-31.832,-113.435,-60.112
51514350,-0.883,0.302,0.428,-30.537,-132.212,-58.117
51514370,-0.828,0.235,0.4,-25.952,-143.955,-47.635
51514370,-0.821,0.215,0.436,-17.237,-148.452,-36.557
51514390,-0.787,0.216,0.457,-11.112,-150.202,-29.96
51514390,-0.748,0.187,0.478,-4.2,-146.142,-23.905
51514410,-0.723,0.16,0.501,2.502,-134.522,-19.652
51514410,-0.694,0.166,0.536,9.187,-118.002,-18.007
51514420,-0.673,0.174,0.559,13.44,-97.755,-17.745
51514430,-0.643,0.159,0.561,15.557,-74.515,-16.607
51514440,-0.615,0.137,0.545,17.027,-50.575,-14.63
51514450,-0.62,0.126,0.528,19.11,-27.02,-10.78
51514460,-0.636,0.126,0.512,20.79,-5.057,-6.895
51514470,-0.663,0.128,0.504,21.297,13.65,-1.96
51514480,-0.69,0.129,0.5,20.405,28.595,3.325
51514490,-0.759,0.127,0.502,19.442,38.237,10.342
51514500,-0.798,0.143,0.512,19.74,41.562,13.125
51514510,-0.848,0.174,0.509,16.922,40.32,11.497
51514520,-0.895,0.181,0.526,14.577,34.772,9.677
51514530,-0.923,0.206,0.544,10.202,24.972,5.932
51514540,-0.962,0.174,0.539,6.965,10.955,4.69
51514550,-0.836,0.269,0.565,4.077,-1.137,-9.362
51514560,-0.847,0.248,0.561,-6.212,-9.73,-7.437
51514570,-0.864,0.19,0.554,-7.682,-21.017,6.492
51514580,-0.808,0.235,0.589,-0.017,-32.095,14.175
51514590,-0.778,0.275,0.608,2.905,-38.01,16.275
51514600,-0.739,0.284,0.619,3.797,-37.537,13.405
51514610,-0.706,0.294,0.626,4.48,-33.792,10.692
51514620,-0.679,0.306,0.624,3.097,-27.265,10.307
51514630,-0.673,0.311,0.629,3.535,-20.247,10.395
51514640,-0.672,0.33,0.632,3.15,-12.25,7.7
51514650,-0.706,0.32,0.634,3.307,-5.67,7.455
51514660,-0.726,0.324,0.632,4.235,-1.137,9.03
51514670,-0.724,0.344,0.627,5.18,1.067,7.612
51514670,-0.74,0.345,0.615,5.11,3.202,8.172
51514690,-0.743,0.335,0.599,5.915,4.077,7.297
51514690,-0.732,0.354,0.589,6.16,5.232,4.2
51514710,-0.762,0.336,0.571,4.935,6.107,4.917
51514710,-0.781,0.329,0.581,3.412,6.177,6.335
51514730,-0.796,0.326,0.582,0,4.917,5.6
51514730,-0.799,0.33,0.59,-3.377,3.08,2.887
51514750,-0.789,0.309,0.58,-5.845,-0.07,1.347
51514750,-0.763,0.292,0.568,-6.807,-3.307,1.032
51514760,-0.752,0.293,0.569,-7.717,-5.215,0.875
51514770,-0.743,0.296,0.583,-9.852,-5.705,-0.315
51514780,-0.75,0.288,0.599,-13.125,-6.055,-0.98
51514790,-0.785,0.264,0.601,-15.505,-7.262,0.402
51514800,-0.781,0.26,0.607,-14.175,-9.292,0.735
51514810,-0.756,0.259,0.606,-13.457,-10.675,1.907
51514820,-0.731,0.262,0.603,-13.65,-9.992,2.152
51514830,-0.725,0.259,0.601,-14.49,-7.56,2.905
51514840,-0.731,0.245,0.599,-13.632,-4.935,5.39
51514850,-0.726,0.264,0.603,-13.562,-1.47,4.41
51514860,-0.729,0.268,0.599,-16.572,2.607,2.695
51514870,-0.744,0.242,0.586,-18.165,5.512,3.447
51514880,-0.754,0.248,0.587,-17.78,7.595,5.407
51514890,-0.786,0.255,0.582,-18.55,7.875,8.837
51514900,-0.774,0.289,0.593,-19.862,8.172,9.275
51514910,-0.771,0.279,0.573,-22.96,7.822,10.062
51514920,-0.767,0.308,0.578,-24.92,9.257,11.007
51514930,-0.761,0.338,0.576,-31.325,11.62,11.672
51514940,-0.751,0.361,0.581,-40.635,16.362,9.257
51514950,-0.767,0.353,0.565,-52.22,22.242,9.152
51514960,-0.778,0.336,0.573,-57.19,27.86,13.037
51514970,-0.818,0.337,0.559,-60.847,31.99,21.42
51514980,-0.846,0.319,0.533,-63.665,33.95,30.03
51514990,-0.836,0.312,0.525,-64.435,34.737,33.6
51515000,-0.815,0.33,0.54,-67.252,37.572,33.46
51515010,-0.798,0.327,0.514,-76.492,40.267,33.6
51515020,-0.792,0.302,0.536,-82.32,43.522,35.332
51515030,-0.796,0.276,0.503,-91.402,46.742,36.68
51515040,-0.807,0.235,0.528,-93.817,50.172,36.172
51515050,-0.818,0.221,0.527,-96.25,51.887,31.36
51515060,-0.844,0.172,0.514,-96.687,52.745,26.897
51515070,-0.814,0.166,0.529,-96.302,52.955,21.332
51515080,-0.789,0.211,0.589,-93.572,51.397,19.442
51515080,-0.875,0.053,0.453,-88.182,43.715,26.39
51515100,-0.801,0.14,0.537,-67.252,41.387,18.725
51515100,-0.746,0.256,0.576,-73.587,41.86,8.417
51515120,-0.752,0.251,0.564,-83.352,43.155,0.595
51515120,-0.784,0.194,0.565,-90.965,43.015,-7.787
51515140,-0.794,0.193,0.531,-99.505,40.057,-20.72
51515140,-0.823,0.153,0.52,-98.945,31.78,-33.232
51515160,-0.9,0.125,0.513,-95.812,17.482,-39.655
51515160,-0.969,0.046,0.497,-88.515,-2.87,-38.307
51515170,-0.939,0.083,0.54,-79.45,-23.852,-40.267
51515180,-0.939,0.061,0.529,-74.655,-42.175,-38.552
51515190,-0.897,0.018,0.508,-65.117,-53.847,-34.457
51515200,-0.811,0.051,0.524,-52.517,-58.117,-33.11
51515210,-0.852,-0.079,0.503,-34.755,-56.805,-25.585
51515220,-0.734,0.193,0.645,-18.55,-49.367,-32.392
51515230,-0.768,0.147,0.619,-32.48,-42.77,-33.67
51515240,-0.737,0.07,0.625,-37.117,-32.41,-32.13
51515250,-0.736,0.025,0.624,-41.352,-21.035,-28.84
51515260,-0.738,-0.017,0.619,-41.51,-4.287,-23.38
51515270,-0.763,-0.032,0.55,-33.477,13.317,-22.015
51515280,-0.821,-0.037,0.524,-25.62,30.1,-23.975
51515290,-0.877,-0.045,0.514,-18.357,40.985,-25.935
51515300,-0.915,-0.09,0.536,-4.795,43.435,-27.335
51515310,-0.945,-0.077,0.57,8.855,36.295,-25.76
51515320,-0.859,-0.007,0.605,15.557,22.732,-21.227
51515330,-0.752,0.023,0.592,12.39,7.052,-16.012
51515340,-0.691,0.017,0.645,14.297,-0.77,-13.492
51515350,-0.726,0.053,0.681,8.732,-2.117,-9.835
51515360,-0.81,0.03,0.712,0.21,-5.582,-9.555
51515370,-0.822,0.003,0.697,-9.485,-12.53,-16.187
51515380,-0.807,-0.035,0.676,-15.697,-18.305,-18.357
51515390,-0.787,-0.062,0.69,-12.862,-21.665,-15.155
51515400,-0.679,-0.095,0.666,-9.625,-15.54,-14
51515410,-0.693,-0.131,0.628,0.805,4.252,-5.25
51515420,-0.86,-0.052,0.641,9.905,15.82,1.505
51515420,-0.868,0.021,0.609,11.305,9.625,0.525
51515440,-0.824,0.013,0.578,7.945,0.105,-1.557
51515440,-0.803,-0.007,0.563,4.515,-4.252,-0.91
51515460,-0.828,-0.041,0.572,3.045,-5.757,0.035
51515460,-0.836,-0.025,0.588,4.847,-7.647,-2.572
51515480,-0.819,-0.002,0.591,3.937,-6.702,-3.64
51515480,-0.844,0.011,0.605,3.307,-5.25,-1.995
51515500,-0.836,0.002,0.587,-1.05,-5.25,-1.05
51515500,-0.825,-0.007,0.573,-3.115,-5.127,2.852
51515510,-0.83,-0.011,0.584,-5.215,-6.02,5.705
51515520,-0.816,-0.028,0.575,-6.265,-6.86,7.717
51515530,-0.817,-0.062,0.572,-3.605,-5.88,10.167
51515540,-0.82,-0.043,0.588,-0.192,-5.88,11.567
51515550,-0.81,-0.021,0.596,0.105,-7.122,12.477
51515560,-0.791,-0.027,0.588,1.05,-7.07,12.582
51515570,-0.749,-0.012,0.589,2.887,-1.715,11.147
51515580,-0.776,0.006,0.583,5.005,7.385,11.095
51515590,-0.829,0.028,0.584,6.317,14.227,10.01
51515600,-0.827,0.044,0.579,5.967,16.432,8.032
51515610,-0.831,0.036,0.565,3.832,16.905,7.07
51515620,-0.848,0.015,0.55,3.797,14.682,7.612
51515630,-0.85,0.033,0.553,4.27,10.465,7.035
51515640,-0.847,0.029,0.556,3.22,6.037,5.6
51515650,-0.828,0.003,0.574,3.465,3.675,4.847
51515660,-0.813,0.011,0.592,2.292,3.412,3.36
51515670,-0.821,-0.012,0.608,3.587,3.465,4.287
51515680,-0.839,-0.001,0.61,3.745,2.152,5.162
51515690,-0.847,-0.001,0.598,3.132,-0.647,4.62
51515700,-0.819,-0.009,0.582,1.96,-3.395,3.762
51515710,-0.819,-0.013,0.568,1.487,-6.212,4.427
51515720,-0.843,-0.036,0.559,4.147,-7.647,7.087
51515730,-0.846,-0.019,0.554,5.635,-8.96,7.262
51515740,-0.855,-0.008,0.552,6.055,-10.01,6.09
51515750,-0.852,-0.006,0.555,6.055,-11.655,4.725
51515760,-0.863,-0.02,0.56,5.95,-12.022,3.517
51515770,-0.851,-0.027,0.578,7.42,-11.55,2.642
51515780,-0.834,-0.027,0.608,9.887,-9.222,3.377
51515790,-0.817,0.015,0.639,10.587,-5.46,4.55
51515800,-0.779,0.041,0.661,8.435,-0.63,5.845
51515810,-0.782,0.032,0.645,4.147,4.812,7.857
51515820,-0.788,0.01,0.689,2.607,12.32,12.162
51515830,-0.764,0.002,0.727,3.727,20.177,16.135
51515830,-0.768,0.009,0.732,-0.507,28.122,19.915
51515850,-0.739,0.034,0.692,-7.28,36.347,22.785
51515850,-0.757,0.066,0.627,-14.07,47.897,26.425
51515870,-0.778,0.025,0.529,-19.022,52.587,26.932
51515870,-0.68,0.048,0.47,-16.957,56.91,26.425
51515890,-0.7,0.077,0.417,-12.617,63.472,29.925
51515890,-0.821,0.041,0.425,-8.837,67.97,27.02
51515910,-0.935,0.056,0.437,-2.94,68.95,21.49
51515910,-1.015,0.088,0.412,-1.085,62.58,19.74
51515920,-0.964,0.098,0.361,1.785,52.517,15.82
51515930,-0.991,0.108,0.355,9.24,43.802,10.412
51515940,-1.048,0.127,0.333,9.45,34.912,9.625
51515950,-1,0.127,0.337,11.392,24.745,4.655
51515960,-0.969,0.146,0.36,12.81,16.065,1.47
51515970,-0.978,0.159,0.376,8.715,7.717,-1.365
51515980,-0.975,0.14,0.388,5.337,-2.17,-7.122
51515990,-0.943,0.098,0.394,3.272,-11.182,-13.51
51516000,-0.914,0.08,0.417,4.305,-15.225,-17.71
51516010,-0.893,0.087,0.451,6.125,-15.4,-19.425
51516020,-0.892,0.081,0.468,5.775,-13.615,-20.125
51516030,-0.891,0.053,0.488,4.847,-12.145,-21.367
51516040,-0.845,0.036,0.497,4.042,-9.047,-21.77
51516050,-0.851,0.043,0.515,1.505,-5.145,-20.247
51516060,-0.917,0.035,0.533,-3.762,-7.21,-20.562
51516070,-0.889,0.022,0.535,-7.122,-15.767,-23.362
51516080,-0.876,0.038,0.56,-8.102,-23.817,-24.447
51516090,-0.806,0.045,0.476,-11.305,-29.26,-26.932
51516100,-0.553,0.033,0.525,-20.422,-17.92,-25.252
51516110,-0.67,0.009,0.506,-36.68,12.757,-11.865
51516120,-1.171,-0.026,0.576,-32.515,28.997,2.94
51516130,-1.152,-0.097,0.528,-21.927,20.912,0.402
