time[ms],accX[g],accY[g],accZ[g],Value 1,Value 2,Value 3
51079100,-0.716,-0.086,0.664,-11.34,6.475,-0.77
51079110,-0.747,-0.044,0.699,-2.415,6.23,-1.802
51079120,-0.808,-0.02,0.691,-3.22,4.007,-1.4
51079130,-0.821,-0.041,0.663,-4.777,-1.785,-4.602
51079140,-0.791,-0.026,0.655,-3.027,-6.23,-7.63
51079150,-0.78,-0.004,0.655,-2.66,-7.56,-7.91
51079160,-0.772,0,0.65,-3.132,-7.297,-9.362
51079170,-0.743,-0.008,0.644,-3.885,-7.927,-10.92
51079180,-0.715,-0.021,0.635,-3.85,-8.435,-10.605
51079190,-0.701,-0.029,0.65,-2.257,-8.137,-8.592
51079200,-0.719,-0.047,0.67,-0.892,-6.842,-6.09
51079210,-0.748,-0.049,0.682,-0.28,-6.457,-5.32
51079220,-0.747,-0.044,0.68,-1.732,-7.665,-4.987
51079230,-0.722,-0.048,0.666,-2.205,-8.085,-5.04
51079240,-0.734,-0.05,0.635,-0.892,-8.242,-3.745
51079250,-0.724,-0.03,0.647,1.802,-9.012,-2.362
51079260,-0.713,-0.019,0.664,3.132,-6.86,-1.33
51079270,-0.729,-0.023,0.656,2.817,-3.57,-0.35
51079280,-0.725,-0.008,0.685,2.415,-0.752,-0.455
51079290,-0.72,-0.017,0.692,0.315,1.382,0.647
51079300,-0.699,-0.021,0.715,-0.665,4.34,1.4
51079310,-0.724,-0.045,0.718,-0.962,7.63,3.307
51079320,-0.732,-0.023,0.733,0.07,11.165,3.657
51079330,-0.733,0.013,0.723,-0.752,14.7,3.377
51079330,-0.744,0.04,0.732,-4.497,19.285,1.54
51079350,-0.777,0.006,0.694,-11.305,20.912,0.472
51079350,-0.751,-0.019,0.683,-11.13,20.335,-1.33
51079370,-0.736,0.007,0.699,-12.74,20.685,-2.117
51079370,-0.728,-0.008,0.71,-17.832,21.595,-2.17
51079390,-0.693,-0.076,0.668,-21.682,23.642,-1.452
51079390,-0.801,-0.138,0.663,-19.145,22.452,3.517
51079410,-0.732,-0.1,0.67,-14.455,16.24,1.697
51079410,-0.704,-0.092,0.652,-12.057,15.382,1.505
51079420,-0.747,-0.097,0.626,-11.865,16.257,3.272
51079430,-0.826,-0.104,0.604,-10.185,13.352,5.127
51079440,-0.832,-0.095,0.59,-6.667,6.947,5.722
51079450,-0.869,-0.077,0.596,-3.377,1.417,4.795
51079460,-0.872,-0.05,0.618,-2.292,-2.852,1.225
51079470,-0.872,-0.053,0.619,-3.657,-6.002,-2.485
51079480,-0.862,-0.049,0.614,-4.847,-9.275,-6.3
51079490,-0.841,-0.05,0.612,-3.482,-13.895,-8.855
51079500,-0.785,-0.044,0.608,-2.117,-18.27,-10.727
51079510,-0.734,-0.058,0.633,0.122,-19.39,-8.837
51079520,-0.727,-0.063,0.653,-2.537,-18.812,-3.185
51079530,-0.71,-0.081,0.649,-2.94,-18.112,-0.56
51079540,-0.704,-0.075,0.657,-1.102,-16.905,1.575
51079550,-0.696,-0.063,0.663,0.805,-14.402,-0.227
51079560,-0.713,-0.065,0.677,2.03,-10.307,-2.695
51079570,-0.765,-0.069,0.673,1.872,-8.645,-2.012
51079580,-0.785,-0.065,0.655,2.117,-9.66,-2.327
51079590,-0.775,-0.062,0.648,3.482,-11.27,-3.255
51079600,-0.777,-0.061,0.641,4.095,-12.127,-3.307
51079610,-0.771,-0.062,0.66,4.97,-11.952,-3.57
51079620,-0.78,-0.079,0.692,5.39,-11.567,-4.077
51079630,-0.786,-0.114,0.683,5.932,-14.297,-5.407
51079640,-0.714,-0.106,0.669,10.115,-18.987,-7.157
51079650,-0.525,-0.022,0.647,15.715,-10.325,-4.882
51079660,-0.725,-0.033,0.634,10.447,0.84,2.625
51079670,-0.713,-0.044,0.621,10.5,3.325,5.285
51079670,-0.71,-0.022,0.66,13.912,4.655,5.32
51079690,-0.772,-0.019,0.684,10.517,6.107,7.49
51079690,-0.824,-0.057,0.677,7.402,5.11,4.777
51079710,-0.816,-0.065,0.679,6.737,1.172,-0.105
51079710,-0.791,-0.051,0.679,6.23,-2.45,-1.715
51079730,-0.777,-0.043,0.67,4.97,-5.95,-1.82
51079730,-0.748,-0.047,0.657,4.427,-9.502,-0.507
51079750,-0.716,-0.044,0.658,5.267,-11.515,1.067
51079750,-0.728,-0.04,0.667,5.705,-11.322,3.167
51079760,-0.747,-0.035,0.677,5.88,-11.322,4.165
51079770,-0.752,-0.026,0.692,5.722,-12.617,3.605
51079780,-0.726,-0.011,0.712,4.935,-12.775,2.275
51079790,-0.722,0.002,0.723,3.29,-10.657,1.767
51079800,-0.722,0.02,0.724,0.857,-7.017,1.785
51079810,-0.763,0.034,0.712,-2.87,-3.412,1.802
51079820,-0.75,0.032,0.69,-5.215,-2.17,0.332
51079830,-0.71,0.023,0.677,-7.595,-0.367,-1.067
51079840,-0.686,-0.003,0.657,-10.097,3.587,-0.315
51079850,-0.695,-0.032,0.655,-10.167,6.72,1.487
51079860,-0.701,-0.047,0.646,-9.817,9.327,3.535
51079870,-0.727,-0.063,0.638,-9.362,9.957,4.69
51079880,-0.72,-0.076,0.617,-9.24,9.555,4.41
51079890,-0.697,-0.083,0.581,-9.152,9.345,5.372
51079900,-0.692,-0.083,0.57,-8.522,11.707,8.085
51079910,-0.765,-0.085,0.568,-6.265,14.472,11.392
51079920,-0.829,-0.049,0.627,-3.657,12.53,10.097
51079930,-0.937,-0.09,0.694,-3.5,6.65,8.12
51079940,-0.939,-0.125,0.697,-4.007,-1.365,1.645
51079950,-0.887,-0.092,0.733,-2.03,-9.87,-3.447
51079960,-0.842,-0.092,0.7,-3.097,-14.28,-5.53
51079970,-0.753,-0.055,0.666,0.192,-17.71,-9.31
51079980,-0.624,0.009,0.678,3.762,-15.295,-9.292
51079990,-0.584,0.018,0.686,2.537,-7.21,-5.092
51080000,-0.583,-0.014,0.679,1.155,1.82,0.297
51080010,-0.617,-0.039,0.705,1.242,9.8,6.072
51080020,-0.708,-0.031,0.733,0,15.907,10.15
51080030,-0.792,-0.02,0.73,-2.59,19.425,9.695
51080040,-0.857,-0.017,0.688,-5.022,19.477,4.987
51080050,-0.895,-0.012,0.641,-5.897,16.38,-0.507
51080060,-0.921,-0.008,0.594,-5.53,10.115,-4.935
51080070,-0.924,-0.015,0.586,-4.375,2.642,-8.68
51080080,-0.924,-0.04,0.597,-4.97,-4.917,-13.212
51080080,-0.884,-0.082,0.593,-6.667,-11.812,-16.695
51080090,-0.827,-0.107,0.59,-4.952,-18.952,-19.005
51080100,-0.724,-0.101,0.616,0.192,-24.202,-18.112
51080110,-0.678,-0.088,0.649,2.572,-25.27,-13.947
51080120,-0.657,-0.094,0.655,1.627,-23.625,-9.677
51080130,-0.662,-0.105,0.656,2.992,-21.035,-5.757
51080140,-0.659,-0.078,0.666,6.475,-18.357,-2.502
51080150,-0.719,-0.063,0.679,8.662,-15.557,0.98
51080160,-0.774,-0.065,0.673,8.89,-15.172,2.24
51080170,-0.819,-0.055,0.669,11.042,-17.395,1.645
51080180,-0.843,-0.031,0.681,13.44,-20.265,-0.035
51080190,-0.876,-0.024,0.635,13.965,-26.057,0.63
51080200,-0.867,-0.016,0.555,15.19,-35.542,2.17
51080210,-0.824,0.004,0.498,24.027,-47.897,2.1
51080220,-0.916,0.169,0.518,34.317,-62.93,11.27
51080230,-0.539,0.159,0.984,12.897,-78.382,2.397
51080240,-0.4,-0.556,0.975,-27.3,-25.34,-13.055
51080250,-1.009,-0.391,0.661,-2.817,-23.362,-10.587
51080260,-0.513,0.228,0.799,29.575,-39.287,4.462
51080270,-0.444,0.209,0.819,21.21,-34.562,19.075
51080280,-0.532,-0.001,0.707,-9.73,-15.575,5.145
51080290,-0.534,-0.049,0.712,-14.455,0.297,-9.747
51080300,-0.641,-0.071,0.691,-8.225,6.877,-3.132
51080310,-0.702,-0.061,0.66,-5.25,6.352,5.232
51080320,-0.748,-0.079,0.699,-4.987,6.317,2.152
51080330,-0.854,-0.115,0.682,-7.822,5.32,-4.13
51080340,-0.923,-0.104,0.643,-4.882,-2.607,-6.597
51080350,-0.919,-0.035,0.666,0.14,-15.767,-5.687
51080360,-0.929,-0.045,0.682,-2.222,-27.387,-5.232
51080370,-0.911,-0.081,0.688,-2.852,-38.412,-7.122
51080380,-0.887,-0.081,0.711,1.365,-49.735,-7.63
51080390,-0.834,-0.059,0.705,4.777,-61.337,-6.475
51080400,-0.724,-0.044,0.704,7.595,-69.405,-5.302
51080410,-0.589,-0.05,0.715,10.412,-73.71,-3.36
51080420,-0.461,-0.014,0.74,10.062,-71.312,-0.21
51080420,-0.397,0.003,0.79,8.785,-61.915,0.35
51080440,-0.421,0.001,0.806,5.425,-50.4,0.735
51080440,-0.451,0.008,0.802,2.345,-40.425,-0.087
51080460,-0.524,0.026,0.82,0.56,-31.972,1.05
51080460,-0.668,0.034,0.824,-1.925,-28.875,2.905
51080480,-0.683,0.022,0.795,-4.34,-32.34,4.585
51080480,-0.555,-0.038,0.738,-5.565,-34.195,8.295
51080500,-0.433,-0.083,0.697,-4.69,-27.37,12.547
51080500,-0.318,-0.066,0.697,-1.837,-14.525,14.577
51080510,-0.285,-0.054,0.745,-1.225,2.135,19.565
51080520,-0.427,-0.087,0.789,-1.715,18.795,24.325
51080530,-0.574,-0.067,0.803,-2.66,29.977,15.225
51080540,-0.666,0.006,0.817,-7.647,36.102,-0.56
51080550,-0.975,-0.113,0.767,-14.21,30.257,0.175
51080560,-1.118,-0.105,0.772,-7.42,9.082,1.452
51080570,-1.068,-0.045,0.794,-6.247,-15.592,-1.54
51080580,-1.13,-0.056,0.793,-6.44,-35.717,-5.512
51080590,-1.057,-0.053,0.741,-8.47,-59.062,-9.24
51080600,-0.918,-0.053,0.729,-2.94,-80.377,-5.687
51080610,-0.728,-0.052,0.792,2.45,-91.945,-7.14
51080620,-0.521,-0.068,0.865,-0.157,-90.282,-14.805
51080630,-0.379,-0.029,0.848,-2.205,-82.547,-26.11
51080640,-0.3,0.046,0.881,-3.622,-71.942,-27.912
51080650,-0.303,0.035,0.926,-6.125,-58.502,-26.267
51080660,-0.356,0.044,0.964,-10.29,-43.575,-28.49
51080670,-0.349,0.039,0.945,-15.977,-31.92,-29.68
51080680,-0.3,-0.004,0.87,-18.06,-22.347,-29.487
51080690,-0.263,-0.029,0.819,-17.57,-9.765,-27.79
51080700,-0.339,-0.075,0.775,-20.125,4.13,-25.847
51080710,-0.508,-0.183,0.735,-20.282,12.215,-23.73
51080720,-0.63,-0.207,0.704,-17.185,12.827,-26.162
51080730,-0.833,-0.21,0.685,-14.367,4.217,-25.48
51080740,-0.935,-0.211,0.723,-10.517,-12.652,-25.742
51080750,-0.932,-0.184,0.787,-8.855,-32.515,-29.172
51080760,-0.883,-0.085,0.763,-6.72,-50.242,-32.532
51080760,-0.897,-0.006,0.936,-5.355,-71.837,-28.997
51080780,-0.727,-0.141,0.964,-8.015,-86.135,-30.852
51080780,-0.679,-0.059,0.913,-4.322,-95.655,-42.21
51080800,-0.709,-0.042,0.829,-5.092,-106.575,-44.817
51080800,-0.601,-0.118,0.735,-2.152,-117.74,-47.337
51080820,-0.521,-0.184,0.709,8.767,-125.055,-44.695
51080820,-0.36,-0.239,0.645,18.217,-131.285,-41.825
51080830,-0.081,-0.249,0.699,27.457,-129.097,-39.112
51080840,0.211,-0.256,0.865,29.767,-115.307,-31.36
51080850,0.51,-0.226,1.118,26.267,-81.9,-27.562
51080860,0.622,-0.145,1.205,13.457,-32.427,-28.087
51080870,0.497,-0.067,1.168,0.595,22.277,-33.74
51080880,0.238,-0.004,1.115,-10.552,72.117,-38.605
51080890,-0.239,0.019,1.064,-19.022,102.725,-39.06
51080900,-0.669,-0.021,1.048,-28.035,98.63,-33.88
51080910,-0.878,-0.022,1.026,-27.177,71.277,-35.105
51080920,-0.902,0.124,1.044,-20.877,46.112,-43.12
51080930,-0.975,0.122,1.042,-21.472,20.457,-39.987
51080940,-0.936,0.008,1.003,-24.185,-7.245,-36.96
51080950,-0.722,-0.045,1.031,-21.927,-26.582,-34.422
51080960,-0.396,-0.062,1.058,-25.935,-27.895,-32.935
51080970,-0.136,-0.112,1.05,-32.707,-9.135,-33.127
51080980,-0.061,-0.151,1.014,-40.967,14.07,-31.85
51080990,-0.076,-0.238,0.95,-50.557,26.075,-27.125
51081000,-0.154,-0.418,0.765,-52.745,28.14,-15.872
51081010,-0.117,-0.513,0.658,-33.495,29.785,-2.8
51081020,-0.392,-0.46,0.618,3.902,34.947,9.59
51081030,-0.386,-0.429,0.68,33.32,13.912,3.972
51081040,0.16,-0.495,0.71,54.932,20.755,4.112
51081050,0.167,-0.435,0.848,88.83,76.457,14.245
51081060,-0.296,-0.292,0.978,114.852,133.805,15.802
51081070,-0.486,-0.204,0.944,117.267,159.845,10.885
51081080,-0.62,-0.259,0.878,118.825,161.577,10.29
51081090,-0.776,-0.334,0.807,124.635,139.545,13.72
51081100,-0.768,-0.284,0.778,135.222,103.827,15.54
51081110,-0.678,-0.168,0.796,148.54,65.817,17.5
51081120,-0.67,-0.092,0.788,152.477,32.602,19.337
51081130,-0.711,-0.076,0.729,150.465,1.575,14.402
51081140,-0.684,-0.056,0.682,149.537,-29.242,2.292
51081150,-0.59,-0.01,0.657,147.7,-57.627,-10.307
51081160,-0.469,0.065,0.636,140.752,-76.475,-21.245
51081170,-0.383,0.119,0.656,131.407,-83.79,-30.52
51081170,-0.358,0.163,0.701,114.485,-81.182,-40.495
51081190,-0.349,0.176,0.71,89.932,-74.287,-52.272
51081190,-0.343,0.14,0.716,68.512,-64.435,-59.045
51081210,-0.328,0.114,0.7,53.357,-51.572,-58.73
51081210,-0.356,0.113,0.697,42.822,-36.925,-56.385
51081230,-0.421,0.091,0.698,35.542,-25.602,-53.532
51081230,-0.417,0.081,0.69,30.345,-16.502,-51.992
51081250,-0.411,0.041,0.666,28.98,-7.402,-47.635
51081250,-0.379,0.057,0.68,32.707,5.635,-44.52
51081260,-0.368,0.077,0.746,38.675,24.29,-41.002
51081270,-0.36,0.181,0.742,34.895,48.615,-37.292
51081280,-0.422,0.102,0.741,38.377,70.157,-32.042
51081290,-0.486,0.127,0.766,44.327,89.232,-25.865
51081300,-0.533,0.163,0.738,39.27,101.885,-20.23
51081310,-0.606,0.153,0.73,38.202,108.605,-15.925
51081320,-0.637,0.18,0.727,36.872,109.042,-14.14
51081330,-0.654,0.158,0.679,36.067,105.385,-10.08
51081340,-0.673,0.163,0.677,42.192,101.605,-4.13
51081350,-0.714,0.189,0.683,46.48,97.265,-0.192
51081360,-0.753,0.213,0.696,48.3,92.225,1.54
51081370,-0.76,0.232,0.709,47.407,87.185,0.052
51081380,-0.79,0.233,0.717,46.13,82.932,2.625
51081390,-0.822,0.227,0.725,44.45,78.4,5.022
51081400,-0.791,0.281,0.72,41.545,74.777,4.515
51081410,-0.915,0.204,0.751,40.88,68.512,24.622
51081420,-0.926,0.207,0.698,36.855,56.56,36.435
51081430,-0.856,0.261,0.714,38.78,47.232,27.3
51081440,-0.861,0.254,0.704,34.457,43.085,25.917
51081450,-0.853,0.239,0.696,31.29,40.88,25.9
51081460,-0.857,0.245,0.702,29.627,40.32,27.282
51081470,-0.858,0.265,0.709,25.602,40.582,25.69
51081480,-0.874,0.265,0.71,20.317,40.582,23.065
51081490,-0.883,0.253,0.715,16.415,39.025,20.422
51081500,-0.897,0.254,0.735,14.017,35.98,19.092
51081510,-0.907,0.261,0.726,10.045,31.08,17.85
51081510,-0.892,0.253,0.711,6.492,25.41,15.452
51081530,-0.864,0.236,0.697,5.04,19.285,13.09
51081530,-0.83,0.239,0.692,4.165,15.207,11.165
51081550,-0.803,0.246,0.682,2.117,12.915,9.38
51081550,-0.782,0.241,0.67,-0.402,12.582,8.067
51081570,-0.768,0.236,0.66,-2.485,12.792,7.402
51081570,-0.761,0.238,0.653,-4.27,13.335,7.63
51081580,-0.762,0.241,0.653,-6.02,13.247,7.77
51081590,-0.768,0.241,0.661,-8.295,12.722,7.157
51081600,-0.777,0.231,0.652,-10.78,10.675,6.317
51081610,-0.759,0.233,0.721,-10.395,8.837,4.182
51081620,-0.764,0.259,0.673,-27.09,8.155,2.362
51081630,-0.752,0.165,0.633,-28.962,5.722,0.315
51081640,-0.784,0.125,0.632,-16.59,2.152,4.305
51081650,-0.794,0.148,0.636,-6.807,-5.285,8.855
51081660,-0.755,0.195,0.65,0.385,-12.232,8.487
51081670,-0.717,0.212,0.652,2.695,-15.382,8.207
51081680,-0.698,0.204,0.632,2.345,-14.28,9.24
51081690,-0.678,0.217,0.615,3.587,-9.555,10.202
51081700,-0.686,0.246,0.605,4.865,-3.272,10.797
51081710,-0.721,0.268,0.576,4.182,1.995,10.832
51081720,-0.758,0.28,0.549,4.305,5.022,9.975
51081730,-0.79,0.306,0.526,3.972,5.635,9.94
51081740,-0.822,0.339,0.484,1.452,3.307,10.482
51081750,-0.823,0.377,0.457,-2.66,-1.61,12.337
51081760,-0.81,0.411,0.44,-7.822,-5.81,16.572
51081770,-0.804,0.434,0.435,-12.81,-10.237,22.855
51081780,-0.811,0.456,0.456,-18.375,-14,31.062
51081790,-0.812,0.459,0.456,-24.71,-13.877,38.622
51081800,-0.798,0.471,0.462,-30.222,-7.595,43.767
51081810,-0.786,0.493,0.522,-35.122,4.287,44.747
51081820,-0.803,0.487,0.552,-43.4,19.897,38.727
51081830,-0.816,0.428,0.534,-51.572,32.655,27.3
51081840,-0.774,0.394,0.525,-54.407,42.962,12.425
51081850,-0.768,0.371,0.5,-57.715,47.005,1.61
51081860,-0.808,0.321,0.471,-57.557,41.265,-5.407
51081870,-0.818,0.278,0.471,-54.495,28.472,-7.682
51081880,-0.826,0.248,0.546,-49.122,13.667,-6.335
51081890,-0.825,0.263,0.617,-44.905,-1.347,-8.382
51081900,-0.764,0.244,0.607,-45.745,-14.577,-12.705
51081910,-0.714,0.163,0.639,-43.925,-25.2,-15.4
51081920,-0.737,0.058,0.626,-38.255,-38.517,-11.095
51081920,-0.707,0.023,0.652,-18.305,-52.465,-5.32
51081940,-0.643,0.046,0.66,8.33,-63.21,3.605
51081940,-0.544,0.004,0.633,36.715,-68.162,14.77
51081960,-0.389,0.044,0.756,66.675,-61.985,31.5
51081960,-0.332,0.05,0.855,77.157,-17.92,58.065
51081980,-0.884,0.011,0.803,64.557,12.81,65.765
51081980,-0.749,0.025,0.747,65.73,6.615,57.312
51082000,-0.817,0.13,0.809,70.035,-9.572,74.392
51082000,-0.846,0.266,0.773,50.75,-13.422,87.01
51082010,-0.572,0.249,0.909,32.812,2.747,59.675
51082020,-0.283,0.232,0.959,24.99,28.455,24.377
51082030,-0.372,0.241,0.865,4.602,66.71,12.407
51082040,-0.493,0.343,0.856,-14.262,101.115,-0.787
51082050,-0.71,0.294,0.74,-40.267,116.655,-13.632
51082060,-0.87,0.171,0.613,-53.83,113.347,-29.82
51082070,-0.917,0.17,0.502,-62.755,95.777,-40.897
51082080,-1.044,0.182,0.46,-61.075,66.57,-35.91
51082090,-1.099,0.234,0.364,-63.227,29.575,-23.275
51082100,-1.015,0.177,0.261,-63.192,-2.94,-8.522
51082110,-0.712,0.193,0.36,-48.142,-13.37,-2.59
51082120,-0.582,0.271,0.454,-45.657,-0.262,-4.41
51082130,-0.501,0.258,0.528,-52.395,31.955,-11.847
51082140,-0.463,0.185,0.607,-56.035,75.617,-17.92
51082150,-0.591,0.119,0.673,-56.892,113.015,-20.002
51082160,-0.89,0.105,0.785,-54.652,127.12,-20.772
51082170,-1.18,0.069,0.79,-50.68,94.307,-14.227
51082180,-1.133,0.05,0.752,-33.232,39.567,2.957
51082190,-0.94,0.121,0.714,-13.335,-6.44,19.075
51082200,-0.745,0.16,0.608,-5.845,-31.727,19.477
51082210,-0.54,0.188,0.516,-3.972,-27.282,9.765
51082220,-0.459,0.241,0.48,-4.06,9.31,8.61
51082230,-0.607,0.302,0.471,-9.817,59.325,10.605
51082240,-0.861,0.358,0.475,-24.167,97.212,4.06
51082250,-1.101,0.35,0.482,-37.695,108.307,-1.715
51082260,-1.132,0.297,0.451,-44.905,92.19,2.257
51082260,-0.87,0.238,0.455,-42.087,69.44,9.187
51082280,-0.587,0.227,0.462,-30.852,70.822,17.36
51082280,-0.444,0.283,0.508,-20.947,103.845,22.89
51082300,-0.47,0.351,0.534,-26.005,153.72,20.807
51082300,-0.499,0.417,0.589,-40.232,200.83,14.787
51082320,-0.829,0.263,0.436,-63.297,226.24,37.572
51082320,-0.901,0.246,0.475,-63.507,220.657,53.847
51082330,-0.783,0.376,0.441,-77.42,216.825,57.767
51082340,-0.819,0.292,0.208,-102.62,216.947,54.582
51082350,-1.012,0.041,0.048,-115.097,212.397,57.242
51082360,-1.155,-0.09,-0.105,-103.792,209.772,64.435
51082370,-1.267,0.015,-0.13,-79.572,205.747,64.382
51082380,-1.433,0.105,-0.147,-63.98,184.66,65.345
51082390,-1.176,0.287,-0.032,-55.51,161.122,56.175
51082400,-1.199,0.198,0.177,-74.69,159.145,55.457
51082410,-1.014,-0.221,0.118,-102.025,172.077,53.235
51082420,-1.412,-0.068,0.226,-86.362,157.097,50.19
51082430,-1.515,-0.008,0.099,-61.792,105.822,64.347
51082440,-1.01,0.121,0.071,-43.12,60.392,57.82
51082450,-0.788,0.081,0.05,-31.482,45.01,53.27
51082460,-0.794,0.062,0.021,-14.577,48.51,63.91
51082470,-0.998,0.195,0.078,5.81,51.327,70.682
51082480,-1.346,0.244,0.074,16.205,29.382,64.627
51082490,-1.58,0.204,0.12,31.64,-23.59,46.917
51082500,-1.828,0.231,0.151,49.227,-96.512,15.225
51082510,-1.995,0.326,0.089,59.745,-193.69,-33.232
51082520,-1.998,0.401,-0.048,67.235,-311.272,-92.312
51082530,-1.71,0.524,-0.221,76.825,-426.422,-147.822
51082540,-1.093,0.701,-0.315,80.167,-504.402,-189.892
51082550,-0.616,0.811,-0.295,68.442,-527.117,-211.907
51082560,-0.494,0.644,-0.242,55.387,-506.8,-202.055
51082570,-0.44,0.576,-0.113,49.717,-467.687,-188.002
51082580,-0.433,0.599,0.101,35.822,-416.78,-178.517
51082590,-0.56,0.481,0.236,11.795,-367.027,-159.25
51082600,-0.591,0.365,0.352,-4.025,-327.407,-146.702
51082610,-0.583,0.324,0.475,-14.752,-294.84,-135.065
51082620,-0.581,0.302,0.581,-25.252,-265.352,-123.357
51082630,-0.579,0.25,0.688,-32.865,-239.277,-117.897
51082640,-0.602,0.234,0.692,-48.93,-216.562,-118.72
51082650,-0.572,0.166,0.752,-51.782,-198.1,-132.177
51082660,-0.529,0.166,0.79,-55.982,-184.117,-141.925
51082670,-0.509,0.12,0.758,-62.387,-179.48,-143.552
51082670,-0.417,0.059,0.743,-64.61,-175.332,-138.81
51082690,-0.379,-0.009,0.748,-61.757,-168.98,-126.35
51082690,-0.383,-0.091,0.742,-51.94,-162.085,-112.997
51082710,-0.437,-0.102,0.753,-39.672,-160.072,-101.29
51082710,-0.328,-0.139,0.742,-30.292,-160.09,-87.727
51082730,-0.201,-0.211,0.753,-14.892,-146.335,-71.4
51082730,-0.162,-0.239,0.821,6.842,-121.502,-56.717
51082750,-0.181,-0.22,0.876,19.635,-88.462,-45.395
51082750,-0.195,-0.17,0.939,23.205,-51.17,-40.635
51082760,-0.262,-0.123,1.054,22.54,-17.08,-36.452
51082770,-0.396,-0.145,1.088,3.342,4.06,-25.287
51082780,-0.456,-0.194,1.046,-20.807,16.17,-17.062
51082790,-0.467,-0.224,0.995,-36.487,26.425,-13.685
51082800,-0.478,-0.219,0.971,-44.8,38.465,-16.17
51082810,-0.5,-0.193,0.96,-50.172,48.177,-25.165
51082820,-0.498,-0.173,0.932,-56.262,52.57,-39.095
51082830,-0.486,-0.192,0.899,-62.107,50.557,-49.682
51082840,-0.541,-0.217,0.848,-61.565,40.285,-52.097
51082850,-0.529,-0.252,0.778,-50.645,24.115,-44.257
51082860,-0.497,-0.269,0.756,-32.235,9.905,-28.262
51082870,-0.512,-0.274,0.742,-12.687,-4.27,-13.492
51082880,-0.492,-0.278,0.742,7.192,-14.805,-2.572
51082890,-0.442,-0.276,0.753,24.692,-19.652,4.847
51082900,-0.425,-0.283,0.765,38.71,-21.612,11.217
51082910,-0.412,-0.289,0.772,52.395,-20.177,15.715
51082920,-0.383,-0.307,0.766,68.005,-14.525,20.527
51082930,-0.402,-0.315,0.783,86.94,-9.345,28.577
51082940,-0.464,-0.302,0.808,108.815,-10.395,41.51
51082950,-0.487,-0.267,0.831,132.3,-18.725,58.292
51082960,-0.455,-0.205,0.865,152.845,-28.017,75.722
51082970,-0.413,-0.108,0.91,164.22,-32.532,89.04
51082980,-0.383,-0.015,0.948,164.815,-28.77,95.672
51082990,-0.364,0.056,0.976,155.05,-18.445,95.637
51083000,-0.368,0.083,0.971,139.877,-3.797,93.03
51083010,-0.37,0.094,0.953,125.65,12.512,89.285
51083010,-0.381,0.106,0.928,113.26,28.962,85.767
51083030,-0.419,0.123,0.891,101.027,41.457,81.882
51083030,-0.444,0.144,0.848,90.545,49.262,77.402
51083050,-0.448,0.151,0.818,83.842,53.182,73.045
51083050,-0.449,0.146,0.782,80.605,54.915,68.967
51083070,-0.455,0.15,0.751,80.622,54.285,65.047
51083070,-0.454,0.181,0.734,82.075,52.465,60.76
51083080,-0.439,0.226,0.717,81.97,51.1,55.93
51083090,-0.417,0.273,0.707,79.817,51.957,50.697
51083100,-0.418,0.307,0.707,76.142,54.442,46.112
51083110,-0.434,0.33,0.709,69.02,56.857,40.967
51083120,-0.449,0.351,0.705,59.64,58.275,35.332
51083130,-0.473,0.367,0.704,50.732,58.432,30.59
51083140,-0.499,0.379,0.704,41.842,56.927,26.915
51083150,-0.52,0.39,0.709,31.85,53.672,21.647
51083160,-0.546,0.378,0.721,21.472,49.647,14.997
51083170,-0.55,0.378,0.725,10.027,43.802,6.002
51083180,-0.571,0.346,0.721,0.402,35.612,-0.647
51083190,-0.568,0.341,0.725,-5.337,24.85,-4.69
51083200,-0.558,0.345,0.715,-9.257,12.53,-5.04
51083210,-0.558,0.336,0.714,-9.292,1.312,-2.73
51083220,-0.539,0.344,0.726,-8.417,-6.055,-2.275
51083230,-0.511,0.342,0.748,-7.49,-9.555,-3.027
51083240,-0.479,0.347,0.76,-9.012,-8.802,-3.955
51083250,-0.468,0.344,0.772,-10.15,-5.302,-3.482
51083260,-0.48,0.355,0.795,-10.412,0.805,-2.082
51083270,-0.488,0.372,0.817,-12.32,6.807,-1.925
51083280,-0.49,0.38,0.828,-15.662,12.005,-1.837
51083290,-0.515,0.365,0.848,-17.832,15.312,0
51083300,-0.537,0.358,0.871,-19.32,17.08,1.505
51083310,-0.558,0.358,0.884,-20.265,16.31,2.957
51083320,-0.572,0.356,0.89,-21.367,15.207,4.13
51083330,-0.577,0.35,0.892,-22.575,15.295,3.727
51083340,-0.573,0.35,0.888,-23.73,17.745,1.715
51083350,-0.575,0.356,0.889,-24.902,20.65,-0.56
51083360,-0.587,0.346,0.872,-26.6,23.275,-1.54
51083370,-0.589,0.322,0.852,-27.422,24.237,-2.327
51083380,-0.599,0.297,0.838,-26.355,23.992,-2.817
51083390,-0.612,0.288,0.833,-22.61,22.47,-2.782
51083400,-0.614,0.294,0.831,-17.657,20.65,-2.292
51083410,-0.603,0.298,0.822,-13.107,19.057,-1.68
51083420,-0.58,0.303,0.805,-9.275,19.022,-1.557
51083420,-0.563,0.308,0.794,-7.245,20.317,-0.175
51083440,-0.566,0.282,0.773,-3.675,22.155,2.695
51083440,-0.568,0.303,0.776,-0.735,25.217,2.852
51083460,-0.582,0.314,0.765,-3.43,29.12,2.712
51083460,-0.599,0.303,0.75,-7.472,32.917,1.837
51083470,-0.613,0.299,0.724,-13.422,36.067,-2.135
51083480,-0.65,0.258,0.703,-16.432,37.31,-4.147
51083490,-0.671,0.241,0.7,-17.657,34.895,-2.73
51083500,-0.68,0.226,0.689,-19.495,30.327,-1.592
51083510,-0.681,0.22,0.69,-19.442,25.672,-1.942
51083520,-0.682,0.21,0.705,-19.005,20.86,-2.117
51083530,-0.674,0.209,0.711,-19.075,15.522,-2.52
51083540,-0.662,0.2,0.706,-18.9,10.815,-3.167
51083550,-0.644,0.195,0.709,-17.92,7.665,-4.83
51083560,-0.635,0.2,0.728,-17.202,6.212,-6.807
51083570,-0.624,0.208,0.729,-18.462,5.512,-8.557
51083580,-0.613,0.204,0.726,-20.387,6.02,-10.535
51083590,-0.615,0.196,0.727,-21.892,6.982,-13.09
51083600,-0.638,0.186,0.736,-22.137,6.86,-14.157
51083610,-0.669,0.177,0.737,-20.982,4.007,-12.425
51083620,-0.689,0.174,0.748,-19.337,0.28,-9.502
51083630,-0.698,0.175,0.755,-17.815,-3.43,-7.875
51083640,-0.707,0.177,0.752,-17.272,-6.23,-7.682
51083650,-0.701,0.171,0.752,-17.255,-8.242,-7.927
51083660,-0.689,0.167,0.749,-16.695,-9.397,-7.962
51083670,-0.67,0.165,0.747,-15.347,-10.622,-7.752
51083680,-0.65,0.162,0.747,-12.617,-11.497,-6.93
51083690,-0.626,0.168,0.752,-9.082,-11.917,-5.39
51083700,-0.601,0.179,0.755,-6.177,-10.237,-2.87
51083710,-0.581,0.192,0.754,-4.865,-6.895,-1.19
51083720,-0.577,0.198,0.752,-5.652,-1.452,-0.63
51083730,-0.589,0.198,0.753,-7.227,3.815,-1.137
51083740,-0.603,0.198,0.745,-9.135,7.752,-2.24
51083750,-0.619,0.194,0.735,-10.64,10.115,-2.87
51083760,-0.648,0.188,0.742,-11.252,11.252,-3.517
51083760,-0.681,0.189,0.747,-11.462,9.292,-4.865
51083780,-0.695,0.18,0.743,-11.62,4.952,-6.44
51083780,-0.698,0.17,0.735,-11.445,-0.945,-7.455
51083800,-0.696,0.169,0.729,-10.675,-6.387,-7.98
51083800,-0.687,0.171,0.728,-10.01,-10.955,-8.382
51083820,-0.678,0.164,0.73,-9.73,-13.72,-8.505
51083820,-0.676,0.167,0.744,-9.397,-14.84,-7.717
51083830,-0.691,0.135,0.728,-8.715,-16.537,-4.235
51083840,-0.634,0.162,0.743,-7.735,-15.977,-5.897
51083850,-0.637,0.155,0.742,-9.17,-12.81,-3.78
51083860,-0.652,0.136,0.75,-9.117,-9.065,-2.415
51083870,-0.66,0.125,0.747,-7.35,-6.86,-1.365
51083880,-0.639,0.132,0.755,-5.285,-4.462,-0.787
51083890,-0.638,0.141,0.749,-4.095,-2.415,0.122
51083900,-0.636,0.142,0.753,-3.29,-0.857,0.7
51083910,-0.654,0.14,0.746,-2.87,-1.015,0.962
51083920,-0.645,0.146,0.753,-2.765,-3.36,0.35
51083930,-0.637,0.138,0.756,-3.412,-6.352,0.192
51083940,-0.627,0.13,0.758,-3.132,-7.612,0.21
51083950,-0.63,0.135,0.762,-2.38,-8.242,0.857
51083960,-0.651,0.137,0.763,-2.537,-8.89,2.327
51083970,-0.646,0.136,0.754,-2.555,-10.482,2.52
51083980,-0.637,0.14,0.752,-1.907,-11.287,3.062
51083990,-0.618,0.147,0.749,-1.662,-9.852,3.622
51084000,-0.637,0.149,0.755,-1.26,-6.055,4.357
51084010,-0.652,0.151,0.753,-1.05,-3.342,3.99
51084020,-0.646,0.156,0.754,-0.63,-1.452,3.692
51084030,-0.64,0.163,0.748,-0.455,-1.067,3.797
51084040,-0.642,0.171,0.742,0,-0.962,3.5
51084050,-0.647,0.174,0.741,0.052,-1.295,3.027
51084060,-0.658,0.174,0.744,-0.28,-1.54,2.572
51084070,-0.658,0.179,0.745,-0.157,-2.695,1.4
51084080,-0.647,0.181,0.743,-0.192,-3.255,0.262
51084090,-0.643,0.18,0.745,-0.245,-3.307,-0.805
51084100,-0.646,0.178,0.745,-0.227,-2.257,-1.33
51084110,-0.644,0.176,0.752,-0.227,-1.487,-2.187
51084120,-0.653,0.169,0.753,-0.63,-0.91,-2.117
51084130,-0.652,0.161,0.755,-1.05,-1.435,-2.362
51084140,-0.646,0.151,0.756,-0.717,-2.572,-2.59
51084140,-0.639,0.147,0.762,-0.07,-4.007,-2.485
51084160,-0.638,0.147,0.767,0.21,-5.057,-2.03
51084160,-0.625,0.149,0.77,0.612,-6.212,-2.135
51084170,-0.604,0.147,0.766,1.05,-6.527,-2.135
51084180,-0.592,0.149,0.767,1.505,-5.862,-1.802
51084190,-0.599,0.152,0.772,1.82,-4.567,-1.067
51084200,-0.61,0.153,0.772,1.907,-3.762,-0.122
51084210,-0.606,0.153,0.772,1.89,-2.362,0.822
51084220,-0.608,0.155,0.761,1.627,0.507,-0.227
51084230,-0.624,0.151,0.755,1.767,3.71,-0.857
51084240,-0.632,0.147,0.745,1.172,5.652,-0.542
51084250,-0.665,0.148,0.737,1.382,5.845,0.822
51084260,-0.679,0.155,0.734,1.627,4.812,0.42
51084270,-0.684,0.148,0.733,1.26,2.467,0.35
51084280,-0.686,0.145,0.719,-0.07,-0.14,0.28
51084290,-0.666,0.145,0.72,0.962,-2.17,-0.892
51084300,-0.673,0.145,0.719,1.33,-2.642,-1.242
51084310,-0.666,0.153,0.733,2.52,-3.027,-2.59
51084320,-0.675,0.153,0.738,2.03,-2.677,0.455
51084330,-0.666,0.155,0.734,0.367,-3.412,0.595
51084340,-0.648,0.154,0.742,0.892,-4.515,-0.14
51084350,-0.629,0.153,0.747,0.297,-5.705,-0.297
51084360,-0.62,0.155,0.75,0.052,-5.74,0.175
51084370,-0.62,0.159,0.757,0.7,-5.25,0.717
51084380,-0.623,0.167,0.763,0.892,-3.797,0.682
51084390,-0.607,0.181,0.752,0.892,-2.082,-0.122
51084400,-0.618,0.219,0.747,-0.787,2.1,-0.507
51084410,-0.653,0.198,0.743,-6.177,3.955,-0.822
51084420,-0.667,0.164,0.729,-9.502,4.672,-1.487
51084430,-0.687,0.147,0.745,-8.137,3.22,-2.24
51084440,-0.71,0.14,0.76,-5.127,0.192,-2.905
51084450,-0.696,0.147,0.767,-2.957,-4.34,-4.095
51084460,-0.641,0.141,0.763,-0.735,-7.227,-4.882
51084470,-0.596,0.153,0.76,1.61,-6.807,-4.707
51084480,-0.599,0.165,0.766,1.487,-3.622,-2.467
51084490,-0.609,0.162,0.763,0.577,-0.595,-0.77
51084500,-0.598,0.145,0.759,0.945,3.01,0.595
51084510,-0.597,0.143,0.757,1.295,8.172,2.537
51084510,-0.616,0.159,0.756,1.592,14.77,4.13
51084530,-0.659,0.145,0.77,1.47,18.095,3.342
51084530,-0.62,0.13,0.767,3.045,18.83,1.067
51084550,-0.603,0.171,0.759,6.055,19.355,1.207
51084550,-0.632,0.195,0.732,2.292,18.322,0.752
51084570,-0.64,0.175,0.688,-1.855,17.605,-0.7
51084570,-0.671,0.172,0.681,-2.537,18.27,-0.91
51084580,-0.713,0.168,0.676,-3.902,16.922,-1.032
51084590,-0.767,0.167,0.684,-2.432,13.09,-0.63
51084600,-0.805,0.155,0.686,-2.94,5.705,-0.035
51084610,-0.801,0.148,0.689,-1.347,-1.925,-3.745
51084620,-0.779,0.153,0.706,2.747,-8.487,-8.54
51084630,-0.72,0.146,0.712,4.795,-14.665,-10.762
51084640,-0.67,0.146,0.724,5.915,-17.395,-10.272
51084650,-0.646,0.144,0.734,7.437,-17.15,-9.345
51084660,-0.64,0.136,0.74,7.787,-14.315,-7.84
51084670,-0.624,0.135,0.739,8.155,-10.622,-6.597
51084680,-0.612,0.15,0.754,9.24,-5.775,-5.32
51084690,-0.629,0.149,0.756,7.91,-2.45,-3.885
51084700,-0.631,0.154,0.763,6.702,-0.647,-2.8
51084710,-0.637,0.168,0.765,5.197,0.07,-1.312
51084720,-0.658,0.172,0.754,1.802,1.365,0.437
51084730,-0.678,0.161,0.736,-0.805,1.225,1.277
51084740,-0.67,0.15,0.73,-0.192,-0.332,0.787
51084750,-0.644,0.166,0.732,2.45,-1.925,0.91
51084760,-0.635,0.193,0.733,4.217,-1.382,2.45
51084770,-0.663,0.203,0.734,3.272,-0.367,3.307
51084780,-0.675,0.193,0.741,1.662,0.962,2.502
51084790,-0.682,0.182,0.735,-0.455,1.452,0.752
51084800,-0.689,0.161,0.734,-1.172,1.54,-0.14
51084810,-0.688,0.147,0.733,-0.717,0.332,-0.087
51084820,-0.683,0.144,0.727,-0.122,-0.665,0.84
51084830,-0.689,0.128,0.719,0.227,-1.837,1.732
51084830,-0.688,0.123,0.709,0.892,-2.817,0.98
51084850,-0.687,0.116,0.709,2.31,-4.707,0
51084850,-0.682,0.119,0.709,2.887,-5.897,-0.542
51084870,-0.679,0.116,0.707,2.485,-6.632,-0.49
51084870,-0.685,0.116,0.707,1.96,-6.51,0.84
51084890,-0.687,0.122,0.712,1.33,-7.525,1.47
51084890,-0.677,0.12,0.719,0.735,-9.117,1.662
51084910,-0.664,0.127,0.721,-0.105,-10.762,2.24
51084910,-0.658,0.127,0.726,0.192,-11.795,3.255
51084920,-0.64,0.134,0.727,0,-12.075,3.797
51084930,-0.619,0.146,0.729,0.525,-10.237,3.92
51084940,-0.627,0.159,0.735,0.857,-7,4.165
51084950,-0.645,0.164,0.738,0.962,-3.78,3.552
51084960,-0.654,0.166,0.735,1.102,-1.837,2.957
51084970,-0.647,0.17,0.738,0.56,-0.7,3.062
51084980,-0.644,0.168,0.741,0.28,1.155,3.307
51084990,-0.649,0.172,0.75,0.367,1.977,3.692
51085000,-0.64,0.181,0.763,0.717,1.277,4.025
51085010,-0.631,0.184,0.765,0.297,-0.42,4.2
51085020,-0.624,0.191,0.759,-1.312,-0.052,4.655
51085030,-0.636,0.191,0.756,-2.572,1.645,4.987
51085040,-0.647,0.175,0.741,-3.762,3.867,4.935
51085050,-0.66,0.166,0.722,-4.025,6.142,4.69
51085060,-0.685,0.167,0.715,-3.185,7.7,3.832
51085070,-0.709,0.158,0.709,-2.887,6.282,2.905
51085080,-0.71,0.153,0.71,-2.485,2.887,2.712
51085090,-0.701,0.158,0.723,-2.625,-1.207,3.29
51085100,-0.686,0.153,0.722,-3.43,-3.377,2.957
51085110,-0.678,0.146,0.732,-2.975,-4.585,2.327
51085120,-0.662,0.144,0.743,-3.132,-4.322,2.257
51085130,-0.653,0.142,0.748,-3.342,-3.605,2.555
51085140,-0.653,0.142,0.755,-3.64,-2.66,3.412
51085150,-0.662,0.144,0.768,-4.147,-2.94,3.92
51085160,-0.663,0.142,0.742,-4.777,-4.217,3.78
51085170,-0.616,0.133,0.725,-3.727,-5.162,3.99
51085180,-0.632,0.139,0.711,-2.24,-4.27,5.67
51085190,-0.682,0.18,0.736,-1.697,-3.08,6.352
51085200,-0.734,0.171,0.748,-3.552,-1.75,4.025
51085210,-0.731,0.164,0.745,-3.692,-3.325,-1.295
51085220,-0.702,0.162,0.72,-3.115,-7.052,-1.557
51085230,-0.657,0.181,0.685,-2.87,-9.852,-1.382
51085240,-0.649,0.183,0.678,-3.01,-9.327,1.33
51085250,-0.69,0.2,0.706,-3.395,-7.56,2.135
51085260,-0.754,0.184,0.73,-4.812,-8.172,1.82
51085260,-0.723,0.165,0.731,-5.162,-11.655,-1.662
51085280,-0.666,0.165,0.72,-3.902,-13.702,-3.08
51085280,-0.631,0.177,0.723,-2.555,-12.897,-1.995
51085300,-0.629,0.18,0.736,-2.765,-10.92,2.94
51085300,-0.614,0.173,0.723,-6.405,-10.325,7.315
51085320,-0.636,0.176,0.745,-5.512,-9.45,6.702
51085320,-0.637,0.174,0.767,-4.13,-8.435,3.552
51085330,-0.608,0.175,0.771,-4.672,-6.79,2.782
51085340,-0.604,0.165,0.757,-5.6,-4.672,5.6
51085350,-0.613,0.165,0.756,-4.812,-2.642,5.81
51085360,-0.599,0.174,0.754,-4.847,-0.63,3.797
51085370,-0.62,0.164,0.748,-6.195,1.522,4.2
51085380,-0.645,0.147,0.729,-7.717,3.762,5.005
51085390,-0.652,0.138,0.718,-6.317,5.337,4.48
51085400,-0.679,0.146,0.712,-4.742,5.985,4.497
51085410,-0.695,0.15,0.717,-4.305,4.462,4.007
51085420,-0.701,0.151,0.723,-3.902,2.1,3.027
51085430,-0.701,0.152,0.733,-2.625,-1.155,1.645
51085440,-0.682,0.154,0.741,-1.82,-3.307,0.35
51085450,-0.654,0.151,0.747,-1.295,-4.2,-0.647
51085460,-0.631,0.149,0.754,-1.155,-3.902,-0.682
51085470,-0.621,0.149,0.758,-1.295,-3.92,0.455
51085480,-0.62,0.15,0.756,-1.662,-3.045,2.082
51085490,-0.635,0.146,0.745,-2.31,-1.907,3.185
51085500,-0.663,0.156,0.731,-2.59,-0.07,3.255
51085510,-0.686,0.167,0.732,-2.852,0.017,1.312
51085520,-0.643,0.234,0.652,-5.215,2.38,0.35
51085530,-0.729,0.235,0.688,-11.042,7.542,3.15
51085540,-0.839,0.097,0.646,-19.95,5.25,-1.452
51085550,-0.84,0.072,0.712,-9.572,-7.42,-5.512
51085560,-0.728,0.116,0.765,-0.157,-22.365,-9.257
51085570,-0.635,0.179,0.805,3.552,-31.85,-4.655
51085580,-0.586,0.175,0.811,-1.715,-32.76,5.162
51085580,-0.564,0.165,0.735,-5.407,-26.792,4.672
51085600,-0.532,0.149,0.789,-0.945,-17.692,1.155
51085600,-0.553,0.161,0.801,-1.207,-9.327,0.087
51085620,-0.616,0.185,0.823,-1.697,-2.152,2.957
51085620,-0.632,0.193,0.814,-2.887,2.677,1.872
51085640,-0.588,0.195,0.756,-4.007,4.97,-1.82
51085640,-0.592,0.192,0.707,-3.395,6.317,-0.402
51085660,-0.624,0.177,0.678,-4.06,8.47,1.015
51085660,-0.664,0.16,0.686,-3.587,8.522,0.595
51085670,-0.716,0.15,0.742,-3.605,5.967,0.647
51085680,-0.698,0.141,0.776,-7.087,2.38,-0.402
51085690,-0.618,0.115,0.746,-10.062,-0.49,1.4
51085700,-0.583,0.113,0.73,-11.2,-1.645,8.925
51085710,-0.596,0.101,0.726,-12.46,-2.047,15.242
51085720,-0.598,0.1,0.723,-12.74,-0.665,13.317
51085730,-0.603,0.099,0.749,-8.575,1.382,9.415
51085740,-0.64,0.123,0.764,-6.615,3.517,10.797
51085750,-0.657,0.137,0.745,-7.367,4.13,10.657
51085760,-0.648,0.147,0.727,-6.527,4.392,10.71
51085770,-0.661,0.161,0.736,-7.332,4.357,11.112
51085780,-0.69,0.157,0.777,-8.715,4.777,9.695
51085790,-0.702,0.136,0.745,-8.505,2.975,7.402
51085800,-0.665,0.136,0.76,-6.265,0.052,6.09
51085810,-0.634,0.175,0.724,-4.252,-0.315,5.792
51085820,-0.719,0.195,0.746,-3.692,0.682,6.142
51085830,-0.743,0.178,0.729,-4.76,-0.035,2.415
51085840,-0.727,0.155,0.717,-2.765,-3.937,-0.805
51085850,-0.693,0.158,0.718,-0.367,-6.51,-3.307
51085860,-0.643,0.151,0.738,1.417,-4.34,-5.46
51085870,-0.604,0.127,0.739,2.642,-0.262,-6.247
51085880,-0.59,0.111,0.734,4.62,5.932,-4.515
51085890,-0.562,0.114,0.745,9.117,13.737,-2.432
51085900,-0.54,0.102,0.788,11.83,23.432,0.385
51085910,-0.615,0.071,0.851,12.67,28.682,3.99
51085920,-0.674,0.047,0.908,13.23,28.542,5.617
51085930,-0.67,0.057,0.907,14.752,22.995,6.93
51085940,-0.669,0.085,0.842,15.872,17.832,6.3
51085950,-0.661,0.102,0.743,21.647,18.13,1.785
51085960,-0.645,0.075,0.707,29.435,23.747,2.24
51085970,-0.683,-0.004,0.748,41.615,31.377,1.452
51085980,-0.854,-0.037,0.882,67.13,36.47,6.16
51085990,-0.795,-0.012,0.912,98.857,29.05,13.072
51086000,-0.489,0.104,0.906,127.575,31.43,23.87
51086010,-0.451,0.136,0.798,141.75,49.472,53.795
51086010,-0.477,0.134,0.72,163.065,75.057,73.675
51086030,-0.499,0.248,0.698,179.357,101.832,70.56
51086030,-0.555,0.322,0.619,182.052,123.042,66.08
51086050,-0.578,0.338,0.574,183.61,140.14,66.202
51086050,-0.652,0.398,0.534,182.98,147.017,64.05
51086070,-0.748,0.43,0.467,180.547,142.922,60.952
51086070,-0.748,0.483,0.417,178.412,132.615,53.847
51086080,-0.763,0.507,0.377,172.287,121.94,47.127
51086090,-0.787,0.572,0.358,162.855,110.932,38.465
51086100,-0.816,0.606,0.319,151.305,97.562,28.7
51086110,-0.75,0.681,0.318,136.552,87.517,17.535
51086120,-0.902,0.628,0.308,114.73,77.262,21.455
51086130,-0.88,0.692,0.304,85.925,61.95,3.325
51086140,-0.944,0.695,0.302,61.162,43.627,-11.707
51086150,-1,0.662,0.297,37.642,19.67,-21.787
51086160,-0.981,0.663,0.297,15.172,-8.715,-34.755
51086170,-0.945,0.635,0.271,-7.682,-35.49,-43.382
51086180,-0.91,0.624,0.275,-28.875,-57.54,-54.845
51086190,-0.898,0.597,0.264,-49.332,-78.942,-67.077
51086200,-0.813,0.532,0.219,-66.237,-95.952,-72.59
51086210,-0.746,0.471,0.19,-73.29,-107.432,-71.12
51086220,-0.728,0.431,0.174,-74.672,-114.205,-67.55
51086230,-0.717,0.396,0.191,-70.175,-116.55,-63.052
51086240,-0.736,0.376,0.256,-61.32,-117.337,-55.247
51086250,-0.775,0.38,0.326,-53.427,-117.985,-47.39
51086260,-0.799,0.411,0.427,-46.917,-115.255,-44.782
51086270,-0.836,0.436,0.526,-45.587,-109.427,-44.922
51086280,-0.885,0.444,0.614,-48.947,-102.515,-47.355
51086290,-0.907,0.474,0.681,-57.54,-95.935,-54.215
51086300,-0.911,0.483,0.705,-70.56,-90.807,-63
51086310,-0.876,0.449,0.706,-82.757,-88.882,-71.225
51086320,-0.819,0.411,0.699,-92.277,-88.97,-74.497
51086330,-0.773,0.338,0.648,-98.28,-92.225,-70.525
51086330,-0.748,0.247,0.603,-94.097,-96.197,-62.422
51086350,-0.703,0.209,0.61,-83.387,-99.137,-52.85
51086350,-0.723,0.146,0.586,-69.947,-101.535,-37.887
51086370,-0.715,0.127,0.634,-45.465,-103.145,-25.865
51086370,-0.681,0.159,0.684,-25.637,-102.812,-18.2
51086390,-0.644,0.207,0.748,-12.617,-99.802,-13.895
51086390,-0.582,0.23,0.769,-8.347,-92.12,-17.202
51086410,-0.544,0.26,0.814,-7.21,-79.257,-21.84
51086410,-0.531,0.273,0.819,-15.295,-65.695,-24.5
51086420,-0.543,0.252,0.808,-22.295,-54.022,-23.712
51086430,-0.514,0.271,0.797,-29.26,-43.767,-24.727
51086440,-0.508,0.289,0.787,-37.59,-34.685,-24.307
51086450,-0.501,0.31,0.774,-48.65,-27.457,-23.52
51086460,-0.511,0.312,0.73,-63.245,-22.312,-20.755
51086470,-0.523,0.283,0.703,-74.97,-19.687,-16.537
51086480,-0.552,0.239,0.672,-84.63,-20.895,-12.337
51086490,-0.577,0.194,0.657,-88.41,-23.327,-8.452
51086500,-0.599,0.164,0.658,-88.34,-26.495,-4.235
51086510,-0.628,0.141,0.66,-88.252,-29.977,-1.505
51086520,-0.649,0.113,0.667,-88.812,-31.062,-1.925
51086530,-0.668,0.06,0.658,-91.052,-30.432,-4.707
51086540,-0.656,0.01,0.634,-91.42,-26.39,-9.222
51086550,-0.648,-0.025,0.618,-86.467,-19.565,-12.215
51086560,-0.672,-0.041,0.617,-78.837,-11.427,-14.262
51086570,-0.69,-0.033,0.634,-69.422,-4.445,-16.117
51086580,-0.705,-0.027,0.65,-60.83,0.157,-15.837
51086590,-0.699,-0.009,0.692,-53.83,2.52,-13.842
51086600,-0.706,0.013,0.723,-52.22,3.465,-10.097
51086610,-0.715,0.033,0.758,-54.355,1.977,-7.262
51086620,-0.729,0.066,0.777,-65.362,-0.91,-3.815
51086630,-0.737,0.035,0.741,-79.082,-6.545,-1.942
51086640,-0.695,0.027,0.742,-87.867,-11.427,-2.415
51086650,-0.68,0.005,0.699,-98.35,-16.222,4.515
51086660,-0.641,-0.034,0.685,-102.882,-17.885,11.602
51086670,-0.607,-0.044,0.653,-105.98,-15.085,18.41
51086680,-0.607,-0.091,0.63,-105.262,-8.68,28.472
51086690,-0.621,-0.145,0.605,-98.315,-2.292,40.442
51086700,-0.606,-0.145,0.644,-85.347,3.815,48.527
51086710,-0.643,-0.104,0.685,-78.347,8.645,53.112
51086720,-0.739,-0.07,0.729,-79.362,10.237,52.727
51086730,-0.784,-0.07,0.765,-83.86,3.552,44.852
51086740,-0.778,-0.1,0.769,-88.62,-7.28,37.975
51086750,-0.775,-0.129,0.731,-93.905,-21.105,32.935
51086760,-0.739,-0.145,0.71,-93.905,-34.72,26.11
51086760,-0.689,-0.173,0.703,-89.075,-46.497,19.32
51086780,-0.642,-0.18,0.706,-82.425,-56.49,14.245
51086780,-0.582,-0.216,0.702,-72.94,-62.072,13.72
51086800,-0.529,-0.218,0.772,-57.82,-60.165,12.652
51086800,-0.522,-0.17,0.828,-55.072,-54.827,9.537
51086820,-0.569,-0.201,0.826,-57.767,-51.152,3.307
51086820,-0.563,-0.23,0.843,-58.992,-50.592,-5.39
51086830,-0.59,-0.268,0.835,-58.065,-56.962,-12.74
51086840,-0.589,-0.314,0.833,-52.78,-67.987,-15.89
51086850,-0.56,-0.352,0.849,-43.155,-81.13,-17.657
51086860,-0.419,-0.353,0.842,-26.775,-86.31,-19.057
51086870,-0.49,-0.309,0.877,-11.13,-83.702,-17.885
51086880,-0.562,-0.245,0.9,-8.575,-96.53,-26.582
51086890,-0.278,-0.36,0.89,-8.085,-107.24,-36.61
51086900,0.108,-0.458,0.855,6.282,-84.682,-33.302
51086910,0.091,-0.416,0.921,31.78,-38.185,-15.26
51086920,-0.167,-0.268,1.005,51.397,6.282,5.477
51086930,-0.434,-0.294,1.051,44.87,24.342,21.752
51086940,-0.505,-0.326,0.993,31.85,21.77,21.332
51086950,-0.432,-0.329,0.978,32.025,14.63,16.467
51086960,-0.428,-0.313,0.965,34.86,11.515,13.842
51086970,-0.442,-0.307,0.975,34.405,10.29,3.237
51086980,-0.375,-0.262,0.954,28.332,11.06,-11.585
51086990,-0.384,-0.314,0.901,24.465,14.385,-18.13
51087000,-0.412,-0.327,0.929,30.187,17.272,-18.55
51087010,-0.372,-0.307,0.879,35.542,15.802,-11.812
51087020,-0.373,-0.269,0.826,37.205,17.902,0.017
51087030,-0.383,-0.242,0.821,45.99,23.187,10.71
51087040,-0.387,-0.2,0.847,47.6,28.612,17.08
51087050,-0.379,-0.221,0.83,38.745,35.437,18.585
51087060,-0.408,-0.293,0.801,34.16,46.935,20.667
51087070,-0.4,-0.325,0.793,38.5,60.217,24.115
51087080,-0.376,-0.29,0.797,44.415,77.84,28.927
51087080,-0.435,-0.249,0.81,46.287,100.205,32.13
51087100,-0.553,-0.238,0.808,44.24,119.052,32.795
51087100,-0.684,-0.259,0.785,42.56,126.332,34.037
51087120,-0.781,-0.262,0.772,46.585,121.59,35.402
51087120,-0.831,-0.235,0.783,54.757,107.397,35.717
51087140,-0.829,-0.197,0.795,60.935,89.075,32.97
51087140,-0.81,-0.158,0.791,63.805,71.12,26.337
51087160,-0.764,-0.104,0.792,64.015,55.51,15.995
51087160,-0.738,-0.057,0.783,59.78,42.017,5.285
51087170,-0.738,-0.034,0.788,51.695,29.137,-5.495
51087180,-0.717,-0.008,0.778,41.667,16.747,-17.272
51087190,-0.705,0.026,0.772,32.462,5.827,-29.4
51087200,-0.713,0.05,0.764,22.26,-3.255,-42.98
51087210,-0.704,0.062,0.738,11.812,-13.93,-59.797
51087220,-0.684,0.104,0.714,-0.84,-26.18,-75.547
51087230,-0.718,0.02,0.671,-11.025,-42.63,-83.562
51087240,-0.675,0.009,0.659,-15.767,-60.252,-88.882
51087250,-0.618,-0.042,0.651,-14.577,-77.28,-88.007
51087260,-0.514,-0.042,0.64,-10.062,-85.627,-78.032
51087270,-0.454,-0.091,0.731,1.837,-81.147,-54.74
51087280,-0.419,-0.072,0.726,0.962,-63.945,-33.092
51087290,-0.396,-0.091,0.742,5.11,-38.167,-29.4
51087300,-0.456,-0.135,0.787,12.267,-6.177,-18.882
51087310,-0.55,-0.152,0.808,17.657,21.63,-4.497
51087320,-0.655,-0.165,0.8,24.482,41.177,4.515
51087330,-0.748,-0.169,0.799,33.197,52.867,7.14
51087340,-0.831,-0.167,0.794,42.035,55.597,8.4
51087350,-0.876,-0.129,0.807,49.385,48.44,7.367
51087360,-0.881,-0.077,0.8,52.342,34.615,5.162
51087370,-0.857,-0.033,0.792,51.52,18.427,1.207
51087380,-0.823,0.012,0.781,46.375,3.465,-4.672
51087390,-0.802,0.039,0.767,37.59,-10.815,-10.955
51087400,-0.778,0.045,0.749,28.857,-24.587,-18.357
51087410,-0.738,0.059,0.741,21.017,-37.117,-27.177
51087420,-0.739,0.06,0.767,14.315,-49.42,-33.845
51087430,-0.731,0.068,0.732,5.372,-63.227,-42.297
51087440,-0.688,0.099,0.765,1.557,-76.142,-53.182
51087450,-0.631,0.127,0.771,-11.445,-86.66,-61.6
51087460,-0.555,0.135,0.757,-25.13,-93.345,-71.137
51087470,-0.496,0.114,0.732,-34.457,-97.195,-79.642
51087480,-0.432,0.085,0.689,-40.845,-98.28,-82.985
51087490,-0.363,0.045,0.664,-38.045,-97.632,-85.4
51087500,-0.336,0.033,0.683,-34.982,-93.992,-78.89
51087510,-0.315,-0.018,0.654,-36.995,-87.202,-63.98
51087510,-0.285,-0.042,0.682,-30.17,-75.337,-51.8
51087520,-0.297,-0.057,0.732,-26.827,-59.325,-41.405
51087530,-0.316,-0.07,0.785,-25.9,-40.11,-32.83
51087540,-0.372,-0.107,0.836,-26.162,-20.545,-24.78
51087550,-0.442,-0.132,0.869,-28.105,-5.075,-17.342
51087560,-0.504,-0.152,0.878,-31.745,4.725,-9.59
51087570,-0.558,-0.183,0.88,-34.527,11.235,-2.187
51087580,-0.58,-0.199,0.876,-37.747,15.557,-1.155
51087590,-0.608,-0.245,0.845,-34.947,17.29,-0.857
51087600,-0.583,-0.265,0.846,-26.11,19.985,0.472
51087610,-0.628,-0.256,0.861,-17.325,21.14,3.29
51087620,-0.671,-0.239,0.884,-13.09,19.827,6.825
51087630,-0.673,-0.237,0.897,-15.277,14.717,7.577
51087640,-0.673,-0.284,0.885,-17.552,8.137,4.882
51087650,-0.649,-0.343,0.891,-15.015,1.89,-0.927
51087660,-0.643,-0.378,0.927,-8.592,-4.637,-6.65
51087670,-0.643,-0.393,0.998,-2.397,-14.595,-10.832
51087680,-0.635,-0.433,1.079,2.887,-29.33,-12.582
51087690,-0.598,-0.466,1.132,6.44,-46.987,-9.905
51087700,-0.478,-0.501,1.149,9.52,-60.9,-5.565
51087710,-0.327,-0.514,1.13,18.795,-65.992,-0.77
51087720,-0.213,-0.533,1.106,32.252,-57.96,6.072
51087730,-0.111,-0.502,1.053,43.137,-36.435,12.005
51087740,-0.084,-0.488,1.003,53.392,-7.507,20.23
51087750,-0.134,-0.507,0.912,67.445,19.32,27.65
51087760,-0.132,-0.409,0.805,87.552,44.152,27.475
51087770,-0.139,-0.222,0.744,104.597,67.532,34.807
51087780,-0.165,-0.019,0.654,108.517,88.147,41.737
51087790,-0.194,0.094,0.525,103.512,105.682,43.102
51087800,-0.245,0.169,0.453,94.937,119.455,42.332
51087810,-0.325,0.236,0.409,79.45,126.017,38.762
51087820,-0.427,0.236,0.41,60.252,122.5,40.39
51087830,-0.543,0.215,0.453,37.1,111.125,38.605
51087830,-0.744,0.163,0.53,15.977,89.127,26.652
51087850,-0.935,0.078,0.621,0.595,52.535,3.43
51087850,-1.017,0.055,0.696,-11.27,3.552,-18.97
51087870,-0.998,0.032,0.756,-18.672,-53.252,-41.947
51087870,-0.92,0.014,0.782,-21.402,-107.625,-59.552
51087890,-0.713,0.012,0.801,-24.412,-151.042,-69.055
51087890,-0.498,0.009,0.801,-24.885,-174.247,-69.405
51087910,-0.337,-0.039,0.797,-23.135,-173.407,-65.397
51087910,-0.232,-0.058,0.824,-17.675,-150.745,-57.767
51087920,-0.169,-0.095,0.868,-11.69,-112.455,-47.635
51087930,-0.134,-0.033,0.923,-6.65,-63.647,-37.572
51087940,-0.225,-0.065,0.956,-1.382,-13.037,-23.52
51087950,-0.359,-0.048,0.964,3.447,28.56,-3.482
51087960,-0.548,-0.055,0.969,12.635,53.06,19.932
51087970,-0.664,-0.013,0.983,19.722,61.722,33.705
51087980,-0.726,0.044,0.988,18.48,60.27,37.905
51087990,-0.764,0.054,1.008,13.475,52.605,34.527
51088000,-0.789,0.073,1.009,6.387,41.86,27.65
51088010,-0.775,0.064,1.012,-1.435,30.257,20.352
51088020,-0.722,0.046,0.982,-8.89,20.58,15.4
51088030,-0.621,0.048,0.963,-12.302,16.03,15.242
51088040,-0.487,0.049,0.943,-18.007,22.645,18.97
51088050,-0.418,0.05,0.927,-26.827,39.41,26.372
51088060,-0.424,0.03,0.907,-40.127,61.705,32.847
51088070,-0.468,-0.005,0.909,-54.862,82.057,36.295
51088080,-0.548,-0.043,0.88,-75.32,95.567,39.41
51088090,-0.614,-0.124,0.825,-93.852,101.5,44.135
51088100,-0.636,-0.197,0.754,-104.702,102.987,50.242
51088110,-0.695,-0.28,0.692,-108.657,101.815,59.36
51088120,-0.781,-0.333,0.685,-106.225,95.847,66.412
51088130,-0.812,-0.378,0.705,-98.42,82.635,68.81
51088140,-0.805,-0.415,0.728,-90.86,67.672,70.525
51088150,-0.775,-0.421,0.762,-86.555,52.167,69.755
51088160,-0.765,-0.423,0.757,-87.08,38.675,67.077
51088170,-0.767,-0.442,0.738,-89.53,26.81,61.197
51088180,-0.744,-0.452,0.706,-90.317,15.855,49
51088190,-0.721,-0.436,0.687,-87.937,6.615,40.11
51088200,-0.646,-0.391,0.638,-84.507,0.052,23.1
51088210,-0.589,-0.362,0.646,-72.327,-2.135,5.267
51088210,-0.542,-0.3,0.624,-69.23,-1.68,-7.77
51088230,-0.494,-0.246,0.616,-67.27,-0.56,-19.442
51088230,-0.491,-0.212,0.617,-64.697,0.07,-32.147
51088250,-0.502,-0.184,0.623,-59.92,-2.485,-42.525
51088250,-0.485,-0.133,0.618,-58.152,-8.102,-47.425
51088260,-0.482,-0.131,0.593,-56.927,-13.982,-47.022
51088270,-0.517,-0.157,0.59,-50.68,-19.67,-45.727
51088280,-0.575,-0.168,0.595,-40.092,-28.157,-44.87
51088290,-0.598,-0.181,0.616,-26.127,-39.585,-45.902
51088300,-0.579,-0.17,0.644,-12.04,-50.557,-49.577
51088310,-0.506,-0.191,0.696,-0.28,-56.07,-48.072
51088320,-0.468,-0.209,0.768,13.755,-54.512,-44.38
51088330,-0.402,-0.233,0.819,23.345,-45.15,-40.32
51088340,-0.434,-0.239,0.822,32.217,-27.877,-25.602
51088350,-0.499,-0.215,0.859,46.97,-8.085,-9.415
51088360,-0.572,-0.17,0.869,52.167,3.797,0.7
51088370,-0.64,-0.19,0.811,50.68,8.487,9.922
51088380,-0.685,-0.224,0.762,56.997,8.557,18.13
51088390,-0.723,-0.221,0.729,66.762,4.795,23.222
51088400,-0.742,-0.184,0.722,77.017,-1.102,22.26
51088410,-0.729,-0.147,0.737,84.84,-10.045,17.867
51088420,-0.643,-0.124,0.732,88.497,-17.045,15.26
51088430,-0.582,-0.107,0.74,88.76,-16.975,15.645
51088440,-0.58,-0.085,0.77,85.295,-9.905,16.87
51088450,-0.593,-0.054,0.801,77.927,-2.765,17.412
51088460,-0.602,-0.03,0.812,65.957,3.99,16.765
51088470,-0.648,-0.031,0.815,52.027,9.817,15.68
51088480,-0.721,-0.049,0.805,38.64,10.92,13.265
51088490,-0.752,-0.082,0.786,28.665,5.897,10.29
51088500,-0.768,-0.099,0.788,24.167,-2.975,6.825
51088510,-0.762,-0.087,0.794,21.77,-14.717,3.832
51088520,-0.74,-0.088,0.825,19.617,-25.392,1.207
51088530,-0.672,-0.114,0.915,16.24,-33.897,-1.767
51088540,-0.503,-0.192,0.876,13.09,-28.105,-2.45
51088550,-0.494,-0.212,0.907,18.06,-10.71,0.595
51088560,-0.603,-0.16,0.924,20.125,3.85,2.117
51088570,-0.691,-0.123,0.916,14.332,5.337,0.122
51088580,-0.676,-0.123,0.892,7.49,-2.59,-4.06
51088580,-0.588,-0.119,0.854,3.01,-10.832,-7.735
51088600,-0.537,-0.115,0.835,1.785,-13.265,-9.152
51088600,-0.527,-0.096,0.846,2.52,-12.232,-9.625
51088620,-0.536,-0.077,0.879,2.922,-10.447,-11.48
51088620,-0.54,-0.065,0.912,2.677,-8.225,-14.682
51088640,-0.586,-0.048,0.959,1.872,-5.81,-17.535
51088640,-0.648,-0.007,1.042,-1.067,-4.97,-20.807
51088660,-0.744,0.023,1.105,-5.18,-7.735,-25.13
51088660,-0.908,0.035,1.164,-10.727,-19.88,-31.885
51088670,-0.888,0.039,1.17,-15.977,-44.572,-44.712
51088680,-0.707,0.001,1.138,-20.562,-63.262,-54.582
51088690,-0.527,-0.031,1.071,-25.34,-67.9,-56.875
51088700,-0.31,-0.05,0.993,-25.672,-49.227,-48.615
51088710,-0.234,-0.015,0.952,-25.182,-11.095,-37.66
51088720,-0.188,0.027,0.911,-27.737,42.84,-31.71
51088730,-0.203,0.077,0.87,-42,103.232,-23.467
51088740,-0.366,0.059,0.75,-62.177,155.347,-9.782
51088750,-0.63,0.048,0.593,-80.395,196.35,0.402
51088760,-0.937,0.054,0.492,-92.277,212.152,4.882
51088770,-1.23,0.044,0.411,-92.837,192.325,1.26
51088780,-1.365,-0.041,0.39,-77.402,149.327,7.7
51088790,-1.325,-0.085,0.36,-53.55,94.535,30.975
51088800,-1.159,-0.058,0.372,-25.077,48.177,56.7
51088810,-1.081,-0.013,0.414,-3.027,16.205,80.132
51088820,-1.003,0.037,0.482,7.14,-4.952,86.59
51088830,-0.899,0.065,0.534,3.937,-18.147,79.572
51088840,-0.849,-0.036,0.509,-1.697,-27.335,72.747
51088850,-0.749,-0.103,0.502,5.81,-33.862,61.337
51088860,-0.67,-0.1,0.583,18.987,-38.622,48.58
51088870,-0.512,-0.034,0.748,22.015,-42.927,34.247
51088880,-0.169,-0.005,0.889,8.277,-43.995,26.495
51088890,0.28,-0.084,0.846,-12.722,-34.632,33.862
51088900,0.658,-0.207,0.785,-29.347,-7.052,53.935
51088910,0.828,-0.275,0.885,-42.017,37.782,75.232
51088920,0.557,-0.353,0.862,-60.112,92.645,90.055
51088920,0.21,-0.391,0.805,-61.862,140.997,73.64
51088940,-0.107,-0.44,0.622,-49.805,171.622,50.33
51088940,-0.347,-0.521,0.492,-20.44,183.26,28.28
51088960,-0.659,-0.553,0.377,15.837,172.707,10.325
51088960,-0.992,-0.563,0.243,56.21,140.507,-1.522
51088980,-1.17,-0.524,0.185,103.425,92.19,-7.42
51088980,-1.148,-0.467,0.227,151.095,37.992,-2.555
51089000,-1.085,-0.312,0.448,173.442,-6.702,21.875
51089000,-1.147,-0.149,0.463,140.595,-40.74,24.447
51089010,-1.131,-0.049,0.51,101.552,-53.48,-4.655
51089020,-1.12,-0.098,0.461,55.055,-51.485,-26.267
51089030,-1.11,-0.159,0.43,23.502,-44.782,-39.83
51089040,-1.139,-0.165,0.405,9.275,-38.535,-41.65
51089050,-1.155,-0.137,0.424,4.585,-35.472,-37.135
51089060,-1.168,-0.106,0.461,-0.157,-38.01,-29.085
51089070,-1.171,-0.111,0.507,-4.287,-44.502,-22.715
51089080,-1.18,-0.158,0.558,-4.287,-52.062,-16.52
51089090,-1.188,-0.161,0.623,-3.132,-61.145,-14.892
51089100,-1.205,-0.162,0.681,-1.417,-73.15,-17.937
51089110,-1.183,-0.157,0.712,0.682,-87.937,-22.242
51089120,-1.102,-0.117,0.734,-0.07,-102.637,-28.805
51089130,-0.996,-0.089,0.726,-3.342,-114.922,-33.477
51089140,-0.85,-0.064,0.723,-2.415,-120.872,-31.692
51089150,-0.692,0.014,0.745,-4.567,-116.06,-27.16
51089160,-0.607,0.052,0.713,-14.21,-101.01,-20.142
51089170,-0.561,0.034,0.688,-15.155,-80.132,-13.527
51089180,-0.571,0.03,0.691,-9.502,-57.907,-4.637
51089190,-0.613,0.052,0.701,-6.492,-37.467,7.035
51089200,-0.682,0.064,0.733,-5.285,-21.017,16.257
51089210,-0.812,0.026,0.727,-3.797,-14.752,26.775
51089220,-0.896,0.011,0.73,0.735,-19.162,37.17
51089230,-0.943,0.002,0.749,5.005,-30.17,42.735
51089240,-0.928,0.016,0.737,7.665,-40.687,40.565
51089250,-0.921,0.018,0.779,12.092,-49.787,37.03
51089260,-0.898,0.018,0.752,9.87,-58.275,34.737
51089270,-0.83,0.046,0.757,5.687,-66.832,31.15
51089280,-0.764,0.04,0.76,-1.557,-74.357,32.217
51089290,-0.7,0.065,0.778,-13.475,-77.962,35.087
51089300,-0.663,-0.005,0.764,-24.78,-78.662,33.18
51089310,-0.588,0.012,0.817,-35.507,-73.482,29.557
51089320,-0.569,-0.019,0.756,-55.125,-64.4,27.982
51089330,-0.522,-0.062,0.809,-56.315,-51.292,15.767
51089330,-0.531,-0.028,0.844,-66.43,-35.7,9.975
51089350,-0.549,-0.034,0.848,-81.007,-22.557,1.68
51089350,-0.576,-0.038,0.811,-90.597,-10.622,-12.635
51089370,-0.644,0.005,0.862,-99.907,-0.262,-26.635
51089370,-0.763,0.002,0.848,-125.09,5.617,-40.355
51089390,-0.863,-0.053,0.834,-148.4,4.025,-60.462
51089390,-0.867,-0.093,0.783,-166.022,-5.302,-83.527
51089410,-0.885,-0.186,0.723,-171.64,-30.327,-94.675
51089410,-0.828,-0.318,0.65,-159.425,-69.247,-87.85
51089420,-0.769,-0.405,0.574,-122.902,-111.02,-56.612
51089430,-0.637,-0.343,0.613,-77.455,-141.435,-16.31
51089440,-0.435,-0.188,0.706,-51.415,-147.612,13.65
51089450,-0.258,-0.112,0.731,-53.602,-124.617,26.11
51089460,-0.175,-0.151,0.708,-67.812,-84.455,27.212
51089470,-0.179,-0.21,0.66,-78.802,-44.327,28.91
51089480,-0.251,-0.274,0.642,-80.92,-14.28,34.072
51089490,-0.313,-0.306,0.622,-78.05,2.642,34.842
51089500,-0.423,-0.365,0.612,-72.607,5.95,32.235
51089510,-0.505,-0.432,0.628,-63.997,-4.41,25.34
51089520,-0.541,-0.48,0.666,-56.682,-24.342,15.295
51089530,-0.506,-0.507,0.689,-56.367,-48.982,-0.787
51089540,-0.442,-0.53,0.704,-59.797,-74.042,-18.322
51089550,-0.361,-0.558,0.718,-64.715,-96.74,-29.085
51089560,-0.263,-0.601,0.684,-69.282,-113.68,-31.955
51089570,-0.234,-0.673,0.664,-66.885,-128.117,-27.597
51089580,-0.222,-0.744,0.643,-57.662,-141.995,-21.682
51089590,-0.091,-0.753,0.653,-41.51,-153.807,-17.762
51089600,-0.024,-0.744,0.675,-22.925,-159.862,-7.332
51089610,0.069,-0.757,0.706,-5.792,-157.762,0.28
51089620,0.283,-0.776,0.751,11.095,-138.582,4.217
51089630,0.325,-0.809,0.859,36.242,-96.95,21.665
51089640,0.28,-0.929,1,59.92,-50.942,54.74
51089650,0.003,-1.07,1.018,89.775,-2.327,85.75
51089660,-0.37,-0.914,1.06,123.41,17.517,112.227
51089670,-0.53,-0.647,1.107,146.037,15.137,121.625
51089670,-0.623,-0.542,1.107,146.72,-1.995,113.592
51089690,-0.543,-0.547,1.021,134.19,-22.75,91.577
51089690,-0.46,-0.488,1.001,127.4,-41.317,69.79
51089710,-0.519,-0.406,0.919,110.32,-64.732,66.867
51089710,-0.419,-0.351,0.872,100.992,-90.51,57.75
51089730,-0.211,-0.345,0.807,91,-101.552,47.32
51089730,0,-0.317,0.77,79.782,-83.125,34.877
51089750,-0.025,-0.186,0.772,62.317,-52.622,14.157
51089750,0.044,-0.333,0.801,37.975,-18.865,1.96
51089760,-0.154,-0.511,0.807,31.132,14.56,10.517
51089770,-0.356,-0.437,0.92,44.327,32.06,20.72
51089780,-0.435,-0.406,0.978,50.277,36.102,21.717
51089790,-0.408,-0.345,1.103,48.475,38.727,14.087
51089800,-0.556,-0.478,1.048,35.07,36.557,28.595
51089810,-0.544,-0.597,0.987,36.96,30.117,26.635
51089820,-0.422,-0.596,0.975,49.91,31.447,25.322
51089830,-0.308,-0.588,0.927,60.042,47.127,32.97
51089840,-0.298,-0.591,0.896,70.297,75.95,34.492
51089850,-0.38,-0.558,0.908,82.057,107.345,32.672
51089860,-0.387,-0.462,0.942,91.49,135.572,35.595
51089870,-0.486,-0.337,0.995,96.022,162.33,42.665
51089880,-0.601,-0.229,0.992,85.312,175.787,42.612
51089890,-0.536,-0.214,0.916,64.172,177.012,42.262
51089900,-0.348,-0.189,0.835,44.957,183.995,38.605
51089910,-0.168,-0.139,0.772,28.56,208.53,37.537
51089920,-0.018,-0.086,0.699,11.497,257.617,42.875
51089930,-0.102,-0.033,0.593,-9.45,318.045,51.327
51089940,-0.366,-0.03,0.506,-33.39,371.332,59.325
51089950,-0.718,-0.055,0.438,-52.167,394.747,60.007
51089960,-1.069,-0.065,0.412,-64.645,375.655,57.05
51089970,-1.228,0.009,0.446,-65.537,317.205,59.832
51089980,-1.5,-0.141,0.522,-44.94,234.36,86.782
51089990,-1.324,0.067,0.633,-41.002,149.712,67.655
51090000,-0.935,0.208,0.62,-48.86,92.137,13.125
51090010,-0.826,-0.005,0.601,-44.8,62.3,-9.52
51090020,-0.54,0.198,0.611,-55.51,54.81,-38.675
51090030,-0.633,0.093,0.521,-60.13,58.082,-29.207
51090040,-0.601,0.089,0.439,-57.855,61.915,-25.112
51090050,-0.598,0.125,0.411,-58.275,67.06,-28.21
51090060,-0.683,0.104,0.323,-62.335,70.997,-28.577
51090070,-0.8,0.056,0.309,-56.367,68.425,-21.647
51090080,-0.936,0.041,0.304,-38.815,56.665,-12.25
51090080,-0.968,0.137,0.381,-23.695,40.127,-16.362
51090100,-0.996,0.18,0.459,-17.185,23.852,-16.835
51090100,-1.037,0.159,0.485,-16.992,9.275,-19.88
51090120,-1.064,0.156,0.556,-17.255,-4.497,-29.487
51090120,-1.098,0.156,0.528,-27.877,-22.19,-34.86
51090140,-1.021,0.126,0.507,-34.912,-43.067,-43.697
51090140,-0.853,0.114,0.474,-38.692,-59.185,-46.147
51090160,-0.69,0.043,0.414,-37.082,-62.895,-41.002
51090160,-0.621,0.036,0.443,-23.992,-54.302,-33.285
51090170,-0.691,0.023,0.496,-10.412,-44.1,-21.542
51090180,-0.584,0.029,0.516,1.067,-36.417,-10.115
51090190,-0.685,0.007,0.607,2.012,-22.365,3.5
51090200,-0.779,0.016,0.446,10.15,-17.92,7.7
51090210,-0.864,-0.04,0.708,20.597,-17.867,18.2
51090220,-0.9,-0.054,0.671,25.445,-28.21,22.067
51090230,-1.052,-0.036,0.605,23.677,-46.69,23.625
51090240,-0.672,0.178,0.708,21.472,-50.522,-1.645
51090250,-0.854,-0.042,0.656,1.977,-49.577,-2.59
51090260,-0.658,-0.178,0.588,2.502,-54.11,0.945
51090270,-0.495,-0.011,0.597,11.13,-32.935,1.592
51090280,-0.724,0.021,0.681,9.45,-3.675,-3.36
51090290,-0.797,-0.077,0.609,-8.015,6.667,-10.797
51090300,-0.777,-0.137,0.594,-6.352,10.29,-10.692
51090310,-0.854,-0.092,0.599,0.455,7.91,-7.77
51090320,-0.843,-0.067,0.59,0.367,3.01,-4.62
51090330,-0.807,-0.111,0.558,-0.84,1.277,-4.252
51090340,-0.835,-0.221,0.514,6.212,3.447,0.455
51090350,-0.898,-0.211,0.555,28.822,-3.185,12.967
51090360,-0.864,-0.062,0.621,32.06,-8.627,1.172
51090370,-0.859,-0.062,0.644,24.167,-12.705,-2.38
51090380,-0.823,-0.093,0.692,21.35,-15.96,-6.317
51090390,-0.792,-0.043,0.69,17.08,-15.207,-3.08
51090400,-0.794,-0.028,0.7,5.285,-8.872,-0.227
51090410,-0.972,-0.054,0.664,-2.047,-12.11,-0.735
51090420,-0.921,-0.074,0.616,-2.555,-23.362,-4.637
51090420,-0.74,-0.092,0.587,1.032,-28.017,-11.532
51090440,-0.696,-0.144,0.568,8.452,-23.572,-11.48
51090440,-0.754,-0.122,0.614,15.505,-19.162,-7.647
51090460,-0.78,-0.085,0.65,21.105,-17.832,-5.267
51090460,-0.801,-0.123,0.66,20.107,-19.722,-2.222
51090480,-0.784,-0.119,0.644,17.412,-22.067,0.927
51090480,-0.797,-0.084,0.643,15.505,-21.437,5.162
51090500,-0.826,-0.081,0.604,10.902,-19.215,1.155
51090500,-0.846,-0.11,0.588,11.462,-16.31,-5.11
51090510,-0.813,-0.104,0.557,11.235,-13.982,-4.585
51090520,-0.907,-0.088,0.604,14.7,-14.192,-0.157
51090530,-0.967,-0.068,0.602,12.862,-21.857,2.712
51090540,-0.974,-0.077,0.606,9.1,-31.377,-3.85
51090550,-0.99,-0.088,0.586,4.9,-42.77,-12.932
51090560,-1.006,-0.098,0.566,3.132,-56.175,-23.87
51090570,-0.955,-0.086,0.591,2.485,-69.79,-35.577
51090580,-0.856,-0.119,0.594,4.935,-80.01,-43.137
51090590,-0.735,-0.101,0.631,8.54,-83.37,-42.595
51090600,-0.627,-0.079,0.644,6.037,-78.435,-37.292
51090610,-0.563,-0.089,0.643,3.867,-65.905,-28.945
51090620,-0.53,-0.129,0.646,0.157,-46.62,-17.237
51090630,-0.535,-0.195,0.655,1.68,-17.815,-4.725
51090640,-0.742,-0.188,0.719,11.97,5.495,4.462
51090650,-0.876,-0.107,0.754,12.582,9.957,3.5
51090660,-1.09,-0.145,0.735,2.695,-4.025,-4.917
51090670,-0.903,-0.231,0.692,1.47,-32.462,-21.437
51090680,-0.69,-0.203,0.698,19.022,-43.19,-24.692
51090690,-0.765,-0.136,0.707,31.605,-46.48,-13.212
51090700,-0.799,-0.081,0.731,33.6,-49.91,-9.152
51090710,-0.723,-0.066,0.755,27.912,-55.44,-12.67
51090720,-0.572,-0.102,0.714,17.762,-54.985,-14.21
51090730,-0.48,-0.117,0.709,13.737,-39.182,-13.317
51090740,-0.661,-0.158,0.7,7.472,-22.592,-12.425
51090750,-0.668,-0.176,0.697,4.287,-18.83,-16.345
51090760,-0.566,-0.142,0.715,5.127,-17.395,-16.38
51090770,-0.6,-0.15,0.713,2.38,-11.707,-12.967
51090780,-0.666,-0.203,0.697,-0.21,-6.982,-13.212
51090790,-0.652,-0.22,0.686,1.82,-5.547,-18.27
51090800,-0.642,-0.204,0.697,10.22,-2.992,-18.445
51090810,-0.691,-0.171,0.737,12.582,-1.732,-16.537
51090820,-0.817,-0.225,0.81,12.285,-10.657,-15.82
51090830,-0.626,-0.199,0.793,17.307,-25.637,-16.642
51090830,-0.527,-0.13,0.759,20.177,-27.265,-9.572
51090850,-0.591,-0.14,0.722,16.03,-20.09,-5.88
51090850,-0.512,-0.151,0.661,15.015,-12.88,-9.992
51090870,-0.569,-0.139,0.703,16.677,-3.727,-9.887
51090870,-0.724,-0.188,0.764,14.77,-4.41,-9.047
51090890,-0.594,-0.2,0.724,18.375,-13.107,-10.115
51090890,-0.595,-0.138,0.738,24.5,-8.785,-4.637
51090900,-0.726,-0.149,0.761,20.37,-3.71,-4.287
51090910,-0.742,-0.23,0.72,18.217,-6.177,-11.165
51090920,-0.514,-0.126,0.643,24.167,-7.14,-11.637
51090930,-0.79,-0.099,0.7,24.272,-0.07,-3.325
51090940,-0.766,-0.112,0.673,17.832,-5.6,-7.787
51090950,-0.669,-0.094,0.676,19.092,-11.077,-7.437
51090960,-0.643,-0.022,0.688,18.41,-8.89,-1.592
51090970,-0.676,0.006,0.707,15.505,-5.197,4.9
51090980,-0.708,0.009,0.743,11.147,-4.847,8.907
51090990,-0.704,0.005,0.789,7.192,-7.892,11.585
51091000,-0.701,0.007,0.813,4.9,-8.715,13.387
51091010,-0.745,-0.002,0.813,1.802,-10.535,14.28
51091020,-0.705,-0.024,0.82,-0.42,-13.825,12.32
51091030,-0.665,-0.016,0.859,0.157,-14.805,9.642
51091040,-0.682,-0.012,0.842,-4.025,-12.967,7.875
51091050,-0.656,-0.046,0.815,-10.342,-9.747,1.715
51091060,-0.64,-0.063,0.786,-14.595,-6.44,-2.922
51091070,-0.613,-0.033,0.74,-17.5,-2.852,-3.36
51091080,-0.654,-0.053,0.742,-22.785,3.57,-1.75
51091090,-0.484,-0.034,0.622,-29.015,19.81,-1.4
51091100,-0.548,-0.038,0.531,-39.847,54.005,1.925
51091110,-0.938,-0.185,0.544,-56.647,76.352,-1.137
51091120,-1.466,-0.485,0.887,-56.752,47.022,-7.35
51091130,-1.061,-0.48,0.884,-28.14,-33.302,-11.287
51091140,-0.464,-0.127,0.815,12.53,-64.032,0.192
51091150,-0.593,-0.059,0.739,8.61,-54.407,0.052
51091160,-0.541,-0.119,0.625,-0.735,-39.007,-21.105
51091170,-0.486,-0.135,0.655,4.27,-26.197,-32.9
51091170,-0.604,-0.126,0.715,6.51,-16.205,-27.335
51091190,-0.714,-0.113,0.761,3.062,-14.437,-22.645
51091190,-0.726,-0.149,0.757,-2.94,-18.812,-23.922
51091210,-0.714,-0.181,0.758,-3.937,-22.942,-24.815
51091210,-0.703,-0.153,0.802,-0.525,-26.95,-26.53
51091230,-0.659,-0.1,0.777,0.735,-29.592,-27.405
51091230,-0.66,-0.099,0.725,-3.5,-31.552,-27.982
51091250,-0.592,-0.135,0.678,-6.265,-31.132,-28.77
51091250,-0.891,-0.002,0.383,-2.152,-40.67,-31.08
51091260,-0.085,0.19,0.86,-14.227,-70.28,-43.767
51091270,0.218,-0.515,0.945,-25.917,25.9,-36.225
51091280,-1.55,-0.446,0.965,-26.74,42.35,-23.695
51091290,-0.641,-0.193,0.707,-22.312,-13.545,-27.352
51091300,-0.093,-0.07,0.761,1.33,-22.872,-19.302
51091310,-0.45,-0.108,0.716,-12.022,-3.99,-2.432
51091320,-0.536,-0.096,0.75,-28.105,2.31,-14.42
51091330,-0.478,-0.186,0.777,-41.895,0.805,-25.672
51091340,-0.646,-0.375,0.819,-37.03,0.84,-12.18
51091350,-0.747,-0.322,0.824,-24.062,-8.645,-0.42
51091360,-0.742,-0.205,0.794,-19.757,-20.825,1.225
51091370,-0.707,-0.194,0.726,-24.36,-24.412,-4.917
51091380,-0.845,-0.282,0.743,-22.907,-25.287,-8.837
51091390,-0.916,-0.252,0.691,-17.85,-35.717,-11.655
51091400,-0.88,-0.183,0.705,-14.42,-51.695,-12.6
51091410,-0.832,-0.22,0.745,-15.855,-60.795,-13.265
51091420,-0.726,-0.235,0.735,-16.275,-64.732,-17.867
51091430,-0.619,-0.212,0.827,-12.267,-63.7,-21.542
51091440,-0.587,-0.212,0.863,-12.285,-61.197,-26.215
51091450,-0.537,-0.246,0.813,-13.86,-62.37,-28.787
51091460,-0.451,-0.243,0.815,-11.27,-62.09,-28.857
51091470,-0.37,-0.23,0.818,-7.525,-54.845,-28.525
51091480,-0.337,-0.224,0.847,-6.282,-46.06,-27.037
51091490,-0.268,-0.24,0.917,-5.722,-31.325,-27.615
51091500,-0.226,-0.23,0.854,-8.032,-17.132,-28.63
51091510,-0.135,-0.208,0.799,-7.35,-3.447,-24.552
51091520,-0.05,-0.269,0.787,-5.74,14.63,-16.415
51091530,-0.045,-0.35,0.759,-1.802,35.735,-8.05
51091540,-0.1,-0.341,0.768,2.485,55.562,-2.187
51091550,-0.199,-0.362,0.8,0.245,69.737,0.595
51091560,-0.176,-0.357,0.784,-3.395,80.64,1.26
51091570,-0.214,-0.255,0.796,-2.17,94.692,4.392
51091580,-0.365,-0.184,0.794,-7.735,109.55,5.967
51091580,-0.561,-0.183,0.794,-17.587,119.122,3.85
51091590,-0.809,-0.204,0.785,-25.235,117.302,2.94
51091600,-1.041,-0.21,0.735,-29.155,103.477,3.167
51091610,-1.304,-0.265,0.692,-28.945,81.462,1.82
51091620,-1.44,-0.303,0.656,-24.902,51.03,-5.88
51091630,-1.476,-0.283,0.662,-25.217,14.07,-12.705
51091640,-1.385,-0.284,0.657,-25.9,-25.655,-10.062
51091650,-1.151,-0.327,0.682,-23.485,-60.182,-4.917
51091660,-0.791,-0.263,0.721,-21.07,-81.882,-7.227
51091670,-0.529,-0.221,0.801,-23.555,-85.96,-9.975
51091680,-0.409,-0.249,0.787,-30.135,-79.765,-12.81
51091690,-0.321,-0.309,0.784,-31.92,-70.385,-12.512
51091700,-0.303,-0.34,0.791,-31.745,-59.325,-10.92
51091710,-0.333,-0.325,0.8,-35.332,-46.585,-12.215
51091720,-0.348,-0.349,0.78,-40.722,-35.437,-13.212
51091730,-0.383,-0.374,0.755,-41.737,-26.25,-13.177
51091740,-0.384,-0.394,0.74,-37.625,-19.617,-10.062
51091750,-0.362,-0.425,0.718,-30.66,-13.545,-4.882
51091760,-0.316,-0.445,0.715,-22.732,-5.81,0.245
51091770,-0.221,-0.454,0.698,-16.345,4.812,5.932
51091780,-0.062,-0.445,0.684,-8.75,22.802,12.95
51091790,0.003,-0.407,0.727,-2.467,48.912,23.45
51091800,-0.069,-0.391,0.742,-2.24,78.977,32.357
51091810,-0.17,-0.332,0.76,-3.902,105.682,38.605
51091820,-0.477,-0.337,0.692,-5.6,110.372,48.002
51091830,-0.512,-0.354,0.725,0.822,100.117,55.422
51091840,-0.523,-0.464,0.77,10.955,98.717,65.292
51091850,-0.697,-0.697,0.562,23.03,100.572,89.88
51091860,-0.463,-0.551,0.484,45.902,113.015,110.757
51091870,-0.857,-0.47,0.547,60.375,146.877,121.222
51091880,-1.342,-0.375,0.493,61.565,140.035,108.482
51091890,-1.207,-0.217,0.439,69.247,105.892,73.027
51091900,-1.113,-0.275,0.592,64.89,67.865,53.445
51091910,-0.923,-0.498,0.381,60.462,44.87,46.462
51091920,-0.478,-0.45,0.465,105.735,55.335,43.54
51091920,-0.647,-0.361,0.508,160.405,75.092,89.932
51091940,-0.887,-0.178,0.614,186.497,96.687,123.69
51091940,-0.956,0.003,0.73,177.1,118.457,119.402
51091960,-0.996,0.069,0.724,139.09,136.85,104.895
51091960,-1.104,0.019,0.675,100.047,146.072,96.6
51091980,-1.209,-0.028,0.623,71.207,138.477,90.212
51091980,-1.22,-0.017,0.568,52.132,114.222,83.667
51092000,-1.174,-0.021,0.51,41.79,81.305,79.03
51092000,-1.094,-0.014,0.422,38.29,47.932,72.677
51092010,-1.028,-0.017,0.418,47.985,18.007,63.437
51092020,-0.933,0.043,0.422,54.442,-6.282,50.82
51092030,-0.826,0.095,0.396,57.715,-26.512,38.395
51092040,-0.74,0.127,0.383,62.282,-39.812,30.485
51092050,-0.644,0.173,0.399,68.285,-46.532,21.98
51092060,-0.598,0.215,0.435,71.435,-46.357,16.187
51092070,-0.599,0.281,0.476,67.06,-41.79,11.077
51092080,-0.657,0.286,0.516,57.627,-36.347,4.287
51092090,-0.698,0.296,0.541,47.25,-32.847,-4.655
51092100,-0.741,0.278,0.571,36.295,-32.025,-13.23
51092110,-0.769,0.282,0.601,22.977,-32.777,-19.127
51092120,-0.814,0.226,0.583,13.72,-36.155,-23.065
51092130,-0.823,0.185,0.601,13.142,-40.232,-30.082
51092140,-0.836,0.186,0.612,8.61,-43.89,-33.897
51092150,-0.834,0.152,0.624,5.442,-48.16,-37.59
51092160,-0.828,0.132,0.614,5.005,-49.525,-39.13
51092170,-0.847,0.106,0.606,5.775,-50.872,-37.152
51092180,-0.846,0.094,0.617,7,-50.47,-39.252
51092190,-0.845,0.092,0.614,6.405,-48.93,-42.105
51092200,-0.837,0.09,0.603,4.007,-46.55,-46.217
51092210,-0.842,0.062,0.582,3.64,-45.465,-47.32
51092220,-0.821,0.046,0.574,5.827,-45.027,-44.625
51092230,-0.789,0.053,0.557,6.177,-42.857,-38.202
51092240,-0.754,0.065,0.546,7.157,-37.222,-31.552
51092250,-0.774,0.05,0.576,8.4,-28.63,-20.055
51092260,-0.793,0.084,0.592,-1.82,-19.232,-12.932
51092260,-0.832,0.066,0.592,-12.425,-10.062,-12.95
51092280,-0.872,0.015,0.598,-20.177,-2.782,-10.115
51092280,-0.887,0,0.599,-27.807,0.98,-4.62
51092300,-0.886,-0.003,0.598,-32.042,2.695,0.385
51092300,-0.886,0.002,0.605,-38.027,4.69,3.185
51092320,-0.914,-0.01,0.599,-46.655,6.615,3.692
51092320,-0.923,-0.04,0.566,-54.075,6.16,1.627
51092330,-0.885,-0.075,0.527,-55.615,3.937,1.242
51092340,-0.857,-0.09,0.496,-52.167,2.24,6.282
51092350,-0.839,-0.097,0.468,-46.077,0.507,9.817
51092360,-0.84,-0.115,0.453,-34.772,-1.907,9.38
51092370,-0.846,-0.124,0.449,-20.825,-6.335,9.205
51092380,-0.847,-0.122,0.444,-5.95,-11.217,10.99
51092390,-0.833,-0.088,0.449,9.047,-14.875,12.512
51092400,-0.827,-0.047,0.474,22.435,-17.22,11.165
51092410,-0.833,-0.013,0.522,32.392,-19.687,8.435
51092420,-0.866,0.003,0.55,36.19,-24.272,6.895
51092430,-0.873,0.012,0.58,37.782,-31.815,3.57
51092440,-0.877,0.027,0.629,37.065,-40.722,-0.525
51092450,-0.883,0.033,0.659,33.425,-51.345,-3.762
51092460,-0.873,0.037,0.669,27.09,-62.58,-6.352
51092470,-0.831,0.032,0.666,20.737,-71.855,-10.937
51092480,-0.799,0.007,0.664,18.532,-77.262,-14.56
51092490,-0.768,0.012,0.682,18.55,-79.642,-17.482
51092500,-0.74,0.03,0.692,17.605,-79.94,-20.772
51092510,-0.69,0.064,0.692,15.837,-78.942,-24.675
51092520,-0.68,0.039,0.716,19.092,-75.88,-24.675
51092530,-0.666,0.067,0.748,21.07,-72.415,-24.535
51092540,-0.645,0.115,0.757,17.132,-68.46,-24.535
51092550,-0.627,0.108,0.765,13.265,-63.612,-26.18
51092560,-0.616,0.127,0.765,8.137,-56.945,-27.247
51092570,-0.639,0.108,0.757,4.97,-52.64,-26.46
51092580,-0.66,0.132,0.78,1.33,-49.577,-26.32
51092590,-0.688,0.147,0.778,-8.505,-49.752,-27.3
51092600,-0.707,0.128,0.767,-16.695,-51.607,-31.097
51092610,-0.715,0.103,0.761,-22.032,-55.422,-34.597
51092620,-0.71,0.082,0.753,-26.057,-60.655,-36.347
51092630,-0.704,0.083,0.772,-29.277,-66.745,-38.64
51092640,-0.678,0.073,0.782,-34.51,-71.977,-42.052
51092650,-0.641,0.051,0.79,-41.3,-75.967,-44.975
51092660,-0.613,0.015,0.792,-46.812,-78.942,-46.27
51092670,-0.571,-0.025,0.799,-49.297,-80.71,-46.882
51092670,-0.535,-0.053,0.803,-50.96,-80.255,-46.13
51092690,-0.518,-0.091,0.806,-50.925,-77.752,-44.677
51092690,-0.485,-0.114,0.81,-48.615,-73.027,-43.435
51092710,-0.452,-0.131,0.816,-45.762,-65.975,-41.037
51092710,-0.431,-0.143,0.817,-43.242,-56.385,-38.412
51092730,-0.424,-0.156,0.821,-41.492,-45.482,-35.525
51092730,-0.421,-0.163,0.812,-41.3,-34.877,-32.777
51092750,-0.421,-0.178,0.804,-41.072,-24.027,-28.997
51092750,-0.433,-0.198,0.795,-39.217,-13.405,-25.042
51092760,-0.434,-0.196,0.794,-37.012,-2.572,-22.61
51092770,-0.457,-0.197,0.795,-36.557,7.752,-20.02
51092780,-0.511,-0.209,0.792,-37.17,16.222,-17.64
51092790,-0.542,-0.212,0.791,-38.342,20.842,-18.865
51092800,-0.571,-0.222,0.791,-39.427,22.207,-20.807
51092810,-0.58,-0.223,0.801,-39.9,21.455,-23.012
51092820,-0.601,-0.223,0.802,-41.037,18.13,-25.427
51092830,-0.597,-0.238,0.79,-41.947,12.25,-27.93
51092840,-0.567,-0.256,0.767,-41.055,7.367,-30.135
51092850,-0.539,-0.264,0.748,-35.945,5.88,-32.742
51092860,-0.532,-0.244,0.755,-29.137,7.332,-35.42
51092870,-0.563,-0.236,0.748,-27.825,6.527,-36.102
51092880,-0.567,-0.247,0.74,-28.525,3.027,-35.245
51092890,-0.589,-0.25,0.75,-26.81,-4.042,-32.13
51092900,-0.625,-0.291,0.721,-23.922,-17.43,-27.195
51092910,-0.534,-0.326,0.721,-15.767,-28.822,-23.152
51092920,-0.384,-0.328,0.767,-7.035,-28.245,-15.54
51092930,-0.331,-0.343,0.768,-1.977,-13.09,-3.167
51092940,-0.424,-0.341,0.852,2.24,7.245,7.91
51092950,-0.521,-0.388,0.851,0.577,19.967,15.557
51092960,-0.538,-0.384,0.833,1.155,27.457,20.702
51092970,-0.552,-0.321,0.925,4.217,33.04,25.217
51092980,-0.625,-0.359,0.881,-3.797,36.435,31.447
51092990,-0.649,-0.378,0.824,-8.172,36.925,30.712
51093000,-0.615,-0.331,0.83,-4.165,36.837,26.617
51093010,-0.607,-0.309,0.832,-2.642,36.347,27.247
51093010,-0.624,-0.301,0.768,-11.305,37.905,30.765
51093030,-0.572,-0.285,0.764,-10.22,40.197,24.342
51093030,-0.61,-0.267,0.742,-12.057,42.787,23.537
51093050,-0.692,-0.293,0.703,-12.967,39.602,25.41
51093050,-0.699,-0.298,0.693,-6.667,29.575,23.835
51093070,-0.693,-0.303,0.693,4.55,19.67,25.55
51093070,-0.694,-0.277,0.707,13.737,11.322,26.722
51093080,-0.671,-0.221,0.728,19.425,5.705,23.415
51093090,-0.694,-0.207,0.727,18.165,-1.015,19.792
51093100,-0.704,-0.224,0.716,15.75,-10.027,14.14
51093110,-0.58,-0.261,0.65,19.495,-15.855,8.872
51093120,-0.35,-0.191,0.752,35.927,-0.875,10.202
51093130,-0.532,-0.164,0.774,34.195,20.545,22.155
51093140,-0.829,-0.12,0.815,24.71,22.312,24.272
51093150,-0.802,-0.15,0.812,12.88,2.992,17.237
51093160,-0.659,-0.23,0.73,4.97,-14.577,12.215
51093170,-0.574,-0.238,0.714,14.157,-15.995,11.655
51093180,-0.607,-0.188,0.763,22.155,-13.037,14.542
51093190,-0.587,-0.126,0.772,21.805,-8.365,11.13
51093200,-0.53,-0.118,0.815,10.57,0.035,8.557
51093210,-0.657,-0.169,0.858,3.745,6.492,5.617
51093220,-0.605,-0.246,0.865,-0.227,5.512,1.872
51093230,-0.555,-0.244,0.845,2.257,5.915,6.947
51093240,-0.583,-0.213,0.849,8.155,5.967,13.195
51093250,-0.579,-0.186,0.812,9.537,6.335,19.722
51093260,-0.569,-0.181,0.795,10.43,10.15,26.127
51093270,-0.544,-0.182,0.786,11.987,14.612,32.182
51093280,-0.507,-0.157,0.779,12.687,24.045,37.222
51093290,-0.561,-0.179,0.764,9.012,37.03,42.56
51093300,-0.679,-0.234,0.749,9.852,47.005,44.047
51093310,-0.798,-0.274,0.729,20.002,46.025,44.817
51093320,-0.836,-0.264,0.736,34.702,38.622,48.51
51093330,-0.912,-0.229,0.737,44.8,27.615,53.585
51093340,-0.891,-0.191,0.737,47.827,17.15,55.23
51093350,-0.698,-0.131,0.747,45.43,17.745,59.045
51093360,-0.6,-0.072,0.734,35.14,32.287,70.122
51093370,-0.558,-0.005,0.699,16.975,57.102,84.017
51093380,-0.547,0.041,0.643,-4.077,87.482,99.015
51093390,-0.633,0.038,0.585,-21.875,117.075,112.455
51093400,-0.774,0.042,0.543,-35.787,135.73,118.352
51093410,-0.897,0.05,0.544,-42.962,135.765,114.887
51093420,-0.994,0.056,0.551,-43.925,115.675,104.335
51093420,-1.053,0.048,0.556,-39.042,77.577,90.632
51093440,-1.029,0.027,0.564,-26.057,29.33,74.41
51093440,-0.876,0.079,0.58,-13.335,-15.015,56.315
51093460,-0.702,0.13,0.625,-7.595,-46.375,38.185
51093460,-0.597,0.154,0.64,-10.972,-62.09,18.795
51093480,-0.522,0.152,0.657,-19.775,-65.695,0.787
51093480,-0.48,0.11,0.669,-30.31,-62.755,-9.642
51093500,-0.477,0.036,0.692,-37.205,-55.912,-14.367
51093500,-0.496,0.032,0.724,-43.837,-47.425,-17.692
51093510,-0.509,-0.001,0.713,-52.657,-38.255,-18.707
51093520,-0.563,-0.059,0.728,-51.992,-28,-22.137
51093530,-0.613,-0.093,0.777,-49.875,-22.33,-24.185
51093540,-0.4,-0.245,0.795,-47.04,-13.597,-21.787
51093550,-0.354,-0.428,0.775,-29.802,19.827,-9.625
51093560,-0.751,-0.245,0.827,5.477,49.472,10.202
51093570,-1.069,-0.045,0.929,21.665,41.072,19.39
51093580,-1.042,-0.104,0.829,7.49,13.265,19.145
51093590,-0.823,-0.169,0.709,6.597,-6.632,12.075
51093600,-0.764,-0.098,0.677,16.012,-13.965,6.702
51093610,-0.796,0.014,0.653,17.867,-20.247,0.752
51093620,-0.617,0.038,0.611,12.705,-19.652,-3.832
51093630,-0.705,0.009,0.616,7.262,-11.48,-3.237
51093640,-0.681,0.003,0.601,0.157,-4.515,-5.495
51093650,-0.715,0.015,0.631,-3.045,1.96,-3.64
51093660,-0.736,-0.007,0.65,-8.085,5.652,-0.787
51093670,-0.768,-0.05,0.653,-12.512,6.615,1.382
51093680,-0.762,-0.075,0.678,-11.725,7.175,3.167
51093690,-0.782,-0.081,0.71,-8.837,6.142,6.107
51093700,-0.769,-0.05,0.747,-8.155,5.67,9.695
51093710,-0.83,-0.093,0.747,-13.51,5.67,12.845
51093720,-0.847,-0.148,0.733,-14.21,2.24,12.53
51093730,-0.789,-0.111,0.753,-7.752,-2.765,12.022
51093740,-0.753,-0.064,0.73,-6.825,-6.02,14.525
51093750,-0.694,-0.06,0.725,-6.965,-2.625,13.562
51093760,-0.719,-0.108,0.709,-5.88,5.005,11.62
51093760,-0.722,-0.115,0.717,-3.465,8.505,10.972
51093780,-0.671,-0.074,0.723,2.397,11.34,13.282
51093780,-0.678,-0.04,0.712,0.875,14.717,16.082
51093800,-0.698,-0.024,0.689,-5.005,18.952,13.44
51093800,-0.681,-0.046,0.666,-7.857,23.065,7.682
51093820,-0.659,-0.063,0.641,-6.055,27.195,4.847
51093820,-0.655,-0.054,0.659,-1.767,31.78,6.807
51093830,-0.702,-0.056,0.677,0.857,38.64,9.572
51093840,-0.758,-0.055,0.675,-0.805,44.415,7.227
51093850,-0.788,-0.044,0.656,-4.795,47.757,2.17
51093860,-0.809,-0.048,0.664,-9.625,48.02,-0.192
51093870,-0.848,-0.067,0.607,-15.697,47.022,3.762
51093880,-0.874,-0.066,0.571,-15.75,44.03,9.275
51093890,-0.996,-0.055,0.562,-10.605,32.97,12.022
51093900,-0.955,0.015,0.574,-7.507,15.68,7.157
51093910,-0.845,0.034,0.538,-9.397,-0.63,4.497
51093920,-0.754,0.025,0.499,-8.347,-6.09,3.342
51093930,-0.72,0.034,0.516,-3.447,-3.482,1.96
51093940,-0.783,0.062,0.551,-1.925,-1.137,1.067
51093950,-0.818,0.072,0.548,-5.46,-6.16,1.557
51093960,-0.755,0.05,0.54,-6.335,-13.317,1.505
51093970,-0.7,0.007,0.538,-2.222,-14.227,4.2
51093980,-0.764,-0.019,0.564,6.195,-9.1,9.1
51093990,-0.821,-0.002,0.588,14.682,-9.292,11.76
51094000,-0.811,0.019,0.612,18.952,-12.67,11.847
51094010,-0.765,0.007,0.638,17.71,-14.822,9.642
51094020,-0.706,-0.016,0.625,14.665,-9.275,6.842
51094030,-0.758,-0.03,0.639,12.95,-0.77,6.597
51094040,-0.776,-0.029,0.658,11.007,4.532,6.335
51094050,-0.779,-0.025,0.658,8.015,6.86,7.087
51094060,-0.806,-0.022,0.639,4.445,8.207,7.84
51094070,-0.827,-0.016,0.606,1.382,9.52,5.915
51094080,-0.91,-0.021,0.615,-0.297,4.252,2.782
51094090,-0.9,-0.05,0.566,-1.382,-7.945,2.047
51094100,-0.789,-0.044,0.553,4.532,-17.377,4.217
51094110,-0.734,-0.019,0.548,11.69,-15.75,7.98
51094120,-0.741,0.02,0.584,13.072,-8.417,6.86
51094130,-0.783,0.011,0.608,7.665,0.052,4.62
51094140,-0.851,-0.053,0.592,3.71,5.355,5.74
51094150,-0.868,-0.083,0.608,7.612,3.99,10.255
51094160,-0.905,-0.076,0.644,12.967,-2.8,17.64
51094170,-0.903,-0.059,0.65,16.782,-12.267,23.047
51094170,-0.849,-0.082,0.664,21.752,-19.425,25.287
51094190,-0.794,-0.047,0.67,24.902,-20.405,24.482
51094190,-0.797,-0.023,0.678,23.187,-17.657,21.402
51094210,-0.767,0.016,0.686,16.17,-12.267,13.982
51094210,-0.738,0.001,0.659,8.05,-6.877,9.17
51094230,-0.733,-0.014,0.653,7.735,-1.207,6.457
51094230,-0.757,0.017,0.653,7.997,2.24,7.49
51094250,-0.756,0.033,0.66,7.595,4.165,8.487
51094250,-0.754,0.021,0.66,6.142,6.58,8.4
51094260,-0.778,-0.024,0.664,3.097,7.875,8.417
51094270,-0.754,-0.046,0.638,6.877,10.517,10.255
51094280,-0.788,0.009,0.656,17.237,11.83,9.625
51094290,-0.82,0.083,0.655,12.705,6.877,8.68
51094300,-0.725,0.054,0.584,4.025,5.985,8.19
51094310,-0.714,-0.004,0.561,5.442,12.46,7.892
51094320,-0.687,0.015,0.539,9.555,21.297,12.11
51094330,-0.79,0.099,0.604,12.705,35.665,17.36
51094340,-1.008,0.132,0.652,5.39,30.782,15.977
51094350,-1.013,0.08,0.591,-4.165,8.61,11.007
51094360,-0.885,0.018,0.555,-5.477,-9.747,9.065
51094370,-0.862,0.02,0.558,-2.047,-18.987,8.207
51094380,-0.904,0.069,0.571,-0.262,-25.41,2.135
51094390,-0.722,0.1,0.568,-3.01,-28.402,-7.07
51094400,-0.556,0.058,0.563,-6.685,-13.527,-6.527
51094410,-0.707,0.02,0.595,-4.515,10.115,1.137
51094420,-0.871,0.081,0.637,-1.925,19.32,5.547
51094430,-0.839,0.094,0.644,-7.927,15.732,8.662
51094440,-0.88,0.02,0.637,-13.44,13.772,9.957
51094450,-0.927,0.001,0.628,-12.81,6.37,5.232
51094460,-0.872,0.029,0.633,-7.822,-2.677,0.332
51094470,-0.851,0.04,0.623,-4.095,-10.552,-0.175
51094480,-0.84,0.047,0.614,-1.207,-15.785,-0.367
51094490,-0.815,0.068,0.618,0.735,-19.162,-2.03
51094500,-0.792,0.078,0.614,0,-19.775,-2.59
51094510,-0.769,0.078,0.601,-1.855,-18.707,-3.185
51094510,-0.725,0.083,0.585,-3.85,-14.735,-3.535
51094530,-0.738,0.079,0.564,-4.812,-9.327,-1.785
51094530,-0.759,0.066,0.566,-2.625,-5.635,0.122
51094550,-0.763,0.083,0.582,1.085,-5.477,-0.017
51094550,-0.743,0.1,0.586,1.155,-5.897,-1.242
51094570,-0.737,0.084,0.586,-0.735,-4.55,-1.382
51094570,-0.737,0.062,0.582,-0.612,-1.085,-1.75
51094580,-0.768,0.058,0.596,0.385,2.887,-1.085
51094590,-0.814,0.054,0.614,-0.577,4.007,0.175
51094600,-0.821,0.029,0.616,-2.187,3.15,0.175
51094610,-0.842,0.013,0.617,-2.17,1.872,-0.577
51094620,-0.858,0.011,0.623,-0.752,-0.787,-0.245
51094630,-0.863,0.017,0.621,1.032,-4.795,0.122
51094640,-0.866,0.03,0.614,1.102,-8.855,0.42
51094650,-0.853,0.037,0.618,0.245,-11.865,-0.455
51094660,-0.821,0.038,0.624,-1.26,-12.512,-1.645
51094670,-0.817,0.024,0.624,-4.025,-10.832,-1.54
51094680,-0.819,0.007,0.614,-6.247,-9.327,-0.612
51094690,-0.817,0.006,0.603,-5.95,-10.342,1.015
51094700,-0.808,0.011,0.606,-4.34,-11.9,2.047
51094710,-0.79,0.006,0.62,-2.467,-13.772,1.89
51094720,-0.777,0.005,0.621,-0.227,-15.015,1.575
51094730,-0.74,0.022,0.62,2.835,-15.417,2.047
51094740,-0.728,0.037,0.621,4.06,-13.09,3.307
51094750,-0.716,0.043,0.614,3.657,-10.272,3.675
51094760,-0.704,0.051,0.591,3.64,-6.982,4.252
51094770,-0.71,0.072,0.587,4.34,-4.112,5.495
51094780,-0.728,0.067,0.602,4.095,-1.19,6.055
51094790,-0.74,0.052,0.615,3.115,1.155,5.075
51094800,-0.752,0.047,0.619,2.537,3.92,5.547
51094810,-0.8,0.015,0.62,4.76,4.095,10.167
51094820,-0.81,0.036,0.637,7.157,3.64,10.605
51094830,-0.836,0.043,0.631,6.615,2.852,9.555
51094840,-0.848,0.041,0.631,6.02,1.837,7.997
51094850,-0.855,0.045,0.631,5.215,-0.28,7.28
51094860,-0.854,0.052,0.62,3.92,-2.24,7.122
51094870,-0.834,0.066,0.614,3.412,-4.41,6.335
51094880,-0.816,0.067,0.592,3.92,-5.617,5.81
51094890,-0.818,0.076,0.622,7.052,-7.227,6.93
51094900,-0.782,0.094,0.638,6.807,-8.4,7.472
51094910,-0.771,0.063,0.629,6.107,-8.295,9.24
51094920,-0.765,0.066,0.622,6.37,-6.982,10.027
51094920,-0.771,0.079,0.626,7.385,-5.565,8.767
51094940,-0.778,0.087,0.622,7.402,-5.46,7.472
51094940,-0.762,0.094,0.627,6.982,-5.495,6.335
51094960,-0.741,0.098,0.637,6.142,-3.57,4.952
51094960,-0.744,0.08,0.645,4.27,-0.385,5.057
51094970,-0.75,0.062,0.642,4.392,1.767,5.985
51094980,-0.769,0.061,0.64,5.04,4.305,7.21
51094990,-0.796,0.053,0.636,6.02,4.76,7.35
51095000,-0.805,0.059,0.645,6.072,4.602,6.562
51095010,-0.819,0.05,0.615,5.057,3.815,5.897
51095020,-0.814,0.051,0.617,6.23,1.855,5.74
51095030,-0.785,0.053,0.622,8.207,0.525,7.595
51095040,-0.773,0.056,0.615,9.502,0.997,9.45
51095050,-0.736,0.067,0.617,11.27,3.78,10.395
51095060,-0.749,0.074,0.601,12.477,7.84,12.145
51095070,-0.753,0.085,0.589,14.682,9.485,12.687
51095080,-0.743,0.097,0.587,18.515,10.465,14.437
51095090,-0.719,0.106,0.583,21.175,13.58,16.327
51095100,-0.715,0.124,0.622,21.787,19.285,17.01
51095110,-0.75,0.098,0.606,20.86,25.865,18.217
51095120,-0.828,0.097,0.636,19.915,28.052,18.567
51095130,-0.853,0.097,0.601,19.005,24.99,19.075
51095140,-0.898,0.131,0.602,20.3,19.302,19.11
51095150,-0.9,0.17,0.599,19.162,12.652,15.505
51095160,-0.874,0.171,0.547,13.807,7.805,12.057
51095170,-0.87,0.194,0.56,12.897,4.69,10.22
51095180,-0.861,0.2,0.552,12.425,2.922,10.395
51095190,-0.859,0.191,0.556,11.305,-0.42,11.112
51095200,-0.832,0.184,0.574,11.812,-3.85,11.69
51095210,-0.81,0.176,0.573,11.252,-6.055,13.475
51095220,-0.781,0.171,0.584,10.867,-6.107,12.652
51095230,-0.758,0.16,0.581,10.465,-5.442,12.39
51095240,-0.747,0.147,0.588,12.617,-3.43,14.017
51095250,-0.749,0.151,0.6,13.405,-0.927,14.665
51095260,-0.754,0.152,0.598,12.687,1.505,14.245
51095260,-0.763,0.158,0.601,11.567,4.34,13.51
51095280,-0.786,0.161,0.61,9.45,7.91,11.812
51095280,-0.811,0.161,0.607,6.335,10.43,8.96
51095300,-0.817,0.152,0.587,4.287,11.077,7.017
51095300,-0.82,0.165,0.576,4.672,10.692,5.827
51095320,-0.839,0.194,0.569,5.6,7.735,5.005
51095320,-0.814,0.203,0.581,5.81,5.355,4.217
51095330,-0.827,0.188,0.576,3.097,5.355,2.625
51095340,-0.834,0.178,0.566,0.77,4.865,1.347
51095350,-0.822,0.187,0.563,0.21,3.307,2.047
51095360,-0.821,0.191,0.566,-2.082,3.535,0.717
51095370,-0.834,0.181,0.569,-5.985,3.92,-2.45
51095380,-0.851,0.177,0.575,-9.852,3.832,-4.707
51095390,-0.867,0.157,0.57,-13.16,2.012,-4.812
51095400,-0.884,0.123,0.567,-10.85,-1.487,-0.717
51095410,-0.868,0.158,0.586,-9.66,-3.587,-2.45
51095420,-0.885,0.141,0.58,-13.02,-5.425,-1.907
51095430,-0.86,0.123,0.562,-13.44,-8.995,-3.062
51095440,-0.821,0.125,0.562,-9.292,-9.992,-5.267
51095450,-0.81,0.132,0.562,-7.735,-8.925,-5.215
51095460,-0.834,0.122,0.541,-6.422,-7.717,-2.327
51095470,-0.877,0.141,0.568,-2.852,-7.507,-1.207
51095480,-0.887,0.172,0.605,-4.042,-6.755,-3.675
51095490,-0.815,0.203,0.58,-6.842,-3.5,-4.112
51095500,-0.932,0.175,0.588,-12.932,-2.082,-0.997
51095510,-0.969,0.14,0.53,-19.722,-13.807,1.312
51095520,-0.841,0.14,0.501,-11.672,-32.777,6.037
51095530,-0.723,0.192,0.489,-1.61,-43.89,11.462
51095540,-0.65,0.208,0.513,0.157,-42.665,13.772
51095550,-0.68,0.159,0.559,-1.837,-35.612,16.24
51095560,-0.726,0.119,0.579,-3.22,-34.09,21.245
51095570,-0.688,0.132,0.622,4.322,-34.387,23.012
51095580,-0.69,0.203,0.693,5.075,-29.365,17.955
51095590,-0.728,0.196,0.689,-4.357,-21.507,9.922
51095600,-0.771,0.143,0.66,-9.047,-15.732,3.342
51095610,-0.799,0.146,0.664,-5.425,-12.862,0.542
51095620,-0.829,0.172,0.677,-2.835,-11.952,-0.332
51095630,-0.834,0.181,0.657,-4.655,-12.6,-3.745
51095640,-0.801,0.165,0.627,-6.265,-14.297,-7.175
51095640,-0.767,0.16,0.588,-3.745,-16.625,-8.33
51095660,-0.719,0.165,0.582,1.067,-17.08,-6.947
51095660,-0.691,0.179,0.582,5.057,-13.685,-6.86
51095670,-0.691,0.183,0.585,5.145,-7.507,-9.1
51095680,-0.695,0.172,0.594,3.745,-0.385,-11.287
51095690,-0.697,0.179,0.599,2.38,5.512,-11.06
51095700,-0.744,0.172,0.609,-0.892,10.937,-9.66
51095710,-0.759,0.181,0.6,-6.527,14.577,-10.797
51095720,-0.796,0.139,0.583,-10.097,17.062,-8.855
51095730,-0.828,0.119,0.566,-9.1,16.362,-7.105
51095740,-0.824,0.147,0.579,-7.367,13.79,-7.805
51095750,-0.821,0.147,0.573,-7.507,10.272,-6.667
51095760,-0.81,0.142,0.584,-6.807,7.542,-5.67
51095770,-0.822,0.148,0.612,-6.982,5.267,-5.232
51095780,-0.84,0.129,0.619,-8.12,2.45,-6.335
51095790,-0.821,0.106,0.602,-6.772,-2.677,-7.245
51095800,-0.786,0.122,0.605,-2.765,-7.14,-6.335
51095810,-0.762,0.167,0.606,-2.152,-8.872,-5.407
51095820,-0.785,0.123,0.633,-5.827,-7.875,-5.95
51095830,-0.784,0.097,0.636,-6.597,-7.787,-6.352
51095840,-0.766,0.111,0.645,-2.03,-6.352,-4.305
51095850,-0.786,0.15,0.668,-0.63,-4.305,-2.362
51095860,-0.798,0.144,0.656,-3.815,-1.54,-3.377
51095870,-0.787,0.122,0.645,-5.985,1.417,-4.952
51095880,-0.805,0.121,0.622,-4.637,3.202,-3.342
51095890,-0.806,0.135,0.624,-2.8,3.587,-1.26
51095900,-0.791,0.122,0.622,-2.432,4.13,-1.487
51095910,-0.781,0.096,0.603,-0.822,4.392,-1.155
51095920,-0.765,0.095,0.587,3.675,3.167,0.735
51095930,-0.751,0.096,0.586,9.73,1.05,3.185
51095940,-0.728,0.104,0.58,12.985,0.7,6.23
51095950,-0.742,0.094,0.58,14.577,1.592,7.385
51095960,-0.744,0.097,0.564,17.325,3.29,9.03
51095970,-0.693,0.153,0.529,21.262,5.827,8.33
51095980,-0.698,0.189,0.567,22.942,13.387,6.107
51095990,-0.781,0.217,0.582,14.98,19.057,1.61
51096000,-0.784,0.17,0.568,6.965,23.31,-2.712
51096010,-0.85,0.128,0.558,11.41,26.005,-0.665
51096010,-0.949,0.165,0.576,21.332,19.057,11.76
51096030,-0.875,0.247,0.612,20.597,13.51,5.757
51096030,-0.876,0.195,0.59,12.6,12.04,5.18
51096050,-0.876,0.139,0.542,7.857,8.925,5.477
51096050,-0.858,0.129,0.555,13.09,4.095,5.407
51096070,-0.851,0.148,0.567,15.102,-2.835,7.42
51096070,-0.816,0.14,0.554,12.687,-11.55,8.505
51096080,-0.719,0.117,0.548,14.542,-16.31,8.067
51096090,-0.715,0.091,0.584,21.7,-12.74,9.87
51096100,-0.75,0.13,0.642,30.677,-7.402,13.492
51096110,-0.807,0.204,0.685,31.412,-1.382,13.947
51096120,-0.833,0.23,0.663,21.735,3.342,9.905
51096130,-0.807,0.196,0.609,11.655,7.507,4.9
51096140,-0.815,0.181,0.577,8.61,11.777,4.025
51096150,-0.834,0.208,0.551,7.42,12.81,5.845
51096160,-0.842,0.212,0.542,7.35,11.847,4.917
51096170,-0.869,0.221,0.545,6.247,8.802,1.645
51096180,-0.889,0.23,0.534,5.32,1.05,0.227
51096190,-0.853,0.224,0.535,3.027,-5.845,-0.805
51096200,-0.86,0.204,0.549,2.17,-9.975,-1.767
51096210,-0.879,0.209,0.553,0.542,-16.222,-2.187
51096220,-0.841,0.183,0.564,0.857,-21.332,-3.657
51096230,-0.858,0.196,0.579,2.87,-24.237,-2.712
51096240,-0.864,0.173,0.58,7.577,-28.787,1.4
51096250,-0.871,0.221,0.599,10.01,-37.012,8.75
51096260,-0.819,0.241,0.585,6.142,-45.465,8.592
51096270,-0.694,0.202,0.545,3.57,-49.157,4.445
51096280,-0.637,0.176,0.539,7.052,-41.667,3.85
51096290,-0.763,0.171,0.586,15.715,-30.782,5.862
51096300,-0.849,0.21,0.604,21.612,-28.175,4.025
51096310,-0.837,0.229,0.635,25.742,-33.687,3.202
51096320,-0.806,0.248,0.62,24.132,-39.462,5.46
51096330,-0.698,0.283,0.61,19.477,-41.527,3.745
51096330,-0.595,0.308,0.585,10.535,-35.105,0.087
51096350,-0.594,0.291,0.594,-0.682,-20.457,-3.482
51096350,-0.688,0.269,0.601,-14.49,-7.157,-8.435
51096370,-0.77,0.201,0.605,-23.73,-1.54,-11.882
51096370,-0.813,0.142,0.601,-24.605,-3.465,-11.41
51096390,-0.846,0.128,0.604,-19.95,-11.042,-8.68
51096390,-0.801,0.113,0.617,-12.775,-18.602,-4.462
51096410,-0.714,0.1,0.665,-3.08,-15.872,2.17
51096410,-0.818,0.164,0.685,5.197,-8.592,9.887
51096420,-0.823,0.206,0.675,4.392,-10.71,11.672
51096430,-0.671,0.175,0.656,1.172,-12.512,9.485
51096440,-0.636,0.184,0.642,0.84,-6.65,9.747
51096450,-0.697,0.206,0.633,-1.365,-1.102,10.5
51096460,-0.674,0.217,0.633,-4.235,4.672,6.895
51096470,-0.714,0.221,0.637,-5.652,12.005,4.602
51096480,-0.769,0.209,0.631,-7.682,18.235,3.342
51096490,-0.774,0.219,0.621,-6.335,22.085,2.275
51096500,-0.782,0.239,0.609,-5.302,23.852,3.097
51096510,-0.767,0.253,0.586,-5.74,24.447,2.275
51096520,-0.735,0.263,0.569,-7.105,24.657,-1.155
51096530,-0.746,0.247,0.588,-9.292,24.307,-3.255
51096540,-0.73,0.249,0.582,-13.982,26.565,-5.39
51096550,-0.757,0.196,0.596,-13.685,29.907,-6.387
51096560,-0.849,0.15,0.609,-13.265,28.822,-5.757
51096570,-0.89,0.13,0.619,-11.077,18.025,-6.037
51096580,-0.835,0.117,0.604,-6.58,5.162,-1.137
51096590,-0.783,0.124,0.595,-1.47,-0.525,4.585
51096600,-0.763,0.156,0.596,1.942,-0.525,5.39
51096610,-0.766,0.178,0.605,1.75,0.7,4.97
51096620,-0.748,0.17,0.604,-0.21,1.75,3.272
51096630,-0.764,0.147,0.601,-0.805,3.482,3.465
51096640,-0.803,0.146,0.596,1.137,5.232,4.637
51096650,-0.825,0.162,0.577,4.41,2.975,4.235
51096660,-0.833,0.17,0.563,9.362,-0.507,4.48
51096670,-0.836,0.199,0.564,14.262,-4.637,6.475
51096680,-0.805,0.246,0.549,15.855,-6.597,7.122
51096690,-0.799,0.264,0.557,16.922,-6.877,7.332
51096700,-0.764,0.283,0.555,13.475,-5.845,5.95
51096710,-0.735,0.277,0.564,9.467,-2.275,4.41
51096720,-0.774,0.246,0.569,6.177,2.117,5.95
51096730,-0.804,0.231,0.595,6.3,4.077,7.927
51096740,-0.783,0.223,0.617,6.737,4.637,7.77
51096750,-0.78,0.198,0.64,7.962,4.812,6.002
51096760,-0.752,0.195,0.642,7.105,5.53,5.215
51096760,-0.741,0.187,0.643,5.985,6.79,5.74
51096780,-0.77,0.169,0.622,3.797,7.192,5.215
51096780,-0.757,0.16,0.601,5.705,6.895,1.19
51096800,-0.782,0.167,0.598,9.957,6.947,-0.087
51096800,-0.806,0.195,0.577,9.222,6.667,0.367
51096820,-0.821,0.193,0.553,8.505,6.422,0
51096820,-0.835,0.198,0.52,9.45,5.757,0.665
51096830,-0.816,0.22,0.529,13.475,4.917,1.75
51096840,-0.818,0.26,0.518,12.145,5.215,3.815
51096850,-0.807,0.265,0.528,9.485,4.62,1.995
51096860,-0.797,0.241,0.532,9.1,5.617,-0.14
51096870,-0.819,0.251,0.58,11.042,5.775,0.525
51096880,-0.84,0.267,0.571,7.28,2.257,2.765
51096890,-0.786,0.281,0.592,5.407,-0.927,-1.487
51096900,-0.8,0.267,0.607,2.31,-0.262,-2.66
51096910,-0.801,0.276,0.549,-3.062,-0.175,-2.275
51096920,-0.752,0.277,0.551,-3.22,1.54,-2.817
51096930,-0.854,0.285,0.568,-3.325,6.23,0.21
51096940,-0.906,0.283,0.549,-6.772,4.27,-1.015
51096950,-0.866,0.285,0.54,-7.875,-0.787,-4.515
51096960,-0.835,0.265,0.528,-8.96,-4.427,-6.265
51096970,-0.815,0.238,0.522,-8.89,-5.827,-7.857
51096980,-0.809,0.216,0.539,-6.86,-5.897,-8.4
51096990,-0.795,0.208,0.546,-5.897,-6.16,-8.47
51097000,-0.8,0.198,0.539,-6.125,-6.02,-7.665
51097010,-0.804,0.195,0.537,-5.232,-6.107,-6.982
51097020,-0.815,0.2,0.548,-4.165,-6.177,-5.6
51097030,-0.825,0.204,0.545,-4.06,-7.245,-4.882
51097040,-0.818,0.202,0.548,-3.535,-9.607,-4.567
51097050,-0.796,0.2,0.552,-3.097,-12.145,-3.92
51097060,-0.774,0.204,0.553,-2.59,-13.405,-2.712
51097070,-0.757,0.211,0.568,-1.277,-12.88,-1.697
51097080,-0.761,0.218,0.586,-0.612,-11.34,-0.14
51097080,-0.761,0.223,0.598,-1.067,-9.345,0.787
51097100,-0.768,0.221,0.597,-1.365,-7.245,1.067
51097100,-0.787,0.218,0.591,-1.347,-6.107,1.575
51097120,-0.803,0.217,0.577,-0.91,-6.65,2.135
51097120,-0.806,0.219,0.57,-0.157,-7.595,2.205
51097140,-0.822,0.217,0.563,-0.21,-8.05,2.467
51097140,-0.823,0.218,0.561,-0.315,-9.275,2.555
51097160,-0.815,0.22,0.556,-0.577,-10.762,3.92
51097160,-0.815,0.219,0.549,-1.907,-12.617,5.6
51097170,-0.827,0.206,0.537,0.087,-15.435,6.58
51097180,-0.845,0.216,0.551,3.062,-19.355,8.207
51097190,-0.844,0.219,0.556,3.99,-22.977,11.515
51097200,-0.822,0.222,0.557,4.48,-24.64,14.245
51097210,-0.764,0.226,0.572,3.867,-23.52,15.382
51097220,-0.735,0.231,0.586,3.395,-18.427,15.662
51097230,-0.734,0.241,0.608,1.68,-13.177,13.947
51097240,-0.725,0.23,0.605,-1.452,-8.085,11.27
51097250,-0.739,0.228,0.616,-3.43,-5.092,8.767
51097260,-0.778,0.222,0.614,-4.55,-5.075,7.192
51097270,-0.777,0.222,0.612,-4.812,-8.96,5.39
51097280,-0.767,0.216,0.615,-3.342,-11.672,4.392
51097290,-0.759,0.229,0.622,-1.347,-11.917,3.115
51097300,-0.753,0.243,0.628,-1.05,-11.095,1.662
51097310,-0.74,0.244,0.621,-2.975,-9.432,0.087
51097320,-0.748,0.244,0.617,-4.952,-7.437,-1.102
51097330,-0.761,0.228,0.611,-5.967,-6.422,-1.47
51097340,-0.77,0.226,0.606,-4.917,-5.495,-1.4
51097350,-0.774,0.234,0.614,-3.36,-6.317,-0.91
51097360,-0.782,0.245,0.6,-3.535,-7.455,0.367
51097370,-0.765,0.25,0.593,-4.007,-8.505,0.857
51097380,-0.767,0.234,0.584,-4.882,-7.84,1.942
51097390,-0.784,0.231,0.587,-5.232,-7.07,3.062
51097400,-0.748,0.232,0.58,-5.337,-8.12,3.15
51097410,-0.714,0.229,0.583,-6.23,-6.09,4.322
51097420,-0.78,0.226,0.587,-7.21,-2.782,5.67
51097430,-0.783,0.23,0.586,-7.542,-3.552,4.392
51097440,-0.761,0.213,0.599,-4.655,-6.142,2.642
51097450,-0.765,0.213,0.625,-2.17,-8.382,3.71
51097460,-0.737,0.225,0.631,-3.027,-8.89,5.075
51097470,-0.729,0.238,0.635,-5.075,-6.457,4.392
51097480,-0.735,0.235,0.638,-8.365,-2.292,2.345
51097490,-0.719,0.222,0.643,-9.8,1.855,0.157
51097500,-0.719,0.225,0.642,-11.9,6.335,0.682
51097510,-0.733,0.217,0.62,-14.857,9.94,-2.257
51097510,-0.757,0.208,0.635,-11.917,12.267,-5.705
51097530,-0.786,0.2,0.637,-10.902,12.512,-4.62
51097530,-0.798,0.205,0.634,-11.147,11.637,-2.992
51097550,-0.802,0.201,0.609,-11.322,9.992,-2.45
51097550,-0.793,0.194,0.599,-8.26,7.105,-2.187
51097570,-0.786,0.205,0.588,-5.74,4.48,-1.505
51097570,-0.786,0.22,0.578,-4.41,2.24,-0.927
51097580,-0.799,0.231,0.571,-5.355,0.35,-0.98
51097590,-0.808,0.224,0.569,-6.44,-1.032,-0.752
51097600,-0.853,0.207,0.572,-5.442,-4.252,-0.14
51097610,-0.853,0.233,0.594,-4.847,-9.695,-1.855
51097620,-0.807,0.257,0.601,-7.017,-14.822,-1.417
51097630,-0.736,0.208,0.592,-10.115,-15.785,0.84
51097640,-0.726,0.184,0.601,-8.96,-11.217,1.75
51097650,-0.764,0.215,0.652,-7.98,-9.187,2.782
51097660,-0.778,0.197,0.671,-11.9,-10.237,3.535
51097670,-0.805,0.175,0.678,-15.12,-14.735,0.437
51097680,-0.829,0.166,0.678,-17.377,-20.79,-3.412
51097690,-0.833,0.162,0.67,-15.715,-27.965,-6.457
51097700,-0.787,0.18,0.654,-12.11,-32.462,-7.98
51097710,-0.743,0.193,0.629,-9.205,-33.6,-8.137
51097720,-0.684,0.196,0.602,-8.697,-29.382,-6.982
51097730,-0.674,0.181,0.584,-7.437,-22.19,-4.9
51097740,-0.701,0.177,0.585,-5.757,-15.382,-3.482
51097750,-0.721,0.179,0.604,-4.76,-11.882,-2.887
51097760,-0.758,0.171,0.612,-4.41,-10.377,-1.785
51097770,-0.78,0.176,0.62,-3.5,-10.797,-0.332
51097780,-0.787,0.198,0.637,-2.135,-11.532,1.032
51097790,-0.783,0.213,0.648,-2.152,-13.737,0.752
51097800,-0.749,0.213,0.643,-2.957,-15.837,-0.017
51097810,-0.732,0.211,0.637,-1.837,-16.117,0.665
51097820,-0.735,0.24,0.659,-4.077,-15.015,3.762
51097830,-0.736,0.19,0.643,-8.47,-14.577,2.1
51097830,-0.728,0.156,0.652,-5.355,-13.912,0.98
51097850,-0.729,0.168,0.659,-2.835,-15.137,1.89
51097850,-0.717,0.199,0.66,-2.275,-15.347,1.295
51097870,-0.714,0.178,0.677,-4.445,-14.122,0.542
51097870,-0.719,0.158,0.663,-5.967,-13.86,0.087
51097890,-0.691,0.17,0.666,-4.165,-14.507,1.68
51097890,-0.701,0.179,0.664,-2.922,-13.947,3.955
51097910,-0.711,0.183,0.665,-3.307,-12.635,3.517
51097910,-0.709,0.178,0.668,-4.2,-11.445,2.415
51097920,-0.718,0.169,0.667,-4.06,-10.745,2.187
51097930,-0.726,0.18,0.663,-2.782,-10.395,2.905
51097940,-0.731,0.195,0.667,-1.995,-9.817,3.535
51097950,-0.73,0.197,0.664,-2.52,-8.627,3.185
51097960,-0.737,0.19,0.654,-3.255,-7.28,2.082
51097970,-0.736,0.191,0.652,-2.537,-7.175,1.645
51097980,-0.726,0.204,0.652,-1.225,-7.927,2.1
51097990,-0.708,0.209,0.653,-1.207,-8.207,2.66
51098000,-0.697,0.197,0.665,-1.697,-6.597,2.642
51098010,-0.682,0.184,0.678,-1.942,-4.55,2.117
51098020,-0.663,0.173,0.673,-0.927,-2.485,2.695
51098030,-0.652,0.175,0.662,1.452,-1.032,3.237
51098040,-0.652,0.181,0.648,2.922,0.875,2.747
51098050,-0.659,0.179,0.647,3.815,3.237,2.222
51098060,-0.67,0.189,0.655,3.762,7.507,2.432
51098070,-0.705,0.198,0.66,2.012,10.657,0.945
51098080,-0.732,0.193,0.665,-0.035,10.535,-1.172
51098090,-0.763,0.172,0.666,1.505,7.192,-1.015
51098100,-0.801,0.181,0.665,5.215,2.327,0.28
51098110,-0.847,0.217,0.677,7.402,-6.457,0.315
51098120,-0.842,0.227,0.634,5.53,-18.76,-0.35
51098130,-0.744,0.242,0.625,4.462,-28.997,-1.592
51098140,-0.661,0.242,0.667,0.945,-27.58,0.157
51098150,-0.67,0.239,0.685,-7.577,-15.557,1.347
51098160,-0.733,0.129,0.692,-14.28,-3.57,-1.4
51098170,-0.757,0.061,0.722,-8.33,-0.035,-4.55
51098180,-0.688,0.106,0.711,4.62,-2.782,2.625
51098190,-0.701,0.181,0.703,11.375,-3.482,7.245
51098200,-0.693,0.213,0.674,7.087,-2.187,2.117
51098210,-0.721,0.204,0.655,1.785,-1.102,1.977
51098220,-0.773,0.222,0.679,0.087,-0.805,5.11
51098230,-0.781,0.229,0.68,-1.925,-2.45,2.275
51098240,-0.739,0.216,0.677,-3.062,-4.515,-1.68
51098250,-0.746,0.211,0.673,-3.552,-5.862,-2.31
51098260,-0.762,0.217,0.68,-4.69,-6.912,-2.345
51098260,-0.799,0.208,0.679,-4.9,-8.802,-2.45
51098280,-0.796,0.21,0.663,-6.317,-14.682,-3.342
51098280,-0.772,0.209,0.652,-7.35,-20.93,-3.517
51098300,-0.769,0.21,0.644,-8.54,-24.797,-3.675
51098300,-0.775,0.217,0.658,-9.047,-28.612,-3.85
51098320,-0.776,0.219,0.687,-9.327,-33.162,-2.24
51098320,-0.787,0.183,0.755,-12.092,-37.66,2.24
51098330,-0.721,0.125,0.715,-16.082,-43.067,0.595
51098340,-0.632,0.117,0.703,-10.447,-45.307,-0.402
51098350,-0.571,0.126,0.7,-4.27,-43.557,1.627
51098360,-0.548,0.147,0.707,-1.155,-37.817,2.625
51098370,-0.53,0.135,0.698,-1.82,-30.397,2.975
51098380,-0.533,0.127,0.696,-1.207,-21.752,2.31
51098390,-0.594,0.163,0.713,1.382,-13.405,1.785
51098400,-0.711,0.207,0.712,-0.245,-7.787,1.82
51098410,-0.829,0.21,0.682,-4.952,-9.52,0.612
51098420,-0.863,0.162,0.701,-3.675,-17.797,0.49
51098430,-0.812,0.234,0.727,4.48,-29.645,1.277
51098440,-0.776,0.273,0.732,4.182,-38.937,2.607
51098450,-0.708,0.23,0.74,-0.087,-45.412,2.012
51098460,-0.598,0.164,0.821,2.765,-46.55,1.785
51098470,-0.494,0.187,0.8,6.335,-46.392,4.077
51098480,-0.402,0.209,0.786,5.355,-40.162,6.51
51098490,-0.4,0.22,0.757,0.472,-28.07,4.865
51098500,-0.469,0.102,0.808,-4.672,-13.772,3.972
51098510,-0.497,0.171,0.803,0.752,-5.075,3.43
51098520,-0.527,0.205,0.784,-1.347,0.717,4.97
51098530,-0.553,0.179,0.739,-5.932,8.067,3.342
51098540,-0.61,0.188,0.726,-6.107,14,-0.052
51098550,-0.708,0.195,0.721,-6.247,14.7,-0.332
51098560,-0.768,0.167,0.687,-6.842,9.415,0.367
51098570,-0.746,0.149,0.654,-4.777,2.87,0.402
51098580,-0.719,0.146,0.629,-1.89,-1.662,0.56
51098580,-0.702,0.141,0.64,0.735,-4.217,0.735
51098600,-0.779,0.19,0.631,3.587,-7.91,0.42
51098600,-0.703,0.152,0.773,2.712,-14.752,-3.115
51098620,-0.834,0.089,0.759,1.855,-15.102,-1.837
51098620,-0.817,0.218,0.756,5.757,-27.755,-0.997
51098640,-0.629,0.224,0.754,6.947,-37.747,-1.925
51098640,-0.513,0.176,0.75,4.042,-38.762,-2.1
51098660,-0.452,0.188,0.77,4.62,-33.582,-3.937
51098660,-0.457,0.217,0.846,2.59,-27.037,-3.062
51098670,-0.321,0.017,0.674,-8.855,-27.615,-2.747
51098680,-0.211,0.165,0.782,4.795,-6.562,1.417
51098690,-0.353,0.275,0.815,4.672,13.685,2.537
51098700,-0.428,0.183,0.848,-6.877,30.065,-5.53
51098710,-0.595,0.071,0.773,-12.687,36.942,-11.69
51098720,-0.69,0.083,0.706,-11.795,37.047,-11.97
51098730,-0.734,0.263,0.77,-1.767,36.557,-12.232
51098740,-0.843,0.228,0.735,-7.997,31.815,-10.447
51098750,-0.694,0.146,0.725,-6.282,25.252,-13.685
51098760,-0.658,0.175,0.767,-0.542,23.87,-14.437
51098770,-0.716,0.175,0.719,-5.04,15.575,-15.242
51098780,-0.45,0.144,0.681,-3.5,21.962,-13.457
51098790,-1,0.196,0.739,7.525,26.827,1.242
51098800,-0.915,0.244,0.786,11.777,9.24,1.907
51098810,-0.786,0.244,0.764,8.645,-2.835,-7.997
51098820,-0.691,0.196,0.715,4.48,-3.727,-10.832
51098830,-0.658,0.209,0.725,8.032,-1.872,-11.235
51098840,-0.655,0.204,0.756,5.355,-1.085,-6.615
51098850,-0.651,0.146,0.744,1.75,1.435,-4.567
51098860,-0.623,0.125,0.744,3.272,5.6,-4.2
51098870,-0.634,0.148,0.713,5.442,9.275,-2.625
51098880,-0.586,0.158,0.676,7.612,12.862,-0.315
51098890,-0.512,0.159,0.609,11.935,20.93,2.87
51098900,-0.494,0.157,0.593,17.377,31.657,7.332
51098910,-0.573,0.158,0.654,19.32,39.515,13.65
51098920,-0.602,0.131,0.715,16.117,43.137,17.762
51098930,-0.543,0.102,0.732,14.157,51.065,19.302
51098940,-0.668,0.12,0.765,13.16,59.535,18.882
51098950,-0.798,0.133,0.789,9.082,56.105,20.947
51098960,-0.777,0.102,0.752,8.172,50.732,21.945
51098970,-0.582,0.133,0.634,13.562,50.505,21.91
51098980,-0.58,0.225,0.525,24.815,62.877,26.25
51098990,-0.659,0.344,0.612,32.83,71.75,32.375
51099000,-0.727,0.362,0.742,29.102,81.322,40.337
51099010,-0.852,0.332,0.796,22.26,90.702,38.097
51099010,-0.95,0.329,0.759,19.407,91.805,31.185
51099020,-0.998,0.319,0.711,16.187,80.167,26.722
51099030,-0.905,0.299,0.661,14.525,62.195,21.997
51099040,-0.789,0.241,0.595,13.72,49.945,19.792
51099050,-0.768,0.186,0.493,14.315,41.912,22.522
51099060,-0.855,0.227,0.51,22.68,33.267,22.907
51099070,-0.844,0.335,0.515,31.377,24.115,17.097
51099080,-0.873,0.366,0.5,26.495,16.467,12.687
51099090,-0.915,0.294,0.468,11.27,5.232,8.207
51099100,-0.891,0.199,0.5,11.375,2.17,2.59
51099110,-0.763,0.223,0.571,28.332,11.217,-2.275
51099120,-0.772,0.233,0.612,41.16,21.42,-0.735
51099130,-0.882,0.211,0.62,44.24,17.027,2.432
51099140,-0.875,0.18,0.586,47.092,0.56,2.87
51099150,-0.858,0.191,0.589,53.2,-19.092,2.012
51099160,-0.853,0.23,0.571,54.04,-37.1,-1.435
51099170,-0.807,0.243,0.539,55.667,-52.307,-8.155
51099180,-0.819,0.286,0.56,56.577,-66.482,-11.217
51099190,-0.918,0.301,0.556,50.96,-87.92,-7.647
51099200,-1.011,0.332,0.551,45.745,-119.052,-3.36
51099210,-0.947,0.359,0.552,40.897,-151.812,-10.535
51099220,-0.663,0.417,0.573,33.967,-165.76,-16.712
51099230,-0.546,0.448,0.601,20.107,-156.835,-18.095
51099240,-0.476,0.45,0.578,-0.245,-132.86,-24.342
51099250,-0.446,0.415,0.596,-13.02,-98.647,-28
51099260,-0.507,0.368,0.613,-22.522,-63.28,-23.397
51099270,-0.619,0.308,0.633,-24.99,-36.505,-14.665
51099280,-0.69,0.261,0.657,-19.057,-18.585,-1.662
51099290,-0.696,0.247,0.676,-9.257,-8.382,7
51099300,-0.669,0.284,0.708,4.41,-2.922,9.817
51099310,-0.657,0.302,0.712,13.142,-0.245,13.107
51099320,-0.65,0.3,0.705,16.625,0.735,14.437
51099330,-0.671,0.284,0.689,18.042,-0.717,14.28
51099330,-0.697,0.27,0.679,21.192,-6.527,12.985
51099350,-0.703,0.272,0.695,25.235,-15.032,11.007
51099350,-0.677,0.316,0.703,24.797,-23.24,7.665
51099370,-0.653,0.338,0.721,22.785,-29.645,3.377
51099370,-0.612,0.355,0.702,18.742,-31.535,-0.192
51099390,-0.574,0.371,0.658,12.005,-28.14,-3.237
51099390,-0.591,0.368,0.635,7.052,-21.315,-6.457
51099410,-0.66,0.36,0.631,2.52,-15.715,-8.452
51099410,-0.709,0.366,0.648,-1.68,-14.437,-9.677
51099420,-0.744,0.356,0.644,-5.897,-17.395,-9.8
51099430,-0.737,0.327,0.649,-4.532,-22.96,-8.907
51099440,-0.687,0.31,0.651,-1.4,-27.142,-6.107
51099450,-0.643,0.312,0.651,3.71,-26.862,-3.78
51099460,-0.618,0.314,0.684,10.605,-21.525,-0.787
51099470,-0.613,0.325,0.704,12.705,-16.205,1.505
51099480,-0.607,0.331,0.703,13.825,-12.757,2.24
51099490,-0.612,0.315,0.704,15.435,-11.357,3.237
51099500,-0.615,0.291,0.693,18.865,-11.742,2.59
51099510,-0.636,0.328,0.717,22.942,-13.842,0.455
51099520,-0.649,0.357,0.717,19.67,-18.935,-0.525
51099530,-0.613,0.364,0.704,13.702,-24.272,-2.555
51099540,-0.591,0.361,0.676,8.382,-25.252,-3.5
51099550,-0.576,0.374,0.665,3.027,-21.735,-4.637
51099560,-0.59,0.378,0.645,-3.745,-15.19,-6.055
51099570,-0.63,0.362,0.642,-6.265,-9.117,-7.175
51099580,-0.697,0.367,0.643,-9.572,-4.76,-5.757
51099590,-0.752,0.369,0.636,-13.37,-5.022,-4.252
51099600,-0.762,0.362,0.615,-13.02,-9.205,-4.27
51099610,-0.728,0.352,0.624,-9.712,-12.495,-4.375
51099620,-0.687,0.371,0.648,-7.035,-14.192,-4.865
51099630,-0.645,0.389,0.666,-7.98,-14.91,-4.357
51099640,-0.618,0.393,0.683,-9.835,-14.595,-4.392
51099650,-0.626,0.396,0.694,-12.285,-14.682,-4.655
51099660,-0.612,0.391,0.696,-14.087,-13.965,-5.442
51099670,-0.594,0.39,0.706,-14.017,-10.71,-7.402
51099680,-0.595,0.368,0.694,-14.157,-5.845,-8.522
51099690,-0.599,0.336,0.689,-11.55,-1.75,-8.995
51099690,-0.6,0.337,0.691,-8.557,1.89,-9.642
51099710,-0.591,0.345,0.679,-7.437,4.585,-10.132
51099710,-0.6,0.346,0.695,-6.842,6.125,-8.802
51099730,-0.616,0.343,0.709,-5.547,7.472,-6.58
51099730,-0.607,0.342,0.716,-3.955,8.802,-2.8
51099750,-0.612,0.341,0.746,-3.132,10.517,1.347
51099750,-0.624,0.326,0.758,-4.305,13.685,4.147
51099760,-0.587,0.327,0.755,-7.227,20.02,6.44
51099770,-0.53,0.324,0.73,-8.872,29.505,8.4
51099780,-0.522,0.329,0.683,-12.232,42.017,10.167
51099790,-0.53,0.333,0.652,-21.332,53.567,8.487
51099800,-0.549,0.318,0.648,-28.997,63.175,1.89
51099810,-0.668,0.294,0.659,-38.097,68.092,-4.235
51099820,-0.781,0.267,0.648,-46.235,60.987,-10.465
51099830,-0.809,0.255,0.686,-45.815,42.805,-16.275
51099840,-0.829,0.249,0.749,-44.975,19.145,-17.027
51099850,-0.856,0.212,0.691,-45.535,-7.192,-15.505
51099860,-0.741,0.182,0.712,-31.727,-31.64,-18.812
51099870,-0.625,0.216,0.75,-25.2,-44.03,-20.37
51099880,-0.583,0.203,0.746,-26.425,-44.292,-19.775
51099890,-0.445,0.189,0.748,-27.702,-33.11,-20.737
51099900,-0.291,0.154,0.763,-25.515,2.975,-17.535
51099910,-0.41,0.152,0.759,-23.957,54.057,-13.51
51099920,-0.633,0.176,0.764,-26.512,90.3,-12.005
51099930,-0.776,0.125,0.745,-26.687,98.42,-6.492
51099940,-0.787,0.124,0.748,-17.622,89.81,3.762
51099950,-0.802,0.177,0.7,-12.932,73.85,14.122
51099960,-0.764,0.2,0.642,-13.912,56.472,15.75
51099970,-0.754,0.182,0.587,-16.695,42.612,13.44
51099980,-0.74,0.168,0.577,-17.325,33.355,11.497
51099990,-0.749,0.163,0.591,-16.52,28.717,9.572
51100000,-0.729,0.171,0.633,-12.215,28.735,4.357
51100010,-0.713,0.236,0.696,-6.807,32.13,-0.927
51100020,-0.865,0.142,0.644,-4.585,29.82,9.537
51100030,-0.758,0.231,0.671,0.927,22.277,7.962
51100040,-0.773,0.229,0.615,-2.905,16.87,7.542
51100050,-0.809,0.211,0.589,-2.257,12.04,6.772
51100060,-0.825,0.242,0.582,0.805,4.725,5.232
51100070,-0.798,0.295,0.596,1.995,-2.327,2.905
51100080,-0.806,0.308,0.577,-3.447,-7.892,2.03
51100080,-0.791,0.285,0.562,-8.05,-10.342,-0.402
51100100,-0.808,0.275,0.568,-8.312,-9.73,-2.8
51100100,-0.838,0.268,0.6,-10.132,-10.587,-4.375
51100120,-0.864,0.242,0.607,-12.687,-17.027,-6.807
51100120,-0.844,0.236,0.618,-13.86,-27.685,-9.747
51100140,-0.784,0.226,0.618,-15.26,-37.835,-12.232
51100140,-0.725,0.194,0.683,-15.102,-42.56,-11.007
51100160,-0.79,0.223,0.703,-17.832,-47.582,-0.822
51100160,-0.847,0.27,0.677,-23.362,-62.772,0.682
51100170,-0.835,0.259,0.63,-30.52,-85.172,-2.747
51100180,-0.795,0.18,0.633,-38.692,-101.272,-8.015
51100190,-0.87,0.188,0.62,-37.887,-111.09,-15.452
51100200,-0.887,0.217,0.616,-37.817,-117.705,-20.667
51100210,-0.867,0.168,0.637,-33.425,-124.285,-18.83
51100220,-0.789,0.138,0.681,-27.93,-129.115,-15.68
51100230,-0.691,0.118,0.719,-15.452,-127.61,-10.01
51100240,-0.781,0.26,0.693,-3.675,-117.092,-4.917
51100250,-0.968,0.413,0.684,-15.137,-139.422,-13.142
51100260,-0.4,0.25,0.598,-40.232,-171.15,-22.942
51100270,0.108,0.065,0.68,-29.067,-141.907,-17.027
51100280,-0.192,0.139,0.844,-12.127,-87.972,-8.365
51100290,-0.48,0.103,0.951,-21.455,-56.507,-9.082
51100300,-0.369,-0.043,1.002,-17.377,-41.79,-10.902
51100310,-0.342,-0.086,0.927,9.852,-29.697,8.347
51100320,-0.47,0.023,0.96,43.557,-13.457,30.905
51100330,-0.551,0.142,0.881,60.007,0,36.015
51100340,-0.383,0.234,0.843,68.127,4.532,25.55
51100350,-0.357,0.372,0.635,64.417,23.187,25.55
51100360,-0.679,0.477,0.495,25.515,33.775,28.14
51100370,-0.572,0.354,0.495,6.37,35.945,9.59
51100380,-0.583,0.247,0.631,-1.942,42.28,-1.487
51100390,-0.729,0.255,0.765,-9.1,48.632,0.472
51100400,-0.754,0.206,0.849,-10.727,47.635,6.265
51100410,-0.615,0.165,0.877,1.47,45.185,16.8
51100420,-0.507,0.236,0.803,9.747,45.972,31.762
51100420,-0.617,0.15,0.905,11.27,50.767,40.32
51100440,-0.564,-0.022,0.968,17.78,33.88,29.295
51100440,-0.057,0.06,1.032,35.595,23.17,17.325
51100460,-0.023,0.114,0.886,38.587,38.29,18.2
51100460,-0.141,0.254,0.884,35.787,70.682,-2.8
51100480,-0.267,0.303,0.825,21.542,104.055,-26.547
51100480,-0.505,0.207,0.782,10.587,137.27,-33.81
51100500,-0.814,0.154,0.742,6.387,149.765,-31.99
51100500,-0.832,0.157,0.682,6.212,136.045,-24.482
51100510,-0.816,0.141,0.631,10.64,113.4,-4.585
51100520,-0.743,0.18,0.588,14.665,95.06,6.055
51100530,-0.719,0.268,0.587,14.752,86.345,1.155
51100540,-0.747,0.265,0.571,8.907,79.502,-5.075
51100550,-0.742,0.238,0.613,7.455,75.32,-5.792
51100560,-0.813,0.271,0.647,4.952,73.062,-6.072
51100570,-0.837,0.273,0.665,-0.157,71.19,-9.66
51100580,-0.859,0.232,0.656,-1.557,68.337,-10.08
51100590,-0.806,0.244,0.621,-1.837,62.212,-9.625
51100600,-0.758,0.273,0.6,-0.91,58.24,-5.425
51100610,-0.845,0.179,0.562,5.162,51.712,7.945
51100620,-0.784,0.269,0.572,7.087,46.235,4.287
51100630,-0.798,0.238,0.577,2.082,44.572,2.817
51100640,-0.832,0.2,0.59,2.625,45.01,0.875
51100650,-0.824,0.199,0.566,3.272,42.595,0.105
51100660,-0.798,0.214,0.564,5.407,40.057,0.735
51100670,-0.805,0.221,0.566,5.407,38.167,1.96
51100680,-0.814,0.211,0.553,4.025,35.822,2.45
51100690,-0.782,0.222,0.565,5.197,34.615,2.992
51100700,-0.811,0.255,0.572,5.005,34.965,3.64
51100710,-0.841,0.257,0.566,1.855,33.18,2.275
51100720,-0.853,0.235,0.535,-0.735,28.665,0.577
51100730,-0.866,0.23,0.522,-0.262,23.135,-0.262
51100740,-0.875,0.244,0.518,-1.697,18.41,0.595
51100750,-0.889,0.245,0.533,-2.677,12.652,1.172
51100760,-0.873,0.227,0.52,-5.302,6.807,2.275
51100770,-0.848,0.214,0.525,-3.955,1.487,1.347
51100780,-0.856,0.228,0.536,-3.955,-2.555,1.207
51100790,-0.902,0.236,0.535,-5.687,-8.89,0.455
51100800,-0.875,0.223,0.546,-7.472,-16.292,-1.435
51100810,-0.853,0.222,0.554,-8.785,-22.68,-3.377
51100820,-0.854,0.216,0.555,-10.535,-28.105,-4.917
51100830,-0.807,0.196,0.58,-12.215,-32.287,-6.772
51100830,-0.751,0.186,0.624,-12.915,-32.217,-7.962
51100850,-0.721,0.192,0.657,-14.052,-27.02,-7.822
51100850,-0.729,0.193,0.668,-15.61,-19.88,-6.685
51100870,-0.701,0.196,0.662,-17.307,-12.88,-7.157
51100870,-0.655,0.196,0.645,-20.002,-5.285,-8.715
51100890,-0.691,0.185,0.665,-20.825,3.237,-10.15
51100890,-0.783,0.154,0.663,-24.797,7.892,-7.892
51100910,-0.858,0.125,0.656,-23.8,5.565,-9.415
51100910,-0.852,0.094,0.806,-20.737,-0.14,-8.417
51100920,-0.458,-0.107,0.511,-25.375,13.247,-3.85
51100930,-0.396,-0.117,0.489,8.715,99.592,12.355
51100940,-1.299,0.16,0.563,47.967,139.02,34.265
51100950,-1.692,0.326,0.438,36.942,72.73,39.865
51100960,-1.36,0.214,0.395,29.61,-26.285,19.075
51100970,-1.198,0.064,0.341,40.565,-103.442,-3.622
51100980,-1.069,0.119,0.329,70.35,-152.985,-20.667
51100990,-0.82,0.325,0.389,95.777,-183.347,-36.242
51101000,-0.7,0.338,0.442,96.127,-196.402,-30.275
51101010,-0.62,0.201,0.435,97.597,-190.19,-3.307
51101020,-0.454,0.287,0.542,104.387,-156.467,5.215
51101030,-0.507,0.359,0.602,93.257,-102.2,8.382
51101040,-0.645,0.225,0.577,85.557,-50.032,18.795
51101050,-0.689,0.174,0.625,96.547,-8.68,33.775
51101060,-0.754,0.24,0.635,106.645,22.417,57.802
51101070,-0.815,0.292,0.608,123.672,39.83,82.512
51101080,-0.741,0.319,0.564,137.27,50.4,96.32
51101090,-0.706,0.323,0.579,149.747,60.515,98.14
51101100,-0.787,0.378,0.63,159.687,62.475,93.59
51101110,-0.79,0.448,0.627,161.997,49.455,88.585
51101120,-0.696,0.505,0.625,159.932,31.412,84.63
51101130,-0.633,0.527,0.576,150.85,17.325,77.84
51101140,-0.607,0.542,0.513,139.51,8.785,64.592
51101150,-0.616,0.57,0.475,130.847,4.847,48.09
51101160,-0.667,0.591,0.447,120.785,3.447,33.32
51101170,-0.737,0.601,0.412,111.737,-2.24,22.382
51101170,-0.724,0.613,0.376,103.617,-11.55,12.337
51101190,-0.684,0.63,0.344,94.622,-20.247,5.652
51101190,-0.633,0.64,0.318,86.817,-25.077,4.305
51101210,-0.606,0.642,0.317,78.382,-25.322,2.362
51101210,-0.606,0.663,0.338,68.162,-21.665,-1.47
51101230,-0.616,0.682,0.355,55.807,-17.325,-4.935
51101230,-0.658,0.647,0.351,44.415,-15.592,-6.597
51101250,-0.636,0.673,0.348,32.672,-15.785,-9.765
51101250,-0.665,0.638,0.343,21.717,-18.567,-9.065
51101260,-0.683,0.62,0.341,12.092,-25.025,-11.007
51101270,-0.691,0.61,0.348,4.427,-35.315,-14.455
51101280,-0.704,0.611,0.365,-1.05,-47.32,-16.765
51101290,-0.71,0.592,0.375,-6.65,-59.377,-18.252
51101300,-0.684,0.586,0.38,-13.072,-68.425,-21.63
51101310,-0.68,0.578,0.388,-18.042,-74.707,-24.727
51101320,-0.678,0.579,0.398,-23.047,-77.542,-27.23
51101330,-0.668,0.571,0.409,-29.015,-78.26,-30.047
51101340,-0.672,0.548,0.437,-32.585,-76.387,-30.87
51101350,-0.659,0.558,0.45,-37.45,-73.605,-32.795
51101360,-0.664,0.536,0.447,-40.6,-69.877,-31.167
51101370,-0.659,0.526,0.469,-37.555,-66.255,-27.842
51101380,-0.684,0.538,0.504,-33.88,-62.86,-22.995
51101390,-0.696,0.542,0.512,-34.405,-61.687,-20.842
51101400,-0.695,0.541,0.517,-33.74,-62.527,-19.512
51101410,-0.689,0.538,0.529,-32.357,-65.415,-16.87
51101420,-0.665,0.55,0.541,-33.705,-67.742,-15.907
51101430,-0.634,0.549,0.549,-36.47,-68.635,-17.727
51101440,-0.62,0.549,0.567,-39.707,-66.675,-20.475
51101450,-0.619,0.542,0.584,-45.132,-64.417,-23.642
51101460,-0.616,0.53,0.605,-50.61,-62.335,-27.055
51101470,-0.613,0.513,0.617,-55.387,-60.952,-30.537
51101480,-0.612,0.485,0.616,-59.955,-59.272,-33.827
51101490,-0.616,0.446,0.624,-62.002,-58.152,-36.085
51101500,-0.628,0.421,0.645,-60.375,-56.542,-36.05
51101510,-0.624,0.411,0.666,-57.207,-54.425,-34.142
51101520,-0.627,0.399,0.687,-53.217,-51.835,-26.845
51101530,-0.658,0.345,0.676,-47.232,-51.03,-15.89
51101540,-0.622,0.372,0.693,-40.757,-48.597,-14.122
51101550,-0.599,0.364,0.684,-36.785,-42.437,-11.2
51101560,-0.555,0.365,0.684,-31.465,-32.41,-9.397
51101570,-0.526,0.383,0.689,-28.122,-19.897,-6.685
51101580,-0.516,0.396,0.694,-28.175,-6.947,-2.817
51101580,-0.541,0.396,0.699,-29.19,4.987,0.997
51101600,-0.582,0.397,0.704,-30.1,14.42,3.727
51101600,-0.614,0.394,0.702,-31.937,20.23,5.232
51101620,-0.631,0.382,0.687,-33.232,23.012,5.285
51101620,-0.639,0.378,0.668,-32.707,24.885,4.042
51101640,-0.618,0.378,0.653,-30.257,27.3,2.502
51101640,-0.571,0.388,0.645,-27.667,32.83,2.327
51101660,-0.523,0.408,0.669,-26.792,43.505,4.042
51101660,-0.533,0.435,0.683,-29.837,58.327,7.14
51101670,-0.577,0.455,0.679,-36.207,73.587,10.29
51101680,-0.622,0.454,0.658,-44.59,87.395,13.825
51101690,-0.648,0.446,0.623,-53.83,97.755,18.095
51101700,-0.649,0.446,0.591,-62.93,106.382,23.59
51101710,-0.651,0.441,0.533,-71.995,114.975,29.207
51101720,-0.664,0.449,0.527,-81.252,125.422,33.127
51101730,-0.683,0.467,0.485,-100.835,134.47,32.217
51101740,-0.701,0.407,0.428,-118.247,140.997,25.812
51101750,-0.773,0.347,0.405,-126.647,145.985,19.967
51101760,-0.889,0.322,0.447,-129.115,144.112,15.872
51101770,-0.975,0.314,0.407,-129.342,132.527,9.205
51101780,-1.01,0.294,0.411,-121.8,113.172,1.662
51101790,-0.991,0.32,0.481,-112.507,87.202,-5.232
51101800,-1.021,0.298,0.454,-109.077,57.575,-3.36
51101810,-1,0.21,0.491,-84.577,28.437,-4.882
51101820,-0.894,0.315,0.607,-64.96,6.09,-9.432
51101830,-0.858,0.342,0.671,-67.392,-8.312,-9.45
51101840,-0.829,0.323,0.615,-81.445,-14.35,-12.722
51101850,-0.753,0.283,0.627,-86.817,-16.94,-15.015
51101860,-0.852,0.047,0.422,-85.26,-20.405,-3.622
51101870,-0.754,0.112,0.546,-52.15,-22.312,-11.602
51101880,-0.803,0.208,0.612,-40.285,-25.532,-16.012
51101890,-0.839,0.177,0.604,-40.232,-34.282,-18.077
51101900,-0.786,0.116,0.63,-35.577,-43.312,-19.932
51101910,-0.793,0.01,0.65,-25.707,-50.54,-18.2
51101920,-0.751,0.066,0.706,-7.42,-52.657,-16.975
51101920,-0.713,0.118,0.789,3.045,-53.532,-12.897
51101940,-0.652,0.115,0.74,-0.927,-50.557,-6.51
51101940,-0.566,0.06,0.698,-1.855,-38.115,-0.822
51101960,-0.603,-0.013,0.734,3.272,-19.39,5.687
51101960,-0.68,-0.086,0.84,14,-3.552,9.747
51101980,-0.682,-0.089,0.812,25.795,11.97,14.07
51101980,-0.78,0.059,0.863,38.447,19.022,15.645
51102000,-0.613,0.151,0.78,36.102,16.17,10.517
51102000,-0.437,0.102,0.666,27.3,25.777,10.99
51102010,-0.447,0.084,0.574,24.92,46.235,12.302
51102020,-0.536,0.125,0.543,23.957,71.627,11.83
51102030,-0.692,0.157,0.523,22.505,92.627,10.587
51102040,-0.878,0.241,0.536,18.585,97.86,16.66
51102050,-1.091,0.17,0.501,18.865,80.622,35.665
51102060,-0.914,0.33,0.535,15.085,63.927,20.755
51102070,-0.829,0.275,0.528,4.147,58.975,12.845
51102080,-0.796,0.21,0.521,4.095,58.852,5.775
51102090,-0.775,0.244,0.544,5.162,53.9,4.182
51102100,-0.71,0.296,0.566,1.26,46.97,3.902
51102110,-0.754,0.283,0.541,-4.637,42.332,5.81
51102120,-0.878,0.245,0.508,-7.927,38.465,7.332
51102130,-0.968,0.24,0.513,-6.527,32.06,8.067
51102140,-0.988,0.246,0.531,-5.967,24.342,5.932
51102150,-0.916,0.243,0.514,-7.525,16.677,1.487
51102160,-0.871,0.203,0.514,-8.312,11.077,-0.105
51102170,-0.851,0.169,0.521,-8.19,4.165,1.085
51102180,-0.852,0.164,0.507,-4.462,-2.485,3.955
51102190,-0.833,0.177,0.529,-0.945,-10.517,6.072
51102200,-0.927,0.135,0.548,1.697,-18.445,8.435
51102210,-0.855,0.182,0.533,8.802,-24.465,9.047
51102220,-0.768,0.268,0.513,11.62,-21.122,8.662
51102230,-0.772,0.253,0.527,6.755,-11.97,8.12
51102240,-0.794,0.226,0.505,4.27,-3.972,7.612
51102250,-0.822,0.23,0.522,4.445,0.875,7.227
51102260,-0.816,0.245,0.504,2.747,4.9,5.81
51102270,-0.823,0.258,0.483,3.027,9.45,3.815
51102280,-0.865,0.26,0.489,2.292,13.562,2.817
51102290,-0.872,0.265,0.48,2.677,14.84,1.47
51102300,-0.888,0.271,0.481,4.427,13.44,-0.42
51102310,-0.889,0.271,0.483,4.62,10.797,-2.292
51102320,-0.913,0.271,0.495,4.847,6.177,-4.2
51102330,-0.932,0.266,0.514,3.727,-1.33,-5.302
51102330,-0.955,0.252,0.51,1.907,-11.165,-6.597
51102350,-0.947,0.23,0.484,-0.07,-22.242,-8.785
51102350,-0.911,0.202,0.459,-1.365,-32.497,-10.237
51102370,-0.802,0.181,0.458,-0.525,-36.785,-9.765
51102370,-0.718,0.183,0.491,1.557,-32.602,-6.615
51102390,-0.705,0.167,0.511,0.875,-24.36,-3.22
51102390,-0.733,0.101,0.576,4.55,-17.08,0.63
51102400,-0.701,0.272,0.584,17.062,-7.525,4.322
51102410,-0.822,0.33,0.547,11.9,-1.277,2.625
51102420,-0.88,0.258,0.53,6.125,2.1,-1.522
51102430,-0.913,0.249,0.529,7.455,1.68,-4.41
51102440,-0.887,0.259,0.533,8.347,-1.732,-7.49
51102450,-0.835,0.248,0.537,9.152,-5.057,-8.33
51102460,-0.759,0.24,0.549,8.225,-5.442,-8.767
51102470,-0.75,0.235,0.57,6.807,-3.727,-3.552
51102480,-0.784,0.229,0.567,4.882,-2.835,1.347
51102490,-0.816,0.233,0.575,4.165,-5.092,1.54
51102500,-0.82,0.243,0.582,2.73,-10.132,0.84
51102510,-0.813,0.249,0.565,0.315,-16.327,0.122
51102520,-0.78,0.25,0.543,-2.94,-18.147,-1.47
51102530,-0.755,0.244,0.53,-6.212,-12.6,-2.082
51102540,-0.784,0.242,0.518,-8.995,-2.537,-3.622
51102550,-0.796,0.253,0.548,-9.467,9.012,-3.657
51102560,-0.827,0.259,0.557,-13.475,19.845,-3.15
51102570,-0.837,0.263,0.594,-19.53,26.722,-3.745
51102580,-0.887,0.215,0.6,-28.577,28.105,3.01
51102590,-0.897,0.154,0.602,-34.702,23.485,7.542
51102600,-0.899,0.081,0.492,-35.7,16.59,10.325
51102610,-0.791,0.063,0.48,-26.53,16.817,12.442
51102620,-0.869,0.063,0.498,-9.065,22.347,19.407
51102630,-1.052,0.093,0.527,7.437,18.707,23.117
51102640,-1.027,0.08,0.562,21.752,4.48,19.95
51102650,-0.991,0.043,0.541,42.542,-10.08,13.667
51102660,-0.874,0.057,0.499,70.77,-19.547,2.38
51102670,-0.743,0.121,0.532,99.487,-22.592,-4.375
51102670,-0.725,0.219,0.523,112.91,-22.225,-4.952
51102690,-0.841,0.207,0.478,120.452,-27.562,-5.722
51102690,-0.935,0.247,0.471,133.665,-41.107,-13.79
51102710,-0.997,0.281,0.437,151.497,-64.505,-13.055
51102710,-1.036,0.205,0.385,163.992,-92.785,1.645
51102730,-0.902,0.309,0.419,177.135,-116.427,-0.262
51102730,-0.762,0.457,0.491,174.632,-126.84,-16.695
51102750,-0.641,0.548,0.522,157.045,-121.467,-37.257
51102750,-0.664,0.492,0.521,134.662,-108.64,-45.307
51102760,-0.712,0.501,0.538,115.132,-95.252,-53.9
51102770,-0.798,0.471,0.499,89.635,-87.167,-55.387
51102780,-0.802,0.435,0.446,64.47,-86.292,-57.802
51102790,-0.755,0.419,0.369,42.472,-88.655,-63.665
51102800,-0.795,0.355,0.343,34.58,-92.732,-61.617
51102810,-0.835,0.346,0.383,35.122,-99.295,-55.755
51102820,-0.867,0.362,0.454,35.14,-104.142,-48.912
51102830,-0.809,0.403,0.484,31.202,-105.105,-45.36
51102840,-0.727,0.397,0.506,27.177,-98.612,-37.642
51102850,-0.657,0.403,0.529,21.665,-85.487,-27.737
51102860,-0.615,0.399,0.542,14.315,-68.285,-19.11
51102870,-0.599,0.383,0.54,6.055,-48.37,-12.845
51102880,-0.631,0.359,0.568,1.452,-27.597,-6.107
51102890,-0.678,0.357,0.596,-3.71,-11.935,0.437
51102900,-0.691,0.339,0.589,-9.45,-1.662,0.525
51102910,-0.71,0.342,0.614,-7.717,3.71,-1.382
51102920,-0.741,0.34,0.63,-7.315,2.94,-0.507
51102930,-0.747,0.334,0.643,-8.295,-3.85,0.105
51102940,-0.726,0.334,0.657,-9.345,-12.635,-0.682
51102950,-0.699,0.333,0.667,-11.287,-20.947,-0.822
51102960,-0.649,0.32,0.672,-13.492,-24.692,-0.525
51102970,-0.682,0.333,0.665,-15.977,-28.087,0.262
51102980,-0.698,0.338,0.647,-20.965,-31.745,0.577
51102990,-0.69,0.311,0.636,-24.552,-32.217,1.12
51103000,-0.682,0.293,0.639,-23.432,-29.12,0.647
51103010,-0.677,0.283,0.639,-19.32,-25.165,-0.595
51103020,-0.662,0.285,0.644,-15.19,-20.475,-2.152
51103030,-0.641,0.297,0.658,-11.83,-15.032,-3.465
51103040,-0.64,0.306,0.678,-9.817,-8.802,-4.182
51103050,-0.662,0.303,0.685,-9.24,-3.85,-4.76
51103060,-0.673,0.297,0.681,-8.4,-1.207,-4.427
51103070,-0.677,0.297,0.67,-6.825,-0.245,-3.272
51103070,-0.677,0.301,0.654,-5.617,0.122,-2.8
51103080,-0.684,0.302,0.647,-4.672,0.647,-3.412
51103090,-0.71,0.299,0.65,-4.305,0.717,-4.042
51103100,-0.723,0.304,0.656,-3.202,-0.682,-4.865
51103110,-0.718,0.309,0.655,-2.117,-3.815,-5.092
51103120,-0.699,0.312,0.653,-1.977,-6.23,-5.145
51103130,-0.695,0.313,0.652,-2.712,-7.542,-5.407
51103140,-0.695,0.308,0.652,-3.92,-7.175,-5.705
51103150,-0.692,0.298,0.651,-5.46,-6.44,-6.055
