time[ms],accX[g],accY[g],accZ[g],Value 1,Value 2,Value 3
50776190,-0.927,0.357,0.329,22.085,13.09,-0.787
50776210,-0.916,0.372,0.33,14.717,8.172,-7.49
50776210,-0.944,0.333,0.305,8.872,4.112,-5.092
50776230,-0.909,0.356,0.328,8.767,0.542,-4.357
50776230,-0.888,0.377,0.341,3.675,-0.962,-5.11
50776250,-0.898,0.35,0.332,-1.155,-1.767,-2.817
50776250,-0.903,0.338,0.338,-2.94,-1.417,-0.735
50776260,-0.897,0.343,0.343,-3.482,-1.05,0.21
50776270,-0.888,0.334,0.354,-3.622,0.087,1.382
50776280,-0.876,0.318,0.336,-4.147,0.402,3.237
50776290,-0.858,0.328,0.367,-1.89,0.647,4.707
50776300,-0.923,0.338,0.386,-1.137,-0.385,4.847
50776310,-0.88,0.331,0.379,-0.787,-1.785,3.027
50776320,-0.846,0.317,0.361,0.507,-3.535,4.76
50776330,-0.836,0.325,0.355,1.067,-1.767,6.16
50776340,-0.857,0.343,0.374,2.765,0.332,5.495
50776350,-0.867,0.342,0.365,0.507,2.94,2.765
50776360,-0.863,0.33,0.353,-0.962,4.917,0.735
50776370,-0.867,0.329,0.339,-1.925,8.05,0.07
50776380,-0.877,0.345,0.352,-1.89,9.747,-0.087
50776390,-0.914,0.323,0.331,-3.622,9.38,2.31
50776400,-0.903,0.344,0.34,-2.17,7.35,1.925
50776410,-0.908,0.341,0.333,-4.357,5.215,1.382
50776420,-0.903,0.335,0.329,-4.795,2.852,0.822
50776430,-0.904,0.334,0.332,-4.392,0.857,1.085
50776440,-0.9,0.344,0.336,-4.41,-1.05,0.542
50776450,-0.9,0.34,0.335,-4.637,-2.24,0.07
50776460,-0.887,0.336,0.336,-4.637,-2.765,-0.56
50776470,-0.882,0.341,0.344,-4.445,-2.52,-0.262
50776480,-0.879,0.342,0.347,-4.497,-1.82,0.052
50776490,-0.886,0.334,0.346,-4.9,-0.7,0.052
50776500,-0.893,0.323,0.344,-4.672,0.21,0.017
50776510,-0.892,0.321,0.342,-3.465,0.542,0.577
50776510,-0.886,0.325,0.345,-2.152,0.577,1.26
50776530,-0.884,0.333,0.348,-1.557,0.157,1.697
50776530,-0.882,0.337,0.35,-1.68,0.017,1.82
50776550,-0.879,0.336,0.349,-2.152,-0.14,1.68
50776550,-0.879,0.335,0.343,-2.817,0.297,1.417
50776570,-0.881,0.334,0.341,-3.342,0.77,0.875
50776570,-0.883,0.332,0.34,-4.095,1.067,0.472
50776580,-0.888,0.332,0.339,-4.602,0.7,0.087
50776590,-0.893,0.335,0.34,-5.057,0.49,-0.315
50776600,-0.886,0.335,0.336,-5.652,-0.315,-0.945
50776610,-0.883,0.331,0.331,-6.037,-0.49,-1.347
50776620,-0.885,0.333,0.331,-5.827,-0.63,-2.117
50776630,-0.898,0.329,0.334,-5.792,-0.227,-2.065
50776640,-0.912,0.323,0.334,-5.985,-0.787,-1.365
50776650,-0.905,0.326,0.335,-5.075,-1.697,-0.77
50776660,-0.896,0.329,0.336,-3.692,-2.642,-0.21
50776670,-0.89,0.329,0.334,-3.22,-2.327,0.402
50776680,-0.892,0.325,0.334,-2.537,-1.837,0.787
50776690,-0.895,0.326,0.338,-1.89,-1.19,1.172
50776700,-0.895,0.33,0.344,-1.347,-1.522,1.19
50776710,-0.889,0.334,0.344,-1.47,-1.697,1.102
50776720,-0.887,0.332,0.338,-1.837,-2.292,0.717
50776730,-0.887,0.329,0.335,-2.292,-2.432,0.315
50776740,-0.893,0.329,0.335,-2.8,-3.202,-0.14
50776750,-0.895,0.329,0.336,-3.482,-3.622,-0.7
50776760,-0.892,0.328,0.333,-4.165,-4.217,-1.295
50776770,-0.89,0.327,0.331,-4.777,-4.48,-1.61
50776780,-0.89,0.328,0.332,-5.127,-4.69,-1.61
50776790,-0.889,0.329,0.335,-5.425,-4.095,-1.715
50776800,-0.89,0.331,0.342,-6.02,-3.797,-1.995
50776810,-0.89,0.334,0.346,-6.93,-3.587,-2.187
50776820,-0.891,0.336,0.347,-8.067,-3.692,-2.52
50776830,-0.887,0.334,0.344,-9.59,-3.762,-3.027
50776840,-0.884,0.327,0.342,-11.06,-3.762,-3.342
50776850,-0.893,0.319,0.342,-12.092,-3.552,-3.605
50776860,-0.897,0.316,0.345,-12.827,-3.307,-4.077
50776870,-0.897,0.312,0.347,-12.862,-3.552,-4.077
50776880,-0.894,0.31,0.351,-12.495,-3.57,-3.867
50776890,-0.889,0.305,0.351,-11.917,-3.237,-3.535
50776900,-0.888,0.302,0.349,-10.885,-2.485,-3.132
50776910,-0.887,0.302,0.354,-9.432,-1.89,-2.502
50776920,-0.893,0.3,0.357,-7.962,-1.26,-1.802
50776920,-0.902,0.299,0.36,-6.615,-1.505,-1.61
50776940,-0.896,0.301,0.36,-5.302,-1.872,-1.295
50776940,-0.887,0.303,0.361,-3.955,-2.362,-0.542
50776960,-0.884,0.303,0.357,-3.22,-1.942,-0.035
50776960,-0.881,0.304,0.35,-2.817,-1.487,0.42
50776980,-0.884,0.303,0.347,-2.38,-0.262,1.032
50776980,-0.897,0.309,0.348,-2.38,0.385,1.015
50777000,-0.901,0.312,0.343,-2.852,0.385,0.647
50777000,-0.902,0.315,0.343,-3.272,-0.98,0.157
50777010,-0.905,0.319,0.342,-4.112,-2.485,-0.525
50777020,-0.906,0.317,0.341,-5.145,-4.515,-1.47
50777030,-0.902,0.315,0.342,-6.072,-5.355,-2.502
50777040,-0.896,0.314,0.351,-6.772,-6.195,-3.22
50777050,-0.895,0.312,0.355,-7.595,-6.335,-3.465
50777060,-0.897,0.306,0.357,-8.365,-6.352,-3.85
50777070,-0.891,0.301,0.364,-8.802,-6.055,-4.147
50777080,-0.884,0.295,0.367,-9.362,-6.352,-4.182
50777090,-0.877,0.291,0.367,-10.307,-5.407,-4.025
50777100,-0.876,0.29,0.372,-11.655,-4.217,-3.99
50777110,-0.874,0.295,0.372,-13.772,-2.135,-3.902
50777120,-0.882,0.293,0.375,-16.205,-0.682,-4.077
50777130,-0.902,0.281,0.396,-19.425,0.245,-5.337
50777140,-0.896,0.276,0.398,-22.522,-0.787,-7.49
50777150,-0.904,0.245,0.391,-24.692,-0.472,-7.595
50777160,-0.931,0.204,0.362,-25.882,-0.14,-8.505
50777170,-0.96,0.183,0.332,-24.132,0.875,-8.47
50777180,-1,0.208,0.305,-19.897,2.38,-7.455
50777190,-0.983,0.283,0.278,-18.445,-0.227,-9.66
50777200,-0.879,0.413,0.282,-16.87,2.275,-12.32
50777210,-0.828,0.5,0.301,-17.167,11.34,-12.267
50777220,-0.85,0.491,0.341,-25.532,24.64,-12.915
50777230,-0.878,0.403,0.301,-37.432,37.975,-15.12
50777240,-0.89,0.332,0.275,-45.552,52.482,-18.305
50777250,-0.951,0.32,0.269,-49.805,61.495,-21.752
50777260,-1.057,0.315,0.266,-54.425,57.82,-24.132
50777260,-1.16,0.273,0.262,-59.045,40.687,-21.577
50777280,-1.104,0.304,0.274,-60.812,14.21,-28.017
50777280,-1.085,0.251,0.26,-64.207,-13.632,-27.772
50777300,-1.006,0.066,0.315,-55.142,-39.2,-24.605
50777300,-0.863,0.094,0.424,-29.89,-45.832,-17.115
50777320,-0.902,0.244,0.508,-6.317,-46.182,-10.325
50777320,-0.937,0.37,0.419,-2.292,-51.222,-10.535
50777330,-0.918,0.397,0.32,-20.842,-54.127,-17.045
50777340,-0.899,0.278,0.207,-45.115,-57.505,-23.835
50777350,-0.78,0.08,0.135,-45.99,-56.192,-26.022
50777360,-0.66,0.085,0.156,-29.365,-39.497,-25.042
50777370,-0.757,0.21,0.243,-12.81,-19.512,-27.615
50777380,-0.896,0.283,0.326,-6.352,-9.957,-35.175
50777390,-1.068,0.284,0.379,-10.43,-13.37,-42.787
50777400,-1.197,0.286,0.403,-19.565,-32.147,-51.45
50777410,-1.161,0.239,0.4,-29.89,-58.52,-59.097
50777420,-1.046,-0.039,0.504,-31.045,-77.035,-56.42
50777430,-0.94,-0.16,0.67,-3.692,-73.972,-40.25
50777440,-0.854,0.158,0.846,22.557,-59.307,-23.922
50777450,-0.878,0.276,0.796,11.655,-32.025,-21.665
50777460,-0.922,0.103,0.589,-13.702,-10.29,-35.42
50777470,-0.977,0,0.389,-9.765,-11.952,-41.195
50777480,-0.859,0.139,0.439,6.16,-33.355,-36.837
50777490,-0.612,0.097,0.5,6.702,-34.16,-26.145
50777500,-0.746,0.045,0.546,1.732,-15.12,-22.61
50777510,-0.905,0.016,0.56,-5.18,-6.702,-29.417
50777520,-0.85,0.045,0.549,-14.385,-13.492,-33.267
50777530,-0.763,0.062,0.5,-24.465,-21.717,-29.82
50777540,-0.71,0.054,0.489,-28.91,-22.732,-27.965
50777550,-0.727,-0.015,0.44,-31.272,-18.62,-27.79
50777560,-0.81,-0.07,0.444,-24.027,-16.957,-26.897
50777570,-0.826,-0.044,0.434,-14.665,-22.26,-26.005
50777580,-0.782,0.014,0.474,-7.857,-24.832,-21.822
50777590,-0.847,0.012,0.489,-10.745,-24.15,-15.96
50777600,-0.872,-0.01,0.489,-13.947,-24.01,-14.787
50777610,-0.854,-0.017,0.463,-16.415,-22.697,-13.65
50777620,-0.97,-0.033,0.447,-18.83,-20.387,-8.347
50777630,-1.081,-0.013,0.456,-20.492,-26.862,-6.282
50777640,-1.096,0.003,0.503,-22.767,-45.08,-4.305
50777650,-1.114,0.058,0.535,-22.627,-69.632,-0.875
50777660,-0.965,0.046,0.561,-17.115,-102.637,-1.557
50777670,-0.177,0.044,0.436,2.747,-85.26,2.012
50777670,-0.722,0.08,0.565,11.935,-26.512,10.92
50777690,-1.084,0.101,0.605,2.205,-15.172,-3.762
50777690,-0.768,0.08,0.612,5.932,-33.04,-4.567
50777710,-0.694,0.077,0.612,9.975,-38.29,1.592
50777710,-0.635,0.109,0.661,18.9,-22.26,0.42
50777730,-0.891,0.103,0.681,16.17,-3.64,-2.345
50777730,-0.884,0.089,0.586,10.622,-6.282,-8.837
50777750,-0.99,0.089,0.515,9.677,-13.247,-2.957
50777750,-1.173,0.133,0.457,3.202,-31.202,-11.112
50777760,-0.242,-0.077,0.472,-4.567,-41.002,-26.95
50777770,-1.046,0,0.554,1.592,-9.555,-3.517
50777780,-1.122,0.139,0.59,-4.077,-18.602,-3.237
50777790,-0.724,0.055,0.564,-18.06,-36.697,-7.577
50777800,-0.785,0.025,0.553,-22.977,-35.297,0.665
50777810,-0.765,0.104,0.601,-29.54,-30.957,1.54
50777820,-0.781,0.023,0.658,-38.185,-29.925,1.225
50777830,-0.74,-0.056,0.666,-41.177,-29.26,0.98
50777840,-0.73,-0.003,0.646,-37.607,-30.117,3.815
50777850,-0.652,0.011,0.692,-31.132,-27.44,7.157
50777860,-0.849,0.124,0.735,-29.417,-17.64,2.065
50777870,-0.504,-0.012,0.709,-31.797,-9.222,-12.705
50777880,-0.604,-0.038,0.708,-17.097,17.832,-7.717
50777890,-0.813,0.13,0.621,-19.302,28.385,-4.34
50777900,-0.572,0.025,0.588,-19.162,30.292,-13.405
50777910,-0.432,-0.101,0.571,-17.85,46.41,-14.49
50777920,-0.656,-0.071,0.511,-11.515,64.417,-13.895
50777930,-0.622,-0.075,0.436,-10.185,66.587,-16.992
50777940,-0.578,-0.141,0.388,-10.29,71.242,-13.947
50777950,-0.756,-0.132,0.413,-8.995,80.342,-8.75
50777960,-0.891,-0.121,0.459,-7.14,85.312,-4.112
50777970,-1.025,-0.051,0.481,0.297,83.282,2.065
50777980,-0.994,-0.044,0.583,-2.292,69.842,6.807
50777990,-1.184,-0.171,0.445,11.952,55.195,33.95
50778000,-1.099,0.084,0.48,32.217,37.485,23.87
50778010,-1.014,0.044,0.396,19.215,23.625,5.407
50778010,-0.693,-0.027,0.353,18.095,26.355,9.03
50778030,-0.964,-0.038,0.471,13.09,31.167,13.335
50778030,-0.851,-0.064,0.45,11.812,27.16,14.367
50778050,-0.731,-0.087,0.457,11.34,25.882,15.995
50778050,-0.707,-0.023,0.484,9.782,34.002,16.467
50778070,-0.775,0.017,0.522,8.767,43.785,17.605
50778070,-0.833,0.059,0.534,3.85,51.87,14.875
50778080,-0.907,0.039,0.481,-0.91,56.367,8.907
50778090,-0.97,0.045,0.408,-3.447,59.132,7.192
50778100,-1.074,0.073,0.405,-3.045,55.247,9.117
50778110,-1.138,0.075,0.426,1.575,52.78,5.757
50778120,-1.208,0.07,0.459,1.382,47.267,-5.705
50778130,-1.295,0.03,0.438,-0.332,33.39,-11.847
50778140,-1.243,-0.033,0.312,1.89,15.592,-18.462
50778150,-1.142,0.01,0.303,9.187,-0.35,-25.935
50778160,-1.133,0.065,0.338,14.35,-13.492,-25.13
50778170,-1.09,0.054,0.374,16.257,-24.78,-28.385
50778180,-1.035,0.035,0.412,15.19,-33.74,-32.497
50778190,-1.051,0.042,0.481,11.917,-40.775,-32.917
50778200,-1.07,0.033,0.5,0.087,-50.522,-27.615
50778210,-0.94,0.035,0.496,-9.065,-60.042,-26.985
50778220,-0.8,0.039,0.506,-13.562,-59.902,-30.905
50778230,-0.81,0.055,0.564,-21.455,-51.17,-36.592
50778240,-0.864,0.031,0.552,-30.1,-43.942,-43.662
50778250,-0.862,-0.014,0.543,-32.585,-40.372,-47.092
50778260,-0.907,-0.005,0.614,-31.675,-42.297,-50.312
50778270,-0.624,0.071,0.414,-26.687,-35.192,-50.872
50778280,-0.804,-0.024,0.396,-28.507,-12.372,-47.127
50778290,-0.928,-0.104,0.448,-30.152,-4.812,-50.382
50778300,-0.747,-0.048,0.484,-17.15,-2.38,-44.695
50778310,-0.764,0.012,0.525,-16.432,6.965,-36.207
50778320,-0.831,0.005,0.445,-19.845,13.44,-33.985
50778330,-0.837,-0.012,0.414,-15.207,13.247,-30.765
50778340,-0.877,-0.064,0.426,-14.542,21.962,-28
50778350,-1.018,-0.095,0.355,-16.432,25.13,-30.87
50778360,-1.111,-0.105,0.393,-14.35,16.38,-35.227
50778370,-1.024,-0.114,0.439,-16.31,4.165,-38.587
50778380,-0.989,-0.178,0.584,-20.702,-0.805,-40.617
50778390,-0.948,-0.222,0.621,-24.867,-4.252,-45.885
50778400,-0.738,-0.205,0.6,-25.357,-11.847,-49.017
50778410,-0.512,-0.161,0.6,-20.16,-11.112,-42.822
50778420,-0.469,-0.148,0.562,-25.812,1.225,-38.115
50778420,-0.565,-0.234,0.476,-32.077,15.417,-27.947
50778440,-0.659,-0.301,0.394,-33.022,26.232,-16.187
50778440,-0.826,-0.299,0.337,-30.59,30.887,-7.84
50778460,-0.924,-0.32,0.26,-24.762,29.977,-3.36
50778460,-0.982,-0.282,0.284,-9.537,28.315,-8.697
50778480,-1.123,-0.267,0.302,-5.512,24.447,-10.377
50778480,-1.159,-0.259,0.308,-3.22,12.547,-14.962
50778500,-1.069,-0.268,0.3,3.325,1.785,-20.212
50778500,-0.988,-0.216,0.38,10.57,-3.78,-26.407
50778510,-0.909,-0.184,0.475,13.562,-5.057,-29.89
50778520,-0.812,-0.175,0.538,15.365,-3.5,-30.275
50778530,-0.951,-0.241,0.686,18.637,-2.87,-26.915
50778540,-0.586,-0.444,0.606,28.07,-7.892,-27.807
50778550,-0.332,-0.158,0.347,30.555,2.677,-18.795
50778560,-0.745,-0.217,0.274,34.195,17.062,6.492
50778570,-0.632,-0.1,0.329,67.147,-44.887,-23.59
50778580,0.632,-0.228,0.386,67.06,31.57,-14.525
50778590,-1.484,0.017,0.289,48.912,93.817,22.207
50778600,-1.557,-0.128,0.462,44.135,83.405,12.215
50778610,-0.898,-0.091,0.499,22.032,53.882,-6.3
50778620,-1.148,-0.067,0.43,2.905,48.895,21.857
50778630,-1.254,-0.027,0.467,-5.67,28.21,38.465
50778640,-1.013,-0.184,0.445,-10.885,14.945,25.392
50778650,-1.331,-0.229,0.506,-7.367,16.135,14
50778660,-1.408,-0.114,0.458,-1.505,4.585,-1.82
50778670,-1.258,-0.079,0.45,2.642,-14.997,-19.81
50778680,-0.987,-0.114,0.429,1.662,-25.322,-33.355
50778690,-0.872,-0.125,0.425,0.875,-25.147,-36.61
50778700,-0.84,-0.125,0.462,-2.94,-20.807,-38.745
50778710,-0.851,-0.23,0.469,-9.38,-21.017,-40.915
50778720,-0.744,-0.304,0.409,-12.18,-22.995,-40.355
50778730,-0.701,-0.337,0.387,-13.72,-21.332,-35.77
50778740,-0.799,-0.354,0.357,-16.047,-16.992,-30.975
50778750,-0.893,-0.342,0.343,-12.617,-20.842,-25.445
50778760,-0.845,-0.32,0.32,-9.905,-26.32,-23.467
50778760,-0.873,-0.335,0.294,-9.607,-29.435,-22.12
50778780,-0.888,-0.357,0.299,-9.082,-30.485,-22.435
50778780,-0.992,-0.317,0.341,-6.002,-33.25,-22.487
50778800,-1.011,-0.256,0.354,-3.587,-41.125,-23.922
50778800,-0.955,-0.222,0.378,0.035,-49.28,-25.34
50778820,-0.915,-0.207,0.42,-1.907,-52.447,-22.89
50778820,-0.891,-0.22,0.478,-5.267,-52.36,-15.942
50778830,-0.878,-0.234,0.488,-5.022,-52.01,-13.527
50778840,-0.908,-0.23,0.545,-3.027,-49.735,-19.635
50778850,-0.927,-0.262,0.549,-5.53,-47.267,-25.777
50778860,-0.961,-0.273,0.579,-4.9,-50.312,-27.02
50778870,-0.912,-0.242,0.602,-8.277,-55.16,-26.477
50778880,-0.87,-0.22,0.615,-10.92,-59.237,-28.14
50778890,-0.788,-0.296,0.649,-14.717,-57.715,-33.127
50778900,-0.623,-0.355,0.667,-17.727,-54.302,-34.79
50778910,-0.5,-0.372,0.636,-18.165,-49.717,-29.505
50778920,-0.364,-0.355,0.617,-16.607,-41.055,-22.137
50778930,-0.274,-0.319,0.559,-19.6,-27.3,-4.34
50778940,-0.238,-0.248,0.491,-25.672,-9.275,17.325
50778950,-0.29,-0.206,0.503,-26.932,19.075,35.28
50778960,-0.446,-0.182,0.545,-27.982,52.342,47.985
50778970,-0.652,-0.162,0.567,-31.57,78.732,57.505
50778980,-0.944,-0.245,0.604,-34.842,91.14,77.28
50778990,-1.265,-0.491,0.533,-36.225,88.515,90.755
50779000,-1.285,-0.528,0.684,-15.75,82.39,72.765
50779010,-1.352,-0.517,0.836,-10.045,70.28,64.505
50779020,-1.237,-0.642,0.795,0.822,43.942,61.652
50779030,-0.772,-0.675,0.445,23.537,55.44,61.022
50779040,-0.858,-0.438,0.322,56.07,95.06,77.752
50779050,-0.818,-0.52,0.384,82.565,133.192,91.49
50779060,-0.587,-0.683,0.229,104.685,197.837,106.872
50779070,-0.788,-0.587,0.242,155.015,269.552,145.407
50779080,-1.285,-0.34,0.354,185.29,303.87,172.077
50779090,-1.717,-0.038,0.424,168.77,270.392,171.447
50779100,-1.996,0.046,0.383,124.775,168.367,150.482
50779110,-1.998,-0.065,0.213,75.337,19.162,110.915
50779120,-1.786,-0.231,-0.059,42.402,-137.165,69.23
50779130,-1.065,-0.24,-0.271,31.587,-254.17,40.057
50779140,-0.428,-0.116,-0.259,26.722,-299.18,25.515
50779150,-0.204,0.038,-0.119,9.362,-280.017,12.705
50779160,-0.39,0.148,-0.012,-19.32,-237.685,-13.475
50779170,-0.718,0.105,0.048,-50.645,-206.447,-48.877
50779170,-0.934,0.016,0.153,-82.04,-199.482,-81.567
50779180,-0.903,-0.008,0.233,-106.767,-208.512,-98.63
50779190,-0.808,-0.018,0.279,-119.507,-219.992,-92.487
50779200,-0.719,0.009,0.345,-128.712,-222.565,-75.197
50779210,-0.615,0.008,0.352,-134.61,-211.54,-57.837
50779220,-0.498,0.008,0.391,-132.02,-186.48,-46.41
50779230,-0.547,-0.017,0.398,-128.065,-162.277,-35.56
50779240,-0.685,-0.092,0.398,-119.875,-147.507,-24.937
50779250,-0.73,-0.16,0.438,-100.905,-141.19,-15.435
50779260,-0.662,-0.207,0.511,-74.2,-135.782,-5.635
50779270,-0.55,-0.187,0.606,-43.137,-123.305,2.572
50779280,-0.506,-0.094,0.741,-14.437,-104.335,8.977
50779290,-0.518,-0.016,0.841,1.452,-82.687,14.577
50779300,-0.529,0.01,0.895,5.967,-61.67,16.467
50779310,-0.565,-0.012,0.899,4.83,-43.995,16.082
50779320,-0.614,-0.03,0.896,2.8,-31.972,14.822
50779330,-0.672,-0.03,0.893,3.885,-28.105,15.487
50779340,-0.707,-0.046,0.886,9.572,-31.955,17.552
50779350,-0.701,-0.057,0.873,20.457,-39.305,18.445
50779360,-0.669,-0.048,0.854,33.512,-46.847,19.547
50779370,-0.626,-0.01,0.855,45.64,-51.957,21.367
50779380,-0.597,0.027,0.863,54.162,-55.002,23.187
50779390,-0.555,0.06,0.855,58.275,-55.825,23.712
50779400,-0.488,0.089,0.853,58.572,-53.305,23.94
50779410,-0.436,0.096,0.818,57.102,-47.775,28.157
50779420,-0.387,0.097,0.793,56.962,-38.08,34.107
50779430,-0.372,0.101,0.781,57.33,-25.55,40.162
50779440,-0.39,0.125,0.791,58.187,-10.955,45.045
50779450,-0.444,0.161,0.816,57.4,1.995,48.265
50779460,-0.504,0.186,0.828,53.042,11.095,48.527
50779470,-0.544,0.198,0.828,46.182,15.592,44.922
50779480,-0.565,0.193,0.795,37.817,18.69,39.147
50779490,-0.609,0.195,0.8,33.705,19.81,33.46
50779500,-0.717,0.182,0.779,25.532,14.822,35.472
50779510,-0.769,0.154,0.765,19.932,3.657,38.622
50779510,-0.758,0.154,0.76,16.485,-5.687,37.8
50779530,-0.767,0.129,0.746,13.09,-11.917,34.352
50779530,-0.762,0.113,0.747,13.457,-13.37,26.827
50779550,-0.74,0.119,0.761,15.452,-11.847,19.092
50779550,-0.727,0.114,0.775,16.065,-8.627,15.137
50779570,-0.713,0.086,0.779,16.152,-3.867,13.527
50779570,-0.7,0.072,0.781,16.52,2.1,14.875
50779580,-0.679,0.073,0.792,18.095,7.892,17.255
50779590,-0.667,0.074,0.807,17.692,15.242,20.3
50779600,-0.664,0.075,0.83,14.857,23.257,19.652
50779610,-0.681,0.089,0.863,7.717,30.852,18.095
50779620,-0.706,0.071,0.911,-3.08,34.86,16.835
50779630,-0.727,0.042,0.936,-15.925,35.14,14.49
50779640,-0.755,-0.022,0.951,-28.787,31.097,11.497
50779650,-0.788,-0.109,0.953,-36.155,23.152,5.932
50779660,-0.786,-0.179,0.944,-36.89,9.572,-2.397
50779670,-0.77,-0.227,0.955,-29.855,-7.857,-7
50779680,-0.721,-0.248,0.946,-22.54,-27.265,-10.097
50779690,-0.654,-0.249,0.953,-11.585,-45.167,-13.457
50779700,-0.566,-0.229,0.937,-2.66,-59.342,-17.937
50779710,-0.459,-0.222,0.914,4.62,-64.557,-22.662
50779720,-0.369,-0.2,0.854,7.927,-58.957,-27.405
50779730,-0.373,-0.212,0.848,9.502,-48.545,-26.057
50779740,-0.335,-0.115,0.768,-7.105,-36.085,-28.665
50779750,-0.32,-0.123,0.704,-19.197,-20.685,-33.827
50779760,-0.439,-0.208,0.653,-21.14,-6.247,-28.402
50779770,-0.537,-0.192,0.631,-20.825,0.822,-25.2
50779780,-0.619,-0.121,0.64,-22.19,2.695,-21.472
50779790,-0.696,-0.086,0.658,-27.825,-0.21,-18.672
50779800,-0.737,-0.067,0.652,-37.782,-6.387,-22.837
50779810,-0.752,-0.072,0.646,-48.615,-13.877,-27.895
50779820,-0.759,-0.084,0.617,-59.867,-21.28,-32.322
50779830,-0.721,-0.064,0.604,-67.392,-26.95,-39.41
50779840,-0.717,-0.1,0.6,-69.545,-32.252,-39.462
50779850,-0.691,-0.127,0.611,-69.825,-37.607,-34.335
50779860,-0.626,-0.145,0.628,-68.442,-39.13,-29.067
50779870,-0.599,-0.164,0.665,-62.79,-36.907,-22.4
50779870,-0.614,-0.186,0.707,-57.855,-31.255,-15.417
50779890,-0.604,-0.206,0.726,-54.057,-24.272,-10.097
50779890,-0.589,-0.261,0.75,-45.71,-15.155,-4.025
50779910,-0.605,-0.281,0.793,-34.02,-6.93,-0.227
50779910,-0.645,-0.278,0.827,-24.482,-1.732,4.497
50779920,-0.64,-0.268,0.848,-16.607,-0.735,5.81
50779930,-0.622,-0.251,0.865,-10.132,-2.257,6.265
50779940,-0.613,-0.225,0.848,-7.402,-4.917,6.212
50779950,-0.589,-0.203,0.836,-4.707,-5.32,5.46
50779960,-0.588,-0.175,0.818,-4.025,-5.39,7.437
50779970,-0.575,-0.152,0.787,-5.582,-4.55,8.522
50779980,-0.554,-0.134,0.74,-6.44,-3.097,11.585
50779990,-0.516,-0.113,0.689,-4.9,1.015,14.7
50780000,-0.485,-0.08,0.663,-2.432,8.365,18.795
50780010,-0.492,-0.051,0.651,-1.102,16.887,23.607
50780020,-0.5,-0.033,0.637,-1.26,25.795,28.07
50780030,-0.555,-0.033,0.632,-3.587,34.562,32.305
50780040,-0.629,-0.049,0.64,-5.81,40.985,33.232
50780050,-0.68,-0.044,0.661,-7.122,43.942,28.087
50780060,-0.741,-0.075,0.658,-5.775,41.492,23.642
50780070,-0.781,-0.075,0.693,-1.907,34.702,16.992
50780080,-0.827,-0.095,0.713,1.872,21.42,11.55
50780090,-0.799,-0.091,0.768,5.495,3.71,4.13
50780100,-0.775,-0.087,0.803,5.11,-12.88,-3.745
50780110,-0.787,-0.077,0.826,0.805,-30.012,-10.57
50780120,-0.779,-0.073,0.837,-7.77,-48.317,-17.657
50780130,-0.72,-0.083,0.824,-18.27,-64.907,-24.745
50780140,-0.673,-0.103,0.786,-27.44,-79.327,-29.33
50780150,-0.623,-0.123,0.746,-35.052,-91.035,-31.43
50780160,-0.539,-0.143,0.72,-39.27,-97.037,-31.605
50780170,-0.457,-0.167,0.72,-41.492,-94.622,-29.225
50780180,-0.419,-0.208,0.736,-43.032,-84.892,-24.727
50780190,-0.207,-0.363,0.927,-44.59,-66.062,-18.165
50780200,0.028,-0.805,0.803,-32.69,-4.042,6.527
50780210,-0.626,-0.568,0.893,37.73,56.682,39.69
50780220,-1.205,-0.131,1.245,61.32,38.745,52.972
50780230,-1.037,-0.196,1.096,20.317,-9.45,45.185
50780240,-0.582,-0.336,1.001,11.042,-33.635,25.445
50780250,-0.494,-0.314,0.961,11.375,-21.822,24.08
50780260,-0.68,-0.323,0.913,9.397,-5.705,29.977
50780260,-0.641,-0.327,0.854,15.592,0.84,26.722
50780280,-0.616,-0.275,0.803,25.2,2.66,26.145
50780280,-0.564,-0.201,0.803,31.535,5.302,27.37
50780300,-0.464,-0.21,0.785,32.76,19.372,28.542
50780300,-0.394,-0.216,0.768,36.172,49.542,27.457
50780320,-0.486,-0.181,0.781,36.977,89.022,26.757
50780320,-0.638,-0.124,0.756,29.47,119.647,23.45
50780330,-0.75,-0.067,0.734,21.035,134.295,18.672
50780340,-0.906,-0.046,0.693,15.802,124.827,19.25
50780350,-0.994,-0.11,0.65,18.69,97.737,25.76
50780360,-0.967,-0.124,0.614,28.472,67.462,35.035
50780370,-0.893,-0.07,0.612,41.3,42.157,41.702
50780380,-0.799,-0.045,0.622,49.7,26.215,42.857
50780390,-0.663,-0.032,0.622,50.277,25.655,39.812
50780400,-0.592,0.011,0.639,44.345,35.175,35.14
50780410,-0.522,0.053,0.631,35.542,47.092,32.06
50780420,-0.457,0.06,0.617,26.337,63.56,32.2
50780430,-0.531,0.023,0.575,16.957,81.077,34.072
50780440,-0.616,-0.023,0.536,12.565,93.24,31.097
50780450,-0.689,-0.041,0.531,17.64,96.11,26.25
50780460,-0.753,-0.053,0.567,28.525,88.287,26.792
50780470,-0.764,-0.032,0.622,40.792,74.077,28.49
50780480,-0.766,-0.015,0.658,53.112,55.772,30.765
50780490,-0.681,0.031,0.728,58.135,41.632,34.072
50780500,-0.601,0.072,0.753,59.43,37.205,39.112
50780510,-0.603,0.101,0.779,52.307,41.125,42.455
50780520,-0.6,0.063,0.767,39.357,48.387,40.862
50780530,-0.575,0.071,0.738,29.732,57.557,37.922
50780540,-0.638,0.039,0.73,24.325,66.482,38.937
50780550,-0.755,0.067,0.691,19.775,68.932,39.357
50780560,-0.803,0.044,0.701,22.015,57.802,38.255
50780570,-0.766,0.024,0.658,24.08,39.2,40.127
50780580,-0.732,0.058,0.657,31.412,23.152,42.822
50780580,-0.692,0.072,0.663,40.04,11.62,45.727
50780600,-0.676,0.07,0.66,46.182,7.245,48.02
50780600,-0.601,0.08,0.726,53.812,7.297,45.832
50780620,-0.616,0.102,0.773,52.692,11.637,41.282
50780620,-0.685,0.083,0.831,51.975,13.965,33.25
50780640,-0.658,0.045,0.81,54.075,4.602,28.56
50780640,-0.45,0.113,0.743,60.952,-4.48,30.572
50780660,-0.313,0.189,0.646,65.047,11.375,37.572
50780660,-0.42,0.205,0.614,67.322,48.772,40.967
50780670,-0.604,0.248,0.631,64.05,87.57,38.027
50780680,-0.786,0.31,0.636,53.182,113.015,32.865
50780690,-0.99,0.307,0.613,37.45,121.642,25.9
50780700,-1.132,0.262,0.543,19.547,109.182,14.927
50780710,-1.173,0.244,0.463,5.757,80.972,5.985
50780720,-1.118,0.234,0.399,-2.992,45.255,2.187
50780730,-1.069,0.193,0.372,-6.632,14.175,3.745
50780740,-1.04,0.195,0.406,-6.702,-11.62,5.827
50780750,-1.005,0.235,0.47,-6.615,-33.687,4.427
50780760,-1.026,0.242,0.552,-9.31,-54.092,3.762
50780770,-1.221,0.203,0.679,-17.01,-82.722,-1.19
50780780,-0.942,0.272,0.657,-28.507,-128.327,-11.375
50780790,-0.5,0.183,0.619,-38.097,-136.412,-9.52
50780800,-0.453,0.107,0.727,-33.285,-101.062,-9.45
50780810,-0.584,0.221,0.794,-25.707,-57.977,-11.34
50780820,-0.62,0.284,0.83,-39.2,-15.592,-17.832
50780830,-0.601,0.222,0.787,-59.062,23.327,-27.737
50780840,-0.736,0.096,0.692,-66.71,47.162,-35.91
50780850,-0.779,0.018,0.632,-60.795,52.64,-38.955
50780860,-0.854,0.02,0.574,-48.335,44.275,-30.555
50780870,-0.819,-0.007,0.477,-32.497,28.017,-21.77
50780880,-0.778,-0.011,0.458,-10.57,18.97,-18.917
50780890,-0.886,0.026,0.498,10.797,9.712,-19.162
50780900,-0.924,0.126,0.532,25.935,-6.16,-21.507
50780910,-0.879,0.197,0.522,31.727,-21.385,-23.31
50780920,-0.883,0.223,0.527,29.067,-30.275,-27.335
50780930,-0.892,0.256,0.536,18.585,-39.165,-36.365
50780940,-0.863,0.276,0.531,6.247,-49.035,-43.4
50780950,-0.814,0.29,0.501,-9.817,-55.002,-48.842
50780960,-0.796,0.262,0.453,-24.762,-54.197,-54.145
50780970,-0.745,0.24,0.391,-35.437,-49.332,-61.897
50780980,-0.68,0.204,0.379,-40.162,-39.497,-61.705
50780990,-0.709,0.139,0.377,-38.867,-29.47,-53.287
50781000,-0.747,0.113,0.429,-31.342,-18.795,-44.415
50781010,-0.783,0.103,0.489,-23.852,-9.415,-35.875
50781010,-0.8,0.089,0.543,-15.96,-0.63,-29.032
50781030,-0.803,0.082,0.597,-9.73,7.315,-26.11
50781030,-0.825,0.098,0.642,-8.085,14.595,-19.862
50781050,-0.955,-0.046,0.617,-1.015,12.075,-2.187
50781050,-0.856,0.04,0.694,12.285,9.1,-9.94
50781070,-0.876,0.067,0.698,6.317,8.697,-15.505
50781070,-0.907,0.036,0.707,4.655,6.37,-12.81
50781080,-0.894,0.003,0.667,1.715,0.84,-9.152
50781090,-0.877,0.029,0.653,1.557,-3.99,-6.982
50781100,-0.886,0.019,0.628,-0.245,-8.995,-1.627
50781110,-0.85,0.018,0.604,-2.012,-12.477,-0.752
50781120,-0.841,0.008,0.586,-4.41,-12.705,-0.175
50781130,-0.816,0.013,0.58,-7.052,-9.87,0.56
50781140,-0.804,0.004,0.571,-10.342,-5.39,3.395
50781150,-0.801,0.003,0.568,-11.917,-0.245,5.46
50781160,-0.809,0.018,0.573,-13.002,3.815,6.58
50781170,-0.826,0.033,0.581,-13.615,4.935,6.667
50781180,-0.824,0.033,0.587,-14.752,3.15,5.827
50781190,-0.814,0.031,0.587,-16.047,0.122,4.462
50781200,-0.809,0.026,0.576,-17.027,-2.502,3.412
50781210,-0.8,0.023,0.572,-16.817,-4.742,2.047
50781220,-0.794,0,0.563,-14.122,-7.017,-0.525
50781230,-0.734,0.015,0.594,-8.522,-6.37,-5.617
50781240,-0.691,0.055,0.599,-7.577,-1.207,-9.66
50781250,-0.779,0.04,0.587,-12.617,3.815,-0.367
50781260,-0.796,-0.077,0.553,2.415,2.17,11.095
50781270,-0.703,0.066,0.599,16.257,3.867,0.91
50781280,-0.756,0.124,0.586,5.267,10.29,-2.345
50781290,-0.764,-0.001,0.525,-0.787,11.725,4.655
50781300,-0.692,0.024,0.526,2.782,15.242,7.77
50781310,-0.817,-0.007,0.537,14.262,16.485,21.805
50781320,-0.771,0.107,0.591,21.262,15.452,18.287
50781330,-0.765,0.099,0.598,12.582,17.255,14.07
50781330,-0.795,0.05,0.637,7.595,23.327,15.977
50781350,-0.822,0.034,0.658,3.675,29.225,17.85
50781350,-0.864,0.04,0.642,0.962,33.355,15.137
50781370,-0.896,0.05,0.642,1.627,33.67,8.295
50781370,-0.935,0.043,0.626,1.137,31.272,9.362
50781390,-0.897,0.065,0.62,-0.7,28.157,9.607
50781390,-0.926,0.043,0.586,-3.675,25.987,8.102
50781410,-0.937,0.04,0.58,-3.272,22.19,5.005
50781410,-0.977,0.055,0.569,-1.505,17.272,8.015
50781420,-0.958,0.053,0.563,-0.682,8.802,5.477
50781430,-0.911,0.041,0.559,-0.402,3.342,1.575
50781440,-0.889,0.024,0.55,0.7,-0.315,0.927
50781450,-0.882,0.03,0.539,1.225,-3.447,1.242
50781460,-0.885,0.036,0.532,2.695,-7.105,0.42
50781470,-0.874,0.029,0.53,4.235,-10.395,-0.997
50781480,-0.897,0.016,0.515,6.492,-15.347,-2.327
50781490,-0.897,0.038,0.507,12.092,-25.165,-2.327
50781500,-0.794,0.089,0.512,17.447,-31.062,-1.26
50781510,-0.796,0.101,0.548,15.102,-30.66,0.175
50781520,-0.776,0.075,0.573,11.007,-25.182,0.42
50781530,-0.779,0.056,0.599,10.115,-18.812,2.222
50781540,-0.777,0.079,0.607,8.277,-13.422,4.06
50781550,-0.765,0.099,0.605,5.792,-8.855,5.81
50781560,-0.767,0.099,0.596,3.5,-4.952,7.77
50781570,-0.786,0.082,0.584,1.067,-2.152,9.292
50781580,-0.79,0.074,0.577,0.77,0.087,10.412
50781590,-0.802,0.085,0.576,1.365,2.205,11.322
50781600,-0.836,0.102,0.572,1.277,3.92,11.445
50781610,-0.855,0.104,0.554,0.56,3.57,8.855
50781620,-0.849,0.102,0.552,1.505,3.132,3.115
50781630,-0.878,0.097,0.562,2.835,2.257,2.835
50781640,-0.902,0.093,0.558,0.105,-1.172,5.88
50781650,-0.883,0.087,0.56,-0.91,-5.442,5.617
50781660,-0.868,0.082,0.573,-0.017,-7.42,3.797
50781670,-0.852,0.088,0.577,-0.385,-8.137,2.31
50781680,-0.834,0.095,0.584,-1.067,-8.277,1.435
50781690,-0.809,0.09,0.599,-2.135,-8.032,1.085
50781700,-0.801,0.08,0.602,-3.325,-6.352,1.785
50781710,-0.795,0.075,0.593,-3.762,-4.987,3.132
50781720,-0.787,0.08,0.578,-4.287,-3.377,4.83
50781730,-0.787,0.083,0.571,-4.987,-2.345,6.265
50781740,-0.798,0.073,0.569,-5.477,0.245,7.017
50781750,-0.824,0.071,0.564,-5.32,2.59,7.402
50781760,-0.851,0.074,0.558,-4.812,3.587,7.262
50781760,-0.848,0.078,0.552,-2.887,2.817,3.202
50781780,-0.855,0.085,0.564,-1.085,2.66,1.05
50781780,-0.876,0.072,0.546,-3.92,0.7,3.412
50781800,-0.864,0.068,0.535,-3.587,-1.925,4.235
50781800,-0.854,0.074,0.545,-1.785,-3.85,3.71
50781820,-0.856,0.07,0.549,-2.152,-4.847,2.59
50781820,-0.85,0.065,0.558,-1.697,-6.825,1.662
50781830,-0.828,0.075,0.569,-1.155,-8.295,1.452
50781840,-0.809,0.084,0.569,-1.242,-8.785,1.645
50781850,-0.797,0.087,0.564,-1.767,-7.752,2.485
50781860,-0.796,0.091,0.567,-1.995,-5.775,3.535
50781870,-0.809,0.093,0.575,-2.222,-3.71,4.2
50781880,-0.817,0.09,0.581,-2.1,-2.222,4.777
50781890,-0.839,0.09,0.584,-1.837,-1.54,5.337
50781900,-0.847,0.094,0.581,-1.697,-1.75,4.882
50781910,-0.843,0.097,0.571,-1.802,-2.327,3.902
50781920,-0.834,0.099,0.559,-2.047,-2.257,3.062
50781930,-0.839,0.095,0.552,-1.75,-2.1,2.327
50781940,-0.84,0.081,0.552,-1.54,-2.66,1.417
50781950,-0.832,0.07,0.554,-1.242,-3.185,0.735
50781960,-0.834,0.069,0.559,-0.245,-3.202,0.525
50781970,-0.834,0.081,0.566,0.7,-3.43,0.56
50781980,-0.828,0.095,0.569,0.962,-3.745,0.875
50781990,-0.833,0.102,0.576,0.787,-4.2,0.752
50782000,-0.817,0.099,0.587,0.332,-4.55,-0.367
50782010,-0.779,0.087,0.603,-0.49,-3.885,-1.015
50782020,-0.785,0.092,0.599,-1.102,-1.085,1.295
50782030,-0.812,0.119,0.585,-1.33,1.12,3.762
50782040,-0.817,0.133,0.564,-2.485,2.292,3.902
50782050,-0.814,0.111,0.556,-3.727,2.957,1.697
50782060,-0.81,0.095,0.56,-1.907,5.04,-1.505
50782070,-0.845,0.082,0.578,-2.467,7.245,0.35
50782080,-0.854,0.075,0.578,-4.13,6.632,1.61
50782080,-0.857,0.072,0.57,-2.222,5.215,0.787
50782100,-0.836,0.082,0.553,-1.137,4.812,-1.54
50782100,-0.813,0.084,0.542,-0.612,4.795,-3.097
50782120,-0.802,0.078,0.55,-1.277,6.825,-2.975
50782120,-0.83,0.063,0.562,-1.732,8.452,-0.262
50782140,-0.833,0.067,0.56,-1.47,8.505,1.102
50782140,-0.834,0.074,0.556,0,7.682,0.63
50782160,-0.819,0.084,0.56,1.225,8.82,-1.68
50782160,-0.824,0.08,0.569,1.417,10.36,-3.01
50782170,-0.821,0.07,0.582,0.507,11.812,-1.417
50782180,-0.826,0.066,0.582,-0.577,12.985,1.977
50782190,-0.795,0.082,0.591,0.455,15.75,2.73
50782200,-0.821,0.097,0.63,2.397,19.95,4.375
50782210,-0.879,0.084,0.649,0,21.56,8.872
50782220,-0.887,0.067,0.659,1.417,20.072,9.607
50782230,-0.875,0.048,0.723,6.632,20.475,8.102
50782240,-0.812,0.03,0.745,7.91,30.747,5.775
50782250,-0.909,-0.042,0.722,2.135,42.892,14.21
50782260,-0.957,-0.055,0.66,4.252,47.232,13.825
50782270,-0.829,-0.044,0.635,12.46,53.077,6.632
50782280,-0.837,-0.077,0.613,21.647,67.147,8.75
50782290,-0.936,-0.086,0.608,37.537,81.042,16.205
50782300,-1.04,-0.041,0.623,55.51,84.962,21.892
50782310,-1.068,0.019,0.615,69.125,82.285,25.147
50782320,-1.071,0.086,0.635,77.49,77.805,23.607
50782330,-1.06,0.124,0.609,76.037,68.355,20.335
50782340,-0.976,0.195,0.527,70.28,59.43,21.21
50782350,-1.023,0.165,0.489,70.542,49.49,33.6
50782360,-1.047,0.177,0.449,72.87,33.827,37.992
50782370,-1.049,0.201,0.425,77.052,16.065,31.482
50782380,-1.021,0.25,0.428,76.352,0.385,23.152
50782390,-1.018,0.269,0.4,71.627,-15.61,15.312
50782400,-0.995,0.285,0.398,67.742,-31.5,8.54
50782410,-0.971,0.306,0.394,60.69,-47.6,0
50782420,-0.954,0.324,0.404,53.34,-63.507,-5.932
50782430,-0.949,0.322,0.407,45.745,-79.432,-11.235
50782440,-0.915,0.303,0.41,37.45,-92.645,-17.5
50782450,-0.847,0.303,0.412,28.805,-102.987,-27.492
50782460,-0.823,0.271,0.406,20.457,-109.252,-33.915
50782470,-0.77,0.266,0.398,11.725,-111.16,-43.242
50782480,-0.74,0.253,0.388,2.467,-108.535,-53.235
50782490,-0.712,0.246,0.371,-6.702,-103.512,-62.597
50782500,-0.704,0.242,0.364,-15.82,-97.86,-68.425
50782510,-0.722,0.218,0.368,-23.572,-94.482,-70.14
50782510,-0.738,0.188,0.365,-31.955,-92.767,-70.577
50782530,-0.758,0.159,0.346,-37.52,-93.537,-67.987
50782530,-0.823,0.101,0.437,-38.762,-95.917,-55.702
50782550,-0.813,0.15,0.365,-55.702,-100.905,-53.48
50782550,-0.791,0.069,0.391,-49.455,-102.847,-58.152
50782570,-0.775,0.065,0.439,-43.207,-102.06,-55.93
50782570,-0.758,0.071,0.465,-42.472,-102.375,-54.547
50782580,-0.735,0.079,0.494,-39.392,-102.147,-52.535
50782590,-0.715,0.058,0.522,-39.83,-100.642,-47.512
50782600,-0.692,0.029,0.532,-42.21,-97.685,-43.837
50782610,-0.673,-0.007,0.548,-39.987,-92.435,-41.23
50782620,-0.665,-0.016,0.578,-34.65,-86.485,-36.785
50782630,-0.674,-0.008,0.603,-30.1,-81.585,-31.78
50782640,-0.668,-0.015,0.623,-26.705,-77.385,-29.505
50782650,-0.662,-0.031,0.649,-24.185,-72.572,-28.21
50782660,-0.658,-0.047,0.658,-21.717,-67.34,-28.857
50782670,-0.654,-0.046,0.674,-17.325,-62.212,-29.855
50782680,-0.662,-0.053,0.688,-12.565,-58.765,-28.472
50782690,-0.657,-0.06,0.7,-7.455,-56.192,-26.337
50782700,-0.652,-0.054,0.717,-2.45,-53.62,-22.89
50782710,-0.641,-0.04,0.731,0.315,-50.592,-20.947
50782720,-0.647,-0.032,0.752,2.135,-46.865,-19.512
50782730,-0.655,-0.032,0.767,1.75,-43.312,-17.132
50782740,-0.644,-0.028,0.763,-0.84,-39.917,-17.097
50782750,-0.635,-0.035,0.752,-1.592,-36.19,-17.325
50782760,-0.625,-0.041,0.743,-0.245,-31.447,-15.085
50782770,-0.602,-0.023,0.738,2.73,-26.075,-10.5
50782780,-0.567,-0.006,0.719,3.482,-18.042,-5.617
50782790,-0.536,-0.024,0.69,6.877,-6.772,2.275
50782800,-0.471,-0.016,0.65,12.285,10.64,8.47
50782810,-0.326,0.019,0.665,17.867,40.722,18.182
50782820,-0.332,0.057,0.667,18.97,79.152,30.922
50782830,-0.48,0.089,0.663,12.705,118.247,34.055
50782830,-0.506,0.225,0.68,-9.135,154.577,14.035
50782850,-0.736,0.02,0.55,-37.695,175.07,18.34
50782850,-0.867,-0.145,0.504,-34.72,183.33,15.417
50782870,-1.035,-0.183,0.51,-16.8,174.212,12.32
50782870,-1.165,-0.105,0.571,2.747,146.982,9.205
50782890,-1.252,-0.062,0.622,14.84,102.34,6.072
50782890,-1.262,-0.047,0.651,23.187,47.547,4.27
50782910,-1.206,-0.03,0.658,27.37,-8.557,0.122
50782910,-1.121,0,0.654,28.595,-57.417,-5.442
50782920,-0.986,0.04,0.655,26.897,-93.957,-13.93
50782930,-0.859,0.06,0.657,20.825,-115.395,-19.337
50782940,-0.72,0.063,0.667,12.32,-121.17,-22.032
50782950,-0.637,0.05,0.686,2.415,-113.032,-20.982
50782960,-0.586,0.019,0.709,-6.632,-97.107,-16.117
50782970,-0.513,-0.033,0.743,-12.04,-73.57,-7.28
50782980,-0.508,-0.09,0.756,-14.63,-46.375,3.587
50782990,-0.512,-0.132,0.785,-13.597,-14.525,12.792
50783000,-0.592,-0.145,0.829,-9.625,14.052,20.265
50783010,-0.674,-0.162,0.869,-4.777,33.932,26.705
50783020,-0.73,-0.174,0.891,2.415,45.202,31.552
50783030,-0.789,-0.17,0.912,10.097,49.035,34.965
50783040,-0.839,-0.153,0.919,16.887,46.41,36.312
50783050,-0.843,-0.138,0.908,23.1,38.272,36.942
50783060,-0.825,-0.134,0.873,30.677,27.422,40.775
50783070,-0.792,-0.107,0.843,40.985,16.765,44.677
50783080,-0.774,-0.061,0.806,50.75,7.997,48.37
50783090,-0.732,0.005,0.783,57.487,2.152,50.487
50783100,-0.7,0.054,0.749,59.045,-0.175,54.6
50783110,-0.673,0.096,0.721,59.902,0.262,57.802
50783120,-0.67,0.141,0.699,58.642,3.272,58.905
50783130,-0.676,0.174,0.696,55.72,6.527,56.087
50783140,-0.687,0.203,0.669,47.162,10.972,51.012
50783150,-0.686,0.229,0.661,40.005,14.787,44.87
50783160,-0.713,0.244,0.634,32.462,17.115,39.742
50783170,-0.724,0.268,0.638,27.772,16.66,32.322
50783180,-0.772,0.271,0.602,18.672,13.335,26.617
50783190,-0.763,0.285,0.59,13.142,8.015,14.752
50783200,-0.772,0.309,0.613,6.527,3.36,4.077
50783210,-0.828,0.286,0.598,-4.48,-5.495,0.035
50783220,-0.842,0.273,0.6,-9.082,-17.342,-6.107
50783230,-0.82,0.28,0.604,-15.242,-30.117,-11.917
50783240,-0.789,0.279,0.604,-23.275,-40.022,-16.292
50783250,-0.761,0.259,0.594,-31.605,-47.827,-20.685
50783260,-0.741,0.22,0.575,-36.015,-54.092,-24.132
50783260,-0.713,0.195,0.578,-35.717,-59.115,-26.46
50783270,-0.699,0.196,0.606,-35.875,-62.807,-28.245
50783280,-0.686,0.222,0.645,-40.617,-66.902,-31.307
50783290,-0.678,0.203,0.659,-48.685,-71.785,-33.88
50783300,-0.649,0.169,0.669,-53.27,-77.367,-35.805
50783310,-0.612,0.161,0.679,-57.715,-81.007,-36.015
50783320,-0.579,0.163,0.698,-63.087,-83.02,-35.63
50783330,-0.554,0.161,0.712,-70.98,-82.722,-36.225
50783340,-0.543,0.129,0.715,-79.992,-81.865,-36.242
50783350,-0.525,0.103,0.72,-88.112,-80.01,-34.895
50783360,-0.517,0.076,0.718,-95.217,-77.63,-31.08
50783370,-0.515,0.027,0.696,-100.73,-72.747,-28.805
50783380,-0.484,-0.01,0.686,-103.477,-63.717,-29.4
50783390,-0.441,-0.013,0.724,-104.72,-51.047,-34.37
50783400,-0.449,-0.012,0.74,-113.837,-36.697,-37.8
50783410,-0.502,-0.077,0.716,-122.727,-25.567,-38.062
50783420,-0.501,-0.135,0.708,-123.55,-16.397,-40.705
50783430,-0.587,-0.244,0.687,-115.43,-13.142,-31.657
50783440,-0.626,-0.286,0.719,-97.317,-14.56,-26.39
50783450,-0.569,-0.296,0.75,-78.032,-16.082,-26.967
50783460,-0.569,-0.297,0.76,-61.267,-15.032,-17.832
50783470,-0.583,-0.256,0.784,-48.755,-12.652,-9.555
50783480,-0.556,-0.252,0.789,-42.735,-6.492,-5.057
50783490,-0.565,-0.278,0.813,-32.112,1.4,-3.902
50783500,-0.604,-0.286,0.821,-25.375,7.857,-0.175
50783510,-0.587,-0.275,0.829,-17.657,13.125,0.892
50783520,-0.593,-0.281,0.83,-7.682,18.9,2.275
50783530,-0.63,-0.249,0.854,2.572,21.84,6.23
50783540,-0.63,-0.24,0.854,9.205,21.927,11.025
50783550,-0.644,-0.235,0.854,16.152,20.44,16.625
50783560,-0.599,-0.192,0.83,21.42,21.402,14.35
50783570,-0.62,-0.211,0.847,30.17,24.955,17.412
50783580,-0.644,-0.191,0.828,32.007,27.667,22.33
50783580,-0.67,-0.165,0.826,37.012,29.802,22.067
50783600,-0.718,-0.139,0.822,40.705,30.52,19.95
50783600,-0.776,-0.109,0.824,42.402,26.337,16.87
50783620,-0.821,-0.101,0.799,42.77,17.115,13.352
50783620,-0.824,-0.105,0.778,45.395,5.11,9.485
50783640,-0.805,-0.099,0.753,50.295,-6.09,6.492
50783640,-0.779,-0.078,0.734,56.717,-14.262,4.06
50783660,-0.752,-0.036,0.727,63.14,-18.515,2.257
50783660,-0.74,0.012,0.731,67.41,-21.35,0.472
50783670,-0.721,0.05,0.72,68.32,-23.467,-0.822
50783680,-0.667,0.071,0.704,66.36,-23.712,-0.927
50783690,-0.609,0.097,0.703,62.737,-21.017,1.452
50783700,-0.579,0.112,0.694,58.485,-16.117,6.23
50783710,-0.553,0.123,0.677,52.675,-7.612,11.025
50783720,-0.538,0.13,0.663,46.375,2.362,13.86
50783730,-0.549,0.131,0.652,39.532,13.3,14.612
50783740,-0.579,0.121,0.645,32.777,22.47,13.125
50783750,-0.619,0.1,0.648,26.67,27.212,9.747
50783760,-0.661,0.062,0.652,22.557,26.022,5.285
50783770,-0.668,0.056,0.655,21.49,19.705,-0.385
50783780,-0.643,0.076,0.673,20.457,8.347,-3.815
50783790,-0.785,-0.061,0.62,21.175,-11.532,10.325
50783800,-0.759,-0.038,0.647,29.872,-34.737,2.065
50783810,-0.777,-0.015,0.661,33.88,-57.89,-15.82
50783820,-0.823,-0.036,0.641,26.337,-80.64,-25.76
50783830,-0.757,-0.042,0.665,21.612,-106.102,-36.522
50783840,-0.681,-0.007,0.742,21.105,-129.85,-39.13
50783850,-0.612,0.02,0.808,13.475,-146.982,-33.162
50783860,-0.532,0.046,0.869,-0.822,-154.91,-26.792
50783870,-0.467,0.026,0.896,-21.7,-153.965,-20.895
50783880,-0.393,-0.038,0.922,-39.655,-142.38,-15.837
50783890,-0.284,-0.082,0.948,-54.407,-121.45,-11.392
50783900,-0.201,-0.109,0.966,-64.085,-91.927,-7.122
50783910,-0.159,-0.15,1.152,-68.057,-61.232,-3.885
50783920,0.045,-0.374,1.031,-66.71,-14.875,3.885
50783930,-0.231,-0.482,1.115,-28.875,29.697,14.087
50783940,-0.45,-0.269,1.161,11.742,52.955,23.257
50783940,-0.679,0.033,1.206,25.322,42.087,33.39
50783960,-0.764,0.02,1.094,6.352,7.91,32.252
50783960,-0.498,-0.107,1,-10.045,-18.305,19.652
50783980,-0.409,-0.18,0.941,-15.312,-30.765,14
50783980,-0.314,-0.122,0.889,-12.74,-30.992,12.075
50784000,-0.291,-0.073,0.887,-3.902,-22.645,12.127
50784000,-0.342,-0.083,0.894,3.097,-15.645,10.745
50784010,-0.316,-0.106,0.87,5.302,-9.607,10.832
50784020,-0.269,-0.099,0.873,11.27,0.63,13.352
50784030,-0.3,-0.046,0.897,11.375,16.222,17.797
50784040,-0.311,-0.018,0.881,1.33,32.322,19.582
50784050,-0.288,-0.03,0.868,-8.242,51.205,22.225
50784060,-0.319,-0.069,0.833,-15.172,71.47,29.697
50784070,-0.378,-0.087,0.82,-17.167,91.315,36.487
50784080,-0.479,-0.086,0.811,-17.43,106.715,41.335
50784090,-0.592,-0.102,0.785,-17.465,114.975,43.575
50784100,-0.634,-0.108,0.765,-14.49,116.917,42.052
50784110,-0.652,-0.08,0.762,-10.465,115.465,40.792
50784120,-0.702,-0.072,0.769,-4.935,110.057,42.105
50784130,-0.712,-0.043,0.787,-0.787,103.162,40.95
50784140,-0.698,-0.006,0.777,-2.572,96.932,38.867
50784150,-0.684,0.02,0.793,-4.427,94.307,37.082
50784160,-0.717,0.034,0.811,-10.15,92.592,36.172
50784170,-0.724,0.028,0.779,-19.075,90.142,33.407
50784180,-0.705,0.035,0.756,-26.302,88.427,30.222
50784190,-0.704,0.04,0.72,-33.075,86.765,29.155
50784200,-0.72,0.041,0.691,-37.345,83.562,30.975
50784210,-0.754,0.005,0.672,-38.535,77.805,33.162
50784220,-0.72,0.006,0.662,-37.485,73.412,32.287
50784230,-0.701,-0.024,0.654,-31.5,70.577,36.295
50784240,-0.699,0.001,0.687,-21.14,72.45,40.267
50784250,-0.733,0.053,0.69,-18.427,74.182,42.472
50784260,-0.738,0.061,0.67,-19.005,75.512,46.742
50784270,-0.711,0.068,0.658,-18.2,77.437,52.045
50784280,-0.723,0.065,0.634,-19.757,82.565,58.555
50784290,-0.785,0.073,0.615,-25.13,86.887,60.9
50784300,-0.836,0.108,0.607,-28.437,85.417,57.697
50784310,-0.818,0.094,0.572,-27.807,79.835,55.65
50784320,-0.815,0.073,0.561,-24.255,73.517,57.225
50784330,-0.846,0.058,0.562,-19.477,65.695,59.062
50784330,-0.831,0.069,0.567,-14.787,58.852,59.22
50784350,-0.8,0.085,0.591,-8.592,52.64,57.96
50784350,-0.802,0.103,0.606,-7.892,48.737,54.687
50784370,-0.806,0.112,0.605,-9.292,44.432,46.41
50784370,-0.791,0.128,0.611,-12.88,39.725,37.922
50784390,-0.795,0.11,0.611,-17.937,34.212,30.87
50784390,-0.799,0.111,0.596,-23.572,28.017,23.59
50784410,-0.805,0.07,0.603,-25.165,19.337,17.727
50784410,-0.821,0.073,0.595,-28.42,10.36,13.72
50784420,-0.854,0.057,0.606,-27.982,-1.872,8.837
50784430,-0.85,0.055,0.586,-29.995,-15.907,3.867
50784440,-0.866,0.012,0.587,-26.022,-30.432,1.137
50784450,-0.852,0.018,0.573,-25.042,-43.295,-1.837
50784460,-0.821,0.022,0.585,-20.212,-54.862,-2.905
50784470,-0.754,0.003,0.589,-17.08,-60.777,-0.77
50784480,-0.692,0.004,0.59,-14.735,-59.22,1.575
50784490,-0.667,-0.009,0.609,-13.142,-48.632,3.325
50784500,-0.679,-0.005,0.62,-13.475,-32.025,4.865
50784510,-0.723,-0.019,0.629,-15.995,-13.825,5.285
50784520,-0.802,-0.009,0.652,-19.215,0.647,4.112
50784530,-0.877,-0.018,0.653,-23.065,6.055,2.292
50784540,-0.935,-0.055,0.636,-25.077,2.625,0.262
50784550,-0.93,-0.044,0.621,-22.015,-7.612,-3.955
50784560,-0.928,-0.036,0.624,-13.615,-21.402,-3.045
50784570,-0.903,-0.021,0.634,-6.125,-35.77,2.047
50784580,-0.872,0.002,0.667,1.925,-47.862,5.967
50784590,-0.802,0.046,0.696,4.812,-56.21,4.445
50784600,-0.744,0.048,0.691,2.835,-58.467,1.925
50784610,-0.716,0.063,0.686,-1.715,-55.002,-1.785
50784620,-0.68,0.083,0.668,-10.937,-48.457,-8.207
50784630,-0.581,0.01,0.648,-16.03,-35.91,-7.035
50784640,-0.617,-0.087,0.7,-11.375,-11.34,-2.415
50784650,-0.8,0.008,0.764,-3.902,4.637,-4.515
50784660,-0.938,0.095,0.797,-3.43,0.017,-3.832
50784670,-0.927,0.024,0.745,-7.315,-15.942,0.367
50784670,-0.867,0.006,0.701,-10.185,-27.37,-1.487
50784690,-1,0.049,0.708,-11.252,-37.152,-11.55
50784690,-1.086,0.129,0.703,-19.985,-71.802,-27.107
50784710,-0.316,0.027,0.486,-30.712,-88.97,-31.57
50784710,-0.283,-0.076,0.574,-24.395,-35.665,-14.245
50784730,-0.948,0.01,0.644,-16.712,-0.857,-7.752
50784730,-1.082,0.078,0.644,-24.692,-16.45,-11.48
50784750,-0.795,0.023,0.595,-25.69,-45.01,-6.545
50784750,-0.637,0.015,0.599,-26.057,-53.812,0.857
50784760,-0.676,-0.006,0.656,-29.032,-44.59,-0.315
50784770,-0.734,-0.042,0.737,-31.675,-34.737,-6.597
50784780,-0.736,-0.039,0.777,-39.497,-35.42,-10.325
50784790,-0.76,-0.097,0.795,-43.522,-42.542,-9.642
50784800,-0.714,-0.118,0.784,-45.027,-50.522,-7.892
50784810,-0.679,-0.126,0.805,-35.385,-52.447,-3.395
50784820,-0.717,-0.092,0.809,-27.685,-49.787,0.805
50784830,-0.712,-0.042,0.778,-24.902,-47.092,-2.8
50784840,-0.673,-0.049,0.722,-23.222,-47.145,-5.057
50784850,-0.698,-0.099,0.666,-20.58,-49,-2.642
50784860,-0.721,-0.077,0.673,-19.53,-52.867,-2.712
50784870,-0.722,-0.043,0.671,-20.772,-58.135,-4.165
50784880,-0.752,-0.078,0.681,-23.047,-62.265,-3.657
50784890,-0.742,-0.136,0.724,-23.082,-66.027,-2.45
50784900,-0.673,-0.146,0.717,-17.412,-71.172,-2.327
50784910,-0.591,-0.144,0.679,-9.992,-75.565,-0.297
50784920,-0.542,-0.159,0.625,-5.687,-78.365,4.76
50784930,-0.493,-0.171,0.597,0.822,-81.252,12.022
50784940,-0.437,-0.181,0.615,7.542,-86.012,23.082
50784950,-0.355,-0.156,0.702,15.242,-85.26,34.16
50784960,-0.157,0.045,0.758,16.432,-69.212,34.65
50784970,-0.381,0.001,0.939,0.612,-38.972,28.332
50784980,-0.482,-0.173,1.083,-13.51,-28.297,6.44
50784990,-0.16,-0.085,1.146,1.365,-16.047,-7.577
50785000,-0.403,-0.014,1.039,3.92,2.625,-4.095
50785010,-0.657,-0.029,0.816,-2.38,9.467,-7.612
50785020,-0.722,-0.031,0.704,7.682,3.762,-7.385
50785030,-0.696,0.019,0.691,15.277,-3.622,-0.91
50785040,-0.727,0.04,0.746,14.63,-6.86,2.415
50785050,-0.687,0.026,0.818,10.027,-8.837,-2.537
50785060,-0.599,0.003,0.874,3.692,-8.697,-8.575
50785070,-0.52,-0.036,0.864,-0.437,-8.575,-11.025
50785080,-0.408,-0.095,0.914,0.472,-2.852,-12.967
50785080,-0.43,-0.068,0.911,4.305,6.685,-14.49
50785100,-0.367,-0.017,0.895,4.83,17.29,-17.955
50785100,-0.399,-0.017,0.903,1.785,29.365,-21.717
50785120,-0.507,-0.057,0.893,-3.762,39.287,-24.377
50785120,-0.588,-0.072,0.884,-7.787,43.19,-27.177
50785140,-0.695,-0.079,0.851,-9.257,40.477,-28.525
50785140,-0.738,-0.089,0.851,-9.065,30.852,-27.072
50785160,-0.706,-0.106,0.826,-7.542,19.512,-23.747
50785160,-0.633,-0.103,0.817,-3.535,12.005,-22.05
50785170,-0.575,-0.078,0.843,-1.452,8.82,-21.682
50785180,-0.552,-0.073,0.837,-2.555,7.7,-21.665
50785190,-0.528,-0.087,0.815,-3.71,9.047,-18.952
50785200,-0.508,-0.078,0.811,-3.727,13.002,-16.905
50785210,-0.547,-0.056,0.823,-4.41,18.077,-17.85
50785220,-0.602,-0.06,0.838,-6.545,21.577,-20.212
50785230,-0.631,-0.071,0.835,-7.927,21.892,-21.717
50785240,-0.622,-0.069,0.806,-7.822,20.702,-21.175
50785250,-0.598,-0.064,0.785,-7.717,21.017,-20.702
50785260,-0.59,-0.08,0.735,-7.665,21.98,-20.072
50785270,-0.61,-0.109,0.657,-6.405,20.422,-18.357
50785280,-0.634,-0.133,0.677,-4.217,17.745,-15.295
50785290,-0.65,-0.164,0.684,-3.622,12.32,-12.355
50785300,-0.602,-0.157,0.699,0.787,9.327,-10.675
50785310,-0.649,-0.142,0.741,3.045,8.12,-9.362
50785320,-0.688,-0.155,0.777,2.432,4.217,-10.027
50785330,-0.658,-0.147,0.779,5.495,0.087,-10.15
50785340,-0.659,-0.125,0.791,8.575,-0.892,-9.24
50785350,-0.677,-0.131,0.805,8.365,-1.05,-10.307
50785360,-0.653,-0.159,0.8,8.242,-2.065,-11.76
50785370,-0.627,-0.162,0.808,10.097,-3.937,-10.447
50785380,-0.573,-0.141,0.796,12.11,-4.287,-9.45
50785390,-0.54,-0.098,0.787,13.09,-2.065,-10.71
50785400,-0.558,-0.071,0.778,10.99,0.682,-12.232
50785410,-0.575,-0.066,0.797,9.555,1.365,-11.34
50785420,-0.587,-0.07,0.826,7.822,0.822,-8.05
50785420,-0.582,-0.084,0.836,6.037,1.05,-6.335
50785440,-0.545,-0.084,0.829,5.005,2.747,-6.125
50785440,-0.521,-0.078,0.83,3.815,4.707,-4.217
50785460,-0.511,-0.084,0.851,1.592,8.645,-2.17
50785460,-0.496,-0.102,0.853,-1.102,13.142,-1.715
50785480,-0.496,-0.12,0.832,-3.412,18.935,-0.98
50785480,-0.497,-0.135,0.821,-5.162,23.467,0.122
50785500,-0.472,-0.147,0.823,-6.842,28.227,2.38
50785500,-0.46,-0.149,0.771,-7,32.025,6.877
50785510,-0.464,-0.186,0.749,-6.51,34.842,12.862
50785520,-0.506,-0.238,0.733,-2.117,38.5,17.307
50785530,-0.585,-0.183,0.762,6.002,41.125,19.547
50785540,-0.666,-0.116,0.755,10.115,35.98,23.31
50785550,-0.681,-0.071,0.713,12.635,25.427,30.45
50785560,-0.647,-0.026,0.706,16.205,16.642,40.302
50785570,-0.652,0.028,0.745,13.65,16.117,46.2
50785580,-0.728,0.039,0.794,3.062,19.915,42.752
50785590,-0.814,-0.037,0.793,-6.755,23.187,35.542
50785600,-0.942,-0.087,0.749,-5.897,21.647,29.085
50785610,-1.02,0.013,0.702,0.017,0.385,21.717
50785620,-0.67,0.024,0.648,1.75,-14.385,21.717
50785630,-0.796,0.013,0.704,8.627,-7.7,28.752
50785640,-0.936,0.08,0.742,7.35,-20.142,28.875
50785650,-0.701,0.079,0.76,1.172,-42.455,31.902
50785660,-0.518,-0.01,0.733,-2.31,-52.955,44.03
50785670,-0.428,-0.033,0.743,-3.045,-44.817,50.837
50785680,-0.43,-0.003,0.789,-7.892,-22.382,47.39
50785690,-0.559,-0.04,0.856,-16.765,2.537,34.247
50785700,-0.697,-0.04,0.863,-23.397,12.635,18.2
50785710,-0.799,0.036,0.768,-30.327,3.57,5.337
50785720,-0.529,-0.011,0.648,-37.187,-3.99,-7.052
50785730,-0.458,-0.182,0.603,-34.527,11.2,-1.907
50785740,-0.869,-0.103,0.69,-19.197,24.01,15.907
50785750,-0.991,0.068,0.74,-14.56,8.435,25.06
50785760,-0.855,0.007,0.74,-21.192,-14.665,24.762
50785770,-0.769,-0.084,0.728,-24.5,-26.075,23.975
50785780,-0.748,-0.044,0.788,-21.245,-23.922,23.187
50785790,-0.776,-0.012,0.834,-21.665,-21.14,18.48
50785800,-0.737,-0.029,0.83,-25.48,-22.592,12.057
50785810,-0.683,-0.048,0.787,-26.722,-23.817,10.027
50785820,-0.695,-0.045,0.773,-27.335,-23.31,9.03
50785830,-0.701,-0.035,0.765,-29.977,-23.695,4.9
50785830,-0.681,-0.047,0.779,-33.39,-23.047,1.19
50785850,-0.666,-0.081,0.774,-36.382,-21.595,-1.417
50785850,-0.652,-0.107,0.761,-38.185,-19.74,-3.325
50785870,-0.65,-0.094,0.759,-36.33,-20.545,-3.71
50785870,-0.654,-0.098,0.747,-35.682,-24.097,-2.625
50785890,-0.577,-0.12,0.737,-35.91,-28.98,-2.327
50785890,-0.515,-0.122,0.771,-34.282,-27.3,0.035
50785910,-0.564,-0.103,0.778,-34.177,-23.432,1.487
50785910,-0.536,-0.069,0.775,-35.875,-21.857,-0.595
50785920,-0.543,-0.08,0.738,-38.045,-19.425,0.332
50785930,-0.499,-0.083,0.748,-37.257,-12.722,1.942
50785940,-0.562,-0.144,0.806,-34.02,0.84,3.01
50785950,-0.751,-0.122,0.817,-31.342,7.455,4.795
50785960,-0.788,-0.076,0.828,-29.732,-1.26,6.177
50785970,-0.709,-0.113,0.798,-31.622,-11.952,7.612
50785980,-0.671,-0.131,0.782,-32.672,-16.467,8.732
50785990,-0.646,-0.108,0.832,-31.605,-16.257,7.105
50786000,-0.634,-0.13,0.836,-35.647,-16.047,3.78
50786010,-0.607,-0.148,0.796,-38.605,-15.382,0.682
50786020,-0.656,-0.126,0.801,-38.202,-15.435,-0.822
50786030,-0.656,-0.132,0.81,-40.617,-18.917,-2.8
50786040,-0.61,-0.17,0.771,-42,-23.345,-2.747
50786050,-0.648,-0.164,0.773,-39.55,-28.437,1.662
50786060,-0.694,-0.162,0.774,-39.375,-39.217,6.72
50786070,-0.674,-0.182,0.754,-42.035,-51.817,11.672
50786080,-0.649,-0.214,0.766,-38.01,-62.667,17.377
50786090,-0.586,-0.19,0.762,-36.277,-71.417,23.205
50786100,-0.483,-0.201,0.723,-33.757,-77.122,28.122
50786110,-0.374,-0.227,0.717,-28.735,-78.977,35.472
50786120,-0.259,-0.239,0.7,-25.287,-77.052,44.467
50786130,-0.191,-0.262,0.505,-20.247,-68.81,51.59
50786140,-0.465,-0.177,0.105,1.015,-68.897,57.067
50786150,-0.299,0.283,0.888,24.85,-92.382,59.132
50786160,0.165,-0.545,0.996,4.392,-66.745,68.022
50786170,-0.34,-0.668,0.853,3.465,-11.532,62.37
50786170,-0.607,-0.194,0.9,19.005,12.337,57.942
50786190,-0.703,-0.027,0.89,14.245,17.552,54.075
50786190,-0.625,-0.126,0.912,5.495,20.107,47.127
50786210,-0.57,-0.114,0.949,8.54,26.845,42.07
50786210,-0.768,-0.011,0.988,5.967,35.787,31.657
50786230,-0.948,-0.01,0.956,-8.627,26.565,22.19
50786230,-0.96,-0.079,0.94,-16.555,3.43,20.335
50786250,-0.902,-0.103,0.941,-16.992,-23.275,22.785
50786250,-0.777,-0.082,0.933,-16.73,-45.36,23.782
50786260,-0.588,-0.08,0.886,-18.795,-59.027,21.455
50786270,-0.424,-0.127,0.835,-21.07,-61.11,20.405
50786280,-0.336,-0.128,0.815,-20.247,-55.405,21.525
50786290,-0.28,-0.125,0.819,-19.757,-43.225,22.347
50786300,-0.265,-0.137,0.845,-21.927,-26.827,21.052
50786310,-0.293,-0.168,0.843,-21.962,-9.205,19.862
50786320,-0.294,-0.167,0.84,-21.805,6.3,16.992
50786330,-0.253,-0.259,0.783,-17.605,21.98,17.29
50786340,-0.319,-0.227,0.798,-5.565,39.935,20.422
50786350,-0.431,-0.134,0.815,-1.82,54.162,21.805
50786360,-0.472,-0.169,0.789,-0.035,57.907,22.277
50786370,-0.476,-0.158,0.794,3.535,59.377,25.515
50786380,-0.571,-0.102,0.819,3.57,57.452,26.722
50786390,-0.584,-0.094,0.835,-0.157,52.01,24.272
50786400,-0.57,-0.111,0.864,-1.89,50.05,24.045
50786410,-0.697,-0.088,0.877,-3.29,47.705,24.29
50786420,-0.714,-0.049,0.88,-7.332,40.18,23.52
50786430,-0.673,-0.033,0.913,-10.447,35.122,22.277
50786440,-0.75,-0.046,0.856,-14.857,31.377,21.507
50786450,-0.672,-0.01,0.847,-18.077,24.045,23.782
50786460,-0.574,-0.036,0.844,-19.74,21.997,25.375
50786470,-0.495,-0.052,0.842,-23.065,24.115,24.482
50786480,-0.434,-0.03,0.84,-25.725,29.697,24.552
50786490,-0.407,-0.052,0.806,-30.642,40.967,23.695
50786500,-0.51,-0.09,0.787,-37.152,51.572,20.457
50786510,-0.606,-0.082,0.773,-41.615,53.83,15.68
50786520,-0.714,-0.104,0.774,-48.09,48.72,12.985
50786530,-0.795,-0.17,0.771,-51.66,40.81,12.005
50786540,-0.841,-0.168,0.789,-51.45,31.85,12.845
50786550,-0.851,-0.151,0.809,-50.89,21.665,14.717
50786560,-0.834,-0.127,0.8,-50.505,11.095,15.33
50786570,-0.803,-0.142,0.795,-51.38,0.42,17.342
50786580,-0.775,-0.165,0.764,-50.242,-7.875,19.845
50786580,-0.712,-0.108,0.77,-52.535,-14.962,19.687
50786600,-0.689,-0.218,0.667,-56.84,-20.702,24.237
50786600,-0.522,-0.173,0.72,-45.29,-23.362,24.78
50786620,-0.538,-0.172,0.677,-46.637,-19.565,29.592
50786620,-0.508,-0.18,0.699,-47.005,-14.577,25.97
50786640,-0.493,-0.183,0.689,-47.215,-8.82,25.865
50786640,-0.491,-0.209,0.659,-47.232,-1.96,25.742
50786660,-0.516,-0.201,0.682,-40.425,5.442,28.98
50786660,-0.557,-0.198,0.674,-37.94,8.96,33.425
50786670,-0.555,-0.223,0.671,-39.182,10.167,35.822
50786680,-0.601,-0.238,0.68,-36.802,11.287,36.68
50786690,-0.652,-0.237,0.665,-35.63,12.88,38.57
50786700,-0.719,-0.236,0.638,-32.795,10.71,40.547
50786710,-0.73,-0.239,0.661,-27.685,7.91,41.912
50786720,-0.795,-0.232,0.685,-19.897,3.885,45.062
50786730,-0.787,-0.169,0.738,-18.76,0.892,40.932
50786740,-0.824,-0.189,0.747,-22.365,-2.607,41.667
50786750,-0.834,-0.168,0.777,-23.502,-8.347,38.797
50786760,-0.825,-0.154,0.803,-25.655,-18.007,38.92
50786770,-0.788,-0.135,0.804,-30.485,-27.982,41.195
50786780,-0.702,-0.185,0.77,-30.012,-37.397,42.822
50786790,-0.636,-0.197,0.691,-29.575,-43.82,47.18
50786800,-0.618,-0.268,0.623,-24.395,-45.902,50.61
50786810,-0.543,-0.233,0.595,-15.452,-46.48,47.495
50786820,-0.539,-0.329,0.514,-7.647,-43.505,47.005
50786830,-0.504,-0.391,0.456,5.74,-38.955,44.292
50786840,-0.414,-0.4,0.395,23.327,-31.867,46.97
50786850,-0.406,-0.319,0.499,44.485,-20.667,53.882
50786860,-0.493,-0.223,0.709,55.492,-9.625,60.34
50786870,-0.526,-0.19,0.835,56.017,-0.875,58.905
50786880,-0.64,-0.116,0.817,50.96,5.425,56.297
50786890,-0.693,-0.023,0.797,47.635,8.207,53.095
50786900,-0.823,0.052,0.844,46.882,7.385,51.432
50786910,-0.899,0.035,0.82,39.882,-1.592,43.557
50786920,-0.834,-0.012,0.789,40.022,-14.997,42.052
50786920,-0.73,-0.009,0.781,38.71,-22.522,40.6
50786940,-0.689,-0.065,0.734,35.84,-22.907,35.63
50786940,-0.619,-0.067,0.733,37.625,-17.132,32.602
50786960,-0.609,-0.002,0.775,40.407,-7.087,30.555
50786960,-0.655,0.031,0.864,37.59,3.325,26.565
50786980,-0.717,0.021,0.909,32.34,11.007,19.652
50786980,-0.775,0.031,0.92,25.375,12.442,11.97
50787000,-0.767,0.08,0.919,16.537,10.675,4.9
50787000,-0.792,0.099,0.919,7.332,7.122,0.07
50787010,-0.777,0.114,0.926,-2.8,1.662,-6.93
50787020,-0.737,0.126,0.958,-14.192,-5.845,-11.27
50787030,-0.636,0.092,0.948,-27.457,-10.342,-14.122
50787040,-0.592,0.052,0.906,-35.647,-8.225,-16.625
50787050,-0.601,0.034,0.854,-41.405,-6.72,-17.815
50787060,-0.542,-0.007,0.801,-44.887,-6.86,-15.225
50787070,-0.508,0.014,0.747,-42.122,-2.887,-11.357
50787080,-0.575,0.002,0.724,-37.135,-1.96,-4.76
50787090,-0.541,-0.021,0.721,-38.675,-2.8,2.502
50787100,-0.502,-0.081,0.692,-38.657,1.26,6.282
50787110,-0.524,-0.124,0.686,-33.232,10.255,4.305
50787120,-0.594,-0.1,0.706,-29.487,17.202,4.515
50787130,-0.642,-0.116,0.714,-29.61,19.302,5.512
50787140,-0.67,-0.176,0.697,-26.74,17.675,7.052
50787150,-0.692,-0.153,0.694,-20.825,15.225,10.587
50787160,-0.703,-0.117,0.681,-16.642,11.322,13.142
50787170,-0.649,-0.079,0.7,-13.212,8.75,13.632
50787180,-0.603,-0.069,0.727,-11.497,11.112,14.507
50787190,-0.6,-0.075,0.751,-10.15,14.717,15.75
50787200,-0.588,-0.073,0.765,-9.362,16.415,18.602
50787210,-0.569,-0.062,0.755,-8.487,18.445,22.295
50787220,-0.569,-0.041,0.763,-6.947,23.03,25.27
50787230,-0.624,-0.031,0.766,-7.21,25.13,27.667
50787240,-0.605,-0.018,0.726,-10.832,24.167,29.575
50787250,-0.607,-0.093,0.681,-12.985,26.372,31.535
50787260,-0.643,-0.096,0.671,-7.017,30.8,31.622
50787270,-0.721,-0.085,0.676,-4.97,29.61,33.985
50787280,-0.678,-0.096,0.652,-3.447,28.577,34.37
50787290,-0.683,-0.064,0.663,1.26,30.047,34.177
50787300,-0.71,-0.089,0.671,3.78,30.782,36.487
50787310,-0.735,-0.043,0.696,9.502,30.87,37.257
50787320,-0.793,-0.008,0.709,7.717,29.61,36.837
50787330,-0.777,-0.019,0.705,4.882,27.51,33.215
50787330,-0.829,0.004,0.753,2.922,25.48,30.817
50787340,-0.864,0.01,0.774,-2.012,20.755,27.335
50787350,-0.888,-0.004,0.804,-7.297,13.422,21.227
50787360,-0.853,0,0.766,-12.582,4.165,14.577
50787370,-0.847,-0.004,0.751,-17.85,-4.147,11.462
50787380,-0.763,-0.02,0.729,-21.297,-9.362,7.857
50787390,-0.743,-0.058,0.714,-21.525,-11.305,4.147
50787400,-0.701,-0.112,0.663,-20.545,-13.72,3.395
50787410,-0.643,-0.137,0.625,-14.507,-14.262,5.022
50787420,-0.643,-0.125,0.638,-5.617,-11.252,8.54
50787430,-0.679,-0.117,0.653,2.625,-7.192,10.885
50787440,-0.7,-0.096,0.669,9.607,-5.145,12.582
50787450,-0.717,-0.085,0.659,15.82,-4.025,12.915
50787460,-0.738,-0.093,0.653,21.28,-6.317,12.512
50787470,-0.738,-0.082,0.609,25.882,-11.305,13.51
50787480,-0.733,-0.012,0.607,30.345,-13.825,15.225
50787490,-0.819,0.019,0.643,30.467,-12.95,15.592
50787500,-0.866,0.019,0.677,28.367,-15.75,11.865
50787510,-0.915,0.066,0.715,23.94,-21.455,9.31
50787520,-1.065,0.105,0.769,15.19,-35.07,4.27
50787530,-0.995,0.1,0.8,0.717,-56.35,-4.042
50787540,-0.813,0.036,0.803,-10.972,-67.882,-12.547
50787550,-0.693,0.035,0.819,-13.965,-69.947,-18.252
50787560,-0.542,0.062,0.797,-16.502,-64.977,-18.41
50787570,-0.474,0.041,0.768,-17.097,-53.532,-20.247
50787580,-0.482,0.021,0.738,-17.377,-42.35,-18.952
50787590,-0.458,-0.009,0.732,-14.805,-31.22,-16.135
50787600,-0.516,-0.005,0.769,-9.817,-19.267,-14.262
50787610,-0.594,-0.003,0.799,-10.447,-9.905,-13.195
50787620,-0.653,-0.039,0.816,-11.375,-4.847,-13.317
50787630,-0.697,-0.034,0.839,-11.34,-3.762,-14.98
50787640,-0.707,-0.031,0.844,-13.142,-3.517,-18.252
50787650,-0.717,-0.041,0.828,-14.77,-0.84,-23.012
50787660,-0.769,-0.051,0.803,-16.555,1.557,-27.405
50787670,-0.735,-0.067,0.786,-17.902,1.89,-31.517
50787670,-0.692,-0.074,0.782,-17.062,5.442,-35.28
50787690,-0.704,-0.059,0.811,-15.47,10.78,-38.552
50787690,-0.715,-0.052,0.852,-16.432,14.367,-41.772
50787710,-0.694,-0.079,0.887,-18.76,17.517,-45.832
50787710,-0.685,-0.117,0.917,-19.897,22.855,-48.195
50787730,-0.716,-0.134,0.906,-19.442,27.72,-47.915
50787730,-0.691,-0.13,0.857,-15.785,32.55,-48.72
50787750,-0.7,-0.152,0.777,-11.27,34.352,-45.465
50787750,-0.692,-0.193,0.712,-6.09,26.477,-37.537
50787760,-0.551,-0.205,0.638,2.24,15.82,-26.565
50787770,-0.382,-0.173,0.606,10.36,18.585,-16.887
50787780,-0.499,-0.143,0.509,10.307,35.805,-11.69
50787790,-0.448,-0.215,0.526,6.37,53.2,-16.24
50787800,-0.267,-0.212,0.573,17.447,83.282,-22.085
50787810,-0.469,-0.072,0.669,28.805,115.395,-20.475
50787820,-0.714,0.013,0.723,8.592,133.962,-21.542
50787830,-0.912,-0.049,0.663,-17.605,138.967,-36.802
50787840,-1.111,-0.19,0.596,-33.477,119.945,-52.115
50787850,-1.055,-0.334,0.438,-23.152,78.487,-43.067
50787860,-1.047,-0.285,0.476,20.195,36.12,-7.857
50787870,-0.877,-0.105,0.553,30.152,9.695,-9.852
50787880,-0.731,-0.119,0.575,36.82,3.395,-3.412
50787890,-0.666,-0.15,0.592,47.985,12.775,7.105
50787900,-0.699,-0.111,0.629,60.515,28.892,17.132
50787910,-0.75,-0.038,0.664,62.387,43.977,19.022
50787920,-0.837,-0.035,0.656,54.197,53.042,15.715
50787930,-0.895,-0.07,0.632,47.372,53.795,9.205
50787940,-0.912,-0.097,0.602,45.01,47.565,2.24
50787950,-0.917,-0.095,0.588,45.85,37.187,-4.69
50787960,-0.94,-0.09,0.582,47.355,23.135,-10.85
50787970,-0.915,-0.086,0.585,49.595,7.017,-15.732
50787980,-0.891,-0.077,0.591,50.662,-7.927,-18.917
50787990,-0.873,-0.062,0.592,48.755,-18.427,-22.452
50788000,-0.87,-0.058,0.587,44.485,-23.695,-28.28
50788010,-0.878,-0.064,0.574,39.585,-26.617,-36.382
50788020,-0.863,-0.075,0.57,36.242,-27.37,-45.08
50788030,-0.844,-0.081,0.579,34.632,-26.617,-52.692
50788030,-0.857,-0.087,0.575,33.652,-25.795,-58.135
50788050,-0.859,-0.106,0.565,33.635,-28.28,-61.127
50788050,-0.821,-0.147,0.556,37.677,-32.777,-59.657
50788070,-0.748,-0.158,0.578,44.695,-34.65,-53.095
50788070,-0.732,-0.16,0.584,48.387,-31.552,-41.772
50788080,-0.747,-0.157,0.577,51.292,-26.075,-31.43
50788090,-0.755,-0.18,0.573,57.12,-18.637,-22.347
50788100,-0.769,-0.177,0.59,63.035,-10.43,-14
50788110,-0.797,-0.169,0.589,68.81,-3.377,-7.56
50788120,-0.831,-0.17,0.617,77.087,2.712,-5.407
50788130,-0.838,-0.123,0.636,79.905,5.617,-3.885
50788140,-0.829,-0.137,0.651,83.107,3.832,-0.245
50788150,-0.818,-0.105,0.667,82.337,3.307,5.53
50788160,-0.833,-0.082,0.652,77.315,2.537,10.062
50788170,-0.853,-0.074,0.657,76.195,1.75,10.36
50788180,-0.86,-0.059,0.654,74.725,0.297,9.012
50788190,-0.845,-0.046,0.659,74.655,-1.627,6.772
50788200,-0.827,-0.024,0.655,75.337,-4.217,4.882
50788210,-0.801,0.009,0.661,76.107,-6.947,4.042
50788220,-0.776,0.023,0.634,76.125,-10.657,3.587
50788230,-0.736,0.03,0.612,78.33,-13.51,2.922
50788240,-0.678,0.063,0.605,77.98,-14.367,2.117
50788250,-0.661,0.082,0.592,76.265,-12.897,1.19
50788260,-0.643,0.135,0.577,74.077,-10.027,-1.557
50788270,-0.631,0.158,0.563,69.562,-6.667,-5.18
50788280,-0.631,0.165,0.538,65.415,-4.567,-8.067
50788290,-0.634,0.185,0.54,62.597,-3.815,-10.885
50788300,-0.662,0.214,0.554,56.507,-4.41,-15.26
50788310,-0.698,0.24,0.547,46.725,-7.35,-21.402
50788320,-0.751,0.225,0.56,39.847,-14.77,-28.717
50788330,-0.788,0.248,0.576,32.83,-27.475,-36.33
50788340,-0.814,0.24,0.579,27.02,-45.727,-41.702
50788350,-0.797,0.241,0.569,22.015,-66.71,-47.197
50788360,-0.749,0.22,0.541,18.392,-86.852,-52.412
50788370,-0.646,0.23,0.56,17.482,-100.31,-57.277
50788380,-0.542,0.246,0.578,14.49,-103.04,-61.145
50788390,-0.515,0.239,0.602,10.36,-99.05,-63.315
50788400,-0.527,0.269,0.625,-0.157,-91.63,-66.57
50788410,-0.551,0.248,0.634,-13.142,-85.242,-69.842
50788420,-0.547,0.187,0.636,-22.225,-80.045,-71.522
50788420,-0.567,0.168,0.659,-27.265,-78.19,-68.11
50788440,-0.602,0.128,0.673,-31.395,-81.322,-59.867
50788440,-0.574,0.109,0.679,-33.057,-85.382,-50.925
50788460,-0.534,0.072,0.691,-30.817,-84.577,-41.842
50788460,-0.535,0.07,0.717,-27.3,-78.82,-34.597
50788480,-0.562,0.075,0.776,-28.157,-70.665,-32.2
50788480,-0.572,0.094,0.816,-33.705,-63.665,-34.317
50788500,-0.528,0.065,0.825,-40.95,-55.492,-36.645
50788500,-0.509,0,0.816,-46.55,-46.042,-37.205
50788510,-0.51,-0.043,0.823,-49.245,-35.63,-35.525
50788520,-0.551,-0.066,0.84,-50.767,-27.982,-30.695
50788530,-0.634,-0.095,0.831,-54.127,-26.075,-23.205
50788540,-0.664,-0.126,0.819,-55.51,-28.455,-15.855
50788550,-0.632,-0.151,0.815,-52.622,-31.202,-8.627
50788560,-0.591,-0.172,0.816,-49.017,-30.205,-0.787
50788570,-0.562,-0.18,0.831,-45.202,-21.542,5.652
50788580,-0.584,-0.185,0.844,-43.33,-10.307,8.89
50788590,-0.621,-0.193,0.859,-44.03,-0.42,10.99
50788600,-0.68,-0.207,0.861,-44.712,3.5,13.037
50788610,-0.735,-0.206,0.851,-43.942,-0.49,12.845
50788620,-0.745,-0.198,0.833,-41.562,-11.865,10.622
50788630,-0.68,-0.198,0.821,-37.45,-24.762,6.562
50788640,-0.609,-0.177,0.834,-33.32,-35.822,1.172
50788650,-0.615,-0.165,0.853,-32.567,-46.55,-3.167
50788660,-0.606,-0.177,0.853,-33.565,-58.31,-7.315
50788670,-0.55,-0.204,0.872,-32.812,-70.035,-8.575
50788680,-0.333,-0.31,0.845,-29.767,-71.47,-4.847
50788690,-0.296,-0.456,0.87,-12.355,-48.65,7.035
50788700,-0.385,-0.396,0.956,24.08,-19.547,18.97
50788710,-0.553,-0.275,1.013,45.185,-6.842,31.71
50788720,-0.638,-0.23,0.987,49.525,-7.402,35.437
50788730,-0.63,-0.172,0.999,56.945,-13.02,31.132
50788740,-0.618,-0.184,0.985,57.382,-24.517,28.402
50788750,-0.607,-0.218,0.913,49.087,-36.05,28.787
50788760,-0.522,-0.226,0.887,53.935,-38.36,23.065
50788760,-0.494,-0.18,0.91,61.407,-35,15.365
50788780,-0.459,-0.154,0.853,59.692,-31.447,8.312
50788780,-0.325,-0.126,0.816,58.957,-22.697,0.77
50788800,-0.277,-0.117,0.836,60.06,-0.875,-0.367
50788800,-0.361,-0.095,0.825,58.607,26.11,-0.42
50788820,-0.448,-0.088,0.823,54.635,47.827,-3.08
50788820,-0.509,-0.112,0.814,50.68,60.847,-8.575
50788830,-0.53,-0.136,0.799,50.68,67.357,-13.615
50788840,-0.587,-0.152,0.798,57.085,67.847,-13.562
50788850,-0.648,-0.129,0.813,66.745,64.4,-9.87
50788860,-0.658,-0.094,0.824,75.005,59.552,-7
50788870,-0.61,-0.051,0.845,79.607,60.025,-8.102
50788880,-0.591,-0.021,0.849,79.17,66.605,-11.515
50788890,-0.607,-0.004,0.836,76.877,76.3,-14.962
50788900,-0.594,-0.003,0.827,77.087,86.38,-16.047
50788910,-0.602,0.027,0.804,77,97.597,-14.122
50788920,-0.616,0.049,0.777,76.982,109.76,-12.775
50788930,-0.63,0.062,0.755,76.405,122.587,-14
50788940,-0.658,0.06,0.73,74.322,132.195,-15.977
50788950,-0.701,0.057,0.703,72.45,137.462,-16.677
50788960,-0.762,0.033,0.654,71.137,135.712,-14.192
50788970,-0.7,0.077,0.626,72.45,134.015,-10.062
50788980,-0.744,0.082,0.628,74.725,136.027,-5.11
50788990,-0.783,0.125,0.608,70.49,135.905,-4.882
50789000,-0.8,0.122,0.588,66.08,134.225,-4.76
50789010,-0.807,0.15,0.567,62.317,132.93,-3.307
50789020,-0.837,0.169,0.576,58.957,131.547,-1.277
50789030,-0.828,0.196,0.555,51.537,129.185,-2.695
50789040,-0.828,0.208,0.543,43.977,126.35,-4.847
50789050,-0.84,0.206,0.513,35.157,122.867,-5.11
50789060,-0.863,0.185,0.47,28.227,116.427,-4.235
50789070,-0.871,0.2,0.448,24.902,107.152,0.595
50789080,-0.897,0.189,0.429,23.782,95.322,9.712
50789090,-0.88,0.222,0.43,22.82,85.347,10.482
50789100,-0.894,0.22,0.416,19.092,76.457,10.552
50789110,-0.877,0.201,0.397,15.487,69.51,9.747
50789120,-0.847,0.206,0.383,12.477,65.782,8.225
50789130,-0.895,0.163,0.389,12.687,64.277,10.972
50789140,-0.866,0.218,0.379,8.802,63,6.527
50789150,-0.961,0.157,0.376,11.252,59.675,8.645
50789160,-0.952,0.162,0.393,13.317,55.142,8.68
50789170,-0.959,0.176,0.396,10.797,49.192,8.365
50789170,-0.99,0.152,0.377,11.007,41.37,9.257
50789190,-0.996,0.134,0.388,15.085,31.115,8.032
50789190,-0.936,0.157,0.367,16.975,22.942,0.332
50789210,-0.937,0.19,0.391,20.632,17.045,-2.747
50789210,-0.957,0.183,0.379,17.92,8.26,-0.805
50789230,-0.915,0.205,0.384,16.415,-1.295,-3.255
50789230,-0.87,0.205,0.378,11.847,-6.3,-5.53
50789250,-0.871,0.188,0.383,8.592,-7.612,-4.935
50789250,-0.896,0.163,0.378,5.81,-8.242,-2.922
50789260,-0.907,0.149,0.363,5.057,-9.677,-2.94
50789270,-0.912,0.134,0.363,7.315,-10.587,-3.377
50789280,-0.92,0.114,0.366,11.865,-11.235,-2.835
50789290,-0.925,0.117,0.366,16.817,-11.672,-2.905
50789300,-0.921,0.13,0.375,19.967,-12.6,-3.885
50789310,-0.916,0.159,0.409,21.437,-12.985,-4.252
50789320,-0.917,0.19,0.403,18.48,-13.597,-3.412
50789330,-0.922,0.183,0.423,15.61,-12.985,-2.712
50789340,-0.917,0.185,0.422,9.537,-11.48,-3.027
50789350,-0.931,0.178,0.421,5.6,-9.59,-3.045
50789360,-0.946,0.168,0.424,2.257,-9.17,-3.307
50789370,-0.954,0.159,0.425,-0.752,-10.395,-3.885
50789380,-0.948,0.16,0.433,-1.487,-13.107,-3.745
50789390,-0.934,0.168,0.443,-1.557,-16.38,-2.625
50789400,-0.926,0.168,0.447,-2.1,-19.04,-1.295
50789410,-0.922,0.162,0.451,-2.502,-20.51,-0.367
50789420,-0.903,0.164,0.455,-2.45,-20.142,0.192
50789430,-0.863,0.179,0.466,-1.732,-17.027,0
50789440,-0.857,0.182,0.478,-1.225,-12.145,0.455
50789450,-0.872,0.176,0.483,-1.347,-7.385,0.262
50789460,-0.874,0.172,0.496,-0.507,-3.92,0.017
50789470,-0.884,0.176,0.487,-1.522,-1.837,1.522
50789480,-0.891,0.171,0.491,-0.612,-0.157,2.73
50789490,-0.897,0.165,0.483,0.542,0.525,3.71
50789500,-0.89,0.158,0.481,3.832,0.875,3.622
50789510,-0.867,0.171,0.47,6.387,1.155,2.432
50789510,-0.863,0.17,0.474,10.202,1.662,2.415
50789530,-0.86,0.166,0.467,13.3,1.137,2.38
50789530,-0.834,0.181,0.459,16.1,0.77,-0.192
50789550,-0.855,0.158,0.453,18.672,0.822,0.245
50789550,-0.864,0.156,0.44,19.075,1.47,-0.542
50789570,-0.877,0.154,0.435,21.07,1.032,-2.38
50789570,-0.909,0.144,0.422,23.275,-0.63,-2.52
50789580,-0.887,0.166,0.429,25.935,-3.622,-8.05
50789590,-0.911,0.148,0.402,25.182,-5.18,-8.19
50789600,-0.935,0.149,0.399,27.44,-8.802,-7.717
50789610,-0.921,0.192,0.408,29.995,-13.195,-11.375
50789620,-0.934,0.207,0.41,29.12,-17.535,-12.512
50789630,-0.955,0.205,0.408,26.32,-23.275,-11.48
50789640,-0.958,0.223,0.402,23.887,-31.99,-13.597
50789650,-0.957,0.246,0.424,20.51,-42.63,-16.135
50789660,-0.993,0.235,0.394,16.117,-56.875,-21.087
50789670,-0.982,0.217,0.379,13.79,-71.557,-26.915
50789680,-0.922,0.226,0.383,11.69,-83.877,-32.095
50789690,-0.883,0.239,0.381,8.295,-92.085,-34.895
50789700,-0.829,0.246,0.393,6.02,-95.112,-34.93
50789710,-0.762,0.259,0.402,1.207,-91.56,-32.13
50789720,-0.774,0.243,0.409,-3.972,-84.472,-23.047
50789730,-0.79,0.229,0.414,-10.272,-74.725,-18.235
50789740,-0.796,0.218,0.427,-17.167,-63.875,-17.937
50789750,-0.825,0.193,0.436,-24.465,-53.392,-15.26
50789760,-0.851,0.179,0.438,-29.96,-46.27,-11.672
50789770,-0.867,0.17,0.445,-33.635,-41.825,-11.007
50789780,-0.894,0.148,0.451,-34.895,-39.952,-12.407
50789790,-0.935,0.155,0.488,-36.907,-42.962,-10.955
50789800,-0.982,0.089,0.486,-33.565,-53.427,-6.387
50789810,-0.929,0.155,0.523,-31.307,-64.89,-14.105
50789820,-0.924,0.144,0.534,-34.492,-76.405,-16.642
50789830,-0.897,0.116,0.54,-35.052,-86.065,-18.97
50789840,-0.849,0.104,0.566,-34.72,-92.417,-20.177
50789850,-0.803,0.107,0.599,-33.722,-95.567,-20.44
50789860,-0.767,0.098,0.616,-34.387,-94.377,-20.965
50789870,-0.722,0.092,0.653,-33.407,-88.27,-20.457
50789880,-0.744,0.043,0.67,-31.097,-81.375,-16.607
50789890,-0.697,0.04,0.691,-27.86,-73.5,-15.33
50789900,-0.663,0.052,0.724,-22.837,-61.565,-11.532
50789910,-0.68,0.057,0.758,-19.845,-49.612,-6.562
50789920,-0.684,0.048,0.769,-20.16,-38.027,-4.445
50789920,-0.676,0.023,0.778,-15.05,-26.46,-2.922
50789940,-0.708,0.029,0.8,-10.045,-16.922,0.84
50789940,-0.72,0.057,0.808,-8.592,-11.042,3.132
50789960,-0.719,0.078,0.797,-7.997,-7.595,4.515
50789960,-0.709,0.074,0.773,-8.172,-5.25,5.285
50789980,-0.696,0.063,0.753,-7.227,-1.89,4.287
50789980,-0.709,0.056,0.742,-3.78,0.332,3.237
50790000,-0.714,0.058,0.744,1.75,1.662,3.99
50790000,-0.725,0.064,0.745,7.525,1.067,6.317
50790010,-0.729,0.071,0.752,12.355,-0.087,8.347
50790020,-0.728,0.087,0.759,16.415,-1.592,9.327
50790030,-0.734,0.095,0.76,18.865,-2.187,10.447
50790040,-0.74,0.089,0.755,20.72,-2.362,10.797
50790050,-0.737,0.087,0.742,22.312,-2.17,11.095
50790060,-0.747,0.083,0.734,24.482,-2.047,12.512
50790070,-0.753,0.092,0.721,26.162,-1.61,12.18
50790080,-0.751,0.104,0.714,27.982,-1.417,10.517
50790090,-0.753,0.115,0.708,28.665,-1.312,9.03
50790100,-0.753,0.125,0.703,27.93,-1.54,7.91
50790110,-0.757,0.138,0.701,25.427,-1.977,6.545
50790120,-0.766,0.138,0.695,22.05,-2.765,4.427
50790130,-0.782,0.134,0.693,19.005,-4.637,1.925
50790140,-0.796,0.13,0.685,15.365,-7.962,-0.455
50790150,-0.788,0.128,0.682,11.97,-11.637,-2.73
50790160,-0.775,0.126,0.678,9.327,-14.385,-4.322
50790170,-0.764,0.118,0.674,6.632,-16.52,-6.457
50790180,-0.75,0.096,0.666,4.795,-17.727,-8.557
50790190,-0.739,0.067,0.658,3.815,-18.077,-9.397
50790200,-0.737,0.036,0.645,3.325,-17.22,-9.135
50790210,-0.746,0.01,0.634,3.115,-16.222,-8.855
50790220,-0.751,-0.002,0.63,2.257,-15.172,-9.012
50790230,-0.75,-0.008,0.63,0.7,-14.91,-8.557
50790240,-0.739,-0.005,0.637,-2.24,-14.367,-7.14
50790250,-0.717,0,0.648,-7.192,-13.685,-4.952
50790260,-0.685,0.006,0.651,-13.72,-10.395,-2.765
50790260,-0.642,0.013,0.667,-20.912,-3.517,-0.367
50790280,-0.573,0.034,0.662,-29.347,8.662,3.097
50790280,-0.528,0.059,0.652,-38.185,26.827,7.42
50790300,-0.553,0.072,0.615,-49.087,48.632,10.64
50790300,-0.628,0.061,0.564,-59.29,68.635,10.85
50790320,-0.704,0.037,0.508,-65.625,83.125,9.082
50790320,-0.757,0.03,0.462,-66.762,89.005,6.965
50790330,-0.796,0.047,0.433,-64.33,86.537,6.212
50790340,-0.831,0.062,0.419,-58.45,75.652,6.265
50790350,-0.83,0.074,0.403,-49.56,60.427,7.14
50790360,-0.783,0.082,0.399,-39.48,45.727,9.905
50790370,-0.715,0.109,0.427,-30.45,38.115,14.297
50790380,-0.67,0.147,0.447,-25.637,40.6,18.725
50790390,-0.696,0.173,0.457,-27.912,50.522,19.862
50790400,-0.742,0.176,0.471,-34.44,62.807,17.272
50790410,-0.789,0.14,0.467,-41.142,73.727,16.117
50790420,-0.845,0.109,0.471,-45.255,79.59,16.817
50790430,-0.914,0.102,0.493,-46.567,79.17,18.62
50790440,-0.985,0.064,0.495,-45.972,71.977,20.842
50790450,-1.01,0.049,0.505,-41.702,60.252,22.89
50790460,-1,0.071,0.529,-37.8,45.902,24.045
50790470,-1.137,-0.095,0.434,-30.52,26.565,36.487
50790480,-1.059,-0.018,0.582,-1.96,7.525,29.26
50790490,-1.019,0.076,0.61,-7.472,-7.227,21.49
50790500,-1.025,0.051,0.587,-17.027,-18.55,18.06
50790510,-1,0.04,0.602,-20.457,-28.752,13.352
50790520,-0.956,0.038,0.595,-25.725,-39.76,8.505
50790530,-0.946,0.023,0.556,-29.102,-49.805,6.23
50790540,-0.893,-0.005,0.562,-28.472,-57.33,6.475
50790550,-0.806,-0.008,0.558,-26.162,-59.71,8.032
50790560,-0.757,-0.012,0.575,-19.792,-58.24,10.447
50790570,-0.715,-0.016,0.594,-11.025,-53.655,10.867
50790580,-0.695,0.009,0.625,-4.445,-44.432,10.395
50790590,-0.728,0.008,0.628,-1.907,-35.997,8.89
50790600,-0.77,-0.017,0.663,7.367,-31.167,8.592
50790610,-0.767,-0.009,0.693,12.25,-28.7,8.295
50790620,-0.748,0.033,0.721,15.907,-29.487,7.28
50790630,-0.727,0.079,0.732,12.197,-35,8.89
50790640,-0.765,0.076,0.727,6.597,-36.715,10.36
50790650,-0.816,0.133,0.759,-1.995,-41.23,3.412
50790660,-0.849,0.114,0.717,-17.412,-49.857,-3.832
50790670,-0.706,0.072,0.706,-31.342,-54.932,-11.007
50790670,-0.645,0.06,0.693,-41.93,-43.592,-12.897
50790690,-0.817,0.127,0.715,-57.33,-35,-19.372
50790690,-0.647,-0.125,0.573,-63.192,-34.842,-26.232
50790710,-0.53,-0.218,0.648,-40.81,-18.725,-19.04
50790710,-0.693,-0.117,0.727,-22.995,-0.105,-3.342
50790730,-0.787,-0.05,0.789,-7.665,7.805,4.97
50790730,-0.709,-0.024,0.814,0.122,12.792,6.72
50790740,-0.681,-0.023,0.774,1.925,19.232,8.627
50790750,-0.704,-0.038,0.715,2.082,30.17,9.607
50790760,-0.743,-0.03,0.671,4.217,39.865,9.047
50790770,-0.79,-0.005,0.638,6.685,43.732,9.257
50790780,-0.828,0.003,0.621,7.805,42.752,9.432
50790790,-0.862,-0.007,0.605,9.695,36.942,7.962
50790800,-0.888,-0.025,0.588,14.157,26.652,7.28
50790810,-0.905,0.008,0.569,21.332,15.05,5.652
50790820,-0.885,0.069,0.582,26.232,4.865,2.187
50790830,-0.911,0.081,0.587,27.247,-4.987,-2.362
50790840,-0.897,0.081,0.58,28.962,-16.327,-8.802
50790850,-0.87,0.088,0.592,29.715,-28.367,-12.67
50790860,-0.864,0.111,0.62,28.332,-40.442,-15.872
50790870,-0.884,0.125,0.619,22.697,-54.11,-16.87
50790880,-0.889,0.091,0.617,20.51,-70.717,-15.225
50790890,-0.774,0.122,0.702,25.165,-84.35,-16.485
50790900,-0.601,0.196,0.81,23.275,-84.455,-14.665
50790910,-0.444,0.262,0.935,11.252,-63.227,-9.082
50790920,-0.432,0.274,1.032,-9.502,-20.86,-3.762
50790930,-0.447,0.281,1.046,-33.25,24.867,-3.342
50790940,-0.466,0.189,0.974,-51.94,72.047,-0.542
50790950,-0.646,0.063,0.85,-53.777,114.73,5.757
50790960,-0.813,0.067,0.765,-32.76,142.117,10.85
50790970,-0.941,0.18,0.715,3.132,148.067,20.982
50790980,-1.066,0.312,0.634,37.082,135.065,35.385
50790990,-1.103,0.478,0.537,68.232,105.787,47.897
50791000,-1.056,0.594,0.445,92.54,67.55,57.33
50791010,-0.936,0.674,0.399,107.275,33.792,64.4
50791010,-0.856,0.717,0.383,104.37,10.325,66.045
50791030,-0.838,0.759,0.359,88.62,-4.655,59.15
50791030,-0.872,0.747,0.388,64.925,-17.797,44.117
50791050,-0.949,0.692,0.394,35.035,-36.592,23.73
50791050,-0.923,0.577,0.418,10.675,-64.995,3.027
50791070,-0.864,0.53,0.528,-7.157,-94.675,-11.62
50791070,-0.773,0.45,0.463,-29.277,-119.245,-23.047
50791080,-0.517,0.365,0.436,-38.115,-125.912,-40.88
50791090,-0.309,0.234,0.414,-50.33,-100.607,-53.637
50791100,-0.213,0.155,0.462,-59.552,-55.615,-66.832
50791110,-0.272,0.037,0.464,-75.81,-8.662,-75.477
50791120,-0.397,-0.077,0.452,-94.867,33.897,-77.595
50791130,-0.537,-0.203,0.403,-107.17,67.865,-74.532
50791140,-0.783,-0.302,0.392,-113.907,86.66,-64.242
50791150,-1.128,-0.409,0.402,-114.677,80.22,-49.892
50791160,-1.377,-0.429,0.402,-109.235,42.14,-41.37
50791170,-1.454,-0.42,0.404,-104.737,-18.34,-42.332
50791180,-1.389,-0.408,0.416,-105.892,-85.295,-46.97
50791190,-1.23,-0.411,0.428,-111.02,-143.885,-52.167
50791200,-1.044,-0.431,0.411,-119.875,-183.435,-56.402
50791210,-0.833,-0.461,0.411,-127.19,-199.045,-60.025
50791220,-0.632,-0.499,0.395,-128.345,-195.527,-62.142
50791230,-0.598,-0.701,0.326,-117.302,-181.177,-42.647
50791240,-0.256,-0.506,0.612,-85.54,-156.24,-34.58
50791250,-0.343,-0.58,0.558,-88.217,-113.33,-26.88
50791260,-0.402,-0.524,0.751,-66.307,-75.022,-13.51
50791270,-0.474,-0.486,0.763,-61.355,-46.165,-3.132
50791280,-0.399,-0.428,0.882,-48.387,-19.355,-2.38
50791290,-0.805,-0.506,0.766,-54.495,-1.382,11.935
50791300,-0.902,-0.694,0.923,-19.722,-21.21,3.115
50791310,-0.621,-0.613,0.945,-5.547,-41.282,-14.77
50791320,-0.546,-0.413,0.971,8.347,-41.825,0.91
50791330,-0.605,-0.28,0.948,17.255,-40.915,16.03
50791340,-0.535,-0.309,0.912,13.3,-35.052,27.492
50791350,-0.507,-0.321,0.81,-2.275,-24.657,30.8
50791360,-0.476,-0.273,0.738,-15.592,-13.65,24.115
50791370,-0.582,-0.358,0.637,-27.982,-1.767,16.1
50791380,-0.6,-0.403,0.611,-25.34,6.16,8.505
50791390,-0.612,-0.428,0.621,-11.83,3.885,9.17
50791400,-0.645,-0.358,0.691,1.767,-1.26,15.575
50791410,-0.586,-0.324,0.733,7.735,-9.135,17.92
50791420,-0.581,-0.315,0.765,13.125,-13.79,19.845
50791420,-0.632,-0.313,0.806,10.552,-15.417,24.22
50791430,-0.67,-0.363,0.824,3.99,-14.787,24.377
50791440,-0.666,-0.398,0.838,3.482,-11.532,17.675
50791450,-0.662,-0.414,0.862,5.32,-4.935,11.532
50791460,-0.651,-0.446,0.872,7.192,0.28,9.747
50791470,-0.621,-0.527,0.851,12.075,7.297,17.377
50791480,-0.521,-0.572,0.867,27.527,20.737,27.755
50791490,-0.447,-0.503,0.83,23.31,48.125,21.98
50791500,-0.485,-0.557,0.785,23.467,77.752,32.095
50791510,-0.511,-0.576,0.727,27.842,108.132,41.037
50791520,-0.576,-0.525,0.687,33.355,132.23,49.962
50791530,-0.685,-0.429,0.696,33.512,147.577,58.17
50791540,-0.805,-0.367,0.68,26.915,148.942,60.83
50791550,-0.832,-0.339,0.618,18.725,138.215,59.272
50791560,-0.767,-0.291,0.556,12.407,127.785,53.55
50791570,-0.807,-0.244,0.551,12.792,117.057,52.307
50791580,-0.855,-0.186,0.556,8.977,100.782,57.032
50791590,-0.789,-0.094,0.567,1.295,80.762,59.99
50791600,-0.74,-0.042,0.56,-6.16,65.187,64.365
50791610,-0.674,0.073,0.572,-17.552,59.01,50.172
50791620,-0.733,0.085,0.513,-33.862,57.4,43.837
50791630,-0.77,-0.005,0.43,-38.325,57.015,36.452
50791640,-0.776,0.02,0.489,-28.56,58.485,19.442
50791650,-0.806,0.109,0.533,-21.192,57.575,4.62
50791660,-0.872,0.196,0.574,-20.125,49.63,-9.03
50791670,-0.918,0.189,0.542,-22.715,32.025,-22.872
50791680,-0.889,0.129,0.493,-21.245,11.987,-31.92
50791690,-0.834,0.136,0.492,-18.567,-3.325,-34.177
50791700,-0.817,0.117,0.464,-17.412,-10.535,-33.215
50791710,-0.828,0.116,0.485,-11.952,-11.847,-32.392
50791720,-0.872,0.11,0.495,-5.6,-13.23,-28.577
50791730,-0.855,0.141,0.538,-2.712,-16.275,-30.607
50791740,-0.877,0.103,0.534,-5.775,-21.017,-26.092
50791750,-0.87,0.079,0.54,-7.157,-26.81,-21.07
50791760,-0.864,0.048,0.539,-9.625,-31.762,-19.127
50791760,-0.832,0.006,0.55,-7.105,-34.212,-16.905
50791780,-0.777,0.017,0.567,-5.495,-32.865,-16.467
50791780,-0.796,-0.004,0.575,-3.307,-30.8,-11.83
50791800,-0.756,-0.011,0.592,-1.207,-26.6,-9.957
50791800,-0.746,0.015,0.631,0.63,-20.615,-7.21
50791820,-0.767,0.002,0.643,-1.767,-14.595,-1.382
50791820,-0.79,-0.025,0.65,-4.48,-9.415,3.115
50791830,-0.814,-0.054,0.654,-7.857,-4.935,2.817
50791840,-0.84,-0.08,0.653,-8.522,-3.307,2.065
50791850,-0.88,-0.079,0.653,-8.05,-4.952,1.505
50791860,-0.89,-0.082,0.652,-8.942,-9.852,-2.31
50791870,-0.853,-0.099,0.637,-9.52,-15.33,-4.462
50791880,-0.823,-0.099,0.631,-9.152,-19.792,-5.81
50791890,-0.821,-0.117,0.633,-7.822,-22.4,-3.955
50791900,-0.792,-0.092,0.631,-8.662,-23.485,-2.817
50791910,-0.759,-0.097,0.618,-8.487,-22.837,-3.15
50791920,-0.764,-0.109,0.61,-6.195,-20.877,-1.96
50791930,-0.768,-0.106,0.59,-5.81,-18.76,-1.382
50791940,-0.78,-0.102,0.58,-4.567,-18.182,-0.997
50791950,-0.788,-0.117,0.582,-1.645,-20.107,0.472
50791960,-0.769,-0.111,0.582,-0.35,-22.067,2.187
50791970,-0.772,-0.104,0.592,0.14,-22.382,2.38
50791980,-0.767,-0.106,0.628,-0.98,-21,0.875
50791990,-0.767,-0.125,0.639,-4.305,-17.885,-1.557
50792000,-0.795,-0.125,0.665,-6.265,-14.717,-5.215
50792010,-0.799,-0.136,0.665,-9.94,-15.172,-7.822
50792020,-0.724,-0.148,0.672,-12.092,-12.46,-8.225
50792030,-0.74,-0.141,0.673,-12.862,-6.492,-6.335
50792040,-0.782,-0.126,0.655,-14.91,-2.695,-5.232
50792050,-0.792,-0.118,0.652,-18.515,-2.992,-4.567
50792060,-0.745,-0.146,0.619,-23.257,-3.657,-4.322
50792070,-0.725,-0.146,0.603,-24.342,3.045,-4.06
50792080,-0.871,-0.143,0.618,-27.422,7.315,-4.305
50792090,-0.889,-0.189,0.6,-31.045,2.415,-4.13
50792100,-0.887,-0.235,0.632,-22.085,-8.085,-4.025
50792100,-0.806,-0.17,0.683,-13.51,-13.702,-9.887
50792120,-0.861,-0.154,0.679,-15.47,-17.5,-8.05
50792120,-0.847,-0.182,0.651,-18.795,-22.067,-9.222
50792140,-0.822,-0.207,0.644,-17.132,-26.635,-10.5
50792140,-0.782,-0.198,0.64,-13.755,-28.717,-12.285
50792160,-0.754,-0.167,0.658,-11.147,-26.985,-13.72
50792160,-0.729,-0.142,0.667,-11.515,-24.08,-15.435
50792170,-0.706,-0.139,0.658,-15.242,-20.212,-17.482
50792180,-0.687,-0.142,0.65,-20.492,-16.782,-19.687
50792190,-0.69,-0.152,0.633,-25.13,-12.792,-21.402
50792200,-0.696,-0.16,0.628,-28.7,-9.52,-23.292
50792210,-0.72,-0.181,0.633,-30.607,-7.087,-22.907
50792220,-0.745,-0.207,0.639,-30.275,-6.877,-21.805
50792230,-0.761,-0.218,0.65,-31.027,-8.032,-20.02
50792240,-0.816,-0.248,0.644,-32.777,-12.057,-16.415
50792250,-0.808,-0.292,0.638,-31.29,-15.61,-13.912
50792260,-0.817,-0.301,0.641,-28.63,-17.08,-12.95
50792270,-0.845,-0.279,0.65,-28.017,-20.072,-13.405
50792280,-0.799,-0.284,0.63,-27.895,-26.775,-15.645
50792290,-0.696,-0.289,0.621,-25.042,-29.627,-16.52
50792300,-0.68,-0.282,0.625,-19.967,-26.897,-14.805
50792310,-0.638,-0.234,0.654,-16.31,-22.487,-14.735
50792320,-0.582,-0.273,0.635,-18.112,-17.342,-14.752
50792330,-0.554,-0.261,0.672,-19.565,-8.365,-18.357
50792340,-0.656,-0.296,0.706,-26.337,-1.435,-21.052
50792350,-1.459,-0.159,0.7,-42.472,-35.07,-39.97
50792360,0.494,-0.393,0.551,-66.167,-63.577,-75.232
50792370,0.169,-0.547,0.616,-38.132,37.835,-60.165
50792380,-1.584,-0.502,0.592,-29.067,69.807,-5.005
50792390,-1.133,-0.117,0.653,-19.512,14.56,-8.05
50792400,-0.598,-0.214,0.624,-22.487,-7.21,-27.79
50792410,-0.827,-0.403,0.521,-34.492,0.665,-15.347
50792420,-1.006,-0.328,0.569,-28.77,-2.03,-16.257
50792430,-0.942,-0.272,0.598,-27.142,-17.657,-19.88
50792440,-0.894,-0.335,0.639,-30.747,-27.65,-22.487
50792450,-0.949,-0.385,0.652,-34.282,-35.472,-20.965
50792460,-0.923,-0.367,0.664,-32.9,-47.88,-20.352
50792470,-0.825,-0.366,0.634,-28.245,-60.865,-21.297
50792480,-0.734,-0.33,0.637,-22.96,-67.707,-24.377
50792490,-0.671,-0.293,0.64,-24.15,-69.457,-25.952
50792500,-0.596,-0.353,0.639,-26.04,-66.727,-28.227
50792510,-0.526,-0.383,0.688,-26.775,-59.255,-31.955
50792510,-0.507,-0.407,0.71,-32.06,-50.417,-33.88
50792530,-0.477,-0.458,0.661,-34.737,-42.595,-35.122
50792530,-0.44,-0.485,0.638,-28.682,-34.842,-36.872
50792550,-0.424,-0.434,0.618,-26.792,-26.302,-37.17
50792550,-0.443,-0.432,0.584,-26.232,-17.78,-36.977
50792570,-0.461,-0.463,0.585,-24.097,-10.5,-34.982
50792570,-0.531,-0.492,0.573,-21.7,-5.53,-30.047
50792580,-0.547,-0.509,0.575,-18.042,-5.425,-23.292
50792590,-0.536,-0.53,0.595,-14.192,-5.04,-16.012
50792600,-0.61,-0.539,0.611,-10.202,-5.512,-10.762
50792610,-0.651,-0.528,0.614,-6.772,-9.642,-7.91
50792620,-0.693,-0.522,0.604,-3.062,-16.537,-6.737
50792630,-0.711,-0.512,0.62,1.277,-23.467,-5.722
50792640,-0.716,-0.477,0.667,4.375,-29.802,-4.882
50792650,-0.719,-0.441,0.699,3.92,-37.047,-4.847
50792660,-0.659,-0.419,0.736,2.537,-42.77,-5.635
50792670,-0.65,-0.398,0.764,0.14,-46.2,-6.09
50792680,-0.629,-0.377,0.767,-3.325,-48.65,-8.085
50792690,-0.58,-0.358,0.767,-6.387,-49.192,-12.18
50792700,-0.572,-0.357,0.761,-10.5,-47.652,-15.802
50792710,-0.58,-0.38,0.754,-14.507,-45.78,-19.232
50792720,-0.569,-0.41,0.741,-17.447,-44.187,-21.665
50792730,-0.552,-0.433,0.736,-18.375,-42.962,-22.435
50792740,-0.555,-0.464,0.716,-18.847,-42.525,-21.367
50792750,-0.515,-0.491,0.689,-18.06,-42.56,-21.735
50792760,-0.434,-0.52,0.651,-15.925,-41.072,-21.28
50792770,-0.335,-0.541,0.618,-12.092,-35.98,-18.235
50792780,-0.23,-0.534,0.625,-7.07,-26.862,-13.422
50792790,-0.235,-0.545,0.641,-4.13,-17.797,-5.775
50792800,-0.265,-0.573,0.646,-2.94,-10.727,0.997
50792810,-0.249,-0.584,0.67,0.227,-3.762,4.62
50792820,-0.289,-0.577,0.687,4.515,4.2,8.4
50792830,-0.369,-0.525,0.67,7.542,9.327,11.725
50792830,-0.337,-0.527,0.678,7.927,13.895,13.335
50792850,-0.391,-0.54,0.722,9.87,19.845,13.615
50792850,-0.433,-0.512,0.723,9.187,20.947,17.727
50792870,-0.44,-0.482,0.758,8.435,21.49,19.897
50792870,-0.471,-0.499,0.794,4.06,22.417,20.93
50792890,-0.501,-0.543,0.746,0.63,21.262,22.767
50792890,-0.513,-0.544,0.746,5.32,20.212,24.867
50792910,-0.533,-0.54,0.776,11.287,21.28,27.37
50792910,-0.558,-0.535,0.79,17.22,20.002,25.55
50792920,-0.589,-0.447,0.689,24.29,10.867,15.645
50792930,-0.497,-0.466,0.625,24.045,-7.805,7.175
50792940,0.029,-0.532,0.695,23.642,-4.357,5.355
50792950,-0.019,-0.712,0.526,25.515,43.12,24.64
50792960,-0.152,-0.739,0.692,47.11,95.935,28.63
50792970,-0.334,-0.766,0.674,56.787,131.53,40.512
50792980,-0.492,-0.783,0.65,74.9,158.987,62.247
50792990,-0.679,-0.69,0.685,104.177,175.245,76.632
50793000,-0.89,-0.617,0.674,125.107,171.815,89.197
50793010,-0.926,-0.546,0.624,137.13,158.76,93.03
50793020,-0.965,-0.44,0.581,149.782,142.135,86.922
50793030,-1.028,-0.307,0.586,155.662,119.7,76.352
50793040,-1.12,-0.189,0.543,146.16,87.132,62.352
50793050,-1.178,-0.063,0.518,125.405,47.145,37.712
50793060,-1.144,0.017,0.441,99.382,2.835,7.612
50793070,-0.984,0.06,0.394,76.51,-37.905,-17.99
50793080,-0.825,0.099,0.357,53.427,-66.115,-38.307
50793090,-0.685,0.109,0.325,31.115,-79.747,-54.547
50793100,-0.5,0.147,0.348,9.38,-75.372,-65.782
50793110,-0.519,0.105,0.386,-10.062,-60.637,-65.222
50793120,-0.594,0.053,0.427,-27.247,-46.655,-63.84
50793130,-0.647,0.027,0.498,-40.985,-39.41,-61.827
50793140,-0.704,-0.034,0.538,-52.062,-38.675,-57.137
50793150,-0.718,-0.099,0.559,-58.345,-40.46,-51.642
50793160,-0.822,-0.191,0.62,-58.73,-43.995,-45.237
50793170,-0.891,-0.246,0.674,-55.527,-53.077,-46.007
50793180,-0.875,-0.3,0.697,-43.365,-67.637,-34.65
50793190,-0.864,-0.45,0.696,-10.237,-91,-2.362
50793200,-0.598,-0.195,0.886,7.997,-96.792,-9.887
50793210,0.015,-0.314,1.254,-2.397,-60.83,10.762
50793220,-0.058,-0.78,1.002,-4.427,33.092,46.987
50793230,-1.025,-0.708,0.547,27.685,76.037,79.835
50793240,-1.358,-0.095,0.883,68.705,40.6,87.08
50793250,-0.717,0.028,0.917,52.237,-14.647,54.652
50793260,-0.347,-0.228,0.789,25.585,-27.177,45.01
50793260,-0.451,-0.292,0.717,18.305,-16.275,59.027
50793280,-0.577,-0.242,0.679,22.032,-6.527,58.625
50793280,-0.63,-0.215,0.708,25.987,-5.337,49.28
50793300,-0.663,-0.301,0.712,21.77,-7.63,49.402
50793300,-0.713,-0.385,0.765,31.062,-5.46,48.965
50793320,-0.873,-0.307,0.836,45.29,-11.06,46.41
50793320,-0.898,-0.196,0.872,42.402,-26.302,37.292
50793330,-0.685,-0.219,0.868,28.857,-34.002,27.055
50793340,-0.675,-0.313,0.809,27.387,-29.382,28.612
50793350,-0.689,-0.264,0.787,28.227,-21.315,26.477
50793360,-0.727,-0.209,0.782,26.862,-13.352,20.212
50793370,-0.726,-0.214,0.768,22.925,-8.907,18.042
50793380,-0.714,-0.263,0.75,23.275,-8.522,21.56
50793390,-0.676,-0.28,0.745,30.747,-4.707,29.592
50793400,-0.7,-0.257,0.773,40.985,5.722,34.58
50793410,-0.678,-0.205,0.818,50.365,18.847,32.55
50793420,-0.644,-0.179,0.83,56.56,32.742,31.01
50793430,-0.684,-0.157,0.819,61.53,48.142,32.882
50793440,-0.74,-0.111,0.804,65.87,61.425,33.74
50793450,-0.736,-0.059,0.801,69.142,71.68,31.71
50793460,-0.698,-0.009,0.784,67.777,82.232,28.21
50793470,-0.721,0.028,0.727,59.22,92.645,25.252
50793480,-0.749,0.042,0.631,50.172,100.1,24.272
50793490,-0.746,0.047,0.552,45.867,104.947,27.422
50793500,-0.759,0.066,0.491,45.552,108.167,34.86
50793510,-0.772,0.101,0.454,47.04,111.317,41.755
50793520,-0.814,0.12,0.45,48.195,114.205,46.025
50793530,-0.873,0.128,0.467,48.527,113.207,46.637
50793540,-0.906,0.151,0.492,47.232,106.435,46.095
50793550,-0.925,0.146,0.506,45.255,93.94,45.692
50793560,-0.938,0.13,0.515,42.682,77.63,43.662
50793570,-0.949,0.123,0.498,38.272,58.642,41.282
50793580,-0.915,0.105,0.477,35.105,40.057,38.045
50793580,-0.863,0.086,0.485,36.522,24.08,35.857
50793600,-0.791,0.071,0.457,36.68,14.367,36.575
50793600,-0.748,0.063,0.458,39.707,12.827,37.047
50793620,-0.725,0.06,0.482,43.295,16.432,37.31
50793620,-0.697,0.051,0.47,46.952,21.822,39.9
50793640,-0.632,0.083,0.521,50.662,31.29,42.42
50793640,-0.678,0.081,0.51,45.132,43.837,44.66
50793660,-0.757,0.089,0.56,40.075,53.182,40.582
50793660,-0.816,0.09,0.558,32.9,53.69,36.33
50793670,-0.794,0.12,0.586,26.74,51.292,30.922
50793680,-0.806,0.11,0.577,19.547,48.405,24.482
50793690,-0.813,0.095,0.614,14.945,46.55,15.452
50793700,-0.828,-0.003,0.629,16.677,39.812,8.977
50793710,-0.725,-0.054,0.575,19.95,34.825,13.65
50793720,-0.728,-0.053,0.578,28.577,41.055,23.327
50793730,-0.86,-0.017,0.698,39.445,46.13,22.89
50793740,-0.844,0.001,0.662,46.41,39.287,20.475
50793750,-0.765,0.031,0.639,63.84,42.7,23.03
50793760,-0.788,0.155,0.589,71.452,49.525,20.23
50793770,-0.781,0.221,0.469,60.322,52.692,14.402
50793780,-0.849,0.177,0.362,48.212,56.14,12.127
50793790,-0.906,0.125,0.323,41.545,56.157,11.97
50793800,-0.99,0.126,0.307,40.162,49.577,13.755
50793810,-0.973,0.168,0.324,40.215,37.03,11.777
50793820,-0.883,0.163,0.337,36.085,25.812,8.015
50793830,-0.805,0.152,0.336,33.127,25.427,6.177
50793840,-0.826,0.167,0.355,32.305,35.98,3.867
50793850,-0.938,0.177,0.399,29.382,46.147,-1.417
50793860,-1.056,0.16,0.407,25.305,44.31,-7.21
50793870,-1.163,0.135,0.399,20.072,27.37,3.92
50793880,-1.106,0.134,0.443,29.137,2.292,12.512
50793890,-1.031,0.197,0.442,24.71,-11.532,4.13
50793900,-0.951,0.123,0.383,16.94,-12.337,-16.467
50793910,-0.804,0.215,0.487,16.24,-0.28,-40.145
50793920,-1.083,0.018,0.392,7.56,4.2,-3.552
50793930,-1.025,0.026,0.487,23.117,-3.167,6.37
50793940,-0.873,0.154,0.5,32.322,0.665,-2.922
50793950,-0.952,0.211,0.517,31.727,9.327,-10.692
50793960,-1.058,0.122,0.445,21.927,2.59,-13.02
50793970,-0.952,0.074,0.372,22.207,-7.91,-16.835
50793980,-0.896,0.085,0.37,31.097,-14.035,-15.837
50793990,-0.977,0.138,0.39,32.042,-21.752,-13.755
50794000,-1.06,0.177,0.406,27.65,-37.975,-18.707
50794010,-1.097,0.197,0.417,20.44,-62.947,-28.437
50794010,-1.098,0.2,0.388,9.992,-90.772,-39.83
50794030,-1.042,0.219,0.38,-0.385,-114.03,-52.237
50794030,-0.978,0.203,0.381,-11.76,-129.657,-59.08
50794050,-0.829,0.211,0.368,-19.897,-137.427,-68.652
50794050,-0.736,0.183,0.35,-22.89,-136.535,-70.315
50794070,-0.733,0.138,0.331,-23.03,-130.007,-65.695
50794070,-0.741,0.129,0.334,-18.935,-119.472,-59.902
50794080,-0.726,0.147,0.357,-13.037,-106.295,-55.86
50794090,-0.723,0.147,0.372,-10.815,-90.737,-53.725
50794100,-0.725,0.137,0.414,-9.012,-74.427,-53.13
50794110,-0.735,0.182,0.469,-9.415,-58.065,-53.13
50794120,-0.801,0.196,0.49,-13.212,-45.43,-51.117
50794130,-0.81,0.219,0.503,-21.735,-36.155,-56.175
50794140,-0.813,0.191,0.483,-29.732,-31.202,-61.81
50794150,-0.85,0.131,0.462,-30.59,-33.092,-61.53
50794160,-0.866,0.079,0.453,-26.092,-39.165,-59.045
50794170,-0.874,0.084,0.484,-18.462,-46.375,-54.792
50794180,-0.879,0.113,0.514,-12.285,-54.46,-52.342
50794190,-0.81,0.148,0.573,-9.642,-57.172,-55.737
50794200,-0.709,0.223,0.637,-25.567,-50.19,-56.455
50794210,-0.778,0.028,0.588,-35.752,-44.082,-39.147
50794220,-0.737,0.104,0.653,-26.53,-35.962,-34.842
50794230,-0.768,0.122,0.648,-32.76,-27.37,-29.75
50794240,-0.758,0.087,0.676,-34.09,-19.145,-24.867
50794250,-0.893,-0.059,0.541,-30.94,-17.675,-5.215
50794260,-0.844,0.009,0.665,-9.59,-20.912,4.725
50794270,-0.838,0.092,0.658,-19.985,-22.452,-0.472
50794280,-0.894,-0.007,0.636,-22.557,-25.445,-1.907
50794290,-0.879,-0.078,0.661,-15.295,-32.41,-4.217
50794300,-0.841,-0.076,0.672,-5.705,-40.057,-4.55
50794310,-0.795,-0.019,0.71,4.9,-43.995,-3.255
50794320,-0.74,0.006,0.716,6.72,-42.7,-1.767
50794330,-0.692,-0.01,0.724,5.722,-35.945,-0.735
50794330,-0.66,-0.04,0.747,4.847,-22.977,2.38
50794350,-0.677,-0.045,0.734,3.762,-7.98,6.895
50794350,-0.725,-0.012,0.763,2.17,5.005,10.237
50794370,-0.771,-0.005,0.756,-2.187,11.2,10.762
50794370,-0.788,-0.037,0.714,-6.02,10.972,8.557
50794390,-0.781,-0.054,0.687,-5.827,8.662,6.737
50794390,-0.767,-0.049,0.664,-4.06,6.58,5.32
50794410,-0.79,-0.04,0.685,-2.765,5.285,6.632
50794410,-0.792,-0.033,0.666,-5.092,3.062,9.187
50794420,-0.792,-0.027,0.659,-4.532,-0.14,7.647
50794430,-0.792,-0.03,0.672,-5.705,-1.872,6.79
50794440,-0.73,-0.056,0.697,-6.755,1.12,5.932
50794450,-0.779,-0.053,0.691,-3.762,7.962,7.28
50794460,-0.816,-0.024,0.676,-3.955,9.03,4.987
50794470,-0.789,-0.023,0.658,-5.6,9.31,2.187
50794480,-0.768,-0.04,0.641,-5.442,9.887,2.135
50794490,-0.786,-0.035,0.63,-3.517,11.2,3.92
50794500,-0.791,-0.017,0.629,-2.677,11.287,5.46
50794510,-0.804,-0.01,0.623,-3.972,10.027,5.267
50794520,-0.809,-0.02,0.616,-5.057,8.487,5.075
50794530,-0.817,-0.031,0.613,-5.127,6.772,4.06
50794540,-0.812,-0.037,0.616,-4.112,5.127,2.887
50794550,-0.826,-0.032,0.605,-3.237,2.695,1.61
50794560,-0.8,-0.029,0.62,-2.31,1.207,-0.735
50794570,-0.796,-0.033,0.627,-2.45,0.997,-0.84
50794580,-0.821,-0.027,0.633,-2.555,-0.175,0.525
50794590,-0.8,-0.021,0.632,-3.115,-2.66,-0.175
50794600,-0.78,-0.024,0.634,-3.5,-3.045,-0.577
50794610,-0.784,-0.025,0.631,-4.147,-2.765,-0.437
50794620,-0.778,-0.017,0.628,-4.427,-2.152,-0.297
50794630,-0.774,-0.013,0.624,-4.532,-2.047,0.245
50794640,-0.774,-0.018,0.615,-5.075,-1.435,0.875
50794650,-0.776,-0.023,0.617,-4.76,-1.225,1.347
50794660,-0.775,-0.026,0.624,-3.885,-0.682,2.082
50794670,-0.782,-0.026,0.626,-3.552,-0.63,2.345
50794680,-0.792,-0.027,0.62,-3.64,-0.017,2.222
50794690,-0.795,-0.029,0.625,-3.57,-0.175,1.855
50794700,-0.802,-0.029,0.629,-3.727,-0.297,1.487
50794710,-0.818,-0.03,0.634,-3.727,-1.505,0.7
50794720,-0.804,-0.027,0.628,-4.34,-2.87,-0.227
50794730,-0.792,-0.025,0.621,-5.04,-3.325,-0.7
50794740,-0.805,-0.027,0.62,-5.25,-3.5,-1.19
50794750,-0.792,-0.036,0.622,-5.495,-3.78,-1.785
50794760,-0.801,-0.043,0.628,-4.532,-3.92,-1.715
50794760,-0.793,-0.028,0.634,-3.185,-5.022,-2.152
50794780,-0.769,-0.017,0.64,-3.01,-3.762,-2.17
50794780,-0.788,-0.023,0.64,-4.27,-2.52,-1.82
50794800,-0.797,-0.029,0.636,-5.005,-2.362,-2.135
50794800,-0.792,-0.027,0.633,-4.847,-3.027,-2.625
50794810,-0.784,-0.024,0.629,-5.127,-3.552,-2.555
50794820,-0.78,-0.025,0.626,-5.705,-3.587,-2.625
50794830,-0.78,-0.031,0.619,-5.617,-2.975,-2.572
50794840,-0.784,-0.035,0.619,-4.742,-2.695,-1.89
50794850,-0.787,-0.035,0.617,-4.06,-2.205,-1.855
50794860,-0.787,-0.031,0.624,-3.92,-1.645,-2.31
50794870,-0.792,-0.035,0.626,-3.85,-1.347,-2.485
50794880,-0.803,-0.046,0.629,-3.78,-1.4,-1.82
50794890,-0.811,-0.046,0.63,-3.85,-2.117,-3.027
50794900,-0.798,-0.048,0.623,-4.217,-2.8,-4.007
50794910,-0.787,-0.051,0.621,-4.287,-2.782,-4.375
50794920,-0.785,-0.05,0.621,-3.92,-2.747,-4.322
50794930,-0.776,-0.053,0.62,-3.745,-3.71,-4.252
50794940,-0.761,-0.058,0.617,-3.342,-3.92,-3.342
50794950,-0.755,-0.063,0.619,-2.625,-3.29,-1.942
50794960,-0.764,-0.065,0.615,-2.222,-2.31,-0.7
50794970,-0.772,-0.066,0.616,-1.277,-2.572,0.402
50794980,-0.761,-0.049,0.619,-0.385,-2.642,1.365
50794990,-0.763,-0.047,0.616,-0.402,-2.082,2.765
50795000,-0.771,-0.05,0.613,-0.577,-1.645,4.13
50795010,-0.775,-0.056,0.61,-0.647,-1.75,5.18
50795020,-0.78,-0.065,0.608,-0.017,-1.505,5.932
50795030,-0.779,-0.065,0.611,1.12,-1.68,6.475
50795040,-0.775,-0.053,0.616,2.1,-1.557,6.982
50795050,-0.781,-0.046,0.62,2.38,-2.415,7.385
50795060,-0.767,-0.046,0.622,2.432,-2.975,7.717
50795070,-0.761,-0.051,0.619,2.555,-3.22,8.68
50795080,-0.759,-0.041,0.615,2.87,-2.397,10.255
50795080,-0.763,-0.027,0.615,3.325,-1.487,12.127
50795100,-0.77,-0.021,0.62,3.325,0.14,13.545
50795100,-0.777,-0.02,0.639,3.377,1.487,13.58
50795120,-0.791,-0.025,0.651,3.062,2.485,13.737
50795120,-0.801,-0.01,0.674,2.765,2.782,12.092
50795140,-0.817,-0.014,0.686,1.015,3.657,10.185
50795140,-0.812,-0.013,0.7,-0.577,5.285,6.982
50795160,-0.815,-0.011,0.724,-2.152,7.875,5.46
50795160,-0.806,-0.015,0.75,-3.535,10.255,6.44
50795170,-0.805,-0.03,0.758,-3.937,11.585,8.137
50795180,-0.822,-0.096,0.785,1.207,10.15,13.125
50795190,-0.828,-0.115,0.881,10.377,9.38,17.045
50795200,-0.778,-0.132,0.866,11.252,8.995,14.437
50795210,-0.666,-0.195,0.812,11.69,20.037,13.895
50795220,-0.56,-0.238,0.794,22.75,47.705,19.565
50795230,-0.72,-0.222,0.815,39.987,84.28,34.177
50795240,-0.991,-0.229,0.817,53.06,107.537,41.142
50795250,-1.01,-0.166,0.806,73.692,118.842,38.325
50795260,-1.014,-0.101,0.816,89.005,122.412,34.772
50795270,-1.05,-0.097,0.754,90.965,119.507,31.867
50795280,-1.037,-0.062,0.69,90.23,111.02,29.82
50795290,-1.025,-0.062,0.578,90.772,95.917,40.687
50795300,-0.978,-0.048,0.492,100.572,77.56,52.01
50795310,-0.908,0.045,0.443,108.185,62.107,54.355
50795320,-0.935,0.097,0.408,106.68,49.892,52.78
50795330,-0.952,0.123,0.38,96.897,37.135,44.24
50795340,-0.941,0.139,0.372,80.99,23.082,32.795
50795350,-0.921,0.165,0.334,62.615,6.142,18.655
50795360,-0.964,0.169,0.331,42.332,-11.83,9.17
50795370,-0.98,0.125,0.277,20.947,-34.44,-1.33
50795380,-0.941,0.127,0.28,8.925,-56.787,-18.41
50795390,-0.898,0.133,0.278,-4.497,-75.792,-33.197
50795400,-0.872,0.118,0.278,-14.35,-89.845,-44.625
50795410,-0.838,0.124,0.291,-23.415,-100.082,-57.802
50795420,-0.824,0.129,0.314,-33.617,-106.995,-67.9
50795430,-0.808,0.121,0.337,-42.787,-112.927,-76.002
50795440,-0.779,0.114,0.341,-52.5,-116.62,-81.62
50795450,-0.739,0.076,0.345,-58.327,-118.475,-81.725
50795460,-0.729,0.044,0.346,-59.465,-117.057,-77.63
50795470,-0.668,0.023,0.332,-56.542,-112.262,-74.235
50795480,-0.63,-0.012,0.329,-45.255,-103.985,-62.667
50795490,-0.574,0.013,0.365,-30.975,-91.122,-53.025
50795500,-0.589,0.036,0.355,-20.632,-76.125,-37.047
50795500,-0.578,0.076,0.379,-8.312,-59.272,-28.297
50795510,-0.594,0.115,0.414,0.157,-41.58,-21.49
50795520,-0.654,0.14,0.466,1.61,-27.02,-16.467
50795530,-0.723,0.16,0.51,-2.205,-18.375,-17.57
50795540,-0.817,0.141,0.527,-9.432,-17.097,-21.175
50795550,-0.919,0.103,0.576,-17.29,-25.637,-24.08
50795560,-0.969,0.05,0.584,-22.47,-45.465,-21.805
50795570,-0.942,-0.016,0.57,-19.267,-70.98,-15.26
50795580,-0.865,-0.054,0.592,-7.962,-91,-4.375
50795590,-0.776,-0.055,0.637,2.625,-100.537,10.692
50795600,-0.683,-0.027,0.7,7.875,-96.215,21.245
50795610,-0.645,-0.034,0.758,3.657,-78.015,25.445
50795620,-0.594,-0.032,0.794,-4.742,-49.105,21.752
50795630,-0.602,-0.016,0.829,-13.947,-19.285,18.777
50795640,-0.684,-0.032,0.835,-19.88,4.83,18.637
50795650,-0.734,-0.07,0.811,-17.885,19.985,16.642
50795660,-0.758,-0.093,0.795,-7.857,28.472,16.59
50795670,-0.794,-0.074,0.798,8.54,30.537,18.725
50795680,-0.797,-0.02,0.816,25.34,26.775,18.41
50795690,-0.781,0.025,0.832,39.025,19.722,17.027
50795700,-0.78,0.041,0.836,47.967,11.042,17.115
50795710,-0.753,0.055,0.827,55.825,1.592,15.802
50795720,-0.722,0.067,0.831,62.965,-6.37,13.282
50795730,-0.702,0.092,0.834,66.675,-13.09,9.747
50795740,-0.658,0.123,0.844,66.115,-15.942,5.162
50795750,-0.622,0.144,0.842,59.867,-14.227,-0.14
50795760,-0.593,0.162,0.845,47.967,-5.11,-6.982
50795770,-0.551,0.176,0.83,32.13,9.537,-14.315
50795780,-0.546,0.157,0.819,14,28.717,-18.375
50795790,-0.607,0.137,0.797,-8.435,46.462,-20.702
50795800,-0.66,0.109,0.739,-30.695,62.142,-26.687
50795810,-0.739,0.073,0.65,-53.935,74.795,-31.745
50795820,-0.812,0.051,0.576,-75.74,80.307,-37.31
50795830,-0.872,0.029,0.522,-90.877,74.042,-40.74
50795830,-0.885,-0.008,0.429,-100.905,60.34,-38.517
50795850,-0.85,-0.001,0.377,-102.602,46.445,-35.402
50795850,-0.862,0.023,0.351,-99.557,32.97,-29.907
50795870,-0.892,0.045,0.33,-96.11,17.15,-22.697
50795870,-0.93,0.041,0.318,-89.687,-4.497,-14.56
50795890,-0.907,0.022,0.325,-76.3,-28.892,-9.082
50795890,-0.841,-0.009,0.346,-56.91,-48.142,-7.017
50795910,-0.775,-0.027,0.4,-36.802,-58.152,-7.7
50795910,-0.743,-0.006,0.482,-20.177,-59.675,-9.152
50795920,-0.783,0.034,0.574,-10.57,-59.99,-12.092
50795930,-0.812,0.05,0.636,-7.735,-63.297,-16.52
50795940,-0.803,0.027,0.67,-7.157,-69.615,-20.615
50795950,-0.769,0.005,0.679,-5.687,-76.947,-23.03
50795960,-0.729,-0.008,0.681,-0.997,-82.197,-22.557
50795970,-0.639,-0.021,0.688,6.877,-81.48,-20.475
50795980,-0.613,-0.025,0.729,17.307,-73.29,-15.26
50795990,-0.604,-0.025,0.821,29.505,-61.827,-9.17
50796000,-0.23,-0.088,0.745,39.077,-30.677,-0.157
50796010,-0.463,-0.065,0.788,55.545,13.772,19.302
50796020,-0.837,0.068,0.869,66.062,33.932,25.952
50796030,-0.859,0.099,0.857,65.082,26.022,26.687
50796040,-0.834,0.076,0.842,59.377,9.8,24.57
50796050,-0.815,0.079,0.864,51.8,-2.292,20.405
50796060,-0.793,0.11,0.864,43.382,-12.95,19.652
50796070,-0.718,0.123,0.836,31.132,-20.195,18.725
50796080,-0.69,0.139,0.828,22.085,-21.735,14.787
50796090,-0.673,0.135,0.801,15.522,-21.367,9.66
50796100,-0.659,0.11,0.777,10.5,-17.937,6.86
50796110,-0.674,0.1,0.777,6.93,-13.387,4.427
50796120,-0.683,0.095,0.78,2.712,-9.31,-0.595
50796130,-0.713,0.074,0.788,-0.77,-6.86,-6.107
50796140,-0.763,0.06,0.811,-3.22,-6.492,-12.285
50796150,-0.793,0.039,0.834,-4.83,-11.095,-18.637
50796160,-0.797,0.031,0.857,-5.46,-16.66,-22.785
50796170,-0.781,0.041,0.894,-6.562,-22.557,-23.397
50796170,-0.752,0.049,0.923,-10.097,-26.32,-20.09
50796190,-0.724,0.055,0.932,-16.642,-26.267,-14.735
50796190,-0.683,0.059,0.937,-23.8,-19.635,-8.592
50796210,-0.652,0.067,0.936,-29.05,-10.605,-1.12
50796210,-0.591,0.069,0.896,-29.75,3.01,9.73
50796230,-0.471,0.079,0.846,-24.115,26.232,25.252
50796230,-0.355,0.13,0.797,-14.595,61.53,44.432
50796250,-0.32,0.213,0.714,-3.71,104.177,63.91
50796250,-0.372,0.272,0.6,7.682,146.492,79.415
50796260,-0.418,0.302,0.479,22.242,183.4,88.305
50796270,-0.494,0.312,0.359,38.762,214.112,94.167
50796280,-0.711,0.312,0.301,54.39,230.23,96.635
50796290,-1.05,0.293,0.288,63.035,221.287,90.79
50796300,-1.311,0.234,0.299,68.95,182.752,72.187
50796310,-1.358,0.225,0.408,79.835,125.177,46.357
50796320,-1.321,0.245,0.464,75.39,59.01,32.637
50796330,-1.245,0.298,0.588,70.857,-4.707,22.102
50796340,-1.197,0.366,0.647,51.765,-60.602,13.825
50796350,-1.106,0.396,0.606,15.242,-106.522,-2.66
50796360,-0.947,0.324,0.509,-28.245,-135.45,-21.42
50796370,-0.764,0.206,0.449,-62.667,-141.942,-33.722
50796380,-0.62,0.113,0.438,-86.502,-130.375,-38.167
50796390,-0.59,0.016,0.44,-100.992,-110.582,-36.102
50796400,-0.636,-0.075,0.465,-102.987,-91.402,-31.57
50796410,-0.701,-0.163,0.505,-95.305,-76.965,-25.235
50796420,-0.775,-0.216,0.507,-80.99,-70.157,-14.472
50796430,-0.831,-0.223,0.57,-64.68,-69.387,-3.92
50796440,-0.81,-0.211,0.609,-49.542,-69.387,-2.625
50796450,-0.769,-0.168,0.637,-37.625,-65.082,-7.717
50796460,-0.744,-0.126,0.689,-39.322,-56.14,-10.517
50796470,-0.744,-0.135,0.689,-46.742,-47.232,-9.922
50796480,-0.733,-0.142,0.676,-53.812,-38.255,-12.88
50796490,-0.71,-0.157,0.653,-64.05,-29.347,-17.552
50796500,-0.698,-0.191,0.611,-70.98,-21.542,-24.08
50796510,-0.721,-0.243,0.573,-73.15,-17.85,-28.315
50796520,-0.775,-0.3,0.554,-70.735,-19.827,-34.545
50796530,-0.805,-0.279,0.572,-64.225,-28.805,-47.687
50796540,-0.801,-0.243,0.587,-57.4,-43.382,-60.795
50796550,-0.79,-0.221,0.615,-51.87,-61.792,-69.737
50796560,-0.761,-0.242,0.627,-49.192,-83.562,-76.597
50796570,-0.699,-0.298,0.616,-45.657,-106.995,-84.315
50796580,-0.6,-0.325,0.62,-37.94,-126.227,-86.047
50796580,-0.434,-0.309,0.654,-31.885,-136.202,-76.352
50796600,-0.351,-0.346,0.672,-24.395,-134.82,-58.94
50796600,-0.338,-0.342,0.706,-17.902,-123.252,-40.722
50796620,-0.353,-0.352,0.719,-17.29,-104.965,-25.357
50796620,-0.387,-0.387,0.74,-13.947,-85.067,-12.967
50796640,-0.405,-0.452,0.808,-11.62,-67.392,-2.695
50796640,-0.388,-0.608,0.847,-5.057,-48.895,9.537
50796660,-0.484,-0.451,0.929,14.175,-24.972,24.937
50796660,-0.662,-0.376,1.016,26.337,-15.592,37.52
50796670,-0.67,-0.42,0.999,25.462,-17.78,38.955
50796680,-0.676,-0.428,0.997,28.402,-17.78,35.385
50796690,-0.596,-0.353,1.006,35.262,-22.645,30.082
50796700,-0.55,-0.357,0.995,34.86,-22.732,31.92
50796710,-0.527,-0.293,1.007,28.875,-16.905,28.017
50796720,-0.537,-0.292,0.969,22.557,-13.212,23.275
50796730,-0.53,-0.304,0.927,17.535,-14.91,18.27
50796740,-0.375,-0.257,0.908,14.472,-14.507,11.48
50796750,-0.318,-0.221,0.918,10.185,-6.037,9.765
50796760,-0.315,-0.219,0.927,4.182,8.715,13.685
50796770,-0.386,-0.264,0.915,-0.962,23.082,21.052
50796780,-0.454,-0.298,0.879,-1.75,34.282,25.812
50796790,-0.482,-0.289,0.867,1.662,44.52,27.317
50796800,-0.518,-0.265,0.853,5.39,52.5,27.51
50796810,-0.545,-0.254,0.845,8.19,55.965,27.212
50796820,-0.552,-0.225,0.844,9.747,57.75,28.525
50796830,-0.57,-0.198,0.853,8.522,59.045,31.167
50796840,-0.61,-0.161,0.858,4.305,58.747,31.657
50796850,-0.615,-0.113,0.846,-1.837,55.002,30.135
50796860,-0.621,-0.084,0.807,-8.715,49.367,28.875
50796870,-0.619,-0.07,0.768,-16.327,42.017,28.262
50796880,-0.608,-0.066,0.738,-24.57,33.32,27.457
50796890,-0.608,-0.087,0.665,-27.457,21.315,23.572
50796900,-0.618,-0.106,0.673,-22.662,7.91,16.502
50796910,-0.67,-0.122,0.649,-16.555,-10.762,2.94
50796920,-0.649,-0.106,0.686,-5.197,-31.307,-12.232
50796920,-0.572,-0.071,0.734,4.182,-48.562,-24.727
50796940,-0.553,-0.038,0.788,4.935,-63.77,-34.107
50796940,-0.491,-0.084,0.793,3.815,-74.935,-36.855
50796960,-0.223,-0.055,0.836,4.095,-72.1,-34.16
50796960,-0.195,-0.052,0.852,-3.377,-46.585,-17.027
50796980,-0.3,-0.011,0.861,-13.457,-16.625,-3.675
50796980,-0.287,0.012,0.849,-32.287,15.417,2.677
50797000,-0.377,-0.003,0.824,-52.185,49.787,9.905
50797000,-0.586,-0.056,0.772,-70.997,76.702,12.372
50797010,-0.774,-0.131,0.692,-83.912,87.92,8.925
50797020,-0.898,-0.189,0.632,-84.21,82.477,-0.507
50797030,-0.963,-0.194,0.595,-74.427,63.84,-9.94
50797040,-0.991,-0.204,0.585,-59.867,34.755,-14.77
50797050,-0.975,-0.207,0.617,-39.725,0.14,-19.04
50797060,-0.926,-0.162,0.691,-20.247,-35.98,-20.912
50797070,-0.85,-0.122,0.699,-11.06,-68.32,-19.442
50797080,-0.758,-0.088,0.756,0.42,-90.475,-15.715
50797090,-0.658,-0.037,0.79,-2.87,-99.557,-13.79
50797100,-0.541,0.005,0.789,-14.175,-94.395,-18.095
50797110,-0.397,-0.042,0.83,-22.12,-73.43,-16.852
50797120,-0.399,-0.082,0.86,-28.857,-39.165,-9.432
50797130,-0.558,-0.037,0.87,-31.465,-10.692,1.137
50797140,-0.645,0.04,0.913,-38.255,5.932,5.127
50797150,-0.641,-0.008,0.888,-53.042,12.757,2.572
50797160,-0.595,-0.092,0.852,-64.085,18.812,-4.532
50797170,-0.578,-0.176,0.795,-60.497,26.162,-7.332
50797180,-0.549,-0.194,0.772,-43.137,35.297,-3.867
50797190,-0.576,-0.191,0.754,-22.207,42.612,5.197
50797200,-0.598,-0.167,0.744,-3.36,49.525,12.827
50797210,-0.636,-0.146,0.724,11.637,54.162,16.432
50797220,-0.684,-0.155,0.692,28.105,57.522,20.23
50797230,-0.677,-0.138,0.683,46.655,58.747,21.665
50797240,-0.686,-0.1,0.665,62.037,58.87,24.517
50797250,-0.717,-0.062,0.679,77.63,56.56,27.807
50797260,-0.766,-0.005,0.695,87.972,51.485,29.487
50797270,-0.794,0.079,0.722,88.2,42.332,28.455
50797280,-0.868,0.066,0.723,79.922,29.54,30.152
50797290,-0.879,0.049,0.717,69.037,13.16,25.55
50797300,-0.853,0.033,0.699,55.037,-2.992,17.815
50797310,-0.828,-0.025,0.691,46.48,-19.267,9.38
50797320,-0.775,-0.07,0.699,42.157,-32.672,2.8
50797330,-0.703,-0.124,0.723,42.437,-42.245,-2.187
50797330,-0.62,-0.16,0.77,43.925,-43.977,-4.427
50797350,-0.525,-0.188,0.858,43.907,-37.625,-4.48
50797350,-0.458,-0.212,0.946,38.115,-22.89,-4.112
50797370,-0.441,-0.248,0.986,25.41,-3.517,-4.13
50797370,-0.456,-0.328,1.007,14.297,16.082,-2.94
50797390,-0.473,-0.385,0.993,6.247,31.185,-0.35
50797390,-0.489,-0.434,0.964,4.97,40.6,5.512
50797410,-0.512,-0.463,0.936,11.322,46.287,14.63
50797410,-0.562,-0.497,0.923,23.117,49.875,23.87
50797420,-0.581,-0.464,0.909,31.22,52.027,27.335
50797430,-0.582,-0.459,0.88,39.462,53.217,28.577
50797440,-0.573,-0.422,0.875,49.962,55.3,31.99
50797450,-0.603,-0.384,0.854,56.245,56.297,39.252
50797460,-0.619,-0.335,0.831,60.585,55.947,44.66
50797470,-0.628,-0.281,0.803,62.09,55.492,46.655
50797480,-0.652,-0.247,0.763,61.355,55.755,45.57
50797490,-0.679,-0.215,0.731,59.937,56.595,40.932
50797500,-0.693,-0.174,0.689,56.892,57.697,34.702
50797510,-0.715,-0.149,0.659,55.562,58.695,29.872
50797520,-0.763,-0.106,0.637,54.232,59.115,28.14
50797530,-0.804,-0.066,0.62,51.135,56.122,25.2
50797540,-0.819,-0.022,0.617,47.04,51.502,21.21
50797550,-0.831,0.003,0.596,39.707,45.307,17.745
50797560,-0.848,0.007,0.57,34.93,38.517,16.1
50797570,-0.837,0.062,0.565,32.147,31.272,15.785
50797580,-0.873,0.035,0.504,27.212,22.032,19.267
50797590,-0.867,0.069,0.517,33.46,13.107,22.015
50797600,-0.858,0.1,0.486,29.47,3.482,23.66
50797610,-0.828,0.125,0.456,28.087,-5.25,19.547
50797620,-0.795,0.146,0.451,30.747,-10.115,17.185
50797630,-0.761,0.169,0.426,28.84,-12.775,16.555
50797640,-0.725,0.201,0.42,30.362,-12.88,18.655
50797650,-0.686,0.237,0.406,30.432,-9.642,21.227
50797660,-0.671,0.256,0.394,30.485,-2.747,23.66
50797670,-0.673,0.286,0.381,28.805,5.792,22.925
50797670,-0.702,0.286,0.378,26.932,14.822,21.752
50797690,-0.717,0.3,0.375,23.642,22.855,19.74
50797690,-0.756,0.286,0.371,19.232,29.19,18.9
50797710,-0.801,0.285,0.374,13.895,32.97,17.395
50797710,-0.836,0.287,0.382,6.895,34.3,15.662
50797730,-0.849,0.295,0.401,0.07,32.76,14.245
50797730,-0.845,0.323,0.425,-6.982,30.082,14
50797750,-0.849,0.343,0.454,-15.96,25.725,14.087
50797750,-0.826,0.351,0.469,-26.495,20.825,13.51
50797760,-0.8,0.329,0.48,-35.962,16.485,13.51
50797770,-0.777,0.309,0.477,-44.012,14.105,12.092
50797780,-0.757,0.288,0.48,-48.195,13.562,10.15
50797790,-0.754,0.269,0.486,-48.545,14.735,9.8
50797800,-0.749,0.258,0.501,-47.005,16.642,10.727
50797810,-0.767,0.238,0.52,-44.31,17.937,11.935
50797820,-0.771,0.223,0.553,-41.002,18.777,11.305
50797830,-0.757,0.214,0.581,-35.49,20.142,10.447
50797840,-0.751,0.227,0.613,-29.645,23.222,11.847
50797850,-0.752,0.218,0.643,-27.86,27.125,13.212
50797860,-0.767,0.225,0.635,-29.767,32.48,13.965
50797870,-0.812,0.187,0.653,-33.162,36.68,14.122
50797880,-0.849,0.16,0.674,-35.157,38.57,10.465
50797890,-0.871,0.134,0.664,-37.03,36.207,3.36
50797900,-0.87,0.128,0.635,-37.625,32.427,-1.837
50797910,-0.861,0.094,0.66,-31.99,26.075,-4.34
50797920,-0.874,0.08,0.661,-27.16,18.182,-2.8
50797930,-0.885,0.081,0.646,-22.312,7.98,-2.66
50797940,-0.872,0.072,0.656,-16.467,-1.82,-2.747
50797950,-0.823,0.059,0.63,-12.39,-9.537,-2.782
50797960,-0.803,0.039,0.636,-4.06,-12.705,-1.172
50797970,-0.778,0.034,0.627,2.31,-12.18,-1.312
50797980,-0.733,0.047,0.617,10.377,-7.892,-4.707
50797990,-0.691,0.061,0.63,19.46,0.507,-7.595
50798000,-0.692,0.083,0.628,22.33,12.04,-5.81
50798010,-0.716,0.085,0.617,19.005,23.205,-4.165
50798020,-0.765,0.103,0.614,14.35,32.97,-5.302
50798030,-0.817,0.116,0.594,7.192,37.747,-7.525
50798040,-0.864,0.105,0.574,-0.385,38.377,-8.05
50798050,-0.899,0.09,0.551,-6.825,35,-8.365
50798060,-0.936,0.077,0.543,-10.64,29.05,-9.03
50798070,-0.942,0.06,0.536,-13.072,20.335,-10.237
50798080,-0.921,0.052,0.541,-11.41,13.09,-10.71
50798080,-0.922,0.055,0.544,-8.995,6.3,-9.992
50798100,-0.918,0.045,0.535,-7.857,1.295,-8.75
50798100,-0.905,0.018,0.539,-3.412,-0.752,-7.665
50798120,-0.875,0.02,0.535,-0.682,-0.332,-8.89
50798120,-0.858,0.02,0.544,3.797,1.12,-9.642
50798140,-0.865,0.034,0.552,5.687,3.482,-6.667
50798140,-0.87,0.03,0.561,6.002,6.107,-1.68
50798160,-0.822,0.041,0.555,4.602,12.46,0.997
50798160,-0.861,0.038,0.567,1.925,21.84,1.627
50798170,-0.897,0.038,0.565,-3.325,29.61,-1.155
50798180,-0.967,0.02,0.571,-6.51,32.165,-1.12
50798190,-1.047,0.008,0.578,-9.765,25.252,-0.595
50798200,-0.961,-0.013,0.572,-10.395,13.475,-1.295
50798210,-0.892,-0.006,0.564,-7.7,9.327,-0.087
50798220,-0.866,0.031,0.556,-7.647,10.78,0.927
50798230,-0.88,0.032,0.532,-8.68,15.47,3.027
50798240,-0.908,0.031,0.522,-10.972,19.967,3.57
50798250,-0.904,0.03,0.509,-13.877,21.665,1.75
50798260,-0.928,0.028,0.506,-15.732,21.14,1.365
50798270,-0.958,0.018,0.473,-17.762,13.352,0.735
50798280,-0.874,0.005,0.443,-16.485,4.882,0.035
50798290,-0.808,0.002,0.438,-11.637,4.34,2.765
50798300,-0.88,0.011,0.452,-6.387,8.662,5.827
50798310,-0.934,0.025,0.462,-3.325,8.452,5.81
50798320,-0.937,0.03,0.458,-1.767,4.585,6.125
50798330,-0.911,0.032,0.458,0.035,0.245,7.035
50798340,-0.881,0.052,0.462,2.712,-0.49,7.227
50798350,-0.884,0.067,0.462,5.057,0.927,7.665
50798360,-0.912,0.065,0.461,6.072,2.17,9.695
50798370,-0.941,0.049,0.461,7.332,0.735,12.88
50798380,-0.969,0.037,0.468,8.925,-2.642,15.662
50798390,-0.964,0.04,0.476,10.745,-7.595,16.747
50798400,-0.942,0.049,0.484,12.792,-10.657,16.992
50798410,-0.909,0.05,0.476,14.07,-11.34,17.272
50798420,-0.888,0.066,0.476,14.525,-7.962,17.692
50798420,-0.903,0.081,0.478,12.897,-3.99,17.202
50798440,-0.921,0.091,0.472,9.607,-2.24,15.942
50798440,-0.915,0.105,0.465,5.775,-3.832,14.875
50798460,-0.901,0.11,0.453,2.135,-6.422,14.175
50798460,-0.908,0.114,0.447,-1.05,-10.185,12.495
50798480,-0.906,0.111,0.426,-4.252,-15.627,9.555
50798480,-0.892,0.102,0.416,-4.9,-20.965,6.037
50798500,-0.903,0.096,0.424,-4.602,-25.97,1.925
50798500,-0.92,0.102,0.457,-5.005,-33.232,-3.062
50798510,-0.902,0.101,0.465,-6.772,-42.665,-7.192
50798520,-0.855,0.103,0.469,-8.54,-49.28,-8.96
50798530,-0.778,0.147,0.488,-10.797,-51.467,-9.712
50798540,-0.83,0.146,0.454,-20.002,-54.302,-9.555
50798550,-0.729,0.116,0.389,-27.545,-54.652,-11.235
50798560,-0.507,0.097,0.363,-23.572,-43.732,-8.522
50798570,-0.414,0.07,0.343,-14.07,-8.522,4.042
50798580,-0.714,0.107,0.446,0.175,31.342,13.65
50798590,-0.941,0.187,0.537,7.192,45.762,10.885
50798600,-1.128,0.188,0.582,7.262,31.325,8.155
50798610,-0.996,0.137,0.557,2.415,3.71,5.74
50798620,-0.841,0.127,0.541,5.845,-9.187,7.052
50798630,-0.861,0.139,0.55,11.27,-6.09,7.822
50798640,-0.978,0.156,0.549,10.657,-1.312,3.517
50798650,-1.009,0.165,0.561,8.277,-3.885,-1.487
50798660,-0.94,0.157,0.565,4.812,-7.192,-2.817
50798670,-0.936,0.153,0.548,0.402,-6.457,-3.535
50798680,-0.979,0.132,0.542,-4.392,-6.037,-7.612
50798690,-0.996,0.097,0.538,-5.757,-8.96,-10.255
50798700,-0.977,0.093,0.546,-3.972,-15.732,-8.4
50798710,-0.943,0.104,0.542,-3.15,-22.977,-6.125
50798720,-0.925,0.105,0.546,-3.395,-27.177,-6.317
50798730,-0.928,0.096,0.546,-4.252,-30.8,-7.542
50798740,-0.92,0.085,0.541,-5.53,-35.507,-8.085
50798750,-0.904,0.094,0.522,-6.702,-42.175,-8.172
50798760,-0.824,0.111,0.528,-8.277,-47.705,-8.767
50798770,-0.753,0.086,0.533,-9.537,-44.642,-8.242
50798780,-0.762,0.068,0.541,-10.43,-37.1,-7.157
50798790,-0.771,0.079,0.548,-10.692,-29.26,-5.81
50798800,-0.806,0.081,0.56,-13.072,-26.005,-2.94
50798810,-0.751,0.087,0.569,-14.402,-24.78,-0.892
50798820,-0.715,0.076,0.587,-16.59,-21.84,1.12
50798830,-0.714,0.071,0.585,-20.51,-14.665,1.015
50798830,-0.784,0.029,0.593,-21.21,-7.455,-0.682
50798850,-0.797,0.021,0.585,-21.455,-4.497,-5.442
50798850,-0.785,0.025,0.596,-17.885,-4.077,-6.632
50798870,-0.79,0.035,0.597,-14.735,-4.55,-5.495
50798870,-0.78,0.059,0.595,-14.017,-4.165,-7.997
50798890,-0.78,0.058,0.587,-13.982,-1.837,-10.412
50798890,-0.809,0.035,0.571,-14.682,0.507,-9.222
50798900,-0.826,0.024,0.557,-14.577,1.592,-8.645
50798910,-0.845,0.023,0.541,-14.437,0.892,-8.977
50798920,-0.859,0.025,0.533,-13.825,-1.785,-8.12
50798930,-0.88,0.014,0.531,-12.022,-5.285,-5.74
50798940,-0.897,0,0.534,-9.975,-9.625,-3.762
50798950,-0.9,-0.005,0.56,-7.227,-14.052,-1.907
50798960,-0.903,0.004,0.579,-5.67,-17.605,-0.227
50798970,-0.89,0.021,0.592,-6.685,-21.437,0.087
50798980,-0.876,0.016,0.61,-8.54,-22.995,0.332
50798990,-0.908,0.011,0.606,-10.167,-26.145,0
50799000,-0.865,0.025,0.634,-11.287,-30.87,-1.312
50799010,-0.824,0.01,0.658,-12.39,-30.817,-0.315
50799020,-1.007,0.036,0.585,-16.047,-31.815,-2.222
50799030,-0.859,-0.033,0.516,-26.495,-50.732,-10.255
50799040,-0.774,-0.072,0.495,-16.835,-51.45,-5.022
50799050,-0.79,0.011,0.605,0.98,-48.352,0.472
50799060,-0.825,0.035,0.601,0.07,-48.755,-0.525
50799070,-0.832,0.014,0.611,3.255,-53.217,-2.485
50799080,-0.784,0.025,0.595,8.067,-59.465,0.402
50799090,-0.702,0.065,0.595,12.302,-62.037,3.622
50799100,-0.648,0.092,0.6,14.84,-58.782,4.2
50799110,-0.585,0.097,0.59,16.45,-49.822,3.57
50799120,-0.599,0.115,0.631,18.497,-38.01,3.675
50799130,-0.618,0.126,0.66,15.645,-29.33,1.977
50799140,-0.563,0.116,0.663,11.497,-20.79,-0.385
50799150,-0.574,0.086,0.679,9.747,-9.292,0.857
50799160,-0.585,0.115,0.691,7.665,3.92,-0.227
50799170,-0.638,0.117,0.703,3.08,14.507,-1.907
50799170,-0.697,0.085,0.703,-2.205,21.927,-3.202
50799190,-0.729,0.062,0.698,-5.932,26.687,-4.637
50799190,-0.767,0.058,0.701,-8.032,29.785,-5.967
50799210,-0.817,0.062,0.692,-10.605,30.03,-6.807
50799210,-0.85,0.05,0.679,-13.422,26.95,-8.417
50799230,-0.808,0.023,0.661,-15.242,22.645,-10.342
50799230,-0.782,0.008,0.65,-15.015,22.33,-8.54
50799250,-0.839,0.012,0.651,-14.577,22.435,-5.337
50799250,-0.861,0.008,0.652,-15.767,19.915,-4.13
50799260,-0.855,-0.01,0.636,-16.397,15.295,-3.185
50799270,-0.86,-0.016,0.624,-16.17,9.45,-3.15
50799280,-0.824,-0.002,0.606,-15.277,2.975,-3.622
50799290,-0.798,0.01,0.596,-13.597,-2.117,-0.892
50799300,-0.791,0.013,0.579,-12.11,-4.812,2.502
50799310,-0.796,0.022,0.592,-11.27,-5.267,2.835
50799320,-0.789,0.025,0.608,-11.112,-5.32,1.715
50799330,-0.785,0.024,0.62,-11.69,-5.915,1.207
50799340,-0.773,-0.001,0.605,-11.585,-5.617,0.56
50799350,-0.751,-0.021,0.605,-7.77,-3.99,-0.665
50799360,-0.725,-0.012,0.603,-2.782,-0.91,-1.347
50799370,-0.696,0.002,0.601,-0.612,4.042,-1.4
50799380,-0.72,0.001,0.613,-1.557,10.325,-1.225
50799390,-0.743,0.003,0.637,-4.392,15.207,-1.802
50799400,-0.767,0.006,0.658,-8.137,17.92,-2.205
50799410,-0.796,0.01,0.663,-13.055,16.152,-2.555
50799420,-0.822,0.002,0.64,-16.537,11.602,-2.152
50799430,-0.82,-0.007,0.613,-17.325,5.6,-0.892
50799440,-0.787,-0.015,0.579,-16.607,1.155,0.927
50799450,-0.781,-0.02,0.586,-13.79,-0.385,2.362
50799460,-0.8,-0.009,0.596,-11.987,-0.052,2.292
50799470,-0.821,0,0.609,-11.637,-1.085,1.855
50799480,-0.861,-0.015,0.623,-11.532,-2.1,2.362
50799490,-0.886,-0.026,0.624,-10.867,-5.6,1.925
50799500,-0.869,-0.016,0.611,-8.19,-9.765,1.785
50799510,-0.839,-0.001,0.602,-4.777,-12.565,2.59
50799520,-0.811,0.024,0.605,-1.942,-12.057,2.502
50799530,-0.765,0.044,0.635,-1.68,-10.342,1.015
50799540,-0.793,0.03,0.651,-3.937,-5.845,0.56
50799550,-0.809,0.025,0.655,-5.88,-5.355,-0.735
50799560,-0.781,0.014,0.65,-7.28,-6.107,-1.557
50799570,-0.787,-0.008,0.655,-7.245,-5.635,-1.907
50799570,-0.792,-0.02,0.656,-6.86,-4.62,-3.08
50799580,-0.784,-0.016,0.658,-6.09,-4.305,-3.36
50799590,-0.78,-0.009,0.658,-5.932,-2.922,-3.377
50799600,-0.789,-0.008,0.646,-7.175,-1.032,-4.725
50799610,-0.819,-0.014,0.624,-8.33,-0.402,-5.547
50799620,-0.841,-0.015,0.603,-7.84,-2.782,-4.917
50799630,-0.839,-0.014,0.596,-6.335,-6.755,-4.042
50799640,-0.815,-0.012,0.599,-4.882,-9.905,-3.675
50799650,-0.803,-0.019,0.609,-4.34,-10.955,-3.85
50799660,-0.789,-0.017,0.625,-5.092,-11.217,-4.48
50799670,-0.796,-0.027,0.633,-6.807,-10.815,-4.34
50799680,-0.797,-0.03,0.649,-7.892,-10.832,-3.815
50799690,-0.785,-0.028,0.652,-8.19,-10.587,-3.622
50799700,-0.77,-0.021,0.645,-8.067,-9.152,-4.2
50799710,-0.738,-0.014,0.63,-6.825,-6.44,-3.972
50799720,-0.709,-0.011,0.636,-4.83,-1.242,-0.402
50799730,-0.75,-0.02,0.647,-4.042,3.727,3.587
50799740,-0.768,-0.017,0.661,-4.427,6.65,2.327
50799750,-0.763,-0.016,0.669,-5.46,9.03,-0.402
50799760,-0.815,-0.027,0.671,-6.667,9.345,-1.452
50799770,-0.775,-0.015,0.665,-6.667,7.577,-3.342
50799780,-0.716,-0.019,0.653,-6.755,10.71,-3.675
50799790,-0.723,-0.027,0.634,-8.33,17.167,-4.812
50799800,-0.723,-0.022,0.621,-7.21,23.31,-6.265
50799810,-0.734,-0.022,0.613,-5.302,26.81,-4.795
50799820,-0.762,-0.035,0.59,-2.975,28.857,-2.537
50799830,-0.806,-0.047,0.574,0.192,26.775,-1.032
50799840,-0.838,-0.05,0.561,4.515,21.157,1.75
50799850,-0.844,-0.056,0.544,9.485,12.092,5.04
50799860,-0.779,-0.054,0.544,14.56,4.567,7.035
50799870,-0.726,-0.043,0.568,19.11,2.607,8.627
50799880,-0.722,-0.023,0.578,19.547,5.39,9.922
50799890,-0.762,-0.004,0.584,14.98,6.65,8.697
50799900,-0.716,0.003,0.596,8.295,6.912,5.372
50799910,-0.665,-0.039,0.606,1.96,14.56,4.462
50799920,-0.659,-0.085,0.611,-1.925,28.297,3.57
50799920,-0.725,-0.074,0.606,-1.312,39.917,2.082
50799940,-0.799,-0.019,0.586,1.102,43.907,1.925
50799940,-0.818,0.007,0.552,1.767,42.822,1.592
50799960,-0.867,-0.006,0.54,0.752,40.232,-0.892
50799960,-0.867,0.021,0.492,0.875,34.317,-6.352
50799980,-0.77,0.073,0.472,-1.925,32.322,-11.217
50799980,-0.841,0.023,0.444,-11.305,38.08,-13.02
50800000,-0.959,-0.04,0.456,-16.24,39.9,-17.745
50800000,-1.008,-0.022,0.463,-15.715,31.097,-20.72
50800010,-1,-0.037,0.49,-16.415,17.255,-19.687
50800020,-1.06,-0.079,0.48,-14.98,3.92,-16.327
50800030,-1.022,-0.078,0.471,-11.357,-12.232,-13.51
