time[ms],accX[g],accY[g],accZ[g],Value 1,Value 2,Value 3
40882960,0.028,-0.268,0.951,0.91,-2.292,-0.122
40882970,0.031,-0.272,0.95,0.98,-1.61,0.192
40882980,0.027,-0.27,0.95,1.137,-1.067,0.525
40882990,0.021,-0.27,0.949,1.172,-0.595,0.735
40883000,0.029,-0.269,0.95,1.242,-0.315,0.997
40883010,0.026,-0.269,0.95,1.137,0.332,1.207
40883020,0.023,-0.272,0.949,1.172,0.927,1.277
40883030,0.027,-0.272,0.949,1.47,1.575,1.487
40883040,0.014,-0.271,0.951,1.61,2.065,1.61
40883050,0.012,-0.269,0.952,1.662,1.977,1.417
40883060,0.004,-0.269,0.952,1.592,1.54,1.067
40883070,0.006,-0.272,0.952,1.557,0.805,0.665
40883080,0.01,-0.271,0.952,1.627,0.262,0.437
40883090,0.007,-0.278,0.95,1.662,0,0.297
40883100,0.005,-0.273,0.948,2.73,-0.647,-0.437
40883110,0.006,-0.262,0.951,2.747,-0.945,-0.07
40883120,0.003,-0.266,0.95,2.082,-1.137,-0.07
40883130,0.012,-0.273,0.949,2.415,-1.522,-0.63
40883140,0.016,-0.267,0.951,2.73,-1.767,-0.997
40883150,0.019,-0.261,0.955,2.625,-1.732,-1.417
40883160,0.025,-0.262,0.957,1.82,-1.155,-2.17
40883170,0.009,-0.27,0.95,0.875,-0.192,-2.695
40883180,0.007,-0.272,0.952,1.015,-0.297,-2.8
40883190,0.029,-0.269,0.954,1.207,-0.262,-2.8
40883200,0.013,-0.319,0.955,1.522,0.367,-2.8
40883210,0.032,-0.224,0.952,3.255,0.402,-3.675
40883220,0.001,-0.291,0.948,2.082,1.19,-2.887
40883230,0.019,-0.258,0.953,2.66,0.63,-3.342
40883240,0.002,-0.266,0.95,2.065,0.63,-3.062
40883250,-0.004,-0.258,0.949,1.592,-0.017,-3.027
40883260,-0.003,-0.262,0.95,1.05,-0.822,-2.66
40883260,0,-0.274,0.949,0.63,-1.487,-2.1
40883280,0.003,-0.266,0.947,0.962,-2.03,-1.855
40883280,0,-0.27,0.947,0.962,-2.345,-1.155
40883300,0.005,-0.272,0.947,1.12,-2.782,-0.805
40883300,0.005,-0.27,0.948,1.47,-3.045,-0.665
40883310,0.016,-0.27,0.949,1.662,-3.062,-0.402
40883320,0.006,-0.277,0.948,1.96,-2.94,-0.315
40883330,0.004,-0.265,0.95,2.38,-3.167,-0.367
40883340,0.002,-0.281,0.949,2.467,-3.64,-0.332
40883350,0.002,-0.264,0.949,3.097,-4.305,-0.63
40883360,0.004,-0.282,0.948,3.167,-4.935,-0.682
40883370,-0.011,-0.256,0.944,3.885,-5.932,-1.295
40883380,0.009,-0.246,0.949,3.535,-6.825,-1.435
40883390,0.009,-0.282,0.949,2.625,-7.035,-1.295
40883400,0.011,-0.26,0.952,3.255,-7.542,-1.82
40883410,0,-0.275,0.953,3.062,-8.137,-1.942
40883420,-0.003,-0.274,0.955,3.342,-9.66,-2.8
40883430,-0.001,-0.271,0.955,3.587,-11.707,-3.43
40883440,0,-0.281,0.954,4.007,-13.545,-3.622
40883450,-0.002,-0.277,0.952,4.935,-15.277,-3.71
40883460,0,-0.266,0.949,5.88,-17.027,-3.675
40883470,0.005,-0.258,0.945,6.335,-18.602,-3.395
40883480,0.013,-0.26,0.943,6.615,-20.002,-2.975
40883490,0.031,-0.259,0.944,6.807,-20.877,-2.415
40883500,0.057,-0.236,0.944,6.527,-20.807,-1.715
40883510,0.079,-0.236,0.935,5.39,-19.25,-0.787
40883520,0.081,-0.202,0.92,4.655,-16.222,-0.56
40883530,0.01,-0.186,0.857,3.552,-11.97,-1.207
40883540,-0.037,0.115,0.937,0.63,-8.032,-2.625
40883550,-0.002,-0.155,1.005,-15.96,-2.397,3.377
40883560,0.122,-0.397,0.997,-24.202,-1.102,6.37
40883570,0.149,-0.22,0.985,-21.595,-0.612,3.552
40883580,-0.038,-0.356,0.922,-24.937,-0.07,6.107
40883580,-0.067,-0.452,0.871,-18.095,-7.175,7.787
40883600,-0.061,-0.468,0.867,-4.252,-16.292,5.635
40883600,-0.108,-0.379,0.931,7.787,-24.027,3.132
40883620,-0.047,-0.17,0.993,12.687,-32.112,-0.14
40883620,0.083,-0.208,0.982,6.895,-35.84,-0.892
40883640,0.133,-0.247,0.964,2.117,-34.405,-1.995
40883640,0.203,-0.238,0.971,-0.42,-29.855,-3.045
40883660,0.222,-0.228,0.969,-4.13,-22.05,-2.502
40883660,0.215,-0.255,0.959,-8.417,-13.125,-0.665
40883670,0.144,-0.279,0.95,-11.147,-5.267,1.365
40883680,0.045,-0.282,0.942,-11.795,-1.61,1.82
40883690,0.009,-0.292,0.932,-10.745,-2.677,0.665
40883700,0.003,-0.328,0.919,-8.662,-5.74,-1.102
40883710,0.032,-0.345,0.911,-4.462,-8.907,-3.937
40883720,0.053,-0.276,0.939,0.262,-11.48,-6.405
40883730,0.102,-0.256,0.959,0.542,-12.232,-7.42
40883740,0.125,-0.276,0.955,-1.452,-10.43,-7.647
40883750,0.106,-0.24,0.962,-3.185,-8.12,-7.892
40883760,0.133,-0.285,0.956,-5.845,-5.53,-7.385
40883770,0.151,-0.286,0.95,-7.262,-2.205,-6.912
40883780,0.159,-0.298,0.961,-8.645,1.767,-5.04
40883790,0.121,-0.261,0.976,-10.657,5.285,-3.115
40883800,0.104,-0.267,0.98,-14.665,7.14,-0.192
40883810,0.079,-0.278,0.998,-19.285,7.175,3.342
40883820,0.083,-0.234,1.03,-24.867,5.25,6.79
40883830,0.059,-0.227,1.089,-34.142,1.855,10.972
40883840,0.069,-0.179,1.194,-47.565,-4.602,13.405
40883850,0.043,-0.128,1.304,-68.407,-13.125,16.537
40883860,0.073,-0.313,1.418,-92.225,-20.16,20.72
40883870,0.163,-0.42,1.236,-105.21,-22.872,31.395
40883880,0.323,-0.15,1.377,-113.505,7.945,35.402
40883890,-0.043,-0.449,1.18,-156.17,30.852,27.457
40883900,0.627,-0.78,1.004,-164.342,76.72,9.8
40883910,-0.569,-0.635,0.652,-142.397,133.437,10.307
40883920,-0.648,-1.217,0.635,-161.525,104.72,-9.012
40883930,-0.389,-1.968,0.881,-160.352,77.35,-25.602
40883940,-0.268,-1.998,-0.24,-116.637,67.9,-9.327
40883950,-1.803,-1.805,0.147,-96.32,23.222,33.53
40883960,-0.748,-1.094,-0.127,-78.4,-24.535,106.61
40883960,0.618,-0.741,0.103,-63.665,-50.4,193.672
40883980,0.972,-0.388,0.124,-75.687,-25.357,227.185
40883980,1.068,0.202,0.047,-87.22,-7.612,194.775
40884000,1.16,0.477,0.032,-94.307,2.642,149.362
40884000,0.975,0.469,-0.098,-107.887,9.87,111.072
40884010,0.821,0.878,-0.168,-88.235,-5.845,83.352
40884020,0.977,1.219,-0.365,-66.815,-19.915,71.155
40884030,0.952,1.552,-0.54,-35.647,-24.15,64.505
40884040,0.992,0.078,1.026,-21.612,-7.14,59.762
40884050,-1.137,-1.998,0.587,115.272,27.002,116.165
40884060,-1.998,-1.998,0.575,295.47,-149.345,229.897
40884070,0.877,0.727,1.247,309.435,-204.032,122.045
40884080,-1.254,1.863,1.367,336.997,-165.532,19.652
40884090,-0.764,-1.582,1.611,242.287,-139.457,-134.54
40884100,0.136,0.61,1.839,260.977,-151.427,-172.025
40884110,1.691,0.534,1.976,187.88,-156.887,-149.782
40884120,1.705,0.319,1.557,84.91,-82.215,-49.595
40884130,0.353,-0.089,1.282,16.607,0.175,10.377
40884140,-0.228,-0.044,1.105,-22.75,22.75,19.722
40884150,-0.183,-0.446,0.914,-42.455,16.59,9.187
40884160,-0.118,-0.511,0.839,-38.465,6.387,1.032
40884170,0.036,-0.484,0.865,-26.565,-0.787,0.297
40884180,0,-0.472,0.884,-16.94,-4.217,7.157
40884190,-0.094,-0.397,0.929,-9.467,-8.837,11.48
40884200,0.024,-0.311,1.015,-7.857,-14.805,12.46
40884210,0.104,-0.292,1.075,-13.807,-17.57,16.362
40884220,0.114,-0.25,1.158,-22.89,-18.585,21.962
40884230,0.1,-0.218,1.235,-37.03,-20.632,29.575
40884240,0.136,-0.145,1.235,-54.792,-24.797,35.21
40884250,-0.064,-0.24,1.244,-76.912,-27.195,39.06
40884260,0.199,-0.186,1.109,-100.922,-46.847,37.397
40884270,-0.092,-0.393,1.206,-127.12,-35.525,46.025
40884280,-0.132,-0.343,1.241,-144.935,-33.81,48.545
40884290,-0.24,-0.452,1.27,-158.06,-36.977,45.22
40884300,-0.549,-0.64,1.282,-167.107,-50.172,32.672
40884310,-0.42,-0.564,1.036,-159.792,-71.785,7.98
40884320,-0.271,-0.891,1.141,-157.605,-60.55,-6.002
40884330,-0.178,-1.174,0.728,-156.52,-31.675,-36.785
40884330,-0.445,-0.896,0.77,-139.44,0.245,-63.98
40884350,-0.559,-1.638,0.713,-126.332,35.735,-81.672
40884350,-1.561,-1.998,0.319,-111.755,68.425,-50.347
40884370,-1.998,-1.301,0.41,-55.072,42.682,-18.252
40884370,-1.426,0.533,0.391,10.797,-9.607,25.62
40884390,-0.04,0.828,0.459,19.722,20.702,108.202
40884390,-0.061,0.445,0.385,10.815,88.462,148.365
40884410,-0.158,0.914,0.26,30.222,128.432,116.725
40884410,-0.213,1.402,0.168,50.557,136.29,110.827
40884420,0.061,1.178,-0.058,61.302,126.822,131.407
40884430,0.558,0.707,-0.242,78.12,115.115,154.997
40884440,0.405,0.351,-0.403,88.077,102.445,184.747
40884450,0.275,-0.09,-0.623,70.612,60.865,197.925
40884460,0.3,-0.854,-0.503,38.535,-1.295,208.932
40884470,1.182,-1.923,0.935,-29.102,-89.635,155.557
40884480,0.166,-1.998,-0.391,123.287,-309.82,-96.075
40884490,-1.15,0.211,0.348,375.812,-307.142,-0.945
40884500,1.993,1.997,1.68,421.505,-279.44,144.007
40884510,-0.479,-1.018,1.108,176.26,-126.472,106.592
40884520,-1.17,-0.23,1.998,276.745,-127.067,39.655
40884530,-0.284,1.391,1.988,214.34,-164.01,-25.9
40884540,1.579,-0.453,1.599,-9.362,-123.76,-63.752
40884550,1.774,0.19,1.081,-52.622,-47.215,-57.225
40884560,0.748,-0.891,0.753,-85.26,37.397,7.437
40884570,-0.474,-0.365,0.84,-55.737,64.645,28.84
40884580,-0.819,-0.438,0.763,-45.85,48.492,11.13
40884590,-0.48,-0.583,0.654,-32.392,14.822,-19.267
40884600,-0.11,-0.664,0.613,-8.225,-7.77,-33.46
40884610,-0.047,-0.65,0.713,22.977,-18.97,-29.277
40884620,-0.061,-0.344,0.962,47.495,-28.42,-20.982
40884630,-0.141,-0.282,1.02,44.45,-35.7,-14.227
40884640,-0.061,-0.253,1.021,37.59,-43.697,-16.187
40884650,0.152,-0.237,1.029,27.37,-46.62,-17.465
40884660,0.329,-0.211,1.051,15.382,-39.252,-14.49
40884670,0.312,-0.24,1.05,0.84,-23.957,-7.857
40884670,0.212,-0.164,1.056,-13.895,-9.485,-2.292
40884690,0.154,-0.237,1.102,-29.785,1.627,1.645
40884690,0.125,-0.199,1.129,-46.497,8.68,3.797
40884710,0.133,-0.258,1.18,-62.842,13.212,5.775
40884710,0.097,-0.205,1.225,-77.822,15.575,7.577
40884730,0.645,-0.377,0.978,-79.782,49.91,7.63
40884730,-1.045,-0.051,1.191,-76.877,79.922,10.132
40884750,0.333,-0.576,1.2,-120.312,93.642,-11.672
40884750,0.343,-0.362,1.158,-141.61,114.59,-6.615
40884760,0.225,-0.122,1.062,-156.835,131.652,-8.277
40884770,0.418,-0.428,0.989,-182.385,159.302,-4.55
40884780,0.458,-0.856,0.896,-186.13,190.102,-2.327
40884790,0.296,-1.085,0.763,-156.922,208.617,-3.29
40884800,0.061,-1.168,0.602,-116.987,217.297,-5.775
40884810,-0.355,-1.401,0.524,-82.46,209.335,-20.58
40884820,-0.862,-1.593,0.23,-54.442,164.675,-68.582
40884830,0.858,-1.998,0.501,-27.877,60.672,-166.67
40884840,1.794,-1.615,0.222,65.712,41.685,-315.84
40884850,-0.792,-0.464,-0.391,89.705,81.9,-400.995
40884860,-1.75,-0.351,-0.409,37.905,83.265,-370.79
40884870,-1.341,-0.325,-0.234,2.03,33.88,-281.172
40884880,-0.63,-0.239,-0.053,-18.2,0.332,-177.625
40884890,-0.545,-0.152,0.006,-38.097,-7.63,-78.802
40884900,-0.306,-0.11,-0.035,-52.535,-25.882,-21.367
40884910,0.447,0.061,-0.183,-51.397,-38.972,-3.465
40884920,1.298,0.453,-0.312,-43.12,-13.195,-22.47
40884930,1.255,0.656,-0.366,-41.492,39.655,-64.925
40884940,0.415,0.011,0.984,-41.597,74.865,-102.077
40884950,-1.998,-1.9,1.401,58.8,101.587,2.03
40884960,-0.823,-1.998,-0.899,336.21,-16.73,240.817
40884970,1.047,-1.026,1.031,400.137,-94.517,110.845
40884980,-1.998,1.574,1.126,367.657,-51.432,92.837
40884990,-1.405,1.473,1.652,321.58,-103.862,-40.512
40885000,-1.55,-1.596,1.757,252.455,-160.842,-140
40885010,1.32,0.833,1.993,283.85,-250.39,-172.725
40885020,1.998,1.09,1.855,174.177,-193.462,-93.52
40885030,1.409,0.429,1.431,36.312,-53.655,2.485
40885040,0.24,0.03,1.19,-41.44,28.402,32.095
40885050,0.137,-0.255,1.021,-74.445,47.565,28.892
40885060,0.081,-0.323,0.98,-83.492,52.867,21.63
40885070,-0.129,-0.406,0.916,-86.152,54.355,16.817
40885080,0,-0.466,0.81,-80.482,50.505,9.205
40885080,0.084,-0.637,0.757,-64.925,51.66,4.095
40885100,-0.262,-0.552,0.828,-44.73,49.91,10.482
40885100,-0.056,-0.393,0.964,-33.25,42,6.02
40885120,0.086,-0.311,1.1,-33.687,40.932,7.525
40885120,-0.306,-0.251,1.101,-41.65,56.087,10.517
40885140,0.042,-0.279,1.056,-57.557,49.98,0.735
40885140,0.033,-0.392,1.041,-71.26,46.06,3.71
40885160,0.041,-0.341,1.106,-82.32,43.015,12.617
40885160,-0.009,-0.345,1.151,-97.002,41.142,21.612
40885170,-0.043,-0.307,1.179,-114.52,43.802,26.127
40885180,-0.084,-0.276,1.181,-134.505,52.307,25.847
40885190,-0.086,-0.327,1.185,-157.902,67.69,19.932
40885200,-0.134,-0.292,1.18,-182.927,84.962,12.302
40885210,-0.145,-0.306,1.118,-211.382,97.37,8.085
40885220,-0.19,-0.351,1.124,-239.312,106.557,5.022
40885230,-0.295,-0.329,1.155,-265.195,109.147,-0.017
40885240,-0.351,-0.583,1.287,-286.37,103.687,-11.795
40885250,-0.284,-1.013,1.125,-289.94,99.645,-21.175
40885260,-0.092,-1.189,1.137,-269.062,109.497,-15.96
40885270,0.037,-1.051,0.938,-238.7,129.482,-9.275
40885280,-0.648,-0.521,1.115,-196.332,143.307,-11.217
40885290,-0.794,-0.558,0.988,-162.102,106.155,-28.892
40885300,-0.46,-0.499,1.091,-118.072,38.237,-35.35
40885310,-0.121,-0.498,1.483,-48.072,-32.882,-19.075
40885320,0.541,-0.515,1.646,103.565,-81.217,-16.047
40885330,-0.317,0.643,1.061,245.017,-88.217,-40.232
40885340,-0.196,1.067,0.369,295.225,-113.61,-73.097
40885350,0.249,1.321,-0.429,313.88,-129.867,-75.985
40885360,0.413,1.85,-0.582,269.185,-96.197,-68.267
40885370,0.22,0.804,-0.347,169.505,-19.057,-40.425
40885380,-0.664,-0.26,-0.032,149.082,27.965,10.517
40885390,-0.969,-0.226,-0.242,150.885,18.672,73.272
40885400,-0.224,-0.091,-0.615,133.98,-15.365,115.5
40885410,0.677,-0.417,-0.74,86.135,-19.162,127.715
40885420,0.456,-0.61,-0.674,53.252,-5.722,148.75
40885420,0.814,-1.403,-0.63,8.365,-22.592,156.835
40885440,-1.611,-1.998,-0.649,-48.02,-110.442,172.06
40885440,-0.675,-1.416,-0.804,328.877,-419.142,144.865
40885460,1.731,1.958,0.43,562.712,-385,25.76
40885460,-1.785,1.764,1.603,402.465,-219.117,97.072
40885480,-1.437,-1.983,1.418,149.415,-161.245,-14.612
40885480,0.159,1.316,1.998,339.937,-292.355,-118.86
40885500,1.998,-0.043,1.685,102.27,-225.977,-83.58
40885500,1.658,1.004,1.406,-16.747,-71.662,-25.515
40885510,0.789,-0.728,0.98,-97.877,32.742,17.867
40885520,0.17,-0.33,0.992,-98.647,65.782,22.277
40885530,-0.693,-0.57,0.936,-98.945,63.577,30.45
40885540,-0.648,-0.3,0.763,-85.382,30.555,9.782
40885550,0.017,-0.774,0.653,-68.215,6.405,-14.787
40885560,0.015,-0.6,0.638,-37.677,1.505,-12.967
40885570,0.054,-0.567,0.822,-12.792,0.507,-2.362
40885580,0.051,-0.296,1.046,-1.96,-2.415,7.735
40885590,-0.127,-0.292,1.079,-8.347,-8.942,16.292
40885600,-0.144,-0.313,1.113,-18.41,-20.282,10.605
40885610,0.164,-0.044,1.234,-30.485,-28.945,-1.295
40885620,0.328,-0.203,1.241,-57.085,-26.057,2.432
40885630,0.534,-0.367,1.224,-77.122,-13.37,17.325
40885640,-0.214,-0.298,0.966,-75.81,19.967,33.005
40885650,0.095,-0.266,1.12,-108.692,6.09,28.507
40885660,0.086,-0.462,1.065,-128.45,11.83,32.76
40885670,-0.087,-0.461,1.022,-134.68,17.15,30.94
40885680,-0.12,-0.462,1.005,-142.73,19.057,27.475
40885690,-0.189,-0.429,1.008,-151.445,21.385,22.452
40885700,-0.185,-0.381,0.988,-164.185,25.637,13.16
40885710,-0.195,-0.574,0.898,-178.955,32.497,-1.19
40885720,0.006,-0.948,0.891,-180.18,40.6,-17.36
40885730,-0.127,-1.218,0.792,-165.287,62.632,-21.122
40885740,-0.854,-1.299,0.712,-141.977,77.035,-29.382
40885750,-0.19,-1.968,0.486,-89.915,58.397,-37.992
40885760,-1.163,-1.998,-0.53,-40.355,59.57,2.17
40885770,-1.51,-1.888,-0.06,-14.595,31.08,30.712
40885780,-0.274,-1.613,-0.546,42.017,6.72,76.09
40885790,0.738,-0.721,-0.278,70.525,-3.272,64.785
40885800,0.94,-0.333,-0.404,40.145,46.462,-4.515
40885810,0.245,0.129,-0.806,3.325,64.12,-96.477
40885820,0.332,0.779,-0.953,-26.11,53.97,-170.327
40885830,-0.119,0.858,-0.797,-74.095,55.23,-146.055
40885830,-0.509,0.697,-0.927,-95.497,37.502,-62.93
40885850,-0.097,1.365,-1.392,-35.28,-27.825,45.342
40885850,1.425,0.781,1.07,59.885,-74.55,137.672
40885870,1.956,-1.997,1.913,166.565,151.9,163.537
40885870,-1.734,-1.997,-0.563,394.677,-3.535,85.522
40885890,-1.099,0.617,0.745,472.185,-219.187,155.295
40885890,1.49,1.686,1.878,444.185,-220.57,106.54
40885910,-1.892,-0.537,1.858,331.222,-156.485,-2.677
40885910,0.55,1.246,1.998,313.005,-215.687,-115.832
40885920,1.896,1.176,1.921,144.742,-190.837,-96.74
40885930,1.64,0.181,1.263,-8.085,-71.47,-40.092
40885940,0.544,-0.542,0.829,-64.732,17.587,8.4
40885950,-0.241,-0.556,0.789,-56.315,43.365,17.482
40885960,-0.458,-0.378,0.884,-37.24,31.57,4.217
40885970,-0.16,-0.56,0.808,-29.172,13.002,-12.932
40885980,0.09,-0.562,0.78,-14.157,3.552,-18.147
40885990,0.084,-0.445,0.836,1.54,2.397,-9.957
40886000,0.117,-0.442,0.97,10.237,3.797,-1.942
40886010,0.146,-0.195,1.079,7.367,7.35,1.575
40886020,0.105,-0.297,1.075,-8.75,13.125,5.46
40886030,0.165,-0.263,1.1,-21.717,17.57,5.81
40886040,0.186,-0.069,1.18,-40.285,25.112,11.095
40886050,0.003,-0.305,1.212,-62.842,30.8,16.747
40886060,-0.041,-0.173,1.3,-77.087,27.737,11.287
40886070,0.58,-0.51,1.074,-90.842,48.545,6.125
40886080,-1.062,-0.183,1.103,-85.907,82.372,7.735
40886090,-0.095,-0.381,1.131,-117.915,68.215,-17.08
40886100,0.143,-0.511,1.14,-135.082,78.452,-14.857
40886110,-0.06,-0.383,1.091,-143.675,99.557,-20.597
40886120,-0.311,-0.586,0.994,-154.7,116.935,-41.877
40886130,0.039,-1.158,0.752,-149.292,141.067,-62.72
40886140,-0.036,-1.453,0.8,-125.947,171.71,-68.127
40886150,-0.36,-1.982,-0.192,-107.852,189.07,-106.19
40886160,0.61,-1.998,-0.602,-56.332,128.082,-187.11
40886170,0.877,-1.794,-0.793,33.407,60.952,-300.142
40886170,-1.841,-0.93,-0.803,3.64,27.142,-282.397
40886190,-1.998,-1.425,-0.368,-87.78,-2.31,-128.695
40886190,-1.617,-1.625,-0.036,-107.625,-84.892,50.54
40886210,0.048,-1.118,0.042,-63.472,-129.202,165.392
40886210,1.013,-0.374,0.114,-44.765,-87.062,226.852
40886230,1.152,0.191,0.162,-70.017,-16.922,219.082
40886230,0.919,0.905,0.196,-103.46,21.49,165.847
40886250,1.031,1.625,0.009,-129.132,6.702,99.277
40886250,1.522,1.853,-0.257,-126.77,-6.457,43.505
40886260,0.986,1.538,-0.513,-95.375,-8.995,-6.667
40886270,0.275,1.596,0.235,-67.69,-31.447,-27.51
40886280,-0.585,-1.267,1.998,175.332,-72.625,-16.117
40886290,-1.898,-1.998,-0.682,383.792,-107.1,148.54
40886300,0.025,-1.123,1.356,437.482,-230.212,137.602
40886310,0.049,1.997,1.376,496.772,-172.602,32.9
40886320,-1.899,-0.355,1.951,329.052,-118.405,-82.827
40886330,0.321,0.104,1.825,307.51,-187.302,-165.55
40886340,1.92,1.319,1.941,219.817,-205.222,-156.59
40886350,1.678,0.547,1.676,39.935,-97.562,-61.267
40886360,0.733,-0.151,1.14,-52.202,-5.425,-5.915
40886370,0.161,-0.389,0.915,-79.677,32.165,13.072
40886380,-0.073,-0.384,0.926,-76.212,39.777,10.027
40886390,-0.139,-0.531,0.885,-72.31,35.945,4.585
40886400,-0.307,-0.054,0.808,-41.142,65.345,-13.055
40886410,-0.002,-0.763,0.84,-52.535,37.362,-40.162
40886420,-0.04,-0.528,0.748,-48.177,36.732,-44.502
40886430,0.346,-0.602,0.875,-39.042,23.502,-27.755
40886440,0.33,-0.462,0.957,-38.675,10.307,3.167
40886450,0.16,-0.336,1.041,-41.982,1.592,30.24
40886460,-0.005,-0.468,1.123,-49.262,-7.14,48.65
40886470,0.063,-0.1,1.084,-57.365,-17.465,51.87
40886480,0.093,-0.235,1.191,-71.05,-15.505,61.46
40886490,0.159,-0.31,1.167,-99.96,-6.23,61.95
40886500,0.154,-0.296,1.185,-118.58,2.887,65.8
40886510,0.206,-0.285,1.096,-140.7,13.3,69.405
40886520,0.161,-0.358,0.974,-158.742,27.335,72.905
40886530,0.019,-0.516,0.946,-167.702,40.897,70.945
40886540,0.275,-0.53,0.885,-160.877,59.132,64.907
40886550,0.006,-0.708,0.889,-158.13,90.475,59.797
40886560,-0.08,-1.001,0.941,-142.765,95.27,45.167
40886570,-0.025,-0.929,0.806,-108.57,91.42,39.462
40886580,-0.089,-1.01,0.899,-87.885,91.525,38.57
40886580,-0.279,-1.423,1.095,-61.985,86.677,33.757
40886600,0.707,-1.948,1.655,11.725,39.375,-16.922
40886600,0.549,-1.408,0.361,132.877,-18.812,-158.532
40886610,-1.312,0.208,-0.39,142.45,-49.63,-246.067
40886620,-1.677,0.05,-0.419,68.477,-12.267,-177.59
40886630,-1.794,-0.627,-0.315,15.452,-5.162,-35.017
40886640,-1.057,-0.789,-0.353,24.552,-22.207,65.642
40886650,-0.207,-0.263,-0.474,40.74,-24.955,108.185
40886660,0.584,-0.076,-0.501,16.327,7.665,80.832
40886670,0.836,-0.42,-0.584,-15.067,51.975,13.527
40886680,0.78,-0.493,-0.681,-20.895,72.397,-70.525
40886690,0.717,-0.36,-0.834,-23.135,78.47,-139.457
40886700,0.528,-0.408,-1.04,-32.042,82.407,-168.455
40886710,0.334,-0.14,-1.171,-38.15,80.307,-150.605
40886720,-0.011,-0.972,1.243,-33.005,72.765,-83.755
40886730,-1.548,-1.998,-0.328,195.44,56.805,92.872
40886740,0.338,0.4,0.659,489.597,-246.4,155.172
40886750,0.292,1.067,1.434,395.395,-185.482,83.825
40886760,-1.883,-0.078,1.36,327.477,-142.975,78.767
40886770,-0.626,0.655,1.981,341.197,-202.265,-66.185
40886780,0.458,0.356,1.998,269.237,-259.595,-90.597
40886790,1.998,1.559,1.748,141.802,-212.082,-57.085
40886800,1.597,0.024,1.219,0.507,-82.635,-6.93
40886810,0.636,-0.173,0.986,-52.15,4.41,20.387
40886820,-0.03,-0.52,0.804,-62.912,35.822,25.182
40886830,0.071,-0.402,1.029,-47.337,34.405,9.1
40886840,-0.169,-0.396,0.905,-52.202,33.197,12.582
40886850,0.151,-0.455,0.889,-46.847,26.232,6.562
40886860,0.187,-0.414,0.923,-42.21,29.295,16.065
40886870,-0.146,-0.408,0.962,-39.06,31.325,28.717
40886880,0,-0.238,1.1,-39.655,23.905,26.827
40886890,0.13,-0.183,1.197,-54.74,23.03,29.592
40886900,0.151,-0.217,1.288,-77.385,27.545,36.855
40886910,0.265,-0.111,1.366,-104.37,31.167,45.92
40886920,0.287,-0.194,1.344,-137.217,35.91,59.342
40886920,0.321,-0.235,1.266,-161.91,43.942,71.522
40886940,0.313,-0.104,1.168,-188.86,56.332,80.727
40886940,0.31,-0.1,1.241,-217.332,83.422,92.33
40886960,-0.151,-0.549,-0.129,-244.947,84.682,77.035
40886960,0.719,-0.228,1.332,-245.822,69.895,75.862
40886980,0.054,-0.551,1.252,-276.395,104.142,99.872
40886980,-0.131,-1.198,1.389,-264.775,89.722,87.097
40887000,-0.129,-1.143,1.224,-208.32,62.44,89.11
40887000,0.075,-0.457,1.268,-145.092,30.397,91.927
40887010,0.504,-0.366,0.949,-112.717,6.177,59.377
40887020,1.084,-0.801,1.213,-63.577,-26.897,-4.2
40887030,1.798,-0.815,1.282,75.355,11.97,-124.705
40887040,-0.668,0.961,0.896,181.615,-0.157,-298.585
40887050,-0.394,1.189,0.561,201.39,-3.01,-359.555
40887060,-0.481,0.695,0.466,205.135,2.467,-266.14
40887070,-0.555,0.471,-0.193,221.742,-6.632,-199.605
40887080,-0.009,0.931,-0.507,222.495,-12.477,-142.642
40887090,0.191,0.565,-0.469,140.245,21.035,-104.86
40887100,-0.049,-0.437,-0.368,68.512,56.42,-77.035
40887110,-0.212,-0.816,-0.556,63.14,57.61,-61.775
40887120,0.059,-0.39,-0.823,76.247,45.22,-55.527
40887130,0.073,-0.266,-0.966,51.17,43.96,-42.315
40887140,-0.135,-0.759,-1.103,13.702,40.18,-0.647
40887150,1.118,-1.808,0.997,17.027,72.94,50.067
40887160,-1.207,-1.998,-0.823,151.76,67.655,253.837
40887170,0.667,-0.247,-0.234,433.895,-333.34,165.62
40887180,0.111,1.997,1.59,533.61,-187.022,-3.78
40887190,-1.585,-0.742,1.906,255.15,-124.337,-31.902
40887200,1.446,1.332,1.884,199.605,-269.535,-91.017
40887210,1.998,0.404,1.191,54.53,-196.192,-118.037
40887220,1.475,-0.162,0.969,-43.837,-28.367,-31.692
40887230,-0.239,-0.706,0.8,-62.055,42.525,9.012
40887240,-0.034,-0.217,1.002,-36.662,36.47,-0.385
40887250,-0.481,-0.431,0.928,-38.85,25.935,-4.637
40887260,0.129,-0.413,0.92,-32.357,5.827,-22.085
40887270,0.38,-0.178,1.018,-34.072,9.765,-22.68
40887280,-0.028,-0.486,0.895,-43.312,18.917,-5.127
40887280,0.002,-0.397,0.983,-35.595,11.602,0.21
40887300,0.078,-0.186,1.113,-35.892,5.757,3.605
40887300,-0.003,-0.218,1.153,-50.662,1.907,6.107
40887320,-0.001,-0.181,1.238,-65.222,-5.897,7.892
40887320,-0.028,-0.245,1.223,-81.112,-19.092,10.937
40887330,-0.017,-0.169,1.272,-98.385,-30.87,9.415
40887340,0.159,-0.296,1.169,-124.512,-33.67,13.387
40887350,0.053,-0.622,0.805,-119.035,34.562,34.912
40887360,-0.207,-0.203,1.274,-137.812,27.457,17.815
40887370,0.179,-0.333,1.183,-180.215,38.99,14.472
40887380,-0.057,-0.377,1.178,-207.672,64.102,20.947
40887390,-0.154,-0.466,1.103,-225.05,66.43,1.575
40887400,-0.061,-0.706,0.805,-241.762,53.322,-13.562
40887410,0.306,-1.136,0.764,-249.48,67.042,-22.907
40887420,0.666,-1.55,0.778,-215.337,101.5,-23.45
40887430,0.029,-1.998,-0.07,-157.605,145.232,-14.77
40887440,-1.651,-1.949,0.015,-88.777,91.962,-25.952
40887450,-0.709,-0.731,-0.187,14.735,-25.62,-21.472
40887460,0.223,0.166,0.201,35.612,-84.647,44.1
40887470,0.354,-0.129,0.34,-5.495,-47.477,80.272
40887480,0.077,-0.001,0.236,-0.28,-30.94,74.935
40887490,0.285,0.431,0.169,18.2,-40.407,69.317
40887500,0.475,0.4,0.099,4.34,-37.8,72.52
40887510,0.455,0.128,0.032,-16.38,-28.577,73.272
40887520,0.409,0.348,-0.051,-13.492,-31.605,73.08
40887530,0.654,0.792,-0.069,-1.872,-36.54,66.255
40887540,0.832,1.074,-0.35,3.535,-23.45,50.645
40887550,1.23,1.247,-0.516,22.575,8.19,17.167
40887560,1.199,0.878,-0.664,18.375,56.7,-5.46
40887570,-1.006,-1.65,1.892,9.257,64.417,2.59
40887580,-1.865,-1.998,-1.438,186.13,79.047,218.697
40887590,1.146,-0.12,0.262,511.402,-233.572,171.045
40887600,-1.244,1.997,1.453,532.98,-170.52,153.79
40887610,-1.151,-0.295,1.503,276.955,-100.695,37.17
40887620,-1.886,-1.42,1.911,232.032,-127.907,-98.332
40887630,1.017,1.492,1.995,276.29,-237.562,-201.932
40887640,1.998,0.332,1.709,129.57,-178.377,-146.09
40887650,1.666,0.33,1.389,44.747,-63.455,-43.505
40887660,0.311,0.246,1.257,-30.957,25.182,13.037
40887670,0.104,-0.29,1.09,-74.76,52.307,19.407
40887670,-0.202,-0.404,0.946,-87.587,52.115,11.357
40887690,-0.177,-0.393,0.994,-84.472,43.557,5.705
40887690,-0.352,-0.356,0.781,-66.465,56.805,-0.017
40887710,-0.213,-0.536,0.974,-56.35,45.955,-24.08
40887710,-0.064,-0.605,0.878,-56.892,18.987,-26.372
40887730,0.102,-0.401,0.99,-50.295,-1.872,-20.545
40887730,0.078,-0.395,1.154,-58.152,-18.742,-2.152
40887750,-0.024,-0.219,1.233,-72.03,-29.207,7.175
40887750,-0.042,-0.209,1.265,-97.247,-27.335,7.472
40887760,-0.023,-0.285,1.311,-127.347,-16.625,2.52
40887770,0.089,-0.195,1.329,-157.71,-2.38,-5.617
40887780,0.147,-0.118,1.389,-194.967,12.635,-7.297
40887790,-0.296,-0.13,1.415,-240.485,22.225,-13.772
40887800,-0.717,-0.314,1.431,-286.702,26.057,-43.855
40887810,-0.882,-0.588,1.451,-316.505,31.71,-81.672
40887820,-0.662,-1.186,1.213,-300.947,50.645,-109.812
40887830,-0.584,-1.88,1.194,-240.712,104.545,-121.975
40887840,-0.393,-1.366,0.518,-165.812,132.002,-154.875
40887850,-0.807,-0.206,0.738,-93.852,154.192,-152.81
40887860,-1.556,-0.477,1.315,-65.152,143.115,-169.032
40887870,-1.939,-0.599,0.673,14.017,88.882,-105.84
40887880,-1.581,1.153,0.107,136.342,-6.387,-6.055
40887890,-0.244,1.822,0.111,152.495,-26.88,135.695
40887900,0.287,1.101,0.387,117.075,23.975,224.035
40887910,0.04,0.101,0.486,99.032,79.642,203.105
40887920,-0.222,0.019,0.151,109.06,81.2,153.702
40887930,-0.082,0.135,-0.096,109.445,50.12,139.055
40887940,0.369,-0.431,-0.442,80.447,21.21,165.567
40887950,1.045,-0.737,-0.815,65.887,10.202,184.45
40887960,1.749,-0.757,-0.966,63.84,30.1,177.292
40887970,1.979,-1.183,-0.978,35.21,75.46,151.655
40887980,1.567,-1.712,-0.556,-17.482,103.757,101.517
40887990,1.351,-1.998,0.521,-51.765,-15.225,-85.592
40888000,-1.859,-1.998,-0.106,208.687,-255.36,-129.902
40888010,1.869,1.079,0.006,504.665,-267.452,-11.322
40888010,0.398,1.997,1.547,471.397,-165.742,128.275
40888030,-1.905,-0.995,1.049,217.105,-93.362,5.635
40888030,-1.771,-0.149,1.998,351.662,-207.13,-52.832
40888050,1.34,1.046,1.989,290.447,-292.652,-106.435
40888050,1.998,0.392,1.353,43.085,-163.415,-68.232
40888070,0.886,0.027,1.171,-26.355,-24.36,-12.197
40888070,0.405,-0.451,0.899,-69.107,39.672,6.877
40888080,0.138,-0.518,0.905,-60.585,54.95,8.785
40888090,-0.097,-0.333,1.013,-53.935,57.382,14.087
40888100,-0.17,-0.355,0.951,-58.135,51.257,16.415
40888110,0.087,-0.583,0.883,-55.387,42.052,15.505
40888120,-0.013,-0.341,0.973,-42.735,39.55,23.957
40888130,0.026,-0.238,1.176,-44.24,39.725,29.417
40888140,-0.044,-0.17,1.294,-62.562,39.62,33.25
40888150,0.348,-0.003,1.456,-92.487,39.602,38.01
40888160,1.409,-0.15,1.455,-126.63,64.592,61.145
40888170,-0.859,-0.474,1.046,-158.2,94.15,96.687
40888180,-0.825,-0.113,1.108,-172.375,76.842,65.66
40888190,0.032,-0.083,1.2,-190.89,73.115,31.517
40888200,0.2,-0.653,0.241,-206.692,129.517,27.265
40888210,0.174,-0.473,1.094,-204.19,114.345,23.467
40888220,-0.108,-0.624,1.063,-216.02,127.312,31.535
40888230,-0.343,-1.237,0.759,-194.075,115.29,26.582
40888240,-0.537,-1.148,0.519,-155.4,73.85,19.232
40888250,-0.701,-1.617,0.29,-113.242,27.755,17.832
40888260,-0.419,-1.998,0.513,-67.76,-45.535,-12.32
40888270,1.288,-1.712,0.135,22.785,-101.71,-80.657
40888280,0.873,-0.441,0.503,66.85,-59.885,-171.395
40888290,-0.808,-0.822,0.457,41.23,6.947,-231.945
40888300,-1.303,-0.81,0.172,73.85,4.585,-230.545
40888310,-0.336,0.376,-0.138,127.277,-25.882,-254.187
40888320,0.2,1.187,-0.342,128.73,14.385,-253.312
40888330,-0.471,1.163,-0.665,87.517,66.535,-233.8
40888340,-0.386,1.232,-0.903,50.505,84.175,-211.487
40888350,0.248,1.165,-0.589,15.732,102.935,-168.98
40888360,0.035,0.171,-0.475,-3.745,110.635,-104.195
40888370,0.197,0.345,-0.656,30.152,54.775,-50.12
40888380,0.4,0.576,-0.048,52.64,-13.982,32.2
40888390,0.297,-1.875,1.126,69.405,-33.285,164.43
40888400,-1.378,-1.998,0.536,274.12,-151.392,397.845
40888410,1.028,0.363,0.112,489.72,-258.107,189.77
40888420,-1.945,1.578,1.85,519.155,-148.4,57.925
40888420,-1.963,-1.261,1.905,262.92,-152.32,94.36
40888440,1.309,1.979,1.786,284.445,-314.23,-124.372
40888440,1.998,-0.229,1.143,-11.48,-142.887,-70.245
40888460,1.181,0.17,1.082,-69.79,13.807,-20.667
40888460,-0.489,-0.515,1.016,-102.322,64.12,6.65
40888480,-0.141,-0.282,1.015,-96.757,47.372,-16.782
40888480,-0.493,-0.533,0.819,-107.24,31.062,-24.692
40888500,0.018,-1.016,0.538,-82.88,4.48,-26.232
40888500,0.245,-0.642,0.618,-32.077,-7.98,-13.965
40888510,-0.088,-0.599,0.9,2.012,-7.35,9.17
40888520,-0.137,-0.023,1.253,9.712,-15.487,6.405
40888530,0.252,-0.017,1.337,-17.062,-26.302,-1.995
40888540,0.228,-0.087,1.405,-56.315,-27.282,10.57
40888550,0.165,-0.251,1.278,-88.917,-30.747,21.63
40888560,0.225,-0.007,1.321,-113.54,-23.957,23.8
40888570,0.244,-0.13,1.238,-153.492,-12.057,35.402
40888580,0.239,-0.388,1.146,-180.565,0.56,43.592
40888590,0.282,-0.572,0.437,-158.34,64.977,51.082
40888600,-0.643,-0.045,1.108,-164.972,38.972,33.582
40888610,-0.042,-0.286,1.01,-203.087,38.22,5.985
40888620,0.016,-0.592,0.937,-218.05,40.88,13.335
40888630,0.002,-0.766,0.848,-208.897,35.735,0.577
40888640,0.173,-1.051,0.722,-185.01,44.992,-8.26
40888650,-0.075,-1.337,0.693,-142.415,72.012,-4.777
40888660,-0.157,-0.993,0.359,-93.152,82.145,-22.417
40888670,-0.085,-0.814,0.322,-45.587,85.05,-28.367
40888680,-0.209,-1.103,0.405,-24.64,101.64,-38.57
40888690,-0.309,-0.976,0.271,12.932,88.34,-52.902
40888700,-0.052,-0.889,0.297,60.917,56.857,-67.392
40888710,-0.272,-0.741,-0.061,84.315,39.987,-78.592
40888720,-0.685,-0.167,-0.421,90.23,22.155,-76.79
40888730,-0.72,0.202,-0.485,57.575,6.352,-42.105
40888740,-0.525,-0.006,-0.48,13.58,6.737,18.795
40888750,-0.349,-0.061,-0.554,-3.85,-2.502,69.247
40888760,0.364,0.146,-0.657,-2.1,-4.602,90.352
40888760,0.6,0.652,-0.833,-3.99,13.02,88.882
40888780,1.667,-0.726,1.631,-10.08,26.32,54.127
40888780,1.804,-1.998,1.851,106.067,99.452,26.652
40888800,-1.519,-1.998,-1.053,245.542,4.27,-8.365
40888800,-0.91,-1.201,0.706,358.522,-140.28,82.495
40888820,1.358,1.789,1.288,409.01,-158.462,140.84
40888820,-1.905,0.575,1.623,350.192,-126.332,90.615
40888830,-1.886,-0.769,1.998,295.942,-143.272,-3.955
40888840,0.426,1.815,1.998,259.962,-239.312,-106.417
40888850,1.998,0.809,1.591,63.262,-179.2,-83.405
40888860,1.576,0.123,1.262,-49.595,-40.005,-12.74
40888870,0.463,-0.353,1.077,-105.612,39.917,24.237
40888880,-0.096,-0.454,0.931,-115.062,56.805,35.665
40888890,-0.492,-0.611,0.755,-100.257,45.885,26.372
40888900,-0.526,-0.552,0.734,-74.865,20.86,7.332
40888910,-0.23,-0.571,0.628,-52.605,-3.395,-12.477
40888920,-0.018,-0.809,0.54,-23.572,-16.065,-17.272
40888930,0.027,-0.504,0.709,10.832,-20.842,-9.257
40888940,0.041,-0.457,1.024,28.7,-22.487,-1.295
40888950,-0.019,-0.155,1.14,24.167,-25.795,-1.697
40888960,0.069,-0.307,1.098,5.53,-29.75,-1.767
40888970,0.207,-0.126,1.094,-7.385,-31.185,-0.962
40888980,0.198,-0.338,1.094,-24.29,-28.647,11.917
40888990,0.208,-0.234,1.184,-33.617,-27.93,18.567
40889000,0.284,-0.136,1.219,-47.932,-27.702,26.285
40889010,0.361,-0.268,1.161,-71.942,-15.802,36.662
40889020,0.268,-0.388,1.179,-98.455,7.875,45.71
40889030,0.346,-0.33,1.311,-112.962,27.457,49.507
40889040,0.047,-0.353,0.568,-105.752,55.457,54.967
40889050,0.199,-0.347,1.106,-136.885,49.77,51.327
40889060,0.199,-0.498,1.063,-158.882,69.772,56.7
40889070,0.275,-0.592,1.015,-160.545,93.38,53.392
40889080,0.307,-0.885,0.907,-150.377,119.07,46.235
40889090,0.264,-0.913,0.729,-128.992,137.55,33.232
40889100,-0.12,-1.565,0.579,-107.135,153.772,28.385
40889110,-0.408,-1.994,0.483,-77.105,139.65,1.802
40889120,0.208,-1.998,0.014,-9.66,61.862,-53.777
40889130,1.09,-1.714,-0.665,80.272,12.722,-114.345
40889140,0.117,-0.389,-0.508,72.765,16.327,-164.972
40889150,-0.486,-1.116,-0.317,-7.07,53.27,-156.66
40889160,-0.758,-1.725,-0.197,-36.89,41.632,-124.967
40889170,-0.492,-1.089,-0.17,-26.915,-7.332,-123.147
40889170,-0.325,-0.474,-0.106,-31.64,-24.64,-97.177
40889190,-0.272,-0.388,-0.088,-58.135,-16.852,-65.87
40889190,-0.153,-0.4,-0.171,-69.737,-6.475,-42.735
40889210,-0.143,0.008,-0.622,-68.897,-2.817,-24.885
40889210,0.254,0.513,-0.6,-90.562,16.24,-8.295
40889230,0.306,0,-0.644,-137.427,63.42,5.81
40889230,0.153,0.317,0.118,-112.717,67.655,-2.52
40889250,1.036,0.999,1.685,77.472,130.9,21.297
40889250,-1.746,1.725,1.838,330.26,186.06,148.785
40889260,-1.998,-1.694,0.886,350.752,-84.997,137.392
40889270,0.832,-0.745,0.993,350.997,-222.372,19.407
40889280,-1.387,1.854,1.608,471.905,-180.477,-162.575
40889290,0.316,-1.556,1.851,298.83,-153.755,-192.377
40889300,1.941,1.673,1.998,297.99,-198.345,-178.675
40889310,1.61,0.671,1.834,132.58,-120.347,-62.527
40889320,0.628,0.437,1.434,15.032,-31.622,-2.047
40889330,0.396,-0.168,1.134,-54.6,8.365,5.862
40889340,0.172,-0.29,1.073,-80.272,26.985,13.23
40889350,-0.195,-0.316,0.96,-87.622,28.577,16.66
40889360,-0.09,-0.593,0.9,-87.22,18.55,15.47
40889370,-0.013,-0.46,0.907,-76.212,6.93,15.225
40889380,-0.121,-0.42,0.937,-68.547,-2.537,18.812
40889390,-0.056,-0.443,1.031,-65.835,-12.267,18.69
40889400,0.061,-0.288,1.157,-73.552,-18.147,15.365
40889410,0.187,-0.192,1.284,-94.85,-14.945,15.802
40889420,0.824,-0.442,1.183,-122.517,15.12,23.66
40889430,-0.874,-0.17,1.178,-119.577,62.755,45.727
40889440,0.272,0.015,1.266,-175.017,32.392,17.377
40889450,0.107,-0.144,1.247,-216.352,34.265,45.395
40889460,-0.21,-0.302,1.125,-249.007,23.275,45.92
40889470,-0.379,-0.311,1.112,-265.877,7.857,34.982
40889480,-0.245,-0.472,1.131,-279.965,3.307,23.222
40889490,-0.157,-0.937,1.186,-280.262,12.565,14.752
40889500,0.04,-1.365,1.028,-243.722,29.995,16.03
40889510,-0.171,-1.266,0.704,-182.017,59.465,23.73
40889510,0.041,-1.192,0.745,-126.595,75.74,12.495
40889530,-0.103,-0.497,0.436,-73.08,90.405,19.6
40889530,-0.138,-0.274,0.749,-36.522,82.162,5.862
40889550,-0.671,-0.985,0.872,-31.36,66.552,8.627
40889550,-1.036,-0.596,1.017,56.332,-0.455,49.525
40889570,-0.162,0.363,0.54,168.262,-74.76,92.855
40889570,0.586,0.589,0.365,212.695,-110.915,126.402
40889580,1.063,0.627,-0.103,218.785,-85.19,90.37
40889590,1.117,1.356,-0.281,204.067,-35.927,6.877
40889600,0.686,1.248,-0.103,149.345,26.897,-65.625
40889610,-0.157,0.562,-0.143,102.13,65.012,-103.932
40889620,-0.386,0.214,-0.194,101.132,57.592,-119.052
40889630,-0.096,0.798,-0.292,124.477,54.635,-99.732
40889640,0.112,0.503,-0.347,81.48,93.94,-38.29
40889650,0.13,0.007,-0.419,54.197,118.895,-13.422
40889660,0.428,-1.101,0.498,36.855,99.435,17.01
40889670,-0.457,-1.998,-0.739,28.385,81.672,88.305
40889680,-0.72,-1.055,-0.143,337.155,-263.742,32.112
40889690,1.929,1.997,0.119,563.535,-285.145,-139.282
40889700,-1.096,0.605,1.603,345.975,-94.587,-18.042
40889710,-1.441,-1.918,1.857,141.645,-96.32,-10.132
40889720,0.267,1.857,1.998,315.665,-255.867,-91.822
40889730,1.988,-0.203,1.387,54.915,-183.015,-97.212
40889740,1.501,0.53,1.055,-23.625,-56.892,-39.655
40889750,-0.127,-1.004,0.833,-60.97,19.075,14.087
40889760,0.03,-0.173,0.95,-38.272,17.482,-1.015
40889770,0.243,-0.382,0.948,-38.605,18.322,-7.717
40889780,-0.005,-0.47,0.896,-41.422,23.905,0.192
40889790,0.084,-0.366,0.953,-34.475,22.767,2.572
40889800,0.063,-0.292,0.989,-34.772,22.785,7.507
40889810,0.104,-0.349,1.03,-40.145,23.17,13.02
40889820,0.115,-0.21,1.138,-47.792,24.272,20.352
40889830,0.059,-0.153,1.23,-62.86,23.992,26.127
40889840,0.079,-0.185,1.284,-82.215,20.93,28.63
40889850,-0.01,-0.148,1.373,-101.885,12.67,30.502
40889860,0.207,-0.138,1.266,-123.06,5.88,36.767
40889870,0.27,-0.289,1.134,-147.402,21,49.087
40889880,0.409,-0.464,0.826,-159.197,60.112,55.685
40889890,-0.152,-0.178,1.1,-167.195,70.997,55.422
40889900,0.135,-0.217,1.047,-201.075,70.63,46.602
40889910,0.13,-0.609,0.986,-222.127,85.697,52.57
40889920,-0.061,-0.752,1.034,-230.457,91.455,59.115
40889920,0.358,-0.034,1.283,-204.68,75.495,45.605
40889930,-0.008,-1.246,1.089,-201.407,114.992,15.277
40889940,-0.69,-1.64,0.687,-158.952,122.832,29.662
40889950,-0.377,-0.84,0.621,-84.472,87.535,32.077
40889960,0.427,-0.765,0.841,-47.582,61.267,-3.867
40889970,0.36,-1.118,1.252,-4.182,32.97,-59.097
40889980,0.618,-0.39,0.69,107.87,17.447,-125.387
40889990,-0.748,1.069,0.651,155.837,-25.322,-205.327
40890000,-0.201,0.914,0.096,157.99,-22.242,-201.845
40890010,-0.142,0.872,-0.094,157.57,-11.847,-126.63
40890020,0.032,0.678,-0.312,138.81,-0.262,-106.347
40890030,-0.059,0.416,-0.638,117.285,19.46,-71.837
40890040,-0.335,0.281,-0.644,81.532,32.13,-28.77
40890050,-0.413,-0.371,-0.723,44.992,32.777,20.912
40890060,-0.399,-0.445,-1.019,42.332,4.9,80.5
40890070,0.234,-0.228,-1.096,21.402,-26.6,119.735
40890080,1.029,-1.721,1.182,-19.845,-24.867,128.94
40890090,-1.27,-1.998,-0.874,106.522,-95.217,177.327
40890100,0.011,-0.625,0.463,428.085,-309.522,76.457
40890110,0.996,1.997,1.013,546.385,-194.985,-19.582
40890120,-1.987,-0.491,1.773,295.225,-116.217,-26.792
40890130,0.057,0.319,1.998,199.132,-230.72,-23.992
40890140,1.906,1.428,1.574,122.57,-247.135,-133.507
40890150,1.806,-0.179,1.042,-49.07,-83.632,-49.63
40890160,0.459,-0.614,0.823,-74.112,27.247,15.732
40890170,-0.247,-0.464,0.904,-62.632,47.355,19.617
40890180,-0.357,-0.46,0.925,-49.087,32.48,1.295
40890190,-0.362,-0.4,0.848,-43.207,10.535,-12.617
40890200,0.183,-0.55,0.879,-30.66,-7.385,-19.302
40890210,0.083,-0.485,0.793,-17.867,-10.605,-10.43
40890220,0.034,-0.445,0.904,-3.342,-11.795,-0.577
40890230,0.123,-0.244,1.068,1.4,-14.455,1.015
40890240,0.304,-0.109,1.108,-11.62,-11.777,2.94
40890250,0.273,-0.199,1.154,-32.62,-2.38,15.557
40890260,0.188,-0.147,1.2,-49.98,2.87,22.452
40890260,0.214,-0.229,1.233,-64.33,0.612,31.36
40890280,0.078,-0.221,1.332,-75.355,-5.162,37.625
40890280,0.245,-0.074,1.233,-88.602,-13.895,39.725
40890300,0.355,-0.66,1.075,-121.642,21.42,50.242
40890300,-0.22,-0.46,1.092,-122.307,54.057,55.405
40890320,0.133,-0.252,1.131,-149.047,58.257,35.63
40890320,0.189,-0.299,1.14,-173.495,78.645,37.345
40890330,0.118,-0.501,1.018,-188.825,97.877,32.322
40890340,0.204,-0.993,0.741,-187.057,115.342,21.332
40890350,0.156,-1.464,0.624,-167.51,145.932,27.807
40890360,-0.322,-1.998,0.778,-137.112,162.26,19.477
40890370,-0.479,-1.998,-0.314,-60.147,125.492,-29.382
40890380,-0.236,-1.78,-0.678,63.84,15.627,-50.557
40890390,0.454,-0.572,-0.473,95.97,-26.547,-71.015
40890400,-0.087,-0.892,-0.08,12.04,15.067,-39.83
40890410,-0.685,-1.7,-0.192,-28.525,28.612,-13.492
40890420,-0.589,-1.104,-0.309,4.217,-18.042,-9.572
40890430,-0.166,-0.197,-0.19,10.815,-44.555,8.435
40890440,-0.008,-0.149,-0.144,-39.112,-20.947,46.847
40890450,-0.096,-0.336,-0.293,-80.657,3.132,74.795
40890460,0.128,-0.025,-0.372,-93.432,11.305,75.355
40890470,0.41,0.686,-0.415,-102.69,21.157,61.215
40890480,0.551,1.582,-0.572,-101.78,33.512,43.312
40890490,0.323,1.652,-0.811,-102.76,43.505,28.227
40890500,1.692,0.691,1.991,-55.02,57.977,0.14
40890510,-0.766,-0.433,1.992,308.595,91.77,85.242
40890520,-1.998,-1.998,-0.982,375.13,-166.775,101.325
40890530,1.002,-1.054,1.217,413.892,-286.055,19.46
40890540,-0.765,1.967,1.576,530.057,-235.077,-72.852
40890550,-0.249,-1.351,1.985,357.84,-216.895,-177.52
40890560,1.509,1.403,1.998,312.497,-263.55,-117.862
40890570,1.737,0.526,1.353,54.827,-131.145,-49.245
40890580,0.837,-0.226,1.015,-54.302,-7.945,2.852
40890580,0.415,-0.579,0.814,-66.92,36.977,2.047
40890600,-0.166,-0.359,0.978,-52.832,52.552,7.192
40890600,-0.366,-0.364,0.931,-51.31,40.81,-1.102
40890620,0.098,-0.55,0.857,-46.812,23.817,-10.185
40890620,0.058,-0.392,0.917,-34.842,21.437,-5.862
40890640,-0.18,-0.452,0.894,-27.142,15.925,1.137
40890640,-0.079,-0.336,1.025,-19.775,3.447,4.515
40890660,0.097,-0.224,1.114,-25.462,-3.587,2.607
40890660,0.169,-0.173,1.187,-41.597,-4.83,9.397
40890670,0.081,-0.187,1.273,-62.23,-4.322,19.6
40890680,-0.049,-0.152,1.402,-85.12,-8.802,23.03
40890690,0.254,-0.192,1.36,-114.677,-7.507,21.07
40890700,0.499,-0.502,0.762,-120.557,57.225,28.7
40890710,-0.502,-0.237,1.304,-128.782,74.69,24.78
40890720,0.401,-0.228,1.156,-167.405,114.747,-5.04
40890730,0.645,-0.267,1.184,-189.805,141.627,18.007
40890740,0.33,-0.528,1.064,-200.165,162.575,23.485
40890750,0.341,-1.028,0.847,-196.682,161.157,27.545
40890760,0.369,-1.649,0.69,-160.842,156.59,63.035
40890770,-0.582,-1.998,0.808,-97.475,125.842,65.625
40890780,-0.527,-1.998,-0.057,-2.38,-2.012,-3.727
40890790,1.906,-1.011,-0.593,90.352,-130.917,-125.3
40890800,0.679,0.019,-0.119,40.04,-57.68,-172.48
40890810,-1.583,-1.068,0.028,-49.805,12.075,-144.06
40890820,-1.757,-1.307,0.01,-49.787,-47.985,-95.532
40890830,-0.577,-0.417,-0.233,6.195,-136.622,-29.697
40890840,0.093,0.169,-0.279,6.387,-135.73,42.315
40890850,-0.279,-0.098,-0.428,-55.282,-81.515,78.837
40890860,-0.539,-0.275,-0.497,-81.13,-60.812,83.3
40890870,-0.248,0.588,-0.649,-62.667,-75.46,83.807
40890880,0.29,1.387,-0.826,-49.455,-74.007,91.962
40890890,0.284,1.472,-0.996,-53.27,-41.615,110.005
40890900,0.796,0.066,0.713,-22.452,-26.915,99.452
40890910,0.726,-1.998,0.727,189.822,60.182,81.462
40890920,-1.998,-1.998,-0.069,470.277,-190.872,102.532
40890930,0.915,0.481,0.913,485.887,-202.457,72.415
40890940,-0.583,1.774,1.785,490.28,-139.562,-14.577
40890950,-1.093,-1.718,1.998,302.662,-136.482,-57.155
40890960,1.342,1.885,1.975,304.43,-233.362,-102.987
40890970,1.74,0.515,1.376,18.252,-115.902,-54.145
40890980,1.064,-0.172,0.936,-83.755,-1.312,-7.315
40890990,-0.068,-0.971,0.681,-96.687,44.747,11.235
40891000,-0.021,-0.358,0.912,-56.77,43.277,-5.162
40891010,-0.248,-0.432,0.908,-54.075,36.347,-3.675
40891010,0.075,-0.482,0.921,-50.907,27.387,-11.235
40891030,0.146,-0.308,0.984,-44.922,22.102,-6.352
40891030,-0.114,-0.479,0.905,-44.782,16.625,5.425
40891050,-0.037,-0.314,1.085,-38.797,6.247,4.27
40891050,-0.053,-0.141,1.257,-47.022,-5.495,2.852
40891070,-0.037,-0.159,1.309,-70.157,-19.495,0.402
40891070,0.182,-0.146,1.292,-99.12,-25.655,1.102
40891080,0.124,-0.183,1.194,-130.147,-19.372,9.992
40891090,0.677,-0.655,0.591,-139.72,16.17,14.84
40891100,-1.22,-0.131,1.107,-118.72,35.035,25.76
40891110,0.346,-0.118,1.073,-169.365,21.437,-15.505
40891120,0.218,-0.26,1.122,-202.02,56.595,3.132
40891130,0.116,-0.417,1.076,-227.972,87.727,-6.457
40891140,-0.111,-0.644,0.979,-235.725,92.837,-22.557
40891150,-0.084,-0.64,0.948,-225.995,77.157,-38.605
40891160,0.145,-0.928,1.044,-217.63,79.345,-47.74
40891170,0.044,-1.619,0.85,-194.075,103.302,-51.012
40891180,-0.372,-1.915,0.925,-142.327,119.192,-50.312
40891190,-0.77,-1.985,0.408,-57.942,96.04,-73.657
40891200,-1.301,-0.375,-0.111,45.465,8.785,-134.19
40891210,-0.84,0.874,-0.207,17.587,4.777,-118.23
40891220,-1.381,0.129,0.235,-53.41,70.857,4.462
40891230,-1.167,-0.393,0.192,-49.087,80.185,96.53
40891240,-0.448,0.448,0.023,37.45,42.122,148.855
40891250,0.037,0.724,-0.25,53.357,44.38,180.442
40891260,0.236,0.485,-0.446,33.162,65.292,152.81
40891270,0.313,0.634,-0.55,43.907,73.99,97.667
40891280,0.286,0.449,-0.629,52.587,82.372,64.067
40891290,0.448,0.043,-0.919,50.785,82.932,48.65
40891300,-0.38,0.293,-0.449,91.42,36.295,58.537
40891310,1.106,-1.785,1.48,13.492,-114.73,11.725
40891320,0.442,-1.998,-0.698,214.147,-103.88,-97.352
40891330,-1.315,-0.319,0.507,507.412,-242.357,2.887
40891330,1.869,1.997,1.057,554.61,-289.222,39.217
40891350,-0.71,-0.948,1.239,271.862,-125.405,41.02
40891350,-1.328,-0.616,1.995,295.96,-146.912,2.765
40891370,0.453,1.596,1.998,313.687,-243.757,-89.075
40891370,1.996,0.108,1.528,53.952,-166.162,-70.91
40891390,1.674,0.37,1.206,-18.9,-53.287,-36.662
40891390,0.227,-0.713,0.804,-77.315,33.302,26.827
40891410,-0.197,-0.468,0.849,-55.965,43.995,17.692
40891410,-0.468,-0.49,0.879,-43.172,32.882,6.247
40891420,-0.176,-0.349,0.968,-33.337,10.587,-14.385
40891430,0.455,-0.346,1.032,-35.105,3.745,-14.84
40891440,-0.213,-0.374,0.895,-39.095,7.787,8.242
40891450,-0.277,-0.392,1.057,-34.877,-3.552,4.567
40891460,0.203,-0.132,1.205,-40.862,-16.467,-8.855
40891470,0.009,-0.246,1.285,-62.09,-21.647,2.677
40891480,-0.155,-0.134,1.366,-81.06,-38.622,5.897
40891490,0.058,-0.176,1.241,-108.342,-49.927,-0.35
40891500,0.179,-0.315,1.181,-141.452,-34.387,-7.525
40891510,0.3,-0.384,1.219,-165.882,-7.35,-11.742
40891520,0.079,-0.484,0.163,-139.772,78.382,0.857
40891530,-0.902,-0.43,1.011,-171.01,57.487,-11.917
40891540,-0.075,-0.644,0.868,-191.992,79.887,-62.58
40891550,-0.076,-1.071,0.938,-192.815,88.06,-55.142
40891560,-0.092,-1.31,0.798,-163.17,106.487,-74.007
40891570,-0.939,-1.938,0.69,-117.18,130.095,-77.385
40891580,-1.115,-1.998,-0.419,-66.727,136.92,-92.662
40891590,-1.263,-0.705,-0.155,20.632,74.427,-144.62
40891600,-0.811,-0.13,0.175,-26.267,103.32,-137.917
40891610,-1.314,-0.56,0.249,-77.857,143.727,-24.605
40891620,-0.93,-0.138,0.379,-43.225,109.795,79.397
40891630,0.387,0.774,0.277,3.237,84.052,152.53
40891640,1.15,1.662,0.054,23.695,102.62,182.665
40891650,1.212,1.994,-0.048,21.84,133.91,159.022
40891660,1.026,1.812,-0.033,17.517,137.725,98.84
40891670,1.117,1.52,-0.198,43.977,106.015,39.532
40891680,1.061,1.535,-0.223,82.32,65.66,3.92
40891690,0.549,-0.769,0.871,14.367,13.825,-0.192
40891700,-1.998,-1.998,0.035,32.62,-230.142,42.472
40891710,0.99,-0.172,0.144,347.97,-293.23,-44.607
40891720,0.882,1.997,1.462,522.34,-294.997,-7
40891730,-0.97,-0.623,0.718,121.695,-140.7,-18.427
40891740,-0.467,-0.936,1.621,206.622,-136.465,-28.91
40891750,-0.016,1.738,1.977,283.22,-188.667,-70.595
40891760,1.575,-0.881,1.724,98.175,-143.78,-69.842
40891760,1.027,0.681,1.424,57.33,-81.462,-35.945
40891780,0.314,-0.322,1.006,-16.905,-21.017,-6.317
40891780,-0.058,-0.543,0.795,-25.462,-2.362,-3.675
40891800,-0.025,-0.435,0.918,-11.847,-3.937,-9.275
40891800,0.098,-0.295,1.001,-8.522,-4.882,-11.287
40891820,0.123,-0.321,0.999,-15.26,-0.665,-7.105
40891820,0.019,-0.342,0.967,-21,2.625,-3.552
40891830,0.075,-0.356,1,-24.465,3.22,-1.627
40891840,0.119,-0.223,1.103,-30.8,5.407,1.067
40891850,0.092,-0.207,1.179,-46.252,8.172,7.262
40891860,0.002,-0.196,1.26,-64.89,6.965,11.13
40891870,-0.066,-0.125,1.343,-86.835,-2.45,10.832
40891880,0.009,-0.226,1.256,-111.667,-15.732,11.532
40891890,0.092,-0.337,1.154,-132.16,-13.457,14.525
40891900,-0.021,-0.374,1.071,-146.65,0.577,15.137
40891910,0.71,-0.6,0.564,-152.302,41.527,14.017
40891920,-0.855,-0.46,1.062,-142.047,79.8,24.185
40891930,-0.518,-0.368,1.115,-174.51,59.71,-11.952
40891940,-0.569,-0.802,0.876,-180.04,39.707,-21.822
40891950,-0.357,-1.077,0.86,-177.082,27.912,-27.37
40891960,-0.658,-1.197,0.857,-160.51,31.552,-33.757
40891970,-0.134,-1.801,0.103,-118.527,48.212,-15.61
40891980,-1.962,-1.998,0.079,-109.06,40.845,103.355
40891990,-1.945,-1.661,-0.663,-88.252,-40.582,207.515
40892000,1.092,0.065,0.01,63.21,-126.875,299.705
40892010,1.897,0.014,0.427,30.66,-28.997,347.55
40892020,0.78,0.133,0.419,-53.69,74.952,209.702
40892030,0.365,0.822,0.481,-65.24,86.537,60.672
40892040,0.642,0.945,0.468,-48.16,82.005,2.887
40892050,0.527,1.177,0.234,-6.492,77.297,-14.665
40892060,0.564,1.951,0.152,55.597,57.522,-21.017
40892070,0.608,1.502,0.055,38.71,49.455,-2.362
40892080,0.793,0.352,0.117,19.547,29.137,42.087
40892080,1.107,-0.124,0.21,41.282,-3.99,59.692
40892100,0.137,-1.951,0.024,2.642,-69.79,-0.087
40892100,-1.842,-1.998,1.211,159.687,-204.242,8.68
40892120,1.852,1.282,-0.278,456.785,-305.935,-32.06
40892120,-0.141,1.984,1.746,386.435,-187.705,59.15
40892140,-1.672,-1.56,1.103,109.952,-95.427,-44.24
40892140,-1.154,-0.765,1.399,230.912,-163.852,-84.315
40892160,0.588,1.72,1.786,271.81,-216.79,-136.605
40892160,1.434,-1.087,1.803,133.035,-172.69,-119.122
40892170,1.474,0.787,1.464,94.92,-118.737,-67.287
40892180,0.772,-0.131,1.283,23.012,-45.762,-19.512
40892190,0.319,-0.044,1.154,-19.967,-4.585,-0.35
40892200,0.261,-0.373,1.033,-47.967,15.82,3.482
40892210,0.124,-0.323,1.01,-56.84,27.685,10.167
40892220,0,-0.354,1.022,-62.457,30.87,15.085
40892230,0.004,-0.378,1.049,-66.027,26.635,17.885
40892240,0.084,-0.242,1.107,-71.277,22.015,21.262
40892250,0.136,-0.395,1.121,-82.967,21.262,30.38
40892260,0.161,-0.314,1.123,-88.025,22.785,40.985
40892270,0.404,-0.405,1.207,-93.695,31.412,53.112
40892280,-0.314,-0.348,0.927,-85.697,62.93,65.187
40892290,0.084,-0.165,1.161,-118.09,31.395,60.795
40892300,0.216,-0.297,1.134,-149.03,38.587,64.925
40892310,0.095,-0.353,1.06,-167.895,50.89,66.5
40892320,0.135,-0.302,1.021,-177.73,65.117,65.275
40892330,0.045,-0.458,1.021,-187.425,90.982,63.84
40892340,-0.058,-0.808,1.024,-184.362,112.507,48.947
40892350,-0.126,-0.979,0.838,-154.787,111.527,32.41
40892360,-0.005,-0.954,0.709,-123.322,110.215,26.757
40892370,-0.146,-0.98,0.435,-88.322,116.34,21.665
40892380,-0.361,-1.202,0.86,-49.192,115.272,-2.45
40892390,0.204,-1.62,0.755,22.54,79.345,-57.715
40892400,1.107,-0.174,-0.325,122.027,40.775,-164.22
40892410,0.077,0.631,0.067,93.327,72.345,-254.047
40892420,-0.665,-0.923,-0.058,44.362,133.98,-245.77
40892430,-0.761,-0.91,-0.284,92.627,92.452,-205.87
40892440,0.326,0.109,-0.475,128.397,46.637,-196.35
40892450,0.341,0.096,-0.583,82.477,54.565,-186.322
40892460,0.029,-0.377,-0.708,39.357,55.527,-173.757
40892470,0.169,-0.123,-0.57,21.28,34.317,-146.247
40892480,0.049,-0.261,-0.538,-0.595,18.165,-99.225
40892490,0.617,-1.086,1.075,0.997,14.105,-21.962
40892500,-1.638,-1.998,-0.551,156.712,44.555,153.072
40892510,-0.849,-1.378,1.546,327.32,-150.762,172.637
40892510,-0.16,1.468,0.995,327.915,-180.04,35.472
40892530,-1.893,0.905,1.343,302.785,-135.415,8.19
40892530,-0.946,-1.127,1.575,243.547,-154.035,-86.59
40892550,0.166,0.51,1.994,270.252,-223.632,-144.095
40892550,1.926,0.926,1.852,175.612,-203.315,-97.982
40892570,1.462,0.561,1.375,53.445,-104.79,-39.322
40892570,0.515,-0.185,1.044,-24.99,-23.747,-5.635
40892580,0.242,-0.544,0.842,-43.05,6.825,-3.622
40892590,0.142,-0.457,0.924,-34.335,17.745,-3.57
40892600,0.034,-0.277,0.97,-30.222,21.787,-0.035
40892610,0.039,-0.427,0.934,-33.985,22.015,4.042
40892620,0.053,-0.375,0.946,-31.762,20.527,4.235
40892630,0.113,-0.279,1.025,-31.64,20.002,8.767
40892640,0.116,-0.215,1.124,-41.317,22.015,17.482
40892650,0.067,-0.155,1.182,-58.677,24.01,21.857
40892660,0.092,-0.225,1.18,-78.225,24.202,24.867
40892670,0.107,-0.25,1.226,-93.817,22.662,25.97
40892680,0.67,-0.434,0.882,-100.065,54.075,29.89
40892690,-0.918,-0.223,1.212,-95.707,84.63,40.302
40892700,0.289,-0.468,1.084,-131.88,83.072,18.602
40892710,0.149,-0.391,1.059,-144.655,100.87,29.557
40892720,0.096,-0.253,1.039,-153.16,106.347,18.235
40892730,0.205,-0.304,1.015,-170.502,123.427,16.117
40892740,0.265,-0.535,1.027,-185.867,151.935,18.532
40892750,0.273,-0.707,1.034,-188.002,182.14,22.102
40892760,0.459,-0.96,1.043,-169.225,210.56,25.217
40892770,0.14,-1.517,0.741,-127.767,230.982,43.855
40892780,-0.219,-1.847,0.239,-76.247,206.517,33.075
40892790,-0.466,-1.91,-0.057,-13.195,113.19,13.72
40892800,0.581,-1.663,-0.101,25.025,18.497,-13.492
40892810,0.62,-1.064,-0.2,19.967,-53.812,-58.432
40892820,0.512,-0.779,0.109,13.107,-70.175,-83.212
40892830,-0.304,-0.909,0.148,-2.537,-86.1,-91.175
40892830,-0.181,-0.522,-0.022,1.89,-124.302,-108.797
40892850,0.251,0.148,0.04,4.9,-139.527,-99.907
40892850,0.169,0.125,-0.029,-24.5,-117.582,-85.155
40892870,-0.1,0.312,-0.154,-47.81,-97.737,-81.357
40892870,-0.121,0.926,-0.052,-57.312,-89.53,-81.305
40892890,-0.226,1.53,-0.017,-51.73,-71.61,-52.342
40892890,-0.12,1.752,-0.217,-36.47,-47.565,8.47
40892910,0.137,-0.451,1.824,-1.032,-24.85,54.95
40892910,-1.5,-1.998,-0.626,167.265,101.377,229.845
40892920,-1.776,-1.998,0.721,332.237,-149.275,341.705
40892930,0.903,0.927,0.158,449.96,-231.63,56.017
40892940,-1.821,1.943,1.543,467.022,-167.352,-8.347
40892950,-1.068,-1.674,1.928,263.532,-147.612,-119.437
40892960,0.421,1.119,1.995,344.68,-242.672,-189.49
40892970,1.998,1.43,1.99,210.98,-221.13,-127.33
40892980,1.784,0.719,1.594,32.48,-88.025,-26.985
40892990,0.607,-0.076,1.176,-70.28,9.625,24.167
40893000,0.089,-0.543,0.792,-99.225,41.51,39.882
40893010,-0.359,-0.689,0.727,-80.272,41.79,29.225
40893020,-0.439,-0.489,0.798,-54.67,23.607,6.457
40893030,0.075,-0.53,0.829,-39.725,6.142,-11.042
40893040,0.164,-0.597,0.712,-25.742,2.065,-6.58
40893050,-0.043,-0.474,0.782,-4.637,2.047,3.797
40893060,0.006,-0.419,0.986,7.77,-2.047,6.265
40893070,0.094,-0.209,1.126,4.987,-5.897,1.155
40893080,0.157,-0.25,1.196,-12.827,-5.46,0.122
40893090,0.255,0.018,1.257,-36.435,-2.887,2.66
40893100,0.257,-0.269,1.225,-68.25,1.417,21.997
40893110,0.241,-0.176,1.249,-91.525,5.092,29.19
40893120,0.164,-0.196,1.215,-114.922,12.215,37.8
40893130,0.212,-0.384,1.155,-139.3,28.07,41.72
40893140,-0.301,-0.434,0.893,-126.84,94.36,40.985
40893150,-0.185,-0.198,1.163,-160.282,68.11,14
40893160,0.114,-0.222,1.096,-187.145,69.352,5.512
40893170,-0.002,-0.32,1.052,-210.192,79.17,3.85
40893180,-0.127,-0.39,1.019,-227.045,77.525,-6.107
40893190,-0.219,-0.523,1.013,-238.787,68.827,-13.02
40893200,-0.082,-0.669,1.139,-239.312,62.947,-18.917
40893210,-0.091,-0.985,1.167,-220.815,72.327,-19.775
40893220,-0.348,-1.2,0.928,-175.437,83.667,-21.017
40893230,-0.515,-1.05,0.822,-128.782,77.875,-27.895
40893230,-0.07,-0.695,0.737,-79.415,65.1,-47.827
40893250,-0.187,-0.222,0.839,-12.617,61.6,-53.077
40893250,0.179,0.174,1.271,68.407,42.262,-95.83
40893260,-0.512,0.874,0.461,142.31,37.065,-117.67
40893270,-0.299,1.234,0.074,158.2,18.725,-116.55
40893280,0.171,1.21,-0.213,156.275,30.415,-61.67
40893290,0.063,1.013,-0.193,123.69,56.927,0.56
40893300,0.126,0.291,-0.147,84.332,72.52,31.815
40893310,0.13,-0.125,-0.391,79.835,60.795,54.967
40893320,0.591,-0.022,-0.762,88.445,45.22,69.667
40893330,0.704,-0.094,-0.833,61.775,44.852,86.205
40893340,1.584,-1.962,-0.354,-6.737,85.925,103.635
40893350,-1.266,-1.998,0.63,52.255,116.882,177.24
40893360,-0.627,0.661,-0.478,427.21,-206.955,31.185
40893370,1.079,1.997,1.793,508.847,-230.58,-13.09
40893380,-1.699,-0.928,0.297,67.357,-98.455,14.245
40893390,-0.754,-0.966,1.23,206.78,-140.087,-49.962
40893400,-0.24,1.611,1.978,314.895,-221.602,-189.98
40893410,1.998,-0.759,1.866,145.232,-188.072,-146.142
40893420,1.554,1.101,1.452,91.805,-105.84,-67.007
40893430,0.368,-0.17,1.24,-4.777,-19.635,1.557
40893440,0.346,-0.123,1,-39.97,10.377,-1.802
40893450,0.159,-0.518,0.938,-52.902,26.652,-0.035
40893460,-0.087,-0.276,0.986,-50.557,30.957,6.142
40893470,-0.267,-0.429,0.963,-56.787,26.057,5.705
40893480,-0.076,-0.426,0.922,-55.212,13.405,0.577
40893490,0.172,-0.438,0.971,-49.892,6.072,4.532
40893500,0.33,-0.377,1.031,-48.597,9.66,14
40893510,-0.473,-0.069,1.08,-44.695,59.255,20.387
40893520,0.284,-0.073,1.385,-75.25,42.997,5.232
40893530,0.255,-0.353,1.364,-118.37,53.462,14.052
40893540,0.284,-0.34,1.292,-143.377,69.685,19.95
40893550,0.342,-0.331,1.186,-165.13,91.437,32.27
40893560,0.262,-0.315,1.133,-184.73,109.322,40.057
40893570,0.259,-0.226,1.076,-204.032,119.857,42.787
40893580,0.14,-0.243,1.026,-224,130.252,45.867
40893580,-0.011,-0.491,0.965,-240.432,137.48,45.587
40893600,-0.039,-0.771,1.005,-243.425,133.35,45.027
40893600,-0.15,-1.132,1.109,-229.547,122.097,40.705
40893620,-0.273,-1.34,0.789,-186.27,105.997,40.477
40893620,-0.454,-1.324,0.243,-115.657,77.997,51.45
40893640,0.066,-0.936,0.044,-75.565,28.122,18.392
40893640,0.371,-1.175,0.267,-65.345,-1.067,-11.077
40893660,0.212,-1.906,-0.253,-36.942,-16.485,-39.357
40893660,1.217,-1.486,0.557,22.207,-32.375,-102.952
40893670,-0.591,-0.772,0.318,57.207,-39.34,-187.81
40893680,-0.678,-0.057,0.226,82.67,-54.477,-208.092
40893690,-0.254,0.461,0.022,96.372,-64.295,-169.277
40893700,-0.23,1.068,-0.173,90.737,-63.035,-113.102
40893710,-0.156,1.661,-0.311,61.425,-63.35,-68.617
40893720,0.107,1.713,-0.183,20.79,-50.4,-33.215
40893730,0.245,0.869,-0.025,-3.745,-23.292,6.37
40893740,0.616,0.792,-0.222,36.907,-21.822,2.73
40893750,0.426,1.25,-0.842,97.265,-39.637,28.595
40893760,-0.839,-1.252,0.972,45.762,-109.2,107.17
40893770,-0.37,-1.998,-0.475,67.97,168.175,385.227
40893780,-0.703,-0.625,0.301,417.952,-292.915,326.322
40893790,-0.168,1.997,0.425,568.365,-303.135,21.98
40893800,-1.942,0.665,1.33,297.325,-170.327,11.865
40893810,-1.369,-1.858,1.297,118.545,-147.927,-89.442
40893820,0.357,1.857,1.998,347.182,-283.36,-217.315
40893830,1.989,0.299,1.741,133.525,-212.642,-144.182
40893840,1.553,0.831,1.418,17.115,-67.252,-28.385
40893850,0.24,-0.405,1.061,-71.592,19.6,23.485
40893860,0.126,-0.308,0.902,-79.31,35,22.067
40893870,-0.401,-0.648,0.854,-76.02,33.302,25.025
40893880,-0.274,-0.514,0.824,-56.945,13.685,4.9
40893890,0.055,-0.534,0.837,-42.315,-2.66,-0.122
40893900,0.054,-0.542,0.801,-28.49,-9.292,2.922
40893910,0.004,-0.411,0.903,-15.172,-12.722,6.93
40893920,0.105,-0.288,1.044,-13.23,-15.61,8.715
40893920,0.106,-0.213,1.135,-23.38,-17.027,11.952
40893940,0.227,-0.223,1.186,-41.65,-16.52,14.612
40893940,0.251,-0.175,1.198,-62.895,-12.425,19.512
40893960,0.284,-0.304,1.194,-84.577,-4.34,29.505
40893960,0.311,-0.648,0.831,-84.42,31.552,39.882
40893980,-0.291,-0.117,1.302,-87.01,38.08,33.092
40893980,0.356,-0.184,1.213,-136.307,37.012,20.772
40894000,0.216,-0.235,1.159,-170.45,54.46,40.197
40894000,0.129,-0.224,1.163,-197.207,64.68,38.08
40894010,-0.005,-0.231,1.125,-220.29,68.477,38.062
40894020,-0.107,-0.381,1.08,-239.575,59.92,32.655
40894030,-0.156,-0.559,0.971,-250.022,41.772,36.417
40894040,-0.226,-0.816,0.895,-243.057,18.637,43.172
40894050,-0.144,-1.208,0.658,-213.605,-0.735,45.692
40894060,-0.718,-1.455,0.667,-165.742,-18.9,37.852
40894070,-0.569,-1.324,0.811,-124.145,-70.84,-6.125
40894080,-0.644,-1.351,0.766,-65.572,-118.615,-13.335
40894090,-1.419,-0.889,0.929,2.502,-145.39,-8.505
40894100,-1.564,0.42,0.598,72.695,-166.337,20.177
40894110,-1.125,0.903,0.659,95.865,-156.8,88.707
40894120,-0.49,0.848,0.282,127.872,-112.21,161.682
40894130,-0.044,1.104,-0.039,163.712,-47.512,190.102
40894140,0.099,1.014,-0.178,160.352,23.432,174.685
40894150,-0.024,0.644,-0.354,127.89,63.507,130.69
40894160,0.368,0.353,-0.485,100.327,68.075,73.325
40894170,0.593,-0.302,-0.719,88.27,71.505,55.527
40894180,0.627,-0.451,-1.107,83.072,67.585,51.222
40894190,0.21,-0.112,-1.044,93.432,37.45,55.79
40894200,1.558,-1.829,0.688,-2.205,74.655,38.902
40894210,-1.544,-1.998,-0.48,279.457,-123.182,-4.41
40894220,1.2,0.933,-0.525,555.922,-259.21,-53.9
40894230,0.936,1.997,1.852,528.797,-152.862,117.897
40894240,-1.998,-0.871,1.641,170.73,-69.387,136.412
40894250,-1.216,0.131,1.998,282.257,-246.995,21.14
40894260,1.984,1.126,1.539,156.415,-261.047,-99.085
40894270,1.686,-0.796,0.934,-82.722,-71.155,-33.285
40894280,0.295,-0.793,0.768,-63.315,21.595,8.172
40894290,-0.179,-0.675,0.794,-49.752,41.632,24.535
40894300,-0.176,-0.298,0.958,-18.672,27.3,7.63
40894310,-0.389,-0.378,0.939,-20.142,13.405,-0.297
40894320,0.113,-0.383,0.89,-13.58,-4.427,-14.77
40894330,0.248,-0.422,0.891,-6.492,-4.567,-10.797
40894330,-0.041,-0.338,0.934,-0.98,0.49,0.735
40894350,0.055,-0.256,1.008,-0.122,-1.907,1.645
40894350,0.118,-0.253,0.997,-6.317,-1.68,1.032
40894370,0.182,-0.235,0.995,-12.687,2.31,2.467
40894370,0.185,-0.308,0.974,-21.77,9.695,8.05
40894390,0.113,-0.28,0.988,-25.025,15.872,13.457
40894390,0.047,-0.275,1.024,-30.572,19.197,17.272
40894410,0.099,-0.236,1.095,-37.345,19.932,17.92
40894410,0.15,-0.181,1.151,-46.707,21.21,21.717
40894420,0.216,-0.282,1.183,-56.07,23.17,27.982
40894430,0.142,-0.294,1.25,-69.09,26.617,35.455
40894440,0.332,-0.157,1.31,-85.75,27.58,42.35
40894450,0.145,-0.365,1.186,-112.577,42.927,54.547
40894460,0.007,-0.408,1.155,-137.147,62.142,55.615
40894470,0.025,-0.401,0.7,-146.335,84.49,42.175
40894480,0.243,-0.317,1.031,-141.172,98.017,19.897
40894490,0.022,-0.649,0.983,-155.645,127.925,17.255
40894500,-0.004,-0.984,0.694,-152.39,128.835,20.072
40894510,0.18,-1.377,0.733,-126.332,114.31,27.457
40894520,-0.299,-1.907,0.643,-94.797,97.44,25.655
40894530,0.014,-1.998,0.085,-27.002,13.177,-20.177
40894540,1.825,-1.25,-0.213,49.7,-60.742,-110.46
40894550,0.803,-0.071,-0.217,52.745,-8.977,-146.125
40894560,-0.827,-0.322,-0.088,-20.615,44.24,-149.73
40894570,-1.129,-0.86,0.134,-67.76,26.442,-124.215
40894580,-0.744,-0.861,0.176,-46.9,-19.425,-72.45
40894590,-0.27,-0.264,0.007,-11.217,-40.81,-18.077
40894600,-0.108,0.134,-0.083,-16.327,-26.967,25.27
40894610,-0.258,0.022,-0.186,-60.445,-3.167,41.615
40894620,-0.343,-0.029,-0.403,-74.532,0.997,56.927
40894630,0.237,0.41,-0.599,-64.26,3.08,73.657
40894640,1.261,0.326,1.285,-35.77,29.295,89.145
40894650,-0.461,-1.097,0.648,171.185,97.44,147.945
40894660,-1.998,-0.305,0.125,328.895,-98.542,133.98
40894670,-1.224,-1.982,0.456,287.245,-225.627,41.877
40894670,0.221,0.545,1.135,389.655,-203.28,-36.33
40894690,-1.15,1.028,1.914,405.632,-262.535,-161.595
40894690,1.74,-0.377,1.998,257.25,-298.34,-154.98
40894710,1.96,1.766,1.649,126.245,-182.542,-90.562
40894710,1.291,-0.019,1.365,-54.617,-13.755,-15.26
40894730,0.325,-0.264,0.902,-110.215,56.14,9.257
40894730,-0.469,-0.814,0.788,-105.507,62.055,13.125
40894750,-0.719,-0.649,0.701,-73.745,35.805,-1.05
40894750,-0.172,-0.549,0.819,-45.045,3.587,-24.115
40894760,0.326,-0.53,0.805,-29.96,-6.93,-30.467
40894770,0.294,-0.542,0.771,-12.775,-2.362,-8.907
40894780,0.01,-0.393,0.937,2.695,2.975,10.29
40894790,-0.007,-0.257,1.108,3.01,0.927,10.29
40894800,0.259,-0.248,1.097,-11.795,-0.42,2.485
40894810,0.357,-0.108,1.047,-29.225,9.8,10.062
40894820,0.185,-0.388,1.023,-43.12,23.065,27.457
40894830,-0.131,-0.226,1.051,-46.182,24.132,34.16
40894840,-0.042,-0.381,1.076,-53.007,16.047,34.09
40894850,0.042,-0.399,1.119,-58.642,12.967,29.015
40894860,-0.002,-0.448,0.703,-48.317,41.265,27.02
40894870,-0.263,-0.237,1.17,-51.222,38.885,18.13
40894880,0.379,-0.541,1.149,-71.995,75.95,9.047
40894890,0.155,-0.659,1.075,-78.12,108.99,17.342
40894900,-0.042,-0.592,0.947,-76.072,125.3,15.085
40894910,0.117,-1.072,0.848,-77.98,123.497,20.947
40894920,0.214,-1.851,1.016,-84.892,135.082,30.205
40894930,-0.755,-1.998,0.93,-34.335,128.695,46.042
40894940,-1.98,-1.998,-0.948,68.04,19.705,51.047
40894950,-0.759,-1.998,-1.18,43.767,-71.557,10.745
40894960,0.769,-1.998,-0.238,-20.212,-33.267,33.775
40894970,-1.401,-1.998,-0.397,-93.152,-12.407,91.332
40894980,-0.269,-1.535,0.049,-88.462,-50.645,91.035
40894990,0.522,-0.768,0.322,-109.637,-65.415,135.835
40895000,0.662,-0.145,0.23,-132.65,-57.33,160.545
40895010,0.924,0.943,0.144,-131.407,-55.877,149.607
40895020,1.095,1.956,0.009,-124.145,-54.862,132.965
40895030,0.923,1.997,-0.311,-118.405,-51.502,117.407
40895040,1.18,1.997,0.102,-122.622,-44.782,105.56
40895050,0.203,0.413,1.256,-91.91,-49.805,126.997
40895060,1.012,-1.28,1.819,139.072,-159.985,103.74
40895070,-1.699,-1.998,0.37,392.122,-215.477,140.857
40895080,-0.48,-1.283,1,300.807,-231.752,196.35
40895080,0.562,1.911,1.781,422.397,-205.065,27.737
40895100,-1.315,-0.153,1.864,292.25,-218.522,-73.692
40895100,1.815,0.722,1.976,189.857,-268.835,-128.117
40895120,1.992,0.828,1.395,67.375,-166.11,-88.987
40895120,1.215,-0.276,1,-25.042,-31.902,-14.945
40895140,0.048,-0.538,0.833,-38.377,27.597,11.987
40895140,-0.07,-0.422,0.89,-25.182,33.827,11.392
40895160,-0.428,-0.42,0.934,-15.837,24.097,5.53
40895160,0.023,-0.379,0.915,-10.64,5.67,-8.645
40895170,0.171,-0.422,0.893,-6.807,2.695,-4.602
40895180,0.014,-0.372,0.948,-1.977,6.247,8.26
40895190,0.201,-0.229,1.072,-2.642,7.63,12.057
40895200,0.456,-0.129,1.141,-17.01,17.517,17.465
40895210,0.332,-0.155,1.168,-40.74,39.462,34.247
40895220,0.121,-0.209,1.191,-60.655,54.985,44.467
40895230,0.167,-0.297,1.163,-75.862,63.945,47.355
40895240,0.086,-0.422,1.213,-88.392,71.452,54.985
40895250,0.08,-0.211,1.169,-98.787,76.422,61.932
40895260,0.084,-0.475,1.072,-121.152,89.932,59.377
40895270,0.192,-0.465,0.944,-122.045,98.297,55.142
40895280,0.192,-0.674,1.05,-115.325,118.177,57.4
40895290,0.244,-0.955,1.177,-81.952,142.012,57.872
40895300,-0.612,-1.407,-0.624,-40.687,160.317,73.657
40895310,-0.358,-1.881,0.537,-38.78,52.745,103.6
40895320,-0.384,-1.992,-0.162,-12.67,-14.892,82.705
40895330,0.735,-1.439,-0.014,-9.275,-118.597,-22.715
40895340,1.901,-1.44,0.186,-28.175,-93.467,-165.585
40895350,-0.8,-1.046,-0.069,-48.282,-16.047,-206.692
40895360,-1.998,-0.572,0.175,-86.082,-8.12,-226.887
40895370,-1.691,-0.346,0.126,-71.452,-50.68,-165.97
40895380,-0.712,0.325,-0.31,-26.057,-78.96,-25.935
40895390,0.109,1.322,-0.281,-59.972,-47.915,41.842
40895400,0.432,1.497,1.578,-64.05,4.602,64.732
40895410,-0.387,1.578,0.973,121.432,6.09,65.765
40895420,-0.685,1.178,0.955,230.912,-59.36,49.21
40895420,-1.998,-1.963,0.538,140.805,-88.76,36.82
40895440,0.373,-0.981,0.547,229.897,-120.697,2.275
40895440,-1.121,1.974,1.701,386.33,-147.91,-65.782
40895460,-0.505,-1.606,1.98,195.807,-166.652,-51.1
40895460,1.322,1.583,1.946,203.402,-200.462,-57.907
40895480,1.587,-0.111,1.293,38.937,-120.89,-30.852
40895480,1.097,0.251,1.039,-19.25,-38.955,-6.947
40895500,0.458,-0.614,0.859,-49.192,15.295,14.56
40895500,0.053,-0.368,0.895,-39.182,34.37,14.087
40895510,-0.412,-0.479,0.892,-34.09,32.585,6.807
40895520,-0.168,-0.463,0.864,-23.94,12.88,-10.412
40895530,0.184,-0.482,0.858,-12.775,1.96,-17.237
40895540,0.214,-0.247,1.018,-4.427,4.83,-6.982
40895550,-0.04,-0.279,0.988,-14.175,10.5,5.145
40895560,-0.036,-0.253,1.056,-21.262,5.88,1.715
40895570,0.221,-0.17,1.14,-32.83,2.1,-2.327
40895580,0.135,-0.154,1.189,-54.302,5.495,5.547
40895590,0.069,-0.181,1.236,-76.44,5.057,12.775
40895600,-0.097,-0.257,1.278,-94.762,-2.222,15.26
40895610,-0.112,-0.276,1.244,-109.007,-19.635,12.67
40895620,0.238,-0.136,1.241,-132.265,-19.302,10.71
40895630,-0.012,-0.309,1.059,-168.315,1.662,14.402
40895640,0.328,-0.396,1.005,-185.657,17.325,8.767
40895650,-0.068,-0.558,0.084,-144.917,106.4,17.902
40895660,-0.577,0.11,1.136,-174.912,73.71,-19.215
40895670,0.195,-0.362,0.927,-207.812,112.682,-54.425
40895680,0.231,-0.943,0.939,-213.115,115.342,-50.137
40895690,0.155,-0.8,0.877,-171.692,117.425,-63.28
40895700,-0.252,-0.911,0.563,-128.397,143.535,-65.625
40895710,-0.03,-1.181,0.408,-91.542,161.157,-75.337
40895720,1.04,-0.988,0.627,-13.16,170.187,-83.93
40895730,1.366,-0.317,0.528,97.212,192.447,-140.07
40895740,-0.548,-0.032,0.067,120.067,144.375,-253.995
40895750,-0.16,-0.104,-0.485,127.382,116.602,-211.697
40895760,-0.215,0.048,-0.464,123.41,77.525,-66.78
40895770,0.158,-0.5,-0.64,77.35,45.08,26.792
40895780,0.343,-1.005,-0.73,38.815,11.2,79.187
40895790,0.396,-0.973,-0.897,17.325,-28.402,93.222
40895800,0.339,-0.548,-0.798,3.237,-74.55,100.222
40895810,0.117,-1.068,1.322,-5.705,-87.692,130.515
40895820,-1.966,-1.998,-0.261,126.962,-119.7,215.302
40895830,-1.295,-0.83,0.872,306.285,-267.277,199.587
40895830,-0.316,0.456,1.04,312.777,-257.215,90.755
40895850,-1.451,1.079,1.347,337.487,-189.507,4.13
40895850,-0.453,-0.546,1.915,302.89,-238.717,-109.69
40895870,1.419,1.186,1.989,243.67,-272.195,-110.792
40895870,1.741,1.047,1.349,72.24,-158.69,-44.765
40895880,0.935,-0.112,1.112,-39.2,-32.497,5.127
40895890,0.092,-0.402,0.915,-67.742,12.092,8.155
40895900,0.176,-0.559,0.796,-64.575,20.002,-3.43
40895910,-0.138,-0.599,0.844,-47.232,21.525,-6.335
40895920,0.053,-0.404,0.885,-32.375,13.79,-11.637
40895930,0.426,-0.354,0.942,-27.685,15.47,-9.362
40895940,0.067,-0.411,0.912,-27.597,26.057,8.435
40895950,-0.179,-0.364,0.989,-24.342,23.66,13.72
40895960,0.113,-0.135,1.158,-28.822,13.772,8.75
40895970,0.099,-0.219,1.112,-49.752,11.13,12.197
40895980,0.113,-0.296,1.11,-65.03,8.61,15.802
40895990,0.092,-0.25,1.123,-73.937,5.267,17.64
40896000,0.062,-0.214,1.177,-81.077,-3.71,21.612
40896010,0.16,-0.274,1.082,-95.322,-9.94,27.317
40896020,0.103,-0.417,1.06,-114.625,0.735,32.182
40896030,0.04,-0.401,1.018,-128.485,10.22,31.395
40896040,0.343,-0.532,1.14,-129.57,25.235,29.977
40896050,-0.299,-0.619,0.34,-91.77,78.662,34.877
40896060,-0.113,-0.254,1.041,-111.387,42.735,10.937
40896070,0.116,-0.627,0.868,-121.957,62.317,7.91
40896080,0.125,-0.865,0.792,-115.78,63.35,10.045
40896090,-0.028,-0.84,0.624,-89.967,53.725,8.907
40896100,-0.086,-0.849,0.58,-71.33,46.375,13.51
40896110,-0.378,-1.157,0.713,-42.682,31.167,14.122
40896120,-0.207,-1.15,0.509,-20.79,2.712,0.717
40896130,-0.165,-1.447,0.102,19.67,-17.64,7.087
40896140,-0.472,-1.229,-0.378,48.44,-47.127,12.985
40896150,0.096,-0.385,-0.243,52.202,-54.845,4.812
40896160,0.052,-0.494,0.019,13.09,-14.315,25.777
40896170,-0.395,-0.956,0.009,-20.72,17.885,37.992
40896170,-0.483,-0.629,-0.078,-11.375,3.045,37.415
40896190,-0.227,-0.059,-0.281,-8.802,-12.442,43.312
40896190,-0.236,0.553,-0.544,-36.697,-16.66,44.957
40896210,0.521,0.792,1.279,-47.88,-25.445,29.942
40896210,1.565,0.068,1.208,105.367,29.732,5.792
40896230,-0.578,0.3,0.367,228.375,-28.875,-42.087
40896230,-1.208,-1.882,0.411,206.185,-50.435,8.767
40896250,0.197,-1.589,0.67,257.197,-101.185,33.74
40896250,0.096,1.916,1.374,384.142,-76.142,-28.192
40896260,-1.732,-0.671,1.998,267.995,-82.267,-35.087
40896270,0.464,1.2,1.998,226.8,-160.23,-70.752
40896280,1.697,0.847,1.542,65.537,-135.24,-76.44
40896290,1.394,-0.017,1.069,-48.755,-48.195,-41.422
40896300,0.512,-0.744,0.671,-77.892,16.712,-8.347
40896310,-0.134,-0.639,0.773,-50.82,38.29,7.577
40896320,-0.363,-0.363,0.926,-27.107,28.665,1.977
40896330,-0.149,-0.419,0.892,-22.137,10.167,-11.27
40896340,0.203,-0.467,0.894,-15.435,0.682,-14.63
40896350,0.062,-0.394,0.908,-7.735,1.19,-5.967
40896360,0.059,-0.338,0.98,-4.165,-0.122,0.192
40896370,0.041,-0.251,1.082,-8.942,-2.1,2.17
40896380,0.118,-0.118,1.124,-24.71,-3.675,2.38
40896390,0.149,-0.239,1.181,-46.392,-1.785,5.74
40896400,0.134,-0.177,1.201,-64.575,-2.45,8.032
40896410,0.032,-0.277,1.173,-81.952,-6.58,11.602
40896420,0.035,-0.177,1.186,-95.55,-14.017,7.367
40896430,0.126,-0.417,1.076,-114.31,-11.077,5.687
40896440,0.158,-0.435,1.038,-128.205,2.03,5.302
40896450,0.182,-0.446,1.08,-138.075,20.282,3.202
40896460,0.861,-0.616,0.413,-131.39,86.887,6.16
40896470,-1.217,-0.426,0.823,-114.222,106.995,19.145
40896480,-0.074,-0.414,0.943,-136.727,83.282,-44.135
40896490,-0.022,-0.686,0.784,-133.892,79.24,-38.465
40896500,-0.063,-0.746,0.736,-129.71,80.29,-55.615
40896510,0.178,-0.986,0.422,-121.695,86.677,-70.647
40896520,0.148,-1.855,0.527,-120.697,114.275,-85.89
40896530,-0.567,-1.998,0.185,-85.452,117.442,-106.417
40896530,-0.452,-1.72,-0.26,-10.307,42.402,-129.22
40896550,-0.11,-0.556,-0.153,2.677,-11.655,-146.842
40896550,-0.513,-0.451,-0.006,-47.547,9.082,-78.172
40896570,-0.832,-0.543,0.062,-72.555,13.562,12.88
40896570,-0.109,-0.032,0.106,-43.995,-16.187,77.875
40896580,0.268,0.706,0.125,-34.86,-25.217,124.18
40896590,0.518,1.259,0.075,-49.647,-18.515,126.525
40896600,0.61,1.572,0.039,-44.257,-15.19,120.575
40896610,0.515,1.752,0.611,-18.322,-38.85,100.432
40896620,1.981,-1.167,1.832,72.975,1.347,70.927
40896630,-0.748,-1.998,-1.139,172.532,3.29,89.302
40896640,-1.794,-1.92,1.042,226.73,-73.29,114.135
40896650,0.801,1.585,0.38,396.392,-117.6,48.51
40896660,-1.257,1.303,1.385,343.665,-90.93,26.18
40896670,-1.228,-1.944,1.476,206.815,-79.87,-20.597
40896680,-0.378,1.13,1.846,301.7,-134.505,-117.075
40896690,1.181,0.175,1.961,230.615,-157.64,-119.542
40896700,1.356,0.867,1.773,137.847,-114.94,-67.567
40896710,0.974,0.306,1.496,32.742,-47.057,-22.89
40896720,0.383,0.158,1.254,-43.75,2.52,1.347
40896730,0.002,-0.43,0.993,-84.367,21.665,7.682
40896740,-0.135,-0.583,0.815,-85.837,21.455,1.05
40896750,0.174,-0.534,0.874,-70.07,14.595,-1.575
40896760,0.117,-0.508,0.884,-57.592,12.757,10.377
40896770,-0.138,-0.455,0.909,-47.967,9.187,21.385
40896780,-0.112,-0.381,0.991,-42.542,-1.662,20.072
40896790,0.032,-0.33,1.108,-45.447,-12.127,19.11
40896800,0.081,-0.276,1.205,-58.24,-17.307,21.227
40896810,0.102,-0.225,1.196,-79.135,-19.092,22.925
40896820,0.16,-0.283,1.179,-103.39,-13.58,22.732
40896830,0.123,-0.325,1.139,-125.825,-2.222,22.225
40896840,0.305,-0.347,1.311,-146.475,15.19,17.272
40896850,-0.203,-0.574,0.382,-140.595,119.332,15.627
40896860,-0.197,-0.219,1.135,-158.882,83.825,-17.36
40896870,-0.348,-0.399,1.039,-180.232,85.82,-35.857
40896880,-0.6,-0.842,0.872,-190.277,72.415,-59.71
40896890,-0.497,-1.01,0.65,-169.907,49.612,-86.765
40896900,-0.28,-1.054,0.5,-151.322,53.497,-94.36
40896910,-0.33,-1.12,-0.018,-128.1,72.94,-109.917
40896920,-0.501,-1.737,0.33,-94.64,91.14,-122.675
40896920,-0.874,-1.998,-0.12,-62.86,114.205,-138.792
40896940,-1.954,-1.142,-0.472,-15.207,78.155,-120.732
40896940,-1.336,-0.389,-0.08,-10.132,41.72,-86.537
40896960,-0.795,-0.146,0.094,-5.495,31.447,17.622
40896960,-0.012,0.261,0.12,9.205,28.892,82.617
40896980,0.603,0.673,0.239,11.252,43.452,99.89
40896980,0.739,0.877,0.194,4.305,53.55,81.672
40897000,1.029,1.02,0.14,15.365,45.027,44.572
40897000,1.344,0.786,0.904,40.005,25.305,11.69
40897010,1.998,-1.688,0.8,73.377,17.692,-48.737
40897020,0.855,-1.998,-0.191,101.15,36.347,-109.532
40897030,-0.574,-1.557,0.883,235.147,-11.217,-7.157
40897040,1.033,1.788,0.811,361.182,-99.61,44.607
40897050,0.194,1.33,1.207,283.15,-87.377,79.66
40897060,-1.632,-1.945,1.121,203.647,-65.345,105.945
40897070,-1.32,0.32,1.451,280.787,-77.91,24.937
40897080,-1.178,0.977,1.839,228.077,-99.802,-73.762
40897090,-0.034,-0.576,1.682,148.26,-152.11,-113.662
40897100,1.351,0.555,1.706,125.93,-159.635,-119.717
40897110,1.207,0.017,1.336,45.937,-101.115,-67.357
40897120,0.758,-0.129,1.113,2.397,-45.115,-25.322
40897130,0.315,-0.265,1.053,-22.452,-9.59,-3.027
40897140,0.097,-0.286,1.036,-37.765,5.652,4.025
40897150,0.066,-0.354,0.989,-48.825,8.995,3.045
40897160,0.202,-0.401,0.992,-53.287,8.837,3.797
40897170,0.227,-0.322,1.024,-55.597,11.165,11.48
40897180,0.099,-0.344,1.071,-62.16,13.93,24.517
40897190,0.224,-0.32,1.164,-69.982,15.802,31.99
40897200,0.35,-0.282,1.122,-75.95,26.092,41.195
40897210,-0.222,-0.297,1.007,-74.847,62.177,57.102
40897220,0.34,-0.077,1.256,-116.042,37.24,52.377
40897230,0.327,-0.169,1.25,-155.382,40.005,63.682
40897240,0.198,-0.14,1.179,-185.99,42.472,70.262
40897250,0.111,-0.198,1.106,-212.887,42.612,77.822
40897260,-0.071,-0.283,1.056,-233.572,38.395,78.662
40897260,-0.203,-0.455,0.965,-246.942,24.605,74.06
40897280,-0.014,-0.551,0.945,-248.955,13.37,69.807
40897280,-0.003,-0.81,0.869,-236.67,18.707,69.352
40897300,0.062,-1.05,0.872,-202.597,29.085,67.672
40897300,-0.194,-0.947,0.715,-149.747,41.265,68.512
40897320,-0.197,-0.743,0.48,-105.892,51.642,62.405
40897320,-0.334,-0.889,0.757,-76.492,65.222,48.055
40897330,-0.299,-0.526,0.593,-22.995,47.355,13.317
40897340,-0.44,-0.447,0.703,14.332,28.682,-7.647
40897350,1.014,-0.092,1.252,98.367,46.287,-19.67
40897360,-0.48,0.512,0.325,163.782,48.282,-102.2
40897370,-0.078,0.596,0.016,167.405,66.482,-146.177
40897380,-0.419,0.463,0.038,147.805,85.085,-115.29
40897390,-0.285,0.024,-0.207,137.865,86.59,-110.302
40897400,-0.272,0.108,-0.473,136.5,75.757,-87.99
40897410,-0.068,-0.108,-0.568,104.842,69.807,-60.987
40897420,0.119,-0.682,-0.689,72.887,69.09,-15.102
40897430,0.272,-0.929,-0.776,60.76,55.772,22.662
40897440,0.302,-1.896,0.58,8.382,-15.645,12.775
40897450,-1.051,-1.998,-1.322,67.83,-86.765,5.337
40897460,0.256,-1.221,1.08,300.79,-180.407,64.715
40897470,0.148,1.99,0.325,465.307,-211.102,45.027
40897480,-1.208,1.32,1.496,325.675,-129.045,51.677
40897490,-1.948,-1.998,1.334,146.44,-84.157,21.262
40897500,-1.305,1.181,1.794,348.145,-198.345,-88.06
40897510,1.497,0.336,1.976,237.002,-244.632,-131.53
40897520,1.967,1.355,1.552,89.67,-164.517,-74.777
40897530,1.392,-0.014,1.213,-29.172,-41.212,-13.685
40897540,0.458,-0.046,1.041,-78.785,31.377,13.807
40897550,-0.113,-0.618,0.911,-95.042,52.885,15.837
40897560,-0.265,-0.423,0.837,-81.777,43.907,1.977
40897570,-0.244,-0.675,0.817,-68.915,27.825,-3.517
40897580,-0.007,-0.562,0.761,-49.735,11.847,-4.725
40897590,0.167,-0.57,0.816,-29.155,4.007,4.287
40897600,-0.065,-0.369,1.009,-15.82,2.03,17.815
40897610,-0.051,-0.149,1.198,-20.23,-5.6,19.197
40897620,0.019,-0.17,1.222,-42.21,-13.79,20.457
40897630,0.116,-0.244,1.283,-64.505,-19.6,24.36
40897640,0.255,-0.171,1.276,-85.82,-19.932,33.022
40897650,0.657,-0.525,0.991,-102.742,6.947,47.932
40897660,-0.466,-0.112,1.227,-96.39,38.605,57.785
40897670,0.37,-0.05,1.178,-145.53,19.512,46.392
40897670,0.392,-0.28,1.151,-182.472,34.072,58.765
40897690,0.24,-0.246,1.114,-204.347,48.72,59.517
40897690,0.196,-0.286,1.054,-225.242,60.112,59.342
40897710,0.159,-0.331,1.011,-244.86,71.085,60.707
40897710,0.301,-0.793,0.967,-249.69,80.675,64.785
40897730,0.517,-0.976,0.87,-225.557,83.597,74.672
40897730,0.354,-1.099,0.803,-164.517,73.552,92.365
40897750,0.06,-1.296,0.749,-126.98,52.99,91.857
40897750,0.25,-1.143,0.774,-80.29,-4.725,76.737
40897760,0.895,-1.103,0.56,-10.832,-65.607,46.165
40897770,0.922,-0.409,0.84,46.252,-115.395,-44.222
40897780,0.571,0.64,0.379,106.505,-71.557,-108.132
40897790,-0.92,0.846,0.643,73.657,-38.517,-172.252
40897800,-1.121,0.419,0.252,73.395,-9.152,-145.46
40897810,-1.237,1.072,0.077,111.58,-36.575,-71.277
40897820,-0.469,1.243,-0.05,102.305,-45.272,-5.897
40897830,-0.319,0.605,-0.062,65.502,-22.47,58.135
40897840,-0.38,-0.042,-0.209,53.217,-12.757,84.122
40897850,0.073,0.076,-0.43,59.745,-20.755,67.865
40897860,0.204,0.035,-0.243,45.972,-13.895,50.155
40897870,0.577,-1.959,-0.133,4.48,65.362,83.65
40897880,-1.996,-1.998,0.304,101.5,1.855,270.515
40897890,1.669,0.609,-0.46,429.87,-264.635,-69.825
40897900,-0.808,1.997,1.393,507.465,-148.575,-22.085
40897910,-1.283,-0.365,0.777,200.9,-51.362,3.185
40897920,-1.349,-1.993,1.813,211.872,-48.982,24.675
40897930,-0.843,1.45,1.998,333.83,-190.05,-161.682
40897940,1.969,0.652,1.871,205.607,-220.167,-138.075
40897950,1.693,1.17,1.247,58.677,-118.352,-71.907
40897960,0.934,-0.413,1.066,-32.952,-13.982,-13.737
40897970,0.592,-0.053,0.967,-58.59,37.065,-6.107
40897980,0.037,-0.454,1.034,-70.63,62.055,12.425
40897990,-0.179,-0.334,1.056,-76.545,59.027,15.662
40898000,-0.276,-0.336,1.059,-84.875,44.695,16.695
40898010,-0.11,-0.399,1.072,-89.442,23.887,12.18
40898010,0.009,-0.327,1.1,-89.127,5.39,14.56
40898030,0.071,-0.213,1.274,-102.007,-1.872,20.037
40898030,0.104,-0.149,1.308,-128.082,-3.202,24.185
40898050,0.689,-0.39,1.049,-154.962,17.64,26.057
40898050,-0.617,-0.188,1.094,-140.455,59.482,32.392
40898070,0.266,0.038,1.195,-193.235,48.125,4.147
40898070,0.338,-0.151,1.155,-231.945,65.572,19.582
40898080,0.055,-0.313,1.105,-260.75,64.54,20.965
40898090,-0.086,-0.379,1.223,-277.672,47.495,21.612
40898100,-0.334,-0.381,1.342,-291.585,25.007,20.982
40898110,-0.375,-0.751,1.357,-287.962,-0.84,2.94
40898120,-0.149,-0.986,1.072,-241.64,-12.407,-4.077
40898130,-0.614,-0.888,1.096,-188.037,-5.232,-13.282
40898140,-0.593,-0.413,1.145,-136.377,-3.972,-46.9
40898150,-0.141,0.892,1.591,-41.317,-7.962,-63.63
40898160,0.213,1.887,1.707,91.385,61.477,-56.997
40898170,-1.102,1.763,1.322,153.772,87.377,-112.315
40898180,-1.297,0.75,0.761,166.127,86.712,-80.325
40898190,-0.274,0.685,0.427,224.192,64.172,0.14
40898200,0,0.299,0.184,234.465,82.477,59.255
40898210,0.021,-0.423,-0.05,191.345,105.245,72.625
40898220,0.234,-0.987,-0.191,153.492,110.565,57.942
40898230,0.42,-1.076,-0.455,132.142,106.417,39.007
40898240,0.489,-0.956,-0.717,114.485,93.537,32.305
40898250,0.777,-0.941,-0.93,85.575,74.2,19.862
40898260,1.086,-1.442,-0.489,41.195,61.39,-17.815
40898270,1.243,-1.998,-1.089,-6.86,90.877,-92.785
40898280,-1.998,-1.919,1.394,209.072,-95.445,-68.547
40898290,1.045,1.735,-0.672,497.822,-272.807,-161.49
40898300,1.432,1.673,1.564,403.497,-142.17,-23.712
40898310,-1.95,-1.947,1.532,131.757,-52.797,47.67
40898320,-0.876,0.914,1.998,337.907,-230.212,-40.6
40898330,1.885,1.006,1.628,134.435,-236.687,-104.597
40898340,1.929,0.105,1.004,-26.495,-108.99,-69.807
40898350,1.082,-0.715,0.778,-61.565,4.2,-14.735
40898360,0.133,-0.356,0.965,-56.787,54.477,18.69
40898370,-0.32,-0.278,0.976,-50.977,57.802,18.077
40898380,-0.538,-0.559,0.867,-51.432,38.325,6.247
40898390,0.091,-0.429,0.827,-37.065,14.507,-7.647
40898400,0.066,-0.484,0.842,-24.377,9.817,-1.085
40898410,0.036,-0.381,0.931,-12.687,8.61,7.63
40898420,0.036,-0.26,1.021,-11.042,6.737,13.335
40898420,0.001,-0.257,1.037,-18.655,4.865,18.427
40898440,-0.006,-0.304,1.046,-26.792,0.892,20.545
40898440,0.098,-0.238,1.049,-33.862,-3.045,18.952
40898460,0.157,-0.237,1.118,-38.57,-4.427,25.515
40898460,0.201,-0.231,1.154,-48.23,-3.587,33.932
40898480,0.159,-0.26,1.311,-62.58,-2.31,43.872
40898480,0.259,-0.106,1.248,-83.212,0.017,45.342
40898500,0.269,-0.353,1.157,-114.747,17.272,52.815
40898500,0.276,-0.381,1.072,-137.235,42.332,50.26
40898510,0.154,-0.463,0.72,-148.68,59.552,47.145
40898520,0.108,-0.483,0.934,-138.355,57.697,38.657
40898530,0.376,-0.419,1.043,-134.505,78.89,38.01
40898540,-0.099,-0.851,0.92,-137.13,97.125,49.717
40898550,-0.378,-1.04,0.77,-119.857,80.377,39.83
40898560,-0.706,-1.765,0.825,-93.205,49.682,32.13
40898570,-0.733,-1.998,0.466,-58.467,-21.42,-2.467
40898580,1.327,-1.813,-0.711,57.207,-113.365,-68.88
40898590,0.906,-0.17,-0.515,71.19,-75.792,-127.05
40898600,-1.65,-0.756,-0.439,-40.985,3.045,-118.982
40898610,-1.998,-1.676,-0.509,-86.957,-2.467,-51.87
40898620,-0.878,-0.884,-0.675,-31.43,-75.127,25.55
40898630,0.435,0.262,-0.632,-0.945,-79.275,97.947
40898640,0.308,0.557,-0.738,-53.55,-31.727,123.217
40898650,0.481,0.433,-0.874,-90.895,-6.125,71.155
40898660,0.688,1.037,-0.277,-93.082,2.397,20.142
40898670,1.671,0.276,1.998,37.66,52.972,-23.94
40898680,-1.467,-0.211,0.533,283.045,50.89,-9.695
40898690,-1.15,-0.956,1.033,361.445,-94.57,17.15
40898700,0.311,-1.907,1.136,312.882,-94.08,53.952
40898710,-1.283,1.68,1.569,438.952,-82.232,-46.34
40898720,-1.255,-0.733,1.995,318.045,-150.045,-84.892
40898730,1.708,1.48,1.989,202.492,-201.67,-88.095
40898740,1.557,0.622,1.4,-5.127,-98.192,-57.96
40898750,1.211,-0.494,0.929,-105.367,-2.712,-12.827
40898760,0.4,-0.611,0.682,-108.237,46.462,6.65
40898760,-0.237,-0.846,0.732,-82.18,61.687,28.507
40898780,-0.765,-0.482,0.833,-49.63,40.302,24.535
40898780,-0.184,-0.517,0.765,-32.55,6.09,0.665
40898800,0.256,-0.556,0.781,-15.872,-6.422,-1.767
40898800,-0.119,-0.423,0.875,0.63,-5.88,10.465
40898820,0.044,-0.336,1.057,6.055,-11.235,8.82
40898820,0.089,-0.276,1.14,-1.715,-15.365,5.11
40898830,0.137,-0.135,1.262,-17.465,-17.447,3.832
40898840,0.168,-0.045,1.267,-45.57,-18.112,10.937
40898850,0.128,-0.356,1.216,-71.995,-19.582,20.125
40898860,0.194,-0.099,1.222,-90.212,-20.3,18.917
40898870,0.13,-0.313,1.108,-120.522,-6.685,22.767
40898880,0.099,-0.523,1.058,-135.537,7.822,29.715
40898890,0.211,-0.579,1.06,-131.302,22.33,28.297
40898900,0.358,-0.86,0.09,-102.112,104.02,43.26
40898910,-0.904,-0.455,1.01,-100.87,51.502,42.367
40898920,0.154,-0.586,0.916,-126.087,13.562,9.012
40898930,-0.077,-0.953,1.189,-134.68,12.232,40.74
40898940,-1.275,-1.988,0.613,-152.617,8.382,56.822
40898950,-1.4,-1.998,-0.587,-113.715,-2.992,138.267
40898960,-1.434,-1.932,-0.648,-57.995,-80.097,185.552
40898970,1.624,-1.029,0.01,-27.527,-94.272,132.282
40898980,0.851,-0.379,-0.081,-81.917,-8.225,94.307
40898990,-0.054,0.788,-0.051,-91.822,64.557,-13.44
40899000,-0.405,1.569,0.012,-85.382,85.487,-78.417
40899010,-0.503,1.954,-0.416,-57.365,59.937,-81.97
40899020,0.108,1.997,-0.506,15.47,9.537,-35.122
40899030,0.772,1.601,-0.466,28.385,12.215,26.635
40899040,0.519,0.176,1.098,51.135,18.182,16.852
40899050,1.202,-1.998,-0.406,184.502,28.28,-11.007
40899060,-1.621,-1.777,1.347,397.652,-150.045,-4.707
40899070,1.124,1.873,0.66,474.67,-147.7,17.255
40899080,-0.342,0.51,1.832,343,-55.16,17.657
40899090,-1.757,-1.029,1.927,185.85,-34.65,31.745
40899100,0.211,1.818,1.998,296.94,-168.665,-116.97
40899110,1.84,0.118,1.823,46.077,-128.537,-89.075
40899120,1.306,0.546,1.174,-57.33,-43.505,-64.417
40899130,0.694,-1.019,0.594,-108.517,22.767,-4.97
40899140,0.036,-0.702,0.637,-65.222,45.08,21.21
40899150,-0.487,-0.488,0.897,-32.27,40.915,23.747
40899160,-0.306,-0.422,0.892,-24.587,17.395,6.632
40899160,0.11,-0.501,0.825,-18.392,1.137,-2.52
40899170,0.004,-0.499,0.8,-6.65,-2.677,4.9
40899180,0.005,-0.369,0.983,3.5,-6.335,11.147
40899190,0.068,-0.315,1.102,0.192,-9.677,12.757
40899200,0.175,-0.174,1.148,-11.322,-10.797,15.242
40899210,0.23,-0.162,1.174,-31.045,-7.542,26.652
40899220,0.217,-0.251,1.227,-51.537,-3.377,36.96
40899230,0.217,-0.209,1.237,-71.89,0.262,42.017
40899240,0.282,-0.321,1.155,-95.865,9.59,48.527
40899250,0.341,-0.334,1.104,-115.29,29.12,51.957
40899260,0.256,-0.325,1.116,-135.782,49.822,55.527
40899270,0.224,-0.304,1.051,-152.477,67.795,55.877
40899280,0.227,-0.6,0.177,-151.795,134.68,50.89
40899290,0.252,-0.442,1.045,-152.705,124.512,35.017
40899300,0.109,-0.444,0.964,-164.342,154.665,36.96
40899310,0.065,-0.856,0.877,-157.745,179.532,29.172
40899320,-0.191,-1.101,0.853,-125.195,184.467,22.82
40899330,-0.591,-1.095,0.595,-81.392,165.55,13.877
40899340,-0.651,-1.547,0.474,-33.075,118.562,-12.81
40899350,0.046,-1.094,0.265,22.627,78.68,-69.825
40899360,-0.162,-0.403,0.209,52.395,58.765,-137.147
40899370,-0.374,0.016,-0.221,53.935,60.812,-186.322
40899380,-0.784,0.348,-0.128,50.225,82.967,-158.812
40899390,-0.754,0.286,-0.218,31.745,87.202,-123.655
40899400,-0.381,0.55,-0.242,40.792,73.15,-71.155
40899410,0.381,0.726,-0.267,41.037,59.15,-61.477
40899420,0.402,0.376,-0.409,33.302,56.472,-63.612
40899430,0.54,-0.45,0.744,14.997,26.775,-86.905
40899440,-1.116,-1.998,-0.221,41.947,-19.6,-49.997
40899450,-1.757,-1.998,0.727,202.86,-130.917,49.297
40899460,1.588,0.796,0.584,340.27,-226.677,-31.307
40899470,-0.045,1.914,1.473,353.867,-163.205,-16.24
40899480,-1.603,-1.54,1.467,191.502,-121.432,-34.055
40899490,-0.425,0.139,1.678,254.712,-171.762,-80.692
40899500,0.831,0.828,1.924,227.045,-193.777,-121.712
40899510,1.665,0.503,1.72,101.447,-136.605,-75.512
40899510,1.139,0.148,1.173,15.522,-56.227,-43.75
40899530,0.538,-0.399,0.977,-28.297,4.935,-5.617
40899530,0.014,-0.334,0.944,-34.09,30.502,5.407
40899550,-0.279,-0.392,0.94,-34.23,29.557,4.637
40899550,-0.211,-0.445,0.9,-31.43,15.715,-3.115
40899570,-0.007,-0.455,0.866,-24.237,3.097,-7.665
40899570,0.041,-0.465,0.89,-15.12,-2.817,-3.22
40899580,-0.004,-0.336,0.968,-8.872,-6.142,3.657
40899590,0.006,-0.259,1.047,-12.232,-9.135,8.54
40899600,-0.016,-0.226,1.113,-23.205,-12.53,11.83
40899610,0.03,-0.208,1.182,-39.2,-15.802,14.052
40899620,0.063,-0.188,1.256,-58.502,-19.145,18.217
40899630,0.081,-0.207,1.316,-81.095,-23.887,22.417
40899640,0.198,-0.286,1.235,-105.98,-26.285,28.927
40899650,0.266,-0.366,1.141,-128.327,-11.182,37.642
40899660,0.641,-0.649,0.792,-128.712,43.662,42.542
40899670,-0.453,-0.353,1.079,-122.99,76.282,42.175
40899680,-0.035,-0.449,0.851,-140.665,88.9,9.205
40899690,0.112,-0.62,0.891,-141.785,92.207,5.81
40899700,0.304,-0.616,0.784,-132.51,87.307,-0.262
40899710,0.372,-0.833,0.669,-123.725,97.93,9.047
40899720,0.263,-1.471,0.74,-101.815,118.527,30.1
40899730,-0.501,-1.998,-0.548,-72.467,102.287,48.317
40899740,-0.455,-1.998,-0.286,-61.075,50.12,16.642
40899750,0.109,-1.591,-0.276,-40.547,-3.29,-33.337
40899760,-0.152,-0.304,-0.115,-36.942,-11.182,-47.862
40899770,-0.656,0.039,-0.016,-80.272,12.425,-33.845
40899780,-0.365,0.731,0.126,-77.472,23.52,-14.402
40899790,0.043,1.736,0.26,-39.865,39.357,8.33
40899800,-0.059,1.978,0.163,-21.175,59.027,5.565
40899810,-0.25,1.346,1.38,14.577,31.78,-43.242
40899820,0.486,-1.783,0.04,87.762,21.822,-42.49
40899830,-1.899,-1.998,0.432,198.152,-15.05,56.367
40899830,-1.122,-1.057,0.715,250.46,-112.84,-54.355
40899850,0.831,1.993,0.987,365.067,-145.582,-122.797
40899850,-0.238,0.199,1.263,247.03,-96.162,-104.965
40899870,-0.291,-1.416,1.55,215.337,-88.305,-97.177
40899870,0.442,0.255,1.809,226.257,-99.557,-125.667
40899890,1.068,0.739,1.981,165.305,-98.175,-106.155
40899890,1.025,0.137,1.717,66.132,-60.41,-49.437
40899910,0.663,0.237,1.376,-6.405,-14.56,-13.107
40899910,0.273,-0.271,1.233,-58.555,19.442,16.887
40899920,0.178,-0.157,1.277,-84.665,32.287,22.75
40899930,0.177,-0.185,1.348,-109.602,38.36,25.882
40899940,0.405,-0.232,1.279,-132.265,48.3,36.277
40899950,-0.114,-0.249,1.148,-155.26,68.88,45.99
40899960,0.282,-0.434,1.017,-179.83,78.977,49.087
40899970,0.128,-0.391,0.92,-186.042,96.547,56.577
40899980,0.158,-0.395,0.864,-191.065,100.782,61.215
40899990,0.317,-0.535,0.84,-192.22,109.935,70.84
40900000,0.36,-0.573,0.851,-183.12,128.887,82.215
40900010,0.369,-0.68,0.924,-172.13,162.33,91.752
40900020,0.335,-0.734,1.094,-160.037,197.487,95.235
40900030,0.538,-0.97,1.094,-136.937,236.897,101.937
40900040,0.003,-1.31,1.298,-108.465,260.19,123.952
40900050,-0.416,-1.997,1.449,-60.672,209.737,109.987
40900060,-1.01,-1.908,1.447,47.355,80.36,65.782
40900070,0.329,-0.854,1.181,127.557,-69.965,-12.547
40900080,1.079,-0.133,0.337,132.177,-162.855,-100.537
40900090,0.019,-0.487,0.38,93.45,-119.735,-94.29
40900100,-1.072,-0.496,0.155,68.985,-111.475,-64.452
40900110,-0.75,-0.051,-0.005,59.92,-144.305,-22.505
40900120,-0.147,0.166,-0.025,46.252,-157.412,46.095
40900130,0.096,-0.053,-0.071,17.115,-137.707,83.44
40900140,0.167,-0.167,-0.198,5.285,-115.692,75.075
40900150,0.193,0.276,-0.062,4.777,-97.79,50.207
40900160,0.022,0.528,0.049,-14.367,-82.25,25.917
40900170,-0.17,0.373,0.2,-36.75,-73.325,19.512
40900180,-0.15,0.151,0.408,-38.745,-70.367,26.6
40900190,-0.134,-0.042,0.603,-21.332,-64.347,33.477
40900200,-0.32,-0.139,0.65,5.46,-60.847,33.092
40900210,-0.409,-0.044,0.706,27.265,-66.692,21.332
40900220,-0.348,-0.112,0.693,34.002,-66.255,6.965
40900230,-0.183,-0.411,0.725,30.94,-55.335,-16.73
40900240,-0.528,-0.54,0.822,49.595,-36.137,-14.122
40900250,-0.63,-0.329,0.863,71.732,-16.782,8.767
40900260,-0.559,-0.794,0.96,69.16,-10.132,-2.677
40900260,-0.501,-1.051,1.017,76.212,-12.407,-49.577
40900280,0.026,-1.268,1.178,88.9,9.695,-57.155
40900280,-1.485,-1.975,1.394,52.57,74.655,-1.225
40900300,-1.998,-1.998,0.179,75.162,8.715,53.865
40900300,-0.401,-0.923,0.727,122.395,-103.18,-30.03
40900320,0.765,0.598,1.268,82.337,-95.06,-109.76
40900320,-0.718,-0.11,1.213,28.612,3.885,-66.657
40900330,-1.066,-0.285,1.319,7.315,15.82,-72.905
40900340,0.221,0.226,1.093,6.72,-17.78,-113.557
40900350,0.249,-0.929,1.141,-44.397,-5.127,-124.67
40900360,-0.571,-1.758,1,-49.91,36.417,-105.927
40900370,-0.7,-1.489,1.182,-32.812,44.17,-83.702
40900380,-0.661,-1.084,1.12,-13.177,45.237,-31.867
40900390,-0.293,-0.949,0.898,-16.24,40.285,13.912
40900400,0.306,-1.084,0.754,-37.327,45.307,22.802
40900410,0.356,-1.116,0.662,-54.897,62.125,18.2
40900420,0.321,-0.828,0.682,-62.755,68.215,2.1
40900430,0.567,-0.703,0.776,-80.43,70.665,-18.567
40900440,0.368,-0.733,0.744,-87.797,63.805,-30.432
40900450,0.085,-0.282,0.669,-73.78,34.965,-36.942
40900460,0.007,0.235,0.608,-67.042,-6.615,-38.185
40900470,0.002,0.433,0.572,-75.512,-43.452,-21.105
40900480,-0.01,0.486,0.528,-83.23,-67.567,14.98
40900490,-0.011,0.471,0.55,-87.535,-81.935,54.687
40900500,0.162,0.271,0.577,-83.685,-79.397,91.297
40900510,0.184,0.045,0.554,-63.857,-58.975,128.45
40900520,-0.245,-0.107,0.438,-37.747,-53.672,148.662
40900530,-0.178,0.026,0.21,-21.14,-73.08,141.242
40900540,0.161,0.226,0.071,-1.68,-82.74,137.917
40900550,0.146,-0.131,-0.132,-24.902,-65.24,158.62
40900560,-0.011,-0.415,-0.268,-37.24,-61.25,165.882
40900570,0.023,-0.21,-0.501,-23.187,-81.427,148.82
40900580,1.121,-1.133,1.227,4.62,-107.625,124.635
40900580,1.702,-1.998,1.878,107.467,-73.255,84.892
40900600,-1.768,-1.703,0.101,248.815,-145.442,56.542
40900600,-0.391,1.235,0.869,338.397,-202.492,48.387
40900620,0.76,1.309,1.511,331.135,-174.772,-3.01
40900620,-1.468,-1.263,1.36,241.675,-133.07,-56.507
40900640,0.16,0.37,1.791,254.502,-156.012,-131.372
40900640,1.221,0.2,1.995,211.575,-168.49,-121.695
40900660,1.296,0.734,1.713,122.395,-114.17,-73.71
40900660,0.876,0.099,1.346,23.502,-45.727,-35.997
40900670,0.493,-0.091,1.105,-34.125,2.957,-16.905
40900680,0.185,-0.406,0.951,-60.952,30.817,-6.667
40900690,-0.011,-0.427,0.921,-62.702,38.342,-5.897
40900700,0.049,-0.404,0.944,-59.832,35.927,-4.392
40900710,0.01,-0.443,0.921,-57.505,32.217,0.77
40900720,-0.007,-0.433,0.97,-53.672,27.247,5.88
40900730,0.015,-0.289,1.06,-52.885,22.417,9.485
40900740,0.222,-0.388,1.129,-61.215,22.68,13.387
40900750,-0.5,-0.231,0.86,-56.577,64.75,22.697
40900760,0.277,-0.153,1.355,-85.137,38.29,2.992
40900770,0.295,-0.393,1.316,-125.142,58.94,8.295
40900780,0.23,-0.273,1.199,-150.255,75.67,18.672
40900790,0.288,-0.427,1.112,-169.855,89.6,29.032
40900800,0.245,-0.463,1.142,-178.272,109.585,35.717
40900810,0.024,-0.369,1.218,-183.907,128.38,33.18
40900820,0.121,-0.594,1.198,-185.325,157.377,23.817
40900830,-0.178,-0.952,1.139,-166.512,172.515,21.227
40900840,-0.5,-1.144,0.94,-137.095,158.69,21.192
40900850,-0.264,-1.095,0.741,-85.575,121.712,19.775
40900860,-0.114,-1.072,0.709,-29.12,99.47,19.722
40900870,-0.854,-0.16,0.24,18.83,80.132,17.92
40900880,-0.192,0.451,0.475,15.715,48.65,0.49
40900890,0.292,0.251,0.43,6.142,47.11,10.465
40900900,0.284,0.387,0.274,30.415,38.307,-18.112
40900910,0.38,1.166,0.095,66.185,24.01,-66.412
40900920,0.086,1.056,-0.024,63.42,33.04,-72.117
40900930,-0.262,0.516,-0.305,53.182,25.97,-45.692
40900940,-0.088,0.455,-0.479,55.825,-2.852,10.36
40900950,0.398,-0.168,-0.617,35.017,-15.12,62.195
40900960,0.385,-1.378,-0.836,6.055,-21.752,69.107
40900970,-0.235,-1.998,-0.377,-41.58,-92.592,41.702
40900980,-1.998,-1.998,0.232,72.31,-247.065,101.727
40900990,1.565,0.683,0.046,384.965,-320.075,-46.392
40901000,-0.149,1.926,1.855,442.942,-259.157,-57.61
40901010,-1.893,-1.544,0.557,66.517,-120.277,-86.59
40901010,0.566,-0.95,1.423,236.652,-181.055,-128.205
40901030,0.463,1.52,1.943,284.812,-212.432,-156.345
40901030,1.756,-0.504,1.937,144.077,-160.79,-97.51
40901050,0.834,1.159,1.578,83.772,-82.39,-37.572
40901050,0.503,-0.328,1.269,-17.657,-22.05,-12.81
40901070,0.418,-0.153,1.027,-54.565,8.54,-4.357
40901070,0.008,-0.52,0.938,-69.125,27.09,-1.05
40901080,0.019,-0.383,0.973,-64.697,27.58,0
40901090,-0.047,-0.406,0.892,-63.577,23.922,1.102
40901100,-0.182,-0.5,0.637,-46.55,39.935,0.017
40901110,-0.116,-0.407,0.999,-31.045,38.972,-18.27
40901120,0.225,-0.405,1.036,-42.42,23.292,-20.142
40901130,0.263,-0.312,1.102,-51.24,22.347,-6.492
40901140,0.192,-0.373,1.177,-67.2,23.327,12.775
40901150,0.157,-0.287,1.236,-81.987,23.87,26.285
40901160,0.05,-0.282,1.25,-101.587,26.792,35.087
40901170,0.017,-0.246,1.239,-124.985,28.227,36.68
40901180,0.048,-0.283,1.181,-152.582,31.902,35.892
40901190,-0.001,-0.272,1.136,-175.77,42,33.88
40901200,-0.029,-0.337,1.057,-197.172,55.387,25.97
40901210,0.024,-0.47,1.061,-209.247,69.72,12.25
40901220,0.012,-0.55,1.108,-217.122,85.557,-0.997
40901230,0.061,-0.945,1.012,-206.867,106.19,-8.347
40901240,0.075,-1.226,0.877,-177.852,119.175,-9.887
40901250,-0.001,-1.258,0.612,-132.545,128.782,-3.325
40901260,-0.015,-1.187,0.548,-89.11,129.78,-8.365
40901270,-0.065,-1.443,0.696,-50.662,99.715,-37.275
40901280,0.825,-0.694,0.558,30.905,43.47,-119.385
40901290,0.382,0.9,0.287,72.957,37.572,-177.975
40901300,-0.045,0.937,0.49,31.972,73.272,-195.177
40901310,-0.529,0.288,0.483,28.945,91.542,-139.195
40901320,-0.29,0.662,0.327,89.757,45.85,-82.127
40901330,0.589,1.096,0.08,141.417,14.822,-35.63
40901330,0.804,0.982,-0.177,127.365,24.797,-27.317
40901350,0.57,0.509,-0.349,95.725,38.902,-46.795
40901350,0.323,0.238,-0.355,83.947,30.17,-72.205
40901370,0.175,0.069,-0.467,84.77,18.55,-64.312
40901370,0.53,-1.645,0.308,47.775,32.147,15.312
40901390,-1.881,-1.998,-0.404,44.747,71.575,306.512
40901390,0.731,-0.32,0.222,352.677,-260.47,113.995
40901410,0.668,1.997,0.982,548.082,-248.15,-93.555
40901410,-1.968,-0.305,1.264,224.612,-94.605,-41.492
40901420,-1.141,-1.679,1.732,164.08,-127.312,-29.365
40901430,0.375,1.792,1.998,301.595,-254.31,-171.167
40901440,1.995,-0.043,1.836,142.905,-201.022,-149.485
40901450,1.684,0.935,1.36,53.462,-99.102,-64.12
40901460,0.54,-0.193,1.115,-33.442,-8.172,4.182
40901470,0.176,-0.416,0.887,-56.612,22.102,9.52
40901480,-0.076,-0.47,0.921,-49.315,26.722,2.222
40901490,0.045,-0.385,0.946,-44.31,22.89,0.455
40901500,-0.001,-0.362,0.948,-44.887,19.757,3.64
40901510,0.106,-0.418,0.909,-44.467,15.33,7.21
40901520,0.157,-0.428,0.934,-39.392,13.72,15.802
40901530,0.241,-0.302,1.052,-36.925,15.96,24.22
40901540,0.089,-0.181,1.193,-46.06,21.087,35.665
40901550,0.464,-0.254,1.151,-60.497,36.505,43.487
40901560,-0.428,-0.114,1.286,-66.762,51.537,46.025
40901570,0.252,-0.401,1.179,-103.11,29.61,48.055
40901580,0.332,-0.337,1.141,-118.895,27.632,63.962
40901590,0.282,-0.272,1.126,-139.23,30.625,78.557
40901600,0.374,-0.291,1.123,-163.362,41.51,90.212
40901610,0.251,-0.299,1.073,-178.132,55.895,97.72
40901620,0.028,-0.349,0.999,-184.065,69.02,97.615
40901630,-0.127,-0.611,0.916,-185.937,78.785,93.03
40901640,-0.069,-0.857,0.751,-173.827,77.087,85.995
40901650,-0.016,-0.955,0.526,-144.97,53.795,83.982
40901660,0.134,-1.1,0.442,-115.482,27.02,85.645
40901670,0.129,-1.632,0.343,-76.247,8.907,98.192
40901680,0.915,-1.709,0.486,-21.315,-47.565,76.405
40901690,1.993,-0.953,-0.12,57.12,-80.797,-1.785
40901700,0.512,0.24,-0.058,60.952,-42.28,-88.585
40901710,-0.592,-0.589,-0.153,0,-5.705,-118.125
40901720,-0.74,-0.868,-0.185,1.802,-23.887,-63.927
40901730,-0.209,-0.331,-0.257,25.357,-62.562,-22.645
40901740,-0.175,-0.135,-0.247,-3.692,-70,1.295
40901750,-0.514,-0.463,-0.167,-28.577,-75.057,35.525
40901760,-0.361,-0.232,-0.206,-24.727,-101.342,66.097
40901760,0.514,0.089,1.313,-1.627,-99.382,89.897
40901780,-1.595,-1.006,0.534,118.527,-22.505,180.792
40901780,-0.348,-0.09,0.583,258.072,-164.325,206.395
40901800,-0.642,-1.802,0.757,211.767,-151.235,117.285
40901800,-1.639,-0.717,0.871,246.942,-118.02,34.44
40901810,-0.435,1.725,1.1,315.262,-123.567,-97.317
40901820,-0.328,-0.61,1.231,227.745,-76.212,-131.757
40901830,0.2,-0.289,1.599,211.54,-83.72,-155.417
40901840,1.712,0.208,1.897,190.505,-112.087,-126.787
40901850,1.244,0.566,1.686,125.93,-70.052,-37.52
40901860,0.125,0.053,1.391,45.885,-20.02,7.332
40901870,0.105,0.012,1.15,-5.915,-8.452,1.925
40901880,0.259,-0.431,0.99,-34.317,-2.275,-0.035
40901890,0.21,-0.327,0.949,-37.712,4.357,-0.892
40901900,0.071,-0.429,0.917,-38.657,9.572,7.91
40901910,-0.042,-0.43,0.86,-34.825,8.505,8.102
40901920,0.028,-0.484,0.84,-28.507,5.652,3.955
40901930,0.193,-0.405,0.906,-21.402,6.825,0.962
40901940,0.223,-0.328,1.004,-21.175,14.035,4.042
40901950,0.193,-0.274,1.087,-28.577,21.42,9.012
40901960,0.183,-0.17,1.15,-42.997,26.53,14.262
40901970,0.063,-0.26,1.182,-60.48,27.79,17.815
40901980,-0.021,-0.276,1.181,-77.647,23.117,17.01
40901990,-0.152,-0.29,1.12,-94.027,16.275,15.347
40902000,-0.2,-0.391,1.111,-109.567,9.642,8.155
40902010,-0.072,-0.435,1.226,-122.255,10.062,-3.15
40902020,0.033,-0.626,0.31,-119.91,121.24,1.977
40902030,-1.158,-0.318,1.206,-125.3,81.2,-21.595
40902040,-0.452,-0.49,0.986,-150.535,54.285,-73.622
40902050,-0.452,-0.711,1.028,-159.372,53.357,-75.302
40902060,-0.351,-0.796,0.935,-156.817,43.452,-96.915
40902070,-0.655,-0.964,0.607,-146.317,36.715,-94.587
40902080,-0.024,-1.712,0.939,-130.952,32.042,-91.682
40902080,-0.693,-1.998,-0.974,-106.872,100.747,-4.095
40902100,-1.998,-1.834,0.044,-69.912,17.745,49.525
40902100,-0.909,-1.126,-0.101,-30.222,-70.28,76.23
40902120,0.462,-0.926,0.143,-31.482,-81.882,169.575
40902120,0.831,-0.608,0.187,-32.077,-22.032,165.672
40902140,0.688,0.412,-0.128,-21.7,39.777,113.452
40902140,0.841,1.686,-0.385,-9.17,78.662,47.932
40902160,0.688,1.997,-0.611,-15.837,101.412,-3.465
40902160,0.417,1.938,-0.922,-24.815,104.65,-24.045
40902170,0.504,1.553,-0.785,5.355,81.55,-13.177
40902180,0.478,1.656,-0.019,52.482,27.02,1.61
40902190,1.859,-1.971,0.297,136.902,67.847,43.33
40902200,-1.924,-1.997,1.01,355.897,-172.2,41.405
40902210,0.904,1.538,-1.032,557.392,-251.965,10.657
40902220,0.213,1.317,1.746,456.802,-184.695,-12.967
40902230,-1.998,-1.665,1.593,135.117,-129.342,67.777
40902240,1.071,1.784,1.94,366.957,-345.345,-147.227
40902250,1.998,-0.563,1.116,5.495,-186.182,-99.82
40902260,1.671,0.228,1.005,-59.937,-25.865,-27.457
40902270,0.039,-0.898,0.741,-91.822,56.857,21.122
40902280,-0.489,-0.409,0.888,-59.622,55.825,19.285
40902290,-0.568,-0.49,0.903,-50.977,29.96,1.452
40902300,0.205,-0.492,0.835,-43.207,6.65,-17.797
40902310,0.437,-0.498,0.871,-29.925,8.19,-5.355
40902320,-0.029,-0.429,0.893,-17.937,18.375,13.615
40902330,0.061,-0.306,1.129,-16.922,18.252,16.537
40902340,0.236,0.033,1.274,-32.532,18.497,13.895
40902350,0.184,-0.158,1.322,-66.255,25.077,26.372
40902360,0.133,-0.191,1.402,-96.547,25.095,29.277
40902370,0.006,-0.215,1.365,-119.997,21.017,31.36
40902380,0.003,-0.25,1.179,-141.417,23.467,32.235
40902390,0.037,-0.257,1.169,-175.35,33.337,25.672
40902400,0.222,-0.639,0.868,-171.447,112.682,23.275
40902410,-0.624,-0.417,1.081,-182.14,117.162,-12.792
40902420,-0.588,-0.567,0.985,-193.55,98.315,-60.55
40902430,-0.412,-0.633,0.837,-192.15,78.312,-87.132
40902440,-0.04,-0.841,0.883,-192.57,82.092,-118.772
40902450,-0.136,-1.275,0.56,-178.937,130.917,-136.202
40902460,-1.016,-1.965,0.897,-162.89,180.25,-137.025
40902460,-1.129,-1.876,0.261,-88.48,151.147,-201.582
40902480,-0.773,0.321,0.169,11.287,72.957,-310.03
40902480,-1.034,1.391,0.452,-26.232,128.555,-287.017
40902500,-1.539,0.81,0.334,-61.372,180.512,-157.29
40902500,-0.368,1.024,0.197,8.417,143.99,-54.11
40902510,1.114,1.654,-0.099,81.112,117.582,-9.852
40902520,1.364,1.266,-0.229,76.037,131.285,33.075
40902530,1.291,-0.025,-0.142,27.422,140.437,27.51
40902540,1.413,-0.731,-0.071,24.727,92.19,-18.077
40902550,1.228,-0.08,-0.149,74.847,22.207,-6.002
40902560,1.407,-0.98,1.207,63.07,-26.232,65.065
40902570,-0.632,-1.998,-0.643,66.185,-46.392,202.3
40902580,-0.033,-1.456,1.268,237.702,-215.635,197.382
40902590,0.983,1.988,0.836,450.957,-236.372,68.6
40902600,-1.981,0.694,1.514,270.69,-155.767,129.482
40902610,-0.943,-1.954,1.337,113.155,-106.435,95.48
40902620,-1.611,1.547,1.439,269.167,-143.15,-68.897
40902630,0.809,-0.488,1.691,164.132,-162.907,-165.392
40902640,1.164,-0.141,1.518,129.377,-152.652,-142.607
40902650,1.652,0.256,1.387,98.595,-110.53,-76.3
40902660,0.508,-0.01,1.307,40.057,-40.18,-11.76
40902670,0.069,-0.137,1.096,-0.752,-10.185,-4.777
40902680,0.207,-0.395,0.95,-22.137,-1.557,-13.982
40902690,0.249,-0.378,0.945,-24.955,7.122,-13.562
40902700,0.164,-0.338,0.964,-27.387,17.64,-4.847
40902710,0.086,-0.4,0.918,-30.292,22.872,4.427
40902720,0.049,-0.421,0.944,-27.947,22.802,11.165
40902730,0.047,-0.31,0.99,-25.357,20.615,14.56
40902740,0.058,-0.344,1.022,-29.452,19.32,20.807
40902750,0.03,-0.305,1.072,-34.597,17.902,24.745
40902760,0.122,-0.265,1.168,-45.22,17.482,29.54
40902770,0.219,-0.341,1.203,-62.422,20.195,39.742
40902780,0.347,-0.285,1.203,-79.415,29.155,52.867
40902790,0.203,-0.378,1.223,-100.677,47.162,69.667
40902800,0.321,-0.29,1.296,-119.035,65.537,74.742
40902810,0.761,-0.231,1.303,-137.847,114.292,75.512
40902820,-0.203,-0.479,0.657,-142.835,180.95,75.95
40902830,0.512,-0.828,0.98,-144.462,175.437,60.602
40902830,0.272,-1.109,0.851,-123.392,198.817,84.805
40902850,-0.268,-1.924,0.496,-116.34,191.31,128.345
40902850,-1.038,-1.998,0.498,-72.905,81.532,154.35
40902870,-0.674,-1.889,-0.221,17.482,-66.622,139.265
40902870,-0.482,-1.476,-0.32,4.987,-147.91,129.885
40902890,1.145,-1.72,-0.436,-26.915,-157.972,127.715
40902890,-0.063,-1.586,-0.161,-58.887,-112.962,100.572
40902910,-0.82,-1.358,-0.253,-76.387,-112.192,68.81
40902910,-0.236,-0.993,-0.06,-84.42,-121.817,62.65
40902920,-0.348,-1.069,0.057,-111.947,-110.495,66.167
40902930,-0.702,-0.773,0.11,-116.462,-106.995,61.407
40902940,-0.256,0.252,0.02,-101.395,-109.882,45.237
40902950,0.444,1.259,-0.124,-90.37,-68.792,40.337
40902960,0.084,1.783,-0.247,-96.337,-12.495,32.742
40902970,-0.226,1.979,-0.458,-92.172,0.175,3.99
40902980,0.268,1.997,-0.517,-79.17,-11.515,-8.785
40902990,0.628,0.524,0.665,-86.222,12.145,-7.91
40903000,-0.677,-1.383,1.93,84.122,-63.28,-57.785
40903010,-1.984,-1.998,-0.191,421.155,-197.33,69.982
40903020,0.648,-0.443,1.183,415.502,-252.822,39.742
40903030,0.016,1.9,1.17,467.915,-189.945,-68.25
40903040,-1.054,-1.123,1.792,313.582,-141.767,-97.195
40903050,0.765,0.699,1.998,319.515,-196.402,-134.505
40903060,1.804,1.508,1.988,218.312,-178.08,-106.207
40903070,1.266,0.717,1.603,39.655,-80.902,-42.717
40903080,0.748,-0.061,1.168,-60.06,-3.675,-16.397
40903090,0.262,-0.542,0.797,-95.515,35.42,-4.392
40903100,-0.027,-0.631,0.809,-80.115,43.4,1.68
40903110,0.041,-0.422,0.937,-61.372,37.73,3.832
40903120,-0.018,-0.429,0.93,-56.437,32.322,9.782
40903130,-0.018,-0.467,0.86,-52.185,25.322,14.525
40903140,-0.086,-0.555,0.918,-43.645,17.01,20.475
40903150,-0.057,-0.299,1.092,-37.94,7.525,22.382
40903160,0.189,-0.216,1.233,-50.312,1.452,23.59
40903170,0.318,-0.251,1.292,-74.882,2.555,36.312
40903170,0.395,-0.26,1.252,-101.307,13.16,54.162
40903190,0.305,-0.24,1.262,-127.312,30.135,69.667
40903190,0.299,-0.132,1.306,-158.235,49.945,75.057
40903210,0.603,-0.146,0.636,-195.562,100.677,72.275
40903210,-0.25,-0.156,1.134,-218.54,130.2,59.745
40903230,0.425,-0.086,1.173,-252.997,138.285,41.282
40903230,0.118,-0.375,1.094,-279.79,158.847,46.147
40903250,-0.077,-0.775,1.302,-292.757,162.505,40.232
40903250,-0.402,-1.48,1.177,-269.167,150.447,33.127
40903260,-0.966,-1.262,1.063,-209.212,102.585,26.687
40903270,-0.785,-0.314,0.626,-146.177,51.747,2.222
40903280,-0.79,0.109,0.814,-112.525,2.537,-52.937
40903290,-0.742,-0.424,0.991,-83.317,-18.76,-84.07
40903300,0.638,0.039,1.131,59.885,-7.245,-105.332
40903310,-1.467,1.626,0.461,145.18,-9.397,-167.457
40903320,-0.591,1.311,0.229,126.84,13.667,-183.592
40903330,-1.043,0.268,0.385,115.255,54.862,-52.447
40903340,-1.157,-0.467,0.191,167.247,32.865,71.47
40903350,-0.383,-0.461,-0.749,238.105,-36.067,156.397
40903360,0.905,-0.086,-0.839,220.657,-45.08,170.905
40903370,0.712,-1.053,-0.512,106.995,8.295,103.215
40903380,-0.341,-1.804,-0.528,75.565,24.097,51.135
40903390,-0.055,-1.043,-0.652,87.255,-17.062,16.415
40903400,0.461,-0.313,-0.61,63.035,-25.48,2.45
40903410,0.644,-1.628,0.748,-1.015,-33.722,9.537
40903420,-0.479,-1.998,-1.132,62.16,-133.105,-78.557
40903430,-1.056,-1.423,0.733,311.815,-188.632,-56.262
40903440,1.549,1.963,0.206,473.427,-234.062,-61.792
40903450,1.074,1.327,1.741,343.595,-131.775,15.96
40903460,-1.898,-1.998,1.906,199.745,-93.082,40.127
40903470,-1.101,1.532,1.987,370.212,-224.35,-40.827
40903480,1.729,0.527,1.688,140.455,-221.9,-81.602
40903490,1.972,0.79,1.215,1.417,-105.07,-63.595
40903500,0.893,-0.471,0.896,-69.842,18.182,-8.977
40903510,0.094,-0.527,0.893,-67.777,62.86,3.797
40903520,-0.247,-0.457,0.917,-59.447,65.327,3.482
40903530,-0.494,-0.66,0.831,-51.205,47.022,-2.205
40903540,-0.113,-0.377,0.896,-30.8,20.107,-11.567
40903550,0.033,-0.401,0.921,-23.66,7.56,-10.412
40903560,0.033,-0.36,1.023,-20.475,3.57,-4.375
40903570,0.048,-0.184,1.152,-27.44,1.12,1.855
40903580,0.001,-0.163,1.221,-45.85,-3.045,8.102
40903580,-0.131,-0.176,1.317,-65.502,-13.615,12.845
40903600,-0.17,-0.08,1.425,-88.777,-34.527,7.577
40903600,0.08,-0.176,1.299,-121.8,-51.327,4.987
40903620,0.248,-0.293,1.194,-157.377,-41.702,10.395
40903620,0.856,-0.592,0.948,-177.817,4.497,15.662
40903640,-0.564,-0.366,0.815,-153.912,70.805,28.945
40903640,-0.113,-0.26,1.283,-194.617,63.35,-12.25
40903660,-0.303,-0.43,1.052,-213.482,67.725,-22.47
40903660,-0.242,-0.903,0.962,-203.017,70.49,-28.42
40903670,-0.162,-1.027,0.771,-173.267,75.95,-32.69
40903680,-0.733,-1.321,0.432,-142.432,76.982,-31.92
40903690,-0.61,-1.708,0.523,-100.992,52.115,-24.045
40903700,-1.568,-1.267,0.133,-40.775,17.43,26.145
40903710,-1.666,0.495,0,-13.055,-38.85,66.01
40903720,-0.098,0.867,0.346,20.86,-49.105,198.327
40903730,0.193,0.108,0.321,30.992,-21.63,293.755
40903740,0.233,0.51,0.324,46.147,3.727,251.072
40903750,0.042,1.16,0.36,58.012,11.165,204.102
40903760,-0.162,1.031,0.309,57.47,13.195,183.96
40903770,-0.151,1.062,0.256,74.48,1.925,167.702
40903780,-0.167,0.906,0.097,84.647,-7.42,148.365
40903790,-0.727,-0.325,0.481,60.707,-39.602,124.547
40903800,1.355,-1.893,0.326,16.975,-143.78,-10.36
40903810,0.406,-1.998,-0.95,65.887,-115.85,-207.462
40903820,-1.461,-1.087,1.059,233.712,-77.927,-136.185
40903830,1.181,1.997,0.512,452.165,-181.527,-119.612
40903840,1.533,0.94,1.381,253.242,-75.407,-45.955
40903850,-1.634,-1.998,1.348,133.07,-16.205,-52.867
40903860,-0.217,0.713,1.804,316.487,-111.107,-11.497
40903870,0.097,0.652,1.861,213.762,-134.82,-41.825
40903880,1.32,0.506,1.641,67.287,-96.792,-52.272
40903890,1.2,0.3,1.314,-20.597,-22.645,-28.087
40903900,0.531,-0.172,1.171,-82.81,40.442,-0.98
40903910,0.227,-0.364,1.147,-110.6,66.447,16.415
40903920,0.05,-0.168,1.245,-125.807,76.125,24.85
40903920,-0.213,-0.121,1.217,-142.852,72.38,26.267
40903940,-0.183,-0.265,1.114,-162.172,57.382,16.905
40903940,0.067,-0.484,1.057,-177.17,57.12,14.927
40903960,0.632,-0.487,0.955,-172.917,83.825,16.66
40903960,-0.124,-0.074,1.167,-164.587,119.455,21.105
40903980,0.277,-0.173,1.093,-213.045,142.747,14.28
40903980,0.125,-0.557,0.943,-235.865,178.745,16.695
40904000,-0.001,-0.525,0.877,-231.315,206.115,5.495
40904000,0.041,-0.728,0.969,-219.292,238.77,-0.997
40904010,-0.023,-1.248,0.773,-191.135,265.947,-6.422
40904020,-0.333,-1.313,0.678,-136.762,255.745,-7.717
40904030,-0.339,-0.852,0.598,-72.327,213.99,-13.842
40904040,0.221,-0.577,0.81,-16.66,167.09,-46.375
40904050,1.406,-0.917,0.559,58.712,165.97,-131.862
40904060,-1.349,-0.396,0.851,66.325,103.145,-242.567
40904070,-0.512,-0.504,0.336,68.162,26.477,-295.26
40904080,-0.348,-0.02,0.282,90.125,1.487,-196.857
40904090,-0.835,-0.137,0.363,52.675,21.63,-109.952
40904100,-0.756,-0.373,0.38,32.69,21.42,-26.95
40904110,-0.367,-0.377,0.37,30.012,4.935,44.87
40904120,0.182,-0.535,0.457,21.717,0.525,57.47
40904130,0.262,-0.763,0.482,23.03,6.597,26.897
40904140,0.036,-0.57,0.528,36.732,4.042,-18.165
40904150,-0.025,-0.348,0.622,41.212,-8.225,-56.087
40904160,0.005,-0.44,0.704,41.282,-18.27,-75.057
40904170,-0.096,-0.513,0.745,49.822,-27.842,-76.965
40904180,-0.32,-0.323,0.884,61.775,-48.772,-69.65
40904190,-0.28,-0.419,1.001,61.967,-80.587,-65.8
40904200,-0.157,-0.595,0.934,69.335,-113.54,-64.942
40904210,-0.016,-0.62,0.81,83.352,-133.28,-63
40904220,0.118,-0.805,0.491,88.48,-125.702,-54.512
40904230,-0.042,-0.818,0.159,84.647,-103.372,-32.97
40904240,-0.183,-0.925,0.115,54.617,-75.53,-9.975
40904250,-0.509,-1.464,0.101,16.292,-48.79,23.502
40904260,-0.912,-1.788,-0.042,2.887,-49.402,62.265
40904270,-0.802,-1.617,-0.297,2.835,-76.265,87.622
40904280,-0.288,-1.266,-0.555,-8.19,-89.985,101.465
40904290,-0.118,-0.858,-0.708,-34.807,-78.907,105.91
40904300,-0.094,-0.644,0.033,-62.3,-56.14,99.61
40904310,1.326,-1.523,1.983,5.442,-31.202,68.04
40904320,-0.382,0.773,0.324,232.767,-22.89,62.615
40904330,-1.841,0.698,1.049,231.262,-97.422,15.61
40904330,-1.072,-1.915,0.828,161.332,-104.702,16.17
40904350,-0.027,-0.831,0.895,224.507,-101.132,-17.08
40904350,-1.021,1.528,1.232,267.557,-109.2,-87.937
40904370,0.132,-0.705,1.473,186.392,-125.02,-104.265
40904370,0.746,-0.583,1.74,184.957,-137.305,-95.795
40904390,0.96,0.977,1.723,162.102,-106.802,-66.115
40904390,0.623,0.061,1.365,59.762,-55.545,-30.957
40904410,0.558,-0.027,1.149,3.465,-18.34,-20.23
40904410,0.361,-0.21,1.043,-29.627,10.5,-8.977
40904420,0.013,-0.325,0.991,-45.885,25.427,0.297
40904430,-0.053,-0.339,0.979,-50.89,24.57,-0.525
40904440,-0.028,-0.451,0.92,-52.57,19.53,-2.257
40904450,-0.012,-0.391,0.954,-50.33,14.77,-1.802
40904460,0.048,-0.337,1.011,-50.05,10.587,-1.452
40904470,0.091,-0.305,1.099,-55.23,9.065,1.33
40904480,0.138,-0.19,1.224,-65.94,9.73,2.135
40904490,0.328,-0.266,1.323,-88.672,21.472,2.467
40904500,-0.627,-0.181,0.826,-91.892,76.965,16.135
40904510,0.013,-0.17,1.289,-124.32,58.905,-11.952
40904520,0.432,-0.429,1.228,-165.34,109.935,-8.767
40904530,0.137,-0.222,1.116,-184.94,117.18,-4.637
40904540,0.223,-0.111,1.059,-206.342,114.03,-0.507
40904550,0.239,-0.205,0.998,-231.91,120.925,11.847
40904560,0.193,-0.435,0.953,-248.815,127.365,16.502
40904570,0.178,-0.709,1.001,-255.237,137.235,15.312
40904580,0.368,-1.329,0.875,-237.02,162.085,15.435
40904590,-0.08,-1.393,0.507,-169.557,168.525,31.395
40904600,-0.243,-1.221,0.348,-97.282,135.327,28.647
40904610,0.079,-1.249,0.335,-30.765,89.582,-19.897
40904620,1.736,-1.523,1.031,51.485,53.777,-111.037
40904630,-1.04,-0.932,0.152,110.932,10.045,-241.377
40904640,-0.307,0.054,0.071,127.697,-29.942,-312.322
40904650,-1.538,0.102,0.015,105.402,-40.197,-227.43
40904660,-1.972,-0.179,0.049,62.965,-67.305,-126.805
40904670,-1.301,-0.08,-0.271,67.27,-121.432,-5.267
40904670,-0.413,0.322,-0.454,79.747,-157.255,109.567
40904690,0.357,0.303,-0.474,56.7,-128.17,172.2
40904690,0.498,0.113,-0.402,11.69,-71.295,163.87
40904710,0.404,0.164,-0.332,-0.35,-46.585,86.03
40904710,0.501,0.377,-0.474,12.635,-22.557,6.492
40904730,-0.259,0.237,0.282,42.07,-11.305,-34.16
40904730,0.472,-1.992,0.249,82.897,38.43,12.302
40904750,-1.751,-1.998,0.263,310.502,-103.425,136.955
40904750,1.85,0.768,-0.418,516.792,-235.655,-134.995
40904760,-0.588,1.997,1.877,533.995,-133.42,-84.07
40904770,-1.281,-1.253,1.998,266.42,-47.127,-45.482
40904780,-0.615,0.503,1.998,334.915,-176.242,-35.63
40904790,1.955,1.173,1.631,126.472,-181.142,-103.127
40904800,1.535,-0.449,1.17,-91.07,-45.85,-45.78
40904810,0.496,-0.337,0.772,-107.905,20.195,-28.647
40904820,0.087,-0.878,0.756,-100.117,45.902,14.402
40904830,-0.565,-0.586,0.748,-63.14,35.892,6.282
40904840,-0.655,-0.795,0.718,-36.75,3.745,-6.212
40904850,0.326,-0.385,0.882,-8.592,-23.327,-28.052
40904860,0.048,-0.445,0.884,0.315,-25.007,-11.917
40904870,-0.051,-0.318,1.059,5.495,-29.172,-5.67
40904880,0.14,-0.069,1.223,-4.777,-37.012,-13.09
40904890,0.145,-0.005,1.371,-34.877,-39.935,-9.537
40904900,0.251,-0.022,1.475,-77.157,-43.645,-7.472
40904910,0.252,0.047,1.356,-124.827,-33.25,-5.95
40904920,0.291,0.027,1.359,-170.607,-13.37,-6.72
40904930,-0.139,-0.665,0.312,-164.675,70.192,13.475
40904940,-0.9,0.014,1.414,-176.102,41.405,-34.23
40904950,0.155,-0.389,1.109,-244.842,73.99,-88.042
40904960,-0.065,-0.26,1.049,-259.577,106.697,-80.115
40904970,-0.426,-0.776,0.898,-286.772,111.02,-106.4
40904980,-0.27,-0.892,0.807,-288.645,108.885,-129.115
40904990,0.046,-0.772,0.862,-260.242,118.422,-145.215
40905000,0.15,-1.078,1.02,-232.172,150.15,-153.107
40905010,0.172,-1.077,0.479,-176.627,177.415,-152.792
40905020,0.018,-1.238,0.627,-120.085,226.362,-119.962
40905030,-0.485,-0.854,1.009,-39.41,204.277,-138.705
40905040,-1.301,-0.189,0.624,20.44,133.577,-190.172
40905050,-0.839,0.202,0.407,23.537,77.402,-157.237
40905060,-0.506,0.519,0.696,37.975,45.692,-58.327
40905070,-0.228,0.166,0.526,54.617,25.095,32.62
40905080,-0.105,0.364,0.194,114.38,-10.727,135.17
40905080,0.213,0.432,0.041,142.922,-28.805,204.68
40905090,0.157,-0.049,-0.043,128.012,-21.665,232.54
40905100,-0.014,-0.379,-0.104,109.725,-29.085,227.622
40905110,0.056,-0.44,-0.239,93.712,-52.92,215.32
40905120,0.225,-0.402,-0.551,81.375,-74.2,233.782
40905130,0.649,-0.043,-0.913,82.25,-86.992,269.92
40905140,1.242,-0.09,-1.031,66.15,-76.667,283.447
40905150,1.205,-0.641,0.106,4.952,-68.827,214.357
40905160,1.732,-1.998,0.011,26.722,-3.972,84.122
40905170,-1.968,-1.95,0.739,378.017,-190.61,65.502
40905180,0.639,1.728,-0.381,540.347,-257.215,79.415
40905190,-0.117,1.015,1.978,454.65,-195.405,62.877
40905200,-1.211,-1.664,1.806,172.935,-198.345,-17.657
40905210,1.548,1.897,1.876,233.432,-326.252,-153.072
40905220,1.998,-0.391,0.929,-3.587,-165.375,-76.422
40905230,0.785,-0.119,0.99,-38.272,-16.642,-16.345
40905240,0.429,-0.479,0.901,-58.467,34.51,5.757
40905250,-0.084,-0.359,0.955,-47.6,46.2,9.257
40905260,-0.715,-0.584,0.85,-46.795,36.155,7.577
40905270,0.139,-0.414,0.946,-29.347,6.3,-9.677
40905280,0.23,-0.33,0.934,-25.34,2.362,-2.8
40905290,0.046,-0.384,0.996,-25.725,7.122,13.545
40905300,0.138,-0.124,1.17,-29.592,6.387,19.302
40905310,0.137,-0.112,1.289,-52.955,7.437,28.035
40905320,0.029,-0.163,1.384,-80.342,4.812,35.315
40905330,-0.045,-0.18,1.333,-101.78,-5.582,35.35
40905340,0.194,-0.271,1.276,-116.917,-23.047,37.03
40905350,0.171,-0.307,1.179,-140.105,-7.91,45.64
40905360,-0.136,-0.536,1.076,-161.822,-0.14,57.977
40905370,0.56,-0.908,0.826,-146.475,21.927,52.15
40905380,-0.354,-0.449,0.387,-105.472,56.63,52.727
40905390,0.406,-0.515,0.665,-120.295,41.597,27.877
40905400,0.541,-0.92,0.703,-132.282,61.722,40.32
40905410,0.417,-1.719,0.594,-109.27,59.412,59.99
40905420,-0.826,-1.998,-0.205,-75.302,32.007,94.08
40905420,-1.503,-1.998,-0.817,9.747,-87.71,146.685
40905440,0.302,-1.15,-1.192,108.447,-192.675,154.35
40905440,1.019,-0.257,-0.759,87.937,-172.27,165.182
40905460,0.219,-0.516,-0.478,-24.167,-79.677,167.002
40905460,-0.033,-0.871,-0.153,-86.8,-43.522,125.58
40905480,0.331,-0.539,-0.067,-82.652,-56.35,93.065
40905480,0.375,0.517,0.005,-56.787,-75.25,73.185
40905500,1.372,0.954,1.923,-12.355,-68.285,32.165
40905500,0.062,1.634,1.998,94.832,36.96,12.792
40905510,-1.748,1.997,0.9,255.29,16.082,-7.07
40905520,-0.512,-0.289,0.566,191.625,-3.675,91.227
40905530,-0.587,-1.998,0.509,117.337,-11.812,85.925
40905540,-0.44,-0.585,0.241,301.647,-59.325,0.017
40905550,-1.289,1.988,1.557,419.125,-84.28,-77.332
40905560,-1.296,-1.702,1.931,210.945,-138.74,-46.602
40905570,1.583,1.51,1.832,201.495,-213.675,-70.297
40905580,1.706,0.113,1.03,48.685,-128.625,-38.482
40905590,1.6,0.253,1.082,-8.102,-21.525,0.892
40905600,0.566,0.013,1.207,-56.595,60.06,32.48
40905610,-0.04,-0.072,1.353,-91,85.452,43.785
40905620,-0.193,-0.206,1.436,-123.06,73.15,42.945
40905630,-0.321,-0.208,1.42,-148.82,45.92,44.117
40905640,-0.468,-0.298,1.121,-156.975,6.597,43.242
40905650,0.019,-0.278,0.937,-159.407,-22.137,31.622
40905660,0.105,-0.375,0.726,-173.617,-10.657,23.922
40905670,0.278,-0.374,0.706,-161.087,0.087,21.577
40905680,0.467,-0.648,0.828,-141.225,17.745,30.625
40905690,0.021,-0.995,0.472,-117.722,58.345,51.257
40905700,0.266,-0.217,0.952,-107.572,9.8,50.242
40905710,-0.013,-0.193,1.111,-126.017,5.547,70.385
40905720,0.058,-0.448,0.982,-137.69,-6.895,74.182
40905730,0.015,-0.547,0.942,-134.12,-10.22,78.942
40905740,-0.115,-0.687,0.937,-128.87,-13.142,80.85
40905750,-0.068,-0.609,0.942,-113.102,-15.417,79.257
40905760,-0.077,-0.652,1.127,-101.202,-16.047,79.327
40905760,0.117,-0.701,0.983,-91.525,-12.425,73.92
40905780,-0.077,-0.697,0.859,-80.447,-2.327,62.422
40905780,0.345,-0.842,0.62,-66.08,12.582,44.502
40905800,-0.013,-0.734,0.369,-54.215,36.435,17.465
40905800,-0.365,-0.901,0.344,-46.952,52.062,-19.652
40905820,-0.307,-1.073,0.129,-27.055,55.58,-37.257
40905820,0.776,-1.36,0.517,-4.602,49.595,-83.912
40905830,-0.356,-1.159,0.293,3.535,41.615,-159.88
40905840,-0.57,-0.973,0.13,11.917,32.725,-165.497
40905850,0.025,-0.862,0.062,23.485,37.835,-100.59
40905860,0.285,-0.809,0.143,17.92,52.657,-64.942
40905870,0.273,-0.77,0.208,4.13,56.997,-71.61
40905880,0.512,-0.692,0.438,-4.462,55.475,-94.762
40905890,0.507,-0.715,0.629,-3.937,51.415,-120.172
40905900,0.323,-0.644,0.669,7.227,34.79,-146.825
40905910,0.288,-0.399,0.64,24.99,9.957,-155.277
40905920,0.443,-0.238,0.655,30.31,-7.56,-142.87
40905930,0.543,-0.378,0.615,30.782,-10.902,-127.365
40905940,0.383,-0.399,0.549,38.535,-11.182,-111.982
40905950,0.209,-0.255,0.562,41.562,-18.707,-101.727
40905960,0.066,-0.332,0.608,31.727,-26.512,-89.337
40905970,-0.027,-0.58,0.551,23.66,-32.935,-70.385
40905980,-0.538,-0.57,0.531,25.497,-43.575,-20.545
40905990,-0.464,-0.638,0.377,15.627,-62.65,5.565
40906000,-0.564,-0.667,0.038,14.7,-70.682,44.835
40906010,-0.843,-0.354,-0.354,15.995,-68.355,91.647
40906020,-0.916,0.046,-0.653,7.525,-58.572,141.26
40906030,-0.938,0.275,-0.811,-11.375,-37.31,206.482
40906040,-0.965,0.196,-0.427,-28.017,-33.915,257.67
40906050,1.964,-1.802,1.998,80.57,46.042,239.12
40906060,0.071,-1.998,0.89,269.605,129.587,174.685
40906070,-1.944,-1.415,0.133,344.977,-152.32,25.392
40906080,1.466,1.355,1.207,404.145,-112.577,63.437
40906090,-1.165,1.108,1.768,347.83,-98.927,-4.042
40906100,-0.101,-0.928,1.871,234.377,-78.155,-63.84
40906110,0.327,0.775,1.995,209.09,-112.402,-123.042
40906120,1.768,0.899,1.859,112.857,-109.042,-77.735
40906130,0.721,0.015,1.292,5.005,-45.465,-17.692
40906140,0.162,-0.359,0.978,-35.665,-7.84,3.08
40906150,-0.088,-0.445,0.809,-39.935,-1.015,-0.245
40906160,-0.096,-0.552,0.756,-29.12,-6.44,-10.587
40906170,0.121,-0.486,0.871,-14.997,-11.287,-18.882
40906170,0.275,-0.329,0.928,-8.102,-10.622,-16.047
40906190,0.096,-0.416,0.934,-7.84,-6.457,-4.602
40906190,0.051,-0.318,0.997,-7.367,-7.14,-2.327
40906210,0.124,-0.27,1.096,-13.772,-9.537,-2.852
40906210,0.082,-0.142,1.204,-28.612,-10.85,-3.85
40906230,0.115,-0.146,1.273,-52.902,-13.72,-5.022
40906230,0.173,-0.068,1.343,-84.262,-12.775,-7.035
40906250,0.208,-0.082,1.324,-123.707,-7.332,-7.175
40906250,0.221,-0.525,0.614,-115.85,43.767,1.452
40906260,-1.145,0.024,1.394,-125.37,44.502,-24.92
40906270,0.052,-0.419,1.087,-195.002,62.667,-61.092
40906280,0.232,-0.523,1.127,-218.452,91.402,-57.347
40906290,-0.073,-0.292,1.101,-230.72,103.81,-80.01
40906300,-0.16,-0.301,0.978,-244.195,107.082,-94.902
