time[ms],accX[g],accY[g],accZ[g],Value 1,Value 2,Value 3
59817280,0.317,-0.171,1.039,37.047,49.892,7.612
59817290,0.203,-0.149,1.075,24.132,34.055,12.617
59817300,0.169,-0.217,1.041,12.495,12.652,15.645
59817310,0.239,-0.272,0.979,3.43,-5.005,15.487
59817320,0.323,-0.276,0.929,-1.995,-18.13,14.35
59817330,0.355,-0.315,0.899,-5.337,-24.92,14.63
59817340,0.365,-0.327,0.888,-8.61,-30.467,13.3
59817350,0.417,-0.321,0.864,-12.687,-32.427,11.025
59817360,0.472,-0.3,0.86,-16.765,-33.897,9.607
59817370,0.478,-0.27,0.882,-23.047,-32.76,10.692
59817380,0.507,-0.249,0.892,-32.515,-34.107,13.037
59817390,0.542,-0.234,0.904,-44.747,-32.41,17.062
59817400,0.532,-0.214,0.948,-59.202,-31.675,21.035
59817410,0.619,-0.129,1.006,-79.835,-28.525,25.707
59817420,0.711,-0.065,1.074,-111.265,-24.08,33.285
59817430,0.797,-0.22,1.069,-146.142,-21.752,52.552
59817440,1.188,-0.01,1.021,-170.852,-20.947,78.925
59817450,0.804,-0.428,1.074,-204.382,3.202,110.075
59817460,0.333,-0.519,1.181,-219.66,-18.882,145.145
59817470,0.276,-0.362,1.371,-215.897,-53.847,153.702
59817480,-0.238,-0.894,1.415,-208.372,-108.395,127.33
59817490,0.471,-1.622,1.098,-189.595,-190.19,83.807
59817500,1.567,-1.011,0.65,-134.68,-181.772,39.27
59817510,0.708,-0.572,0.338,-114.485,-112.402,23.642
59817510,0.732,0.148,0.349,-93.817,-82.95,0.682
59817530,1.438,1.074,0.174,-74.06,-65.73,-45.15
59817530,0.325,1.278,0.156,-108.972,-129.657,-152.11
59817550,-0.041,1.6,0.314,-34.545,-192.517,-302.417
59817550,-0.951,0.852,0.309,-66.482,-201.705,-248.465
59817570,-0.688,0.267,0.302,-50.732,-160.212,-172.655
59817570,-1.071,-0.596,0.324,-27.86,-102.357,-89.652
59817580,-0.866,-1.692,0.058,7.822,-63.192,-11.06
59817590,-0.981,-1.995,-1.064,50.435,-27.037,61.337
59817600,1.994,-1.998,-1.997,63.28,161.91,24.43
59817610,-0.341,-0.834,-0.209,125.212,343.385,-75.267
59817620,-1.188,1.97,1.994,170.485,295.732,-127.977
59817630,1.646,-0.034,0.569,181.685,265.825,-57.522
59817640,0.639,-0.786,1.171,204.155,239.942,-33.582
59817650,0.672,-0.087,0.852,225.207,193.69,-32.882
59817660,0.697,0.154,1.098,224.262,186.427,-3.36
59817670,0.215,-0.091,1.36,185.517,186.532,14.315
59817680,0.095,-0.093,1.403,141.347,164.08,11.007
59817690,-0.033,-0.113,1.474,94.307,122.867,6.51
59817700,0.144,-0.122,1.345,52.15,69.912,4.935
59817710,0.188,-0.144,1.247,16.31,25.217,11.427
59817720,0.206,-0.208,1.154,-13.055,-11.392,17.465
59817730,0.277,-0.29,1.015,-35.857,-35.647,19.04
59817740,0.378,-0.366,0.862,-48.947,-47.635,15.715
59817750,0.474,-0.408,0.762,-53.532,-44.467,11.112
59817760,0.513,-0.423,0.727,-51.957,-35.84,8.032
59817770,0.501,-0.402,0.765,-49.805,-24.255,7.682
59817780,0.504,-0.35,0.823,-50.085,-18.13,8.802
59817790,0.449,-0.359,0.93,-55.667,-13.965,13.632
59817800,0.568,-0.253,0.883,-61.827,-21.7,20.72
59817810,0.467,-0.311,0.996,-78.592,-22.977,30.642
59817820,0.515,-0.281,1.033,-97.125,-31.99,39.532
59817830,0.574,-0.259,1.036,-120.312,-37.817,51.082
59817830,0.601,-0.391,0.973,-143.08,-43.225,65.117
59817850,0.577,-0.479,0.917,-157.85,-46.427,82.022
59817850,0.59,-0.657,0.848,-167.562,-66.132,103.46
59817870,0.624,-0.718,1.012,-156.362,-81.462,112.945
59817870,0.578,-1.108,0.988,-133.542,-98.56,110.81
59817890,0.637,-1.232,0.843,-97.492,-120.907,98.402
59817890,0.369,-0.886,0.642,-52.815,-135.485,81.025
59817910,0.229,-1.654,-0.473,-30.817,-165.987,80.937
59817910,0.988,-1.998,-0.231,-14.35,-181.317,91.245
59817920,1.098,-1.646,-0.791,54.46,-159.6,101.815
59817930,1.353,-0.628,-1.194,60.777,-143.22,90.632
59817940,1.49,-0.468,-0.766,-5.407,-168.927,47.53
59817950,1.415,-0.01,-0.325,-45.08,-185.185,-29.645
59817960,0.627,0.494,0,-64.732,-191.432,-99.102
59817970,-0.296,0.752,0.268,-76.44,-201.337,-136.29
59817980,-0.796,0.822,0.656,-86.555,-184.572,-107.905
59817990,-1.106,0.474,0.98,-61.057,-140.385,-61.39
59818000,-1.457,0.437,1.008,-39.007,-92.802,-5.775
59818010,-1.553,0.647,0.81,-2.415,-56.822,30.187
59818020,-1.304,0.39,0.409,-12.215,-48.195,46.462
59818030,0.889,-1.557,1.534,-22.47,35.227,68.6
59818040,1.211,-1.998,-1.19,99.505,382.882,-63.56
59818050,-0.484,1.556,0.912,257.46,337.942,-256.917
59818060,1.041,0.289,1.207,199.045,310.187,-140.612
59818070,1.276,-0.711,0.774,259.227,227.01,-47.162
59818080,1.048,0.387,0.951,257.617,190.242,-7.35
59818090,0.836,0,0.984,238.455,168.175,68.582
59818100,0.346,-0.225,1.099,213.15,147.98,108.902
59818110,-0.376,-0.245,1.555,178.78,118.492,108.85
59818120,-0.511,-0.143,1.568,130.69,77.962,69.125
59818130,-0.269,-0.239,1.387,76.002,45.57,25.147
59818140,0.125,-0.357,1.155,36.995,15.61,-4.987
59818150,0.481,-0.33,0.845,20.177,-6.335,-8.47
59818160,0.737,-0.694,0.31,30.975,-8.907,4.165
59818170,0.586,-0.737,0.443,68.425,16.817,6.72
59818180,0.521,-0.243,0.917,83.37,37.38,-3.64
59818190,0.505,-0.083,1.087,60.97,40.6,1.557
59818200,0.253,-0.215,1.073,27.632,30.835,11.795
59818210,0.18,-0.354,0.937,6.912,20.597,10.972
59818220,0.294,-0.404,0.859,3.045,14.332,2.677
59818230,0.323,-0.346,0.903,1.977,14.087,-3.342
59818240,0.332,-0.332,0.921,-3.237,10.36,-5.95
59818250,0.346,-0.33,0.907,-10.675,8.155,-6.93
59818260,0.342,-0.327,0.91,-17.045,4.62,-7.49
59818260,0.371,-0.343,0.881,-22.295,3.5,-6.772
59818280,0.375,-0.348,0.858,-24.43,1.295,-5.11
59818280,0.35,-0.394,0.865,-25.672,1.645,-2.94
59818300,0.332,-0.354,0.9,-27.177,-1.172,-1.557
59818300,0.309,-0.329,0.958,-32.602,-4.567,0.21
59818310,0.296,-0.273,1.024,-43.837,-11.235,1.172
59818320,0.298,-0.318,1.034,-60.112,-18.532,2.415
59818330,0.361,-0.264,1.059,-79.59,-28.7,5.565
59818340,0.451,-0.279,1.041,-99.68,-36.557,12.285
59818350,0.502,-0.329,1.004,-118.492,-41.685,21.595
59818360,0.566,-0.423,0.944,-132.527,-42.577,30.397
59818370,0.623,-0.478,0.871,-139.16,-41.457,38.43
59818380,0.622,-0.554,0.847,-140.175,-40.53,49.735
59818390,0.75,-0.645,0.889,-133.595,-43.172,62.142
59818400,0.72,-0.9,0.967,-113.435,-41.265,67.375
59818410,0.578,-1.108,0.764,-86.957,-41.842,61.985
59818420,0.723,-1.087,0.645,-56.227,-46.532,41.755
59818430,0.513,-1.195,0.849,-33.197,-47.302,34.545
59818440,-0.043,-1.791,-0.225,-3.377,-61.757,27.825
59818450,1.23,-1.995,-1.313,12.25,-68.775,-25.707
59818460,1.542,-0.841,-1.503,38.272,-40.407,-87.762
59818470,0,-0.881,-0.849,-39.567,-67.235,-168.962
59818480,-0.44,-1.568,-0.199,-110.95,-17.57,-131.792
59818490,-0.807,-1.139,0.203,-97.212,13.002,-78.522
59818500,-1.201,-0.818,0.342,-79.065,6.825,-6.422
59818510,-0.927,-0.58,0.171,-59.535,-3.097,73.675
59818520,-0.531,-0.21,-0.05,-45.535,-23.117,127.015
59818530,-0.342,0.062,-0.131,-49.542,-41.44,148.382
59818540,0.018,0.846,-0.28,-59.08,-38.237,147.175
59818550,-0.088,1.324,1.508,-58.8,-33.565,136.062
59818560,1.312,1.952,1.919,102.83,-59.955,30.467
59818570,1.567,-0.51,0.521,197.89,62.02,-125.247
59818580,-1.288,-1.976,1.516,170.607,92.242,-164.307
59818580,1.409,1.535,0.488,330.347,74.392,-224.472
59818600,1.393,-0.674,0.652,271.617,147.122,-153.737
59818600,1.144,0.644,1.289,277.917,152.162,-73.342
59818620,0.878,0.388,1.615,225.12,139.772,2.485
59818620,-0.237,0.265,1.882,130.34,110.652,48.405
59818640,-0.521,-0.119,1.643,45.202,50.19,48.685
59818640,-0.078,-0.172,1.342,-12.705,-3.972,30.52
59818660,0.089,-0.271,1.137,-53.917,-34.405,13.965
59818660,0.299,-0.406,0.879,-76.317,-48.947,8.732
59818670,0.491,-0.448,0.525,-67.48,-52.027,10.027
59818680,0.682,-0.817,0.296,-39.217,-36.767,15.89
59818690,0.688,-0.589,0.406,1.907,-15.33,19.687
59818700,0.597,-0.719,0.452,34.527,5.652,25.9
59818710,0.448,-0.579,0.629,63.245,21.822,26.145
59818720,0.345,-0.465,0.771,78.627,35.28,20.965
59818730,0.312,-0.395,0.878,82.81,42.735,14.28
59818740,0.28,-0.242,0.999,76.755,44.45,8.785
59818750,0.249,-0.184,1.086,59.045,40.337,5.302
59818760,0.219,-0.191,1.084,33.985,31.167,3.255
59818770,0.235,-0.265,1.011,11.83,19.215,2.852
59818780,0.232,-0.348,0.934,-2.03,9.572,2.03
59818790,0.257,-0.382,0.892,-7.472,4.27,0.017
59818800,0.276,-0.386,0.876,-8.785,1.102,-2.065
59818810,0.283,-0.379,0.884,-8.785,-0.35,-3.71
59818820,0.329,-0.35,0.889,-9.695,-2.275,-5.285
59818830,0.347,-0.338,0.895,-12.985,-1.592,-5.355
59818840,0.34,-0.331,0.905,-17.237,-2.485,-4.497
59818850,0.3,-0.334,0.946,-23.537,-2.852,-2.905
59818860,0.293,-0.296,0.991,-33.775,-7.63,-2.345
59818870,0.282,-0.332,1.026,-48.965,-12.722,-0.612
59818880,0.315,-0.201,1.079,-64.137,-22.085,0.7
59818890,0.343,-0.289,1.095,-87.29,-28.367,4.952
59818900,0.384,-0.225,1.108,-111.44,-35.787,10.71
59818910,0.423,-0.279,1.087,-135.782,-41.212,21.577
59818920,0.46,-0.313,1.053,-155.785,-48.142,34.125
59818930,0.541,-0.353,1.035,-170.415,-49.752,47.495
59818940,0.519,-0.41,1.031,-178.377,-54.127,62.037
59818950,0.65,-0.551,1.022,-177.887,-60.235,74.882
59818960,0.662,-0.763,1.118,-166.477,-60.97,83.737
59818970,0.654,-0.974,1.029,-143.08,-57.96,81.462
59818980,0.648,-0.972,0.857,-111.615,-52.517,67.707
59818990,0.744,-1.212,0.704,-86.607,-47.442,64.575
59819000,0.279,-1.016,0.655,-49.28,-50.277,89.74
59819000,0.338,-0.814,0.708,2.362,-71.295,114.695
59819010,0.545,-0.392,0.725,68.617,-103.057,136.22
59819020,0.042,-0.143,0.73,145.197,-144.13,167.37
59819030,0.691,0.353,0.155,184.73,-137.007,197.015
59819040,0.607,0.9,-0.466,194.232,-146.632,172.62
59819050,0.589,1.034,-0.41,141.102,-157.342,136.027
59819060,0.421,0.129,0.037,63.77,-150.08,112.857
59819070,0.051,-0.211,0.117,63.507,-144.042,85.977
59819080,0.106,0.354,-0.037,82.267,-133.367,60.497
59819090,-0.655,-0.069,0.017,50.977,-133.892,74.235
59819100,-0.776,-0.027,-0.044,54.635,-147.14,88.987
59819110,-0.58,-0.411,-0.085,49.175,-163.415,105.052
59819120,1.035,-1.992,-0.285,27.702,-30.625,161.227
59819130,-1.424,-1.998,0.914,43.102,78.067,78.435
59819140,-1.91,0.741,1.064,285.792,-28.91,-50.172
59819150,0.075,1.905,1.741,278.967,-91.595,-84.437
59819160,1.306,-0.199,1.135,243.057,-98.63,-140.017
59819170,1.136,-1.219,1.023,224.98,23.03,-145.145
59819180,1.979,0.88,0.871,282.117,66.15,-148.452
59819190,1.839,0.596,0.98,226.712,108.325,-61.512
59819200,1.163,0.392,1.218,149.31,139.002,25.182
59819210,-0.354,-0.139,1.605,77.805,130.235,75.95
59819220,-0.808,-0.187,1.645,28.315,66.447,61.582
59819230,-0.474,-0.211,1.496,-24.535,-1.4,21.14
59819240,0.051,-0.138,1.304,-69.177,-57.697,-4.392
59819250,0.35,-0.121,1.106,-104.405,-91.262,-5.722
59819260,0.469,-0.244,0.85,-126.735,-101.587,3.202
59819270,0.64,-0.511,0.457,-126.507,-88.585,10.08
59819280,0.588,-0.75,0.342,-97.037,-63.455,13.142
59819290,0.538,-0.661,0.433,-56.7,-40.792,11.777
59819300,0.496,-0.628,0.451,-23.065,-23.467,9.31
59819310,0.493,-0.688,0.443,8.767,-3.762,6.842
59819320,0.496,-0.6,0.543,42.402,11.532,3.727
59819330,0.463,-0.458,0.729,65.38,24.745,2.555
59819330,0.405,-0.318,0.902,71.137,29.225,3.325
59819350,0.314,-0.258,1.015,60.69,28.665,4.795
59819350,0.245,-0.269,1.049,42.717,18.865,4.322
59819370,0.255,-0.291,1.017,24.972,6.86,3.027
59819370,0.314,-0.316,0.954,11.077,-6.247,1.855
59819390,0.357,-0.351,0.884,1.715,-13.58,2.607
59819390,0.394,-0.376,0.827,-1.417,-18.602,3.85
59819410,0.429,-0.397,0.792,-1.137,-16.502,4.847
59819410,0.435,-0.4,0.8,0.297,-13.265,4.62
59819420,0.41,-0.388,0.826,-0.035,-9.135,4.112
59819430,0.421,-0.377,0.843,-2.782,-7.857,2.327
59819440,0.426,-0.342,0.871,-7.717,-6.545,1.662
59819450,0.425,-0.326,0.903,-15.207,-7.735,2.292
59819460,0.405,-0.286,0.969,-27.09,-9.17,3.22
59819470,0.406,-0.235,1.045,-44.555,-14.98,4.48
59819480,0.411,-0.168,1.142,-66.78,-26.687,7.35
59819490,0.429,-0.219,1.185,-96.267,-40.057,12.355
59819500,0.352,-0.16,1.243,-132.72,-52.255,16.502
59819510,0.356,-0.154,1.228,-171.762,-63.647,20.3
59819520,0.349,-0.17,1.201,-209.825,-70.455,23.38
59819530,0.433,-0.101,1.132,-241.412,-71.767,26.232
59819540,0.166,-0.33,1.008,-267.767,-74.165,26.985
59819550,0.184,-0.565,0.957,-286.002,-94.097,28.63
59819560,0.481,-0.721,1.051,-284.812,-109.882,16.362
59819570,0.732,-1.162,1.469,-271.635,-91.822,-11.077
59819580,1.045,-1.155,1.265,-229.057,-46.217,-70.735
59819590,1.154,-0.961,0.616,-190.872,47.285,-133.56
59819600,1.021,-1.181,0.459,-163.765,161.7,-172.077
59819610,0.418,-1.369,1.501,-126.735,304.447,-148.242
59819620,-1.006,-0.786,0.656,-15.942,316.365,-190.785
59819630,-1.287,-0.288,0.29,65.362,264.372,-150.937
59819640,-1.261,0.192,-0.422,103.757,214.812,-65.52
59819650,-0.877,0.182,-0.492,82.232,125.44,-7.7
59819660,0.044,-0.275,-0.745,51.765,79.187,16.642
59819670,-0.028,-0.017,-0.801,28.35,56.892,11.655
59819670,-0.307,-0.581,-0.674,-23.782,29.155,1.207
59819690,-0.379,-0.986,-0.609,-46.217,13.335,5.652
59819690,-0.565,-0.803,-0.676,-43.767,1.785,23.012
59819710,0.693,-0.998,-0.939,-54.092,-6.527,35.437
59819710,1.997,-0.265,-0.503,-51.222,26.757,-21.332
59819730,0.99,-1.102,1.973,-12.425,-108.815,-258.912
59819730,-0.276,-1.998,0.821,61.74,-181.772,-310.047
59819750,1.998,0.116,-0.715,291.007,22.487,-257.792
59819750,1.347,0.798,0.422,253.89,156.782,-250.04
59819760,0.148,-0.539,0.288,254.537,197.837,-154.647
59819770,1.96,0.725,0.363,357.63,215.582,-98.857
59819780,1.478,0.644,0.958,310.205,306.442,-22.365
59819790,1.064,-0.475,1.407,237.09,362.775,46.812
59819800,-1.27,0.437,1.998,154.227,319.165,42.175
59819810,-1.778,0.809,1.889,49.455,135.992,21.735
59819820,-0.766,-0.314,1.294,-14.42,-15.925,12.04
59819830,0.358,-0.567,0.835,-20.807,-76.247,-10.552
59819840,0.465,-0.408,0.846,-14.402,-78.68,-17.552
59819850,0.685,-0.4,0.764,-12.162,-73.377,-16.852
59819860,0.625,-0.295,0.797,-9.537,-60.497,-11.497
59819870,0.462,-0.361,0.831,-8.61,-48.702,-7.63
59819880,0.512,-0.271,0.833,-7.665,-41.825,-11.585
59819890,0.43,-0.201,0.905,-10.15,-36.015,-11.69
59819900,0.485,-0.256,0.85,-14.385,-35.297,-7.035
59819910,0.452,-0.293,0.832,-18.235,-31.185,-4.655
59819920,0.371,-0.297,0.881,-20.125,-26.6,-4.83
59819930,0.266,-0.315,0.946,-22.295,-27.457,-5.932
59819940,0.2,-0.354,0.966,-24.71,-36.89,-10.132
59819950,0.276,-0.343,0.918,-26.425,-47.092,-17.202
59819960,0.346,-0.296,0.879,-28.017,-53.795,-22.592
59819970,0.4,-0.24,0.856,-29.575,-54.442,-22.977
59819980,0.476,-0.237,0.814,-31.342,-53.55,-18.287
59819990,0.481,-0.256,0.8,-32.27,-48.37,-11.095
59820000,0.493,-0.283,0.794,-31.097,-44.485,-3.972
59820010,0.478,-0.302,0.801,-29.89,-39.812,1.995
59820020,0.481,-0.3,0.781,-28.017,-37.975,6.125
59820030,0.488,-0.302,0.768,-25.06,-32.812,9.992
59820040,0.473,-0.325,0.743,-21.42,-28.752,13.405
59820050,0.48,-0.346,0.718,-16.572,-20.072,17.115
59820060,0.474,-0.368,0.726,-10.062,-12.617,18.725
59820070,0.484,-0.335,0.735,-3.115,-3.64,20.65
59820080,0.476,-0.317,0.733,3.762,3.185,23.765
59820080,0.506,-0.321,0.72,10.815,13.72,28.542
59820100,0.509,-0.372,0.704,17.272,22.977,32.077
59820100,0.511,-0.43,0.725,24.29,34.475,32.69
59820120,0.439,-0.454,0.789,30.012,40.372,28.49
59820120,0.431,-0.396,0.85,33.075,43.015,21.752
59820140,0.378,-0.336,0.928,30.502,39.322,16.292
59820140,0.345,-0.295,0.983,23.187,31.815,13.755
59820160,0.302,-0.276,1.017,11.9,17.745,12.215
59820160,0.312,-0.267,1.016,-1.137,2.817,11.445
59820170,0.365,-0.25,1.016,-15.382,-13.3,11.007
59820180,0.412,-0.232,1.025,-33.617,-27.527,13.422
59820190,0.42,-0.201,1.068,-55.667,-42.63,18.305
59820200,0.476,-0.144,1.115,-83.072,-57.26,24.955
59820210,0.544,-0.126,1.162,-116.83,-71.592,33.845
59820220,0.725,-0.276,1.104,-147.175,-98.437,50.82
59820230,0.624,0.207,1.133,-179.48,-115.92,64.837
59820240,0.644,-0.14,1.023,-226.992,-115.745,90.737
59820250,0.439,-0.167,1.106,-261.415,-113.645,115.867
59820260,0.207,-0.691,1.329,-288.942,-150.57,134.277
59820270,0.605,-0.866,1.603,-280.402,-196.945,133.927
59820280,1.075,-1.597,1.625,-244.387,-217.7,103.74
59820290,1.425,-0.954,0.692,-171.517,-187.232,63.21
59820300,0.88,-0.157,0.019,-119.315,-142.712,50.277
59820310,1.712,0.019,0.937,-83.93,-138.547,38.115
59820320,1.6,0.08,1.35,-8.82,-80.552,44.24
59820330,0.44,1.56,1.112,107.345,-72.432,-33.495
59820340,-0.115,1.969,1.097,178.5,-108.395,-89.53
59820350,-0.348,1.263,1.008,169.785,-122.657,-43.155
59820360,0.058,0.894,0.386,199.745,-123.725,-20.387
59820370,0.046,0.739,-0.163,207.672,-83.51,7.245
59820380,0.035,0.09,-0.357,157.447,-53.252,42.735
59820390,0.062,-0.708,-0.328,112.227,-55.177,41.58
59820400,-0.197,-0.895,-0.696,97.3,-85.575,-2.047
59820410,-0.808,-0.552,-0.826,76.142,-101.815,-24.5
59820420,-1.27,-1.303,-0.795,14.21,-112.245,-0.455
59820420,-0.917,-1.998,0.035,-35.035,-57.715,123.812
59820440,1.946,-1.998,-1.898,87.622,346.255,54.67
59820440,-1.611,0.911,0.044,317.59,383.582,-129.01
59820460,-0.134,1.342,1.896,233.712,307.667,-163.187
59820460,1.277,-0.578,0.466,260.837,179.725,-98.455
59820480,1.296,-0.178,0.651,299.022,186.357,-92.977
59820480,1.522,0.609,0.499,279.037,238.105,-75.092
59820500,1.392,0.383,1.033,227.517,316.365,-0.647
59820500,-0.423,-0.352,1.923,142.03,319.602,51.327
59820510,-1.752,0.967,1.958,63.122,176.4,32.182
59820520,-0.596,-0.366,1.355,-3.465,34.037,23.152
59820530,0.12,-0.537,0.925,-14.315,-27.37,4.847
59820540,0.213,-0.391,0.962,-11.655,-43.032,-4.445
59820550,0.271,-0.335,1.029,-15.505,-57.715,-7.472
59820560,0.256,-0.11,1.087,-26.057,-76.93,-7.542
59820570,0.465,-0.286,0.849,-34.562,-92.452,-0.735
59820580,0.602,-0.426,0.663,-31.692,-87.43,3.605
59820590,0.561,-0.499,0.598,-20.3,-68.11,2.275
59820600,0.557,-0.482,0.565,-4.322,-43.05,-3.535
59820610,0.548,-0.39,0.679,10.185,-17.01,-10.202
59820620,0.51,-0.358,0.76,17.622,1.26,-12.425
59820630,0.459,-0.314,0.855,19.25,11.48,-12.757
59820640,0.406,-0.235,0.935,16.012,12.6,-12.215
59820650,0.394,-0.225,0.924,8.732,7.997,-9.52
59820660,0.424,-0.258,0.872,2.205,3.01,-7.42
59820670,0.323,-0.248,0.89,-2.537,2.677,-8.54
59820680,0.453,-0.267,0.794,-0.542,1.662,-6.667
59820690,0.537,-0.332,0.762,0.875,10.045,-2.17
59820700,0.46,-0.316,0.807,3.727,18.795,-1.382
59820710,0.419,-0.305,0.846,4.83,26.127,-0.577
59820720,0.355,-0.273,0.889,4.917,27.667,-1.4
59820730,0.335,-0.266,0.893,3.535,27.16,-1.417
59820740,0.296,-0.242,0.924,2.502,23.047,-1.627
59820750,0.282,-0.274,0.924,0.21,18.707,-0.717
59820760,0.276,-0.296,0.907,-0.77,11.847,-1.102
59820770,0.292,-0.28,0.904,-0.77,8.295,-0.927
59820780,0.277,-0.27,0.905,-0.35,3.15,-0.385
59820790,0.286,-0.279,0.905,-0.227,0.385,0.822
59820800,0.316,-0.287,0.896,0.56,-4.2,1.61
59820810,0.244,-0.282,0.945,0.472,-6.825,2.712
59820820,0.259,-0.246,0.952,-0.612,-15.837,2.572
59820830,0.344,-0.24,0.911,-1.435,-21.857,4.55
59820830,0.419,-0.235,0.878,-2.8,-25.637,7.227
59820850,0.418,-0.22,0.877,-4.935,-23.502,12.302
59820850,0.392,-0.267,0.874,-6.475,-22.89,17.745
59820870,0.392,-0.324,0.859,-6.335,-20.405,21.017
59820870,0.419,-0.342,0.84,-5.477,-19.495,20.352
59820890,0.414,-0.341,0.853,-5.372,-16.03,18.83
59820890,0.39,-0.324,0.879,-6.387,-15.732,17.202
59820910,0.386,-0.302,0.901,-9.642,-16.082,15.837
59820910,0.395,-0.271,0.924,-15.505,-19.932,15.382
59820920,0.396,-0.252,0.961,-24.395,-24.342,17.605
59820930,0.397,-0.235,1.002,-36.54,-33.145,21.805
59820940,0.429,-0.24,1.039,-53.445,-44.047,27.807
59820950,0.447,-0.196,1.082,-73.955,-58.905,35.7
59820960,0.52,-0.187,1.078,-97.772,-73.92,46.095
59820970,0.344,-0.417,1.143,-120.715,-90.807,59.535
59820980,0.926,-0.107,0.93,-120.785,-134.12,81.655
59820990,0.625,-0.089,1.185,-145.11,-139.79,105.787
59821000,0.196,-1.13,1.003,-163.8,-194.145,131.845
59821010,1.049,-1.097,0.644,-121.992,-210.472,123.025
59821020,0.886,-1.496,0.466,-66.99,-205.642,114.415
59821030,0.532,-1.75,0.545,2.415,-219.59,110.355
59821040,1.304,-1.925,-0.913,61.04,-216.895,124.53
59821050,1.998,-1.983,-1.598,71.785,-88.077,158.095
59821060,1.471,-1.117,-1.041,86.52,-11.182,105.665
59821070,0.366,-0.538,-0.854,43.032,-1.207,28.56
59821080,0.213,-0.462,-0.567,-28.542,15.907,2.502
59821090,-0.19,-0.425,-0.34,-77.91,11.69,-12.302
59821100,-0.821,-0.402,0.115,-108.08,-4.41,5.442
59821110,-0.881,-0.557,0.28,-115.92,-21.087,36.697
59821120,-0.782,0.311,0.71,-105.192,-19.11,75.127
59821130,-1.069,1.819,0.939,-84.84,-12.215,49.665
59821140,-0.468,1.402,0.298,-90.772,0.385,0.332
59821150,-0.657,0.816,0.193,-119.42,-5.145,6.107
59821160,0.266,-0.748,1.543,-25.672,78.225,17.115
59821170,-0.064,-1.998,0.176,161.875,174.125,-62.615
59821170,1.964,-0.646,0.337,326.305,165.602,-181.93
59821190,0.619,1.406,1.316,326.445,148.417,-182.77
59821190,1.917,-0.095,0.682,311.482,177.24,-92.365
59821210,1.12,0.871,1.507,289.782,216.65,-22.102
59821210,0.142,0.327,1.93,198.887,210.035,37.555
59821230,-0.747,0.1,1.972,98.892,148.12,48.142
59821230,-0.416,-0.039,1.633,21.665,60.672,26.25
59821250,-0.099,-0.175,1.399,-36.872,-3.237,12.092
59821250,0.185,-0.067,1.266,-81.602,-46.042,8.05
59821260,0.31,-0.294,1.023,-116.637,-67.62,14.28
59821270,0.5,-0.366,0.76,-126.052,-80.097,20.597
59821280,0.444,-0.598,0.589,-118.667,-72.31,25.515
59821290,0.455,-0.7,0.48,-96.932,-62.405,23.747
59821300,0.4,-0.657,0.538,-71.137,-49.805,17.57
59821310,0.44,-0.661,0.484,-47.092,-39.007,10.675
59821320,0.468,-0.666,0.504,-21.262,-25.48,4.952
59821330,0.397,-0.645,0.6,-2.852,-12.565,-3.027
59821340,0.455,-0.494,0.699,13.195,-5.582,-5.407
59821350,0.459,-0.423,0.783,20.632,-0.927,-4.165
59821360,0.438,-0.419,0.823,19.267,2.537,-0.735
59821370,0.431,-0.389,0.834,14.542,3.36,2.205
59821380,0.409,-0.413,0.812,9.502,2.94,4.987
59821390,0.438,-0.461,0.761,7.84,3.202,7.857
59821400,0.33,-0.473,0.828,8.417,1.942,9.345
59821410,0.343,-0.43,0.829,5.81,-0.28,7.752
59821420,0.361,-0.48,0.782,3.5,-3.08,5.53
59821430,0.356,-0.482,0.777,4.182,-2.52,3.43
59821440,0.369,-0.478,0.777,5.862,-3.465,0.787
59821450,0.391,-0.474,0.754,7.595,-2.572,-0.7
59821460,0.398,-0.485,0.734,11.34,-2.24,-1.697
59821470,0.384,-0.488,0.734,16.467,1.172,-2.31
59821480,0.38,-0.489,0.741,22.627,2.52,-3.832
59821490,0.364,-0.482,0.745,28.227,5.932,-5.687
59821500,0.391,-0.484,0.739,34.842,7.087,-8.172
59821510,0.43,-0.46,0.745,41.44,11.252,-9.38
59821520,0.456,-0.414,0.78,46.725,13.002,-8.382
59821530,0.489,-0.355,0.807,47.792,17.15,-4.637
59821540,0.423,-0.348,0.854,45.307,19.81,-0.035
59821550,0.353,-0.325,0.914,38.92,22.802,2.397
59821560,0.321,-0.353,0.926,29.732,20.352,1.627
59821570,0.32,-0.363,0.937,20.667,16.73,0.612
59821580,0.324,-0.346,0.942,12.46,9.135,-0.42
59821580,0.328,-0.327,0.958,2.607,2.747,0.647
59821600,0.33,-0.275,1.011,-9.817,-5.915,0.735
59821600,0.332,-0.288,1.029,-27.282,-13.09,0.647
59821620,0.37,-0.227,1.049,-49.07,-21.14,1.085
59821620,0.404,-0.256,1.065,-74.602,-26.81,4.882
59821640,0.449,-0.273,1.063,-99.837,-35.052,11.2
59821640,0.521,-0.282,1.059,-124.162,-40.582,20.037
59821660,0.579,-0.31,1.028,-146.702,-44.94,30.712
59821660,0.606,-0.393,0.94,-163.03,-45.885,41.212
59821670,0.68,-0.479,0.917,-171.412,-44.835,53.357
59821680,0.657,-0.595,0.95,-167.58,-42.525,63.017
59821690,0.903,-0.961,1.093,-151.235,-36.12,69.86
59821700,0.997,-1.346,0.975,-115.115,-23.73,62.79
59821710,0.801,-1.292,0.662,-67.672,-5.53,41.615
59821720,0.613,-1.162,0.4,-31.657,3.92,37.205
59821730,0.235,-1.418,0.442,-7.245,13.387,59.377
59821740,0.4,-1.998,0.286,37.87,7.595,60.217
59821750,0.892,-1.429,-0.62,112.892,-9.065,34.72
59821760,0.831,-0.546,-0.622,126.385,-7.332,13.265
59821770,0.194,-0.631,-0.996,85.452,-16.152,-8.015
59821780,-0.267,-0.126,-0.869,50.662,-60.06,-15.155
59821790,0.014,-0.48,-0.553,-14.28,-122.955,3.237
59821800,0.503,-0.538,-0.508,-40.95,-139.247,22.225
59821810,0.14,-0.165,-0.358,-54.32,-116.602,43.312
59821820,-0.225,-0.26,-0.241,-80.815,-107.8,66.027
59821830,-0.12,0.039,-0.264,-82.757,-109.357,91.332
59821840,0.03,0.752,-0.217,-77.402,-115.482,108.902
59821850,-0.295,1.072,0.019,-85.4,-132.177,121.135
59821860,-0.348,-0.214,1.998,16.117,-214.707,98.245
59821870,0.625,-1.92,1.962,223.65,-93.17,119.997
59821880,0.75,-1.998,0.543,333.182,62.107,37.765
59821890,-0.67,-0.209,1.735,355.845,-11.812,-155.767
59821900,1.374,1.163,0.729,372.225,58.432,-187.652
59821910,1.567,-0.712,0.807,318.185,164.99,-138.547
59821920,1.876,1.037,1.135,341.95,175.332,-101.185
59821920,1.313,0.519,1.409,258.16,208.495,-3.342
59821940,-0.289,-0.018,1.692,155.89,201.127,56.595
59821940,-0.852,-0.125,1.653,98.28,134.435,47.337
59821960,-0.442,-0.079,1.458,53.497,59.167,12.32
59821960,-0.036,-0.067,1.283,12.425,2.1,-4.375
59821980,0.095,-0.107,1.177,-18.795,-38.692,-2.677
59821980,0.122,-0.215,1.118,-44.012,-65.485,0.612
59822000,0.322,-0.251,1.024,-60.707,-86.992,0.595
59822000,0.474,-0.258,0.934,-74.252,-95.865,1.067
59822010,0.564,-0.267,0.843,-87.027,-94.832,2.852
59822020,0.617,-0.286,0.768,-97.16,-82.967,6.317
59822030,0.597,-0.338,0.727,-102.182,-66.255,11.48
59822040,0.518,-0.383,0.744,-101.045,-51.135,17.08
59822050,0.434,-0.444,0.788,-96.022,-43.977,22.207
59822060,0.437,-0.406,0.767,-89.512,-42.805,23.782
59822070,0.463,-0.489,0.723,-85.47,-39.042,23.975
59822080,0.49,-0.475,0.682,-76.387,-35.297,25.357
59822090,0.465,-0.518,0.66,-66.097,-30.835,28.857
59822100,0.457,-0.548,0.632,-53.515,-27.177,30.975
59822110,0.449,-0.579,0.614,-40.197,-21.945,31.762
59822120,0.426,-0.58,0.624,-26.635,-17.552,30.485
59822130,0.387,-0.571,0.65,-15.067,-12.477,28.612
59822140,0.345,-0.577,0.649,-5.18,-11.252,24.885
59822150,0.391,-0.523,0.665,2.555,-6.72,18.41
59822160,0.293,-0.523,0.723,7,-3.885,12.04
59822170,0.21,-0.67,0.731,11.865,-5.075,5.687
59822180,0.297,-0.562,0.682,23.31,-12.18,-2.625
59822190,0.349,-0.604,0.656,31.692,-13.09,-11.865
59822200,0.474,-0.469,0.63,39.97,-5.127,-20.107
59822210,0.626,-0.391,0.637,42.525,16.1,-21.332
59822220,0.597,-0.401,0.707,43.102,31.815,-15.365
59822230,0.56,-0.301,0.765,43.12,42.42,-6.282
59822240,0.555,-0.362,0.742,41.702,47.635,4.445
59822250,0.43,-0.485,0.747,43.54,50.995,14.822
59822260,0.305,-0.472,0.721,51.607,51.257,15.802
59822270,0.187,-0.604,0.693,64.82,53.2,11.637
59822280,0.175,-0.663,0.685,84.455,54.442,-2.73
59822290,0.388,-0.506,0.764,105.997,57.575,-17.937
59822300,0.586,-0.239,0.897,115.36,59.692,-21.297
59822310,0.599,-0.134,1.029,103.46,64.837,-10.237
59822320,0.379,-0.107,1.146,75.932,62.527,3.885
59822330,0.127,-0.138,1.216,43.295,50.085,13.615
59822330,0.039,-0.138,1.237,10.255,26.495,12.495
59822350,0.089,-0.162,1.223,-24.15,2.467,6.527
59822350,0.206,-0.133,1.214,-60.182,-18.27,1.05
59822370,0.295,-0.096,1.236,-99.785,-30.537,-0.35
59822370,0.356,-0.102,1.246,-141.627,-39.707,2.1
59822390,0.449,-0.119,1.272,-180.635,-45.045,9.012
59822390,0.591,-0.08,1.27,-218.54,-44.817,19.792
59822410,0.677,-0.212,1.181,-255.342,-36.592,35.56
59822410,0.592,-0.127,1.108,-281.977,-28.787,53.515
59822420,0.601,-0.285,1.011,-303.922,-35.227,68.39
59822430,0.727,-0.535,1.088,-311.797,-46.62,87.727
59822440,0.634,-1.139,1.4,-297.57,-64.295,94.517
59822450,0.805,-1.507,1.642,-251.107,-78.75,75.6
59822460,0.874,-1.229,1.347,-197.925,-74.76,49.875
59822470,1.194,-0.707,0.777,-144.392,-80.517,2.31
59822480,1.154,0.377,1.129,-97.842,-90.86,-9.012
59822490,1.621,1.101,1.041,-36.54,-65.94,-13.492
59822500,1.004,1.338,1.281,-7.945,-93.94,-94.202
59822510,-0.005,1.99,1.168,119.84,-159.775,-212.03
59822520,-0.934,1.232,1.41,146.527,-163.257,-174.037
59822530,-1.035,0.657,0.773,184.135,-168.752,-83.44
59822540,-1.014,1.046,0.31,241.832,-174.597,-50.085
59822550,-0.635,0.302,0.389,201.267,-134.47,33.932
59822560,-0.778,-0.721,0.345,157.605,-90.37,93.222
59822570,-1.108,-0.731,0.134,168.997,-97.79,56.525
59822580,-1.7,-0.812,0.032,156.677,-121.345,25.987
59822590,-1.52,-0.963,-0.312,120.33,-113.33,14.087
59822600,-1.78,-0.958,-0.808,63.577,-69.615,-6.65
59822610,0.856,-1.588,-0.79,-92.015,-27.86,-33.792
59822620,0.238,-1.789,-1.945,56.945,372.26,-243.355
59822630,-0.977,1.964,1.267,135.992,316.837,-393.785
59822640,1.274,1.725,1.323,149.45,300.02,-305.27
59822650,1.998,-0.423,-0.043,265.702,216.842,-127.802
59822660,1.921,1.209,0.878,250.845,263.567,-18.48
59822670,0.488,-0.022,1.596,170.712,308.105,105.717
59822670,-1.785,-0.574,1.97,129.08,245.385,122.255
59822690,-1.382,-0.189,1.805,88.095,129.185,41.842
59822690,-0.093,-0.057,1.315,33.88,34.107,-8.137
59822710,0.382,-0.07,1.075,-2.975,-11.69,-7.997
59822710,0.133,-0.26,1.07,-25.637,-32.532,7.507
59822730,0.102,-0.307,1.072,-43.207,-51.205,7.297
59822730,0.292,-0.238,1.056,-58.8,-71.225,2.24
59822750,0.484,-0.229,0.933,-74.445,-83.755,5.145
59822750,0.473,-0.356,0.827,-83.44,-83.37,11.515
59822760,0.405,-0.346,0.873,-87.797,-75.285,10.867
59822770,0.395,-0.3,0.904,-94.132,-69.895,7.367
59822780,0.485,-0.429,0.757,-98.84,-67.217,6.527
59822790,0.546,-0.403,0.596,-88.287,-60.9,10.15
59822800,0.427,-0.597,0.632,-74.427,-43.557,12.88
59822810,0.324,-0.468,0.768,-58.922,-34.615,7.91
59822820,0.328,-0.44,0.81,-54.95,-29.61,0.525
59822830,0.344,-0.496,0.767,-53.427,-27.895,-4.462
59822840,0.414,-0.473,0.742,-47.967,-29.592,-7.297
59822850,0.492,-0.402,0.698,-41.825,-28.735,-5.285
59822860,0.545,-0.479,0.532,-31.43,-23.555,2.362
59822870,0.604,-0.569,0.439,-10.255,-10.29,11.55
59822880,0.521,-0.551,0.429,18.672,5.897,17.605
59822890,0.412,-0.795,0.365,52.062,24.097,19.967
59822900,0.434,-0.742,0.448,96.652,34.58,16.362
59822910,0.433,-0.579,0.646,129.115,46.48,8.522
59822920,0.523,-0.271,0.912,139.685,54.39,4.637
59822930,0.548,-0.092,1.043,121.835,60.532,9.047
59822940,0.45,-0.148,1.063,92.032,59.395,19.425
59822950,0.354,-0.229,1.02,66.027,54.722,26.145
59822960,0.205,-0.277,1.06,46.182,45.29,25.077
59822970,0.176,-0.26,1.084,26.53,33.215,18.777
59822980,0.194,-0.255,1.072,5.81,16.8,11.917
59822990,0.21,-0.282,1.068,-14.822,2.94,8.19
59823000,0.233,-0.243,1.117,-35.647,-13.142,5.32
59823010,0.256,-0.207,1.176,-60.865,-29.242,5.985
59823020,0.388,-0.233,1.195,-85.872,-57.767,11.55
59823030,0.27,-0.153,1.28,-114.94,-81.375,21.35
59823040,0.143,-0.219,1.317,-151.707,-105.122,27.16
59823050,0.088,-0.141,1.309,-183.12,-132.422,25.725
59823060,-0.033,-0.272,1.314,-218.4,-165.13,23.152
59823070,-0.141,-0.428,1.537,-244.632,-207.48,17.465
59823080,-0.476,-0.889,1.449,-240.747,-270.095,-14.525
59823080,-0.374,-0.945,1.236,-222.897,-329.735,-73.395
59823090,0.051,-1.489,1.178,-224.385,-358.487,-142.187
59823100,0.699,-1.95,-0.208,-206.797,-268.695,-205.782
59823110,1.819,-1.986,-0.074,-174.282,-19.897,-228.287
59823120,-1.499,-1.959,1.173,-121.52,267.05,-92.68
59823130,-1.998,-1.607,1.191,-24.482,196.577,-98.28
59823140,-0.737,-1.7,0.296,47.495,178.465,14.14
59823150,-0.37,-1.348,-0.444,114.205,192.307,74.095
59823160,-0.895,-0.471,-0.179,117.162,195.807,93.415
59823170,-0.623,-1.221,-0.189,68.985,195.545,150.01
59823180,0.066,-1.031,-0.406,64.137,187.127,183.347
59823190,0.395,-0.411,-0.61,29.522,193.2,196.56
59823200,0.636,-0.063,-0.814,-42.157,190.592,185.797
59823210,1.983,0.938,-0.551,-112.14,237.877,159.32
59823220,1.876,1.322,0.952,-131.775,163.345,-15.627
59823230,1.998,1.997,1.657,25.182,-116.427,-427.577
59823240,0.745,0.857,0.338,111.422,5.547,-564.462
59823250,1.998,-1.894,-0.991,61.285,186.865,-367.587
59823260,1.833,1.866,0.147,326.777,208.127,-185.045
59823270,1.72,-0.403,0.764,322.49,224.385,8.015
59823280,0.597,0.433,1.727,332.552,240.572,114.135
59823290,-1.359,0.315,1.998,245.507,213.22,126.192
59823300,-1.676,0.001,1.909,133.752,135.38,54.81
59823310,-0.329,-0.065,1.407,51.38,42.07,-12.46
59823320,0.336,0.006,1.152,6.807,-14.56,-20.195
59823330,-0.001,0.075,1.299,-27.667,-44.327,2.012
59823340,0.015,-0.172,1.139,-61.11,-80.885,17.202
59823350,0.229,-0.38,0.937,-75.267,-102.847,19.932
59823360,0.418,-0.392,0.861,-75.302,-111.23,15.732
59823370,0.622,-0.426,0.702,-73.167,-106.33,14.84
59823380,0.634,-0.491,0.584,-65.03,-89.477,16.642
59823390,0.587,-0.487,0.589,-47.425,-65.87,19.407
59823400,0.471,-0.499,0.7,-33.022,-45.255,18.025
59823410,0.39,-0.37,0.804,-27.125,-30.257,12.162
59823420,0.396,-0.379,0.793,-28.367,-21.577,4.41
59823420,0.438,-0.405,0.749,-23.152,-12.757,-4.672
59823440,0.468,-0.439,0.715,-18.847,-4.882,-8.365
59823440,0.459,-0.39,0.724,-11.76,6.212,-6.037
59823460,0.411,-0.487,0.757,-5.005,14.367,-5.547
59823460,0.388,-0.398,0.809,2.065,19.565,-7.525
59823480,0.362,-0.393,0.818,5.11,21.752,-8.015
59823480,0.363,-0.423,0.789,9.17,24.43,-7.945
59823500,0.369,-0.424,0.787,15.96,26.915,-8.172
59823500,0.347,-0.414,0.805,23.152,29.47,-8.085
59823510,0.387,-0.399,0.803,29.855,30.922,-7.542
59823520,0.374,-0.381,0.847,34.387,32.865,-5.53
59823530,0.331,-0.288,0.97,33.617,31.395,-2.065
59823540,0.288,-0.19,1.092,20.79,23.257,1.487
59823550,0.252,-0.128,1.171,-4.725,9.817,5.285
59823560,0.338,-0.1,1.188,-37.642,-7.647,9.747
59823570,0.423,-0.131,1.199,-73.692,-22.977,17.552
59823580,0.529,-0.093,1.169,-107.117,-37.31,30.292
59823590,0.519,-0.206,1.155,-143.762,-40.145,46.06
59823600,0.495,-0.292,1.111,-169.942,-43.715,59.972
59823610,0.399,-0.444,1.034,-188.79,-44.817,72.8
59823620,0.398,-0.5,0.947,-193.55,-55.65,83.335
59823630,0.541,-0.387,0.996,-189.105,-54.897,87.377
59823640,0.72,-0.686,1.045,-184.782,-48.072,88.917
59823650,0.893,-1.106,1.221,-167.405,-28,84.91
59823660,1.184,-1.279,0.992,-128.712,-0.77,60.987
59823670,0.984,-0.94,0.706,-85.522,37.205,42.472
59823680,0.745,-0.498,0.531,-46.777,65.66,26.18
59823690,0.973,-0.461,0.178,-17.78,85.4,13.842
59823700,1.056,-0.053,-0.037,15.277,84.227,7.455
59823710,0.844,-0.338,0.314,12.337,71.172,-5.88
59823720,1.429,0.345,-0.595,32.427,54.337,-59.027
59823730,1.54,0.854,-0.093,5.827,23.012,-143.01
59823740,0.644,0.947,0.307,21.962,-56,-276.132
59823750,-0.461,0.567,0.25,23.275,-60.532,-252.98
59823760,-0.686,0.907,-0.293,65.502,-89.687,-222.04
59823770,-0.496,1.011,-0.372,53.9,-106.225,-177.135
59823780,-0.143,0.19,-0.416,-6.002,-85.715,-138.705
59823780,-0.126,-0.099,-0.462,-38.71,-49.455,-154.472
59823800,0.849,-0.462,-0.322,-77.927,-19.757,-178.552
59823800,-1.642,-1.998,1.504,-82.11,243.075,63.805
59823820,0.821,-0.655,-1.489,413.192,107.852,-53.935
59823820,-0.199,1.997,1.669,361.2,181.195,-286.142
59823830,-0.378,1.669,1.606,310.59,192.027,-160.492
59823840,1.998,-0.598,0.416,283.745,261.485,-83.055
59823850,0.124,1.099,1.963,149.065,316.697,7.962
59823860,-1.836,0.433,1.773,52.99,196.437,60.305
59823870,-1.164,-0.084,1.37,-0.875,57.172,34.825
59823880,-0.003,-0.483,0.99,-13.3,-14.297,7.07
59823890,0.007,-0.323,0.986,-10.552,-33.915,3.71
59823900,0.372,-0.315,0.918,-12.705,-41.65,-0.192
59823910,0.654,-0.445,0.768,-12.845,-38.78,1.12
59823920,0.583,-0.45,0.788,-6.212,-21.63,1.907
59823930,0.471,-0.409,0.847,0.735,-5.005,0.472
59823940,0.505,-0.349,0.872,4.987,5.652,-1.032
59823950,0.421,-0.249,0.924,4.322,14.052,-0.542
59823960,0.385,-0.265,0.925,-0.035,16.677,0.42
59823970,0.283,-0.269,0.951,-2.485,19.425,2.275
59823980,0.137,-0.256,0.98,-2.257,15.417,3.43
59823990,0.041,-0.261,0.988,-2.712,7.157,2.03
59824000,-0.031,-0.245,1.003,-2.87,-7.962,-2.205
59824010,-0.052,-0.237,1,-3.22,-25.62,-7.245
59824020,0.104,-0.269,0.953,-3.552,-44.87,-13.912
59824030,0.353,-0.259,0.863,-3.412,-53.935,-17.5
59824040,0.476,-0.186,0.822,-3.867,-51.922,-16.572
59824050,0.29,-0.272,0.808,-7.315,-44.59,-11.847
59824060,1.065,-0.696,0.666,-7.595,-28.245,-10.237
59824070,0.604,-0.138,0.765,17.29,2.222,-10.465
59824080,0.314,-0.226,0.884,13.527,18.532,-4.252
59824090,0.332,-0.278,0.875,10.36,25.725,0.577
59824100,0.313,-0.182,0.855,11.62,27.317,2.695
59824110,0.199,-0.251,0.923,6.475,28.822,7.35
59824120,0.094,-0.244,0.957,5.897,21.402,6.755
59824130,0.078,-0.213,0.972,3.902,10.395,4.34
59824140,0.128,-0.232,0.971,1.015,-2.502,1.19
59824150,0.148,-0.246,0.979,-0.84,-12.372,-1.435
59824160,0.125,-0.243,0.971,-2.362,-24.237,-3.465
59824170,0.212,-0.16,0.826,-2.187,-32.34,-3.657
59824170,0.44,0.016,0.803,-3.692,-33.722,1.802
59824190,0.413,-0.123,0.88,-15.592,-25.83,14.262
59824190,0.369,-0.238,0.933,-20.125,-22.435,23.485
59824210,0.538,-0.271,0.863,-22.505,-19.827,28.35
59824210,0.626,-0.229,0.813,-24.937,-10.92,28.105
59824230,0.362,-0.283,0.895,-23.065,3.045,27.562
59824230,0.417,-0.523,0.815,-15.872,9.45,25.655
59824250,0.411,-0.486,0.813,-8.225,18.462,21.07
59824250,0.391,-0.337,0.836,4.865,26.722,14.962
59824260,0.445,-0.436,0.839,11.235,36.085,13.737
59824270,0.32,-0.265,0.94,16.765,41.545,13.685
59824280,0.153,-0.263,0.995,14.297,38.377,15.155
59824290,0.107,-0.261,0.997,9.397,29.172,12.775
59824300,0.166,-0.289,0.964,5.407,18.795,9.537
59824310,0.199,-0.267,0.962,2.765,12.022,7.525
59824320,0.202,-0.274,0.96,-0.945,5.057,5.967
59824330,0.299,-0.297,0.926,-4.742,0.997,4.497
59824340,0.291,-0.293,0.935,-7.21,-1.067,3.727
59824350,0.282,-0.252,0.971,-11.217,-1.75,3.132
59824360,0.317,-0.238,0.992,-18.62,-5.145,2.397
59824370,0.402,-0.208,1.026,-29.47,-5.862,3.64
59824380,0.546,-0.138,1.1,-45.237,-4.9,8.977
59824390,0.658,-0.024,1.251,-74.515,4.235,19.302
59824400,0.709,-0.142,1.305,-113.487,18.62,33.582
59824410,0.67,-0.358,1.21,-146.807,29.872,58.642
59824420,1.171,-0.236,1.161,-164.57,39.042,96.915
59824430,1.152,-0.682,1.059,-177.782,57.907,128.187
59824440,1.213,-1.026,0.983,-168.665,69.65,160.807
59824450,0.816,-0.711,1.011,-137.112,60.637,199.01
59824460,0.181,-0.808,0.894,-113.225,2.345,218.855
59824470,-0.443,-1.413,0.909,-98.56,-46.252,241.465
59824480,1.677,-1.772,-0.396,-132.772,-84.945,176.435
59824490,1.998,-1.998,-1.417,-134.96,19.74,96.302
59824500,1.998,-1.492,-0.696,-220.64,80.412,-79.817
59824510,1.971,-0.122,-0.619,-187.337,41.107,-329.245
59824510,1.359,-0.182,0,-223.58,-28.857,-413.21
59824530,0.928,0.086,0.035,-202.072,-121.975,-432.617
59824530,-1.054,1.169,0.052,-145.372,-232.522,-465.097
59824550,-1.992,0.865,0.759,-126.245,-397.232,-475.685
59824550,-1.382,0.612,0.791,-92.47,-417.357,-337.487
59824570,-0.672,1.338,0.597,-43.575,-345.012,-225.417
59824570,-0.643,1.196,0.515,-44.467,-271.775,-221.987
59824580,-0.577,0.471,0.188,-74.077,-193.025,-239.085
59824590,0.537,-0.711,-0.584,-90.195,-74.427,-230.195
59824600,0.599,-1.998,1.489,-104.615,288.242,76.615
59824610,-0.729,-1.998,-0.139,281.417,523.092,406.577
59824620,0.73,1.346,0.34,496.44,420.892,59.832
59824630,-1.997,1.8,1.998,440.405,315.175,-57.627
59824640,0.957,-1.472,1.602,315.875,307.51,-45.15
59824650,1.17,1.096,1.929,257.512,259.752,-105.84
59824660,0.204,0.84,1.926,122.465,192.097,-16.17
59824670,-1.369,0.085,1.863,26.95,93.73,68.722
59824680,-0.802,-0.315,1.427,-26.495,-8.225,51.905
59824690,-0.109,-0.362,1.131,-57.277,-66.745,14.892
59824700,0.355,-0.298,0.967,-72.835,-93.747,2.257
59824710,0.485,-0.368,0.832,-80.167,-101.01,5.757
59824720,0.566,-0.472,0.702,-80.185,-96.477,7.962
59824730,0.57,-0.639,0.646,-71.925,-80.097,4.655
59824740,0.493,-0.259,0.639,-51.275,-61.652,-7.227
59824750,0.504,-0.581,0.738,-46.06,-43.242,-7.105
59824760,0.525,-0.291,0.833,-44.695,-31.185,-19.6
59824770,0.519,-0.289,0.915,-54.967,-21.822,-17.797
59824780,0.474,-0.259,0.99,-70.56,-19.145,-15.54
59824790,0.406,-0.114,1.089,-92.417,-14.157,-14.052
59824800,0.129,-0.439,1.125,-120.05,-16.45,-15.522
59824810,0.188,-0.353,1.141,-136.5,-39.585,-16.485
59824820,0.099,-0.314,1.193,-156.065,-68.092,-18.9
59824830,0.2,-0.349,1.198,-177.607,-102.602,-15.715
59824840,0.184,-0.676,1.071,-190.487,-139.825,-15.417
59824850,0.249,-0.91,0.935,-178.027,-148.557,-37.397
59824860,0.286,-0.892,0.896,-152.197,-145.267,-74.147
59824870,0.59,-1.216,0.509,-140.035,-134.05,-97.895
59824880,0.709,-1.972,0.598,-114.38,-85.452,-94.395
59824890,1.169,-1.998,0.202,-47.442,1.75,-41.965
59824900,-1.613,-1.279,1.064,32.69,90.632,123.62
59824910,-1.696,-1.029,0.533,121.87,31.867,189.612
59824920,0.556,-0.722,0.01,180.302,15.12,292.075
59824920,0.529,-0.41,-0.355,206.78,17.972,324.607
59824940,-0.255,0.139,-0.576,216.877,6.982,306.022
59824940,-0.36,0.193,-0.609,170.957,-9.397,317.765
59824960,0.16,0.388,-0.757,115.115,-30.275,316.82
59824960,0.541,1.025,-0.641,64.19,-42.402,288.995
59824980,0.431,0.988,0.344,-9.03,-78.522,206.255
59824980,1.998,-1.739,0.183,-41.387,-51.432,-78.277
59825000,-1.471,-1.998,0.604,119.472,-65.905,-389.812
59825000,0.279,-0.752,0.536,185.535,-87.99,-252.262
59825010,1.494,1.686,-0.367,320.057,68.6,-262.797
59825020,0.133,-0.675,1.11,280.052,155.592,-98.752
59825030,1.677,0.939,0.998,291.987,189.7,-28.84
59825040,0.047,-0.086,1.719,179.007,226.905,50.4
59825050,-0.968,0.124,1.854,120.82,171.675,48.037
59825060,-0.715,0.117,1.668,58.73,84.84,24.062
59825070,-0.096,0.008,1.311,1.592,12.915,11.655
59825080,0.135,-0.211,1.072,-33.092,-28.262,18.672
59825090,0.109,-0.383,0.955,-46.252,-47.915,25.095
59825100,0.126,-0.459,1.011,-46.497,-63.157,20.895
59825110,0.297,-0.337,0.949,-57.067,-71.382,11.095
59825120,0.436,-0.385,0.866,-64.662,-75.757,5.74
59825130,0.446,-0.367,0.893,-71.015,-71.925,4.165
59825140,0.439,-0.286,0.963,-80.902,-70,3.657
59825150,0.356,-0.321,1.085,-96.985,-71.032,7.21
59825160,0.649,-0.144,1.004,-110.687,-87.115,15.4
59825170,0.485,-0.217,1.058,-136.36,-88.392,27.667
59825180,0.508,-0.296,1.017,-156.327,-95.077,38.762
59825190,0.432,-0.359,1.004,-170.135,-96.197,44.537
59825200,0.508,-0.496,1.046,-176.05,-97.615,48.947
59825210,0.467,-0.718,1.087,-174.737,-97.842,55.475
59825220,0.326,-0.765,1.064,-158.865,-102.305,47.845
59825230,0.176,-0.852,0.862,-133.962,-99.347,25.095
59825240,0.219,-1.048,0.711,-107.73,-99.172,-7.297
59825250,0.813,-1.419,0.845,-89.705,-65.047,-27.597
59825260,1.089,-1.869,0.451,-51.94,10.972,-32.935
59825260,-0.908,-1.463,0.777,4.742,78.032,6.037
59825280,-1.459,-0.41,0.032,62.965,57.767,30.607
59825280,0.516,-0.519,-0.101,47.757,49.56,85.942
59825300,0.653,-0.515,-0.195,36.907,61.127,98.595
59825300,-0.207,0.015,-0.066,50.487,45.902,71.032
59825320,-0.39,0.125,-0.059,39.725,36.732,80.342
59825320,-0.078,0.309,-0.239,28.98,32.182,95.55
59825330,-0.099,0.68,-0.294,12.897,27.842,95.445
59825340,-0.136,0.915,-0.266,-15.907,27.247,86.73
59825350,-0.419,0.738,-0.249,-35.245,23.17,78.172
59825360,1.529,-0.005,1.028,-11.97,21.542,-29.137
59825370,1.133,-1.998,0.436,-77.945,40.337,-176.662
59825380,-1.982,-1.483,0.913,148.855,-57.627,-341.81
59825390,0.459,1.359,1.301,214.445,-81.777,-279.562
59825400,1.998,0.633,-0.353,255.377,57.347,-230.807
59825410,0.547,-0.512,0.912,257.46,163.747,-107.572
59825420,1.898,0.91,1.044,293.632,161.997,-19.092
59825430,-0.034,0.102,1.765,212.292,184.45,78.452
59825440,-1.553,-0.111,1.902,134.837,127.855,58.065
59825450,0.462,0.15,1.281,63.787,41.982,-8.12
59825460,0.728,-0.101,0.96,17.272,7.63,7.717
59825470,-0.02,-0.357,0.983,-1.487,-0.63,33.197
59825480,0.221,-0.539,0.89,0,-14.245,29.365
59825490,0.372,-0.369,0.864,-0.63,-19.985,21.525
59825500,0.235,-0.414,0.913,0.315,-24.64,23.24
59825510,0.308,-0.354,0.924,-2.065,-29.522,20.125
59825520,0.386,-0.307,0.941,-7.332,-36.645,19.88
59825530,0.367,-0.277,1.002,-14.997,-46.9,27.965
59825540,0.402,-0.252,1.055,-28.332,-62.3,36.907
59825550,0.358,-0.174,1.1,-50.4,-76.877,43.452
59825560,0.375,-0.167,1.103,-76.195,-90.142,46.112
59825570,0.311,-0.216,1.121,-105.367,-96.81,43.89
59825580,0.312,-0.254,1.076,-132.772,-104.107,34.58
59825590,0.395,-0.344,0.964,-155.942,-109.812,25.707
59825600,0.477,-0.448,0.829,-169.277,-116.252,22.68
59825610,0.498,-0.38,0.787,-173.337,-116.252,27.16
59825620,0.422,-0.509,0.842,-175.787,-123.06,38.395
59825630,0.482,-0.611,1.022,-175.455,-135.94,49.21
59825640,0.472,-0.783,1.04,-153.212,-158.217,45.202
59825650,0.545,-0.944,0.823,-124.897,-173.967,42.717
59825660,0.541,-1.205,0.67,-99.522,-175.087,39.952
59825670,0.614,-1.312,0.448,-63.402,-148.032,27.247
59825670,0.478,-1.833,0.452,-21.507,-117.512,7.962
59825690,0.213,-1.764,0.131,48.09,-90.247,12.302
59825690,0.098,-0.769,-0.014,98.192,-7.332,70.035
59825710,-0.389,-0.181,0.215,101.937,51.187,95.637
59825710,0.117,-0.07,0.221,88.147,57.837,72.415
59825730,-0.104,-0.121,-0.137,92.4,81.252,62.387
59825730,-0.535,-0.079,-0.277,91.035,72.17,58.082
59825750,-0.564,-0.328,-0.298,66.272,67.865,78.715
59825750,-0.199,-0.372,-0.394,44.642,64.505,94.832
59825760,-0.08,-0.255,-0.435,26.18,61.39,88.077
59825770,-0.092,-0.221,-0.591,3.36,60.095,73.447
59825780,0.503,0.266,1.048,-0.28,56.525,32.025
59825790,1.998,-1.285,1.778,38.465,42.612,-142.87
59825800,-0.394,-1.623,0.269,107.782,46.935,-219.187
59825810,0.749,-1.774,0.491,195.702,93.432,-193.725
59825820,1.993,0.678,0.519,296.012,133.997,-167.79
59825830,0.95,0.095,1.069,293.615,174.037,-100.065
59825840,0.92,0.267,1.388,291.392,182.507,-25.077
59825850,0.48,0.276,1.616,222.67,184.677,8.102
59825860,0.059,0.227,1.568,133.49,153.842,28.507
59825870,-0.305,-0.036,1.421,71.277,101.885,39.672
59825880,-0.334,-0.177,1.257,32.305,50.067,36.295
59825890,-0.104,-0.297,1.08,10.657,14.49,22.242
59825900,0.158,-0.402,0.962,2.065,-6.282,9.152
59825910,0.365,-0.264,0.916,-0.42,-13.842,3.29
59825920,0.439,-0.319,0.878,-6.912,-16.975,4.567
59825930,0.334,-0.294,0.928,-13.142,-15.172,7.367
59825940,0.282,-0.266,0.968,-20.265,-18.515,7.157
59825950,0.283,-0.232,1.005,-30.66,-22.19,6.51
59825960,0.277,-0.201,1.038,-45.237,-29.522,5.827
59825970,0.31,-0.192,1.06,-63.77,-34.79,5.635
59825980,0.344,-0.175,1.091,-86.082,-40.95,6.615
59825990,0.343,-0.218,1.128,-112.717,-45.57,11.042
59826000,0.465,-0.164,1.1,-134.522,-62.282,18.112
59826010,0.466,-0.306,1.066,-161.682,-64.242,30.502
59826010,0.451,-0.294,1.054,-181.965,-68.145,42.437
59826030,0.423,-0.38,1,-195.195,-68.46,50.645
59826030,0.394,-0.486,0.929,-202.195,-67.777,55.3
59826050,0.373,-0.464,0.891,-199.552,-67.445,57.89
59826050,0.439,-0.569,0.957,-195.51,-75.005,60.34
59826070,0.46,-0.802,1.067,-183.155,-81.217,63.437
59826070,0.397,-1.009,1.054,-153.545,-91.56,51.38
59826080,0.539,-1.127,0.947,-117.722,-89.425,30.397
59826090,0.293,-1.136,0.719,-86.852,-75.53,8.312
59826100,0.332,-1.226,0.532,-58.485,-60.34,-2.345
59826110,0.394,-1.398,0.479,-30.135,-33.67,16.397
59826120,-0.006,-1.176,0.26,17.71,-3.797,24.237
59826130,-0.478,-0.352,0.103,71.697,-7.28,14.332
59826140,0.052,-0.188,-0.065,66.867,-16.152,23.887
59826150,0.341,-0.218,-0.264,47.81,4.532,21.402
59826160,0.121,0.064,-0.421,37.292,-0.717,-11.025
59826170,-0.142,0.049,-0.336,3.937,20.265,-7.91
59826180,-0.147,-0.091,-0.245,-26.582,28.525,-9.012
59826190,-0.219,0.073,-0.337,-42.105,31.692,-21.35
59826200,-0.449,0.034,-0.323,-62.44,29.925,-34.09
59826210,-0.699,0.246,-0.251,-77.91,26.74,-31.097
59826220,0.162,-0.735,0.405,-51.957,11.602,-83.965
59826230,0.457,-1.678,1.559,-36.75,14.647,-126.77
59826240,-0.938,-1.998,1.043,50.715,-57.26,-223.44
59826250,1.592,-0.131,-0.055,254.66,-57.75,-329.315
59826260,1.998,0.799,-0.122,240.1,114.677,-287.962
59826270,0.897,-0.339,0.806,194.075,198.712,-195.895
59826280,1.662,1.05,0.632,291.602,184.922,-87.027
59826290,0.93,-0.054,1.207,276.395,208.565,25.34
59826300,0.304,0.33,1.487,214.34,217.665,68.652
59826310,-0.44,-0.26,1.63,152.932,184.45,78.225
59826320,-0.555,-0.123,1.543,106.26,117.827,39.672
59826330,-0.155,-0.088,1.351,61.565,59.57,9.992
59826340,0.203,-0.087,1.154,24.395,13.562,1.645
59826350,0.362,-0.15,1.003,-3.5,-9.642,9.24
59826360,0.327,-0.321,0.925,-17.395,-20.457,18.655
59826370,0.303,-0.368,0.905,-24.115,-22.732,17.657
59826380,0.297,-0.344,0.93,-28.56,-26.407,11.567
59826390,0.373,-0.309,0.931,-36.907,-27.72,6.195
59826400,0.39,-0.344,0.951,-47.722,-30.677,4.97
59826410,0.406,-0.182,0.996,-58.852,-32.322,6.772
59826420,0.372,-0.234,1.045,-77.472,-36.505,11.235
59826420,0.476,-0.275,1.09,-96.757,-47.215,16.8
59826440,0.455,-0.083,1.112,-118.772,-58.485,25.322
59826440,0.456,-0.241,1.153,-151.602,-57.155,37.467
59826460,0.536,-0.22,1.12,-177.712,-60.585,46.41
59826460,0.569,-0.393,0.99,-199.377,-57.68,57.225
59826480,0.592,-0.432,0.858,-206.325,-52.64,66.972
59826480,0.586,-0.447,0.792,-204.277,-49.612,78.645
59826500,0.755,-0.552,0.846,-199.01,-49.315,92.505
59826500,0.854,-0.796,0.898,-185.027,-44.73,106.277
59826510,0.897,-1.241,0.964,-157.115,-41.895,105.35
59826520,0.669,-1.111,0.806,-114.66,-40.775,80.99
59826530,0.092,-0.995,0.641,-91.472,-50.12,60.9
59826540,-0.114,-1.034,0.444,-67.305,-71.172,54.635
59826550,1.094,-0.806,-0.073,-33.127,-99.067,37.8
59826560,1.064,-0.401,-0.051,16.345,-96.075,32.357
59826570,1.391,-0.363,-0.191,31.01,-77.42,23.905
59826580,1.272,0.11,-0.281,43.26,-68.425,-6.282
59826590,0.633,0.371,-0.307,38.657,-88.042,-43.96
59826600,0.179,0.337,-0.261,18.707,-118.265,-44.24
59826610,-0.347,0.311,-0.08,11.077,-186.742,-44.485
59826620,-0.621,0.147,0.026,14.21,-251.755,-30.152
59826630,-0.384,0.26,-0.129,26.652,-271.547,-15.277
59826640,-0.126,0.296,-0.257,17.605,-240.712,-0.052
59826650,0.093,-1.507,0.255,-3.85,-161.945,52.797
59826660,-1.643,-1.745,0.657,88.095,-6.895,159.845
59826670,0.377,-1.998,1.574,152.722,170.415,168.787
59826680,0.251,-1.762,0.306,240.87,273.595,-9.8
59826690,-1.747,1.723,1.677,355.81,107.38,-159.425
59826700,0.267,1.035,1.264,310.642,78.61,-171.255
59826710,1.78,-1.196,0.513,276.867,119.577,-134.19
59826720,0.954,0.142,0.688,303.082,144.742,-139.037
59826730,1.691,0.536,0.961,315.595,164.132,-87.71
59826740,1.245,0.703,1.184,253.592,217.087,-20.702
59826750,0.35,0.054,1.551,156.432,234.272,47.442
59826760,-0.667,-0.11,1.781,99.032,176.662,66.115
59826760,-0.766,-0.065,1.61,51.012,88.165,42.052
59826780,-0.224,-0.118,1.306,8.05,12.512,16.467
59826780,0.204,-0.152,1.079,-21.157,-30.87,9.275
59826800,0.386,-0.283,0.916,-38.64,-50.4,13.86
59826800,0.511,-0.412,0.763,-43.05,-50.155,18.392
59826820,0.459,-0.482,0.728,-36.802,-39.252,17.727
59826820,0.411,-0.466,0.755,-27.44,-24.43,11.567
59826830,0.455,-0.413,0.781,-20.072,-12.705,3.622
59826840,0.457,-0.341,0.86,-17.185,-1.907,-0.175
59826850,0.463,-0.241,0.95,-22.347,2.625,0.455
59826860,0.448,-0.336,1.01,-36.767,3.955,5.495
59826870,0.477,-0.032,1.082,-52.727,2.327,10.29
59826880,0.474,-0.2,1.14,-81.9,1.75,19.337
59826890,0.553,-0.235,1.137,-105.49,-6.51,29.382
59826900,0.514,-0.209,1.161,-127.067,-3.972,43.452
59826910,0.413,-0.392,1.119,-147.245,1.33,58.327
59826920,0.421,-0.384,0.995,-154.927,-0.472,67.427
59826930,0.479,-0.443,1.006,-160.405,-4.41,76.947
59826940,0.613,-0.56,0.987,-161,-14.805,87.762
59826950,0.921,-0.698,1.009,-153.527,-17.885,112.507
59826960,0.745,-1.038,0.809,-135.975,-30.747,135.24
59826970,0.606,-1.068,0.438,-103.407,-56.857,134.33
59826980,0.626,-1.902,0.312,-85.732,-97.51,127.557
59826990,0.461,-1.792,-0.134,-65.012,-130.777,104.055
59827000,1.984,-0.918,-1.264,-39.76,-116.375,54.337
59827010,1.998,-0.342,-1.03,-112.455,-52.535,-29.207
59827020,1.794,0.054,-0.216,-144.48,-60.83,-180.372
59827030,0.141,0.393,0.064,-163.485,-96.145,-243.372
59827040,-1.01,1.01,0.49,-127.435,-272.335,-299.862
59827050,-0.865,0.982,0.624,-90.142,-371.875,-246.435
59827060,-0.546,0.844,0.599,-48.755,-374.727,-144.62
59827070,-0.48,0.668,0.459,-7.945,-354.48,-89.565
59827080,-0.404,0.454,0.218,9.782,-310.31,-61.197
59827090,-0.549,0.085,0.159,8.995,-227.062,-19.967
59827100,0.378,-1.474,-0.093,13.3,-115.115,67.777
59827110,-0.815,-1.998,1.268,58.415,304.675,279.055
59827120,0.31,-1.328,-1.255,424.55,431.76,150.762
59827130,0.406,1.997,1.584,352.065,404.127,-83.79
59827140,-1.787,-0.387,1.777,228.62,235.585,-102.357
59827150,0.825,-1.329,1.347,273.157,228.847,-56.28
59827160,1.203,0.784,0.694,302.82,202.107,-96.915
59827170,1.111,0.318,1.279,247.362,201.495,-40.88
59827170,0.797,0.362,1.458,179.007,199.902,19.355
59827180,-0.582,-0.226,1.669,106.75,162.137,55.335
59827190,-0.495,-0.322,1.39,68.88,91.63,40.81
59827200,0.074,-0.346,1.075,42.157,46.41,12.862
59827210,0.385,-0.284,0.959,27.44,25.882,4.252
59827220,0.333,-0.286,0.955,17.57,18.06,11.287
59827230,0.229,-0.335,0.968,9.38,10.5,15.785
59827240,0.22,-0.371,0.94,2.8,2.38,13.597
59827250,0.245,-0.366,0.935,-2.17,-3.272,7.857
59827260,0.312,-0.328,0.935,-8.365,-7.35,2.065
59827270,0.321,-0.306,0.953,-16.415,-10.902,0.332
59827280,0.291,-0.304,0.973,-26.565,-15.12,0.472
59827290,0.262,-0.311,0.999,-38.097,-20.545,-0.07
59827300,0.245,-0.285,1.056,-51.835,-28.805,-1.977
59827310,0.268,-0.241,1.105,-71.452,-39.095,-3.342
59827320,0.267,-0.386,1.131,-95.13,-52.692,-2.03
59827330,0.32,-0.083,1.151,-108.78,-73.5,-4.777
59827340,0.242,-0.334,1.096,-128.73,-91.84,-0.525
59827350,0.187,-0.375,1.14,-149.467,-105.262,0.49
59827360,0.148,-0.311,1.135,-159.915,-131.425,-1.347
59827370,0.101,-0.436,1.249,-170.765,-162.347,2.345
59827380,0.032,-0.66,1.405,-167.895,-211.697,-2.012
59827390,0.281,-0.822,1.217,-146.3,-256.935,-15.312
59827400,0.364,-1.159,1.156,-131.582,-272.755,-29.417
59827410,0.247,-1.943,0.646,-123.532,-256.69,-69.86
59827420,1.167,-1.998,0.205,-61.775,-148.82,-87.097
59827430,-0.243,-1.504,0.183,26.897,77.98,-1.925
59827440,-1.991,-1.225,0.23,29.452,130.672,27.44
59827450,-0.272,-1.591,0.206,6.405,128.695,69.055
59827460,0.602,-1.295,0.206,15.487,168.192,108.762
59827470,-0.157,-0.146,0.214,41.702,183.47,88.777
59827480,-0.434,0.511,0.159,17.08,191.432,80.605
59827490,-0.489,0.683,0.136,-23.922,168.98,85.155
59827500,-0.421,0.663,0.303,-42.98,142.887,85.767
59827510,-0.293,0.978,0.224,-38.57,151.147,93.31
59827510,-0.272,1.688,0.064,-26.005,160.02,88.34
59827530,-0.212,1.647,0.168,-39.917,144.375,70.157
59827530,1.077,0.473,-0.162,-47.057,127.312,38.377
59827550,1.998,-0.409,0.053,-69.265,126.42,-141.207
59827550,-0.043,-1.892,1.242,-3.657,-76.142,-530.617
59827570,-0.681,-1.669,1.009,166.985,-157.902,-462.542
59827570,1.998,1.963,-1.238,368.235,63.682,-353.272
59827580,0.2,-0.022,1.289,311.08,170.397,-158.55
59827590,1.933,1.605,1.182,319.55,243.915,1.837
59827600,-1.133,-0.344,1.988,177.17,273.507,127.452
59827610,-1.697,0.246,1.964,116.76,153.79,97.125
59827620,-0.859,-0.267,1.455,36.575,50.47,20.755
59827630,0.573,-0.257,0.871,4.567,-4.83,-17.08
59827640,0.557,-0.313,0.812,0.857,-6.965,-1.977
59827650,0.212,-0.367,0.928,3.412,-1.802,13.79
59827660,0.139,-0.283,1.008,0.997,-7.525,12.127
59827670,0.157,-0.297,1.002,-8.05,-19.005,6.772
59827680,0.341,-0.308,0.921,-17.78,-29.715,0.7
59827690,0.244,-0.263,1.023,-24.762,-33.915,0.052
59827700,0.19,-0.186,1.123,-39.287,-46.97,-0.647
59827710,0.314,-0.184,1.078,-60.305,-63.875,-1.085
59827720,0.354,-0.285,1.032,-81.042,-76.825,2.152
59827730,0.366,-0.224,1.059,-101.605,-83.142,3.43
59827740,0.275,-0.275,1.157,-125.597,-90.422,4.795
59827750,0.506,-0.137,1.077,-145.95,-106.925,7.56
59827760,0.372,-0.212,1.108,-172.322,-116.585,12.985
59827770,0.42,-0.223,1.039,-195.265,-124.67,18.69
59827780,0.46,-0.242,0.978,-213.622,-131.407,25.305
59827790,0.509,-0.281,0.95,-229.687,-134.645,36.715
59827800,0.436,-0.44,1.013,-238.63,-141.837,47.67
59827810,0.379,-0.729,1.149,-236.932,-153.125,49.052
59827820,0.373,-1.044,1.221,-213.272,-180.477,29.575
59827830,0.603,-1.128,1.031,-179.41,-175.612,-1.96
59827840,0.991,-1.429,0.618,-148.032,-117.005,-36.365
59827850,1.381,-1.928,0.446,-98.49,13.667,-47.565
59827860,-0.353,-1.468,1.151,-27.317,116.76,-33.18
59827870,-1.912,-0.634,0.159,35.507,82.512,-47.547
59827870,-0.946,-0.287,0.282,60.795,65.817,61.897
59827890,0.17,-0.932,0.413,61.547,81.9,152.25
59827890,0.062,-0.7,0.26,111.282,72.17,148.627
59827910,-0.102,-0.129,0.018,153.16,78.855,146.475
59827910,-0.153,0.01,-0.186,148.382,78.505,157.202
59827920,-0.318,0.128,-0.604,133.647,62.772,155.312
59827930,-0.725,0.595,-0.857,109.27,33.88,149.572
59827940,-0.619,0.843,-0.826,49.052,13.475,162.785
59827950,-0.196,1.469,-0.758,-2.59,22.662,154.962
59827960,0.257,1.152,-1.31,-52.937,38.78,113.592
59827970,1.857,-1.46,0.635,-163.66,188.195,1.645
59827980,-1.047,-1.998,0.446,-41.58,-123.707,-454.825
59827990,-1.265,0.773,-1.029,408.047,72.117,-468.107
59828000,1.998,1.91,0.207,391.055,63.525,-397.442
59828010,1.738,-1.642,0.233,333.83,203.997,-160.982
59828020,1.835,1.713,1.346,443.695,228.095,-10.832
59828030,-0.496,-0.279,1.998,310.45,285.67,101.255
59828040,-1.531,0.577,1.998,199.622,210.56,62.44
59828050,-0.921,0.402,1.725,80.885,97.212,7.122
59828060,-0.13,0.025,1.244,8.382,11.077,0.367
59828070,-0.329,-0.135,1.222,-25.252,-30.537,7.175
59828080,0.215,-0.266,1.034,-48.125,-63.752,0.875
59828090,0.524,-0.283,0.926,-62.965,-74.445,0.122
59828100,0.482,-0.262,0.883,-69.527,-73.99,6.405
59828110,0.453,-0.389,0.911,-72.257,-67.637,8.942
59828120,0.516,-0.299,0.923,-83.79,-59.15,8.382
59828130,0.519,-0.2,1.003,-97.457,-48.335,10.605
59828140,0.61,-0.247,1.022,-112.647,-51.817,19.145
59828150,0.658,-0.136,1.056,-133.945,-42.157,32.952
59828160,0.581,-0.253,1.111,-158.882,-31.132,51.537
59828170,0.469,-0.226,1.162,-177.642,-21.787,65.992
59828180,0.304,-0.28,1.145,-199.797,-20.44,76.527
59828190,0.342,-0.198,1.09,-219.835,-26.04,80.342
59828200,0.46,-0.326,1.03,-236.67,-32.952,82.775
59828210,0.654,-0.561,1.052,-246.505,-31.692,90.422
59828220,0.904,-0.809,1.159,-235.515,-12.74,95.462
59828230,0.799,-1.071,1.222,-205.03,18.392,85.662
59828240,0.455,-1.034,0.99,-165.217,30.117,52.972
59828250,0.787,-0.965,0.911,-127.295,39.9,27.475
59828260,0.494,-0.496,0.929,-88.672,47.25,7.42
59828260,0.85,0.108,0.387,-31.272,21.122,-19.862
59828280,0.812,0.929,1.144,25.9,-11.042,-11.375
59828280,0.846,1.506,0.268,73.342,-54.302,-37.747
59828300,0.043,1.735,0.377,112.21,-99.295,-56.682
59828300,-0.463,1.261,0.399,101.29,-142.8,-17.955
59828320,-0.083,0.866,0.332,122.745,-191.257,15.417
59828320,0.089,0.484,0.113,140.07,-210.017,30.87
59828330,-0.205,0.24,-0.103,151.182,-209.51,32.48
59828340,-0.607,-0.064,-0.153,134.417,-213.832,31.92
59828350,-0.438,-0.203,-0.692,102.882,-238.787,15.505
59828360,-1.721,-1.227,0.352,-13.23,-172.27,67.2
59828370,0.44,-1.986,-1.471,226.817,139.562,90.982
59828380,0.366,1.597,0.905,296.572,103.302,-119.245
59828390,-0.977,1.916,1.998,211.977,99.82,-186.795
59828400,0.733,0.48,1.154,223.632,110.932,-146.072
59828410,1.814,-1.083,0.548,269.99,142.152,-106.662
59828420,1.638,0.473,0.953,278.775,146.79,-83.317
59828430,1.346,0.417,1.207,197.382,181.667,7.577
59828440,-0.468,-0.119,1.669,115.395,181.772,69.002
59828450,-0.895,-0.154,1.621,76.912,114.502,52.29
59828460,-0.404,-0.042,1.391,33.565,41.44,20.055
59828470,0.16,-0.174,1.083,-1.522,-6.002,7.542
59828480,0.257,-0.343,0.924,-16.205,-27.737,10.482
59828490,0.305,-0.333,0.897,-19.372,-31.955,10.972
59828500,0.349,-0.328,0.901,-20.475,-34.16,9.555
59828510,0.357,-0.345,0.887,-23.887,-33.302,8.4
59828520,0.321,-0.36,0.893,-27.072,-33.442,4.812
59828530,0.376,-0.336,0.887,-30.205,-30.957,-0.07
59828540,0.394,-0.291,0.918,-34.947,-30.047,-2.397
59828550,0.375,-0.277,0.951,-44.345,-27.51,-0.682
59828560,0.342,-0.261,0.998,-56.997,-29.47,0.472
59828570,0.363,-0.23,1.026,-71.505,-31.447,0.717
59828580,0.386,-0.265,1.037,-90.632,-36.47,3.5
59828580,0.363,-0.301,1.073,-110.005,-41.387,11.357
59828600,0.537,-0.25,0.94,-120.347,-53.34,20.387
59828600,0.451,-0.394,0.958,-131.757,-52.867,31.36
59828620,0.358,-0.47,0.998,-132.825,-61.25,39.252
59828620,0.32,-0.571,0.969,-122.36,-74.882,42.297
59828640,0.249,-0.732,1.103,-104.842,-94.745,40.722
59828640,0.109,-0.97,1.124,-80.692,-124.687,27.895
59828660,0.21,-0.828,0.905,-51.712,-143.325,2.065
59828660,0.634,-1.322,0.913,-42.647,-136.22,-11.97
59828670,1.059,-1.89,1.035,-16.065,-98.525,-10.325
59828680,0.842,-1.998,0.203,52.465,-34.23,4.585
59828690,0.061,-1.193,-0.386,132.65,51.222,46.847
59828700,-0.837,-0.291,-0.873,124.582,16.1,62.037
59828710,0.333,-0.644,-0.601,44.695,-86.852,66.43
59828720,1.123,-0.977,-0.511,-10.237,-107.03,73.552
59828730,0.692,-0.184,-0.393,-26.705,-109.952,48.93
59828740,-0.038,-0.017,-0.218,-76.982,-105.14,35.35
59828750,-0.345,-0.127,-0.22,-113.557,-107.8,31.36
59828760,-0.504,0.384,-0.28,-117.477,-91.507,41.667
59828770,-0.961,0.92,0.06,-133.647,-52.045,74.06
59828780,-1.543,0.839,0.291,-134.75,-37.275,92.347
59828790,1.708,-0.271,1.998,-4.042,40.18,-23.59
59828800,1.998,-1.865,-0.502,145.092,184.135,-139.492
59828810,0.323,-1.977,0.417,246.277,236.495,-204.855
59828820,1.095,0.728,0.292,293.702,203.945,-193.532
59828830,1.441,0.486,0.839,326.777,230.58,-114.38
59828840,1.485,0.616,1.425,315.682,258.16,2.712
59828850,-0.536,0.214,1.996,227.027,256.742,62.895
59828860,-1.135,0.382,1.964,139.055,164.85,57.487
59828870,-0.676,0.025,1.559,49.77,68.075,25.532
59828880,0.013,-0.158,1.14,-3.902,2.065,4.515
59828890,0.382,-0.352,0.89,-24.64,-21.017,3.71
59828900,0.416,-0.388,0.824,-22.977,-22.96,7.437
59828910,0.307,-0.39,0.856,-19.145,-15.855,10.587
59828920,0.319,-0.36,0.867,-14.35,-14.542,7
59828930,0.371,-0.342,0.86,-12.95,-11.305,3.937
59828940,0.395,-0.353,0.84,-12.005,-8.505,2.03
59828950,0.377,-0.36,0.848,-9.8,-1.4,1.4
59828960,0.341,-0.35,0.875,-7.665,2.135,-0.56
59828970,0.359,-0.268,0.939,-8.365,6.107,-2.467
59828980,0.331,-0.235,0.988,-16.275,4.935,-2.572
59828990,0.305,-0.206,1.028,-30.222,3.885,-2.065
59829000,0.324,-0.2,1.046,-47.53,0.402,-2.572
59829010,0.333,-0.217,1.066,-67.287,-0.612,-2.117
59829010,0.314,-0.228,1.129,-87.22,-5.88,0
59829030,0.395,-0.158,1.109,-106.557,-9.94,2.555
59829030,0.268,-0.279,1.139,-133.612,-7.332,7.507
59829050,0.387,-0.213,1.111,-151.62,-6.475,10.132
59829050,0.178,-0.311,1.094,-166.215,1.942,10.85
59829070,0.223,-0.461,1.045,-179.095,-3.78,12.32
59829070,0.422,-0.412,1.03,-182.455,-13.562,16.852
59829080,0.729,-0.636,0.978,-177.607,-15.977,27.037
59829090,0.829,-0.655,0.869,-154.262,-6.51,36.207
59829100,0.616,-0.799,0.825,-131.932,2.94,37.87
59829110,0.462,-0.941,0.713,-101.797,-1.382,26.985
59829120,0.06,-1.024,0.885,-83.79,-13.632,35.28
59829130,0.026,-1.013,0.751,-56.122,-25.322,46.287
59829140,0.119,-1.13,0.594,-19.25,-59.01,35.122
59829150,0.777,-0.946,0.199,19.757,-95.095,3.92
59829160,1.282,0.03,-0.57,39.392,-93.327,-30.292
59829170,-0.297,0.296,0.193,24.85,-106.242,-52.255
59829180,-0.984,-0.115,0.412,3.867,-119.525,-17.185
59829190,-0.863,0.461,0.056,66.185,-161.525,2.887
59829200,-0.811,0.899,0.112,90.737,-187.635,43.575
59829210,-0.618,0.654,0.128,82.425,-158.76,107.537
59829220,-0.481,0.891,-0.032,92.032,-133.087,119.857
59829230,-0.755,1.331,-0.32,92.032,-124.95,86.467
59829240,1.233,-1.507,0.909,-29.995,-82.495,37.222
59829250,1.02,-1.849,-0.473,147.927,56.752,-119.035
59829260,0.393,1.902,1.224,275.485,62.58,-249.585
59829270,0.683,0.925,1.169,219.642,98.595,-207.55
59829280,1.877,-1.114,0.663,228.322,164.675,-86.73
59829290,1.294,0.998,1.199,268.502,166.53,-64.505
59829300,1.038,0.266,1.346,178.447,193.62,18.095
59829310,-0.712,-0.024,1.774,103.407,173.687,56.542
59829320,-0.666,-0.071,1.564,53.41,95.287,35.997
59829330,-0.075,-0.237,1.163,14.087,32.532,11.812
59829330,0.231,-0.347,0.937,-3.395,2.677,4.165
59829350,0.186,-0.381,0.97,-6.23,-6.65,3.815
59829350,0.297,-0.22,0.978,-10.027,-17.955,0.385
59829370,0.356,-0.24,0.959,-23.082,-24.902,1.68
59829370,0.33,-0.311,0.926,-32.27,-30.415,5.127
59829390,0.303,-0.328,0.932,-38.5,-31.675,4.112
59829390,0.403,-0.282,0.938,-45.71,-33.267,0.227
59829410,0.484,-0.217,0.96,-58.065,-30.205,-0.297
59829410,0.46,-0.2,1.011,-76.667,-27.09,4.27
59829420,0.404,-0.229,1.052,-99.855,-25.077,10.482
59829430,0.408,-0.27,1.043,-120.312,-30.52,15.365
59829440,0.366,-0.309,1.039,-135.24,-36.715,20.177
59829450,0.351,-0.329,1.036,-152.372,-40.67,24.902
59829460,0.371,-0.337,1.009,-164.605,-46.585,29.015
59829470,0.358,-0.434,0.961,-173.6,-52.01,33.18
59829480,0.411,-0.508,0.948,-172.935,-57.557,36.68
59829490,0.448,-0.59,0.938,-164.745,-64.207,38.657
59829500,0.623,-0.727,0.918,-148.697,-65.677,40.985
59829510,0.509,-0.892,0.733,-124.792,-63.805,32.865
59829520,0.463,-0.882,0.518,-94.675,-45.797,19.897
59829530,0.438,-0.972,0.518,-68.32,-19.232,11.217
59829540,0.239,-1.054,0.488,-50.155,1.907,11.672
59829550,0.469,-1.321,0.429,-27.352,5.127,4.095
59829560,0.437,-1.099,0.167,1.067,11.392,9.222
59829570,0.282,-0.694,0.18,20.702,12.722,1.697
59829580,0.326,-0.247,-0.093,20.125,15.68,-2.397
59829590,0.383,-0.101,0.181,6.09,12.6,-16.59
59829600,0.279,-0.058,0.082,1.4,24.202,-27.51
59829610,-0.102,0.541,-0.065,15.645,32.62,-41.632
59829620,-0.339,0.628,0.144,0.77,34.632,-25.987
59829630,-0.167,0.562,0.125,-5.145,42.7,-10.15
59829640,-0.089,0.883,-0.073,7.437,48.667,-12.442
59829650,0.079,0.415,0.698,-16.292,65.59,-15.732
59829660,-0.997,-1.998,0.017,-58.607,47.267,-55.86
59829670,0.102,-1.305,0.21,223.265,0.367,-203.735
59829680,0.899,1.865,0.809,240.117,16.03,-215.232
59829690,1.481,0.007,0.75,249.672,58.205,-195.877
59829700,1.664,-0.63,0.671,308.84,145.005,-124.425
59829710,1.575,0.647,1.182,336.437,168.455,-67.795
59829720,1.137,0.306,1.55,248.482,216.3,10.027
59829730,-0.722,0.22,1.851,158.55,198.677,53.62
59829740,-0.969,0.335,1.729,88.55,111.09,35.315
59829750,-0.311,0.146,1.335,21.805,26.057,15.837
59829760,0.116,-0.205,1.032,-14.227,-21.052,14.612
59829760,0.212,-0.38,0.916,-21.595,-35.787,18.305
59829780,0.276,-0.357,0.927,-20.51,-40.95,15.225
59829780,0.384,-0.306,0.91,-24.622,-42.945,10.622
59829800,0.413,-0.337,0.874,-29.872,-43.137,9.835
59829800,0.377,-0.348,0.885,-32.917,-39.042,8.312
59829820,0.423,-0.293,0.917,-37.397,-35.105,4.112
59829820,0.518,-0.216,0.946,-46.585,-31.43,5.057
59829830,0.505,-0.189,1.017,-61.74,-28.787,13.58
59829840,0.477,-0.302,1.079,-83.02,-30.38,25.935
59829850,0.757,-0.062,1.081,-98.77,-45.657,42.332
59829860,0.602,-0.163,1.114,-127.557,-41.86,69.335
59829870,0.382,-0.454,1.133,-148.715,-41.422,94.832
59829880,0.544,-0.606,1.067,-156.17,-62.737,112.367
59829890,0.47,-0.525,1.065,-146.562,-67.69,119.035
59829900,0.466,-0.723,1.138,-134.312,-73.815,131.407
59829910,0.24,-0.84,1.017,-114.24,-89.267,129.517
59829920,0.24,-0.849,0.785,-92.137,-120.4,111.352
59829930,0.363,-1.108,0.951,-78.802,-119.892,114.712
59829940,0.457,-1.371,0.061,-34.72,-95.41,118.947
59829950,0.75,-1.941,0.066,-28.42,-84.822,91.087
59829960,1.238,-0.94,-0.536,13.825,-50.645,79.012
59829970,0.954,-0.072,-0.126,-5.74,-12.862,75.232
59829980,0.93,-0.11,0.07,-52.482,-23.66,32.27
59829990,0.829,0.427,0.105,-51.992,-42.402,-15.697
59830000,0.252,0.907,0.138,-50.137,-81.217,-53.252
59830010,-0.21,1.343,0.329,-46.707,-122.115,-63.98
59830020,-0.182,1.443,0.24,-19.845,-151.515,-55.545
59830030,-0.169,1.604,0.344,-11.655,-160.825,-37.502
59830040,-0.26,1.364,0.298,15.067,-153.755,-30.922
59830050,0.093,1.106,-0.447,32.742,-113.645,-15.102
59830060,-1.421,-1.971,1.523,-14.507,104.37,109.025
59830070,0.72,-1.349,0.222,216.58,195.475,32.357
59830080,0.004,1.99,1.348,309.487,54.512,-212.257
59830080,0.523,0.44,1.156,288.995,97.842,-149.292
59830100,1.51,-1.299,0.993,261.887,178.727,-73.867
59830100,1.114,1.235,1.309,315.91,144.917,-109.882
59830120,1.337,0.419,1.323,228.34,161.822,-10.902
59830120,-0.029,0.154,1.609,136.92,159.757,52.01
59830140,-0.64,0.02,1.607,75.145,106.89,58.817
59830140,-0.243,-0.12,1.313,31.57,42.56,38.342
59830160,0.187,-0.269,1.03,2.397,1.855,25.357
59830160,0.152,-0.332,0.991,-8.802,-15.085,24.832
59830170,0.182,-0.341,0.966,-15.872,-26.862,19.687
59830180,0.356,-0.348,0.893,-21.997,-33.267,11.742
59830190,0.397,-0.334,0.893,-25.077,-33.81,9.537
59830200,0.344,-0.321,0.932,-29.417,-33.88,10.92
59830210,0.324,-0.301,0.971,-38.867,-34.93,8.627
59830220,0.367,-0.252,0.992,-52.867,-36.89,5.67
59830230,0.387,-0.246,1.028,-69.982,-39.182,7.35
59830240,0.416,-0.28,1.057,-88.007,-47.442,12.18
59830250,0.441,-0.146,1.067,-102.812,-54.617,16.205
59830260,0.419,-0.346,1.076,-129.78,-58.432,26.88
59830270,0.453,-0.317,1.096,-141.907,-66.57,32.287
59830280,0.502,-0.482,1.11,-149.257,-76.002,40.005
59830290,0.665,-0.743,0.953,-144.287,-76.965,48.93
59830300,0.387,-0.834,0.859,-122.57,-66.045,52.272
59830310,0.239,-0.864,0.825,-95.9,-53.305,44.45
59830320,0.186,-0.978,0.673,-67.585,-59.237,31.342
59830330,0.533,-1.47,0.73,-51.712,-55.545,35.595
59830340,0.628,-1.638,0.911,-22.382,-19.635,53.077
59830350,0.22,-1.433,-0.276,35.542,8.662,46.62
59830360,-0.343,-1.012,-0.596,35.682,31.22,52.57
59830370,0.781,-0.437,-0.737,-7.402,1.225,20.055
59830380,1.38,-0.442,-0.314,-86.712,-20.072,-25.882
59830390,1.285,-0.211,-0.262,-135.205,-13.492,-90.457
59830400,0.661,0.346,-0.172,-156.257,-23.397,-149.852
59830410,0.504,0.679,-0.231,-180.512,-48.475,-180.267
59830420,-0.302,1.259,0.014,-168.49,-63.717,-183.435
59830430,-1.508,1.619,0.579,-147.7,-137.865,-198.537
59830440,-0.231,0.779,1.006,-115.99,-82.6,-79.222
59830450,-1.625,-1.998,1.379,-45.71,123.882,106.26
59830460,1.897,-1.85,-1.524,319.06,135.87,-40.04
59830470,0.521,1.368,1.107,232.61,165.042,-182.91
59830480,-1.077,0.88,1.565,235.567,125.737,-153.177
59830490,1.822,-0.304,0.58,263.602,152.845,-50.365
59830500,0.724,0.336,1.23,255.412,155.855,-30.73
59830510,0.677,0.445,1.465,196.437,170.607,10.01
59830510,-0.321,-0.186,1.618,125.982,148.12,39.13
59830530,-0.291,-0.162,1.454,83.545,89.53,22.33
59830530,0.076,-0.136,1.243,44.59,39.742,5.215
59830550,0.319,-0.192,1.068,11.795,10.237,3.692
59830550,0.388,-0.249,0.956,-9.537,-3.867,9.502
59830570,0.341,-0.347,0.907,-20.615,-9.572,14.122
59830570,0.371,-0.392,0.849,-25.2,-11.322,12.6
59830580,0.386,-0.437,0.814,-25.655,-9.607,8.592
59830590,0.324,-0.399,0.881,-24.622,-6.107,4.147
59830600,0.205,-0.3,1.038,-29.137,-8.54,-0.56
59830610,-0.13,-0.046,1.381,-46.445,-20.545,-5.862
59830620,-0.436,-0.243,1.431,-76.667,-55.265,-20.177
59830630,1.74,-0.194,0.398,-117.18,-72.17,-38.762
59830640,1.128,-0.431,0.557,-132.335,-42.91,12.285
59830650,0.467,-0.335,0.926,-115.972,-31.972,56.28
59830660,0.234,-0.399,1.131,-119.542,-36.33,63.297
59830670,0.138,-0.372,1.156,-134.19,-46.392,52.797
59830680,0.362,-0.623,1.026,-146.247,-59.797,45.937
59830690,0.437,-0.905,1.048,-146.72,-80.78,48.09
59830700,0.618,-0.836,0.974,-122.412,-96.565,51.03
59830710,0.303,-0.841,0.841,-93.59,-104.037,56.227
59830720,-0.111,-0.865,0.653,-67.865,-140.437,41.335
59830730,-0.67,-1.082,0.642,-54.302,-211.54,37.52
59830740,-0.277,-1.672,-0.737,-40.215,-296.747,36.137
59830750,1.57,-1.998,-0.687,-56.595,-296.047,13.702
59830760,0.173,-1.846,-0.322,-45.482,-251.142,31.902
59830770,-0.461,-1.127,0,-25.847,-205.765,43.085
59830780,0.216,-0.392,0.066,-28.21,-173.862,64.33
59830790,0.265,0.65,0.444,-39.27,-141.942,71.785
59830800,-0.127,1.154,0.716,-54.337,-117.162,44.17
59830810,-0.317,0.993,0.698,-45.29,-74.427,20.877
59830820,-0.925,1.032,0.676,-5.442,-36.312,22.96
59830830,-0.588,1.023,0.414,30.257,11.182,48.965
59830830,1.983,-0.556,-1.132,24.972,90.65,-53.375
59830850,1.641,-1.998,-1.398,-20.912,325.447,-122.78
59830850,-1.408,-0.335,0.788,155.26,325.71,-199.342
59830870,0.559,1.174,1.269,238.192,281.802,-145.215
59830870,1.881,-0.843,-0.008,269.045,226.747,-63.682
59830890,1.273,-0.311,0.251,304.395,217.595,-0.297
59830890,0.834,0.457,0.971,330.505,225.837,76.825
59830910,-0.345,0.027,1.723,298.287,226.87,117.057
59830910,-0.619,0.16,1.78,244.772,197.522,77.84
59830920,-0.566,-0.046,1.703,172.637,154.822,14.14
59830930,0.105,0.15,1.516,103.967,102.882,-22.085
59830940,0.039,0.138,1.466,40.302,55.842,-8.575
59830950,-0.199,-0.045,1.428,-13.475,9.607,10.255
59830960,-0.127,-0.21,1.349,-59.745,-36.837,11.497
59830970,0.037,-0.1,1.288,-94.482,-74.34,4.987
59830980,0.147,-0.205,1.255,-130.707,-102.62,1.347
59830990,0.239,-0.227,1.217,-164.045,-123.165,-2.87
59831000,0.314,-0.182,1.182,-190.977,-147.35,-4.042
59831010,0.309,-0.176,1.124,-212.905,-164.78,-3.57
59831020,0.337,-0.121,1.042,-236.687,-176.487,-2.835
59831030,0.334,-0.099,1.017,-262.622,-180.39,-0.07
59831040,0.23,-0.226,1.084,-288.05,-193.112,7.175
59831050,0.072,-0.421,1.257,-308.455,-228.865,15.19
59831060,-0.087,-0.706,1.346,-308.525,-295.75,6.02
59831070,0.165,-1.013,1.308,-303.03,-352.52,-29.715
59831080,0.918,-1.424,1.555,-296.922,-331.135,-91.752
59831090,1.792,-1.643,1.352,-251.737,-136.71,-143.185
59831100,-0.184,-1.761,1.709,-153.72,137.742,-82.232
59831110,-1.998,-1.332,1.836,-17.237,105.875,-54.565
59831120,-1.204,0.702,1.482,166.722,49.42,73.622
59831130,1.07,0.729,1.21,154.787,76.702,209.86
59831140,1.379,1.343,1.011,166.635,98.157,137.042
59831150,0.44,1.774,1.239,188.825,151.322,43.452
59831160,-0.227,1.129,1.244,192.342,171.08,3.132
59831170,-0.603,0.944,0.476,240.73,167.072,-18.252
59831180,-1.042,1.154,-0.037,268.677,132.212,-11.812
59831190,-0.762,0.292,-0.133,206.29,90.265,27.16
59831200,-0.416,-0.789,0.11,154.892,75.897,68.355
59831210,1.75,-1.976,-1.553,68.04,170.257,-2.117
59831220,1.998,-1.998,-1.954,-149.66,132.212,-358.592
59831230,0.852,-1.998,-0.325,-191.415,210.752,-568.12
59831240,-0.856,1.211,1.033,-2.94,148.522,-536.13
59831250,1.998,1.576,0.159,181.615,74.042,-313.32
59831260,1.998,-1.068,-0.669,157.115,159.11,83.597
59831260,1.555,1.138,0.599,227.045,286.772,133.787
59831280,-1.178,-1.683,1.759,170.432,297.395,288.942
59831280,-1.974,0.307,1.994,175.227,186.287,103.46
59831290,-0.105,-0.285,1.446,99.155,87.027,-36.417
59831300,0.883,0.375,1.173,46.27,32.847,-50.627
59831310,0.173,-0.069,1.188,1.4,11.077,1.715
59831320,-0.057,-0.27,1.147,-25.532,-17.29,18.27
59831330,0.142,-0.336,1.026,-44.852,-43.417,7.122
59831340,0.371,-0.326,0.937,-55.737,-58.905,-3.447
59831350,0.435,-0.292,0.976,-60.847,-65.887,-6.527
59831360,0.454,-0.206,0.978,-76.842,-71.137,-3.815
59831370,0.477,-0.232,0.955,-95.007,-72.38,0.49
59831380,0.48,-0.223,0.959,-112.752,-72.975,3.955
59831390,0.536,-0.238,0.961,-131.495,-70.052,7.49
59831400,0.516,-0.248,0.98,-148.26,-74.515,14.665
59831410,0.495,-0.265,0.968,-165.112,-76.965,21.262
59831420,0.445,-0.324,0.983,-182.017,-81.34,26.197
59831430,0.426,-0.391,1.021,-196.472,-88.375,28.962
59831440,0.5,-0.494,1.014,-203.122,-102.445,29.575
59831450,0.551,-0.651,1.173,-198.607,-109.445,29.522
59831460,0.635,-0.819,1.095,-183.487,-111.125,19.67
59831470,0.788,-0.844,0.974,-164.29,-84.787,2.485
59831480,1.168,-0.753,0.63,-143.867,-30.222,-22.645
59831490,1.187,-0.915,0.527,-123.882,49.56,-39.305
59831500,-0.173,-0.924,0.903,-100.852,126.035,-9.922
59831510,-0.641,-0.653,0.156,-57.942,114.52,-15.487
59831520,0.164,-0.418,0.266,-38.132,46.725,-23.905
59831530,0.359,-0.232,0.395,-30.835,22.68,-8.942
59831540,0.04,0.347,0.285,6.09,13.86,-0.472
59831550,-0.146,0.606,0.347,27.842,4.795,14
59831560,-0.397,0.527,0.41,45.132,4.672,49.42
59831570,-0.487,0.742,0.305,85.89,-9.467,70.297
59831580,-0.556,0.955,0.047,121.187,-26.722,88.515
59831580,-0.672,0.825,-0.266,135.205,-52.535,99.137
59831600,0.917,-0.274,-1.688,100.38,-35.63,71.767
59831600,1.8,-1.935,-0.258,-103.267,88.235,-2.73
59831620,-0.367,-1.52,-0.12,54.005,110.635,-223.352
59831620,0.733,1.997,1.845,284.445,108.045,-328.037
59831640,1.582,0.263,0.391,229.022,110.565,-220.552
59831640,1.414,-1.461,0.665,218.662,197.61,-67.567
59831660,1.32,1.296,0.932,284.007,160.37,-53.305
59831660,0.367,-0.312,1.49,219.607,186.672,42.647
59831670,-0.693,0.124,1.803,162.645,157.255,37.17
59831680,-0.383,-0.282,1.555,101.062,97.44,-2.625
59831690,0.125,0.071,1.339,51.52,41.23,-26.967
59831700,0.379,-0.089,1.1,9.415,3.675,-14.927
59831710,0.252,-0.229,1.055,-17.92,-16.065,4.742
59831720,0.139,-0.281,1.095,-37.117,-34.195,9.152
59831730,0.257,-0.258,1.036,-52.972,-50.4,2.362
59831740,0.367,-0.31,0.96,-68.162,-60.69,-3.517
59831750,0.448,-0.228,0.938,-82.442,-60.97,-3.885
59831760,0.413,-0.119,1.027,-98.35,-56.472,-2.852
59831770,0.488,-0.42,0.821,-126.28,-42.14,-5.46
59831780,0.768,-0.261,0.737,-135.607,-39.147,0.98
59831790,0.604,-0.358,0.867,-134.05,-30.957,22.225
59831800,0.553,-0.393,0.914,-140.945,-30.555,35.91
59831810,0.603,-0.376,0.927,-148.015,-30.135,43.995
59831820,0.618,-0.373,0.924,-154.805,-24.605,51.485
59831830,0.475,-0.609,0.846,-161.227,-21.507,59.272
59831840,0.566,-0.532,0.857,-158.515,-26.845,66.29
59831850,0.787,-0.684,0.972,-150.447,-24.29,72.205
59831860,0.924,-0.971,1.022,-137.042,-7.332,78.417
59831870,1.053,-1.117,0.879,-107.065,21.332,69.93
59831880,0.508,-1.066,0.677,-74.077,37.94,48.422
59831890,0.43,-1.07,0.37,-47.11,29.925,26.145
59831900,-0.293,-1.012,0.205,-40.95,4.567,32.13
59831910,0.655,-0.816,-0.012,-9.887,-32.392,40.057
59831920,1.008,-0.507,-0.436,22.732,-47.442,40.81
59831930,1.918,0.191,-0.74,-0.385,-13.842,19.565
59831940,1.255,0.026,-0.394,-33.53,-47.687,-61.092
59831950,0.372,0.314,-0.082,-33.337,-83.912,-120.645
59831960,-0.573,0.337,0.027,-34.352,-146.247,-133.42
59831960,-0.567,0.216,0.092,-18.83,-205.695,-116.252
59831980,-0.557,0.032,-0.025,2.73,-215.302,-67.41
59831980,-0.744,0.217,-0.208,27.895,-206.815,-29.067
59832000,-0.129,-0.564,-0.098,29.242,-150.552,23.1
59832000,-1.89,-1.998,1.998,47.355,73.517,163.835
59832010,0.873,-1.813,0.391,234.36,217.28,39.882
59832020,0.741,1.737,1.397,322.892,105.77,-178.5
59832030,-0.27,0.81,1.269,284.235,87.657,-171.377
59832040,1.424,-0.836,1.013,252.595,147.105,-97.632
59832050,1.678,0.482,0.786,269.412,139.755,-77.14
59832060,1.336,0.694,1.313,224.175,152.127,0.962
59832070,0.108,0.076,1.76,144.077,152.967,80.027
59832080,-0.416,-0.152,1.656,85.4,82.827,96.722
59832090,-0.534,-0.244,1.442,31.307,20.632,67.707
59832100,-0.097,-0.363,1.09,-9.52,-15.767,24.867
59832110,0.434,-0.419,0.824,-26.705,-31.43,0.402
59832120,0.698,-0.357,0.72,-26.862,-33.32,1.715
59832130,0.526,-0.428,0.771,-23.572,-26.39,16.31
59832140,0.396,-0.464,0.776,-18.042,-24.99,22.137
59832150,0.339,-0.464,0.798,-15.942,-18.235,16.905
59832160,0.359,-0.415,0.851,-16.082,-14.14,6.177
59832170,0.414,-0.317,0.922,-22.505,-10.377,-0.787
59832180,0.454,-0.262,0.98,-35.105,-13.72,-1.19
59832190,0.459,-0.238,1,-54.355,-15.732,2.887
59832200,0.437,-0.249,1.035,-76.755,-19.355,6.545
59832210,0.496,-0.237,1.013,-100.537,-20.265,9.17
59832220,0.564,-0.313,0.967,-123.9,-20.16,15.627
59832230,0.616,-0.388,0.924,-141.032,-15.102,25.2
59832240,0.645,-0.433,0.899,-152.005,-9.52,36.242
59832250,0.605,-0.538,0.882,-157.325,-1.557,48.142
59832260,0.577,-0.531,0.898,-154.735,-0.997,58.835
59832270,0.64,-0.631,0.945,-144.427,0.647,66.097
59832280,0.576,-0.864,1.037,-130.095,5.092,71.68
59832290,0.619,-1.032,0.929,-108.062,11.322,70
59832300,0.494,-1.072,0.861,-85.33,8.12,57.382
59832310,0.251,-1.136,0.691,-65.415,-2.765,45.71
59832320,0.109,-0.834,0.578,-39.83,-23.17,47.932
59832330,0.454,-1.143,0.044,-22.82,-33.74,49.77
59832330,0.829,-1.076,0.01,-2.38,-42.822,35.892
59832350,0.841,-0.282,-0.384,14.945,-46.9,10.377
59832350,0.571,0.223,-0.348,-6.265,-50.155,-25.532
59832370,0.197,-0.02,-0.101,-36.242,-77.052,-61.582
59832370,-0.19,0.219,-0.138,-23.887,-102.9,-85.907
59832390,-0.588,0.512,-0.156,-8.627,-136.15,-93.327
59832390,-0.869,0.551,-0.128,-5.565,-148.347,-69.527
59832410,-0.955,0.749,-0.133,7.21,-140.665,-43.225
59832410,-1.027,1.007,-0.29,15.977,-110.407,-23.852
59832420,-0.57,-0.77,1.275,-27.72,-29.015,24.71
59832430,1.211,-1.998,-0.778,96.145,174.632,-44.992
59832440,1.538,0.981,0.295,338.852,99.505,-304.727
59832450,0.585,1.395,1.424,285.985,154.91,-252.21
59832460,1.946,-1.055,0.442,283.762,215.232,-100.537
59832470,1.852,0.876,0.879,324.642,216.422,-49.07
59832480,0.842,0.777,1.755,249.042,250.792,43.33
59832490,-1.103,-0.138,1.998,149.082,209.16,94.447
59832500,-0.766,0.197,1.797,71.557,103.705,52.937
59832510,-0.208,-0.221,1.3,2.905,33.74,18.672
59832520,0.328,-0.33,0.929,-27.755,-3.097,7.245
59832530,0.089,-0.517,0.99,-34.387,-11.55,12.495
59832540,0.207,-0.323,0.935,-33.88,-27.44,5.495
59832550,0.62,-0.276,0.819,-46.847,-31.64,-6.265
59832560,0.552,-0.431,0.846,-47.88,-32.007,10.29
59832570,0.336,-0.296,0.978,-51.642,-28.787,17.412
59832580,0.192,-0.262,1.096,-67.882,-32.847,14.752
59832590,0.31,-0.245,1.076,-92.89,-37.502,6.825
59832600,0.473,-0.221,1.055,-117.967,-43.382,5.74
59832610,0.524,-0.219,1.029,-142.66,-45.01,14.805
59832620,0.485,-0.324,1.008,-164.027,-46.707,26.652
59832630,0.476,-0.339,0.976,-179.952,-44.082,35.42
59832640,0.446,-0.445,0.916,-192.57,-38.622,40.11
59832650,0.399,-0.471,0.816,-197.19,-33.792,41.23
59832660,0.516,-0.523,0.783,-195.23,-34.51,41.002
59832670,0.679,-0.614,0.805,-187.215,-31.447,44.45
59832670,0.878,-0.846,0.91,-169.522,-16.24,49.367
59832690,0.933,-1.104,0.868,-137.392,13.16,50.855
59832690,0.59,-1.082,0.702,-97.807,48.405,41.527
59832710,0.316,-1.165,0.605,-71.907,61.197,22.785
59832710,0.167,-0.985,0.489,-52.167,55.335,25.322
59832730,0.321,-0.618,0.398,-27.93,45.167,30.59
59832730,0.453,-0.802,0.697,-10.325,27.545,23.747
59832750,0.846,0.089,0.117,46.392,-12.407,-9.205
59832750,0.715,1.158,0.03,57.942,-30.292,-43.435
59832760,-0.033,0.47,0.66,23.467,-28.647,-38.99
59832770,-0.545,0.445,0.564,71.75,-27.702,-23.17
59832780,-0.614,0.843,0.196,118.86,-41.247,9.485
59832790,-0.422,0.528,0.078,113.837,-41.842,60.55
59832800,-0.081,0.405,-0.183,110.652,-39.375,81.62
59832810,0.234,-0.125,0.117,98.28,-51.59,59.395
59832820,0.053,-1.601,-0.953,70.875,-23.59,30.52
59832830,-0.896,-1.998,-1.014,65.817,70.77,-47.25
59832840,-1.887,0.855,1.384,245.595,-100.047,-130.305
59832850,0.15,1.757,0.834,294.332,-138.757,-160.632
59832860,1.92,-1.576,1.053,223.492,-8.977,-148.207
59832870,0.983,-0.32,0.896,295.592,93.747,-157.15
59832880,1.98,0.976,1.005,323.242,119.927,-130.987
59832890,1.679,0.646,1.106,245.91,192.605,-34.125
59832900,0.381,0.148,1.566,150.535,218.68,56.507
59832910,-1.247,0.034,1.814,88.865,162.067,74.112
59832920,-0.823,-0.069,1.465,35.612,67.165,37.957
59832930,0.005,-0.23,1.094,1.015,3.727,10.15
59832940,0.278,-0.237,0.982,-13.475,-22.382,5.897
59832950,0.249,-0.26,0.987,-23.327,-30.59,10.36
59832960,0.256,-0.316,0.959,-33.04,-39.48,10.272
59832970,0.273,-0.332,0.946,-40.372,-44.345,7.56
59832980,0.282,-0.371,0.931,-45.43,-49.175,2.87
59832990,0.371,-0.301,0.974,-51.52,-50.802,-2.94
59833000,0.451,-0.181,1.034,-65.275,-54.11,-4.06
59833010,0.481,-0.201,1.041,-87.272,-54.582,3.027
59833020,0.544,-0.066,1.107,-108.097,-53.917,11.252
59833030,0.473,-0.265,1.1,-138.25,-50.242,26.547
59833040,0.559,-0.321,1.034,-149.747,-59.482,38.797
59833050,0.534,-0.364,1,-156.45,-58.887,52.115
59833060,0.501,-0.554,0.987,-156.502,-57.137,62.3
59833070,0.524,-0.546,0.982,-142.415,-49.91,65.992
59833080,0.695,-0.576,0.887,-129.412,-28.717,72.712
59833080,0.579,-0.762,0.749,-111.597,-14.192,75.95
59833100,0.479,-0.991,0.594,-93.292,-4.97,89.267
59833100,0.357,-0.951,0.442,-69.702,-7.455,96.355
59833120,0.384,-1.095,0.479,-47.495,-12.46,98.962
59833120,0.55,-0.908,0.586,-18.935,-15.487,113.715
59833140,0.468,-0.846,0.349,12.215,-28.892,109.357
59833140,0.288,-0.788,-0.092,31.622,-61.792,87.99
59833160,0.499,-0.104,-0.257,47.967,-74.357,86.152
59833160,0.704,-0.071,-0.173,18.427,-70.945,76.247
59833170,0.465,-0.167,-0.13,5.145,-74.69,40.022
59833180,0.088,0.047,-0.181,7.192,-76.125,5.512
59833190,-0.127,0.166,-0.205,-6.195,-75.6,-7.63
59833200,-0.207,0.225,-0.189,-23.485,-74.235,-13.545
59833210,0.543,0.595,0.178,-29.277,-52.762,-10.185
59833220,-1.59,-1.401,1.998,-19.617,9.712,61.04
59833230,-1.074,-1.998,-0.252,150.29,-33.162,6.545
59833240,1.852,-1.562,0.399,223.02,-21.892,-72.73
59833250,-0.247,-0.087,1.174,247.747,-7.227,-191.135
59833260,0.805,0.343,1.227,284.795,59.622,-204.802
59833270,1.93,-0.217,0.813,301.857,116.235,-148.207
59833280,1.965,1.17,1.155,294.087,131.075,-73.43
59833290,0.983,0.39,1.546,167.3,183.662,36.925
59833300,-1.251,0.084,1.961,77.21,146.615,84.297
59833310,-0.934,-0.018,1.641,21.14,46.917,59.937
59833320,-0.039,-0.312,1.156,-28.332,-21.42,26.722
59833330,0.411,-0.314,0.828,-43.137,-45.115,19.845
59833340,0.289,-0.431,0.84,-39.34,-46.62,25.34
59833350,0.298,-0.416,0.874,-35.262,-43.715,21.787
59833360,0.413,-0.393,0.835,-35.14,-43.312,16.782
59833370,0.303,-0.502,0.808,-33.53,-39.9,16.817
59833380,0.44,-0.35,0.798,-27.65,-35.7,13.755
59833390,0.395,-0.433,0.857,-27.475,-25.445,6.37
59833400,0.361,-0.292,0.924,-29.592,-22.75,2.135
59833410,0.424,-0.288,0.982,-39.532,-23.292,3.202
59833420,0.366,-0.248,1.049,-55.037,-27.877,6.125
59833420,0.31,-0.26,1.08,-76.335,-34.545,8.82
59833440,0.251,-0.27,1.089,-98.577,-42.927,7.717
59833440,0.234,-0.355,1.065,-118.615,-52.097,4.795
59833460,0.235,-0.387,1.039,-132.58,-62.265,0.787
59833460,0.213,-0.401,1.064,-143.22,-76.177,-1.102
59833480,0.237,-0.532,1.069,-148.977,-93.607,-3.465
59833480,0.237,-0.692,1.142,-141.155,-117.215,-9.152
59833500,0.254,-0.825,0.996,-124.232,-138.442,-24.92
59833500,0.118,-0.779,0.732,-104.51,-129.832,-56.14
59833510,0.069,-0.89,0.585,-105.122,-119.927,-102.672
59833520,0.183,-1.386,0.696,-104.86,-91.245,-154.017
59833530,0.33,-1.596,0.204,-97.125,-13.825,-202.317
59833540,-0.012,-1.81,0.124,-91.21,44.397,-217.577
59833550,-1.898,-1.741,0.708,-99.942,66.797,-164.99
59833560,-1.794,-1.447,0.325,-63.91,35.017,-130.812
59833570,-0.744,-1.225,0.414,-59.22,80.465,-11.585
59833580,-0.826,-1.412,0.451,-46.777,88.042,42.7
59833590,-0.513,-0.673,0.28,-9.922,102.655,67.742
59833600,-0.491,0.493,0.447,-17.132,120.855,112.945
59833610,0.62,1.844,0.718,-42.21,84.595,53.165
59833620,1.998,1.903,-0.773,-24.657,82.897,-205.502
59833630,1.28,0.816,0.331,-85.19,115.99,-356.002
59833640,-0.882,-1.998,0.534,-1.067,260.242,-359.415
59833650,1.986,1.384,-0.674,221.637,186.322,-87.5
59833660,1.509,-0.443,0.306,261.642,189.315,42.787
59833670,0.453,-0.305,1.521,282.415,213.132,164.22
59833680,-1.184,0.477,1.959,262.745,175.035,156.292
59833690,-1.866,-0.019,1.94,156.73,131.25,66.115
59833700,-0.381,-0.192,1.408,75.477,53.497,-31.307
59833710,0.943,-0.099,0.869,38.097,13.895,-54.617
59833720,0.894,-0.142,0.834,25.287,16.345,-17.78
59833730,0.161,-0.238,1.045,15.085,20.755,16.52
59833740,-0.123,-0.26,1.126,2.1,4.252,18.952
59833750,0.017,-0.285,1.056,-13.86,-18.095,6.3
59833760,0.35,-0.303,0.921,-25.497,-33.967,-4.305
59833770,0.433,-0.279,0.901,-31.5,-36.925,-4.41
59833780,0.393,-0.303,0.91,-37.502,-36.977,0.297
59833790,0.347,-0.333,0.901,-41.072,-37.905,3.237
59833800,0.33,-0.365,0.964,-45.43,-40.057,3.342
59833810,0.365,-0.232,0.987,-57.732,-43.802,1.977
59833820,0.412,-0.28,0.985,-72.03,-47.127,2.642
59833830,0.501,-0.299,0.984,-87.237,-47.652,3.78
59833830,0.532,-0.36,0.977,-94.062,-50.995,7.227
59833850,0.886,-0.66,0.926,-92.767,-47.302,15.942
59833850,0.994,-0.909,0.839,-79.485,-25.2,24.867
59833870,0.852,-1.333,0.851,-42.91,-0.42,37.135
59833870,0.597,-1.535,0.789,1.925,14.14,52.08
59833890,0.489,-0.999,0.746,56.507,-11.987,53.76
59833890,0.455,-1.161,0.52,77.91,-70.612,57.312
59833910,-0.452,-1.998,-0.833,30.572,-111.965,76.265
59833910,0.183,-1.998,-1.164,78.977,-136.955,78.33
59833920,-0.067,-1.745,-1.279,103.845,-144.637,127.855
59833930,0.192,-1.855,-0.651,-4.007,-151.147,138.705
59833940,0.317,-1.998,-0.113,-70.122,-133.367,134.802
59833950,0.177,-1.271,0.117,-84.35,-88.06,165.305
59833960,0.003,-0.578,0.313,-128.415,-67.497,196.542
59833970,0.126,-0.374,0.106,-164.797,-61.407,202.265
59833980,0.401,1.209,-0.026,-181.002,-19.057,205.135
59833990,-0.599,1.997,0.339,-226.012,-25.147,166.407
59834000,-0.66,1.774,1.33,-236.162,-89.915,62.177
59834010,0.766,1.997,1.939,-8.452,-98.682,-40.11
59834020,1.998,0.572,-0.42,387.66,-92.662,-354.97
59834030,1.45,-1.987,0.406,307.02,154.49,-209.44
59834040,1.38,1.823,0.499,452.427,140.297,-271.302
59834050,1.933,0.044,0.997,361.48,203.525,-82.18
59834060,0.416,1.253,1.839,256.585,283.482,29.645
59834070,-0.876,-0.121,1.986,125.93,225.032,83.877
59834080,-1.284,-0.031,1.772,66.097,104.86,51.747
59834090,-0.127,-0.201,1.246,17.36,20.212,10.185
59834100,0.232,-0.156,1.079,-7.455,-21.227,-0.105
59834110,0.294,-0.242,0.995,-23.712,-39.882,6.055
59834120,0.404,-0.314,0.91,-33.705,-50.05,10.745
59834130,0.33,-0.371,0.915,-40.407,-51.835,12.442
59834140,0.357,-0.382,0.909,-46.917,-54.635,7.315
59834150,0.449,-0.305,0.917,-54.897,-55.562,1.242
59834160,0.461,-0.261,0.953,-67.06,-56.105,2.292
59834170,0.403,-0.243,1.03,-84.717,-58.607,7.105
59834170,0.322,-0.233,1.145,-107.205,-67.585,11.637
59834190,0.349,-0.288,1.201,-125.702,-100.782,19.775
59834190,0.234,-0.168,1.221,-147.91,-129.622,26.915
59834210,0.044,-0.392,1.12,-167.912,-155.032,32.847
59834210,0.324,-0.042,1.265,-140.63,-185.535,6.702
59834230,0.148,-0.564,1.312,-171.92,-212.17,12.95
59834230,0.147,-0.637,0.954,-159.372,-238.595,-4.847
59834250,0.241,-0.866,0.746,-153.107,-233.975,-25.532
59834250,0.458,-1.253,0.398,-146.79,-196.157,-63.035
59834260,1.083,-1.133,0.461,-101.027,-101.815,-86.205
59834270,0.713,-1.437,0.762,-65.17,121.38,14.577
59834280,-1.998,-0.374,1.955,-5.915,173.127,145.74
59834290,-0.911,0.222,0.967,120.085,56.875,171.342
59834300,1.462,0.962,0.358,184.66,75.005,283.447
59834310,1.08,1.331,0.309,178.447,60.69,244.335
59834320,0.263,1.143,0.174,169.435,48.58,160.58
59834330,-0.538,0.878,-0.165,161.857,38.727,135.327
59834340,-0.613,0.358,-0.657,103.162,-93.03,29.33
59834350,1.998,-1.998,-1.982,-93.135,32.375,-137.707
59834360,-0.722,-1.831,1.592,11.585,21.77,-265.335
59834370,-0.289,1.75,0.101,117.862,26.057,-250.267
59834380,1.91,1.516,0.762,164.745,128.187,-191.835
59834390,0.596,-0.307,0.488,179.847,136.062,-74.235
59834400,1.901,-0.506,0.477,239.977,191.082,-7.017
59834410,0.829,0.34,1.186,251.772,241.482,27.282
59834420,-0.255,-0.425,1.545,222.32,247.817,56.42
59834430,-0.912,0.161,1.817,175.945,197.225,21.77
59834440,-0.462,0.319,1.695,101.622,114.047,-10.307
59834450,-0.2,0.321,1.393,35.07,36.085,-2.905
59834460,-0.09,-0.111,1.14,-6.807,-15.715,13.195
59834470,0.034,-0.366,1.002,-22.102,-42.35,14.437
59834480,0.381,-0.374,0.88,-25.375,-55.02,6.65
59834490,0.431,-0.319,0.874,-25.165,-53.042,3.832
59834500,0.366,-0.329,0.895,-25.707,-50.295,4.27
59834510,0.364,-0.325,0.906,-28.875,-49.21,1.277
59834520,0.448,-0.276,0.903,-34.37,-49.367,-2.992
59834530,0.456,-0.249,0.929,-42.157,-48.125,-1.977
59834540,0.389,-0.232,0.997,-53.76,-49.157,1.207
59834550,0.376,-0.205,1.047,-70.63,-55.107,3.062
59834560,0.368,-0.329,1.058,-93.047,-63.157,4.445
59834570,0.383,-0.002,1.153,-107.537,-73.57,0.945
59834580,0.286,-0.189,1.198,-139.352,-81.55,4.13
59834580,0.287,-0.184,1.237,-159.215,-102.55,10.185
59834600,0.454,-0.148,1.225,-174.405,-133.647,23.135
59834600,0.355,-0.306,1.409,-186.147,-165.69,31.937
59834620,0.384,-0.692,1.046,-186.112,-206.15,30.467
59834620,0.669,-0.947,0.719,-168.56,-197.942,22.557
59834640,1.104,-1.282,0.69,-152.215,-151.357,19.617
59834640,1.395,-1.474,0.216,-115.185,-72.17,-6.352
59834660,1.324,-1.558,-0.009,-89.145,22.102,-20.195
59834660,0.308,-1.21,-0.341,-69.982,17.605,-54.127
59834670,0.591,-0.617,-0.621,-49.052,11.165,-62.177
59834680,0.166,-0.684,-0.23,-66.5,3.132,-12.932
59834690,0.14,-0.602,-0.244,-47.53,-3.412,6.055
59834700,-0.211,0.433,-0.26,0.822,-20.072,21.437
59834710,-0.714,1.093,-0.221,14.402,-36.522,52.552
59834720,-0.778,1.405,-0.572,13.405,-47.757,67.567
59834730,-0.692,1.944,-0.567,-5.25,-39.69,53.812
59834740,-0.964,0.987,-0.27,-61.092,-20.965,40.757
59834750,1.13,-0.658,1.838,-55.947,74.357,-27.282
59834760,1.994,-1.998,-0.761,119.437,347.865,-144.602
59834770,0.799,1.221,0.978,339.255,268.38,-277.165
59834780,-0.537,0.831,1.266,271.11,209.247,-233.257
59834790,1.954,-1.103,0.849,304.78,211.19,-53.602
59834800,1.17,1.582,1.398,319.2,216.247,-41.615
59834810,0.034,0.164,1.956,173.897,240.222,44.59
59834820,-1.189,0.069,1.924,90.93,149.572,49.997
59834830,-0.447,-0.078,1.477,31.15,44.817,18.252
59834840,0.219,-0.197,1.064,-4.007,-15.662,3.377
59834850,0.38,-0.324,0.903,-19.81,-34.055,6.212
59834860,0.387,-0.334,0.89,-25.672,-37.257,7.42
59834870,0.47,-0.329,0.873,-31.587,-36.312,5.705
59834880,0.464,-0.277,0.896,-38.605,-34.072,5.985
59834890,0.383,-0.269,0.953,-47.687,-31.797,8.295
59834900,0.405,-0.211,1.006,-61.302,-32.532,8.137
59834910,0.447,-0.174,1.083,-84.262,-33.495,9.117
59834920,0.47,0.024,1.157,-111.335,-36.697,13.02
59834920,0.459,-0.337,1.156,-149.765,-48.825,26.302
59834940,0.584,-0.02,1.131,-170.03,-66.64,40.18
59834940,0.547,-0.197,1.131,-201.81,-70.91,59.92
59834960,0.675,-0.39,1.117,-222.04,-76.527,75.057
59834960,0.734,-0.537,1.27,-223.107,-79.012,86.59
59834980,0.793,-0.77,1.299,-209.037,-80.29,90.825
59834980,1.007,-0.919,1.026,-176.837,-60.322,87.92
59835000,1.209,-1.097,0.933,-151.935,-3.71,77.227
59835000,0.599,-1.014,0.756,-123.882,35.157,56.525
59835010,0.518,-0.869,0.548,-83.895,38.132,24.5
59835020,1.823,-0.219,-0.314,-54.6,40.442,-25.305
59835030,1.509,1.227,-0.502,-54.775,22.505,-113.085
59835040,-0.574,0.93,0.803,-75.46,-52.08,-180.337
59835050,-1.34,0.228,0.927,-41.912,-78.785,-109.865
59835060,-0.611,1.059,0.532,64.54,-109.427,-18.742
59835070,-0.326,0.947,0.236,113.102,-113.365,52.972
59835080,-0.564,0.347,-0.083,129.377,-117.145,86.1
59835090,-0.73,0.394,-0.375,143.99,-144.217,70.507
59835100,-0.82,-0.038,-0.594,116.742,-166.722,42.367
59835110,-0.853,-0.159,-1.14,65.992,-136.762,17.762
59835120,-0.735,-1.274,0.637,-63.98,-75.46,21.84
59835130,1.86,-1.763,-0.424,148.225,205.24,-81.585
59835140,-0.969,1.976,1.287,280.507,130.725,-207.917
59835150,1.321,0.097,0.688,193.27,96.67,-158.69
59835160,1.801,-1.779,0.855,170.747,163.625,-33.442
59835170,1.41,1.618,0.603,287.612,139.3,-67.777
59835180,0.833,-0.2,1.266,196.77,183.067,32.06
59835190,-0.386,0.06,1.718,153.002,166.845,64.137
59835200,-0.344,-0.299,1.499,102.235,108.307,47.67
59835210,-0.205,-0.165,1.373,64.662,55.947,19.757
59835220,0.202,-0.145,1.183,29.977,13.825,4.882
59835230,0.378,-0.155,1.059,-0.28,-10.15,7.402
59835240,0.355,-0.271,0.973,-22.19,-23.66,14.91
59835250,0.403,-0.351,0.889,-35.77,-29.68,16.8
59835260,0.452,-0.349,0.86,-41.177,-31.045,16.187
59835270,0.49,-0.363,0.872,-43.347,-33.845,20.44
59835280,0.521,-0.308,0.908,-48.195,-34.072,28.577
59835290,0.43,-0.274,0.974,-59.097,-35.105,34.247
59835300,0.404,-0.244,1.022,-75.617,-37.87,36.12
59835310,0.468,-0.268,1.028,-95.777,-43.207,39.882
59835320,0.536,-0.296,1.025,-115.185,-50.032,48.527
59835330,0.545,-0.424,1.021,-131.932,-62.177,65.432
59835330,0.554,-0.594,1.012,-140.105,-87.867,87.605
59835350,0.655,-0.597,1.172,-133.28,-101.622,105.262
59835350,0.676,-0.902,1.218,-117.932,-117.862,120.19
59835370,0.504,-0.908,1.022,-89.442,-137.9,124.985
59835370,0.698,-1.021,0.762,-62.58,-153.247,109.41
59835380,0.568,-1.269,0.834,-40.74,-135.607,135.957
59835390,0.71,-1.487,0.305,10.237,-119.805,149.52
59835400,1.098,-1.428,-0.071,57.925,-111.562,138.915
59835410,1.364,0.007,-0.605,90.93,-69.212,136.15
59835420,1.688,0.836,-0.315,39.462,-49.437,88.97
59835430,1.861,0.782,-0.237,-24.902,-59.675,-36.417
59835440,0.757,0.625,0.05,-39.847,-76.457,-146.23
59835450,-0.358,1.291,0.336,-26.18,-103.705,-195.65
59835460,-0.501,1.256,-0.064,-7.42,-136.587,-235.305
59835470,-0.866,0.986,0.149,-40.897,-144.48,-192.465
59835480,-0.865,0.545,0.166,-46.725,-137.252,-162.417
59835490,-0.652,0.612,-0.036,-43.855,-129.115,-171.64
59835500,-0.191,-0.292,-0.135,-81.182,-74.847,-139.107
59835510,0.669,-1.998,0.519,-88.987,208.862,53.27
59835520,0.687,-1.86,-0.835,292.512,468.545,41.685
59835530,0.85,1.91,0.743,303.205,372.522,-210.42
59835540,-0.607,0.433,1.305,244.335,249.62,-89.32
59835550,1.755,-1.073,1.264,254.135,310.117,75.582
59835560,0.117,1.106,1.748,226.922,286.562,18.602
59835570,-0.87,-0.556,1.938,142.59,222.005,74.252
59835580,-0.767,0.185,1.762,91.665,110.057,31.972
59835590,-0.276,0.025,1.434,25.305,32.112,15.907
59835600,-0.013,-0.206,1.184,-15.12,-20.405,15.19
59835610,0.217,-0.339,0.997,-39.462,-49.157,14.875
59835620,0.425,-0.347,0.871,-50.995,-60.13,12.162
59835630,0.492,-0.422,0.809,-54.46,-57.557,10.762
59835640,0.507,-0.37,0.78,-51.52,-50.277,9.047
59835650,0.476,-0.392,0.833,-45.115,-41.387,7.647
59835660,0.406,-0.327,0.943,-53.06,-36.067,9.625
59835670,0.33,-0.317,1.06,-62.667,-40.075,10.237
59835670,0.586,-0.159,0.989,-72.222,-56.21,19.547
59835690,0.383,-0.275,1.071,-88.952,-66.027,31.447
59835690,0.324,-0.361,1.081,-102.375,-84.402,41.195
59835710,0.226,-0.48,1.175,-105.332,-112.857,43.557
59835710,0.237,-0.728,1.184,-102.55,-151.707,45.325
59835730,0.179,-0.79,0.904,-85.592,-189.525,37.397
59835730,0.18,-0.846,0.924,-60.287,-190.295,18.9
59835750,0.4,-0.973,0.575,-32.655,-179.165,11.392
59835750,0.491,-1.12,0.674,-11.462,-145.722,13.86
59835760,0.333,-1.518,0.685,26.74,-148.557,3.097
59835770,0.629,-1.565,-0.308,89.722,-102.2,52.885
59835780,-1.722,-1.261,0.541,102.707,5.897,209.177
59835790,-1.317,-1.37,-0.26,150.342,-72.782,204.82
59835800,0.748,-0.958,-0.759,142.31,-59.92,262.937
59835810,0.521,-0.313,-0.872,86.467,-49.7,265.982
59835820,0.242,-0.045,-0.547,-0.07,-50.347,209.72
59835830,1.221,0.378,0.978,-73.657,-34.37,135.747
59835840,1.998,1.404,0.987,-9.24,56.315,-29.592
59835850,-0.295,1.754,1.698,125.352,19.792,-205.747
59835860,0.574,-1.858,0.056,9.625,84.822,-156.572
59835870,1.667,-0.535,0.204,211.05,155.767,-102.2
59835880,1.912,1.382,0.209,301.157,110.477,-117.722
59835890,1.351,-0.25,1,241.412,226.275,23.555
59835900,0.097,0.102,1.667,200.83,259.525,59.115
59835910,-0.646,-0.183,1.782,144.672,209.037,54.092
59835920,-0.438,0.103,1.609,92.89,124.845,15.417
59835930,-0.2,0.112,1.405,33.092,54.477,7.98
59835940,-0.059,-0.061,1.237,-11.777,1.312,12.372
59835950,0.078,-0.287,1.105,-42.122,-31.99,13.125
59835960,0.272,-0.261,1.014,-58.87,-53.847,9.905
59835970,0.328,-0.304,1.008,-72.205,-64.4,10.745
59835980,0.379,-0.311,1,-84.717,-72.52,11.025
59835990,0.404,-0.308,0.964,-97.667,-75.81,12.512
59836000,0.266,-0.418,0.993,-106.977,-79.135,14.717
59836010,0.625,-0.211,0.916,-107.8,-89.775,16.607
59836020,0.361,-0.329,1.024,-122.342,-87.482,24.237
59836030,0.367,-0.346,1.02,-131.075,-94.517,27.545
59836040,0.383,-0.409,0.977,-135.485,-103.775,29.382
59836050,0.333,-0.49,0.963,-134.697,-115.377,29.417
59836050,0.215,-0.607,0.875,-126.192,-132.737,25.462
59836070,0.329,-0.517,0.649,-110.32,-141.522,16.66
59836070,0.444,-0.548,0.469,-102.847,-131.407,11.777
59836080,0.524,-0.53,0.323,-95.357,-108.867,5.792
59836090,0.553,-0.58,0.285,-87.762,-77.35,1.33
59836100,0.508,-0.585,0.268,-74.9,-48.912,-1.732
59836110,0.492,-0.576,0.249,-60.252,-20.737,-3.85
59836120,0.507,-0.626,0.238,-44.747,3.412,-6.842
59836130,0.456,-0.724,0.355,-30.957,26.6,-10.552
59836140,0.463,-0.651,0.392,-11.585,37.502,-17.64
59836150,0.504,-0.613,0.54,1.505,48.842,-19.565
59836160,0.495,-0.581,0.653,10.15,48.702,-21.21
59836170,0.51,-0.542,0.672,16.485,45.115,-21.052
59836180,0.522,-0.606,0.788,18.655,36.382,-14.227
59836190,0.542,-0.483,0.856,19.04,21.787,-2.8
59836200,0.634,-0.395,0.909,12.075,6.037,8.785
59836210,0.536,0.129,1.565,-21.98,19.267,14.157
59836220,-1.099,0.067,1.759,-118.44,65.152,-72.24
59836230,-0.304,-1.493,1.088,-136.902,-16.485,-97.86
59836240,1.888,-0.296,0.99,-122.675,-57.242,-51.59
59836250,1.031,-0.438,0.947,-146.125,-39.305,-44.152
59836260,0.404,-0.779,1.008,-158.725,-20.825,-12.442
59836270,1.22,-0.556,0.819,-129.78,-3.972,19.407
59836280,1.371,-0.324,0.949,-108.185,39.462,30.642
59836290,1.03,-0.525,0.787,-82.635,93.73,23.537
59836300,0.855,-0.368,0.586,-49.087,114.222,-8.12
59836310,0.497,-0.524,0.508,-18.935,98.42,-52.202
59836320,0.508,-0.639,0.428,3.255,84.962,-75.827
59836330,0.645,-0.502,0.117,15.942,86.432,-90.37
59836340,0.57,-0.532,0.119,10.255,92.452,-100.082
59836350,0.422,-0.67,0.086,-7.017,106.942,-101.412
59836360,0.413,-0.559,0.043,-12.6,119.875,-98.192
59836370,0.347,-0.395,0.027,-21.63,127.575,-91.595
59836380,0.173,-0.322,0.041,-31.902,124.25,-83.545
59836390,0.001,-0.341,0.068,-37.03,105.822,-71.417
59836400,0.061,-0.433,0.059,-38.412,83.702,-54.827
59836410,0.204,-0.377,0.063,-36.487,66.64,-39.007
59836420,0.33,-0.448,0.03,-32.602,54.53,-32.987
59836420,0.229,-0.574,0.057,-42.245,40.775,-30.187
59836440,0.073,-0.767,0.234,-47.495,15.312,-34.02
59836440,-0.021,-1.066,0.357,-48.86,-35.997,-46.182
59836460,0.086,-1.2,0.313,-29.75,-81.742,-64.172
59836460,0.005,-1.079,0.108,-1.61,-110.407,-74.165
59836480,0.122,-1.183,0.063,14.385,-119.84,-66.657
59836480,-0.08,-1.641,0.644,39.095,-74.917,-5.775
59836500,0.138,-1.185,1.044,112.42,7.192,16.607
59836500,1.358,-0.717,1.166,165.707,64.382,-27.562
59836510,1.115,-0.794,0.764,171.92,59.85,-81.672
59836520,0.668,-0.316,0.769,207.812,32.585,-105.472
59836530,1.367,-0.001,0.855,207.795,95.252,-62.807
59836540,1.088,-0.102,0.754,195.982,119.875,-30.817
59836550,0.914,-0.027,0.809,189.997,140.472,6.3
59836560,1.025,0.039,0.957,171.01,156.467,53.882
59836570,0.472,-0.081,1.216,142.765,155.4,87.045
59836580,-0.093,-0.383,1.293,118.737,127.295,97.527
59836590,-0.28,-0.326,1.258,99.015,89.127,78.505
59836600,-0.505,-0.176,1.248,74.48,59.29,40.232
59836610,-0.375,-0.46,1.107,49.017,33.705,1.33
59836620,0.134,-0.353,0.952,39.707,6.23,-27.615
59836630,0.564,-0.284,0.809,38.692,-0.84,-35.472
59836640,0.748,-0.226,0.78,44.17,6.475,-24.29
59836650,0.615,-0.22,0.843,46.34,21.577,-5.722
59836660,0.377,-0.268,0.912,45.64,30.047,8.05
59836670,0.21,-0.306,0.961,42.21,32.27,11.567
59836680,0.22,-0.262,0.972,36.277,26.39,6.335
59836690,0.327,-0.236,0.945,28.56,21.875,2.73
59836700,0.342,-0.249,0.935,21.63,18.585,2.94
59836710,0.297,-0.245,0.959,16.03,17.15,4.952
59836720,0.245,-0.202,0.998,8.557,11.567,5.74
59836730,0.227,-0.223,0.996,-2.31,3.955,6.09
59836740,0.249,-0.232,0.992,-13.177,-4.585,5.075
59836750,0.265,-0.214,1.009,-24.57,-11.847,4.427
59836760,0.266,-0.188,1.054,-38.955,-19.985,4.777
59836760,0.307,-0.147,1.091,-57.907,-29.33,6.422
59836780,0.378,-0.182,1.109,-82.005,-36.557,9.59
59836780,0.473,0.023,1.14,-103.582,-39.637,11.812
59836800,0.456,-0.168,1.131,-138.757,-33.267,17.815
59836800,0.478,-0.282,1.099,-162.75,-34.947,29.837
59836820,0.336,-0.454,1.012,-176.12,-53.427,51.38
59836820,0.89,-0.428,1.097,-182.455,-78.715,76.44
59836830,0.597,-0.3,1.027,-169.662,-81.095,95.287
59836840,0.474,-0.588,1.113,-166.162,-76.457,110.967
59836850,0.544,-0.992,1.044,-154.192,-79.345,109.34
59836860,0.44,-0.941,0.788,-124.705,-84.297,99.855
59836870,0.664,-0.917,0.629,-108.272,-81.077,75.162
59836880,0.481,-1.187,0.857,-94.15,-63.087,63.56
59836890,0.038,-0.795,0.625,-50.837,-54.372,66.57
59836900,0.48,0.035,0.473,4.252,-67.462,75.477
59836910,-0.052,0.407,0.326,34.405,-79.887,85.785
59836920,-0.741,0.853,0.272,65.817,-108.202,95.952
59836930,-1.2,1.15,0.156,95.042,-140.56,127.277
59836940,-1.477,1.575,0.16,131.477,-173.635,155.4
59836950,-1.526,1.631,0.33,152.6,-175.175,172.865
59836960,-1.054,0.954,-0.408,161.245,-128.45,166.81
59836970,1.745,-1.31,-0.233,36.942,63.7,91.945
59836980,-1.1,-1.998,0.006,-84,-37.8,-270.462
59836990,-0.922,1.133,0.38,280.21,-35.262,-406.805
59837000,1.998,1.902,0.505,306.88,78.82,-365.382
59837010,1.077,-1.383,0.911,219.677,197.715,-136.675
59837020,1.998,1.649,0.81,310.082,206.465,-55.055
59837030,0.687,-0.19,1.567,198.135,273.612,83.982
59837040,-1.872,-0.152,1.975,152.74,228.147,96.687
59837050,-0.976,0.117,1.702,91.35,115.325,21.735
59837060,-0.013,0.116,1.29,28.77,27.37,-5.547
59837070,0.068,-0.084,1.126,-12.04,-12.775,5.792
59837080,-0.022,-0.274,1.077,-34.755,-35.927,9.782
59837090,0.341,-0.329,0.948,-47.53,-52.255,2.642
59837100,0.376,-0.295,0.943,-52.447,-57.82,-0.472
59837110,0.269,-0.357,0.99,-58.765,-59.605,-0.875
59837120,0.342,-0.256,1.041,-67.97,-65.467,-5.11
59837130,0.417,-0.193,1.092,-84.7,-71.4,-7.192
59837140,0.489,-0.083,1.138,-107.642,-77.315,-1.75
59837150,0.405,-0.185,1.25,-136.745,-85.33,10.622
59837160,0.375,-0.531,1.258,-152.11,-109.287,20.842
59837170,0.473,-0.52,1.264,-140.962,-132.317,22.697
59837170,0.174,-0.856,1.2,-128.415,-140.245,17.692
59837190,0.069,-0.822,0.88,-102.217,-141.89,-8.627
59837190,0.094,-0.866,0.381,-86.327,-123.882,-48.107
59837210,0.123,-1.718,0.187,-105.105,-72.135,-109.095
59837210,0.507,-1.993,-0.184,-92.452,30.345,-109.112
59837230,-1.886,-1.392,0.609,-50.557,109.865,-43.995
59837230,-1.592,-1.166,0.184,-14.245,55.72,-30.152
59837250,-0.13,-0.741,-0.133,-7.455,68.407,55.405
59837250,-0.696,-0.243,0.147,-20.562,46.357,88.007
59837260,0.55,0.87,0.748,-35.157,27.912,92.872
59837270,1.996,1.997,0.205,-17.832,-10.885,-44.152
59837280,0.669,0.672,1.156,-21.822,-45.605,-226.012
59837290,1.313,-1.406,-0.187,0.332,85.277,-218.522
59837300,1.784,-1.111,-0.014,124.512,154.192,-95.935
59837310,1.998,1.691,0.1,295.54,118.877,-59.29
59837320,0.945,-1.168,1.084,230.615,228.55,86.642
59837330,-0.317,0.226,1.588,250.145,235.305,74.042
59837340,-0.451,-0.236,1.631,191.432,201.95,31.5
59837350,-0.412,0.296,1.687,127.697,145.705,4.287
59837360,-0.564,0.365,1.488,55.772,68.11,9.625
59837370,-0.54,0.041,1.349,-2.38,0.875,10.99
59837380,-0.255,-0.042,1.314,-42.857,-54.46,0.577
59837390,0.013,-0.121,1.32,-81.095,-96.355,-3.202
59837400,0.394,-0.169,1.192,-115.202,-131.547,-3.412
59837410,0.624,-0.207,1.031,-144.445,-145.092,2.502
59837420,0.648,-0.305,0.894,-165.2,-141.942,14.28
59837430,1.067,-0.197,0.737,-165.672,-139.79,36.12
59837440,0.806,-0.238,0.648,-162.347,-114.765,59.902
59837450,0.661,-0.509,0.637,-157.85,-88.235,88.235
59837460,0.433,-0.541,0.628,-146.93,-82.845,104.387
59837470,0.685,-0.517,0.66,-137.707,-72.275,112.91
59837480,0.487,-0.406,0.694,-123.182,-49.385,111.37
59837490,0.343,-0.451,0.722,-120.417,-29.487,106.015
59837500,0.258,-0.521,0.73,-120.592,-16.082,96.827
59837510,0.211,-0.505,0.727,-120.645,-7.542,84.63
59837510,0.209,-0.553,0.721,-121.135,0.07,71.575
59837530,0.111,-0.547,0.724,-120.592,4.847,59.255
59837530,0.083,-0.555,0.715,-124.18,4.2,48.16
59837550,0.146,-0.581,0.706,-127.785,1.627,36.837
59837550,0.123,-0.603,0.726,-134.312,-1.697,27.86
59837570,0.073,-0.675,0.762,-142.537,-13.072,18.235
59837570,0.167,-0.625,0.783,-151.095,-29.645,11.585
59837580,0.358,-0.637,0.805,-162.82,-39.672,11.112
59837590,0.477,-0.65,0.845,-174.632,-43.645,11.97
59837600,0.484,-0.622,0.875,-185.99,-48.055,15.837
59837610,0.53,-0.706,0.937,-201.197,-51.66,25.007
59837620,0.717,-0.87,1.067,-213.797,-54.407,31.097
59837630,0.763,-0.962,1.127,-216.335,-41.895,38.972
59837640,0.775,-1.007,1.101,-204.207,-19.372,35.122
59837650,0.831,-0.963,1.564,-183.347,5.565,27.772
59837660,0.582,-0.831,1.214,-145.127,28.437,17.99
59837670,0.417,-0.693,0.665,-96.915,38.57,-0.175
59837680,0.41,-0.936,0.402,-56.787,51.695,-8.12
59837690,0.203,-1.143,0.287,-2.502,51.502,-24.692
59837700,-1.604,-0.901,1.57,92.4,-21.805,-31.5
59837710,-0.674,-1.09,0.255,230.51,-119.175,3.377
59837720,1.115,-0.783,-0.434,307.317,-21.385,102.585
59837730,0.795,-0.375,-0.23,305.147,37.887,121.747
59837740,-0.043,-0.379,-0.197,272.055,18.9,65.432
59837750,-0.305,-0.724,0.002,245.805,-14.507,31.762
59837760,0.2,-0.671,0.036,240.17,-46.637,6.895
59837770,0.426,-0.629,0.052,221.147,-62.44,-32.13
59837780,0.16,-0.653,0.171,189.525,-67.27,-78.767
59837790,-0.181,-0.791,0.269,149.03,-59.412,-107.502
59837800,-0.304,-0.936,0.351,117.512,-54.075,-120.697
59837810,-0.256,-1.104,0.406,90.58,-47.74,-121.87
59837820,-0.092,-1.29,0.447,69.405,-28.507,-112.857
59837830,0.003,-1.382,0.41,55.737,7.087,-98.437
59837840,0.01,-1.332,0.344,53.48,43.487,-91.297
59837850,0.031,-1.151,0.238,52.605,73.29,-89.67
59837860,0.036,-0.946,0.121,36.75,91.21,-90.492
59837870,0.062,-0.843,0.062,10.255,97.982,-92.82
59837880,0.041,-0.776,0.054,-14.332,95.095,-93.922
59837890,0.042,-0.67,0.103,-31.78,82.705,-89.267
59837900,0.102,-0.613,0.242,-45.78,65.852,-71.26
59837910,0.082,-0.67,0.449,-49.927,39.935,-42.455
59837920,0.113,-0.642,0.687,-36.47,8.155,-11.9
59837920,0.252,-0.6,0.903,-11.812,-22.05,22.872
59837940,0.438,-0.504,1.02,20.09,-37.117,52.377
59837940,0.587,-0.271,1.181,50.645,-33.862,77.437
59837960,0.757,-0.043,1.548,64.977,-18.182,102.13
59837960,0.873,-0.064,1.774,70.297,-0.647,117.092
59837980,0.762,-0.136,1.739,89.687,15.47,106.505
59837980,0.652,-0.107,1.526,124.705,21.402,88.252
59838000,0.443,-0.176,1.159,150.605,20.807,75.547
59838000,0.266,-0.202,0.815,157.29,7.647,53.095
59838010,0.3,-0.168,0.505,133.805,0.332,11.83
59838020,0.267,-0.27,0.338,92.54,15.242,-11.06
59838030,0.183,-0.246,0.256,54.302,32.357,-50.19
59838040,0.189,-0.237,0.217,11.83,38.167,-93.817
59838050,0.029,-0.45,0.14,-22.102,48.895,-135.817
59838060,-0.229,0.227,-0.033,-30.047,54.162,-179.987
59838070,-0.483,-0.559,0.782,-89.827,-15.172,-270.375
59838080,1.998,-1.998,0.781,-133.84,-7.122,-332.115
59838090,1.905,-1.685,-0.436,53.305,56.14,-383.932
59838100,1.001,-0.391,0.135,97.842,173.18,-351.557
59838110,0.921,0.235,1.146,145.39,175.717,-269.64
59838120,1.998,1.436,0.697,237.912,199.885,-158.48
59838130,0.535,0.055,1.878,127.54,285.057,27.965
59838140,-1.856,0.917,1.821,69.755,195.09,75.232
59838150,-1.071,-0.223,1.434,4.287,69.492,57.347
59838160,-0.337,-0.258,1.135,-11.252,-19.495,16.31
59838170,0.865,-0.488,0.686,-15.592,-44.17,9.047
59838180,0.274,-0.413,0.884,-4.567,-23.712,12.355
59838190,0.501,-0.374,0.832,1.785,-12.827,9.747
59838200,0.336,-0.282,0.907,4.742,-4.637,8.995
59838210,0.291,-0.227,0.937,4.742,-2.345,9.257
59838220,0.292,-0.319,0.912,2.065,-3.535,7.682
59838230,0.346,-0.231,0.926,1.995,-3.29,3.78
59838240,0.299,-0.167,0.969,-0.875,-4.095,5.582
59838250,0.226,-0.207,0.968,-6.545,-8.19,9.292
59838260,0.219,-0.3,0.95,-10.377,-13.002,9.432
59838260,0.304,-0.256,0.943,-13.597,-17.5,4.847
59838280,0.364,-0.25,0.927,-17.57,-18.812,4.427
59838280,0.348,-0.283,0.939,-20.667,-18.812,6.3
59838300,0.448,-0.261,0.966,-27.02,-18.305,6.72
59838300,0.531,-0.234,1.019,-37.922,-19.25,11.165
59838320,0.632,-0.206,1.051,-54.197,-18.305,20.737
59838320,0.79,-0.161,1.092,-73.832,-14.945,32.97
59838330,0.819,-0.459,1.055,-88.917,-5.932,51.397
59838340,0.554,-0.729,1.008,-78.085,9.677,56.262
59838350,0.025,-1.079,1.114,-44.012,-7.437,65.87
59838360,0.024,-0.356,1.187,4.69,-18.9,77.927
59838370,-0.379,-0.242,0.818,16.362,-51.887,78.155
59838380,-0.281,-0.772,0.804,1.19,-102.865,52.727
59838390,-0.42,-1.642,-0.084,-8.767,-142.17,25.62
59838400,1.024,-1.998,-0.828,-52.395,-143.552,-6.527
59838410,-0.106,-1.929,-0.254,-46.182,-80.552,-13.877
59838420,-1.42,-1.161,-0.113,-47.162,-82.127,-39.55
59838430,-0.966,-1.325,0.093,-108.482,-79.695,-22.015
59838440,-0.665,-1.049,0.669,-112.665,-83.125,-27.352
59838450,-0.69,0.374,1.282,-59.447,-59.045,-44.135
59838460,-0.033,1.956,1.651,25.235,-38.132,-114.975
59838470,1.9,1.997,1.51,81.357,21.385,-233.992
59838480,1.676,-0.304,0.414,89.057,64.032,-225.33
59838490,1.922,-0.476,0.627,161.175,224.192,-162.487
59838500,1.67,1.494,1.089,193.112,261.362,-63.7
59838510,-0.748,-0.369,1.906,73.08,271.162,112.035
59838520,-1.674,0.434,1.805,36.75,117.25,68.687
59838530,-0.231,-0.435,1.205,-9.695,-12.81,23.905
59838540,0.55,-0.226,0.893,-14.857,-56.997,4.445
59838550,0.61,-0.177,0.83,-16.152,-54.932,21.98
59838560,0.58,-0.404,0.768,-14.367,-44.397,37.572
59838570,0.377,-0.447,0.824,-10.727,-29.61,36.452
59838580,0.29,-0.412,0.874,-7.927,-20.982,24.01
59838590,0.379,-0.365,0.863,-8.067,-16.642,8.96
59838600,0.453,-0.286,0.882,-9.275,-12.232,1.61
59838610,0.383,-0.131,0.973,-11.567,-11.9,4.865
59838620,0.288,-0.217,1.015,-24.482,-17.045,9.712
59838630,0.209,-0.242,1.044,-36.82,-28.175,10.097
59838640,0.226,-0.274,1.043,-50.872,-40.792,6.65
59838650,0.282,-0.24,1.042,-62.895,-53.567,1.995
59838660,0.33,-0.244,1.026,-77.63,-61.985,-0.035
59838670,0.367,-0.229,1.007,-92.715,-67.952,-0.245
59838670,0.383,-0.216,0.994,-108.99,-69.09,1.172
59838690,0.371,-0.268,0.96,-123.69,-70.472,2.537
59838690,0.405,-0.203,0.943,-132.475,-72.502,4.777
59838710,0.375,-0.337,0.918,-140.682,-76.072,9.502
59838710,0.389,-0.486,0.905,-142.695,-90.177,18.41
59838730,0.363,-0.55,0.854,-130.83,-110.092,16.537
59838730,0.23,-0.643,0.874,-118.807,-123.777,5.95
59838750,0.36,-0.652,0.723,-106.54,-129.15,-14.297
59838750,0.552,-0.611,0.628,-97.422,-105.595,-36.277
59838760,0.346,-0.718,0.536,-93.887,-80.115,-57.155
59838770,0.262,-0.864,0.701,-85.032,-51.222,-64.89
59838780,0.482,-0.6,0.203,-64.54,-40.25,-69.422
59838790,0.58,-0.437,0.488,-74.917,-16.362,-54.442
59838800,-0.074,-0.699,0.675,-93.695,-31.395,-33.407
59838810,-0.041,-1.07,0.74,-88.952,-25.007,11.69
59838820,0.162,-0.501,0.999,-61.722,-20.265,65.835
59838830,0.575,-0.62,0.996,-36.4,-16.012,84.49
59838840,0.861,-0.588,1.072,-31.85,-4.2,115.517
59838850,0.891,-0.549,1.261,-21.507,20.142,135.1
59838860,1.026,-0.491,1.192,-13.265,33.057,134.207
59838870,0.927,-0.368,1.197,-5.145,37.887,131.495
59838880,0.856,-0.436,1.352,1.417,45.377,141.102
59838890,1.039,-0.424,1.231,19.162,68.547,152.547
59838900,1.106,-0.227,0.904,37.835,83.72,138.127
59838910,0.894,-0.297,0.721,41.825,88.27,116.48
59838920,0.816,-0.339,0.65,40.705,84.787,104.037
59838930,0.819,-0.284,0.615,41.037,68.88,86.432
59838940,0.805,-0.264,0.573,39.62,45.307,61.635
59838950,0.768,-0.199,0.517,40.162,29.277,37.152
59838960,0.679,-0.241,0.533,38.867,14.122,16.537
59838970,0.655,-0.416,0.566,40.285,-4.025,-8.365
59838980,0.695,-0.48,0.528,50.837,-11.112,-36.12
59838990,0.512,-0.41,0.507,58.065,-12.477,-61.74
59839000,0.055,-0.555,0.568,54.582,-32.2,-87.605
59839010,-0.029,-0.8,0.647,49.315,-54.705,-90.37
59839010,0.093,-0.863,0.714,55.772,-62.09,-79.852
59839030,-0.079,-0.874,0.742,66.797,-62.685,-66.955
59839030,-0.306,-0.842,0.668,77.28,-62.195,-54.022
59839050,-0.303,-0.748,0.604,83.457,-62.982,-37.467
59839050,-0.151,-0.735,0.577,81.2,-52.202,-18.952
59839070,-0.017,-0.709,0.557,77,-32.497,-10.325
59839070,-0.088,-0.632,0.533,71.557,-13.44,-12.95
59839080,-0.153,-0.592,0.465,63.7,-4.76,-20.37
59839090,-0.155,-0.559,0.408,52.412,3.605,-20.405
59839100,-0.128,-0.625,0.369,41.562,11.655,-10.692
59839110,-0.068,-0.634,0.338,32.655,21.945,2.712
59839120,0.113,-0.626,0.297,24.237,30.135,13.912
59839130,0.19,-0.673,0.259,14.682,38.797,15.627
59839140,0.22,-0.662,0.208,6.16,44.87,20.632
59839150,0.211,-0.626,0.176,-5.092,44.187,23.17
59839160,0.201,-0.609,0.207,-18.97,34.79,29.032
59839170,0.296,-0.583,0.365,-31.587,25.007,39.042
59839180,0.449,-0.58,0.551,-39.077,15.802,53.445
59839190,0.564,-0.541,0.657,-37.712,11.375,64.522
59839200,0.641,-0.419,0.691,-29.925,6.37,71.505
59839210,0.711,-0.312,0.766,-24.92,4.147,80.867
59839220,0.924,-0.237,0.896,-20.282,-0.945,86.502
59839230,1.163,-0.06,1.15,-11.987,-3.447,87.727
59839240,1.366,-0.111,1.228,-1.732,-8.96,71.277
59839250,1.487,-0.173,1.059,19.145,-15.365,29.575
59839260,1.429,-0.246,0.868,38.447,-19.985,-3.237
59839270,1.219,-0.425,0.705,41.475,-28.192,-22.26
59839280,0.983,-0.532,0.611,39.182,-56.105,-37.397
59839290,1.007,-0.633,0.497,31.15,-83.685,-39.585
59839300,1.166,-0.629,0.372,17.622,-99.785,-46.48
59839310,1.183,-0.552,0.231,0.017,-98.297,-53.515
59839320,1.073,-0.418,0.112,-25.55,-85.4,-65.082
59839330,0.917,-0.426,0.018,-65.275,-74.06,-79.94
59839340,0.847,-0.569,-0.022,-112.472,-62.72,-93.957
59839350,0.494,-0.796,0.063,-153.317,-61.6,-108.622
59839360,0.181,-1.029,0.165,-176.907,-83.195,-128.66
59839370,0.066,-1.364,0.126,-210.735,-111.282,-134.96
59839380,0.127,-1.611,0.081,-220.517,-117.705,-123.742
59839390,0.248,-1.56,-0.055,-208.32,-106.732,-118.72
59839400,0.178,-1.337,-0.233,-208.757,-76.702,-114.065
59839410,0.061,-1.078,-0.427,-222.705,-45.132,-111.965
59839420,-0.257,-0.918,-0.499,-247.1,-18.287,-106.96
59839420,-0.229,-0.602,-0.557,-254.905,-9.712,-104.107
59839440,0.672,-1.339,-0.193,-240.992,55.562,-57.68
59839440,1.619,-0.417,1.809,-116.707,336.665,60.445
59839460,-1.729,-1.663,1.998,55.772,536.585,152.915
59839460,-1.322,-1.797,-0.062,353.412,145.162,54.425
59839470,1.984,0.127,-0.905,456.12,33.407,-16.31
59839480,0.457,-0.537,1.256,299.757,209.422,-36.68
59839490,-1.558,-0.119,1.716,312.217,187.285,-108.185
59839500,1.58,0.299,0.924,326.322,163.852,-102.13
59839510,1.095,0.359,1.341,296.397,172.672,-86.747
59839520,1.376,0.62,1.352,231.385,185.325,-36.785
59839530,-0.077,0.201,1.655,140.105,168.717,32.2
59839540,-0.895,-0.02,1.692,75.145,97.72,50.365
59839550,-0.632,-0.028,1.493,18.987,16.747,28.105
59839560,0.037,-0.094,1.201,-22.767,-45.762,10.797
59839570,0.367,-0.302,0.991,-47.757,-75.74,13.335
59839580,0.456,-0.256,0.911,-56.105,-87.22,16.765
59839590,0.509,-0.364,0.874,-68.845,-85.452,19.337
59839600,0.55,-0.316,0.84,-75.81,-81.427,18.952
59839610,0.549,-0.305,0.848,-84.77,-69.58,20.335
59839620,0.563,-0.288,0.857,-94.815,-57.785,19.11
59839630,0.662,-0.243,0.867,-107.257,-44.292,19.11
59839640,0.768,-0.302,0.845,-119.315,-37.992,28.262
59839650,0.847,-0.256,0.837,-126.087,-31.71,48.58
59839660,0.671,-0.434,0.893,-134.137,-23.135,73.85
59839670,0.288,-0.732,0.924,-140,-38.797,104.947
59839680,0.658,-0.584,0.952,-132.44,-49.857,128.45
59839690,0.852,-0.835,0.813,-118.44,-40.6,152.897
59839700,0.44,-0.833,0.662,-98.63,-31.78,175.07
59839710,0.241,-1.041,0.453,-73.062,-53.707,178.307
59839720,0.328,-1.333,0.428,-58.38,-70.262,209.107
59839730,0.619,-1.446,0.481,-25.987,-82.67,220.29
59839740,0.783,-1.349,0.497,14.21,-98.805,227.85
59839750,-0.631,-1.379,0.614,68.18,-130.76,234.99
59839760,0.623,-0.813,0.252,126.665,-112.42,315.49
59839760,1.815,0.287,-1.259,115.955,-58.695,340.795
59839780,1.998,0.904,-0.958,47.022,-87.045,173.372
59839780,1.76,0.317,-0.732,-48.352,-64.312,-49.98
59839800,0.186,0.177,-0.669,-80.062,-44.257,-243.127
59839800,-1.602,0.115,-0.266,-110.705,-76.44,-317.712
59839820,-1.84,-0.449,-0.051,-136.517,-118.212,-303.852
59839820,-0.418,-1.038,1.189,-96.425,-28.647,-191.555
59839830,-1.998,-1.998,0.863,64.557,30.765,-67.97
59839840,1.525,0.223,0.453,315.875,31.955,-166.81
59839850,0.645,0.128,0.831,228.357,131.635,-236.6
59839860,0.067,-0.078,1.231,257.302,169.942,-179.952
59839870,1.806,-0.307,0.514,292.81,163.677,-115.535
59839880,1.24,0.786,1.363,288.452,151.322,-25.725
59839890,0.205,0.195,1.789,186.06,164.43,50.137
59839900,-0.79,0.161,1.792,101.062,104.825,63.157
59839910,-0.405,-0.049,1.435,37.222,33.197,38.622
59839920,0.152,-0.251,1.075,-5.25,-12.337,18.952
59839930,0.463,-0.317,0.884,-23.467,-29.05,17.745
59839940,0.449,-0.416,0.849,-28.175,-34.177,26.635
59839950,0.365,-0.423,0.836,-23.03,-35.77,31.867
59839960,0.33,-0.338,0.906,-20.195,-38.167,32.742
59839970,-0.14,-0.218,1.167,-27.877,-37.747,22.61
59839980,0.034,-0.301,1.243,-58.432,-48.037,-4.585
59839990,0.711,0.011,1.048,-95.34,-64.137,-18.042
59840000,0.884,-0.152,0.853,-126.122,-65.24,6.632
59840010,0.886,-0.329,0.784,-134.907,-60.882,46.112
59840020,0.902,-0.523,0.741,-132.107,-55.317,74.672
59840030,0.957,-0.692,0.759,-124.355,-38.01,87.885
59840040,0.905,-0.737,0.801,-110.005,-9.082,96.215
59840050,0.836,-0.801,0.748,-91.315,24.832,110.11
59840060,0.789,-0.734,0.712,-70.717,49.892,134.96
59840070,0.502,-0.557,0.732,-50.347,48.247,153.982
59840080,0.058,-1.046,0.613,-48.37,20.562,169.05
59840090,0.403,-1.179,0.475,-35.525,-26.705,164.85
59840100,0.551,-1.366,0.279,-21.35,-68.477,152.302
59840110,0.028,-1.61,0.204,-4.235,-102.13,141.767
59840120,1.583,-1.373,-0.679,-8.54,-123.41,74.077
59840130,1.998,-1.061,-1.156,-67.427,-57.242,-15.837
59840140,0.992,-1.126,-0.729,-135.502,-76.667,-189.682
59840140,-0.626,-0.825,-0.485,-155.837,-126.07,-317.957
59840160,-1.139,-0.362,-0.47,-191.187,-186.445,-325.78
59840160,-0.851,-0.064,-0.394,-212.38,-246.242,-313.32
59840170,-0.936,0.167,-0.182,-236.915,-278.162,-290.447
59840180,-1.302,0.541,0.02,-246.12,-294.612,-271.407
59840190,1.014,-0.228,1.056,-236.792,-242.095,-222.617
59840200,-0.091,-1.92,1.982,-135.135,278.53,-4.217
59840210,-0.445,-1.671,-0.9,336.105,408.66,-74.287
59840220,1.946,1.637,-0.236,340.34,501.48,-104.842
59840230,-1.621,-0.202,1.424,247.555,357.14,-42.315
59840240,1.641,-0.335,1.264,334.25,337.557,45.255
59840250,-0.615,0.431,1.867,314.65,273.7,85.592
59840260,-0.658,0.021,1.961,250.25,216.457,54.46
59840270,-0.338,0.228,1.77,162.977,148.54,7.98
59840280,-0.019,0.094,1.568,80.15,83.702,-1.452
59840290,-0.02,0.059,1.45,14.56,30.1,7
59840300,0.062,-0.102,1.267,-39.445,-15.312,14.822
59840310,0.195,-0.246,1.096,-78.085,-41.702,14.84
59840320,0.311,-0.174,0.982,-97.37,-56.507,9.677
59840330,0.425,-0.487,0.984,-109.305,-62.072,7.857
59840340,0.421,-0.15,0.962,-124.88,-65.24,9.152
59840350,0.415,-0.378,0.959,-142.135,-63.105,12.372
59840360,0.399,-0.318,0.949,-152.407,-66.762,12.04
59840370,-0.124,-0.236,1.328,-164.815,-72.012,11.917
59840380,-0.286,-0.36,0.84,-190.557,-90.02,-16.03
59840390,1.569,-0.788,0.445,-215.652,-67.147,-31.447
59840400,0.785,-0.253,0.539,-175.262,-95.795,10.237
59840410,0.62,-0.543,0.68,-166.495,-79.887,41.737
59840420,0.287,-0.722,0.693,-153.107,-83.93,49.402
59840430,0.435,-0.681,0.701,-131.967,-93.292,48.335
59840440,0.326,-0.884,0.696,-119.297,-100.502,42.472
59840450,0.339,-0.871,0.712,-99.907,-108.745,28.647
59840460,0.356,-0.87,0.599,-78.977,-114.45,16.415
59840470,0.343,-0.775,0.489,-60.427,-119.21,5.442
59840480,0.258,-0.857,0.421,-43.067,-123.83,3.255
59840490,-0.096,-0.776,0.233,-28.945,-141.347,14.665
59840500,0.015,-1.03,-0.467,-19.25,-189.332,22.872
59840510,0.772,-1.474,0.293,-24.92,-223.125,25.077
59840510,0.46,-1.237,0.511,6.265,-221.375,41.702
59840530,0.177,-1.069,0.21,51.205,-209.44,55.475
59840530,0.005,-1.433,0.35,62.055,-199.605,92.662
59840550,0.75,-1.317,0.572,65.275,-157.5,145.985
59840550,1.051,-0.84,0.568,66.64,-129.027,165.777
59840570,0.752,-0.81,0.899,53.812,-105.927,171.237
59840570,0.879,-0.821,1.111,43.137,-69.317,187.285
59840580,0.877,-0.519,1.161,43.277,-49.98,196.77
59840590,0.925,-0.378,1.19,36.627,-30.957,197.557
59840600,0.938,-0.215,1.11,34.055,-13.825,191.537
59840610,0.847,0.015,1.171,29.487,3.99,183.977
59840620,0.867,0.116,1.179,20.002,12.46,167.125
59840630,0.946,0.109,1.025,18.847,23.59,133.472
59840640,0.878,0.21,0.844,24.657,39.97,95.567
59840650,0.544,0.246,0.759,26.425,47.197,61.407
59840660,0.322,0.149,0.704,26.232,33.302,26.74
