time[ms],accX[g],accY[g],accZ[g],Value 1,Value 2,Value 3
61717920,-0.174,-0.255,0.968,-13.352,0.262,-1.067
61717940,-0.156,-0.213,0.97,-13.072,-1.225,-0.84
61717940,-0.157,-0.242,0.965,-15.96,-0.892,-2.047
61717960,-0.154,-0.25,0.961,-16.152,-1.505,-2.152
61717960,-0.155,-0.24,0.958,-15.522,-0.91,-1.662
61717980,-0.161,-0.25,0.958,-16.03,-1.557,-3.01
61717980,-0.169,-0.263,0.954,-15.995,-1.137,-3.272
61718000,-0.152,-0.246,0.953,-14.455,-1.907,-4.095
61718000,-0.155,-0.265,0.946,-14.14,0.385,-6.317
61718010,-0.17,-0.286,0.911,-11.69,1.575,-8.312
61718020,-0.208,-0.211,0.977,-8.225,2.047,-10.902
61718030,-0.144,-0.181,1.069,-11.725,-1.225,-12.565
61718040,-0.177,-0.161,1.117,-21.805,0.735,-14.367
61718050,-0.184,-0.106,1.182,-35.875,0.962,-18.2
61718060,-0.079,-0.13,1.235,-53.83,6.877,-23.45
61718070,-0.086,-0.134,1.269,-71.715,20.002,-28.052
61718080,-0.078,-0.156,1.226,-87.727,43.96,-34.58
61718090,-0.277,-0.156,1.167,-97.982,72.117,-44.45
61718100,-0.429,-0.204,1.13,-106.925,90.947,-57.627
61718110,-0.497,-0.332,1.091,-114.747,100.642,-69.912
61718120,-0.558,-0.383,1.053,-117.792,106.855,-80.132
61718130,-0.894,-0.299,0.935,-117.32,98.7,-83.93
61718140,-1.001,-0.478,0.831,-123.462,79.047,-87.762
61718150,-0.908,-0.581,0.788,-113.347,57.155,-89.495
61718160,-0.656,-0.448,0.702,-84.595,55.877,-84.262
61718170,-0.527,-0.387,0.59,-52.675,51.712,-94.675
61718180,-0.602,-0.366,0.384,-48.44,49.665,-100.415
61718190,-1.584,0.184,0.525,-58.485,53.637,-80.325
61718200,-1.612,-0.371,0.267,-55.947,81.2,22.697
61718210,-0.699,-0.019,0.255,3.202,87.762,127.347
61718220,0.368,-0.145,0.485,-13.265,116.532,139.247
61718230,0.347,-0.721,0.631,-22.855,139.842,101.902
61718240,-0.176,-0.87,0.508,-3.097,108.885,5.442
61718250,0.008,-0.742,0.495,21.77,53.147,-81.725
61718260,0.118,-0.77,0.397,21.21,25.235,-120.785
61718260,-0.143,-0.885,0.111,12.092,15.575,-137.445
61718280,-0.294,-0.791,-0.113,6.405,-0.087,-143.64
61718280,-0.274,-0.733,-0.195,-18.2,-19.005,-135.59
61718300,-0.602,-0.92,0.042,-60.112,-42.28,-120.662
61718300,0.87,-1.27,1.622,-58.66,-88.025,-137.882
61718320,1.946,-1.407,1.745,48.93,-14.857,-123.41
61718320,-0.629,0.981,0.64,179.375,13.317,-111.527
61718330,-0.453,0.258,1.182,120.592,-5.25,-88.357
61718340,1.145,-1.575,1.169,90.842,-47.267,0.857
61718350,0.46,-0.924,1.047,134.592,-60.217,75.512
61718360,-0.278,0.265,0.868,163.8,-83.755,128.87
61718370,-0.15,-0.266,1.006,144.427,-111.475,141.452
61718380,-1.024,-0.537,0.782,145.635,-108.797,125.912
61718390,-0.986,-0.229,0.954,170.467,-88.305,80.885
61718400,-0.849,0.044,1.07,166.232,-66.815,10.902
61718410,-0.559,-0.142,1.089,155.347,-71.452,-49.612
61718420,-0.144,-0.269,1.139,142.03,-86.695,-72.205
61718430,0.315,-0.258,1.242,117.215,-98.91,-61.495
61718440,0.443,-0.025,1.304,91.875,-85.382,-36.575
61718450,0.172,0.001,1.257,62.265,-57.067,-17.395
61718460,-0.004,-0.066,1.149,33.6,-35.56,-14.385
61718470,0.088,-0.169,1.08,15.12,-26.18,-17.01
61718480,0.163,-0.196,1.05,2.835,-10.185,-16.047
61718490,0.036,-0.221,1.036,-5.967,6.912,-13.282
61718500,-0.02,-0.207,1.044,-11.707,20.09,-9.117
61718510,-0.03,-0.228,1.051,-19.11,27.387,-8.417
61718520,-0.048,-0.208,1.067,-26.092,36.032,-6.16
61718530,-0.095,-0.206,1.103,-34.86,42.612,-5.862
61718540,-0.133,-0.16,1.151,-43.907,52.43,-6.667
61718550,-0.237,-0.161,1.178,-60.235,58.52,-11.217
61718560,-0.217,-0.173,1.181,-84.192,62.86,-19.985
61718570,-0.209,-0.235,1.115,-102.742,72.31,-29.12
61718580,-0.128,-0.307,1.082,-114.1,88.795,-39.112
61718590,-0.067,-0.329,1.042,-120.522,108.325,-47.495
61718600,0.052,-0.373,1.034,-121.24,129.622,-51.677
61718610,0.114,-0.359,1.106,-108.867,149.695,-49.682
61718620,0.374,-0.448,1.024,-96.652,173.442,-41.37
61718630,-0.198,-0.634,0.984,-86.835,165.497,-30.152
61718640,-0.385,-0.881,0.787,-85.505,125.597,-24.885
61718650,-0.481,-0.66,0.688,-47.915,69.72,-2.537
61718660,-0.017,-0.292,0.271,-14.472,22.977,0.472
61718670,-0.848,-0.232,0.483,-13.107,-18.375,-10.01
61718670,-0.213,-1.319,-0.445,-54.635,-70.472,-48.825
61718690,1.835,-1.274,-0.291,14.035,-103.057,-100.712
61718690,0.961,0.395,-0.426,80.465,-80.097,-164.605
61718710,-1.876,1.169,0.124,30.922,-53.987,-109.917
61718710,-1.46,-0.517,0.015,2.292,-148.645,58.537
61718730,1.959,-1.998,1.315,167.387,-165.217,185.272
61718730,-1.523,-0.345,0.234,243.775,-162.942,100.082
61718750,-0.811,0.863,0.883,287.42,-155.435,39.83
61718750,-0.854,-0.182,1.811,299.967,-173.25,-35.35
61718760,0.339,-0.189,1.968,225.207,-246.54,-93.712
61718770,1.859,1.691,1.785,165.48,-207.182,-41.895
61718780,0.921,0.198,1.253,9.275,-76.265,-18.917
61718790,0.499,0.066,1.085,-19.355,-11.41,-3.955
61718800,0.32,-0.466,0.989,-32.742,22.872,-4.847
61718810,0.06,-0.278,0.937,-26.46,41.667,0.017
61718820,-0.46,-0.503,0.899,-24.15,47.337,1.172
61718830,-0.308,-0.292,0.931,-10.447,26.477,-6.107
61718840,-0.097,-0.323,0.93,-7.647,14.437,-11.357
61718850,-0.176,-0.291,0.933,-1.05,10.325,-6.352
61718860,-0.212,-0.282,0.956,0.245,5.162,-2.135
61718870,-0.015,-0.19,1.029,0.805,-2.94,-1.365
61718880,-0.001,-0.181,1.046,-5.267,0.997,2.485
61718890,0.003,-0.115,1.073,-12.285,6.387,6.282
61718900,0.03,-0.201,1.106,-25.025,16.922,6.772
61718910,0.074,-0.161,1.141,-35.297,27.895,9.065
61718920,0.114,-0.176,1.213,-50.627,45.185,12.232
61718930,0.09,-0.144,1.232,-68.075,68.302,12.95
61718940,0,-0.277,1.229,-93.502,90.58,5.67
61718950,0.073,-0.377,1.298,-110.757,113.417,0.402
61718960,0.092,-0.409,1.236,-119.21,132.93,-6.422
61718970,0.24,-0.741,0.994,-123.235,149.415,-18.147
61718980,-0.437,-0.668,0.995,-111.072,149.957,-22.312
61718990,-0.12,-0.997,0.647,-106.557,157.01,-25.427
61719000,0.494,-1.596,-0.001,-45.587,156.45,-18.165
61719010,1.397,-1.998,0.295,-18.567,136.727,-114.31
61719010,1.771,-1.998,0.164,-85.47,43.785,-309.942
61719030,0.145,-1.998,-0.289,-59.657,7.98,-375.795
61719030,-1.945,-1.194,-0.39,-23.537,-39.182,-321.947
61719050,-1.813,-0.049,-0.258,-65.1,-74.69,-268.975
61719050,-0.794,0.631,-0.339,-69.352,-102.322,-150.272
61719070,0.185,1.421,-0.262,-26.162,-103.512,-22.627
61719070,1.135,1.991,1.484,15.96,-62.702,56.017
61719080,-1.022,1.997,1.378,105.227,-9.94,103.18
61719090,-1.47,0.986,0.52,283.43,-66.937,212.52
61719100,-1.975,-1.998,0.97,215.95,-77.595,309.225
61719110,-1.308,0.311,0.333,336.07,-96.88,118.527
61719120,-1.243,1.131,1.995,443.94,-125.65,-32.76
61719130,0.624,-0.701,1.897,126.507,-214.462,-95.34
61719140,1.696,1.727,1.567,159.915,-202.195,-51.887
61719150,1.193,-0.425,1.029,-31.85,-45.552,-26.67
61719160,0.252,0.239,1.134,-8.015,18.392,-1.96
61719170,0.095,-0.352,0.996,-41.037,41.475,-7.525
61719180,-0.237,-0.325,0.99,-30.695,45.815,-6.545
61719190,-0.56,-0.337,0.93,-31.167,42.822,-14.245
61719200,-0.013,-0.465,0.911,-22.977,21.98,-21.385
61719210,-0.022,-0.392,0.917,-19.477,15.96,-1.137
61719220,-0.108,-0.174,1.084,-14.332,15.067,16.52
61719230,0.106,0.022,1.239,-24.29,14.472,18.865
61719240,0.101,0.014,1.342,-54.705,26.46,23.8
61719250,0.095,-0.059,1.42,-89.18,36.277,30.887
61719260,-0.007,-0.138,1.279,-121.485,45.972,31.29
61719270,0.171,-0.168,1.259,-154.63,56.245,27.475
61719280,0.238,-0.149,1.188,-178.5,71.75,31.22
61719290,0.266,-0.191,1.177,-193.375,84.122,37.082
61719300,0.267,-0.172,1.117,-197.015,94.832,43.54
61719310,0.242,-0.308,1.11,-206.605,109.077,47.495
61719320,0.158,-0.353,1.149,-202.422,126.84,54.792
61719330,0.26,-0.524,1.278,-185.71,150.64,57.452
61719340,-0.581,-0.794,1.131,-164.762,150.01,62.545
61719350,-0.718,-0.868,0.899,-141.067,99.785,45.29
61719360,0.57,-0.937,1.022,-85.592,26.372,32.55
61719370,1.998,-1.172,1.819,29.242,-13.86,-27.912
61719380,1.532,0.142,0.38,189.192,-54.022,-210
61719390,-0.298,0.921,-0.713,210.105,-81.55,-388.045
61719400,-0.883,0.504,-1.119,150.045,-50.89,-366.502
61719410,-0.534,0.312,-0.988,126.665,-14.56,-297.762
61719420,-0.73,0.083,-0.844,98.525,20.93,-200.042
61719420,-0.422,-0.469,-0.867,41.667,35.07,-94.517
61719440,1.275,-0.952,-0.042,48.475,37.87,-23.502
61719440,-1.424,-1.972,-0.027,121.117,68.862,183.137
61719460,0.314,-1.715,0.918,231.14,-197.68,282.45
61719460,0.73,1.953,0.576,516.67,-225.942,155.295
61719480,-1.998,0.123,1.944,335.632,-79.52,7.665
61719480,-0.283,-0.457,1.995,134.785,-178.955,-99.19
61719500,1.963,1.668,1.431,187.985,-243.075,-82.862
61719500,1.02,-0.038,1.12,-3.5,-79.957,-37.45
61719510,0.548,-0.01,1.056,-17.85,-5.985,-16.275
61719520,0.281,-0.157,1.057,-32.602,29.015,-15.33
61719530,-0.185,-0.271,0.995,-39.252,42.035,-8.96
61719540,-0.653,-0.462,0.917,-37.31,32.515,-8.942
61719550,-0.424,-0.365,0.889,-20.912,6.16,-24.447
61719560,0.083,-0.419,0.955,-12.425,-7.21,-30.992
61719570,0.037,-0.138,1.033,-6.387,-16.485,-15.032
61719580,0.063,-0.039,1.144,-17.657,-11.62,-8.137
61719590,-0.011,0.046,1.232,-38.447,-5.88,-11.287
61719600,-0.041,-0.022,1.326,-70.192,2.432,-18.217
61719610,-0.008,0.012,1.325,-84.857,8.54,-23.765
61719620,-0.248,-0.02,1.273,-108.745,35.577,-28.77
61719630,-0.346,-0.372,1.18,-157.605,58.94,-52.815
61719640,-0.308,-0.507,1.2,-173.302,66.85,-72.082
61719650,0.021,-0.187,1.312,-181.562,70.945,-89.337
61719660,0.037,-0.127,1.343,-203.052,80.36,-96.302
61719670,-0.347,-0.454,1.159,-233.257,81.427,-103.355
61719680,-0.003,-0.881,0.927,-230.965,72.17,-108.657
61719690,0.189,-0.971,0.648,-169.96,87.85,-80.727
61719700,-0.59,-1.872,0.766,-164.657,68.04,-51.8
61719710,-0.471,-1.998,0.495,-141.47,14.49,-55.23
61719720,-1.39,-1.511,0.17,-49.315,-73.447,-7.367
61719730,-1.288,-0.725,-0.198,-13.947,-102.777,43.137
61719740,-0.833,0.21,-0.789,29.68,-94.272,153.562
61719750,-0.392,0.716,-0.053,23.957,-54.757,283.255
61719760,-0.137,0.055,-0.133,-44.957,-23.362,370.422
61719760,0.585,0.204,-0.262,-47.215,-17.885,400.96
61719780,1.122,0.802,-0.029,-31.955,-7.472,389.445
61719780,0.659,0.439,-0.47,-43.277,-16.625,348.197
61719800,0.763,0.23,-0.737,4.917,-47.67,281.61
61719800,0.481,-0.326,-0.269,15.172,-50.435,272.772
61719820,1.119,-1.818,1.968,-5.215,-179.462,204.05
61719820,0.024,-1.978,0.264,224.227,-327.635,77.227
61719830,-0.972,1.061,0.015,469.857,-269.027,207.322
61719840,1.416,1.862,1.815,529.235,-231.017,140.332
61719850,-1.907,-1.492,1.977,201.11,-150.902,-20.422
61719860,1.553,0.851,1.984,208.6,-267.715,-79.24
61719870,1.746,1.416,1.353,109.515,-168.822,-37.432
61719880,1.1,-0.315,1.095,-76.685,0.07,-40.39
61719890,0.468,0.495,1.263,-30.152,49.542,-22.225
61719900,-0.617,-0.347,0.989,-85.225,96.617,-34.93
61719910,-0.616,-0.577,0.947,-72.992,80.675,-47.407
61719920,-0.531,-0.636,0.685,-62.265,45.885,-47.022
61719930,-0.157,-0.765,0.742,-38.692,15.295,-36.347
61719940,-0.075,-0.417,0.918,-19.88,-5.11,-11.287
61719950,-0.099,-0.164,1.145,-18.042,-17.885,4.812
61719960,-0.113,-0.113,1.27,-34.125,-21.297,8.522
61719970,-0.08,-0.084,1.304,-62.807,-14.56,2.082
61719980,-0.01,-0.117,1.316,-94.115,2.765,-7.962
61719990,0.057,-0.135,1.313,-125.142,22.452,-16.975
61720000,-0.019,-0.131,1.317,-157.955,43.61,-20.037
61720010,0.042,-0.116,1.348,-188.037,65.642,-29.225
61720020,-0.092,-0.166,1.237,-215.267,76.142,-40.46
61720030,-0.21,-0.404,1.221,-235.742,62.23,-59.272
61720040,-0.068,-0.687,1.131,-227.622,46.165,-69.982
61720050,-0.096,-1.17,0.499,-190.61,68.39,-51.52
61720060,-0.669,-1.782,0.597,-158.497,95.725,-48.807
61720070,-0.275,-1.998,0.345,-136.955,112.175,-73.15
61720080,-0.622,-1.515,-0.104,-76.632,91.98,-44.467
61720090,-0.83,-0.165,-0.1,-35.14,76.107,-17.57
61720100,-0.508,0.295,-0.018,-35.315,57.592,6.72
61720110,0.132,0.509,0.001,-40.32,58.03,51.765
61720120,0.796,1.108,-0.141,7.84,42.647,73.377
61720130,1.167,1.695,-0.39,71.137,23.747,54.897
61720140,1.182,1.993,-0.379,88.252,5.722,25.987
61720150,0.943,1.393,-0.538,83.86,-12.582,16.17
61720160,0.686,-0.339,0.893,105.122,-34.65,40.215
61720170,-1.992,-1.998,-0.413,60.182,-139.265,124.092
61720170,-0.512,-0.976,0.876,346.85,-208.18,223.16
61720190,1.842,1.997,0.539,550.497,-291.112,238.455
61720190,-0.812,-0.025,1.852,331.31,-150.937,57.575
61720210,-1.867,-1.153,1.829,126.367,-82.565,-118.107
61720210,1.175,1.997,1.983,356.422,-266.105,-74.112
61720230,1.698,0.826,1.311,45.605,-156.152,-58.257
61720230,1.043,0.244,1.207,-24.325,-31.412,-24.587
61720250,0.315,0.081,1.126,-40.967,27.317,-7.77
61720250,-0.201,-0.261,1.028,-63.735,61.495,-20.51
61720260,-0.284,-0.455,0.997,-55.072,61.985,-36.242
61720270,-0.277,-0.57,0.811,-52.832,45.43,-27.562
61720280,-0.066,-0.532,0.853,-33.74,29.697,-17.202
61720290,-0.034,-0.388,0.958,-25.62,18.462,2.975
61720300,-0.084,-0.16,1.116,-24.185,13.615,16.275
61720310,0.028,-0.103,1.233,-40.582,12.722,17.692
61720320,-0.023,-0.111,1.246,-65.292,22.277,17.237
61720330,0.037,-0.154,1.276,-94.815,33.985,14.175
61720340,0.037,-0.179,1.207,-123.287,49.752,10.99
61720350,0.074,-0.235,1.226,-145.477,66.78,5.11
61720360,0.023,-0.173,1.222,-164.22,92.137,-2.135
61720370,-0.239,-0.414,1.065,-175.385,97.877,-15.172
61720380,-0.218,-0.635,1.042,-172.865,82.915,-36.347
61720390,0.127,-0.79,0.991,-152.145,78.557,-41.51
61720400,0.117,-0.91,0.944,-106.96,98.472,-20.982
61720410,0.263,-1.667,0.97,-68.04,120.575,-9.152
61720420,0.527,-1.998,0.279,-21.612,101.902,-29.802
61720430,0.565,-1.474,0.239,55.002,25.865,-104.37
61720440,0.026,-0.682,-0.122,85.75,13.212,-133.91
61720450,-1.114,-0.767,-0.509,50.855,7.63,-102.357
61720460,-1.049,-0.449,-0.745,31.447,-57.347,-98.647
61720470,-0.518,0.392,-0.876,8.907,-118.037,-87.92
61720480,-0.215,0.735,-0.419,-41.23,-97.125,-29.032
61720490,-0.797,0.83,-0.749,-97.335,-56.175,70.98
61720500,-0.174,1.475,-1.108,-80.797,-48.842,153.002
61720510,0.631,1.259,1.41,-37.887,-31.43,223.23
61720510,1.394,-1.998,0.169,215.757,-16.467,232.47
61720530,-1.882,-1.998,-0.242,436.852,-237.842,158.97
61720530,1.465,0.769,1.672,470.662,-162.662,122.92
61720550,-1.933,0.819,1.998,413.245,-147.14,20.317
61720550,1.275,0.478,1.717,103.792,-235.165,-55.002
61720570,1.643,1.633,1.271,112.56,-159.442,-38.482
61720570,1.144,-0.824,0.942,-90.895,9.275,-43.277
61720580,0.225,0.133,1.071,-12.775,44.362,-11.795
61720590,0.066,-0.395,1.127,-48.212,70.875,-19.845
61720600,-0.406,-0.513,0.262,92.75,118.44,-37.52
61720610,-0.529,-0.225,0.741,28.577,18.025,-18.812
61720620,0.017,-0.676,0.982,-24.29,3.832,-13.037
61720630,-0.108,0.04,1.052,0.35,1.732,9.38
61720640,-0.072,-0.097,1.189,-31.937,3.29,12.512
61720650,-0.052,0.122,1.37,-25.9,-3.71,11.305
61720660,-0.06,0.093,1.404,-68.197,-7.805,11.322
61720670,0.069,-0.029,1.336,-120.365,-6.912,11.987
61720680,-0.062,-0.122,1.222,-140.84,2.642,11.305
61720690,-0.042,-0.151,1.141,-163.922,11.305,8.505
61720700,-0.139,-0.185,1.256,-179.497,29.645,5.705
61720710,-0.4,-0.178,1.28,-190.995,33.022,-5.495
61720720,-0.539,-0.42,1.121,-192.972,10.307,-27.457
61720730,-0.275,-0.585,0.885,-184.835,-11.322,-47.792
61720740,-0.094,-0.658,0.816,-149.992,-14.332,-40.53
61720750,0.056,-0.548,0.75,-106.715,-9.922,-23.397
61720760,-0.284,-0.479,0.779,-75.722,7.647,-13.3
61720770,-0.987,-0.607,0.57,-71.505,11.602,-13.37
61720780,-0.775,0.011,0.357,-19.057,64.995,30.607
61720790,-0.842,1.033,-0.47,98.84,66.745,85.557
61720800,0.274,1.415,-0.523,193.655,57.995,122.08
61720810,0.543,0.782,-0.363,168.07,34.212,176.82
61720820,0.372,-0.244,-0.631,61.162,35.402,175.542
61720830,0.235,-1.064,-0.094,-8.032,-1.925,156.03
61720840,1.769,-1.952,1.888,-18.795,-89.967,138.67
61720850,0.127,-1.998,1.266,117.617,-126.717,96.932
61720860,-1.172,0.203,-0.059,375.007,-22.732,226.73
61720870,-0.675,1.997,1.879,553.122,-101.22,274.137
61720880,-1.417,0.808,1.971,203.192,-215.127,67.637
61720890,1.972,0.198,1.005,-156.012,-235.935,-94.045
61720900,1.44,0.654,1.063,59.132,-133.42,-58.572
61720910,1.005,0.089,1.156,12.932,-12.355,-15.172
61720920,-0.165,-0.492,0.998,-46.97,36.382,-23.835
61720920,-0.336,-0.152,1,-2.555,32.602,-16.607
61720940,-0.441,-0.424,0.948,-12.792,15.96,-16.362
61720940,-0.221,-0.481,0.94,-22.435,-3.202,-14.455
61720960,0.097,-0.029,1.032,12.687,-10.832,1.54
61720960,-0.084,-0.096,1.057,-3.692,-1.26,11.76
61720970,-0.04,-0.059,1.143,-19.145,0.735,13.405
61720980,0.067,0.159,1.259,-27.492,1.785,14.14
61720990,0.041,0.144,1.417,-68.827,4.252,15.907
61721000,-0.144,-0.098,1.421,-120.942,0.192,22.522
61721010,-0.098,0.058,1.264,-149.957,-21,33.792
61721020,-0.058,-0.016,1.264,-161.105,-31.395,29.172
61721030,-0.185,-0.038,1.23,-192.622,-12.617,34.58
61721040,-0.18,-0.11,1.172,-205.887,-4.305,35.087
61721050,-0.334,-0.191,1.374,-207.9,-6.265,26.722
61721060,-0.504,-0.363,1.137,-214.007,-37.065,9.38
61721070,-0.208,-0.447,0.872,-197.225,-47.337,-7
61721080,-0.498,-0.464,1.018,-160.615,-32.9,-1.032
61721090,-0.433,-0.292,0.607,-127.662,-22.575,-5.757
61721100,0.175,-0.243,0.755,-76.387,10.727,5.162
61721110,-0.966,-0.148,0.381,-73.78,62.09,29.487
61721120,-1.248,0.401,-0.121,-13.58,88.322,21.437
61721130,0.211,1.522,0.142,59.955,92.995,68.652
61721140,1.485,1.168,-0.074,110.022,48.02,235.847
61721150,1.355,0.035,-0.089,99.05,20.562,313.67
61721160,1.209,-1.058,-0.289,43.12,14.21,216.667
61721170,1.458,-1.58,0.766,56.07,-14.612,69.737
61721180,-0.667,-1.998,-0.746,45.167,-114.38,-1.47
61721190,-1.294,-1.987,1.516,95.515,-124.95,45.185
61721200,1.259,1.068,0.342,412.02,3.412,288.12
61721210,-1.7,1.997,0.992,568.242,-32.725,388.5
61721220,-1.936,0.47,1.998,300.685,-170.905,61.075
61721230,0.756,-0.373,1.491,-144.637,-268.467,-130.252
61721240,1.998,1.024,1.117,90.615,-206.08,-69.265
61721250,1.225,0.801,1.24,86.45,-52.535,14.542
61721260,-0.087,-0.741,0.899,-89.617,17.727,-4.007
61721260,-0.258,-0.387,0.952,-13.37,10.955,-15.067
61721280,-0.13,-0.156,1.026,26.022,-0.647,-0.7
61721280,-0.29,-0.408,0.932,-23.572,-7.647,-12.705
61721300,0.17,-0.171,1.024,2.992,-17.762,-7.122
61721300,0.055,0.047,1.056,13.09,-5.74,9.922
61721320,-0.083,-0.184,1.061,-16.467,1.277,10.01
61721320,0.012,0.007,1.125,-15.995,1.032,8.4
61721330,0.087,0.051,1.218,-28.157,4.357,13.265
61721340,0.167,0.063,1.378,-63.367,13.23,11.445
61721350,0.019,0.076,1.488,-98.297,22.977,16.572
61721360,-0.073,0.031,1.363,-142.59,23.257,24.78
61721370,-0.06,0.002,1.247,-179.497,14.7,24.902
61721380,-0.022,-0.124,1.175,-194.46,26.285,23.52
61721390,-0.075,-0.149,1.169,-202.335,46.812,20.23
61721400,-0.126,-0.167,1.12,-204.33,61.302,5.792
61721410,-0.004,-0.265,1.144,-186.655,64.61,-13.142
61721420,-0.031,-0.472,1.023,-181.282,59.552,-19.285
61721430,0.022,-0.725,0.817,-171.99,53.357,-29.925
61721440,-0.008,-0.897,0.595,-144.042,46.322,-37.205
61721450,-0.172,-0.977,0.591,-109.865,38.902,-42.262
61721460,-0.154,-1.013,0.718,-101.43,34.737,-40.617
61721470,0.016,-0.988,1.034,-96.46,19.932,-34.86
61721480,0.377,-0.914,-0.078,-41.142,18.882,-31.01
61721490,0.36,-0.12,-0.994,122.237,35.805,-5.967
61721500,0.223,0.638,-0.613,220.622,41.58,-8.627
61721510,0.192,0.601,-0.337,146.755,53.725,-44.922
61721520,0.079,0.037,-0.511,15.697,34.387,-119.087
61721530,-0.228,-0.394,-1.135,-35.927,5.372,-125.667
61721540,0.042,-0.474,-0.127,65.047,-3.255,-70
61721550,0.026,-1.016,1.481,52.5,15.557,28.402
61721560,-1.408,-1.998,0.083,123.41,-54.512,175.577
61721570,-0.835,-1.088,0.528,440.212,-98.035,231.42
61721580,-0.763,1.886,1.569,539.997,-51.362,248.045
61721590,-1.904,1.344,1.99,416.29,-153.212,94.412
61721600,1.017,0.547,1.682,42.437,-249.13,-62.65
61721610,1.909,1.122,1.175,54.687,-170.467,-59.535
61721620,1.104,0.286,1.174,10.447,-35.63,-19.687
61721630,0.007,-0.674,0.898,-91.455,31.657,-16.327
61721640,-0.293,-0.269,0.946,-16.852,37.152,2.922
61721640,-0.384,-0.235,0.99,0.857,19.81,-12.302
61721660,-0.249,-0.498,0.923,-33.127,1.96,-20.282
61721660,0.173,-0.111,1.004,4.83,-7.315,-8.33
61721670,-0.009,-0.137,1.03,-3.342,0.997,1.33
61721680,-0.17,-0.155,1.06,-17.937,7.805,12.46
61721690,-0.005,0.06,1.202,-12.04,3.36,12.792
61721700,0.036,0.071,1.252,-40.582,7.595,17.552
61721710,0.089,0.015,1.342,-74.357,13.755,19.967
61721720,0.053,0.025,1.347,-109.41,17.15,23.59
61721730,0.037,0.073,1.431,-146.107,12.705,32.655
61721740,0.058,0.157,1.171,-172.847,3.062,41.44
61721750,0.379,-0.081,1.196,-188.212,19.74,46.042
61721760,-0.073,-0.296,1.129,-214.27,44.38,45.622
61721770,-0.105,-0.259,1.057,-203.122,45.85,30.765
61721780,-0.122,-0.315,1.061,-178.447,53.392,30.625
61721790,-0.235,-0.423,1.096,-168.42,58.975,30.432
61721800,-0.351,-0.543,1.021,-168.087,40.092,13.02
61721810,-0.063,-0.713,0.778,-156.03,10.902,-5.442
61721820,-0.011,-0.864,0.454,-121.467,-7.122,1.382
61721830,-0.022,-0.988,0.434,-92.802,-3.745,-0.735
61721840,0.048,-0.938,0.305,-86.012,3.255,-9.642
61721850,0.224,-0.997,0.392,-62.877,27.125,-11.2
61721860,0.217,-1.07,-0.096,-19.845,44.537,-29.33
61721870,0.525,-0.694,-0.107,47.53,71.855,-82.652
61721880,-0.005,-0.277,-0.476,102.147,68.67,-166.092
61721890,-0.57,0.162,-0.84,131.092,57.032,-262.71
61721900,-0.781,0.405,-0.895,131.215,44.922,-325.097
61721910,-1.016,0.307,-0.758,102.515,49.752,-313.145
61721920,-1.373,0.158,1.525,48.475,95.41,-213.237
61721930,0.119,-1.705,0.026,-58.52,136.587,-14.927
61721940,0.74,-1.998,1.685,272.947,-11.585,90.457
61721950,-0.53,0.097,0.089,455.052,-92.452,59.412
61721960,-0.315,1.907,0.876,554.872,-66.447,110.757
61721970,-1.817,0.179,1.998,386.732,-73.062,40.81
61721980,-0.634,0.853,1.782,134.26,-171.29,-19.11
61721990,1.964,1.904,1.249,161.332,-177.135,-29.33
61722000,1.4,0.425,1.146,-27.825,-67.917,-50.977
61722010,0.329,-0.724,0.999,-108.132,15.68,-30.747
61722010,-0.184,0.025,0.992,-25.165,34.37,-10.867
61722030,-0.303,-0.387,0.987,-56.875,31.99,-19.547
61722030,-0.38,-0.561,0.977,-47.337,14.28,-24.57
61722050,-0.016,-0.053,1.055,-15.522,-1.75,-24.377
61722050,-0.038,-0.232,1.006,-40.355,-3.255,-11.007
61722070,0.058,-0.228,1.087,-37.59,-3.972,-0.21
61722070,-0.033,-0.011,1.24,-43.837,-3.517,9.992
61722080,-0.099,0.037,1.301,-74.76,-3.78,16.03
61722090,-0.081,0.061,1.339,-108.657,-5.88,12.022
61722100,0.057,0.003,1.315,-139.475,2.012,8.995
61722110,0.116,-0.101,1.208,-171.605,17.237,11.987
61722120,0.114,-0.123,1.197,-187.092,30.905,14.647
61722130,0.023,-0.144,1.11,-193.672,31.01,16.047
61722140,-0.007,-0.2,1.12,-183.89,23.152,14.14
61722150,-0.072,-0.223,1.272,-186.847,10.43,14.42
61722160,-0.168,-0.365,1.263,-196.647,-3.552,13.3
61722170,-0.105,-0.559,1.164,-197.802,-12.022,1.732
61722180,-0.046,-0.816,0.868,-177.047,0.437,1.907
61722190,-0.337,-0.849,0.81,-139.142,-3.342,5.092
61722200,-0.322,-0.705,0.464,-108.43,-15.33,-14.682
61722210,-0.308,-0.339,0.762,-84.14,-2.572,-16.432
61722220,-0.66,-0.141,0.935,-77.63,5.897,-11.69
61722230,-0.666,0.335,0.649,-53.497,24.552,-27.667
61722240,-0.342,1.149,0.106,50.47,32.48,-34.702
61722250,-0.103,1.701,0.252,159.057,40.022,-38.867
61722260,0.002,1.59,-0.102,179.532,75.617,-69.965
61722270,-0.02,1.064,-1.105,173.547,90.86,-131.687
61722280,-0.105,0.736,-1.063,187.81,70.56,-163.625
61722290,-0.353,-0.077,-0.422,158.375,33.232,-138.162
61722300,0.529,-1.101,1.524,52.622,10.955,-76.265
61722310,1.155,-1.998,-0.07,50.645,105.875,85.995
61722320,-1.998,-0.885,-0.564,419.825,-6.492,147.262
61722330,0.955,1.997,0.836,568.172,-19.53,108.762
61722330,-1.432,1.466,1.998,431.322,-134.085,148.277
61722350,1.208,1.227,0.826,-220.657,-168.805,-24.132
61722350,0.29,-0.642,1.101,-94.465,-134.015,-94.36
61722370,1.595,0.439,1.08,59.675,-42.997,-45.377
61722370,-0.393,-0.559,0.949,-51.887,34.387,-21.7
61722390,-0.349,-0.64,0.931,-44.432,34.212,-12.39
61722390,-0.104,0.146,1.032,25.2,16.45,-10.605
61722410,-0.4,-0.479,0.962,-33.092,5.495,-22.662
61722410,0.201,-0.169,0.999,-5.775,-6.86,-20.3
61722420,-0.113,-0.114,0.989,4.007,0.245,-4.515
61722430,-0.072,-0.275,1.033,-15.715,-1.295,-2.03
61722440,-0.049,0.099,1.082,0.052,-3.605,2.257
61722450,0.03,0.002,1.119,-23.712,-5.372,-1.207
61722460,-0.022,-0.009,1.181,-41.807,-1.855,-5.565
61722470,0.057,0.034,1.269,-55.422,3.675,-9.24
61722480,-0.001,0.033,1.357,-87.955,8.767,-16.45
61722490,0.081,-0.07,1.304,-128.73,16.555,-13.93
61722500,-0.109,-0.138,0.957,-151.777,41.58,-16.152
61722510,-0.147,-0.351,1.125,-157.85,63.07,-31.062
61722520,-0.286,-0.488,1.29,-191.642,74.392,-41.807
61722530,-0.302,-0.612,0.892,-196.857,73.185,-55.335
61722540,-0.342,-0.789,0.708,-155.627,73.535,-76.58
61722550,-0.453,-0.747,0.414,-129.955,64.207,-114.065
61722560,-0.364,-1.269,0.208,-116.427,80.797,-145.95
61722570,-0.256,-1.934,-0.263,-122.762,109.672,-130.76
61722580,-0.282,-1.998,-0.587,-137.042,136.78,-71.347
61722590,-1.898,-1.998,0.408,-164.727,80.57,-41.597
61722600,-1.998,-1.976,-0.393,-116.34,-0.577,-11.76
61722610,-1.05,-1.183,0.081,-23.467,-14.892,43.872
61722620,0.902,-0.278,0.197,-39.952,19.705,140.752
61722630,1.882,0.629,0.372,-58.852,83.615,253.155
61722640,1.998,1.736,0.075,-20.912,100.415,294.735
61722650,1.867,1.997,0.598,102.34,44.695,239.26
61722660,1.701,1.997,1.971,132.58,-105.63,136.43
61722670,0.723,0.994,-0.251,119.63,-126.927,60.41
61722680,-1.998,-1.939,1.043,236.39,-224.56,-56.7
61722690,0.795,-1.493,0.988,64.505,-227.657,-24.78
61722700,-1.162,1.99,-0.357,491.015,-90.405,226.17
61722710,-1.377,1.56,1.998,422.94,-143.955,45.745
61722720,0.537,0.296,1.859,-75.582,-221.935,-101.797
61722730,1.747,0.705,1.252,34.702,-182.507,-81.725
61722740,1.241,0.82,1.216,79.8,-71.365,-43.872
61722750,0.312,-0.381,1.053,-81.83,10.027,-26.687
61722760,0.001,-0.188,1.054,-52.167,34.492,-6.667
61722760,-0.317,-0.046,1.087,-29.207,36.33,-10.027
61722780,-0.256,-0.23,1.025,-63.035,27.107,-31.237
61722780,-0.122,-0.277,1.003,-57.925,22.977,-28.542
61722800,0.031,-0.24,1.111,-53.725,19.25,-23.642
61722800,0.064,-0.123,1.175,-77.245,25.34,-7.717
61722820,-0.051,-0.051,1.3,-89.18,31.36,3.01
61722820,-0.049,0.044,1.376,-123.567,40.145,-0.122
61722830,-0.131,0.046,1.398,-170.1,52.797,-8.54
61722840,-0.019,-0.031,1.317,-201.46,59.272,-19.477
61722850,0.039,-0.088,1.246,-205.642,59.972,-25.777
61722860,0.02,-0.102,1.251,-204.697,58.257,-28.612
61722870,-0.104,-0.167,1.26,-206.045,48.405,-34.37
61722880,-0.377,-0.355,1.287,-202.667,28.367,-49.717
61722890,-0.16,-0.543,1.362,-202.825,-0.927,-71.942
61722900,-0.096,-0.755,1.143,-199.535,-8.995,-71.172
61722910,-0.217,-0.795,1.008,-180.81,-7.14,-58.817
61722920,-0.186,-0.435,1.216,-148.802,7.175,-50.47
61722930,0.463,0.353,1.231,-119.805,45.657,-45.36
61722940,0.018,1.013,0.168,-35.98,65.065,-43.155
61722950,-0.361,1.443,0.156,85.295,59.43,-120.452
61722960,-0.23,1.212,-0.276,112,105.822,-206.29
61722970,-0.329,0.814,-0.254,98.682,91.612,-225.68
61722980,-0.443,0.151,-0.451,76.142,102.095,-179.97
61722990,-0.178,-0.366,-0.592,79.905,102.637,-81.865
61723000,0.475,-0.554,-0.733,116.34,100.222,11.585
61723010,1.094,-0.774,-0.724,181.527,72.642,48.492
61723020,1.709,-1.221,0.389,213.657,48.772,30.852
61723030,1.16,-1.998,-0.148,30.275,-42.087,61.075
61723040,-1.809,-1.952,1.31,116.637,-140.682,225.907
61723050,1.727,1.6,-1.502,500.377,-85.627,315.14
61723060,-1.173,1.859,1.647,567.035,-150.885,231.472
61723070,-1.512,-0.384,1.981,111.702,-265.65,-39.812
61723080,1.815,-0.368,0.897,-288.47,-285.32,-121.292
61723080,1.69,1.907,0.99,228.882,-164.587,-27.072
61723100,0.903,0.302,1.241,20.79,-18.515,9.957
61723100,0.002,-1.322,0.803,-174.3,30.712,-20.615
61723120,0.254,-0.067,1.002,18.62,30.782,5.932
61723120,-0.458,-0.051,1.074,20.405,39.392,9.677
61723140,-0.062,-0.444,0.937,-65.467,26.88,-2.537
61723140,0.007,-0.14,1.011,-14.577,19.95,6.002
61723160,-0.011,-0.077,1.064,-13.02,24.745,17.132
61723160,0.088,-0.092,1.162,-38.99,32.077,20.282
61723170,0.142,0.113,1.3,-38.745,43.872,24.5
61723180,0.121,0.039,1.324,-76.23,65.31,35.437
61723190,0.069,-0.138,1.231,-120.68,77.577,41.37
61723200,0.125,-0.046,1.382,-143.43,71.382,43.977
61723210,0.189,0.044,1.146,-161.857,59.325,52.5
61723220,0.204,-0.202,1.096,-170.275,63.052,58.835
61723230,0.058,-0.374,1.061,-184.94,78.715,49.805
61723240,0.046,-0.522,0.983,-191.73,97.195,39.427
61723250,-0.058,-0.745,0.921,-164.22,110.18,50.4
61723260,-0.215,-0.857,0.885,-128.765,79.31,58.31
61723270,0.038,-0.917,0.505,-109.532,42.07,60.13
61723280,0.159,-1.56,0.81,-122.692,12.792,63.805
61723290,0.354,-1.963,-0.508,-160.667,-29.312,59.307
61723300,1.743,-1.998,0.742,-74.865,2.642,27.125
61723310,1.916,-1.992,0.62,-19.057,0.665,-70.98
61723320,-0.158,-1.343,-1.463,97.247,-6.632,-236.04
61723330,-1.842,-1.116,-1.556,161.752,-60.182,-285.11
61723340,-1.975,-0.992,-0.993,103.302,-55.947,-263.952
61723350,-1.498,-0.708,-0.668,54.145,-85.627,-209.44
61723360,-1.246,0.193,0.338,61.442,-99.925,-137.62
61723370,-1.239,1.972,1.975,-37.45,102.882,-38.937
61723380,-1.888,1.864,0.099,-28.472,-46.777,32.602
61723390,1.656,1.639,0.325,402.587,-164.605,-61.127
61723400,-0.966,-1.955,1.998,379.75,-73.57,113.102
61723410,-1.84,0.097,1.342,333.48,-48.457,25.585
61723420,-0.524,1.965,1.994,471.327,-190.26,-73.92
61723430,1.831,1.924,1.247,85.26,-162.732,-37.012
61723440,0.701,0.522,1.265,-55.755,-68.092,-31.15
61723450,0.542,-0.441,1.056,-118.265,-12.67,-12.915
61723460,0.137,-0.183,1.04,-93.59,14.63,-0.35
61723470,0.114,-0.279,1.067,-109.847,22.592,4.042
61723480,-0.311,-0.387,0.791,-100.852,21.035,10.15
61723490,-0.143,-0.434,0.913,-50.382,4.9,-1.015
61723500,-0.008,-0.324,0.807,-45.342,-0.945,-12.687
61723510,0.028,-0.504,0.783,-40.18,-2.117,2.747
61723510,-0.012,-0.472,0.707,-17.395,-4.165,13.492
61723530,0,-0.327,0.878,17.832,-7.787,9.362
61723530,-0.041,-0.254,0.943,12.617,-7.892,6.23
61723550,-0.021,-0.174,1.082,22.837,-8.925,7.577
61723550,0.034,-0.021,1.114,17.885,-12.775,6.282
61723570,0.077,-0.126,1.092,-1.575,-12.565,8.347
61723570,0.095,-0.126,1.074,-10.885,-11.655,9.117
61723580,0.102,-0.127,1.097,-20.825,-7.297,9.677
61723590,0.087,-0.116,1.117,-32.987,-3.517,10.587
61723600,0.089,-0.085,1.12,-47.757,1.662,9.59
61723610,0.059,-0.118,1.148,-65.555,7.367,7.717
61723620,0.029,-0.133,1.15,-84.542,17.587,1.225
61723630,-0.114,-0.118,1.171,-99.417,25.147,-7.91
61723640,-0.202,-0.087,1.199,-111.93,31.85,-21.035
61723650,-0.224,-0.087,1.155,-123.392,33.162,-39.97
61723660,-0.261,-0.153,1.105,-138.18,34.212,-54.337
61723670,-0.326,-0.26,1.028,-149.117,33.285,-68.39
61723680,-0.306,-0.34,1.047,-150.132,35.63,-84.945
61723690,-0.301,-0.36,1.257,-165.637,44.257,-99.05
61723700,-0.339,-0.294,1.422,-182.332,60.987,-112.857
61723710,-0.364,-0.366,1.296,-168.192,104.422,-123.567
61723720,-0.493,-0.55,1.025,-119.402,138.302,-126.98
61723730,-1.433,-0.134,0.815,-91.455,157.535,-126.98
61723740,-1.13,0.229,-0.21,-18.83,154.035,-143.185
61723750,-0.205,0.555,0.535,37.205,137.672,-129.57
61723760,-0.785,0.646,-0.635,22.715,86.8,-75.075
61723770,-0.31,0.806,-1.575,128.222,123.602,-21.91
61723780,0.722,1.539,-0.09,244.807,111.037,86.52
61723790,1.983,-0.098,-0.343,184.73,-35.577,233.397
61723800,1.807,-1.998,1.023,7.98,-48.02,315.245
61723810,-1.943,-1.998,0.921,-0.927,-132.072,283.185
61723820,0.314,0.752,-0.759,447.317,-70.42,261.502
61723830,0.541,1.997,1.017,572.285,-135.537,196.087
61723830,-1.408,-0.182,1.926,208.827,-196.997,66.745
61723850,1.793,0.5,0.428,-295.557,-224.857,-88.725
61723850,1.656,1.057,1.067,98.437,-159.757,-73.937
61723870,0.9,0.048,1.158,13.58,-22.557,-22.872
61723870,0.058,-0.946,0.916,-116.27,37.397,-16.66
61723890,-0.288,-0.04,0.977,0.77,37.292,-1.855
61723890,-0.365,-0.119,1.023,3.57,22.522,-15.155
61723910,-0.431,-0.533,0.886,-42.98,3.412,-24.657
61723910,0.181,-0.143,1.039,7.245,-16.1,-24.15
61723920,0.084,-0.125,0.942,-10.815,-5.967,-11.392
61723930,-0.133,-0.376,1.004,-18.865,1.365,3.115
61723940,0.021,0.096,1.041,10.902,-3.412,3.955
61723950,0.019,-0.03,1.054,-7.857,0,2.712
61723960,0.07,-0.099,1.081,-22.487,7.56,5.88
61723970,0.102,0.097,1.143,-25.025,16.87,10.955
61723980,0.106,-0.016,1.215,-56.752,31.867,16.257
61723990,0.111,-0.099,1.234,-92.33,47.897,24.185
61724000,-0.015,-0.176,1.193,-111.405,56.717,39.532
61724010,0.033,-0.099,1.387,-114.817,46.077,38.972
61724020,-0.062,-0.131,1.438,-156.94,50.715,44.8
61724030,-0.289,-0.297,1.093,-199.552,37.852,71.172
61724040,-0.21,-0.484,0.956,-191.31,-2.397,80.15
61724050,0.003,-0.524,0.939,-168.56,-27.282,70.052
61724060,-0.453,-0.702,0.41,-152.477,-70.857,59.5
61724070,-0.084,-1.796,0.147,-172.165,-95.217,70.63
61724080,0.085,-1.998,-0.167,-223.195,-45.272,137.165
61724090,-1.072,-1.998,0.336,-230.23,19.11,212.782
61724100,-0.488,-1.998,-0.096,-131.512,62.755,212.17
61724110,0.875,-1.354,-0.228,38.71,89.005,155.645
61724120,0.96,0.175,0.038,77.07,65.712,78.26
61724130,-0.294,1.623,-0.438,59.587,-4.042,-34.685
61724140,-0.901,1.997,-1.03,115.412,-53.917,-162.382
61724150,-0.67,1.997,0.319,177.1,-55.125,-206.797
61724160,1.735,1.869,0.675,52.43,46.165,-99.487
61724170,0.241,-0.631,0.955,94.395,-0.472,176.435
61724180,-1.728,-1.998,1.995,101.29,-151.375,176.05
61724190,0.764,0.298,-0.479,308.035,-100.625,110.53
61724200,-1.998,1.913,1.735,550.217,-117.897,56.157
61724210,0.502,1.114,1.835,125.02,-228.865,-73.99
61724220,1.835,0.412,1.177,-72.432,-183.102,-87.64
61724230,1.311,0.823,1.202,60.83,-64.47,-38.01
61724240,0.111,-0.124,0.928,-72.747,19.46,-15.487
61724250,0.061,-0.607,1.022,-73.377,34.002,-17.517
61724260,-0.16,0.047,1.08,-12.11,33.582,-12.74
61724260,-0.351,-0.205,1.026,-57.942,28.42,-19.46
61724280,-0.041,-0.383,1.021,-69.632,18.48,-23.677
61724280,-0.097,-0.19,1.036,-44.992,12.005,-14.087
61724300,-0.158,-0.164,1.095,-53.13,5.162,-6.16
61724300,-0.075,-0.171,1.272,-80.027,0.77,-5.757
61724320,-0.078,-0.027,1.276,-97.265,3.92,-4.935
61724320,-0.121,0.029,1.316,-112.63,14.402,-8.785
61724330,-0.091,-0.031,1.319,-147.262,26.25,-16.922
61724340,-0.016,-0.067,1.198,-178.15,34.072,-22.242
61724350,0.069,-0.16,1.216,-180.512,36.837,-32.462
61724360,0.011,-0.222,1.274,-172.795,32.217,-40.67
61724370,-0.162,-0.312,1.295,-186.252,22.662,-46.83
61724380,-0.261,-0.457,1.309,-195.422,-1.627,-53.882
61724390,-0.157,-0.569,0.994,-182.682,-7.787,-54.127
61724400,-0.259,-0.702,0.862,-152.197,5.46,-41.667
61724410,-0.235,-0.604,0.83,-130.795,21.437,-46.497
61724420,-0.422,-0.308,0.985,-117.512,46.48,-57.54
61724430,-1.098,0.128,0.754,-94.447,47.967,-73.692
61724440,-0.736,0.843,0.101,-34.545,63.612,-103.775
61724450,0.019,1.4,0.063,57.89,77.945,-104.562
61724460,0.28,1.574,0.282,84.28,90.072,-102.217
61724470,0.09,1.356,-0.209,66.132,78.295,-131.075
61724480,0.09,1.102,-0.743,95.882,68.25,-168.105
61724490,0.127,1.023,-0.86,181.247,69.685,-148.277
61724500,0.38,0.588,0.457,218.137,44.922,-103.197
61724510,1.979,-1.95,-0.021,10.535,23.94,81.095
61724520,-1.691,-1.998,1.143,-93.117,34.527,324.187
61724530,-0.657,0.022,-0.488,405.3,-23.45,104.457
61724540,0.786,1.997,-1.206,573.282,-46.042,85.802
61724550,-0.881,1.096,1.984,503.895,-83.702,43.487
61724560,-0.894,-1.548,1.492,-175.7,-152.285,-40.232
61724570,1.145,0.453,0.996,-11.042,-202.02,-92.662
61724580,1.94,1.799,1.281,203.56,-129.22,-64.96
61724580,0.533,-0.431,1.071,-119.647,3.797,-34.632
61724600,0.169,-0.878,0.861,-121.082,45.185,-9.17
61724600,-0.284,0.028,0.92,7.507,40.915,7.035
61724620,-0.513,-0.548,0.921,-41.737,29.487,4.27
61724620,-0.243,-0.496,0.887,-47.355,5.617,-9.432
61724640,0.038,-0.172,0.99,4.83,-9.975,-16.712
61724640,0.061,-0.098,1.034,0.105,-7.665,-7.665
61724660,0.193,-0.153,1.117,-21.525,-2.747,1.155
61724660,0.04,0.016,1.188,-24.937,6.807,15.382
61724670,-0.129,0.012,1.24,-47.425,8.12,20.65
61724680,-0.1,-0.006,1.317,-76.527,3.605,15.155
61724690,-0.169,0.056,1.217,-100.94,5.705,7.63
61724700,-0.062,-0.031,1.194,-123.97,10.99,-3.92
61724710,0.152,-0.221,1.104,-149.975,33.775,-7.21
61724720,0.168,-0.285,1.095,-154.297,55.877,-8.627
61724730,0.126,-0.296,1.025,-146.982,63.035,-14.56
61724740,0.235,-0.351,0.979,-137.147,73.815,-20.107
61724750,0.316,-0.335,0.971,-133.035,98.367,-20.387
61724760,0.19,-0.463,0.852,-125.212,118.807,-19.652
61724770,0.106,-0.58,0.926,-109.847,114.31,-22.697
61724780,0.077,-0.789,0.71,-99.277,125.422,-20.055
61724790,-0.235,-0.949,0.706,-90.107,131.95,-13.93
61724800,-0.501,-0.953,0.533,-86.87,130.585,-14.787
61724810,-0.452,-1.339,0.548,-77.735,110.337,-16.817
61724820,0.047,-1.341,0.302,-80.955,80.412,-23.432
61724830,-0.156,-0.55,-0.301,-18.672,58.572,-21.612
61724840,-0.616,0.624,-0.972,92.207,12.897,-55.93
61724850,-0.352,1.34,-0.872,161.507,23.642,-87.115
61724860,-0.125,1.451,-0.096,141.102,38.64,-64.05
61724870,1.204,0.589,1.66,66.395,3.552,-10.342
61724880,0.694,-1.916,0.096,-29.75,-30.38,102.987
61724890,-1.998,-1.998,1.822,-31.447,-148.12,135.66
61724900,0.066,-0.237,0.181,239.33,-169.837,151.655
61724910,-0.114,1.997,0.101,550.585,-194.32,146.947
61724920,-1.288,0.776,1.898,383.985,-173.722,-22.4
61724930,-0.684,-1.387,1.832,55.615,-189.367,-100.747
61724940,1.297,1.09,1.671,197.347,-214.847,-48.492
61724950,1.472,1.67,1.416,180.722,-135.397,-22.627
61724960,0.759,0.013,1.193,-62.982,-32.497,-21.787
61724970,0.249,-0.203,1.069,-66.5,14.315,-6.562
61724980,-0.008,0.012,1.051,-45.57,28.525,0.367
61724990,-0.292,-0.649,1.036,-97.142,36.487,4.445
61725000,-0.299,-0.296,0.853,-57.645,20.422,3.132
61725010,-0.181,-0.263,0.987,-37.222,3.797,-1.942
61725010,-0.083,-0.276,0.962,-57.277,-3.815,4.025
61725030,-0.14,-0.261,1.047,-42.297,-11.007,13.51
61725030,-0.093,-0.153,1.116,-49.91,-18.112,13.055
61725040,-0.114,-0.076,1.176,-70.49,-17.622,18.392
61725050,-0.088,-0.103,1.217,-85.05,-18.637,18.462
61725060,-0.073,-0.099,1.224,-111.615,-9.415,14.402
61725070,0,-0.205,1.16,-133.927,2.625,7.752
61725080,0.174,-0.195,1.124,-138.512,14.857,4.147
61725090,0.27,-0.237,1.052,-135.642,28.21,8.225
61725100,0.283,-0.259,1.043,-129.115,40.197,12.512
61725110,0.227,-0.282,1.005,-125.615,44.66,15.505
61725120,0.205,-0.269,0.943,-116.357,47.862,20.09
61725130,0.19,-0.406,0.966,-105.315,60.497,25.812
61725140,-0.028,-0.54,0.925,-103.635,68.425,34.072
61725150,-0.178,-0.627,0.814,-97.177,68.967,36.487
61725160,-0.173,-0.684,0.798,-82.232,67.27,44.765
61725170,-0.141,-0.731,0.788,-72.135,67.042,61.022
61725180,0.018,-0.701,0.534,-64.015,82.757,77.402
61725190,-0.434,-0.662,0.517,-54.81,105.49,98.035
61725200,-0.864,-0.522,0.624,-60.2,143.36,112.595
61725210,-0.123,-0.219,0.794,-52.955,170.817,130.305
61725220,0.78,-0.142,1.103,-35.682,189.227,145.652
61725230,0.524,-0.455,1.009,-38.99,144.41,86.432
61725240,0.05,-0.222,0.947,-33.705,66.342,-38.587
61725250,-0.35,-0.12,0.92,-2.537,6.772,-134.4
61725260,-0.775,-0.149,0.926,25.462,-46.917,-191.712
61725270,-1.08,-0.245,0.842,25.392,-104.037,-220.535
61725280,-1.066,-0.071,0.611,17.15,-127.452,-204.365
61725290,-0.877,0.107,0.469,32.882,-121.012,-157.377
61725300,-0.772,0.139,0.45,40.705,-101.762,-113.767
61725310,-0.812,-0.015,0.419,24.552,-79.817,-82.95
61725320,-0.764,-0.145,0.492,18.235,-62.072,-60.777
61725330,-0.658,-0.196,0.67,30.152,-37.31,-25.742
61725330,-0.556,-0.312,0.82,42.017,-13.317,5.95
61725350,-0.392,-0.435,0.99,44.66,7.805,17.762
61725350,-0.284,-0.56,1.102,46.865,20.755,15.382
61725370,-0.241,-0.665,1.121,56.35,22.557,1.19
61725370,-0.244,-0.695,1.142,67.742,14.56,-16.065
61725390,-0.302,-0.702,1.15,67.235,5.88,-25.042
61725390,-0.342,-0.766,1.058,54.092,-0.822,-25.182
61725410,-0.378,-0.838,0.699,44.362,-7.612,-14.35
61725410,-0.405,-0.602,0.581,42.927,-26.775,-9.135
61725420,-0.1,-0.499,0.733,8.207,-44.047,-23.922
61725430,0.194,-0.818,0.756,-40.285,-54.425,-36.207
61725440,0.195,-1.108,0.641,-49.367,-59.43,-38.482
61725450,0.362,-1.12,0.395,-31.867,-55.37,-53.305
61725460,0.411,-0.925,-0.024,-8.067,-42.07,-53.707
61725470,0.137,-0.593,-0.345,21.315,-54.32,-53.777
61725480,-0.047,-0.329,-0.087,38.342,-83.667,-72.467
61725490,0.646,0.003,1.573,2.327,-104.352,-93.292
61725500,1.998,-1.174,0.369,-111.23,55.492,-29.732
61725510,0.7,-1.552,0.607,78.172,38.71,97.072
61725520,-0.699,-0.961,0.492,145.425,-31.517,29.977
61725530,0.335,-0.524,0.701,113.61,-39.952,85.732
61725540,0.105,-0.411,0.653,190.155,-44.135,173.582
61725550,-1.663,-0.661,0.911,259.647,-63.087,139.772
61725560,-1.12,-0.041,1.046,279.16,-47.775,65.957
61725570,-1.434,0.334,1.491,299.757,-55.982,-21.857
61725580,-0.32,-0.199,1.847,211.435,-148.54,-106.295
61725590,1.496,0.68,1.489,141.4,-162.977,-92.802
61725600,1.155,0.97,1.185,107.905,-89.46,-35.332
61725610,0.356,-0.15,1.12,-13.632,-19.32,-0.49
61725620,0.12,-0.104,1.075,-26.792,3.657,1.96
61725630,0.042,0.02,1.088,-28.07,14.787,-6.055
61725640,0.071,-0.232,1.114,-62.422,25.06,-10.657
61725650,0.047,-0.138,1.137,-62.037,31.377,-9.485
61725660,0.029,-0.163,1.068,-83.3,42,-7.805
61725670,0.007,-0.254,1.087,-88.2,55.265,-9.03
61725680,-0.112,-0.224,1.128,-87.657,61.81,-8.732
61725690,0.025,-0.178,1.253,-116.042,68.005,-10.342
61725700,-0.054,-0.117,1.284,-140.997,71.855,-10.745
61725710,-0.014,-0.09,1.29,-150.762,67.497,-10.15
61725710,0.032,-0.096,1.201,-159.652,62.842,-7.735
61725730,0.053,-0.158,1.167,-164.71,59.36,-12.39
61725730,0.051,-0.203,1.125,-173.775,54.145,-16.38
61725750,0.006,-0.277,1.087,-177.292,49.332,-12.18
61725750,-0.019,-0.379,1.254,-173.547,41.702,-5.67
61725760,0.193,-0.548,1.1,-169.855,43.837,2.52
61725770,0.098,-0.689,1.015,-148.96,33.302,18.235
61725780,-0.124,-0.628,0.795,-121.082,17.395,25.777
61725790,-0.123,-0.376,0.868,-92.645,16.24,21.49
61725800,-0.008,0.07,1.177,-91.84,11.217,19.057
61725810,0.181,0.629,1.46,-83.142,-2.94,15.26
61725820,0.779,1.087,0.826,-38.307,-2.187,15.592
61725830,0.871,1.481,-0.341,98.105,6.86,-5.897
61725840,1.163,1.894,-0.531,237.457,39.812,-88.935
61725850,0.792,1.57,-0.219,253.75,79.502,-166.897
61725860,0.059,0.704,-0.177,160.282,100.66,-200.55
61725870,-0.42,-0.459,-0.517,82.687,97.387,-171.622
61725880,0.246,-0.785,0.011,90.702,115.797,-122.745
61725890,-1.179,-1.968,-0.586,24.115,129.71,-21.927
61725900,-0.783,-1.998,1.165,52.902,-62.58,189.42
61725910,1.553,1.182,-1.62,413.052,-149.677,38.412
61725920,-1.923,1.997,0.753,569.45,-171.22,15.872
61725930,-1.524,0.07,1.862,292.005,-278.495,-209.072
61725940,1.784,-1.519,1.428,-269.377,-225.855,-60.62
61725950,1.718,1.894,0.715,209.825,-194.547,-108.745
61725960,1.466,0.964,1.161,101.202,-59.255,-25.83
61725970,-0.125,-0.677,1.034,-101.237,22.312,8.26
61725980,0.231,-0.441,0.989,-47.775,23.94,-1.452
61725990,-0.081,-0.011,1.025,3.22,23.31,-2.135
61726000,-0.181,-0.456,0.975,-45.797,23.747,0.35
61726010,0.044,-0.248,1.032,-24.71,14.315,-7.612
61726020,0.037,-0.102,1.056,-20.667,13.02,-2.8
61726030,0.139,-0.349,1.001,-51.975,18.97,7.245
61726040,0.283,0.014,1.174,-27.79,25.83,15.347
61726050,0.18,0.085,1.329,-51.275,46.182,25.567
61726060,0.077,-0.042,1.296,-102.532,67.445,32.392
61726070,0.051,-0.104,1.29,-128.047,77.157,32.707
61726080,0.192,-0.129,1.222,-147.595,87.29,25.165
61726080,0.216,-0.159,1.192,-162.382,108.447,28.56
61726100,0.225,-0.175,1.196,-164.71,131.25,33.337
61726100,0.215,-0.194,1.108,-163.572,153.947,32.375
61726120,0.256,-0.567,0.985,-146.352,158.06,32.2
61726120,0.19,-0.868,1.079,-134.19,141.96,44.345
61726140,0.169,-0.748,1.088,-146.23,125.457,62.912
61726140,-0.296,-1.61,0.602,-161.91,98.857,95.62
61726160,-0.268,-1.998,-0.411,-152.32,39.847,104.44
61726160,0.927,-1.832,0.56,-89.04,-12.425,55.79
61726170,1.321,-0.989,0.063,-27.212,1.347,11.445
61726180,-0.916,-0.339,-0.077,1.627,-0.822,17.955
61726190,-1.377,-0.381,-0.284,-35.56,-44.485,-20.125
61726200,-0.063,-0.347,-0.147,-27.37,-66.972,-38.517
61726210,0.291,0.171,-0.094,19.197,-94.972,8.977
61726220,-0.132,0.921,-0.352,54.04,-116.69,43.732
61726230,-0.123,1.637,-0.623,92.575,-117.127,48.405
61726240,0.617,1.985,-0.115,159.67,-100.677,54.425
61726250,-0.543,1.224,1.708,75.162,-84.892,111.212
61726260,-1.998,-1.998,-0.823,-73.692,-293.632,245.77
61726270,1.066,-1.712,1.413,193.235,-206.412,201.81
61726280,-1.188,1.913,-0.539,488.267,-140.122,96.355
61726290,-1.639,0.957,1.924,478.502,-187.232,-93.047
61726300,1.283,-0.699,1.801,66.64,-272.125,-102.147
61726310,1.707,1.974,0.962,216.457,-198.222,-31.85
61726320,1.528,1.256,1.288,78.557,-64.522,-11.515
61726330,0.397,-0.256,1.043,-145.477,28.56,-4.812
61726340,0.101,-0.365,1.099,-97.387,55.265,-15.995
61726350,0.004,-0.151,1.076,-80.447,69.615,-22.382
61726360,-0.368,-0.652,0.875,-110.67,69.877,-19.88
61726370,-0.208,-0.556,0.817,-56.857,49.455,-22.75
61726380,0.012,-0.365,0.926,-34.457,35.84,-8.33
61726390,-0.085,-0.37,1.048,-50.05,28.787,15.54
61726400,0,-0.066,1.198,-42.455,20.842,20.282
61726410,-0.017,0.02,1.263,-62.072,24.465,23.327
61726420,-0.047,-0.034,1.228,-106.137,35.28,20.247
61726420,0.224,-0.001,1.246,-128.835,50.33,13.002
61726440,-0.004,-0.065,1.23,-136.675,58.572,10.57
61726440,-0.097,-0.304,1.173,-154.42,71.312,13.212
61726460,0.037,-0.271,1.215,-176.242,85.19,16.835
61726460,0.129,-0.262,1.075,-161.77,90.037,15.802
61726480,0.023,-0.405,1.072,-122.255,73.57,12.057
61726480,-0.024,-0.504,1.079,-116.165,42.455,11.06
61726500,-0.078,-0.578,0.758,-121.24,24.5,27.037
61726500,-0.363,-0.567,0.776,-104.3,-3.062,43.89
61726510,-0.093,-0.702,0.702,-91.822,-16.012,47.687
61726520,0.049,-0.852,0.759,-92.33,-32.812,64.925
61726530,0.19,-1.005,0.407,-100.905,-49.717,67.025
61726540,0.517,-0.868,0.115,-61.582,-36.995,71.627
61726550,0.081,-0.29,0.08,-4.042,-26.617,70.945
61726560,-0.278,-0.063,-0.293,25.445,-44.572,24.202
61726570,-0.096,0.061,-1.024,50.33,-42.735,-25.305
61726580,0.016,0.665,-1.386,120.312,-30.59,-63.542
61726590,-0.033,1.553,-0.756,204.032,-14.122,-115.587
61726600,-1.152,0.938,1.95,143.132,30.59,-152.477
61726610,-1.912,-1.998,-0.73,-116.112,-5.582,-25.637
61726620,0.971,-1.97,1.374,176.347,-2.712,75.95
61726630,-1.188,1.366,-0.991,517.93,-58.467,28.35
61726640,-0.326,1.979,1.013,560.91,-120.925,-64.68
61726650,-0.574,-0.691,1.958,136.99,-169.487,-64.715
61726660,0.983,1.033,1.017,32.48,-172.375,-18.76
61726670,1.617,1.619,1.112,182.595,-118.055,-36.715
61726680,0.77,-0.398,1.013,-82.337,-11.847,-0.472
61726690,0.176,-0.741,0.942,-95.742,33.232,13.23
61726700,0.003,0.021,0.982,-15.995,40.88,13.65
61726710,-0.366,-0.523,0.931,-54.792,40.652,14.14
61726720,-0.319,-0.506,0.969,-36.155,18.34,3.5
61726730,0.104,0.026,1.05,9.292,1.505,0.525
61726740,0.026,-0.097,1.078,-4.48,5.687,6.737
61726750,0.062,-0.143,1.084,-28.892,12.005,15.032
61726760,0.019,-0.014,1.248,-45.307,17.745,23.52
61726770,-0.094,0.03,1.239,-83.09,14.525,31.062
61726780,-0.08,0.015,1.25,-101.167,-1.207,33.127
61726790,-0.145,-0.067,1.294,-107.555,-15.82,35.77
61726800,0.061,-0.104,1.206,-144.532,-17.08,32.182
61726810,0.169,-0.164,1.19,-171.465,10.465,26.477
61726820,0.062,-0.165,1.075,-166.407,25.97,24.202
61726830,0.044,-0.182,1.077,-148.05,36.627,16.66
61726830,0.204,-0.175,0.997,-144.76,48.317,9.275
61726850,0.117,-0.355,0.922,-146.44,61.547,11.62
61726850,-0.079,-0.575,1.002,-148.855,44.835,11.427
61726870,-0.077,-0.704,0.725,-143.062,24.325,16.012
61726870,-0.17,-0.748,0.743,-110.565,-3.972,35.385
61726890,-0.15,-0.685,0.559,-80.762,-34.615,49.577
61726890,-0.052,-0.514,0.61,-56.682,-61.95,60.952
61726910,0.001,-0.447,0.491,-58.292,-84.752,81.392
61726910,0.321,-0.501,-0.038,-47.985,-105.735,111.632
61726920,0.797,-0.216,-0.064,-1.575,-85.68,144.392
61726930,0.833,0.116,-0.335,50.12,-58.677,166.792
61726940,0.822,0.61,-0.611,104.877,-52.692,158.287
61726950,0.982,1.318,1.033,138.372,-35.245,126.612
61726960,-0.684,-0.436,0.718,20.405,40.985,138.022
61726970,-1.998,-1.998,-0.447,-11.795,-160.842,277.655
61726980,-0.105,-1.992,1.027,63.262,-78.627,263.392
61726990,-0.346,0.947,-0.157,409.132,-84.35,199.395
61727000,-1.893,1.924,1.242,556.185,-95.112,77.647
61727010,-1.255,-0.592,1.998,240.31,-235.865,-113.4
61727020,1.921,-0.062,1.413,78.96,-284.445,-104.93
61727030,1.751,1.938,1.079,273.017,-156.292,-17.43
61727040,0.818,0.5,1.203,4.917,-32.41,18.392
61727050,0.286,-0.793,0.888,-133.507,13.527,6.65
61727060,0.403,0.027,0.998,-1.96,26.512,14.665
61727070,-0.306,-0.19,1.036,-40.337,42.385,16.677
61727080,-0.109,-0.574,1.032,-65.887,28.595,5.6
61727090,0.17,-0.006,1.005,-33.512,21.56,8.155
61727100,0.159,-0.225,1.032,-52.027,32.585,15.382
61727110,0.094,-0.177,1.098,-37.1,43.05,26.092
61727120,0.051,-0.041,1.164,-53.935,49.805,36.435
61727130,-0.032,-0.11,1.221,-89.11,49.63,42.297
61727140,-0.136,-0.099,1.294,-105.56,40.915,37.1
61727150,0.02,-0.037,1.323,-132.072,34.632,31.202
61727160,-0.011,-0.062,1.125,-159.022,44.555,29.417
61727170,-0.041,-0.201,1.13,-162.085,52.815,28.227
61727170,0.061,-0.294,1.016,-152.547,52.605,22.837
61727190,0.025,-0.377,0.991,-144.305,59.097,19.985
61727190,-0.011,-0.389,0.969,-138.25,60.602,16.537
61727210,0.099,-0.462,0.918,-129.482,64.627,14.35
61727210,0.071,-0.552,0.858,-113.155,67.462,19.985
61727230,-0.061,-0.668,0.726,-99.067,44.275,28.84
61727230,-0.277,-0.85,0.643,-90.317,3.377,36.435
61727250,-0.136,-0.794,0.548,-80.955,-26.635,42.175
61727250,0.105,-1.003,0.406,-61.635,-46.077,51.765
61727260,0.165,-1.252,0.013,-48.65,-66.307,73.062
61727270,0.167,-0.854,-0.352,-13.51,-44.87,82.495
61727280,0.577,-0.285,-0.789,59.097,-23.572,75.635
61727290,0.979,0.288,-0.367,105.892,14.647,60.952
61727300,0.215,0.63,0.674,75.792,13.965,50.802
61727310,-1.404,0.764,1.845,18.97,-51.957,34.405
61727320,-1.468,-0.664,0.008,41.09,-143.115,76.317
61727330,-0.945,-1.988,0.883,157.412,-181.37,219.275
61727340,-0.352,-1.638,0.992,158.952,-121.135,250.267
61727350,-1.85,1.439,0.591,434.28,-115.045,165.655
61727360,-1.782,0.925,1.997,491.785,-172.83,-7.927
61727370,0.909,0.018,1.837,150.272,-295.435,-109.795
61727380,1.933,1.439,0.999,149.38,-218.295,-61.215
61727390,1.586,1.047,1.231,115.01,-82.897,-10.465
61727400,0.564,-0.037,0.986,-84.385,5.285,-17.255
61727410,0.345,-0.393,1.036,-75.477,45.57,-2.59
61727420,-0.258,-0.03,1.054,-36.452,60.917,6.772
61727430,-0.325,-0.51,1.037,-81.427,51.712,-3.395
61727440,-0.191,-0.427,0.923,-72.222,35.507,-7.612
61727450,0.097,-0.256,1.076,-20.16,21.14,-7.42
61727460,-0.027,-0.127,1.153,-49.787,23.747,12.267
61727470,-0.083,-0.139,1.224,-86.292,25.007,24.657
61727480,-0.18,-0.132,1.332,-93.502,24.937,16.765
61727490,-0.019,-0.057,1.318,-115.202,42.63,-10.377
61727500,0.095,-0.208,1.238,-153.387,89.722,-28
61727510,-0.052,-0.399,1.284,-178.727,141.872,-35.35
61727520,-0.228,-0.684,0.947,-176.47,131.232,-41.947
61727530,0.084,-0.712,0.945,-149.45,111.037,-48.545
61727540,0.294,-0.738,0.866,-129.815,105.927,-46.97
61727550,0.429,-1.472,0.327,-132.492,72.87,-34.615
61727560,0.4,-1.998,-1.066,-110.897,57.487,26.897
61727570,-0.963,-1.998,0.352,-124.04,0.892,86.887
61727580,-0.946,-1.627,-0.557,-105.717,-40.88,81.025
61727580,-0.749,-0.718,-0.032,-6.807,-71.242,108.622
61727600,-0.179,-0.502,0.101,-28.735,-68.127,109.27
61727600,0.522,-0.267,0.184,-47.337,-43.225,124.617
61727620,0.77,0.34,0.095,-29.697,11.27,198.485
61727620,1.03,1.197,0.184,35.017,55.37,247.117
61727640,1.028,1.992,1.519,81.9,22.137,241.972
61727640,1.782,1.997,1.836,62.44,-98.105,202.212
61727660,-0.818,0.91,-0.729,154.752,-73.447,172.48
61727660,-1.998,-1.961,0.503,218.12,-307.51,-21.07
61727670,0.994,-1.963,1.129,-86.642,-232.96,-115.885
61727680,-1.32,1.401,-0.298,428.172,-115.867,157.01
61727690,-1.535,1.577,1.853,530.215,-220.517,35.752
61727700,1.495,0.707,1.691,56.665,-306.582,-86.94
61727710,1.617,0.664,1.018,-7.7,-195.772,-43.312
61727720,1.508,1.133,1.133,128.537,-80.78,-13.142
61727730,0.785,0.325,1.081,-50.137,10.185,-9.152
61727740,0.494,-0.631,0.985,-124.232,56.98,-12.827
61727750,-0.222,-0.142,1.076,-32.217,75.722,12.88
61727760,-0.508,-0.223,1.081,-40.442,62.72,2.975
61727770,-0.135,-0.481,0.968,-90.335,43.295,-6.632
61727780,-0.055,-0.346,0.996,-54.81,35.385,6.912
61727790,-0.276,-0.175,1.084,-41.842,25.742,13.527
61727800,-0.134,-0.082,1.27,-73.902,19.232,2.747
61727810,-0.131,-0.05,1.225,-96.565,27.457,-13.965
61727820,-0.019,-0.101,1.189,-110.985,57.015,-42.507
61727830,0.007,-0.12,1.23,-134.75,102.06,-73.045
61727840,-0.156,-0.208,1.147,-151.27,124.25,-87.902
61727850,0.008,-0.248,1.033,-144.847,126.875,-95.62
61727860,0.245,-0.35,0.977,-127.19,121.292,-92.47
61727870,0.097,-0.494,0.887,-112.962,112,-76.23
61727880,0.08,-0.483,0.979,-102.305,111.65,-74.637
61727890,0.131,-0.734,0.671,-99.82,133.472,-80.885
61727900,-0.066,-1.14,0.295,-77.332,166.6,-88.55
61727910,-0.877,-1.141,0.774,-71.085,137.725,-103.285
61727920,-0.931,-1.164,0.721,-99.557,83.685,-125.37
61727920,-0.896,-1.437,0.397,-74.637,28.56,-76.037
61727940,-1.399,-1.002,0.258,-18.077,-36.382,-29.505
61727940,-1.069,-0.256,-0.116,21.017,-103.267,-52.832
61727960,-0.539,0.363,-0.46,56.07,-119,-27.58
61727960,-0.668,0.951,-0.623,95.042,-137.935,57.627
61727980,-0.01,1.474,-0.751,142.345,-118.895,124.53
61727980,0.477,1.908,0.071,180.25,-86.905,182.7
61728000,1.505,1.605,1.419,87.097,-110.792,204.627
61728000,1.637,-1.932,-0.635,-151.392,-12.022,247.345
61728010,-1.998,-1.998,1.634,107.887,-149.887,144.007
61728020,0.561,0.595,-0.572,418.74,-102.077,13.37
61728030,-0.52,1.907,1.891,564.55,-92.032,209.947
61728040,-0.251,1.298,1.689,203.63,-236.565,74.497
61728050,1.541,0.609,0.889,-115.132,-224.77,-70.98
61728060,1.755,0.37,0.898,-25.077,-80.727,-41.632
61728070,0.39,-0.076,1.095,-15.295,28.927,-2.747
61728080,0.172,-0.239,0.999,-70.192,64.75,-5.022
61728090,-0.466,-0.438,0.999,-42.927,63.227,-3.5
61728100,-0.943,-0.394,0.87,-25.462,27.597,-13.72
61728110,0.167,-0.457,0.977,-24.85,-18.27,-36.032
61728120,0.112,-0.092,1.005,-5.775,-9.152,-6.965
61728130,-0.104,-0.07,1.065,-5.845,1.487,9.87
61728140,-0.278,-0.145,1.119,-34.562,-3.43,12.862
61728150,0.01,0.043,1.282,-40.127,-18.042,6.142
61728160,-0.005,0.076,1.322,-64.242,-23.345,10.815
61728170,0.032,0.086,1.418,-101.167,-29.575,10.85
61728180,0.052,0.019,1.278,-142.327,-31.185,9.012
61728190,0.247,-0.103,1.136,-174.195,-17.202,5.46
61728200,0.166,-0.132,1.196,-181.44,13.527,10.36
61728210,0.111,-0.139,1.064,-180.04,25.725,11.777
61728220,0.213,-0.182,0.998,-172.865,31.36,7.962
61728230,0.242,-0.282,1.105,-164.465,38.08,-0.752
61728240,0.037,-0.363,1.146,-174.562,37.887,-13.755
61728250,-0.134,-0.479,1.05,-177.8,31.657,-34.212
61728260,-0.127,-0.635,0.821,-159.775,29.277,-49.945
61728270,-0.429,-0.705,0.963,-132.09,31.167,-51.485
61728280,-0.192,-0.602,0.713,-119.07,14.49,-54.057
61728290,-0.313,-0.514,0.74,-89.04,22.085,-39.112
61728300,-1.156,-0.382,0.816,-63.805,35.7,-33.792
61728310,-0.478,0.077,0.726,-29.872,79.17,-50.26
61728320,-0.135,0.512,0.597,34.405,98.735,-12.845
61728330,-0.033,0.622,-0.577,109.602,91.385,13.37
61728330,0.151,0.807,-1.289,220.272,83.072,15.4
61728350,-0.156,0.86,-0.506,258.352,73.08,-6.772
61728350,0.068,0.493,-0.785,155.505,42.21,-76.44
61728370,-0.375,-0.013,-0.063,77.035,-20.58,-80.342
61728370,1.299,-1.617,0.493,-57.96,-108.797,-2.187
61728390,-0.209,-1.998,1.294,-100.187,-116.777,248.535
61728390,-0.317,-0.202,-0.771,350.437,-57.96,248.727
61728410,0.21,1.997,0.504,571.62,-46.497,226.047
61728410,-1.697,0.696,1.998,383.267,-237.002,164.465
61728420,1.956,1.2,0.726,-270.06,-233.345,9.992
61728430,1.957,0.089,0.944,-65.905,-175.735,-83.65
61728440,1.014,0.094,1.083,68.897,-27.212,-4.375
61728450,0.003,-0.011,1.029,-39.445,35.665,10.202
61728460,-0.152,-0.602,0.917,-73.36,31.64,-10.272
61728470,-0.528,-0.346,1.031,-5.18,13.895,-10.08
61728480,0.122,-0.219,1.005,-13.055,-13.072,-27.72
61728490,0.412,-0.076,1.004,-25.672,-7.402,-21.35
61728500,0.07,-0.162,1.054,-19.845,16.24,2.082
61728510,-0.03,-0.11,1.116,-35.35,22.785,5.915
61728520,0.139,0.043,1.251,-47.075,22.645,2.992
61728530,0.127,0.142,1.307,-66.167,26.95,5.162
61728540,0.001,0.054,1.361,-111.72,27.37,12.005
61728550,-0.043,0.033,1.383,-152.477,13.09,18.077
61728560,0.068,-0.059,1.198,-170.642,10.972,22.557
61728570,-0.093,-0.153,1.117,-169.75,22.137,30.45
61728580,-0.205,-0.145,1.174,-178.01,27.545,19.46
61728590,-0.243,-0.142,1.077,-194.407,24.36,-1.225
61728600,-0.216,-0.221,1.043,-190.277,12.915,-23.152
61728610,-0.227,-0.375,1.067,-198.992,1.172,-41.055
61728620,-0.319,-0.434,1.036,-218.89,-10.552,-54.705
61728630,-0.161,-0.486,0.896,-219.607,-15.767,-71.47
61728640,0.008,-0.665,1.042,-201.32,6.615,-75.372
61728650,-0.189,-0.883,1.034,-199.622,14.962,-68.985
61728660,-0.05,-0.901,0.882,-185.482,-4.025,-71.417
61728670,-0.532,-0.744,1.004,-151.497,-6.125,-70.28
61728670,-0.656,-0.439,0.91,-134.26,-41.125,-103.267
61728690,-0.681,-0.257,0.63,-118.212,-43.417,-107.607
61728690,-1.216,0.009,0.802,-92.487,12.6,-75.197
61728710,-1.074,1.097,1.053,-50.295,113.312,-55.125
61728710,-0.333,1.989,1.171,67.322,123.48,-5.95
61728730,0.263,1.956,0.015,202.177,41.807,68.95
61728730,0.765,1.844,-1.404,311.36,73.71,82.757
61728750,0.937,1.997,0.134,347.165,154.402,50.54
61728750,0.358,1.733,0.019,278.792,90.23,7.857
61728760,-0.294,0.503,0.348,185.272,17.92,-84.525
61728770,1.9,-1.889,0.279,-16.275,-132.247,-69.667
61728780,-0.96,-1.998,-0.521,-33.705,-129.237,275.625
61728790,-0.614,0.675,0.221,515.672,32.865,73.815
61728800,-1.374,1.997,1.136,573.37,-96.53,9.222
61728810,-0.293,1.332,1.798,301.332,-297.5,98.63
61728820,1.503,-0.047,0.627,-362.407,-92.872,215.302
61728830,1.429,-0.889,0.796,-287.717,-66.465,-58.047
61728840,0.162,-0.6,0.865,-76.632,14.752,-70.962
61728850,-0.022,-0.371,0.918,19.092,52.36,32.095
61728860,-0.161,0.286,1.111,24.045,40.215,-12.057
61728870,-0.438,-0.377,0.995,-65.782,28.227,-14.682
61728880,0.175,-0.494,0.99,-44.31,14.77,-1.855
61728890,0.046,0.064,1.089,3.15,14.297,5.862
61728900,0.293,0.012,1.213,-41.072,23.607,12.372
61728910,0.403,0.068,1.335,-82.862,42.822,19.197
61728920,0.058,0.046,1.321,-104.352,54.092,32.077
61728930,-0.015,0.059,1.414,-144.375,31.71,43.61
61728940,0.333,-0.003,1.327,-183.032,16.047,52.08
61728950,0.139,-0.122,1.14,-201.477,13.422,67.2
61728960,-0.125,-0.162,1.2,-202.807,13.125,69.317
61728970,-0.119,-0.185,1.028,-199.535,14.262,59.325
61728980,-0.039,-0.217,1.074,-188.562,32.2,47.6
61728990,0.002,-0.425,0.959,-173.95,42.98,37.205
61729000,0.117,-0.588,0.904,-162.225,41.65,29.47
61729010,0.37,-0.604,0.753,-145.46,39.602,28.892
61729020,0.299,-0.833,0.699,-110.915,33.652,44.1
61729030,0.299,-1.021,0.743,-102.48,38.465,57.295
61729040,0.19,-1.116,0.864,-109.375,45.622,72.957
61729050,0.47,-0.747,0.797,-82.617,22.995,80.027
61729060,1.26,-0.415,-0.256,3.482,15.767,100.082
61729070,1.026,-0.178,-0.151,95.567,33.425,131.722
61729080,0.561,0.253,0.328,81.637,20.825,94.272
61729080,-0.081,0.442,-0.101,44.905,-38.955,-32.287
61729090,-0.616,0.827,-0.637,84,-82.46,-201.005
61729100,-0.723,1.251,-0.517,150.43,-96.967,-337.032
61729110,-1.341,1.157,0.256,151.445,-131.635,-404.565
61729120,-1.998,-1.036,1.61,-90.02,-101.972,-364.175
61729130,-0.661,-1.998,-0.158,-302.732,-243.757,113.907
61729140,1.69,-1.078,0.255,377.475,82.617,354.69
61729150,-1.651,1.997,-1.033,573.037,29.61,247.782
61729160,-0.894,1.666,1.852,515.97,-123.06,-101.325
61729170,0.166,-0.78,1.976,-58.117,-166.442,-31.902
61729180,1.57,0.998,0.548,-39.235,-171.64,-52.325
61729190,1.784,1.815,1.221,287.472,-90.405,-9.8
61729200,0.886,0.816,1.243,-18.9,22.26,11.9
61729210,0.354,-0.788,0.914,-258.317,64.12,-29.277
61729220,-0.034,-0.679,0.908,-119.455,85.067,10.482
61729230,-0.46,-0.284,1.217,6.475,70.437,13.842
61729240,-0.222,-0.089,0.992,-94.762,47.32,-24.605
61729250,-0.143,-0.621,0.961,-126.875,39.182,13.807
61729260,-0.235,-0.385,1.035,-54.687,14.997,16.275
61729270,-0.058,-0.017,1.208,-46.812,-6.125,-0.297
61729280,-0.026,-0.032,1.254,-100.205,-7.42,10.115
61729290,-0.089,-0.115,1.277,-126.875,-3.132,8.82
61729300,-0.148,-0.129,1.328,-138.372,2.607,-6.667
61729310,-0.083,-0.137,1.237,-155.995,7.14,-19.565
61729320,-0.02,-0.157,1.133,-172.585,17.395,-28.017
61729330,-0.018,-0.218,1.065,-182.682,32.62,-34.387
61729340,-0.064,-0.503,1.051,-182.385,30.905,-50.26
61729350,-0.002,-0.754,0.849,-189.437,18.69,-69.86
61729360,-0.006,-0.835,1.014,-186.795,13.352,-72.572
61729370,-0.103,-0.657,0.696,-166.092,-0.087,-63.735
61729380,-0.493,-0.844,0.688,-120.522,-12.565,-77.437
61729390,-0.515,-0.975,0.592,-107.87,-7.087,-102.917
61729400,-0.862,-0.901,0.477,-97.86,28.035,-76.842
61729410,-1.725,-0.427,-0.316,-27.3,40.862,-26.565
61729420,-1.435,0.086,-0.538,74.585,33.18,-12.197
61729420,0.248,0.77,-0.272,133.35,49.7,7.455
61729440,0.747,0.93,-0.022,134.575,43.575,71.697
61729440,-0.027,0.499,-0.646,82.6,34.335,106.137
61729460,-0.965,0.038,0.151,81.9,6.422,9.24
61729460,1.576,-1.346,0.531,7.927,20.02,-133.595
61729480,1.954,-1.998,0.842,-20.02,69.842,-11.287
61729480,-0.606,-1.333,-0.426,145.827,36.732,-16.625
61729500,-1.55,1.955,-0.914,523.46,35.49,-40.477
61729500,1.796,1.373,1.596,543.217,-43.662,31.64
61729510,-1.511,-1.624,1.951,132.597,27.702,210.595
61729520,-0.615,0.685,1.618,70.227,-111.195,2.117
61729530,0.992,1.603,1.473,267.277,-171.78,-49.49
61729540,1.772,0.907,1.059,23.782,-94.797,-50.365
61729550,0.572,-0.47,0.938,-121.572,-2.677,-36.575
61729560,-0.016,-0.472,1.001,-42.595,31.815,-19.337
61729570,0.084,0.007,1.044,-6.86,35.455,-1.697
61729580,-0.277,-0.422,0.987,-58.397,32.252,-2.205
61729590,-0.028,-0.385,1.042,-53.322,19.617,-2.66
61729600,0.134,-0.087,1.094,-24.692,15.907,11.305
61729610,0.048,-0.103,1.127,-48.422,20.107,23.275
61729620,-0.124,-0.143,1.213,-78.855,16.415,28.77
61729630,0.002,-0.101,1.317,-93.047,1.312,26.39
61729640,0.147,0.041,1.43,-120.312,-8.102,26.687
61729650,0.191,0.056,1.305,-156.625,-5.267,30.432
61729660,0.25,-0.063,1.181,-180.792,7.787,38.85
61729670,0.191,-0.17,1.082,-193.235,28.962,45.902
61729680,0.095,-0.273,1.071,-184.607,50.242,36.26
61729690,-0.014,-0.312,1.066,-170.257,58.887,16.415
61729700,-0.052,-0.493,0.943,-171.412,49.227,-2.275
61729710,0.184,-0.723,0.759,-172.585,27.807,-19.757
61729720,0.232,-0.912,0.649,-158.707,19.372,-14.77
61729730,0.22,-0.964,0.786,-130.252,15.925,-3.78
61729740,0.177,-0.986,0.611,-99.435,33.687,-2.187
61729750,0.513,-0.954,-0.091,-54.932,49.595,-8.102
61729760,0.919,-0.735,0.08,28.105,85.312,-5.127
61729770,0.262,-0.412,0.277,50.925,96.88,-26.057
61729780,-0.419,-0.232,-0.274,33.915,78.33,-108.57
61729780,-0.555,0.048,-0.444,56.262,41.422,-207.55
61729800,-0.433,0.279,-0.477,78.33,5.687,-265.615
61729800,-0.635,0.547,-0.624,92.54,-6.107,-257.652
61729820,-1.062,0.996,1.155,112.962,34.37,-204.61
61729820,-0.299,-1.262,-0.021,-26.477,42.507,-77.455
61729830,-0.012,-1.998,0.814,64.452,-37.747,175.385
61729840,0.617,-1.473,0.053,258.93,-9.957,182.77
61729850,-1.904,1.943,-0.18,546.21,-46.357,92.767
61729860,-0.861,1.233,1.962,498.662,-108.097,-14.91
61729870,-0.709,-0.546,1.77,9.555,-197.05,-1.12
61729880,1.867,1.648,0.791,140.227,-218.26,-51.8
61729890,1.896,1.666,1.204,193.025,-106.89,-17.395
61729900,0.673,0.008,1.042,-123.217,5.197,-1.592
61729910,0.06,-0.955,0.906,-161.927,37.677,-7.525
61729920,-0.043,-0.177,1.072,-15.697,43.557,5.88
61729930,-0.327,-0.215,0.951,-58.415,35.157,3.027
61729940,0.033,-0.678,0.937,-66.797,16.537,-15.68
61729950,0.223,-0.18,1.021,-23.485,18.165,12.11
61729960,0.111,-0.021,1.138,-30.397,26.845,27.037
61729970,0.05,-0.025,1.271,-64.522,29.855,32.515
61729980,0.033,-0.031,1.347,-96.985,26.442,40.215
61729990,0.087,0.039,1.402,-127.61,21.56,42.035
61730000,0.211,0.055,1.279,-159.967,29.785,39.147
61730010,0.256,-0.083,1.199,-178.43,45.64,39.742
61730020,0.201,-0.136,1.058,-189.962,59.482,42.21
61730030,0.201,-0.213,1.046,-183.067,63.017,36.417
61730040,0.221,-0.23,1.024,-170.887,60.882,32.777
61730050,0.162,-0.321,0.967,-170.257,63.28,36.995
61730060,0.035,-0.494,0.876,-167.37,59.482,36.82
61730070,-0.021,-0.604,0.815,-155.785,38.587,28.21
61730080,0.018,-0.609,0.716,-124.897,12.705,21.927
61730090,-0.131,-0.555,0.547,-79.082,9.362,29.365
61730100,0.034,-0.532,0.473,-53.41,2.66,33.46
61730110,0.155,-0.814,0.252,-53.812,-2.572,37.695
61730120,0.035,-0.921,0.697,-64.015,-14.91,46.567
61730130,0.201,-0.765,0.261,-63.385,-65.257,43.907
61730140,0.646,-0.543,0.083,-4.655,-70.385,45.832
61730150,1.402,-0.518,-0.841,67.865,-10.377,51.992
61730160,1.31,-0.004,-0.848,164.5,50.697,44.292
61730170,0.44,0.706,-0.135,222.302,-23.677,-53.515
61730170,-1.561,0.53,1.922,151.602,18.357,-218.382
61730190,-1.998,-1.986,-1.267,-57.732,-240.887,-252.017
61730190,0.835,-1.998,0.963,20.667,-68.722,-3.5
61730210,0.231,-1.131,0.34,367.22,23.957,282.135
61730210,-1.905,1.973,0.383,554.295,-46.865,122.43
61730230,-0.93,0.983,1.998,449.47,-156.24,-102.112
61730230,1.027,-0.242,1.594,55.492,-230.562,-34.352
61730250,1.912,1.976,0.792,227.972,-169.785,-34.492
61730250,1.547,1.297,1.292,110.512,-38.587,14.927
61730260,0.188,-0.311,0.954,-185.517,28.962,-13.597
61730270,0.113,-0.964,0.997,-141.295,48.335,-7.35
61730280,0.059,-0.036,1.144,-35.332,53.952,1.575
61730290,-0.483,-0.486,0.796,-99.68,46.865,8.19
61730300,0.045,-0.661,0.98,-56.945,23.695,-12.67
61730310,0.08,-0.113,0.999,-23.45,20.282,13.632
61730320,-0.025,-0.114,1.188,-49.717,20.58,27.3
61730330,0.02,-0.039,1.333,-78.137,15.977,26.477
61730340,0.026,0.014,1.353,-103.092,16.695,31.185
61730350,0.15,0.034,1.324,-138.25,25.777,28
61730360,0.191,-0.071,1.262,-166.022,40.442,30.415
61730370,0.155,-0.118,1.193,-178.097,45.535,37.59
61730380,0.116,-0.129,1.125,-183.855,39.672,35.787
61730390,0.093,-0.19,1.101,-181.947,26.6,30.765
61730400,0.028,-0.259,1.116,-178.272,14.157,26.495
61730410,-0.195,-0.363,1.188,-185.43,2.362,27.825
61730420,-0.365,-0.572,1.01,-181.947,-52.937,21.49
61730430,-0.353,-0.583,0.805,-159.6,-98.315,7.56
61730440,-0.184,-0.58,0.916,-146.352,-113.032,-4.042
61730450,-0.204,-0.663,0.826,-170.17,-128.345,4.41
61730460,0.096,-0.723,1.01,-172.952,-100.677,25.585
61730470,0.36,-0.676,0.999,-161.052,-53.305,51.135
61730480,0.475,-0.368,0.408,-99.032,54.617,50.802
61730490,0.113,0.55,-0.262,52.027,87.92,45.605
61730500,-0.144,1.375,-1.018,213.692,71.715,18.62
61730510,-0.037,1.743,-0.754,304.517,27.702,-44.327
61730510,0.126,1.624,-0.68,253.33,22.75,-119.752
61730530,0.011,1.113,-0.997,151.795,17.045,-172.917
61730530,-0.032,0.179,0.935,81.795,23.922,-161.402
61730550,1.736,-1.998,-0.335,-103.687,23.45,111.387
61730550,-1.995,-1.998,1.098,-55.282,35.315,472.342
61730570,-1.921,1.054,-1.865,469.35,-25.917,136.832
61730570,-0.241,1.997,1.168,573.02,-107.59,-63.542
61730580,-1.76,0.735,1.998,233.397,-131.792,94.062
61730590,1.19,-0.61,0.997,-437.85,-184.135,-6.247
61730600,1.879,0.522,0.72,19.495,-155.82,-77.892
61730610,1.258,1.38,1.254,202.527,-39.025,-15.487
61730620,0.205,-0.259,0.988,-132.317,26.022,4.655
61730630,0.22,-0.927,0.851,-143.797,37.975,-22.925
61730640,-0.237,0.058,1.066,39.777,43.137,-11.725
61730650,-0.315,-0.24,1.012,-38.15,30.992,-8.4
61730660,-0.122,-0.617,0.918,-83.51,15.662,-5.81
61730670,-0.023,-0.268,1.033,-9.695,-1.12,-2.1
61730680,0.056,0.053,1.164,-12.022,-5.67,8.995
61730690,-0.096,-0.127,1.23,-59.22,-7.805,17.325
61730700,-0.053,-0.083,1.311,-71.382,-15.942,15.767
61730710,-0.064,-0.009,1.394,-92.627,-17.762,12.057
61730720,-0.11,-0.05,1.285,-132.422,-12.687,0.822
61730730,-0.024,-0.238,1.323,-171.797,6.86,-10.92
61730740,-0.026,-0.373,1.25,-201.862,17.832,-20.072
61730750,-0.081,-0.55,1.09,-211.61,14.822,-30.415
61730760,-0.091,-0.59,0.712,-201.442,-6.072,-42.14
61730770,0.299,-0.48,1.041,-173.565,-40.827,-55.755
61730780,0.449,-1.009,1.063,-174.72,-15.54,-39.847
61730790,0.28,-1.886,0.297,-194.197,-21.297,25.742
61730800,-1.207,-1.998,-0.505,-179.077,-45.29,153.615
61730810,-1.996,-1.956,-0.444,-69.037,-3.237,217.542
61730820,-0.61,-0.841,-0.927,74.27,-4.83,166.67
61730830,0.821,0.366,-0.227,162.155,18.042,152.355
61730840,1.115,1.445,0.666,147.315,52.762,155.417
61730850,0.407,1.996,0.246,75.687,49.087,129.622
61730860,0.125,1.997,-0.32,73.78,-0.42,63.28
61730870,0.287,1.997,0.943,116.147,-0.63,30.03
61730880,1.982,0.572,0.781,53.567,-16.537,47.232
61730890,0.432,-1.998,0.203,-118.772,-5.18,160.79
61730900,-0.746,-1.969,-0.444,-219.782,-79.135,52.535
61730910,-0.286,1.35,-0.452,448.525,-66.885,-3.307
61730920,-0.812,1.997,0.917,567.787,-66.185,32.077
61730920,-1.837,0.836,1.998,232.592,-99.417,35.997
61730940,1.136,0.128,1.132,-185.132,-194.53,-73.657
61730940,1.695,1.025,1.086,104.317,-148.662,-87.272
61730960,1.309,1.455,1.422,98.962,-26.6,-18.27
61730960,-0.112,0.071,1.195,-158.147,47.95,-11.217
61730980,-0.053,-1.116,0.931,-207.357,49.157,-37.222
61730980,-0.013,-0.561,1.011,-76.475,42.525,-37.695
61731000,-0.269,-0.191,0.877,-68.302,42.577,4.637
61731000,-0.108,-0.473,0.947,-98.07,32.165,0.21
61731010,0.252,-0.415,1.002,-101.92,24.727,-12.11
61731020,0.204,-0.258,1.12,-86.012,23.362,16.73
61731030,0.081,-0.138,1.244,-88.672,23.45,42.787
61731040,0.037,-0.126,1.192,-112.402,24.29,51.362
61731050,0.129,-0.167,1.17,-134.505,35.7,56.84
61731060,0.274,-0.252,1.19,-141.085,49.63,45.71
61731070,0.366,-0.272,1.115,-139.195,59.622,34.492
61731080,0.373,-0.364,1.07,-136.587,62.842,32.952
61731090,0.479,-0.536,0.873,-132.58,70.42,41.212
61731100,0.64,-0.583,0.904,-111.055,65.835,54.127
61731110,0.562,-0.54,0.976,-91.122,56.192,77
61731120,0.423,-0.652,0.837,-76.912,52.43,94.587
61731130,0.142,-0.793,0.738,-68.145,22.085,108.447
61731140,1.021,-0.844,0.625,-57.347,2.117,112.682
61731150,1.996,-0.79,0.994,-21.542,51.87,135.975
61731160,1.244,-0.852,0.908,3.937,49.105,165.69
61731170,-0.253,-0.607,0.671,26.897,8.47,73.64
61731180,-0.35,-0.284,0.263,61.67,-38.202,-109.585
61731190,0.172,-0.08,0.273,76.282,-81.48,-238.227
61731200,0.459,-0.09,0.244,44.52,-91.245,-250.547
61731210,0.221,-0.197,0.467,24.237,-85.242,-209.282
61731220,-0.189,-0.128,0.625,16.45,-92.172,-202.037
61731230,-0.398,0.009,0.946,4.987,-104.405,-223.09
61731240,-0.305,-0.055,1.316,-28.315,-97.492,-225.365
61731250,-0.347,-0.264,1.761,-57.505,-78.452,-192.5
61731260,-0.777,-0.378,1.983,-61.53,-88.2,-166.967
61731260,-1.501,-0.415,1.552,-44.467,-145.075,-142.59
61731280,-1.843,-0.468,1.085,-24.85,-206.797,-97.037
61731280,-1.564,-0.392,1.09,-2.275,-224.525,-50.89
61731300,-1.285,-0.51,1.088,9.467,-203.035,1.295
61731300,-1.414,-0.811,0.857,12.075,-158.567,72.502
61731320,-1.516,-0.759,0.667,21.945,-113.96,131.285
61731320,-1.206,-0.665,0.772,44.047,-68.635,169.172
61731330,-0.848,-0.785,0.818,53.2,-34.912,187.862
61731340,-0.726,-0.835,0.798,55.632,-5.127,183.347
61731350,-0.619,-0.804,0.806,66.01,22.977,165.602
61731360,-0.474,-0.752,0.831,77.017,51.345,157.57
61731370,-0.552,-0.92,0.877,95.847,69.65,142.187
61731380,-0.215,-0.703,1.086,109.882,90.195,81.305
61731390,-0.143,-0.72,1.051,84,105.717,75.687
61731400,-0.262,-0.793,0.802,81.322,110.862,71.767
61731410,-0.214,-0.651,0.466,82.827,113.785,54.915
61731420,0.281,-0.398,0.097,77.787,126.122,24.552
61731430,1.05,-0.125,0.265,68.617,146.93,-4.707
61731440,1.164,-0.025,0.509,54.04,105.385,-60.13
61731450,1.222,-0.162,0.271,6.912,70.822,-163.992
61731460,1.016,-0.466,0.055,-43.207,68.285,-224.577
61731470,-0.151,-0.214,1.39,-64.977,55.352,-209.387
61731480,1.946,-1.481,1.36,-84.665,88.882,-183.802
61731490,1.078,-1.79,0.086,189,127.155,-75.722
61731500,-1.979,-0.314,0.448,224.07,26.145,-109.077
61731510,0.255,1.173,0.423,117.95,-10.605,-184.152
61731520,1.862,-0.601,1.31,164.132,12.617,25.2
61731530,-1.351,-1.112,1.565,193.007,55.562,159.687
61731540,-1.797,0.354,1.771,208.67,-2.205,42.665
61731550,-0.655,1.02,1.362,136.85,-69.195,-6.125
61731560,0.502,0.116,1.076,31.167,-106.82,-49.402
61731570,1.12,-0.213,0.974,-22.925,-82.232,-65.17
61731580,0.464,-0.029,0.965,12.6,-28.665,-24.71
61731590,0.185,-0.154,1.016,-0.035,2.87,-3.885
61731600,0.073,-0.292,0.965,-26.792,11.672,-7.157
61731610,-0.013,-0.241,1.006,-13.44,14.612,-4.637
61731620,-0.164,-0.208,1.021,-15.907,10.85,-1.697
61731630,-0.041,-0.218,1.04,-26.565,3.745,-6.79
61731640,0.083,-0.114,1.079,-27.807,2.747,-6.335
61731650,0.011,-0.148,1.115,-37.502,9.415,-1.487
61731660,0.091,-0.14,1.118,-57.435,13.037,1.61
61731670,0.011,-0.156,1.158,-72.415,18.2,6.335
61731670,0.02,-0.155,1.098,-85.767,22.4,5.67
61731690,0.041,-0.155,1.1,-97.405,29.452,0.682
61731690,0.021,-0.271,0.986,-102.427,36.54,-6.947
61731710,0.111,-0.314,0.952,-104.16,50.015,-13.912
61731710,0.065,-0.309,0.921,-97.247,60.532,-12.827
61731730,-0.011,-0.324,0.89,-85.907,63.507,-11.777
61731730,0.024,-0.292,0.876,-79.345,59.517,-14.787
61731750,0.01,-0.314,0.841,-72.415,55.265,-15.505
61731750,-0.018,-0.379,0.82,-61.337,51.415,-15.347
61731760,-0.012,-0.479,0.736,-50.505,50.435,-15.225
61731770,0.005,-0.531,0.673,-37.257,49.262,-17.342
61731780,0.05,-0.549,0.594,-25.952,49.402,-21.577
61731790,0.015,-0.512,0.584,-3.675,51.502,-10.622
61731800,-0.034,-0.457,0.67,15.592,43.855,-0.297
61731810,0.02,-0.489,0.745,18.585,39.2,9.187
61731820,-0.037,-0.499,0.902,21.332,35.77,24.115
61731830,-0.095,-0.383,1.08,27.212,34.947,31.517
61731840,-0.293,-0.281,1.158,30.765,26.845,29.715
61731850,-0.299,-0.201,1.199,19.25,21.98,23.975
61731860,-0.206,-0.23,1.182,0.98,24.797,21.07
61731870,-0.2,-0.315,1.135,-9.082,33.845,20.965
61731880,-0.182,-0.347,1.094,-14.262,38.237,17.272
61731890,-0.118,-0.266,1.087,-20.877,37.52,14.07
61731900,0.071,-0.239,1.185,-31.867,26.18,-0.07
61731910,0.306,-0.515,1.179,-51.415,23.625,-7.402
61731920,0.288,-0.835,1.198,-60.287,28.612,21.875
61731930,0.541,-0.964,1.161,-41.772,46.935,52.552
61731940,-0.238,-0.878,0.717,-2.432,26.285,61.495
61731950,-0.672,-0.921,0.846,-4.83,-41.002,48.317
61731960,0.197,-1.342,-0.319,-54.495,-93.87,60.427
61731970,0.826,-1.17,0.224,-30.362,-95.34,108.832
61731980,1.074,-0.925,0.4,-6.597,-96.372,96.512
61731990,0.324,-0.852,0.356,-15.68,-124.687,32.567
61732000,-0.117,-0.807,0.18,-40.512,-144.795,-43.172
61732010,-0.132,-0.89,0.004,-48.195,-137.515,-68.302
61732010,-0.368,-0.892,-0.177,-28.07,-123.707,-34.755
61732030,-0.547,-0.794,-0.394,2.45,-118.965,2.852
61732030,-0.304,-0.614,-0.771,34.527,-115.272,15.82
61732050,0.298,0.831,1.557,51.38,-14.175,28.315
61732050,0.599,0.816,0.085,-75.845,174.79,123.235
61732070,-1.933,1.772,1.162,303.327,82.075,176.365
61732070,-0.965,1.908,0.735,458.937,-30.117,36.68
61732080,-0.891,-0.648,1.992,149.922,-61.915,8.872
61732090,-0.66,-1.906,1.365,-117.967,-73.307,-4.252
61732100,-0.68,0.04,1.111,180.495,-88.497,-0.805
61732110,0.004,1.072,1.393,230.807,-128.1,-46.392
61732120,0.671,0,1.08,-20.405,-112.402,-44.292
61732130,0.816,-0.601,0.919,-32.532,-70.7,-22.995
61732140,0.316,-0.072,0.901,67.847,-27.055,17.937
61732150,0.013,0.001,1.012,45.727,-2.94,24.29
61732160,-0.204,-0.282,1.014,11.532,-3.465,16.397
61732170,0.015,-0.099,1.019,33.53,-15.995,3.045
61732180,0.144,-0.105,1.002,29.19,-18.847,-3.325
61732190,0.129,-0.255,0.976,11.252,-13.44,-5.6
61732200,-0.036,-0.198,0.999,15.05,-8.592,-5.897
61732210,-0.066,-0.173,0.993,12.792,-12.092,-8.662
61732220,0.127,-0.194,1.003,6.23,-15.522,-14.42
61732230,0.151,-0.141,1.006,4.602,-9.502,-12.88
61732240,0.048,-0.129,1.016,-0.07,-1.522,-8.12
61732250,0.049,-0.132,1.028,-6.09,1.54,-8.662
61732260,0.085,-0.092,1.039,-12.32,3.71,-11.34
61732270,0.067,-0.084,1.079,-22.382,8.19,-10.675
61732280,0.026,-0.024,1.128,-34.23,13.142,-10.605
61732290,-0.031,0.004,1.166,-50.61,23.607,-14.717
61732300,-0.055,0.019,1.277,-75.39,26.67,-20.527
61732310,-0.09,0.034,1.274,-96.932,31.745,-23.152
61732320,-0.313,-0.048,1.199,-114.712,36.977,-29.837
61732330,-0.194,-0.226,1.086,-135.922,34.422,-50.155
61732340,0.042,-0.465,1.082,-150.657,39.252,-55.457
61732350,0.194,-0.517,1.084,-151.935,53.795,-49.385
61732360,0.097,-0.433,1.044,-138.092,72.992,-42.927
61732370,-0.098,-0.481,0.98,-118.037,61.687,-42.385
61732380,-0.064,-0.593,0.811,-111.247,41.212,-56.262
61732390,0.19,-0.628,0.863,-112.105,45.447,-69.247
61732400,0.015,-0.817,0.71,-113.75,50.75,-68.635
61732410,-0.284,-0.866,0.681,-103.127,57.505,-74.112
61732420,-0.115,-1.269,0.563,-100.87,61.985,-106.89
61732420,0.573,-1.68,-0.228,-94.325,90.335,-127.19
61732440,-0.091,-0.793,0.336,-24.535,84.087,-130.917
61732440,-1.194,0.225,-1.031,51.887,60.602,-174.317
61732460,-1.415,1.246,-1.717,208.057,59.675,-226.047
61732460,-1.052,1.923,-0.01,288.54,66.78,-230.125
61732480,1.225,0.911,0.758,117.005,66.447,-169.925
61732480,1.566,-1.997,0.864,7.175,82.705,58.205
61732490,-1.962,-1.997,0.528,108.85,-96.897,176.942
61732500,-0.716,1.464,1.386,517.195,-105.595,68.215
61732510,-1.643,1.997,1.974,457.66,-229.512,-21.682
61732520,1.845,1.556,0.918,-38.412,-221.97,-60.322
61732530,1.918,0.109,0.873,-113.05,-128.24,-95.007
61732540,0.795,-0.302,1.028,-35.105,-7.962,-41.825
61732550,0.133,-0.313,0.94,-69.44,41.352,-14.56
61732560,-0.37,-0.258,1.042,-57.417,54.792,7.21
61732570,-0.779,-0.557,1.008,-42.175,27.02,-12.267
61732580,0.015,-0.539,0.917,-56.595,-2.117,-17.43
61732590,0.18,-0.186,1.059,-20.492,-11.287,-13.685
61732600,0.052,-0.067,1.118,-31.027,-4.725,7.052
61732610,-0.049,-0.112,1.324,-59.395,-1.715,16.607
61732620,-0.088,-0.046,1.407,-85.015,-1.172,15.382
61732630,-0.041,-0.057,1.283,-109.305,3.36,9.642
61732640,0.304,-0.09,1.221,-131.25,19.022,2.572
61732650,0.334,-0.086,1.254,-155.277,53.515,4.27
61732660,0.049,-0.108,1.206,-176.942,59.955,-0.962
61732670,0.097,-0.11,1.033,-177.345,53.602,-11.34
61732680,0.186,-0.151,1.058,-163.327,54.547,-3.675
61732690,0.179,-0.312,1.175,-166.967,49.77,7.507
61732700,0.385,-0.434,1.161,-170.345,59.43,20.387
61732710,0.315,-0.609,1.059,-158.882,54.302,38.832
61732720,0.016,-0.606,0.85,-131.407,25.532,39.515
61732730,-0.058,-0.348,0.808,-100.292,5.88,32.637
61732740,-0.134,-0.096,0.878,-75.337,-8.417,37.275
61732750,-0.316,0.234,0.966,-66.08,-24.15,39.55
61732760,0.352,0.67,-0.4,-13.755,-32.865,36.995
61732760,0.446,1.187,-0.531,125.772,-36.067,52.01
61732780,0.687,1.253,-0.13,182.105,-6.422,37.835
61732780,0.385,0.714,-0.457,126.297,-8.47,13.965
61732800,-0.036,0.136,-0.637,92.557,-27.037,7.21
61732800,-0.019,-0.767,0.721,118.667,-55.282,23.45
61732820,-1.323,-1.998,-0.765,-119.367,-261.502,216.947
61732820,-1.696,-1.998,1.855,-174.335,82.477,395.027
61732830,-0.381,0.418,-1.658,357.682,-113.54,172.812
61732840,0.004,1.997,1.135,572.617,-181.58,-99.645
61732850,-1.155,1.204,1.967,374.237,-263.322,-174.615
61732860,1.6,-0.552,1.203,-310.502,-228.532,-92.872
61732870,1.386,0.292,0.777,11.585,-156.607,-44.152
61732880,1.329,1.808,1.124,226.835,-65.117,-8.732
61732890,0.543,0.143,1.122,-72.765,6.072,12.127
61732900,0.287,-1.154,0.828,-204.82,44.257,13.335
61732910,-0.359,-0.428,1.088,-26.687,41.002,30.45
61732920,-0.604,-0.194,0.945,-15.382,13.825,20.335
61732930,0.095,-0.539,0.966,-55.072,-15.505,-16.66
61732940,0.231,-0.291,1.018,-28.945,-15.61,13.842
61732950,0.017,-0.175,1.181,-15.645,-14.437,11.252
61732960,0.027,-0.044,1.254,-50.277,-13.125,8.207
61732970,0.073,-0.225,1.309,-74.532,-1.785,17.062
61732980,0.151,-0.285,1.197,-99.137,20.422,14.49
61732990,0.194,-0.361,1.079,-121.152,25.637,12.04
61733000,0.199,-0.442,1.067,-142.31,22.19,10.745
61733010,0.011,-0.553,0.939,-164.972,7.892,14.91
61733020,-0.086,-0.567,0.637,-148.557,-30.73,38.15
61733030,-0.694,-1.117,0.836,-111.86,-89.337,82.46
61733040,-0.258,-1.314,0.259,-133.682,-98.385,120.242
61733050,0.866,-1.903,-0.308,-95.497,-107.397,233.73
61733060,-0.645,-1.998,0.646,-122.36,-119.227,405.65
61733070,-0.874,-1.983,0.178,-162.102,-80.657,433.562
61733080,1.143,-0.733,-1.082,62.125,-64.05,390.495
61733090,1.618,1.02,-0.782,310.082,22.89,353.08
61733100,1.998,1.987,0.232,375.952,24.325,322.542
61733110,1.07,1.997,1.954,293.352,4.41,322.227
61733120,-1.098,1.277,-1.291,161.245,56.21,160.142
61733130,-0.663,-1.644,1.116,147.262,39.287,-23.38
61733140,-1.891,-1.998,1.155,-242.112,-110.46,-186.445
61733150,-0.501,0.546,1.072,135.695,-89.81,-133.192
61733160,-1.141,1.997,1.998,545.387,-184.572,36.697
61733160,1.925,1.987,1.076,237.177,-166.81,45.57
61733170,1.58,0.899,1.18,-69.352,-79.712,-17.937
61733180,0.904,-0.858,0.874,-234.465,4.165,-72.152
61733190,-0.069,-0.855,0.769,-127.89,52.377,-9.765
61733200,-0.217,-0.134,1.171,63.787,49.787,2.135
61733210,-0.624,0.11,1.03,-12.985,36.12,-7.507
61733220,-0.078,-0.694,0.915,-99.225,15.452,-18.585
61733230,0.116,-0.378,1.004,-33.985,3.395,-20.947
61733240,0.06,0.045,1.194,-8.802,7.14,2.975
61733250,-0.043,-0.038,1.329,-63.7,14.21,13.562
61733260,0.138,-0.036,1.443,-94.972,32.077,6.492
61733270,0.068,-0.016,1.219,-106.942,65.117,-12.092
61733280,0.276,-0.236,1.149,-116.497,109.41,-39.13
61733290,-0.206,-0.439,1.378,-145.197,134.96,-63.315
61733300,-0.474,-0.357,1.197,-177.8,99.802,-97.387
61733310,-0.291,-0.201,1.08,-164.045,56.315,-131.25
61733320,-0.278,-0.406,0.795,-134.925,46.847,-147.157
61733330,0.176,-0.856,0.53,-122.78,95.357,-169.365
61733340,0.566,-1.584,0.973,-127.61,158.165,-195.912
61733350,-0.542,-1.79,0.504,-171.92,91.542,-255.045
61733360,-0.68,-0.861,-0.778,-118.93,45.377,-316.417
61733370,-1.946,-1.786,-0.496,5.25,-90.492,-208.897
61733380,-1.998,-1.359,-0.054,-17.622,-47.932,-120.575
61733390,0.031,0.478,-0.891,78.435,29.645,-68.845
61733400,1.977,1.569,-0.65,287.332,113.575,99.487
61733410,1.529,1.974,0.404,296.66,93.642,270.147
61733420,1.703,1.838,1.602,145.88,-55.842,291.672
61733430,1.829,-1.316,1.858,-107.94,92.82,261.992
61733440,-1.741,-1.998,0.645,-22.365,-30.17,71.54
61733450,-0.04,-0.642,1.286,360.395,-181.912,-208.565
61733460,-0.618,1.96,1.945,481.617,-147.35,-38.587
61733470,-0.306,1.842,1.791,277.112,-168.105,39.077
61733480,1.822,1.222,1.162,10.675,-175.437,-55.09
61733490,1.537,0.109,0.94,-101.097,-96.617,-82.845
61733500,0.548,-0.985,0.886,-111.44,-10.29,-31.797
61733510,0.026,-0.377,0.908,-37.485,26.512,3.36
61733510,-0.439,-0.193,1.146,6.755,25.76,18.13
61733530,-0.426,-0.287,0.926,-32.55,-1.4,-12.407
61733530,0.376,-0.426,1.018,-44.327,-19.547,-19.932
61733550,0.255,-0.111,1.082,-25.725,-1.89,9.187
61733550,0.102,-0.046,1.297,-42.822,15.662,28.525
61733570,0.098,0.024,1.392,-83.457,20.177,29.89
61733570,0.004,-0.038,1.4,-115.115,20.737,42.962
61733580,0.016,-0.161,1.398,-137.987,13.475,31.115
61733590,0.127,-0.176,1.165,-165.69,13.125,16.257
61733600,-0.068,-0.282,1.097,-162.295,12.442,18.462
61733610,-0.122,-0.33,1.001,-159.477,1.715,19.337
61733620,-0.139,-0.265,0.989,-160.002,-15.015,15.33
61733630,0.034,-0.215,0.92,-150.01,-20.335,11.707
61733640,0.212,-0.421,1,-138.53,-5.092,6.755
61733650,0.149,-0.775,1.211,-148.977,28.07,-4.305
61733660,-0.34,-0.957,0.413,-149.03,55.37,-18.952
61733670,-0.417,-0.29,-0.61,-30.555,90.51,-34.685
61733680,-0.409,0.653,-0.468,144.357,87.745,-28.262
61733690,0.24,0.963,-0.796,205.502,67.795,-12.757
61733700,0.391,0.684,-0.671,190.382,28.472,17.832
61733710,0.886,-0.163,0.144,104.545,-24.762,15.68
61733720,1.753,-1.803,0.715,-86.887,5.25,34.562
61733730,-1.621,-1.998,1.284,-228.112,-39.147,124.18
61733740,-0.339,-0.669,0.042,207.742,-63.332,89.985
61733750,-0.04,1.997,0.788,565.95,-78.26,123.147
61733760,-1.951,1.508,1.998,466.952,-137.322,72.782
61733770,0.986,0.606,1.639,-61.32,-182.56,-52.745
61733780,1.728,-0.081,0.92,-148.54,-151.48,-104.825
61733790,1.276,0.354,1.054,58.257,-57.172,-30.975
61733800,0.245,0.058,1.093,18.655,17.447,32.06
61733810,-0.048,-0.446,0.971,-78.382,32.917,-2.38
61733820,-0.235,-0.616,0.907,-42.105,26.18,-16.73
61733830,-0.062,-0.263,0.917,4.13,15.452,-13.965
61733830,0.083,-0.328,0.913,-12.495,12.005,-12.512
61733850,0.194,-0.359,0.922,-13.492,14.735,-8.435
61733850,0.015,-0.232,0.974,0.035,21,8.365
61733870,-0.026,-0.171,1.025,-1.89,23.467,13.037
61733870,0.049,-0.195,1.015,-8.732,21.315,11.06
61733890,0.104,-0.214,1.022,-12.337,24.29,12.477
61733890,0.104,-0.197,1.034,-15.102,29.207,14.822
61733910,0.14,-0.196,1.027,-19.18,37.607,19.075
61733910,0.107,-0.235,0.999,-22.207,46.147,24.29
61733920,0.043,-0.247,0.966,-21.787,53.725,26.39
61733930,-0.063,-0.242,0.922,-20.86,53.217,19.495
61733940,-0.12,-0.28,0.89,-23.17,46.847,10.36
61733950,-0.127,-0.335,0.873,-22.627,38.727,9.327
61733960,-0.175,-0.325,0.853,-12.127,30.957,10.867
61733970,-0.203,-0.266,0.829,-0.857,17.325,0.7
61733980,-0.276,-0.262,0.8,3.43,0.315,-7.892
61733990,-0.233,-0.383,0.82,7.21,-23.345,-14.752
61734000,-0.157,-0.414,0.925,20.79,-42.927,-10.15
61734010,-0.197,-0.356,1.012,47.232,-51.835,2.87
61734020,-0.145,-0.146,1.055,59.657,-58.415,5.652
61734030,0.079,-0.026,1.095,51.117,-63.175,-1.995
61734040,0.193,-0.045,1.059,27.387,-56.385,-5.39
61734050,0.304,-0.052,1.008,12.425,-44.327,-10.605
61734060,0.27,-0.096,0.984,6.002,-26.145,-11.602
61734070,0.143,-0.135,0.968,3.29,-9.992,-8.89
61734080,0.06,-0.133,0.965,3.727,-0.385,-6.79
61734090,0.034,-0.191,0.97,-0.07,5.565,-3.64
61734100,-0.01,-0.171,0.967,-0.07,8.172,-1.662
61734110,-0.046,-0.166,0.984,1.68,8.4,-1.54
61734120,-0.061,-0.196,0.997,-2.292,5.197,-4.882
61734130,-0.017,-0.158,0.996,-5.04,2.73,-8.312
61734140,-0.038,-0.195,0.99,-6.86,-0.017,-7.122
61734150,-0.011,-0.23,0.985,-6.86,-3.832,-12.39
61734160,0.03,-0.235,0.959,-12.88,-6.685,-15.295
61734170,-0.018,-0.309,0.949,-10.29,-6.265,-8.872
61734180,-0.02,-0.282,0.946,-1.575,-9.135,-5.74
61734190,-0.009,-0.251,0.943,0.542,-11.462,-4.83
61734200,0.035,-0.279,0.961,-0.98,-14.175,-5.127
61734210,0,-0.274,0.961,0.875,-13.79,-3.097
61734220,0.06,-0.246,0.982,10.955,-14.455,2.327
61734230,0.091,-0.148,0.991,12.215,-10.71,6.457
61734240,0.087,-0.189,0.994,3.797,-6.615,8.382
61734250,0.072,-0.196,0.986,-0.122,-2.45,6.037
61734260,0.077,-0.186,0.994,1.697,0.315,5.687
61734260,0.035,-0.178,0.995,-1.662,5.145,6.965
61734280,0.002,-0.235,0.999,-6.982,7.035,8.032
61734280,-0.009,-0.261,1.001,-8.82,8.662,8.347
61734300,-0.032,-0.271,0.997,-8.837,8.627,9.555
61734300,-0.052,-0.238,0.99,-10.57,8.242,10.377
61734320,-0.017,-0.227,0.987,-11.917,5.302,10.29
61734320,-0.029,-0.243,1.008,-11.305,2.992,11.13
61734330,0.029,-0.191,1.037,-18.637,1.435,5.67
61734340,0.189,0.013,1.08,-29.995,10.78,-0.98
61734350,0.158,0.14,1.155,-30.012,25.602,0.56
61734360,-0.176,0.088,1.241,-35,29.575,6.807
61734370,-0.299,0.052,1.427,-65.45,16.975,-5.74
61734380,-0.234,-0.045,1.225,-107.782,-22.347,-23.537
61734390,0.254,-0.258,1.019,-123.48,-27.615,-34.912
61734400,0.225,-0.5,1.415,-131.88,7.087,-26.827
61734410,-0.095,-0.617,1.104,-152.11,31.832,-27.405
61734420,-0.465,-0.508,1.332,-124.6,54.022,-48.09
61734430,-0.493,-0.376,1.391,-105.35,36.837,-61.372
61734440,-0.011,-0.347,0.978,-106.19,43.417,-63.7
61734450,-0.599,-0.191,1.203,-90.965,50.732,-42.052
61734460,-1.043,0.165,0.519,-53.34,56.91,-35.665
61734470,-0.394,0.603,0.971,5.425,49.21,-44.467
61734480,-0.091,0.572,1.116,-6.965,34.072,-25.13
61734490,-0.066,0.345,0.802,-36.54,30.205,-17.902
61734500,-0.165,0.094,0.759,-55.667,29.067,-19.6
61734510,-0.373,-0.228,0.554,-50.662,21,-17.185
61734520,-0.454,-0.45,0.423,4.2,4.777,-11.952
61734530,-0.237,-0.417,0.573,38.272,3.902,-13.3
61734540,0.085,-0.437,0.507,30.117,11.532,-4.602
61734550,0.159,-0.468,0.324,28.192,19.32,8.89
61734560,-0.065,-0.46,0.251,14.542,13.055,19.792
61734570,-0.04,-0.574,0.233,-18.287,-8.312,5.215
61734580,0.237,-0.772,-0.065,-48.51,-42.577,-14.927
61734580,0.4,-0.945,-0.233,-42.385,-70.857,-25.27
61734600,0.613,-0.952,-0.283,-14.385,-85.452,-58.502
61734600,0.855,-0.843,-0.405,-4.112,-89.88,-63.56
61734620,0.598,-0.716,0.145,27.02,-81.147,-32.2
61734620,0.703,-0.562,1.86,-29.4,-108.587,-15.12
61734640,1.927,-1.952,-0.846,-69.842,41.335,57.137
61734640,-1.462,-1.737,0.84,272.527,-42.752,133.577
61734660,-1.702,0.195,0.38,275.87,-63.332,-2.8
61734660,0.434,1.17,1.843,272.545,-54.46,-26.547
61734670,-1.82,-0.542,1.476,216.51,-118.352,62.667
61734680,0.956,-0.325,1.614,160.86,-171.342,-58.432
61734690,1.474,0.998,1.093,144.567,-123.182,-57.47
61734700,1.077,0.422,1.204,85.662,-45.255,5.355
61734710,0.261,-0.254,1.069,-38.727,2.59,8.592
61734720,0.176,-0.331,0.926,-52.167,15.435,-18.48
61734730,-0.002,-0.034,1.053,-3.29,20.632,-26.617
61734740,-0.154,-0.2,1.049,-26.075,24.99,-25.672
61734750,-0.003,-0.291,1.003,-50.05,20.23,-44.765
61734760,0.154,-0.23,1.034,-41.755,18.812,-49.647
61734770,0.143,-0.211,1.056,-45.85,22.417,-32.847
61734780,0.107,-0.222,1.149,-56.875,26.075,-16.047
61734790,0.025,-0.134,1.209,-68.407,31.815,-12.372
61734800,-0.199,-0.133,1.173,-89.53,38.587,-16.765
61734810,-0.121,-0.228,1.264,-119.175,44.712,-29.015
61734820,-0.21,-0.248,1.47,-153.002,56.14,-40.11
61734830,-0.332,-0.228,1.297,-183.697,48.475,-58.555
61734840,-0.148,-0.192,1.295,-175.612,45.045,-88.06
61734850,-0.315,-0.219,1.306,-174.615,51.222,-105.157
61734860,-0.45,-0.407,1.174,-194.652,42.875,-123.97
61734870,-0.591,-0.679,1.161,-228.847,22.855,-155.697
61734880,-0.482,-0.637,1.251,-263.357,36.47,-199.972
61734890,-0.327,-0.709,1.238,-284.147,45.027,-242.655
61734900,-1.226,-0.125,0.715,-238.927,124.442,-262.272
61734910,-1.281,0.604,0.766,-84.787,180.337,-275.852
61734920,-1.283,1.301,0.756,21.07,225.155,-269.045
61734930,-1.147,1.648,0.09,52.01,229.302,-267.26
61734940,-0.494,1.821,0.347,60.357,223.475,-243.162
61734950,0.877,1.9,0.354,27.912,205.782,-175.84
61734960,1.209,1.229,0.076,39.952,136.185,-34.545
61734970,1.056,0.29,-0.201,84.402,15.4,55.807
61734980,1.998,-1.848,-1.818,140.875,-121.03,127.557
61734990,1.238,-1.998,1.68,-29.575,-110.967,431.025
61735000,-0.381,-1.232,-1.205,-25.217,48.317,241.71
61735010,0.122,1.984,-1.176,547.47,-25.392,68.425
61735010,-1.531,1.936,1.504,570.01,-119.21,49.612
61735030,-1.994,0.437,1.998,213.587,-85.715,63.35
61735030,-0.916,0.039,1.394,-307.737,-149.467,-89.442
61735050,1.894,-1.087,1.248,-74.655,-205.537,-155.855
61735050,1.777,1.77,1.116,235.252,-105.945,-76.772
61735070,0.991,0.316,1.306,64.155,-1.68,37.38
61735070,-0.003,-0.454,0.931,-130.952,33.547,-8.75
61735080,-0.134,-0.723,0.844,-78.347,33.495,-26.95
61735090,-0.116,-0.078,1.024,16.012,24.167,-19.635
61735100,0.121,-0.188,1.001,-19.582,21.542,-20.737
61735110,0.196,-0.479,0.908,-53.077,22.645,-21.35
61735120,0.237,-0.348,0.982,-31.535,23.835,-4.847
61735130,0.237,-0.148,1.151,-21.175,29.89,18.375
61735140,0.135,-0.036,1.202,-43.12,37.765,29.452
61735150,0.148,-0.033,1.232,-74.83,44.24,33.722
61735160,0.13,-0.211,1.25,-106.015,51.485,29.33
61735170,0.24,-0.299,1.205,-132.842,67.41,27.93
61735180,0.225,-0.385,1.119,-140.262,78.505,32.095
61735190,0.182,-0.358,1.129,-123.077,81.672,37.257
61735200,0.185,-0.389,1.11,-102.025,85.61,35.157
61735210,0.18,-0.396,1.079,-104.195,71.575,38.342
61735220,0.274,-0.514,0.938,-112.787,45.552,39.375
61735230,0.083,-0.838,1.115,-123.095,42.962,45.587
61735240,-0.431,-1.211,0.869,-147.752,8.802,44.957
61735250,0.299,-1.493,-0.414,-134.452,-65.012,16.065
61735260,1.341,-1.862,-0.582,-57.085,-68.25,5.582
61735270,0.733,-1.713,-0.074,-38.605,-40.547,43.75
61735280,-0.758,-0.989,-0.195,-46.952,-26.827,31.762
61735290,-1.22,-0.745,-0.213,-19.547,-66.325,-18.217
61735300,-1.111,-0.56,-0.333,3.202,-93.782,-51.012
61735310,-0.515,-0.052,-0.37,41.842,-65.24,-34.265
61735320,0.02,0.589,-0.455,90.02,-15.452,27.3
61735330,-0.762,1.825,1.659,133.087,4.2,72.712
61735330,0.863,1.997,0.535,23.66,25.252,45.01
61735350,0.162,0.008,-0.856,295.33,56.7,145.145
61735350,-1.992,-1.998,1.593,231.98,-162.312,139.79
61735370,0.251,-1.454,0.04,-105.052,-61.687,-26.845
61735370,-1.764,1.589,1.255,459.497,-137.515,-45.937
61735390,0.906,1.634,1.874,430.255,-289.712,-121.275
61735390,1.017,1.686,0.957,76.702,-124.32,30.1
61735410,1.281,0.319,1.325,10.517,-57.697,1.61
61735410,0.575,-0.123,0.932,-93.852,-8.085,-44.835
61735420,0.479,-0.462,0.883,-95.83,40.32,-0.35
61735430,-0.358,-0.276,1.099,-41.562,57.12,35.21
61735440,-0.476,-0.286,1.072,-30.467,28.49,-11.077
61735450,0.03,-0.422,0.935,-73.78,8.907,-27.3
61735460,0.102,-0.485,0.971,-47.88,10.237,0.647
61735470,0.114,-0.099,1.136,-18.147,6.3,-4.375
61735480,0.105,0.015,1.25,-59.307,14.21,-5.215
61735490,0.053,-0.13,1.202,-95.707,26.67,-3.237
61735500,0.123,-0.251,1.252,-109.777,44.572,-13.125
61735510,0.066,-0.273,1.352,-132.615,77.77,-24.675
61735520,-0.187,-0.244,1.251,-157.237,84.682,-40.302
61735530,-0.068,-0.233,1.076,-153.055,75.232,-62.895
61735540,-0.12,-0.323,1.096,-137.9,55.842,-69.65
61735550,0.079,-0.506,0.851,-145.897,33.18,-75.267
61735560,0.219,-0.812,0.573,-148.225,47.005,-74.27
61735570,-0.03,-1.223,0.684,-143.36,59.027,-58.345
61735580,-0.288,-1.815,0.558,-181.317,48.282,-64.557
61735590,-0.726,-1.998,-0.314,-201.757,-14.437,-34.772
61735600,-1.977,-1.82,0.047,-96.372,-16.642,67.165
61735610,-1.624,-0.856,-0.19,17.097,-8.33,99.19
61735620,0.069,0.263,-0.785,91.717,-13.002,99.172
61735630,1.196,1.167,-0.53,168.857,32.83,151.06
61735640,1.401,1.642,-0.354,202.982,47.775,220.797
61735650,0.912,1.969,0.38,210.945,-21.017,250.635
61735660,1.799,1.199,1.825,140.28,-125.737,218.452
61735670,0.912,-1.896,0.555,-72.59,22.05,200.445
61735680,-1.987,-1.998,1.47,-106.767,-152.477,104.965
61735690,1.09,0.667,0.101,320.442,-112.56,-81.322
61735700,-1.299,1.953,1.798,562.17,-102.952,47.075
61735710,-0.051,1.308,1.962,250.932,-224.997,-35.875
61735720,1.821,0.694,1.145,-109.707,-190.312,-93.782
61735730,1.411,0.217,1.02,-19.932,-65.205,-64.347
61735740,0.263,0.336,1.291,13.685,25.48,-25.812
61735750,0.075,-0.148,0.975,-91.77,54.162,-48.72
61735760,-0.08,-0.762,0.923,-111.3,59.552,-43.627
61735760,-0.376,-0.633,0.85,-47.057,48.09,-16.1
61735780,-0.083,-0.415,0.901,-20.282,26.337,-10.657
61735780,0.041,-0.361,0.988,-39.725,13.825,-7.332
61735800,0.017,-0.222,1.152,-49.14,9.17,8.295
61735800,0.046,-0.126,1.268,-47.617,12.74,13.825
61735820,0.133,-0.065,1.38,-66.92,28.805,11.76
61735820,0.279,-0.12,1.424,-113.645,61.6,-1.277
61735830,0.406,-0.251,1.346,-152.25,98.14,-15.137
61735840,0.332,-0.462,1.262,-160.912,121.292,-4.025
61735850,0.225,-0.604,1.203,-151.445,98.105,10.902
61735860,0.459,-0.554,1.096,-138.495,72.38,20.02
61735870,0.394,-0.438,1.039,-121.87,51.082,42.962
61735880,0.42,-1.228,0.237,-112.997,34.23,54.337
61735890,0.557,-1.998,-1.05,-141.75,-2.73,64.382
61735900,0.434,-1.998,0.926,-233.485,-95.62,32.76
61735910,0.199,-1.839,-0.384,-282.765,-80.15,2.59
61735920,-0.862,-0.927,0.201,-65.467,-65.1,56.857
61735930,-0.827,-0.12,0.036,54.39,-57.452,58.992
61735940,-0.393,0.879,-0.506,94.99,-69.335,34.93
61735950,0.008,1.809,-0.277,157.167,-48.86,39.322
61735960,0.313,1.997,-0.384,212.485,-25.69,59.675
61735970,0.418,1.997,-0.038,257.6,-24.08,86.17
61735980,-0.21,1.752,1.972,136.202,10.885,128.922
61735990,-1.316,-1.728,-0.871,-167.265,-106.19,200.48
61736000,-1.79,-1.998,1.858,-279.597,-163.397,104.387
61736010,0.03,-0.161,-1.054,176.96,-110.53,-12.81
61736020,-0.889,1.997,0.924,570.605,-132.615,-3.43
61736030,-0.539,1.671,1.991,451.972,-181.37,-33.372
61736040,1.806,0.575,1.619,-61.67,-207.077,-41.51
61736050,1.192,-0.109,1.022,-90.912,-135.38,-30.38
61736060,0.997,0.65,1.126,106.242,-67.025,-1.225
61736070,0.573,0.308,1.071,3.15,-7.035,32.707
61736080,0.15,-0.621,0.986,-116.847,22.312,26.232
61736080,0.135,-0.418,1.096,-62.387,19.267,1.155
61736100,0.44,-0.014,1.061,-29.627,29.295,1.75
61736100,0.35,-0.185,1.053,-74.532,61.18,24.08
61736120,0.184,-0.331,1.073,-95.2,85.715,18.445
61736120,0.086,-0.241,1.15,-87.902,98.962,8.82
61736140,0.187,-0.178,1.322,-86.992,114.275,-0.56
61736140,0.252,-0.254,1.239,-102.742,135.747,-4.375
61736160,0.239,-0.365,1.13,-117.372,147.56,-7.07
61736160,0.204,-0.466,1.055,-115.132,139.247,-6.685
61736170,0.39,-0.496,1.122,-102.952,133.63,0.455
61736180,0.568,-0.524,1.068,-102.55,142.135,22.155
61736190,0.368,-0.615,0.847,-91.682,149.66,52.482
61736200,0.473,-1.045,0.464,-69.685,151.41,73.71
61736210,0.815,-1.499,0.529,-57.767,150.202,103.145
61736220,0.744,-1.973,-1.003,-60.007,47.81,101.36
61736230,1.917,-1.8,0.012,6.93,11.602,32.025
61736240,1.862,-1.548,1.588,-15.785,-57.61,-0.857
61736250,-0.511,-0.492,-0.404,-38.167,-61.425,-99.645
61736260,-1.889,-0.173,-0.179,75.827,-170.537,-179.935
61736270,-1.011,-0.151,-0.495,37.887,-351.75,-314.265
61736280,-1.219,0.954,1.258,-18.672,-269.552,-242.637
61736290,-1.998,0.696,0.664,-1.155,74.515,-57.505
61736300,-1.776,1.872,1.962,176.732,-52.29,88.392
61736310,0.243,-0.941,-0.213,155.172,-427.892,419.842
61736320,-1.642,-1.751,1.387,196.892,-162.995,510.86
61736330,-1.162,0.433,1.545,314.107,-47.845,149.765
61736340,-0.289,-0.073,1.784,304.237,-199.185,-118.93
61736350,1.993,0.899,1.364,115.08,-210.332,-160.965
61736360,1.535,0.852,1.138,91.507,-99.89,-45.57
61736370,0.698,0.41,1.215,1.732,-10.85,22.207
61736380,0.582,0.054,1.192,-102.497,22.242,9.38
61736390,0.164,-0.31,1.018,-132.352,55.16,28.385
61736400,-0.257,-0.445,1.109,-84.525,60.235,14.927
61736410,-0.274,-0.231,0.984,-67.69,50.942,-25.69
61736420,0.238,-0.281,0.915,-100.047,56.07,-28.42
61736430,0.153,-0.488,0.856,-111.177,62.79,-17.622
61736440,0.051,-0.556,0.936,-93.397,53.2,-9.852
61736450,0.228,-0.463,0.97,-78.015,30.1,10.465
61736460,0.143,-0.333,0.996,-69.387,19.337,41.3
61736470,-0.034,-0.311,0.966,-68.792,6.247,58.835
61736480,-0.061,-0.281,0.963,-75.6,-1.347,58.975
61736490,-0.033,-0.224,0.955,-78.12,-0.367,53.095
61736500,-0.034,-0.301,0.905,-69.142,-4.287,48.65
61736510,0.107,-0.44,0.802,-63.595,-3.097,50.995
61736510,0.294,-0.459,0.752,-58.03,7.507,52.797
61736530,0.231,-0.417,0.835,-43.295,22.662,55.877
61736530,0.158,-0.448,0.758,-32.917,33.162,50.715
61736540,0.06,-0.446,0.895,-26.687,38.885,35.805
61736550,-0.029,-0.404,0.99,-31.167,42.28,20.44
61736560,-0.103,-0.454,1.127,-39.987,45.395,9.835
61736570,-0.234,-0.394,1.299,-56.875,49.77,-2.922
61736580,-0.275,-0.198,1.331,-66.99,58.835,-18.025
61736590,-0.299,-0.034,1.352,-60.567,57.067,-28.122
61736600,-0.46,0.029,1.649,-79.52,39.62,-40.67
61736610,-0.366,-0.033,1.329,-131.075,10.482,-59.71
61736620,-0.136,-0.128,1.364,-149.957,15.75,-66.237
61736630,-0.34,-0.284,1.02,-152.18,20.562,-57.067
61736640,-0.561,-0.275,0.799,-136.062,20.317,-60.655
61736650,-0.765,-0.271,0.677,-114.502,10.937,-77.087
61736660,-0.209,-0.118,0.484,-104.615,15.837,-98.367
61736670,-0.067,0.013,1.05,-83.545,55.755,-88.97
61736680,-0.267,0.029,0.987,-66.605,107.31,-82.11
61736690,-0.668,-0.15,0.652,-32.077,109.305,-82.862
61736700,-0.57,-0.111,0.412,11.987,96.092,-94.325
61736710,-0.196,-0.043,0.664,43.575,91.892,-93.205
61736720,0.159,-0.183,0.566,42.175,80.745,-78.155
61736730,0.227,-0.526,0.524,37.38,66.185,-64.365
61736740,0.315,-0.82,0.328,37.485,59.045,-67.935
61736750,0.415,-0.981,0.215,59.045,53.882,-82.862
61736760,0.482,-1.096,0.327,82.652,49.175,-92.487
61736770,0.48,-1.328,0.305,79.607,44.467,-78.19
61736780,0.35,-1.528,0.119,67.935,37.607,-49.297
61736790,0.367,-1.585,-0.029,71.435,33.792,-28.647
61736800,0.557,-1.465,-0.132,83.51,25.077,-25.865
61736810,0.614,-1.288,-0.276,91.63,8.19,-27.44
61736820,0.513,-1.103,-0.47,100.117,-7.7,-32.007
61736830,0.079,-0.878,0.862,100.257,-41.16,-63.017
61736830,-0.362,-0.211,1.985,16.38,-89.88,-95.497
61736850,1.281,0.23,1.08,8.942,73.797,-92.977
61736850,-0.039,0.088,1.184,269.045,44.17,26.827
61736870,-1.532,-0.392,1.168,220.062,-109.235,89.442
61736870,-0.628,-1.139,0.126,57.75,-192.867,83.282
61736890,0.698,-1.029,1.452,116.672,-90.562,78.33
61736890,-1.196,-0.217,1.318,274.452,-100.922,22.47
61736910,-0.724,0.207,1.04,283.272,-160.772,-82.512
61736910,1.888,0.219,1.708,173.215,-168.962,-67.637
61736920,0.93,0.411,1.096,104.02,-93.1,39.06
61736930,0.648,0.265,1.207,71.942,-35.472,40.81
61736940,0.151,-0.255,1.035,-17.185,-12.127,13.317
61736950,0.202,-0.297,0.939,-32.9,-10.5,-25.287
61736960,0.274,-0.268,0.959,-6.422,-3.115,-15.75
61736970,0.129,-0.197,1.022,-7.455,10.71,-8.557
61736980,0.117,-0.207,1.013,-25.795,16.677,-19.845
61736990,0.119,-0.244,1.012,-34.02,20.562,-22.557
61737000,0.144,-0.254,1.026,-34.405,25.48,-14.962
61737010,0.14,-0.202,1.084,-39.077,31.22,-8.522
61737020,0.089,-0.142,1.167,-52.482,38.325,-6.02
61737030,0.085,-0.124,1.213,-72.327,53.76,-9.012
61737040,-0.016,-0.212,1.153,-90.772,70.472,-12.005
61737050,0.047,-0.302,1.196,-110.53,99.102,-22.225
61737060,-0.095,-0.289,1.196,-127.662,112.472,-34.457
61737070,-0.015,-0.249,1.136,-122.867,106.435,-48.86
61737080,0.146,-0.164,1.021,-111.755,102.182,-48.09
61737090,0.296,-0.257,1.061,-94.325,117.25,-37.537
61737100,0.347,-0.304,1.01,-95.095,136.22,-32.13
61737110,0.352,-0.421,1.005,-105.385,148.155,-33.32
61737120,0.28,-0.615,0.703,-106.592,158.427,-35.367
61737130,0.114,-0.808,0.808,-84.682,160.86,-43.155
61737140,0.206,-1.019,0.575,-69.405,168.437,-61.057
61737150,0.36,-1.005,0.532,-43.4,161.665,-71.12
61737160,0,-0.996,0.167,-24.15,118.51,-71.067
61737170,-0.716,-0.843,0.101,-5.232,21.315,-102.585
61737180,-0.794,-0.362,-0.524,3.447,-49.385,-163.292
61737190,-0.388,0.325,-0.963,70.315,-44.45,-166.197
61737200,-0.83,1.036,-0.033,143.815,-39.917,-95.48
61737210,-1.277,1.342,1.213,125.387,-70.157,-57.907
61737210,-0.295,-0.884,-0.72,25.252,-178.797,-40.355
61737230,-0.753,-1.998,0.754,-38.692,-126.875,30.187
61737230,-0.237,-1.906,0.266,-7.07,-100.887,25.637
61737250,-1.602,1.336,0.79,484.785,-146.387,-39.2
61737250,-0.711,1.922,1.863,537.285,-266.98,-150.937
61737260,1.998,1.223,1.578,128.135,-259.875,-84.175
61737270,0.886,1.082,0.848,26.862,-133.42,-1.417
61737280,1.687,0.424,1.061,43.05,-54.39,-42.157
61737290,0.422,-0.208,0.956,-85.977,22.505,-15.242
61737300,0.517,-0.402,0.974,-94.535,59.622,-1.347
61737310,-0.243,-0.243,1.082,-54.075,78.085,18.987
61737320,-0.581,-0.582,0.945,-69.3,62.177,-3.762
61737330,0.083,-0.501,0.929,-53.322,34.09,-39.637
61737340,0.133,-0.322,0.932,-34.09,35.402,1.137
61737350,0.123,-0.246,1.102,-24.132,32.322,6.947
61737360,0.128,-0.086,1.142,-54.985,34.562,9.24
61737370,0.053,-0.205,1.234,-73.78,42.367,20.457
61737380,0.188,-0.182,1.21,-88.427,58.485,14.192
61737390,0.325,-0.153,1.139,-101.99,90.492,7.35
61737400,0.049,-0.268,1.261,-122.132,115.92,7.21
61737410,0.038,-0.366,1.101,-142.66,120.295,-1.872
61737420,0.189,-0.404,1.007,-115.832,110.547,-4.462
61737430,0.494,-0.522,1.087,-85.942,99.942,5.127
61737440,0.481,-0.7,0.975,-84.42,94.867,27.317
61737450,0.213,-0.818,0.897,-92.645,72.117,45.937
61737460,-0.007,-0.73,0.36,-78.925,59.57,60.725
61737470,0.011,-1.244,-0.403,-28.245,33.25,66.307
61737480,-0.094,-1.547,-0.063,-29.592,-54.407,67.41
61737490,0.443,-1.234,0.305,-109.777,-114.362,67.585
61737500,0.74,-0.922,-0.468,-100.03,-94.255,73.885
61737510,0.373,-0.378,-0.062,36.312,-88.025,72.485
61737520,0.29,0.556,-0.244,110.6,-81.637,16.205
61737530,-0.9,1.935,1.787,127.067,-81.322,-14.297
61737540,-1.998,1.6,0.685,11.515,-27.492,-63.297
61737550,0,-0.529,-1.434,132.72,-221.095,-152.162
61737560,0.651,-1.998,1.711,103.11,-80.535,21.682
61737570,-1.38,-1.273,-0.216,22.085,-3.902,107.502
61737580,-1.797,1.873,1.546,512.295,-172.375,-134.75
61737580,1.912,1.78,1.607,356.965,-266.262,-184.555
61737600,0.508,1.424,1.042,89.232,-96.18,55.265
61737600,1.473,0.352,1.138,1.89,-66.237,-26.915
61737620,0.514,-0.296,0.928,-84.525,-15.592,-34.317
61737620,0.495,-0.311,0.974,-63.472,29.4,10.675
61737640,-0.258,-0.268,1.033,-54.862,41.79,21.56
61737640,-0.274,-0.526,0.896,-77.91,29.697,22.26
61737660,-0.003,-0.542,1.048,-25.025,5.635,-3.762
61737660,0.316,0.014,1.032,-11.55,1.155,-11.935
61737670,0.188,-0.235,1.069,-52.517,17.045,23.135
61737680,0.167,-0.272,1.222,-59.482,25.375,22.242
61737690,0.313,-0.024,1.279,-69.387,41.632,10.797
61737700,0.154,-0.141,1.118,-96.6,67.042,15.767
61737710,0.27,-0.263,1.184,-120.067,102.83,4.97
61737720,0.033,-0.354,1.24,-147.14,121.625,-7.052
61737730,0.157,-0.251,1.039,-151.497,134.995,-16.397
61737740,0.473,-0.24,1.183,-107.397,150.307,-17.832
61737750,0.537,-0.294,1.126,-91.28,154.105,-8.015
61737760,0.504,-0.483,1.01,-102.532,148.645,4.497
61737770,0.156,-0.695,0.99,-112.875,140.682,12.267
61737780,-0.21,-1.606,-0.318,-112.91,144.27,6.107
61737790,-0.498,-1.998,-0.513,-95.13,84.857,-6.615
61737800,-1.546,-1.998,0.702,-182.717,-62.527,20.002
61737810,-1.928,-1.849,-0.689,-202.632,-78.575,108.5
61737820,-0.843,-0.668,-0.564,-22.715,-64.75,175.035
61737830,1.074,0.334,-1.011,110.18,-26.635,153.755
61737840,1.846,1.42,-1.002,178.22,38.745,168.857
61737850,1.703,1.997,1.13,225.295,50.05,220.762
61737860,-1.462,1.991,1.902,142.695,-165.445,232.715
61737870,-1.717,-0.985,-1.561,28.84,-163.205,30.905
61737880,-1.943,-1.998,1.687,-66.185,-318.902,-166.95
61737890,1.19,-0.991,-0.862,-70.577,-210.612,-106.19
61737900,-1.9,1.989,1.296,547.435,-147.49,30.24
61737910,1.081,1.997,1.938,423.622,-295.627,-126.122
61737920,1.071,1.537,1.138,-7.787,-190.715,-34.772
61737920,1.624,0.617,1.014,-32.655,-95.9,-22.592
61737940,1.121,0.286,1.147,-20.475,-17.587,-17.57
61737940,0.778,0.084,1.075,-88.532,51.52,11.252
61737960,-0.148,-0.425,1.113,-115.727,88.69,30.187
61737960,-0.143,-0.541,1.109,-99.417,84.525,22.645
61737980,-0.256,-0.45,0.835,-98.42,67.112,20.23
61737980,-0.336,-0.57,0.908,-85.19,50.19,28.087
61738000,0.078,-0.397,1.093,-85.015,36.225,17.29
61738000,0.03,-0.201,1.129,-75.757,37.45,22.522
61738010,-0.023,-0.2,1.192,-78.435,37.187,20.002
61738020,-0.029,-0.199,1.24,-107.625,39.882,14.07
61738030,-0.101,-0.253,1.174,-129.605,42.647,14.122
61738040,0.047,-0.242,1.254,-130.602,37.205,11.13
61738050,0.352,-0.228,1.068,-122.307,35.14,14.157
61738060,0.479,-0.2,1.106,-116.375,49.717,26.022
61738070,0.486,-0.304,0.993,-124.005,69.457,30.712
61738080,0.528,-0.399,1.01,-124.145,90.877,27.86
61738090,0.61,-0.49,1.066,-125.562,126.367,34.055
61738100,0.381,-0.624,0.839,-117.372,157.342,46.042
61738110,0.081,-0.656,0.789,-87.167,164.22,42.787
61738120,-0.05,-0.585,0.782,-60.655,147.822,27.825
61738130,-0.056,-0.324,0.646,-57.627,114.572,16.205
61738140,0.34,0.007,0.707,-54.425,94.99,21.56
61738150,0.834,0.089,0.836,-39.602,111.405,52.517
61738160,0.694,0.144,1.042,-33.197,103.722,78.575
61738170,1.026,0.235,0.995,-42,45.972,50.592
61738180,0.869,0.153,1.167,-7.717,8.015,-37.047
61738190,0.229,0.122,0.87,45.57,-19.827,-162.015
61738200,0.204,-0.013,0.695,81.812,-51.117,-249.445
61738210,0.091,-0.266,0.792,71.277,-74.795,-237.475
61738220,-0.219,-0.582,0.796,30.502,-82.11,-169.452
61738230,-0.339,-0.767,0.596,6.02,-93.747,-97.982
61738240,-0.205,-0.649,0.692,35.647,-98.805,-45.762
61738250,-0.034,-0.503,1.1,71.732,-88.427,-46.707
61738260,-0.22,-0.52,1.161,53.287,-81.2,-71.75
61738270,-0.735,-0.716,1.079,29.592,-62.055,-41.825
61738280,-0.95,-0.89,0.877,32.497,-67.322,-17.99
61738290,-0.651,-0.788,0.773,45.937,-75.582,-2.31
61738300,-0.196,-0.703,0.813,47.197,-72.24,10.675
61738310,-0.056,-0.544,0.929,49.927,-59.657,22.295
61738320,-0.089,-0.614,0.826,54.18,-33.022,20.79
61738330,-0.127,-0.584,0.924,57.54,-17.447,18.462
61738330,-0.174,-0.633,0.983,42.385,-7.105,19.32
61738350,-0.398,-0.656,1.068,37.03,-5.127,24.097
61738350,-0.635,-0.63,0.965,37.677,-12.512,26.18
61738370,-0.731,-0.572,0.865,43.627,-28.98,30.205
61738370,-0.647,-0.555,0.785,52.92,-42.455,41.44
61738390,-0.486,-0.531,0.672,61.757,-46.9,53.707
61738390,-0.394,-0.494,0.615,71.382,-44.257,69.177
61738410,-0.356,-0.5,0.576,70.735,-33.792,87.062
61738410,-0.308,-0.557,0.598,61.145,-22.33,101.92
61738420,-0.282,-0.651,0.637,50.907,-14.612,113.75
61738430,-0.275,-0.798,0.615,43.05,-10.675,124.355
61738440,-0.229,-0.925,0.499,38.727,-14.315,130.375
61738450,-0.07,-0.877,0.302,42.752,-24.045,127.067
61738460,0.164,-0.761,0.09,56.42,-22.96,115.15
61738470,0.304,-0.617,-0.057,59.762,-7.28,97.317
61738480,0.435,-0.534,-0.015,54.145,26.74,80.517
61738490,-0.59,-0.536,1.685,8.977,50.995,89.162
61738500,-1.94,-1.24,1.909,-26.355,-18.812,73.412
61738510,-0.225,-1.762,0.75,110.04,32.41,17.657
61738520,0,0.145,1.748,264.687,-31.972,40.775
61738530,-1.95,0.814,1.441,185.045,-136.552,37.765
61738540,-0.176,0.536,1,21.857,-177.905,-60.9
61738550,0.965,0.374,0.889,-7.997,-153.772,-72.467
61738560,0.592,-0.244,1.024,13.842,-104.09,-25.55
61738570,0.684,-0.469,0.981,-6.23,-66.937,-22.627
61738580,0.617,-0.452,0.972,12.302,-30.765,-3.36
61738590,0.448,-0.1,0.984,29.96,1.785,6.65
61738600,0.269,-0.135,0.991,11.41,23.66,2.047
61738610,0.07,-0.34,0.993,-3.902,37.817,1.697
61738620,-0.097,-0.3,0.983,1.417,39.375,6.16
61738630,-0.131,-0.206,0.976,8.365,33.407,4.567
61738640,-0.118,-0.251,0.981,4.637,24.01,-0.315
61738650,-0.113,-0.278,0.978,-0.525,17.605,1.732
61738660,-0.091,-0.221,0.96,-0.805,10.71,3.832
61738670,-0.035,-0.206,0.975,2.187,6.037,2.73
61738670,0.003,-0.213,0.972,-0.717,3.22,2.24
61738690,0.013,-0.223,0.967,-1.662,4.007,4.147
61738690,0.004,-0.204,0.976,0.665,4.165,4.48
61738710,-0.006,-0.22,0.968,-1.75,4.515,5.022
61738710,0.007,-0.219,0.964,-1.12,3.185,4.41
61738730,0.001,-0.203,0.964,0.017,2.415,3.99
61738730,0.008,-0.213,0.971,0.367,0.787,3.062
61738750,0.015,-0.216,0.97,0.122,-0.14,1.68
61738750,-0.007,-0.229,0.969,-0.735,-1.155,0.7
61738760,0.006,-0.218,0.972,0.245,-2.31,0.402
61738770,-0.011,-0.218,0.963,-0.07,-3.255,0.122
61738780,0.01,-0.22,0.971,-0.035,-4.165,0.385
61738790,0.001,-0.205,0.966,0.595,-4.042,0.77
61738800,-0.012,-0.192,0.96,0.805,-4.445,0.49
61738810,0.011,-0.2,0.973,1.015,-4.847,-0.122
61738820,0.013,-0.215,0.973,0.49,-5.197,-1.172
61738830,0.011,-0.219,0.97,-0.035,-4.707,-1.697
61738840,0.01,-0.21,0.966,-0.175,-4.987,-1.907
61738850,0.025,-0.211,0.973,-0.507,-4.795,-2.38
61738860,0.038,-0.205,0.98,-0.717,-3.85,-2.03
61738870,0.032,-0.183,0.987,-1.435,-0.21,-1.417
61738880,0.04,-0.195,1.005,-4.252,2.94,-1.382
61738890,0.093,-0.194,1.021,-9.327,8.505,-0.997
61738900,0.085,-0.198,1.033,-14.577,15.995,0.595
61738910,0.1,-0.221,1.047,-22.19,26.162,2.782
61738920,0.079,-0.223,1.054,-29.33,36.575,5.495
61738930,0.029,-0.197,1.065,-34.492,47.285,7.157
61738940,0.018,-0.176,1.091,-38.937,54.722,7.63
61738950,0.012,-0.174,1.105,-44.24,61.95,7.157
61738960,-0.006,-0.207,1.076,-50.907,64.68,6.282
61738970,-0.009,-0.265,1.067,-55.965,65.502,7.595
61738980,-0.02,-0.305,1.049,-59.92,56.297,7.752
61738990,0.038,-0.333,1.152,-64.925,46.165,6.72
61739000,0.176,-0.292,1.307,-77.192,65.817,8.662
61739010,0.055,-0.429,0.913,-76.93,87.745,20.755
61739020,-0.305,-0.421,0.996,-52.482,77.262,28.035
61739030,-0.339,-0.327,1.036,-49.332,70.245,22.26
61739040,-0.118,-0.323,0.8,-55.37,70.315,20.702
61739050,-0.207,-0.402,0.944,-54.005,49.507,28.297
61739060,-0.507,-0.575,0.95,-67.235,30.922,36.242
61739070,-0.346,-0.63,0.667,-63.805,8.645,43.732
61739080,-0.103,-0.493,0.951,-40.25,-16.152,51.66
61739080,-0.025,-0.391,0.748,-47.057,-22.47,54.232
61739100,-0.046,-0.349,0.82,-44.292,-29.085,48.79
61739100,-0.084,-0.357,0.746,-47.582,-47.967,31.692
61739120,0.073,-0.362,0.737,-41.335,-65.082,5.215
61739120,0.141,-0.292,0.793,-32.83,-88.585,-18.077
61739140,0.153,-0.203,0.756,-27.037,-94.727,-45.307
61739140,0.172,-0.108,0.743,-17.972,-96.372,-74.41
61739160,0.084,-0.011,0.775,-17.5,-97.667,-99.977
61739160,0.001,0.016,0.789,-22.505,-97.51,-118.58
61739170,-0.012,-0.032,0.851,-28.682,-93.065,-123.462
61739180,0.047,-0.186,1.054,-35.735,-82.407,-113.347
61739190,0.148,-0.461,1.212,-34.93,-56.56,-95.375
61739200,0.07,-0.485,1.114,-6.475,-29.382,-71.207
61739210,-0.065,-0.348,0.967,40.74,-7.14,-52.027
61739220,-0.131,-0.192,0.741,50.61,-3.57,-39.935
61739230,-0.077,-0.172,0.839,51.03,-14.245,-32.34
61739240,0.038,-0.266,0.756,44.992,-16.432,-30.8
61739250,0.107,-0.277,0.734,43.54,-20.16,-25.515
61739260,0.123,-0.253,0.734,36.575,-23.012,-15.627
61739270,0.055,-0.186,0.686,27.125,-20.177,-7.98
61739280,0.026,-0.243,0.824,11.007,-29.277,-2.327
61739290,0.082,-0.416,0.89,-10.535,-37.817,2.38
61739300,0.076,-0.676,0.834,-20.562,-48.317,6.58
61739310,0.006,-0.532,0.575,-18.62,-70.367,7.14
61739320,0.148,-0.556,1.003,27.177,-73.657,3.202
61739330,0.158,-0.713,0.796,4.235,-49.28,11.392
61739340,-0.167,-0.788,0.728,-14.682,-49.787,35.245
61739350,-0.308,-0.861,0.824,-7.437,-46.182,52.272
61739360,-0.413,-0.898,1.174,-0.84,-24.377,73.5
61739370,-0.574,-0.772,0.948,4.497,8.627,105.315
61739380,-0.371,-0.649,0.765,47.372,1.47,121.52
61739390,0.433,-0.309,1.063,71.627,-14.542,103.985
61739400,1.045,0.276,1.196,64.837,-19.512,85.61
61739410,0.678,0.247,1.418,71.925,13.79,83.387
61739420,-0.471,0.018,0.953,46.025,13.177,67.97
61739420,-0.977,-0.611,0.772,7.385,-26.022,31.99
61739440,-0.355,-0.863,0.909,-7.665,-42.105,29.68
61739440,0.161,-0.745,0.948,39.62,-33.162,33.407
61739460,0.057,-0.314,0.809,58.45,-22.872,8.312
61739460,-0.301,-0.333,0.766,55.772,-12.057,-10.92
61739480,-0.319,-0.507,0.754,63.297,-21.945,-29.977
61739480,0.136,-0.707,0.881,93.485,-36.382,-47.775
61739500,0.226,-0.366,1.053,120.067,-36.102,-44.467
61739500,0.352,-0.048,1.172,121.957,-28.507,-26.757
61739510,0.062,0.004,1.235,91.21,-14.332,-6.142
61739520,-0.055,0.089,1.167,54.915,-22.837,-7.98
61739530,0.289,0.016,1.04,25.357,-35.507,-19.81
61739540,0.439,-0.126,0.99,1.925,-26.635,-20.685
61739550,0.278,-0.211,0.958,-5.845,-7.175,-14.612
61739560,0.061,-0.304,0.97,-9.432,3.517,-9.362
61739570,0.093,-0.293,0.964,-9.572,4.007,-11.007
61739580,0.077,-0.248,0.987,-7.35,3.097,-10.027
61739590,0.026,-0.231,1.006,-9.292,1.627,-10.29
61739600,0.091,-0.193,1.02,-12.442,-2.695,-14.717
61739610,0.103,-0.144,1.046,-15.872,-2.415,-16.572
61739620,0.109,-0.065,1.045,-26.355,1.96,-18.165
61739630,-0.156,-0.117,1.191,-42.122,7.192,-27.142
61739640,0.157,-0.131,1.18,-59.99,5.897,-39.182
61739650,0.155,-0.134,1.263,-76.86,33.95,-38.097
61739660,-0.145,-0.181,1.292,-108.605,81.112,-41.317
61739670,-0.406,-0.403,1.01,-128.555,107.012,-59.255
61739680,-0.386,-0.533,1.145,-124.932,94.71,-84.42
61739690,-0.159,-0.595,1.153,-142.747,88.112,-101.797
61739700,-0.06,-0.351,0.977,-153.93,76.02,-109.13
61739710,0.05,-0.337,0.874,-132.072,80.29,-117.74
61739720,0.132,-0.491,0.745,-118.65,109.357,-126.98
61739730,0.127,-0.869,0.542,-130.27,147.84,-135.607
61739740,-0.111,-1.255,0.633,-136.22,159.81,-135.012
61739750,0.093,-1.402,0.637,-123.672,139.475,-127.855
61739760,-0.457,-1.179,0.576,-87.657,134.697,-82.127
61739770,-1.022,-0.814,-0.066,-30.292,89.18,-47.04
61739780,-0.479,-0.282,-0.226,19.582,29.907,-47.232
61739790,0.579,0.05,-0.481,37.432,10.36,-15.837
61739800,1.116,0.449,-0.371,77.822,48.37,47.197
61739810,1.073,1.223,1.225,115.185,12.722,78.522
61739820,1.998,1.285,1.35,82.127,-14.052,78.365
61739830,0.466,0.28,1.756,138.005,112.385,129.132
61739830,-1.998,-1.904,-0.872,180.075,-45.045,47.652
61739850,-0.758,-1.939,0.875,97.177,-198.047,-5.442
61739850,0.055,1.743,1.181,420.402,-166.897,7.612
61739870,-0.384,1.373,1.871,432.53,-342.037,-138.25
61739870,1.885,1.543,0.806,10.78,-252.595,-127.68
61739890,0.603,0.358,0.996,37.187,-99.925,-37.852
61739890,0.919,0,1.117,3.202,-6.335,-10.815
61739910,0.56,-0.016,1.017,-49.63,45.027,-1.977
61739910,0.006,-0.281,1.101,-65.607,71.89,5.057
61739920,-0.723,-0.49,1.007,-64.82,64.75,-7.35
61739930,-0.089,-0.593,0.796,-56.122,35.087,-20.65
61739940,0.118,-0.311,0.963,-7.28,21.052,-16.59
61739950,0.063,-0.278,1.052,-23.45,22.592,4.497
61739960,0.063,-0.138,1.123,-41.212,24.902,15.837
61739970,0.088,0.012,1.29,-40.25,29.067,17.15
61739980,0.115,0.063,1.318,-79.432,41.37,18.112
61739990,-0.038,-0.159,1.252,-111.44,45.972,16.31
61740000,0.141,-0.32,1.236,-127.015,59.115,12.617
61740010,-0.021,-0.465,1.038,-128.73,76.405,21.35
61740020,-0.12,-0.488,1.129,-120.75,67.357,24.937
61740030,-0.207,-0.489,0.985,-119.962,23.835,22.067
61740040,-0.113,-0.402,0.913,-113.452,-26.845,20.002
61740050,0.184,-0.303,0.788,-99.032,-57.575,28.682
61740060,0.082,-0.354,0.871,-83.93,-60.567,54.687
61740070,-0.143,-0.385,0.668,-89.39,-73.692,76.247
61740080,-0.239,-0.502,0.363,-84.49,-101.552,93.065
61740090,0.145,-0.558,0.178,-60.392,-129.15,111.387
61740100,0.601,0.012,-0.048,-14.56,-76.37,139.702
61740110,0.894,0.807,0.018,73.535,-57.872,155.4
61740120,1.373,1.211,0.897,128.467,-26.372,139.212
61740130,0.606,-0.006,0.795,72.327,13.387,109.305
61740140,-1.294,-1.972,-1.092,-12.162,-89.32,97.317
61740150,-1.998,-1.998,1.804,-83.545,-51.87,201.057
61740160,-0.371,-1.141,-0.42,121.275,-61.81,137.34
61740170,0.095,1.591,1.615,524.352,-108.237,-33.075
61740170,-1.732,0.515,1.929,355.442,-195.965,-103.74
61740190,1.843,0.033,1.515,74.865,-254.852,-104.335
61740190,1.389,1.509,0.937,198.222,-162.085,-26.845
61740210,1.805,1.141,1.12,96.005,-61.005,-1.645
61740210,0.522,-0.223,0.962,-100.607,5.915,-2.695
61740230,0.46,-0.729,0.926,-90.562,38.692,3.167
61740230,-0.06,-0.003,1.039,-26.25,50.96,14.717
61740250,-0.234,-0.458,1.013,-72.555,44.205,9.292
61740250,-0.089,-0.596,0.856,-71.802,34.562,7.857
61740260,0.252,-0.195,1.066,-10.517,20.352,-9.38
61740270,0.169,-0.02,1.13,-26.18,28.682,12.985
61740280,0.174,-0.114,1.268,-75.757,37.8,21.665
61740290,0.114,-0.098,1.355,-93.835,39.707,23.782
61740300,0.004,-0.12,1.27,-100.572,38.85,15.19
61740310,0.006,-0.294,1.221,-126.962,53.48,1.767
61740320,-0.03,-0.308,1.205,-157.832,65.362,-7.875
61740330,-0.082,-0.399,1.135,-159.215,63.822,-14.98
61740340,-0.144,-0.452,1.198,-146.527,44.992,-18.445
61740350,-0.255,-0.575,0.985,-145.897,26.775,-31.955
61740360,-0.224,-0.712,0.638,-142.712,23.87,-55.772
61740370,-0.327,-0.63,0.869,-134.33,53.55,-71.05
61740380,-0.517,-0.594,0.73,-142.187,63.84,-88.235
61740390,-0.385,-1.149,0.129,-132.335,92.732,-111.387
61740400,-0.417,-1.674,-0.358,-97.475,110.11,-102.707
61740410,-1.61,-1.561,0.207,-64.137,77.157,-65.887
61740420,-1.998,-1.137,-0.129,-49.787,19.11,-45.377
61740430,-1.671,-0.718,-0.856,22.96,-1.067,-54.022
61740440,0.149,0.119,-1.169,116.795,39.007,-24.08
61740450,1.337,0.714,-0.638,197.785,83.09,73.15
61740460,1.432,1.198,0.795,191.082,-12.582,159.985
61740470,1.998,1.048,1.908,92.855,-58.275,193.095
61740480,0.383,-1.263,1.79,-17.692,-55.965,272.475
61740490,-1.599,-1.998,-0.358,160.982,-42.192,68.285
61740500,-0.571,0.23,1.675,440.58,-139.965,0.14
61740510,-1.984,1.472,1.998,463.417,-125.51,106.575
61740520,0.914,1.173,1.943,221.252,-267.207,-78.295
61740530,1.735,1.21,1.064,24.78,-180.95,-99.837
61740540,1.247,0.274,1.21,-20.492,-39.515,-46.06
61740550,0.019,-0.26,0.999,-75.32,36.26,-25.27
61740560,0.037,-0.36,0.959,-72.24,55.65,-17.692
61740570,-0.229,-0.492,0.931,-55.265,50.592,-23.52
61740580,-0.386,-0.675,0.752,-59.587,32.252,-16.555
61740580,-0.005,-0.601,0.867,-30.31,8.295,-9.87
61740590,0.157,-0.235,0.987,-8.505,-4.252,-1.522
61740600,-0.078,-0.215,1.116,-23.835,-5.11,12.845
61740610,0.163,-0.129,1.226,-39.13,-7.892,15.925
61740620,0.245,-0.16,1.274,-52.727,-0.945,20.667
61740630,0.211,-0.035,1.304,-79.975,14.14,27.387
61740640,0.33,-0.106,1.277,-104.37,25.847,23.082
61740650,0.419,-0.133,1.322,-128.73,38.552,27.282
61740660,0.392,-0.177,1.118,-147.56,38.5,44.012
61740670,0.35,-0.319,1.144,-146.527,46.41,49.997
61740680,0.338,-0.371,1.114,-148.802,56.472,47.6
61740690,0.286,-0.425,1.035,-148.207,57.732,43.365
61740700,0.245,-0.566,0.932,-137.112,55.895,40.67
61740710,0.069,-0.714,0.927,-121.082,49.49,40.967
61740720,-0.039,-1.038,0.528,-115.657,43.19,36.295
61740730,0.034,-1.349,0.165,-84.717,61.792,36.382
61740740,0.441,-1.307,-0.466,-31.64,88.095,18.952
61740750,1.012,-0.9,-0.331,27.947,80.64,-24.325
61740760,0.451,-0.301,0.194,34.142,67.042,-63.875
61740770,-0.491,-0.229,-0.369,19.582,74.725,-123.777
61740780,-0.764,-0.291,-1.144,70.752,41.79,-172.077
61740790,-0.562,0.052,-0.903,150.412,-17.902,-168.052
61740800,-0.672,0.672,0.396,171.605,-56.035,-102.007
61740810,-1.879,0.428,1.998,41.825,-122.57,-24.937
61740820,-1.067,-1.853,-0.806,-101.412,-79.24,32.725
61740830,0.392,-1.956,1.879,226.485,-108.85,140.297
61740840,-0.872,0.729,-0.432,330.347,-85.662,95.795
61740850,-1.952,1.438,1.971,528.657,-170.275,-64.715
61740860,1.601,-0.004,1.874,200.76,-303.432,-171.657
61740870,1.746,1.501,0.792,107.957,-200.882,-49.052
61740880,1.776,1.16,1.211,142.17,-82.18,-14.262
61740890,0.588,-0.005,1.016,-70.105,-2.975,-7.21
61740900,0.646,-0.742,0.939,-120.505,37.992,-1.82
61740910,-0.05,-0.285,1.054,-55.125,62.702,20.37
61740920,-0.525,-0.413,0.787,-76.807,61.145,12.915
61740920,0.156,-0.719,1.032,-37.065,34.702,-18.445
61740940,0.285,-0.131,1.039,-25.06,36.4,13.265
61740940,0.075,-0.141,1.084,-49.402,46.602,33.302
61740960,0.081,-0.204,1.284,-67.76,52.01,27.335
61740960,0.147,-0.165,1.259,-87.5,68.81,23.047
61740980,0.185,-0.205,1.312,-103.757,80.64,14.367
61740980,0.427,-0.245,1.219,-118.282,110.95,7.945
61741000,0.318,-0.205,1.305,-129.552,138.022,15.627
61741000,0.315,-0.257,1.124,-132.912,135.415,17.815
61741010,0.559,-0.354,1.089,-120.767,139.37,16.012
61741020,0.679,-0.484,0.838,-112.91,147.595,33.862
61741030,0.454,-0.732,0.509,-96.39,142.467,54.372
61741040,0.293,-1.202,0.446,-84.77,148.435,60.112
61741050,0.237,-1.804,-0.814,-100.992,128.222,62.685
61741060,0.892,-1.998,-0.45,-54.845,87.99,31.535
61741070,1.799,-1.954,0.927,-87.727,-8.435,-8.102
61741080,0.346,-1.224,-0.081,-111.58,-48.982,-34.23
61741090,-1.462,-0.618,0.089,13.877,-111.037,-19.162
61741100,-1.968,-0.28,0,43.837,-241.447,-15.662
61741110,-1.574,0.882,0.708,14.367,-312.235,2.87
61741120,-0.193,1.88,0.844,48.545,-230.212,67.112
61741130,1.099,1.997,1.868,210.647,-81.987,161.665
61741140,-1.819,0.408,0.393,262.657,-124.022,221.182
61741150,-1.998,-1.998,0.612,66.885,-164.465,114.73
61741160,-1.36,-1.883,0.073,-71.347,-42.017,32.112
61741170,-1.845,1.17,1.296,465.482,-195.685,-186.042
61741180,1.244,1.459,1.794,422.415,-324.975,-275.187
61741190,1.419,1.799,1.079,134.312,-167.825,-35.787
61741200,0.752,0.452,1.371,70.402,-76.072,15.785
61741210,0.839,-0.002,0.876,-63.227,-32.025,-20.597
61741220,0.981,-0.116,0.991,-61.425,21.717,13.072
