time[ms],accX[g],accY[g],accZ[g],Value 1,Value 2,Value 3
49962370,-0.163,-0.234,0.978,-21.315,-19.495,3.272
49962380,-0.202,-0.265,0.975,-21.63,-15.645,1.19
49962390,-0.275,-0.255,0.973,-19.67,-13.51,0.56
49962400,-0.382,-0.219,0.942,-19.652,-13.58,-1.557
49962410,-0.432,-0.198,0.969,-19.635,-17.185,-4.83
49962420,-0.433,-0.173,0.944,-22.995,-23.537,-8.977
49962430,-0.406,-0.195,0.997,-24.605,-32.112,-8.855
49962440,-0.367,-0.248,1.007,-24.867,-38.85,-3.482
49962450,-0.347,-0.219,0.99,-24.797,-47.215,-2.765
49962460,-0.319,-0.167,0.966,-26.215,-54.11,-2.712
49962470,-0.348,-0.172,0.961,-29.855,-61.722,-2.31
49962480,-0.348,-0.259,0.965,-32.795,-69.405,-4.515
49962490,-0.247,-0.284,0.863,-30.625,-76.877,-5.775
49962500,-0.216,-0.257,0.808,-21.735,-77.472,-2.397
49962510,-0.065,-0.216,0.842,-14.735,-73.15,3.237
49962520,0.007,-0.205,0.931,-13.615,-62.58,10.5
49962530,-0.02,-0.273,0.916,-15.575,-50.487,14.437
49962540,-0.12,-0.105,0.375,-15.872,-33.127,17.08
49962550,-1.327,0.035,1.427,-26.372,-38.57,29.102
49962560,0.19,-0.72,1.159,-35.315,-84.787,-14.63
49962570,0.279,-0.595,0.991,-20.807,-85.82,-12.53
49962580,-0.222,-0.093,1.106,-12.232,-71.4,-4.077
49962590,-0.156,-0.092,1.009,-25.865,-70.595,-17.902
49962600,-0.129,-0.327,0.928,-37.555,-66.482,-20.23
49962610,-0.121,-0.35,0.958,-32.567,-64.61,-18.252
49962620,0.007,-0.265,0.982,-29.242,-63.752,-17.395
49962630,0.105,-0.22,0.989,-31.955,-58.957,-14.332
49962640,0.149,-0.218,0.938,-39.095,-49.035,-13.177
49962650,0.159,-0.248,0.906,-44.537,-36.382,-12.057
49962660,0.138,-0.299,0.879,-46.672,-23.677,-9.082
49962670,0.093,-0.362,0.884,-45.78,-14.017,-4.095
49962670,0.086,-0.375,0.88,-43.96,-5.915,-2.24
49962690,0.009,-0.396,0.89,-35.402,-0.962,-0.927
49962690,-0.026,-0.382,0.854,-32.34,2.45,-5.302
49962710,-0.069,-0.414,0.806,-27.79,4.532,-7.595
49962710,-0.107,-0.444,0.782,-20.107,5.285,-5.792
49962730,-0.113,-0.446,0.778,-11.2,4.865,-3.307
49962730,-0.077,-0.435,0.781,-3.902,4.865,-1.33
49962750,-0.028,-0.438,0.789,4.112,6.457,0.787
49962750,0.005,-0.445,0.791,13.58,9.17,3.255
49962760,0.046,-0.432,0.812,23.362,11.987,4.497
49962770,0.043,-0.372,0.881,30.572,17.412,5.845
49962780,0.057,-0.316,0.954,29.837,23.485,3.622
49962790,0.006,-0.361,0.938,26.67,31.43,4.147
49962800,-0.059,-0.306,0.983,28.875,36.872,5.67
49962810,-0.048,-0.3,1.009,27.527,38.64,5.845
49962820,0.029,-0.337,0.945,28.63,42.402,5.827
49962830,0.05,-0.38,0.87,36.155,47.18,9.747
49962840,0.105,-0.375,0.787,47.057,52.062,15.365
49962850,0.121,-0.403,0.705,61.267,57.977,23.747
49962860,0.056,-0.419,0.628,80.115,65.66,33.652
49962870,-0.07,-0.39,0.623,97.982,75.53,37.8
49962880,-0.22,-0.373,0.61,112.245,84.157,31.92
49962890,-0.38,-0.317,0.573,133.735,84.385,17.92
49962900,-0.436,-0.222,0.625,160.912,74.882,1.4
49962910,-0.444,-0.169,0.786,178.447,63.157,-8.907
49962920,-0.467,-0.16,0.881,179.952,49.822,-17.027
49962930,-0.51,-0.097,1.035,180.057,31.272,-30.537
49962940,-0.44,-0.054,1.167,172.795,11.76,-38.71
49962950,-0.305,0.054,1.263,155.505,0.35,-36.505
49962960,-0.331,0.094,1.281,132.965,-5.407,-29.12
49962970,-0.289,0.129,1.309,111.002,-5.6,-27.387
49962980,-0.267,0.125,1.253,89.127,-4.9,-26.022
49962990,-0.213,0.151,1.234,70.91,-1.295,-23.327
49963000,-0.215,0.157,1.163,54.092,5.232,-20.562
49963010,-0.236,0.142,1.123,40.215,9.817,-19.267
49963010,-0.22,0.118,1.062,28.472,11.637,-20.772
49963030,-0.166,0.068,0.998,21.717,16.887,-20.212
49963030,-0.22,0.068,0.983,20.282,22.12,-20.965
49963050,-0.262,0.076,0.963,17.29,21.682,-25.025
49963050,-0.304,0.069,0.968,13.842,19.11,-29.505
49963070,-0.328,0.018,0.957,11.252,10.167,-34.615
49963070,-0.349,-0.026,0.951,12.6,0.63,-40.022
49963080,-0.387,-0.032,0.937,14.98,-12.18,-45.115
49963090,-0.304,-0.01,0.943,20.842,-23.467,-48.825
49963100,-0.26,0.007,0.97,26.425,-29.837,-47.88
49963110,-0.222,0.012,0.929,28.945,-35.297,-43.68
49963120,-0.165,0,0.933,34.282,-31.097,-37.677
49963130,-0.16,0.037,0.971,37.607,-23.87,-32.812
49963140,-0.186,0.07,0.961,33.687,-16.59,-27.457
49963150,-0.169,0.11,0.948,27.125,-10.307,-24.85
49963160,-0.162,0.1,0.958,20.615,-3.832,-18.252
49963170,-0.21,0.071,0.935,16.45,-0.42,-9.73
49963180,-0.215,0.062,0.929,14.647,2.047,-4.305
49963190,-0.183,0.068,0.914,16.222,3.92,1.102
49963200,-0.218,0.054,0.917,19.425,5.932,7.42
49963210,-0.203,0.086,0.89,22.207,8.19,7.385
49963220,-0.176,0.103,0.891,23.467,13.685,7.962
49963230,-0.191,0.11,0.868,23.415,18.025,9.572
49963240,-0.182,0.109,0.849,24.727,22.715,7.56
49963250,-0.162,0.087,0.83,28.507,29.12,5.687
49963260,-0.204,0.083,0.832,33.39,32.585,5.565
49963270,-0.194,0.101,0.84,42.035,36.015,5.46
49963280,-0.165,0.123,0.861,48.265,42.49,7.227
49963290,-0.211,0.129,0.929,48.702,51.135,7.402
49963300,-0.319,0.154,0.993,45.272,53.392,2.852
49963310,-0.366,0.185,1.036,38.99,48.107,-3.447
49963320,-0.358,0.215,1.096,29.085,43.155,-6.44
49963330,-0.374,0.22,1.133,17.815,34.842,-7.017
49963340,-0.354,0.204,1.084,9.065,30.257,-5.442
49963350,-0.293,0.175,1.036,4.655,30.94,-0.875
49963360,-0.288,0.156,0.978,5.075,32.987,6.317
49963370,-0.331,0.179,0.931,8.137,34.405,14.56
49963380,-0.322,0.237,0.914,8.365,34.125,19.775
49963390,-0.304,0.271,0.912,6.702,36.207,23.922
49963400,-0.287,0.289,0.903,-0.805,42.7,28.28
49963410,-0.272,0.27,0.924,-13.387,47.845,31.867
49963420,-0.295,0.212,0.92,-23.835,57.697,38.832
49963420,-0.459,0.122,0.906,-28.945,66.307,44.765
49963440,-0.583,0.077,0.9,-26.407,67.375,35.997
49963440,-0.578,0.067,0.865,-18.882,58.572,22.242
49963460,-0.555,0.054,0.861,-8.102,43.89,14.315
49963460,-0.527,0.079,0.861,3.29,27.055,8.61
49963480,-0.51,0.14,0.875,10.377,8.487,4.305
49963480,-0.509,0.171,0.891,7.577,-16.257,1.977
49963500,-0.416,0.167,0.912,0.035,-31.867,0.63
49963500,-0.353,0.164,0.892,-2.852,-34.055,1.592
49963510,-0.356,0.152,0.894,-7.77,-34.23,3.605
49963520,-0.361,0.137,0.893,-12.477,-31.815,3.622
49963530,-0.352,0.134,0.903,-12.145,-30.1,4.252
49963540,-0.351,0.141,0.921,-12.46,-29.505,8.925
49963550,-0.35,0.143,0.934,-13.335,-28.91,14.927
49963560,-0.33,0.152,0.937,-15.295,-26.687,18.305
49963570,-0.327,0.163,0.918,-17.377,-25.007,18.812
49963580,-0.346,0.16,0.924,-19.652,-23.8,17.5
49963590,-0.352,0.147,0.912,-21.577,-23.467,14.84
49963600,-0.34,0.155,0.914,-21.052,-22.487,11.865
49963610,-0.346,0.161,0.926,-21.175,-22.05,11.007
49963620,-0.309,0.136,0.963,-22.207,-20.842,11.795
49963630,-0.218,0.094,0.968,-21.752,-8.05,16.73
49963640,-0.271,0.078,0.984,-15.785,2.887,22.872
49963650,-0.293,0.089,0.936,-12.442,8.085,28.472
49963660,-0.311,0.12,0.917,-10.15,11.9,37.52
49963670,-0.391,0.103,0.928,-12.005,12.897,49.595
49963680,-0.43,0.096,0.877,-17.342,11.305,58.222
49963690,-0.477,0.1,0.881,-18.97,6.93,64.557
49963700,-0.556,0.061,0.855,-22.172,-1.102,67.392
49963710,-0.624,0.02,0.829,-18.917,-10.377,58.327
49963720,-0.714,-0.008,0.87,-7.91,-32.917,43.365
49963730,-0.761,-0.017,0.853,8.085,-65.17,26.512
49963740,-0.656,0.031,0.882,31.902,-96.46,8.085
49963750,-0.446,0.128,0.914,49.402,-124.285,-5.635
49963760,-0.182,0.214,0.915,59.255,-136.64,-11.637
49963760,0.032,0.252,0.938,61.915,-127.855,-9.607
49963780,0.155,0.295,0.967,53.567,-105.437,-3.797
49963780,0.216,0.335,0.998,42.192,-74.235,1.33
49963800,0.212,0.366,1.009,27.195,-42.017,6.65
49963800,0.162,0.361,1.033,7.525,-15.137,11.48
49963820,0.134,0.332,1.018,-13.037,6.65,12.652
49963820,0.092,0.287,0.989,-27.125,25.585,11.375
49963830,0.025,0.226,0.967,-36.925,42.857,8.785
49963840,-0.086,0.185,0.984,-40.145,53.445,4.742
49963850,-0.186,0.133,0.969,-46.585,58.397,4.165
49963860,-0.28,0.075,0.968,-46.777,62.09,3.745
49963870,-0.386,0.022,0.969,-43.05,59.36,2.31
49963880,-0.471,0.005,0.924,-38.535,48.685,-1.505
49963890,-0.493,-0.061,0.884,-26.88,31.885,-4.882
49963900,-0.479,-0.093,0.832,-5.075,16.257,-9.782
49963910,-0.456,-0.076,0.863,21.98,2.782,-15.995
49963920,-0.425,0.023,0.887,37.537,-7.017,-24.395
49963930,-0.353,0.123,0.908,43.75,-13.65,-37.222
49963940,-0.276,0.155,0.895,43.19,-18.322,-41.965
49963950,-0.172,0.192,0.936,37.8,-14.892,-38.815
49963960,-0.182,0.233,0.978,29.732,-8.82,-32.287
49963970,-0.201,0.258,0.968,16.52,-3.255,-22.942
49963980,-0.216,0.221,0.971,6.492,5.145,-11.515
49963990,-0.247,0.212,0.938,1.207,11.847,-3.64
49964000,-0.244,0.207,0.929,0.35,18.165,2.52
49964010,-0.283,0.223,0.94,1.487,22.12,7.717
49964020,-0.33,0.236,0.949,-1.26,23.537,9.31
49964030,-0.341,0.233,0.953,-5.32,23.52,6.44
49964040,-0.361,0.208,0.927,-8.12,21.735,2.8
49964050,-0.389,0.186,0.921,-9.975,16.87,0.857
49964060,-0.401,0.169,0.924,-9.677,11.2,1.417
49964070,-0.396,0.154,0.928,-7.595,4.305,3.097
49964080,-0.386,0.15,0.919,-6.195,-2.327,4.2
49964090,-0.355,0.157,0.918,-5.215,-7.822,3.517
49964100,-0.316,0.162,0.926,-5.092,-10.727,2.8
49964110,-0.293,0.152,0.928,-6.3,-11.83,2.712
49964120,-0.265,0.144,0.935,-7.787,-11.13,3.43
49964130,-0.264,0.118,0.926,-7.91,-9.817,6.545
49964140,-0.26,0.094,0.924,-5.652,-7.385,7.875
49964150,-0.241,0.1,0.918,-4.007,-3.692,5.285
49964160,-0.239,0.112,0.917,-2.45,1.067,3.465
49964170,-0.265,0.115,0.916,-0.507,4.847,4.585
49964170,-0.282,0.117,0.923,0.927,7.297,6.37
49964190,-0.297,0.124,0.931,1.172,8.155,7.682
49964190,-0.303,0.133,0.934,0.647,8.312,9.275
49964210,-0.319,0.14,0.932,1.312,7.962,11.637
49964210,-0.319,0.147,0.924,3.255,7.787,12.46
49964230,-0.31,0.169,0.921,3.535,8.662,12.512
49964230,-0.319,0.18,0.928,4.375,9.432,12.215
49964250,-0.345,0.196,0.929,5.705,8.96,10.342
49964250,-0.375,0.194,0.936,5.775,7.262,7
49964260,-0.361,0.221,0.915,2.467,5.407,-0.07
49964270,-0.341,0.238,0.933,2.38,3.78,-8.855
49964280,-0.372,0.235,0.937,2.502,1.452,-9.117
49964290,-0.382,0.223,0.937,-0.56,-1.312,-6.842
49964300,-0.362,0.216,0.938,-4.147,-4.13,-7.857
49964310,-0.348,0.185,0.927,-8.995,-6.982,-9.485
49964320,-0.344,0.138,0.908,-12.442,-9.082,-11.112
49964330,-0.324,0.114,0.901,-10.675,-10.64,-13.877
49964340,-0.304,0.105,0.912,-5.582,-10.762,-14.875
49964350,-0.29,0.102,0.919,-0.525,-10.115,-13.947
49964360,-0.282,0.109,0.926,2.887,-8.242,-12.145
49964370,-0.283,0.117,0.931,4.2,-6.37,-9.415
49964380,-0.295,0.114,0.935,5.075,-3.342,-7.787
49964390,-0.304,0.114,0.933,6.895,0.28,-10.167
49964400,-0.318,0.111,0.937,7.805,3.535,-15.242
49964410,-0.326,0.108,0.934,12.617,5.337,-22.33
49964420,-0.316,0.108,0.92,20.772,4.847,-27.247
49964430,-0.304,0.117,0.923,28.84,0.997,-30.31
49964440,-0.259,0.162,0.938,33.827,1.557,-36.855
49964450,-0.26,0.201,0.935,36.627,4.882,-41.142
49964460,-0.269,0.214,0.934,34.055,8.05,-41.877
49964470,-0.283,0.236,0.932,28.875,13.317,-42.455
49964480,-0.309,0.253,0.933,21.595,18.865,-42.822
49964490,-0.349,0.246,0.916,12.81,21.892,-39.112
49964500,-0.389,0.222,0.902,7.157,22.575,-32.497
49964510,-0.426,0.191,0.898,4.217,20.107,-25.515
49964510,-0.452,0.175,0.896,1.487,15.487,-18.935
49964530,-0.458,0.166,0.888,-0.857,8.435,-16.712
49964530,-0.444,0.145,0.879,-0.682,1.015,-15.19
49964550,-0.406,0.141,0.882,2.152,-4.672,-14.367
49964550,-0.39,0.151,0.895,4.655,-8.785,-12.425
49964570,-0.365,0.174,0.909,4.497,-11.182,-12.11
49964570,-0.344,0.187,0.914,3.622,-11.725,-12.18
49964580,-0.321,0.189,0.917,2.31,-10.22,-11.462
49964590,-0.315,0.191,0.918,0.315,-7.787,-10.587
49964600,-0.329,0.187,0.919,-2.135,-4.9,-8.82
49964610,-0.337,0.178,0.918,-4.515,-2.905,-6.58
49964620,-0.339,0.167,0.909,-6.44,-1.417,-3.972
49964630,-0.354,0.16,0.908,-7.612,-1.557,-1.382
49964640,-0.36,0.154,0.909,-8.662,-1.715,0.245
49964650,-0.364,0.144,0.912,-8.837,-2.362,1.382
49964660,-0.374,0.135,0.914,-8.715,-3.15,2.537
49964670,-0.371,0.131,0.914,-7.945,-4.9,3.465
49964680,-0.368,0.127,0.91,-6.002,-6.142,5.46
49964690,-0.36,0.135,0.91,-3.92,-7.472,7.035
49964700,-0.352,0.15,0.912,-2.607,-7.437,7.875
49964710,-0.353,0.16,0.913,-2.432,-7.35,8.347
49964720,-0.359,0.159,0.912,-3.027,-6.93,8.26
49964730,-0.366,0.158,0.916,-3.692,-7.21,7.455
49964740,-0.364,0.149,0.914,-3.972,-7.367,6.51
49964750,-0.353,0.144,0.912,-3.15,-7.595,5.127
49964760,-0.344,0.148,0.91,-1.47,-7.017,3.675
49964770,-0.331,0.156,0.91,0.21,-6.265,2.1
49964780,-0.321,0.164,0.915,1.172,-4.165,0.735
49964790,-0.327,0.171,0.92,0.717,-1.995,-0.21
49964800,-0.334,0.165,0.921,-0.367,0.402,-0.962
49964810,-0.33,0.153,0.915,-1.015,1.96,-1.487
49964820,-0.331,0.141,0.911,-0.542,3.605,-1.47
49964830,-0.341,0.142,0.915,0.385,5.11,-1.837
49964840,-0.349,0.149,0.914,0.28,7.052,-2.905
49964850,-0.349,0.147,0.914,0.682,8.015,-3.885
49964860,-0.356,0.139,0.9,1.347,8.592,-3.71
49964870,-0.358,0.142,0.912,2.817,8.715,-3.08
49964880,-0.379,0.153,0.949,2.852,8.382,-1.627
49964890,-0.389,0.143,0.862,1.47,6.457,-0.962
49964900,-0.314,0.145,0.891,4.9,6.965,-1.312
49964910,-0.383,0.168,0.913,5.267,7.647,1.102
49964920,-0.419,0.186,0.941,3.517,6.16,-0.105
49964920,-0.412,0.171,0.915,1.662,3.937,-1.277
49964940,-0.371,0.16,0.874,2.31,2.345,-0.595
49964940,-0.378,0.17,0.9,3.605,1.557,0.927
49964950,-0.425,0.186,0.937,2.205,-0.105,-1.12
49964960,-0.406,0.181,0.91,0.472,-1.942,-7.56
49964970,-0.342,0.169,0.869,2.52,-2.047,-10.045
49964980,-0.354,0.189,0.906,3.64,-1.102,-6.982
49964990,-0.419,0.209,0.929,0.647,-1.802,-5.285
49965000,-0.389,0.188,0.907,-3.902,-3.36,-7.297
49965010,-0.348,0.162,0.877,-6.02,-4.13,-6.685
49965020,-0.379,0.15,0.9,-5.6,-3.99,-2.117
49965030,-0.404,0.154,0.917,-6.825,-5.32,-1.4
49965040,-0.358,0.137,0.907,-5.915,-4.83,-3.692
49965050,-0.338,0.12,0.887,-3.167,-2.922,-3.22
49965060,-0.346,0.134,0.911,-1.242,-1.47,-2.345
49965070,-0.348,0.152,0.91,-0.175,0.052,-2.73
49965080,-0.337,0.152,0.906,0.665,3.36,-2.24
49965090,-0.345,0.151,0.916,0.42,6.177,-1.925
49965100,-0.35,0.154,0.927,0.14,9.625,-2.957
49965110,-0.359,0.142,0.916,0.542,12.11,-3.237
49965120,-0.366,0.119,0.892,2.45,14.822,-3.342
49965130,-0.365,0.114,0.884,6.685,17.202,-5.057
49965140,-0.363,0.11,0.9,10.517,20.072,-6.825
49965150,-0.391,0.088,0.901,13.982,20.475,-7.175
49965160,-0.376,0.034,0.942,18.97,20.142,-3.955
49965170,-0.27,-0.041,0.972,30.432,27.545,2.712
49965180,-0.22,-0.138,1.043,56.315,46.707,13.37
49965190,-0.235,-0.23,0.967,100.17,76.247,31.902
49965200,-0.313,-0.217,0.931,164.202,112.822,47.915
49965210,-0.366,-0.027,0.897,225.627,151.392,57.382
49965220,-0.467,0.206,0.832,271.495,173.897,62.492
49965230,-0.569,0.433,0.781,292.635,174.142,61.74
49965240,-0.583,0.608,0.714,288.662,156.887,52.622
49965250,-0.568,0.759,0.664,270.252,131.95,36.347
49965260,-0.576,0.84,0.641,239.557,106.295,16.415
49965260,-0.571,0.937,0.637,197.487,85.592,-7.717
49965280,-0.573,0.992,0.623,146.195,74.025,-31.815
49965280,-0.518,1.008,0.607,88.812,77.717,-56.507
49965300,-0.478,0.93,0.558,27.947,96.232,-77.665
49965300,-0.51,0.768,0.476,-28.997,125.23,-93.187
49965320,-0.571,0.607,0.417,-75.932,157.115,-104.3
49965320,-0.664,0.428,0.352,-110.04,184.957,-109.06
49965330,-0.679,0.263,0.226,-127.032,207.165,-107.415
49965340,-0.822,0.204,0.236,-125.492,227.815,-98.21
49965350,-1.074,0.252,0.263,-122.535,231.07,-83.93
49965360,-1.304,0.268,0.285,-121.642,207.025,-67.725
49965370,-1.406,0.213,0.273,-118.58,161.157,-52.797
49965380,-1.309,0.149,0.226,-108.062,108.937,-36.382
49965390,-1.075,0.147,0.239,-85.995,67.375,-12.232
49965400,-0.946,0.232,0.312,-64.085,42.91,15.662
49965410,-0.964,0.318,0.417,-51.45,26.967,40.372
49965420,-1.022,0.39,0.511,-43.767,13.825,51.45
49965430,-1.021,0.454,0.601,-43.715,1.365,48.282
49965440,-0.939,0.485,0.645,-53.882,-4.97,34.58
49965450,-0.843,0.47,0.633,-69.422,-2.467,16.415
49965460,-0.532,0.299,0.826,-86.66,16.992,4.305
49965470,-0.421,0.003,0.859,-85.435,77.63,13.475
49965480,-0.851,-0.024,1.065,-48.842,104.142,11.847
49965490,-1.19,0.191,1.078,-25.322,90.107,3.132
49965500,-1.083,0.232,0.94,-2.117,54.162,11.882
49965510,-0.866,0.25,0.766,18.952,21.542,24.99
49965520,-0.656,0.305,0.61,29.487,11.48,27.895
49965530,-0.647,0.342,0.489,28.175,21.77,27.475
49965540,-0.567,0.383,0.396,21.105,38.08,18.882
49965550,-0.301,0.454,0.329,13.527,74.095,8.942
49965560,-0.385,0.472,0.22,-15.312,122.605,9.642
49965570,-0.785,0.442,0.18,-58.747,165.287,6.72
49965580,-0.978,0.297,0.079,-90.895,180.442,-1.26
49965590,-1.049,0.131,0.035,-97.195,166.792,-6.142
49965600,-1.144,0.023,-0.019,-90.597,136.657,-4.742
49965610,-1.14,-0.004,-0.022,-65.135,95.97,0.98
49965620,-1.049,0.028,-0.002,-32.305,56.297,11.2
49965620,-0.88,0.096,0.015,-4.515,30.66,18.112
49965640,-0.766,0.173,0.051,15.995,22.802,23.187
49965640,-0.737,0.238,0.076,27.86,25.585,25.952
49965660,-0.736,0.316,0.096,30.1,30.765,26.005
49965660,-0.762,0.305,0.101,23.257,35.262,24.062
49965670,-0.799,0.272,0.127,16.222,35.997,17.692
49965680,-0.829,0.268,0.155,12.53,31.5,7.455
49965690,-0.821,0.257,0.184,15.89,24.202,-3.937
49965700,-0.804,0.25,0.227,27.072,17.08,-9.555
49965710,-0.859,0.28,0.277,41.632,8.837,-6.247
49965720,-0.913,0.318,0.322,50.907,-1.89,-0.455
49965730,-0.863,0.355,0.339,53.375,-11.497,2.782
49965740,-0.788,0.393,0.339,51.415,-12.827,5.372
49965750,-0.735,0.394,0.337,46.217,-4.55,7.49
49965760,-0.709,0.363,0.324,36.995,12.775,6.86
49965770,-0.776,0.364,0.326,24.92,28.647,1.085
49965780,-0.837,0.357,0.297,15.102,38.745,-6.475
49965790,-0.905,0.347,0.3,8.872,43.26,-12.722
49965800,-0.961,0.348,0.297,0.875,40.25,-18.935
49965810,-0.946,0.335,0.292,-5.127,33.355,-24.272
49965820,-0.911,0.28,0.239,-8.89,26.495,-25.095
49965830,-0.989,0.223,0.241,-7.122,18.532,-22.977
49965840,-1.049,0.191,0.215,-3.832,5.67,-19.81
49965850,-1.155,0.138,0.237,1.557,-15.977,-13.23
49965860,-1.287,0.123,0.24,9.012,-49,-3.867
49965870,-1.319,0.145,0.267,17.587,-90.51,7.245
49965880,-1.299,0.19,0.299,21.507,-129.36,19.53
49965890,-1.284,0.217,0.276,19.652,-165.025,28.122
49965900,-1.064,0.256,0.218,16.625,-184.52,30.485
49965910,-0.766,0.308,0.164,9.782,-178.885,29.732
49965920,-0.524,0.338,0.171,-1.942,-148.05,25.707
49965930,-0.455,0.392,0.223,-12.88,-101.745,20.72
49965940,-0.625,0.49,0.317,-24.64,-58.922,17.78
49965950,-0.874,0.563,0.396,-43.225,-39.165,13.212
49965960,-0.977,0.521,0.414,-62.475,-45.342,6.667
49965970,-0.933,0.415,0.402,-70.752,-63.122,1.26
49965980,-0.881,0.356,0.409,-67.182,-81.742,-4.305
49965990,-0.887,0.363,0.453,-58.31,-97.545,-13.545
49966000,-0.93,0.384,0.535,-51.607,-114.695,-25.795
49966010,-1.003,0.383,0.617,-50.487,-139.265,-38.29
49966010,-0.957,0.338,0.64,-49.455,-168.402,-49.962
49966030,-0.826,0.309,0.652,-44.87,-193.007,-59.552
49966030,-0.688,0.309,0.658,-39.48,-206.412,-64.627
49966050,-0.525,0.299,0.648,-34.09,-202.79,-67.55
49966050,-0.409,0.282,0.677,-26.18,-182.665,-66.972
49966070,-0.388,0.248,0.708,-15.785,-152.565,-62.86
49966070,-0.43,0.217,0.717,-3.447,-120.067,-56.017
49966080,-0.511,0.219,0.726,5.18,-94.587,-49.682
49966090,-0.655,0.216,0.725,6.877,-82.372,-48.65
49966100,-0.764,0.202,0.692,7.052,-83.282,-51.905
49966110,-0.775,0.128,0.657,8.015,-96.792,-54.407
49966120,-0.722,0.113,0.604,12.425,-111.807,-56.14
49966130,-0.718,0.148,0.605,27.142,-121.835,-55.93
49966140,-0.696,0.213,0.617,37.73,-131.652,-56.857
49966150,-0.642,0.246,0.613,39.305,-139.842,-57.89
49966160,-0.57,0.273,0.631,34.545,-141.96,-57.54
49966170,-0.501,0.309,0.646,21.857,-137.567,-57.837
49966180,-0.455,0.316,0.646,3.045,-124.477,-55.545
49966190,-0.437,0.263,0.62,-18.025,-103.67,-52.22
49966200,-0.393,0.222,0.594,-36.26,-75.302,-48.317
49966210,-0.428,0.171,0.584,-47.775,-45.36,-39.392
49966220,-0.525,0.132,0.589,-55.667,-18.83,-30.87
49966230,-0.644,0.138,0.612,-62.947,-2.677,-25.777
49966240,-0.782,0.113,0.63,-69.422,0.052,-19.092
49966250,-0.831,0.091,0.633,-74.987,-7.857,-13.317
49966260,-0.784,0.08,0.633,-79.59,-17.972,-7.682
49966270,-0.746,0.041,0.659,-79.607,-25.777,0.997
49966280,-0.711,0.055,0.716,-77.997,-30.1,9.327
49966290,-0.692,0.033,0.77,-73.622,-32.935,16.8
49966300,-0.686,0.006,0.816,-67.357,-32.27,25.672
49966310,-0.614,0,0.834,-64.575,-28.455,24.902
49966320,-0.555,-0.002,0.862,-58.852,-18.48,20.965
49966330,-0.582,-0.015,0.898,-51.397,-7.822,19.81
49966330,-0.627,-0.03,0.919,-42.962,0.63,19.092
49966350,-0.643,-0.033,0.933,-33.022,6.16,19.635
49966350,-0.758,-0.06,0.99,-20.825,4.34,25.2
49966370,-0.8,-0.07,0.95,-4.55,-8.47,27.72
49966370,-0.711,-0.042,0.948,13.09,-17.692,29.942
49966390,-0.688,0.043,0.966,24.692,-26.215,32.585
49966390,-0.654,0.134,0.963,22.942,-31.202,31.92
49966410,-0.613,0.141,0.911,12.092,-32.042,30.852
49966410,-0.589,0.11,0.867,3.36,-29.837,27.51
49966420,-0.593,0.094,0.85,-1.12,-25.917,21.21
49966430,-0.589,0.098,0.844,-3.867,-23.467,13.475
49966440,-0.577,0.097,0.854,-7.822,-22.12,6.212
49966450,-0.563,0.08,0.853,-12.547,-22.75,-0.665
49966460,-0.546,0.08,0.853,-15.61,-23.187,-6.282
49966470,-0.548,0.067,0.865,-18.112,-25.497,-7.665
49966480,-0.581,0.016,0.865,-17.727,-29.295,-6.65
49966490,-0.544,-0.039,0.848,-15.26,-32.41,-6.597
49966500,-0.513,-0.044,0.834,-9.24,-30.642,-4.637
49966510,-0.549,0.003,0.852,1.137,-26.11,-2.747
49966520,-0.579,0.021,0.851,5.197,-25.217,-3.885
49966530,-0.526,-0.003,0.835,5.687,-25.777,-6.247
49966540,-0.493,0.001,0.832,8.067,-23.8,-5.075
49966550,-0.467,0.019,0.836,12.04,-17.92,-2.03
49966560,-0.488,0.025,0.858,14.052,-12.53,2.607
49966570,-0.538,0.04,0.864,14.875,-14.402,6.737
49966580,-0.478,0.046,0.864,15.592,-14.402,8.715
49966590,-0.456,0.047,0.89,15.645,-12.95,9.187
49966600,-0.478,0.051,0.888,14.735,-11.602,7.017
49966610,-0.499,0.044,0.895,13.44,-11.69,3.482
49966620,-0.454,0.042,0.871,15.137,-12.32,0.822
49966630,-0.45,0.076,0.87,20.842,-11.637,1.61
49966640,-0.443,0.112,0.871,22.89,-8.96,2.135
49966650,-0.472,0.123,0.854,18.865,-7.735,1.435
49966660,-0.483,0.131,0.846,14.175,-7.35,0.315
49966670,-0.469,0.114,0.848,9.38,-6.475,1.697
49966680,-0.491,0.104,0.838,8.312,-5.81,3.517
49966690,-0.517,0.109,0.846,9.887,-5.81,3.85
49966700,-0.515,0.104,0.835,11.987,-6.177,3.115
49966710,-0.548,0.11,0.866,12.81,-7.07,1.925
49966720,-0.534,0.111,0.857,12.652,-9.957,-0.35
49966730,-0.495,0.112,0.865,12.81,-10.237,-0.962
49966740,-0.493,0.118,0.867,11.795,-8.907,-0.262
49966750,-0.508,0.123,0.881,10.01,-7.297,-1.347
49966760,-0.485,0.109,0.866,7.647,-6.177,-2.502
49966760,-0.488,0.1,0.863,7.7,-3.85,-2.432
49966780,-0.489,0.104,0.864,7.035,-1.89,-2.765
49966780,-0.514,0.096,0.869,4.532,-1.96,-3.027
49966800,-0.51,0.071,0.885,3.797,-4.077,-3.36
49966800,-0.47,0.063,0.861,5.792,-4.9,-3.587
49966820,-0.438,0.114,0.864,9.012,-4.2,-4.532
49966820,-0.464,0.125,0.917,6.107,-1.417,-2.467
49966830,-0.511,0.083,0.927,3.972,-8.925,0.192
49966840,-0.371,0.089,0.902,8.592,-11.655,3.692
49966850,-0.371,0.144,0.927,8.207,-9.292,12.687
49966860,-0.37,0.163,0.942,1.662,-2.345,18.742
49966870,-0.379,0.129,0.934,-6.44,4.13,22.207
49966880,-0.381,0.086,0.871,-13.3,14.49,24.482
49966890,-0.393,0.099,0.887,-17.115,26.372,21.42
49966900,-0.488,0.078,0.855,-18.725,32.725,16.922
49966910,-0.48,0.052,0.819,-6.265,30.537,8.067
49966920,-0.531,0.071,0.815,2.59,21.227,5.337
49966930,-0.578,0.143,0.819,6.037,7.612,4.795
49966940,-0.478,0.171,0.812,2.257,2.31,4.497
49966950,-0.506,0.126,0.806,-4.025,1.015,7.507
49966960,-0.546,0.11,0.794,-6.037,1.592,8.54
49966970,-0.531,0.133,0.82,-3.657,-0.805,8.837
49966980,-0.513,0.143,0.835,-3.15,-2.817,9.607
49966990,-0.496,0.145,0.844,-3.325,-2.222,8.942
49967000,-0.515,0.137,0.862,-3.92,-0.77,8.82
49967010,-0.506,0.135,0.861,-4.252,0.122,7.91
49967020,-0.478,0.147,0.867,-5.075,2.1,6.685
49967030,-0.458,0.158,0.868,-7.787,5.582,5.11
49967040,-0.473,0.16,0.884,-11.375,10.465,3.57
49967050,-0.486,0.149,0.874,-15.067,12.775,1.54
49967060,-0.48,0.131,0.862,-17.185,15.4,0.07
49967070,-0.536,0.116,0.851,-17.692,15.942,-1.767
49967080,-0.561,0.119,0.835,-17.692,14.332,-5.372
49967080,-0.542,0.109,0.835,-17.5,11.27,-7.577
49967100,-0.556,0.102,0.84,-16.87,8.802,-7.192
49967100,-0.58,0.097,0.853,-16.835,5.39,-7.21
49967120,-0.57,0.078,0.851,-17.727,1.697,-8.47
49967120,-0.556,0.069,0.839,-16.765,-0.157,-11.55
49967140,-0.536,0.09,0.818,-14.875,-1.54,-14.472
49967140,-0.536,0.11,0.829,-15.155,-0.49,-13.125
49967160,-0.558,0.109,0.848,-17.325,-0.875,-9.415
49967160,-0.548,0.104,0.857,-20.247,-3.78,-6.335
49967170,-0.502,0.081,0.851,-20.842,-5.32,-2.257
49967180,-0.475,0.088,0.859,-19.477,-3.815,1.54
49967190,-0.466,0.105,0.871,-19.74,-0.735,3.307
49967200,-0.449,0.107,0.882,-21.77,4.007,3.937
49967210,-0.451,0.09,0.893,-25.025,8.592,4.55
49967220,-0.455,0.071,0.891,-28.122,13.93,4.13
49967230,-0.459,0.066,0.869,-29.837,19.005,1.715
49967240,-0.488,0.065,0.849,-30.852,22.33,-1.085
49967250,-0.498,0.046,0.825,-30.94,22.68,-3.395
49967260,-0.51,0.022,0.82,-28.455,23.59,-4.34
49967270,-0.54,0,0.818,-25.672,24.132,-5.565
49967280,-0.555,-0.006,0.81,-23.275,27.527,-7.297
49967290,-0.644,-0.015,0.794,-22.925,27.3,-3.832
49967300,-0.696,-0.089,0.77,-15.015,21.017,2.047
49967310,-0.661,-0.029,0.789,-9.152,12.722,-4.095
49967320,-0.635,-0.034,0.793,-9.345,7.245,-4.007
49967330,-0.633,-0.063,0.792,-7.35,3.955,-3.535
49967340,-0.622,-0.05,0.789,-3.727,0.245,-3.552
49967350,-0.577,-0.017,0.797,0.857,-3.832,-4.497
49967360,-0.531,0.009,0.806,2.205,-5.11,-3.64
49967370,-0.515,0.015,0.807,2.415,-5.18,-2.082
49967380,-0.499,0.026,0.812,3.605,-3.587,-0.42
49967390,-0.477,0.047,0.829,3.815,-0.875,2.135
49967400,-0.489,0.049,0.842,2.362,3.605,4.147
49967410,-0.504,0.043,0.844,0.63,8.907,3.062
49967420,-0.554,0.038,0.847,-0.507,12.232,5.337
49967430,-0.566,0.04,0.83,-2.957,12.39,5.932
49967440,-0.583,0.028,0.815,-3.325,12.302,4.392
49967450,-0.601,0.016,0.799,-3.675,12.775,3.202
49967460,-0.619,0.015,0.781,-3.115,12.862,1.645
49967470,-0.664,0.054,0.77,-2.082,10.517,-0.175
49967480,-0.681,0.06,0.785,-2.992,5.442,-1.085
49967490,-0.659,0.023,0.813,-4.97,1.697,-1.505
49967500,-0.636,-0.041,0.815,-3.465,0.017,-2.852
49967510,-0.655,-0.013,0.816,3.307,-1.995,-4.795
49967510,-0.628,0.051,0.838,4.9,-7.437,-7.612
49967530,-0.541,0.044,0.782,2.642,-8.207,-8.697
49967530,-0.583,0.069,0.783,3.92,-6.877,-7.35
49967550,-0.578,0.07,0.825,1.05,-5.617,-7.84
49967550,-0.525,0,0.834,-0.892,-3.412,-8.347
49967570,-0.543,-0.026,0.852,0.157,1.19,-5.652
49967570,-0.592,-0.009,0.868,1.855,1.487,-4.497
49967580,-0.552,0.011,0.843,1.89,-2.187,-4.182
49967590,-0.508,0.022,0.806,0.787,-5.075,-1.522
49967600,-0.517,0.025,0.807,0.192,-6.86,1.435
49967610,-0.527,0.011,0.806,-1.295,-11.217,4.48
49967620,-0.529,-0.005,0.805,-1.995,-14.157,7.7
49967630,-0.568,0.001,0.827,-1.802,-17.902,10.15
49967640,-0.563,0.025,0.833,-3.132,-22.925,13.562
49967650,-0.494,0.05,0.823,-4.637,-24.185,18.515
49967660,-0.494,0.049,0.829,-7.647,-18.76,28
49967670,-0.488,0.028,0.859,-12.512,-10.272,32.042
49967680,-0.486,0.014,0.891,-14.14,0.28,28.595
49967690,-0.51,0.023,0.867,-14.665,9.695,24.867
49967700,-0.532,0.057,0.876,-19.092,19.32,23.257
49967710,-0.697,0.025,0.868,-28.35,23.152,23.975
49967720,-0.711,-0.061,0.775,-25.095,14.945,19.442
49967730,-0.626,-0.014,0.741,-12.617,4.462,12.827
49967740,-0.6,0.088,0.762,-8.4,1.172,8.575
49967750,-0.641,0.059,0.776,-11.007,2.485,6.667
49967760,-0.681,-0.012,0.762,-13.212,2.712,7.087
49967770,-0.66,-0.022,0.773,-10.517,1.61,4.672
49967780,-0.641,-0.012,0.769,-5.372,-0.35,2.712
49967790,-0.627,0.02,0.768,-1.785,-1.855,0.892
49967800,-0.606,0.048,0.798,0.192,-2.765,-0.472
49967810,-0.571,0.055,0.813,-0.56,-3.482,-1.522
49967820,-0.531,0.041,0.822,-1.925,-1.19,-1.102
49967830,-0.549,0.036,0.844,-2.625,2.257,0.42
49967830,-0.57,0.026,0.847,-4.69,2.695,0.91
49967850,-0.568,-0.005,0.849,-6.195,1.61,0.07
49967850,-0.581,0,0.808,-5.337,0.735,0.42
49967870,-0.594,0.014,0.83,-5.145,-0.525,0.682
49967870,-0.581,-0.009,0.794,-7.332,-0.962,0.577
49967890,-0.612,-0.023,0.776,-6.912,-1.505,1.487
49967890,-0.612,-0.03,0.791,-5.04,-2.012,0.472
49967910,-0.593,-0.025,0.777,-4.095,-3.71,-0.665
49967910,-0.55,-0.05,0.797,-3.202,-3.08,-0.787
49967920,-0.598,-0.042,0.783,-0.315,-1.977,0.472
49967930,-0.609,-0.009,0.793,2.537,-3.762,0.052
49967940,-0.577,-0.005,0.78,3.43,-4.515,-1.26
49967950,-0.598,-0.005,0.782,4.62,-5.127,-0.612
49967960,-0.611,-0.001,0.787,5.145,-5.407,-1.592
49967970,-0.6,-0.002,0.782,5.547,-6.702,-3.552
49967980,-0.585,0,0.78,6.58,-7.297,-3.29
49967990,-0.61,0.007,0.788,7.56,-6.93,-2.607
49968000,-0.618,0.011,0.81,7.157,-7.455,-4.357
49968010,-0.593,-0.006,0.812,7.402,-7.315,-5.985
49968020,-0.591,0.015,0.831,8.89,-6.457,-7.017
49968030,-0.596,0.054,0.832,8.085,-6.895,-7.63
49968040,-0.597,0.058,0.828,5.775,-9.012,-7.332
49968050,-0.585,0.037,0.818,3.902,-10.185,-4.567
49968060,-0.592,0.022,0.817,3.097,-9.992,-4.112
49968070,-0.585,0.018,0.819,2.695,-9.677,-5.04
49968080,-0.564,0.03,0.827,2.415,-8.067,-5.985
49968090,-0.568,0.061,0.807,0.612,-6.965,-5.862
49968100,-0.538,0.073,0.79,-2.31,-5.635,-6.3
49968110,-0.544,0.061,0.805,-5.442,-3.727,-5.232
49968120,-0.57,0.028,0.828,-6.58,-1.47,-4.9
49968130,-0.612,0.001,0.828,-6.44,-2.135,-7.28
49968140,-0.537,0.005,0.86,-6.51,-1.575,-10.99
49968150,-0.561,0.02,0.836,-7.805,0.647,-10.92
49968160,-0.554,0.032,0.858,-9.345,2.835,-9.712
49968170,-0.5,0.035,0.836,-9.94,6.825,-8.487
49968180,-0.469,0.052,0.916,-10.325,11.287,-6.317
49968190,-0.502,0.031,0.872,-11.007,17.937,-2.397
49968200,-0.494,0.028,0.86,-10.587,20.125,-1.4
49968210,-0.499,0.013,0.809,-11.602,22.75,1.872
49968220,-0.569,0.006,0.795,-11.497,22.365,4.357
49968230,-0.612,-0.027,0.776,-13.422,23.555,4.637
49968240,-0.695,-0.086,0.756,-14.91,19.145,2.852
49968250,-0.706,-0.112,0.743,-12.267,13.877,0.892
49968260,-0.707,-0.116,0.746,-6.842,6.335,-1.837
49968260,-0.635,-0.089,0.732,-3.22,-0.77,-4.007
49968280,-0.574,-0.074,0.746,1.137,-4.112,-1.82
49968280,-0.572,-0.063,0.764,3.237,-5.022,0.682
49968300,-0.581,-0.065,0.78,4.865,-4.147,1.732
49968300,-0.614,-0.051,0.79,7.175,-3.902,2.765
49968310,-0.616,-0.014,0.824,9.275,-3.937,2.24
49968320,-0.597,0.025,0.843,9.205,-3.132,0.927
49968330,-0.588,0.046,0.848,7.945,-1.925,-0.087
49968340,-0.608,0.053,0.831,5.547,-1.365,-0.367
49968350,-0.599,0.054,0.818,2.38,-2.432,-1.312
49968360,-0.564,0.035,0.803,-0.332,-1.295,-1.627
49968370,-0.582,0.018,0.784,-1.75,0.35,-0.14
49968380,-0.631,0,0.757,-2.17,0.367,2.502
49968390,-0.681,0.011,0.708,-2.38,-3.342,3.255
49968400,-0.75,0.013,0.71,-4.725,-10.377,3.325
49968410,-0.736,-0.037,0.769,-8.155,-16.835,1.12
49968420,-0.688,-0.061,0.763,-6.79,-23.94,1.137
49968430,-0.558,0.016,0.838,-1.172,-29.785,14.805
49968440,-0.481,0.037,0.923,-4.935,-31.027,35.175
49968450,-0.475,-0.016,0.885,-10.622,-28.997,34.877
49968460,-0.433,0.001,0.875,-6.492,-15.627,20.107
49968470,-0.487,0.055,0.852,-8.155,-2.817,9.065
49968480,-0.618,0.028,0.827,-10.237,3.167,3.01
49968490,-0.669,0.008,0.804,-12.39,3.132,1.47
49968500,-0.686,-0.015,0.792,-12.25,-1.54,-0.542
49968510,-0.666,-0.028,0.792,-10.167,-6.545,-2.975
49968520,-0.577,-0.012,0.78,-7.805,-9.712,-3.307
49968530,-0.555,-0.007,0.83,-6.475,-10.85,5.425
49968540,-0.503,-0.026,0.835,-9.905,-11.585,12.337
49968550,-0.48,-0.07,0.811,-10.395,-9.082,13.982
49968560,-0.459,-0.065,0.834,-6.685,-5.915,9.152
49968570,-0.465,-0.055,0.786,-5.232,1.907,6.755
49968580,-0.56,-0.043,0.805,-2.205,6.86,8.26
49968580,-0.642,-0.046,0.793,-1.995,6.562,8.767
49968600,-0.625,-0.049,0.758,-0.437,2.835,4.41
49968600,-0.61,-0.024,0.772,3.78,1.627,2.555
49968620,-0.661,-0.016,0.804,5.425,-0.332,1.855
49968620,-0.652,-0.029,0.813,6.142,-2.957,-0.962
49968640,-0.624,-0.023,0.818,7.245,-5.967,-3.535
49968640,-0.62,-0.009,0.82,7.542,-7.07,-5.845
49968660,-0.611,-0.008,0.806,7.175,-6.982,-9.712
49968660,-0.633,-0.016,0.796,5.967,-6.755,-12.267
49968670,-0.687,-0.029,0.781,4.007,-11.182,-10.255
49968680,-0.658,-0.036,0.78,4.48,-17.99,-11.252
49968690,-0.577,-0.027,0.777,7.91,-21.857,-12.005
49968700,-0.537,0.01,0.793,10.15,-22.225,-9.835
49968710,-0.536,0.036,0.822,10.85,-21.962,-2.765
49968720,-0.532,0.037,0.835,8.417,-20.142,3.727
49968730,-0.517,0.026,0.858,6.072,-17.675,3.955
49968740,-0.513,0.01,0.87,4.567,-13.947,3.482
49968750,-0.496,0.022,0.874,4.847,-11.287,3.5
49968760,-0.488,0.042,0.869,5.39,-7.717,3.797
49968770,-0.489,0.056,0.857,3.272,-3.237,3.115
49968780,-0.524,0.039,0.849,0,1.767,3.692
49968790,-0.567,0.011,0.841,-1.942,3.5,5.127
49968800,-0.575,-0.001,0.832,-1.802,3.71,3.92
49968810,-0.581,-0.001,0.821,-0.472,2.467,3.657
49968820,-0.58,0.003,0.8,-0.157,1.137,4.62
49968830,-0.583,0.001,0.793,0.332,-0.7,5.39
49968840,-0.574,-0.002,0.797,-0.14,-1.68,6.177
49968850,-0.58,-0.006,0.807,-0.14,-2.87,6.09
49968860,-0.578,-0.013,0.819,-0.315,-4.532,5.88
49968870,-0.602,-0.017,0.813,0.682,-6.072,7.735
49968880,-0.582,0.006,0.826,2.905,-8.785,8.645
49968890,-0.556,0.005,0.814,3.132,-8.75,8.715
49968900,-0.564,0.004,0.812,3.185,-8.277,8.575
49968910,-0.567,0.012,0.815,3.675,-7.822,7.665
49968920,-0.547,0.011,0.81,3.43,-6.755,7.157
49968930,-0.553,0.013,0.817,3.202,-5.267,7.052
49968940,-0.564,0.001,0.829,3.57,-4.06,6.825
49968950,-0.558,-0.012,0.823,4.41,-3.377,6.457
49968960,-0.558,-0.01,0.815,6.86,-3.657,7.175
49968970,-0.566,0,0.811,9.065,-3.657,8.015
49968980,-0.564,0.01,0.814,9.572,-3.832,6.947
49968980,-0.562,0.014,0.812,9.082,-3.412,5.845
49969000,-0.584,0.012,0.811,9.047,-4.847,5.617
49969000,-0.58,0.008,0.817,9.397,-6.807,5.547
49969010,-0.571,0.012,0.828,10.605,-8.925,6.195
49969020,-0.55,0.028,0.835,11.462,-9.852,6.755
49969030,-0.522,0.036,0.84,11.392,-8.907,7.63
49969040,-0.541,0.043,0.821,10.447,-7.297,8.68
49969050,-0.525,0.063,0.836,11.007,-6.877,7.332
49969060,-0.508,0.061,0.832,10.15,-4.76,5.565
49969070,-0.511,0.062,0.852,9.327,-2.012,2.922
49969080,-0.534,0.057,0.858,7.525,1.907,0.752
49969090,-0.537,0.051,0.853,7.105,5.215,-1.155
49969100,-0.527,0.051,0.835,6.93,9.012,-1.855
49969110,-0.55,0.059,0.831,6.177,11.34,-1.942
49969120,-0.558,0.058,0.829,5.285,13.352,-2.607
49969130,-0.576,0.042,0.82,3.85,13.527,-3.01
49969140,-0.594,0.016,0.803,3.92,12.687,0.122
49969150,-0.594,0,0.799,9.66,10.167,3.482
49969160,-0.565,0.048,0.81,11.655,8.96,-0.787
49969170,-0.575,0.039,0.812,10.517,8.12,-1.277
49969180,-0.567,0.027,0.805,11.077,8.75,0.175
49969190,-0.581,0.046,0.8,11.917,7.21,2.922
49969200,-0.554,0.047,0.826,9.222,5.652,4.69
49969210,-0.54,0.035,0.827,9.765,9.765,6.055
49969220,-0.576,0.042,0.828,12.18,13.527,7.682
49969230,-0.567,0.084,0.817,11.165,15.452,6.107
49969240,-0.573,0.061,0.82,11.602,17.867,8.715
49969250,-0.525,0.09,0.794,9.257,21.07,6.177
49969260,-0.612,0.067,0.806,11.777,21.682,11.515
49969270,-0.605,0.097,0.797,8.155,21.385,9.45
49969280,-0.608,0.11,0.798,5.565,20.352,5.827
49969290,-0.635,0.055,0.767,4.287,19.267,2.45
49969300,-0.633,0.071,0.789,12.022,18.235,3.797
49969310,-0.63,0.104,0.788,8.995,15.697,4.602
49969320,-0.634,0.104,0.781,4.847,13.317,6.475
49969330,-0.628,0.085,0.771,3.885,11.69,3.622
49969330,-0.64,0.078,0.777,4.445,9.747,3.132
49969350,-0.643,0.084,0.778,3.937,7.56,3.482
49969350,-0.639,0.088,0.777,2.8,5.18,4.252
49969370,-0.629,0.09,0.773,1.032,3.482,2.94
49969370,-0.621,0.083,0.772,0.56,2.17,1.172
49969390,-0.617,0.076,0.775,0.332,2.1,0.595
49969390,-0.618,0.073,0.781,0.595,1.54,1.242
49969410,-0.614,0.074,0.783,0.892,1.522,1.54
49969410,-0.605,0.077,0.782,0.927,1.785,1.785
49969420,-0.607,0.077,0.777,0.507,2.992,2.625
49969430,-0.608,0.078,0.78,0.262,3.447,3.29
49969440,-0.619,0.074,0.775,0.525,4.287,4.042
49969450,-0.627,0.08,0.78,1.61,4.515,4.375
49969460,-0.634,0.086,0.779,1.662,4.392,4.042
49969470,-0.629,0.088,0.773,1.61,3.92,3.307
49969480,-0.636,0.087,0.771,2.152,4.147,3.255
49969490,-0.643,0.092,0.768,2.922,3.43,2.677
49969500,-0.645,0.101,0.768,3.552,2.747,1.767
49969510,-0.651,0.101,0.774,4.217,1.732,0.91
49969520,-0.642,0.102,0.775,3.815,1.12,-0.367
49969530,-0.632,0.09,0.764,3.272,0.595,-0.98
49969540,-0.634,0.084,0.765,3.867,0.472,-0.63
49969550,-0.638,0.086,0.766,3.972,-0.35,-0.752
49969560,-0.636,0.085,0.767,3.832,-0.787,-1.137
49969570,-0.636,0.082,0.768,3.937,-1.68,-1.645
49969580,-0.628,0.082,0.766,4.427,-1.767,-2.327
49969590,-0.616,0.088,0.768,5.11,-1.487,-3.5
49969600,-0.621,0.096,0.776,5.81,-0.297,-4.2
49969610,-0.612,0.104,0.768,3.972,1.33,-7.175
49969620,-0.626,0.086,0.776,5.722,3.01,-7.192
49969630,-0.65,0.072,0.775,6.177,3.517,-2.38
49969640,-0.651,0.077,0.765,5.932,2.625,0.752
49969650,-0.636,0.092,0.766,8.05,2.292,0.315
49969660,-0.642,0.101,0.771,8.732,2.205,-0.21
49969670,-0.647,0.102,0.76,7.682,1.942,-0.84
49969670,-0.655,0.104,0.755,8.452,2.117,-2.065
49969690,-0.654,0.116,0.759,9.8,2.905,-3.692
49969690,-0.66,0.126,0.744,10.115,3.115,-5.407
49969710,-0.647,0.129,0.752,12.53,3.85,-6.965
49969710,-0.687,0.119,0.775,13.457,4.567,-9.45
49969730,-0.692,0.121,0.757,10.342,4.917,-14.052
49969730,-0.674,0.111,0.748,11.147,4.62,-15.225
49969750,-0.653,0.123,0.759,11.97,5.355,-14.385
49969750,-0.663,0.136,0.755,10.08,6.055,-12.565
49969760,-0.684,0.134,0.745,9.87,8.032,-14.472
49969770,-0.689,0.128,0.715,11.042,10.115,-17.832
49969780,-0.693,0.143,0.725,12.897,12.932,-20.527
49969790,-0.773,0.159,0.748,15.767,10.272,-23.45
49969800,-0.802,0.162,0.762,16.572,6.387,-28.42
49969810,-0.783,0.149,0.768,15.82,0.28,-33.67
49969820,-0.744,0.151,0.758,16.082,-4.095,-37.52
49969830,-0.704,0.16,0.759,17.762,-4.777,-38.832
49969840,-0.702,0.157,0.787,16.467,-0.665,-31.185
49969850,-0.703,0.147,0.772,9.887,3.675,-20.125
49969860,-0.682,0.144,0.763,6.23,9.31,-16.922
49969870,-0.656,0.132,0.761,4.392,15.96,-17.045
49969880,-0.654,0.143,0.772,0.962,23.38,-15.155
49969890,-0.7,0.116,0.757,-4.27,26.617,-8.067
49969900,-0.694,0.101,0.74,-5.267,25.76,-2.642
49969910,-0.675,0.077,0.715,-4.025,24.307,4.795
49969920,-0.636,0.086,0.709,-0.122,24.342,9.03
49969930,-0.629,0.106,0.703,4.287,25.13,12.792
49969940,-0.622,0.115,0.731,6.125,28.367,16.31
49969950,-0.622,0.122,0.719,3.85,31.36,18.165
49969960,-0.617,0.137,0.738,0.402,34.685,17.237
49969970,-0.61,0.125,0.718,-5.74,38.71,15.242
49969980,-0.606,0.11,0.707,-10.185,43.802,12.705
49969990,-0.585,0.109,0.686,-15.925,49.77,9.957
49970000,-0.566,0.112,0.693,-20.317,58.135,8.26
49970010,-0.571,0.087,0.677,-29.155,69.737,9.625
49970020,-0.564,0.069,0.681,-35.367,83.335,9.117
49970030,-0.589,0.042,0.666,-41.492,97.737,11.76
49970040,-0.606,0.021,0.681,-45.36,111.755,13.947
49970050,-0.679,-0.004,0.688,-50.627,126.157,18.777
49970060,-0.741,-0.018,0.642,-58.415,129.342,22.662
49970070,-0.823,-0.219,0.515,-46.76,125.107,38.255
49970080,-0.732,-0.075,0.607,-19.302,124.127,35.647
49970080,-0.821,-0.029,0.54,-21.63,121.975,35.542
49970100,-0.867,-0.057,0.533,-10.325,116.025,35.472
49970100,-0.923,-0.064,0.543,3.5,106.33,42.857
49970120,-1.026,-0.043,0.558,8.977,84.542,46.392
49970120,-0.957,0,0.552,13.842,62.317,43.855
49970140,-0.906,0.061,0.563,20.44,47.722,40.39
49970140,-0.873,0.129,0.531,18.392,37.31,37.835
49970160,-0.862,0.182,0.491,14.245,31.78,32.655
49970160,-0.856,0.173,0.463,6.72,28.805,26.967
49970170,-0.788,0.112,0.39,-1.417,30.397,24.202
49970180,-0.754,0.078,0.359,-0.262,37.222,25.217
49970190,-0.798,0.1,0.364,4.882,45.097,29.26
49970200,-0.896,0.136,0.374,9.432,48.16,30.992
49970210,-0.956,0.114,0.396,10.71,41.44,28.525
49970220,-0.918,0.108,0.389,14.315,34.177,24.062
49970230,-0.926,0.127,0.411,19.635,25.707,20.772
49970240,-0.963,0.136,0.423,21.525,16.257,17.307
49970250,-0.981,0.14,0.429,21.42,4.795,12.547
49970260,-0.962,0.15,0.437,20.16,-6.842,7.402
49970270,-0.937,0.167,0.447,18.585,-16.992,2.24
49970280,-0.91,0.199,0.452,13.772,-23.957,-2.712
49970290,-0.853,0.226,0.447,5.215,-26.39,-7.56
49970300,-0.794,0.215,0.428,-2.117,-24.22,-12.757
49970310,-0.784,0.198,0.42,-6.405,-18.2,-15.382
49970320,-0.771,0.173,0.386,-12.162,-9.625,-14.35
49970330,-0.789,0.158,0.398,-10.972,-1.505,-10.237
49970340,-0.882,0.129,0.398,-10.307,2.31,0.245
49970350,-0.895,0.141,0.414,-6.125,2.1,-0.227
49970360,-0.929,0.161,0.447,-0.962,0.315,1.872
49970370,-0.972,0.183,0.44,-3.482,-3.78,4.637
49970380,-1.029,0.198,0.458,-3.85,-12.407,0.822
49970390,-0.982,0.18,0.427,-2.31,-25.847,-5.022
49970400,-0.814,0.192,0.408,-0.7,-29.855,-11.112
49970410,-0.773,0.238,0.431,-3.08,-19.005,-6.667
49970420,-0.813,0.256,0.424,-9.8,-0.735,-0.98
49970420,-0.969,0.228,0.457,-13.527,11.865,-2.695
49970440,-1.035,0.192,0.456,-19.215,11.445,-4.585
49970440,-1.056,0.184,0.467,-21.507,2.03,-6.65
49970460,-1.032,0.156,0.472,-21.402,-10.605,-8.19
49970460,-1.001,0.133,0.466,-20.982,-20.265,-11.865
49970480,-0.966,0.116,0.458,-18.69,-27.387,-13.982
49970480,-0.939,0.121,0.454,-15.872,-32.252,-14.315
49970500,-0.913,0.131,0.461,-12.74,-38.412,-15.417
49970500,-0.828,0.132,0.461,-10.36,-41.23,-16.73
49970510,-0.785,0.128,0.475,-8.05,-37.73,-13.265
49970520,-0.796,0.142,0.505,-7.665,-30.327,-9.555
49970530,-0.816,0.143,0.534,-8.662,-22.96,-7.035
49970540,-0.809,0.125,0.551,-12.285,-14.665,-5.827
49970550,-0.838,0.085,0.547,-17.29,-5.862,-4.235
49970560,-0.857,0.047,0.539,-18.515,-1.032,-2.485
49970570,-0.865,0.023,0.535,-14.805,-0.245,0.052
49970580,-0.873,0.026,0.541,-9.065,-1.4,2.275
49970590,-0.868,0.049,0.534,-3.465,-4.812,3.815
49970600,-0.849,0.07,0.519,0.297,-7.525,4.882
49970610,-0.84,0.078,0.498,2.257,-9.922,5.425
49970620,-0.825,0.094,0.491,4.217,-11.252,5.845
49970630,-0.835,0.114,0.48,4.06,-12.127,4.217
49970640,-0.835,0.149,0.467,1.522,-12.267,-3.587
49970650,-0.869,0.16,0.47,-4.935,-14.192,-6.825
49970660,-0.857,0.171,0.464,-17.01,-17.115,-7.945
49970670,-0.828,0.128,0.457,-27.807,-22.767,-7
49970680,-0.65,0.029,0.47,-32.777,-10.465,-3.815
49970690,-0.859,0.034,0.515,-27.3,7.822,3.465
49970700,-0.943,0.073,0.546,-21.105,14.087,1.872
49970710,-1.001,0.03,0.531,-17.01,9.817,1.802
49970720,-0.998,0.03,0.528,-6.002,-1.662,-1.89
49970730,-0.845,0.101,0.53,4.06,-6.44,-4.935
49970740,-0.845,0.159,0.543,2.187,-5.355,2.572
49970750,-0.863,0.163,0.517,-3.5,-2.66,5.372
49970760,-0.837,0.142,0.503,-4.497,-1.82,3.71
49970770,-0.836,0.157,0.513,-5.775,-1.75,2.677
49970780,-0.855,0.14,0.511,-7.647,0.42,3.675
49970790,-0.855,0.129,0.492,-7.7,2.765,0.7
49970800,-0.937,0.136,0.598,-5.915,-0.77,0.087
49970810,-0.823,0.114,0.507,-10.377,-2.922,2.012
49970820,-0.909,0.123,0.546,-6.86,-4.252,1.382
49970830,-0.874,0.13,0.521,-9.677,-4.935,-0.805
49970830,-0.872,0.115,0.503,-12.25,-5.407,-2.047
49970850,-0.886,0.1,0.504,-13.562,-5.25,-4.935
49970850,-0.852,0.071,0.467,-15.452,-5.477,-2.257
49970870,-0.876,0.067,0.461,-14.21,-4.235,0.91
49970870,-0.884,0.063,0.464,-11.865,-3.342,-0.472
49970890,-0.894,0.059,0.461,-9.677,-3.062,-0.63
49970890,-0.919,0.054,0.448,-8.452,-6.247,2.782
49970910,-0.904,0.066,0.441,-4.41,-10.412,1.435
49970910,-0.905,0.074,0.449,-0.28,-14.892,-1.12
49970920,-0.903,0.083,0.459,1.715,-17.797,-3.85
49970930,-0.9,0.092,0.488,4.287,-21.472,-6.51
49970940,-0.967,0.092,0.5,4.427,-26.932,-8.977
49970950,-0.777,0.071,0.5,5.757,-36.89,-15.452
49970960,-0.713,0.082,0.55,11.357,-28.21,-10.08
49970970,-0.944,0.108,0.583,9.8,-18.48,-1.137
49970980,-0.901,0.112,0.588,8.102,-17.675,-4.655
49970990,-0.851,0.087,0.576,7.542,-20.842,-5.005
49971000,-0.836,0.101,0.57,7.455,-21.437,-4.55
49971010,-0.819,0.111,0.573,7.367,-20.667,-3.657
49971020,-0.808,0.103,0.561,5.687,-19.25,-3.64
49971030,-0.817,0.085,0.547,4.76,-18.777,-3.395
49971040,-0.831,0.082,0.541,4.48,-18.34,-2.992
49971050,-0.837,0.073,0.53,3.342,-18.602,-3.255
49971060,-0.837,0.065,0.515,3.255,-18.165,-2.625
49971070,-0.85,0.053,0.511,3.342,-16.922,0.315
49971080,-0.871,0.047,0.504,3.71,-16.52,1.61
49971090,-0.89,0.053,0.52,6.457,-18.095,2.187
49971100,-0.878,0.069,0.543,7.857,-20.37,1.505
49971110,-0.867,0.082,0.56,7.682,-22.925,-0.052
49971120,-0.846,0.105,0.576,7.91,-25.305,-1.522
49971130,-0.805,0.15,0.588,7.262,-25.077,-1.575
49971140,-0.807,0.163,0.594,2.467,-23.152,-1.015
49971150,-0.802,0.132,0.586,-2.362,-20.597,-1.662
49971160,-0.82,0.154,0.555,-5.005,-21,-2.397
49971170,-0.798,0.08,0.624,-9.187,-18.865,-0.595
49971170,-0.861,-0.003,0.572,-3.36,-11.55,1.102
49971190,-0.827,0.099,0.611,2.712,-15.96,-5.075
49971190,-0.743,0.139,0.574,-3.15,-16.362,-5.04
49971210,-0.838,0.058,0.585,-5.32,-13.965,-3.727
49971210,-0.852,0.037,0.572,-6.247,-16.345,-4.567
49971230,-0.843,0.059,0.567,-3.972,-19.337,-4.2
49971230,-0.854,0.073,0.583,-4.165,-23.082,-2.922
49971250,-0.868,0.053,0.587,-6.335,-26.215,0.315
49971250,-0.849,0.046,0.596,-5.775,-30.03,4.375
49971260,-0.8,0.07,0.606,-6.02,-32.917,8.26
49971270,-0.752,0.061,0.588,-6.37,-33.407,9.345
49971280,-0.71,0.068,0.587,-2.625,-30.555,7.84
49971290,-0.685,0.079,0.581,-1.365,-26.547,4.97
49971300,-0.644,0.095,0.583,0.822,-19.495,1.785
49971310,-0.629,0.111,0.59,2.047,-10.272,-0.857
49971320,-0.697,0.126,0.617,0.787,-2.17,2.257
49971330,-0.743,0.13,0.64,-2.082,2.835,5.355
49971340,-0.79,0.09,0.655,-4.007,7.717,6.405
49971350,-0.852,0.036,0.645,-7.42,9.642,4.777
49971360,-0.9,0.016,0.637,-6.44,6.457,2.8
49971370,-0.863,0.056,0.623,-3.237,0.367,0.35
49971380,-0.817,0.082,0.611,-2.485,-2.607,-0.822
49971390,-0.796,0.09,0.608,-2.852,-3.132,-1.785
49971400,-0.773,0.09,0.606,-3.062,-2.712,-2.082
49971410,-0.751,0.097,0.612,-2.905,-1.61,-2.012
49971420,-0.748,0.102,0.617,-4.147,0.297,-1.277
49971430,-0.748,0.092,0.614,-5.075,2.59,-0.595
49971440,-0.767,0.083,0.618,-5.162,4.655,0.42
49971450,-0.797,0.079,0.62,-6.282,5.565,1.382
49971460,-0.8,0.059,0.603,-7.7,5.67,2.065
49971470,-0.82,0.044,0.593,-7.332,6.387,2.292
49971480,-0.863,0.034,0.572,-6.23,2.642,2.73
49971490,-0.789,0.047,0.579,-3.64,2.24,2.03
49971500,-0.882,0.005,0.595,-3.832,3.027,3.64
49971510,-0.754,0.011,0.515,0.647,-5.425,-2.502
49971520,-0.52,0.155,0.608,4.06,-2.31,-2.625
49971530,-0.993,0.068,0.661,1.295,4.777,10.71
49971540,-1.251,0.031,0.617,-0.612,-2.94,3.447
49971550,-0.762,0.23,0.437,9.467,-35.035,-12.792
49971560,-0.734,0.258,0.579,14.28,-24.78,-11.305
49971570,-1.009,0.05,0.619,3.43,-15.277,-11.585
49971580,-0.815,0.04,0.615,11.515,-11.83,-20.842
49971580,-0.662,0.161,0.665,16.747,-19.687,-20.632
49971600,-0.586,0.194,0.693,13.93,-12.232,-18.76
49971600,-0.636,0.122,0.717,10.29,2.31,-16.275
49971620,-0.841,0.044,0.686,4.305,5.495,-15.312
49971620,-0.759,0.025,0.674,8.68,2.257,-23.747
49971640,-0.747,0.069,0.698,13.72,-0.245,-26.687
49971640,-0.746,0.096,0.681,12.74,-1.68,-30.992
49971660,-0.733,0.12,0.707,12.845,2.222,-33.442
49971660,-0.794,0.07,0.652,3.832,3.08,-29.995
49971670,-0.766,0.018,0.596,1.557,5.32,-27.457
49971680,-0.629,0.048,0.53,-1.382,14.63,-16.73
49971690,-0.817,0.044,0.584,-16.327,40.547,-0.927
49971700,-1.052,-0.184,0.527,-28.997,46.095,7.437
49971710,-1.273,-0.19,0.319,-10.972,13.842,6.475
49971720,-1.287,-0.127,0.253,12.162,-61.635,-9.975
49971730,-0.679,-0.146,0.126,13.352,-122.465,-38.5
49971740,-0.06,-0.196,0.259,5.11,-103.687,-22.61
49971750,-0.811,-0.283,0.716,-2.922,-20.055,10.727
49971760,-1.075,-0.001,0.688,0.192,34.16,12.617
49971770,-0.739,0.072,0.665,-5.32,41.177,17.867
49971780,-0.739,-0.01,0.696,-3.097,37.905,25.865
49971790,-0.659,0.164,0.773,19.215,35.857,31.482
49971800,-0.63,0.301,0.881,27.492,41.3,25.847
49971810,-0.699,0.182,0.848,21.192,41.492,18.095
49971820,-0.592,0.093,0.814,26.74,45.605,16.222
49971830,-0.692,0.108,0.834,36.417,46.462,22.522
49971840,-0.818,0.101,0.79,46.322,44.502,25.112
49971850,-0.845,0.072,0.699,56.7,39.567,21.542
49971860,-0.922,0.029,0.622,66.307,25.235,17.937
49971870,-1.009,0.005,0.553,77,-1.505,5.967
49971880,-0.975,0.039,0.529,94.937,-35.787,-13.405
49971890,-0.911,0.076,0.526,106.417,-64.12,-31.185
49971900,-0.829,0.094,0.51,106.382,-79.012,-45.552
49971910,-0.694,0.16,0.515,98.962,-76.93,-54.67
49971920,-0.619,0.26,0.544,81.9,-61.967,-57.82
49971920,-0.644,0.322,0.561,56.105,-40.617,-57.4
49971940,-0.686,0.326,0.54,26.617,-21.822,-51.03
49971940,-0.765,0.285,0.502,-3.797,-8.155,-36.015
49971960,-0.835,0.25,0.489,-29.575,-1.54,-19.092
49971960,-0.875,0.171,0.447,-51.082,2.117,-5.6
49971980,-1.007,0.059,0.466,-56.35,2.467,-4.147
49971980,-1.063,-0.008,0.508,-51.625,-7.35,-8.715
49972000,-1.03,-0.036,0.525,-44.45,-20.02,-12.792
49972000,-0.987,-0.041,0.556,-28.052,-31.78,-12.95
49972010,-0.897,-0.009,0.583,-12.075,-39.707,-14.647
49972020,-0.823,0.011,0.594,-0.052,-42.77,-14.752
49972030,-0.776,0.048,0.622,9.03,-42.437,-13.475
49972040,-0.778,0.077,0.633,12.67,-41.492,-12.6
49972050,-0.783,0.077,0.656,13.37,-42.507,-9.52
49972060,-0.78,0.06,0.646,10.745,-45.937,-2.397
49972070,-0.749,0.065,0.657,11.27,-49.77,-2.1
49972080,-0.701,0.069,0.678,13.247,-49.962,-6.125
49972090,-0.676,0.078,0.695,13.475,-46.672,-8.697
49972100,-0.707,0.052,0.721,10.587,-42.875,-9.065
49972110,-0.658,0.059,0.7,9.765,-42.857,-9.922
49972120,-0.641,0.093,0.726,15.312,-38.727,-8.242
49972130,-0.646,0.093,0.727,17.01,-34.335,-9.03
49972140,-0.607,0.087,0.72,16.642,-26.6,-9.992
49972150,-0.608,0.086,0.731,17.78,-15.995,-8.085
49972160,-0.641,0.099,0.739,17.08,-4.83,-6.51
49972170,-0.675,0.098,0.721,16.047,3.92,-4.357
49972180,-0.708,0.082,0.708,16.222,10.447,-1.61
49972190,-0.726,0.084,0.673,15.942,12.722,-1.872
49972200,-0.754,0.091,0.662,17.955,13.09,-0.595
49972210,-0.78,0.104,0.643,18.322,10.71,-0.42
49972220,-0.791,0.117,0.637,17.64,6.527,-4.252
49972230,-0.795,0.126,0.64,16.87,1.89,-5.792
49972240,-0.792,0.133,0.632,13.615,-3.447,-4.76
49972250,-0.771,0.149,0.635,10.605,-7.28,-6.895
49972260,-0.782,0.14,0.639,7.07,-9.292,-7.035
49972270,-0.765,0.137,0.642,2.467,-10.482,-7.28
49972280,-0.758,0.138,0.656,-0.472,-11.427,-6.545
49972290,-0.774,0.129,0.674,-3.36,-12.302,-4.515
49972300,-0.764,0.109,0.669,-6.492,-14.262,-4.41
49972310,-0.743,0.089,0.676,-7.192,-15.155,-5.32
49972320,-0.734,0.075,0.678,-7.105,-16.327,-5.232
49972330,-0.73,0.063,0.685,-6.422,-16.66,-4.392
49972330,-0.718,0.057,0.685,-4.725,-17.15,-3.885
49972350,-0.694,0.061,0.687,-1.925,-16.152,-4.357
49972350,-0.689,0.068,0.704,0.507,-14.35,-4.112
49972360,-0.679,0.078,0.707,0.98,-10.727,-2.73
49972370,-0.7,0.072,0.708,1.26,-7.56,-1.137
49972380,-0.7,0.066,0.697,1.68,-4.025,-0.105
49972390,-0.695,0.071,0.689,2.782,-1.347,1.067
49972400,-0.705,0.084,0.684,3.815,1.155,2.012
49972410,-0.73,0.092,0.685,4.322,1.68,1.907
49972420,-0.745,0.092,0.681,4.357,1.172,0.42
49972430,-0.745,0.096,0.677,4.48,-0.752,-2.03
49972440,-0.746,0.099,0.673,4.532,-2.467,-3.605
49972450,-0.743,0.108,0.68,3.745,-4.27,-3.535
49972460,-0.756,0.101,0.686,1.907,-5.477,-1.855
49972470,-0.734,0.103,0.671,0.245,-8.452,-2.625
49972480,-0.715,0.105,0.68,0.927,-8.68,-1.785
49972490,-0.716,0.112,0.695,-0.14,-7.28,-1.645
49972500,-0.726,0.095,0.691,-3.132,-4.62,-1.26
49972510,-0.722,0.079,0.696,-3.412,-2.957,-1.12
49972520,-0.724,0.074,0.691,-2.24,-2.187,-0.385
49972530,-0.726,0.075,0.693,-0.822,-1.855,-0.087
49972540,-0.715,0.074,0.688,0.542,-1.347,-0.07
49972550,-0.703,0.079,0.685,1.837,-0.595,0.455
49972560,-0.708,0.088,0.688,2.397,0.647,1.225
49972570,-0.723,0.088,0.685,1.802,1.312,1.487
49972580,-0.719,0.088,0.677,1.347,1.47,0.962
49972590,-0.725,0.09,0.681,1.137,1.312,0.91
49972600,-0.739,0.089,0.68,0.175,0.612,1.33
49972610,-0.735,0.086,0.676,-0.612,-0.367,1.452
49972620,-0.738,0.083,0.677,-0.682,-1.225,1.767
49972630,-0.742,0.086,0.678,-0.63,-2.1,1.645
49972640,-0.742,0.089,0.681,-0.472,-3.167,1.155
49972650,-0.735,0.092,0.68,-0.35,-3.605,0.735
49972660,-0.727,0.095,0.681,-0.297,-3.797,0.49
49972670,-0.728,0.096,0.684,-0.56,-3.307,0.577
49972670,-0.733,0.093,0.683,-0.945,-3.237,0.56
49972690,-0.73,0.091,0.682,-1.225,-3.08,0.472
49972690,-0.727,0.087,0.684,-1.12,-3.587,0.42
49972710,-0.73,0.083,0.686,-1.172,-3.395,0.455
49972710,-0.726,0.079,0.688,-1.067,-3.622,0.227
49972730,-0.722,0.078,0.685,-0.437,-3.342,0.21
49972730,-0.722,0.081,0.683,0.595,-3.43,0.227
49972750,-0.726,0.084,0.681,1.417,-3.15,0.192
49972750,-0.733,0.088,0.678,1.925,-4.042,0.035
49972760,-0.732,0.088,0.675,2.38,-4.76,0.14
49972770,-0.755,0.085,0.668,2.887,-6.545,0.245
49972780,-0.776,0.092,0.669,2.992,-9.345,-0.14
49972790,-0.767,0.102,0.669,3.167,-13.317,-0.892
49972800,-0.78,0.097,0.674,2.712,-16.905,1.942
49972810,-0.783,0.099,0.667,-0.402,-22.26,5.04
49972820,-0.78,0.102,0.665,-1.575,-27.037,5.88
49972830,-0.778,0.097,0.666,-2.275,-31.902,7.752
49972840,-0.778,0.097,0.671,-3.395,-36.522,9.835
49972850,-0.772,0.101,0.671,-4.62,-41.965,11.287
49972860,-0.747,0.092,0.68,-5.81,-46.602,12.022
49972870,-0.722,0.09,0.687,-6.125,-49.805,12.057
49972880,-0.697,0.099,0.698,-6.072,-50.995,10.92
49972890,-0.686,0.108,0.718,-6.195,-51.397,9.415
49972900,-0.67,0.11,0.73,-6.702,-51.362,7.7
49972910,-0.647,0.115,0.744,-7.262,-51.38,6.527
49972920,-0.641,0.119,0.754,-8.872,-50.89,6.65
49972930,-0.644,0.118,0.756,-11.025,-49.385,7.157
49972940,-0.652,0.114,0.759,-13.492,-47.67,7.997
49972950,-0.661,0.11,0.753,-15.277,-46.585,6.86
49972960,-0.661,0.114,0.748,-15.942,-45.115,5.705
49972970,-0.658,0.117,0.752,-15.872,-44.502,5.057
49972980,-0.668,0.111,0.757,-16.485,-45.535,5.512
49972990,-0.665,0.104,0.748,-17.167,-47.81,3.727
49973000,-0.657,0.103,0.761,-15.802,-51.327,2.45
49973010,-0.662,0.092,0.767,-15.557,-55.335,3.377
49973020,-0.648,0.082,0.766,-16.712,-59.115,3.552
49973030,-0.62,0.07,0.778,-16.135,-61.092,2.607
49973030,-0.604,0.061,0.795,-15.347,-62.195,2.642
49973050,-0.602,0.054,0.805,-15.435,-62.755,3.307
49973050,-0.584,0.028,0.801,-14.805,-63.332,1.715
49973070,-0.544,0.024,0.787,-11.025,-62.247,0.665
49973070,-0.52,0.054,0.809,-5.442,-57.82,3.01
49973080,-0.542,0.06,0.829,-3.745,-52.115,3.885
49973090,-0.553,0.07,0.831,-4.025,-48.107,2.87
49973100,-0.557,0.069,0.842,-3.727,-45.482,2.222
49973110,-0.551,0.077,0.84,-4.287,-46.462,1.33
49973120,-0.531,0.087,0.852,-3.412,-47.74,1.155
49973130,-0.517,0.089,0.858,-4.83,-50.347,2.957
49973140,-0.502,0.082,0.864,-7.017,-52.395,3.57
49973150,-0.489,0.075,0.869,-8.207,-54.477,2.205
49973160,-0.47,0.056,0.885,-8.347,-57.242,1.032
49973170,-0.432,0.047,0.896,-7.717,-59.64,0.367
49973180,-0.398,0.039,0.907,-5.215,-58.275,-0.682
49973190,-0.373,0.029,0.916,-2.222,-56.822,-0.77
49973200,-0.337,0.042,0.919,0.245,-52.955,-0.822
49973210,-0.306,0.059,0.92,1.907,-47.075,-1.4
49973220,-0.303,0.068,0.93,0.227,-39.182,-2.8
49973230,-0.329,0.06,0.93,-2.572,-32.602,-5.53
49973240,-0.352,0.056,0.917,-5.495,-29.767,-9.03
49973250,-0.327,0.054,0.903,-7.77,-30.03,-13.142
49973260,-0.259,0.06,0.901,-9.065,-28.14,-14.945
49973270,-0.107,0.042,0.91,-12.81,-14.367,-10.552
49973280,-0.245,0.031,0.935,-19.985,3.797,2.625
49973290,-0.321,0.039,0.948,-20.632,23.432,3.202
49973300,-0.343,0.046,0.956,-23.992,32.392,0.595
49973310,-0.41,0.009,0.906,-27.23,35.945,2.695
49973320,-0.398,0.001,0.89,-22.995,38.64,3.01
49973330,-0.384,0.016,0.866,-15.592,45.605,4.602
49973340,-0.492,0.012,0.873,-11.917,46.69,6.912
49973350,-0.54,0.006,0.88,-13.142,42.28,5.145
49973360,-0.511,-0.015,0.869,-12.407,35.35,3.377
49973370,-0.447,-0.011,0.862,-9.152,28.28,4.987
49973380,-0.439,0.012,0.875,-4.2,30.03,6.072
49973390,-0.456,0.048,0.887,-4.2,32.97,4.217
49973400,-0.46,0.048,0.894,-6.335,37.782,2.957
49973410,-0.449,0.036,0.88,-9.537,43.417,4.042
49973420,-0.44,0.036,0.895,-10.36,48.667,5.985
49973420,-0.44,0.04,0.888,-12.302,53.9,11.672
49973440,-0.446,0.021,0.879,-14.175,59.57,19.687
49973440,-0.463,-0.002,0.885,-15.435,65.782,22.96
49973460,-0.468,-0.038,0.876,-15.155,70.63,22.225
49973460,-0.508,-0.077,0.88,-7.07,77.42,23.66
49973480,-0.546,-0.108,0.897,7.297,80.062,28.56
49973480,-0.524,-0.114,0.885,25.917,83.982,34.002
49973500,-0.61,-0.127,0.871,47.722,86.012,37.695
49973500,-0.654,-0.039,0.901,67.357,82.635,26.635
49973510,-0.7,0.016,0.874,80.867,69.107,16.275
49973520,-0.695,0.068,0.853,96.442,53.41,6.982
49973530,-0.701,0.097,0.827,110.757,35.14,-2.712
49973540,-0.695,0.125,0.811,119.507,16.135,-12.145
49973550,-0.708,0.153,0.777,121.94,-1.26,-25.41
49973560,-0.713,0.193,0.764,121.537,-16.03,-38.115
49973570,-0.706,0.222,0.748,116.025,-28.21,-46.427
49973580,-0.676,0.255,0.719,107.187,-35.367,-51.467
49973590,-0.66,0.286,0.721,94.535,-38.78,-54.442
49973600,-0.647,0.321,0.704,78.05,-37.87,-55.09
49973610,-0.665,0.318,0.703,58.502,-36.015,-54.775
49973620,-0.676,0.285,0.692,37.765,-36.032,-53.935
49973630,-0.666,0.257,0.672,19.512,-38.517,-51.152
49973640,-0.688,0.212,0.668,5.145,-42.647,-46.515
49973650,-0.678,0.193,0.649,-6.895,-47.512,-47.652
49973660,-0.667,0.163,0.639,-13.527,-50.96,-47.18
49973670,-0.64,0.154,0.647,-17.972,-51.957,-48.352
49973680,-0.638,0.162,0.666,-21.367,-52.325,-49.35
49973690,-0.671,0.156,0.696,-23.082,-55.177,-49
49973700,-0.68,0.15,0.725,-23.747,-60.602,-48.335
49973710,-0.666,0.163,0.755,-25.462,-67.445,-46.427
49973720,-0.665,0.167,0.789,-29.767,-74.602,-42.857
49973730,-0.63,0.173,0.8,-37.975,-80.902,-39.672
49973740,-0.569,0.167,0.799,-47.267,-84.42,-36.4
49973750,-0.492,0.137,0.795,-55.055,-82.407,-30.38
49973760,-0.438,0.102,0.789,-60.427,-74.042,-22.33
49973760,-0.426,0.054,0.789,-62.457,-60.13,-13.422
49973780,-0.448,0,0.799,-61.005,-44.065,-5.32
49973780,-0.479,-0.034,0.813,-57.172,-28.7,-1.312
49973800,-0.514,-0.046,0.835,-50.942,-17.745,-1.75
49973800,-0.563,-0.055,0.883,-42.42,-12.932,-2.747
49973820,-0.641,-0.084,0.927,-31.237,-19.18,-2.817
49973820,-0.646,-0.085,0.921,-17.045,-33.547,-3.745
49973830,-0.525,-0.043,0.915,-1.225,-46.445,-3.395
49973840,-0.439,0.024,0.92,10.272,-50.925,-3.132
49973850,-0.412,0.083,0.931,12.862,-48.422,-5.757
49973860,-0.422,0.1,0.934,9.677,-42.7,-9.957
49973870,-0.441,0.103,0.935,6.107,-39.34,-12.827
49973880,-0.448,0.109,0.928,2.327,-38.325,-13.492
49973890,-0.447,0.123,0.922,-0.875,-39.637,-12.705
49973900,-0.466,0.131,0.924,-3.815,-42.805,-10.08
49973910,-0.469,0.123,0.914,-8.33,-48.51,-7
49973920,-0.44,0.085,0.9,-11.83,-51.975,-2.135
49973930,-0.427,0.068,0.883,-14.367,-52.552,4.62
49973940,-0.431,0.053,0.894,-16.187,-50.505,11.9
49973950,-0.417,0.039,0.874,-20.16,-47.25,16.362
49973960,-0.42,0.031,0.888,-20.667,-43.05,17.57
49973970,-0.43,0.014,0.881,-22.592,-40.197,18.357
49973980,-0.421,0.007,0.89,-21.157,-38.5,13.23
49973990,-0.421,0,0.91,-19.232,-41.457,7.087
49974000,-0.431,-0.019,0.935,-16.52,-48.93,2.73
49974010,-0.394,-0.041,0.933,-12.705,-57.907,-2.625
49974020,-0.362,-0.052,0.941,-9.327,-65.135,-7.84
49974030,-0.353,-0.051,0.954,-6.212,-72.45,-12.425
49974040,-0.297,-0.068,0.948,-4.252,-76.615,-17.272
49974050,-0.236,-0.056,0.929,-1.557,-76.405,-20.352
49974060,-0.206,-0.031,0.933,5.267,-73.15,-19.25
49974070,-0.187,-0.004,0.93,11.34,-68.425,-15.05
49974080,-0.203,0.012,0.947,13.44,-65.152,-10.99
49974090,-0.189,0.004,0.955,11.2,-62.877,-11.637
49974100,-0.177,-0.035,0.97,9.555,-60.847,-12.862
49974110,-0.162,-0.079,0.975,6.072,-58.397,-13.72
49974120,-0.131,-0.122,0.988,6.422,-53.112,-15.365
49974130,-0.106,-0.137,1.006,9.975,-44.485,-17.097
49974140,-0.171,-0.123,1.031,12.215,-37.31,-15.96
49974150,-0.219,-0.122,1.016,11.76,-35.997,-12.372
49974160,-0.18,-0.108,0.986,9.695,-36.837,-9.625
49974170,-0.222,-0.088,0.958,6.44,-40.04,-4.97
49974170,-0.263,-0.083,0.922,1.382,-47.145,-2.782
49974190,-0.213,-0.085,0.874,0.91,-52.675,-3.85
49974190,-0.265,-0.083,0.884,5.88,-60.865,-5.425
49974210,-0.315,-0.055,0.865,9.73,-73.675,-5.932
49974210,-0.271,-0.04,0.864,13.44,-90.212,-6.685
49974230,-0.122,-0.039,0.944,15.435,-97.947,-6.667
49974230,-0.01,-0.027,0.902,20.335,-92.487,1.715
49974250,-0.091,0.065,1.026,25.655,-80.832,9.677
49974250,-0.049,0.142,1.072,20.615,-70.297,9.415
49974260,0.001,0.122,1.074,10.255,-56.7,9.8
49974270,-0.054,0.069,1.061,1.96,-44.502,9.17
49974280,-0.125,0.057,1.058,-4.34,-39.392,6.44
49974290,-0.097,0.05,1.036,-5.6,-41.527,4.952
49974300,-0.02,0.061,1.026,-1.172,-41.125,5.355
49974310,-0.004,0.09,1.001,-0.735,-38.045,6.947
49974320,0.027,0.102,1.002,-2.747,-30.362,7.105
49974330,0.057,0.097,0.993,-5.775,-20.737,7.455
49974340,0.056,0.103,0.996,-9.065,-9.187,8.767
49974350,0.078,0.098,0.983,-11.83,-0.14,11.007
49974360,0.096,0.094,0.976,-11.655,10.797,15.855
49974370,0.056,0.079,0.978,-10.01,20.982,18.952
49974380,0.035,0.06,0.948,-8.855,29.697,17.29
49974390,-0.043,0.02,0.952,-7.822,32.095,19.145
49974400,-0.068,0.005,0.944,-3.167,29.925,20.335
49974410,-0.031,-0.022,0.948,2.187,26.005,20.387
49974420,-0.004,-0.064,0.944,3.745,25.62,18.952
49974430,0.075,-0.077,0.93,9.502,31.675,17.482
49974440,0.094,-0.082,0.944,17.36,43.277,25.357
49974450,0.097,-0.107,0.965,21.665,57.96,33.88
49974460,0.169,-0.124,0.974,24.29,78.662,40.635
49974470,0.2,-0.124,0.966,27.825,109.462,52.15
49974480,0.098,-0.091,0.996,32.48,144.987,63.98
49974490,-0.082,-0.039,1.034,31.272,172.725,72.187
49974500,-0.208,0.023,1.027,23.59,187.81,78.207
49974510,-0.263,0.077,0.993,12.162,195.737,85.872
49974510,-0.299,0.108,0.925,-2.52,201.005,94.29
49974530,-0.304,0.117,0.847,-16.852,208.81,100.677
49974530,-0.309,0.141,0.789,-29.137,219.712,105.367
49974550,-0.399,0.158,0.753,-38.972,229.355,110.792
49974550,-0.453,0.188,0.741,-45.097,234.132,114.957
49974570,-0.499,0.211,0.713,-55.02,234.482,115.447
49974570,-0.637,0.215,0.731,-68.425,226.87,112.35
49974580,-0.732,0.158,0.725,-76.282,211.627,102.742
49974590,-0.734,0.065,0.686,-78.382,188.667,86.187
49974600,-0.766,0.012,0.667,-73.08,162.785,69.3
49974610,-0.882,-0.021,0.675,-58.747,129.027,54.6
49974620,-0.948,-0.043,0.689,-36.557,86.607,39.585
49974630,-0.936,-0.015,0.705,-12.145,38.692,24.377
49974640,-0.846,0.082,0.746,7.157,-5.547,7.367
49974650,-0.704,0.161,0.754,13.545,-38.885,-7.437
49974660,-0.559,0.184,0.762,13.177,-55.195,-17.045
49974670,-0.447,0.177,0.757,9.782,-56.595,-21.472
49974680,-0.363,0.17,0.777,8.207,-44.887,-20.93
49974690,-0.334,0.188,0.81,6.947,-25.497,-13.615
49974700,-0.397,0.169,0.842,5.74,-3.972,-1.137
49974710,-0.417,0.147,0.868,4.025,16.275,6.037
49974720,-0.454,0.15,0.891,-0.717,36.61,10.64
49974730,-0.558,0.138,0.914,-9.38,52.762,12.04
49974740,-0.643,0.1,0.915,-19.792,63.612,11.287
49974750,-0.712,0.034,0.875,-28.21,66.29,8.89
49974760,-0.76,-0.037,0.826,-31.99,64.785,7
49974770,-0.804,-0.08,0.781,-28.682,59.027,12.372
49974780,-0.854,-0.176,0.745,-8.102,46.095,22.68
49974790,-0.763,-0.059,0.758,3.675,38.797,14.052
49974800,-0.732,-0.047,0.716,8.4,35.717,12.512
49974810,-0.66,-0.012,0.719,19.407,38.185,9.905
49974820,-0.673,0.055,0.747,23.152,42.56,10.272
49974830,-0.723,0.074,0.761,21.857,41.965,10.92
49974840,-0.709,0.106,0.763,21.07,38.325,9.52
49974850,-0.697,0.153,0.765,15.61,33.477,8.907
49974860,-0.711,0.15,0.746,6.352,26.582,9.607
49974870,-0.682,0.114,0.711,0.385,20.002,11.305
49974880,-0.662,0.089,0.688,-2.17,15.032,12.127
49974890,-0.661,0.069,0.688,-2.695,12.495,11.147
49974900,-0.648,0.053,0.68,-0.91,12.285,7.665
49974910,-0.674,0.029,0.706,4.795,12.915,5.757
49974920,-0.712,0.03,0.724,11.165,10.132,4.69
49974920,-0.727,0.032,0.738,16.642,3.01,1.067
49974940,-0.74,0.064,0.779,21.595,-6.842,-2.625
49974940,-0.716,0.091,0.784,20.772,-18.952,-7.7
49974960,-0.654,0.108,0.759,18.007,-29.102,-12.197
49974960,-0.606,0.11,0.714,13.142,-32.865,-11.445
49974980,-0.546,0.117,0.717,7.577,-29.277,-9.887
49974980,-0.479,0.154,0.691,-3.395,-15.225,-13.02
49975000,-0.455,0.161,0.678,-17.552,5.565,-13.492
49975000,-0.569,0.096,0.647,-27.422,27.79,0.14
49975010,-0.687,0.079,0.697,-31.85,41.545,5.775
49975020,-0.792,0.072,0.695,-37.327,47.285,6.772
49975030,-0.82,0.07,0.683,-38.482,44.117,8.855
49975040,-0.838,0.082,0.671,-39.147,38.377,5.67
49975050,-0.87,0.074,0.66,-41.965,29.575,-1.942
49975060,-0.883,0.069,0.656,-43.382,15.925,-3.727
49975070,-0.881,0.055,0.661,-41.02,-3.377,-3.71
49975080,-0.817,0.036,0.672,-33.25,-22.75,-9.607
49975090,-0.704,0.012,0.696,-22.417,-37.152,-13.947
49975100,-0.43,-0.035,0.719,-10.115,-30.852,-11.042
49975110,-0.661,0.033,0.816,3.412,-6.632,-0.56
49975120,-0.93,0.12,0.878,9.24,-2.24,-2.397
49975130,-0.78,0.119,0.85,3.027,-15.662,-12.652
49975140,-0.527,0.075,0.803,-9.24,-11.62,-11.672
49975150,-0.741,0.063,0.752,-18.497,0.542,-2.695
49975160,-0.807,0.053,0.766,-16.607,-0.682,-2.765
49975170,-0.657,0.066,0.732,-17.01,-8.505,-7
49975180,-0.566,0.071,0.748,-15.277,-7.262,-7.507
49975190,-0.63,0.043,0.778,-13.825,-1.155,-5.232
49975200,-0.668,0.016,0.787,-12.827,2.66,-5.915
49975210,-0.669,-0.021,0.777,-9.31,3.902,-9.135
49975220,-0.626,-0.026,0.774,-3.78,5.425,-11.427
49975230,-0.592,0.009,0.76,-2.117,11.392,-12.145
49975240,-0.649,0.002,0.761,-4.917,16.257,-11.917
49975250,-0.66,-0.013,0.713,-8.732,15.715,-11.655
49975260,-0.643,-0.016,0.672,-9.817,14.105,-4.147
49975260,-0.624,-0.009,0.644,-11.48,14.542,2.082
49975280,-0.646,-0.045,0.591,-14.14,17.692,4.445
49975280,-0.646,-0.091,0.569,-11.69,24.482,4.427
49975300,-0.683,-0.055,0.568,-6.667,30.327,6.037
49975300,-0.736,-0.016,0.609,-5.915,33.197,6.632
49975320,-0.776,-0.06,0.642,-8.522,31.29,11.952
49975320,-0.773,-0.087,0.674,-8.907,31.255,10.447
49975330,-0.875,-0.094,0.673,-8.05,27.597,12.197
49975340,-0.831,-0.005,0.629,-7.42,17.99,7.402
49975350,-0.842,-0.003,0.678,-9.975,16.537,11.97
49975360,-0.926,-0.036,0.619,-12.512,10.185,17.132
49975370,-0.863,0.042,0.609,-6.947,2.38,11.497
49975380,-0.803,0.1,0.617,-7.682,-1.907,9.467
49975390,-0.802,0.083,0.629,-10.727,-0.665,8.907
49975400,-0.819,0.056,0.66,-12.547,0.42,7.42
49975410,-0.844,0.046,0.679,-12.67,-0.997,5.057
49975420,-0.88,0.019,0.689,-14.42,-6.597,3.167
49975430,-0.843,-0.066,0.669,-13.615,-12.582,1.172
49975440,-0.802,-0.035,0.685,-6.545,-18.025,-1.12
49975450,-0.769,0.021,0.694,-6.212,-24.185,2.467
49975460,-0.704,0.025,0.715,-8.05,-28.28,6.02
49975470,-0.684,0.011,0.71,-12.092,-29.732,15.487
49975480,-0.728,-0.048,0.629,-17.622,-30.135,22.977
49975490,-0.747,-0.048,0.637,-12.442,-31.605,20.947
49975500,-0.819,-0.033,0.568,-11.077,-36.662,21.437
49975510,-0.922,0.008,0.598,-11.392,-48.352,20.02
49975520,-0.977,-0.035,0.622,-15.47,-60.935,27.037
49975530,-0.933,-0.134,0.675,-14.402,-74.707,36.54
49975540,-0.809,-0.163,0.787,-2.292,-80.097,40.425
49975550,-0.804,0.002,0.846,9.257,-88.34,37.187
49975560,-0.566,0.101,0.835,9.065,-92.75,28.42
49975570,-0.399,0.102,0.794,7.577,-82.88,21
49975580,-0.358,0.102,0.773,5.897,-66.535,14.035
49975590,-0.331,0.094,0.761,1.89,-46.882,5.302
49975600,-0.325,0.057,0.762,-1.067,-28.315,-0.682
49975610,-0.372,0.031,0.751,-3.885,-12.687,-1.19
49975620,-0.497,-0.02,0.743,-6.562,-1.977,1.767
49975630,-0.619,-0.082,0.734,-5.95,3.482,4.427
49975640,-0.695,-0.101,0.737,-1.172,2.03,5.617
49975650,-0.732,-0.092,0.729,5.11,-3.115,7.245
49975660,-0.703,-0.069,0.709,11.147,-8.715,8.522
49975670,-0.657,-0.03,0.721,16.205,-11.795,10.097
49975670,-0.637,-0.004,0.731,18.655,-12.95,10.745
49975690,-0.63,0.019,0.749,19.915,-11.742,9.345
49975690,-0.651,0.034,0.771,20.282,-10.57,8.61
49975710,-0.693,0.044,0.783,20.615,-9.922,7.875
49975710,-0.706,0.061,0.794,20.65,-9.782,5.11
49975720,-0.715,0.071,0.819,19.845,-9.467,2.222
49975730,-0.714,0.068,0.825,17.64,-10.832,0.822
49975740,-0.674,0.069,0.815,15.995,-13.72,0.035
49975750,-0.618,0.073,0.807,15.47,-16.537,0.052
49975760,-0.551,0.096,0.789,15.452,-16.782,-0.98
49975770,-0.51,0.115,0.783,15.067,-12.845,-2.257
49975780,-0.526,0.113,0.765,12.967,-6.632,-3.727
49975790,-0.515,0.128,0.732,11.252,-1.225,-6.352
49975800,-0.542,0.128,0.716,8.942,3.92,-6.142
49975810,-0.588,0.091,0.723,7.035,8.19,-2.975
49975820,-0.643,0.078,0.784,8.137,12.092,0.717
49975830,-0.72,0.091,0.824,8.4,9.852,5.145
49975840,-0.714,0.097,0.822,7.945,4.655,8.382
49975850,-0.634,0.09,0.8,6.982,1.05,9.292
49975860,-0.586,0.092,0.776,6.667,1.19,9.327
49975870,-0.578,0.102,0.78,4.987,4.165,8.592
49975880,-0.595,0.092,0.79,0.857,8.855,6.3
49975890,-0.608,0.085,0.789,-3.29,12.232,3.657
49975900,-0.623,0.072,0.783,-6.02,13.825,3.062
49975910,-0.635,0.06,0.779,-7.735,13.51,3.097
49975920,-0.639,0.065,0.778,-8.4,12.775,2.292
49975930,-0.655,0.074,0.784,-8.977,11.48,2.17
49975940,-0.725,0.018,0.75,-6.632,6.772,7.507
49975950,-0.666,0.075,0.78,-1.75,2.975,3.71
49975960,-0.671,0.074,0.751,-4.235,1.82,0.98
49975970,-0.695,0.045,0.734,-3.412,0.927,0.297
49975980,-0.68,0.047,0.733,-1.295,-1.837,-0.105
49975990,-0.684,0.058,0.741,1.767,-4.532,0.962
49976000,-0.674,0.068,0.742,3.272,-5.635,0.717
49976010,-0.681,0.057,0.747,4.655,-5.88,1.732
49976010,-0.69,0.058,0.758,7.14,-8.785,3.062
49976030,-0.68,0.083,0.804,8.05,-12.127,3.675
49976030,-0.645,0.097,0.838,7.157,-15.12,5.075
49976050,-0.614,0.126,0.817,4.812,-14.017,8.277
49976050,-0.639,0.145,0.814,-2.94,-10.692,9.59
49976070,-0.661,0.085,0.75,-10.797,-10.657,6.125
49976070,-0.662,0.044,0.681,-7.787,-12.932,2.957
49976080,-0.661,0.078,0.701,-0.385,-14.84,2.327
49976090,-0.679,0.094,0.753,2.747,-16.012,-0.437
49976100,-0.697,0.077,0.77,0.49,-14.332,-5.32
49976110,-0.698,0.059,0.78,-3.15,-15.61,-7.507
49976120,-0.658,0.051,0.764,-4.322,-19.425,-5.18
49976130,-0.616,0.053,0.748,-2.8,-22.347,-3.185
49976140,-0.584,0.061,0.744,-1.82,-22.207,-3.062
49976150,-0.548,0.075,0.762,-1.33,-19.95,-3.395
49976160,-0.553,0.074,0.78,-2.275,-16.695,-2.607
49976170,-0.586,0.068,0.794,-4.567,-13.772,-2.625
49976180,-0.608,0.063,0.802,-6.965,-12.022,-2.502
49976190,-0.597,0.058,0.797,-6.37,-11.287,-1.89
49976200,-0.593,0.072,0.798,-5.162,-10.272,-2.135
49976210,-0.602,0.069,0.778,-5.757,-9.012,-3.43
49976220,-0.624,0.049,0.765,-5.425,-8.54,-3.815
49976230,-0.639,0.04,0.758,-4.165,-10.062,-2.695
49976240,-0.642,0.045,0.774,-1.75,-11.567,-0.752
49976250,-0.63,0.048,0.775,-0.525,-13.405,0.647
49976260,-0.595,0.062,0.783,1.207,-13.86,0.892
49976270,-0.567,0.08,0.788,2.222,-13.405,1.61
49976280,-0.541,0.093,0.788,2.502,-10.762,2.625
49976290,-0.522,0.095,0.786,2.012,-7,3.465
49976300,-0.513,0.093,0.783,2.152,-1.487,4.637
49976310,-0.517,0.101,0.794,1.995,4.077,5.092
49976320,-0.531,0.105,0.804,0.752,9.887,4.392
49976330,-0.569,0.099,0.808,-1.592,14.647,2.975
49976340,-0.608,0.084,0.796,-4.182,17.395,1.785
49976350,-0.64,0.056,0.769,-4.742,17.377,2.362
49976360,-0.668,0.038,0.753,-2.835,14.455,3.815
49976370,-0.683,0.032,0.744,0.175,10.675,4.637
49976380,-0.695,0.029,0.744,2.922,6.212,4.62
49976390,-0.694,0.025,0.757,5.74,2.432,4.952
49976390,-0.692,0.034,0.781,8.662,-1.592,5.652
49976410,-0.672,0.054,0.784,9.887,-5.302,5.722
49976410,-0.636,0.071,0.78,10.99,-8.242,5.11
49976420,-0.613,0.082,0.774,10.29,-9.537,5.092
49976430,-0.596,0.088,0.771,9.66,-10.325,4.865
49976440,-0.59,0.093,0.776,8.855,-9.852,5.04
49976450,-0.595,0.105,0.78,6.807,-9.66,4.27
49976460,-0.601,0.106,0.786,3.412,-8.82,2.712
49976470,-0.612,0.087,0.786,0.962,-7.997,2.24
49976480,-0.637,0.082,0.781,0.472,-7.822,3.22
49976490,-0.639,0.088,0.774,-0.105,-9.31,3.972
49976500,-0.598,0.071,0.798,0.42,-7.805,4.042
49976510,-0.57,0.05,0.797,1.767,-1.452,6.23
49976520,-0.641,0.084,0.787,4.112,1.995,8.295
49976530,-0.663,0.127,0.79,5.022,-2.065,7.77
49976540,-0.619,0.117,0.787,4.322,-6.72,6.877
49976550,-0.577,0.094,0.798,3.412,-8.067,5.442
49976560,-0.562,0.093,0.804,1.942,-4.007,4.812
49976570,-0.569,0.097,0.812,0.455,1.592,5.46
49976580,-0.577,0.091,0.803,-1.645,6.562,6.3
49976590,-0.58,0.083,0.792,-1.697,10.115,5.932
49976600,-0.578,0.082,0.782,-1.085,13.527,5.302
49976610,-0.599,0.079,0.771,-0.385,16.1,4.41
49976620,-0.614,0.072,0.754,0.437,17.885,2.887
49976630,-0.635,0.063,0.746,1.68,17.99,1.89
49976640,-0.665,0.065,0.743,3.22,15.575,1.61
49976650,-0.688,0.071,0.74,4.742,10.867,0.98
49976660,-0.695,0.077,0.743,6.072,5.092,-0.997
49976670,-0.677,0.09,0.744,7.332,-0.455,-3.64
49976680,-0.67,0.101,0.756,9.432,-5.25,-3.675
49976690,-0.663,0.12,0.768,9.922,-8.872,-2.572
49976700,-0.65,0.141,0.78,7.682,-11.235,-1.627
49976710,-0.637,0.145,0.789,4.637,-12.6,-0.997
49976720,-0.632,0.132,0.79,2.712,-13.3,0.297
49976730,-0.62,0.128,0.789,1.767,-12.792,2.17
49976740,-0.608,0.133,0.79,2.1,-11.095,2.677
49976750,-0.618,0.13,0.789,2.345,-8.54,2.31
49976760,-0.629,0.128,0.786,1.995,-7.332,0.962
49976760,-0.625,0.128,0.781,1.872,-6.65,-0.35
49976780,-0.625,0.118,0.773,1.942,-6.86,-0.735
49976780,-0.623,0.109,0.772,1.767,-6.615,-1.05
49976800,-0.622,0.103,0.773,1.662,-6.667,-1.732
49976800,-0.616,0.102,0.779,1.172,-6.16,-1.54
49976820,-0.619,0.096,0.781,0.577,-6.335,-0.262
49976820,-0.611,0.099,0.779,-0.105,-5.967,0.822
49976830,-0.601,0.103,0.777,-1.085,-5.792,1.505
49976840,-0.599,0.097,0.778,-2.362,-4.462,1.575
49976850,-0.606,0.087,0.778,-2.887,-3.71,1.032
49976860,-0.61,0.087,0.778,-2.607,-2.8,0.787
49976870,-0.614,0.092,0.775,-2.187,-3.027,0.962
49976880,-0.617,0.097,0.772,-1.96,-2.852,1.295
49976890,-0.619,0.099,0.772,-2.082,-3.377,1.575
49976900,-0.619,0.098,0.774,-2.555,-3.255,1.907
49976910,-0.619,0.094,0.778,-2.87,-3.36,1.96
49976920,-0.618,0.093,0.78,-2.432,-2.852,1.942
49976930,-0.622,0.094,0.78,-1.382,-2.975,1.907
49976940,-0.624,0.099,0.776,-0.21,-3.08,1.767
49976950,-0.617,0.109,0.778,0.717,-3.272,1.487
49976960,-0.618,0.108,0.781,0.665,-3.185,1.54
49976970,-0.62,0.102,0.778,0.525,-2.747,1.365
49976980,-0.621,0.099,0.777,0.945,-2.415,0.56
49976990,-0.613,0.101,0.774,1.365,-2.082,-0.262
49977000,-0.61,0.1,0.77,2.152,-1.102,-0.157
49977010,-0.615,0.099,0.773,2.59,-0.28,-0.087
49977020,-0.612,0.097,0.771,2.292,0.49,-0.682
49977030,-0.604,0.097,0.772,2.572,1.505,-0.77
49977040,-0.608,0.101,0.778,2.835,2.537,0.7
49977050,-0.618,0.111,0.78,2.17,2.992,2.17
49977060,-0.625,0.113,0.78,0.927,2.345,2.712
49977070,-0.623,0.11,0.774,-0.28,1.452,2.765
49977080,-0.629,0.106,0.771,-0.595,-0.035,3.062
49977080,-0.638,0.103,0.77,-0.157,-1.715,3.535
49977100,-0.641,0.101,0.772,0.822,-3.727,3.78
49977100,-0.644,0.102,0.772,1.785,-5.215,4.217
49977120,-0.647,0.101,0.772,2.607,-6.877,4.917
49977120,-0.643,0.1,0.769,3.552,-8.032,5.547
49977140,-0.633,0.105,0.764,4.812,-9.117,6.107
49977140,-0.623,0.112,0.767,5.74,-9.17,6.737
49977160,-0.616,0.116,0.766,5.88,-9.012,6.702
49977160,-0.611,0.116,0.774,5.897,-7.577,5.95
49977170,-0.615,0.112,0.775,5.967,-6.37,4.76
49977180,-0.616,0.11,0.777,7,-4.515,3.815
49977190,-0.625,0.115,0.785,8.925,-4.077,3.867
49977200,-0.641,0.123,0.788,9.975,-5.232,4.76
49977210,-0.649,0.117,0.799,11.62,-8.312,5.407
49977220,-0.659,0.091,0.809,13.772,-13.58,5.705
49977230,-0.638,0.101,0.79,19.267,-21.14,6.737
49977240,-0.62,0.134,0.801,25.637,-24.675,8.05
49977250,-0.606,0.163,0.79,26.25,-28.35,5.005
49977260,-0.551,0.184,0.764,23.537,-28.857,0.507
49977270,-0.527,0.195,0.771,19.302,-25.567,-1.505
49977280,-0.549,0.201,0.774,10.342,-19.88,-3.307
49977290,-0.551,0.197,0.771,0.945,-13.685,-5.197
49977300,-0.566,0.172,0.772,-7.087,-6.265,-5.39
49977310,-0.61,0.138,0.763,-13.72,-1.942,-5.022
49977320,-0.648,0.109,0.76,-16.45,-1.33,-4.235
49977330,-0.656,0.101,0.763,-15.242,-5.355,-2.187
49977340,-0.646,0.113,0.769,-12.197,-11.497,0.035
49977350,-0.616,0.126,0.776,-9.677,-16.765,0.91
49977360,-0.592,0.137,0.778,-9.432,-20.142,0.052
49977370,-0.574,0.127,0.781,-10.15,-21.7,-0.262
49977380,-0.587,0.109,0.8,-9.87,-21.98,0.35
49977390,-0.579,0.111,0.812,-9.257,-22.487,-0.227
49977400,-0.55,0.118,0.825,-7,-21.437,-0.227
49977410,-0.549,0.125,0.839,-3.902,-18.917,0.7
49977420,-0.559,0.129,0.834,-3.062,-16.975,0.77
49977430,-0.539,0.128,0.826,-2.66,-14.49,0.262
49977440,-0.538,0.132,0.817,-1.452,-11.55,0.525
49977450,-0.551,0.135,0.813,-1.295,-8.697,0.192
49977460,-0.563,0.131,0.815,-0.892,-6.615,-1.207
49977470,-0.589,0.129,0.809,-0.262,-6.3,-2.065
49977480,-0.608,0.117,0.819,0.087,-8.855,-2.467
49977490,-0.594,0.112,0.804,2.187,-13.335,-3.43
49977500,-0.552,0.114,0.808,4.637,-16.765,-4.287
49977510,-0.542,0.118,0.814,5.862,-16.572,-4.392
49977510,-0.553,0.122,0.823,6.422,-14.63,-4.76
49977530,-0.553,0.119,0.827,6.352,-11.62,-4.847
49977530,-0.555,0.12,0.825,6.912,-9.415,-4.567
49977550,-0.547,0.128,0.826,7.105,-7.035,-4.532
49977550,-0.547,0.138,0.811,6.475,-5.18,-5.442
49977570,-0.573,0.137,0.808,3.22,-4.077,-5.757
49977570,-0.574,0.137,0.802,1.96,-3.622,-5.932
49977580,-0.561,0.136,0.808,2.012,-4.882,-4.725
49977590,-0.574,0.126,0.805,0.035,-6.492,-2.835
49977600,-0.576,0.116,0.814,-0.577,-7.157,-2.24
49977610,-0.547,0.111,0.813,1.155,-7.927,-2.327
49977620,-0.542,0.118,0.811,2.695,-7.192,-1.75
49977630,-0.556,0.137,0.81,2.345,-6.667,-1.207
49977640,-0.575,0.129,0.819,0.56,-7.017,-0.647
49977650,-0.554,0.12,0.81,0.49,-7.822,-0.472
49977660,-0.551,0.126,0.818,0.367,-7.682,0.245
49977670,-0.55,0.132,0.823,-0.122,-8.032,-0.175
49977680,-0.516,0.132,0.829,-0.542,-6.615,-0.857
49977690,-0.541,0.132,0.826,-1.592,-5.057,0.035
49977700,-0.555,0.121,0.832,-2.187,-5.827,0
49977710,-0.548,0.107,0.822,-1.715,-7.42,0.157
49977720,-0.533,0.112,0.825,-0.052,-7.56,0.105
49977730,-0.544,0.115,0.827,0.175,-6.44,-0.262
49977740,-0.554,0.12,0.814,1.015,-5.005,-1.102
49977750,-0.563,0.131,0.812,1.802,-5.81,-0.962
49977760,-0.559,0.14,0.814,1.68,-7.682,0.052
49977770,-0.551,0.135,0.821,0.56,-7.63,1.347
49977780,-0.574,0.114,0.824,-1.085,-6.912,2.187
49977790,-0.578,0.107,0.822,-0.542,-8.172,1.907
49977800,-0.554,0.116,0.816,1.295,-10.85,2.485
49977810,-0.536,0.125,0.817,2.905,-12.407,3.097
49977820,-0.526,0.129,0.822,3.185,-12.302,2.362
49977830,-0.528,0.129,0.828,2.8,-10.885,1.732
49977830,-0.538,0.129,0.832,2.17,-10.202,1.96
49977850,-0.537,0.13,0.833,1.96,-9.922,2.117
49977850,-0.528,0.131,0.831,1.855,-9.607,1.75
49977870,-0.526,0.134,0.83,1.96,-8.557,1.732
49977870,-0.526,0.14,0.831,1.61,-7.822,1.837
49977890,-0.524,0.144,0.831,0.857,-6.772,1.715
49977890,-0.525,0.143,0.832,0.087,-6.142,1.61
49977910,-0.535,0.143,0.831,-0.56,-5.18,1.452
49977910,-0.541,0.142,0.83,-0.962,-5.197,1.102
49977920,-0.538,0.14,0.829,-1.067,-5.005,0.91
49977930,-0.537,0.142,0.83,-1.12,-5.232,0.962
49977940,-0.534,0.142,0.829,-1.82,-4.987,1.085
49977950,-0.537,0.137,0.828,-2.327,-5.215,1.102
49977960,-0.532,0.135,0.829,-2.66,-4.672,0.647
49977970,-0.535,0.127,0.825,-2.852,-5.162,0.07
49977980,-0.531,0.126,0.829,-1.925,-5.18,0.577
49977990,-0.536,0.129,0.837,-1.435,-6.142,1.277
49978000,-0.526,0.126,0.838,-1.627,-5.827,0.84
49978010,-0.523,0.129,0.835,-1.207,-5.792,0.682
49978020,-0.525,0.13,0.838,-1.26,-5.547,1.242
49978030,-0.527,0.128,0.835,-1.435,-5.215,0.857
49978040,-0.526,0.129,0.836,-1.715,-4.2,0.262
49978050,-0.531,0.124,0.831,-1.89,-3.937,0.385
49978060,-0.535,0.121,0.83,-1.4,-3.762,0.857
49978070,-0.54,0.12,0.831,-0.787,-4.112,1.295
49978080,-0.538,0.117,0.825,-0.455,-4.672,1.295
49978090,-0.531,0.118,0.824,0.262,-5.285,1.242
49978100,-0.533,0.12,0.827,0.805,-5.582,1.47
49978110,-0.529,0.124,0.829,1.137,-5.845,1.33
49978120,-0.529,0.125,0.833,1.487,-5.845,1.312
49978130,-0.53,0.13,0.836,1.715,-5.897,1.452
49978140,-0.526,0.136,0.838,1.837,-5.81,1.505
49978150,-0.52,0.137,0.84,1.645,-5.53,1.4
49978160,-0.517,0.138,0.838,1.435,-4.917,1.207
49978170,-0.516,0.138,0.838,0.91,-4.095,0.962
49978180,-0.521,0.134,0.838,0.332,-3.57,0.665
49978190,-0.526,0.132,0.841,0.192,-3.395,0.437
49978200,-0.523,0.131,0.842,0.332,-3.535,0.77
49978210,-0.516,0.13,0.847,0.595,-3.465,1.295
49978220,-0.505,0.135,0.851,0.542,-3.447,1.662
49978230,-0.492,0.141,0.853,0.175,-1.907,1.907
49978240,-0.477,0.147,0.856,-0.91,0.682,1.522
49978250,-0.467,0.151,0.866,-2.87,4.392,1.365
49978260,-0.472,0.151,0.877,-5.162,7.892,2.222
49978260,-0.498,0.142,0.88,-7.542,11.48,2.73
49978280,-0.503,0.133,0.876,-9.257,14.805,1.837
49978280,-0.512,0.126,0.866,-10.045,18.9,0.997
49978300,-0.512,0.128,0.859,-10.15,22.4,0.472
49978300,-0.508,0.131,0.855,-10.412,26.145,0.805
49978320,-0.425,0.107,0.842,-11.97,34.352,3.815
49978320,-0.498,0.106,0.83,-9.572,48.475,8.26
49978330,-0.605,0.15,0.839,-8.82,52.57,4.847
49978340,-0.613,0.16,0.806,-13.055,49.507,0.577
49978350,-0.597,0.108,0.777,-13.475,43.977,1.085
49978360,-0.568,0.045,0.772,-7.052,42.28,0.577
49978370,-0.611,0.067,0.772,2.31,40.74,-2.835
49978380,-0.636,0.071,0.779,7.77,37.222,-5.04
49978390,-0.674,0.075,0.804,16.117,30.152,-7.35
49978400,-0.701,0.104,0.799,24.115,15.75,-8.697
49978410,-0.676,0.114,0.796,31.99,0.752,-10.115
49978420,-0.605,0.14,0.792,37.887,-8.837,-16.1
49978430,-0.591,0.148,0.802,42.472,-12.705,-21.35
49978440,-0.58,0.167,0.805,43.697,-11.095,-27.737
49978450,-0.565,0.186,0.823,44.327,-6.72,-33.932
49978460,-0.553,0.206,0.813,41.807,-0.402,-37.432
49978470,-0.575,0.198,0.806,40.53,5.81,-36.785
49978480,-0.601,0.207,0.794,36.155,11.515,-40.075
49978490,-0.6,0.212,0.768,32.007,14.857,-46.935
49978500,-0.647,0.203,0.774,33.95,17.097,-50.435
49978510,-0.693,0.188,0.772,33.355,15.995,-52.552
49978520,-0.702,0.171,0.759,32.095,13.335,-52.71
49978530,-0.706,0.172,0.747,28.735,8.225,-53.637
49978540,-0.744,0.157,0.745,26.145,1.592,-51.205
49978550,-0.751,0.149,0.732,23.397,-5.477,-53.637
49978560,-0.751,0.141,0.723,21.91,-13.23,-57.575
49978570,-0.747,0.14,0.715,20.667,-21.105,-60.69
49978580,-0.725,0.14,0.718,19.197,-28.997,-60.987
49978580,-0.678,0.155,0.72,15.82,-34.632,-59.325
49978600,-0.654,0.141,0.727,11.2,-37.432,-55.072
49978600,-0.618,0.15,0.733,4.97,-36.75,-50.977
49978620,-0.616,0.137,0.75,-0.857,-34.492,-45.36
49978620,-0.621,0.124,0.747,-5.495,-31.517,-40.25
49978640,-0.594,0.128,0.77,-7.21,-29.417,-37.485
49978640,-0.575,0.126,0.763,-9.502,-27.755,-35.245
49978660,-0.577,0.106,0.766,-10.622,-26.005,-33.775
49978660,-0.571,0.089,0.784,-9.275,-24.955,-33.337
49978670,-0.565,0.076,0.805,-6.86,-25.445,-32.812
49978680,-0.555,0.058,0.819,-4.725,-24.92,-32.41
49978690,-0.535,0.041,0.836,-2.047,-23.38,-33.25
49978700,-0.513,0.043,0.855,0.157,-19.477,-33.757
49978710,-0.508,0.043,0.866,2.187,-15.312,-31.99
49978720,-0.502,0.026,0.866,4.515,-9.572,-28.087
49978730,-0.485,0.018,0.862,7.577,-3.097,-24.045
49978740,-0.49,0.016,0.854,10.622,4.55,-19.915
49978750,-0.504,0.012,0.839,13.23,11.847,-16.835
49978760,-0.518,0.012,0.819,15.522,18.812,-14.98
49978770,-0.519,0.021,0.804,17.885,24.377,-13.65
49978780,-0.537,0.033,0.795,20.055,29.19,-11.427
49978790,-0.555,0.046,0.786,20.965,32.602,-9.485
49978800,-0.561,0.056,0.774,20.44,35.875,-7.682
49978810,-0.564,0.063,0.759,18.48,39.305,-5.932
49978820,-0.564,0.072,0.738,15.435,44.642,-4.742
49978830,-0.568,0.079,0.722,12.46,51.852,-3.867
49978840,-0.564,0.1,0.707,9.677,61.53,-2.747
49978850,-0.572,0.125,0.699,6.317,72.765,-0.927
49978860,-0.592,0.145,0.7,-0.297,84.402,0.682
49978870,-0.605,0.158,0.694,-10.29,98.035,1.137
49978880,-0.625,0.163,0.688,-22.312,112.262,1.26
49978890,-0.669,0.142,0.672,-35.175,125.16,1.732
49978900,-0.721,0.109,0.656,-47.18,135.17,1.697
49978910,-0.781,0.081,0.627,-56.717,140.245,2.73
49978920,-0.838,0.051,0.612,-59.29,138.775,5.355
49978930,-0.885,0.04,0.595,-60.725,131.705,9.992
49978940,-0.892,0.035,0.573,-63.07,120.12,14.07
49978950,-0.911,0.011,0.552,-62.912,107.45,21.035
49978960,-0.933,-0.021,0.537,-61.81,93.292,29.4
49978970,-0.936,-0.038,0.525,-58.992,79.695,35.297
49978980,-0.926,-0.043,0.519,-54.617,66.937,39.095
49978990,-0.927,-0.042,0.524,-49.63,54.74,42.577
49979000,-0.931,-0.033,0.524,-44.642,41.772,43.977
49979010,-0.912,-0.02,0.528,-40.11,30.275,43.05
49979010,-0.891,-0.018,0.529,-35.945,19.565,40.355
49979030,-0.86,0.025,0.555,-32.042,11.042,34.597
49979030,-0.86,0.036,0.561,-32.532,2.52,31.552
49979050,-0.861,0.018,0.555,-32.497,-6.545,29.837
49979050,-0.825,0.041,0.585,-30.485,-15.925,25.672
49979070,-0.823,0.044,0.573,-35.21,-24.71,23.502
49979070,-0.805,0.041,0.582,-36.435,-34.492,20.947
49979080,-0.786,0.034,0.571,-38.307,-42.595,20.877
49979090,-0.75,0.025,0.559,-39.375,-48.09,21.437
49979100,-0.704,0.013,0.546,-39.375,-47.32,20.755
49979110,-0.648,0.011,0.54,-39.515,-40.337,17.605
49979120,-0.623,0.016,0.543,-39.287,-27.352,15.995
49979130,-0.664,0.008,0.553,-35.595,-12.617,18.847
49979140,-0.704,0.036,0.593,-29.82,1.995,21.385
49979150,-0.829,-0.009,0.534,-24.902,10.64,31.062
49979160,-0.855,0.023,0.605,-10.692,13.72,33.81
49979170,-0.903,0.072,0.614,-12.67,12.967,29.767
49979180,-0.953,0.048,0.589,-14.945,8.19,26.232
49979190,-0.947,0.026,0.58,-11.602,0.77,22.032
49979200,-0.933,0.034,0.566,-10.605,-7.245,19.617
49979210,-0.93,0.038,0.56,-9.87,-14.507,16.45
49979220,-0.903,0.038,0.556,-8.12,-20.842,13.195
49979230,-0.88,0.046,0.562,-7.332,-26.757,12.075
49979240,-0.859,0.068,0.584,-6.93,-31.867,12.897
49979250,-0.865,0.084,0.605,-10.535,-36.05,23.135
49979260,-0.842,0.063,0.586,-19.6,-40.267,33.005
49979270,-0.825,0.011,0.594,-20.002,-43.347,37.362
49979280,-0.88,-0.024,0.615,-18.567,-48.912,38.237
49979290,-0.847,-0.079,0.615,-14.455,-61.495,34.51
49979300,-0.706,-0.044,0.639,-1.837,-65.222,24.5
49979310,-0.632,0.026,0.647,6.002,-65.082,20.212
49979320,-0.617,0.065,0.654,10.727,-58.292,22.575
49979330,-0.603,0.07,0.66,13.125,-47.425,27.667
49979330,-0.612,0.066,0.665,12.862,-36.697,33.722
49979350,-0.639,0.092,0.681,12.81,-26.81,38.867
49979350,-0.664,0.131,0.696,11.847,-19.022,41.23
49979370,-0.685,0.167,0.681,10.167,-12.302,39.917
49979370,-0.676,0.187,0.684,7.472,-6.02,35.997
49979390,-0.751,0.167,0.675,3.22,0.385,32.077
49979390,-0.826,0.141,0.661,2.065,-0.735,24.342
49979410,-0.862,0.146,0.657,3.43,-8.54,16.922
49979410,-0.83,0.131,0.624,6.58,-22.995,12.302
49979420,-0.742,0.149,0.632,12.95,-31.465,9.31
49979430,-0.744,0.175,0.655,17.692,-36.382,8.855
49979440,-0.748,0.187,0.681,17.727,-37.17,8.137
49979450,-0.75,0.185,0.701,14.647,-36.487,7.367
49979460,-0.759,0.186,0.713,8.277,-35.105,5.775
49979470,-0.674,0.161,0.718,1.12,-32.007,3.36
49979480,-0.641,0.119,0.719,0.997,-16.135,7.927
49979490,-0.792,0.157,0.759,5.495,-7.927,12.442
49979500,-0.846,0.171,0.749,2.292,-9.135,11.06
49979510,-0.808,0.134,0.702,1.872,-18.742,8.82
49979520,-0.767,0.118,0.671,5.652,-30.397,9.152
49979530,-0.729,0.146,0.661,11.025,-40.075,9.537
49979540,-0.653,0.187,0.678,12.267,-43.872,8.382
49979550,-0.622,0.199,0.683,8.837,-42,6.877
49979560,-0.617,0.201,0.681,3.64,-36.557,5.215
49979570,-0.597,0.169,0.721,-2.677,-29.697,5.617
49979580,-0.628,0.119,0.73,-5.232,-22.575,7.962
49979590,-0.648,0.142,0.76,-1.925,-19.162,6.44
49979600,-0.681,0.162,0.773,-3.517,-20.265,4.112
49979610,-0.698,0.138,0.749,-4.48,-24.885,3.955
49979620,-0.677,0.111,0.752,-0.07,-29.907,5.127
49979630,-0.681,0.096,0.744,4.41,-33.845,6.3
49979640,-0.675,0.106,0.744,10.692,-36.68,7.472
49979650,-0.677,0.118,0.757,16.712,-37.485,11.585
49979660,-0.708,0.128,0.759,19.582,-38.92,16.31
49979670,-0.71,0.166,0.759,18.707,-39.445,18.55
49979680,-0.676,0.198,0.75,14.665,-39.147,18.585
49979690,-0.613,0.216,0.732,9.537,-35.525,16.362
49979700,-0.566,0.221,0.705,3.71,-28.577,13.422
49979710,-0.556,0.234,0.71,-2.73,-19.932,10.797
49979720,-0.55,0.238,0.717,-10.115,-14.052,8.96
49979730,-0.538,0.238,0.725,-17.92,-8.75,7.787
49979740,-0.54,0.212,0.723,-25.917,-3.447,6.772
49979750,-0.56,0.178,0.743,-30.73,2.59,4.742
49979760,-0.594,0.17,0.776,-31.937,5.862,1.732
49979760,-0.634,0.157,0.809,-31.43,6.212,0.945
49979770,-0.665,0.122,0.816,-28.297,4.795,2.1
49979780,-0.677,0.104,0.823,-21.385,2.362,2.957
49979790,-0.701,0.118,0.833,-13.195,-3.132,3.885
49979800,-0.698,0.143,0.833,-6.457,-8.96,4.567
49979810,-0.653,0.171,0.809,-2.905,-14,3.377
49979820,-0.613,0.172,0.788,-1.33,-15.557,2.17
49979830,-0.597,0.182,0.764,0.437,-16.1,2.747
49979840,-0.563,0.199,0.756,0.612,-15.032,4.2
49979850,-0.538,0.186,0.746,-0.857,-11.147,4.287
49979860,-0.535,0.167,0.742,-2.782,-4.637,2.66
49979870,-0.546,0.165,0.752,-3.692,1.015,0.472
49979880,-0.597,0.153,0.766,-2.852,4.042,-0.787
49979890,-0.614,0.166,0.769,-1.067,3.115,-2.345
49979900,-0.608,0.18,0.764,0.857,2.502,-2.555
49979910,-0.663,0.163,0.749,1.4,2.8,-3.71
49979920,-0.692,0.151,0.745,0.507,0.052,-7
49979930,-0.684,0.162,0.74,0.297,-4.655,-6.44
49979940,-0.683,0.172,0.757,-1.19,-8.4,-4.217
49979950,-0.687,0.196,0.742,-5.337,-12.915,-3.92
49979960,-0.758,0.192,0.779,-11.235,-15.505,-1.487
49979970,-0.77,0.078,0.757,-20.737,-24.027,8.452
49979980,-0.485,0.049,0.799,-9.205,-39.13,6.125
49979990,-0.349,0.037,0.828,-8.015,-19.985,13.037
49980000,-0.681,0.09,0.811,-7.507,-5.722,15.942
49980010,-0.626,0.176,0.779,-6.475,-4.305,10.132
49980020,-0.516,0.13,0.732,-6.002,-6.072,7.595
49980030,-0.526,0.105,0.713,-6.475,-1.365,7.087
49980040,-0.558,0.132,0.732,-7.507,5.897,5.635
49980050,-0.592,0.137,0.757,-11.445,11.935,-0.14
49980060,-0.643,0.117,0.772,-13.317,11.76,-2.52
49980070,-0.645,0.128,0.79,-12.582,8.347,-0.472
49980080,-0.658,0.132,0.803,-12.845,5.18,2.327
49980080,-0.681,0.116,0.791,-14.49,2.432,3.272
49980100,-0.696,0.088,0.779,-13.44,-3.482,4.305
49980100,-0.672,0.1,0.766,-7.035,-9.485,6.772
49980120,-0.657,0.125,0.757,-2.38,-14.472,7.192
49980120,-0.655,0.137,0.754,0.227,-17.587,5.11
49980140,-0.663,0.151,0.769,1.015,-21.367,2.94
49980140,-0.64,0.139,0.765,0.735,-24.482,1.82
49980160,-0.632,0.125,0.763,1.872,-28.49,2.887
49980160,-0.618,0.137,0.779,3.325,-31.92,5.285
49980170,-0.612,0.122,0.776,3.797,-34.58,7.402
49980180,-0.646,0.083,0.772,6.125,-39.392,11.025
49980190,-0.627,0.114,0.792,14.332,-42.752,16.905
49980200,-0.618,0.124,0.811,14.945,-44.03,18.462
49980210,-0.581,0.135,0.826,15.155,-43.522,17.325
49980220,-0.662,0.158,0.88,12.862,-39.742,23.012
49980230,-0.613,0.149,0.846,9.677,-41.965,22.82
49980240,-0.466,0.191,0.825,12.74,-40.617,17.08
49980250,-0.498,0.213,0.805,9.082,-38.412,15.242
49980260,-0.458,0.204,0.782,5.792,-34.685,11.847
49980270,-0.477,0.187,0.78,6.107,-30.485,9.747
49980280,-0.493,0.17,0.796,5.722,-28.367,8.662
49980290,-0.48,0.196,0.826,9.117,-27.16,5.355
49980300,-0.527,0.193,0.843,7.682,-28.157,6.195
49980310,-0.51,0.196,0.86,10.237,-29.82,8.33
49980320,-0.457,0.228,0.872,13.457,-28.752,8.452
49980330,-0.483,0.211,0.854,10.202,-26.652,8.19
49980340,-0.463,0.23,0.792,8.295,-21.77,7.84
49980350,-0.7,0.13,0.701,-2.747,-37.957,8.505
49980360,-0.242,-0.114,0.807,-3.657,-28.175,9.502
49980370,-0.584,0.305,0.994,23.38,-20.247,7.052
49980380,-0.62,0.293,0.866,3.64,-24.185,3.99
49980390,-0.492,0.1,0.8,6.492,-29.715,-0.14
49980400,-0.411,0.177,0.826,12.88,-28.682,2.415
49980410,-0.453,0.266,0.887,13.282,-23.887,2.835
49980420,-0.407,0.256,0.917,9.1,-17.395,-1.155
49980430,-0.351,0.225,0.914,4.34,-10.237,-3.535
49980440,-0.32,0.235,0.919,2.922,-1.19,-3.185
49980440,-0.292,0.237,0.913,1.26,11.357,-3.115
49980460,-0.265,0.233,0.9,0.437,26.355,-4.707
49980460,-0.283,0.22,0.884,0.07,42.805,-4.287
49980480,-0.355,0.226,0.876,-0.14,55.072,-2.52
49980480,-0.415,0.244,0.875,-1.365,63.857,-2.625
49980500,-0.498,0.252,0.879,-3.237,69.09,-5.04
49980500,-0.541,0.218,0.887,-5.565,72.485,-9.1
49980510,-0.583,0.191,0.921,-5.372,72.642,-13.44
49980520,-0.637,0.245,0.909,-1.382,67.497,-13.562
49980530,-0.677,0.234,0.858,2.1,60.042,-9.905
49980540,-0.438,0.167,0.895,1.522,62.23,-9.222
49980550,-0.471,0.224,0.876,5.897,92.4,-4.042
49980560,-0.733,0.273,0.9,9.887,102.707,-10.167
49980570,-0.785,0.221,0.862,6.265,94.587,-15.627
49980580,-0.716,0.094,0.811,11.392,82.127,-8.89
49980590,-0.653,0.131,0.817,30.8,75.775,-4.55
49980600,-0.738,0.236,0.83,46.217,69.405,-6.51
49980610,-0.829,0.272,0.817,52.675,56.122,-12.04
49980620,-0.831,0.264,0.79,56.997,38.587,-19.652
49980630,-0.827,0.284,0.756,59.797,17.482,-27.335
49980640,-0.831,0.325,0.735,60.672,-3.867,-35.962
49980650,-0.801,0.364,0.687,58.275,-24.185,-47.197
49980660,-0.769,0.398,0.664,54.092,-43.26,-59.045
49980670,-0.771,0.431,0.641,45.307,-62.58,-70.367
49980680,-0.816,0.445,0.638,32.865,-84.455,-80.85
49980690,-0.827,0.462,0.639,15.68,-109.76,-90.58
49980700,-0.843,0.463,0.661,-7.14,-138.267,-96.915
49980710,-0.841,0.45,0.657,-35.682,-167.947,-101.815
49980720,-0.776,0.437,0.668,-68.32,-193.9,-105.962
49980730,-0.673,0.404,0.674,-106.382,-212.275,-107.065
49980740,-0.52,0.342,0.678,-143.64,-216.597,-106.855
49980750,-0.367,0.26,0.653,-178.99,-206.255,-104.09
49980760,-0.244,0.134,0.671,-201.757,-183.872,-101.762
49980770,-0.217,0.025,0.682,-213.955,-155.89,-92.015
49980780,-0.278,-0.078,0.665,-213.657,-130.182,-77.035
49980790,-0.295,-0.159,0.673,-196.927,-107.852,-56.77
49980800,-0.324,-0.232,0.671,-174.37,-90.51,-30.38
49980810,-0.373,-0.209,0.725,-153.86,-80.745,-7.262
49980820,-0.446,-0.184,0.783,-143.15,-78.942,10.15
49980830,-0.495,-0.258,0.687,-142.537,-79.467,21.91
49980830,-0.415,-0.441,0.774,-97.492,-81.742,20.3
49980850,-0.358,-0.272,0.817,-87.85,-78.627,30.555
49980850,-0.344,-0.264,0.79,-91.577,-73.22,42.227
49980870,-0.302,-0.299,0.782,-91.612,-58.817,38.185
49980870,-0.339,-0.38,0.785,-84.822,-48.405,30.607
49980890,-0.365,-0.408,0.795,-72.59,-44.31,25.655
49980890,-0.363,-0.363,0.823,-58.52,-46.41,22.47
49980910,-0.35,-0.325,0.845,-48.755,-52.307,19.635
49980910,-0.34,-0.335,0.852,-41.615,-60.13,14.682
49980920,-0.328,-0.374,0.845,-35.577,-68.267,6.685
49980930,-0.264,-0.377,0.854,-27.93,-73.78,-5.547
49980940,-0.249,-0.374,0.875,-21.035,-77.647,-18.55
49980950,-0.128,-0.391,0.93,-16.1,-80.237,-30.572
49980960,0.03,-0.435,0.933,-10.675,-68.897,-33.005
49980970,0.02,-0.463,0.968,0.437,-51.625,-27.982
49980980,0.099,-0.528,0.985,10.64,-35.017,-21.892
49980990,-0.001,-0.453,1.029,20.912,-17.867,-8.872
49981000,-0.122,-0.381,1.057,29.015,-8.225,3.307
49981010,-0.133,-0.426,1.041,28.28,-11.182,10.85
49981020,-0.081,-0.448,1.015,26.46,-12.512,15.032
49981030,-0.054,-0.463,0.993,27.72,-8.872,14.087
49981040,-0.065,-0.414,0.986,30.257,-1.102,10.64
49981050,-0.097,-0.397,1.012,34.44,6.212,8.12
49981060,-0.045,-0.412,1.004,35.77,13.545,6.79
49981070,0.031,-0.447,0.974,39.812,30.782,9.835
49981080,-0.028,-0.406,0.986,46.777,53.007,17.43
49981090,-0.114,-0.361,0.997,53.48,72.87,24.745
49981100,-0.227,-0.325,1.002,55.16,85.522,32.252
49981110,-0.341,-0.327,0.97,60.515,88.847,37.327
49981120,-0.327,-0.263,0.967,64.295,89.862,30.187
49981130,-0.348,-0.226,0.937,61.197,89.162,22.732
49981140,-0.42,-0.237,0.903,62.65,85.435,24.5
49981150,-0.427,-0.234,0.875,64.19,81.287,24.587
49981160,-0.389,-0.147,0.869,62.842,78.05,22.295
49981170,-0.399,-0.1,0.857,58.012,74.445,24.692
49981170,-0.403,-0.086,0.832,52.955,71.96,32.532
49981190,-0.389,-0.055,0.831,48.895,71.925,42.875
49981190,-0.391,-0.045,0.804,42.962,73.727,52.045
49981210,-0.377,-0.023,0.8,40.582,79.292,60.48
49981210,-0.405,-0.014,0.825,36.12,86.24,70.7
49981230,-0.496,0.007,0.811,22.715,89.145,78.26
49981230,-0.481,0.007,0.772,11.077,92.4,78.767
49981250,-0.488,-0.013,0.743,5.197,95.725,80.202
49981250,-0.566,-0.012,0.722,3.167,94.78,81.585
49981260,-0.602,0.013,0.718,4.41,92.365,79.625
49981270,-0.625,0.048,0.711,3.85,88.672,75.652
49981280,-0.662,0.068,0.712,-0.63,83.545,68.722
49981290,-0.699,0.064,0.713,-5.162,74.917,59.78
49981300,-0.73,0.057,0.723,-8.365,61.67,50.557
49981310,-0.749,0.04,0.745,-7.14,41.65,45.885
49981320,-0.703,0.05,0.761,-5.075,21.087,40.95
49981330,-0.644,0.062,0.779,-2.852,3.692,37.205
49981340,-0.588,0.056,0.783,-2.152,-8.155,35.787
49981350,-0.52,0.044,0.78,0.105,-12.6,35.997
49981360,-0.437,0.07,0.803,3.08,-7.77,35.052
49981370,-0.393,0.091,0.833,3.045,3.675,35.122
49981380,-0.391,0.076,0.845,1.452,19.477,36.137
49981390,-0.406,0.091,0.851,4.357,35.962,35.98
49981400,-0.532,0.108,0.88,0.927,47.337,35.385
49981410,-0.678,0.084,0.863,-6.02,45.587,28.612
49981420,-0.69,0.068,0.84,-7.367,34.212,17.36
49981430,-0.681,0.061,0.81,-6.107,17.955,11.935
49981440,-0.661,0.046,0.807,-2.957,2.8,8.732
49981450,-0.597,0.037,0.796,1.662,-6.58,5.057
49981460,-0.518,0.06,0.807,5.862,-8.295,3.447
49981470,-0.56,0.078,0.818,6.02,-4.392,3.587
49981480,-0.621,0.066,0.819,2.992,-8.487,0.175
49981490,-0.575,0.028,0.791,2.747,-12.355,-1.207
49981500,-0.573,0.014,0.796,8.172,-16.117,1.61
49981510,-0.548,0.043,0.809,13.16,-16.642,2.765
49981520,-0.539,0.063,0.825,13.177,-14.14,2.152
49981530,-0.569,0.057,0.84,10.342,-11.69,0.402
49981540,-0.547,0.04,0.84,6.545,-9.327,0.017
49981550,-0.543,0.021,0.852,3.045,-6.947,3.43
49981560,-0.533,0.007,0.861,-0.385,-4.567,5.687
49981570,-0.514,-0.028,0.849,-3.412,-0.245,6.825
49981580,-0.582,-0.044,0.823,-1.592,3.342,8.435
49981580,-0.635,-0.004,0.81,0.7,-0.84,7.822
49981600,-0.544,-0.079,0.815,4.55,-4.375,4.445
49981600,-0.535,-0.06,0.784,14.07,-0.612,2.152
49981620,-0.577,-0.056,0.838,21.507,2.03,2.152
49981620,-0.632,-0.024,0.831,29.365,1.942,2.327
49981640,-0.638,-0.007,0.856,33.67,-3.132,5.827
49981640,-0.639,0.017,0.845,35.665,-9.362,9.73
49981660,-0.608,0.053,0.851,38.36,-12.74,10.85
49981660,-0.61,0.061,0.837,37.135,-12.6,11.637
49981670,-0.63,0.056,0.826,35,-13.37,11.62
49981680,-0.631,0.06,0.816,35.7,-15.102,11.83
49981690,-0.63,0.067,0.806,39.025,-18.69,13.282
49981700,-0.648,0.071,0.8,42.77,-24.185,14.332
49981710,-0.62,0.088,0.799,46.235,-29.82,12.32
49981720,-0.555,0.106,0.804,49.21,-31.692,9.03
49981730,-0.498,0.126,0.832,52.972,-28.525,5.442
49981740,-0.515,0.151,0.887,52.64,-24.85,3.08
49981750,-0.531,0.144,0.888,48.947,-23.152,2.117
49981760,-0.518,0.139,0.89,47.565,-21.35,-0.087
49981770,-0.534,0.147,0.896,44.345,-21.245,-1.33
49981780,-0.531,0.165,0.887,40.897,-21.665,-1.242
49981790,-0.605,0.163,0.857,35.805,-22.75,1.96
49981800,-0.666,0.155,0.827,32.725,-29.61,4.007
49981810,-0.589,0.145,0.816,35.332,-31.605,4.987
49981820,-0.63,0.175,0.831,37.94,-32.917,6.93
49981830,-0.704,0.189,0.835,31.167,-38.885,9.642
49981840,-0.683,0.172,0.813,24.657,-48.492,10.167
49981850,-0.575,0.189,0.797,20.772,-56.227,9.817
49981860,-0.536,0.208,0.787,14.682,-57.575,12.792
49981870,-0.548,0.198,0.765,8.365,-56.98,15.837
49981880,-0.502,0.172,0.745,7.175,-58.555,18.497
49981890,-0.455,0.16,0.729,10.482,-59.447,23.17
49981900,-0.456,0.185,0.722,13.195,-58.467,27.212
49981910,-0.487,0.178,0.692,10.797,-59.045,26.792
49981920,-0.4,0.09,0.726,16.327,-64.137,22.137
49981920,-0.284,0.103,0.8,35.28,-66.99,24.237
49981940,-0.257,0.173,0.822,46.357,-64.837,26.11
49981940,-0.251,0.226,0.891,47.915,-58.065,25.62
49981960,-0.227,0.189,0.901,48.3,-50.645,25.795
49981960,-0.223,0.189,0.931,53.69,-41.352,21.875
49981980,-0.266,0.228,0.913,53.06,-34.947,16.817
49981980,-0.291,0.271,0.886,48.947,-30.835,11.427
49982000,-0.356,0.264,0.806,40.582,-31.272,10.36
49982000,-0.435,0.221,0.752,32.305,-35.875,11.725
49982010,-0.368,0.17,0.737,30.065,-42.682,16.782
49982020,-0.274,0.218,0.799,38.535,-35.192,20.055
49982030,-0.344,0.283,0.872,42.192,-19.775,17.815
49982040,-0.504,0.315,0.909,35.332,-10.71,15.645
49982050,-0.517,0.33,0.92,32.217,-16.625,13.807
49982060,-0.41,0.372,0.969,32.97,-23.555,13.16
49982070,-0.41,0.394,0.99,28.91,-28.28,14.035
49982080,-0.428,0.408,1.008,23.432,-30.082,11.742
49982090,-0.437,0.43,0.997,17.57,-34.807,9.187
49982100,-0.394,0.425,0.945,11.025,-40.32,9.03
49982110,-0.275,0.371,0.895,9.73,-39.55,8.61
49982120,-0.267,0.36,0.883,11.935,-33.477,10.412
49982130,-0.266,0.387,0.868,12.582,-29.137,12.495
49982140,-0.195,0.392,0.851,12.495,-23.537,10.605
49982150,-0.14,0.373,0.828,10.5,-14.875,7.192
49982160,-0.109,0.365,0.822,8.365,-3.377,3.692
49982170,-0.114,0.352,0.838,6.02,9.24,1.19
49982180,-0.148,0.327,0.846,4.165,20.405,0.577
49982190,-0.191,0.323,0.845,3.867,28.805,1.785
49982200,-0.255,0.312,0.838,3.15,34.072,3.692
49982210,-0.325,0.292,0.829,3.185,36.365,5.145
49982220,-0.377,0.298,0.837,4.9,35.63,6.597
49982230,-0.423,0.301,0.849,6.597,32.935,7.98
49982240,-0.439,0.307,0.878,9.362,29.015,8.452
49982250,-0.451,0.343,0.902,12.232,23.87,8.977
49982260,-0.431,0.37,0.913,12.127,18.952,8.82
49982270,-0.426,0.351,0.906,10.412,15.487,8.225
49982280,-0.425,0.318,0.893,11.637,12.11,7.91
49982290,-0.421,0.35,0.867,16.135,7.822,8.785
49982300,-0.392,0.442,0.866,14.052,0.612,10.815
49982310,-0.377,0.381,0.818,10.045,-0.892,12.267
49982320,-0.372,0.418,0.847,14.157,-0.175,9.992
49982330,-0.382,0.454,0.855,11.725,-0.682,10.78
49982330,-0.349,0.444,0.879,8.627,-0.035,9.52
49982350,-0.338,0.439,0.904,5.162,3.307,8.33
49982350,-0.345,0.441,0.914,0.84,4.9,6.86
49982370,-0.298,0.432,0.897,-3.692,7.542,4.515
49982370,-0.27,0.403,0.866,-8.067,12.18,3.377
49982390,-0.286,0.378,0.841,-10.762,18.252,3.01
49982390,-0.317,0.369,0.827,-11.147,20.422,3.29
49982410,-0.314,0.366,0.818,-11.217,21.332,5.18
49982410,-0.301,0.355,0.826,-11.742,23.292,7.21
49982420,-0.388,0.323,0.812,-13.37,27.895,9.572
49982430,-0.479,0.317,0.792,-12.565,23.17,6.562
49982440,-0.396,0.344,0.795,-8.627,19.46,2.17
49982450,-0.417,0.326,0.812,-7.192,19.53,2.66
49982460,-0.425,0.338,0.84,-5.687,21.122,2.17
49982470,-0.422,0.366,0.871,-4.252,20.492,1.382
49982480,-0.399,0.353,0.88,-5.827,19.547,-0.122
49982490,-0.339,0.373,0.877,-7.017,20.212,-3.097
49982500,-0.374,0.37,0.855,-8.767,20.335,-3.85
49982510,-0.444,0.31,0.845,-10.185,19.635,-4.655
49982520,-0.521,0.301,0.843,-4.882,15.837,-7.63
49982530,-0.562,0.365,0.846,0.595,5.967,-10.027
49982540,-0.552,0.359,0.815,-0.56,-5.53,-8.33
49982550,-0.49,0.312,0.795,-0.595,-13.02,-6.842
49982560,-0.457,0.318,0.815,0.822,-16.1,-3.412
49982570,-0.437,0.334,0.847,0.35,-17.832,2.187
49982580,-0.412,0.356,0.858,-0.682,-18.182,6.51
49982590,-0.383,0.362,0.849,-2.345,-19.67,8.33
49982600,-0.289,0.373,0.831,-4.742,-18.917,7.98
49982610,-0.26,0.573,0.669,-10.815,-11.427,7.507
49982620,-0.43,0.223,0.714,-39.707,-12.845,11.882
49982630,-0.166,0.188,0.694,-12.652,3.185,1.207
49982640,-0.312,0.558,0.868,6.002,8.47,-0.98
49982650,-0.529,0.418,0.795,-20.405,7.367,3.447
49982660,-0.386,0.325,0.825,-14.752,11.165,-10.745
49982670,-0.371,0.299,0.887,-9.852,16.222,-8.54
49982670,-0.512,0.307,0.946,-3.832,20.195,-4.585
49982690,-0.629,0.373,1.006,-1.417,16.835,-6.615
49982690,-0.674,0.326,0.969,-6.562,1.96,-4.532
49982710,-0.625,0.252,0.904,-1.715,-13.65,-1.89
49982710,-0.577,0.269,0.86,7.367,-28.262,-0.7
49982730,-0.522,0.303,0.818,12.005,-39.165,0.77
49982730,-0.428,0.307,0.796,15.89,-44.345,3.395
49982750,-0.339,0.315,0.786,17.85,-44.712,5.022
49982750,-0.262,0.346,0.802,17.85,-41.265,4.76
49982760,-0.216,0.366,0.816,14.945,-33.477,4.392
49982770,-0.203,0.361,0.835,10.605,-23.66,3.622
49982780,-0.217,0.365,0.832,6.475,-13.702,3.185
49982790,-0.267,0.365,0.827,3.815,-5.145,3.552
49982800,-0.34,0.355,0.822,1.54,0.175,3.482
49982810,-0.395,0.344,0.84,0.437,1.977,2.257
49982820,-0.454,0.349,0.86,-0.262,0.682,1.417
49982830,-0.503,0.334,0.861,-1.242,-3.587,2.555
49982840,-0.544,0.31,0.856,0.42,-10.517,5.005
49982850,-0.486,0.329,0.847,4.515,-19.022,6.825
49982860,-0.383,0.368,0.833,8.085,-24.307,8.015
49982870,-0.296,0.384,0.797,7.98,-24.937,8.155
49982880,-0.248,0.387,0.787,6.702,-19.967,6.772
49982890,-0.248,0.383,0.821,3.482,-13.86,5.985
49982900,-0.262,0.39,0.868,0.77,-7.892,4.777
49982910,-0.288,0.383,0.894,-2.957,-2.817,3.85
49982920,-0.331,0.37,0.889,-5.512,0.647,2.485
49982930,-0.349,0.38,0.869,-7.192,1.925,0.98
49982940,-0.351,0.363,0.842,-8.155,1.802,1.19
49982950,-0.346,0.353,0.838,-6.405,3.08,0.77
49982960,-0.37,0.362,0.846,-4.935,3.797,0.35
49982970,-0.386,0.363,0.85,-4.637,3.517,0.577
49982980,-0.38,0.358,0.855,-4.41,3.85,-0.07
49982990,-0.384,0.347,0.848,-5.145,4.445,-0.945
49983000,-0.381,0.328,0.831,-5.022,4.62,-1.417
49983010,-0.389,0.321,0.816,-2.817,5.232,-1.382
49983020,-0.401,0.335,0.818,-0.472,4.935,-1.382
49983030,-0.406,0.343,0.837,1.89,4.042,-0.192
49983040,-0.388,0.364,0.866,4.305,2.852,0.91
49983050,-0.352,0.368,0.893,3.797,2.957,0.945
49983060,-0.297,0.356,0.896,2.345,6.37,-1.085
49983070,-0.304,0.326,0.877,-0.122,11.987,-3.167
49983080,-0.334,0.286,0.821,-0.682,16.555,-5.372
49983080,-0.35,0.294,0.794,2.275,19.88,-7.577
49983100,-0.399,0.296,0.773,4.182,20.02,-8.172
49983100,-0.461,0.302,0.777,6.615,17.955,-8.172
49983120,-0.494,0.317,0.8,9.625,12.32,-6.807
49983120,-0.508,0.333,0.839,12.232,4.287,-3.167
49983130,-0.459,0.366,0.878,14.157,-3.01,0.297
49983140,-0.394,0.391,0.898,12.425,-5.897,1.33
49983150,-0.352,0.397,0.899,8.155,-4.987,0.91
49983160,-0.336,0.4,0.883,5.32,-2.852,0.7
49983170,-0.303,0.415,0.867,4.042,0.035,1.155
49983180,-0.308,0.431,0.858,1.872,4.427,0.717
49983190,-0.33,0.425,0.85,-1.995,9.31,-1.732
49983200,-0.391,0.399,0.84,-4.83,12.39,-3.517
49983210,-0.461,0.385,0.835,-5.652,10.762,-3.57
49983220,-0.52,0.365,0.845,-5.232,3.675,-3.937
49983230,-0.303,0.338,0.808,-3.237,-3.22,-7.787
49983240,-0.409,0.373,0.831,-2.852,2.432,-4.095
49983250,-0.533,0.333,0.817,-6.195,2.887,-2.852
49983260,-0.449,0.332,0.829,-2.117,-0.857,-4.987
49983270,-0.426,0.322,0.806,-1.242,-5.32,-1.015
49983280,-0.44,0.334,0.799,-0.28,-6.125,0.63
49983290,-0.484,0.332,0.808,0.245,-7.612,1.89
49983300,-0.499,0.338,0.828,1.662,-12.005,3.832
49983310,-0.466,0.364,0.837,3.762,-16.257,4.917
49983320,-0.436,0.377,0.829,3.727,-19.425,6.247
49983330,-0.385,0.373,0.827,3.097,-19.985,7.402
49983340,-0.337,0.39,0.842,3.692,-18.077,7.315
49983350,-0.316,0.407,0.856,2.135,-13.615,5.617
49983360,-0.315,0.392,0.851,-0.262,-7.997,2.695
49983370,-0.343,0.373,0.842,-1.522,-2.677,1.295
49983380,-0.392,0.371,0.823,-1.925,-1.137,1.295
49983390,-0.396,0.37,0.817,-1.785,-0.192,1.452
49983400,-0.388,0.361,0.825,-1.995,0.892,1.032
49983410,-0.418,0.361,0.831,-2.975,1.592,-0.052
49983420,-0.444,0.352,0.838,-3.64,-0.542,-0.787
49983420,-0.453,0.341,0.841,-3.202,-4.182,-0.595
49983440,-0.449,0.336,0.84,-2.607,-9.17,-0.087
49983440,-0.44,0.336,0.84,-2.03,-13.265,0.735
49983460,-0.409,0.344,0.84,-1.137,-17.027,1.96
49983460,-0.375,0.356,0.842,-0.875,-18.147,3.167
49983480,-0.347,0.365,0.841,-1.767,-17.412,3.43
49983480,-0.346,0.357,0.833,-3.045,-14.945,3.57
49983500,-0.355,0.358,0.833,-3.57,-13.877,3.85
49983500,-0.367,0.374,0.85,-3.727,-14.28,4.322
49983510,-0.371,0.389,0.864,-5.32,-17.202,4.182
49983520,-0.381,0.394,0.841,-8.12,-20.002,3.185
49983530,-0.382,0.376,0.791,-10.972,-22.015,1.102
49983540,-0.375,0.337,0.748,-11.497,-20.002,0.35
49983550,-0.405,0.297,0.775,-7.437,-15.82,2.485
49983560,-0.464,0.309,0.847,1.417,-11.62,4.34
49983570,-0.531,0.356,0.898,8.4,-16.047,6.282
49983580,-0.517,0.351,0.887,12.162,-30.082,10.08
49983590,-0.343,0.356,0.878,18.025,-40.95,14.962
49983600,-0.249,0.382,0.891,20.86,-42.017,16.887
49983610,-0.186,0.426,0.886,16.94,-35.787,9.817
49983620,-0.165,0.425,0.865,11.602,-22.802,3.255
49983630,-0.241,0.384,0.851,6.667,-13.02,1.277
49983640,-0.27,0.367,0.851,3.972,-6.632,-0.332
49983650,-0.303,0.377,0.858,3.15,-1.767,-0.017
49983660,-0.347,0.374,0.862,1.19,0.892,0
49983670,-0.357,0.362,0.846,-1.067,1.575,-1.137
49983680,-0.366,0.363,0.85,-1.435,-0.332,-0.7
49983690,-0.356,0.368,0.853,-2.047,-2.66,0.245
49983700,-0.336,0.365,0.855,-3.027,-4.672,-0.21
49983710,-0.324,0.359,0.849,-4.445,-6.632,0.14
49983720,-0.296,0.363,0.853,-4.217,-7.56,1.242
49983730,-0.282,0.379,0.866,-3.64,-5.67,1.995
49983740,-0.288,0.388,0.867,-4.952,-2.817,1.715
49983750,-0.298,0.382,0.858,-6.37,0.98,1.225
49983760,-0.299,0.376,0.859,-6.475,3.972,0.945
49983770,-0.324,0.374,0.852,-6.615,6.475,1.032
49983780,-0.354,0.361,0.841,-7,6.475,0.682
49983790,-0.352,0.354,0.837,-6.16,6.772,0.542
49983800,-0.372,0.346,0.835,-4.812,5.057,1.102
49983810,-0.379,0.346,0.84,-3.325,3.36,1.487
49983820,-0.386,0.35,0.848,-1.312,0.84,1.172
49983820,-0.383,0.353,0.847,-0.455,-1.242,0.98
49983830,-0.376,0.358,0.847,0.717,-2.852,0.7
49983840,-0.367,0.369,0.848,1.452,-3.482,0.315
49983850,-0.353,0.381,0.851,1.172,-4.13,-0.28
49983860,-0.34,0.387,0.851,-0.105,-4.182,-0.735
49983870,-0.331,0.39,0.851,-1.61,-4.48,-0.857
49983880,-0.328,0.386,0.851,-2.905,-3.92,-0.927
49983890,-0.322,0.373,0.852,-3.885,-3.01,-1.697
49983900,-0.311,0.36,0.862,-3.43,0.367,-2.345
49983910,-0.336,0.366,0.872,-2.152,2.975,-2.292
49983920,-0.371,0.365,0.861,-2.38,3.062,-1.82
49983930,-0.363,0.354,0.84,-2.17,1.312,-1.697
49983940,-0.334,0.354,0.827,-1.837,0.822,-1.522
49983950,-0.338,0.359,0.826,-2.082,1.347,-1.26
49983960,-0.355,0.361,0.833,-3.167,1.68,-1.855
49983970,-0.358,0.363,0.834,-4.69,0.822,-2.31
49983980,-0.359,0.364,0.839,-5.985,-0.052,-1.96
49983990,-0.358,0.355,0.846,-7.297,-0.525,-2.152
49984000,-0.349,0.341,0.858,-6.982,-0.087,-2.59
49984010,-0.338,0.34,0.875,-4.165,2.275,-1.75
49984020,-0.356,0.355,0.887,-1.19,3.797,-0.227
49984030,-0.347,0.371,0.88,-0.297,4.235,0.21
49984040,-0.316,0.372,0.864,0.227,5.32,0.63
49984050,-0.287,0.373,0.85,0.385,8.662,1.382
49984060,-0.261,0.38,0.844,-0.07,14.507,1.767
49984070,-0.248,0.389,0.844,-1.645,23.152,1.137
49984080,-0.261,0.393,0.848,-5.127,32.007,-0.892
49984090,-0.314,0.388,0.856,-10.605,38.255,-4.095
49984100,-0.41,0.377,0.852,-16.835,37.485,-7.787
49984110,-0.458,0.359,0.841,-21.157,32.532,-10.062
49984120,-0.466,0.327,0.829,-21.595,26.652,-8.942
49984130,-0.481,0.298,0.815,-19.197,22.505,-6.597
49984140,-0.478,0.305,0.813,-15.032,19.372,-5.565
49984150,-0.455,0.314,0.808,-12.407,17.657,-4.182
49984160,-0.425,0.302,0.803,-9.852,17.43,-3.587
49984170,-0.385,0.283,0.811,-7.035,20.09,-3.99
49984170,-0.368,0.291,0.827,-3.78,25.55,-4.812
49984190,-0.372,0.317,0.85,-2.222,31.78,-6.16
49984190,-0.364,0.329,0.885,-3.675,36.382,-7.98
49984210,-0.306,0.335,0.904,-5.285,40.67,-9.345
49984210,-0.268,0.368,0.914,-5.372,50.295,-10.885
49984230,-0.372,0.362,0.89,-12.092,55.982,-11.637
49984230,-0.447,0.331,0.846,-17.85,56.42,-14.437
49984250,-0.481,0.305,0.819,-15.452,53.585,-14.665
49984250,-0.511,0.299,0.788,-12.355,48.125,-12.967
49984260,-0.515,0.289,0.825,-10.745,43.96,-13.667
49984270,-0.672,0.343,0.707,-8.225,41.405,-17.885
49984280,-0.865,0.386,0.77,-8.872,-3.132,-28.525
49984290,-0.506,0.282,0.756,-21.927,-27.142,-25.532
49984300,-0.481,0.336,0.648,-20.405,-28.735,-14.962
49984310,-0.345,0.36,0.644,-31.15,-21.052,-25.112
49984320,-0.431,0.283,0.796,-43.977,-0.052,-37.117
49984330,-0.794,0.251,0.828,-46.725,-3.482,-37.52
49984340,-0.566,0.229,0.832,-43.767,-5.792,-26.582
49984350,-0.45,0.197,0.843,-34.912,1.085,-13.562
49984360,-0.505,0.192,0.873,-29.295,10.605,-14.595
49984370,-0.52,0.201,0.889,-19.88,21.14,-18.025
49984380,-0.484,0.223,0.878,-8.347,25.41,-14.175
49984390,-0.434,0.26,0.868,0.822,27.685,-9.642
49984400,-0.444,0.293,0.864,5.337,28.717,-9.17
49984410,-0.461,0.306,0.841,2.975,28.787,-12.477
49984420,-0.481,0.306,0.819,-2.03,26.932,-16.31
49984430,-0.498,0.282,0.805,-8.085,22.75,-18.322
49984440,-0.494,0.274,0.795,-12.285,19.267,-19.67
49984450,-0.527,0.264,0.791,-17.062,14.56,-19.407
49984460,-0.501,0.203,0.788,-21.77,14.315,-17.377
49984470,-0.53,0.195,0.836,-16.31,22.382,-16.03
49984480,-0.655,0.215,0.847,-13.947,21.35,-12.967
49984490,-0.627,0.222,0.815,-14.14,18.427,-8.19
49984500,-0.577,0.214,0.814,-10.5,14.735,-2.467
49984510,-0.587,0.207,0.792,-8.942,10.937,1.19
49984510,-0.566,0.222,0.781,-7.07,7.63,0.892
49984530,-0.523,0.234,0.787,-5.95,6.265,-0.367
49984530,-0.505,0.223,0.794,-7.175,8.277,-2.397
49984550,-0.547,0.218,0.794,-9.712,12.145,-4.602
49984550,-0.569,0.215,0.8,-11.042,14.507,-6.317
49984570,-0.579,0.211,0.797,-11.515,15.54,-5.985
49984570,-0.586,0.207,0.779,-12.39,14.63,-5.197
49984580,-0.6,0.197,0.764,-13.282,12.88,-4.76
49984590,-0.611,0.181,0.76,-12.705,9.222,-4.707
49984600,-0.619,0.174,0.773,-10.482,5.372,-4.13
49984610,-0.62,0.176,0.78,-7.297,1.33,-3.692
49984620,-0.592,0.188,0.786,-4.182,-0.367,-4.06
49984630,-0.585,0.2,0.793,-2.467,-1.592,-3.99
49984640,-0.589,0.201,0.797,-2.047,-2.537,-2.887
49984650,-0.568,0.203,0.798,-1.942,-3.622,-2.1
49984660,-0.545,0.211,0.796,-2.695,-3.692,-1.592
49984670,-0.532,0.207,0.8,-4.427,-2.012,-1.96
49984680,-0.541,0.19,0.8,-6.107,1.855,-3.097
49984690,-0.582,0.182,0.797,-6.16,4.987,-3.64
49984700,-0.599,0.189,0.788,-5.32,5.757,-3.92
49984710,-0.592,0.197,0.784,-4.2,4.41,-4.025
49984720,-0.588,0.195,0.777,-3.797,3.01,-3.815
49984730,-0.59,0.184,0.779,-3.185,2.45,-4.34
49984740,-0.578,0.195,0.78,-2.205,1.872,-5.355
49984750,-0.569,0.201,0.786,-2.485,2.362,-4.55
49984760,-0.578,0.201,0.779,-3.43,3.395,-2.695
49984770,-0.605,0.209,0.773,-4.952,5.512,-1.102
49984780,-0.603,0.219,0.77,-6.965,4.392,-1.4
49984790,-0.54,0.215,0.775,-9.502,6.09,-2.975
49984800,-0.575,0.219,0.777,-13.125,8.89,-3.64
49984810,-0.605,0.217,0.78,-18.462,10.447,-4.655
49984820,-0.602,0.181,0.769,-22.277,10.727,-5.197
49984830,-0.559,0.134,0.793,-21.07,11.69,-4.165
49984840,-0.619,0.157,0.813,-16.45,12.652,-0.332
49984850,-0.655,0.175,0.798,-15.225,8.54,2.747
49984860,-0.585,0.172,0.784,-13.142,4.392,3.115
49984870,-0.562,0.157,0.78,-12.372,2.922,3.377
49984880,-0.573,0.149,0.784,-11.707,3.36,1.102
49984890,-0.585,0.154,0.792,-9.852,4.865,-2.152
49984900,-0.604,0.159,0.786,-8.995,5.355,-3.57
49984910,-0.624,0.155,0.772,-8.505,5.075,-3.43
49984920,-0.625,0.149,0.764,-7.297,3.447,-2.817
49984920,-0.618,0.153,0.766,-5.757,2.992,-2.257
49984940,-0.63,0.155,0.77,-5.302,1.82,-2.31
49984940,-0.628,0.164,0.767,-4.865,0.297,-2.852
49984960,-0.612,0.18,0.776,-5.075,-1.575,-2.52
49984960,-0.628,0.164,0.769,-7.297,-3.482,-1.47
49984980,-0.61,0.162,0.771,-8.225,-4.375,-1.785
49984980,-0.621,0.153,0.767,-9.292,-3.762,-0.892
49985000,-0.631,0.146,0.763,-9.415,-3.325,-0.98
49985000,-0.64,0.139,0.761,-8.54,-3.692,-1.557
49985010,-0.635,0.134,0.756,-6.79,-5.145,-1.33
49985020,-0.62,0.138,0.755,-4.69,-5.67,-0.577
49985030,-0.626,0.133,0.755,-3.832,-6.02,0.087
49985040,-0.633,0.13,0.754,-3.01,-6.265,0.21
49985050,-0.643,0.149,0.76,-1.61,-8.487,0.717
49985060,-0.634,0.158,0.793,-1.33,-11.112,1.82
49985070,-0.644,0.139,0.793,-1.715,-14.665,2.415
49985080,-0.564,0.136,0.797,0.49,-16.572,1.085
49985090,-0.558,0.152,0.796,2.45,-14.245,0.892
49985100,-0.639,0.173,0.783,1.085,-14.367,-0.35
49985110,-0.5,0.206,0.797,0.56,-14.157,-3.815
49985120,-0.608,0.178,0.801,-4.585,-10.29,-1.802
49985130,-0.489,0.104,0.826,-7.192,-6.51,-5.425
49985140,-0.505,0.13,0.826,-5.617,0.647,-7.28
49985150,-0.631,0.155,0.772,-11.06,2.835,-1.89
49985160,-0.664,0.164,0.756,-11.095,2.397,2.065
49985170,-0.661,0.13,0.741,-13.615,-0.612,2.957
49985180,-0.607,0.111,0.757,-10.692,-4.27,-0.525
49985190,-0.594,0.135,0.77,-7.192,-3.902,-1.645
49985200,-0.617,0.134,0.765,-7.122,-3.097,-0.91
49985210,-0.617,0.134,0.773,-5.915,-2.957,-1.54
49985220,-0.619,0.136,0.788,-5.547,-3.867,-1.032
49985230,-0.613,0.133,0.794,-4.917,-3.92,-0.472
49985240,-0.594,0.142,0.796,-3.08,-4.077,-0.7
49985250,-0.582,0.153,0.792,-2.327,-2.677,-0.105
49985260,-0.6,0.152,0.79,-2.817,-0.735,0.595
49985260,-0.622,0.142,0.794,-4.305,-0.14,0.63
49985280,-0.613,0.134,0.802,-5.075,-1.872,0.21
49985280,-0.58,0.13,0.803,-4.76,-2.94,0.122
49985300,-0.569,0.123,0.796,-4.34,-2.817,0.297
49985300,-0.58,0.119,0.798,-4.06,-1.4,-0.052
49985320,-0.583,0.12,0.788,-3.832,-0.752,-1.19
49985320,-0.585,0.121,0.779,-3.57,0.402,-1.505
49985330,-0.598,0.119,0.778,-3.342,1.277,-1.295
49985340,-0.615,0.115,0.769,-3.167,2.187,-1.102
49985350,-0.622,0.113,0.768,-1.837,2.397,-0.455
49985360,-0.642,0.132,0.759,-0.857,1.557,0.175
49985370,-0.664,0.126,0.784,0.122,-1.907,0.192
49985380,-0.548,0.128,0.792,2.975,-4.182,-2.24
49985390,-0.595,0.148,0.791,1.872,-3.36,-2.66
49985400,-0.626,0.142,0.791,-0.805,-3.5,-1.995
49985410,-0.601,0.141,0.79,0.665,-3.78,-0.647
49985420,-0.593,0.129,0.786,0.437,-4.742,1.242
49985430,-0.598,0.134,0.781,-0.315,-4.392,0.63
49985440,-0.58,0.13,0.78,-0.63,-3.92,-1.312
49985450,-0.584,0.121,0.781,-0.455,-2.152,-2.222
49985460,-0.62,0.113,0.776,-1.33,-1.662,-1.89
49985470,-0.596,0.116,0.783,-0.455,-2.607,-2.905
49985480,-0.596,0.114,0.779,0.332,-3.71,-2.66
49985490,-0.605,0.113,0.78,0.367,-3.99,-1.89
49985500,-0.613,0.114,0.783,0.665,-4.025,-1.575
49985510,-0.619,0.118,0.78,1.067,-4.935,-0.945
49985520,-0.614,0.13,0.785,1.662,-5.425,0.105
49985530,-0.616,0.137,0.785,0.857,-4.847,0.735
49985540,-0.616,0.135,0.781,0.63,-3.955,0.927
49985550,-0.619,0.136,0.783,0.805,-4.095,1.68
49985560,-0.603,0.14,0.799,1.435,-5.145,1.802
49985570,-0.606,0.134,0.794,1.067,-6.72,1.767
49985580,-0.606,0.127,0.794,1.767,-8.12,1.785
49985590,-0.61,0.132,0.797,2.257,-8.452,2.012
49985600,-0.605,0.14,0.788,2.222,-8.767,1.347
49985610,-0.606,0.136,0.787,2.362,-8.645,1.137
49985620,-0.617,0.122,0.783,2.222,-9.135,1.61
49985630,-0.625,0.109,0.775,3.412,-9.94,2.485
49985640,-0.63,0.109,0.776,5.005,-12.617,3.587
49985650,-0.604,0.121,0.783,6.492,-14.7,4.252
49985660,-0.576,0.138,0.791,7.227,-15.54,5.022
49985670,-0.576,0.146,0.792,6.072,-14.315,6.247
49985670,-0.592,0.143,0.792,4.357,-13.37,6.527
49985690,-0.589,0.132,0.795,3.307,-12.285,6.457
49985690,-0.59,0.126,0.795,3.657,-12.582,7.017
49985710,-0.597,0.13,0.805,5.407,-12.722,7.262
49985710,-0.601,0.141,0.81,7.14,-13.982,6.3
49985730,-0.6,0.143,0.81,8.382,-15.592,5.215
49985730,-0.598,0.132,0.805,9.852,-17.115,4.882
49985750,-0.593,0.133,0.799,11.55,-18.007,5.057
49985750,-0.587,0.147,0.795,12.53,-19.092,5.897
49985760,-0.575,0.151,0.796,12.425,-19.845,6.195
49985770,-0.544,0.15,0.809,11.812,-19.547,5.407
49985780,-0.523,0.156,0.817,11.532,-17.797,4.637
49985790,-0.527,0.169,0.825,11.2,-16.467,4.27
49985800,-0.542,0.173,0.824,9.992,-16.222,4.042
49985810,-0.555,0.175,0.826,8.82,-17.272,3.395
49985820,-0.565,0.172,0.817,6.562,-18.795,2.747
49985830,-0.568,0.17,0.807,5.18,-19.197,2.45
49985840,-0.58,0.164,0.799,4.112,-20.02,2.835
49985850,-0.566,0.164,0.801,4.235,-21.14,2.677
49985860,-0.551,0.166,0.806,5.355,-22.365,1.75
49985870,-0.55,0.17,0.814,4.987,-22.54,0.297
49985880,-0.563,0.165,0.823,3.955,-22.54,-1.732
49985890,-0.557,0.159,0.818,4.025,-22.277,-3.832
49985900,-0.551,0.16,0.814,4.602,-22.295,-4.27
49985910,-0.541,0.165,0.82,4.812,-21.822,-3.657
49985920,-0.537,0.177,0.837,4.147,-21.84,-3.045
49985930,-0.508,0.174,0.832,2.432,-20.527,-3.745
49985940,-0.461,0.185,0.83,1.225,-17.045,-4.97
49985950,-0.451,0.204,0.829,-0.752,-12.67,-4.077
49985960,-0.461,0.207,0.828,-2.73,-8.575,-2.905
49985970,-0.478,0.202,0.835,-4.76,-4.987,-2.922
49985980,-0.487,0.203,0.84,-6.405,-2.45,-3.377
49985990,-0.519,0.201,0.848,-8.172,-0.542,-3.062
49986000,-0.544,0.183,0.837,-9.992,0.035,-3.22
49986010,-0.551,0.168,0.833,-10.342,1.015,-4.182
49986010,-0.569,0.16,0.834,-10.535,0.21,-4.69
49986030,-0.57,0.137,0.821,-10.29,-1.82,-5.25
49986030,-0.557,0.123,0.808,-8.557,-4.55,-5.915
49986050,-0.551,0.121,0.809,-6.282,-6.562,-5.512
49986050,-0.536,0.119,0.819,-3.797,-8.032,-5.337
49986070,-0.519,0.124,0.833,-2.17,-8.207,-5.127
49986070,-0.528,0.134,0.845,-1.47,-9.152,-3.955
49986080,-0.527,0.146,0.849,-0.717,-10.832,-3.29
49986090,-0.48,0.173,0.841,0.402,-12.057,-3.902
49986100,-0.455,0.179,0.834,-0.192,-9.992,-3.622
49986110,-0.467,0.173,0.826,-1.225,-5.74,-4.165
49986120,-0.495,0.17,0.823,-2.1,-1.522,-5.67
49986130,-0.521,0.161,0.825,-3.307,0.21,-6.3
49986140,-0.549,0.143,0.834,-3.657,0.962,-5.302
49986150,-0.574,0.128,0.833,-3.08,0.157,-3.937
49986160,-0.583,0.117,0.838,-1.75,-2.257,-3.202
49986170,-0.554,0.127,0.843,0.857,-5.705,-2.957
49986180,-0.517,0.142,0.839,2.432,-7.595,-1.802
49986190,-0.499,0.153,0.828,2.887,-7.28,-1.347
49986200,-0.485,0.153,0.826,2.047,-5.162,-1.715
49986210,-0.482,0.145,0.827,0.787,-2.712,-1.4
49986220,-0.488,0.139,0.828,0.77,-1.312,-0.28
49986230,-0.495,0.144,0.828,1.75,-0.437,0.63
49986240,-0.507,0.15,0.828,2.905,0.052,0.98
49986250,-0.52,0.156,0.83,4.322,0,2.345
49986260,-0.554,0.156,0.834,5.477,-0.682,4.13
49986270,-0.567,0.151,0.827,5.495,-1.382,3.657
49986280,-0.575,0.144,0.82,5.687,-2.38,3.22
49986290,-0.579,0.135,0.814,6.912,-3.657,4.287
49986300,-0.57,0.136,0.816,9.135,-5.67,5.127
49986310,-0.552,0.144,0.824,10.5,-7.997,5.425
49986320,-0.521,0.149,0.834,11.392,-9.502,4.497
49986330,-0.508,0.16,0.849,10.692,-9.607,3.71
49986340,-0.502,0.171,0.848,8.82,-9.345,3.377
49986350,-0.505,0.173,0.841,7.28,-8.33,2.852
49986360,-0.517,0.175,0.831,5.512,-8.627,2.677
49986370,-0.505,0.181,0.825,4.725,-8.137,2.38
49986380,-0.493,0.189,0.824,4.112,-7.98,1.19
49986390,-0.488,0.189,0.83,2.73,-6.895,-0.315
49986400,-0.505,0.188,0.842,1.4,-6.16,-1.05
49986410,-0.525,0.182,0.857,-0.087,-4.9,-0.63
49986420,-0.545,0.167,0.862,-1.015,-4.97,0.437
49986420,-0.554,0.157,0.847,-0.752,-6.09,2.047
49986440,-0.533,0.166,0.84,1.487,-9.187,2.975
49986440,-0.487,0.177,0.829,2.765,-11.27,3.062
49986460,-0.46,0.191,0.835,3.447,-11.497,2.24
49986460,-0.444,0.194,0.847,1.522,-8.015,0.822
49986480,-0.464,0.173,0.845,-1.662,-3.745,-0.052
49986480,-0.516,0.154,0.828,-3.85,-0.49,0.455
49986500,-0.555,0.146,0.821,-4.147,-0.7,0.682
49986500,-0.577,0.137,0.813,-2.765,-2.17,0.77
49986510,-0.595,0.134,0.819,0.192,-6.212,1.102
49986520,-0.567,0.149,0.834,3.22,-10.972,1.417
49986530,-0.519,0.168,0.853,4.935,-14.14,1.522
49986540,-0.487,0.171,0.854,4.83,-14.35,1.54
49986550,-0.481,0.183,0.853,4.445,-13.405,1.435
49986560,-0.45,0.195,0.855,4.287,-12.705,0.77
49986570,-0.404,0.21,0.849,3.377,-9.45,-0.315
49986580,-0.445,0.201,0.829,1.067,-5.057,0.612
49986590,-0.471,0.189,0.826,0.402,-0.682,0.49
49986600,-0.498,0.183,0.858,-1.032,1.225,-0.367
49986610,-0.504,0.18,0.864,-2.835,0.892,-1.155
49986620,-0.518,0.17,0.859,-2.87,-0.28,-0.332
49986630,-0.549,0.149,0.852,-2.432,-1.68,2.31
49986640,-0.559,0.152,0.84,-1.207,-4.112,3.29
49986650,-0.544,0.168,0.84,0.175,-6.982,3.57
49986660,-0.498,0.178,0.844,1.522,-9.59,3.377
49986670,-0.453,0.192,0.848,1.995,-9.222,2.485
49986680,-0.446,0.198,0.848,0.612,-6.93,1.697
49986690,-0.459,0.19,0.847,-1.015,-3.43,0.822
49986700,-0.48,0.183,0.85,-1.96,-1.365,0.21
49986710,-0.52,0.165,0.849,-2.345,-0.14,0.717
49986720,-0.546,0.155,0.846,-1.242,-1.172,0.472
49986730,-0.543,0.149,0.843,0.56,-3.202,0.21
49986740,-0.532,0.144,0.842,2.607,-5.705,0.437
49986750,-0.52,0.149,0.843,4.147,-7.56,0.665
49986760,-0.504,0.16,0.856,5.407,-9.765,1.05
49986760,-0.481,0.172,0.877,6.02,-10.482,1.47
49986780,-0.468,0.178,0.894,5.495,-10.115,1.312
49986780,-0.472,0.188,0.899,4.62,-9.257,0.21
49986800,-0.449,0.197,0.903,3.85,-8.47,-1.137
49986800,-0.495,0.197,0.89,4.567,-7.017,0.577
