time[ms],accX[g],accY[g],accZ[g],Value 1,Value 2,Value 3
49426070,-0.008,-0.319,0.954,-1.26,-24.01,15.995
49426080,-0.015,-0.312,0.966,-1.942,-17.027,17.465
49426080,0.001,-0.303,0.972,-4.445,-9.45,17.57
49426100,0.034,-0.291,0.964,-7.717,1.242,18.725
49426100,0.032,-0.303,0.963,-9.082,12.232,24.762
49426120,-0.041,-0.316,0.959,-9.047,19.775,29.767
49426120,-0.076,-0.334,0.974,-7.245,25.672,30.835
49426140,-0.07,-0.383,0.98,-4.235,26.845,30.292
49426140,-0.091,-0.34,1.002,-0.14,30.957,25.882
49426150,-0.167,-0.342,1.007,4.112,29.207,25.585
49426160,-0.185,-0.353,1.001,7.14,21.875,28.105
49426170,-0.144,-0.315,1.03,8.96,17.675,25.462
49426180,-0.145,-0.302,1.031,10.465,16.66,25.935
49426190,-0.182,-0.307,1.02,10.377,15.697,25.882
49426200,-0.195,-0.303,1.024,10.815,13.23,22.767
49426210,-0.19,-0.283,1.022,10.71,10.062,18.9
49426220,-0.188,-0.257,1.019,11.025,8.19,15.225
49426230,-0.205,-0.26,1.025,10.167,2.765,13.247
49426240,-0.226,-0.276,0.981,8.627,-2.397,12.425
49426250,-0.229,-0.294,0.976,12.005,-10.745,9.117
49426260,-0.171,-0.289,0.959,18.252,-14.997,6.107
49426270,-0.138,-0.251,0.967,25.497,-13.72,4.305
49426280,-0.146,-0.215,0.984,30.59,-10.5,3.22
49426290,-0.097,-0.199,1.009,32.48,-4.252,2.73
49426300,-0.081,-0.157,0.963,34.335,8.505,3.85
49426310,-0.129,-0.127,1.03,32.865,8.872,8.75
49426320,-0.212,-0.105,1.056,23.31,12.985,14.98
49426330,-0.206,-0.1,1.026,16.397,14.297,12.372
49426340,-0.181,-0.104,1.027,10.237,13.545,13.23
49426350,-0.197,-0.111,1.01,3.57,13.737,17.342
49426360,-0.233,-0.139,0.988,2.817,13.79,21.962
49426370,-0.257,-0.221,0.959,10.972,11.27,29.61
49426380,-0.258,-0.324,0.921,32.62,8.61,39.042
49426390,-0.2,-0.319,0.925,65.292,13.37,48.247
49426400,-0.12,-0.187,0.986,94.57,29.75,53.27
49426410,-0.137,-0.071,1.056,108.937,51.415,54.127
49426420,-0.208,-0.011,1.102,107.502,72.555,51.537
49426420,-0.24,0.015,1.133,96.74,87.587,46.83
49426440,-0.29,0.019,1.096,81.305,96.915,47.302
49426440,-0.335,0.034,1.065,70.192,99.925,48.947
49426460,-0.341,0.029,1.043,62.037,100.625,49.927
49426460,-0.328,0.025,0.985,53.375,102.025,53.007
49426480,-0.302,0.004,0.934,48.527,105.91,55.492
49426480,-0.323,-0.012,0.9,46.375,111.877,58.047
49426500,-0.397,-0.033,0.865,44.572,116.252,59.255
49426500,-0.44,-0.044,0.852,49.28,115.395,54.32
49426510,-0.531,-0.023,0.858,55.317,107.485,47.81
49426520,-0.457,0.019,0.837,63.017,90.79,40.11
49426530,-0.396,0.062,0.824,66.937,77.297,44.24
49426540,-0.48,0.093,0.861,60.27,60.235,44.24
49426550,-0.567,0.14,0.888,41.597,38.185,34.51
49426560,-0.447,0.117,0.833,22.767,15.312,27.807
49426570,-0.345,0.016,0.936,17.85,0.437,29.452
49426580,-0.373,-0.092,0.894,20.335,-14.297,22.855
49426590,-0.202,-0.178,0.887,36.05,-39.69,7.857
49426600,-0.07,-0.084,0.874,56.07,-53.462,5.862
49426610,-0.096,0.07,0.87,66.185,-51.502,17.937
49426620,-0.234,0.145,0.854,67.655,-42.245,24.78
49426630,-0.37,0.165,0.806,63.297,-37.432,24.185
49426640,-0.381,0.201,0.826,53.235,-34.895,24.99
49426650,-0.302,0.205,0.773,34.457,-28.472,28.805
49426660,-0.444,0.127,0.764,17.587,-21.682,35.367
49426670,-0.572,0.111,0.775,11.06,-21.105,36.19
49426680,-0.641,0.086,0.754,10.727,-33.32,38.587
49426690,-0.656,0.089,0.796,21.315,-55.09,36.155
49426700,-0.58,0.146,0.793,19.372,-78.855,40.04
49426710,-0.456,0.098,0.786,24.745,-96.95,41.58
49426720,-0.349,0.106,0.822,36.872,-104.282,41.23
49426730,-0.286,0.15,0.846,40.915,-107.957,43.19
49426740,-0.245,0.183,0.841,40.792,-108.78,44.975
49426750,-0.184,0.218,0.84,39.112,-106.645,42.77
49426760,-0.142,0.227,0.829,34.685,-101.867,39.217
49426770,-0.133,0.212,0.815,31.325,-97.282,37.047
49426780,-0.14,0.205,0.809,31.132,-94.535,36.767
49426790,-0.169,0.238,0.817,31.412,-96.285,36.207
49426800,-0.162,0.281,0.824,29.085,-101.045,35.717
49426800,-0.14,0.29,0.828,24.097,-105.752,36.365
49426820,-0.134,0.252,0.808,18.69,-111.51,39.62
49426820,-0.097,0.228,0.818,19.197,-116.322,42.42
49426830,-0.159,0.178,0.922,23.135,-123.112,41.405
49426840,-0.031,-0.112,0.942,35.577,-120.68,40.88
49426850,0.403,-0.111,0.339,115.167,-107.152,28.717
49426860,0.213,0.564,1.186,181.457,-134.4,52.99
49426870,-0.481,1.122,1.173,99.085,-139.79,99.627
49426880,-0.003,0.703,1.02,11.567,-138.46,59.535
49426890,0.482,0.233,0.832,-27.125,-109.952,16.835
49426900,0.465,0.224,0.822,-30.38,-67.742,16.432
49426910,0.307,0.425,0.928,-25.2,-27.002,11.952
49426920,0.269,0.468,1.013,-40.792,10.885,0.367
49426930,0.15,0.32,0.987,-69.212,36.295,-8.242
49426940,0.012,0.247,0.978,-83.597,45.955,-18.375
49426950,-0.063,0.267,1.01,-86.345,39.41,-25.812
49426960,-0.11,0.306,1.045,-90.177,24.727,-29.837
49426970,-0.154,0.308,1.065,-100.8,2.502,-30.537
49426980,-0.206,0.323,1.032,-116.83,-22.032,-28.367
49426990,-0.21,0.317,1.016,-133.595,-54.232,-31.902
49427000,-0.002,0.25,0.959,-150.43,-80.377,-42.857
49427010,0.168,0.173,0.897,-161.682,-93.66,-50.015
49427020,0.25,0.048,0.851,-167.527,-97.895,-48.3
49427030,0.384,-0.068,0.756,-161.385,-85.977,-42.35
49427040,0.449,-0.15,0.763,-139.842,-63.332,-31.465
49427050,0.379,-0.154,0.732,-112.805,-34.387,-18.252
49427060,0.243,-0.137,0.813,-87.307,-11.917,-11.34
49427070,0.226,-0.11,0.819,-69.807,10.027,-12.04
49427080,0.263,-0.072,0.863,-52.815,32.707,-18.585
49427090,0.201,0.004,0.95,-42.84,50.295,-22.96
49427100,0.097,0.072,1.009,-45.517,60.952,-24.027
49427110,0.03,0.103,1.054,-56.525,62.982,-27.37
49427120,-0.015,0.107,1.084,-73.605,58.975,-32.305
49427130,-0.048,0.087,1.087,-92.68,49.77,-37.03
49427140,-0.075,0.04,1.068,-109.392,37.817,-40.932
49427150,-0.083,0.01,1.064,-122.255,24.762,-45.902
49427160,-0.076,-0.013,1.056,-133.07,12.687,-50.82
49427170,-0.078,-0.034,1.064,-143.29,1.242,-57.225
49427170,-0.103,-0.065,1.062,-154.507,-11.532,-64.977
49427190,-0.13,-0.147,1.022,-162.417,-29.505,-70.175
49427190,-0.137,-0.266,0.994,-155.487,-50.89,-69.3
49427210,-0.099,-0.325,0.976,-139.265,-71.225,-66.727
49427210,-0.111,-0.383,0.933,-117.67,-91.42,-64.015
49427230,0.001,-0.366,1.005,-88.27,-103.792,-70.21
49427230,0.05,-0.343,1.028,-75.757,-109.06,-62.282
49427250,0.062,-0.371,1.03,-68.512,-110.11,-59.272
49427250,0.11,-0.391,1.044,-61.915,-104.317,-62.02
49427260,0.433,-0.465,1.221,-54.232,-85.137,-61.337
49427270,0.517,-0.531,0.964,-38.5,-36.54,-49.262
49427280,0.263,-0.497,1.124,-7.385,-5.355,-39.41
49427290,-0.012,-0.421,1.068,13.317,3.517,-23.467
49427300,-0.114,-0.424,1.049,35.087,-13.37,-4.462
49427310,-0.018,-0.446,1.002,56.14,-32.865,4.252
49427320,0.131,-0.477,0.946,80.377,-39.97,10.5
49427330,0.195,-0.491,0.905,112.857,-32.585,20.405
49427340,0.23,-0.466,0.866,149.38,-12.932,29.015
49427350,0.272,-0.374,0.875,186.48,11.182,37.152
49427360,0.271,-0.211,0.942,210.402,38.097,48.422
49427370,0.271,-0.05,0.997,216.667,64.05,61.757
49427380,0.309,0.074,1.028,208.25,92.872,75.985
49427390,0.354,0.196,1.041,188.807,127.767,89.32
49427400,0.36,0.31,1.033,160.23,168.997,100.712
49427410,0.334,0.409,1.022,125.23,216.772,104.282
49427420,0.266,0.477,0.973,82.18,267.662,93.73
49427430,0.123,0.466,0.901,32.497,310.205,73.272
49427440,-0.038,0.384,0.835,-19.355,337.242,55.125
49427450,-0.167,0.294,0.758,-64.452,346.132,40.215
49427460,-0.288,0.206,0.708,-96.81,339.885,27.702
49427470,-0.382,0.115,0.661,-116.865,323.435,17.92
49427480,-0.416,0.019,0.656,-124.635,301.175,11.655
49427490,-0.484,-0.076,0.666,-120.662,269.325,14.35
49427500,-0.574,-0.17,0.661,-107.065,232.907,26.407
49427510,-0.531,-0.213,0.67,-82.722,198.695,38.447
49427510,-0.501,-0.249,0.715,-53.27,166.127,55.947
49427530,-0.558,-0.253,0.772,-27.037,140.77,76.475
49427530,-0.593,-0.212,0.831,-4.69,120.102,85.82
49427550,-0.557,-0.243,0.974,8.487,99.4,87.01
49427550,-0.313,-0.442,1.08,19.81,91.595,76.982
49427570,-0.143,-0.424,1.064,50.417,95.322,41.177
49427570,-0.264,-0.109,1.094,71.785,96.197,22.505
49427580,-0.508,0.078,1.106,66.202,90.317,36.26
49427590,-0.633,0.082,1.019,47.005,76.422,43.505
49427600,-0.644,0.047,0.958,28.192,55.702,44.555
49427610,-0.592,0.063,0.894,4.095,38.85,53.585
49427620,-0.595,0.035,0.853,-15.575,31.99,59.64
49427630,-0.706,-0.066,0.814,-23.642,26.407,56.14
49427640,-0.784,-0.181,0.74,-19.845,11.935,49.332
49427650,-0.744,-0.095,0.785,-9.94,-7.157,44.817
49427660,-0.825,-0.011,0.767,-6.912,-30.187,43.085
49427670,-0.86,0.032,0.825,-2.572,-55.965,32.497
49427680,-0.764,0.048,0.785,-8.452,-76.44,20.527
49427690,-0.59,0.071,0.812,-17.29,-88.27,11.007
49427700,-0.439,0.09,0.799,-28.315,-87.447,6.002
49427710,-0.287,-0.009,0.743,-38.727,-75.425,4.112
49427720,-0.01,-0.051,0.677,-39.812,-26.862,-3.692
49427730,0.038,-0.148,1.02,-33.915,33.407,-9.625
49427740,0.235,-1.024,0.562,-20.947,78.75,5.25
49427750,0.477,-0.818,0.555,108.15,145.722,36.067
49427760,-1.229,0.276,1.254,161.875,149.887,67.252
49427770,-1.342,0.754,1.468,102.007,135.257,31.202
49427780,-0.782,0.329,1.259,34.107,93.17,-30.17
49427790,-0.625,-0.262,0.824,-20.475,50.435,-31.272
49427800,-0.64,-0.306,0.722,2.345,26.687,-23.03
49427810,-0.637,0.013,0.84,35.717,6.597,-23.87
49427820,-0.596,0.162,0.85,31.255,-1.96,-39.725
49427830,-0.609,0.087,0.799,10.272,-9.957,-61.932
49427840,-0.749,0.054,0.744,-7.927,-25.462,-73.797
49427850,-0.918,0.126,0.72,-19.145,-56.927,-85.032
49427860,-0.978,0.199,0.721,-33.092,-101.29,-104.352
49427870,-0.934,0.22,0.673,-57.75,-151.2,-126.49
49427880,-0.841,0.196,0.603,-87.482,-196.962,-146.58
49427890,-0.699,0.166,0.525,-115.097,-230.947,-164.465
49427900,-0.537,0.123,0.483,-138.6,-247.257,-178.692
49427910,-0.411,0.042,0.465,-158.515,-245.297,-188.947
49427920,-0.35,-0.055,0.49,-173.127,-230.632,-191.852
49427920,-0.347,-0.181,0.512,-178.08,-210.962,-186.13
49427940,-0.422,-0.265,0.526,-167.282,-195.037,-174.825
49427940,-0.441,-0.322,0.589,-147.385,-190.085,-154.927
49427960,-0.396,-0.362,0.636,-126.507,-185.885,-130.987
49427960,-0.35,-0.349,0.704,-104.72,-176.26,-116.06
49427980,-0.366,-0.314,0.802,-88.322,-169.89,-106.61
49427980,-0.335,-0.355,0.856,-78.89,-174.51,-89.74
49428000,-0.258,-0.434,0.846,-67.725,-175,-72.642
49428000,-0.16,-0.458,0.876,-49.577,-170.17,-66.535
49428010,-0.144,-0.565,0.842,-22.207,-167.125,-57.295
49428020,-0.036,-0.355,0.979,5.565,-162.4,-48.3
49428030,0.053,-0.502,0.971,13.86,-151.882,-46.13
49428040,0.162,-0.414,1.035,22.522,-133.857,-32.06
49428050,0.231,-0.437,1.096,15.54,-113.61,-28.612
49428060,0.232,-0.418,1.117,10.902,-87.552,-25.847
49428070,0.195,-0.406,1.127,8.19,-61.652,-26.862
49428080,0.118,-0.426,1.147,1.347,-46.777,-21.805
49428090,0.014,-0.518,1.11,-6.055,-40.6,-24.64
49428100,0.001,-0.549,1.14,-5.11,-40.67,-42.192
49428110,0.015,-0.52,1.096,-6.44,-43.715,-58.922
49428120,-0.084,-0.595,1.054,-0.875,-58.782,-62.825
49428130,-0.145,-0.609,0.996,17.92,-78.75,-64.505
49428140,-0.105,-0.537,0.992,40.127,-101.797,-64.785
49428150,0.008,-0.45,0.98,54.845,-119.56,-63.402
49428160,0.109,-0.437,0.952,64.662,-126.297,-64.89
49428170,0.096,-0.434,0.907,75.092,-128.712,-64.942
49428180,0.015,-0.401,0.853,88.025,-135.45,-62.265
49428190,0.06,-0.349,0.852,101.57,-150.237,-59.955
49428200,0.281,-0.314,0.819,108.097,-156.432,-54.495
49428210,0.499,-0.269,0.82,109.515,-142.17,-47.792
49428220,0.587,-0.205,0.85,102.445,-112.035,-38.902
49428230,0.562,-0.171,0.86,87.255,-76.982,-25.62
49428240,0.538,-0.24,0.822,73.447,-42.122,-11.06
49428250,0.55,-0.22,0.842,69.562,-12.6,10.062
49428260,0.525,-0.182,0.844,61.582,12.792,38.43
49428260,0.508,-0.213,0.813,55.982,36.75,68.6
49428280,0.545,-0.277,0.777,57.347,64.662,99.89
49428280,0.571,-0.297,0.73,62.177,102.427,123.707
49428300,0.466,-0.271,0.737,68.845,146.072,138.372
49428300,0.285,-0.208,0.778,69.125,183.977,141.522
49428320,0.13,-0.131,0.828,58.625,209.247,131.88
49428320,-0.004,-0.082,0.882,39.287,217.507,116.987
49428330,-0.104,-0.066,0.915,15.575,209.3,100.8
49428340,-0.149,-0.069,0.94,-7.997,188.982,86.712
49428350,-0.166,-0.096,0.945,-29.785,162.015,78.19
49428360,-0.145,-0.112,0.919,-49.105,133.595,71.33
49428370,-0.142,-0.167,0.889,-63.315,106.925,66.745
49428380,-0.119,-0.214,0.856,-72.782,84.367,60.707
49428390,-0.085,-0.246,0.837,-78.417,67.742,52.64
49428400,-0.075,-0.293,0.836,-80.01,56.892,44.432
49428410,-0.102,-0.312,0.853,-79.975,47.845,35.052
49428420,-0.125,-0.337,0.855,-80.622,37.275,25.287
49428430,-0.225,-0.474,0.848,-66.92,22.207,29.452
49428440,-0.181,-0.382,0.931,-51.135,2.975,22.557
49428450,-0.15,-0.406,0.893,-52.15,-13.212,12.355
49428460,-0.176,-0.432,0.96,-38.99,-26.495,14.682
49428470,-0.119,-0.454,0.95,-38.955,-34.72,5.442
49428480,-0.125,-0.508,0.983,-26.302,-39.567,10.272
49428490,-0.142,-0.53,1.039,-11.095,-44.66,14.927
49428500,-0.143,-0.49,1.106,-0.56,-51.047,8.802
49428510,-0.132,-0.459,1.149,7.175,-58.922,-6.947
49428520,-0.069,-0.381,1.171,11.27,-66.692,-27.947
49428530,-0.033,-0.366,1.141,13.877,-76.475,-44.135
49428540,0.037,-0.341,1.124,20.475,-86.747,-56.297
49428550,0.101,-0.307,1.112,27.422,-99.365,-64.505
49428560,0.213,-0.266,1.063,33.442,-108.762,-70.77
49428570,0.365,-0.19,1.041,37.712,-110.635,-74.48
49428580,0.458,-0.105,1.046,38.115,-102.882,-75.075
49428590,0.519,0.011,1.043,28.7,-88.305,-76.037
49428600,0.542,0.071,1.019,14.21,-70.21,-75.565
49428610,0.558,0.082,0.985,-1.417,-50.977,-74.287
49428620,0.571,0.076,0.937,-19.757,-30.1,-69.912
49428630,0.538,0.046,0.897,-34.615,-9.047,-63.647
49428640,0.491,0.013,0.869,-43.522,10.5,-58.782
49428650,0.434,-0.025,0.846,-46.812,26.092,-52.465
49428660,0.364,-0.065,0.836,-41.772,36.942,-44.275
49428670,0.294,-0.122,0.822,-30.73,41.947,-35.857
49428670,0.233,-0.151,0.818,-16.012,42,-30.45
49428690,0.17,-0.162,0.831,-1.295,37.222,-30.327
49428690,0.123,-0.149,0.834,9.205,27.912,-33.915
49428710,0.084,-0.165,0.852,18.27,14.402,-38.08
49428710,0.069,-0.182,0.885,19.127,-1.137,-42.052
49428730,0.072,-0.203,0.897,11.13,-15.732,-46.935
49428730,0.112,-0.237,0.907,0.787,-25.462,-53.69
49428750,0.159,-0.255,0.924,-11.077,-28.542,-59.097
49428750,0.202,-0.266,0.931,-25.987,-25.13,-62.65
49428760,0.233,-0.313,0.927,-39.165,-16.257,-66.71
49428770,0.257,-0.36,0.92,-47.705,-4.287,-68.74
49428780,0.267,-0.389,0.908,-50.96,8.89,-65.327
49428790,0.249,-0.412,0.91,-49.07,20.965,-58.152
49428800,0.223,-0.421,0.909,-43.68,31.115,-51.345
49428810,0.184,-0.422,0.927,-37.555,36.26,-45.78
49428820,0.15,-0.415,0.937,-32.27,36.225,-42.962
49428830,0.092,-0.443,0.914,-26.285,29.365,-43.295
49428840,0.055,-0.428,0.937,-19.04,17.325,-48.737
49428850,0.047,-0.414,0.95,-10.5,-1.12,-56.927
49428860,0.109,-0.409,0.917,-3.15,-21.472,-66.78
49428870,0.155,-0.391,0.911,4.007,-41.317,-74.357
49428880,0.205,-0.355,0.913,8.872,-57.032,-81.55
49428890,0.283,-0.316,0.913,12.757,-68.442,-84.49
49428900,0.329,-0.301,0.888,14.437,-73.045,-79.922
49428910,0.372,-0.276,0.893,17.272,-70.315,-72.677
49428920,0.418,-0.258,0.886,19.67,-59.22,-64.155
49428930,0.449,-0.204,0.889,23.012,-42.35,-52.185
49428940,0.444,-0.144,0.917,21.052,-21.122,-36.12
49428950,0.394,-0.142,0.94,14.997,0,-16.362
49428960,0.358,-0.154,0.913,6.282,21.507,2.467
49428970,0.302,-0.202,0.897,2.572,42.332,18.795
49428980,0.251,-0.247,0.87,4.34,64.855,29.89
49428990,0.2,-0.254,0.853,10.43,87.272,34.527
49429000,0.121,-0.224,0.855,17.29,106.54,32.935
49429010,0.019,-0.208,0.882,21.105,118.055,26.67
49429010,-0.07,-0.177,0.895,20.072,120.172,17.622
49429030,-0.156,-0.17,0.92,16.607,111.3,8.435
49429030,-0.216,-0.167,0.929,11.882,93.555,0.385
49429050,-0.23,-0.175,0.913,6.457,69.86,-6.772
49429050,-0.219,-0.173,0.91,4.392,45.045,-9.87
49429070,-0.182,-0.157,0.889,0.805,21.612,-11.882
49429070,-0.13,-0.163,0.877,0.612,2.712,-12.985
49429080,-0.039,-0.134,0.862,-1.487,-8.802,-14.595
49429090,0.018,-0.131,0.873,-3.535,-13.842,-13.457
49429100,0.092,-0.117,0.887,-9.222,-12.39,-11.392
49429110,0.123,-0.163,0.884,-13.072,-6.772,-2.905
49429120,0.148,-0.2,0.889,-13.405,3.57,9.905
49429130,0.164,-0.236,0.887,-9.887,18.182,24.465
49429140,0.173,-0.256,0.9,0.385,36.452,38.325
49429150,0.157,-0.254,0.913,10.885,56.105,48.265
49429160,0.101,-0.25,0.941,19.67,74.252,51.695
49429170,0.016,-0.237,0.978,23.677,86.082,48.37
49429180,-0.065,-0.258,1.003,22.155,88.865,41.142
49429190,-0.122,-0.3,1.017,20.335,81.357,32.287
49429200,-0.16,-0.366,1.02,22.225,66.815,24.43
49429210,-0.166,-0.4,1.014,27.055,47.425,18.655
49429220,-0.136,-0.408,0.979,36.05,28.28,13.3
49429230,-0.079,-0.365,0.979,49.997,12.915,9.52
49429240,-0.008,-0.276,0.969,54.285,3.797,10.062
49429250,0.006,-0.241,0.917,50.137,1.435,10.797
49429260,0.023,-0.23,0.879,45.447,7.577,9.8
49429270,0.055,-0.191,0.848,40.582,17.15,13.142
49429280,0.061,-0.124,0.834,29.925,31.78,18.13
49429290,0.042,-0.103,0.87,16.432,48.947,23.047
49429300,-0.021,-0.146,0.862,5.81,69.772,28.84
49429310,-0.07,-0.186,0.877,4.147,87.57,29.907
49429320,-0.178,-0.206,0.901,11.252,99.295,29.942
49429330,-0.308,-0.15,0.96,24.132,100.012,29.032
49429340,-0.409,-0.074,1.008,34.125,88.217,25.55
49429350,-0.421,-0.024,1.066,43.19,65.257,20.352
49429360,-0.371,-0.042,1.07,46.27,37.957,14.28
49429370,-0.345,-0.049,1.077,51.415,10.482,5.81
49429380,-0.332,-0.025,1.102,55.58,-15.277,-0.945
49429390,-0.165,-0.003,1.134,55.072,-35.122,-7.507
49429400,-0.013,-0.007,1.13,59.447,-40.092,-10.727
49429410,-0.012,0.005,1.142,63.455,-40.495,-9.38
49429420,0.001,0.058,1.142,63.192,-37.992,-7.577
49429420,0.017,0.104,1.12,58.345,-37.572,-6.16
49429440,0.07,0.143,1.125,51.975,-35.245,-6.51
49429440,0.11,0.159,1.117,37.975,-29.26,-4.532
49429460,0.086,0.13,1.127,19.705,-23.607,-4.462
49429460,0.139,0.082,1.093,6.282,-14.245,-11.34
49429480,0.156,0.058,1.076,0.385,-2.66,-15.995
49429480,0.086,0.057,1.066,-5.127,8.452,-18.007
49429490,0.041,0.045,1.043,-10.517,16.87,-22.732
49429500,0.007,0.014,1.006,-13.23,22.382,-28.595
49429510,-0.036,0.006,0.98,-11.707,22.977,-34.107
49429520,-0.1,0.008,0.97,-7.962,19.11,-35.997
49429530,-0.165,0.016,0.958,-2.922,8.995,-36.715
49429540,-0.171,0.016,0.95,1.557,-4.252,-39.2
49429550,-0.189,-0.002,0.957,5.372,-20.125,-42.682
49429560,-0.204,-0.011,0.956,7.035,-35.525,-46.077
49429570,-0.194,-0.028,0.967,8.4,-50.645,-49.945
49429580,-0.175,-0.041,0.987,8.557,-61.162,-53.375
49429590,-0.147,-0.055,0.994,6.737,-67.795,-57.505
49429600,-0.11,-0.093,0.999,7.245,-69.23,-60.62
49429610,-0.056,-0.143,1.012,13.037,-67.742,-59.325
49429620,-0.02,-0.173,1.016,24.132,-62.282,-48.335
49429630,-0.036,-0.187,1.027,39.672,-56.087,-31.027
49429640,-0.013,-0.177,1.045,57.662,-45.027,-14.175
49429650,-0.035,-0.138,1.053,69.702,-33.757,0.49
49429660,-0.069,-0.091,1.092,74.2,-22.067,10.727
49429670,-0.075,-0.057,1.093,74.27,-10.937,16.537
49429680,-0.063,-0.038,1.063,75.022,-1.225,17.517
49429690,-0.063,0,1.043,76.387,6.02,16.432
49429700,-0.088,0.049,1.038,75.635,10.552,16.852
49429710,-0.091,0.096,1.008,69.317,10.92,17.99
49429720,-0.074,0.126,0.973,63.105,10.045,18.917
49429730,-0.062,0.17,0.956,57.61,7.735,20.912
49429740,-0.07,0.202,0.945,50.68,4.567,24.342
49429750,-0.067,0.208,0.928,42.14,0.98,26.302
49429760,-0.043,0.21,0.909,32.41,-1.452,24.587
49429760,-0.021,0.222,0.897,21.21,-2.275,19.285
49429780,0.003,0.232,0.897,8.172,-0.735,12.652
49429780,0.026,0.229,0.917,-6.527,1.767,7.332
49429800,0.037,0.196,0.887,-23.292,4.707,4.2
49429800,0.071,0.152,0.893,-33.74,10.115,0.402
49429820,0.086,0.114,0.877,-42.507,17.5,0.087
49429820,0.059,0.085,0.878,-45.797,24.885,1.382
49429830,0.021,0.069,0.89,-45.675,29.697,4.252
49429840,-0.025,0.053,0.912,-45.36,31.097,7.577
49429850,-0.072,0.029,0.936,-44.73,28.367,8.207
49429860,-0.109,0.007,0.956,-43.715,22.837,6.02
49429870,-0.124,-0.012,0.973,-44.152,15.015,1.767
49429880,-0.111,-0.02,0.983,-45.43,7.262,-4.742
49429890,-0.11,-0.039,0.992,-43.767,0,-10.5
49429900,-0.101,-0.049,1.013,-39.2,-4.707,-12.372
49429910,-0.085,-0.046,1.027,-35,-7.455,-10.745
49429920,-0.081,-0.054,1.05,-29.785,-6.912,-7.822
49429930,-0.051,-0.078,1.075,-23.187,-2.975,-5.495
49429940,-0.052,-0.087,1.064,-11.777,5.985,-3.675
49429950,-0.139,-0.045,1.105,0.91,10.85,-4.095
49429960,-0.199,0.003,1.102,6.947,10.097,-5.495
49429970,-0.189,0.005,1.096,12.915,5.32,-3.955
49429980,-0.178,0.023,1.09,17.255,1.522,1.767
49429990,-0.169,0.037,1.066,23.117,-0.087,7
49430000,-0.164,0.031,1.037,29.557,1.33,13.545
49430010,-0.185,0.019,1.024,34.212,3.71,21.157
49430020,-0.236,0.03,1.008,38.92,5.18,26.53
49430030,-0.263,0.06,1.006,44.467,2.782,30.362
49430040,-0.273,0.1,1.003,45.447,-2.502,34.02
49430050,-0.267,0.142,0.994,42.07,-10.342,34.615
49430060,-0.227,0.184,0.979,34.23,-15.837,36.785
49430070,-0.171,0.212,0.958,22.557,-18.707,41.457
49430080,-0.131,0.226,0.944,9.607,-16.835,47.18
49430090,-0.105,0.197,0.915,-3.71,-11.602,54.39
49430100,-0.074,0.148,0.884,-14.472,-3.15,59.692
49430110,-0.03,0.137,0.883,-21.542,5.74,63.822
49430120,-0.059,0.111,0.888,-27.055,13.737,72.222
49430130,-0.089,0.099,0.902,-32.777,17.727,81.235
49430140,-0.114,0.071,0.905,-37.747,17.832,87.762
49430150,-0.112,0.073,0.921,-41.772,16.17,89.635
49430160,-0.095,0.078,0.937,-45.797,13.685,91.105
49430160,-0.087,0.059,0.939,-49.612,10.307,91.192
49430170,-0.057,0.028,0.941,-53.9,6.947,88.55
49430180,-0.035,0,0.949,-55.947,4.13,84.245
49430190,-0.008,-0.015,0.958,-55.912,1.54,79.047
49430200,0.008,-0.012,0.976,-53.392,-1.4,73.692
49430210,0.028,-0.028,0.992,-50.627,-4.69,68.495
49430220,0.063,-0.031,0.999,-48.685,-6.457,62.877
49430230,0.079,-0.031,1.001,-46.305,-7.367,56.577
49430240,0.103,-0.037,1.001,-44.87,-7,51.555
49430250,0.119,-0.044,0.99,-43.627,-5.915,47.932
49430260,0.108,-0.053,0.991,-43.75,-4.252,43.872
49430270,0.093,-0.062,0.989,-44.275,-3.412,37.31
49430280,0.099,-0.071,0.985,-46.042,-2.555,32.077
49430290,0.105,-0.093,0.976,-46.497,-2.065,27.615
49430300,0.084,-0.126,0.947,-45.972,0.402,25.742
49430310,0.09,-0.14,0.943,-41.615,4.095,21.612
49430320,0.075,-0.146,0.938,-37.047,10.045,22.295
49430330,0.052,-0.139,0.935,-33.145,15.452,23.03
49430340,-0.004,-0.196,0.902,-27.072,19.6,21.945
49430350,0.025,-0.128,0.967,-18.9,24.29,16.765
49430360,-0.048,-0.129,0.945,-23.24,25.585,27.02
49430370,-0.095,-0.187,0.94,-19.512,21.91,30.45
49430380,-0.05,-0.195,0.944,-10.605,17.692,25.725
49430390,-0.058,-0.168,0.942,-8.54,16.642,24.57
49430400,-0.118,-0.173,0.953,-7.525,14.525,29.452
49430410,-0.135,-0.184,0.961,-3.885,8.855,28.927
49430420,-0.141,-0.171,0.97,-1.032,3.797,28.647
49430430,-0.145,-0.141,0.988,-0.35,-0.367,28.822
49430440,-0.14,-0.122,0.994,-1.767,-2.852,28.857
49430450,-0.145,-0.136,0.975,-3.622,-3.745,29.592
49430460,-0.117,-0.135,0.975,-7.122,-0.542,33.722
49430470,-0.092,-0.128,0.969,-11.707,5.267,39.69
49430480,-0.106,-0.122,0.993,-14.752,12.477,43.802
49430490,-0.168,-0.117,0.996,-19.757,16.712,48.055
49430500,-0.197,-0.125,0.992,-22.942,18.13,48.667
49430510,-0.197,-0.134,0.988,-24.412,16.485,46.585
49430510,-0.195,-0.134,0.961,-26.582,13.282,42.525
49430530,-0.194,-0.131,0.951,-27.3,9.31,36.067
49430530,-0.192,-0.161,0.95,-22.715,2.537,26.95
49430550,-0.118,-0.098,0.963,-22.102,-2.257,13.3
49430550,-0.167,-0.178,0.949,-17.465,-11.13,15.12
49430570,-0.053,-0.129,1.029,-14.542,-15.102,8.452
49430570,0.04,-0.156,0.98,-16.835,-9.957,12.635
49430580,0.007,-0.257,0.986,-7.945,-3.115,13.422
49430590,0.05,-0.263,1.028,4.83,5.6,10.29
49430600,-0.047,-0.168,1.049,14.7,13.16,11.2
49430610,-0.116,-0.121,1.083,18.322,11.9,10.272
49430620,-0.123,-0.13,1.061,13.125,6.16,10.377
49430630,-0.089,-0.182,1.018,10.202,-1.085,8.575
49430640,-0.06,-0.176,0.972,9.852,-1.89,8.785
49430650,-0.052,-0.125,0.952,9.275,0.227,8.872
49430660,-0.089,-0.119,0.934,8.137,3.832,8.715
49430670,-0.113,-0.138,0.93,8.505,4.392,7.49
49430680,-0.118,-0.177,0.9,10.43,3.587,6.405
49430690,-0.128,-0.163,0.904,13.107,2.467,5.53
49430700,-0.139,-0.148,0.913,14.21,-0.035,5.337
49430710,-0.137,-0.147,0.94,14,-1.487,6.177
49430720,-0.148,-0.162,0.957,13.09,-2.292,7.297
49430730,-0.157,-0.17,0.975,12.267,-4.445,5.687
49430740,-0.133,-0.155,0.99,11.34,-5.337,3.552
49430750,-0.126,-0.143,1.002,10.027,-6.51,3.237
49430760,-0.126,-0.144,1.009,8.802,-7.35,4.62
49430770,-0.114,-0.139,0.995,8.855,-8.312,4.83
49430780,-0.137,-0.125,0.987,11.48,-10.29,6.772
49430790,-0.146,-0.115,0.997,14.525,-13.825,8.295
49430800,-0.107,-0.084,0.992,16.747,-15.505,9.537
49430810,-0.157,-0.063,0.995,15.05,-16.45,12.88
49430820,-0.134,-0.078,1.002,13.177,-15.4,11.812
49430830,-0.113,-0.023,1.033,9.012,-11.865,7.052
49430830,-0.122,-0.045,0.983,-2.467,-9.59,3.202
49430850,-0.155,-0.103,0.987,4.935,-7.665,2.327
49430850,-0.137,-0.069,1.018,11.095,-8.767,4.27
49430870,-0.127,-0.021,1.02,8.855,-10.867,4.865
49430870,-0.131,-0.015,1.029,5.775,-12.18,3.36
49430890,-0.105,-0.035,1.018,2.24,-11.935,2.17
49430890,-0.088,-0.05,1.01,-0.77,-10.447,1.767
49430910,-0.075,-0.051,1.008,-0.402,-7.525,1.102
49430910,-0.073,-0.044,1.009,-0.525,-3.395,3.08
49430920,-0.091,-0.042,1.012,-1.68,-1.067,4.917
49430930,-0.087,-0.049,0.995,-3.08,0.752,4.095
49430940,-0.075,-0.055,0.976,-2.817,3.815,5.845
49430950,-0.063,-0.068,0.966,-3.115,6.44,8.207
49430960,-0.077,-0.067,0.963,-0.98,8.802,9.817
49430970,-0.096,-0.065,0.997,-0.21,8.452,11.532
49430980,-0.092,-0.07,1.006,-1.522,6.982,11.06
49430990,-0.103,-0.062,1.02,-2.257,4.97,10.36
49431000,-0.095,-0.024,1.034,-9.17,3.08,6.895
49431010,-0.057,-0.064,1.023,-18.182,4.2,-0.227
49431020,-0.043,-0.11,0.954,-24.5,9.397,-0.752
49431030,-0.099,-0.131,0.958,-15.907,11.602,7.052
49431040,-0.087,-0.073,0.917,-13.615,14.91,7.945
49431050,-0.096,-0.072,0.946,-18.655,19.127,5.25
49431060,-0.152,-0.103,0.917,-17.15,23.135,2.432
49431070,-0.175,-0.129,0.935,-17.78,25.375,2.082
49431080,-0.214,-0.136,0.937,-14.42,23.397,5.022
49431090,-0.25,-0.147,0.958,-8.785,17.622,8.085
49431100,-0.249,-0.12,1.004,-5.512,11.095,9.292
49431110,-0.305,-0.184,0.985,-2.8,0.455,12.565
49431120,-0.189,-0.113,1.044,1.435,-5.845,2.17
49431130,-0.147,-0.103,1.017,-2.1,-8.54,3.22
49431140,-0.147,-0.091,0.999,-2.555,-9.555,7.472
49431150,-0.089,-0.055,0.998,-2.362,-8.312,10.115
49431160,-0.051,-0.054,0.991,-4.655,-3.465,11.97
49431170,-0.052,-0.054,0.982,-7.577,2.975,9.467
49431180,-0.046,-0.063,0.982,-9.642,11.217,5.985
49431190,-0.08,-0.079,0.982,-10.727,18.287,8.26
49431200,-0.163,-0.095,0.971,-12.495,20.597,12.057
49431210,-0.149,-0.114,0.957,-11.55,20.247,11.795
49431220,-0.151,-0.103,0.962,-10.902,23.52,13.09
49431230,-0.237,-0.133,0.969,-14.805,23.31,18.847
49431240,-0.25,-0.197,0.947,-15.505,22.417,17.377
49431250,-0.297,-0.23,0.964,-9.31,17.885,9.747
49431260,-0.325,-0.233,0.958,-3.5,4.602,1.96
49431260,-0.29,-0.205,0.965,1.942,-7.472,-7.612
49431280,-0.205,-0.161,0.951,5.967,-14.315,-13.842
49431280,-0.165,-0.128,0.961,8.085,-9.957,-12.915
49431300,-0.258,-0.119,0.941,7.332,-7.875,-8.347
49431300,-0.26,-0.121,0.953,4.62,-8.645,-7.98
49431320,-0.219,-0.13,0.919,6.265,-12.057,-8.662
49431320,-0.178,-0.091,0.924,10.517,-15.785,-4.042
49431330,-0.146,-0.046,0.936,10.482,-17.937,0.21
49431340,-0.117,-0.032,0.954,9.765,-16.66,1.102
49431350,-0.058,-0.028,0.984,6.65,-12.442,1.277
49431360,-0.042,-0.045,0.99,4.707,-5.39,1.855
49431370,-0.031,-0.018,1.078,1.295,0.647,0.787
49431380,-0.044,-0.062,1.024,-5.022,7.245,3.92
49431390,-0.043,-0.076,1.059,-3.78,9.467,3.605
49431400,-0.061,-0.061,1.057,-5.337,11.235,5.967
49431410,-0.048,-0.044,1.059,-7.682,14.315,6.737
49431420,-0.046,-0.061,1.075,-12.25,19.652,8.855
49431430,-0.084,-0.08,1.084,-19.11,25.2,10.972
49431440,-0.099,-0.083,1.117,-25.287,30.012,11.445
49431450,-0.103,-0.095,1.184,-32.567,31.745,11.777
49431460,-0.13,-0.134,1.225,-40.705,31.255,10.85
49431470,-0.119,-0.161,1.23,-46.585,30.152,7.42
49431480,-0.089,-0.181,1.216,-48.79,30.59,6.037
49431490,-0.091,-0.202,1.133,-47.25,32.602,4.777
49431500,-0.13,-0.243,1.048,-40.6,37.38,-2.467
49431510,-0.176,-0.257,0.948,-24.482,42.752,-14.595
49431520,-0.28,-0.32,0.912,1.977,42.28,-27.492
49431530,-0.398,-0.478,0.99,34.352,35.385,-44.52
49431540,-0.283,-0.439,0.919,85.452,22.61,-79.607
49431550,-0.266,-0.303,1.047,128.607,0.91,-107.467
49431560,-0.259,-0.122,1.037,156.205,-17.587,-106.067
49431570,-0.122,0.04,1.071,181.247,-27.737,-106.575
49431580,-0.063,0.153,1.11,181.212,-32.882,-105.507
49431580,-0.041,0.196,1.088,157.99,-30.607,-101.202
49431600,0.006,0.204,1.058,133.525,-20.282,-98.875
49431600,-0.005,0.206,1.054,110.25,-6.457,-93.59
49431620,-0.069,0.204,1.084,83.282,6.23,-89.022
49431620,-0.125,0.153,1.091,50.802,14.927,-88.042
49431640,-0.171,0.054,1.059,23.642,17.675,-91.052
49431640,-0.235,-0.027,1.032,8.592,15.732,-94.832
49431660,-0.261,-0.052,0.999,-4.182,10.045,-99.347
49431660,-0.271,-0.059,0.957,-16.205,2.73,-105.647
49431670,-0.283,-0.062,0.915,-25.55,-6.422,-113.347
49431680,-0.29,-0.057,0.882,-35,-16.87,-118.492
49431690,-0.271,-0.052,0.837,-45.027,-27.842,-120.505
49431700,-0.223,-0.052,0.782,-53.952,-36.05,-119.035
49431710,-0.185,-0.083,0.735,-58.17,-41.125,-115.062
49431720,-0.171,-0.082,0.719,-61.617,-42.857,-106.61
49431730,-0.162,-0.068,0.709,-68.985,-42.35,-96.425
49431740,-0.154,-0.06,0.689,-77.805,-38.29,-85.557
49431750,-0.163,-0.084,0.693,-82.652,-33.337,-72.205
49431760,-0.171,-0.124,0.668,-86.152,-27.457,-56.665
49431770,-0.168,-0.169,0.632,-86.59,-18.917,-42.157
49431780,-0.164,-0.201,0.611,-82.722,-6.335,-32.48
49431790,-0.181,-0.242,0.613,-71.575,6.562,-25.13
49431800,-0.214,-0.278,0.611,-58.362,19.11,-20.667
49431810,-0.279,-0.277,0.665,-42.297,27.212,-18.462
49431820,-0.343,-0.26,0.736,-31.115,28.752,-18.672
49431830,-0.382,-0.269,0.798,-22.505,24.045,-21.017
49431840,-0.375,-0.226,0.846,-17.535,16.835,-24.255
49431850,-0.386,-0.183,0.907,-17.552,5.407,-26.11
49431860,-0.41,-0.18,0.954,-18.602,-6.685,-23.38
49431870,-0.356,-0.14,0.964,-26.95,-17.412,-18.48
49431880,-0.328,-0.165,0.954,-31.832,-24.465,-5.81
49431890,-0.283,-0.2,0.951,-31.377,-25.077,6.002
49431900,-0.246,-0.186,0.922,-32.06,-19.355,16.047
49431910,-0.303,-0.209,0.941,-23.52,-11.602,24.395
49431920,-0.298,-0.153,0.973,-19.915,-3.867,25.917
49431930,-0.335,-0.118,0.981,-22.032,-0.612,27.422
49431940,-0.371,-0.131,0.982,-23.432,-0.052,23.117
49431950,-0.376,-0.13,0.995,-24.115,-3.972,15.82
49431960,-0.37,-0.101,0.994,-25.2,-12.11,9.59
49431970,-0.356,-0.089,0.987,-23.555,-22.925,5.565
49431980,-0.324,-0.071,0.995,-21.437,-34.562,2.38
49431990,-0.269,-0.052,0.971,-22.697,-44.975,-0.7
49432000,-0.199,-0.061,0.957,-22.12,-50.68,-2.677
49432010,-0.148,-0.087,0.969,-22.067,-51.415,-2.677
49432010,-0.105,-0.118,0.984,-24.885,-48.317,-0.84
49432030,-0.084,-0.175,1,-28.49,-42.875,2.765
49432030,-0.075,-0.243,1.003,-30.555,-36.61,6.667
49432050,-0.071,-0.299,1.006,-29.68,-29.907,8.977
49432050,-0.106,-0.318,1.033,-26.197,-27.02,10.657
49432070,-0.195,-0.335,1.057,-24.552,-31.78,12.985
49432070,-0.234,-0.36,1.032,-23.607,-42.84,13.195
49432080,-0.203,-0.35,0.999,-26.197,-57.382,15.575
49432090,-0.14,-0.347,0.938,-27.825,-69.895,13.65
49432100,-0.067,-0.353,0.907,-27.825,-74.165,9.187
49432110,-0.002,-0.37,0.901,-30.66,-71.225,4.252
49432120,0.004,-0.38,0.883,-35.49,-65.152,0.157
49432130,-0.004,-0.389,0.88,-34.457,-60.48,-3.5
49432140,-0.006,-0.383,0.869,-33.81,-57.435,-2.31
49432150,-0.011,-0.388,0.873,-30.87,-56.787,1.47
49432160,-0.008,-0.393,0.882,-28.857,-56.437,3.272
49432170,0.008,-0.44,0.879,-24.342,-56.665,3.01
49432180,0.101,-0.564,0.982,-19.372,-53.532,2.625
49432190,0.144,-0.714,0.953,-9.747,-48.72,5.635
49432200,0.27,-0.634,0.966,26.565,-22.417,1.995
49432210,0.08,-0.488,1.08,53.375,-4.795,2.957
49432220,-0.069,-0.384,1.121,54.425,-3.36,1.855
49432230,-0.029,-0.344,1.109,49.472,-12.197,-4.567
49432240,0.036,-0.399,1.073,36.277,-20.23,-2.66
49432250,0.124,-0.461,0.99,29.4,-17.517,-0.455
49432260,0.169,-0.473,0.979,36.68,-1.995,0.315
49432270,0.118,-0.458,0.991,47.652,17.36,6.317
49432280,0.112,-0.409,0.998,56.63,39.042,13.702
49432290,0.113,-0.358,0.994,61.267,62.51,21.7
49432300,0.099,-0.301,0.984,59.01,89.022,31.727
49432310,0.084,-0.252,0.96,51.397,119.035,44.205
49432320,0.072,-0.19,0.938,40.022,153.475,59.15
49432330,0.01,-0.115,0.902,21.647,188.807,78.242
49432330,-0.125,-0.069,0.846,-3.167,219.432,99.155
49432350,-0.177,-0.046,0.779,-28.665,246.627,117.862
49432350,-0.22,-0.028,0.703,-53.305,272.352,134.4
49432370,-0.387,-0.017,0.628,-77.91,290.587,147.927
49432370,-0.533,-0.023,0.595,-96.932,296.415,158.235
49432390,-0.734,-0.155,0.499,-100.887,285.232,177.152
49432390,-0.863,-0.25,0.556,-86.695,255.64,176.33
49432410,-0.897,-0.203,0.585,-87.517,222.18,144.707
49432410,-0.941,-0.198,0.655,-88.637,176.207,117.372
49432420,-0.857,-0.133,0.659,-98.052,127.505,75.915
49432430,-1.125,-0.447,0.621,-81.847,65.485,82.722
49432440,-0.789,-0.204,0.818,-49.752,4.06,49.402
49432450,-0.699,-0.188,0.757,-50.417,-49.665,41.282
49432460,-0.533,-0.224,0.782,-36.05,-84.087,26.932
49432470,-0.352,-0.247,0.785,-21.192,-102.007,20.002
49432480,-0.231,-0.19,0.825,-10.167,-103.792,8.925
49432490,-0.196,-0.159,0.882,-4.987,-94.535,0.962
49432500,-0.186,-0.154,0.913,-5.845,-81.637,-3.885
49432510,-0.217,-0.187,0.926,-7.945,-70.105,-4.812
49432520,-0.239,-0.211,0.943,-7.175,-60.287,-5.232
49432530,-0.344,-0.284,0.94,-0.98,-58.572,-5.985
49432540,-0.387,-0.271,0.983,3.255,-62.965,-21.595
49432550,-0.466,-0.317,0.938,4.707,-78.05,-31.587
49432560,-0.443,-0.361,0.879,16.24,-99.33,-45.832
49432570,-0.351,-0.311,0.846,30.31,-121.677,-55.825
49432580,-0.267,-0.264,0.833,42.42,-138.932,-53.795
49432590,-0.197,-0.253,0.849,52.657,-146.632,-40.32
49432600,-0.079,-0.23,0.868,50.995,-140.21,-32.025
49432610,0.31,-0.296,0.984,41.982,-103.88,-25.585
49432620,0.337,-0.404,1.051,35.91,-24.605,-6.195
49432630,-0.212,-0.416,1.144,34.09,32.935,5.145
49432640,-0.575,-0.214,1.224,29.172,48.772,0.315
49432650,-0.626,-0.213,1.111,13.072,27.16,2.012
49432660,-0.477,-0.368,1.012,10.675,1.102,3.867
49432670,-0.376,-0.387,0.924,13.212,-11.567,-2.187
49432680,-0.461,-0.377,0.867,23.922,-20.02,7.262
49432690,-0.513,-0.314,0.836,43.942,-35.21,17.482
49432700,-0.408,-0.183,0.844,59.395,-51.467,23.012
49432710,-0.27,-0.109,0.875,59.027,-57.89,27.702
49432720,-0.13,-0.084,0.894,44.362,-49.402,26.81
49432730,-0.09,-0.129,0.927,28.892,-31.202,26.617
49432740,-0.085,-0.191,0.956,15.015,-11.55,23.695
49432750,-0.121,-0.232,0.908,7.087,3.185,22.452
49432760,-0.192,-0.199,0.953,7.507,10.815,25.427
49432760,-0.241,-0.18,0.949,2.835,9.432,31.902
49432780,-0.252,-0.122,1.018,-3.902,8.995,32.917
49432780,-0.3,-0.081,1.118,-20.072,7.892,35.56
49432800,-0.254,-0.07,1.142,-45.867,11.41,35.98
49432800,-0.165,-0.123,1.017,-69.317,27.685,36.54
49432820,-0.296,-0.205,0.955,-87.045,54.932,45.325
49432820,-0.957,-0.635,0.876,-90.58,59.062,63.805
49432830,-0.846,-0.677,0.779,-54.425,18.462,29.137
49432840,-0.549,-0.489,0.854,-15.417,-27.562,7.35
49432850,-0.404,-0.124,0.86,18.742,-57.382,7.84
49432860,-0.384,-0.137,0.929,17.605,-59.692,15.137
49432870,-0.389,-0.238,0.957,12.407,-56.402,4.952
49432880,-0.356,-0.21,0.983,8.872,-58.205,-2.292
49432890,-0.292,-0.112,1.086,6.177,-61.67,-10.902
49432900,-0.236,-0.084,1.174,-4.497,-61.425,-7.35
49432910,-0.162,-0.113,1.236,-22.242,-56.262,-3.43
49432920,-0.055,-0.168,1.188,-43.995,-42.805,-3.062
49432930,-0.082,-0.19,1.137,-64.855,-24.255,-3.797
49432940,-0.07,-0.254,0.988,-79.082,-7.21,-4.567
49432950,-0.174,-0.281,0.854,-82.127,2.555,-0.437
49432960,-0.275,-0.313,0.747,-76.107,-1.242,7.017
49432970,-0.283,-0.333,0.651,-59.552,-12.53,9.065
49432980,-0.274,-0.287,0.603,-36.96,-25.987,7.14
49432990,-0.218,-0.212,0.607,-16.45,-34.79,1.627
49433000,-0.166,-0.171,0.627,-5.477,-34.597,-5.897
49433010,-0.11,-0.201,0.667,2.17,-25.515,-12.32
49433020,-0.168,-0.236,0.703,13.142,-11.515,-14.35
49433030,-0.257,-0.251,0.765,29.067,-1.592,-14.437
49433040,-0.258,-0.244,0.862,43.015,2.467,-17.22
49433050,-0.286,-0.254,0.911,48.107,3.762,-19.005
49433060,-0.328,-0.277,0.972,51.152,-0.49,-21.997
49433070,-0.221,-0.244,0.991,58.397,-6.44,-26.04
49433080,-0.188,-0.143,1.035,60.34,-12.862,-20.107
49433080,-0.197,-0.096,1.08,48.492,-20.16,-9.432
49433100,-0.149,-0.104,1.013,28.612,-20.755,-2.835
49433100,-0.005,-0.276,1.026,12.25,-5.81,-1.575
49433120,-0.108,-0.352,0.945,9.397,16.31,-5.372
49433120,-0.183,-0.169,1.013,15.96,26.302,-11.34
49433140,-0.222,-0.091,1.017,0.035,34.632,-6.37
49433140,-0.371,-0.295,0.92,-25.585,32.375,-3.5
49433160,-0.299,-0.324,0.882,-27.317,26.372,-10.797
49433160,-0.327,-0.25,0.902,-22.015,16.835,-5.705
49433170,-0.341,-0.24,0.911,-20.93,10.29,-0.98
49433180,-0.329,-0.245,0.916,-25.392,5.092,-1.207
49433190,-0.365,-0.247,0.924,-29.907,-1.89,1.487
49433200,-0.356,-0.241,0.929,-32.427,-9.205,4.34
49433210,-0.277,-0.241,0.925,-35.437,-13.177,6.09
49433220,-0.27,-0.229,0.935,-39.48,-11.34,10.412
49433230,-0.255,-0.244,0.934,-44.117,-9.8,16.362
49433240,-0.207,-0.249,0.951,-47.95,-2.677,23.485
49433250,-0.315,-0.255,0.909,-53.06,-0.175,29.557
49433260,-0.371,-0.402,0.949,-56.315,-15.575,24.185
49433270,-0.026,-0.418,0.927,-29.4,-16.59,2.467
49433280,-0.139,-0.283,1.007,-12.442,-15.242,-1.312
49433290,-0.216,-0.236,1.004,-12.162,-11.06,-1.312
49433300,-0.181,-0.27,0.977,-16.1,-3.797,-7.472
49433310,-0.225,-0.313,0.953,-16.66,0.28,-8.067
49433320,-0.27,-0.313,0.938,-15.82,2.59,-7.857
49433330,-0.269,-0.301,0.914,-15.312,2.31,-9.047
49433340,-0.254,-0.312,0.89,-14.49,2.52,-8.61
49433350,-0.242,-0.323,0.878,-13.282,4.112,-8.067
49433360,-0.243,-0.333,0.869,-12.915,6.562,-7.577
49433370,-0.244,-0.346,0.854,-11.55,6.055,-5.355
49433380,-0.223,-0.349,0.845,-8.312,3.832,-1.102
49433390,-0.186,-0.338,0.847,-5.32,4.112,3.92
49433400,-0.195,-0.344,0.847,-4.287,7.262,6.545
49433410,-0.231,-0.355,0.847,-2.047,9.572,7.14
49433420,-0.264,-0.358,0.853,1.015,9.205,5.127
49433430,-0.302,-0.372,0.888,5.845,4.917,4.602
49433440,-0.301,-0.407,0.906,15.417,-0.227,6.107
49433450,-0.256,-0.384,0.927,26.285,-3.045,7.035
49433460,-0.26,-0.358,0.889,32.742,-7.21,15.942
49433470,-0.244,-0.305,0.874,35.612,-4.935,37.24
49433480,-0.15,-0.328,0.976,31.745,10.535,55.475
49433490,-0.177,-0.603,0.986,24.885,24.71,61.372
49433500,0.13,-0.587,0.956,30.747,52.605,51.59
49433510,0.398,-0.589,1,47.162,104.317,50.627
49433510,0.218,-0.499,1.089,60.06,171.535,46.182
49433520,-0.215,-0.38,1.184,60.602,213.535,37.835
49433530,-0.667,-0.334,1.182,52.535,205.222,34.037
49433540,-0.842,-0.389,1.102,51.03,157.167,25.532
49433550,-0.706,-0.427,0.988,61.775,93.905,12.67
49433560,-0.505,-0.356,0.901,76.562,42.157,1.225
49433570,-0.359,-0.181,0.867,87.15,14.42,-15.872
49433580,-0.399,-0.071,0.862,86.03,1.067,-33.355
49433590,-0.454,-0.022,0.853,71.557,-10.237,-47.985
49433600,-0.563,-0.043,0.826,55.125,-26.075,-58.467
49433610,-0.649,-0.049,0.81,41.982,-49.245,-67.41
49433620,-0.694,-0.012,0.808,27.597,-77.875,-78.855
49433630,-0.698,0.004,0.762,12.775,-110.635,-92.33
49433640,-0.623,0.051,0.742,-0.927,-139.457,-106.382
49433650,-0.555,0.085,0.722,-19.547,-161.035,-118.877
49433660,-0.501,0.113,0.703,-41.737,-176.732,-131.46
49433670,-0.392,0.128,0.661,-65.205,-186.34,-141.715
49433680,-0.269,0.107,0.589,-88.707,-187.897,-143.64
49433690,-0.168,0.031,0.545,-110.53,-182.245,-136.185
49433700,-0.131,-0.091,0.518,-126.595,-169.89,-120.435
49433710,-0.132,-0.253,0.551,-128.117,-152.722,-99.68
49433720,-0.108,-0.329,0.603,-119.28,-131.495,-80.36
49433730,-0.082,-0.397,0.692,-103.617,-110.67,-65.24
49433740,-0.079,-0.434,0.782,-86.607,-91.35,-53.427
49433750,-0.096,-0.447,0.876,-70.805,-75.897,-44.327
49433760,-0.102,-0.455,0.981,-60.112,-66.57,-37.222
49433770,-0.009,-0.592,1.122,-55.02,-57.085,-31.377
49433780,0.147,-0.777,1.184,-40.302,-39.497,-24.167
49433790,0.108,-0.761,1.143,-7.297,-7.42,-9.012
49433800,-0.217,-0.585,1.195,23.782,2.502,-0.017
49433810,-0.335,-0.454,1.263,36.627,-14.42,-6.755
49433820,-0.23,-0.416,1.178,29.767,-42.245,-11.777
49433830,-0.081,-0.46,1.018,20.405,-63.28,-12.985
49433830,-0.08,-0.509,0.919,19.915,-75.127,-14.28
49433850,-0.018,-0.518,0.864,29.05,-78.365,-22.907
49433850,0.049,-0.558,0.79,47.46,-74.165,-24.447
49433870,0.042,-0.599,0.741,76.615,-66.132,-15.155
49433870,0.076,-0.563,0.755,111.527,-54.092,1.452
49433890,0.117,-0.446,0.81,143.85,-38.325,25.532
49433890,0.127,-0.279,0.909,165.97,-18.952,51.24
49433910,0.096,-0.125,0.993,168.805,1.417,73.097
49433910,0.054,-0.028,1.04,150.062,23.24,87.167
49433920,0.05,0.011,0.961,114.1,47.39,94.797
49433930,0.1,0.01,0.878,78.295,75.162,97.51
49433940,0.144,-0.002,0.8,43.96,108.202,105.07
49433950,0.187,0.012,0.766,18.13,149.45,111.317
49433960,0.063,0.03,0.793,-6.44,188.79,115.885
49433970,-0.233,-0.041,0.765,-34.912,217.507,112.735
49433980,-0.481,-0.103,0.824,-57.995,225.925,89.337
49433990,-0.711,-0.147,0.867,-83.965,199.115,60.235
49434000,-0.847,-0.245,0.754,-101.202,143.727,36.662
49434010,-0.694,-0.406,0.656,-92.855,79.17,19.967
49434020,-0.435,-0.501,0.611,-64.015,24.727,22.12
49434030,-0.27,-0.437,0.626,-26.827,-5.757,35.385
49434040,-0.203,-0.218,0.777,0.227,-15.837,44.52
49434050,-0.385,-0.088,0.786,-1.102,-24.22,55.247
49434060,-0.471,-0.09,0.983,6.72,-47.705,47.512
49434070,-0.42,0.045,1.068,-30.502,-71.312,32.182
49434080,-0.383,-0.339,1.126,-78.872,-100.17,28.35
49434090,-0.151,-0.688,1.153,-65.607,-118.492,4.847
49434100,0.011,-0.738,1.186,-25.392,-136.867,4.585
49434110,0.045,-0.59,1.296,16.957,-158.147,18.357
49434120,0.254,-0.328,1.301,48.335,-171.325,16.397
49434130,0.584,-0.082,1.258,58.45,-163.747,8.942
49434140,0.727,0.038,1.142,49.91,-135.065,8.54
49434150,0.694,0.071,1.047,34.107,-90.912,-1.522
49434160,0.546,0.029,1,13.842,-44.415,-21.577
49434170,0.332,-0.064,0.943,-6.702,-7.945,-32.585
49434180,0.064,-0.203,0.895,-20.037,10.552,-24.587
49434190,-0.177,-0.299,0.878,-18.76,10.71,-12.932
49434190,-0.262,-0.308,0.898,-11.935,2.712,-4.655
49434210,-0.295,-0.314,0.912,-4.882,-6.317,6.982
49434210,-0.294,-0.275,0.955,-1.032,-12.932,11.725
49434230,-0.257,-0.257,0.97,-3.255,-17.202,8.12
49434230,-0.197,-0.282,0.951,-4.742,-19.442,1.225
49434250,-0.163,-0.293,0.964,-0.945,-23.257,-3.885
49434250,-0.108,-0.281,0.962,2.852,-28.875,-6.965
49434260,-0.006,-0.258,0.948,5.915,-32.235,-8.855
49434270,0.099,-0.225,0.924,9.922,-29.925,-8.225
49434280,0.156,-0.19,0.929,11.777,-23.397,-4.27
49434290,0.142,-0.178,0.936,9.047,-16.975,0.42
49434300,0.135,-0.21,0.95,5.057,-13.072,2.082
49434310,0.157,-0.249,0.974,3.132,-10.692,2.992
49434320,0.144,-0.255,1.002,2.852,-7.07,4.9
49434330,0.128,-0.251,1.009,0.98,-1.522,5.897
49434340,0.09,-0.229,0.999,-1.925,4.497,5.267
49434350,0.04,-0.217,0.965,-6.072,8.767,5.582
49434360,-0.014,-0.236,0.918,-10.062,12.04,7.42
49434370,-0.097,-0.279,0.88,-10.395,12.197,8.137
49434380,-0.212,-0.325,0.886,-5.442,7.717,7.857
49434390,-0.338,-0.318,0.926,3.272,-6.247,7.927
49434400,-0.278,-0.283,0.97,11.305,-22.54,7.98
49434410,-0.11,-0.223,1.02,15.645,-31.657,6.58
49434420,0.031,-0.141,1.052,12.705,-27.825,4.357
49434430,0.087,-0.101,1.051,3.815,-18.095,4.357
49434440,-0.001,-0.162,1.033,-6.352,-11.935,6.055
49434450,-0.079,-0.248,0.991,-12.53,-13.755,6.317
49434460,-0.137,-0.321,0.936,-12.18,-22.242,7.35
49434470,-0.187,-0.347,0.924,-7.385,-36.155,5.197
49434480,-0.06,-0.342,0.903,-1.75,-45.517,4.025
49434490,-0.008,-0.332,0.915,4.812,-47.88,6.37
49434500,0.022,-0.279,0.961,8.26,-47.827,5.442
49434510,0.131,-0.215,0.993,8.645,-48.177,2.94
49434520,0.228,-0.185,0.997,7.63,-44.852,3.185
49434530,0.281,-0.152,0.968,5.95,-37.397,2.432
49434540,0.292,-0.127,0.942,3.43,-26.127,0.612
49434550,0.276,-0.139,0.935,1.295,-13.055,-0.577
49434560,0.237,-0.167,0.942,0.227,0.367,-1.295
49434570,0.142,-0.183,0.982,-1.242,7.577,-2.03
49434580,0.082,-0.204,1.015,-4.147,8.225,-0.612
49434580,0.043,-0.24,1.02,-4.917,4.515,3.027
49434600,0.065,-0.237,1.014,-4.112,0.997,4.147
49434600,0.107,-0.202,1.006,-6.125,3.167,3.85
49434620,0.056,-0.208,0.967,-12.092,8.435,4.392
49434620,0.005,-0.229,0.975,-15.487,11.9,2.887
49434640,-0.012,-0.245,0.986,-17.78,11.287,3.85
49434640,-0.01,-0.235,0.998,-17.867,8.75,5.39
49434660,0.001,-0.226,1.015,-18.532,8.085,6.492
49434660,0.027,-0.229,1.021,-22.085,9.415,6.457
49434670,0.039,-0.23,0.99,-26.46,11.445,7.14
49434680,0.065,-0.22,0.966,-29.872,13.982,9.957
49434690,0.112,-0.214,0.956,-34.09,18.357,13.702
49434700,0.103,-0.229,0.962,-39.532,24.535,16.607
49434710,0.063,-0.242,1.005,-42.927,28.402,16.817
49434720,0.03,-0.259,1.012,-46.357,28.437,16.572
49434730,0.021,-0.265,0.997,-47.057,25.042,15.802
49434740,0.009,-0.266,1.001,-47.302,21.84,15.925
49434750,-0.017,-0.289,0.971,-47.95,19.022,14.332
49434760,-0.045,-0.296,0.942,-47.547,16.73,9.642
49434770,-0.057,-0.322,0.917,-46.497,14.385,5.162
49434780,-0.067,-0.339,0.901,-45.027,13.02,2.205
49434790,-0.085,-0.367,0.893,-44.765,10.447,2.87
49434800,-0.093,-0.379,0.88,-45.342,8.015,3.237
49434810,-0.101,-0.405,0.863,-41.877,4.252,2.712
49434820,-0.101,-0.4,0.857,-36.785,0.735,2.52
49434830,-0.108,-0.396,0.867,-32.025,-3.902,2.642
49434840,-0.056,-0.378,0.887,-27.965,-6.02,1.172
49434850,-0.033,-0.383,0.883,-28.315,-6.93,2.94
49434860,-0.022,-0.411,0.9,-27.002,-7.192,3.745
49434870,0.026,-0.419,0.907,-24.517,-7.91,2.345
49434880,0.096,-0.417,0.926,-22.382,-7.35,2.415
49434890,0.165,-0.417,0.964,-19.32,-4.69,2.87
49434900,0.234,-0.393,0.998,-17.29,1.382,4.27
49434910,0.289,-0.366,0.999,-18.777,9.065,7.472
49434920,0.331,-0.365,0.974,-20.72,20.387,11.777
49434920,0.34,-0.389,0.933,-20.72,32.165,18.637
49434940,0.317,-0.454,0.918,-14.472,41.702,28.822
49434940,0.274,-0.436,0.932,-2.17,45.85,36.907
49434960,0.188,-0.52,0.919,10.465,46.182,32.34
49434960,0.08,-0.68,0.846,39.567,45.22,21.455
49434980,-0.025,-0.783,0.849,91.245,42.385,6.265
49434980,-0.062,-0.78,0.859,153.23,38.482,-18.445
49435000,-0.006,-0.563,0.964,206.062,35.49,-46.305
49435000,-0.025,-0.298,1.122,229.88,37.012,-57.19
49435010,-0.102,-0.281,1.141,221.48,33.565,-60.742
49435020,-0.165,-0.318,1.106,203.56,16.432,-76.947
49435030,-0.061,-0.094,1.113,191.572,-6.79,-106.277
49435040,0.104,0.004,1.044,173.25,-21.297,-100.31
49435050,0.08,-0.116,0.972,158.637,-18.2,-82.845
49435060,-0.011,-0.095,0.902,149.957,-9.677,-82.53
49435070,-0.009,0.033,0.894,143.29,-2.31,-87.92
49435080,-0.007,0.141,0.91,128.73,4.112,-87.307
49435090,-0.082,0.262,0.962,97.947,6.195,-88.147
49435100,-0.203,0.342,0.94,47.985,2.922,-95.69
49435110,-0.242,0.314,0.895,-7.385,-5.792,-107.38
49435120,-0.18,0.276,0.857,-62.195,-15.522,-114.222
49435130,-0.076,0.252,0.802,-116.725,-17.885,-113.417
49435140,-0.056,0.125,0.736,-166.407,-11.305,-105.245
49435150,-0.112,-0.095,0.662,-197.4,-1.715,-97.597
49435160,-0.165,-0.301,0.631,-201.932,6.632,-89.32
49435170,-0.209,-0.475,0.621,-180.075,8.347,-73.762
49435180,-0.235,-0.557,0.67,-138.04,8.19,-52.71
49435190,-0.227,-0.503,0.72,-93.502,8.12,-33.915
49435200,-0.239,-0.43,0.823,-53.935,8.435,-18.795
49435210,-0.235,-0.305,0.895,-33.95,8.295,-9.835
49435220,-0.257,-0.258,0.977,-28.997,6.09,-5.862
49435230,-0.271,-0.259,0.99,-38.202,1.767,-6.142
49435240,-0.281,-0.293,0.994,-47.827,-3.955,-8.662
49435250,-0.237,-0.302,0.986,-55.86,-11.707,-13.597
49435260,-0.159,-0.286,0.966,-62.16,-17.15,-14.42
49435270,-0.101,-0.315,0.94,-66.5,-17.622,-9.782
49435280,-0.063,-0.339,0.905,-69.475,-10.237,-3.062
49435290,-0.041,-0.381,0.873,-68.302,0.892,3.972
49435300,-0.051,-0.452,0.855,-59.132,15.155,12.792
49435310,-0.065,-0.485,0.865,-43.242,29.26,21.367
49435320,-0.099,-0.45,0.906,-26.687,40.197,30.1
49435330,-0.185,-0.436,0.938,-14.385,45.22,35.315
49435330,-0.247,-0.407,0.979,-3.535,43.785,33.967
49435350,-0.301,-0.386,0.994,1.942,33.81,27.877
49435350,-0.34,-0.377,1.002,6.807,16.747,20.44
49435370,-0.312,-0.373,0.943,12.775,-3.36,12.442
49435370,-0.235,-0.402,0.918,30.52,-20.51,7.157
49435390,-0.163,-0.386,0.906,49.455,-31.797,6.685
49435390,-0.116,-0.337,0.896,64.487,-36.505,6.842
49435410,-0.081,-0.293,0.887,76.755,-36.89,4.707
49435410,-0.054,-0.215,0.925,85.54,-36.575,3.412
49435420,-0.05,-0.111,0.975,81.672,-37.87,7.052
49435430,-0.063,-0.042,1.016,64.96,-39.182,9.782
49435440,-0.019,-0.02,1.041,39.952,-38.832,8.872
49435450,0.028,-0.07,1.024,13.107,-35.175,10.937
49435460,0.008,-0.154,1.009,-8.505,-27.93,15.242
49435470,-0.011,-0.195,1.002,-22.487,-20.912,16.957
49435480,-0.029,-0.234,0.973,-33.442,-17.08,18.357
49435490,-0.061,-0.323,0.964,-38.815,-16.31,18.357
49435500,-0.049,-0.412,0.924,-34.387,-16.03,13.562
49435510,-0.013,-0.409,0.958,-16.362,-15.12,6.737
49435520,-0.025,-0.388,0.994,-0.7,-14.402,7.647
49435530,-0.01,-0.357,1,10.692,-11.865,8.33
49435540,-0.032,-0.315,1.012,21.07,-8.977,7.647
49435550,-0.084,-0.263,0.997,25.532,-6.667,12.18
49435560,-0.071,-0.257,0.992,26.985,-2.765,17.43
49435570,-0.008,-0.29,0.966,27.982,7.28,23.467
49435580,0.017,-0.298,0.945,32.795,26.862,29.89
49435590,-0.023,-0.271,0.955,39.392,50.05,36.802
49435600,-0.104,-0.236,0.993,44.572,72.31,45.587
49435610,-0.185,-0.212,1.021,47.565,89.355,55.405
49435620,-0.242,-0.179,1.04,46.095,101.307,65.572
49435630,-0.274,-0.15,1.038,40.285,108.972,74.62
49435640,-0.31,-0.104,1.044,35.437,111.86,83.895
49435650,-0.343,-0.041,1.063,27.51,107.152,95.252
49435660,-0.385,-0.011,1.038,13.86,96.477,104.65
49435670,-0.383,-0.019,1.021,-1.12,80.272,108.57
49435670,-0.374,-0.083,0.942,-20.475,60.917,112.385
49435690,-0.358,-0.151,0.871,-29.417,41.142,109.76
49435690,-0.318,-0.182,0.85,-28.84,24.552,101.955
49435710,-0.296,-0.19,0.829,-26.39,8.575,90.387
49435710,-0.27,-0.16,0.847,-22.487,-5.057,73.692
49435730,-0.268,-0.121,0.856,-22.225,-19.442,55.265
49435730,-0.255,-0.093,0.873,-24.465,-35.017,34.282
49435750,-0.235,-0.069,0.907,-32.27,-54.53,17.99
49435750,-0.18,-0.079,0.891,-46.322,-75.127,5.775
49435760,-0.058,-0.126,0.861,-57.645,-90.107,-4.567
49435770,0.047,-0.224,0.837,-62.755,-96.32,-6.177
49435780,0.064,-0.336,0.823,-61.477,-95.042,-0.262
49435790,0.053,-0.395,0.826,-49.525,-90.65,2.047
49435800,0.061,-0.396,0.861,-31.57,-83.79,-0.437
49435810,0.139,-0.41,0.93,-15.172,-75.11,-2.555
49435820,0.28,-0.432,0.975,-1.697,-46.567,-5.145
49435830,0.246,-0.387,1.158,13.825,-15.277,-9.677
49435840,0.1,-0.328,1.163,12.565,16.765,-9.065
49435850,-0.038,-0.308,1.168,8.89,29.767,-14.28
49435860,-0.084,-0.282,1.085,-1.347,30.747,-11.252
49435870,-0.178,-0.277,1.021,-10.552,28.717,0.962
49435880,-0.27,-0.318,0.94,-20.405,18.567,10.43
49435890,-0.229,-0.307,0.886,-26.6,8.295,9.485
49435900,-0.176,-0.338,0.819,-26.32,1.925,9.205
49435910,-0.125,-0.315,0.841,-15.645,2.607,7.315
49435920,-0.129,-0.275,0.867,-10.972,6.37,8.4
49435930,-0.15,-0.275,0.887,-9.485,9.52,6.597
49435940,-0.104,-0.248,0.918,-9.887,14.805,3.552
49435950,-0.089,-0.241,0.918,-14.297,19.512,4.637
49435960,-0.112,-0.239,0.959,-12.967,24.517,3.272
49435970,-0.111,-0.24,0.968,-16.73,28.21,3.29
49435980,-0.103,-0.243,0.984,-19.355,32.077,0.84
49435990,-0.107,-0.244,0.992,-20.457,36.347,-1.697
49436000,-0.135,-0.242,0.989,-23.205,39.9,-3.29
49436010,-0.183,-0.237,0.986,-26.775,39.462,-5.285
49436020,-0.246,-0.256,0.994,-32.165,35.525,-5.285
49436030,-0.31,-0.288,0.996,-37.817,28.35,-5.582
49436040,-0.368,-0.274,1.031,-41.107,19.617,-7.385
49436050,-0.428,-0.258,1.089,-46.742,4.672,-4.655
49436060,-0.418,-0.296,1.101,-52.342,-10.395,1.277
49436070,-0.373,-0.291,1.038,-50.015,-20.317,3.115
49436080,-0.294,-0.215,1.001,-47.197,-23.625,1.68
49436080,-0.228,-0.173,0.939,-50.627,-20.387,0.052
49436100,-0.27,-0.17,0.893,-56.087,-18.9,-0.105
49436100,-0.335,-0.232,0.928,-60.917,-25.112,0.227
49436120,-0.24,-0.32,0.945,-62.072,-37.415,1.015
49436120,-0.133,-0.397,0.929,-59.272,-44.117,4.952
49436140,-0.189,-0.443,0.924,-53.9,-45.377,5.827
49436140,-0.276,-0.436,0.933,-55.44,-47.547,4.34
49436160,-0.328,-0.517,0.879,-59.325,-56.77,-0.7
49436160,-0.284,-0.582,0.843,-55.3,-68.372,-4.532
49436170,-0.237,-0.581,0.861,-44.205,-84.087,-7.472
49436180,-0.44,-0.417,0.426,-26.932,-111.685,-22.032
49436190,0.444,0.051,1.173,-35.175,-124.705,-29.995
49436200,0.631,-0.476,0.903,-67.97,-38.342,-1.102
49436210,-0.554,-0.895,0.714,-95.375,-34.16,5.582
49436220,-0.067,-0.638,0.667,-55.842,-43.505,-8.032
49436230,0.277,-0.294,0.771,-22.802,-49.122,7.805
49436240,0.043,-0.329,0.821,-33.372,-32.865,25.392
49436250,0.021,-0.468,0.823,-52.255,-19.88,15.767
49436260,0.04,-0.576,0.805,-51.047,-15.977,11.83
49436270,0.024,-0.56,0.807,-38.762,-11.007,21.21
49436280,-0.059,-0.468,0.864,-29.47,-1.855,22.015
49436290,-0.133,-0.468,0.904,-34.212,0.962,15.4
49436300,-0.184,-0.548,0.885,-41.142,-2.607,15.452
49436310,-0.171,-0.597,0.849,-39.865,-8.557,15.592
49436320,-0.229,-0.575,0.784,-37.065,-14.087,13.02
49436330,-0.218,-0.535,0.786,-35.262,-20.212,9.17
49436340,-0.227,-0.636,0.714,-30.73,-27.265,7.822
49436350,-0.098,-0.626,0.761,-12.81,-33.442,3.605
49436360,-0.092,-0.605,0.759,0.07,-37.012,8.435
49436370,-0.003,-0.61,0.727,10.132,-36.645,9.677
49436380,0.024,-0.565,0.756,20.37,-31.395,5.477
49436390,0.018,-0.521,0.787,24.01,-23.572,-1.557
49436400,-0.009,-0.524,0.836,21.56,-15.137,-9.537
49436410,-0.067,-0.561,0.859,18.235,-12.845,-14.14
49436420,-0.088,-0.573,0.839,20.107,-14.735,-15.435
49436420,-0.1,-0.55,0.819,26.337,-19.53,-14.945
49436440,-0.113,-0.527,0.841,30.467,-23.572,-13.405
49436440,-0.139,-0.531,0.873,30.292,-29.435,-13.457
49436460,-0.114,-0.547,0.84,30.117,-34.86,-16.362
49436460,-0.093,-0.536,0.804,34.492,-40.932,-18.322
49436480,-0.038,-0.496,0.834,39.585,-46.602,-15.662
49436480,0.05,-0.498,0.841,44.205,-49.472,-12.355
49436500,0.196,-0.489,0.784,49.28,-43.61,-11.27
49436500,0.315,-0.417,0.781,56.035,-33.512,-5.757
49436510,0.335,-0.375,0.859,59.762,-21.542,4.287
49436520,0.429,-0.428,0.918,56.542,-7.805,6.702
49436530,0.486,-0.412,0.833,54.635,8.085,1.19
49436540,0.473,-0.37,0.799,55.737,27.597,3.325
49436550,0.438,-0.391,0.777,55.352,47.057,7.105
49436560,0.467,-0.407,0.793,55.212,66.622,10.64
49436570,0.459,-0.385,0.778,53.392,86.957,16.887
49436580,0.418,-0.369,0.808,49.84,108.78,22.96
49436590,0.335,-0.352,0.864,41.755,128.957,25.445
49436600,0.187,-0.359,0.869,30.415,142.992,26.075
49436610,-0.025,-0.378,0.921,19.442,147.63,24.08
49436620,-0.302,-0.394,0.986,7.087,139.422,19.337
49436630,-0.453,-0.409,1.057,-4.725,119.14,12.915
49436640,-0.452,-0.427,1.067,-13.755,94.99,11.182
49436650,-0.479,-0.463,1.13,-19.827,70.752,19.092
49436660,-0.373,-0.52,1.218,-23.835,57.925,19.88
49436670,-0.309,-0.551,1.249,-24.552,53.287,11.357
49436680,-0.184,-0.607,1.245,-28.77,56.682,6.107
49436690,-0.116,-0.569,1.134,-22.977,74.9,3.132
49436700,-0.374,-0.504,1.102,-11.025,78.522,-3.185
49436710,-0.629,-0.431,1.043,-13.405,54.617,-8.96
49436720,-0.426,-0.638,1.011,-13.212,29.102,-13.072
49436730,-0.093,-0.781,0.819,20.107,19.845,-20.405
49436740,-0.027,-0.618,0.869,73.92,31.57,-28.28
49436750,-0.211,-0.422,0.93,103.862,42.997,-26.722
49436760,-0.291,-0.277,0.96,110.285,49.227,-33.372
49436770,-0.365,-0.274,0.894,104.492,43.715,-38.132
49436780,-0.391,-0.294,0.826,105.682,30.205,-46.077
49436790,-0.392,-0.223,0.814,109.637,11.532,-54.075
49436800,-0.42,-0.13,0.804,105.42,-10.64,-60.095
49436810,-0.393,-0.066,0.785,94.5,-31.99,-71.452
49436820,-0.333,-0.045,0.754,79.975,-48.265,-84.175
49436830,-0.295,-0.042,0.716,65.082,-59.5,-94.832
49436830,-0.254,-0.04,0.697,52.202,-64.837,-101.675
49436850,-0.213,-0.037,0.657,39.462,-66.115,-102.707
49436850,-0.174,-0.063,0.668,33.32,-62.37,-100.835
49436870,-0.135,-0.053,0.697,22.75,-53.427,-90.562
49436870,-0.154,-0.065,0.711,6.615,-40.932,-74.62
49436880,-0.21,-0.088,0.765,-7.892,-26.775,-62.562
49436890,-0.254,-0.137,0.775,-23.607,-14.997,-53.112
49436900,-0.306,-0.21,0.825,-30.957,-8.715,-44.38
49436910,-0.352,-0.264,0.864,-37.765,-7.787,-41.335
49436920,-0.378,-0.287,0.891,-40.897,-12.687,-41.3
49436930,-0.351,-0.312,0.897,-43.05,-20.877,-43.557
49436940,-0.321,-0.366,0.904,-40.372,-30.362,-44.38
49436950,-0.274,-0.355,0.93,-37.502,-39.112,-43.487
49436960,-0.237,-0.373,0.9,-37.012,-46.585,-42.385
49436970,-0.19,-0.387,0.93,-28.7,-51.415,-40.74
49436980,-0.105,-0.367,0.906,-28.035,-51.485,-39.97
49436990,-0.038,-0.38,0.916,-21.437,-46.112,-36.33
49437000,0.043,-0.347,0.95,-18.777,-34.37,-30.502
49437010,0.063,-0.342,0.935,-23.975,-19.04,-22.085
49437020,0.03,-0.369,0.958,-24.832,-2.187,-14.472
49437030,0.01,-0.367,0.971,-34.055,11.742,-8.137
49437040,-0.042,-0.386,0.96,-44.292,20.877,-0.56
49437050,-0.091,-0.424,0.96,-49.105,25.48,3.99
49437060,-0.129,-0.462,0.944,-53.007,25.427,6.09
49437070,-0.17,-0.515,0.93,-49.227,20.79,9.1
49437080,-0.152,-0.504,0.936,-44.555,16.905,9.31
49437090,-0.145,-0.509,0.932,-40.722,13.982,9.747
49437100,-0.142,-0.5,0.923,-37.502,15.085,10.255
49437110,-0.143,-0.492,0.907,-35.595,17.71,10.832
49437120,-0.172,-0.523,0.892,-33.32,20.86,13.247
49437130,-0.188,-0.524,0.871,-30.397,21.455,16.397
49437140,-0.226,-0.583,0.838,-21.77,20.422,22.015
49437150,-0.217,-0.574,0.825,-9.24,19.337,23.905
49437160,-0.228,-0.567,0.815,4.935,17.92,26.232
49437170,-0.205,-0.509,0.809,19.022,15.032,26.39
49437170,-0.213,-0.507,0.787,32.357,12.792,27.632
49437190,-0.213,-0.522,0.805,51.782,10.22,26.95
49437190,-0.163,-0.456,0.791,69.79,6.965,23.852
49437210,-0.182,-0.469,0.851,92.575,2.327,24.412
49437210,-0.155,-0.396,0.906,105.98,-3.412,20.247
49437230,-0.167,-0.365,0.976,116.55,-14.875,17.675
49437230,-0.147,-0.337,1.003,119.035,-27.09,11.777
49437250,-0.09,-0.304,1.004,119.14,-38.57,4.165
49437250,0.007,-0.231,1.015,114.835,-43.47,-4.112
49437260,0.072,-0.2,1.011,104.667,-40.705,-10.325
49437270,0.119,-0.152,0.982,88.987,-29.925,-14.962
49437280,0.119,-0.163,0.964,75.862,-15.592,-15.365
49437290,0.095,-0.159,0.945,64.277,1.47,-12.827
49437300,0.05,-0.137,0.929,57.155,17.202,-9.362
49437310,-0.028,-0.118,0.942,53.567,29.785,-6.807
49437320,-0.086,-0.079,0.961,46.025,38.5,-7.245
49437330,-0.143,-0.072,0.961,39.69,41.72,-8.225
49437340,-0.166,-0.048,0.979,32.445,40.88,-11.287
49437350,-0.216,-0.036,0.996,24.885,34.65,-11.252
49437360,-0.256,-0.037,1.003,17.482,25.987,-11.2
49437370,-0.222,-0.001,1.003,9.257,16.712,-14.717
49437380,-0.169,0.006,0.984,-2.782,11.55,-17.22
49437390,-0.153,-0.025,0.935,-17.115,10.727,-15.085
49437400,-0.158,-0.09,0.895,-23.327,12.967,-12.565
49437410,-0.143,-0.097,0.875,-24.57,17.465,-12.18
49437420,-0.16,-0.075,0.866,-24.955,24.027,-9.292
49437430,-0.198,-0.081,0.85,-23.782,31.027,-5.6
49437440,-0.232,-0.089,0.841,-22.172,37.52,-4.077
49437450,-0.292,-0.118,0.835,-17.902,39.042,-1.522
49437460,-0.341,-0.134,0.848,-11.62,36.067,2.555
49437470,-0.374,-0.134,0.855,-5.092,29.47,5.32
49437480,-0.406,-0.125,0.879,1.067,21.157,6.545
49437490,-0.416,-0.121,0.895,3.955,10.657,5.81
49437500,-0.397,-0.118,0.914,4.357,0.875,4.077
49437510,-0.378,-0.138,0.924,4.305,-8.435,4.462
49437520,-0.375,-0.169,0.948,7.63,-15.715,6.895
49437530,-0.355,-0.176,0.978,11.392,-22.417,9.082
49437540,-0.303,-0.17,1.003,14.997,-26.705,10.797
49437550,-0.257,-0.154,1.028,18.217,-28.91,12.022
49437550,-0.219,-0.14,1.041,18.41,-28.857,12.985
49437570,-0.177,-0.133,1.037,17.062,-27.807,13.125
49437570,-0.128,-0.13,1.028,14.77,-24.465,13.23
49437580,-0.1,-0.129,1.02,12.145,-21.07,13.632
49437590,-0.092,-0.132,1.013,9.45,-17.85,14.63
49437600,-0.094,-0.143,0.998,7.647,-15.942,15.417
49437610,-0.079,-0.145,0.984,7.437,-14.035,14.7
49437620,-0.058,-0.131,0.979,8.295,-12.442,13.125
49437630,-0.045,-0.112,0.968,7.787,-10.605,11.55
49437640,-0.023,-0.097,0.954,5.337,-7.787,9.415
49437650,-0.004,-0.086,0.938,1.26,-2.94,7.56
49437660,0.001,-0.083,0.928,-2.765,3.325,6.492
49437670,-0.005,-0.087,0.929,-5.74,10.797,6.737
49437680,-0.039,-0.106,0.917,-7.42,18.777,7.402
49437690,-0.078,-0.131,0.905,-5.81,26.407,6.177
49437700,-0.11,-0.147,0.909,-0.315,34.527,3.22
49437710,-0.18,-0.159,0.931,7.42,39.392,-0.56
49437720,-0.257,-0.148,0.944,15.697,38.885,-5.845
49437730,-0.291,-0.124,0.96,22.767,32.462,-10.64
49437740,-0.294,-0.102,0.959,26.25,22.137,-12.145
49437750,-0.353,-0.161,0.978,33.005,8.452,-6.317
49437760,-0.329,-0.109,1.002,35.35,-4.812,-4.077
49437770,-0.298,-0.097,0.982,30.38,-14.49,-5.775
49437780,-0.284,-0.128,0.988,30.782,-18.952,-4.847
49437790,-0.25,-0.132,0.984,30.765,-20.58,-3.85
49437800,-0.208,-0.116,0.999,32.83,-17.727,-4.095
49437810,-0.197,-0.103,1.009,32.602,-11.672,-4.13
49437820,-0.201,-0.11,1.005,31.255,-4.287,-5.285
49437830,-0.21,-0.105,1.013,31.605,1.82,-5.46
49437840,-0.229,-0.093,1.021,30.082,5.355,-4.112
49437850,-0.257,-0.085,1.027,27.51,4.357,-2.835
49437860,-0.26,-0.099,1.01,24.832,0.21,-3.08
49437870,-0.238,-0.094,1.006,23.975,-4.935,-4.13
49437880,-0.235,-0.102,1.009,22.225,-11.252,-3.185
49437890,-0.225,-0.095,1.007,21.805,-18.34,-2.992
49437900,-0.199,-0.067,1.012,22.697,-24.167,-5.022
49437910,-0.139,-0.048,1.033,20.737,-29.68,-4.707
49437920,-0.025,-0.049,1.024,15.557,-24.745,0.42
49437920,-0.071,-0.055,1.032,11.077,-16.047,8.277
49437940,-0.152,-0.052,1.045,8.89,-8.137,12.18
49437940,-0.148,-0.046,1.033,6.457,-5.897,10.64
49437960,-0.132,-0.061,1.041,2.922,-4.69,9.782
49437960,-0.17,-0.085,1.025,0.262,-5.355,9.432
49437980,-0.176,-0.081,0.999,2.94,-7.49,6.3
49437980,-0.128,-0.058,0.99,6.317,-10.01,3.885
49438000,-0.125,-0.054,0.968,6.93,-11.2,5.81
49438000,-0.135,-0.068,0.94,9.1,-11.375,7.42
49438010,-0.113,-0.071,0.938,14.717,-10.622,7.997
49438020,-0.104,-0.046,0.934,18.445,-6.912,9.905
49438030,-0.138,-0.005,0.956,18.217,-3.272,11.672
49438040,-0.145,0.004,0.964,16.117,0.28,10.605
49438050,-0.16,-0.01,0.978,12.897,0.507,10.167
49438060,-0.17,-0.016,0.978,9.047,0.84,8.645
49438070,-0.147,-0.017,0.975,7.49,1.05,5.792
49438080,-0.144,-0.019,0.979,5.127,3.622,3.587
49438090,-0.18,-0.033,0.977,3.745,7.7,1.26
49438100,-0.227,-0.033,0.997,4.287,8.767,-2.485
49438110,-0.223,-0.023,1.004,5.285,7.595,-3.99
49438120,-0.217,-0.017,1.019,3.885,5.495,-3.307
49438130,-0.23,-0.016,1.017,0.98,3.535,-3.01
49438140,-0.232,-0.018,1.018,-1.575,2.205,-4.182
49438150,-0.215,-0.026,1.001,-2.572,0.14,-4.935
49438160,-0.228,-0.04,1.005,-1.102,-3.255,-0.297
49438170,-0.212,-0.038,0.974,-2.345,-7.07,2.047
49438180,-0.2,-0.041,0.98,-0.262,-9.432,0.752
49438190,-0.165,-0.034,0.969,0.367,-10.605,-0.805
49438200,-0.157,-0.033,0.964,0.525,-9.642,-0.542
49438210,-0.16,-0.032,0.968,1.365,-8.592,0.297
49438220,-0.157,-0.031,0.963,1.75,-7.332,0.822
49438230,-0.132,-0.03,0.963,2.327,-5.687,0.385
49438240,-0.115,-0.032,0.971,3.43,-0.595,0.63
49438250,-0.13,-0.022,0.983,4.812,6.037,1.995
49438260,-0.15,-0.012,0.993,6.457,13.125,4.2
49438260,-0.175,0,1.003,7.315,18.305,6.02
49438280,-0.208,0.006,1.002,6.685,22.33,6.3
49438280,-0.237,-0.001,0.999,5.897,23.712,4.305
49438300,-0.26,-0.015,0.993,6.037,23.065,2.065
49438300,-0.272,-0.026,0.981,7.91,20.072,1.12
49438320,-0.283,-0.018,0.983,11.2,16.205,3.29
49438320,-0.284,-0.011,0.972,13.475,10.622,5.95
49438330,-0.258,0.008,0.971,15.155,6.037,5.635
49438340,-0.239,0.016,0.962,14.455,3.36,5.862
49438350,-0.228,0.011,0.948,12.95,3.5,6.44
49438360,-0.227,0.013,0.939,11.987,5.53,6.72
49438370,-0.25,0.017,0.945,13.51,6.65,8.242
49438380,-0.273,0.033,0.959,16.292,5.32,10.605
49438390,-0.272,0.049,0.962,16.887,2.345,11.742
49438400,-0.27,0.061,0.971,16.065,-0.175,11.602
49438410,-0.267,0.069,0.963,13.072,-2.31,9.852
49438420,-0.265,0.065,0.962,11.182,-3.552,8.26
49438430,-0.265,0.053,0.96,10.062,-4.095,8.54
49438440,-0.27,0.034,0.954,9.712,-3.132,9.152
49438450,-0.287,0.025,0.958,11.252,-1.522,9.835
49438460,-0.317,0.024,0.973,14.437,-1.05,10.832
49438470,-0.342,0.032,0.981,16.887,-3.622,12.162
49438480,-0.344,0.05,0.976,17.675,-7.472,13.475
49438490,-0.332,0.064,0.979,18.462,-11.9,15.382
49438500,-0.331,0.076,0.982,17.377,-15.942,19.477
49438510,-0.324,0.071,0.984,14.7,-20.212,23.712
49438520,-0.303,0.068,0.982,10.867,-23.17,26.827
49438530,-0.28,0.059,0.988,6.597,-25.725,28.98
49438540,-0.265,0.039,0.972,1.54,-27.195,30.345
49438550,-0.242,0.018,0.961,-0.63,-28.227,30.415
49438560,-0.23,-0.01,0.949,-1.19,-28.157,30.66
49438570,-0.22,-0.014,0.94,-0.21,-28.752,28.56
49438580,-0.208,-0.007,0.949,1.627,-29.102,26.355
49438590,-0.198,0.002,0.936,1.417,-30.205,25.567
49438600,-0.168,0.01,0.934,0.262,-30.187,24.15
49438610,-0.144,-0.001,0.928,-3.412,-29.225,23.922
49438620,-0.124,-0.034,0.916,-9.52,-25.585,22.575
49438630,-0.102,-0.081,0.896,-16.205,-20.142,19.442
49438640,-0.108,-0.135,0.893,-21.7,-13.02,17.465
49438650,-0.123,-0.186,0.868,-24.99,-6.947,15.785
49438660,-0.143,-0.205,0.868,-21.612,-0.245,14.735
49438670,-0.2,-0.21,0.863,-16.59,3.587,17.885
49438670,-0.255,-0.185,0.873,-9.922,4.707,20.807
49438690,-0.275,-0.146,0.89,-3.08,2.66,21.7
49438690,-0.287,-0.101,0.913,1.487,-1.172,21.875
49438710,-0.296,-0.069,0.933,4.707,-7.752,20.615
49438710,-0.297,-0.04,0.954,7.157,-16.992,19.145
49438730,-0.274,-0.007,0.949,8.085,-28.087,19.11
49438730,-0.206,0.024,0.948,12.022,-38.22,19.6
49438750,-0.148,0.058,0.93,15.05,-44.31,23.747
49438750,-0.106,0.072,0.891,18.165,-45.727,26.705
49438760,-0.046,0.107,0.861,23.205,-40.687,26.04
49438770,-0.026,0.134,0.867,27.93,-32.41,27.142
49438780,-0.067,0.159,0.868,31.167,-24.867,28.805
49438790,-0.066,0.221,0.928,34.737,-19.687,26.757
49438800,-0.081,0.275,0.986,31.745,-17.15,27.405
49438810,-0.091,0.308,1.009,23.292,-18.06,25.935
49438820,-0.08,0.324,1.021,14.665,-20.055,24.377
49438830,-0.03,0.303,0.997,5.53,-18.602,24.185
49438840,0.006,0.31,1.024,-1.697,-13.195,21.805
49438850,-0.075,0.308,1.05,-5.897,-13.737,22.242
49438860,-0.132,0.299,1.073,-5.897,-21.735,21.787
49438870,-0.175,0.308,1.049,-3.5,-39.042,19.565
49438880,-0.154,0.315,0.987,-4.27,-59.78,17.71
49438890,-0.054,0.308,0.948,-9.905,-78.05,16.117
49438900,0.036,0.264,0.908,-18.147,-87.482,14.735
49438910,0.132,0.232,0.914,-27.965,-87.832,10.762
49438920,0.315,0.22,1.023,-40.18,-73.692,4.812
49438930,0.289,0.085,0.894,-50.172,-51.677,1.417
49438940,0.219,0.083,1.101,-42.262,-31.762,-18.865
49438950,0.114,0.122,1.133,-49.262,-31.797,-30.187
49438960,0.137,0.037,1.144,-55.667,-35.507,-26.652
49438970,0.079,-0.163,1.165,-52.517,-45.167,-24.465
49438980,0.232,-0.316,1.077,-33.967,-54.11,-35.385
49438990,0.467,-0.256,1.077,-2.73,-42.105,-44.66
49439000,0.333,-0.156,1.048,14.822,-37.1,-37.59
49439010,0.29,-0.01,0.993,16.957,-30.065,-32.427
49439010,0.316,0.071,0.95,13.37,-19.512,-26.372
49439030,0.281,0.022,0.886,2.397,-10.692,-16.817
49439030,0.253,-0.033,0.798,-8.96,2.415,-10.535
49439050,0.224,-0.065,0.79,-9.817,16.8,-8.68
49439050,0.11,-0.083,0.783,-2.047,30.257,-0.84
49439070,-0.009,-0.08,0.791,5.005,35.665,6.317
49439070,-0.11,-0.036,0.834,14.385,32.007,4.095
49439080,-0.196,-0.03,0.927,16.152,21.472,-0.437
49439090,-0.265,-0.059,0.965,12.495,3.85,0.122
49439100,-0.201,-0.073,0.965,15.487,-11.602,3.71
49439110,-0.108,-0.056,1.051,21.052,-20.125,4.742
49439120,-0.037,0.032,1.097,26.215,-22.225,1.802
49439130,0.012,0.11,1.119,26.355,-19.425,-3.115
49439140,0.049,0.146,1.113,21.192,-15.61,-7.98
49439150,0.045,0.159,1.079,15.995,-12.845,-11.13
49439160,0.091,0.129,1.083,10.797,-12.862,-10.08
49439170,0.19,0.109,1.041,11.147,-9.992,-7.857
49439180,0.207,0.138,1.028,16.957,-5.162,-3.22
49439190,0.179,0.174,1.024,17.395,-0.735,0.612
49439200,0.156,0.189,1.005,12.285,3.955,0.385
49439210,0.098,0.154,0.992,5.757,6.632,-0.105
49439220,0.039,0.098,0.971,1.05,6.702,-0.052
49439230,0.013,0.074,0.964,0.525,4.532,1.05
49439240,-0.001,0.071,0.97,0.507,2.52,3.15
49439250,-0.029,0.077,0.972,-1.435,0.787,3.605
49439260,-0.056,0.071,0.983,-4.41,0.087,2.817
49439270,-0.129,0.09,0.937,-6.86,-3.78,3.29
49439280,-0.087,0.076,0.925,-11.392,-11.777,4.76
49439290,0.009,0.134,0.818,-12.425,-14.857,5.845
49439300,0.134,0.099,1.05,-15.05,-18.392,2.152
49439310,0.298,-0.11,1.012,-23.135,-11.532,4.602
49439320,0.133,0.067,1.076,5.617,2.957,11.13
49439330,0.155,0.178,1.129,3.622,2.537,12.582
49439340,0.288,0.102,1.002,-2.625,7.91,6.86
49439350,0.241,0.096,0.993,2.73,19.722,5.652
49439360,0.084,0.129,0.985,-1.102,27.772,8.33
49439370,-0.054,0.122,0.994,-2.572,26.915,10.22
49439380,-0.121,0.061,0.987,-4.637,20.58,11.252
49439390,-0.144,0.028,0.997,-11.445,12.162,10.237
49439400,-0.104,0.027,0.967,-17.185,6.422,3.08
49439410,-0.143,0.027,0.988,-9.66,-0.35,4.252
49439420,-0.106,0.057,0.974,-10.78,-10.395,8.54
49439420,-0.02,0.093,0.975,-10.08,-18.585,7.63
49439440,0.019,0.086,0.98,-10.202,-20.037,7.262
49439440,0.025,0.073,0.981,-11.34,-19.407,6.965
49439460,0.023,0.066,1.002,-11.165,-18.567,5.18
49439460,0.034,0.057,0.997,-10.675,-18.025,4.637
49439480,0.06,0.066,0.99,-9.415,-17.255,4.795
49439480,0.072,0.055,0.985,-9.012,-15.382,6.142
49439500,0.083,0.034,0.978,-7.052,-12.985,5.53
49439500,0.084,0.028,0.976,-4.34,-10.325,4.602
49439510,0.073,0.025,0.964,-2.59,-8.505,3.99
49439520,0.08,0.028,0.965,-0.647,-6.125,2.625
49439530,0.069,0.027,0.957,1.102,-3.937,2.187
49439540,0.049,0.031,0.957,3.5,-1.68,2.24
49439550,0.024,0.032,0.957,4.48,-1.26,1.802
49439560,0.011,0.039,0.959,6.177,-2.292,0.787
49439570,0.03,0.048,0.974,7.525,-4.76,0.98
49439580,0.056,0.049,0.978,7.91,-5.88,2.432
49439590,0.072,0.057,0.983,8.365,-6.107,3.36
49439600,0.079,0.063,0.999,7.647,-4.515,3.64
49439610,0.065,0.048,1.011,7.035,-3.342,3.342
49439620,0.049,0.036,1.009,7.367,-2.327,3.01
49439630,0.054,0.036,1.009,8.68,-2.887,2.87
49439640,0.066,0.064,0.993,10.255,-3.517,3.605
49439650,0.105,0.106,1.008,9.677,-4.077,4.812
49439660,0.144,0.118,1.008,6.72,-1.662,6.72
49439670,0.154,0.11,1.027,5.057,1.575,9.467
49439680,0.163,0.109,1.04,4.83,5.635,10.692
49439690,0.173,0.12,1.052,5.005,10.482,11.2
49439700,0.152,0.14,1.067,4.235,17.517,12.057
49439710,0.073,0.189,1.086,-0.91,21.175,14.122
49439720,-0.023,0.164,1.122,-13.895,19.197,18.602
49439730,0.002,0.132,1.123,-31.832,19.267,14.805
49439740,-0.013,0.067,1.09,-43.365,21.245,8.155
49439750,-0.099,0.019,1.084,-43.242,24.955,12.915
49439760,-0.175,0.043,1.066,-47.932,20.125,17.062
49439760,-0.176,0.068,1.065,-54.18,14.14,18.76
49439780,-0.12,-0.04,1.03,-57.382,5.932,16.275
49439780,-0.007,-0.078,1.014,-52.29,5.25,9.345
49439800,0.003,-0.047,0.967,-47.057,7.455,6.842
49439800,0.073,0.007,0.946,-41.93,14.087,7.98
49439820,0.021,0.01,0.938,-36.505,22.365,13.737
49439820,-0.018,-0.022,0.918,-32.217,24.307,15.61
49439830,0.027,-0.024,0.893,-24.832,28.805,17.255
49439840,-0.004,0.003,0.877,-20.422,31.727,22.89
49439850,-0.168,0.052,0.928,-23.082,25.287,25.882
49439860,-0.171,0.022,0.89,-29.295,8.96,19.04
49439870,-0.073,0.008,0.862,-32.182,-0.665,11.34
49439880,-0.135,-0.026,0.861,-32.69,-14.28,7.507
49439890,-0.084,-0.019,0.857,-33.145,-25.13,-0.525
49439900,-0.04,-0.042,0.866,-29.085,-29.33,-5.495
49439910,-0.036,-0.064,0.879,-25.41,-31.622,-5.53
49439920,-0.002,-0.079,0.942,-21.332,-30.677,-5.722
49439930,-0.004,-0.083,1.018,-20.02,-29.977,-4.882
49439940,-0.035,-0.123,1.064,-20.16,-30.24,-4.252
49439950,0.079,-0.108,1.083,-17.832,-28.997,-7
49439960,0.081,-0.069,1.064,-14.42,-26.407,-5.232
49439970,0.044,0.014,1.105,-16.817,-25.287,-6.772
49439980,-0.037,-0.023,1.068,-26.46,-26.04,-12.617
49439990,0.039,-0.067,0.991,-33.04,-27.475,-17.605
49440000,0.059,-0.088,0.906,-27.44,-21.752,-17.36
49440010,0.027,-0.063,0.908,-21.77,-18.707,-12.04
49440020,0.086,-0.025,0.917,-20.02,-14.017,-7.98
49440030,0.109,-0.022,0.926,-20.37,-10.22,-2.975
49440040,0.141,-0.067,0.921,-19.267,-3.92,0.437
49440050,0.147,-0.08,0.937,-16.835,2.362,1.47
49440060,0.04,-0.099,0.953,-15.417,5.302,5.46
49440070,-0.07,-0.117,1.007,-16.31,-1.697,9.117
49440080,-0.054,-0.147,0.99,-18.882,-13.247,8.312
49440090,0.05,-0.175,0.988,-15.435,-24.937,4.987
49440100,0.13,-0.152,0.99,-11.462,-27.895,4.882
49440110,0.203,-0.14,0.991,-6.037,-23.012,6.72
49440120,0.195,-0.128,1.013,-2.957,-14.455,8.767
49440130,0.192,-0.144,1.025,-4.375,-7.28,9.24
49440140,0.222,-0.144,1.013,-7.455,1.89,6.755
49440150,0.236,-0.159,1.019,-8.05,12.075,9.152
49440160,0.246,-0.177,1.041,-8.592,22.872,14.84
49440170,0.257,-0.185,1.059,-8.592,32.865,19.635
49440170,0.237,-0.144,1.104,-13.667,38.71,25.34
49440190,0.274,-0.27,1.179,-25.725,37.642,21.332
49440190,0.59,-0.142,1.166,-38.01,53.322,6.422
49440210,0.507,-0.185,1.221,-46.077,71.61,21.21
49440210,0.46,-0.354,1.178,-58.747,95.445,42.017
49440220,0.481,-0.51,1.127,-53.305,125.79,46.812
49440230,0.431,-0.571,1.092,-33.197,162.557,42.28
49440240,0.204,-0.614,1.069,-7.77,194.425,29.68
49440250,0.006,-0.645,1.011,28.035,206.5,11.112
49440260,-0.147,-0.684,1.017,78.137,210.017,-13.37
49440270,-0.3,-0.693,0.976,135.765,195.597,-44.415
49440280,-0.297,-0.556,0.868,188.72,172.55,-75.845
49440290,-0.348,-0.283,0.936,228.742,140.997,-95.34
49440300,-0.53,-0.02,0.982,251.02,90.667,-107.065
49440310,-0.558,0.089,0.939,257.32,32.305,-115.115
49440320,-0.401,0.167,0.834,255.097,-21.35,-120.715
49440330,-0.218,0.309,0.755,252.35,-60.34,-123.427
49440340,-0.102,0.475,0.723,241.202,-77.437,-124.285
49440350,-0.044,0.592,0.704,217.35,-75.932,-126.49
49440360,-0.026,0.641,0.688,183.645,-61.932,-128.415
49440370,-0.052,0.617,0.666,145.862,-41.877,-126.787
49440380,-0.143,0.573,0.673,106.785,-21.315,-119.7
49440390,-0.271,0.569,0.688,61.267,-8.242,-115.43
49440400,-0.376,0.538,0.678,13.965,-3.29,-112.052
49440410,-0.449,0.416,0.644,-25.34,-5.792,-106.137
49440420,-0.412,0.386,0.641,-57.435,-10.08,-104.422
49440430,-0.419,0.358,0.627,-87.902,-13.842,-102.9
49440440,-0.46,0.294,0.642,-111.107,-17.395,-98.875
49440450,-0.472,0.201,0.623,-127.855,-23.677,-93.415
49440460,-0.43,0.119,0.615,-132.37,-29.995,-83.877
49440470,-0.421,0.021,0.644,-126.332,-34.457,-68.372
49440480,-0.407,-0.038,0.684,-118.02,-34.737,-52.657
49440490,-0.419,-0.091,0.731,-107.065,-33.092,-36.82
49440500,-0.435,-0.129,0.788,-94.622,-30.467,-22.33
49440510,-0.447,-0.138,0.856,-83.352,-28.402,-10.465
49440510,-0.444,-0.108,0.927,-77.56,-28.962,-0.647
49440530,-0.423,-0.125,0.963,-78.4,-29.96,6.877
49440530,-0.357,-0.136,1,-82.372,-28.367,10.01
49440550,-0.301,-0.173,1.003,-89.495,-22.855,10.885
49440550,-0.277,-0.244,1.005,-89.74,-12.547,15.96
49440570,-0.232,-0.271,1,-84.052,1.54,21.945
49440570,-0.24,-0.298,0.997,-71.855,17.08,29.33
49440580,-0.283,-0.334,1.006,-54.705,30.957,34.562
49440590,-0.332,-0.332,1.011,-35.997,38.675,36.977
49440600,-0.394,-0.292,1.031,-18.795,38.185,37.922
49440610,-0.445,-0.236,1.039,-5.372,28.332,36.575
49440620,-0.461,-0.203,1.058,7.612,12.74,34.09
49440630,-0.417,-0.148,1.047,11.427,-5.635,30.87
49440640,-0.348,-0.125,1.021,12.547,-19.722,25.602
49440650,-0.281,-0.091,1.007,13.737,-29.137,20.597
49440660,-0.244,-0.055,0.998,13.177,-34.195,17.745
49440670,-0.213,-0.033,0.988,11.83,-36.452,15.82
49440680,-0.183,-0.021,0.976,8.592,-35.035,12.145
49440690,-0.167,-0.017,0.962,5.285,-32.795,8.907
49440700,-0.158,-0.023,0.941,3.08,-29.68,8.767
49440710,-0.148,-0.03,0.922,2.432,-26.092,10.08
49440720,-0.148,-0.032,0.917,2.17,-21.84,11.725
49440730,-0.166,-0.04,0.913,1.942,-18.777,12.897
49440740,-0.18,-0.052,0.919,1.872,-16.012,13.3
49440750,-0.203,-0.066,0.943,1.977,-16.047,12.617
49440760,-0.214,-0.087,0.965,2.467,-18.952,10.622
49440770,-0.196,-0.1,0.991,4.742,-23.957,7.682
49440780,-0.184,-0.095,1.019,7.227,-29.452,5.582
49440790,-0.148,-0.071,1.046,8.645,-33.967,4.217
49440800,-0.087,-0.041,1.066,9.485,-35,4.007
49440810,-0.03,-0.025,1.073,9.835,-30.975,5.95
49440820,-0.002,-0.015,1.078,10.535,-20.685,8.365
49440830,0.01,0.001,1.087,11.217,-5.897,10.482
49440840,-0.01,0.019,1.09,11.427,11.042,12.652
49440850,-0.082,0.036,1.09,11.112,25.13,12.757
49440860,-0.143,0.054,1.098,10.92,35.192,9.345
49440870,-0.217,0.083,1.099,11.935,39.27,4.637
49440880,-0.288,0.113,1.091,13.002,37.047,-0.21
49440890,-0.332,0.144,1.065,13.982,32.48,-4.672
49440890,-0.357,0.173,1.026,16.747,23.817,-6.825
49440910,-0.38,0.179,1.001,22.82,12.53,-3.99
49440910,-0.441,0.182,0.962,27.317,-3.08,0.682
49440920,-0.476,0.197,0.933,31.202,-24.062,3.097
49440930,-0.434,0.216,0.903,34.37,-48.125,6.965
49440940,-0.345,0.265,0.909,34.475,-68.862,12.232
49440950,-0.253,0.306,0.901,25.025,-82.25,18.007
49440960,-0.138,0.304,0.902,7.017,-84.577,19.04
49440970,-0.07,0.252,0.888,-18.235,-77.105,18.41
49440980,-0.097,0.151,0.851,-45.097,-64.715,14.857
49440990,-0.13,0.066,0.836,-63.437,-54.162,5.95
49441000,-0.132,0.027,0.842,-75.67,-46.637,0.332
49441010,-0.133,0.022,0.892,-85.487,-45.902,-2.59
49441020,-0.066,0.05,0.929,-100.205,-48.93,-4.462
49441030,0.056,0.072,0.961,-121.992,-45.762,-4.165
49441040,0.095,0.021,0.97,-154.84,-34.475,0.052
49441050,0.04,-0.149,0.926,-187.057,-22.872,-0.752
49441060,-0.008,-0.376,0.925,-210.787,-13.632,-8.487
49441070,-0.009,-0.852,0.924,-214.55,-13.58,-23.835
49441080,0.038,-0.994,0.872,-160.965,-9.467,-45.5
49441090,-0.061,-0.737,1.005,-77.507,-14.542,-54.88
49441100,-0.187,-0.503,1.1,-29.312,-39.322,-40.88
49441110,-0.013,-0.408,1.074,-6.16,-62.177,-36.925
49441120,0.237,-0.385,1.021,3.395,-69.86,-32.637
49441130,0.441,-0.421,0.921,4.34,-51.905,-15.645
49441140,0.333,-0.366,0.926,4.55,-14.997,4.707
49441150,0.087,-0.259,0.949,1.295,15.172,13.055
49441160,0.027,-0.254,0.899,-8.487,28.28,14.21
49441170,0.066,-0.346,0.865,-13.982,33.967,13.037
49441180,0.049,-0.371,0.848,-11.077,43.435,12.897
49441190,-0.053,-0.324,0.898,-1.767,50.155,12.32
49441200,-0.109,-0.319,0.904,5.022,51.432,16.17
49441210,-0.144,-0.31,0.919,14.105,49.63,20.912
49441220,-0.193,-0.275,0.938,23.66,45.115,24.22
49441230,-0.215,-0.221,0.954,32.182,38.412,27.317
49441240,-0.193,-0.165,0.96,38.045,32.48,34.037
49441250,-0.173,-0.11,0.957,40.705,29.627,46.672
49441260,-0.134,-0.058,0.96,38.885,32.48,62.562
49441260,-0.136,-0.043,0.907,32.147,40.915,80.657
49441280,-0.14,-0.045,0.895,34.107,53.865,96.722
49441280,-0.203,-0.043,0.866,33.88,66.867,115.727
49441300,-0.276,-0.029,0.859,33.617,75.232,127.54
49441300,-0.368,-0.038,0.864,35.122,76.37,132.09
49441320,-0.451,-0.062,0.877,39.392,66.885,131.635
49441320,-0.462,-0.09,0.869,43.05,53.497,125.125
49441330,-0.452,-0.062,0.899,44.17,37.922,112.35
49441340,-0.418,-0.037,0.928,37.712,20.177,95.235
49441350,-0.365,-0.042,0.934,26.057,2.677,78.242
49441360,-0.308,-0.08,0.901,10.78,-11.76,70.42
49441370,-0.225,-0.109,0.897,1.382,-20.912,65.957
49441380,-0.158,-0.132,0.902,-4.077,-23.362,65.975
49441390,-0.128,-0.145,0.929,-7.437,-19.495,66.185
49441400,-0.122,-0.149,0.952,-12.897,-11.34,62.982
49441410,-0.133,-0.167,0.957,-21.402,-2.1,53.025
49441420,-0.16,-0.164,0.984,-31.972,5.022,41.527
49441430,-0.171,-0.194,0.96,-44.275,6.615,31.027
49441440,-0.181,-0.209,0.966,-49.07,5.652,19.372
49441450,-0.168,-0.217,0.943,-55.282,1.96,13.16
49441460,-0.104,-0.232,0.921,-53.69,0.157,6.79
49441470,-0.072,-0.255,0.919,-46.007,2.87,7.577
49441480,-0.089,-0.229,0.945,-40.827,8.907,12.32
49441490,-0.08,-0.261,1.005,-37.607,15.487,12.477
49441500,-0.109,-0.299,1.009,-29.26,25.41,10.937
49441510,-0.197,-0.223,1.003,-21.525,27.3,8.505
49441520,-0.254,-0.199,1.018,-20.3,23.8,4.655
49441530,-0.236,-0.203,0.977,-23.66,17.202,-0.647
49441540,-0.149,-0.219,0.947,-25.392,15.015,-3.815
49441550,-0.177,-0.227,0.96,-23.94,17.657,-2.625
49441560,-0.133,-0.225,0.949,-27.09,26.355,2.327
49441570,-0.182,-0.275,0.946,-25.305,37.432,10.535
49441580,-0.247,-0.259,0.966,-18.917,47.145,18.077
49441580,-0.384,-0.307,0.959,-13.125,48.475,31.027
49441600,-0.411,-0.273,0.978,-8.89,43.172,28.857
49441600,-0.346,-0.23,0.97,-15.785,39.182,16.642
49441620,-0.344,-0.301,0.939,-23.73,37.047,12.425
49441620,-0.36,-0.351,0.911,-26.11,35.647,5.6
49441640,-0.366,-0.339,0.91,-23.712,31.815,0.875
49441640,-0.393,-0.309,0.935,-21.35,26.705,-0.315
49441660,-0.456,-0.337,0.934,-22.172,18.375,0.105
49441660,-0.464,-0.364,0.927,-18.48,8.277,-2.292
49441670,-0.434,-0.36,0.921,-13.247,-2.24,-5.18
49441680,-0.411,-0.343,0.908,-8.452,-10.447,-6.265
49441690,-0.391,-0.308,0.905,-3.535,-15.942,-7.525
49441700,-0.396,-0.266,0.876,0.245,-19.652,-8.085
49441710,-0.337,-0.25,0.894,3.657,-21.262,-7.455
49441720,-0.286,-0.271,0.893,6.632,-19.845,-0.945
49441730,-0.275,-0.282,0.914,12.775,-15.925,5.547
49441740,-0.251,-0.298,0.956,19.337,-7.77,10.867
49441750,-0.214,-0.302,0.983,27.825,5.11,14.857
49441760,-0.24,-0.265,1.014,38.325,21.245,18.34
49441770,-0.274,-0.185,1.041,45.115,35.455,18.917
49441780,-0.339,-0.125,1.044,43.347,43.417,17.325
49441790,-0.413,-0.115,1.001,36.435,40.46,14.612
49441800,-0.411,-0.115,0.94,30.012,31.797,13.037
49441810,-0.438,-0.104,0.883,24.115,18.69,13.51
49441820,-0.426,-0.086,0.839,19.092,6.72,11.13
49441830,-0.318,-0.045,0.796,11.795,1.96,5.512
49441840,-0.3,-0.048,0.758,1.015,2.992,0.77
49441850,-0.31,-0.055,0.721,-8.96,6.177,-6.142
49441860,-0.309,-0.065,0.704,-15.26,8.855,-10.325
49441870,-0.346,-0.095,0.704,-17.902,6.825,-10.71
49441880,-0.371,-0.101,0.703,-22.487,0.56,-9.905
49441890,-0.391,-0.126,0.716,-26.39,-10.955,-9.695
49441900,-0.383,-0.144,0.754,-28,-23.485,-9.642
49441910,-0.312,-0.147,0.769,-34.3,-32.812,-7.892
49441920,-0.279,-0.171,0.798,-38.36,-36.207,-5.6
49441930,-0.299,-0.194,0.834,-42.315,-35.542,-3.272
49441940,-0.324,-0.231,0.851,-47.81,-33.827,-2.047
49441950,-0.329,-0.258,0.827,-49.122,-34.562,-1.312
49441960,-0.519,-0.475,0.895,-28.192,-45.815,15.067
49441970,0.159,-0.535,1.098,-19.197,-31.482,2.905
49441980,0.138,-0.528,1.051,0,27.457,11.217
49441990,-0.549,-0.29,1.211,26.442,54.302,9.922
49442000,-0.816,-0.215,1.307,17.762,42.175,6.65
49442010,-0.613,-0.33,1.128,0.175,10.587,-2.817
49442010,-0.399,-0.344,1.01,2.205,-15.697,-11.34
49442030,-0.343,-0.258,0.917,4.83,-24.815,-8.137
49442030,-0.366,-0.183,0.866,7.577,-25.48,-4.165
49442050,-0.391,-0.182,0.845,8.295,-26.18,1.872
49442050,-0.333,-0.218,0.794,6.912,-25.987,3.22
49442070,-0.25,-0.228,0.78,11.095,-20.195,-0.472
49442070,-0.265,-0.198,0.808,14.122,-14.122,-4.672
49442080,-0.327,-0.189,0.856,11.655,-9.765,-6.895
49442090,-0.345,-0.2,0.895,8.225,-9.52,-8.137
49442100,-0.345,-0.206,0.954,4.97,-11.637,-8.19
49442110,-0.333,-0.194,1.023,-0.28,-15.207,-9.345
49442120,-0.322,-0.213,1.036,-7.227,-17.815,-10.622
49442130,-0.29,-0.213,1.04,-12.25,-17.99,-11.217
49442140,-0.524,-0.261,1.025,-21.35,-21.752,-6.387
49442150,-0.447,-0.399,0.94,-15.05,-37.975,-10.237
49442160,-0.406,-0.321,0.982,11.865,-50.645,-12.407
49442170,-0.485,-0.212,0.993,23.117,-69.107,2.835
49442180,-0.37,-0.176,0.949,20.475,-80.99,9.415
49442190,-0.205,-0.197,0.874,18.48,-83.422,6.125
49442200,-0.142,-0.202,0.853,22.855,-77.91,7
49442210,-0.074,-0.214,0.785,28.437,-69.667,10.517
49442220,-0.046,-0.286,0.72,35.35,-61.897,16.117
49442230,-0.061,-0.365,0.652,48.16,-53.847,25.077
49442240,-0.027,-0.413,0.521,69.545,-42.56,26.932
49442250,-0.041,-0.351,0.483,90.772,-34.125,30.345
49442260,0.023,-0.245,0.668,101.097,-14.42,29.942
49442270,0.061,-0.196,0.778,95.655,13.65,19.285
49442280,0.006,-0.185,0.892,83.737,37.66,11.025
49442290,-0.091,-0.155,1.067,73.167,54.46,8.19
49442300,-0.063,-0.087,1.126,66.482,59.587,8.032
49442310,-0.119,0.002,1.197,56.262,67.952,15.19
49442320,-0.151,-0.069,1.165,41.965,65.887,14.245
49442330,-0.086,0.022,1.114,35.892,73.447,10.185
49442330,-0.397,-0.034,1.011,24.412,66.885,17.342
49442350,-0.348,-0.011,0.951,29.96,58.695,9.765
49442350,-0.383,0.021,0.937,37.712,44.607,5.425
49442370,-0.3,0.149,1.054,38.482,46.83,3.237
49442370,-0.472,0.118,0.995,21.35,48.422,1.137
49442390,-0.668,0.17,0.823,8.837,41.09,-3.465
49442390,-0.725,0.147,0.888,-3.57,14.035,-1.12
49442410,-0.573,-0.081,1.013,-16.065,-11.34,6.282
49442410,-0.364,-0.075,1.163,-8.032,-20.002,3.027
49442420,-0.375,0.095,1.303,0.07,-12.792,-6.037
49442430,-0.463,0.164,1.265,-9.327,-15.05,-9.992
49442440,-0.295,0.089,1.118,-19.285,-21.77,-13.79
49442450,-0.205,0.076,1.042,-20.93,-21.945,-15.785
49442460,-0.187,0.083,1.01,-31.15,-16.082,-18.042
49442470,-0.2,-0.011,0.934,-43.242,-8.522,-19.197
49442480,-0.26,-0.104,0.868,-45.71,-5.075,-13.965
49442490,-0.305,-0.165,0.836,-41.737,-8.085,-5.022
49442500,-0.3,-0.227,0.832,-35.927,-14.315,4.34
49442510,-0.3,-0.281,0.787,-24.202,-20.405,9.555
49442520,-0.31,-0.231,0.769,-10.045,-25.235,9.17
49442530,-0.31,-0.191,0.839,-2.222,-26.075,6.317
49442540,-0.349,-0.231,0.868,2.292,-26.775,2.152
49442550,-0.346,-0.221,0.88,11.515,-30.012,-1.19
49442560,-0.42,-0.214,0.9,18.725,-38.885,2.52
49442570,-0.461,-0.229,0.887,26.512,-54.355,7.612
49442580,-0.564,-0.267,0.846,39.41,-74.707,10.045
49442590,-0.732,-0.337,0.783,55.44,-103.845,11.795
49442600,-1.036,-0.428,0.684,77.175,-155.12,7.84
49442610,-0.853,-0.58,0.56,112.122,-201.005,-0.157
49442620,-0.956,-0.474,0.434,156.467,-245.035,-6.457
49442630,-0.982,-0.316,0.329,190.925,-295.767,-7.647
49442640,-0.515,-0.123,0.55,211.75,-346.307,0
49442650,0.05,0.144,0.894,214.865,-360.867,19.25
49442660,0.237,0.355,1.154,195.195,-348.652,34.177
49442670,0.742,0.498,1.166,162.872,-313.11,28.7
49442680,1.397,0.835,1.263,131.39,-245.14,6.79
49442690,1.501,0.936,1.347,73.342,-162.837,-7
49442700,1.286,0.746,1.216,3.062,-82.775,-23.205
49442710,1.127,0.6,1.099,-41.912,-21.21,-40.775
49442720,0.84,0.444,0.938,-66.797,11.095,-41.23
49442730,0.72,0.32,0.749,-81.392,25.34,-31.465
49442740,0.704,0.303,0.718,-82.32,45.255,-18.287
49442750,0.392,0.223,0.823,-90.737,70.087,-6.317
49442760,0.18,0.103,0.871,-99.89,82.477,-9.922
49442760,0.126,0.072,0.915,-103.215,82.46,-9.835
49442780,0.109,0.066,0.973,-95.655,78.995,0.717
49442780,0.035,0.067,0.987,-88.69,66.85,7.91
49442800,0.09,0.108,0.951,-80.622,51.397,4.165
49442800,0.472,0.116,0.877,-82.547,52.57,3.78
49442820,0.291,0.045,0.829,-85.12,75.827,13.072
49442820,0.198,0.023,0.787,-79.782,89.635,3.64
49442830,0.329,0.014,0.677,-70.822,101.062,-4.095
49442840,0.288,-0.002,0.645,-50.96,113.242,-5.022
49442850,0.112,0.024,0.707,-36.05,115.605,-8.715
49442860,-0.004,-0.016,0.775,-24.78,104.825,-9.747
49442870,-0.108,-0.073,0.87,-0.105,83.982,-2.747
49442880,-0.106,0,0.991,17.78,63.367,5.46
49442890,-0.053,0.037,1.011,21.787,50.19,6.177
49442900,0.079,-0.04,0.94,23.415,57.662,11.252
49442910,-0.137,-0.072,0.846,32.637,57.015,29.872
49442920,-0.184,-0.055,0.783,49.472,42.647,50.137
49442930,-0.174,-0.038,0.824,66.202,17.272,72.957
49442940,-0.23,0.033,1.06,65.45,-4.305,85.365
49442950,-0.291,0.083,1.268,46.392,-9.24,68.722
49442960,-0.522,0.03,1.285,21.14,-5.81,38.447
49442970,-0.802,-0.122,1.129,4.48,-14.07,22.067
49442980,-0.91,-0.291,0.957,16.765,-38.097,24.832
49442990,-0.929,-0.283,0.859,50.925,-77.875,42.07
49443000,-0.867,-0.108,0.822,79.975,-130.795,58.695
49443010,-0.55,-0.052,0.916,96.302,-182.21,60.987
49443020,-0.364,-0.04,0.929,110.075,-235.935,59.867
49443030,0.426,0.131,1.009,118.562,-277.795,53.252
49443040,0.781,0.386,1.081,110.285,-261.065,57.19
49443050,0.62,0.439,1.147,75.792,-224.087,50.837
49443060,0.664,0.376,1.149,35.997,-177.87,33.092
49443070,0.568,0.289,1.008,6.352,-137.602,25.532
49443080,0.437,0.334,1,-17.745,-114.187,21.91
49443080,0.252,0.129,0.802,-35.612,-109.2,27.282
49443100,0.311,0.027,0.66,-27.142,-114.17,25.252
49443100,0.33,0.09,0.652,-14.577,-125.177,29.33
49443120,0.48,0.135,0.635,-12.355,-129.255,28
49443120,0.792,0.164,0.658,-9.065,-112.28,16.1
49443140,0.998,0.255,0.747,-5.635,-73.36,8.645
49443140,0.971,0.343,0.859,-10.762,-30.59,4.13
49443160,1.041,0.365,0.91,-21.262,11.795,-6.982
49443160,0.996,0.349,0.934,-32.112,55.685,-16.59
49443170,0.731,0.277,0.925,-44.922,90.055,-22.68
49443180,0.456,0.193,0.901,-53.112,111.23,-27.982
49443190,0.204,0.135,0.871,-52.29,113.382,-26.722
49443200,0.034,0.108,0.846,-45.325,102.06,-21.822
49443210,-0.023,0.132,0.821,-35.945,80.955,-22.032
49443220,0.07,0.118,0.815,-25.777,61.81,-23.205
49443230,0.211,0.092,0.864,-8.207,51.38,-19.145
49443240,0.365,0.166,0.946,8.54,47.967,-12.53
49443250,0.468,0.297,1.046,10.43,52.587,-10.307
49443260,0.505,0.254,1.039,-1.26,65.082,-10.657
49443270,0.469,0.192,0.976,-9.397,82.88,-13.755
49443280,0.248,0.207,0.939,-19.057,92.505,-13.405
49443290,0.233,0.064,0.94,-29.925,89.565,-15.452
49443300,0.082,-0.125,0.922,-23.222,90.667,-17.115
49443310,-0.217,-0.065,0.893,-11.812,71.802,-2.537
49443320,-0.09,-0.005,0.934,2.52,46.41,3.815
49443330,0.023,0.01,0.989,5.81,31.22,4.427
49443340,-0.037,0.005,1.01,0.227,26.74,5.022
49443350,-0.046,0.025,1.041,-2.467,20.86,3.815
49443360,-0.002,0.058,1.025,-4.427,12.162,5.6
49443370,0.099,0.087,0.996,-4.287,5.95,3.71
49443380,0.16,0.101,0.954,-6.037,4.497,0.7
49443390,0.162,0.089,0.933,-7.315,5.005,-2.765
49443400,0.162,0.069,0.933,-4.392,5.25,-4.69
49443410,0.153,0.074,0.941,0.315,4.427,-3.517
49443420,0.133,0.073,0.965,1.137,2.712,-2.275
49443430,0.13,0.054,0.976,-0.472,1.855,-3.762
49443440,0.136,0.056,0.968,0.28,1.837,-5.145
49443450,0.152,0.096,1.025,1.557,-0.787,-5.355
49443460,0.277,0.13,1.028,-0.595,-2.362,-3.395
49443470,0.504,0.202,1.011,-0.245,6.492,-1.4
49443480,0.659,0.304,0.923,-1.767,33.127,0.367
49443490,0.603,0.34,0.933,-14.245,73.325,-1.925
49443500,0.344,0.24,0.969,-38.64,105.787,-6.352
49443510,0.087,0.063,0.958,-57.015,118.912,-6.492
49443510,-0.107,-0.051,0.946,-56.542,111.125,-0.7
49443530,-0.234,-0.08,0.937,-47.53,92.155,7.402
49443530,-0.315,-0.106,0.94,-38.972,69.3,12.477
49443550,-0.357,-0.122,0.924,-30.607,44.957,14.385
49443550,-0.263,-0.115,0.889,-19.722,25.462,15.417
49443570,-0.144,-0.043,0.9,-7.105,13.457,12.792
49443570,-0.023,0.038,0.951,-0.35,9.205,11.025
49443580,0.084,0.077,1.002,1.522,14.262,9.467
49443590,0.098,0.139,1.056,1.067,21.63,4.76
49443600,0.128,0.212,1.104,-3.465,30.835,0.332
49443610,0.172,0.235,1.122,-11.06,43.82,-4.357
49443620,0.23,0.225,1.105,-21.017,61.39,-11.077
49443630,0.256,0.202,1.08,-30.555,81.13,-15.557
49443640,0.151,0.137,1.025,-40.32,99.417,-17.377
49443650,0.018,0.047,0.91,-49.805,107.012,-20.51
49443660,-0.106,-0.053,0.787,-52.535,101.22,-20.79
49443670,-0.234,-0.156,0.687,-45.272,81.655,-16.835
49443680,-0.264,-0.18,0.653,-29.96,56.84,-13.37
49443690,-0.082,-0.137,0.683,-13.37,47.985,-9.327
49443700,-0.13,-0.133,0.755,-3.412,52.832,0.472
49443710,-0.421,-0.091,0.821,5.285,35.665,-0.63
49443720,0.112,-0.001,0.945,17.622,25.602,-15.172
49443730,0.233,0.094,1.153,17.622,52.587,-9.52
49443740,-0.181,0.049,1.18,-5.53,75.267,6.282
49443750,-0.313,0.025,1.178,-20.58,93.555,-2.607
49443760,-0.313,-0.025,1.142,-25.077,94.377,-11.27
49443770,-0.35,-0.016,1.085,-25.847,86.345,-6.58
49443780,-0.4,0.014,1.041,-23.432,76.72,0.385
49443790,-0.378,0.019,1.034,-25.322,71.19,-1.435
49443800,-0.355,-0.007,1.005,-31.832,64.26,-9.747
49443810,-0.222,-0.034,0.972,-34.125,64.592,-14.857
49443820,-0.463,-0.123,1.042,-35.455,54.547,-16.625
49443830,-0.561,-0.169,0.967,-38.482,24.71,-10.902
49443830,-0.426,-0.144,0.968,-23.257,4.007,-3.797
49443850,-0.421,-0.107,0.992,-15.242,-14.017,1.505
49443850,-0.468,-0.109,0.976,-20.65,-28.63,1.995
49443870,-0.44,-0.145,0.951,-19.25,-41.667,-0.577
49443870,-0.39,-0.12,0.965,-11.725,-55.265,-0.472
49443890,-0.378,-0.054,0.979,-10.272,-69.492,3.255
49443890,-0.305,-0.037,0.986,-14.14,-79.905,4.147
49443910,-0.227,-0.053,0.986,-18.007,-82.057,2.537
49443910,-0.199,-0.028,1.021,-21.77,-85.522,0.035
49443920,-0.068,0,0.994,-23.765,-83.037,-3.85
49443930,0,-0.009,0.976,-26.145,-69.65,-4.252
49443940,-0.047,-0.015,0.955,-30.397,-58.747,-1.977
49443950,-0.03,-0.019,0.947,-30.817,-47.267,-1.855
49443960,-0.046,-0.039,0.935,-30.38,-38.762,-2.012
49443970,-0.021,-0.059,0.923,-29.015,-32.445,-2.572
49443980,-0.034,-0.062,0.942,-27.37,-25.69,-2.345
49443990,-0.072,-0.077,0.95,-28.297,-21.227,-1.68
49444000,-0.082,-0.113,0.932,-28.105,-16.502,-0.647
49444010,-0.074,-0.136,0.92,-25.357,-13.457,0.21
49444020,-0.068,-0.134,0.897,-23.45,-11.27,1.26
49444030,-0.1,-0.127,0.86,-23.59,-11.725,3.5
49444040,-0.08,-0.128,0.801,-23.852,-13.335,6.265
49444050,-0.022,-0.175,0.801,-22.96,-12.687,8.435
49444060,0.028,-0.252,0.818,-15.907,-2.677,12.057
49444070,-0.034,-0.232,0.921,-3.342,8.645,14.63
49444080,-0.06,-0.196,1.034,1.015,15.96,13.02
49444090,-0.046,-0.175,1.068,3.22,20.562,10.097
49444100,-0.08,-0.157,1.098,4.655,23.257,10.045
49444110,-0.115,-0.113,1.106,0.542,24.29,10.097
49444120,-0.148,-0.124,1.085,-4.567,25.672,7.245
49444130,-0.157,-0.151,1.01,-7.647,24.5,2.327
49444140,-0.195,-0.122,0.955,-9.345,18.48,0.455
49444150,-0.136,-0.121,0.916,-9.187,15.802,0
49444160,-0.183,-0.119,0.888,-7.245,18.882,0.332
49444170,-0.298,-0.135,0.874,-6.632,15.452,4.13
49444180,-0.263,-0.163,0.859,-1.365,14.227,4.357
49444190,-0.229,-0.157,0.883,7.892,13.667,2.922
49444200,-0.26,-0.121,0.912,12.092,11.48,3.885
49444210,-0.308,-0.096,0.966,11.637,8.505,4.637
49444220,-0.314,-0.109,1.02,8.26,3.185,1.225
49444230,-0.245,-0.126,1.06,6.16,0.577,-3.605
49444240,-0.218,-0.127,1.087,7.56,-0.49,-4.34
49444250,-0.225,-0.096,1.097,6.895,-3.517,-4.27
49444250,-0.089,-0.073,1.082,4.917,-5.845,-9.87
49444260,-0.025,-0.051,1.079,-2.502,-0.21,-11.445
49444270,-0.023,-0.074,1.055,-11.917,10.972,-8.522
49444280,-0.005,-0.06,1.051,-14.612,22.61,-10.185
49444290,0.017,-0.039,1.032,-21.507,33.827,-10.78
49444300,0.007,-0.055,0.973,-30.502,45.605,-11.882
49444310,-0.065,-0.097,0.907,-32.935,55.23,-14.997
49444320,-0.13,-0.111,0.86,-32.55,59.867,-17.185
49444330,-0.132,-0.102,0.849,-30.345,62.16,-18.34
49444340,-0.131,-0.123,0.901,-24.99,64.172,-18.882
49444350,-0.3,-0.054,0.818,-19.04,60.602,-21.07
49444360,-0.259,-0.03,0.97,-22.662,42.997,-24.412
49444370,-0.061,-0.092,0.94,-30.66,49.665,-22.242
49444380,-0.129,-0.169,0.99,-26.722,65.205,-22.4
49444390,-0.393,-0.129,1.026,-26.46,74.025,-22.82
49444400,-0.538,-0.164,1.028,-34.3,70.717,-21.367
49444410,-0.58,-0.266,1.004,-40.285,56.595,-20.457
49444420,-0.594,-0.354,0.937,-42.14,42.962,-15.907
49444430,-0.673,-0.367,0.886,-36.242,26.81,-10.657
49444440,-0.67,-0.341,0.832,-30.275,3.762,-6.072
49444450,-0.489,-0.318,0.8,-24.517,-13.125,-5.25
49444460,-0.385,-0.281,0.786,-17.535,-23.502,-6.702
49444470,-0.307,-0.201,0.815,-15.662,-27.422,-7.857
49444480,-0.238,-0.19,0.861,-19.722,-25.777,-7.892
49444490,-0.186,-0.229,0.891,-22.487,-19.6,-8.26
49444500,-0.172,-0.262,0.929,-20.737,-11.497,-8.067
49444510,-0.184,-0.244,0.984,-17.762,-5.005,-10.027
49444520,-0.228,-0.224,1.006,-17.937,-3.902,-12.32
49444530,-0.251,-0.209,0.947,-19.547,-2.59,-14.892
49444540,-0.216,-0.22,1.02,-22.995,-6.58,-16.31
49444550,-0.143,-0.194,0.91,-26.53,3.465,-11.655
49444560,-0.205,-0.152,0.97,-24.815,11.357,-10.657
49444570,-0.288,-0.181,0.913,-33.425,16.73,-7.682
49444580,-0.241,-0.267,0.858,-33.757,18.812,-10.937
49444580,-0.231,-0.302,0.85,-26.862,21.735,-13.247
49444600,-0.277,-0.293,0.849,-19.757,23.66,-12.512
49444600,-0.322,-0.268,0.865,-11.882,24.272,-12.18
49444620,-0.362,-0.289,0.883,-10.92,22.347,-10.062
49444620,-0.4,-0.342,0.87,-12.477,17.797,-8.067
49444640,-0.423,-0.371,0.864,-7.84,10.57,-4.83
49444640,-0.462,-0.369,0.855,0.087,3.587,0.752
49444660,-0.46,-0.338,0.88,5.722,-6.51,2.24
49444660,-0.387,-0.314,0.88,6.247,-10.535,1.767
49444670,-0.38,-0.329,0.885,6.527,-12.95,-0.752
49444680,-0.381,-0.338,0.889,7.105,-15.785,-4.83
49444690,-0.334,-0.315,0.894,10.92,-20.3,-8.137
49444700,-0.305,-0.273,0.9,14.84,-23.625,-9.747
49444710,-0.278,-0.257,0.913,13.107,-25.165,-11.392
49444720,-0.276,-0.276,0.911,10.132,-24.342,-13.527
49444730,-0.273,-0.267,0.92,9.52,-23.922,-14.42
49444740,-0.252,-0.24,0.934,9.887,-22.277,-12.477
49444750,-0.258,-0.231,0.948,9.537,-20.947,-9.94
49444760,-0.278,-0.236,0.949,7.087,-19.757,-9.205
49444770,-0.286,-0.244,0.954,5.022,-20.65,-9.922
49444780,-0.291,-0.263,0.958,4.287,-22.382,-10.622
49444790,-0.293,-0.272,0.946,5.652,-25.007,-11.917
49444800,-0.288,-0.262,0.923,7.297,-27.352,-12.18
49444810,-0.287,-0.256,0.909,7.665,-30.73,-10.115
49444820,-0.257,-0.251,0.911,7.98,-33.005,-7.402
49444830,-0.227,-0.243,0.922,8.085,-34.685,-3.727
49444840,-0.197,-0.239,0.966,7.542,-35.787,2.537
49444850,-0.135,-0.23,1.012,6.65,-35.437,8.487
49444860,-0.045,-0.234,1.06,5.302,-31.465,11.48
49444870,0.012,-0.247,1.068,2.31,-22.26,9.012
49444880,0.044,-0.257,1.053,1.732,-7.98,1.505
49444890,0.026,-0.264,1.015,1.802,7.472,-4.165
49444900,-0.03,-0.28,0.968,3.29,22.015,-8.995
49444910,-0.118,-0.276,0.924,5.145,32.917,-13.282
49444920,-0.214,-0.248,0.876,3.955,38.482,-15.12
49444920,-0.325,-0.221,0.827,-1.242,37.642,-15.067
49444940,-0.441,-0.25,0.779,-8.697,29.627,-14.472
49444940,-0.447,-0.298,0.728,-11.9,19.845,-12.092
49444960,-0.374,-0.315,0.73,-6.527,13.825,-5.95
49444960,-0.413,-0.289,0.74,-0.052,11.427,0.997
49444980,-0.43,-0.242,0.789,1.592,5.022,0.087
49444980,-0.345,-0.244,0.804,-0.472,2.45,-0.91
49445000,-0.359,-0.278,0.793,1.015,-0.245,-2.607
49445000,-0.378,-0.212,0.82,4.672,-5.057,-8.82
49445010,-0.316,-0.155,0.89,1.592,-11.462,-8.872
49445020,-0.276,-0.213,0.916,-6.125,-12.757,-2.8
49445030,-0.299,-0.28,0.933,-6.65,-14.245,-4.007
49445040,-0.278,-0.3,1.035,-4.532,-15.382,-4.865
49445050,-0.306,-0.349,1.049,-2.957,-19.88,-1.137
49445060,-0.282,-0.36,1.042,3.605,-25.917,-3.36
49445070,-0.291,-0.364,1.028,11.007,-34.685,-1.382
49445080,-0.28,-0.335,0.975,19.495,-39.882,2.992
49445090,-0.315,-0.303,0.964,23.152,-47.897,4.532
49445100,-0.215,-0.284,0.925,26.827,-51.905,-0.42
49445110,-0.178,-0.234,0.958,28.472,-52.395,-3.745
49445120,-0.215,-0.202,0.949,23.887,-50.767,-3.202
49445130,-0.253,-0.227,0.964,22.925,-52.202,-4.655
49445140,-0.212,-0.227,0.974,25.707,-52.85,-5.53
49445150,-0.168,-0.174,0.985,28.105,-53.13,-4.077
49445160,-0.139,-0.127,0.994,26.88,-51.152,-2.747
49445170,-0.112,-0.133,0.992,22.225,-46.427,-3.325
49445180,-0.111,-0.165,0.992,18.007,-41.02,-4.305
49445190,-0.129,-0.183,0.987,17.552,-38.517,-4.847
49445200,-0.12,-0.172,0.988,17.832,-37.607,-4.795
49445210,-0.055,-0.156,0.977,17.01,-35.962,-4.532
49445220,0.012,-0.138,0.963,17.342,-30.432,-3.465
49445230,0.048,-0.122,0.96,16.03,-21.28,-1.802
49445240,0.121,-0.098,0.965,9.625,-8.61,-2.782
49445250,0.2,-0.089,0.941,-0.507,7.35,-5.215
49445260,0.187,-0.121,0.93,-5.11,25.06,-5.495
49445270,0.123,-0.147,0.908,-9.642,40.442,-3.027
49445280,0.084,-0.176,0.861,-12.985,53.06,-3.535
49445290,0.083,-0.193,0.835,-12.127,68.635,-5.845
49445300,0.004,-0.187,0.854,-10.342,83.282,-5.232
49445310,-0.173,-0.211,0.904,-12.985,90.09,-2.082
49445320,-0.289,-0.282,0.931,-16.292,88.445,-0.735
49445330,-0.35,-0.314,0.96,-12.775,79.292,4.655
49445330,-0.373,-0.287,0.966,-4.707,66.115,12.495
49445350,-0.413,-0.256,0.964,-0.21,53.567,15.61
49445350,-0.406,-0.234,0.935,-2.205,42.997,12.127
49445370,-0.419,-0.246,0.923,-4.217,35.787,7.997
49445370,-0.472,-0.275,0.929,-4.007,28.385,4.165
49445390,-0.491,-0.27,0.949,-1.382,18.83,0.525
49445390,-0.489,-0.258,0.975,1.487,5.722,-1.032
49445410,-0.467,-0.241,0.976,1.365,-8.662,-2.73
49445410,-0.325,-0.231,0.93,0.962,-19.757,-5.722
49445420,-0.261,-0.247,0.915,5.145,-24.937,-2.397
49445430,-0.192,-0.227,0.896,8.995,-21.77,0.577
49445440,-0.257,-0.161,0.914,10.64,-20.877,1.907
49445450,-0.199,-0.156,0.911,6.317,-21.175,3.342
49445460,-0.12,-0.172,0.905,3.132,-19.232,4.69
49445470,-0.091,-0.174,0.885,2.572,-13.475,6.615
49445480,-0.104,-0.195,0.875,6.072,-4.62,7.402
49445490,-0.116,-0.212,0.889,12.267,4.27,6.895
49445500,-0.165,-0.187,0.913,16.817,12.407,5.827
49445510,-0.283,-0.17,0.98,14.612,15.627,4.69
49445520,-0.372,-0.222,1.013,7.437,13.475,3.22
49445530,-0.424,-0.263,1.033,5.267,4.935,2.222
49445540,-0.472,-0.253,1.043,5.915,-8.575,4.182
49445550,-0.44,-0.221,1.015,5.477,-22.487,5.687
49445560,-0.353,-0.209,0.953,6.282,-31.447,4.48
49445570,-0.263,-0.169,0.91,7.35,-31.797,1.207
49445580,-0.264,-0.132,0.897,4.865,-27.982,-0.805
49445590,-0.273,-0.153,0.876,0.525,-26.337,-1.89
49445600,-0.227,-0.181,0.876,0.805,-25.252,-4.042
49445610,-0.196,-0.175,0.912,3.377,-23.817,-5.757
49445620,-0.196,-0.167,0.959,4.585,-22.085,-6.895
49445630,-0.198,-0.181,0.991,5.617,-21.052,-8.82
49445640,-0.191,-0.178,1.022,6.335,-19.687,-11.742
49445650,-0.187,-0.162,1.059,5.337,-19.267,-13.562
49445660,-0.179,-0.163,1.024,3.272,-18.13,-13.527
49445670,-0.154,-0.155,0.96,3.045,-17.027,-13.037
49445670,-0.106,-0.128,0.912,3.71,-15.032,-10.132
49445690,-0.096,-0.12,0.88,4.182,-11.987,-5.635
49445690,-0.137,-0.131,0.895,3.395,-10.22,-1.855
49445710,-0.083,-0.165,0.969,1.172,-9.712,0.052
49445710,-0.099,-0.217,0.992,-1.225,-3.045,4.987
49445730,-0.197,-0.205,1.015,-0.262,-3.867,4.48
49445730,-0.238,-0.196,0.981,-0.157,-7.805,4.165
49445750,-0.249,-0.216,0.948,1.4,-13.895,4.62
49445750,-0.218,-0.217,0.934,3.745,-17.535,3.465
49445760,-0.258,-0.223,0.91,7.892,-18.147,2.66
49445770,-0.32,-0.242,0.877,12.11,-21.857,2.485
49445780,-0.348,-0.269,0.836,17.832,-27.44,2.852
49445790,-0.307,-0.267,0.818,26.88,-32.952,4.795
49445800,-0.225,-0.222,0.847,35.577,-32.9,6.965
49445810,-0.145,-0.138,0.894,39.97,-30.292,5.075
49445820,-0.033,-0.086,0.932,38.885,-23.327,2.502
49445830,0.103,-0.044,0.957,37.135,-10.15,0.735
49445840,0.19,0.032,1.014,33.565,10.5,-1.032
49445850,0.194,0.075,1.071,22.75,31.167,-4.515
49445860,0.232,0.066,1.076,8.785,52.815,-8.277
49445870,0.169,0.046,1.119,-1.82,73.29,-9.52
49445880,0.022,0.028,1.151,-13.09,85.4,-8.312
49445890,-0.04,0.034,1.11,-23.152,91.875,-7.787
49445900,-0.212,-0.021,1.087,-34.982,92.435,-7.822
49445910,-0.34,-0.098,1,-47.477,88.777,-8.452
49445920,-0.389,-0.17,0.939,-50.277,83.247,-7.542
49445930,-0.612,-0.302,0.863,-48.422,71.242,-4.76
49445940,-0.706,-0.377,0.861,-42.945,51.835,-3.64
49445950,-0.743,-0.385,0.884,-30.625,28.752,-2.712
49445960,-0.781,-0.378,0.907,-20.842,4.112,-2.31
49445970,-0.731,-0.351,0.92,-14.262,-20.037,-6.93
49445980,-0.592,-0.307,0.906,-7.227,-40.845,-11.182
49445990,-0.426,-0.242,0.869,1.085,-53.882,-13.79
49446000,-0.284,-0.182,0.857,6.055,-58.905,-14.927
49446010,-0.161,-0.14,0.854,7.157,-55.65,-14.49
49446020,-0.06,-0.091,0.896,7.157,-46.497,-14.175
49446030,-0.035,-0.053,0.925,3.08,-34.632,-12.267
49446040,-0.021,-0.017,0.898,-4.147,-25.62,-8.032
49446050,0.007,0.019,0.844,-14.42,-16.222,-0.927
49446060,0.042,-0.226,0.882,-28.07,-6.037,7.402
49446070,0.005,-0.294,0.982,-22.137,11.515,5.88
49446080,-0.185,-0.142,1.083,-13.755,18.602,4.025
49446080,-0.231,-0.151,1.051,-20.09,17.01,6.002
49446100,-0.183,-0.217,1.008,-23.52,15.82,1.837
49446100,-0.212,-0.175,0.979,-24.115,17.605,-1.557
49446120,-0.278,-0.149,0.964,-27.212,18.952,-1.487
49446120,-0.276,-0.174,0.941,-31.08,19.722,-1.085
49446140,-0.311,-0.188,0.938,-33.267,18.042,0.805
49446140,-0.37,-0.219,0.928,-34.807,14.945,2.117
49446160,-0.367,-0.275,0.916,-34.44,10.71,0.21
49446160,-0.368,-0.306,0.879,-29.032,8.277,-2.642
49446170,-0.363,-0.316,0.84,-22.4,5.337,-4.34
49446180,-0.332,-0.33,0.796,-16.852,4.165,-6.737
49446190,-0.326,-0.351,0.775,-11.217,2.607,-7.437
49446200,-0.351,-0.345,0.826,-4.252,-1.365,-4.357
49446210,-0.368,-0.304,0.907,1.942,-9.712,0.665
49446220,-0.354,-0.275,0.955,4.795,-21.07,5.197
49446230,-0.292,-0.258,0.961,5.722,-28.84,5.46
49446240,-0.247,-0.187,0.896,6.002,-31.097,2.45
49446250,-0.08,-0.169,0.928,3.692,-26.792,0.507
49446260,-0.051,-0.192,0.924,1.942,-9.782,-2.17
49446270,-0.077,-0.133,0.96,-2.607,2.555,-3.972
49446280,-0.095,-0.13,0.947,-9.94,9.1,-0.472
49446290,-0.01,-0.148,0.934,-15.347,15.505,2.87
49446300,0.016,-0.155,0.989,-21.542,27.23,4.375
49446310,-0.113,-0.204,0.997,-28.595,38.762,3.92
49446320,-0.213,-0.269,0.926,-33.897,41.58,2.66
49446330,-0.22,-0.374,0.86,-31.867,42.087,2.327
49446340,-0.298,-0.419,0.794,-18.497,45.71,4.182
49446350,-0.342,-0.383,0.775,-5.162,44.275,7.245
49446360,-0.265,-0.382,0.769,6.545,45.465,9.747
49446370,-0.289,-0.399,0.688,22.312,45.78,14.682
49446380,-0.245,-0.373,0.732,35.892,42.332,26.582
49446390,-0.302,-0.373,0.976,41.965,40.425,36.855
49446400,-0.436,-0.306,1.106,45.342,32.9,32.83
49446410,-0.454,-0.203,1.084,31.972,19.355,17.692
49446420,-0.505,-0.193,1.052,21.752,5.477,7.507
49446420,-0.419,-0.108,1.013,14.7,-10.15,3.832
49446440,-0.278,-0.194,0.861,8.68,-11.952,5.11
49446440,-0.482,-0.206,0.897,16.975,-0.087,-2.59
49446460,-0.637,-0.193,0.905,14.455,-1.557,-6.335
49446460,-0.619,-0.238,0.921,13.142,-8.855,-13.457
49446480,-0.588,-0.251,0.953,15.925,-18.567,-18.147
49446480,-0.609,-0.26,0.947,17.727,-33.442,-17.885
49446500,-0.526,-0.272,0.942,25.042,-52.85,-12.425
49446500,-0.425,-0.239,0.959,32.48,-70.28,-7.77
49446510,-0.393,-0.23,0.937,34.3,-81.795,-7.682
49446520,-0.331,-0.241,0.913,38.08,-89.39,-6.615
49446530,-0.192,-0.171,0.921,44.537,-89.6,-6.16
49446540,-0.144,-0.061,0.948,44.765,-85.102,-7.98
49446550,-0.111,-0.074,0.926,35.945,-79.537,-8.032
49446560,-0.087,-0.151,0.901,30.082,-71.365,-5.827
49446570,-0.079,-0.202,0.91,28.91,-64.225,-3.71
49446580,-0.091,-0.216,0.91,27.65,-56.577,-2.135
49446590,-0.117,-0.234,0.939,27.457,-51.52,-2.415
49446600,-0.116,-0.208,1.013,27.58,-47.46,-3.115
49446610,-0.126,-0.183,1.102,24.587,-47.04,-0.665
49446620,-0.141,-0.145,1.113,19.95,-45.605,3.045
49446630,-0.339,-0.14,1.231,14.735,-73.167,1.067
49446640,0.541,-0.341,1.063,6.317,-67.865,8.96
49446650,0.142,-0.184,1.176,16.59,-33.792,28.245
49446660,-0.019,-0.039,1.192,-0.14,-18.97,22.172
49446670,0.061,-0.227,1.054,-14.595,-3.185,24.64
49446680,0.026,-0.345,0.981,-5.845,10.692,24.92
49446690,-0.062,-0.266,0.912,6.037,18.112,24.202
49446700,-0.193,-0.208,0.957,24.85,18.445,29.942
49446710,-0.25,-0.147,1.001,38.955,7.402,28.822
49446720,-0.152,-0.152,1.047,51.152,-4.987,23.362
49446730,0.049,-0.19,1.098,67.497,-2.537,18.602
49446740,0.073,-0.114,1.225,80.062,14.105,10.815
49446750,-0.029,-0.087,1.245,82.215,29.26,-2.852
49446760,0.065,-0.012,1.253,94.762,55.492,-25.322
49446770,-0.026,0.103,1.281,98.787,73.832,-38.64
49446780,-0.19,0.144,1.251,81.812,72.957,-44.31
49446790,-0.225,0.147,1.177,63.752,60.917,-49.49
49446800,-0.265,0.112,1.11,45.867,40.057,-48.562
49446810,-0.279,0.081,1.01,25.41,18.025,-44.782
49446820,-0.25,0.028,0.911,10.85,1.592,-43.102
49446830,-0.208,-0.011,0.823,3.622,-6.93,-43.557
49446830,-0.201,-0.069,0.771,0.332,-10.377,-43.767
49446850,-0.197,-0.079,0.735,-0.35,-10.045,-45.885
49446850,-0.211,-0.089,0.725,5.355,-8.907,-45.657
49446870,-0.22,-0.082,0.739,13.072,-6.527,-42.297
49446870,-0.217,-0.038,0.756,18.112,-4.112,-37.817
49446890,-0.224,0,0.774,18.795,0.28,-33.932
49446890,-0.25,0.01,0.793,16.625,4.585,-31.36
49446910,-0.26,0.043,0.799,11.795,8.557,-29.942
49446910,-0.282,0.07,0.803,3.307,9.642,-29.12
49446920,-0.278,0.085,0.794,-7.542,10.517,-30.047
49446930,-0.278,0.071,0.777,-17.972,10.5,-31.115
49446940,-0.264,0.055,0.76,-28.735,12.18,-32.69
49446950,-0.253,0.007,0.716,-39.287,15.172,-33.53
49446960,-0.252,-0.039,0.713,-44.187,20.737,-33.775
49446970,-0.306,-0.101,0.735,-46.182,23.467,-33.145
49446980,-0.357,-0.121,0.782,-41.615,20.125,-30.852
49446990,-0.391,-0.132,0.828,-33.005,10.255,-27.09
49447000,-0.382,-0.138,0.862,-23.852,-0.822,-23.362
49447010,-0.316,-0.096,0.873,-13.877,-10.167,-22.382
49447020,-0.268,-0.08,0.913,-5.88,-14.7,-23.94
49447030,-0.23,-0.05,0.941,-3.15,-14.682,-26.477
49447040,-0.226,-0.052,0.956,-5.092,-10.972,-27.3
49447050,-0.206,-0.044,0.977,-7.682,-5.897,-27.947
49447060,-0.217,-0.046,0.973,-13.72,-0.647,-25.147
49447070,-0.241,-0.081,0.966,-15.225,3.115,-25.952
49447080,-0.243,-0.084,0.976,-11.812,6.772,-28.07
49447090,-0.238,-0.064,0.961,-11.882,8.312,-27.527
49447100,-0.257,-0.08,0.969,-8.12,9.117,-25.532
49447110,-0.268,-0.092,0.967,-5.285,9.117,-23.1
49447120,-0.278,-0.088,0.982,-3.71,7.49,-20.475
49447130,-0.293,-0.098,0.971,-5.617,4.182,-19.425
49447140,-0.303,-0.143,0.969,-2.432,-0.21,-19.46
49447150,-0.284,-0.155,0.972,1.12,-5.092,-21.805
49447160,-0.27,-0.171,0.955,6.387,-10.272,-23.292
49447170,-0.226,-0.168,0.959,14.892,-10.937,-25.165
49447170,-0.199,-0.133,0.985,20.965,-9.835,-26.057
49447190,-0.201,-0.115,0.991,24.132,-9.205,-25.585
49447190,-0.192,-0.113,1.006,28.315,-7.49,-26.442
49447210,-0.183,-0.093,1.02,31.395,-4.795,-29.365
49447210,-0.18,-0.064,1.017,34.177,-3.01,-32.305
49447230,-0.18,-0.034,1.051,37.257,0.105,-35.91
49447230,-0.209,-0.001,1.069,38.045,-0.56,-40.127
49447250,-0.24,0.018,1.097,40.302,-4.497,-44.887
49447250,-0.234,0.042,1.1,41.79,-9.38,-51.66
49447260,-0.213,0.108,1.11,44.957,-13.807,-57.54
49447270,-0.196,0.147,1.098,47.215,-18.095,-61.022
49447280,-0.162,0.185,1.086,48.702,-18.76,-62.51
49447290,-0.149,0.22,1.069,45.902,-17.517,-61.53
49447300,-0.167,0.22,1.05,43.68,-14.752,-59.325
49447310,-0.164,0.238,1.011,39.06,-11.305,-57.715
49447320,-0.171,0.252,0.972,35.157,-6.3,-55.405
49447330,-0.207,0.26,0.956,32.69,-2.065,-53.375
49447340,-0.24,0.257,0.933,28.63,0.7,-50.925
49447350,-0.247,0.251,0.897,19.915,1.855,-48.212
49447360,-0.267,0.226,0.876,9.607,2.957,-45.727
49447370,-0.296,0.193,0.851,-2.1,2.065,-43.487
49447380,-0.309,0.148,0.842,-15.627,0.28,-38.377
49447390,-0.318,0.1,0.827,-31.955,-3.517,-31.867
49447400,-0.334,0.048,0.811,-46.462,-7.227,-27.002
49447410,-0.37,-0.001,0.824,-55.16,-13.405,-22.522
49447420,-0.397,-0.059,0.83,-59.447,-22.61,-19.897
49447430,-0.338,-0.08,0.823,-60.62,-31.64,-18.532
49447440,-0.287,-0.111,0.826,-62.597,-36.697,-16.502
49447450,-0.224,-0.16,0.793,-57.925,-36.557,-16.572
49447460,-0.154,-0.188,0.782,-46.305,-27.65,-18.567
49447470,-0.135,-0.188,0.789,-35.28,-16.31,-18.06
49447480,-0.137,-0.194,0.796,-28.227,-2.677,-15.452
49447490,-0.184,-0.194,0.845,-25.147,8.767,-12.617
49447500,-0.283,-0.225,0.888,-23.467,10.5,-7.717
49447510,-0.353,-0.23,0.951,-19.057,1.172,-0.315
49447520,-0.365,-0.248,0.982,-15.33,-16.765,4.357
49447530,-0.317,-0.264,1.014,-8.33,-35.542,2.432
49447540,-0.248,-0.265,1.032,-4.13,-50.382,-2.31
49447550,-0.184,-0.254,1.037,-2.765,-59.01,-7.665
49447560,-0.126,-0.248,1.036,-2.31,-62.282,-12.425
49447570,-0.074,-0.24,1.034,-2.345,-59.867,-14.717
49447580,-0.032,-0.239,1.033,-3.045,-53.27,-13.772
49447580,0,-0.242,1.033,-3.727,-42.332,-10.272
49447600,0.011,-0.242,1.039,-4.095,-28.98,-5.005
49447600,0.011,-0.232,1.042,-5.022,-14.07,0.787
49447610,-0.005,-0.224,1.039,-6.282,-0.21,6.86
49447620,-0.059,-0.223,1.034,-6.755,11.007,12.547
49447630,-0.102,-0.222,1.02,-6.177,17.167,15.54
49447640,-0.119,-0.211,1.012,-4.742,20.317,16.397
49447650,-0.145,-0.182,1.005,-5.442,20.072,15.785
49447660,-0.166,-0.156,1.001,-7.542,18.112,13.142
49447670,-0.168,-0.152,0.972,-10.255,13.755,9.66
49447680,-0.154,-0.145,0.96,-10.342,9.695,7.472
49447690,-0.159,-0.152,0.937,-8.977,5.39,7.402
49447700,-0.15,-0.134,0.936,-3.657,1.627,8.627
49447710,-0.137,-0.12,0.926,0.227,-2.432,10.622
49447720,-0.126,-0.116,0.936,5.635,-3.972,12.547
49447730,-0.11,-0.094,0.947,7.402,-4.06,13.16
49447740,-0.111,-0.081,0.946,5.897,-2.222,13.16
49447750,-0.105,-0.071,0.946,5.04,0.332,12.215
49447760,-0.131,-0.101,0.951,7.28,2.52,14.49
49447770,-0.119,-0.062,0.959,7.402,4.497,13.44
49447780,-0.135,-0.043,0.965,5.477,7,13.09
49447790,-0.153,-0.033,0.973,3.465,9.1,12.372
49447800,-0.169,-0.046,0.971,1.505,10.132,12.355
49447810,-0.179,-0.048,0.973,2.17,10.062,11.987
49447820,-0.181,-0.044,0.975,2.94,10.027,10.797
49447830,-0.179,-0.031,0.972,2.73,10.29,9.135
49447840,-0.19,-0.036,0.961,3.115,10.867,8.837
49447850,-0.198,-0.035,0.973,5.407,10.535,9.45
49447860,-0.205,-0.033,0.971,5.11,9.31,9.975
49447870,-0.204,-0.03,0.975,4.375,8.715,9.117
49447880,-0.207,-0.028,0.976,2.66,8.785,7.717
49447890,-0.21,-0.036,0.967,1.12,9.24,6.387
49447900,-0.216,-0.044,0.961,1.207,9.835,5.88
49447910,-0.225,-0.05,0.966,1.61,9.94,6.51
49447920,-0.232,-0.046,0.969,-0.175,9.17,7.63
49447920,-0.24,-0.051,0.97,-3.08,8.172,8.102
49447940,-0.246,-0.063,0.976,-5.215,6.16,8.435
49447940,-0.247,-0.08,0.973,-7.262,4.217,9.187
49447960,-0.243,-0.093,0.976,-8.312,2.222,9.31
49447960,-0.238,-0.1,0.978,-9.135,1.155,9.292
49447980,-0.233,-0.108,0.978,-9.94,0.647,9.59
49447980,-0.238,-0.116,0.98,-10.412,1.505,10.395
49448000,-0.245,-0.121,0.986,-9.992,1.96,11.445
49448000,-0.241,-0.126,0.996,-8.33,3.01,12.722
49448010,-0.225,-0.14,0.987,-5.46,5.075,14.297
49448020,-0.223,-0.135,0.994,-2.677,10.115,16.31
49448030,-0.241,-0.124,1.001,-0.735,14.84,18.357
49448040,-0.247,-0.127,1.004,1.19,19.95,21.07
49448050,-0.257,-0.133,1.002,3.552,24.815,24.762
49448060,-0.28,-0.129,1,5.705,29.435,27.807
49448070,-0.297,-0.127,0.996,7.525,32.217,29.855
49448080,-0.31,-0.131,0.984,9.572,34.562,31.692
49448090,-0.318,-0.138,0.976,13.055,35.035,34.072
49448100,-0.327,-0.148,0.967,17.167,35.56,37.257
49448110,-0.335,-0.157,0.96,21.735,36.12,40.302
49448120,-0.357,-0.153,0.963,27.44,36.33,43.12
49448130,-0.398,-0.136,0.969,34.93,32.672,46.2
49448140,-0.424,-0.103,0.977,42.665,25.742,49.56
49448150,-0.413,-0.061,0.978,47.302,16.817,51.782
49448160,-0.376,-0.021,0.972,47.88,9.695,52.92
49448170,-0.337,0.007,0.953,44.572,5.687,53.34
49448180,-0.315,0.03,0.937,40.407,5.967,53.655
49448190,-0.309,0.04,0.933,35.84,8.33,54.6
49448200,-0.319,0.046,0.917,29.295,10.955,55.615
49448210,-0.316,0.06,0.903,25.655,13.335,52.71
49448220,-0.313,0.093,0.918,23.94,15.872,51.117
49448230,-0.328,0.117,0.92,19.53,17.045,51.607
49448240,-0.337,0.131,0.922,15.05,17.832,49.087
49448250,-0.344,0.128,0.926,10.797,17.36,47.162
49448260,-0.367,0.109,0.924,7.542,14.122,47.32
49448270,-0.376,0.107,0.927,8.207,9.59,46.077
49448280,-0.375,0.131,0.953,11.48,3.727,45.062
49448280,-0.366,0.142,0.955,11.235,-2.747,45.762
49448300,-0.338,0.156,0.97,11.567,-9.275,44.047
49448300,-0.306,0.175,0.984,9.695,-14.84,38.815
49448320,-0.275,0.193,1.003,4.112,-20.072,32.532
49448320,-0.251,0.183,0.999,-3.675,-25.847,23.625
49448330,-0.23,0.178,1.006,-9.362,-32.235,13.755
49448340,-0.19,0.161,0.994,-15.802,-38.01,3.202
49448350,-0.137,0.145,0.952,-21.192,-43.82,-7.787
49448360,-0.101,0.107,0.968,-21.525,-45.762,-18.2
49448370,-0.069,0.071,0.933,-24.745,-46.55,-23.187
49448380,-0.009,0.048,0.924,-21.052,-42.437,-32.48
49448390,0.022,0.027,0.936,-16.52,-34.16,-33.985
49448400,0.005,0,0.951,-12.652,-23.065,-31.202
49448410,-0.033,0,0.982,-9.327,-12.425,-27.23
49448420,-0.085,0.006,1.001,-9.415,-2.537,-23.66
49448430,-0.155,0.013,1.012,-12.11,4.655,-20.37
49448440,-0.238,0.019,1.025,-15.785,8.575,-17.675
49448450,-0.234,0.041,1.038,-21.21,9.625,-16.695
49448460,-0.247,0.036,1.038,-29.505,10.29,-12.845
49448470,-0.297,-0.014,1.04,-39.952,9.712,-9.135
49448480,-0.321,-0.068,1.031,-48.702,8.33,-8.75
49448490,-0.32,-0.122,1.008,-51.362,6.02,-11.182
49448500,-0.327,-0.169,1.001,-47.827,4.462,-13.947
49448510,-0.326,-0.2,0.978,-42.087,1.837,-18.795
49448520,-0.32,-0.204,0.962,-32.602,-0.227,-24.185
49448530,-0.311,-0.204,0.967,-20.685,-3.535,-25.952
49448540,-0.29,-0.175,0.974,-12.74,-7.14,-22.82
49448550,-0.27,-0.157,0.962,-7.175,-10.727,-16.922
49448560,-0.247,-0.14,0.967,-0.087,-12.267,-10.097
49448570,-0.244,-0.128,0.968,3.71,-13.93,-1.207
49448580,-0.241,-0.11,0.957,4.375,-14.98,5.705
49448590,-0.217,-0.11,0.941,5.67,-15.417,9.905
49448600,-0.207,-0.113,0.925,8.4,-14.647,12.757
49448610,-0.195,-0.088,0.933,11.252,-12.792,13.282
49448620,-0.205,-0.078,0.921,11.322,-11.217,14.297
49448630,-0.205,-0.057,0.945,14.42,-10.027,13.387
49448640,-0.192,-0.034,0.929,10.85,-9.887,14.21
49448650,-0.183,-0.032,0.926,10.342,-8.942,13.58
49448660,-0.174,-0.016,0.916,8.295,-7.14,13.142
49448670,-0.158,-0.014,0.898,6.842,-4.182,13.195
49448670,-0.148,-0.016,0.897,8.365,-0.175,14.49
49448690,-0.157,-0.012,0.898,9.257,4.55,16.957
49448690,-0.176,-0.016,0.903,10.027,9.415,17.85
49448710,-0.188,-0.008,0.922,10.36,14.402,17.202
49448710,-0.197,-0.014,0.905,7.875,17.447,15.505
49448730,-0.208,-0.037,0.905,11.042,20.755,13.02
49448730,-0.208,-0.029,0.906,12.285,22.925,11.637
49448750,-0.218,-0.033,0.898,12.985,24.885,10.867
49448750,-0.228,-0.044,0.907,15.977,26.022,10.972
49448760,-0.241,-0.051,0.911,17.85,26.547,13.632
49448770,-0.243,-0.052,0.914,19.267,26.215,17.255
49448780,-0.242,-0.065,0.916,20.212,27.142,21.49
49448790,-0.25,-0.074,0.919,19.88,28.507,25.76
49448800,-0.256,-0.078,0.908,17.902,30.94,30.012
49448810,-0.265,-0.082,0.905,18.06,32.655,34.212
49448820,-0.276,-0.08,0.903,18.427,33.705,39.707
49448830,-0.294,-0.078,0.9,19.25,33.04,45.045
49448840,-0.295,-0.046,0.906,19.862,32.637,48.002
49448850,-0.298,0,0.913,18.007,31.027,48.79
49448860,-0.304,0.047,0.92,12.635,29.995,48.755
49448870,-0.306,0.085,0.923,4.497,28.035,48.86
49448880,-0.287,0.125,0.922,-5.477,26.705,50.382
49448890,-0.268,0.171,0.926,-18.445,26.6,54.88
49448900,-0.274,0.201,0.939,-35.647,28.455,64.225
49448910,-0.285,0.207,0.933,-56.525,31.622,75.267
49448920,-0.259,0.199,0.914,-79.205,38.535,87.097
49448930,-0.231,0.179,0.891,-98.542,48.79,100.695
49448940,-0.248,0.131,0.858,-112.105,62.772,116.427
49448950,-0.284,0.094,0.862,-117.285,79.222,129.605
49448960,-0.362,0.071,0.86,-119.052,91.98,139.002
49448970,-0.469,0.064,0.886,-117.477,97.58,144.83
49448980,-0.592,0.052,0.898,-116.445,93.38,145.705
49448990,-0.67,0.03,0.894,-115.552,80.5,140.945
49449000,-0.723,-0.02,0.875,-112.595,63.175,131.442
49449010,-0.731,-0.075,0.849,-105.07,44.852,116.112
49449010,-0.728,-0.115,0.842,-92.032,26.617,98.717
49449030,-0.726,-0.118,0.855,-75.407,8.732,81.235
49449030,-0.725,-0.096,0.876,-58.66,-9.52,63.157
49449050,-0.675,-0.07,0.894,-45.622,-27.895,46.235
49449050,-0.603,-0.057,0.904,-36.417,-45.15,32.847
49449070,-0.569,-0.043,0.912,-30.537,-60.812,22.05
49449070,-0.5,-0.013,0.918,-28.087,-73.657,13.265
49449080,-0.427,-0.009,0.908,-28.63,-82.95,9.415
49449090,-0.341,-0.007,0.894,-27.86,-87.482,8.347
49449100,-0.29,-0.026,0.883,-24.78,-84.507,11.515
49449110,-0.231,-0.009,0.91,-21.122,-76.037,15.207
49449120,-0.197,-0.018,0.897,-25.882,-62.65,17.5
49449130,-0.212,-0.044,0.929,-26.075,-47.145,16.52
49449140,-0.264,-0.07,0.92,-29.382,-34.685,17.097
49449150,-0.258,-0.078,0.941,-30.695,-25.602,7.665
49449160,-0.287,-0.076,0.958,-34.737,-19.267,4.935
49449170,-0.346,-0.168,0.921,-33.635,-20.282,8.102
49449180,-0.323,-0.167,0.944,-24.605,-22.295,5.53
49449190,-0.329,-0.163,0.947,-21.542,-26.215,4.305
49449200,-0.343,-0.168,0.953,-18.742,-28.612,-0.087
49449210,-0.341,-0.201,0.94,-15.767,-31.29,-4.952
49449220,-0.321,-0.211,0.941,-11.655,-32.777,-7.927
49449230,-0.318,-0.233,0.908,-8.995,-35.052,-7.56
49449240,-0.285,-0.231,0.906,-2.835,-33.722,-6.562
49449250,-0.239,-0.195,0.899,0.21,-27.895,-2.31
49449260,-0.245,-0.196,0.879,1.96,-19.302,3.605
49449270,-0.247,-0.19,0.892,5.722,-9.082,6.615
49449280,-0.266,-0.189,0.914,5.88,-0.682,12.302
49449290,-0.325,-0.274,0.912,9.327,-0.245,17.447
49449300,-0.248,-0.229,1.013,15.715,0.385,7.035
49449310,-0.223,-0.205,1.018,13.545,0.63,4.322
49449320,-0.273,-0.198,1.028,9.782,0.77,5.6
49449330,-0.277,-0.203,1.087,9.782,-2.082,3.675
49449340,-0.222,-0.198,1.056,11.69,-3.867,0.507
49449350,-0.225,-0.184,1.017,13.317,-3.255,-0.892
49449360,-0.29,-0.166,0.991,18.777,-4.182,-3.657
49449370,-0.287,-0.115,0.979,26.687,-5.022,-10.465
49449380,-0.34,-0.073,0.926,29.365,-6.055,-12.95
49449390,-0.421,-0.054,0.867,27.807,-10.657,-10.342
49449400,-0.401,-0.037,0.805,26.757,-15.19,-5.337
49449410,-0.407,-0.028,0.793,26.915,-16.257,3.692
49449420,-0.418,-0.043,0.814,26.302,-16.012,10.885
49449420,-0.384,-0.073,0.864,24.185,-14.945,14.595
49449440,-0.357,-0.08,0.953,21.612,-15.96,18.987
49449440,-0.31,-0.061,0.975,17.797,-18.182,22.067
49449460,-0.261,-0.028,0.96,17.535,-17.552,24.657
49449460,-0.204,0.061,1.091,15.505,-13.947,21.385
49449480,-0.082,0.065,1.158,1.137,-6.037,14.385
49449480,-0.009,0.054,1.135,-10.465,4.567,5.04
49449500,0.009,0.132,1.162,-20.3,16.817,0.017
49449500,0.047,0.162,1.136,-38.325,30.012,-0.087
49449510,-0.009,0.034,1.118,-54.355,41.527,-0.437
49449520,-0.047,-0.043,1.059,-56.525,48.44,-5.092
49449530,-0.241,-0.037,0.942,-56.595,50.767,-0.14
49449540,-0.429,-0.083,0.898,-60.9,42.227,6.562
49449550,-0.459,-0.15,0.861,-57.4,34.737,5.88
49449560,-0.479,-0.203,0.872,-51.082,29.715,3.727
49449570,-0.455,-0.211,0.874,-49.28,27.492,3.64
49449580,-0.46,-0.228,0.889,-50.137,28.122,4.83
49449590,-0.455,-0.295,0.814,-49.752,27.492,0.665
49449600,-0.46,-0.278,0.805,-40.897,26.46,-3.395
49449610,-0.441,-0.25,0.697,-38.342,20.93,0.42
49449620,-0.23,-0.163,0.667,-31.57,24.062,-3.85
49449630,-0.296,-0.213,0.731,-26.862,30.59,0.35
49449640,-0.526,-0.317,0.863,-15.925,29.242,13.842
49449650,-0.491,-0.234,0.979,-1.102,22.575,22.312
49449660,-0.435,-0.14,0.978,-0.647,12.215,12.53
49449670,-0.403,-0.162,0.966,-3.727,7.227,9.415
49449680,-0.48,-0.282,0.79,2.152,2.467,9.397
49449690,-0.426,0.028,1.002,11.9,-2.135,-1.627
49449700,-0.421,-0.198,0.878,-10.587,-0.98,12.687
49449710,-0.517,-0.393,0.866,-5.775,-6.912,8.767
49449720,-0.478,-0.224,0.982,7.35,-15.767,-0.332
49449730,-0.51,-0.236,0.893,1.767,-24.08,0.787
49449740,-0.54,-0.286,0.837,6.93,-31.412,-0.682
49449750,-0.517,-0.157,0.941,11.357,-39.707,-3.71
49449760,-0.487,-0.206,0.889,5.425,-51.572,-4.217
49449760,-0.429,-0.266,0.851,7.507,-60.357,-3.272
49449780,-0.405,-0.204,0.904,12.897,-67.13,-3.885
49449780,-0.364,-0.213,0.893,13.387,-70.612,-3.062
49449800,-0.355,-0.237,0.901,17.937,-70.892,-3.727
49449800,-0.326,-0.138,0.932,23.362,-75.267,-8.785
49449820,-0.227,-0.085,0.904,21.245,-73.29,-8.96
49449820,-0.242,-0.132,0.846,21.297,-67.637,-4.917
49449830,-0.251,-0.1,0.887,24.517,-60.27,-3.465
49449840,-0.26,-0.108,0.903,22.75,-55.072,-4.147
49449850,-0.301,-0.186,0.905,23.117,-52.29,-4.847
49449860,-0.35,-0.198,0.894,30.03,-55.23,-6.65
49449870,-0.376,-0.177,0.901,35.63,-62.615,-6.842
49449880,-0.371,-0.175,0.901,37.642,-71.907,-7.875
