time[ms],accX[g],accY[g],accZ[g],Value 1,Value 2,Value 3
42163730,-0.587,0.144,0.765,9.012,6.702,-4.76
42163740,-0.597,0.194,0.812,12.582,6.3,-7.262
42163750,-0.584,0.214,0.808,8.977,5.355,-10.412
42163760,-0.519,0.22,0.79,1.872,6.475,-13.755
42163770,-0.501,0.245,0.776,-7.157,11.69,-17.762
42163780,-0.532,0.242,0.753,-18.532,17.85,-22.662
42163790,-0.641,0.157,0.711,-27.195,17.622,-26.372
42163800,-0.753,0.08,0.704,-24.412,5.635,-25.27
42163810,-0.854,0.017,0.713,-10.972,-16.957,-20.265
42163820,-0.777,0.07,0.782,8.417,-36.977,-19.477
42163830,-0.654,0.153,0.845,21.14,-47.092,-21.367
42163830,-0.564,0.201,0.862,25.497,-48.597,-19.775
42163850,-0.477,0.213,0.853,24.15,-40.792,-15.54
42163850,-0.462,0.221,0.839,21.507,-29.417,-10.062
42163870,-0.462,0.234,0.841,18.095,-17.937,-5.46
42163870,-0.479,0.218,0.829,13.965,-8.732,-2.257
42163890,-0.533,0.199,0.823,11.795,-3.605,-0.385
42163890,-0.574,0.204,0.833,10.867,-3.99,0.717
42163910,-0.569,0.203,0.836,9.047,-5.95,0.157
42163910,-0.575,0.184,0.814,6.93,-7.98,-0.91
42163920,-0.572,0.163,0.798,7.192,-10.237,-1.47
42163930,-0.573,0.166,0.802,9.817,-12.057,-1.347
42163940,-0.582,0.18,0.817,11.865,-12.67,-2.117
42163950,-0.576,0.175,0.811,12.652,-13.422,-2.782
42163960,-0.562,0.18,0.815,12.792,-13.615,-1.312
42163970,-0.536,0.191,0.819,12.285,-11.427,0.717
42163980,-0.523,0.191,0.821,10.29,-6.65,2.397
42163990,-0.534,0.193,0.813,7.525,-1.645,3.885
42164000,-0.538,0.194,0.81,5.075,1.61,5.74
42164010,-0.527,0.205,0.804,2.572,4.655,5.792
42164020,-0.522,0.209,0.793,-0.595,7.227,4.445
42164030,-0.537,0.223,0.793,-3.447,8.225,3.325
42164040,-0.535,0.232,0.794,-6.86,7.42,1.75
42164050,-0.547,0.24,0.797,-10.78,5.547,-0.56
42164060,-0.568,0.23,0.788,-14.84,2.747,-3.71
42164070,-0.598,0.216,0.789,-17.325,-1.68,-6.562
42164080,-0.613,0.2,0.797,-18.375,-7.297,-8.977
42164090,-0.602,0.174,0.793,-18.252,-12.39,-9.73
42164100,-0.568,0.175,0.8,-17.045,-13.65,-9.73
42164110,-0.532,0.165,0.815,-17.395,-10.29,-9.625
42164120,-0.495,0.156,0.824,-19.11,-3.71,-9.695
42164130,-0.521,0.148,0.816,-23.537,2.642,-9.73
42164140,-0.527,0.118,0.794,-28.647,6.387,-11.2
42164150,-0.526,0.085,0.778,-31.535,7.98,-12.425
42164160,-0.57,0.042,0.759,-31.167,7.017,-13.265
42164170,-0.583,0.004,0.761,-26.985,3.797,-15.207
42164170,-0.604,-0.038,0.767,-19.827,-0.28,-15.89
42164190,-0.654,-0.041,0.789,-9.187,-5.757,-14.787
42164190,-0.627,0.034,0.837,1.015,-9.695,-15.505
42164210,-0.597,0.084,0.854,4.9,-7.315,-15.487
42164210,-0.527,0.123,0.83,2.625,3.675,-17.15
42164230,-0.483,0.158,0.801,-5.547,24.062,-17.675
42164230,-0.525,0.222,0.778,-20.72,46.497,-17.692
42164250,-0.61,0.234,0.748,-38.815,60.707,-14.787
42164250,-0.684,0.323,0.781,-54.547,69.58,-19.897
42164260,-0.869,0.254,0.768,-73.535,55.107,-22.347
42164270,-0.87,0.189,0.716,-85.242,31.885,-26.215
42164280,-0.841,0.164,0.712,-85.645,3.307,-34.965
42164290,-0.84,0.138,0.714,-81.707,-25.165,-42.315
42164300,-0.82,0.063,0.678,-73.377,-54.53,-44.467
42164310,-0.668,0.057,0.705,-58.572,-76.247,-45.132
42164320,-0.563,0.114,0.798,-45.57,-86.222,-46.34
42164330,-0.513,0.17,0.881,-38.465,-86.152,-40.775
42164340,-0.434,0.22,0.95,-41.492,-75.635,-33.617
42164350,-0.443,0.177,0.919,-52.972,-60.76,-25.077
42164360,-0.529,0.015,0.886,-59.167,-48.912,-14.542
42164370,-0.527,-0.172,0.899,-47.635,-41.352,-5.022
42164380,-0.513,-0.188,1.013,-25.742,-30.957,3.29
42164390,-0.59,-0.067,1.064,-6.16,-17.412,4.707
42164400,-0.76,-0.063,1.055,-2.327,-21.962,-4.287
42164410,-0.661,-0.071,0.986,-1.155,-37.31,-20.02
42164420,-0.559,-0.005,0.981,-0.402,-51.52,-31.622
42164430,-0.54,0.02,0.959,-6.212,-60.55,-38.08
42164440,-0.497,0.023,0.938,-14.157,-66.885,-43.295
42164450,-0.363,0.064,0.933,-24.727,-66.447,-47.197
42164460,-0.356,0.04,0.894,-38.675,-58.922,-46.847
42164470,-0.394,0.001,0.891,-50.137,-54.442,-42.665
42164480,-0.438,-0.085,0.854,-56.595,-53.76,-38.36
42164490,-0.439,-0.16,0.835,-52.447,-58.747,-32.497
42164500,-0.428,-0.123,0.878,-43.4,-62.002,-26.267
42164510,-0.435,-0.087,0.906,-41.475,-62.65,-25.322
42164520,-0.437,-0.123,0.901,-44.485,-60.41,-30.1
42164530,-0.436,-0.172,0.893,-43.977,-58.905,-35.892
42164540,-0.412,-0.18,0.898,-37.747,-59.675,-38.762
42164550,-0.413,-0.187,0.917,-30.712,-62.615,-37.415
42164560,-0.433,-0.212,0.879,-22.837,-71.365,-37.712
42164570,-0.268,-0.138,0.873,-14.945,-80.815,-42.63
42164580,-0.088,-0.07,0.885,-18.9,-74.865,-42.332
42164580,-0.12,-0.108,0.873,-29.225,-54.302,-31.29
42164600,-0.132,-0.135,0.85,-36.785,-28.7,-20.737
42164600,-0.246,-0.149,0.837,-44.607,-7.665,-10.377
42164620,-0.241,-0.182,0.867,-49.087,8.295,0.577
42164620,-0.312,-0.223,0.813,-51.415,21.035,9.327
42164640,-0.446,-0.176,0.806,-51.345,28.297,13.247
42164640,-0.577,-0.147,0.776,-53.865,26.285,12.775
42164650,-0.63,-0.222,0.69,-53.707,15.767,8.067
42164660,-0.55,-0.26,0.709,-46.357,5.215,-4.165
42164670,-0.596,-0.25,0.756,-40.845,-6.79,-16.922
42164680,-0.582,-0.269,0.902,-38.15,-18.707,-30.52
42164690,-0.609,-0.335,1.058,-38.605,-34.422,-35.77
42164700,-0.542,-0.376,1.171,-41.947,-50.785,-35.647
42164710,-0.526,-0.361,1.281,-49.07,-67.2,-27.947
42164720,-0.308,-0.347,1.225,-62.3,-75.53,-26.46
42164730,-0.36,-0.532,1.121,-71.137,-79.765,-27.107
42164740,-0.214,-0.411,1.062,-72.73,-85.61,-35.507
42164750,0.008,-0.562,0.845,-58.117,-83.965,-30.012
42164760,-0.156,-0.185,0.939,-37.695,-69.982,-26.285
42164770,-0.233,-0.251,0.801,-43.032,-71.242,-15.26
42164780,-0.117,-0.244,0.724,-40.95,-70.525,-20.947
42164790,-0.083,-0.197,0.761,-38.745,-71.155,-29.417
42164800,0.016,-0.288,0.802,-40.512,-69.335,-31.902
42164810,0.074,-0.331,0.809,-41.282,-57.522,-30.152
42164820,-0.062,-0.333,0.815,-37.73,-42.717,-19.897
42164830,-0.122,-0.359,0.794,-33.022,-32.865,-12.67
42164840,-0.138,-0.337,0.785,-26.372,-25.882,-7.35
42164850,-0.187,-0.358,0.794,-22.89,-18.812,-3.08
42164860,-0.193,-0.381,0.838,-21.542,-11.13,-1.067
42164870,-0.208,-0.432,0.865,-22.61,-5.162,-0.122
42164880,-0.191,-0.462,0.909,-22.47,-2.607,0.752
42164890,-0.138,-0.436,0.936,-22.505,-0.892,0.542
42164900,-0.118,-0.432,0.917,-26.005,2.082,-0.262
42164910,-0.097,-0.439,0.931,-27.125,5.285,-1.802
42164920,-0.079,-0.473,0.884,-29.61,5.092,-3.727
42164920,-0.03,-0.466,0.808,-30.397,7.752,-6.965
42164940,-0.142,-0.438,0.804,-24.412,12.162,-3.797
42164940,-0.129,-0.45,0.772,-21.49,13.405,-2.345
42164960,-0.115,-0.429,0.807,-15.837,18.042,0.857
42164960,-0.239,-0.437,0.851,-10.482,22.487,4.322
42164980,-0.306,-0.474,0.858,-6.457,18.76,5.285
42164980,-0.274,-0.457,0.846,0.14,10.5,6.58
42165000,-0.258,-0.401,0.872,4.042,8.26,6.037
42165000,-0.269,-0.427,0.876,2.712,6.177,4.392
42165010,-0.2,-0.426,0.894,2.467,6.055,1.487
42165020,-0.23,-0.416,0.906,1.872,7.665,0.56
42165030,-0.264,-0.429,0.9,1.365,8.102,0.455
42165040,-0.257,-0.443,0.905,2.345,5.145,0.122
42165050,-0.25,-0.503,0.886,3.78,1.312,-0.227
42165060,-0.218,-0.53,0.922,9.817,-2.24,0.455
42165070,-0.248,-0.552,0.889,12.985,-6.965,-0.122
42165080,-0.222,-0.566,0.83,18.97,-15.19,-4.795
42165090,-0.054,-0.575,0.799,28.682,-17.937,-8.75
42165100,-0.049,-0.575,0.784,35.857,-8.505,-6.527
42165110,-0.076,-0.529,0.781,40.547,6.825,-12.477
42165120,-0.139,-0.502,0.793,43.802,18.095,-20.282
42165130,-0.136,-0.499,0.791,42.805,24.85,-24.605
42165140,-0.198,-0.491,0.821,38.517,30.047,-24.307
42165150,-0.225,-0.511,0.833,33.092,35.647,-27.842
42165160,-0.343,-0.575,0.817,27.405,30.03,-35.402
42165170,-0.236,-0.487,0.836,26.127,21.227,-42.42
42165180,-0.182,-0.438,0.832,24.937,27.615,-53.935
42165190,-0.267,-0.419,0.786,24.307,34.982,-60.882
42165200,-0.286,-0.376,0.77,28.98,38.972,-67.707
42165210,-0.302,-0.34,0.763,34.23,38.447,-71.907
42165220,-0.357,-0.323,0.748,37.852,32.515,-73.605
42165230,-0.351,-0.281,0.772,41.51,22.785,-72.467
42165240,-0.335,-0.242,0.792,38.797,11.287,-67.13
42165250,-0.347,-0.216,0.789,28.892,0.875,-58.94
42165260,-0.299,-0.178,0.848,17.447,-3.062,-55.632
42165270,-0.291,-0.16,0.847,1.295,-2.135,-50.907
42165280,-0.256,-0.188,0.825,-9.712,2.187,-48.177
42165290,-0.219,-0.223,0.823,-16.45,11.602,-43.33
42165300,-0.18,-0.303,0.868,-14.35,25.077,-34.912
42165310,-0.139,-0.382,0.88,-0.402,46.392,-22.68
42165320,-0.215,-0.351,0.91,18.847,64.032,-9.59
42165330,-0.405,-0.208,0.979,29.435,70,0.945
42165330,-0.426,-0.115,0.927,24.255,60.567,5.862
42165340,-0.414,-0.148,0.883,8.312,35.647,9.1
42165350,-0.12,-0.337,0.921,0.175,24.832,9.467
42165360,-0.001,-0.345,0.977,8.767,37.31,5.565
42165370,-0.1,-0.347,1.105,21.402,52.5,8.085
42165380,-0.296,-0.388,1.225,29.785,61.005,9.257
42165390,-0.4,-0.371,1.222,31.552,53.882,6.842
42165400,-0.443,-0.338,1.155,26.915,42.122,1.645
42165410,-0.418,-0.291,1.046,23.852,32.462,-3.605
42165420,-0.421,-0.196,0.981,20.597,27.527,-5.355
42165430,-0.451,-0.182,0.914,12.687,23.52,-3.78
42165440,-0.447,-0.23,0.867,6.23,17.867,-3.342
42165450,-0.411,-0.272,0.855,3.622,11.707,-3.412
42165460,-0.391,-0.289,0.856,3.027,7.297,-1.557
42165470,-0.361,-0.285,0.9,3.727,4.515,-0.297
42165480,-0.348,-0.336,0.925,3.01,2.712,0.682
42165490,-0.318,-0.369,0.93,3.22,0.927,-0.087
42165500,-0.298,-0.38,0.907,3.657,0.63,-0.752
42165510,-0.305,-0.374,0.868,5.827,1.12,0.962
42165520,-0.317,-0.347,0.836,8.942,0.49,3.867
42165530,-0.293,-0.354,0.796,11.935,-0.787,7.98
42165540,-0.28,-0.366,0.779,17.92,-1.732,13.842
42165550,-0.228,-0.372,0.774,25.76,-1.365,21.647
42165560,-0.141,-0.315,0.816,31.745,2.887,28.595
42165570,-0.094,-0.385,0.802,36.19,14.49,38.097
42165580,-0.177,-0.194,0.843,39.252,25.252,43.505
42165590,-0.085,-0.298,0.723,37.31,39.41,46.375
42165600,-0.251,-0.426,0.669,48.195,52.92,69.037
42165610,-0.548,-0.33,0.699,72.362,51.31,97.685
42165620,-0.451,-0.164,0.818,96.11,48.265,102.497
42165630,-0.499,-0.074,0.915,96.232,46.427,104.282
42165640,-0.704,0.032,0.99,68.967,37.852,96.617
42165650,-0.849,-0.107,0.97,30.397,13.597,75.512
42165660,-0.557,-0.281,0.891,14.735,-5.145,51.485
42165670,-0.461,-0.171,0.997,21.822,-7.91,42.857
42165670,-0.596,-0.108,1.097,24.5,-8.872,50.68
42165690,-0.595,-0.159,1.12,25.725,-13.457,50.207
42165690,-0.479,-0.169,1.06,27.457,-19.425,45.692
42165710,-0.389,-0.08,1.025,27.492,-18.76,40.88
42165710,-0.414,-0.08,1,21.367,-19.407,37.677
42165730,-0.307,-0.073,0.982,13.825,-21.455,30.415
42165730,-0.23,-0.075,0.971,7.017,-13.545,23.957
42165750,-0.328,-0.079,0.932,0.787,-0.297,19.967
42165750,-0.453,-0.095,0.888,-4.305,6.405,16.205
42165760,-0.522,-0.135,0.849,-6.457,2.432,13.457
42165770,-0.563,-0.16,0.863,-3.937,-8.12,12.127
42165780,-0.586,-0.157,0.882,-0.122,-20.212,12.88
42165790,-0.644,-0.143,0.884,1.487,-33.46,13.422
42165800,-0.713,-0.159,0.891,1.067,-52.605,13.387
42165810,-0.721,-0.282,0.72,-2.94,-76.107,10.85
42165820,-0.296,-0.18,0.667,7.507,-93.065,13.79
42165830,-0.291,-0.083,0.632,22.417,-101.832,28.35
42165840,-0.166,-0.087,0.57,28.682,-101.202,31.29
42165850,0.141,0.063,0.802,32.952,-88.077,24.22
42165860,0.28,0.145,1.046,8.942,-29.172,16.327
42165870,-0.522,-0.03,1.077,-14.315,26.232,13.125
42165880,-0.798,-0.094,1.204,-13.177,35.787,-1.61
42165890,-0.951,-0.201,1.21,-15.137,22.802,-5.477
42165900,-1.174,-0.394,1.052,-12.25,-9.695,-18.795
42165910,-1.014,-0.443,0.744,1.872,-53.025,-39.672
42165920,-0.995,-0.332,0.517,17.132,-93.397,-55.895
42165930,-1.051,-0.351,0.395,31.972,-133.455,-58.24
42165940,-0.762,-0.359,0.489,51.73,-170.765,-55.457
42165950,-0.443,-0.243,0.803,69.86,-194.565,-50.137
42165960,-0.106,-0.017,1.183,71.26,-198.187,-45.29
42165970,0.079,0.018,1.382,50.26,-181.877,-33.6
42165980,-0.212,-0.166,1.337,21.245,-171.255,-28.472
42165990,0.116,-0.061,1.074,14.717,-188.107,-45.482
42166000,0.441,0.018,0.732,11.83,-167.947,-29.102
42166010,-0.513,-0.305,0.756,-5.547,-141.785,-17.272
42166010,0.204,-0.075,0.678,27.72,-186.112,-43.925
42166030,1.257,0.41,0.885,50.015,-142.397,-39.007
42166030,0.302,0.153,1.103,11.812,-64.417,-18.077
42166050,0.166,-0.245,0.923,7.332,-66.605,-34.107
42166050,0.96,0.24,1.032,37.24,-68.162,-57.662
42166070,0.56,0.228,1.117,20.93,-25.847,-41.685
42166070,0.087,-0.049,1.177,-0.682,-0.7,-27.16
42166080,0.094,-0.045,1.258,-2.152,-6.685,-26.512
42166090,0.151,0.026,1.268,-8.05,-12.425,-23.992
42166100,0.062,0.016,1.12,-24.342,-6.422,-18.06
42166110,-0.092,-0.118,0.948,-37.397,-3.937,-13.807
42166120,-0.11,-0.22,0.867,-34.037,-10.64,-10.727
42166130,-0.045,-0.197,0.864,-20.475,-19.967,-11.095
42166140,0.052,-0.048,0.993,-12.985,-27.982,-5.845
42166150,-0.009,-0.105,1.072,-14.56,-39.637,2.957
42166160,0.134,-0.029,1.096,-14.245,-43.925,0.595
42166170,0.22,-0.011,1.121,-18.007,-40.145,-1.155
42166180,0.215,-0.052,1.123,-18.672,-35.017,0.192
42166190,0.361,-0.027,1.091,-13.265,-27.72,-0.56
42166200,0.49,0.006,1.032,-5.617,-11.445,-0.577
42166210,0.518,0.043,0.928,1.505,14.087,1.54
42166220,0.436,0.037,0.791,9.695,41.79,5.46
42166230,0.36,0.03,0.713,22.312,68.705,8.575
42166240,0.176,0.055,0.714,33.547,88.462,11.795
42166250,-0.035,0.07,0.821,37.625,95.76,13.387
42166260,-0.159,-0.04,0.918,34.51,90.3,11.602
42166270,-0.224,-0.126,1.033,36.067,76.037,5.827
42166280,-0.299,-0.107,1.135,41.037,54.862,-0.437
42166290,-0.291,-0.029,1.199,43.312,29.592,-6.09
42166300,-0.237,0.059,1.212,35.052,2.817,-10.955
42166310,-0.189,0.1,1.148,17.657,-17.972,-18.095
42166320,-0.08,0.052,1.063,0.227,-29.995,-25.48
42166330,0.135,-0.09,0.959,-8.225,-24.99,-22.365
42166340,0.221,-0.16,0.912,0.14,1.102,-4.515
42166350,0.083,-0.152,0.921,18.48,34.387,15.417
42166360,-0.013,-0.097,0.947,37.135,65.065,28.595
42166370,-0.082,-0.073,0.982,51.712,84.402,36.522
42166380,-0.254,0.02,0.995,65.135,94.097,40.267
42166390,-0.329,0.071,0.987,73.622,91.28,37.222
42166400,-0.343,0.134,0.97,77.42,80.29,33.705
42166410,-0.349,0.23,0.986,74.375,65.03,29.715
42166420,-0.349,0.286,0.976,61.652,48.23,25.567
42166420,-0.32,0.291,0.956,43.75,32.532,19.232
42166440,-0.271,0.265,0.932,23.625,20.457,12.722
42166440,-0.233,0.234,0.916,4.742,11.077,8.977
42166460,-0.192,0.191,0.904,-11.305,3.237,6.72
42166460,-0.15,0.161,0.903,-24.622,-2.397,7.087
42166480,-0.146,0.159,0.906,-36.89,-5.582,9.59
42166480,-0.126,0.166,0.929,-48.755,-7.49,9.8
42166500,-0.122,0.167,0.954,-61.005,-9.117,8.592
42166500,-0.103,0.142,0.953,-73.902,-11.462,8.155
42166510,-0.055,0.106,0.941,-87.395,-11.865,9.222
42166520,-0.005,0.029,0.938,-98.017,-8.172,13.002
42166530,0.013,-0.051,0.931,-102.585,0.42,21.385
42166540,0,-0.153,0.935,-99.645,11.76,34.667
42166550,-0.069,-0.254,0.911,-91.385,22.645,47.022
42166560,-0.116,-0.341,0.887,-77.315,32.375,53.777
42166570,-0.134,-0.409,0.923,-57.785,39.9,59.045
42166580,-0.123,-0.414,0.979,-35.35,47.372,63.035
42166590,-0.119,-0.403,0.997,-17.097,55.142,67.27
42166600,-0.122,-0.377,1.015,-0.927,63.525,69.37
42166610,-0.146,-0.321,1.052,12.512,70.28,72.012
42166620,-0.225,-0.224,1.113,17.29,71.977,70.367
42166630,-0.343,-0.13,1.149,9.24,65.03,64.032
42166640,-0.409,-0.082,1.154,-9.817,46.13,56.035
42166650,-0.394,-0.066,1.13,-32.462,20.212,50.19
42166660,-0.345,-0.106,1.053,-52.605,-3.552,48.282
42166670,-0.271,-0.233,0.934,-62.79,-20.475,51.135
42166680,-0.106,-0.419,0.909,-53.83,-25.007,58.152
42166690,-0.051,-0.475,0.913,-26.04,-15.225,72.467
42166700,-0.114,-0.302,1.04,2.957,-4.27,73.815
42166710,-0.182,-0.315,1.013,14.28,-2.485,73.342
42166720,-0.104,-0.278,1.051,23.432,0.227,67.462
42166730,-0.194,-0.29,1.008,11.812,-3.43,65.1
42166740,-0.113,-0.374,0.996,2.362,-7.612,52.412
42166750,-0.048,-0.5,0.974,-12.74,-7.21,26.075
42166760,-0.047,-0.589,0.997,-27.23,-11.935,-4.777
42166760,-0.007,-0.612,0.98,-32.795,-12.197,-23.52
42166780,-0.016,-0.501,1.02,-36.627,-7.455,-32.917
42166780,-0.127,-0.475,0.946,-47.232,-1.382,-38.395
42166800,-0.244,-0.491,0.889,-58.467,-0.875,-46.725
42166800,-0.376,-0.498,0.825,-67.585,-22.767,-67.917
42166820,-0.065,-0.49,0.774,-71.54,-53.13,-95.847
42166820,0.126,-0.309,0.766,-73.85,-57.33,-109.83
42166830,0.221,-0.122,0.74,-86.397,-44.607,-121.747
42166840,0.316,-0.134,0.628,-105.385,-18.812,-128.817
42166850,0.351,-0.2,0.494,-114.73,14.822,-127.295
42166860,0.233,-0.128,0.456,-110.67,52.85,-120.207
42166870,0.002,-0.035,0.51,-100.415,83.772,-109.637
42166880,-0.176,-0.052,0.527,-87.465,98.035,-94.972
42166890,-0.306,-0.032,0.582,-75.495,103.442,-80.01
42166900,-0.499,-0.02,0.702,-67.952,105.542,-72.642
42166910,-0.707,-0.106,0.747,-60.777,98.84,-72.117
42166920,-0.851,-0.133,0.791,-48.562,83.475,-75.162
42166930,-0.945,-0.232,0.898,-34.65,58.695,-77.717
42166940,-0.979,-0.291,0.958,-6.562,27.632,-67.637
42166950,-0.908,-0.166,1.091,19.232,-2.712,-52.727
42166960,-0.767,-0.081,1.155,29.207,-19.057,-38.045
42166970,-0.623,-0.087,1.196,26.652,-19.74,-25.795
42166980,-0.577,-0.158,1.153,17.622,-13.947,-14.735
42166990,-0.525,-0.254,1.106,13.335,-9.625,-5.407
42167000,-0.556,-0.295,1.091,15.89,-10.08,0.84
42167010,-0.49,-0.317,1.072,21.052,-18.025,0.612
42167020,-0.418,-0.312,1.072,31.762,-27.422,-1.33
42167030,-0.333,-0.321,1.039,42.402,-38.797,2.765
42167040,-0.21,-0.292,1.041,51.87,-44.415,7.927
42167050,-0.107,-0.262,1.045,55.072,-39.567,11.322
42167060,-0.066,-0.247,1.035,52.237,-26.722,13.492
42167070,-0.057,-0.213,1.041,46.077,-11.637,13.597
42167080,-0.136,-0.169,1.021,34.37,-0.507,12.845
42167090,-0.246,-0.177,0.986,20.16,-1.522,12.32
42167100,-0.31,-0.18,0.971,12.145,-15.785,10.902
42167110,-0.357,-0.132,0.982,6.247,-39.69,8.452
42167120,-0.256,-0.118,0.939,-0.525,-66.202,4.41
42167130,-0.127,-0.085,0.926,-7.192,-79.747,3.29
42167140,-0.104,-0.108,0.907,-15.225,-83.335,7.087
42167150,-0.046,-0.108,0.926,-23.782,-75.565,7.262
42167160,-0.048,-0.102,0.934,-36.452,-62.527,5.512
42167170,-0.076,-0.106,0.989,-55.212,-50.242,0.017
42167170,-0.055,-0.208,1.036,-75.04,-41.51,-4.777
42167190,0.053,-0.42,1.019,-82.967,-32.795,-6.58
42167190,0.077,-0.494,1.065,-74.112,-19.25,-6.982
42167210,-0.071,-0.437,1.111,-61.145,-10.045,-4.007
42167210,-0.143,-0.367,1.1,-54.757,-10.517,-0.997
42167230,-0.167,-0.337,1.026,-61.425,-15.575,0.752
42167230,-0.202,-0.34,0.94,-74.9,-21.42,0.647
42167250,-0.18,-0.37,0.879,-88.882,-24.482,-1.68
42167250,-0.175,-0.459,0.798,-101.675,-24.29,-5.32
42167260,-0.262,-0.577,0.747,-105.035,-26.215,-7.787
42167270,-0.21,-0.501,0.744,-97.44,-35.087,-11.322
42167280,-0.139,-0.583,0.807,-96.985,-39.497,-7.35
42167290,-0.176,-0.718,0.801,-89.985,-40.18,-6.247
42167300,-0.15,-0.655,0.863,-77.245,-41.947,-8.19
42167310,-0.12,-0.543,0.886,-71.767,-44.362,-10.57
42167320,-0.066,-0.525,0.842,-74.935,-44.94,-12.092
42167330,-0.081,-0.55,0.8,-78.557,-43.75,-12.04
42167340,-0.096,-0.611,0.76,-75.337,-44.922,-11.34
42167350,-0.083,-0.625,0.759,-66.29,-47.477,-8.505
42167360,-0.073,-0.63,0.765,-57.487,-48.702,-7
42167370,0.001,-0.598,0.791,-47.705,-46.392,-6.475
42167380,0.038,-0.54,0.828,-43.417,-39.76,-5.985
42167390,0.032,-0.534,0.819,-47.705,-30.852,-6.405
42167400,0.045,-0.574,0.77,-53.812,-22.505,-8.382
42167410,-0.019,-0.62,0.741,-55.44,-15.12,-10.797
42167420,-0.097,-0.649,0.727,-51.537,-14.42,-14.997
42167430,-0.113,-0.628,0.798,-45.465,-22.032,-17.85
42167440,-0.11,-0.657,0.793,-45.972,-33.6,-20.282
42167450,-0.098,-0.699,0.785,-44.572,-43.872,-22.295
42167460,-0.033,-0.733,0.775,-39.62,-51.747,-22.785
42167470,0.025,-0.706,0.774,-34.405,-53.445,-22.382
42167480,0.079,-0.68,0.738,-32.742,-48.982,-21.612
42167490,0.151,-0.711,0.716,-31.185,-39.147,-20.615
42167500,0.317,-0.643,0.731,-29.75,-21.63,-16.887
42167510,0.272,-0.612,0.769,-35.192,3.92,-9.275
42167510,0.24,-0.584,0.841,-44.817,29.277,-4.532
42167530,0.139,-0.61,0.849,-59.29,46.077,-1.557
42167530,-0.048,-0.791,0.802,-64.907,45.99,-0.56
42167550,-0.087,-0.835,0.761,-49.35,25.935,-1.12
42167550,-0.025,-0.718,0.715,-30.52,4.427,-4.305
42167570,0.03,-0.676,0.66,-18.462,-9.275,-8.715
42167570,-0.074,-0.666,0.636,-11.217,-17.482,-12.075
42167580,-0.035,-0.645,0.627,-4.725,-29.54,-20.002
42167590,-0.009,-0.661,0.616,-0.087,-40.897,-23.677
42167600,-0.008,-0.661,0.609,4.27,-50.102,-23.852
42167610,0.009,-0.643,0.616,9.782,-58.222,-23.17
42167620,0.044,-0.628,0.628,13.772,-63.017,-22.715
42167630,0.127,-0.611,0.635,14.087,-61.6,-22.995
42167640,0.225,-0.595,0.636,10.482,-51.24,-20.982
42167650,0.24,-0.596,0.648,4.707,-31.745,-14.035
42167660,0.14,-0.625,0.649,-2.94,-13.265,-8.19
42167670,0.08,-0.646,0.649,-9.292,-0.77,-5.215
42167680,0.041,-0.593,0.688,-13.037,5.565,-2.642
42167690,-0.029,-0.635,0.688,-17.01,2.957,0.367
42167700,0.002,-0.683,0.679,-17.15,-2.52,-1.05
42167710,0.047,-0.69,0.699,-15.382,-6.125,-3.85
42167720,0.105,-0.661,0.724,-14.21,-6.667,-7.192
42167730,0.102,-0.674,0.767,-15.032,-6.79,-7.472
42167740,0.125,-0.742,0.793,-14.735,-8.032,-5.215
42167750,0.278,-0.781,0.804,-12.372,-3.867,-2.817
42167760,0.353,-0.714,0.857,-13.965,13.142,-2.415
42167770,0.232,-0.762,0.871,-24.08,31.71,-4.305
42167780,0.144,-0.814,0.853,-32.655,39.025,-7.245
42167790,0.181,-0.806,0.851,-38.01,37.695,-11.602
42167800,0.229,-0.762,0.841,-46.637,36.277,-16.485
42167810,0.315,-0.816,0.787,-59.867,44.292,-22.872
42167820,0.324,-0.764,0.771,-68.827,59.465,-29.697
42167830,0.258,-0.808,0.71,-82.495,74.252,-39.917
42167840,0.165,-0.85,0.65,-89.582,83.387,-48.475
42167850,0.186,-0.855,0.596,-89.967,87.01,-58.957
42167860,0.248,-0.824,0.543,-86.467,92.207,-67.305
42167870,0.23,-0.754,0.516,-84.612,101.867,-64.592
42167880,0.213,-0.719,0.509,-82.932,113.225,-62.965
42167890,0.247,-0.731,0.469,-82.18,125.65,-60.655
42167900,0.3,-0.689,0.45,-82.407,143.062,-51.677
42167910,0.309,-0.614,0.457,-87.395,169.925,-40.092
42167920,0.209,-0.624,0.437,-98.385,199.867,-28.857
42167920,0.014,-0.663,0.408,-109.235,220.797,-24.027
42167940,-0.17,-0.697,0.388,-116.515,225.61,-23.152
42167940,-0.307,-0.743,0.36,-118.562,212.082,-24.325
42167960,-0.413,-0.788,0.34,-114.065,185.36,-28.665
42167960,-0.463,-0.815,0.326,-104.545,150.867,-33.337
42167980,-0.461,-0.822,0.333,-91.122,112.84,-37.257
42167980,-0.435,-0.848,0.334,-78.837,78.277,-41.51
42168000,-0.405,-0.895,0.323,-63,48.965,-43.277
42168000,-0.357,-0.926,0.329,-38.517,23.065,-36.767
42168010,-0.203,-0.94,0.362,-11.935,10.22,-25.707
42168020,-0.16,-0.924,0.402,9.695,12.652,-15.697
42168030,-0.133,-0.885,0.464,25.795,22.96,-10.027
42168040,-0.121,-0.872,0.491,33.11,35.332,-6.037
42168050,-0.193,-0.875,0.52,32.69,45.412,1.627
42168060,-0.279,-0.87,0.555,28.122,48.3,9.625
42168070,-0.321,-0.885,0.555,23.222,41.912,15.33
42168080,-0.308,-0.9,0.548,20.072,30.502,19.845
42168090,-0.281,-0.903,0.549,17.832,18.637,22.452
42168100,-0.271,-0.903,0.529,15.732,5.95,22.522
42168110,-0.233,-0.904,0.516,14.332,-5.495,18.095
42168120,-0.164,-0.86,0.512,10.605,-14.63,11.462
42168130,-0.09,-0.84,0.5,4.2,-19.635,9.117
42168140,-0.021,-0.852,0.493,-1.102,-17.955,6.667
42168150,-0.01,-0.863,0.484,-3.937,-11.2,4.357
42168160,-0.045,-0.9,0.464,-2.432,-6.51,1.47
42168170,-0.031,-0.895,0.469,4.672,-6.072,-0.175
42168180,-0.073,-0.892,0.497,10.202,-6.965,1.732
42168190,-0.132,-0.916,0.511,13.037,-11.182,-0.752
42168200,-0.108,-0.902,0.525,15.435,-17.22,-9.327
42168210,-0.082,-0.859,0.554,13.037,-22.767,-16.87
42168220,-0.042,-0.827,0.546,4.165,-26.11,-20.527
42168230,-0.095,-0.788,0.493,-8.4,-29.242,-21.07
42168240,-0.116,-0.852,0.448,-19.075,-37.66,-26.442
42168250,0.083,-0.921,0.47,-20.72,-42.455,-31.762
42168260,0.041,-0.893,0.498,-18.97,-37.94,-29.085
42168260,-0.031,-0.918,0.519,-17.325,-33.215,-20.825
42168280,-0.085,-0.951,0.488,-16.712,-28.525,-18.69
42168280,-0.171,-0.943,0.495,-11.41,-36.347,-25.007
42168300,0.097,-0.923,0.523,-8.89,-41.545,-34.475
42168300,0.193,-0.936,0.527,-9.082,-27.72,-36.26
42168320,0.106,-0.886,0.514,-7.805,-5.687,-37.065
42168320,0.063,-0.888,0.474,-7.542,8.96,-38.692
42168330,0.136,-0.833,0.483,-6.247,23.117,-41.667
42168340,0.097,-0.82,0.461,-7.507,34.125,-39.97
42168350,0.244,-0.816,0.462,-10.185,46.357,-36.05
42168360,0.215,-0.743,0.464,-13.177,65.17,-25.567
42168370,0.098,-0.785,0.442,-22.067,81.305,-12.6
42168380,0,-0.82,0.434,-26.862,86.87,-2.695
42168390,-0.034,-0.79,0.436,-31.325,81.952,3.08
42168400,-0.002,-0.864,0.415,-33.285,75.337,7.822
42168410,-0.012,-0.874,0.423,-31.552,74.48,8.4
42168420,-0.094,-0.873,0.435,-29.995,70.787,15.295
42168430,-0.093,-0.933,0.411,-31.972,64.715,21.612
42168440,-0.068,-0.965,0.405,-32.235,62.772,20.44
42168450,-0.056,-0.975,0.41,-32.497,66.272,13.702
42168460,-0.089,-1.019,0.366,-33.425,70.682,6.177
42168470,-0.09,-1.002,0.348,-30.275,74.48,-1.382
42168480,-0.115,-0.96,0.348,-27.212,75.862,-3.325
42168490,-0.118,-0.922,0.34,-27.247,75.722,-3.482
42168500,-0.109,-0.696,0.313,-34.072,74.41,-5.53
42168510,-0.029,-0.765,0.258,-57.382,76.72,-3.36
42168520,-0.319,-0.763,0.296,-72.87,75.512,2.94
42168530,0.127,-0.957,0.293,-74.042,71.82,3.815
42168540,0.092,-1.091,0.326,-63.175,101.395,11.06
42168550,-0.32,-1.16,0.402,-46.882,113.557,27.772
42168560,-0.464,-0.998,0.501,-23.94,98.105,31.587
42168570,-0.385,-1.056,0.434,-15.767,61.215,34.877
42168580,-0.236,-1.025,0.374,-3.395,31.955,37.205
42168590,-0.149,-0.963,0.292,5.075,16.677,41.23
42168600,-0.096,-0.836,0.221,8.61,20.265,48.387
42168610,-0.134,-0.773,0.197,3.797,27.265,59.22
42168620,-0.137,-0.784,0.201,-8.05,35.017,72.327
42168630,-0.216,-0.856,0.266,-18.83,47.302,77.84
42168640,-0.221,-0.971,0.305,-24.272,57.907,64.102
42168650,-0.23,-0.989,0.348,-24.132,66.517,46.322
42168660,-0.357,-0.929,0.371,-26.04,64.907,38.78
42168670,-0.336,-0.932,0.364,-30.537,57.75,34.02
42168670,-0.266,-0.919,0.339,-37.31,53.882,25.637
42168690,-0.244,-0.902,0.309,-45.01,56.035,17.272
42168690,-0.093,-0.917,0.253,-54.232,62.44,10.797
42168710,-0.216,-0.987,0.14,-59.237,69.352,28.962
42168710,-0.333,-0.966,0.095,-43.75,71.12,44.31
42168730,-0.253,-0.884,0.12,-31.797,68.18,47.075
42168730,-0.28,-0.948,0.103,-36.19,67.235,53.445
42168740,-0.272,-1.009,0.111,-31.43,67.725,56.805
42168750,-0.404,-0.937,0.171,-23.047,66.062,63.297
42168760,-0.378,-0.939,0.126,-23.765,60.515,74.27
42168770,-0.405,-0.971,0.105,-30.17,62.02,76.16
42168780,-0.508,-0.963,0.075,-33.705,63.7,76.422
42168790,-0.518,-0.931,0.126,-35.7,61.617,72.222
42168800,-0.499,-0.91,0.114,-41.947,56.612,69.597
42168810,-0.51,-0.96,0.086,-46.095,50.662,68.565
42168820,-0.564,-1.004,0.132,-42.28,43.732,77.77
42168830,-0.572,-1.068,0.103,-33.057,34.807,74.672
42168840,-0.62,-1.06,0.098,-21.367,22.522,59.71
42168850,-0.604,-0.946,0.103,-5.022,3.22,51.922
42168860,-0.402,-0.862,0.104,6.212,-12.372,50.26
42168870,-0.329,-0.845,0.045,11.935,-15.785,54.302
42168880,-0.248,-0.44,-0.091,12.74,-10.92,59.465
42168890,-0.49,-0.516,-0.059,-9.24,-8.645,84.962
42168900,-0.227,-0.686,-0.146,-16.24,10.027,100.835
42168910,-0.509,-0.76,-0.141,-11.27,29.575,99.015
42168920,-0.684,-0.825,-0.043,-3.727,36.68,91.332
42168930,-0.686,-0.873,0.061,7.385,42.21,72.905
42168940,-1.038,-0.903,0.186,18.112,30.117,62.247
42168950,-1.086,-0.982,0.326,29.68,5.617,48.247
42168960,-0.925,-0.949,0.424,39.497,-16.502,41.755
42168970,-0.678,-0.986,0.372,40.407,-25.672,42.945
42168980,-0.587,-0.949,0.308,38.657,-20.597,54.757
42168990,-0.605,-0.872,0.286,35.227,-14.035,68.092
42169000,-0.628,-0.847,0.302,32.812,-11.707,78.277
42169010,-0.647,-0.878,0.288,30.292,-10.99,77.77
42169010,-0.686,-0.864,0.27,31.325,-14.297,64.557
42169030,-0.783,-0.894,0.272,36.645,-28.735,46.427
42169030,-0.791,-0.842,0.16,47.022,-45.097,26.32
42169050,-0.804,-0.679,0.145,51.747,-56.402,10.097
42169050,-0.647,-0.691,0.137,45.937,-64.662,8.487
42169070,-0.514,-0.726,0.159,42.315,-53.462,16.117
42169070,-0.601,-0.75,0.162,40.337,-32.27,23.24
42169080,-0.66,-0.73,0.218,39.217,-16.31,30.135
42169090,-0.774,-0.731,0.24,38.675,-10.832,34.142
42169100,-0.795,-0.74,0.237,39.112,-19.722,36.207
42169110,-0.766,-0.741,0.242,41.387,-33.372,37.187
42169120,-0.755,-0.71,0.217,44.292,-45.185,34.16
42169130,-0.765,-0.634,0.293,42.927,-54.407,23.117
42169140,-0.682,-0.631,0.304,32.795,-62.965,7.245
42169150,-0.535,-0.596,0.352,21.647,-59.972,-3.15
42169160,-0.567,-0.52,0.374,6.352,-49.735,-6.002
42169170,-0.612,-0.56,0.338,-13.877,-43.172,-8.452
42169180,-0.584,-0.663,0.273,-27.177,-40.775,-10.622
42169190,-0.604,-0.735,0.236,-27.86,-41.195,-6.842
42169200,-0.685,-0.782,0.206,-16.66,-42.822,1.61
42169210,-0.696,-0.799,0.194,-0.735,-47.792,5.215
42169220,-0.633,-0.826,0.247,16.31,-47.425,5.67
42169230,-0.614,-0.717,0.296,36.627,-43.785,7.77
42169240,-0.618,-0.647,0.336,39.34,-44.52,14.21
42169250,-0.553,-0.633,0.364,31.57,-40.617,20.475
42169260,-0.543,-0.659,0.388,21.245,-32.532,21.105
42169270,-0.549,-0.658,0.395,11.48,-23.257,17.342
42169280,-0.552,-0.688,0.394,0.962,-14.385,12.775
42169290,-0.592,-0.745,0.298,-5.775,-7.7,11.112
42169300,-0.688,-0.764,0.303,-1.54,-5.46,9.345
42169310,-0.702,-0.732,0.289,3.99,-8.732,7.017
42169320,-0.676,-0.701,0.305,8.837,-9.345,1.645
42169330,-0.622,-0.65,0.325,9.537,-7.682,-2.502
42169340,-0.57,-0.662,0.309,3.727,2.1,-1.925
42169350,-0.573,-0.638,0.344,-3.342,13.51,2.345
42169360,-0.674,-0.692,0.307,-10.29,25.217,6.405
42169370,-0.76,-0.702,0.306,-13.142,20.51,4.987
42169380,-0.615,-0.673,0.322,-13.65,16.152,3.5
42169390,-0.655,-0.628,0.327,-17.255,16.52,2.905
42169400,-0.688,-0.688,0.29,-23.712,13.667,-0.227
42169410,-0.625,-0.691,0.272,-27.545,8.645,-2.502
42169420,-0.662,-0.737,0.244,-28.997,4.672,-1.557
42169420,-0.68,-0.835,0.192,-23.187,-0.98,2.275
42169430,-0.596,-0.779,0.243,-9.66,-1.557,4.725
42169440,-0.662,-0.712,0.256,-0.507,4.305,2.782
42169450,-0.676,-0.713,0.248,3.955,8.347,-0.437
42169460,-0.612,-0.68,0.278,6.37,12.075,1.102
42169470,-0.623,-0.697,0.262,5.337,18.025,4.445
42169480,-0.603,-0.677,0.257,6.387,25.182,6.44
42169490,-0.554,-0.637,0.27,4.287,36.032,7.927
42169500,-0.59,-0.654,0.26,-0.892,47.775,10.342
42169510,-0.65,-0.684,0.259,-5.337,52.727,10.08
42169520,-0.638,-0.69,0.273,-7.647,53.165,7.525
42169530,-0.655,-0.697,0.277,-9.257,51.397,4.095
42169540,-0.637,-0.697,0.269,-10.797,50.47,1.225
42169550,-0.651,-0.711,0.249,-11.83,52.08,0.035
42169560,-0.718,-0.728,0.233,-10.552,51.975,0.98
42169570,-0.767,-0.728,0.227,-7.087,48.492,2.222
42169580,-0.817,-0.744,0.165,-3.097,41.895,3.517
42169590,-0.787,-0.677,0.173,2.38,37.065,4.725
42169600,-0.804,-0.658,0.154,1.085,34.947,6.107
42169610,-0.806,-0.689,0.124,-1.872,35.63,8.4
42169620,-0.824,-0.657,0.135,-3.045,35.315,9.222
42169630,-0.814,-0.61,0.114,-8.33,34.335,9.292
42169640,-0.83,-0.675,0.078,-15.505,36.365,11.147
42169650,-0.865,-0.766,0.155,-14.245,30.205,7.997
42169660,-0.635,-0.556,0.279,-13.772,25.847,6.527
42169670,-0.678,-0.67,0.265,-28.98,42.647,18.655
42169680,-0.967,-0.864,0.25,-35.542,45.482,17.307
42169690,-0.972,-0.791,0.33,-25.515,29.645,7.175
42169700,-0.773,-0.769,0.304,-21.682,7.315,-5.74
42169710,-0.736,-0.786,0.271,-21.14,-4.777,-10.465
42169720,-0.773,-0.798,0.269,-17.797,-17.85,-8.12
42169730,-0.742,-0.811,0.216,-13.23,-30.94,-7.42
42169740,-0.681,-0.784,0.141,-5.687,-41.387,-7.367
42169750,-0.616,-0.743,0.129,0.21,-41.597,-5.897
42169760,-0.685,-0.746,0.088,3.062,-35.28,-5.057
42169760,-0.729,-0.732,0.085,7.367,-32.322,-6.44
42169780,-0.664,-0.697,0.109,10.36,-30.117,-8.155
42169780,-0.634,-0.715,0.114,10.71,-23.397,-8.137
42169800,-0.69,-0.713,0.146,12.232,-16.345,-4.795
42169800,-0.734,-0.703,0.184,12.022,-14.192,-0.542
42169820,-0.739,-0.697,0.196,10.045,-14.577,1.557
42169820,-0.731,-0.716,0.2,7.07,-15.82,3.57
42169830,-0.757,-0.73,0.206,5.372,-18.847,6.002
42169840,-0.774,-0.751,0.187,6.737,-23.782,7.472
42169850,-0.737,-0.775,0.152,11.952,-29.977,8.487
42169860,-0.75,-0.685,0.183,18.007,-34.982,12.722
42169870,-0.767,-0.68,0.16,17.377,-37.677,14.997
42169880,-0.688,-0.75,0.142,20.23,-38.325,12.232
42169890,-0.68,-0.66,0.24,27.142,-35.612,11.042
42169900,-0.739,-0.627,0.217,25.235,-31.64,9.205
42169910,-0.741,-0.741,0.177,23.292,-32.69,4.112
42169920,-0.72,-0.716,0.159,30.45,-38.64,1.68
42169930,-0.636,-0.702,0.207,37.292,-40.022,3.587
42169940,-0.681,-0.655,0.221,39.847,-33.057,6.79
42169950,-0.73,-0.663,0.247,38.062,-25.585,7.63
42169960,-0.756,-0.654,0.287,34.265,-21.84,8.977
42169970,-0.755,-0.678,0.3,28.63,-20.702,10.832
42169980,-0.744,-0.72,0.334,25.917,-21.105,14.875
42169990,-0.722,-0.708,0.395,27.842,-18.62,18.322
42170000,-0.713,-0.759,0.766,27.422,-16.222,20.842
42170010,-0.606,-0.724,0.025,23.485,-19.95,30.625
42170020,-1.167,-0.725,0.311,23.467,-10.71,24.5
42170030,-0.682,-0.644,0.243,32.97,-46.987,18.13
42170040,-0.31,-0.485,0.353,34.317,-41.58,6.422
42170050,-0.607,-0.635,0.307,24.605,-27.422,17.307
42170060,-0.628,-0.629,0.279,28.262,-26.11,10.482
42170070,-0.515,-0.658,0.21,39.515,-37.712,4.725
42170080,-0.237,-0.479,0.267,48.3,-34.632,3.36
42170090,-0.242,-0.484,0.271,36.96,-9.8,8.557
42170100,-0.46,-0.586,0.268,26.897,17.325,16.082
42170110,-0.527,-0.467,0.37,20.212,34.807,15.4
42170120,-0.637,-0.58,0.356,7.997,44.677,20.965
42170120,-0.797,-0.621,0.318,6.107,46.2,26.67
42170140,-0.852,-0.597,0.309,11.357,40.897,27.877
42170140,-0.875,-0.55,0.361,15.645,35.402,29.225
42170160,-0.904,-0.594,0.404,14.63,29.645,26.075
42170160,-0.856,-0.663,0.405,16.555,20.947,19.407
42170170,-0.737,-0.655,0.358,21.857,16.1,10.622
42170180,-0.828,-0.692,0.266,27.93,8.05,16.905
42170190,-0.69,-0.622,0.23,35.35,1.015,18.182
42170200,-0.609,-0.579,0.25,34.895,8.295,18.147
42170210,-0.739,-0.691,0.21,31.29,20.895,20.44
42170220,-0.806,-0.676,0.241,37.362,26.215,17.57
42170230,-0.725,-0.608,0.327,40.477,26.267,12.355
42170240,-0.74,-0.622,0.378,33.425,28.735,6.825
42170250,-0.742,-0.607,0.451,24.01,28.77,-1.907
42170260,-0.731,-0.611,0.477,14.56,26.372,-7.892
42170270,-0.741,-0.646,0.332,6.982,19.985,-11.812
42170280,-0.672,-0.65,0.227,11.007,11.707,-8.732
42170290,-0.643,-0.56,0.278,15.172,8.61,-7.437
42170300,-0.527,-0.56,0.283,15.207,16.8,-11.602
42170310,-0.506,-0.44,0.369,7.157,36.067,-11.147
42170320,-0.62,-0.551,0.342,-9.17,56.717,-5.477
42170330,-0.708,-0.53,0.288,-13.44,69.947,-1.26
42170340,-0.795,-0.554,0.206,-13.3,73.885,5.547
42170350,-0.78,-0.53,0.147,-6.825,72.712,13.947
42170360,-0.762,-0.478,0.132,-0.315,78.942,15.155
42170370,-0.947,-0.567,0.132,1.627,83.037,19.88
42170380,-0.968,-0.515,0.224,6.632,78.435,18.165
42170390,-1.038,-0.576,0.247,7.752,71.715,14.962
42170400,-1.133,-0.574,0.259,12.53,59.745,14.28
42170410,-1.071,-0.547,0.257,14.192,46.042,15.172
42170420,-1.097,-0.548,0.223,12.285,38.552,20.405
42170430,-1.139,-0.526,0.231,9.257,30.152,25.077
42170440,-1.076,-0.577,0.251,6.492,20.177,27.492
42170450,-0.985,-0.528,0.367,5.197,14.542,24.815
42170460,-0.977,-0.572,0.415,0.245,5.915,18.305
42170470,-0.89,-0.622,0.382,0.91,-10.097,6.23
42170480,-0.69,-0.59,0.298,7.84,-25.952,-1.575
42170490,-0.7,-0.53,0.225,13.37,-33.67,-1.067
42170500,-0.772,-0.486,0.224,15.732,-38.185,-6.335
42170510,-0.818,-0.475,0.279,12.88,-43.715,-15.61
42170510,-1.056,-0.554,0.324,6.457,-52.377,-19.967
42170530,-1.288,-0.629,0.331,3.885,-75.022,-27.562
42170530,-1.447,-0.683,0.342,7.77,-119.63,-35.367
42170550,-1.378,-0.702,0.385,14.647,-173.46,-45.71
42170550,-1.088,-0.585,0.487,18.41,-209.58,-63.927
42170570,-0.933,-0.446,0.599,4.725,-214.13,-87.325
42170570,-0.871,-0.483,0.564,-24.92,-195.597,-107.835
42170580,-0.471,-0.439,0.441,-49.542,-169.977,-114.275
42170590,-0.334,-0.458,0.358,-73.027,-135.415,-99.89
42170600,-0.477,-0.618,0.215,-85.347,-110.81,-87.22
42170610,-0.573,-0.696,0.162,-73.307,-109.567,-85.89
42170620,-0.588,-0.721,0.192,-50.505,-122.727,-81.532
42170630,-0.912,-0.697,0.401,-27.965,-140.665,-73.832
42170640,-1.52,-0.88,0.313,0.91,-210.857,-85.4
42170650,-0.287,-0.926,0.248,37.625,-304.325,-111.125
42170660,0.599,-0.556,0.732,43.435,-262.342,-96.11
42170670,-0.166,-0.879,0.656,34.72,-163.24,-58.152
42170680,-0.41,-0.699,0.579,72.275,-121.782,-61.337
42170690,-0.154,-0.13,1.005,77.875,-110.425,-67.62
42170700,0.064,-0.292,0.962,13.002,-68.442,-55.79
42170710,0.056,-0.421,0.851,-36.54,-1.767,-46.497
42170720,-0.082,-0.515,0.713,-68.46,54.302,-20.387
42170730,-0.039,-0.669,0.577,-84.052,105.105,30.502
42170740,-0.194,-0.777,0.473,-75.022,160.842,95.9
42170750,-0.612,-0.752,0.454,-51.047,195.02,156.975
42170760,-0.953,-0.822,0.391,-27.982,207.55,186.9
42170770,-1.316,-1.062,0.181,5.145,197.225,175.105
42170780,-1.543,-1.022,0.189,69.282,156.082,137.34
42170790,-1.505,-0.837,0.258,134.89,85.82,101.097
42170800,-1.347,-0.688,0.223,182.997,5.6,78.75
42170810,-1.295,-0.546,0.142,214.602,-70.805,60.497
42170820,-1.273,-0.332,0.137,226.187,-140.647,36.207
42170830,-1.223,-0.185,0.135,212.292,-204.155,13.002
42170830,-1.07,-0.096,0.118,178.867,-252.122,-13.702
42170850,-0.833,-0.075,0.132,135.905,-279.632,-41.51
42170850,-0.57,-0.058,0.253,89.425,-278.285,-64.172
42170870,-0.411,-0.1,0.331,36.067,-257.145,-80.15
42170870,-0.266,-0.194,0.402,-11.27,-223.755,-87.832
42170890,-0.19,-0.327,0.445,-49.805,-186.182,-85.47
42170890,-0.209,-0.454,0.467,-79.152,-149.082,-77.245
42170910,-0.272,-0.615,0.447,-94.99,-117.845,-68.267
42170910,-0.304,-0.755,0.46,-90.842,-98.262,-60.532
42170920,-0.275,-0.817,0.486,-73.325,-81.602,-57.627
42170930,-0.307,-0.802,0.591,-50.96,-71.68,-56.787
42170940,-0.309,-0.711,0.702,-32.077,-78.347,-55.037
42170950,-0.14,-0.647,0.753,-24.097,-86.922,-51.397
42170960,-0.025,-0.623,0.767,-24.395,-89.687,-47.617
42170970,0.107,-0.617,0.767,-27.755,-86.607,-42.822
42170980,0.277,-0.714,0.752,-34.58,-68.022,-31.71
42170990,0.413,-0.659,0.809,-38.255,-36.592,-14.35
42171000,0.466,-0.768,0.875,-48.177,6.37,3.64
42171010,0.332,-0.82,0.898,-48.86,56.787,14.455
42171020,0.072,-0.89,0.854,-43.855,95.97,7.717
42171030,-0.152,-0.903,0.806,-32.55,106.837,-3.342
42171040,-0.316,-0.89,0.822,-20.527,96.11,-11.357
42171050,-0.373,-0.912,0.812,-15.802,68.652,-15.487
42171060,-0.223,-0.993,0.779,-13.44,46.882,-25.34
42171070,-0.153,-1.011,0.778,-7.402,37.012,-28.682
42171080,-0.162,-1.005,0.781,-0.612,35.665,-23.607
42171090,-0.079,-1.005,0.77,5.775,42.63,-17.64
42171100,0.027,-0.965,0.754,10.605,59.85,-8.855
42171110,-0.005,-0.927,0.735,11.83,84.577,8.75
42171120,-0.055,-0.883,0.744,8.802,113.575,27.475
42171130,-0.201,-0.862,0.679,-2.24,140.647,44.397
42171140,-0.363,-0.854,0.598,-14.227,157.867,58.1
42171150,-0.51,-0.83,0.54,-24.185,159.215,67.042
42171160,-0.618,-0.864,0.425,-28.367,148.225,69.72
42171170,-0.643,-0.837,0.326,-23.047,129.692,60.34
42171180,-0.626,-0.719,0.286,-14.717,109.27,46.217
42171190,-0.641,-0.593,0.259,-10.657,87.64,34.002
42171200,-0.618,-0.521,0.239,-12.25,66.57,26.127
42171210,-0.57,-0.486,0.226,-16.817,50.54,25.392
42171220,-0.53,-0.4,0.29,-23.345,42.157,29.627
42171230,-0.473,-0.315,0.345,-36.697,42.157,32.76
42171240,-0.479,-0.34,0.356,-51.24,51.747,33.32
42171250,-0.585,-0.425,0.374,-60.917,59.605,34.982
42171260,-0.722,-0.527,0.391,-61.53,58.87,27.825
42171260,-0.857,-0.692,0.479,-48.37,47.197,9.397
42171280,-0.828,-0.725,0.583,-14.49,22.207,-11.06
42171280,-0.727,-0.599,0.565,19.757,-5.355,-26.11
42171300,-0.574,-0.596,0.531,41.545,-20.352,-37.992
42171300,-0.464,-0.472,0.568,56.997,-16.94,-44.852
42171320,-0.394,-0.399,0.599,55.23,-3.237,-44.555
42171320,-0.475,-0.472,0.582,39.182,13.912,-31.762
42171330,-0.727,-0.558,0.587,20.755,18.2,-16.485
42171340,-0.842,-0.477,0.601,7.717,2.992,-14.367
42171350,-0.698,-0.429,0.615,-10.115,-20.93,-26.46
42171360,-0.492,-0.554,0.565,-29.417,-35.7,-35.21
42171370,-0.325,-0.673,0.494,-39.76,-34.895,-25.165
42171380,-0.218,-0.673,0.523,-38.57,-16.362,-6.212
42171390,-0.193,-0.715,0.508,-34.282,18.9,6.335
42171400,-0.382,-0.693,0.493,-27.702,53.357,10.36
42171410,-0.573,-0.68,0.471,-23.765,68.512,5.67
42171420,-0.579,-0.681,0.43,-21.227,68.967,-5.775
42171430,-0.524,-0.703,0.388,-18.847,64.662,-16.59
42171440,-0.525,-0.722,0.417,-15.802,61.057,-24.955
42171450,-0.555,-0.736,0.414,-10.045,57.085,-33.092
42171460,-0.583,-0.693,0.42,-4.077,48.807,-38.185
42171470,-0.6,-0.687,0.413,-5.075,40.005,-41.667
42171480,-0.583,-0.749,0.41,-6.02,33.197,-43.26
42171490,-0.579,-0.773,0.408,-3.255,26.915,-45.027
42171500,-0.515,-0.783,0.444,-1.4,19.985,-45.202
42171510,-0.401,-0.804,0.481,-1.172,23.45,-33.547
42171520,-0.585,-0.797,0.52,-4.672,28.297,-19.075
42171530,-0.635,-0.896,0.506,-8.855,29.837,-15.137
42171540,-0.743,-1.013,0.515,-5.722,24.815,-17.307
42171550,-0.795,-0.994,0.501,8.627,8.802,-19.53
42171560,-0.777,-0.922,0.496,22.575,-9.59,-25.812
42171570,-0.849,-0.864,0.504,31.517,-34.457,-25.602
42171580,-0.865,-0.86,0.445,36.33,-66.92,-22.12
42171580,-0.843,-0.856,0.404,44.327,-102.497,-16.065
42171600,-0.802,-0.819,0.41,51.835,-135.642,-12.355
42171600,-0.736,-0.778,0.393,55.3,-162.837,-9.887
42171620,-0.611,-0.733,0.407,55.282,-178.832,-4.69
42171620,-0.538,-0.734,0.407,51.66,-185.325,1.61
42171640,-0.542,-0.708,0.427,51.8,-189.122,7.91
42171640,-0.513,-0.713,0.447,51.712,-191.485,10.307
42171660,-0.516,-0.729,0.473,53.935,-195.177,9.957
42171660,-0.492,-0.683,0.551,57.435,-201.215,9.222
42171670,-0.45,-0.619,0.617,56.577,-210.857,11.27
42171680,-0.362,-0.595,0.651,57.155,-223.772,16.397
42171690,-0.212,-0.581,0.697,57.627,-233.17,29.75
42171700,-0.113,-0.573,0.7,54.81,-234.99,44.905
42171710,-0.073,-0.593,0.712,51.03,-228.602,51.765
42171720,-0.083,-0.636,0.697,43.102,-215.792,51.012
42171730,-0.097,-0.67,0.686,39.742,-204.015,37.135
42171740,-0.137,-0.662,0.651,39.375,-198.45,23.747
42171750,-0.158,-0.626,0.63,41.002,-202.23,14.472
42171760,-0.175,-0.631,0.633,44.38,-216.125,11.672
42171770,-0.15,-0.681,0.617,47.74,-234.78,20.685
42171780,-0.061,-0.721,0.58,57.907,-251.667,41.02
42171790,-0.004,-0.687,0.594,72.992,-263.655,61.967
42171800,0.039,-0.666,0.617,83.93,-269.325,80.115
42171810,0.054,-0.615,0.687,88.847,-268.782,90.86
42171820,-0.003,-0.557,0.708,79.8,-263.585,84.42
42171830,0.037,-0.517,0.716,62.86,-250.757,60.55
42171840,0.15,-0.481,0.727,45.64,-231.577,35.612
42171850,0.161,-0.529,0.656,33.46,-212.362,16.66
42171860,0.102,-0.496,0.618,35.437,-198.94,4.13
42171870,-0.027,-0.516,0.52,39.9,-203.227,8.05
42171880,0.397,-0.495,0.744,48.3,-215.827,11.41
42171890,0.839,-0.62,0.859,54.757,-162.557,26.897
42171900,0.514,-0.554,0.888,66.64,-94.08,51.992
42171910,0.219,-0.478,0.911,70.7,-55.51,56.63
42171920,0.317,-0.396,0.982,71.89,-32.812,44.31
42171930,0.264,-0.375,0.957,59.675,-23.1,33.687
42171940,0.203,-0.379,0.934,45.22,-21.542,18.357
42171950,0.194,-0.438,0.926,34.09,-25.287,-1.382
42171960,0.125,-0.498,0.884,27.667,-32.742,-15.312
42171970,0.117,-0.461,0.883,29.557,-36.172,-28.647
42171980,0.131,-0.459,0.863,27.107,-39.147,-39.655
42171990,0.197,-0.519,0.822,29.872,-38.587,-46.917
42172000,0.22,-0.507,0.812,39.655,-35.665,-46.585
42172010,0.249,-0.444,0.829,45.71,-36.312,-42.612
42172010,0.353,-0.422,0.851,43.96,-33.897,-35.385
42172030,0.428,-0.457,0.857,37.73,-27.387,-21.175
42172030,0.508,-0.508,0.85,33.582,-16.502,-3.78
42172050,0.452,-0.559,0.82,35.84,-2.152,10.027
42172050,0.374,-0.568,0.821,39.27,5.495,14.595
42172070,0.36,-0.583,0.825,43.75,13.212,11.935
42172070,0.512,-0.543,0.877,52.43,25.497,4.235
42172080,0.596,-0.419,0.964,53.515,47.25,4.165
42172090,0.533,-0.38,0.97,43.085,72.922,12.617
42172100,0.525,-0.389,1.012,33.547,100.957,15.995
42172110,0.326,-0.374,0.987,22.907,126.7,17.517
42172120,0.218,-0.456,0.91,16.012,139.002,11.795
42172130,0.152,-0.49,0.9,17.167,141.33,4.847
42172140,0.049,-0.397,0.884,21.262,137.76,-0.087
42172150,-0.028,-0.294,0.908,20.23,131.407,-9.012
42172160,-0.06,-0.244,0.895,10.727,119.14,-17.482
42172170,-0.077,-0.249,0.859,-2.275,103.845,-23.66
42172180,-0.038,-0.302,0.805,-12.705,90.597,-25.935
42172190,-0.007,-0.327,0.779,-19.197,81.2,-22.977
42172200,-0.041,-0.323,0.785,-22.12,73.762,-17.325
42172210,-0.079,-0.314,0.803,-22.82,63.822,-12.46
42172220,-0.127,-0.27,0.813,-24.395,48.405,-11.987
42172230,-0.079,-0.207,0.841,-28.577,30.327,-15.102
42172240,-0.015,-0.178,0.882,-39.917,12.267,-17.552
42172250,-0.001,-0.212,0.871,-54.81,-2.957,-20.09
42172260,0.092,-0.328,0.831,-64.155,-12.495,-23.222
42172270,0.246,-0.463,0.816,-62.247,-15.102,-21.14
42172280,0.302,-0.595,0.811,-46.305,-8.102,-10.15
42172290,0.321,-0.575,0.893,-18.69,7.857,-4.095
42172300,0.229,-0.501,0.962,5.005,30.397,-1.382
42172310,0.091,-0.443,0.993,21.105,45.675,-5.32
42172320,0.002,-0.409,0.99,30.345,51.59,-12.88
42172330,-0.071,-0.379,0.965,36.19,44.205,-19.11
42172330,-0.12,-0.391,0.939,39.217,28.35,-24.097
42172350,-0.14,-0.421,0.889,42.997,10.587,-24.325
42172350,-0.105,-0.458,0.859,49.052,-2.152,-21.105
42172370,-0.124,-0.471,0.824,56.542,-8.977,-13.597
42172370,-0.167,-0.435,0.803,65.87,-12.267,-7.42
42172390,-0.12,-0.358,0.823,71.855,-10.99,-5.407
42172390,-0.08,-0.31,0.853,68.32,-4.69,-5.495
42172410,-0.071,-0.32,0.871,57.295,5.915,-7.332
42172410,-0.129,-0.364,0.9,44.275,17.272,-12.18
42172420,-0.371,-0.518,0.859,37.782,16.625,-23.8
42172430,-0.549,-0.606,0.821,52.832,-4.095,-46.69
42172440,-0.421,-0.432,0.878,78.855,-36.015,-74.13
42172450,-0.125,-0.246,0.959,89.6,-63.315,-89.915
42172460,0.057,-0.239,0.976,82.005,-74.147,-85.942
42172470,0.125,-0.267,0.988,71.89,-68.127,-77.577
42172480,0.207,-0.272,0.982,62.055,-56.07,-70.14
42172490,0.22,-0.309,0.952,52.045,-48.51,-60.462
42172500,0.269,-0.31,1.019,45.185,-39.427,-51.397
42172510,0.246,-0.341,0.972,43.872,-31.01,-45.202
42172520,0.23,-0.24,0.964,48.405,-29.155,-44.642
42172530,0.234,-0.192,0.939,45.255,-32.357,-45.15
42172540,0.287,-0.18,0.918,38.78,-35.49,-47.425
42172550,0.405,-0.151,0.889,33.057,-34.58,-47.495
42172560,0.521,-0.071,0.91,26.372,-26.565,-43.47
42172570,0.452,-0.019,0.898,13.335,-14.157,-35.857
42172580,0.297,-0.111,0.88,-2.73,-1.365,-31.535
42172590,0.365,-0.214,0.893,-5.915,5.775,-32.69
42172600,0.371,-0.169,0.972,-1.505,17.15,-32.795
42172610,0.306,-0.153,1.021,0.612,29.295,-30.292
42172620,0.251,-0.171,1.054,2.782,36.68,-28.84
42172630,0.23,-0.169,1.083,6.037,38.237,-27.772
42172640,0.205,-0.159,1.11,9.555,38.762,-26.53
42172650,0.177,-0.145,1.116,13.545,36.75,-25.655
42172660,0.165,-0.138,1.107,17.237,31.972,-23.257
42172670,0.165,-0.147,1.063,21.35,26.722,-21.805
42172680,0.148,-0.134,1.018,26.197,23.73,-21.315
42172690,0.068,-0.078,0.989,28.367,18.917,-21
42172700,0.038,-0.073,0.953,25.987,11.357,-23.957
42172710,0.096,-0.15,0.881,22.942,5.967,-23.8
42172720,0.039,-0.109,0.897,23.607,5.53,-17.237
42172730,0.012,-0.145,0.889,20.825,6.335,-15.767
42172740,-0.052,-0.073,0.891,16.152,3.78,-19.267
42172750,0.126,0.016,0.852,-1.505,-2.047,-30.642
42172760,0.054,-0.352,0.817,-21.332,10.027,-19.792
42172760,0.133,-0.421,0.933,-6.335,18.742,-20.737
42172780,0.132,-0.239,1.03,12.967,34.72,-26.232
42172780,-0.037,-0.277,1.038,21.367,41.947,-25.077
42172800,-0.046,-0.171,1.082,33.32,36.137,-27.93
42172800,0.04,-0.051,1.136,34.055,27.702,-28.07
42172820,0.107,-0.104,1.102,27.125,28.682,-28.857
42172820,0.209,-0.043,1.064,23.905,34.282,-31.482
42172830,0.311,0.003,1.06,14.595,47.862,-30.905
42172840,0.118,-0.088,1.018,-2.275,68.127,-28.385
42172850,-0.027,-0.08,1.057,-14.385,81.287,-33.18
42172860,-0.019,-0.087,1.04,-19.512,78.47,-37.73
42172870,-0.077,-0.117,0.94,-19.495,57.995,-37.625
42172880,0.024,-0.199,0.866,-12.127,27.737,-34.352
42172890,0.17,-0.231,0.835,0.07,10.5,-20.807
42172900,-0.044,-0.056,0.833,13.72,0.577,-4.882
42172910,0.014,-0.123,0.92,9.817,-11.917,-7.017
42172920,0.011,-0.137,0.894,3.237,-18.165,-4.585
42172930,0.249,-0.147,0.969,1.977,-19.967,-3.5
42172940,0.171,-0.179,1.026,-2.467,0,2.45
42172950,0.05,-0.194,1.084,-6.457,20.772,4.55
42172960,0.055,-0.169,1.145,-8.4,36.225,2.94
42172970,0.064,-0.155,1.21,-12.337,49.385,1.925
42172980,0.059,-0.141,1.26,-13.86,59.657,-0.42
42172990,0.145,-0.093,1.288,-12.215,70.035,-3.902
42173000,0.115,-0.084,1.278,-14.98,85.365,-5.092
42173010,0.063,-0.072,1.262,-19.617,100.905,-7.875
42173020,0.025,-0.123,1.219,-25.532,116.952,-11.917
42173030,-0.079,-0.228,1.169,-25.62,129.36,-14.175
42173040,-0.074,-0.307,1.163,-13.562,134.172,-17.57
42173050,0.105,-0.296,1.155,9.485,147.35,-14.49
42173060,-0.568,0.007,1.044,26.232,143.395,-6.317
42173070,-0.452,-0.275,1.135,24.237,92.837,-10.482
42173080,-0.218,-0.09,1.097,40.25,62.807,-10.115
42173080,-0.288,-0.089,1.045,44.87,36.487,-11.48
42173100,-0.253,-0.062,0.958,52.167,8.137,-8.19
42173100,-0.153,-0.044,0.869,61.565,-22.12,-4.9
42173120,-0.179,-0.016,0.802,69.037,-47.932,-1.575
42173120,-0.144,-0.003,0.732,74.217,-71.802,-2.152
42173140,-0.075,0.033,0.693,78.487,-90.44,-5.6
42173140,-0.089,0.077,0.657,79.922,-108.097,-6.16
42173160,-0.068,0.085,0.625,79.52,-125.685,-4.497
42173160,-0.065,0.104,0.621,79.17,-143.08,-3.71
42173170,-0.092,0.119,0.645,78.942,-162.802,-3.78
42173180,-0.1,0.14,0.68,75.792,-184.222,-5.197
42173190,-0.012,0.181,0.708,66.447,-200.025,-9.082
42173200,0.059,0.215,0.755,49.647,-204.575,-11.777
42173210,0.146,0.24,0.803,25.322,-193.97,-12.582
42173220,0.278,0.254,0.871,-8.75,-164.325,-13.177
42173230,0.244,0.182,0.929,-51.835,-121.677,-14.157
42173240,0.059,0.05,0.931,-91.227,-80.097,-22.82
42173250,-0.026,0.009,0.97,-118.335,-48.947,-39.602
42173260,-0.047,-0.014,0.983,-141.505,-29.785,-51.66
42173270,-0.112,-0.048,1.013,-163.607,-19.197,-57.4
42173280,-0.156,-0.154,1.024,-181.037,-15.295,-55.65
42173290,-0.048,-0.299,0.971,-187.232,-15.837,-43.96
42173300,0.211,-0.469,0.971,-177.52,0.035,-24.78
42173310,0.227,-0.651,1.001,-151.812,31.99,5.425
42173320,0.102,-0.722,1.098,-106.872,65.397,34.597
42173330,-0.033,-0.659,1.113,-51.275,86.572,55.982
42173340,-0.168,-0.496,1.126,-0.752,86.117,68.932
42173350,-0.284,-0.303,1.171,29.05,68.792,74.69
42173360,-0.237,-0.21,1.189,39.252,47.565,77.962
42173370,-0.118,-0.203,1.176,43.575,31.08,84.542
42173380,-0.032,-0.122,1.179,51.625,24.342,96.67
42173390,0.057,-0.084,1.153,55.457,24.902,111.475
42173400,0.045,-0.1,1.129,51.625,25.34,123.427
42173410,0.005,-0.187,1.067,42.367,27.02,126.805
42173420,-0.044,-0.267,0.953,37.922,31.692,114.625
42173430,-0.071,-0.244,0.931,42.91,40.95,94.57
42173440,-0.098,-0.153,0.957,48.037,43.207,74.41
42173450,-0.072,-0.055,0.97,48.457,40.372,55.125
42173460,-0.022,0.054,1.011,43.032,38.5,40.477
42173470,-0.043,0.151,1.053,26.652,36.085,35.752
42173480,-0.072,0.18,1.089,-3.202,31.85,38.832
42173490,-0.06,0.155,1.059,-41.107,25.83,48.632
42173500,0.008,0.088,0.97,-79.887,20.65,60.917
42173510,0.069,-0.006,0.848,-116.882,26.022,73.115
42173510,0.035,-0.184,0.772,-146.632,44.38,81.462
42173520,-0.087,-0.365,0.739,-156.485,57.907,84.262
42173530,-0.195,-0.474,0.732,-148.732,58.24,86.45
42173540,-0.225,-0.485,0.73,-130.13,51.45,85.33
42173550,-0.231,-0.442,0.777,-109.917,44.852,79.765
42173560,-0.238,-0.392,0.827,-93.712,37.292,73.097
42173570,-0.232,-0.363,0.851,-82.862,28.227,69.265
42173580,-0.225,-0.38,0.845,-78.172,22.4,67.34
42173590,-0.261,-0.455,0.829,-75.687,20.317,63.612
42173600,-0.308,-0.544,0.837,-66.167,17.08,54.705
42173610,-0.312,-0.542,0.862,-50.575,10.517,44.747
42173620,-0.259,-0.491,0.905,-34.632,1.61,35.385
42173630,-0.201,-0.468,0.91,-25.707,-6.527,30.677
42173640,-0.148,-0.442,0.898,-19.215,-10.675,27.545
42173650,-0.131,-0.457,0.891,-14.752,-12.775,28.56
42173660,-0.139,-0.481,0.864,-11.497,-13.265,32.882
42173670,-0.116,-0.47,0.873,-6.912,-11.06,33.932
42173680,-0.126,-0.451,0.861,-4.987,-7.56,33.932
42173690,-0.165,-0.461,0.858,-3.097,-4.007,31.762
42173700,-0.172,-0.463,0.842,-1.995,-1.592,27.177
42173710,-0.149,-0.437,0.854,-0.332,-1.662,21.28
42173720,-0.142,-0.428,0.86,-1.82,-2.59,17.955
42173730,-0.157,-0.436,0.847,-5.932,-4.935,16.572
42173740,-0.164,-0.45,0.842,-9.817,-9.152,15.662
42173750,-0.145,-0.477,0.837,-12.39,-13.072,14.822
42173760,-0.12,-0.515,0.841,-13.212,-13.877,14.647
42173770,-0.143,-0.555,0.856,-10.622,-11.865,16.432
42173780,-0.135,-0.54,0.884,-2.957,-10.115,14.245
42173790,-0.107,-0.522,0.897,2.94,-5.005,10.272
42173800,-0.117,-0.52,0.912,5.722,1.54,8.662
42173810,-0.17,-0.501,0.925,6.632,6.79,7.455
42173820,-0.187,-0.479,0.947,7.857,8.47,4.13
42173830,-0.218,-0.529,0.939,5.6,7.105,1.47
42173830,-0.253,-0.554,0.935,6.807,2.957,-3.622
42173850,-0.234,-0.534,0.961,11.147,-2.467,-8.977
42173850,-0.196,-0.525,0.962,14.612,-7.245,-11.34
42173870,-0.172,-0.515,0.972,16.712,-9.275,-11.637
42173870,-0.141,-0.499,0.98,16.677,-8.05,-7.91
42173890,-0.108,-0.475,0.994,16.467,-2.957,-3.657
42173890,-0.019,-0.429,1.018,14.192,9.852,-0.647
42173910,-0.023,-0.443,1.001,7.945,33.215,1.96
42173910,-0.109,-0.446,0.97,3.867,54.6,5.6
42173920,-0.134,-0.444,0.949,5.197,69.842,8.575
42173930,-0.179,-0.447,0.9,5.775,80.185,12.285
42173940,-0.208,-0.448,0.89,7.752,87.342,15.067
42173950,-0.254,-0.432,0.873,8.767,91.035,15.925
42173960,-0.31,-0.414,0.86,6.387,91.927,15.155
42173970,-0.306,-0.401,0.85,4.83,91.577,13.632
42173980,-0.283,-0.357,0.84,3.517,93.957,12.915
42173990,-0.347,-0.325,0.833,-0.717,93.59,16.17
42174000,-0.422,-0.321,0.809,-5.67,88.34,20.247
42174010,-0.43,-0.315,0.786,-9.607,81.252,21.525
42174020,-0.387,-0.302,0.791,-12.705,78.172,21.332
42174030,-0.38,-0.313,0.749,-17.185,77.315,24.64
42174040,-0.391,-0.368,0.685,-20.23,79.765,28.77
42174050,-0.44,-0.375,0.646,-25.357,83.055,33.057
42174060,-0.494,-0.476,0.683,-28.77,82.845,32.567
42174070,-0.554,-0.521,0.686,-18.812,77.035,29.977
42174080,-0.524,-0.447,0.679,-5.215,65.87,25.27
42174090,-0.409,-0.293,0.772,5.757,65.992,24.78
42174100,-0.52,-0.298,0.827,-0.682,67.602,33.075
42174110,-0.478,-0.409,0.837,-8.4,52.832,19.915
42174120,-0.232,-0.47,0.828,-8.995,38.36,4.375
42174130,-0.131,-0.374,0.874,-7.735,37.887,3.832
42174140,-0.198,-0.371,0.86,-8.75,45.43,11.935
42174150,-0.291,-0.477,0.797,-5.95,54.127,18.392
42174160,-0.353,-0.512,0.747,3.727,56.297,18.077
42174170,-0.246,-0.491,0.737,16.992,64.277,17.395
42174180,-0.341,-0.405,0.683,25.69,78.767,20.685
42174190,-0.428,-0.416,0.68,31.57,97.632,21.437
42174200,-0.618,-0.406,0.69,41.387,116.392,26.862
42174210,-0.725,-0.291,0.73,54.95,122.587,23.52
42174210,-0.637,-0.256,0.743,58.24,130.9,14.682
42174230,-0.745,-0.253,0.75,49.665,135.03,12.127
42174230,-0.843,-0.15,0.724,38.85,128.905,15.942
42174250,-0.728,-0.101,0.71,25.69,121.922,16.187
42174250,-0.687,-0.159,0.631,6.282,119.717,16.17
42174260,-0.673,-0.157,0.6,-9.345,122.99,17.255
42174270,-0.603,-0.175,0.569,-20.65,134.61,18.83
42174280,-0.594,-0.289,0.522,-24.202,153.527,23.52
42174290,-0.773,-0.335,0.503,-14.945,165.567,33.88
42174300,-0.972,-0.313,0.537,-1.155,161.105,39.76
42174310,-1.076,-0.287,0.585,11.375,140.577,36.137
42174320,-1.011,-0.283,0.611,20.912,112.665,25.567
42174330,-0.877,-0.267,0.61,26.407,91.455,14.787
42174340,-0.858,-0.239,0.632,27.632,78.347,7.927
42174350,-0.856,-0.202,0.644,24.745,68.197,2.38
42174360,-0.83,-0.196,0.621,16.292,58.555,-4.41
42174370,-0.885,-0.123,0.443,2.765,46.725,-9.747
42174380,-0.704,-0.178,0.488,-8.732,37.537,-13.65
42174390,-0.717,-0.42,0.414,-12.652,39.987,-13.895
42174400,-0.899,-0.426,0.42,-0.332,40.057,-17.062
42174410,-0.927,-0.384,0.481,17.482,36.505,-19.6
42174420,-1.034,-0.374,0.496,30.502,31.185,-22.89
42174430,-1.172,-0.398,0.537,43.102,17.43,-24.482
42174440,-1.153,-0.41,0.538,60.812,-4.585,-27.755
42174450,-1.004,-0.323,0.551,78.207,-24.517,-30.642
42174460,-0.884,-0.153,0.634,81.235,-35.175,-25.147
42174470,-0.737,-0.047,0.641,65.362,-30.922,-12.442
42174480,-0.618,-0.052,0.593,38.972,-6.3,0.542
42174490,-0.682,-0.096,0.552,10.675,30.8,9.905
42174500,-0.799,-0.18,0.496,-12.215,61.915,12.547
42174510,-0.909,-0.283,0.411,-22.172,78.085,9.485
42174520,-1.144,-0.327,0.36,-20.475,68.565,6.895
42174530,-1.036,-0.274,0.395,-9.8,46.62,-1.312
42174540,-0.872,-0.2,0.369,-6.107,35.927,-17.342
42174550,-0.809,-0.229,0.302,-10.745,38.22,-28.437
42174560,-0.778,-0.263,0.281,-14.507,50.19,-41.632
42174570,-0.738,-0.221,0.278,-16.747,64.697,-54.372
42174580,-0.802,-0.201,0.303,-21.787,79.012,-63.577
42174580,-0.847,-0.288,0.297,-25.34,83.877,-70.595
42174600,-0.794,-0.376,0.321,-19.075,85.697,-80.85
42174600,-0.834,-0.372,0.378,-8.662,88.97,-86.695
42174620,-0.944,-0.324,0.465,-4.252,87.955,-85.627
42174620,-1.009,-0.281,0.55,-9.852,75.652,-77.35
42174640,-1.07,-0.38,0.546,-20.877,52.447,-55.247
42174640,-1.033,-0.513,0.483,-20.72,25.182,-29.68
42174660,-1.049,-0.509,0.482,-7.752,-0.63,-6.09
42174660,-0.982,-0.512,0.443,10.71,-23.345,10.92
42174670,-0.889,-0.534,0.387,36.855,-40.04,28.07
42174680,-0.958,-0.437,0.411,64.4,-52.762,48.265
42174690,-0.983,-0.294,0.408,76.335,-66.605,58.905
42174700,-1.172,-0.297,0.269,76.072,-86.117,59.657
42174710,-1.143,-0.164,0.128,73.815,-139.23,56.017
42174720,-0.285,-0.071,0.205,59.377,-152.232,63.612
42174730,-0.359,-0.354,0.142,44.467,-105.717,91.63
42174740,-0.937,-0.269,0.262,51.047,-77.07,113.61
42174750,-0.965,-0.264,0.354,47.565,-73.99,106.54
42174760,-1.128,-0.495,0.287,49.052,-79.047,89.932
42174770,-1.124,-0.385,0.409,73.36,-100.292,74.165
42174780,-0.864,-0.243,0.461,87.237,-114.222,62.247
42174790,-0.681,-0.204,0.498,95.375,-109.305,60.427
42174800,-0.605,-0.163,0.563,99.767,-87.5,66.937
42174810,-0.437,-0.175,0.581,104.597,-54.197,68.897
42174820,-0.829,-0.125,0.627,110.512,-23.642,79.905
42174830,-1.098,-0.195,0.573,115.797,-19.127,72.415
42174840,-1.137,-0.188,0.548,124.25,-42.507,42.752
42174850,-1.111,0.063,0.652,131.477,-85.365,19.372
42174860,-0.865,0.141,0.676,122.972,-120.995,10.675
42174870,-0.834,0.041,0.649,102.165,-154.507,32.042
42174880,-0.782,-0.046,0.674,88.847,-187.005,63.07
42174890,-0.649,-0.109,0.68,83.86,-206.325,71.977
42174900,-0.437,-0.011,0.73,85.05,-209.895,65.782
42174910,-0.22,0.124,0.783,79.8,-191.292,61.967
42174920,0.112,0.261,0.851,63.98,-135.345,50.172
42174920,0.216,0.342,0.908,35.122,-43.89,31.342
42174940,0.008,0.327,0.915,1.102,58.747,8.102
42174940,-0.33,0.318,0.926,-31.92,135.905,-15.12
42174960,-0.689,0.227,0.934,-61.95,169.365,-25.2
42174960,-1.087,0.135,0.73,-87.797,155.995,-24.605
42174980,-1.019,-0.136,0.645,-94.342,114.52,-27.632
42174980,-0.787,-0.187,0.602,-76.51,72.782,-13.58
42175000,-0.747,-0.022,0.596,-64.75,61.11,4.077
42175000,-0.846,0.066,0.602,-67.235,75.285,8.452
42175010,-0.969,0.066,0.648,-73.22,81.917,1.522
42175020,-1.029,0.11,0.6,-84.63,71.75,-14.945
42175030,-1.023,0.124,0.553,-104.895,52.78,-29.505
42175040,-0.989,0.155,0.573,-131.022,39.077,-45.657
42175050,-0.821,-0.004,0.577,-152.88,44.887,-69.51
42175060,-0.799,-0.268,0.454,-153.02,48.667,-74.462
42175070,-0.875,-0.538,0.371,-119.437,38.342,-55.335
42175080,-0.955,-0.589,0.454,-54.565,10.325,-15.925
42175090,-1.018,-0.402,0.569,10.15,-29.557,18.48
42175100,-1.104,-0.164,0.684,52.657,-72.257,31.185
42175110,-1.104,0.026,0.675,69.317,-120.347,24.797
42175120,-0.871,-0.004,0.942,41.09,-160.317,23.73
42175130,-0.678,-0.351,0.711,11.007,-149.135,27.457
42175140,-0.54,-0.435,0.749,31.587,-128.117,18.567
42175150,-0.818,-0.369,0.703,55.982,-117.862,27.51
42175160,-1.086,-0.36,0.624,83.317,-141.33,40.932
42175170,-0.998,-0.241,0.558,111.3,-187.652,47.827
42175180,-0.688,-0.059,0.529,125.352,-213.85,49.805
42175190,-0.345,0.059,0.575,117.617,-193.602,45.01
42175200,-0.044,0.095,0.573,95.13,-117.53,16.38
42175210,-0.161,0.096,0.581,67.672,-22.172,-9.397
42175220,-0.483,0.006,0.582,46.917,47.337,-19.442
42175230,-0.785,-0.136,0.608,41.317,72.117,-17.85
42175240,-0.849,-0.149,0.748,51.275,61.53,-15.015
42175250,-0.803,-0.115,0.888,61.792,35.437,-8.96
42175260,-0.777,-0.079,0.951,66.867,9.397,-7.315
42175270,-0.739,-0.008,0.983,72.537,-14.56,-4.497
42175280,-0.818,0.068,0.955,76.037,-44.765,4.97
42175290,-0.742,0.094,0.905,75.722,-79.38,15.417
42175300,-0.551,0.126,0.874,72.625,-102.725,24.797
42175310,-0.535,0.011,0.746,66.78,-108.325,28.612
42175320,-0.355,0.223,0.828,63.472,-99.12,25.76
42175330,-0.291,0.182,0.79,40.967,-74.672,24.307
42175330,-0.469,0.13,0.789,22.487,-40.967,2.73
42175350,-0.56,0.044,0.76,11.917,-26.11,-9.065
42175350,-0.523,0.024,0.783,13.002,-28.035,-6.965
42175370,-0.734,-0.027,0.783,22.33,-47.687,11.445
42175370,-0.86,-0.074,0.79,34.195,-86.992,32.865
42175390,-0.699,0.033,0.854,48.422,-130.602,50.242
42175390,-0.599,0.062,0.848,51.275,-158.322,62.195
42175410,-0.374,0.128,0.874,48.58,-160.895,60.165
42175410,-0.074,0.31,0.9,36.417,-122.342,40.88
42175420,0.307,-0.415,0.871,25.305,-49.087,52.99
42175430,-1.976,-0.996,1.07,73.01,-90.09,161.595
42175440,0.861,1.713,1.105,159.092,-281.627,-1.452
42175450,1.336,0.59,1.125,60.077,-164.762,11.567
42175460,-0.543,-0.323,0.613,-14.105,-47.985,49.087
42175470,-0.094,0.306,0.981,38.517,-13.142,-17.622
42175480,0.085,0.338,0.984,35.98,-22.33,-14.227
42175490,-0.2,0.255,0.923,20.09,-19.67,4.812
42175500,-0.137,0.347,0.966,13.755,-15.732,-6.37
42175510,-0.126,0.349,0.965,-4.305,-15.522,-15.715
42175520,-0.092,0.254,0.922,-24.15,-12.792,-19.407
42175530,-0.094,0.324,0.974,-38.08,-11.007,-14.665
42175540,-0.172,0.477,1.05,-61.267,-12.705,-4.97
42175550,-0.176,0.479,1.046,-99.26,-15.942,-0.315
42175560,-0.154,0.282,0.959,-138.442,-16.625,-3.605
42175570,-0.205,-0.145,0.735,-160.912,-9.555,-10.92
42175580,-0.458,-0.42,0.617,-141.032,-18.567,-21.577
42175590,-0.482,-0.43,0.705,-93.625,-45.622,-31.412
42175600,-0.538,-0.147,0.8,-53.007,-79.1,-49.35
42175610,-0.377,0.032,0.812,-31.22,-116.567,-64.155
42175620,-0.386,0.088,0.809,-26.617,-149.555,-76.615
42175630,-0.381,0.159,0.779,-34.527,-180.145,-92.977
42175640,-0.228,0.307,0.756,-49.332,-205.59,-117.32
42175650,0.034,0.388,0.714,-75.565,-213.937,-137.48
42175660,0.268,0.375,0.656,-111.615,-194.53,-151.83
42175670,0.439,0.306,0.615,-148.907,-142.362,-166.425
42175670,0.435,0.184,0.551,-180.495,-71.435,-177.397
42175690,0.332,0.008,0.51,-198.38,-1.172,-180.705
42175690,0.165,-0.163,0.51,-196.367,56.455,-172.515
42175710,-0.093,-0.25,0.574,-175.28,90.912,-151.34
42175710,-0.384,-0.272,0.684,-144.62,98.35,-124.687
42175730,-0.511,-0.289,0.807,-114.292,85.33,-99.26
42175730,-0.535,-0.274,0.899,-88.917,66.325,-77.945
42175750,-0.575,-0.229,1.009,-74.76,44.397,-62.317
42175750,-0.642,-0.171,1.094,-81.76,13.72,-58.205
42175760,-0.564,-0.164,1.17,-104.842,-3.255,-61.705
42175770,-0.51,-0.266,1.161,-135.835,-9.537,-68.792
42175780,-0.575,-0.447,1.124,-160.475,-16.012,-76.475
42175790,-0.602,-0.643,1.087,-168.017,-24.972,-82.932
42175800,-0.521,-0.845,1.069,-147.367,-39.462,-74.602
42175810,-0.427,-0.939,1.086,-101.167,-48.562,-48.195
42175820,-0.403,-0.996,1.155,-48.125,-47.267,-14.332
42175830,-0.319,-0.964,1.142,12.705,-43.26,22.015
42175840,-0.242,-0.885,1.205,72.625,-29.575,54.005
42175850,-0.265,-0.762,1.264,128.327,-14.21,82.722
42175860,-0.31,-0.569,1.225,173.127,-3.657,101.867
42175870,-0.338,-0.392,1.204,201.005,3.605,106.732
42175880,-0.338,-0.247,1.187,213.675,10.045,99.697
42175890,-0.276,-0.133,1.068,213.955,17.85,83.685
42175900,-0.329,-0.08,0.994,204.487,25.602,67.095
42175910,-0.603,-0.029,0.935,193.532,10.99,46.27
42175920,-0.66,0.105,0.97,186.147,-26.127,20.72
42175930,-0.539,0.247,1.07,170.52,-77.052,0.805
42175940,-0.419,0.197,0.99,140.315,-128.38,-14.297
42175950,-0.16,0.165,0.786,112.98,-160.457,-28.962
42175960,0.174,0.322,0.738,89.11,-161.122,-37.537
42175970,0.449,0.491,0.824,52.395,-125.755,-40.215
42175980,0.452,0.566,0.892,10.185,-80.605,-28.525
42175990,0.371,0.547,0.937,-40.442,-34.282,-17.307
42176000,0.258,0.514,0.95,-96.075,6.265,-17.325
42176010,0.149,0.431,0.842,-153.51,37.117,-32.532
42176020,0.132,0.361,0.803,-200.55,58.205,-60.532
42176030,0.121,0.269,0.751,-243.95,71.295,-84.035
42176040,0.191,0.113,0.673,-276.675,78.925,-100.047
42176050,0.291,-0.047,0.604,-291.952,87.43,-103.617
42176060,0.262,-0.222,0.601,-285.372,99.942,-87.972
42176070,0.246,-0.334,0.684,-260.26,115.395,-61.512
42176080,0.21,-0.451,0.732,-231.77,135.135,-30.17
42176080,0.008,-0.546,0.749,-201.022,152.792,-5.11
42176100,-0.275,-0.627,0.813,-171.01,152.232,6.615
42176100,-0.458,-0.79,0.916,-139.755,127.312,1.925
42176120,-0.416,-0.806,1.058,-98.297,83.65,-19.705
42176120,-0.547,-0.541,1.128,-65.992,23.117,-32.812
42176140,-0.276,-0.312,1.038,-62.772,-30.415,-38.185
42176140,0.046,-0.324,0.845,-91.35,-51.992,-34.947
42176160,0.612,-0.528,0.775,-123.025,-20.195,-25.392
42176160,0.712,-0.846,0.839,-143.29,63.997,-9.992
42176170,0.002,-0.884,0.847,-140.577,147.315,-2.397
42176180,-0.676,-0.756,0.926,-124.477,154.367,-5.285
42176190,-0.759,-0.847,0.841,-117.985,96.88,-16.94
42176200,-0.358,-0.857,0.711,-105.28,37.467,-30.38
42176210,-0.058,-0.75,0.666,-89.827,18.322,-26.32
42176220,-0.119,-0.761,0.588,-84.192,37.1,-8.715
42176230,-0.375,-0.699,0.567,-76.23,53.287,2.03
42176240,-0.366,-0.686,0.556,-70.595,49.805,5.6
42176250,-0.35,-0.74,0.556,-63.017,41.387,10.307
42176260,-0.327,-0.725,0.541,-49.157,34.16,8.19
42176270,-0.298,-0.719,0.609,-33.827,31.465,11.9
42176280,-0.389,-0.764,0.652,-19.757,26.95,23.817
42176290,-0.377,-0.795,0.692,-5.687,16.852,25.007
42176300,-0.255,-0.704,0.742,7.91,8.627,21.21
42176310,-0.129,-0.675,0.737,11.077,11.707,22.05
42176320,-0.128,-0.725,0.768,8.925,22.61,25.182
42176330,-0.058,-0.733,0.823,9.835,36.645,25.987
42176340,0.12,-1.048,0.992,12.582,47.355,22.942
42176350,-0.229,-0.345,1.09,26.862,67.882,32.095
42176360,-0.005,-0.788,0.718,-8.12,55.947,37.292
42176370,0.215,-0.67,0.639,-14.437,82.372,33.915
42176380,0.734,-0.531,0.765,-25.655,150.71,48.947
42176390,-0.753,-0.816,0.631,-59.482,232.47,80.85
42176400,-0.867,-1.057,0.511,-55.895,215.845,71.435
42176410,-0.935,-1.092,0.528,-18.34,162.032,55.177
42176420,-0.805,-1.067,0.514,29.225,102.935,43.855
42176420,-0.583,-0.888,0.56,77.035,61.845,31.78
42176440,-0.629,-0.716,0.661,107.012,39.935,25.69
42176440,-0.757,-0.652,0.729,117.582,13.825,18.987
42176460,-0.721,-0.603,0.739,120.365,-21.21,10.745
42176460,-0.675,-0.566,0.736,119.402,-54.635,4.077
42176480,-0.625,-0.495,0.73,116.427,-79.887,-6.65
42176480,-0.627,-0.456,0.72,108.36,-100.625,-19.057
42176500,-0.641,-0.432,0.71,98.157,-120.767,-33.407
42176500,-0.627,-0.388,0.707,86.275,-141.435,-52.605
42176510,-0.595,-0.342,0.717,70.945,-161.77,-74.497
42176520,-0.542,-0.299,0.72,52.115,-182.472,-95.515
42176530,-0.46,-0.277,0.714,31.867,-200.672,-113.925
42176540,-0.394,-0.271,0.705,11.952,-214.69,-130.357
42176550,-0.324,-0.282,0.668,-7.245,-223.895,-146.982
42176560,-0.251,-0.287,0.632,-23.222,-227.745,-164.22
42176570,-0.172,-0.258,0.6,-34.58,-225.942,-177.835
42176580,-0.112,-0.264,0.575,-44.24,-219.59,-182.42
42176590,-0.054,-0.295,0.545,-51.625,-209.545,-177.537
42176600,0.005,-0.366,0.512,-54.617,-194.565,-163.257
42176610,0.024,-0.472,0.502,-52.132,-174.457,-144.9
42176620,0.133,-0.449,0.526,-45.64,-151.585,-125.825
42176630,0.19,-0.579,0.5,-49.577,-116.795,-101.885
42176640,0.064,-0.67,0.586,-47.897,-82.285,-82.477
42176650,-0.095,-0.819,0.618,-42.735,-63.945,-60.287
42176660,-0.14,-1.051,0.641,-31.062,-62.807,-43.067
42176670,-0.356,-1.078,0.703,-1.417,-73.29,-26.53
42176680,-0.333,-1.118,0.748,30.905,-100.87,-23.835
42176690,-0.103,-1.154,0.815,68.897,-120.82,-18.847
42176700,0.075,-1.154,0.823,111.125,-126.472,4.06
42176710,0.229,-1.02,0.871,153.23,-118.947,36.26
42176720,0.367,-0.792,0.924,180.39,-99.627,78.4
42176730,0.438,-0.614,0.963,187.565,-69.037,129.5
42176740,0.442,-0.533,0.958,180.302,-40.775,182.087
42176750,0.519,-0.49,0.925,164.36,-0.945,222.425
42176760,0.432,-0.595,0.849,148.452,44.397,234.92
42176770,0.298,-0.543,0.814,145.18,94.202,227.01
42176780,-0.153,-0.354,0.882,141.505,107.31,222.915
42176790,-0.512,-0.233,1.002,130.882,75.827,207.147
42176800,-0.508,-0.177,1.067,109.042,19.652,175.14
42176810,-0.435,-0.243,0.944,80.01,-49.525,155.102
42176820,-0.34,-0.174,0.832,48.947,-116.76,143.675
42176830,-0.135,-0.169,0.766,15.295,-164.885,134.067
42176830,0.026,-0.248,0.687,-6.79,-188.825,131.022
42176850,0.169,-0.344,0.603,-12.057,-187.215,125.282
42176850,0.262,-0.365,0.578,-8.365,-163.117,110.215
42176870,0.227,-0.236,0.68,0.35,-140.402,95.76
42176870,0.164,-0.139,0.764,-4.585,-123.042,79.1
42176890,0.197,-0.077,0.782,-23.747,-109.41,59.325
42176890,0.264,-0.119,0.757,-51.135,-98.332,45.412
42176910,0.279,-0.221,0.689,-74.095,-89.53,38.307
42176910,0.258,-0.365,0.637,-84.892,-85.995,39.235
42176920,0.269,-0.445,0.627,-81.637,-84.7,39.41
42176930,0.296,-0.531,0.676,-69.667,-85.032,38.92
42176940,0.369,-0.689,0.769,-50.54,-85.767,36.855
42176950,0.449,-0.719,0.947,-20.72,-82.442,30.187
42176960,0.592,-0.809,1.122,4.322,-75.705,26.757
42176970,0.895,-1.014,1.289,28.542,-51.03,40.005
42176980,0.703,-0.933,1.366,47.915,-12.74,56.717
42176990,0.246,-0.904,1.245,51.695,-4.007,51.345
42177000,0.113,-0.832,1.016,61.862,-24.36,26.337
42177010,0.178,-0.643,0.903,73.832,-57.067,2.87
42177020,0.377,-0.633,0.825,77.822,-80.955,-11.55
42177030,0.776,-0.561,0.848,103.67,-49.56,-29.19
42177040,0.686,-0.416,0.896,109.235,-6.44,-29.592
42177050,0.569,-0.455,0.846,97.44,28.542,-16.152
42177060,0.567,-0.406,0.836,87.815,65.555,-7.332
42177070,0.556,-0.292,0.843,79.905,108.412,-0.175
42177080,0.479,-0.262,0.83,67.392,155.557,4.62
42177090,0.345,-0.257,0.789,53.742,199.727,7.157
42177100,0.226,-0.241,0.766,41.072,234.43,8.347
42177110,0.154,-0.234,0.712,32.235,260.907,11.13
42177120,0.067,-0.198,0.638,27.877,284.795,15.207
42177130,0.043,-0.151,0.628,24.99,309.102,17.29
42177140,-0.014,-0.189,0.604,20.685,330.295,25.725
42177150,-0.189,-0.197,0.571,16.572,343.017,42.507
42177160,-0.28,-0.175,0.602,11.83,349.475,50.767
42177170,-0.41,-0.159,0.621,2.345,349.335,53.602
42177170,-0.633,-0.23,0.626,-6.527,335.09,52.482
42177190,-0.761,-0.318,0.644,-7.455,305.165,41.825
42177190,-0.796,-0.34,0.701,0.07,263.987,31.43
42177210,-0.746,-0.35,0.729,11.392,219.012,24.692
42177210,-0.677,-0.344,0.749,23.047,178.29,22.662
42177230,-0.54,-0.295,0.774,31.482,149.765,23.047
42177230,-0.43,-0.286,0.779,30.257,139.002,25.55
42177250,-0.469,-0.275,0.739,24.832,138.407,29.697
42177250,-0.479,-0.242,0.727,19.547,141.732,29.47
42177260,-0.532,-0.29,0.689,14.49,144.445,26.022
42177270,-0.666,-0.417,0.668,17.465,136.867,22.557
42177280,-0.798,-0.457,0.646,30.065,118.02,15.137
42177290,-0.797,-0.417,0.663,46.147,92.872,2.012
42177300,-0.723,-0.409,0.646,59.447,67.182,-8.33
42177310,-0.678,-0.35,0.631,68.005,47.005,-12.302
42177320,-0.719,-0.281,0.667,68.985,31.5,-13.055
42177330,-0.779,-0.242,0.674,64.12,17.692,-20.02
42177340,-0.748,-0.218,0.693,55.685,2.1,-33.827
42177350,-0.777,-0.276,0.673,44.59,-14.192,-49.595
42177360,-0.729,-0.32,0.613,40.687,-30.52,-65.537
42177370,-0.502,-0.277,0.621,42.577,-39.497,-71.61
42177380,-0.555,-0.336,0.635,39.34,-35.7,-67.865
42177390,-0.506,-0.318,0.643,43.102,-22.767,-72.24
42177400,-0.455,-0.15,0.776,45.097,-11.077,-71.417
42177410,-0.488,-0.108,0.819,31.99,0.052,-63.35
42177420,-0.377,-0.263,0.784,16.117,17.727,-54.81
42177430,-0.314,-0.437,0.823,13.16,46.392,-33.88
42177440,-0.567,-0.382,0.925,22.102,80.745,-7.507
42177450,-0.869,-0.336,0.955,30.222,96.337,4.672
42177460,-0.92,-0.312,0.932,37.502,81.165,6.545
42177470,-0.697,-0.291,0.875,42.542,63.665,7.682
42177480,-0.65,-0.343,0.808,44.905,59.727,11.97
42177490,-0.724,-0.416,0.721,53.445,59.955,16.572
42177500,-0.678,-0.424,0.699,69.597,63.297,12.95
42177510,-0.796,-0.436,0.761,88.97,61.635,11.83
42177520,-0.899,-0.356,0.799,110.25,48.195,5.425
42177530,-0.855,-0.2,0.803,125.982,27.422,-3.325
42177540,-0.615,-0.07,0.72,125.457,13.895,-4.585
42177550,-0.379,-0.013,0.659,108.605,25.952,-9.152
42177560,-0.49,-0.031,0.628,85.347,52.797,-8.767
42177570,-0.632,-0.096,0.593,67.235,73.797,-9.852
42177580,-0.71,-0.157,0.551,57.89,82.407,-13.877
42177580,-0.773,-0.126,0.548,56.245,83.58,-18.41
42177600,-0.827,-0.091,0.572,53.882,78.19,-24.08
42177600,-0.798,-0.029,0.581,49.087,69.352,-30.345
42177610,-0.752,0.031,0.592,39.34,61.145,-29.365
42177620,-0.727,0.005,0.561,23.765,58.397,-23.8
42177630,-0.759,-0.037,0.551,9.467,59.745,-18.83
42177640,-0.86,-0.07,0.547,-3.447,57.925,-16.765
42177650,-0.867,-0.127,0.547,-11.147,49.857,-18.812
42177660,-0.88,-0.158,0.564,-11.497,38.885,-22.785
42177670,-0.911,-0.176,0.582,-7.945,24.937,-25.882
42177680,-0.945,-0.213,0.605,-2.537,7.367,-29.26
42177690,-0.969,-0.191,0.647,5.897,-14.875,-31.167
42177700,-0.979,-0.185,0.706,13.457,-42.665,-28.857
42177710,-0.79,-0.226,0.749,19.862,-67.655,-20.492
42177720,-0.918,-0.108,0.771,28.437,-75.197,-4.865
42177730,-1.095,-0.16,0.762,32.742,-102.55,-2.45
42177740,-0.64,-0.336,0.76,41.895,-133.56,6.475
42177750,-0.738,-0.21,0.779,63.087,-137.497,22.925
42177760,-0.84,-0.076,0.817,74.917,-138.6,25.392
42177770,-0.72,-0.003,0.793,74.165,-145.862,25.182
42177780,-0.583,0.026,0.77,64.05,-145.005,20.107
42177790,-0.503,0.041,0.792,51.1,-131.407,13.912
42177800,-0.5,0.028,0.808,35.84,-111.492,4.742
42177810,-0.55,0.002,0.812,22.732,-93.38,-7.28
42177820,-0.572,0.051,0.831,12.687,-82.6,-18.935
42177830,-0.554,0.049,0.824,0.017,-76.037,-27.527
42177840,-0.581,-0.003,0.823,-11.497,-74.795,-29.925
42177850,-0.594,-0.001,0.803,-20.65,-81.2,-31.237
42177860,-0.59,-0.193,0.768,-25.515,-87.395,-32.235
42177870,-0.47,-0.161,0.853,-17.885,-94.587,-25.882
42177880,-0.254,-0.254,0.861,-6.055,-82.32,-18.427
42177890,-0.351,-0.162,0.911,11.655,-55.737,-6.597
42177900,-0.52,-0.07,0.946,19.442,-39.34,0.315
42177910,-0.51,-0.092,0.956,18.2,-31.447,6.807
42177920,-0.507,-0.051,0.964,15.54,-26.18,8.487
42177920,-0.57,-0.051,0.943,9.87,-22.417,7.875
42177940,-0.538,-0.058,0.92,4.095,-20.475,3.92
42177940,-0.529,-0.081,0.917,-0.962,-18.13,-2.31
42177960,-0.502,-0.099,0.911,-2.887,-13.86,-7.07
42177960,-0.508,-0.103,0.9,-1.977,-9.485,-9.607
42177980,-0.523,-0.096,0.877,-0.892,-6.125,-11.392
42177980,-0.524,-0.093,0.863,-1.452,-4.445,-12.95
42178000,-0.526,-0.055,0.857,-3.115,-4.427,-15.487
42178000,-0.486,-0.023,0.857,-7.14,-5.232,-17.027
42178010,-0.431,-0.093,0.825,-12.372,-2.975,-15.575
42178020,-0.389,-0.146,0.786,-12.005,4.69,-13.09
42178030,-0.421,-0.145,0.785,-6.667,14.805,-9.747
42178040,-0.5,-0.149,0.802,-0.542,22.33,-6.177
42178050,-0.591,-0.129,0.825,5.337,20.965,-5.32
42178060,-0.614,-0.092,0.842,9.17,11.795,-6.475
42178070,-0.614,-0.084,0.849,9.94,-0.455,-6.737
42178080,-0.592,-0.08,0.844,9.205,-12.845,-6.265
42178090,-0.529,-0.092,0.826,6.947,-21.717,-5.687
42178100,-0.446,-0.125,0.811,4.532,-22.872,-5.075
42178110,-0.412,-0.15,0.808,3.325,-15.802,-2.537
42178120,-0.475,-0.163,0.811,2.642,-7.455,0.577
42178130,-0.516,-0.158,0.813,2.187,-2.852,1.032
42178140,-0.512,-0.144,0.824,0.805,-1.662,-0.262
42178150,-0.518,-0.138,0.838,-1.242,-2.66,-0.735
42178160,-0.543,-0.15,0.845,-2.467,-5.39,-0.315
42178170,-0.537,-0.153,0.851,-1.382,-8.68,-0.42
42178180,-0.509,-0.144,0.859,0.525,-9.94,-0.367
42178190,-0.484,-0.132,0.878,2.45,-8.207,1.19
42178200,-0.525,-0.124,0.896,4.042,-5.005,4.042
42178210,-0.568,-0.125,0.906,5.46,-4.97,5.67
42178220,-0.535,-0.116,0.899,7.245,-8.785,5.145
42178230,-0.496,-0.102,0.89,8.47,-11.742,4.97
42178240,-0.479,-0.094,0.883,8.277,-11.672,5.232
42178250,-0.491,-0.099,0.883,6.86,-10.71,4.917
42178260,-0.482,-0.111,0.881,5.722,-9.992,3.85
42178270,-0.454,-0.112,0.887,5.18,-7.735,2.66
42178280,-0.453,-0.11,0.9,4.742,-2.87,2.205
42178290,-0.467,-0.103,0.92,4.287,1.942,1.557
42178300,-0.471,-0.099,0.941,3.552,6.142,1.172
42178300,-0.473,-0.106,0.954,3.465,10.92,1.732
42178320,-0.488,-0.102,0.963,4.532,16.345,1.557
42178320,-0.491,-0.104,0.966,5.687,22.487,1.242
42178330,-0.504,-0.088,0.964,8.277,27.772,0.525
42178340,-0.528,-0.053,0.958,10.132,31.447,-0.07
42178350,-0.542,-0.056,0.944,9.712,32.847,0.332
42178360,-0.537,-0.055,0.925,10.955,33.372,0.77
42178370,-0.514,-0.042,0.896,12.267,35.35,1.837
42178380,-0.48,-0.021,0.878,12.6,41.3,4.095
42178390,-0.48,-0.013,0.867,11.042,50.977,7.157
42178400,-0.524,-0.047,0.849,8.715,59.692,10.272
42178410,-0.554,-0.061,0.831,8.487,65.485,10.325
42178420,-0.598,-0.045,0.825,10.097,68.232,8.54
42178430,-0.627,-0.045,0.816,11.69,67.165,5.057
42178440,-0.632,-0.063,0.8,12.267,63.7,0.857
42178450,-0.61,-0.084,0.76,13.387,59.097,-2.415
42178460,-0.602,-0.102,0.717,14.21,56.227,-3.045
42178470,-0.628,-0.127,0.673,14.647,55.195,-1.47
42178480,-0.663,-0.152,0.634,17.78,52.447,1.767
42178490,-0.666,-0.151,0.608,24.22,46.235,5.442
42178500,-0.747,-0.121,0.602,28.682,39.007,9.502
42178510,-0.777,-0.11,0.596,29.662,27.055,11.567
42178520,-0.739,-0.086,0.603,29.207,13.072,13.37
42178530,-0.711,-0.066,0.61,25.532,1.697,15.995
42178540,-0.662,-0.063,0.622,19.477,-3.15,18.357
42178550,-0.649,-0.055,0.64,13.527,-2.572,21.455
42178560,-0.687,-0.049,0.663,7.805,-0.927,23.87
42178570,-0.711,-0.044,0.68,2.625,-2.975,23.66
42178580,-0.701,-0.034,0.686,-2.765,-9.03,21.192
42178590,-0.684,-0.021,0.689,-8.837,-15.4,18.112
42178600,-0.65,-0.012,0.694,-15.925,-21.472,14.175
42178610,-0.615,-0.016,0.702,-23.677,-25.602,9.957
42178620,-0.59,-0.031,0.691,-31.412,-26.845,4.97
42178630,-0.558,-0.049,0.691,-37.467,-25.655,-0.455
42178640,-0.541,-0.049,0.698,-41.72,-22.312,-4.497
42178650,-0.561,-0.059,0.714,-45.762,-17.99,-7.105
42178660,-0.582,-0.08,0.731,-48.65,-15.12,-9.24
42178670,-0.612,-0.089,0.761,-50.575,-14.472,-11.252
42178670,-0.616,-0.112,0.777,-51.957,-15.067,-13.387
42178690,-0.598,-0.144,0.789,-51.467,-15.907,-14.455
42178690,-0.58,-0.189,0.799,-48.055,-14.332,-12.705
42178710,-0.615,-0.205,0.821,-40.862,-11.567,-9.467
42178710,-0.651,-0.204,0.848,-32.217,-10.832,-7.245
42178730,-0.654,-0.223,0.883,-22.557,-11.9,-3.377
42178730,-0.741,-0.167,0.931,-10.15,-17.027,1.242
42178750,-0.771,-0.101,0.955,-2.327,-29.382,2.397
42178750,-0.723,-0.101,0.949,-0.07,-43.662,4.322
42178760,-0.665,-0.111,0.92,0.857,-54.127,5.565
42178770,-0.559,-0.107,0.894,1.54,-55.58,5.827
42178780,-0.475,-0.118,0.87,1.26,-46.007,7.875
42178790,-0.494,-0.095,0.864,1.085,-30.205,10.29
42178800,-0.52,-0.07,0.858,-0.332,-15.19,11.287
42178810,-0.517,-0.046,0.843,-2.975,-4.217,11.917
42178820,-0.517,-0.021,0.834,-8.05,5.617,14.087
42178830,-0.572,-0.055,0.815,-15.347,11.9,17.465
42178840,-0.616,-0.097,0.794,-19.512,11.76,18.077
42178850,-0.609,-0.124,0.773,-19.442,7.945,18.042
42178860,-0.56,-0.11,0.767,-16.572,5.337,17.22
42178870,-0.542,-0.105,0.763,-14.717,7.14,18.357
42178880,-0.573,-0.116,0.776,-13.405,9.94,20.877
42178890,-0.634,-0.139,0.769,-11.427,9.537,20.912
42178900,-0.597,-0.147,0.769,-7.35,8.68,17.902
42178910,-0.539,-0.139,0.775,-1.802,10.99,16.292
42178920,-0.531,-0.106,0.79,4.077,17.727,17.972
42178930,-0.554,-0.062,0.814,7.192,27.125,21.035
42178940,-0.594,-0.034,0.849,5.827,35.962,23.467
42178950,-0.627,-0.06,0.842,1.732,41.545,23.782
42178960,-0.625,-0.112,0.805,-1.207,45.29,21.052
42178970,-0.555,-0.138,0.793,0.525,51.625,17.045
42178980,-0.551,-0.142,0.761,4.322,62.86,15.155
42178990,-0.619,-0.197,0.735,11.707,73.115,15.05
42179000,-0.664,-0.17,0.774,25.305,78.102,14.56
42179010,-0.769,-0.135,0.803,37.555,74.042,13.842
42179010,-0.888,-0.065,0.825,44.345,57.68,10.395
42179030,-0.883,-0.044,0.836,44.537,32.97,4.375
42179030,-0.755,-0.045,0.815,42.542,8.435,0.577
42179050,-0.651,0.002,0.795,37.135,-8.487,0.717
42179050,-0.608,0.024,0.798,26.985,-14.805,5.442
42179070,-0.562,0.032,0.805,15.715,-12.757,10.255
42179070,-0.552,0.083,0.814,2.292,-6.037,11.62
42179080,-0.61,0.084,0.818,-14.875,0.385,11.725
42179090,-0.633,0.03,0.806,-32.48,4.252,8.015
42179100,-0.587,0.012,0.792,-47.162,9.397,1.645
42179110,-0.519,0.023,0.778,-58.975,19.6,-2.677
42179120,-0.467,0.008,0.763,-69.352,34.632,-1.61
42179130,-0.488,0.001,0.75,-78.907,52.097,3.815
42179140,-0.599,-0.022,0.755,-88.445,66.027,11.235
42179150,-0.709,-0.064,0.741,-95.917,69.317,17.062
42179160,-0.788,-0.117,0.717,-100.852,61.267,18.847
42179170,-0.858,-0.19,0.682,-103.302,46.095,19.04
42179180,-0.832,-0.268,0.608,-100.852,29.207,16.275
42179190,-0.799,-0.366,0.541,-90.965,17.01,16.362
42179200,-0.82,-0.432,0.499,-73.237,8.872,16.275
42179210,-0.834,-0.415,0.484,-49.77,2.187,11.13
42179220,-0.819,-0.335,0.494,-27.545,-3.447,4.777
42179230,-0.813,-0.24,0.507,-12.565,-8.68,0.84
42179240,-0.819,-0.136,0.544,-7.087,-13.912,-1.697
42179250,-0.826,-0.075,0.564,-13.632,-19.022,-2.415
42179260,-0.803,-0.083,0.549,-27.23,-23.065,1.557
42179270,-0.754,-0.12,0.505,-39.812,-23.152,10.99
42179280,-0.734,-0.175,0.486,-49.35,-15.855,21.42
42179290,-0.813,-0.244,0.501,-51.31,-8.592,29.89
42179300,-0.908,-0.327,0.507,-43.505,-8.155,31.797
42179310,-0.94,-0.33,0.533,-26.442,-14.507,25.2
42179320,-0.944,-0.269,0.6,-6.055,-26.25,17.185
42179330,-0.941,-0.241,0.634,11.585,-43.33,10.447
42179340,-0.859,-0.179,0.674,26.582,-59.955,3.027
42179350,-0.728,-0.104,0.716,34.335,-70.402,-0.332
42179360,-0.65,-0.065,0.753,33.407,-71.4,3.587
42179370,-0.612,-0.05,0.792,27.37,-64.872,11.182
42179380,-0.578,-0.062,0.798,19.46,-53.707,17.902
42179390,-0.573,-0.086,0.795,13.002,-39.795,21.612
42179400,-0.62,-0.106,0.797,8.995,-27.86,21.052
42179410,-0.699,-0.132,0.79,7.35,-23.415,16.275
42179420,-0.727,-0.135,0.784,9.24,-28.525,8.05
42179420,-0.694,-0.108,0.784,11.865,-39.672,-0.402
42179440,-0.64,-0.073,0.784,11.515,-51.31,-7.035
42179440,-0.585,-0.05,0.774,6.335,-58.1,-12.757
42179460,-0.5,-0.068,0.741,-2.52,-58.397,-15.697
42179460,-0.408,-0.102,0.705,-10.202,-50.032,-12.057
42179480,-0.372,-0.11,0.698,-13.877,-32.497,-2.765
42179480,-0.45,-0.105,0.711,-16.52,-10.535,8.452
42179500,-0.565,-0.137,0.724,-18.777,6.405,16.415
42179500,-0.67,-0.155,0.749,-18.182,13.492,20.405
42179510,-0.754,-0.153,0.789,-14.98,11.34,19.145
42179520,-0.757,-0.139,0.815,-11.322,1.907,12.74
42179530,-0.757,-0.122,0.813,-10.762,-8.68,6.737
42179540,-0.768,-0.115,0.812,-13.142,-17.097,0.35
42179550,-0.727,-0.131,0.796,-16.957,-21.91,-7.542
42179560,-0.674,-0.165,0.791,-18.672,-22.54,-10.745
42179570,-0.672,-0.188,0.777,-16.24,-19.775,-7.892
42179580,-0.674,-0.171,0.785,-12.372,-16.817,-3.692
42179590,-0.7,-0.143,0.799,-12.53,-16.59,0.892
42179600,-0.708,-0.15,0.794,-16.607,-19.757,3.15
42179610,-0.686,-0.168,0.784,-20.807,-25.2,3.71
42179620,-0.685,-0.178,0.775,-23.362,-31.062,4.182
42179630,-0.651,-0.186,0.771,-24.5,-36.925,4.305
42179640,-0.606,-0.217,0.784,-24.832,-38.535,5.302
42179650,-0.633,-0.169,0.8,-24.29,-35.56,6.527
42179660,-0.72,-0.183,0.812,-27.947,-35.14,6.65
42179670,-0.703,-0.26,0.794,-27.037,-39.007,7.42
42179680,-0.714,-0.282,0.786,-19.442,-46.69,7.14
42179690,-0.723,-0.288,0.775,-9.782,-56.07,6.58
42179700,-0.66,-0.243,0.763,0.42,-62.457,5.285
42179710,-0.621,-0.207,0.755,6.265,-65.1,2.642
42179720,-0.551,-0.177,0.751,8.015,-63.682,2.047
42179730,-0.491,-0.153,0.767,7.665,-57.592,4.095
42179740,-0.502,-0.15,0.763,5.092,-49.245,6.72
42179750,-0.499,-0.143,0.775,2.257,-42.647,7.787
42179760,-0.453,-0.131,0.796,-0.052,-36.61,9.87
42179760,-0.418,-0.117,0.798,-3.937,-27.65,10.552
42179780,-0.428,-0.104,0.801,-9.187,-16.8,13.09
42179780,-0.483,-0.131,0.822,-15.645,-7.56,17.517
42179800,-0.6,-0.228,0.83,-18.655,-5.635,20.562
42179800,-0.495,-0.246,0.836,-10.885,-10.36,16.292
42179820,-0.543,-0.187,0.843,-4.97,-15.855,13.615
42179820,-0.545,-0.12,0.874,-6.265,-20.422,9.782
42179830,-0.496,-0.13,0.879,-15.452,-22.68,7.262
42179840,-0.494,-0.2,0.858,-25.725,-22.662,6.177
42179850,-0.484,-0.266,0.843,-29.68,-20.912,2.992
42179860,-0.504,-0.283,0.84,-26.302,-20.545,-0.087
42179870,-0.537,-0.246,0.834,-19.687,-24.22,-2.397
42179880,-0.549,-0.218,0.837,-15.68,-29.522,-2.73
42179890,-0.52,-0.227,0.833,-14.14,-32.007,-1.592
42179900,-0.518,-0.239,0.83,-13.09,-30.852,0.612
42179910,-0.575,-0.23,0.839,-12.67,-29.802,2.292
42179920,-0.599,-0.204,0.851,-13.965,-31.832,2.257
42179930,-0.604,-0.221,0.858,-16.835,-37.24,2.975
42179940,-0.596,-0.286,0.843,-17.115,-44.975,4.252
42179950,-0.539,-0.289,0.855,-11.095,-51.065,4.55
42179960,-0.577,-0.252,0.856,-4.567,-56.42,6.51
42179970,-0.554,-0.246,0.841,0.122,-64.732,7.21
42179980,-0.493,-0.291,0.827,4.865,-75.04,13.405
42179990,-0.548,-0.169,0.826,14.052,-81.76,20.107
42180000,-0.551,-0.243,0.812,11.217,-95.707,22.155
42180010,-0.312,-0.334,0.815,17.272,-99.925,31.027
42180020,-0.323,-0.187,0.882,28.315,-94.062,28.647
42180030,-0.345,-0.084,0.935,26.53,-86.712,28.017
42180040,-0.296,-0.137,0.897,16.1,-79.467,23.66
42180050,-0.267,-0.169,0.872,8.61,-73.22,20.09
42180060,-0.217,-0.164,0.857,4.375,-63.105,17.342
42180070,-0.256,-0.158,0.855,-0.647,-51.887,15.26
42180080,-0.3,-0.192,0.848,-5.705,-45.797,13.142
42180090,-0.295,-0.253,0.853,-7.962,-42.525,11.69
42180100,-0.324,-0.316,0.864,-4.637,-40.932,11.83
42180110,-0.348,-0.344,0.865,3.745,-42.472,10.885
42180120,-0.379,-0.301,0.899,13.947,-47.022,11.987
42180130,-0.402,-0.242,0.937,18.637,-54.337,13.335
42180140,-0.424,-0.206,0.985,17.115,-64.837,13.982
42180150,-0.619,-0.149,0.928,12.81,-81.777,12.67
42180160,-0.373,-0.194,1.048,7.822,-122.937,3.85
42180170,0.1,-0.211,0.98,-0.315,-125.195,13.58
42180170,-0.04,-0.091,1.054,-5.285,-95.55,22.54
42180190,-0.002,-0.058,1.063,-16.555,-60.952,22.54
42180190,-0.101,-0.146,1.019,-29.242,-31.377,22.977
42180210,-0.111,-0.189,1.018,-34.755,-10.622,20.265
42180210,-0.105,-0.177,1.02,-36.715,6.86,17.255
42180230,-0.222,-0.138,0.99,-39.9,19.18,13.545
42180230,-0.262,-0.113,0.966,-44.415,27.562,4.637
42180250,-0.2,-0.118,0.959,-47.6,34.65,-5.267
42180250,-0.241,-0.099,1.005,-49.227,40.04,-14
42180260,-0.245,-0.073,1.016,-49.14,41.02,-23.082
42180270,-0.143,-0.082,0.989,-49.577,39.217,-29.68
42180280,-0.096,-0.035,0.983,-50.347,45.99,-30.852
42180290,-0.029,-0.022,0.993,-53.357,59.395,-30.397
42180300,0.11,-0.022,0.997,-57.75,81.707,-27.125
42180310,0.193,0.013,1,-61.827,114.152,-22.487
42180320,0.175,0.021,0.956,-67.112,153.597,-16.572
42180330,-0.036,-0.016,0.88,-72.45,185.622,-12.215
42180340,-0.213,-0.119,0.781,-73.482,201.127,-13.422
42180350,-0.455,-0.162,0.73,-68.127,199.01,-20.755
42180360,-0.674,-0.218,0.69,-59.605,176.872,-28.507
42180370,-0.652,-0.224,0.652,-49.542,149.467,-34.982
42180380,-0.585,-0.18,0.704,-46.935,135.782,-36.662
42180390,-0.676,-0.241,0.645,-54.005,134.75,-34.125
42180400,-0.613,-0.247,0.948,-64.662,135.012,-34.947
42180410,-0.769,-0.333,1.122,-96.04,143.867,-32.375
42180420,-1.006,-0.569,1.038,-124.565,114.555,-36.19
42180430,-0.949,-0.679,0.988,-137.62,68.985,-34.177
42180440,-0.728,-0.753,0.823,-140.927,27.09,-32.357
42180450,-0.657,-0.678,0.568,-135.485,6.457,-30.257
42180460,-0.683,-0.497,0.418,-128.135,-5.95,-28.017
42180470,-0.689,-0.469,0.377,-128.975,-16.52,-28.472
42180480,-0.714,-0.566,0.388,-133.437,-25.375,-32.182
42180490,-0.809,-0.64,0.43,-134.505,-35.385,-34.16
42180500,-0.855,-0.643,0.455,-135.852,-50.05,-32.34
42180510,-0.69,-0.662,0.501,-135.94,-68.442,-32.69
42180510,-0.421,-0.608,0.547,-131.075,-73.972,-36.015
42180530,-0.395,-0.586,0.55,-126.507,-69.475,-33.845
42180530,-0.395,-0.63,0.557,-121.887,-62.685,-37.047
42180550,-0.379,-0.646,0.572,-117.582,-55.3,-42.402
42180550,-0.428,-0.689,0.536,-112.087,-47.652,-39.882
42180570,-0.441,-0.712,0.583,-99.627,-45.78,-36.487
42180570,-0.394,-0.721,0.631,-92.47,-45.255,-34.422
42180580,-0.338,-0.714,0.63,-89.162,-42.175,-34.212
42180590,-0.349,-0.688,0.629,-85.907,-35.892,-32.83
42180600,-0.332,-0.688,0.583,-84.437,-30.1,-32.602
42180610,-0.337,-0.72,0.545,-79.87,-26.46,-30.555
42180620,-0.371,-0.752,0.505,-70.262,-25.69,-25.077
42180630,-0.381,-0.761,0.528,-61.985,-26.162,-19.95
42180640,-0.405,-0.819,0.518,-57.382,-25.62,-18.812
42180650,-0.441,-0.835,0.495,-49.892,-26.425,-18.427
42180660,-0.451,-0.784,0.46,-42.157,-28.665,-16.415
42180670,-0.438,-0.752,0.483,-38.08,-31.657,-16.065
42180680,-0.384,-0.751,0.473,-38.727,-33.617,-15.33
42180690,-0.391,-0.342,0.357,-56.192,-37.17,-13.632
42180700,-0.48,-1,0.003,-104.335,-37.432,5.285
42180710,-0.205,-0.833,0.677,-48.825,-9.24,0.472
42180720,-0.333,-0.909,0.642,-49.84,-15.452,8.505
42180730,-0.36,-0.836,0.671,-57.155,-22.085,10.657
42180740,-0.659,-0.623,0.076,-108.902,-17.85,20.93
42180750,-1.961,0.371,-1.801,-146.72,-82.827,13.405
42180760,-1.686,1.679,-0.356,-95.305,-294.647,-150.71
42180770,1.888,-1.717,0.139,-65.082,-314.002,-236.442
42180780,0.709,-1.578,1.686,145.39,-30.467,-10.902
42180790,-1.423,-1.283,1.882,78.82,35.21,15.435
42180800,-0.1,-1.85,0.602,-2.397,-58.975,-17.36
42180810,0.355,-0.771,0.506,49.297,-100.345,-39.672
42180820,0.561,-0.381,0.283,72.73,-73.342,-48.807
42180830,0.677,-0.428,0.484,81.795,-28.14,-35.122
42180840,0.449,-0.924,0.655,68.337,16.152,-8.032
42180850,0.215,-0.678,0.748,56.542,41.457,22.837
42180860,0.018,-0.782,0.65,36.207,53.2,37.87
42180870,0.048,-0.787,0.58,38.955,46.777,52.587
42180880,0.18,-0.562,0.604,42.035,45.71,73.832
42180890,0.114,-0.603,0.585,28.7,67.935,88.235
42180900,-0.064,-0.767,0.534,9.45,96.722,92.732
42180910,-0.391,-0.89,0.557,-3.395,116.165,92.347
42180920,-0.503,-0.847,0.499,-0.525,119.105,83.3
42180920,-0.414,-0.775,0.459,2.852,116.305,71.61
42180940,-0.462,-0.668,0.333,4.375,117.442,77.98
42180940,-0.714,-0.672,0.258,4.655,113.802,78.12
42180960,-0.734,-0.685,0.267,1.347,99.067,66.255
42180960,-0.812,-0.711,0.306,-4.06,84.63,51.8
42180980,-0.79,-0.764,0.326,-8.225,69.44,40.11
42180980,-0.84,-0.727,0.405,-7.157,56.665,35.297
42181000,-0.941,-0.653,0.472,-6.02,42.665,31.395
42181000,-0.951,-0.647,0.506,-5.862,19.635,22.627
42181010,-0.855,-0.678,0.581,-4.2,0.262,10.237
42181020,-0.723,-0.763,0.592,0.472,-11.462,1.925
42181030,-0.584,-0.771,0.607,8.732,-12.197,0.822
42181040,-0.607,-0.686,0.572,16.082,-7.77,2.765
42181050,-0.629,-0.669,0.479,21.297,-12.25,-3.902
42181060,-0.329,-0.709,0.535,32.112,-14.122,-5.285
42181070,-0.322,-0.777,0.494,39.2,-14.595,6.825
42181080,-0.348,-0.704,0.545,46.62,-12.407,18.235
42181090,-0.344,-0.617,0.54,47.792,-4.077,25.34
42181100,-0.4,-0.63,0.515,41.947,1.487,28.245
42181110,-0.402,-0.613,0.561,35.192,7.035,30.94
42181120,-0.451,-0.749,0.556,25.497,14.245,28.945
42181130,-0.433,-0.796,0.631,24.43,13.51,25.742
42181140,-0.254,-0.803,0.699,25.322,18.795,21.157
42181150,-0.32,-0.758,0.698,22.295,35.28,16.887
42181160,-0.488,-0.735,0.67,13.982,46.235,10.272
42181170,-0.582,-0.691,0.645,5.845,48.23,2.065
42181180,-0.626,-0.684,0.58,-2.397,42.157,-5.862
42181190,-0.639,-0.708,0.561,-7.472,31.902,-7.77
42181200,-0.594,-0.671,0.5,-11.567,25.217,-1.015
42181210,-0.692,-0.613,0.419,-15.242,19.582,-0.507
42181220,-0.846,-0.52,0.399,-22.995,3.535,-18.48
42181230,-0.818,-0.542,0.365,-34.475,-19.617,-41.335
42181240,-0.647,-0.626,0.314,-39.55,-44.187,-60.427
42181250,-0.217,-0.701,0.388,-39.742,-42.245,-66.482
42181260,-0.255,-0.677,0.497,-40.197,-17.727,-44.31
42181260,-0.372,-0.696,0.532,-36.4,15.312,-20.387
42181280,-0.671,-0.703,0.588,-33.32,33.757,-4.235
42181280,-0.786,-0.75,0.554,-36.33,24.027,-2.397
42181300,-0.663,-0.73,0.543,-40.845,7.175,-7.192
42181300,-0.631,-0.745,0.518,-47.057,-4.847,-10.517
42181320,-0.585,-0.796,0.5,-51.03,-9.87,-13.265
42181320,-0.545,-0.814,0.474,-49.21,-9.52,-12.355
42181330,-0.529,-0.803,0.453,-43.19,-6.842,-10.762
42181340,-0.523,-0.824,0.428,-36.4,-3.85,-8.417
42181350,-0.507,-0.787,0.411,-28.542,0.087,-7.857
42181360,-0.504,-0.783,0.405,-22.417,4.795,-10.272
42181370,-0.524,-0.785,0.421,-19.232,8.137,-12.04
42181380,-0.519,-0.789,0.422,-19.057,9.887,-12.512
42181390,-0.495,-0.768,0.442,-21.262,10.36,-12.775
42181400,-0.51,-0.766,0.433,-26.845,11.76,-14.105
42181410,-0.528,-0.766,0.404,-32.847,11.375,-15.925
42181420,-0.522,-0.77,0.396,-38.15,8.96,-17.675
42181430,-0.49,-0.727,0.369,-41.93,6.16,-18.777
42181440,-0.466,-0.745,0.363,-48.685,4.497,-17.657
42181450,-0.474,-0.765,0.327,-54.547,4.742,-18.62
42181460,-0.484,-0.773,0.321,-54.477,4.392,-17.745
42181470,-0.483,-0.807,0.293,-49.402,1.925,-15.75
42181480,-0.476,-0.812,0.272,-37.677,-1.155,-14.175
42181490,-0.461,-0.785,0.268,-21.682,-1.54,-14.752
42181500,-0.477,-0.753,0.249,-4.445,-1.137,-17.272
42181510,-0.454,-0.712,0.254,11.55,-0.892,-20.615
42181520,-0.427,-0.661,0.286,20.702,2.187,-24.412
42181530,-0.474,-0.604,0.327,18.235,5.705,-29.697
42181540,-0.557,-0.614,0.327,6.737,2.222,-35.875
42181550,-0.584,-0.702,0.32,-3.622,-9.187,-42.297
42181560,-0.636,-0.835,0.281,-3.237,-27.807,-46.777
42181570,-0.532,-0.907,0.295,13.772,-46.69,-45.675
42181580,-0.242,-0.905,0.434,37.625,-48.352,-36.435
42181590,-0.048,-0.895,0.562,51.502,-18.392,-18.585
42181600,-0.265,-0.851,0.638,51.205,25.707,1.61
42181610,-0.599,-0.898,0.768,38.185,49.98,10.027
42181620,-0.773,-1.092,0.662,22.347,25.952,1.242
42181630,-0.471,-0.976,0.58,19.495,-11.917,-9.03
42181640,-0.283,-0.84,0.494,19.162,-29.085,-4.06
42181650,-0.292,-0.829,0.418,19.197,-23.327,2.24
42181660,-0.296,-0.805,0.381,21.017,-6.982,0.542
42181670,-0.346,-0.754,0.391,21.21,6.492,-5.582
42181670,-0.411,-0.73,0.385,16.922,10.622,-10.272
42181690,-0.431,-0.691,0.376,9.03,6.317,-15.715
42181690,-0.459,-0.695,0.356,-1.925,-0.91,-22.12
42181700,-0.419,-0.742,0.327,-11.112,-6.947,-27.002
42181710,-0.363,-0.778,0.361,-15.697,-5.687,-25.217
42181720,-0.375,-0.854,0.438,-16.922,0.21,-18.725
42181730,-0.434,-0.911,0.49,-14.525,6.965,-12.74
42181740,-0.541,-0.944,0.504,-10.255,7.07,-10.552
42181750,-0.573,-0.933,0.485,-4.357,-1.96,-10.972
42181760,-0.513,-0.908,0.47,1.75,-13.107,-11.462
42181770,-0.476,-0.878,0.488,6.247,-18.34,-9.66
42181780,-0.456,-0.835,0.538,8.47,-20.737,-8.015
42181790,-0.446,-0.831,0.61,6.912,-20.965,-6.107
42181800,-0.335,-0.854,0.616,2.835,-19.057,-6.475
42181810,-0.133,-0.906,0.618,-0.28,-5.18,-2.362
42181820,-0.277,-0.916,0.639,1.662,15.995,9.415
42181830,-0.46,-0.914,0.618,4.707,22.452,15.067
42181840,-0.446,-0.906,0.511,5.53,15.295,15.82
42181850,-0.384,-0.889,0.437,6.405,9.87,8.33
42181860,-0.424,-0.854,0.35,12.932,8.137,1.767
42181870,-0.423,-0.767,0.283,24.85,4.602,-1.767
42181880,-0.477,-0.634,0.245,34.79,-0.367,-5.512
42181890,-0.554,-0.561,0.185,35.105,-11.812,-14.84
42181900,-0.482,-0.437,0.164,26.372,-26.057,-29.61
42181910,-0.405,-0.348,0.162,4.847,-34.79,-43.487
42181920,-0.348,-0.391,0.125,-24.447,-36.172,-53.077
42181930,-0.372,-0.486,0.104,-48.02,-34.44,-55.79
42181940,-0.42,-0.584,0.101,-59.815,-34.877,-54.88
42181950,-0.383,-0.625,0.139,-61.267,-37.187,-51.992
42181960,-0.405,-0.649,0.204,-61.46,-38.552,-48.177
42181970,-0.346,-0.742,0.226,-62.527,-38.517,-44.765
42181980,-0.154,-0.884,0.336,-59.955,-26.25,-38.062
42181990,0.054,-1.158,0.622,-56.28,6.527,-17.237
42182000,0.114,-1.368,0.768,-42.595,65.555,17.71
42182010,-0.921,-1.245,0.91,-23.065,103.722,44.257
42182010,-1.897,-1.501,0.94,-13.685,25.882,36.767
42182030,-0.279,-1.432,0.445,2.047,-96.915,-29.925
42182030,0.285,-0.854,0.393,22.172,-102.235,-28.262
42182050,-0.326,-0.97,0.257,20.58,-53.812,-5.635
42182050,-0.457,-0.937,0.219,31.202,-34.475,-19.565
42182070,-0.382,-0.562,0.214,42.7,-52.062,-34.842
42182070,-0.074,-0.502,0.197,27.877,-56.7,-29.785
42182080,-0.037,-0.679,0.212,1.592,-37.747,-14.297
42182090,-0.104,-0.811,0.334,-15.015,-11.41,-15.207
42182100,-0.221,-0.836,0.451,-23.467,-0.822,-20.615
42182110,-0.155,-0.905,0.465,-26.74,0.017,-16.502
42182120,-0.211,-0.935,0.436,-25.112,4.567,-10.097
42182130,-0.375,-0.928,0.4,-22.032,6.002,-8.61
42182140,-0.433,-0.916,0.375,-19.18,1.645,-18.13
42182150,-0.479,-0.916,0.371,-18.217,-4.095,-26.95
42182160,-0.604,-0.971,0.358,-17.482,-14.42,-29.645
42182170,-0.592,-0.997,0.368,-13.86,-29.802,-29.085
42182180,-0.499,-0.964,0.409,-10.29,-42.42,-23.87
42182190,-0.429,-0.938,0.443,-8.627,-47.162,-22.435
42182200,-0.388,-0.914,0.441,-7,-49.682,-26.477
42182210,-0.268,-0.843,0.449,-4.812,-52.062,-30.257
42182220,-0.195,-0.798,0.481,-5.67,-52.447,-30.345
42182230,-0.18,-0.798,0.478,-10.36,-51.992,-31.325
42182240,-0.126,-0.767,0.47,-16.432,-50.085,-31.5
42182250,-0.099,-0.732,0.457,-24.36,-44.992,-28
42182260,-0.088,-0.728,0.432,-31.587,-39.48,-25.427
42182270,-0.019,-0.751,0.419,-37.047,-32.69,-21.595
42182280,0.014,-0.772,0.438,-41.842,-22.33,-15.557
42182290,-0.022,-0.791,0.449,-46.497,-12.337,-10.08
42182300,0.035,-0.811,0.446,-49.035,-6.457,-2.59
42182310,0.08,-0.787,0.455,-52.132,1.697,4.917
42182320,0.048,-0.897,0.404,-60.165,12.04,11.532
42182330,-0.027,-0.818,0.371,-60.445,19.547,15.715
42182340,-0.137,-0.849,0.317,-59.78,25.987,15.242
42182350,-0.307,-0.882,0.31,-58.905,26.967,16.362
42182360,-0.339,-0.996,0.265,-62.002,23.17,17.115
42182370,-0.472,-1.021,0.236,-58.712,13.51,22.155
42182380,-0.538,-1.092,0.151,-51.292,-1.785,22.347
42182390,-0.517,-1.007,0.188,-37.065,-16.835,15.032
42182390,-0.414,-1.056,0.187,-32.69,-24.115,5.985
42182410,-0.452,-1.092,0.222,-29.907,-29.54,3.64
42182410,-0.482,-1.023,0.215,-25.952,-37.362,-3.552
42182420,-0.399,-0.996,0.237,-21.105,-44.45,-15.435
42182430,-0.37,-0.96,0.181,-22.277,-48.842,-22.47
42182440,-0.339,-0.963,0.14,-21.105,-54.967,-27.247
42182450,-0.317,-0.874,0.208,-14.542,-62.685,-26.792
42182460,-0.285,-1.099,0.166,-8.785,-70.665,-25.165
42182470,-0.09,-0.931,0.274,0.91,-72.345,-21.525
42182480,-0.222,-1.139,0.083,-1.452,-69.352,-16.467
42182490,-0.083,-0.918,0.154,12.127,-70.665,-8.207
42182500,0.087,-0.895,0.2,12.6,-60.935,-6.282
42182510,0.104,-1.062,0.172,3.307,-42.28,-1.697
42182520,0.03,-0.943,0.243,4.672,-28.892,2.467
42182530,-0.054,-0.988,0.277,4.795,-21.262,2.625
42182540,-0.138,-0.936,0.259,6.037,-20.387,8.487
42182550,-0.124,-0.81,0.28,7.787,-18.567,9.275
42182560,-0.229,-0.928,0.221,1.102,-13.65,9.135
42182570,-0.392,-0.822,0.184,7.962,-19.092,14.77
42182580,-0.114,-0.753,0.399,14.525,-21.682,11.077
42182590,-0.264,-0.967,0.421,-0.105,-12.197,17.36
42182600,-0.364,-0.941,0.458,-2.17,-18.952,18.217
42182610,-0.292,-0.952,0.385,-7.507,-29.855,13.982
42182620,-0.36,-0.783,0.386,-10.447,-36.732,13.982
42182630,-0.335,-0.842,0.395,-13.195,-41.51,5.565
42182640,-0.265,-0.876,0.336,-17.535,-47.39,5.057
42182650,-0.242,-0.907,0.305,-22.26,-45.447,2.87
42182660,-0.193,-1.004,0.259,-32.952,-43.172,1.225
42182670,-0.138,-1.11,0.181,-39.725,-39.777,-2.87
42182680,-0.159,-1.073,0.177,-31.71,-37.625,-5.285
42182690,-0.113,-1.014,0.218,-22.067,-36.907,-6.597
42182700,-0.127,-0.975,0.279,-18.602,-34.912,-7.262
42182710,-0.175,-1.004,0.23,-22.365,-38.78,4.34
42182720,0,-0.896,0.287,-17.202,-39.007,7.297
42182730,0.157,-0.91,0.435,-13.177,-31.885,9.677
42182740,0.437,-0.516,0.217,-2.17,-27.317,4.9
42182750,0.122,-0.809,0.177,-37.765,12.565,33.302
42182760,0.161,-1.043,0.234,-49.927,44.502,24.097
42182760,-0.111,-0.911,0.348,-45.027,52.325,18.217
42182780,-0.418,-1.113,0.113,-54.88,53.742,16.677
42182780,-0.665,-1.068,0.226,-52.762,48.002,8.54
42182800,-0.765,-1.162,0.236,-53.585,29.33,1.575
42182800,-0.791,-1.158,0.135,-59.57,6.072,-1.067
42182820,-0.768,-1.219,0.044,-52.412,-16.467,-20.527
42182820,-0.643,-1.171,-0.004,-33.845,-40.53,-32.007
42182830,-0.419,-1.129,0.01,-14.42,-54.862,-48.597
42182840,-0.253,-1.085,0.037,-2.187,-64.942,-51.782
42182850,-0.113,-1.081,0.058,2.45,-66.465,-52.027
42182860,-0.052,-1.023,0.088,2.625,-61.81,-51.257
42182870,-0.008,-1.037,0.078,-0.91,-54.845,-49.787
42182880,0.052,-1.042,0.055,2.537,-47.337,-42.49
42182890,0.107,-0.988,0.089,10.36,-40.267,-29.925
42182900,0.113,-1.037,0.093,12.897,-31.36,-21.175
42182910,0.157,-1.085,0.07,19.04,-24.115,-10.027
42182920,0.209,-1.126,0.105,26.512,-13.632,-1.05
42182930,0.083,-1.136,0.059,30.59,-2.257,6.79
42182940,0.215,-1.092,0.088,36.715,7.647,3.955
42182950,0.126,-1.135,0.068,38.237,22.295,3.71
42182960,0.116,-1.137,0.064,41.492,33.145,0.367
42182970,0.057,-1.192,0.099,44.817,42.717,-5.582
42182980,-0.19,-1.408,0.143,53.392,39.97,-10.272
42182990,-0.31,-1.594,0.175,80.85,12.005,-25.987
42183000,-0.198,-1.511,0.183,108.675,-32.252,-60.532
42183010,0.024,-1.458,0.008,128.905,-67.357,-100.012
42183020,-0.039,-1.382,-0.199,168.857,-90.212,-121.292
42183030,0.412,-1.105,-0.352,217.105,-97.51,-132.947
42183040,0.729,-0.862,-0.318,239.627,-44.642,-121.537
42183050,0.331,-0.834,-0.207,237.912,40.18,-77.297
42183060,-0.263,-0.946,-0.057,229.005,107.135,-39.042
42183070,-0.581,-0.992,0.225,220.5,130.252,-28.892
42183080,-0.762,-0.851,0.491,209.037,115.15,-32.322
42183080,-0.567,-0.842,0.559,188.685,82.635,-34.825
42183100,-0.278,-0.798,0.523,171.815,52.955,-28.962
42183100,0.067,-0.651,0.565,159.04,46.515,-19.022
42183120,0.166,-0.541,0.675,144.042,62.16,-7.49
42183120,0.416,-0.653,0.744,125.142,73.605,15.732
42183140,0.676,-0.74,0.698,109.532,94.657,36.417
42183140,0.476,-0.756,0.691,102.287,120.715,49.787
42183160,0.467,-0.826,0.648,113.995,142.992,41.037
42183160,0.382,-0.835,0.622,142.1,157.605,22.172
42183170,0.13,-0.808,0.597,175.525,158.672,1.277
42183180,-0.057,-0.755,0.589,212.8,146.667,-27.685
42183190,-0.176,-0.638,0.576,247.082,126,-57.575
42183200,-0.341,-0.476,0.57,271.145,98.105,-80.92
42183210,-0.501,-0.31,0.582,279.475,63.665,-104.247
42183220,-0.61,-0.076,0.659,266.07,32.865,-136.447
42183230,-0.485,0.151,0.817,220.395,12.302,-168.35
42183240,-0.39,0.248,0.847,143.972,9.905,-187.057
42183250,-0.416,0.167,0.776,62.072,18.97,-188.79
42183260,-0.322,0.022,0.747,-6.335,33.512,-175.805
42183270,-0.267,-0.194,0.635,-52.867,53.585,-158.375
42183280,-0.261,-0.42,0.544,-62.842,73.657,-128.607
42183290,-0.277,-0.513,0.498,-47.687,96.687,-98.28
42183300,-0.375,-0.516,0.49,-23.117,125.912,-73.132
42183310,-0.495,-0.455,0.538,-0.455,150.622,-51.17
42183320,-0.654,-0.348,0.63,7.402,161.927,-32.077
42183330,-0.843,-0.322,0.724,-2.782,152.075,-13.335
42183340,-1.013,-0.367,0.774,-20.93,120.785,-0.21
42183350,-1.114,-0.447,0.779,-38.622,70.84,7.035
42183360,-0.965,-0.499,0.779,-48.265,16.677,10.71
42183370,-0.816,-0.565,0.778,-51.975,-28.595,10.727
42183380,-0.637,-0.846,0.789,-42.49,-62.527,7.84
42183390,-0.258,-0.888,0.848,-4.305,-73.535,5.81
42183400,-0.152,-0.522,1.046,32.445,-64.12,5.775
42183410,0.07,-0.576,1.164,46.357,-51.695,9.222
42183420,0.115,-0.666,1.249,51.52,-25.06,20.895
42183430,-0.057,-0.722,1.235,52.342,0.035,16.887
42183440,-0.14,-0.704,1.156,52.255,6.142,5.127
42183450,-0.089,-0.59,1.149,55.667,1.855,-1.54
42183460,-0.089,-0.503,1.14,55.055,-4.147,-1.715
42183470,-0.081,-0.512,1.087,45.552,-7.28,0.07
42183480,-0.036,-0.645,0.995,32.375,-3.535,0.997
42183490,0.016,-0.689,0.923,26.057,10.937,-3.5
42183500,-0.02,-0.656,0.913,21.91,26.39,-6.44
42183510,-0.029,-0.614,0.891,16.135,44.677,-4.217
42183510,0,-0.592,0.838,5.967,69.387,1.837
42183530,-0.009,-0.583,0.77,-8.75,100.485,12.6
42183530,-0.073,-0.555,0.717,-25.427,135.625,25.042
42183550,-0.176,-0.535,0.666,-43.575,169.872,35.98
42183550,-0.307,-0.533,0.614,-61.722,197.487,43.452
42183570,-0.513,-0.512,0.579,-77.105,211.382,44.677
42183570,-0.646,-0.451,0.557,-90.527,207.287,40.495
42183580,-0.626,-0.418,0.527,-103.74,190.435,35.7
42183590,-0.583,-0.466,0.455,-112.91,170.905,37.31
42183600,-0.558,-0.461,0.412,-112.735,154.402,43.54
42183610,-0.529,-0.431,0.422,-109.025,142.1,49.927
42183620,-0.543,-0.467,0.393,-106.207,129.972,53.865
42183630,-0.568,-0.516,0.372,-98.525,119,52.255
42183640,-0.572,-0.499,0.422,-87.15,109.182,44.1
42183650,-0.572,-0.467,0.464,-77.227,96.477,34.387
42183660,-0.637,-0.483,0.477,-69.947,78.627,25.882
42183670,-0.647,-0.521,0.494,-63.262,58.782,15.732
42183680,-0.581,-0.515,0.53,-57.96,41.282,2.205
42183690,-0.524,-0.511,0.563,-56.945,28.787,-10.937
42183700,-0.464,-0.532,0.572,-57.767,22.365,-20.37
42183710,-0.373,-0.563,0.568,-56.787,24.447,-24.867
42183720,-0.287,-0.583,0.57,-53.462,35.91,-22.05
42183730,-0.256,-0.603,0.564,-48.562,55.265,-9.817
42183740,-0.301,-0.62,0.563,-43.382,79.502,6.422
42183750,-0.446,-0.675,0.558,-40.39,102.777,19.582
42183760,-0.585,-0.697,0.553,-34.212,115.85,24.36
42183770,-0.706,-0.688,0.563,-26.53,115.395,24.115
42183780,-0.712,-0.727,0.531,-21.84,106.172,20.02
42183790,-0.708,-0.726,0.46,-17.657,93.397,12.67
42183800,-0.617,-0.699,0.411,-17.237,85.365,4.322
42183810,-0.598,-0.706,0.39,-21.157,88.357,1.102
42183820,-0.649,-0.775,0.331,-24.325,94.5,-2.012
42183830,-0.689,-0.843,0.319,-20.282,102.34,-5.967
42183830,-0.754,-0.888,0.326,-7.21,105.017,-6.055
42183850,-0.84,-0.858,0.389,10.15,99.96,-5.337
42183850,-0.876,-0.892,0.379,23.625,85.347,-9.677
42183870,-0.834,-0.83,0.41,36.505,65.292,-15.33
42183870,-0.779,-0.737,0.46,43.435,48.055,-14.56
42183890,-0.789,-0.695,0.439,40.46,32.847,-11.55
42183890,-0.789,-0.679,0.429,32.777,19.81,-10.307
42183910,-0.816,-0.696,0.413,24.08,8.68,-6.947
42183910,-0.806,-0.724,0.393,18.97,-1.715,-4.55
42183920,-0.8,-0.735,0.371,16.555,-10.92,-3.237
42183930,-0.79,-0.726,0.354,14.91,-18.322,-3.832
42183940,-0.755,-0.738,0.346,13.422,-21.98,-5.915
42183950,-0.703,-0.734,0.364,13.947,-21.455,-7.525
42183960,-0.673,-0.742,0.388,16.45,-18.095,-7.28
42183970,-0.705,-0.733,0.432,20.037,-14.84,-7.087
42183980,-0.672,-0.673,0.463,22.155,-11.777,-9.432
42183990,-0.629,-0.642,0.496,18.427,-6.002,-11.55
42184000,-0.682,-0.68,0.497,9.17,-1.627,-11.725
42184010,-0.659,-0.711,0.469,0.927,1.225,-14.98
42184020,-0.602,-0.722,0.447,-5.792,6.195,-18.48
42184030,-0.622,-0.78,0.396,-10.167,12.565,-17.43
42184040,-0.657,-0.825,0.354,-6.93,17.815,-15.365
42184050,-0.653,-0.84,0.312,3.307,20.282,-11.305
42184060,-0.601,-0.836,0.27,17.727,24.22,-5.302
42184070,-0.602,-0.783,0.278,32.06,31.045,0.98
42184080,-0.63,-0.728,0.27,42.245,37.327,5.985
42184090,-0.595,-0.646,0.275,47.67,42.822,7.577
42184100,-0.552,-0.573,0.257,47.04,49.962,8.89
42184110,-0.57,-0.534,0.23,43.12,57.295,11.445
42184120,-0.61,-0.508,0.198,39.567,62.142,14.07
42184130,-0.636,-0.488,0.172,38.307,62.422,16.485
42184140,-0.616,-0.493,0.149,40.705,60.445,19.022
42184150,-0.644,-0.488,0.139,46.497,58.695,23.362
42184160,-0.679,-0.527,0.111,53.55,55.562,25.515
42184170,-0.672,-0.513,0.145,63.822,53.095,24.622
42184180,-0.729,-0.422,0.214,72.59,49.962,20.947
42184190,-0.826,-0.367,0.284,69.107,43.75,18.27
42184200,-0.878,-0.405,0.291,58.17,30.555,12.705
42184210,-0.796,-0.442,0.244,50.032,15.47,2.45
42184220,-0.645,-0.488,0.239,43.96,11.095,-6.527
42184230,-0.615,-0.493,0.258,40.39,19.022,-7.315
42184240,-0.68,-0.496,0.304,37.852,30.45,-3.85
42184250,-0.789,-0.501,0.332,35.56,37.362,2.975
42184260,-0.897,-0.538,0.371,32.672,36.557,7.542
42184260,-0.958,-0.586,0.389,30.8,26.18,5.775
42184280,-0.916,-0.602,0.406,30.642,12.127,-2.502
42184280,-0.854,-0.601,0.418,28.77,-0.682,-13.037
42184300,-0.769,-0.598,0.426,24.745,-9.047,-21.752
42184300,-0.701,-0.597,0.434,19.442,-11.795,-26.652
42184320,-0.676,-0.623,0.421,14.577,-8.12,-28.332
42184320,-0.674,-0.614,0.449,14.455,-2.642,-27.475
42184330,-0.676,-0.604,0.474,15.61,1.12,-24.342
42184340,-0.711,-0.633,0.484,15.592,6.195,-18.427
42184350,-0.849,-0.672,0.525,17.08,8.61,-12.74
42184360,-0.965,-0.723,0.519,20.807,0.525,-10.43
42184370,-0.949,-0.725,0.541,30.275,-14.945,-12.022
42184380,-0.864,-0.673,0.557,39.375,-28.455,-15.242
42184390,-0.826,-0.627,0.57,42.91,-36.347,-15.26
42184400,-0.785,-0.614,0.551,40.915,-40.162,-15.277
42184410,-0.811,-0.586,0.519,34.335,-44.152,-18.217
42184420,-0.802,-0.58,0.5,24.36,-50.697,-21.717
42184430,-0.72,-0.572,0.486,13.037,-55.527,-24.78
42184440,-0.65,-0.583,0.448,4.2,-56.035,-28.087
42184450,-0.601,-0.532,0.464,-5.775,-47.092,-34.23
42184460,-0.739,-0.656,0.477,-20.37,-38.955,-34.247
42184470,-0.585,-0.573,0.47,-20.037,-35.297,-34.352
42184480,-0.56,-0.587,0.43,-25.235,-22.155,-30.047
42184490,-0.645,-0.715,0.39,-30.362,-11.095,-22.82
42184500,-0.628,-0.671,0.432,-23.047,-9.03,-19.862
42184510,-0.663,-0.587,0.448,-19.407,-13.072,-15.732
42184520,-0.679,-0.614,0.43,-24.08,-19.18,-12.862
42184530,-0.636,-0.654,0.429,-30.205,-22.225,-14.63
42184540,-0.611,-0.678,0.402,-37.222,-20.79,-19.915
42184550,-0.603,-0.716,0.379,-43.452,-14.157,-24.412
42184560,-0.654,-0.695,0.388,-45.43,-9.03,-25.252
42184570,-0.694,-0.652,0.403,-44.8,-10.15,-22.96
42184580,-0.749,-0.596,0.411,-47.285,-19.145,-17.657
42184580,-0.648,-0.608,0.421,-54.687,-29.33,-13.492
42184600,-0.572,-0.661,0.414,-60.287,-32.235,-9.45
42184600,-0.561,-0.791,0.396,-58.712,-31.062,-5.705
42184620,-0.526,-0.712,0.412,-42.262,-27.107,-0.577
42184620,-0.576,-0.601,0.464,-26.11,-23.922,2.817
42184640,-0.621,-0.602,0.453,-20.615,-26.232,7.332
42184640,-0.543,-0.615,0.452,-19.39,-28.647,6.3
42184660,-0.429,-0.745,0.414,-21.875,-20.877,4.095
42184660,-0.584,-0.683,0.459,-20.702,-4.515,4.095
42184670,-0.741,-0.61,0.488,-21.927,5.005,-2.187
42184680,-0.726,-0.667,0.421,-25.27,5.6,-11.917
42184690,-0.638,-0.716,0.349,-25.077,2.625,-18.41
42184700,-0.588,-0.72,0.31,-21.367,4.987,-17.955
42184710,-0.643,-0.682,0.293,-16.677,6.702,-12.74
42184720,-0.686,-0.661,0.295,-13.965,2.922,-7.367
42184730,-0.66,-0.679,0.286,-11.69,-2.94,-4.48
42184740,-0.649,-0.663,0.275,-10.062,-10.972,-2.905
42184750,-0.645,-0.634,0.302,-11.567,-20.405,1.995
42184760,-0.697,-0.675,0.313,-17.29,-29.487,8.645
42184770,-0.748,-0.75,0.306,-23.24,-42.542,8.925
42184780,-0.674,-0.76,0.361,-24.377,-52.71,2.677
42184790,-0.625,-0.77,0.367,-25.742,-54.897,-1.592
42184800,-0.548,-0.78,0.378,-20.965,-51.922,-0.577
42184810,-0.577,-0.795,0.387,-12.915,-41.65,6.335
42184820,-0.652,-0.779,0.372,-6.09,-35.525,13.667
42184830,-0.613,-0.748,0.353,3.57,-35.07,20.037
42184840,-0.61,-0.692,0.377,14.402,-37.607,31.045
42184850,-0.653,-0.706,0.389,21.122,-46.06,41.055
42184860,-0.627,-0.702,0.41,27.125,-56.595,40.95
42184870,-0.591,-0.671,0.414,28.962,-63.052,32.095
42184880,-0.525,-0.608,0.434,22.575,-62.562,18.305
42184890,-0.441,-0.587,0.466,7.962,-53.217,6.317
42184900,-0.458,-0.548,0.437,-10.57,-34.947,-0.857
42184910,-0.553,-0.634,0.45,-38.955,-20.825,-5.477
42184920,-0.546,-0.781,0.396,-56.455,-8.347,-10.325
42184930,-0.59,-0.806,0.399,-55.195,-3.43,-12.565
42184940,-0.605,-0.869,0.368,-47.652,-1.977,-11.445
42184950,-0.576,-0.848,0.401,-33.53,-1.277,-7.682
42184960,-0.629,-0.706,0.43,-20.772,0.087,-4.497
42184970,-0.644,-0.714,0.393,-19.705,-2.485,-4.41
42184980,-0.54,-0.737,0.36,-21.14,-4.2,-3.675
42184990,-0.539,-0.694,0.368,-20.632,-3.517,-0.262
42185000,-0.575,-0.675,0.371,-20.737,-2.957,3.64
42185010,-0.571,-0.664,0.372,-21.175,-4.567,5.512
42185010,-0.549,-0.64,0.379,-23.607,-5.232,7.962
42185030,-0.541,-0.642,0.383,-29.47,-4.007,12.022
42185030,-0.577,-0.737,0.367,-37.52,-1.085,14.805
42185050,-0.642,-0.846,0.309,-39.987,0.525,10.202
42185050,-0.667,-0.827,0.324,-32.62,-0.752,1.522
42185070,-0.652,-0.795,0.346,-22.172,-3.535,-2.187
42185070,-0.671,-0.782,0.335,-13.3,-8.12,-1.942
42185080,-0.665,-0.741,0.328,-6.142,-13.72,1.312
42185090,-0.614,-0.718,0.32,-2.625,-17.272,4.585
42185100,-0.57,-0.737,0.313,-2.1,-17.605,7.245
42185110,-0.552,-0.748,0.32,-2.38,-14.245,8.12
42185120,-0.544,-0.744,0.332,-1.89,-9.625,8.697
42185130,-0.533,-0.739,0.337,-1.015,-4.042,10.745
42185140,-0.568,-0.736,0.335,-0.332,1.295,14.402
42185150,-0.598,-0.74,0.332,0.63,4.847,18.27
42185160,-0.599,-0.759,0.345,3.727,5.25,22.54
42185170,-0.607,-0.752,0.358,7.927,3.745,27.09
42185180,-0.604,-0.716,0.4,11.585,3.01,31.412
42185190,-0.612,-0.721,0.437,11.322,3.15,36.487
42185200,-0.626,-0.735,0.476,7.192,3.955,38.377
42185210,-0.634,-0.752,0.502,0.315,5.6,38.202
42185220,-0.678,-0.764,0.515,-7.21,7.017,38.045
42185230,-0.688,-0.774,0.518,-12.197,6.667,36.907
42185240,-0.672,-0.781,0.518,-13.842,4.76,35.56
42185250,-0.647,-0.767,0.499,-13.09,3.15,34.23
42185260,-0.62,-0.752,0.483,-12.022,3.325,33.932
42185270,-0.613,-0.754,0.455,-11.287,4.515,34.492
42185280,-0.639,-0.758,0.431,-9.187,4.742,33.582
42185290,-0.638,-0.744,0.419,-4.725,3.132,29.96
42185300,-0.63,-0.706,0.423,0.49,0.98,24.797
42185310,-0.638,-0.652,0.435,3.412,-2.292,19.687
42185320,-0.656,-0.592,0.445,1.68,-6.737,14.472
42185330,-0.682,-0.565,0.432,-5.512,-13.79,8.732
42185330,-0.678,-0.562,0.4,-15.225,-21.7,2.082
42185350,-0.663,-0.57,0.368,-25.48,-28.84,-5.215
42185350,-0.637,-0.586,0.331,-33.145,-33.67,-12.652
42185370,-0.598,-0.61,0.288,-37.135,-33.792,-20.702
42185370,-0.566,-0.621,0.268,-37.94,-28.962,-29.12
42185390,-0.561,-0.613,0.27,-37.957,-20.79,-37.117
42185390,-0.587,-0.615,0.263,-38.832,-12.81,-43.365
42185410,-0.598,-0.627,0.243,-39.935,-7.857,-47.477
42185410,-0.62,-0.651,0.23,-40.232,-6.177,-48.545
42185420,-0.678,-0.705,0.22,-38.605,-9.117,-47.53
42185430,-0.779,-0.759,0.209,-33.565,-18.655,-48.142
42185440,-0.87,-0.792,0.213,-24.097,-37.24,-52.622
42185450,-0.954,-0.822,0.216,-11.847,-65.502,-59.342
42185460,-1.012,-0.85,0.222,3.027,-101.465,-67.865
42185470,-1.051,-0.86,0.221,19.285,-144.392,-79.817
42185480,-0.947,-0.848,0.263,35.787,-187.67,-95.952
42185490,-0.833,-0.869,0.304,49.892,-225.487,-108.692
42185500,-0.582,-0.892,0.354,66.447,-248.447,-113.96
42185510,-0.18,-0.85,0.449,83.002,-238.035,-103.162
42185520,0.053,-0.852,0.531,87.29,-181.877,-73.255
42185530,-0.202,-0.85,0.641,80.902,-112.875,-37.275
42185540,-0.545,-0.854,0.694,72.52,-73.867,-12.897
42185550,-0.625,-0.942,0.672,70.28,-69.72,-7.402
42185560,-0.556,-0.861,0.562,79.345,-88.34,-10.08
42185570,-0.362,-0.748,0.599,84.77,-101.115,-14.752
42185580,-0.398,-0.684,0.625,78.015,-101.955,-15.662
42185590,-0.299,-0.673,0.582,67.427,-100.327,-15.557
42185600,-0.172,-0.715,0.526,58.905,-91.385,-9.607
42185610,-0.198,-0.737,0.479,56.07,-73.587,-2.152
42185620,-0.29,-0.806,0.409,61.81,-59.902,3.045
42185630,-0.413,-0.845,0.375,79.537,-55.685,5.95
42185640,-0.487,-0.82,0.415,107.17,-66.202,7.647
42185650,-0.505,-0.805,0.457,139.02,-89.53,13.3
42185660,-0.515,-0.808,0.479,172.935,-117.74,21.087
42185670,-0.506,-0.762,0.497,203.367,-144.322,26.197
42185680,-0.459,-0.696,0.523,224.07,-166.442,27.422
42185690,-0.381,-0.632,0.549,232.732,-180.32,27.667
42185700,-0.318,-0.566,0.603,230.282,-185.167,29.102
42185710,-0.272,-0.489,0.675,216.667,-181.965,33.04
42185720,-0.208,-0.445,0.736,194.512,-170.87,38.727
42185730,-0.122,-0.394,0.786,170.012,-152.495,47.127
42185740,-0.06,-0.341,0.831,143.132,-127.942,56.822
42185750,-0.049,-0.296,0.877,114.047,-100.03,64.837
42185760,-0.049,-0.257,0.92,85.032,-73.272,69.545
42185760,-0.046,-0.214,0.964,56.542,-51.73,70.63
42185780,-0.067,-0.205,0.978,28.42,-37.992,68.687
42185780,-0.091,-0.228,0.959,2.852,-32.252,63.332
42185800,-0.095,-0.262,0.934,-17.412,-32.235,53.06
42185800,-0.083,-0.283,0.918,-30.852,-36.067,38.99
42185810,-0.051,-0.306,0.899,-38.832,-42.42,23.327
42185820,0.009,-0.334,0.879,-43.277,-48.702,5.897
42185830,0.086,-0.347,0.876,-44.52,-51.59,-11.917
42185840,0.161,-0.314,0.898,-44.887,-51.135,-28.052
42185850,0.215,-0.282,0.917,-47.197,-48.737,-41.667
42185860,0.244,-0.269,0.922,-50.75,-44.38,-53.935
42185870,0.261,-0.263,0.909,-55.177,-37.257,-66.832
42185880,0.289,-0.253,0.903,-58.887,-28.507,-81.235
42185890,0.305,-0.24,0.897,-63.017,-20.947,-90.335
42185900,0.293,-0.225,0.89,-69.247,-14.665,-91.192
42185910,0.271,-0.233,0.869,-79.012,-8.557,-87.202
42185920,0.245,-0.276,0.828,-89.477,-2.782,-79.905
42185930,0.225,-0.35,0.768,-95.9,4.602,-70.577
42185940,0.211,-0.436,0.718,-93.572,13.755,-57.33
42185950,0.188,-0.487,0.691,-81.637,25.2,-38.325
42185960,0.126,-0.527,0.696,-66.272,37.835,-15.697
42185970,0.036,-0.595,0.701,-51.677,48.685,6.895
42185980,-0.072,-0.644,0.709,-37.03,56.07,24.43
42185990,-0.158,-0.66,0.737,-22.697,58.047,36.33
42186000,-0.223,-0.635,0.777,-11.987,54.74,43.925
42186010,-0.296,-0.64,0.831,-8.837,46.9,48.44
42186020,-0.353,-0.752,0.845,-9.87,34.545,47.582
42186030,-0.35,-0.802,0.848,-4.62,23.38,36.942
42186040,-0.312,-0.785,0.875,2.52,15.435,21.472
42186050,-0.281,-0.774,0.913,6.737,14.665,12.827
42186060,-0.344,-0.787,0.951,11.882,15.19,10.22
42186070,-0.364,-0.751,0.985,19.582,10.447,9.047
42186080,-0.385,-0.717,0.971,27.212,0.297,11.427
42186080,-0.364,-0.7,0.933,35.927,-13.737,12.477
42186100,-0.285,-0.651,0.909,44.607,-25.27,12.18
42186100,-0.196,-0.599,0.91,49.35,-32.34,12.267
42186120,-0.16,-0.58,0.927,51.187,-34.685,15.907
42186120,-0.146,-0.544,0.933,55.79,-35.56,20.055
42186140,-0.119,-0.501,0.944,62.982,-36.05,20.597
42186140,-0.1,-0.468,0.939,72.117,-36.12,21.49
42186160,-0.072,-0.417,0.941,81.672,-35.822,22.05
42186160,-0.028,-0.353,0.953,87.797,-34.002,21.7
42186170,-0.001,-0.295,0.962,88.515,-30.362,22.277
42186180,0.008,-0.255,0.951,85.435,-26.407,23.73
42186190,0.016,-0.231,0.927,80.465,-22.627,24.377
42186200,0.026,-0.219,0.907,74.357,-17.657,23.152
42186210,0.016,-0.213,0.905,67.917,-11.567,21.385
42186220,0.013,-0.216,0.9,61.6,-5.355,19.985
42186230,0.011,-0.232,0.898,57.26,0.385,20.772
42186240,0,-0.245,0.884,54.512,5.337,22.75
42186250,-0.031,-0.251,0.881,52.01,9.52,23.642
42186260,-0.073,-0.253,0.895,48.772,11.742,22.715
42186270,-0.112,-0.238,0.933,44.607,10.377,20.527
42186280,-0.142,-0.227,0.963,38.675,4.795,16.467
42186290,-0.152,-0.237,0.956,32.007,-4.9,10.605
42186300,-0.142,-0.242,0.961,25.9,-16.467,3.815
42186310,-0.113,-0.244,0.961,19.46,-27.877,-3.972
42186320,-0.067,-0.246,0.944,12.95,-37.607,-10.99
42186330,-0.018,-0.246,0.929,6.825,-43.4,-15.592
42186340,0.033,-0.267,0.91,1.697,-44.38,-16.765
42186350,0.083,-0.304,0.888,-0.595,-39.952,-13.93
42186360,0.111,-0.333,0.882,0.28,-28.717,-7.91
42186370,0.089,-0.344,0.887,3.762,-14.367,-0.262
42186380,0.036,-0.343,0.907,7.787,-1.225,6.86
42186390,-0.031,-0.319,0.932,10.535,5.827,12.477
42186400,-0.097,-0.29,0.945,9.765,5.6,17.045
42186410,-0.139,-0.255,0.951,4.76,-0.525,20.142
42186420,-0.145,-0.223,0.944,-4.375,-11.83,23.835
42186430,-0.133,-0.201,0.931,-17.132,-25.34,30.1
42186440,-0.128,-0.225,0.909,-31.657,-39.777,39.935
42186450,-0.133,-0.279,0.897,-44.397,-53.69,50.33
42186460,-0.144,-0.337,0.892,-54.022,-67.76,57.102
42186470,-0.172,-0.429,0.84,-59.64,-82.775,56.49
42186480,-0.105,-0.48,0.78,-57.417,-92.19,44.38
42186480,-0.012,-0.472,0.778,-50.277,-93.135,27.44
42186500,0.019,-0.474,0.775,-42,-89.162,10.57
42186500,0.059,-0.469,0.775,-31.132,-81.077,-6.457
42186510,0.098,-0.444,0.788,-19.512,-71.575,-19.967
42186520,0.123,-0.437,0.81,-8.697,-62.825,-25.987
42186530,0.128,-0.425,0.84,0.157,-55.807,-23.782
42186540,0.121,-0.407,0.868,3.342,-49.717,-16.415
42186550,0.095,-0.414,0.912,0.98,-44.87,-7.175
42186560,0.076,-0.424,0.949,-4.917,-39.917,-0.892
42186570,0.088,-0.417,0.959,-13.982,-33.81,1.61
42186580,0.119,-0.421,0.96,-25.41,-27.475,0.402
42186590,0.125,-0.473,0.955,-37.45,-21.682,-1.855
42186600,0.107,-0.621,0.953,-45.535,-18.655,-6.247
42186610,0.093,-0.708,0.947,-37.432,-14.962,-14.875
42186620,0.096,-0.687,0.952,-15.575,-15.032,-20.93
42186630,0.14,-0.546,0.927,8.802,-16.782,-21.542
42186640,0.206,-0.52,0.896,21.315,-13.492,-16.642
42186650,0.233,-0.56,0.879,25.62,-0.962,-7.98
42186660,0.156,-0.593,0.847,28.35,13.37,-0.595
42186670,0.025,-0.576,0.893,35.297,17.115,2.677
42186680,0.065,-0.58,0.926,46.532,15.33,3.99
42186690,0.07,-0.541,0.959,57.75,11.392,6.317
42186700,0.033,-0.437,1.001,62.685,3.482,7.665
42186710,0.112,-0.333,1.045,56.052,-3.972,11.165
42186720,0.119,-0.255,1.069,34.002,-9.782,22.907
42186730,0.041,-0.263,1.061,1.942,-9.905,30.117
42186740,0.034,-0.321,1.023,-27.317,-4.69,25.252
42186750,0.056,-0.394,0.98,-44.222,1.82,16.817
42186760,0.078,-0.442,0.939,-44.975,8.312,12.635
42186770,0.098,-0.467,0.912,-34.51,17.745,12.127
42186780,0.112,-0.457,0.897,-17.937,30.345,17.727
42186790,0.102,-0.404,0.887,-1.942,44.187,28.7
42186800,0.069,-0.362,0.842,7.385,58.292,42.717
42186810,0.01,-0.354,0.826,14.297,70.822,60.13
42186820,-0.08,-0.323,0.818,22.522,78.242,79.31
42186830,-0.125,-0.261,0.839,29.295,81.672,94.325
42186830,-0.178,-0.202,0.883,30.94,80.045,108.255
42186850,-0.231,-0.191,0.901,26.145,73.272,118.702
42186850,-0.226,-0.205,0.898,18.742,66.342,123.672
42186870,-0.175,-0.214,0.889,9.905,65.135,129.097
42186870,-0.137,-0.223,0.874,2.397,67.865,136.675
42186890,-0.038,-0.19,0.874,-3.36,80.43,143.99
42186890,0.024,-0.172,0.871,-14.647,108.342,147.77
42186910,-0.107,-0.22,0.897,-31.097,141.837,143.325
42186910,-0.393,-0.375,0.853,-45.22,163.555,118.72
42186920,-0.677,-0.449,0.86,-46.97,160.282,70.21
42186930,-0.843,-0.289,0.963,-48.842,128.012,4.13
42186940,-0.879,-0.024,1.061,-75.232,68.442,-66.255
42186950,-0.821,0.028,1.061,-127.977,-16.66,-113.907
42186960,-0.714,-0.197,0.829,-191.8,-109.83,-134.575
42186970,-0.394,-0.446,0.517,-237.212,-175.77,-158.287
42186980,0.168,-0.654,0.333,-253.032,-199.132,-183.032
42186990,0.423,-0.862,0.327,-235.252,-183.207,-182.367
42187000,0.413,-0.975,0.565,-177.73,-149.485,-157.15
42187010,0.456,-1.054,0.598,-96.792,-103.792,-132.282
42187020,0.113,-1.043,0.674,-15.61,-82.302,-105.875
42187030,0.008,-0.794,0.811,41.212,-83.562,-84.542
42187040,0.413,-0.57,0.934,71.995,-75.11,-77.49
42187050,0.545,-0.521,0.963,62.142,-51.555,-66.535
42187060,0.504,-0.506,0.991,32.13,-19.145,-49.105
42187070,0.427,-0.495,1.041,-6.807,7.21,-30.047
42187080,0.268,-0.554,1.103,-53.69,20.44,-15.96
42187090,0.089,-0.645,1.108,-92.96,30.047,-12.04
42187100,0.082,-0.764,1.065,-120.137,29.382,-19.827
42187110,0.149,-0.842,0.993,-140.612,26.162,-28.717
42187120,0.109,-0.854,0.937,-155.54,23.24,-30.047
42187130,0.193,-0.832,0.857,-161.752,24.185,-32.672
42187140,0.235,-0.809,0.773,-163.52,29.487,-31.622
42187150,0.176,-0.878,0.684,-164.22,37.467,-23.082
42187160,0.112,-0.897,0.584,-157.272,46.357,-22.54
42187170,0,-0.973,0.508,-131.827,47.74,-21.98
42187170,-0.127,-1.1,0.404,-78.277,35.665,-1.365
42187190,-0.064,-1.104,0.353,0.892,25.27,19.565
42187190,-0.033,-1.029,0.307,96.827,30.415,40.145
42187210,-0.029,-0.877,0.247,197.172,49.175,58.047
42187210,-0.056,-0.671,0.236,282.66,75.25,66.972
42187230,-0.168,-0.446,0.28,344.627,95.585,66.08
