time[ms],accX[g],accY[g],accZ[g],Value 1,Value 2,Value 3
41829780,0.359,-0.447,1.038,-20.23,11.602,13.912
41829780,0.365,-0.46,1.043,-23.695,15.68,18.427
41829800,0.356,-0.481,1.037,-27.352,19.617,20.177
41829800,0.298,-0.513,1.031,-29.802,20.65,19.372
41829820,0.23,-0.561,1.008,-27.107,15.452,16.747
41829820,0.206,-0.589,0.986,-16.17,5.967,11.795
41829830,0.196,-0.597,0.967,1.89,-4.655,4.83
41829840,0.185,-0.584,0.939,25.497,-13.387,-5.145
41829850,0.184,-0.538,0.909,53.077,-17.552,-19.407
41829860,0.182,-0.484,0.87,81.042,-17.447,-36.277
41829870,0.176,-0.417,0.851,106.995,-14.77,-54.635
41829880,0.167,-0.343,0.849,128.415,-12.827,-72.222
41829890,0.145,-0.272,0.854,144.322,-13.44,-85.522
41829900,0.146,-0.214,0.871,154.052,-15.995,-96.442
41829910,0.144,-0.164,0.87,157.64,-18.567,-106.47
41829920,0.132,-0.109,0.881,155.802,-18.742,-115.22
41829930,0.122,-0.084,0.9,146.247,-20.282,-123.567
41829940,0.138,-0.089,0.886,133.507,-20.457,-130.725
41829950,0.158,-0.065,0.87,122.395,-15.487,-137.112
41829960,0.163,-0.04,0.872,111.212,-7.105,-142.047
41829970,0.169,-0.026,0.849,102.27,2.922,-144.095
41829980,0.196,0.121,0.924,96.775,12.407,-143.062
41829990,0.169,0.467,1.039,54.162,23.887,-105.56
41830000,0,-0.238,0.511,22.925,25.235,-65.59
41830010,0.07,-0.035,0.651,64.137,28.525,-90.632
41830020,0.114,0.183,0.807,76.807,43.347,-94.447
41830030,0.014,0.098,0.743,66.622,60.007,-80.237
41830040,-0.076,0.093,0.781,62.002,70.507,-67.777
41830050,-0.135,0.07,0.816,55.317,74.742,-54.547
41830060,-0.175,0.044,0.856,47.442,75.127,-43.68
41830070,-0.248,0.011,0.891,38.885,73.675,-34.632
41830080,-0.281,-0.038,0.902,35.507,68.967,-25.882
41830080,-0.249,-0.11,0.908,40.495,62.79,-22.172
41830100,-0.231,-0.111,0.926,52.395,58.712,-22.977
41830100,-0.22,-0.081,0.948,67.217,54.565,-21.962
41830120,0.001,-0.165,0.941,83.177,52.22,-14.35
41830120,-0.194,-0.017,0.965,101.395,57.942,-3.062
41830140,-0.168,-0.055,1.009,114.082,56.752,-9.345
41830140,-0.17,-0.048,1.056,127.96,55.632,-15.26
41830160,-0.221,0.043,1.109,139.79,44.695,-21.945
41830160,-0.234,0.15,1.147,143.342,27.615,-23.082
41830170,-0.187,0.245,1.189,138.337,9.082,-31.64
41830180,-0.005,0.206,1.138,122.465,-0.77,-43.26
41830190,0.083,0.227,1.07,107.415,3.867,-49.98
41830200,0.108,0.256,1.057,98.542,15.435,-49.682
41830210,0.155,0.215,1.073,97.702,24.902,-35.945
41830220,0.05,0.3,1.039,100.345,28.857,-15.75
41830230,0.021,0.366,1.013,101.08,24.325,-0.595
41830240,-0.108,0.521,0.933,94.692,16.257,12.967
41830250,-0.327,0.431,0.894,98.052,-2.362,13.195
41830260,-0.038,0.527,0.892,90.3,-20.58,-10.412
41830270,-0.024,0.477,0.811,71.68,-34.212,-20.912
41830280,0.05,0.491,0.775,63.227,-40.6,-22.732
41830290,0.122,0.429,0.78,62.475,-41.247,-19.81
41830300,0.129,0.424,0.847,67.41,-35.14,-13.737
41830310,0.141,0.411,0.91,65.94,-25.567,-6.737
41830320,0.149,0.358,0.937,62.142,-12.18,4.952
41830330,-0.015,0.375,0.974,60.392,2.572,13.86
41830340,-0.113,0.389,0.971,58.117,6.737,16.677
41830350,-0.095,0.428,0.975,59.85,-1.522,16.905
41830360,-0.019,0.431,0.967,58.887,-13.3,20.37
41830370,0.001,0.488,0.991,55.527,-18.48,29.172
41830380,0.09,0.502,0.992,47.11,-20.16,34.037
41830390,0.119,0.546,1.002,37.8,-16.677,42.21
41830400,0.215,0.639,1.043,24.202,-8.207,55.037
41830410,0.227,0.603,0.985,4.165,3.675,73.762
41830420,0.166,0.557,1.013,-11.427,14.175,85.085
41830430,0.068,0.364,0.954,-22.715,22.627,72.94
41830440,-0.022,0.416,1.015,-24.43,25.007,39.917
41830450,0.001,0.381,0.974,-26.722,22.12,33.32
41830460,0.156,0.359,0.922,-15.505,26.897,15.82
41830470,-0.009,0.452,0.953,-10.675,27.352,11.707
41830480,-0.088,0.359,0.892,-2.975,17.15,12.897
41830490,0.037,0.507,0.991,6.965,1.995,3.097
41830500,-0.002,0.539,0.959,5.495,-8.96,8.925
41830510,0.125,0.596,0.937,0.507,-19.512,16.555
41830510,0.164,0.566,0.897,-7.77,-20.3,30.747
41830530,0.188,0.471,0.866,-15.032,-20.195,41.02
41830530,0.079,0.348,0.832,-27.247,-15.977,41.282
41830550,-0.053,0.111,0.702,-19.845,-9.852,23.73
41830550,0.06,0.357,0.848,4.095,-4.952,-11.217
41830570,0.152,0.497,0.902,7.385,0.017,-30.905
41830570,0.128,0.545,0.929,-2.1,3.692,-35.297
41830580,0.159,0.576,0.928,-16.835,5.582,-36.767
41830590,0.219,0.599,0.904,-34.632,10.657,-32.427
41830600,0.261,0.625,0.886,-55.352,22.837,-26.11
41830610,0.274,0.609,0.856,-81.48,42.542,-18.97
41830620,0.234,0.568,0.844,-109.305,65.187,-10.097
41830630,0.111,0.474,0.823,-134.435,84.227,-1.802
41830640,-0.019,0.363,0.812,-148.4,95.83,0.122
41830650,-0.126,0.27,0.811,-150.92,98.052,-3.535
41830660,-0.199,0.202,0.824,-143.727,91.77,-10.797
41830670,-0.22,0.15,0.84,-128.31,78.12,-18.375
41830680,-0.186,0.169,0.869,-109.707,63.472,-23.362
41830690,-0.169,0.196,0.899,-95.742,52.517,-24.85
41830700,-0.184,0.193,0.931,-88.06,45.062,-22.207
41830710,-0.176,0.185,0.956,-82.687,39.27,-19.005
41830720,-0.153,0.206,0.988,-79.607,35.35,-15.207
41830730,-0.115,0.243,1.02,-81.2,33.11,-8.925
41830740,-0.097,0.275,1.031,-89.005,33.18,3.675
41830750,-0.104,0.266,1.027,-103.39,34.65,21.07
41830760,-0.152,0.192,0.954,-120.032,38.342,32.585
41830770,-0.152,0.101,0.874,-129.255,47.547,31.675
41830780,-0.13,0.049,0.827,-128.817,61.145,24.955
41830790,-0.04,0.016,0.788,-123.305,79.817,14.525
41830800,-0.183,-0.068,0.771,-116.27,100.817,10.885
41830810,-0.292,-0.046,0.814,-100.135,104.16,11.112
41830820,-0.303,-0.018,0.864,-84.402,97.86,8.505
41830830,-0.319,0.004,0.896,-72.94,86.747,11.235
41830830,-0.339,0.05,0.923,-66.272,74.41,18.882
41830850,-0.335,0.055,0.932,-67.007,60.27,24.482
41830850,-0.316,0.015,0.925,-75.092,51.677,29.732
41830870,-0.305,-0.035,0.867,-84.735,49.927,34.562
41830870,-0.361,-0.083,0.81,-89.442,50.837,38.272
41830890,-0.343,-0.129,0.793,-89.092,54.197,39.9
41830890,-0.336,-0.198,0.817,-87.062,65.292,34.825
41830910,-0.429,-0.226,0.816,-78.242,70.805,25.532
41830910,-0.436,-0.224,0.838,-63.577,69.125,15.417
41830920,-0.556,-0.257,0.84,-47.075,57.312,8.382
41830930,-0.643,-0.218,0.836,-27.055,35.35,-0.7
41830940,-0.642,-0.097,0.902,-10.08,8.19,-11.252
41830950,-0.603,-0.107,0.919,-4.392,-19.565,-17.92
41830960,-0.575,-0.102,0.904,-2.485,-47.022,-22.172
41830970,-0.541,-0.073,0.922,-2.607,-72.292,-25.777
41830980,-0.462,-0.064,0.936,-5.495,-91.595,-29.557
41830990,-0.387,-0.053,0.954,-9.24,-103.775,-31.99
41831000,-0.316,-0.027,0.971,-15.33,-109.112,-34.142
41831010,-0.223,-0.01,0.976,-24.185,-107.275,-35.402
41831020,-0.179,-0.016,0.997,-34.212,-97.807,-33.827
41831030,-0.181,-0.065,0.998,-43.855,-86.607,-31.85
41831040,-0.202,-0.15,0.987,-49.175,-75.6,-29.645
41831050,-0.197,-0.18,0.957,-45.745,-67.602,-25.952
41831060,-0.154,-0.182,0.973,-41.09,-59.57,-20.282
41831070,-0.191,-0.213,0.965,-36.33,-52.202,-15.47
41831080,-0.208,-0.206,0.966,-28.91,-47.88,-10.062
41831090,-0.206,-0.157,0.988,-22.54,-45.675,-6.947
41831100,-0.23,-0.154,0.998,-21.402,-46.567,-5.635
41831110,-0.252,-0.208,0.952,-18.812,-47.495,-3.15
41831120,-0.242,-0.201,0.927,-7.717,-56.787,4.217
41831130,-0.229,-0.162,0.935,-1.89,-68.95,9.695
41831140,-0.251,-0.12,0.975,-6.51,-79.222,5.39
41831150,-0.264,-0.069,0.996,-15.697,-93.642,6.895
41831160,-0.11,-0.187,0.97,-29.277,-108.167,8.627
41831170,-0.158,-0.152,0.964,-37.975,-111.667,11.952
41831180,-0.139,-0.108,1.04,-56.297,-118.002,5.127
41831190,0.139,-0.178,0.997,-82.6,-102.655,-2.1
41831200,0.136,-0.253,0.967,-102.287,-83.177,-0.595
41831210,0.119,-0.316,0.916,-105.472,-61.792,2.047
41831220,0.095,-0.294,0.956,-105.385,-43.837,-1.33
41831230,0.016,-0.345,0.96,-109.112,-36.26,-6.527
41831240,0.084,-0.372,0.933,-108.832,-28.91,-10.797
41831250,0.138,-0.331,0.928,-112.122,-18.777,-10.657
41831260,0.159,-0.43,0.877,-122.552,-9.135,-6.125
41831260,0.086,-0.483,0.932,-120.89,1.627,3.92
41831280,-0.038,-0.483,0.948,-117.74,6.055,23.607
41831280,-0.075,-0.716,0.876,-106.4,-3.342,31.482
41831290,-0.044,-0.696,0.911,-75.74,-11.917,32.34
41831300,0.011,-0.549,0.976,-54.075,-15.855,27.352
41831310,0.016,-0.517,0.914,-46.882,-7.297,20.667
41831320,0.015,-0.487,0.921,-40.652,3.535,8.47
41831330,-0.036,-0.396,0.968,-44.362,13.667,1.715
41831340,-0.101,-0.467,0.873,-57.435,16.66,2.957
41831350,-0.107,-0.578,0.83,-56.542,14.595,5.652
41831360,-0.21,-0.593,0.831,-40.145,7.262,6.632
41831370,-0.219,-0.546,0.881,-20.982,-6.807,4.725
41831380,-0.094,-0.513,0.908,-8.19,-16.537,4.865
41831390,-0.064,-0.47,0.93,-3.745,-19.53,8.382
41831400,-0.026,-0.42,0.93,-7.665,-18.112,9.047
41831410,-0.01,-0.396,0.938,-16.922,-16.082,10.605
41831420,0.033,-0.379,0.961,-24.482,-9.817,10.377
41831430,0.039,-0.382,0.966,-32.917,-2.695,10.115
41831440,0.037,-0.415,0.953,-40.302,4.147,8.925
41831450,0.013,-0.415,0.978,-45.062,8.942,6.615
41831460,-0.026,-0.419,0.934,-52.325,10.622,4.585
41831470,0.001,-0.454,0.909,-57.417,11.217,-2.66
41831480,0.008,-0.472,0.874,-64.54,12.512,-4.777
41831490,0.008,-0.506,0.83,-68.425,13.247,-3.412
41831500,0.028,-0.498,0.815,-67.76,15.19,-2.17
41831510,-0.002,-0.502,0.793,-69.615,19.092,1.12
41831520,-0.023,-0.516,0.774,-71.295,22.295,3.412
41831530,-0.044,-0.555,0.745,-69.912,25.112,3.045
41831540,-0.058,-0.574,0.764,-63.892,26.39,0.315
41831550,-0.081,-0.636,0.738,-54.25,26.95,-1.522
41831560,-0.231,-0.571,0.83,-45.64,16.485,-5.075
41831570,-0.229,-0.604,0.836,-52.395,-3.692,-9.31
41831580,-0.149,-0.617,0.835,-59.902,-19.81,-14.14
41831580,-0.073,-0.696,0.798,-63.91,-26.022,-21.7
41831600,0.122,-0.705,0.844,-62.72,-16.415,-19.582
41831600,-0.109,-0.742,0.815,-58.94,-6.055,-21.927
41831620,-0.116,-0.796,0.755,-50.837,-12.145,-20.545
41831620,-0.045,-0.801,0.727,-40.372,-23.765,-12.092
41831640,0.126,-0.775,0.735,-30.03,-24.482,-6.58
41831640,0.252,-0.754,0.813,-22.96,-6.02,2.012
41831660,0.096,-0.757,0.729,-18.62,16.66,13.912
41831660,-0.075,-0.726,0.724,-11.567,21.07,23.345
41831670,0.021,-0.696,0.788,-6.177,22.522,24.832
41831680,0.004,-0.668,0.777,-5.25,26.18,27.667
41831690,-0.053,-0.635,0.747,-6.44,25.602,27.702
41831700,-0.06,-0.624,0.738,-12.582,24.377,27.037
41831710,-0.178,-0.63,0.711,-22.4,14.157,22.417
41831720,-0.176,-0.645,0.684,-31.552,-0.42,7.437
41831730,-0.062,-0.702,0.702,-34.387,-10.605,-6.247
41831740,-0.013,-0.738,0.691,-30.835,-15.452,-12.74
41831750,0.003,-0.712,0.726,-19.862,-12.53,-13.685
41831760,-0.052,-0.72,0.712,-7.892,-8.102,-12.495
41831770,-0.136,-0.704,0.706,2.852,-12.232,-10.92
41831780,-0.075,-0.697,0.739,9.502,-19.407,-11.795
41831790,0.012,-0.701,0.768,12.407,-20.877,-10.115
41831800,0.029,-0.654,0.78,11.602,-17.692,-8.54
41831810,0.028,-0.673,0.761,5.407,-12.092,-7.035
41831820,0.006,-0.69,0.758,0.875,-6.072,-3.307
41831830,-0.038,-0.686,0.722,-1.47,-0.91,0.63
41831840,-0.042,-0.688,0.729,-0.945,0.787,-0.122
41831850,-0.077,-0.696,0.692,-1.26,0.595,0.017
41831860,-0.13,-0.698,0.67,0.63,-3.255,0.717
41831870,-0.125,-0.663,0.681,5.25,-8.697,-2.957
41831880,-0.134,-0.642,0.655,7.77,-14.28,-6.58
41831890,-0.122,-0.636,0.645,10.692,-19.635,-9.502
41831900,-0.103,-0.609,0.657,13.335,-23.362,-10.885
41831910,-0.09,-0.588,0.655,14.157,-24.045,-12.425
41831920,-0.066,-0.592,0.674,14.122,-20.982,-13.265
41831930,-0.092,-0.554,0.713,13.037,-18.515,-11.27
41831940,-0.087,-0.561,0.729,6.02,-17.937,-12.302
41831950,-0.064,-0.598,0.729,-2.257,-16.537,-12.705
41831960,-0.052,-0.622,0.751,-7.77,-11.97,-11.76
41831960,-0.08,-0.639,0.751,-10.867,-8.75,-11.165
41831980,-0.082,-0.663,0.738,-12.145,-6.615,-11.812
41831980,-0.107,-0.686,0.74,-10.692,-4.97,-12.127
41832000,-0.15,-0.716,0.728,-6.895,-8.417,-12.215
41832000,-0.146,-0.716,0.737,-2.012,-14.962,-15.435
41832010,-0.119,-0.706,0.753,0.735,-20.352,-20.247
41832020,-0.117,-0.693,0.766,0.245,-24.64,-23.747
41832030,-0.093,-0.714,0.757,-1.785,-29.137,-27.79
41832040,-0.092,-0.718,0.753,-1.89,-32.497,-31.325
41832050,-0.064,-0.729,0.742,0.962,-37.135,-32.34
41832060,-0.098,-0.697,0.767,6.352,-46.252,-32.2
41832070,0.109,-0.759,0.736,19.162,-49.315,-33.757
41832080,0.143,-0.691,0.753,31.675,-47.652,-34.405
41832090,0.052,-0.625,0.772,29.137,-49.455,-37.38
41832100,0.188,-0.596,0.76,22.435,-53.637,-42.315
41832110,0.289,-0.584,0.755,16.012,-49.997,-46.077
41832120,0.27,-0.591,0.755,10.185,-40.74,-45.64
41832130,0.301,-0.598,0.74,4.392,-31.517,-46.865
41832140,0.288,-0.576,0.736,-1.505,-23.502,-47.092
41832150,0.257,-0.561,0.729,-7.227,-17.027,-45.902
41832160,0.286,-0.566,0.705,-13.912,-13.737,-45.202
41832170,0.283,-0.554,0.671,-20.492,-10.727,-42.175
41832180,0.344,-0.557,0.641,-24.202,-6.632,-36.505
41832190,0.349,-0.559,0.622,-26.775,4.725,-24.675
41832200,0.348,-0.638,0.658,-27.247,20.982,-14.472
41832210,0.227,-0.731,0.668,-23.152,38.255,-7.787
41832220,0.153,-0.786,0.716,-11.322,46.655,-4.13
41832230,0.069,-0.79,0.754,-1.19,47.897,0.017
41832240,-0.005,-0.78,0.772,4.392,41.212,3.482
41832250,0.021,-0.775,0.782,5.337,33.337,5.46
41832260,-0.009,-0.803,0.766,4.252,26.897,3.64
41832270,-0.02,-0.779,0.775,3.832,17.762,-3.622
41832280,0.014,-0.793,0.749,3.272,8.12,-7.472
41832290,0.033,-0.774,0.754,6.422,2.345,-12.985
41832300,0.046,-0.743,0.766,8.05,-0.157,-19.162
41832310,0.054,-0.712,0.76,7.07,-2.73,-24.325
41832320,0.099,-0.691,0.742,4.515,-4.847,-28
41832330,0.137,-0.658,0.731,1.47,-6.265,-26.862
41832330,0.15,-0.624,0.72,-1.032,-5.565,-22.96
41832350,0.145,-0.615,0.712,-4.725,-4.462,-18.322
41832350,0.155,-0.596,0.697,-8.225,-3.097,-14.402
41832370,0.164,-0.572,0.681,-12.617,-0.192,-11.235
41832370,0.139,-0.56,0.669,-17.955,3.342,-9.03
41832390,0.123,-0.564,0.669,-23.187,5.197,-9.45
41832390,0.143,-0.587,0.657,-29.47,6.3,-9.625
41832410,0.108,-0.652,0.651,-32.655,8.295,-5.565
41832410,0.004,-0.77,0.666,-26.88,5.88,-4.182
41832420,0.038,-0.845,0.691,-7.385,-2.8,-8.277
41832430,0.075,-0.81,0.758,13.09,-9.1,-12.267
41832440,0.078,-0.799,0.829,25.182,-12.827,-16.817
41832450,0.092,-0.808,0.823,32.147,-15.19,-19.722
41832460,0.119,-0.767,0.843,35.402,-15.942,-26.075
41832470,0.035,-0.79,0.814,34.51,-18.445,-29.68
41832480,0.132,-0.735,0.761,40.162,-28.595,-36.382
41832490,0.249,-0.664,0.778,41.195,-33.127,-38.447
41832500,0.312,-0.605,0.743,37.012,-28.98,-29.015
41832510,0.318,-0.56,0.712,34.44,-17.447,-20.282
41832520,0.341,-0.504,0.669,31.745,-2.012,-12.04
41832530,0.322,-0.461,0.65,31.342,16.695,-2.257
41832540,0.224,-0.458,0.624,31.71,32.235,6.72
41832550,0.114,-0.428,0.624,31.377,38.202,10.395
41832560,0.047,-0.413,0.647,24.57,33.757,8.137
41832570,0.006,-0.409,0.656,9.292,22.05,2.485
41832580,0.01,-0.431,0.677,-9.695,7.98,-6.23
41832590,0.094,-0.459,0.696,-29.68,-3.867,-14.822
41832600,0.18,-0.509,0.697,-47.932,-9.152,-16.415
41832610,0.255,-0.587,0.665,-60.147,-5.075,-10.185
41832620,0.19,-0.755,0.615,-59.027,3.797,-2.17
41832630,0.201,-0.644,0.789,-47.337,13.247,9.485
41832640,0.205,-0.803,0.728,-46.182,23.082,17.01
41832650,0.13,-0.887,0.743,-31.465,28.77,23.1
41832660,0.107,-0.868,0.75,-9.467,30.275,20.3
41832670,0.099,-0.744,0.847,4.83,28.91,17.185
41832670,0.091,-0.806,0.797,6.58,26.495,21.77
41832690,0.06,-0.755,0.82,9.292,21.105,17.57
41832690,0.114,-0.716,0.817,8.12,17.045,15.505
41832710,0.048,-0.723,0.796,5.495,14.105,14.717
41832710,0.019,-0.719,0.769,7.192,7.787,8.295
41832730,0.033,-0.671,0.746,11.795,-1.015,-0.14
41832730,0.011,-0.635,0.733,15.382,-8.102,-6.685
41832750,0.028,-0.633,0.713,19.6,-14.945,-14.35
41832750,-0.015,-0.559,0.705,21.717,-24.097,-20.387
41832760,0.174,-0.537,0.749,15.592,-30.415,-21.717
41832770,0.265,-0.609,0.755,4.935,-19.39,-16.975
41832780,0.232,-0.666,0.79,0.682,-3.027,-7.875
41832790,0.167,-0.705,0.812,0.122,9.677,1.925
41832800,0.106,-0.711,0.803,2.747,11.025,6.142
41832810,0.15,-0.65,0.816,6.23,7.962,5.18
41832820,0.193,-0.621,0.792,4.935,8.295,4.62
41832830,0.194,-0.621,0.766,1.347,13.125,3.937
41832840,0.194,-0.63,0.748,-0.28,19.407,4.585
41832850,0.208,-0.616,0.756,-1.522,26.145,5.705
41832860,0.181,-0.633,0.741,-3.78,32.287,7.98
41832870,0.131,-0.642,0.744,-5.25,37.572,9.292
41832880,0.078,-0.635,0.762,-8.067,39.06,7.315
41832890,0.022,-0.716,0.725,-9.467,34.107,3.692
41832900,0.072,-0.609,0.778,-5.6,27.125,-1.015
41832910,0.094,-0.684,0.703,-10.377,21.157,-3.08
41832920,0.092,-0.678,0.749,-7.175,21.49,-2.275
41832930,0.087,-0.685,0.727,-5.95,22.715,1.155
41832940,0.106,-0.641,0.736,-6.265,25.742,2.87
41832950,0.101,-0.627,0.717,-10.71,32.41,7.017
41832960,0.077,-0.589,0.717,-17.587,38.937,11.147
41832970,0.077,-0.671,0.694,-22.872,44.152,14.682
41832980,0.027,-0.703,0.719,-18.322,44.957,18.445
41832990,-0.017,-0.722,0.732,-11.462,41.51,18.672
41833000,0.005,-0.726,0.737,-4.497,34.527,18.48
41833010,0.042,-0.701,0.745,0.595,32.077,18.252
41833020,0.026,-0.718,0.713,2.537,34.965,19.267
41833030,-0.036,-0.704,0.677,7.437,38.43,17.78
41833040,-0.072,-0.656,0.688,12.372,38.675,13.265
41833050,-0.114,-0.63,0.676,11.497,32.97,9.975
41833060,-0.079,-0.628,0.703,11.795,27.982,0.7
41833070,-0.058,-0.658,0.735,10.132,22.575,-2.152
41833080,-0.023,-0.696,0.725,8.382,17.482,0.84
41833080,-0.017,-0.66,0.793,10.272,15.855,6.912
41833100,-0.045,-0.697,0.783,9.905,15.715,14.892
41833100,-0.031,-0.729,0.743,13.877,13.475,19.075
41833120,-0.032,-0.659,0.755,20.405,14.28,20.37
41833120,-0.036,-0.636,0.75,21.612,15.96,19.442
41833140,-0.014,-0.641,0.736,20.685,17.482,20.23
41833140,-0.057,-0.626,0.772,18.007,18.83,22.592
41833160,-0.072,-0.635,0.772,12.11,20.912,20.23
41833160,-0.12,-0.66,0.777,5.442,20.055,14.385
41833170,-0.14,-0.67,0.79,1.645,14.735,7.192
41833180,-0.092,-0.683,0.788,-0.14,8.207,2.922
41833190,-0.085,-0.68,0.793,-1.96,5.932,4.445
41833200,-0.128,-0.684,0.778,-2.8,5.39,6.335
41833210,-0.138,-0.665,0.777,-3.132,3.045,6.387
41833220,-0.15,-0.68,0.748,-4.095,-0.052,4.987
41833230,-0.161,-0.67,0.728,-2.572,-4.112,2.695
41833240,-0.147,-0.663,0.724,0.28,-8.102,0.42
41833250,-0.133,-0.658,0.715,2.52,-11.235,-1.435
41833260,-0.104,-0.623,0.731,3.465,-12.11,-1.242
41833270,-0.103,-0.644,0.746,1.96,-11.882,1.61
41833280,-0.065,-0.695,0.716,0.28,-10.325,2.065
41833290,-0.098,-0.661,0.766,2.572,-9.012,2.992
41833300,-0.073,-0.673,0.79,2.607,-12.285,4.83
41833310,-0.015,-0.691,0.793,0.14,-13.632,3.395
41833320,0.051,-0.67,0.826,-2.345,-10.71,-1.382
41833330,0.052,-0.634,0.811,-7.665,-5.53,-3.36
41833340,0.02,-0.63,0.78,-14.157,1.085,-2.257
41833350,-0.002,-0.617,0.754,-19.39,6.597,-1.207
41833360,-0.021,-0.605,0.744,-24.255,11.725,-0.647
41833370,-0.079,-0.617,0.736,-29.89,13.405,-0.98
41833380,-0.049,-0.654,0.723,-35.612,13.107,-4.217
41833390,-0.088,-0.684,0.715,-37.66,14.507,-6.282
41833400,-0.123,-0.71,0.696,-36.242,13.58,-7.035
41833410,-0.113,-0.695,0.707,-31.64,14.28,-7.28
41833420,-0.151,-0.705,0.718,-29.067,14.14,-5.74
41833420,-0.164,-0.745,0.716,-24.85,10.657,-2.695
41833440,-0.13,-0.764,0.708,-16.765,5.617,-2.38
41833440,-0.139,-0.717,0.707,-9.292,0.315,-3.22
41833460,-0.05,-0.715,0.714,-4.357,-1.732,-6.877
41833460,-0.038,-0.688,0.725,-3.097,0.052,-6.982
41833480,-0.045,-0.689,0.719,-4.322,3.377,-5.337
41833480,-0.065,-0.694,0.704,-5.355,5.46,-4.567
41833500,-0.039,-0.681,0.696,-5.372,7.262,-4.375
41833500,-0.03,-0.67,0.698,-6.545,10.517,-3.587
41833510,-0.039,-0.661,0.688,-8.032,14.175,-3.412
41833520,-0.005,-0.646,0.697,-10.342,17.99,-3.517
41833530,0.011,-0.654,0.692,-15.015,23.362,-2.432
41833540,-0.015,-0.679,0.699,-19.302,29.295,-1.05
41833550,-0.027,-0.717,0.703,-20.422,33.215,-0.087
41833560,-0.01,-0.73,0.716,-18.602,36.802,2.397
41833570,-0.041,-0.738,0.689,-17.64,41.79,6.877
41833580,-0.108,-0.717,0.693,-17.762,44.835,12.057
41833590,-0.087,-0.761,0.678,-16.537,44.555,15.82
41833600,-0.082,-0.692,0.648,-13.23,45.85,18.97
41833610,-0.131,-0.661,0.663,-14.542,48.142,18.76
41833620,-0.081,-0.684,0.657,-16.537,50.435,18.112
41833630,-0.137,-0.723,0.659,-16.555,52.937,17.797
41833640,-0.189,-0.753,0.683,-13.685,53.41,15.067
41833650,-0.114,-0.756,0.698,-10.22,52.36,13.772
41833660,-0.137,-0.754,0.68,-8.662,52.5,16.467
41833670,-0.136,-0.739,0.661,-6.755,54.127,16.887
41833680,-0.13,-0.736,0.652,-5.075,56.577,16.1
41833690,-0.161,-0.699,0.656,-4.62,58.94,16.642
41833700,-0.213,-0.743,0.623,-6.107,58.66,18.812
41833710,-0.216,-0.761,0.628,-4.112,56.402,16.047
41833720,-0.226,-0.736,0.635,-2.012,55.58,15.032
41833730,-0.218,-0.714,0.64,-2.432,56.087,15.645
41833740,-0.271,-0.701,0.649,-7.245,54.267,21.7
41833750,-0.21,-0.7,0.656,-8.365,53.2,25.655
41833760,-0.217,-0.697,0.662,-8.995,55.492,33.512
41833770,-0.244,-0.71,0.669,-10.185,57.732,38.08
41833780,-0.275,-0.705,0.678,-12.67,59.342,36.627
41833790,-0.327,-0.76,0.647,-14.017,59.272,34.51
41833800,-0.381,-0.749,0.641,-9.292,55.93,31.675
41833810,-0.392,-0.703,0.651,-7.647,50.102,30.17
41833820,-0.392,-0.729,0.62,-11.55,46.812,31.202
41833830,-0.441,-0.767,0.616,-13.23,45.272,32.27
41833830,-0.453,-0.79,0.604,-12.442,40.775,32.777
41833850,-0.4,-0.785,0.635,-10.867,36.54,33.302
41833850,-0.399,-0.77,0.639,-13.072,32.182,35.455
41833870,-0.358,-0.726,0.618,-19.722,30.205,33.775
41833870,-0.36,-0.77,0.576,-32.165,29.575,33.355
41833890,-0.39,-0.782,0.553,-34.51,31.272,33.512
41833890,-0.396,-0.788,0.499,-30.187,31.815,27.3
41833910,-0.423,-0.835,0.503,-24.832,31.412,23.905
41833910,-0.54,-0.887,0.45,-7.665,24.15,21.857
41833920,-0.455,-0.676,0.433,13.002,16.17,6.755
41833930,-0.518,-0.64,0.46,11.725,15.522,3.377
41833940,-0.672,-0.824,0.415,9.31,15.365,3.325
41833950,-0.73,-0.816,0.469,19.285,6.405,-6.562
41833960,-0.713,-0.75,0.536,25.655,-6.58,-17.727
41833970,-0.706,-0.755,0.58,23.66,-19.092,-25.095
41833980,-0.664,-0.771,0.615,19.845,-30.537,-29.452
41833990,-0.654,-0.621,0.656,14.175,-43.12,-32.375
41834000,-0.356,-0.764,0.649,-0.98,-56.332,-38.115
41834010,-0.146,-0.759,0.668,2.362,-41.177,-29.4
41834020,-0.403,-0.65,0.716,6.737,-29.82,-22.452
41834030,-0.29,-0.612,0.685,-0.21,-35.245,-24.377
41834040,-0.139,-0.575,0.661,-9.397,-39.445,-28
41834050,-0.027,-0.625,0.644,-20.562,-31.29,-24.867
41834060,-0.046,-0.633,0.697,-28.402,-10.587,-16.45
41834070,-0.198,-0.722,0.687,-39.41,3.412,-3.5
41834080,-0.244,-0.727,0.648,-44.59,8.207,4.305
41834090,-0.354,-0.731,0.506,-40.547,8.977,3.552
41834100,-0.142,-0.62,0.565,-40.302,17.132,-3.255
41834110,-0.431,-0.744,0.54,-47.547,33.495,3.99
41834120,-0.536,-0.82,0.494,-42.28,29.662,3.202
41834130,-0.485,-0.768,0.502,-31.465,18.602,-3.43
41834140,-0.444,-0.783,0.498,-25.445,10.78,-6.037
41834150,-0.444,-0.78,0.505,-19.302,6.457,-4.34
41834160,-0.462,-0.776,0.515,-13.632,1.697,-2.835
41834170,-0.411,-0.777,0.5,-9.555,-5.407,-3.657
41834170,-0.358,-0.771,0.528,-6.912,-9.52,-3.85
41834190,-0.312,-0.782,0.535,-5.565,-8.732,-3.132
41834190,-0.325,-0.79,0.517,-2.572,-7.84,-4.567
41834210,-0.331,-0.792,0.504,2.03,-8.277,-6.632
41834210,-0.307,-0.773,0.507,6.44,-9.572,-11.777
41834230,-0.29,-0.767,0.504,7.735,-8.575,-13.842
41834230,-0.31,-0.777,0.515,4.147,-7.682,-11.795
41834250,-0.33,-0.819,0.5,-1.505,-6.702,-10.185
41834250,-0.365,-0.818,0.496,-5.092,-5.25,-9.94
41834260,-0.406,-0.816,0.497,-8.242,-4.462,-8.925
41834270,-0.493,-0.816,0.497,-9.537,-7.402,-8.47
41834280,-0.533,-0.816,0.506,-11.865,-18.06,-13.562
41834290,-0.472,-0.869,0.482,-15.207,-28.385,-18.637
41834300,-0.506,-0.792,0.527,-13.317,-33.565,-27.317
41834310,-0.452,-0.89,0.5,-15.155,-39.707,-29.487
41834320,-0.476,-0.826,0.524,-7.035,-45.902,-28.577
41834330,-0.423,-0.743,0.56,-1.277,-53.707,-31.92
41834340,-0.321,-0.782,0.537,-3.92,-56.227,-32.987
41834350,-0.327,-0.764,0.561,-4.69,-55.02,-33.267
41834360,-0.278,-0.743,0.567,-7.157,-54.302,-36.837
41834370,-0.227,-0.764,0.544,-12.95,-53.077,-39.585
41834380,-0.154,-0.732,0.563,-15.417,-48.685,-42.017
41834390,-0.091,-0.729,0.564,-18.882,-41.912,-39.235
41834400,-0.004,-0.721,0.52,-19.845,-32.97,-33.302
41834410,0.122,-0.635,0.521,-18.392,-20.597,-24.815
41834420,0.125,-0.617,0.499,-21.402,-1.977,-11.445
41834430,0.114,-0.705,0.52,-29.33,16.852,-0.14
41834440,0.044,-0.816,0.468,-34.755,29.365,7.717
41834450,-0.031,-0.844,0.47,-33.197,37.467,12.372
41834460,-0.111,-0.923,0.45,-31.5,43.137,18.497
41834470,-0.22,-0.928,0.435,-27.195,46.147,26.46
41834480,-0.348,-0.974,0.377,-23.975,46.287,31.552
41834490,-0.407,-0.998,0.385,-16.73,42.91,31.22
41834500,-0.479,-1.014,0.411,-7.805,36.82,30.17
41834510,-0.538,-1.029,0.422,1.785,27.282,25.917
41834520,-0.558,-1,0.45,10.43,16.397,19.652
41834530,-0.607,-0.936,0.459,16.992,7.63,12.162
41834540,-0.626,-0.891,0.473,21.962,-2.73,2.8
41834550,-0.545,-0.848,0.522,25.882,-14.175,-7.315
41834560,-0.441,-0.82,0.547,28.105,-23.1,-11.532
41834570,-0.341,-0.742,0.571,29.855,-28.455,-17.64
41834580,-0.211,-0.614,0.546,25.847,-27.527,-21.595
41834580,-0.183,-0.741,0.596,16.8,-20.562,-23.082
41834600,-0.137,-0.775,0.683,14.052,-18.742,-21.297
41834600,-0.009,-0.727,0.631,11.322,-18.287,-14.192
41834620,0.048,-0.623,0.627,5.46,-8.452,-12.932
41834620,-0.002,-0.706,0.651,-5.302,5.425,-6.597
41834640,-0.071,-0.76,0.619,-11.812,15.05,0.892
41834640,-0.188,-0.743,0.566,-18.217,22.942,1.977
41834660,-0.384,-0.826,0.503,-23.362,27.685,-2.082
41834660,-0.53,-0.923,0.459,-23.222,24.202,-8.33
41834670,-0.637,-0.992,0.411,-17.745,14.332,-18.217
41834680,-0.666,-1.028,0.423,-9.397,1.4,-31.342
41834690,-0.627,-1.066,0.437,0.962,-13.912,-43.592
41834700,-0.548,-0.993,0.451,13.65,-28.857,-53.445
41834710,-0.497,-0.822,0.447,25.952,-45.202,-66.08
41834720,-0.005,-0.873,0.587,27.142,-51.905,-73.01
41834730,-0.155,-0.887,0.516,21.035,-38.272,-53.9
41834740,-0.092,-0.749,0.539,27.912,-32.165,-45.815
41834750,0.094,-0.664,0.506,26.722,-30.222,-36.697
41834760,0.249,-0.614,0.529,20.685,-17.552,-28.122
41834770,0.201,-0.683,0.53,8.767,1.837,-13.65
41834780,0.113,-0.772,0.515,-0.98,17.272,-5.827
41834790,0.021,-0.823,0.504,-6.86,29.032,-7.84
41834800,-0.164,-0.829,0.511,-12.337,37.782,-10.605
41834810,-0.276,-0.901,0.482,-14.927,38.01,-8.75
41834820,-0.414,-0.92,0.48,-12.18,35.28,-7.49
41834830,-0.499,-0.952,0.497,-8.435,26.005,-5.617
41834840,-0.451,-0.991,0.503,-3.062,12.547,-3.43
41834850,-0.465,-0.943,0.516,5.617,1.592,-4.97
41834860,-0.4,-0.912,0.518,10.78,-10.815,-9.222
41834870,-0.291,-0.937,0.507,14.122,-19.18,-14.175
41834880,-0.27,-0.94,0.521,19.582,-21.647,-19.477
41834890,-0.232,-0.942,0.55,26.005,-24.955,-25.865
41834900,-0.143,-0.943,0.546,33.565,-29.575,-31.01
41834910,-0.031,-0.866,0.54,40.88,-31.71,-32.13
41834920,-0.015,-0.789,0.539,42.035,-27.422,-28.367
41834920,-0.027,-0.806,0.551,39.742,-20.947,-21.7
41834940,-0.05,-0.859,0.556,38.85,-17.447,-13.16
41834940,-0.053,-0.859,0.548,42.227,-17.815,-3.325
41834960,-0.046,-0.79,0.525,48.842,-20.842,13.265
41834960,-0.01,-0.702,0.509,54.39,-23.992,36.435
41834980,0.03,-0.696,0.534,50.855,-23.222,60.147
41834980,-0.053,-0.794,0.547,37.292,-12.88,60.725
41835000,-0.176,-0.896,0.591,26.775,0.35,31.29
41835000,-0.265,-0.899,0.652,22.19,-3.517,4.987
41835010,-0.508,-0.897,0.649,18.322,-22.312,-13.72
41835020,-0.568,-0.956,0.621,21.157,-61.967,-39.602
41835030,-0.333,-1.043,0.564,35.14,-98.98,-62.002
41835040,-0.112,-0.91,0.638,60.392,-117.617,-70.787
41835050,0.12,-0.834,0.685,78.855,-104.457,-72.852
41835060,0.198,-0.817,0.694,93.047,-73.64,-63
41835070,0.21,-0.727,0.766,102.812,-39.27,-44.52
41835080,0.175,-0.68,0.716,101.395,-4.025,-23.73
41835090,0.074,-0.714,0.723,95.76,19.88,-1.557
41835100,0.027,-0.608,0.803,87.237,33.355,18.602
41835110,-0.046,-0.635,0.746,69.86,46.025,33.197
41835120,-0.185,-0.673,0.736,56.297,49.28,40.337
41835130,-0.158,-0.682,0.704,48.125,47.845,38.552
41835140,-0.102,-0.711,0.702,45.15,49.717,36.855
41835150,-0.074,-0.75,0.667,49.98,59.605,35.542
41835160,-0.146,-0.715,0.672,65.012,71.295,36.487
41835170,-0.249,-0.654,0.71,78.085,72.957,40.32
41835180,-0.275,-0.594,0.728,84.42,62.632,45.412
41835190,-0.277,-0.569,0.755,84.472,47.95,49.07
41835200,-0.28,-0.542,0.771,79.17,33.232,46.865
41835210,-0.263,-0.523,0.759,68.967,21.612,38.92
41835220,-0.266,-0.52,0.747,55.632,13.72,28.752
41835230,-0.273,-0.54,0.73,44.8,5.6,19.617
41835240,-0.264,-0.572,0.693,37.87,-2.467,11.392
41835250,-0.228,-0.565,0.674,35.245,-6.667,3.78
41835260,-0.2,-0.537,0.675,33.95,-7.07,-1.102
41835270,-0.196,-0.513,0.679,30.432,-5.092,-2.66
41835280,-0.194,-0.493,0.699,24.902,-2.31,-2.572
41835290,-0.209,-0.47,0.715,16.8,0.612,-1.942
41835300,-0.226,-0.479,0.71,6.335,0.997,-0.21
41835310,-0.228,-0.498,0.696,-3.482,-0.28,1.452
41835320,-0.217,-0.501,0.698,-11.865,-1.032,3.36
41835330,-0.211,-0.51,0.701,-20.807,-0.647,5.442
41835330,-0.226,-0.544,0.683,-29.452,0.892,5.897
41835350,-0.231,-0.562,0.684,-34.3,3.237,3.552
41835350,-0.243,-0.57,0.69,-37.17,3.937,0.297
41835370,-0.26,-0.593,0.693,-39.217,2.695,-2.747
41835370,-0.273,-0.618,0.69,-40.057,-0.105,-5.792
41835380,-0.277,-0.641,0.69,-38.657,-4.287,-8.487
41835390,-0.274,-0.668,0.682,-35.035,-8.75,-10.132
41835400,-0.27,-0.688,0.678,-28.332,-13.09,-10.955
41835410,-0.266,-0.697,0.682,-19.845,-17.097,-10.727
41835420,-0.256,-0.702,0.688,-11.147,-20.65,-9.73
41835430,-0.234,-0.692,0.701,-3.15,-22.557,-8.522
41835440,-0.218,-0.678,0.717,2.572,-23.275,-7.122
41835450,-0.209,-0.678,0.719,5.915,-22.872,-5.88
41835460,-0.206,-0.672,0.74,9.187,-22.242,-4.567
41835470,-0.205,-0.659,0.755,11.532,-21.945,-2.66
41835480,-0.203,-0.659,0.77,12.372,-22.487,0.245
41835490,-0.197,-0.664,0.776,13.317,-22.942,3.377
41835500,-0.165,-0.656,0.795,15.085,-21.945,6.65
41835510,-0.138,-0.647,0.811,15.925,-17.675,10.01
41835520,-0.124,-0.644,0.818,16.66,-11.602,13.562
41835530,-0.114,-0.631,0.823,18.445,-4.532,16.8
41835540,-0.125,-0.613,0.832,20.352,2.59,19.827
41835550,-0.15,-0.603,0.834,22.137,7.857,22.155
41835560,-0.179,-0.605,0.828,24.745,10.64,23.047
41835570,-0.203,-0.597,0.828,28.84,11.182,22.225
41835580,-0.22,-0.584,0.832,32.777,10.412,20.09
41835590,-0.236,-0.579,0.832,35.525,8.067,18.007
41835600,-0.242,-0.569,0.838,37.555,5.057,15.89
41835610,-0.248,-0.554,0.847,38.43,1.172,13.877
41835620,-0.244,-0.543,0.854,37.642,-3.29,12.267
41835630,-0.232,-0.537,0.857,35.787,-7.717,10.815
41835640,-0.216,-0.523,0.859,33.495,-11.2,9.467
41835650,-0.208,-0.518,0.861,29.872,-13.177,8.26
41835660,-0.195,-0.52,0.849,25.812,-13.142,5.67
41835670,-0.195,-0.519,0.843,22.522,-11.672,2.555
41835670,-0.2,-0.513,0.838,19.617,-9.782,-0.455
41835690,-0.207,-0.513,0.83,16.975,-8.505,-2.38
41835690,-0.211,-0.511,0.82,14.682,-8.155,-3.622
41835710,-0.213,-0.507,0.815,12.582,-8.4,-4.34
41835710,-0.216,-0.508,0.811,10.272,-8.942,-4.585
41835730,-0.22,-0.51,0.801,7.49,-9.572,-4.672
41835730,-0.217,-0.513,0.795,4.725,-9.975,-4.76
41835750,-0.221,-0.513,0.792,1.907,-10.552,-4.62
41835750,-0.221,-0.52,0.787,-1.085,-11.55,-4.287
41835760,-0.219,-0.529,0.78,-3.272,-13.02,-3.307
41835770,-0.218,-0.524,0.78,-4.48,-14.595,-2.082
41835780,-0.213,-0.517,0.784,-5.967,-15.96,-0.577
41835790,-0.21,-0.523,0.792,-7.875,-17.132,1.015
41835800,-0.206,-0.539,0.791,-9.292,-17.955,1.89
41835810,-0.205,-0.553,0.792,-8.802,-18.235,2.205
41835820,-0.203,-0.566,0.791,-6.842,-18.62,2.537
41835830,-0.185,-0.576,0.793,-3.832,-18.095,2.362
41835840,-0.17,-0.575,0.802,-0.437,-15.627,1.627
41835850,-0.174,-0.574,0.808,2.712,-12.757,0.7
41835860,-0.186,-0.578,0.815,5.827,-11.462,-0.035
41835870,-0.188,-0.584,0.821,9.24,-12.092,-0.175
41835880,-0.183,-0.586,0.826,12.565,-13.79,-0.105
41835890,-0.173,-0.577,0.824,15.47,-15.61,-0.315
41835900,-0.164,-0.554,0.831,17.237,-16.765,-0.735
41835910,-0.147,-0.535,0.836,17.202,-17.045,-1.225
41835920,-0.13,-0.522,0.835,15.627,-16.292,-1.172
41835930,-0.125,-0.511,0.833,13.23,-14.63,-0.28
41835940,-0.116,-0.505,0.833,10.57,-12.145,0.717
41835950,-0.115,-0.502,0.835,7.56,-9.17,1.977
41835960,-0.122,-0.502,0.834,5.197,-6.562,2.87
41835970,-0.129,-0.497,0.841,3.377,-4.305,3.22
41835980,-0.136,-0.496,0.845,1.242,-2.17,3.587
41835990,-0.142,-0.509,0.838,-0.472,-0.385,4.147
41836000,-0.153,-0.527,0.836,-1.452,0.927,4.532
41836010,-0.171,-0.543,0.844,-2.222,2.135,4.462
41836020,-0.181,-0.567,0.843,-3.062,2.975,3.955
41836030,-0.194,-0.59,0.841,-3.255,2.677,3.85
41836040,-0.198,-0.606,0.837,-2.275,1.4,4.252
41836050,-0.195,-0.614,0.834,-1.277,0.21,5.355
41836050,-0.192,-0.627,0.824,-0.035,-0.105,6.702
41836070,-0.189,-0.637,0.813,2.065,0.822,7.577
41836070,-0.188,-0.637,0.806,4.9,2.327,8.365
41836080,-0.19,-0.629,0.803,8.277,3.92,9.905
41836090,-0.192,-0.619,0.795,11.392,5.057,12.285
41836100,-0.198,-0.61,0.79,14.735,5.932,14.455
41836110,-0.202,-0.597,0.79,18.515,6.475,16.362
41836120,-0.198,-0.577,0.798,21.717,6.405,18.427
41836130,-0.191,-0.559,0.807,23.222,6.282,20.632
41836140,-0.188,-0.547,0.821,23.275,5.827,23.03
41836150,-0.199,-0.544,0.827,22.4,4.742,24.78
41836160,-0.2,-0.548,0.83,22.417,3.552,24.902
41836170,-0.205,-0.543,0.841,24.097,1.767,24.57
41836180,-0.208,-0.532,0.855,26.862,-0.227,23.572
41836190,-0.209,-0.524,0.86,30.257,-2.222,22.575
41836200,-0.213,-0.513,0.865,35.07,-4.55,22.015
41836210,-0.211,-0.5,0.871,40.565,-6.667,21.927
41836220,-0.198,-0.481,0.883,45.43,-7.507,21.98
41836230,-0.187,-0.453,0.895,48.58,-6.37,21.35
41836240,-0.189,-0.427,0.908,49.472,-3.36,18.882
41836250,-0.185,-0.397,0.926,48.737,0,15.767
41836260,-0.153,-0.366,0.927,45.815,3.605,13.282
41836270,-0.112,-0.35,0.926,41.212,8.837,13.772
41836280,-0.079,-0.327,0.915,35.105,17.745,16.695
41836290,0.046,-0.272,0.928,27.02,34.615,22.172
41836300,0.139,-0.213,0.932,12.6,60.445,32.9
41836310,0.11,-0.193,0.913,-6.23,91.14,46.847
41836320,0.082,-0.187,0.908,-24.587,122.027,59.307
41836330,-0.025,-0.206,0.884,-41.895,147.14,68.845
41836340,-0.206,-0.27,0.847,-55.65,162.505,71.12
41836350,-0.358,-0.333,0.8,-62.912,165.252,63.997
41836360,-0.461,-0.389,0.778,-64.715,158.025,49.752
41836370,-0.522,-0.434,0.754,-63.07,142.887,30.467
41836380,-0.579,-0.462,0.725,-59.517,122.272,11.97
41836390,-0.597,-0.486,0.706,-54.81,98.227,-3.57
41836400,-0.573,-0.503,0.69,-50.68,74.847,-14.875
41836410,-0.557,-0.514,0.671,-48.912,55.737,-20.597
41836420,-0.548,-0.526,0.658,-48.195,40.74,-21.91
41836420,-0.507,-0.532,0.644,-47.775,30.852,-20.772
41836440,-0.477,-0.542,0.632,-48.79,28.052,-17.815
41836440,-0.456,-0.556,0.623,-50.225,30.747,-13.055
41836460,-0.469,-0.567,0.608,-51.362,35.35,-5.355
41836460,-0.495,-0.578,0.598,-51.922,40.88,2.31
41836480,-0.529,-0.59,0.594,-51.905,45.797,8.995
41836480,-0.57,-0.601,0.601,-50.4,48.44,15.277
41836500,-0.605,-0.618,0.609,-47.775,48.527,19.53
41836500,-0.656,-0.647,0.613,-42.927,45.762,20.65
41836510,-0.716,-0.685,0.627,-33.425,38.202,18.27
41836520,-0.737,-0.694,0.643,-20.247,26.372,13.597
41836530,-0.713,-0.682,0.662,-7.49,14.35,7.77
41836540,-0.675,-0.649,0.688,2.905,4.777,2.135
41836550,-0.638,-0.631,0.722,8.557,-0.735,-1.26
41836560,-0.687,-0.642,0.693,10.885,-7.682,-3.832
41836570,-0.634,-0.606,0.668,15.662,-19.355,-8.697
41836580,-0.514,-0.539,0.685,16.782,-25.025,-13.545
41836590,-0.442,-0.513,0.689,12.932,-21.385,-14.245
41836600,-0.369,-0.5,0.685,8.312,-11.235,-8.925
41836610,-0.346,-0.472,0.693,2.887,2.152,2.45
41836620,-0.46,-0.458,0.676,-3.36,14.787,15.102
41836630,-0.59,-0.475,0.668,-7.752,14.332,21.507
41836640,-0.493,-0.484,0.658,-9.87,7.647,19.845
41836650,-0.387,-0.498,0.662,-11.83,7.822,16.187
41836660,-0.342,-0.504,0.671,-13.72,20.247,16.327
41836670,-0.431,-0.511,0.686,-15.505,37.24,20.685
41836680,-0.549,-0.517,0.662,-16.625,45.517,26.215
41836690,-0.592,-0.515,0.675,-16.205,48.317,28.455
41836700,-0.668,-0.525,0.654,-16.572,47.04,27.965
41836710,-0.741,-0.552,0.625,-15.365,37.8,23.94
41836720,-0.72,-0.562,0.594,-10.745,22.032,15.697
41836730,-0.632,-0.534,0.605,-5.95,9.537,8.4
41836740,-0.608,-0.536,0.591,-4.48,5.932,4.165
41836750,-0.64,-0.541,0.576,-1.277,5.617,2.905
41836760,-0.653,-0.544,0.567,3.64,4.882,1.942
41836760,-0.649,-0.556,0.557,9.695,3.22,0.21
41836780,-0.644,-0.561,0.556,17.132,1.75,-0.612
41836780,-0.63,-0.55,0.571,24.307,0.735,-0.875
41836800,-0.607,-0.542,0.591,28.682,0.787,-0.105
41836800,-0.566,-0.527,0.617,28.857,3.062,2.747
41836820,-0.571,-0.511,0.641,25.147,7.35,8.767
41836820,-0.693,-0.504,0.629,19.04,5.985,15.277
41836830,-0.69,-0.472,0.646,11.095,-0.577,16.94
41836840,-0.654,-0.488,0.631,0.857,-5.67,18.287
41836850,-0.588,-0.539,0.667,-8.557,-5.285,19.722
41836860,-0.391,-0.598,0.654,-13.265,10.797,23.957
41836870,-0.507,-0.64,0.609,-9.24,28.56,35.367
41836880,-0.628,-0.624,0.601,1.592,38.01,42.56
41836890,-0.653,-0.61,0.586,15.347,38.377,46.795
41836900,-0.677,-0.564,0.599,28.07,33.967,43.89
41836910,-0.672,-0.528,0.615,37.117,28.262,35.822
41836920,-0.662,-0.488,0.632,41.58,21.507,27.002
41836930,-0.623,-0.437,0.654,39.707,15.33,18.76
41836940,-0.61,-0.395,0.658,30.205,10.64,13.842
41836950,-0.565,-0.363,0.66,16.8,10.29,12.267
41836960,-0.536,-0.337,0.664,-0.525,15.05,14.105
41836970,-0.528,-0.339,0.637,-20.895,25.165,18.952
41836980,-0.521,-0.341,0.619,-42.647,37.257,27.37
41836990,-0.577,-0.379,0.598,-64.68,49.035,37.24
41837000,-0.691,-0.474,0.548,-79.38,61.145,42.14
41837010,-0.812,-0.605,0.499,-81.62,64.032,37.502
41837020,-0.888,-0.68,0.477,-69.842,59.027,27.212
41837030,-1.036,-0.665,0.498,-49.787,41.947,14.945
41837040,-0.971,-0.659,0.505,-25.865,17.062,-4.287
41837050,-0.779,-0.67,0.481,-2.87,-3.78,-17.867
41837060,-0.757,-0.621,0.465,15.75,-18.427,-19.477
41837070,-0.795,-0.512,0.509,30.187,-26.705,-20.842
41837080,-0.718,-0.44,0.547,34.492,-30.642,-26.617
41837090,-0.65,-0.427,0.553,28.91,-32.322,-27.877
41837100,-0.61,-0.413,0.555,18.655,-30.94,-24.78
41837110,-0.583,-0.381,0.574,5.25,-26.355,-19.25
41837120,-0.571,-0.373,0.584,-10.745,-18.742,-13.02
41837130,-0.59,-0.402,0.576,-26.005,-9.695,-8.715
41837140,-0.652,-0.458,0.567,-36.277,-3.22,-7.787
41837150,-0.717,-0.518,0.546,-38.097,-4.882,-9.905
41837160,-0.735,-0.547,0.541,-32.165,-13.545,-13.702
41837170,-0.712,-0.559,0.547,-22.382,-22.102,-17.972
41837170,-0.701,-0.555,0.553,-12.232,-28.297,-20.107
41837190,-0.697,-0.538,0.549,-3.517,-31.64,-20.597
41837190,-0.667,-0.514,0.553,2.1,-31.587,-20.492
41837210,-0.64,-0.514,0.56,2.695,-27.685,-19.197
41837210,-0.651,-0.527,0.567,1.907,-21.507,-15.382
41837230,-0.673,-0.543,0.563,2.292,-17.045,-10.885
41837230,-0.669,-0.551,0.562,3.482,-15.085,-7.42
41837250,-0.675,-0.548,0.548,5.005,-13.895,-5.32
41837250,-0.686,-0.538,0.533,6.702,-12.915,-5.687
41837260,-0.677,-0.527,0.525,8.4,-12.46,-8.662
41837270,-0.674,-0.526,0.509,10.167,-12.617,-11.62
41837280,-0.683,-0.523,0.513,13.125,-13.79,-12.862
41837290,-0.693,-0.512,0.52,17.202,-18.13,-13.387
41837300,-0.68,-0.507,0.536,20.895,-24.01,-14.192
41837310,-0.659,-0.498,0.554,23.817,-29.872,-16.187
41837320,-0.651,-0.488,0.576,25.025,-35.875,-19.162
41837330,-0.628,-0.478,0.589,24.01,-42.122,-23.625
41837340,-0.594,-0.472,0.606,20.807,-47.722,-27.3
41837350,-0.578,-0.47,0.625,17.062,-52.832,-29.435
41837360,-0.558,-0.51,0.626,14.087,-57.207,-30.397
41837370,-0.526,-0.536,0.627,15.802,-57.47,-30.397
41837380,-0.485,-0.549,0.644,21.052,-53.252,-31.36
41837390,-0.478,-0.578,0.647,27.142,-45.43,-29.102
41837400,-0.468,-0.573,0.675,34.965,-36.4,-26.32
41837410,-0.458,-0.54,0.693,40.897,-27.3,-25.357
41837420,-0.467,-0.522,0.7,42.437,-19.232,-24.745
41837430,-0.472,-0.528,0.72,40.705,-11.602,-22.995
41837440,-0.508,-0.509,0.734,36.767,-7.525,-20.387
41837450,-0.519,-0.511,0.74,30.187,-6.317,-18.445
41837460,-0.517,-0.524,0.738,23.467,-3.517,-18.532
41837470,-0.525,-0.522,0.742,17.762,-0.63,-20.912
41837480,-0.525,-0.53,0.742,12.547,1.767,-24.115
41837490,-0.523,-0.518,0.748,9.467,4.025,-25.27
41837500,-0.524,-0.499,0.756,5.67,4.725,-22.347
41837510,-0.569,-0.506,0.744,-0.367,2.45,-15.68
41837510,-0.569,-0.558,0.72,-5.6,-1.417,-12.005
41837530,-0.507,-0.582,0.7,-5.425,-2.082,-13.912
41837530,-0.496,-0.555,0.693,-1.277,1.54,-18.812
41837550,-0.544,-0.535,0.698,0.927,2.625,-24.885
41837550,-0.49,-0.507,0.718,1.645,3.43,-29.137
41837570,-0.436,-0.496,0.736,-3.552,4.147,-27.86
41837570,-0.431,-0.541,0.712,-11.497,10.342,-23.275
41837580,-0.537,-0.55,0.704,-17.027,13.72,-19.372
41837590,-0.534,-0.521,0.667,-17.867,13.947,-20.142
41837600,-0.508,-0.464,0.671,-20.142,12.285,-22.82
41837610,-0.508,-0.469,0.658,-26.145,11.742,-23.362
41837620,-0.584,-0.483,0.661,-32.112,9.292,-22.925
41837630,-0.595,-0.519,0.654,-37.712,2.922,-26.162
41837640,-0.546,-0.583,0.625,-40.372,-2.537,-27.912
41837650,-0.504,-0.581,0.665,-39.515,-3.727,-27.195
41837660,-0.499,-0.633,0.655,-39.882,-0.787,-22.75
41837670,-0.513,-0.675,0.633,-36.347,1.732,-18.077
41837680,-0.501,-0.629,0.595,-30.012,4.2,-13.685
41837690,-0.683,-0.57,0.505,-27.405,0.122,-7.91
41837700,-0.632,-0.548,0.56,-23.415,-14.875,-8.225
41837710,-0.347,-0.633,0.571,-22.995,-14.332,-8.592
41837720,-0.488,-0.642,0.602,-22.505,-6.195,-5.355
41837730,-0.454,-0.618,0.618,-21.35,0.542,-6.405
41837740,-0.461,-0.607,0.622,-24.482,4.077,-4.585
41837750,-0.448,-0.63,0.611,-26.722,7.297,-1.977
41837760,-0.445,-0.644,0.621,-26.565,12.635,-0.945
41837770,-0.473,-0.623,0.642,-25.025,16.677,-2.345
41837780,-0.473,-0.632,0.66,-26.617,20.16,-5.145
41837790,-0.456,-0.656,0.665,-30.835,21.665,-8.33
41837800,-0.429,-0.6,0.564,-34.65,24.78,-10.5
41837810,-0.606,-0.566,0.649,-39.147,27.265,-7.717
41837820,-0.453,-0.671,0.511,-43.015,26.652,-7.612
41837830,-0.565,-0.581,0.566,-37.73,25.2,-9.17
41837840,-0.518,-0.653,0.564,-36.312,24.745,-10.99
41837850,-0.519,-0.68,0.569,-32.602,22.085,-12.932
41837860,-0.536,-0.657,0.596,-28.7,19.565,-15.96
41837870,-0.522,-0.63,0.615,-29.172,17.885,-20.177
41837880,-0.495,-0.643,0.622,-33.53,17.832,-21
41837890,-0.489,-0.669,0.579,-37.747,21.682,-21.385
41837900,-0.5,-0.656,0.571,-41.16,28.315,-23.8
41837910,-0.528,-0.658,0.571,-48.212,32.9,-26.495
41837920,-0.541,-0.687,0.52,-54.985,33.495,-26.092
41837920,-0.62,-0.71,0.488,-55.772,30.852,-22.575
41837940,-0.654,-0.771,0.437,-49.945,21.875,-18.812
41837940,-0.598,-0.736,0.446,-39.655,11.585,-21.56
41837960,-0.586,-0.698,0.427,-34.702,5.04,-19.897
41837960,-0.536,-0.719,0.443,-34.3,2.38,-20.107
41837980,-0.51,-0.75,0.436,-36.732,2.24,-20.965
41837980,-0.527,-0.754,0.433,-36.802,2.397,-20.737
41838000,-0.493,-0.708,0.443,-35.507,1.575,-19.127
41838000,-0.479,-0.662,0.43,-38.605,1.295,-12.757
41838010,-0.49,-0.659,0.4,-44.905,2.152,-3.552
41838020,-0.518,-0.724,0.391,-47.862,4.742,2.012
41838030,-0.546,-0.741,0.389,-45.255,4.375,2.38
41838040,-0.45,-0.725,0.435,-42.857,3.447,2.66
41838050,-0.464,-0.793,0.444,-43.96,5.88,7.14
41838060,-0.45,-0.79,0.42,-41.247,8.855,6.93
41838070,-0.419,-0.799,0.436,-38.867,11.077,4.252
41838080,-0.429,-0.821,0.426,-37.257,15.172,1.96
41838090,-0.498,-0.822,0.425,-35.77,14.175,-1.697
41838100,-0.448,-0.838,0.394,-31.885,10.605,-3.797
41838110,-0.495,-0.83,0.36,-27.212,7.682,-7.035
41838120,-0.52,-0.812,0.331,-24.692,5.792,-10.937
41838130,-0.531,-0.81,0.311,-23.45,4.83,-13.317
41838140,-0.591,-0.832,0.28,-21.28,3.622,-14.122
41838150,-0.609,-0.829,0.278,-18.357,0.385,-14.875
41838160,-0.609,-0.854,0.285,-16.905,-3.745,-14.455
41838170,-0.618,-0.889,0.26,-14.245,-7.472,-14.21
41838180,-0.637,-0.904,0.247,-8.015,-11.445,-17.342
41838190,-0.56,-0.925,0.33,-1.732,-14.21,-22.96
41838200,-0.626,-1.001,0.316,1.907,-13.72,-21.577
41838210,-0.679,-0.962,0.271,11.585,-19.04,-24.447
41838220,-0.585,-0.86,0.311,21.962,-27.317,-28.717
41838230,-0.514,-0.783,0.342,25.795,-29.662,-26.162
41838240,-0.454,-0.73,0.376,24.727,-29.225,-20.212
41838250,-0.407,-0.719,0.417,21.455,-28.507,-12.547
41838260,-0.381,-0.749,0.433,19.46,-27.545,-6.527
41838260,-0.307,-0.681,0.444,20.37,-26.687,-5.232
41838280,-0.238,-0.608,0.458,15.61,-22.767,1.295
41838280,-0.221,-0.608,0.399,4.567,-14.805,13.09
41838300,-0.263,-0.583,0.37,-5.04,-5.005,21.402
41838300,-0.226,-0.784,0.47,-12.827,5.81,27.895
41838320,-0.306,-0.813,0.279,-6.667,16.205,34.072
41838320,-0.827,-0.463,0.479,25.602,-9.38,24.482
41838330,0.358,-0.801,0.701,17.167,7,26.285
41838340,-0.36,-0.926,0.597,-10.167,32.795,66.972
41838350,-0.344,-0.726,0.468,-6.615,35.14,66.85
41838360,-0.344,-0.525,0.387,-10.675,32.34,74.025
41838370,-0.278,-0.582,0.366,-19.25,34.072,84.91
41838380,-0.298,-0.718,0.358,-29.627,47.04,97.002
41838390,-0.531,-0.84,0.273,-37.065,63.49,95.655
41838400,-0.78,-0.946,0.252,-35.77,70,80.29
41838410,-0.988,-1.033,0.207,-27.842,62.895,69.387
41838420,-1.124,-1.06,0.167,-18.322,49.525,59.167
41838430,-1.187,-1.025,0.147,-7.017,32.287,43.417
41838440,-1.165,-0.906,0.176,3.815,11.392,24.377
41838450,-1.079,-0.831,0.196,13.387,-8.68,6.527
41838460,-0.968,-0.742,0.267,21.07,-25.41,-9.17
41838470,-0.804,-0.657,0.313,20.265,-37.24,-19.197
41838480,-0.808,-0.709,0.411,12.915,-40.215,-19.512
41838490,-0.663,-0.78,0.427,13.562,-44.467,-27.912
41838500,-0.541,-0.675,0.498,17.622,-45.552,-38.045
41838510,-0.56,-0.609,0.473,10.622,-41.405,-37.94
41838520,-0.471,-0.687,0.444,4.06,-36.347,-42.21
41838530,-0.554,-0.603,0.434,2.485,-31.062,-45.482
41838540,-0.522,-0.704,0.431,-2.03,-25.427,-53.462
41838550,-0.623,-0.753,0.421,-1.872,-21.192,-54.022
41838560,-0.664,-0.777,0.424,0.7,-24.587,-56.49
41838570,-0.644,-0.767,0.398,3.622,-31.045,-60.025
41838580,-0.616,-0.73,0.387,7.28,-35.84,-61.005
41838590,-0.582,-0.765,0.35,8.347,-37.8,-59.902
41838600,-0.578,-0.812,0.325,11.34,-37.065,-60.637
41838610,-0.581,-0.85,0.31,16.87,-38.167,-63.175
41838620,-0.563,-0.865,0.298,23.152,-42.612,-62.177
41838630,-0.532,-0.85,0.276,30.625,-47.652,-58.24
41838640,-0.488,-0.76,0.281,37.555,-51.887,-54.162
41838650,-0.351,-0.654,0.333,37.467,-51.327,-48.632
41838660,-0.247,-0.648,0.411,28.245,-40.232,-38.482
41838670,-0.348,-0.748,0.408,17.307,-26.372,-25.865
41838670,-0.315,-0.797,0.445,15.697,-21.7,-21.805
41838690,-0.283,-0.785,0.499,15.907,-18.97,-18.392
41838690,-0.366,-0.786,0.449,9.817,-17.447,-11.655
41838710,-0.326,-0.745,0.465,6.387,-17.43,-9.922
41838710,-0.363,-0.753,0.473,3.675,-15.172,-5.512
41838730,-0.333,-0.771,0.5,3.237,-15.505,1.907
41838730,-0.288,-0.778,0.515,4.06,-13.947,5.25
41838750,-0.26,-0.75,0.512,3.64,-8.942,2.065
41838750,-0.256,-0.741,0.493,2.047,-1.47,1.155
41838760,-0.308,-0.73,0.459,3.255,8.207,3.062
41838770,-0.368,-0.743,0.445,3.867,14.157,5.022
41838780,-0.364,-0.775,0.446,4.042,17.15,5.495
41838790,-0.398,-0.799,0.436,5.652,20.125,6.457
41838800,-0.454,-0.8,0.428,8.33,20.562,7.805
41838810,-0.415,-0.819,0.43,9.485,18.532,6.895
41838820,-0.465,-0.823,0.434,8.487,18.777,8.505
41838830,-0.478,-0.867,0.427,9.205,17.377,10.412
41838840,-0.505,-0.819,0.415,13.527,15.592,11.567
41838850,-0.443,-0.768,0.393,17.167,12.81,11.41
41838860,-0.405,-0.743,0.44,17.517,15.225,13.422
41838870,-0.465,-0.768,0.43,15.47,18.077,15.365
41838880,-0.467,-0.786,0.456,15.032,17.902,12.792
41838890,-0.501,-0.839,0.447,15.382,18.9,11.112
41838900,-0.62,-0.858,0.424,18.567,17.465,9.66
41838910,-0.604,-0.867,0.433,23.117,10.972,5.022
41838920,-0.619,-0.889,0.454,25.55,5.04,0.787
41838930,-0.602,-0.889,0.469,29.242,-0.735,-4.392
41838940,-0.585,-0.86,0.474,32.97,-5.635,-10.115
41838950,-0.573,-0.854,0.474,34.002,-10.115,-14.227
41838960,-0.568,-0.856,0.478,34.475,-14.455,-18.34
41838970,-0.558,-0.845,0.467,35.332,-19.285,-21.84
41838980,-0.536,-0.84,0.456,36.137,-23.695,-24.78
41838990,-0.52,-0.844,0.449,35.682,-27.597,-25.725
41839000,-0.515,-0.828,0.411,35.28,-32.585,-25.707
41839010,-0.532,-0.738,0.411,31.045,-40.985,-26.145
41839010,-0.512,-0.737,0.441,19.512,-50.68,-25.357
41839030,-0.524,-0.786,0.498,11.217,-59.955,-21.735
41839030,-0.49,-0.805,0.549,9.187,-72.45,-15.68
41839050,-0.43,-0.815,0.532,10.01,-83.16,-11.812
41839050,-0.328,-0.769,0.587,17.937,-86.047,-15.89
41839070,-0.366,-0.738,0.541,22.137,-80.99,-16.38
41839070,-0.369,-0.684,0.607,30.275,-77.665,-19.355
41839080,-0.353,-0.674,0.663,35.052,-77.822,-22.207
41839090,-0.293,-0.677,0.73,35.787,-79.065,-22.155
41839100,-0.327,-0.627,0.768,31.832,-83.265,-17.36
41839110,-0.28,-0.619,0.814,22.452,-91.122,-12.302
41839120,-0.288,-0.654,0.8,11.672,-101.097,-7.472
41839130,-0.257,-0.674,0.755,3.535,-112.017,-4.917
41839140,-0.396,-0.604,0.682,-10.115,-124.635,-12.32
41839150,-0.151,-0.744,0.602,-26.512,-126.262,-44.432
41839160,-0.052,-0.871,0.566,-24.78,-105.192,-71.61
41839170,-0.072,-0.912,0.634,-7.035,-74.252,-80.01
41839180,-0.256,-0.912,0.689,15.19,-50.872,-66.832
41839190,-0.393,-0.855,0.664,38.552,-44.975,-53.672
41839200,-0.28,-0.895,0.619,54.722,-53.305,-47.897
41839210,-0.144,-0.874,0.592,74.375,-49.49,-39.69
41839220,-0.126,-0.753,0.62,89.722,-40.425,-30.275
41839230,-0.069,-0.672,0.653,94.675,-30.082,-21.175
41839240,-0.009,-0.648,0.661,93.327,-16.467,-7.717
41839250,-0.016,-0.603,0.691,89.25,0.35,2.922
41839260,-0.048,-0.527,0.741,80.797,13.475,10.885
41839270,-0.072,-0.503,0.74,66.552,22.05,21.385
41839280,-0.136,-0.492,0.751,52.78,25.97,30.537
41839290,-0.222,-0.472,0.742,40.827,24.027,35.157
41839300,-0.278,-0.447,0.742,29.732,12.25,36.33
41839310,-0.292,-0.454,0.724,17.815,-4.462,34.737
41839320,-0.33,-0.476,0.693,7.945,-21.84,30.555
41839330,-0.366,-0.492,0.689,0.612,-42.087,23.625
41839340,-0.401,-0.548,0.696,-6.387,-65.082,14.875
41839350,-0.519,-0.612,0.685,-7.087,-95.445,2.03
41839360,-0.554,-0.66,0.691,0.7,-137.48,-15.26
41839370,-0.493,-0.686,0.659,13.09,-183.592,-37.45
41839380,-0.246,-0.706,0.612,30.94,-217.805,-59.955
41839390,0.028,-0.69,0.617,48.44,-223.825,-82.407
41839400,0.188,-0.664,0.609,61.967,-201.075,-101.272
41839410,0.231,-0.687,0.627,74.462,-163.782,-107.992
41839420,0.223,-0.716,0.644,89.617,-127.19,-103.092
41839420,0.183,-0.722,0.659,106.347,-99.89,-87.167
41839440,0.181,-0.705,0.67,120.732,-81.147,-65.782
41839440,0.221,-0.661,0.69,129.377,-65.1,-41.807
41839450,0.238,-0.612,0.717,129.01,-47.372,-16.257
41839460,0.241,-0.583,0.73,121.327,-27.772,8.417
41839470,0.237,-0.55,0.771,109.97,-5.985,29.05
41839480,0.166,-0.528,0.793,95.305,13.44,43.837
41839490,0.087,-0.528,0.796,79.73,26.705,54.355
41839500,0.044,-0.529,0.792,65.38,34.527,60.41
41839510,0.01,-0.517,0.799,53.375,38.132,62.562
41839520,-0.051,-0.51,0.797,43.47,37.73,62.335
41839530,-0.099,-0.498,0.791,37.572,32.97,60.515
41839540,-0.088,-0.472,0.798,34.44,26.862,56.612
41839550,-0.086,-0.442,0.81,32.112,20.65,51.59
41839560,-0.079,-0.425,0.824,30.695,14.752,46.742
41839570,-0.05,-0.41,0.832,29.54,9.222,43.277
41839580,-0.013,-0.384,0.848,28.7,5.477,40.897
41839590,0.022,-0.35,0.882,26.582,4.882,38.36
41839600,0.01,-0.329,0.917,21.122,6.09,37.625
41839610,-0.038,-0.35,0.934,15.61,5.005,37.205
41839620,-0.075,-0.375,0.93,13.667,-0.28,36.155
41839630,-0.063,-0.386,0.937,15.977,-6.247,34.475
41839640,-0.024,-0.392,0.946,20.177,-9.345,32.077
41839650,-0.009,-0.408,0.96,24.92,-8.662,30.922
41839660,-0.008,-0.42,0.978,30.205,-5.582,29.715
41839670,0.002,-0.427,1.001,33.495,-1.172,27.842
41839680,-0.015,-0.446,1.018,33.827,3.097,26.022
41839690,-0.037,-0.47,1.021,33.6,6.16,23.012
41839700,-0.047,-0.476,1.023,34.037,7.385,19.425
41839710,-0.05,-0.469,1.027,33.845,7.77,15.732
41839720,-0.043,-0.462,1.015,32.725,8.26,12.617
41839730,-0.027,-0.454,0.999,31.622,9.87,10.762
41839740,-0.024,-0.448,0.982,30.38,12.355,10.465
41839750,-0.024,-0.442,0.961,28.822,15.802,11.2
41839760,-0.03,-0.435,0.944,26.915,19.792,12.39
41839760,-0.043,-0.426,0.935,24.5,23.485,13.247
41839780,-0.058,-0.421,0.922,21.052,26.425,13.475
41839780,-0.068,-0.417,0.907,16.887,28.175,13.212
41839800,-0.082,-0.415,0.897,12.372,28.63,12.81
41839800,-0.091,-0.409,0.888,7.717,28.175,12.162
41839820,-0.103,-0.402,0.886,2.817,26.582,11.69
41839820,-0.137,-0.406,0.881,-1.925,22.295,10.692
41839830,-0.171,-0.425,0.87,-5.075,14.63,8.995
41839840,-0.168,-0.443,0.852,-4.48,4.305,7.84
41839850,-0.137,-0.457,0.833,-0.017,-6.212,8.102
41839860,-0.087,-0.454,0.821,7.385,-12.897,10.85
41839870,-0.033,-0.436,0.818,15.942,-12.775,15.89
41839880,0.011,-0.404,0.823,23.432,-5.075,22.225
41839890,0.037,-0.376,0.843,27.65,9.572,30.52
41839900,0.045,-0.347,0.868,28.98,27.755,41.93
41839910,-0.01,-0.304,0.899,26.775,45.57,55.3
41839920,-0.103,-0.279,0.929,20.825,59.045,65.712
41839930,-0.205,-0.28,0.948,12.547,65.73,70.35
41839940,-0.297,-0.299,0.959,5.005,63.875,69.177
41839950,-0.353,-0.322,0.961,0.507,54.18,64.26
41839960,-0.368,-0.336,0.954,-0.472,39.987,57.575
41839970,-0.347,-0.328,0.955,1.33,26.32,49.507
41839980,-0.328,-0.313,0.964,4.217,15.697,40.652
41839990,-0.344,-0.318,0.96,7.035,6.247,32.147
41840000,-0.338,-0.326,0.953,12.215,-3.307,24.5
41840010,-0.296,-0.318,0.953,19.547,-11.882,18.165
41840020,-0.25,-0.303,0.955,26.267,-17.972,13.702
41840030,-0.208,-0.293,0.949,31.255,-20.282,10.99
41840040,-0.17,-0.282,0.94,34.79,-18.882,9.52
41840050,-0.148,-0.276,0.941,37.065,-14.98,9.432
41840060,-0.144,-0.265,0.932,38.272,-10.202,10.78
41840070,-0.146,-0.261,0.933,38.867,-4.935,11.392
41840080,-0.167,-0.255,0.935,39.13,-1.47,11.322
41840090,-0.186,-0.26,0.93,38.867,-0.175,9.66
41840100,-0.191,-0.264,0.927,38.815,-0.192,4.637
41840110,-0.209,-0.26,0.924,38.71,-0.14,-2.94
41840120,-0.233,-0.253,0.933,38.325,-1.347,-12.722
41840130,-0.238,-0.252,0.932,37.327,-4.69,-23.8
41840140,-0.215,-0.252,0.937,35.56,-9.117,-34.667
41840140,-0.182,-0.255,0.95,33.11,-12.827,-43.015
41840160,-0.157,-0.267,0.94,29.575,-15.172,-48.685
41840160,-0.13,-0.284,0.927,26.477,-14.315,-52.937
41840170,-0.108,-0.288,0.929,25.2,-11.882,-54.442
41840180,-0.081,-0.291,0.937,24.447,-7.91,-53.34
41840190,-0.072,-0.309,0.935,23.292,-1.767,-52.465
41840200,-0.065,-0.315,0.923,24.517,4.9,-53.935
41840210,-0.034,-0.287,0.93,27.58,11.445,-53.042
41840220,-0.013,-0.256,0.944,27.23,18.742,-49.385
41840230,-0.009,-0.234,0.95,23.362,26.582,-44.992
41840240,0,-0.212,0.94,18.287,33.565,-37.187
41840250,0.003,-0.199,0.931,11.602,40.74,-27.807
41840260,0.011,-0.172,0.931,3.832,50.487,-20.055
41840270,0.007,-0.138,0.929,-5.372,62.317,-11.865
41840280,-0.021,-0.112,0.925,-16.1,74.655,-3.955
41840290,-0.059,-0.102,0.923,-27.265,86.257,2.31
41840300,-0.098,-0.112,0.908,-37.222,96.845,7.245
41840310,-0.131,-0.121,0.887,-45.64,106.347,10.657
41840320,-0.182,-0.129,0.878,-53.165,113.872,13.667
41840330,-0.251,-0.156,0.87,-60.637,119.052,16.66
41840340,-0.321,-0.194,0.856,-67.27,120.592,18.97
41840350,-0.362,-0.214,0.852,-73.727,118.037,20.545
41840360,-0.383,-0.229,0.846,-82.127,112.717,23.73
41840370,-0.388,-0.243,0.836,-93.642,106.855,30.467
41840380,-0.382,-0.261,0.902,-110.127,103.232,40.32
41840390,-0.557,-0.378,0.789,-134.592,93.94,53.27
41840400,-0.64,-0.503,0.695,-141.61,73.29,54.46
41840410,-0.425,-0.51,0.72,-128.852,60.007,43.47
41840420,-0.376,-0.551,0.696,-123.025,59.08,36.295
41840430,-0.485,-0.614,0.673,-115.062,61.022,33.74
41840440,-0.53,-0.674,0.662,-98.035,61.705,35.997
41840450,-0.604,-0.694,0.696,-74.007,54.075,42.577
41840460,-0.601,-0.682,0.693,-44.397,44.485,47.67
41840470,-0.493,-0.594,0.715,-20.632,46.322,47.862
41840480,-0.495,-0.535,0.725,-8.085,55.317,46.55
41840490,-0.513,-0.498,0.722,-3.377,66.622,41.72
41840500,-0.546,-0.438,0.743,-2.117,78.47,35.665
41840510,-0.658,-0.451,0.743,-5.005,80.885,34.685
41840510,-0.66,-0.454,0.734,-4.637,76.912,35.945
41840530,-0.698,-0.427,0.746,-2.065,70.21,39.795
41840530,-0.808,-0.428,0.736,-1.102,59.535,41.457
41840550,-0.816,-0.43,0.744,1.12,43.225,35.805
41840550,-0.797,-0.4,0.742,4.515,24.745,29.662
41840570,-0.809,-0.413,0.72,4.165,3.307,23.065
41840570,-0.785,-0.424,0.715,2.345,-17.832,16.065
41840580,-0.698,-0.408,0.718,3.937,-30.835,4.987
41840590,-0.689,-0.382,0.724,5.145,-37.765,-6.79
41840600,-0.696,-0.365,0.746,7.017,-44.292,-14.682
41840610,-0.68,-0.375,0.747,7.752,-50.96,-18.62
41840620,-0.663,-0.384,0.749,8.33,-57.487,-19.635
41840630,-0.614,-0.383,0.754,9.222,-61.6,-21.122
41840640,-0.565,-0.387,0.759,9.31,-63.262,-21.612
41840650,-0.509,-0.395,0.749,9.03,-61.985,-20.562
41840660,-0.478,-0.382,0.749,8.872,-58.117,-17.85
41840670,-0.453,-0.351,0.76,8.54,-50.592,-14.647
41840680,-0.466,-0.32,0.775,7.122,-41.755,-10.202
41840690,-0.442,-0.329,0.779,5.162,-31.955,-5.897
41840700,-0.47,-0.355,0.763,2.677,-24.57,-0.507
41840710,-0.486,-0.359,0.773,2.205,-20.842,4.2
41840720,-0.462,-0.358,0.773,0.665,-16.537,7.42
41840730,-0.452,-0.385,0.765,-1.96,-11.427,10.745
41840740,-0.482,-0.407,0.76,-2.765,-6.02,13.282
41840750,-0.522,-0.401,0.775,-0.927,-3.237,12.74
41840760,-0.559,-0.381,0.778,2.082,-4.025,9.922
41840770,-0.606,-0.366,0.771,4.585,-11.147,6.265
41840780,-0.585,-0.348,0.787,5.232,-17.832,-0.84
41840790,-0.539,-0.35,0.766,5.372,-21.63,-7.945
41840800,-0.516,-0.342,0.749,6.002,-25.077,-10.447
41840810,-0.496,-0.324,0.746,7,-25.06,-10.307
41840820,-0.489,-0.311,0.736,7.122,-21.542,-9.205
41840830,-0.459,-0.29,0.735,7.682,-15.942,-7.35
41840830,-0.427,-0.273,0.724,7.472,-6.632,-3.85
41840850,-0.425,-0.248,0.715,4.812,5.005,1.645
41840850,-0.446,-0.21,0.723,-1.47,17.762,8.942
41840870,-0.496,-0.193,0.724,-10.832,29.277,19.495
41840870,-0.573,-0.205,0.705,-20.51,35.822,30.485
41840890,-0.664,-0.253,0.684,-27.265,35.525,36.557
41840890,-0.763,-0.305,0.683,-28.245,26.845,35.98
41840910,-0.827,-0.344,0.69,-24.99,10.587,27.562
41840910,-0.846,-0.373,0.699,-19.11,-11.375,13.912
41840920,-0.835,-0.39,0.714,-11.305,-36.592,-2.257
41840930,-0.793,-0.4,0.728,-3.255,-61.845,-18.2
41840940,-0.695,-0.428,0.744,4.55,-84.262,-32.165
41840950,-0.528,-0.485,0.777,13.387,-96.477,-39.865
41840960,-0.365,-0.524,0.837,24.902,-96.18,-41.055
41840970,-0.27,-0.526,0.889,34.947,-84.472,-36.26
41840980,-0.25,-0.488,0.937,42.245,-66.675,-25.532
41840990,-0.258,-0.441,0.972,42.997,-51.012,-15.662
41841000,-0.244,-0.392,0.958,36.872,-37.66,-7.49
41841010,-0.296,-0.376,0.969,25.165,-31.237,-2.117
41841020,-0.321,-0.457,0.874,12.915,-29.575,0.945
41841030,-0.284,-0.462,0.887,8.977,-33.215,0.927
41841040,-0.198,-0.432,0.889,10.097,-27.895,-0.647
41841050,-0.211,-0.433,0.858,11.9,-16.625,-1.855
41841060,-0.336,-0.407,0.862,15.242,-8.82,-1.767
41841070,-0.312,-0.407,0.848,19.81,-4.567,-8.47
41841080,-0.31,-0.436,0.818,23.065,-2.607,-14.332
41841090,-0.346,-0.39,0.816,28,-2.45,-18.077
41841100,-0.353,-0.351,0.832,27.615,-2.345,-26.372
41841110,-0.34,-0.361,0.818,23.572,-1.242,-33.32
41841120,-0.386,-0.349,0.818,19.337,-0.105,-38.027
41841130,-0.425,-0.331,0.831,13.212,-2.222,-43.19
41841140,-0.429,-0.306,0.858,4.567,-7.647,-46.34
41841150,-0.4,-0.286,0.848,-7.105,-12.705,-47.932
41841160,-0.39,-0.269,0.84,-23.59,-15.19,-49.735
41841170,-0.396,-0.312,0.813,-39.882,-16.66,-50.487
41841180,-0.404,-0.356,0.79,-47.722,-19.232,-49.717
41841190,-0.382,-0.356,0.808,-49.56,-21.892,-48.457
41841200,-0.341,-0.358,0.78,-52.01,-20.772,-45.01
41841210,-0.329,-0.352,0.756,-54.11,-16.047,-40.477
41841220,-0.352,-0.362,0.755,-57.487,-8.732,-36.592
41841230,-0.401,-0.395,0.749,-58.467,-3.832,-31.99
41841240,-0.41,-0.405,0.746,-54.39,-2.537,-27.09
41841250,-0.439,-0.4,0.757,-48.895,-4.2,-22.172
41841260,-0.443,-0.438,0.745,-43.4,-7.98,-17.745
41841260,-0.421,-0.456,0.748,-36.365,-9.957,-14.035
41841280,-0.443,-0.45,0.767,-27.825,-11.34,-5.617
41841280,-0.449,-0.481,0.77,-19.407,-14.192,3.132
41841300,-0.437,-0.506,0.783,-10.132,-15.942,6.825
41841300,-0.44,-0.491,0.814,-1.995,-16.8,5.967
41841320,-0.438,-0.487,0.837,3.01,-18.392,3.692
41841320,-0.435,-0.507,0.842,7.157,-22.662,1.382
41841330,-0.415,-0.513,0.841,12.372,-29.225,0.455
41841340,-0.371,-0.491,0.841,16.222,-34.492,0.507
41841350,-0.327,-0.481,0.853,17.097,-36.382,2.52
41841360,-0.306,-0.48,0.86,16.52,-35.385,6.37
41841370,-0.254,-0.513,0.87,17.307,-32.112,10.272
41841380,-0.182,-0.511,0.878,22.487,-22.155,14.07
41841390,-0.24,-0.43,0.903,24.307,-10.132,17.43
41841400,-0.289,-0.418,0.894,19.407,-3.517,16.52
41841410,-0.244,-0.493,0.846,14.35,1.295,15.82
41841420,-0.282,-0.486,0.844,15.085,3.377,17.535
41841430,-0.289,-0.459,0.857,17.027,4.287,15.995
41841440,-0.294,-0.455,0.851,17.815,5.355,16.135
41841450,-0.3,-0.44,0.846,19.81,6.142,16.117
41841460,-0.315,-0.422,0.846,20.667,6.562,14.437
41841470,-0.329,-0.406,0.837,20.055,6.352,13.317
41841480,-0.341,-0.407,0.83,18.777,5.74,12.582
41841490,-0.349,-0.416,0.832,17.762,4.847,11.392
41841500,-0.349,-0.419,0.838,17.307,3.762,10.885
41841510,-0.349,-0.429,0.844,16.975,2.94,10.832
41841520,-0.354,-0.424,0.857,17.377,1.96,10.447
41841530,-0.364,-0.409,0.866,17.115,0.682,8.505
41841540,-0.343,-0.41,0.862,15.225,0.21,6.79
41841550,-0.348,-0.413,0.858,12.53,0.542,6.265
41841560,-0.364,-0.407,0.859,10.657,0.805,5.11
41841570,-0.355,-0.404,0.86,8.75,1.12,3.885
41841580,-0.355,-0.403,0.855,7.175,1.82,3.657
41841580,-0.362,-0.401,0.854,6.177,2.905,3.22
41841600,-0.373,-0.391,0.853,5.232,4.077,2.922
41841600,-0.377,-0.399,0.848,4.217,3.482,2.327
41841620,-0.369,-0.405,0.837,4.165,2.782,2.835
41841620,-0.372,-0.393,0.845,4.637,2.1,3.342
41841640,-0.38,-0.385,0.845,3.972,1.802,3.412
41841640,-0.343,-0.394,0.848,2.555,-0.087,1.557
41841660,-0.345,-0.415,0.832,0.717,1.715,3.832
41841660,-0.389,-0.382,0.86,2.485,0.56,5.11
41841670,-0.316,-0.403,0.861,0.752,0.962,0.017
41841680,-0.309,-0.411,0.845,0.227,2.8,3.377
41841690,-0.349,-0.377,0.862,-0.997,6.755,4.252
41841700,-0.33,-0.476,0.849,-4.27,7.437,3.902
41841710,-0.348,-0.487,0.843,-0.245,8.557,5.355
41841720,-0.355,-0.435,0.869,4.777,7.63,4.55
41841730,-0.394,-0.396,0.861,4.235,8.68,3.64
41841740,-0.372,-0.465,0.818,3.85,8.207,2.957
41841750,-0.418,-0.408,0.829,7.717,8.225,2.835
41841760,-0.434,-0.387,0.821,8.452,4.427,1.435
41841770,-0.416,-0.379,0.813,6.982,1.907,1.907
41841780,-0.404,-0.376,0.809,5.39,0.175,3.587
41841790,-0.424,-0.373,0.813,2.555,0.245,4.252
41841800,-0.436,-0.399,0.825,0.927,-1.4,3.71
41841810,-0.424,-0.394,0.832,2.537,-4.025,1.837
41841820,-0.397,-0.379,0.832,3.342,-6.44,-0.262
41841830,-0.378,-0.383,0.839,3.185,-6.825,-1.33
41841840,-0.369,-0.393,0.838,3.01,-5.81,-1.82
41841850,-0.364,-0.393,0.847,3.587,-4.13,-3.185
41841860,-0.34,-0.398,0.855,3.325,-2.432,-4.147
41841870,-0.339,-0.408,0.862,3.132,-0.665,-3.482
41841880,-0.323,-0.409,0.859,3.605,1.837,-2.065
41841890,-0.325,-0.408,0.872,3.535,5.355,0.577
41841900,-0.356,-0.421,0.863,3.71,7.122,4.042
41841910,-0.352,-0.418,0.857,5.197,8.102,5.88
41841920,-0.364,-0.374,0.833,5.792,10.29,9.502
41841930,-0.407,-0.353,0.858,4.585,11.76,12.547
41841940,-0.38,-0.415,0.84,4.392,12.88,12.407
41841950,-0.394,-0.405,0.822,8.505,11.48,10.08
41841960,-0.39,-0.361,0.839,12.005,10.237,7.122
41841970,-0.411,-0.367,0.834,13.405,8.33,6.422
41841980,-0.398,-0.352,0.816,15.82,4.742,3.937
41841990,-0.369,-0.311,0.833,15.452,3.097,3.01
41842000,-0.357,-0.305,0.842,11.322,7.28,5.897
41842010,-0.396,-0.353,0.846,7.07,11.182,7.577
41842010,-0.393,-0.38,0.842,6.3,12.617,8.645
41842030,-0.4,-0.362,0.857,6.842,13.58,9.047
41842030,-0.417,-0.372,0.861,6.492,13.615,9.922
41842050,-0.418,-0.369,0.86,6.23,13.72,11.06
41842050,-0.445,-0.366,0.858,4.83,12.057,10.22
41842070,-0.421,-0.393,0.845,3.185,10.465,8.522
41842070,-0.425,-0.401,0.834,4.865,9.747,8.347
41842080,-0.423,-0.373,0.835,7.087,9.642,8.137
41842090,-0.417,-0.349,0.835,6.405,10.587,9.012
41842100,-0.416,-0.356,0.83,2.8,12.197,9.52
41842110,-0.418,-0.391,0.828,1.102,12.845,9.222
41842120,-0.407,-0.375,0.83,1.172,14,8.33
41842130,-0.414,-0.38,0.844,-0.455,14.647,7.297
41842140,-0.433,-0.38,0.824,-0.735,15.365,7.21
41842150,-0.434,-0.361,0.831,-1.015,15.995,6.842
41842160,-0.439,-0.36,0.821,-2.73,17.745,6.86
41842170,-0.478,-0.364,0.824,-4.077,18.847,6.3
41842180,-0.474,-0.358,0.815,-4.48,19.11,4.917
41842190,-0.492,-0.36,0.825,-5.652,18.2,3.815
41842200,-0.503,-0.371,0.813,-5.495,16.345,3.29
41842210,-0.485,-0.367,0.817,-4.585,14.385,3.272
41842220,-0.501,-0.364,0.822,-4.095,13.037,3.622
41842230,-0.518,-0.363,0.81,-4.322,11.095,3.307
41842240,-0.525,-0.369,0.826,-5.687,6.142,3.657
41842250,-0.435,-0.394,0.825,-4.165,5.985,2.047
41842260,-0.46,-0.364,0.839,-3.85,7.892,3.587
41842270,-0.457,-0.346,0.851,-6.335,11.865,5.25
41842280,-0.486,-0.383,0.837,-9.38,13.265,6.125
41842290,-0.428,-0.372,0.821,-8.802,15.575,5.39
41842300,-0.449,-0.349,0.814,-10.132,17.692,6.667
41842310,-0.436,-0.339,0.812,-11.62,21.875,7.437
41842320,-0.422,-0.348,0.782,-14.735,28.735,8.732
41842330,-0.492,-0.344,0.786,-15.207,34.125,10.237
41842330,-0.56,-0.347,0.779,-14.315,34.265,8.96
41842350,-0.595,-0.368,0.746,-13.422,24.552,6.93
41842350,-0.527,-0.356,0.736,-10.36,14.857,4.147
41842370,-0.486,-0.353,0.744,-8.207,12.705,3.552
41842370,-0.514,-0.368,0.741,-6.825,14.42,4.252
41842390,-0.524,-0.361,0.71,-4.515,15.522,4.9
41842390,-0.499,-0.3,0.737,-4.672,18.865,4.987
41842410,-0.532,-0.357,0.731,-8.872,22.487,10.167
41842410,-0.58,-0.385,0.719,-8.557,24.15,12.705
41842420,-0.578,-0.374,0.739,-5.757,23.432,11.182
41842430,-0.598,-0.383,0.768,-4.147,21.997,9.555
41842440,-0.648,-0.423,0.76,-3.832,15.487,5.915
41842450,-0.653,-0.421,0.775,0.542,5.005,-0.105
41842460,-0.618,-0.4,0.765,4.795,-5.985,-7.35
41842470,-0.551,-0.371,0.746,7.262,-12.477,-13.615
41842480,-0.515,-0.367,0.746,8.172,-11.865,-15.505
41842490,-0.541,-0.377,0.743,8.242,-7.98,-15.68
41842500,-0.558,-0.376,0.742,8.715,-4.847,-16.257
41842510,-0.552,-0.365,0.751,9.17,-3.867,-16.8
41842520,-0.544,-0.362,0.756,8.33,-5.337,-16.852
41842530,-0.498,-0.369,0.783,6.877,-5.11,-14.857
41842540,-0.499,-0.385,0.766,5.162,-4.025,-12.757
41842550,-0.462,-0.375,0.768,4.2,-2.555,-12.232
41842560,-0.444,-0.335,0.812,-0.997,2.922,-8.872
41842570,-0.466,-0.454,0.791,-8.505,7.665,-1.61
41842580,-0.487,-0.48,0.792,-4.025,11.41,-2.607
41842590,-0.488,-0.41,0.791,1.347,11.777,-7
41842600,-0.482,-0.362,0.793,1.05,11.69,-7.28
41842610,-0.509,-0.389,0.774,-2.502,12.6,-5.25
41842620,-0.532,-0.412,0.774,-3.815,12.355,-4.305
41842630,-0.503,-0.414,0.78,-4.217,12.005,-3.517
41842640,-0.5,-0.414,0.784,-6.037,12.88,-1.452
41842650,-0.505,-0.414,0.774,-8.032,14.717,0.472
41842660,-0.506,-0.406,0.759,-10.57,16.992,1.557
41842670,-0.534,-0.4,0.76,-13.422,19.67,3.185
41842680,-0.56,-0.427,0.737,-14.682,19.6,4.707
41842690,-0.533,-0.401,0.727,-13.615,19.442,4.252
41842700,-0.541,-0.387,0.73,-14.035,20.002,5.967
41842710,-0.587,-0.408,0.719,-14.315,20.125,7.962
41842720,-0.602,-0.408,0.707,-12.757,18.515,6.982
41842730,-0.616,-0.396,0.706,-10.85,14.927,5.652
41842740,-0.616,-0.389,0.71,-10.255,10.92,4.34
41842750,-0.597,-0.385,0.719,-10.867,8.61,3.5
41842760,-0.598,-0.408,0.727,-12.18,7.665,3.202
41842760,-0.606,-0.434,0.724,-11.917,6.895,2.275
41842780,-0.593,-0.421,0.732,-10.027,6.93,0
41842780,-0.613,-0.4,0.737,-9.852,6.545,-1.207
41842800,-0.582,-0.425,0.735,-11.13,5.565,-2.835
41842800,-0.568,-0.426,0.733,-12.372,7.21,-2.222
41842820,-0.62,-0.418,0.715,-12.792,6.58,-0.525
41842820,-0.63,-0.405,0.693,-11.69,3.675,-1.487
41842830,-0.555,-0.387,0.693,-12.11,1.522,-2.362
41842840,-0.538,-0.412,0.682,-15.452,3.955,-0.49
41842850,-0.578,-0.419,0.672,-17.342,6.055,1.12
41842860,-0.58,-0.418,0.654,-18.497,5.705,1.417
41842870,-0.573,-0.422,0.671,-20.037,4.655,1.592
41842880,-0.585,-0.454,0.676,-20.685,4.095,1.925
41842890,-0.591,-0.45,0.697,-19.39,5.442,0.91
41842900,-0.599,-0.471,0.734,-21.472,4.742,0.892
41842910,-0.559,-0.494,0.743,-20.947,5.985,0.945
41842920,-0.556,-0.506,0.724,-19.32,9.1,0.175
41842930,-0.585,-0.462,0.712,-15.837,14.087,-0.665
41842940,-0.626,-0.419,0.708,-13.72,17.43,-2.205
41842950,-0.682,-0.399,0.689,-13.772,16.485,-4.445
41842960,-0.703,-0.394,0.674,-14.07,11.322,-9.537
41842970,-0.677,-0.4,0.674,-13.877,4.532,-14.49
41842980,-0.672,-0.408,0.687,-14.507,-0.56,-16.45
41842990,-0.673,-0.417,0.688,-16.905,-2.327,-18.41
41843000,-0.653,-0.448,0.691,-20.93,-1.662,-20.125
41843010,-0.661,-0.463,0.699,-25.095,0,-20.352
41843020,-0.69,-0.488,0.672,-28.857,-0.297,-22.435
41843030,-0.693,-0.476,0.685,-29.12,-3.167,-24.482
41843040,-0.653,-0.464,0.681,-31.272,-5.635,-27.912
41843050,-0.653,-0.478,0.665,-35.227,-7.28,-33.39
41843060,-0.672,-0.488,0.658,-36.19,-8.645,-36.715
41843070,-0.689,-0.512,0.637,-34.02,-14.227,-34.93
41843080,-0.649,-0.536,0.629,-29.802,-23.572,-33.88
41843080,-0.578,-0.489,0.636,-25.76,-30.537,-35.052
41843100,-0.688,-0.446,0.683,-31.36,-40.88,-34.545
41843100,-0.55,-0.496,0.672,-30.957,-44.362,-35.385
41843120,-0.465,-0.509,0.678,-25.917,-40.232,-39.322
41843120,-0.467,-0.495,0.691,-25.445,-35.21,-39.935
41843140,-0.451,-0.493,0.706,-26.967,-29.382,-36.977
41843140,-0.5,-0.496,0.713,-28.84,-25.847,-34.195
41843160,-0.489,-0.519,0.702,-31.762,-26.792,-33.81
41843160,-0.441,-0.549,0.674,-34.597,-29.207,-31.92
41843170,-0.401,-0.578,0.665,-33.6,-28.227,-28.035
41843180,-0.398,-0.604,0.667,-28.805,-25.13,-21.332
41843190,-0.393,-0.611,0.676,-22.662,-24.342,-13.86
41843200,-0.313,-0.578,0.655,-17.08,-20.685,-9.59
41843210,-0.294,-0.579,0.654,-13.65,-11.235,-6.632
41843220,-0.323,-0.582,0.651,-10.972,-1.715,-4.445
41843230,-0.33,-0.546,0.678,-8.907,8.47,-2.187
41843240,-0.39,-0.571,0.66,-11.882,15.925,2.625
41843250,-0.401,-0.58,0.639,-14.332,20.51,4.357
41843260,-0.433,-0.567,0.637,-17.045,24.955,5.495
41843270,-0.463,-0.575,0.624,-20.72,27.807,7.612
41843280,-0.491,-0.591,0.585,-21.56,32.322,9.065
41843290,-0.607,-0.596,0.579,-22.872,33.022,8.82
41843300,-0.603,-0.662,0.565,-23.03,27.93,7.245
41843310,-0.596,-0.662,0.556,-19.267,22.802,5.88
41843320,-0.647,-0.643,0.551,-17.272,17.185,5.6
41843330,-0.629,-0.637,0.562,-16.607,9.537,4.672
41843340,-0.567,-0.654,0.566,-15.68,4.252,4.515
41843350,-0.575,-0.652,0.566,-14.42,1.82,3.517
41843360,-0.553,-0.638,0.571,-11.532,0.14,1.802
41843370,-0.537,-0.613,0.588,-9.572,-0.525,2.117
41843380,-0.537,-0.623,0.607,-9.047,-1.33,2.1
41843390,-0.462,-0.605,0.6,-7.752,-1.75,1.12
41843400,-0.458,-0.536,0.602,-8.242,1.732,1.767
41843410,-0.527,-0.523,0.568,-14.14,4.252,5.39
41843420,-0.545,-0.546,0.54,-20.615,1.907,8.242
41843430,-0.51,-0.55,0.552,-23.397,1.067,9.485
41843440,-0.575,-0.627,0.543,-27.002,3.797,9.765
41843450,-0.659,-0.671,0.575,-28.315,3.57,5.565
41843460,-0.694,-0.706,0.582,-26.215,-1.382,-1.067
41843470,-0.729,-0.692,0.624,-23.625,-8.68,-8.347
41843480,-0.712,-0.674,0.637,-21.665,-16.467,-13.037
41843490,-0.656,-0.623,0.668,-19.862,-22.872,-18.585
41843500,-0.578,-0.582,0.674,-21.28,-26.127,-23.362
41843510,-0.52,-0.576,0.674,-25.392,-25.41,-25.917
41843510,-0.527,-0.565,0.66,-30.187,-24.78,-24.972
41843530,-0.514,-0.585,0.618,-34.09,-26.687,-22.61
41843530,-0.46,-0.567,0.586,-37.607,-27.51,-22.452
41843540,-0.431,-0.599,0.58,-43.995,-25.375,-20.37
41843550,-0.384,-0.661,0.555,-48.282,-20.3,-13.405
41843560,-0.396,-0.614,0.537,-47.775,-16.345,-7.035
41843570,-0.347,-0.657,0.556,-47.582,-14.105,-6.037
41843580,-0.376,-0.812,0.587,-45.587,-10.605,-4.795
41843590,-0.439,-0.795,0.527,-38.937,-8.89,-4.235
41843600,-0.469,-0.739,0.486,-33.285,-7.892,-9.87
41843610,-0.505,-0.803,0.442,-28,-6.125,-15.732
41843620,-0.55,-0.78,0.447,-19.775,-5.67,-20.107
41843630,-0.574,-0.772,0.433,-15.522,-5.757,-20.632
41843640,-0.571,-0.768,0.456,-12.565,-7.962,-18.83
41843650,-0.512,-0.775,0.468,-9.1,-10.797,-17.132
41843660,-0.413,-0.718,0.516,-5.74,-10.482,-15.785
41843670,-0.389,-0.713,0.515,-6.982,-4.34,-13.177
41843680,-0.452,-0.737,0.536,-6.125,-0.507,-11.567
41843690,-0.362,-0.667,0.593,-2.817,-3.202,-12.04
41843700,-0.297,-0.668,0.609,-4.83,1.365,-8.715
41843710,-0.356,-0.665,0.607,-7.612,10.342,-3.815
41843720,-0.397,-0.717,0.625,-8.557,15.382,1.19
41843730,-0.432,-0.726,0.59,-7.752,17.22,5.827
41843740,-0.419,-0.65,0.577,-9.082,19.722,4.567
41843750,-0.485,-0.662,0.533,-14.245,25.2,6.177
41843760,-0.537,-0.68,0.53,-15.942,25.882,8.557
41843770,-0.53,-0.758,0.577,-17.745,21.297,11.655
41843780,-0.469,-0.766,0.516,-17.657,17.832,15.242
41843790,-0.457,-0.658,0.531,-14.962,16.275,13.037
41843800,-0.419,-0.796,0.516,-17.64,19.862,18.777
41843810,-0.489,-0.743,0.472,-14.245,22.05,22.697
41843820,-0.445,-0.695,0.439,-13.055,22.505,24.675
41843830,-0.475,-0.789,0.436,-14.332,25.322,30.31
41843830,-0.533,-0.756,0.414,-12.617,24.255,35.91
41843850,-0.542,-0.724,0.399,-14.542,18.357,37.012
41843850,-0.541,-0.727,0.379,-18.865,15.942,33.302
41843870,-0.623,-0.786,0.392,-22.68,16.485,31.307
41843870,-0.7,-0.81,0.397,-24.657,13.37,30.975
41843890,-0.699,-0.79,0.353,-28.665,4.97,26.302
41843890,-0.649,-0.707,0.327,-21.647,-0.315,15.54
41843910,-0.733,-0.647,0.392,-11.497,-2.432,7.56
41843910,-0.699,-0.724,0.414,-13.282,-9.275,3.535
41843920,-0.638,-0.767,0.44,-12.11,-13.09,-2.065
41843930,-0.598,-0.737,0.473,-9.572,-13.09,-6.492
41843940,-0.575,-0.723,0.494,-8.452,-12.932,-8.05
41843950,-0.515,-0.728,0.56,-9.292,-13.492,-8.627
41843960,-0.46,-0.753,0.545,-17.027,-14.14,-5.04
41843970,-0.41,-0.687,0.518,-15.557,-9.135,-3.692
41843980,-0.417,-0.597,0.505,-12.407,-4.112,-2.782
41843990,-0.43,-0.595,0.5,-13.02,-0.157,1.61
41844000,-0.459,-0.678,0.507,-14.595,1.977,5.215
41844010,-0.474,-0.723,0.494,-12.092,4.497,5.285
41844020,-0.515,-0.735,0.476,-7.385,6.545,4.27
41844030,-0.529,-0.746,0.456,-1.802,7.14,3.325
41844040,-0.557,-0.741,0.421,3.762,6.212,3.01
41844050,-0.555,-0.737,0.4,9.73,3.272,0.997
41844060,-0.53,-0.742,0.381,15.312,2.012,-1.12
41844070,-0.539,-0.747,0.398,19.162,4.655,-0.472
41844080,-0.604,-0.743,0.382,22.977,6.212,-0.84
41844090,-0.578,-0.705,0.392,28.91,4.882,-5.617
41844100,-0.569,-0.706,0.423,30.467,5.722,-6.895
41844110,-0.642,-0.735,0.412,30.765,6.23,-3.377
41844120,-0.691,-0.699,0.374,36.732,2.432,-3.377
41844130,-0.59,-0.64,0.447,45.727,0.682,-8.155
41844140,-0.605,-0.69,0.503,43.19,1.277,-8.54
41844150,-0.393,-0.779,0.578,32.865,4.672,-4.777
41844160,-0.54,-0.81,0.545,18.322,8.627,6.545
41844170,-0.529,-0.694,0.464,11.322,3.43,8.435
41844180,-0.505,-0.63,0.482,5.862,-2.8,8.487
41844190,-0.532,-0.708,0.462,2.17,-6.037,12.232
41844200,-0.524,-0.716,0.47,4.515,-7.472,16.887
41844210,-0.529,-0.707,0.485,2.52,-6.195,20.16
41844220,-0.573,-0.721,0.485,-1.225,-1.61,19.95
41844230,-0.628,-0.703,0.497,-2.537,1.435,17.587
41844230,-0.641,-0.695,0.465,-4.742,-0.577,14.56
41844250,-0.636,-0.678,0.461,-5.407,-2.432,10.325
41844250,-0.666,-0.687,0.454,-7.332,-5.635,6.177
41844260,-0.673,-0.686,0.458,-10.325,-10.202,4.725
41844270,-0.704,-0.746,0.405,-13.44,-19.092,3.92
41844280,-0.376,-0.708,0.49,-10.132,-14.752,3.465
41844290,-0.733,-0.684,0.487,-11.077,0.647,9.345
41844300,-0.654,-0.681,0.496,-16.17,-8.47,4.392
41844310,-0.53,-0.704,0.478,-21.367,-17.92,5.6
41844320,-0.478,-0.691,0.47,-20.335,-13.457,5.092
41844330,-0.547,-0.664,0.478,-19.635,-7.77,2.87
41844340,-0.568,-0.682,0.429,-19.635,-8.102,2.38
41844350,-0.575,-0.67,0.443,-11.515,-6.562,-0.682
41844360,-0.605,-0.69,0.454,-6.562,-6.825,-2.607
41844370,-0.592,-0.73,0.447,-2.52,-8.33,-4.06
41844380,-0.56,-0.723,0.434,3.797,-8.347,-7.437
41844390,-0.551,-0.717,0.417,8.802,-7.56,-10.412
41844400,-0.525,-0.706,0.408,14.227,-7.262,-13.457
41844410,-0.517,-0.701,0.413,19.775,-6.772,-14.297
41844420,-0.496,-0.711,0.438,22.19,-6.895,-12.197
41844430,-0.488,-0.756,0.465,20.65,-6.422,-8.225
41844440,-0.502,-0.774,0.472,18.9,-4.882,-4.935
41844450,-0.527,-0.72,0.467,18.707,-3.412,-2.345
41844460,-0.543,-0.684,0.446,19.04,-2.485,-1.382
41844470,-0.567,-0.668,0.458,19.897,-2.152,-1.82
41844480,-0.585,-0.693,0.473,21.087,-2.642,-0.787
41844490,-0.6,-0.715,0.497,22.54,-4.777,0.332
41844500,-0.579,-0.724,0.53,22.505,-6.492,1.662
41844510,-0.567,-0.721,0.525,19.88,-6.755,1.032
41844520,-0.587,-0.641,0.509,18.865,-5.827,-1.242
41844530,-0.631,-0.595,0.515,14.542,-7.752,-2.8
41844540,-0.605,-0.659,0.524,9.117,-11.042,-0.945
41844550,-0.61,-0.702,0.523,7.805,-10.99,-1.715
41844560,-0.617,-0.712,0.515,8.907,-9.975,-7.472
41844570,-0.625,-0.683,0.493,10.675,-10.657,-11.585
41844580,-0.608,-0.697,0.479,12.04,-11.97,-16.537
41844580,-0.62,-0.725,0.48,15.19,-13.107,-22.505
41844600,-0.582,-0.738,0.487,18.987,-15.365,-27.58
41844600,-0.541,-0.725,0.492,21.822,-17.745,-30.502
41844620,-0.484,-0.688,0.522,22.295,-18.865,-30.695
41844620,-0.442,-0.69,0.534,19.635,-18.147,-26.53
41844640,-0.442,-0.668,0.53,17.92,-16.362,-23.082
41844640,-0.435,-0.611,0.549,16.24,-15.312,-20.79
41844660,-0.429,-0.588,0.576,10.937,-13.475,-14.262
41844660,-0.447,-0.633,0.59,4.62,-11.375,-7.035
41844670,-0.447,-0.664,0.581,0.297,-9.992,-1.68
41844680,-0.446,-0.656,0.588,-2.345,-10.115,1.54
41844690,-0.418,-0.665,0.586,-4.62,-6.632,4.987
41844700,-0.462,-0.637,0.552,-7.122,-2.975,9.257
41844710,-0.471,-0.626,0.542,-10.99,-2.397,13.58
41844720,-0.46,-0.68,0.513,-13.422,-0.227,16.31
41844730,-0.509,-0.704,0.5,-13.107,3.78,15.785
41844740,-0.562,-0.751,0.484,-12.075,5.512,13.457
41844750,-0.625,-0.783,0.471,-9.852,4.865,11.672
41844760,-0.71,-0.768,0.437,-5.442,0.717,8.155
41844770,-0.689,-0.744,0.444,-0.385,-7.962,1.33
41844780,-0.614,-0.782,0.46,3.902,-13.282,-3.22
41844790,-0.592,-0.748,0.455,8.417,-15.715,-4.917
41844800,-0.547,-0.712,0.493,10.29,-18.935,-6.335
41844810,-0.437,-0.692,0.516,9.957,-23.695,-5.932
41844820,-0.344,-0.628,0.536,9.275,-23.012,-0.612
41844830,-0.294,-0.609,0.553,6.562,-19.162,8.085
41844840,-0.233,-0.555,0.566,5.477,-16.415,19.092
41844850,-0.202,-0.53,0.579,2.065,-12.722,31.832
41844860,-0.248,-0.537,0.582,-3.972,-8.82,42.595
41844870,-0.341,-0.584,0.587,-9.835,-4.882,48.23
41844880,-0.515,-0.698,0.574,-12.967,-0.525,48.895
41844890,-0.687,-0.805,0.548,-7.647,-0.98,46.532
41844900,-0.745,-0.789,0.485,4.987,-6.195,37.87
41844910,-0.731,-0.709,0.464,19.232,-9.992,23.87
41844920,-0.705,-0.703,0.454,29.837,-11.532,13.685
41844920,-0.653,-0.709,0.535,36.505,-12.372,9.852
41844940,-0.611,-0.704,0.595,33.425,-10.08,11.2
41844940,-0.462,-0.661,0.569,30.065,0.997,8.19
41844960,-0.731,-0.723,0.506,29.26,2.677,4.042
41844960,-0.491,-0.557,0.641,30.94,-9.782,4.182
41844980,-0.429,-0.603,0.598,24.587,-5.53,10.92
41844980,-0.47,-0.607,0.63,20.965,4.13,12.582
41845000,-0.515,-0.619,0.592,18.847,9.1,17.395
41845000,-0.513,-0.612,0.601,20.282,10.08,20.51
41845010,-0.492,-0.584,0.597,22.802,12.092,22.4
41845020,-0.495,-0.558,0.587,25.567,15.33,22.995
41845030,-0.5,-0.556,0.572,27.195,18.2,24.325
41845040,-0.529,-0.558,0.545,27.58,21.962,25.392
41845050,-0.63,-0.542,0.521,30.572,24.937,23.887
41845060,-0.701,-0.587,0.592,33.057,24.85,24.675
41845070,-0.719,-0.655,0.632,28.647,21.017,28.455
41845080,-0.69,-0.675,0.615,23.73,18.41,27.755
41845090,-0.691,-0.622,0.627,17.01,17.57,21.577
41845100,-0.697,-0.623,0.602,5.267,15.837,17.605
41845110,-0.684,-0.625,0.56,-2.415,13.247,14.927
41845120,-0.652,-0.575,0.558,-5.88,11.567,12.862
41845130,-0.637,-0.559,0.556,-10.92,10.15,10.955
41845140,-0.584,-0.602,0.556,-14.122,10.08,8.505
41845150,-0.57,-0.553,0.554,-13.072,11.9,12.18
41845160,-0.535,-0.563,0.573,-15.05,16.835,16.835
41845170,-0.635,-0.619,0.526,-17.237,16.292,15.977
41845180,-0.539,-0.556,0.523,-13.142,13.93,13.335
41845190,-0.585,-0.563,0.536,-13.492,14.42,16.45
41845200,-0.561,-0.614,0.526,-12.652,15.137,18.55
41845210,-0.566,-0.616,0.531,-9.607,17.622,17.85
41845220,-0.619,-0.62,0.536,-7.857,19.582,16.922
41845230,-0.623,-0.608,0.516,-6.65,19.32,15.715
41845240,-0.644,-0.62,0.504,-5.197,18.602,15.487
41845250,-0.652,-0.57,0.465,1.645,19.425,15.277
41845260,-0.714,-0.517,0.443,6.317,19.005,10.727
41845270,-0.738,-0.519,0.459,6.335,13.615,6.265
41845280,-0.744,-0.576,0.467,4.655,10.185,5.477
41845290,-0.77,-0.613,0.488,6.247,8.557,5.057
41845300,-0.78,-0.63,0.544,6.93,6.23,3.395
41845310,-0.734,-0.578,0.457,5.88,-3.202,-0.455
41845320,-0.695,-0.558,0.525,6.335,-5.53,-2.38
41845330,-0.711,-0.597,0.477,6.51,-7.017,-2.17
41845330,-0.698,-0.549,0.502,11.025,-8.662,-5.81
41845350,-0.668,-0.51,0.516,13.37,-9.572,-8.137
41845350,-0.635,-0.536,0.544,12.407,-9.327,-7.927
41845370,-0.635,-0.589,0.561,10.692,-8.26,-6.947
41845370,-0.612,-0.594,0.57,9.73,-6.895,-7.192
41845390,-0.608,-0.576,0.567,7.367,-5.355,-6.23
41845390,-0.606,-0.561,0.55,4.305,-4.025,-4.48
41845410,-0.606,-0.558,0.535,2.24,-1.872,-2.625
41845410,-0.623,-0.546,0.534,0.717,0.262,-0.385
41845420,-0.645,-0.556,0.522,-1.522,1.347,0.98
41845430,-0.696,-0.581,0.527,-3.237,-0.087,1.732
41845440,-0.663,-0.572,0.545,-4.165,-2.905,1.89
41845450,-0.636,-0.561,0.546,-5.46,-2.537,2.117
41845460,-0.655,-0.563,0.539,-8.977,-0.857,2.047
41845470,-0.671,-0.571,0.536,-11.9,-0.367,2.555
41845480,-0.685,-0.577,0.541,-14.665,-1.365,3.272
41845490,-0.676,-0.589,0.524,-17.202,-3.062,3.342
41845500,-0.667,-0.555,0.537,-18.655,-5.862,4.357
41845510,-0.619,-0.553,0.519,-23.625,-7.7,6.44
41845520,-0.577,-0.585,0.505,-28.192,-5.46,9.73
41845530,-0.61,-0.649,0.492,-27.772,-2.415,12.267
41845540,-0.638,-0.631,0.494,-22.627,-1.942,11.97
41845550,-0.622,-0.592,0.485,-18.62,-3.605,10.027
41845560,-0.64,-0.615,0.491,-18.165,-2.905,11.672
41845570,-0.63,-0.626,0.522,-15.942,-1.172,14.472
41845580,-0.606,-0.625,0.491,-12.057,2.502,12.6
41845590,-0.639,-0.573,0.482,-7.682,4.882,9.082
41845600,-0.688,-0.557,0.471,-6.86,4.2,8.54
41845610,-0.735,-0.57,0.464,-6.002,-1.085,8.925
41845620,-0.707,-0.588,0.469,-2.187,-6.93,7.315
41845630,-0.671,-0.569,0.467,3.185,-9.59,6.772
41845640,-0.66,-0.539,0.514,2.152,-9.397,7.77
41845650,-0.701,-0.591,0.501,-0.98,-9.257,6.65
41845660,-0.681,-0.581,0.513,0.7,-11.935,6.37
41845670,-0.71,-0.546,0.514,0.245,-13.597,4.252
41845670,-0.717,-0.574,0.501,-1.33,-16.502,3.447
41845690,-0.715,-0.55,0.508,2.642,-18.497,0.455
41845690,-0.688,-0.505,0.524,2.03,-19.32,-0.857
41845710,-0.715,-0.534,0.507,-2.992,-18.322,0.437
41845710,-0.733,-0.594,0.492,-0.507,-20.807,-0.945
41845730,-0.699,-0.527,0.536,8.172,-25.165,-5.932
41845730,-0.64,-0.486,0.532,13.125,-26.442,-8.89
41845750,-0.584,-0.477,0.535,14.175,-23.327,-8.767
41845750,-0.533,-0.548,0.581,10.395,-15.575,-4.672
41845760,-0.585,-0.605,0.573,7.472,-8.277,3.167
41845770,-0.63,-0.607,0.543,10.395,-7.472,5.267
41845780,-0.568,-0.556,0.495,22.75,-6.422,0.087
41845790,-0.561,-0.484,0.533,30.327,-3.727,-3.552
41845800,-0.608,-0.526,0.504,30.52,2.327,-0.087
41845810,-0.962,-0.583,0.53,28.665,-15.015,0.91
41845820,-0.266,-0.634,0.64,22.89,-25.777,-4.007
41845830,-0.416,-0.675,0.612,21.087,5.775,8.662
41845840,-0.657,-0.556,0.628,16.502,23.257,11.83
41845850,-0.625,-0.51,0.601,2.117,19.407,13.965
41845860,-0.587,-0.606,0.547,-11.917,16.59,19.04
41845870,-0.581,-0.594,0.546,-14.42,22.12,20.58
41845880,-0.623,-0.542,0.513,-14.21,29.12,21.455
41845890,-0.664,-0.517,0.469,-13.44,32.725,22.015
41845900,-0.711,-0.538,0.457,-11.515,31.972,19.792
41845910,-0.73,-0.558,0.435,-6.195,29.977,16.292
41845920,-0.775,-0.55,0.434,1.26,29.347,12.757
41845930,-0.915,-0.528,0.457,6.44,23.24,8.47
41845940,-0.919,-0.567,0.448,7.997,5.425,1.295
41845950,-0.798,-0.573,0.455,11.462,-9.24,-5.547
41845960,-0.761,-0.563,0.475,14.472,-11.76,-8.575
41845970,-0.786,-0.553,0.473,16.047,-9.607,-11.042
41845980,-0.803,-0.548,0.474,18.585,-10.535,-15.82
41845990,-0.765,-0.54,0.46,23.887,-13.825,-21.42
41846000,-0.719,-0.529,0.483,30.747,-14.035,-26.67
41846010,-0.704,-0.555,0.568,31.972,-16.222,-29.995
41846020,-0.547,-0.612,0.607,27.195,-18.217,-29.102
41846030,-0.537,-0.596,0.623,21.647,-16.327,-21.542
41846040,-0.542,-0.532,0.619,12.985,-13.772,-13.352
41846050,-0.519,-0.499,0.569,6.265,-9.327,-7.892
41846060,-0.575,-0.467,0.554,2.73,-4.69,-2.852
41846070,-0.624,-0.473,0.535,0.91,-2.555,0.805
41846080,-0.649,-0.496,0.525,1.89,-2.31,1.102
41846080,-0.678,-0.522,0.529,3.885,-1.592,-0.157
41846100,-0.752,-0.578,0.521,6.737,-0.542,-2.222
41846100,-0.94,-0.543,0.402,20.37,-16.117,-11.9
41846120,-0.337,-0.354,0.596,26.67,-15.452,-21.385
41846120,-0.886,-0.628,0.609,3.955,0,-1.26
41846140,-0.759,-0.722,0.583,3.027,-6.037,-2.695
41846140,-0.604,-0.535,0.617,4.69,-14.227,-6.212
41846160,-0.584,-0.523,0.566,-3.027,-12.092,-3.237
41846160,-0.599,-0.528,0.552,-5.005,-8.015,-2.73
41846170,-0.606,-0.524,0.552,-4.13,-6.037,-1.785
41846180,-0.595,-0.551,0.553,-4.095,-3.692,-0.262
41846190,-0.633,-0.595,0.56,-5.495,-0.857,1.347
41846200,-0.65,-0.622,0.557,-5.757,0.665,0.962
41846210,-0.652,-0.608,0.556,-6.807,0.595,-0.402
41846220,-0.657,-0.635,0.521,-8.715,0.087,-0.822
41846230,-0.656,-0.588,0.478,-2.572,1.417,-3.185
41846240,-0.676,-0.527,0.486,3.097,3.972,-7.98
41846250,-0.732,-0.52,0.464,5.075,4.707,-9.642
41846260,-0.738,-0.498,0.528,7.7,0.98,-8.487
41846270,-0.713,-0.548,0.54,6.632,-5.075,-5.425
41846280,-0.636,-0.54,0.563,7.927,-8.837,-5.985
41846290,-0.607,-0.509,0.597,8.487,-7.665,-5.25
41846300,-0.592,-0.513,0.6,6.247,-7.612,-2.537
41846310,-0.541,-0.489,0.599,5.425,-7.822,-0.77
41846320,-0.527,-0.476,0.597,3.045,-5.232,2.1
41846330,-0.548,-0.49,0.599,-0.472,-1.995,6.475
41846340,-0.532,-0.48,0.609,-4.55,0.315,10.762
41846350,-0.549,-0.532,0.591,-10.36,6.475,16.047
41846360,-0.654,-0.578,0.566,-11.252,9.17,18.725
41846370,-0.577,-0.531,0.575,-8.155,10.412,16.292
41846380,-0.649,-0.546,0.551,-9.817,16.047,16.8
41846390,-0.736,-0.548,0.506,-8.645,17.622,14.612
41846400,-0.729,-0.488,0.499,-5.495,14.14,10.517
41846410,-0.717,-0.529,0.498,-4.515,11.007,8.68
41846420,-0.747,-0.56,0.517,-1.767,11.34,8.382
41846420,-0.798,-0.578,0.528,-0.665,9.205,5.442
41846440,-0.762,-0.602,0.526,-0.577,4.34,1.627
41846440,-0.73,-0.583,0.536,-0.052,0.472,-0.245
41846460,-0.719,-0.56,0.522,-1.155,-2.17,-1.172
41846460,-0.678,-0.549,0.517,-1.68,-4.357,-2.73
41846480,-0.649,-0.548,0.517,-1.417,-4.357,-3.972
41846480,-0.637,-0.544,0.521,-0.752,-2.73,-4.445
41846500,-0.619,-0.558,0.529,-0.77,-0.752,-4.077
41846500,-0.623,-0.565,0.535,-0.822,2.152,-3.097
41846510,-0.667,-0.56,0.532,-2.292,4.2,-2.45
41846520,-0.68,-0.561,0.527,-3.762,3.325,-2.432
41846530,-0.669,-0.559,0.521,-3.885,1.96,-2.24
41846540,-0.69,-0.552,0.515,-3.255,2.345,-2.03
41846550,-0.697,-0.55,0.499,-2.835,1.872,-2.187
41846560,-0.695,-0.542,0.499,-2.17,0.14,-3.045
41846570,-0.671,-0.57,0.497,-1.207,-0.752,-3.08
41846580,-0.663,-0.575,0.513,1.242,0.385,-3.08
41846590,-0.66,-0.582,0.517,2.625,1.242,-2.327
41846600,-0.63,-0.562,0.508,4.165,1.085,-1.977
41846610,-0.599,-0.533,0.499,5.6,2.45,-1.557
41846620,-0.616,-0.528,0.508,5.092,4.795,0.577
41846630,-0.634,-0.534,0.52,3.762,5.355,2.975
41846640,-0.639,-0.546,0.528,2.345,5.075,4.725
41846650,-0.657,-0.555,0.521,0.735,5.145,5.722
41846660,-0.679,-0.549,0.524,-0.28,5.215,5.477
41846670,-0.705,-0.55,0.516,-0.77,5.46,4.9
41846680,-0.73,-0.549,0.507,-0.735,5.425,3.675
41846690,-0.746,-0.543,0.504,-0.192,4.83,1.785
41846700,-0.753,-0.546,0.514,-0.07,3.57,0.455
41846710,-0.741,-0.551,0.52,-0.35,1.085,-0.787
41846720,-0.718,-0.546,0.524,-0.647,-0.717,-2.782
41846730,-0.707,-0.546,0.534,-0.647,-1.907,-4.69
41846740,-0.717,-0.55,0.509,-0.612,-2.205,-6.125
41846750,-0.735,-0.544,0.509,-0.77,-3.325,-7.77
41846760,-0.746,-0.546,0.504,-1.032,-5.075,-8.05
41846770,-0.731,-0.541,0.517,-1.452,-8.12,-7.28
41846780,-0.722,-0.549,0.523,-3.622,-10.552,-6.352
41846790,-0.729,-0.537,0.526,-6.23,-13.72,-6.142
41846800,-0.686,-0.532,0.536,-9.012,-17.762,-6.615
41846810,-0.688,-0.528,0.542,-12.635,-20.597,-6.247
41846820,-0.692,-0.55,0.532,-17.395,-23.397,-7.437
41846830,-0.694,-0.556,0.521,-19.53,-24.972,-10.692
41846830,-0.713,-0.551,0.535,-20.632,-26.635,-14.49
41846850,-0.711,-0.576,0.517,-22.75,-27.212,-18.9
41846850,-0.75,-0.544,0.517,-22.96,-28.612,-26.145
41846870,-0.743,-0.532,0.517,-25.007,-33.372,-32.077
41846870,-0.707,-0.569,0.527,-28.122,-37.45,-33.985
41846890,-0.701,-0.602,0.519,-28.787,-38.675,-33.267
41846890,-0.677,-0.61,0.519,-26.95,-39.655,-31.447
41846910,-0.623,-0.595,0.548,-24.85,-39.55,-29.312
41846910,-0.59,-0.596,0.525,-21.315,-38.325,-24.255
41846920,-0.527,-0.558,0.51,-17.815,-35.647,-21.875
41846930,-0.44,-0.501,0.531,-16.8,-27.09,-18.06
41846940,-0.578,-0.647,0.544,-20.65,-18.865,-8.487
41846950,-0.46,-0.672,0.533,-19.495,-19.057,-6.335
41846960,-0.433,-0.639,0.539,-18.602,-12.442,-5.197
41846970,-0.474,-0.637,0.508,-19.092,-4.252,-1.242
41846980,-0.503,-0.637,0.487,-17.045,1.61,3.727
41846990,-0.535,-0.646,0.456,-13.965,6.755,4.497
41847000,-0.609,-0.668,0.467,-9.642,9.135,2.922
41847010,-0.629,-0.684,0.469,-4.41,6.632,1.627
41847020,-0.616,-0.668,0.467,0.42,4.865,1.102
41847030,-0.666,-0.654,0.472,3.587,6.16,-0.21
41847040,-0.723,-0.676,0.486,7.157,4.042,-3.43
41847050,-0.708,-0.69,0.52,12.442,-2.992,-9.03
41847060,-0.634,-0.682,0.547,14.367,-8.015,-12.215
41847070,-0.654,-0.642,0.506,13.825,-8.96,-15.102
41847080,-0.648,-0.622,0.524,13.457,-10.167,-20.912
41847090,-0.633,-0.632,0.519,11.602,-12.512,-23.467
41847100,-0.599,-0.593,0.526,9.292,-12.32,-24.972
41847110,-0.628,-0.594,0.507,4.777,-9.555,-24.745
41847120,-0.663,-0.605,0.494,1.82,-11.655,-23.905
41847130,-0.627,-0.627,0.483,-0.98,-15.942,-26.267
41847140,-0.612,-0.651,0.471,-3.675,-17.342,-28.21
41847150,-0.635,-0.698,0.461,-4.497,-17.552,-30.695
41847160,-0.693,-0.743,0.458,-1.575,-20.23,-35.752
41847170,-0.71,-0.721,0.479,4.585,-27.475,-41.877
41847170,-0.659,-0.69,0.514,9.362,-34.58,-51.065
41847190,-0.64,-0.628,0.529,12.635,-37.415,-56.472
41847190,-0.546,-0.552,0.621,15.645,-39.952,-51.957
41847210,-0.491,-0.581,0.653,13.23,-40.075,-46.445
41847210,-0.426,-0.573,0.683,10.535,-39.217,-49.14
41847230,-0.399,-0.615,0.702,5.057,-35.385,-49.647
41847230,-0.449,-0.65,0.65,0.822,-30.537,-44.73
41847250,-0.467,-0.658,0.593,-0.665,-28.805,-43.242
41847250,-0.436,-0.67,0.568,0.21,-28.14,-43.015
41847260,-0.474,-0.728,0.524,1.435,-25.515,-36.697
41847270,-0.459,-0.782,0.529,4.392,-25.165,-33.04
41847280,-0.427,-0.771,0.518,9.292,-25.217,-31.815
41847290,-0.368,-0.715,0.539,14,-24.552,-29.347
41847300,-0.306,-0.651,0.518,16.362,-22.522,-23.572
41847310,-0.219,-0.607,0.569,16.94,-16.625,-17.885
41847320,-0.193,-0.679,0.604,14.227,-6.982,-9.73
41847330,-0.234,-0.683,0.579,14.945,0.262,-5.862
41847340,-0.162,-0.607,0.567,19.757,4.882,-6.825
41847350,-0.141,-0.601,0.538,24.727,15.96,-5.775
41847360,-0.034,-0.556,0.544,25.305,31.5,1.295
41847370,-0.172,-0.644,0.621,10.132,54.425,21.017
41847380,-0.449,-0.769,0.585,-0.455,68.81,35.805
41847390,-0.48,-0.683,0.595,1.137,67.795,38.325
41847400,-0.598,-0.679,0.581,-0.052,67.34,42.245
41847410,-0.694,-0.71,0.581,3.237,63.542,43.837
41847420,-0.665,-0.682,0.554,9.275,55.387,40.145
41847430,-0.597,-0.577,0.455,15.907,49.91,36.96
41847440,-0.625,-0.473,0.444,27.825,49.402,36.207
41847450,-0.56,-0.522,0.501,33.862,45.377,38.85
41847460,-0.46,-0.614,0.5,34.685,41.597,45.937
41847470,-0.459,-0.627,0.559,40.565,45.045,48.615
41847480,-0.554,-0.655,0.54,40.197,49.875,44.835
41847490,-0.61,-0.648,0.57,37.677,51.66,37.852
41847500,-0.772,-0.67,0.601,29.382,49.717,36.75
41847510,-0.789,-0.689,0.598,19.092,41.562,36.312
41847520,-0.728,-0.667,0.63,9.222,35.7,33.827
41847530,-0.694,-0.621,0.673,-8.085,30.292,36.89
41847540,-0.666,-0.684,0.605,-26.005,30.747,37.24
41847550,-0.715,-0.61,0.523,-26.092,30.45,27.93
41847560,-0.589,-0.518,0.556,-26.985,29.312,19.635
41847570,-0.898,-0.636,0.48,-30.852,29.067,18.97
41847580,-0.938,-0.637,0.324,-16.905,9.852,5.197
41847580,-0.911,-0.514,0.391,-1.19,-15.645,-11.655
41847600,-0.692,-0.549,0.407,5.145,-23.415,-15.61
41847600,-0.816,-0.63,0.402,10.675,-15.19,-11.725
41847620,-0.908,-0.593,0.462,17.325,-15.907,-16.782
41847620,-0.832,-0.575,0.501,18.392,-26.267,-23.362
41847630,-0.78,-0.589,0.501,17.097,-36.61,-25.795
41847640,-0.669,-0.574,0.552,16.555,-43.225,-28.297
41847650,-0.582,-0.562,0.586,12.32,-44.292,-28.56
41847660,-0.534,-0.578,0.613,7.665,-42.192,-26.967
41847670,-0.46,-0.579,0.638,4.812,-39.392,-25.182
41847680,-0.386,-0.532,0.649,2.152,-34.65,-22.085
41847690,-0.345,-0.554,0.637,-2.31,-25.62,-16.397
41847700,-0.373,-0.593,0.638,-6.16,-14.332,-11.97
41847710,-0.406,-0.605,0.623,-6.632,-4.252,-9.537
41847720,-0.413,-0.571,0.606,-5.81,3.237,-7.857
41847730,-0.438,-0.57,0.573,-8.82,9.957,-3.885
41847740,-0.492,-0.597,0.559,-13.09,15.102,2.1
41847750,-0.535,-0.631,0.549,-14.682,17.71,5.495
41847760,-0.547,-0.65,0.526,-14.052,18.147,7.875
41847770,-0.554,-0.639,0.524,-12.355,18.55,9.082
41847780,-0.574,-0.637,0.523,-12.232,19.11,10.867
41847790,-0.603,-0.65,0.507,-12.46,19.757,12.477
41847800,-0.612,-0.647,0.501,-12.04,18.987,12.512
41847810,-0.606,-0.642,0.494,-11.952,18.515,12.215
41847820,-0.622,-0.643,0.486,-10.71,19.18,12.355
41847830,-0.638,-0.64,0.469,-8.435,18.41,11.042
41847840,-0.639,-0.61,0.472,-4.987,16.747,7.997
41847850,-0.649,-0.617,0.465,-2.712,15.295,7.245
41847860,-0.681,-0.631,0.466,0.472,13.667,7.612
41847870,-0.671,-0.63,0.47,4.637,11.655,6.3
41847880,-0.68,-0.63,0.491,6.527,9.992,4.69
41847890,-0.708,-0.65,0.49,7.857,7.752,3.22
41847900,-0.688,-0.634,0.502,9.31,4.585,0.087
41847910,-0.661,-0.612,0.516,9.957,2.537,-2.957
41847920,-0.647,-0.596,0.522,8.697,2.345,-3.78
41847920,-0.648,-0.595,0.524,6.545,2.87,-3.552
41847940,-0.655,-0.6,0.523,5.407,2.852,-3.465
41847940,-0.653,-0.598,0.526,5.477,2.152,-4.55
41847960,-0.646,-0.589,0.533,5.005,1.085,-5.67
41847960,-0.633,-0.587,0.529,3.587,0.437,-7.787
41847980,-0.631,-0.581,0.538,1.417,-0.455,-9.502
41847980,-0.625,-0.602,0.533,-1.802,-0.84,-9.485
41848000,-0.622,-0.627,0.521,-3.132,-0.14,-9.712
41848000,-0.621,-0.643,0.517,-3.885,0.367,-9.52
41848010,-0.611,-0.647,0.501,-4.025,1.855,-11.2
41848020,-0.629,-0.636,0.499,-4.235,3.552,-11.27
41848030,-0.639,-0.643,0.486,-5.127,3.29,-10.972
41848040,-0.623,-0.654,0.469,-5.6,1.872,-11.165
41848050,-0.61,-0.665,0.457,-4.725,1.452,-11.742
41848060,-0.612,-0.663,0.456,-3.115,1.785,-12.145
41848070,-0.616,-0.66,0.458,-0.91,1.855,-12.372
41848080,-0.609,-0.659,0.458,1.067,1.085,-11.165
41848090,-0.599,-0.671,0.455,2.712,0.315,-9.94
41848100,-0.599,-0.669,0.458,4.742,0.122,-9.222
41848110,-0.59,-0.659,0.464,6.265,0.542,-8.487
41848120,-0.597,-0.675,0.461,6.755,0.822,-7.98
41848130,-0.592,-0.665,0.472,9.205,0.665,-7.7
41848140,-0.579,-0.653,0.477,10.797,0.402,-6.877
41848150,-0.582,-0.649,0.476,11.742,0.455,-5.705
41848160,-0.581,-0.639,0.486,12.757,0.56,-4.34
41848170,-0.583,-0.632,0.489,13.072,0.84,-2.205
41848180,-0.59,-0.631,0.492,12.897,0.875,0.087
41848190,-0.595,-0.634,0.498,12.81,0.752,1.872
41848200,-0.609,-0.626,0.505,12.582,0.245,2.835
41848210,-0.6,-0.632,0.502,12.67,-0.437,3.272
41848220,-0.59,-0.622,0.506,13.3,-0.227,3.027
41848230,-0.596,-0.611,0.51,13.37,0.49,3.29
41848240,-0.604,-0.605,0.517,13.055,0.63,4.725
41848250,-0.607,-0.606,0.523,12.757,0.437,5.932
41848260,-0.618,-0.601,0.528,13.037,0.14,6.842
41848270,-0.622,-0.591,0.536,13.195,-0.42,7.455
41848280,-0.625,-0.587,0.534,13.09,-1.435,7.892
41848290,-0.619,-0.579,0.534,12.827,-2.345,7.35
41848300,-0.612,-0.578,0.537,12.022,-2.275,7.07
41848300,-0.63,-0.58,0.546,11.655,-2.152,7.682
41848320,-0.632,-0.583,0.553,11.55,-2.555,7.437
41848320,-0.63,-0.584,0.557,11.13,-2.24,6.755
41848330,-0.643,-0.578,0.561,9.975,-1.54,6.212
41848340,-0.649,-0.576,0.565,7.577,-1.172,5.53
41848350,-0.649,-0.587,0.559,4.427,-0.927,4.83
41848360,-0.649,-0.592,0.553,1.942,-0.875,3.745
41848370,-0.649,-0.591,0.546,0.035,-1.26,2.677
41848380,-0.641,-0.6,0.532,-1.137,-1.767,1.75
41848390,-0.634,-0.604,0.525,-0.805,-1.802,0.77
41848400,-0.633,-0.597,0.514,-0.63,-1.295,0.175
41848410,-0.637,-0.603,0.51,-1.032,-1.172,-0.332
41848420,-0.646,-0.62,0.504,-1.137,-1.855,-0.122
41848430,-0.64,-0.629,0.497,-0.017,-2.747,-0.525
41848440,-0.632,-0.628,0.496,1.505,-3.447,-1.365
41848450,-0.624,-0.628,0.493,2.817,-3.902,-1.662
41848460,-0.605,-0.618,0.499,4.077,-4.077,-1.487
41848470,-0.592,-0.619,0.501,4.62,-3.517,-0.192
41848480,-0.592,-0.62,0.499,5.407,-2.1,1.295
41848490,-0.596,-0.617,0.504,6.492,-0.735,2.45
41848500,-0.602,-0.618,0.504,7.665,0.07,3.622
41848510,-0.601,-0.609,0.507,9.38,0.49,4.97
41848520,-0.597,-0.602,0.508,10.885,0.857,5.88
41848530,-0.59,-0.59,0.512,11.777,1.347,6.212
41848540,-0.592,-0.588,0.524,11.865,2.187,7.227
41848550,-0.605,-0.596,0.525,11.182,2.992,8.75
41848560,-0.609,-0.602,0.535,11.392,3.832,10.202
41848570,-0.611,-0.599,0.541,11.637,4.865,11.69
41848580,-0.611,-0.588,0.545,11.882,6.282,12.985
41848590,-0.613,-0.568,0.551,11.2,7.805,13.615
41848600,-0.616,-0.564,0.542,9.292,9.502,13.702
41848610,-0.634,-0.553,0.551,7.577,11.042,13.545
41848620,-0.656,-0.551,0.548,5.355,11.497,12.635
41848630,-0.666,-0.549,0.546,3.885,11.077,11.532
41848640,-0.689,-0.548,0.544,2.8,9.765,12.005
41848650,-0.689,-0.559,0.538,2.012,8.365,12.477
41848660,-0.696,-0.557,0.534,1.47,6.825,12.355
41848670,-0.688,-0.551,0.542,-0.175,5.705,11.322
41848670,-0.683,-0.561,0.536,-3.377,5.057,10.36
41848690,-0.665,-0.575,0.531,-5.547,5.547,9.537
41848690,-0.662,-0.577,0.53,-6.737,6.247,9.765
41848710,-0.647,-0.586,0.518,-8.207,7.21,10.29
41848710,-0.629,-0.561,0.511,-10.272,9.45,12.057
41848730,-0.71,-0.575,0.509,-13.16,10.255,16.59
41848730,-0.679,-0.593,0.5,-14.052,10.22,15.522
41848750,-0.649,-0.585,0.497,-14.052,9.467,13.37
41848750,-0.662,-0.588,0.485,-14.192,9.537,14
41848760,-0.662,-0.585,0.475,-13.09,9.817,14.332
41848770,-0.659,-0.583,0.46,-12.127,10.482,14.472
41848780,-0.671,-0.59,0.461,-10.342,11.427,15.102
41848790,-0.658,-0.586,0.454,-7.402,12.88,15.505
41848800,-0.677,-0.578,0.457,-4.795,13.492,16.817
41848810,-0.685,-0.576,0.455,-2.432,13.615,17.167
41848820,-0.681,-0.577,0.445,-0.192,13.895,17.027
41848830,-0.694,-0.569,0.447,2.1,14.315,16.345
41848840,-0.708,-0.559,0.45,4.025,14.227,15.907
41848850,-0.73,-0.554,0.457,4.55,12.355,16.555
41848860,-0.726,-0.562,0.457,4.532,10.412,16.625
41848870,-0.726,-0.563,0.455,4.41,9.03,15.977
41848880,-0.738,-0.57,0.452,4.62,7.997,15.732
41848890,-0.72,-0.559,0.454,4.777,7.192,16.17
41848900,-0.751,-0.542,0.473,2.642,6.527,16.887
41848910,-0.766,-0.554,0.473,-0.612,3.937,15.732
41848920,-0.726,-0.581,0.466,-3.657,1.487,14.42
41848930,-0.754,-0.565,0.478,-4.742,0.07,15.715
41848940,-0.783,-0.541,0.477,-6.247,-1.96,14.962
41848950,-0.716,-0.585,0.459,-8.925,-4.287,11.69
41848960,-0.663,-0.568,0.477,-7.14,-0.595,11.077
41848970,-0.736,-0.52,0.454,-5.53,4.777,10.71
41848980,-0.828,-0.512,0.428,-6.72,1.925,11.97
41848990,-0.803,-0.503,0.427,-6.265,-6.352,9.782
41849000,-0.717,-0.51,0.424,-4.252,-10.85,8.33
41849010,-0.716,-0.5,0.415,-0.385,-7.822,8.89
41849010,-0.807,-0.468,0.446,-0.612,-6.125,8.155
41849030,-0.838,-0.484,0.455,-4.375,-10.797,6.755
41849030,-0.804,-0.535,0.463,-6.09,-19.022,6.02
41849050,-0.699,-0.549,0.474,-1.382,-20.79,5.005
41849050,-0.674,-0.513,0.501,4.165,-17.517,3.482
41849070,-0.669,-0.481,0.506,7.21,-11.83,1.417
41849070,-0.673,-0.491,0.502,8.382,-6.772,0.28
41849080,-0.703,-0.5,0.495,10.587,-3.57,0.35
41849090,-0.721,-0.48,0.484,13.16,-2.415,-1.54
41849100,-0.726,-0.485,0.5,12.6,-1.732,-2.59
41849110,-0.775,-0.519,0.485,9.992,-1.522,-1.242
41849120,-0.781,-0.53,0.506,8.102,-3.29,0.402
41849130,-0.818,-0.523,0.492,2.992,-5.565,3.605
41849140,-0.772,-0.587,0.432,0.507,-12.705,0.612
41849150,-0.749,-0.502,0.461,5.565,-16.642,-2.73
41849160,-0.732,-0.491,0.448,6.58,-17.272,-6.755
41849170,-0.759,-0.529,0.45,6.107,-19.442,-7.28
41849180,-0.724,-0.539,0.444,10.692,-22.82,-7.892
41849190,-0.698,-0.517,0.45,15.435,-25.322,-9.082
41849200,-0.696,-0.52,0.436,18.865,-26.582,-10.552
41849210,-0.675,-0.513,0.44,22.715,-26.127,-10.727
41849220,-0.665,-0.525,0.465,25.585,-20.982,-9.782
41849230,-0.732,-0.56,0.486,26.11,-16.362,-6.16
41849240,-0.756,-0.573,0.513,26.162,-15.767,-5.232
41849250,-0.744,-0.578,0.522,25.392,-17.045,-6.597
41849260,-0.726,-0.556,0.537,24.727,-18.427,-8.365
41849270,-0.686,-0.529,0.545,23.397,-18.515,-9.66
41849280,-0.66,-0.525,0.524,22.802,-16.397,-10.062
41849290,-0.665,-0.484,0.516,25.602,-12.285,-12.11
41849300,-0.692,-0.446,0.518,26.46,-12.18,-13.912
41849310,-0.67,-0.449,0.51,27.685,-13.422,-13.755
41849320,-0.678,-0.449,0.54,29.277,-13.947,-13.177
41849330,-0.664,-0.472,0.581,28.437,-15.382,-11.252
41849340,-0.666,-0.496,0.601,26.845,-16.135,-7.805
41849350,-0.661,-0.491,0.62,25.41,-16.8,-4.812
41849360,-0.647,-0.48,0.646,20.475,-17.465,-2.94
41849370,-0.64,-0.498,0.644,13.615,-16.905,-1.925
41849380,-0.571,-0.498,0.666,9.327,-13.457,-1.452
41849390,-0.58,-0.507,0.647,4.007,-4.375,1.785
41849400,-0.664,-0.487,0.625,-0.56,-1.767,3.692
41849410,-0.65,-0.487,0.591,-1.645,-3.78,3.587
41849420,-0.611,-0.47,0.604,-2.24,-6.317,3.78
41849420,-0.59,-0.501,0.598,-6.86,-5.18,5.442
41849440,-0.596,-0.53,0.538,-8.33,-0.35,7.507
41849440,-0.649,-0.475,0.535,-6.842,8.015,7.945
41849460,-0.777,-0.486,0.539,-9.415,10.062,7.962
41849460,-0.774,-0.536,0.523,-10.43,6.947,5.547
41849480,-0.762,-0.54,0.528,-10.202,2.59,3.395
41849480,-0.774,-0.534,0.552,-11.742,-0.262,3.062
41849500,-0.756,-0.533,0.556,-14.665,-2.257,2.152
41849500,-0.723,-0.536,0.529,-17.342,-2.45,1.365
41849510,-0.677,-0.522,0.529,-18.322,-1.032,1.732
41849520,-0.679,-0.508,0.526,-19.512,3.657,0.577
41849530,-0.707,-0.512,0.516,-20.492,5.932,-2.222
41849540,-0.69,-0.522,0.5,-18.322,3.692,-4.025
41849550,-0.677,-0.528,0.5,-12.967,1.942,-4.392
41849560,-0.698,-0.516,0.497,-6.685,0.105,-4.55
41849570,-0.655,-0.496,0.503,-1.61,-1.89,-4.83
41849580,-0.683,-0.502,0.508,3.22,-2.975,-4.585
41849590,-0.662,-0.518,0.531,8.19,-5.267,-4.952
41849600,-0.649,-0.513,0.533,11.655,-5.267,-4.252
41849610,-0.769,-0.494,0.477,14.122,-8.452,-4.917
41849620,-0.793,-0.463,0.556,16.975,-22.75,-8.207
41849630,-0.493,-0.499,0.568,14.42,-22.382,-7.507
41849640,-0.59,-0.546,0.609,11.375,-8.085,-2.257
41849650,-0.725,-0.514,0.615,11.077,0.175,0.367
41849660,-0.652,-0.472,0.6,9.38,0.367,-0.525
41849670,-0.643,-0.468,0.595,6.597,0.892,-0.612
41849680,-0.635,-0.48,0.586,4.007,3.552,1.767
41849690,-0.617,-0.47,0.588,2.117,9.38,4.13
41849700,-0.671,-0.481,0.596,-2.485,13.335,6.527
41849710,-0.691,-0.516,0.587,-7.105,13.58,7.472
41849720,-0.678,-0.533,0.569,-9.677,12.11,7.07
41849730,-0.651,-0.529,0.573,-12.88,12.985,7.28
41849740,-0.66,-0.538,0.534,-16.117,13.965,8.715
41849750,-0.623,-0.487,0.543,-19.39,16.117,11.427
41849760,-0.681,-0.515,0.55,-28.49,15.452,17.657
41849760,-0.655,-0.542,0.519,-35.63,14.752,21.91
41849780,-0.624,-0.543,0.521,-41.667,15.89,24.027
41849780,-0.586,-0.556,0.501,-45.937,23.082,26.547
41849800,-0.676,-0.547,0.498,-49.665,30.537,28.752
41849800,-0.781,-0.557,0.477,-54.81,32.602,30.17
41849820,-0.841,-0.588,0.45,-57.61,25.445,30.222
41849820,-0.866,-0.548,0.42,-56.262,12.705,27.685
41849830,-0.849,-0.533,0.423,-56.962,0.035,25.55
41849840,-0.834,-0.545,0.41,-58.537,-9.555,24.185
41849850,-0.82,-0.558,0.413,-57.732,-16.66,22.26
41849860,-0.798,-0.586,0.394,-51.712,-20.335,17.71
41849870,-0.768,-0.612,0.384,-40.18,-20.79,10.062
41849880,-0.855,-0.541,0.38,-24.5,-21.332,3.972
41849890,-0.843,-0.51,0.387,-12.005,-26.267,-3.325
41849900,-0.878,-0.523,0.373,-0.07,-30.922,-6.895
41849910,-0.902,-0.501,0.369,14.542,-40.337,-9.905
41849920,-0.821,-0.471,0.386,27.37,-48.982,-14.402
41849930,-0.784,-0.486,0.401,37.8,-52.517,-20.002
41849940,-0.753,-0.489,0.432,49.157,-51.922,-26.005
41849950,-0.732,-0.462,0.468,59.85,-49.525,-30.642
41849960,-0.739,-0.433,0.504,68.285,-48.142,-33.845
41849970,-0.732,-0.423,0.536,73.99,-49.997,-35.087
41849980,-0.703,-0.438,0.541,75.53,-54.005,-35.612
41849990,-0.709,-0.473,0.564,76.37,-59.657,-34.737
41850000,-0.644,-0.444,0.6,76.842,-64.085,-33.722
41850010,-0.574,-0.464,0.626,69.37,-64.662,-33.302
41850020,-0.496,-0.513,0.64,65.975,-57.417,-30.87
41850030,-0.509,-0.425,0.733,60.935,-47.757,-26.372
41850040,-0.544,-0.501,0.687,40.477,-46.357,-18.952
41850050,-0.422,-0.595,0.676,33.39,-41.3,-12.215
41850060,-0.424,-0.49,0.71,31.622,-29.417,-7.455
41850070,-0.489,-0.495,0.681,20.685,-20.23,-0.472
41850080,-0.46,-0.491,0.616,17.43,-12.267,2.1
41850090,-0.521,-0.488,0.645,14.14,-5.827,3.29
41850100,-0.593,-0.526,0.649,13.44,-2.275,4.41
41850110,-0.578,-0.561,0.619,15.347,-4.62,3.167
41850120,-0.58,-0.494,0.626,18.777,-5.792,3.202
41850130,-0.607,-0.495,0.619,17.622,-1.75,4.252
41850140,-0.633,-0.544,0.608,15.977,2.747,3.867
41850150,-0.694,-0.515,0.615,18.62,4.235,3.045
41850160,-0.693,-0.476,0.633,18.865,1.032,2.187
41850170,-0.668,-0.485,0.622,17.972,-2.135,1.382
41850170,-0.662,-0.487,0.611,18.952,-3.78,0.437
41850190,-0.663,-0.447,0.605,20.982,-4.182,-0.105
41850190,-0.718,-0.45,0.617,20.58,-5.705,-1.242
41850210,-0.713,-0.475,0.617,22.61,-10.115,-5.32
41850210,-0.659,-0.454,0.629,26.897,-14.507,-9.065
41850230,-0.63,-0.44,0.667,28.332,-15.925,-9.38
41850230,-0.601,-0.45,0.679,28.14,-14.315,-9.975
41850250,-0.582,-0.424,0.712,28.735,-12.215,-10.237
41850250,-0.539,-0.416,0.72,25.882,-9.695,-9.485
41850260,-0.545,-0.429,0.728,20.755,-7.455,-6.475
41850270,-0.553,-0.429,0.748,14.735,-7.087,-3.972
41850280,-0.498,-0.462,0.728,7.875,-5.897,-1.452
41850290,-0.513,-0.477,0.727,4.095,-1.067,2.432
41850300,-0.523,-0.453,0.723,0.595,3.325,4.322
41850310,-0.499,-0.451,0.711,-5.547,8.382,7.472
41850320,-0.524,-0.459,0.708,-12.792,15.522,12.32
41850330,-0.557,-0.464,0.704,-20.562,20.982,16.87
41850340,-0.54,-0.452,0.695,-29.137,26.39,21.28
41850350,-0.565,-0.462,0.705,-40.547,32.917,26.932
41850360,-0.55,-0.48,0.738,-52.325,40.67,32.2
41850370,-0.625,-0.502,0.635,-61.617,50.032,35.367
41850380,-0.754,-0.445,0.668,-67.095,42.612,32.97
41850390,-0.516,-0.475,0.6,-69.317,44.17,30.03
41850400,-0.694,-0.482,0.543,-65.607,51.082,31.342
41850410,-0.742,-0.426,0.536,-58.817,48.667,25.777
41850420,-0.723,-0.414,0.502,-54.95,42.927,22.312
41850430,-0.74,-0.45,0.485,-50.662,38.657,21.472
41850440,-0.751,-0.469,0.502,-43.015,37.03,18.865
41850450,-0.744,-0.48,0.5,-34.86,36.155,15.102
41850460,-0.723,-0.493,0.497,-26.32,37.835,10.85
41850470,-0.739,-0.475,0.514,-16.362,42.035,6.23
41850480,-0.882,-0.484,0.514,-11.112,39.147,2.467
41850490,-0.918,-0.51,0.475,-7.91,20.212,-2.695
41850500,-0.736,-0.474,0.472,-0.7,6.545,-7.63
41850510,-0.765,-0.467,0.487,1.155,6.3,-7.752
41850510,-0.834,-0.505,0.481,1.855,5.092,-8.05
41850530,-0.818,-0.504,0.475,5.845,-1.627,-9.275
41850530,-0.751,-0.494,0.48,7.98,-7.892,-11.2
41850550,-0.67,-0.516,0.5,8.68,-9.187,-11.13
41850550,-0.679,-0.487,0.54,9.782,-4.97,-9.817
41850570,-0.706,-0.517,0.528,7.507,-3.167,-9.835
41850570,-0.67,-0.503,0.539,8.435,-4.62,-8.627
41850580,-0.614,-0.47,0.561,8.645,-3.255,-7.892
41850590,-0.618,-0.491,0.534,6.16,0.332,-6.107
41850600,-0.651,-0.486,0.554,7.21,5.092,-5.092
41850610,-0.755,-0.475,0.531,7.91,5.232,-5.582
41850620,-0.784,-0.521,0.507,9.327,-2.922,-7.77
41850630,-0.734,-0.524,0.49,16.222,-8.155,-10.342
41850640,-0.775,-0.484,0.493,21.77,-8.627,-13.895
41850650,-0.837,-0.491,0.478,24.745,-11.217,-15.767
41850660,-0.804,-0.505,0.455,29.977,-15.592,-18.252
41850670,-0.745,-0.477,0.487,36.732,-17.762,-21.437
41850680,-0.719,-0.468,0.503,40.687,-15.75,-24.255
41850690,-0.734,-0.465,0.534,43.925,-15.05,-25.655
41850700,-0.721,-0.472,0.584,44.485,-18.48,-27.65
41850710,-0.704,-0.493,0.616,41.23,-23.17,-26.355
41850720,-0.679,-0.481,0.634,37.012,-27.247,-25.077
41850730,-0.636,-0.472,0.649,29.995,-29.365,-24.15
41850740,-0.625,-0.491,0.639,22.785,-29.207,-19.897
41850750,-0.623,-0.491,0.624,18.252,-27.16,-17.57
41850760,-0.598,-0.483,0.62,15.505,-24.167,-16.8
41850770,-0.569,-0.475,0.627,12.862,-17.972,-15.347
41850780,-0.636,-0.483,0.601,10.71,-12.53,-14.542
41850790,-0.663,-0.475,0.589,10.5,-13.65,-15.102
41850800,-0.612,-0.46,0.584,10.885,-14.997,-14.367
41850810,-0.609,-0.48,0.59,9.782,-14.315,-12.057
41850820,-0.594,-0.503,0.606,9.24,-11.322,-10.867
41850830,-0.598,-0.514,0.631,8.277,-8.032,-9.1
41850840,-0.605,-0.518,0.636,6.265,-5.18,-6.58
41850850,-0.616,-0.514,0.633,3.692,-3.377,-4.97
41850860,-0.6,-0.503,0.625,1.435,-2.397,-3.517
41850870,-0.603,-0.49,0.618,-0.087,-0.91,-0.857
41850880,-0.606,-0.482,0.608,-1.417,0.787,1.33
41850890,-0.617,-0.488,0.606,-1.732,1.697,2.975
41850900,-0.607,-0.492,0.61,-0.84,2.327,4.777
41850910,-0.619,-0.487,0.62,-1.032,4.392,5.547
41850920,-0.643,-0.495,0.619,-3.08,6.055,4.812
41850920,-0.664,-0.504,0.607,-3.78,6.002,3.885
41850940,-0.677,-0.496,0.588,-3.64,5.355,2.432
41850940,-0.69,-0.492,0.575,-3.237,4.69,0.962
41850960,-0.687,-0.485,0.572,-1.872,5.11,-0.28
41850960,-0.752,-0.493,0.585,0.105,3.955,-1.505
41850980,-0.747,-0.494,0.584,3.237,-3.29,-3.535
41850980,-0.648,-0.484,0.604,6.282,-10.29,-5.652
41851000,-0.594,-0.487,0.618,6.702,-10.062,-5.215
41851000,-0.61,-0.497,0.616,6.247,-6.02,-4.532
41851010,-0.624,-0.488,0.612,5.197,-3.605,-4.445
41851020,-0.619,-0.484,0.595,4.322,-3.307,-3.99
41851030,-0.616,-0.488,0.578,4.41,-2.537,-3.535
41851040,-0.627,-0.496,0.568,5.162,-0.962,-3.395
41851050,-0.652,-0.512,0.561,5.827,0.315,-3.552
41851060,-0.668,-0.526,0.567,6.79,0.7,-3.92
41851070,-0.665,-0.525,0.574,8.12,0.105,-4.27
41851080,-0.655,-0.508,0.585,8.645,0.245,-4.34
41851090,-0.665,-0.498,0.594,7.49,1.155,-3.972
41851100,-0.666,-0.5,0.612,5.932,1.54,-4.06
41851110,-0.66,-0.494,0.626,4.9,2.38,-4.602
41851120,-0.653,-0.481,0.644,3.815,3.465,-5.67
41851130,-0.626,-0.489,0.669,2.415,5.232,-6.09
41851140,-0.665,-0.46,0.651,0.052,5.95,-6.545
41851150,-0.631,-0.431,0.639,-2.327,2.677,-8.172
41851160,-0.59,-0.453,0.637,-4.707,1.96,-6.177
41851170,-0.623,-0.469,0.62,-6.405,4.462,-4.217
41851180,-0.635,-0.468,0.614,-7.945,4.13,-3.85
41851190,-0.589,-0.48,0.604,-8.347,3.552,-2.502
41851200,-0.597,-0.491,0.6,-7.665,6.055,-2.03
41851210,-0.612,-0.498,0.586,-6.457,8.662,-1.365
41851220,-0.626,-0.503,0.58,-5.32,9.765,-0.017
41851230,-0.623,-0.512,0.574,-4.305,10.307,1.312
41851240,-0.647,-0.509,0.577,-3.062,11.095,2.31
41851250,-0.684,-0.506,0.564,-2.712,10.605,2.572
41851260,-0.696,-0.497,0.564,-1.522,8.907,1.89
41851260,-0.713,-0.508,0.559,-0.892,7.367,1.382
41851280,-0.734,-0.513,0.564,0.052,5.722,0.122
41851280,-0.731,-0.518,0.563,1.067,2.992,-1.417
41851300,-0.716,-0.515,0.565,2.152,0.612,-3.465
41851300,-0.715,-0.507,0.573,3.167,-1.382,-5.512
41851320,-0.707,-0.512,0.577,3.185,-3.15,-7.035
41851320,-0.696,-0.508,0.588,3.027,-4.97,-8.12
41851330,-0.651,-0.504,0.578,2.572,-5.722,-9.485
41851340,-0.641,-0.495,0.588,2.03,-5.617,-10.097
41851350,-0.635,-0.492,0.587,1.242,-4.707,-9.922
41851360,-0.615,-0.504,0.599,0.612,-4.042,-9.905
41851370,-0.601,-0.505,0.59,0.962,-1.872,-9.45
41851380,-0.621,-0.499,0.596,1.207,1.89,-10.395
41851390,-0.66,-0.523,0.565,2.905,4.795,-10.745
41851400,-0.615,-0.481,0.561,8.435,7.402,-15.54
41851410,-0.74,-0.518,0.564,7.927,9.17,-15.382
41851420,-0.734,-0.541,0.533,13.405,5.285,-16.38
41851430,-0.657,-0.477,0.609,17.237,4.9,-21.647
41851440,-0.692,-0.524,0.631,8.855,4.007,-18.812
41851450,-0.72,-0.558,0.62,1.68,-2.362,-13.107
41851460,-0.624,-0.508,0.595,-1.312,-9.17,-10.99
41851470,-0.572,-0.482,0.566,-5.757,-9.047,-9.45
41851480,-0.567,-0.485,0.558,-7.752,-4.147,-7.735
41851490,-0.601,-0.516,0.546,-8.61,1.942,-7.612
41851500,-0.64,-0.519,0.538,-8.207,6.667,-9.45
41851510,-0.715,-0.577,0.537,-6.125,6.58,-9.957
41851520,-0.648,-0.563,0.541,-1.732,4.9,-12.32
41851530,-0.649,-0.558,0.552,0.77,7.875,-13.545
41851540,-0.643,-0.538,0.547,2.187,9.625,-13.65
41851550,-0.628,-0.54,0.547,3.657,11.777,-11.567
41851560,-0.635,-0.522,0.554,5.81,14.647,-9.362
41851570,-0.656,-0.538,0.605,6.79,15.89,-10.465
41851580,-0.618,-0.527,0.604,7.437,14.42,-12.005
41851590,-0.582,-0.47,0.629,7.35,15.015,-13.51
41851600,-0.605,-0.473,0.594,3.255,20.387,-12.005
41851610,-0.733,-0.49,0.577,1.277,21.385,-12.022
41851620,-0.738,-0.511,0.591,1.837,15.662,-14
41851630,-0.686,-0.508,0.624,0.98,10.237,-13.265
41851640,-0.687,-0.509,0.617,-3.955,8.207,-10.745
41851650,-0.691,-0.523,0.607,-8.085,5.197,-9.922
41851660,-0.474,-0.424,0.557,-9.922,6.37,-8.715
41851670,-0.625,-0.505,0.588,-18.2,21.262,-1.312
41851670,-0.816,-0.692,0.589,-19.022,13.055,-1.137
41851690,-0.499,-0.552,0.626,-9.975,-0.805,-8.242
41851690,-0.488,-0.535,0.575,-14.35,2.222,-4.2
41851710,-0.546,-0.52,0.527,-17.01,9.03,0.84
41851710,-0.537,-0.513,0.515,-17.395,11.97,4.602
41851720,-0.547,-0.554,0.51,-17.815,15.19,8.277
41851730,-0.558,-0.58,0.541,-16.467,20.317,11.217
41851740,-0.623,-0.575,0.531,-16.187,23.957,14.84
41851750,-0.648,-0.558,0.5,-16.327,24.307,16.485
41851760,-0.648,-0.549,0.484,-14.997,24.01,15.452
41851770,-0.649,-0.525,0.503,-13.79,25.585,15.067
41851780,-0.683,-0.555,0.5,-16.047,26.705,17.115
41851790,-0.729,-0.581,0.491,-16.782,26.757,18.077
41851800,-0.758,-0.574,0.482,-15.645,22.697,16.485
41851810,-0.743,-0.584,0.484,-14.035,18.62,16.152
41851820,-0.763,-0.59,0.48,-12.022,16.607,17.622
41851830,-0.765,-0.573,0.472,-9.747,14.14,15.54
41851840,-0.713,-0.542,0.473,-6.667,11.462,11.725
41851850,-0.666,-0.519,0.463,-2.502,9.975,9.73
41851860,-0.63,-0.502,0.475,1.592,11.34,8.925
41851870,-0.639,-0.496,0.51,0.42,15.19,9.38
41851880,-0.737,-0.542,0.565,-8.102,20.545,12.845
41851890,-0.74,-0.598,0.631,-17.325,21.595,15.575
41851900,-0.58,-0.597,0.609,-25.322,27.247,18.252
41851910,-0.668,-0.457,0.396,-27.317,36.015,15.82
41851920,-0.799,-0.32,0.549,-32.445,34.107,10.377
41851930,-0.783,-0.583,0.439,-50.12,30.135,22.487
41851940,-0.719,-0.599,0.453,-49.21,26.127,23.327
41851950,-0.682,-0.515,0.416,-46.41,29.102,19.04
41851960,-0.767,-0.521,0.383,-49.455,31.657,19.005
41851970,-0.812,-0.558,0.355,-50.522,28.682,19.145
41851980,-0.768,-0.557,0.353,-47.565,24.412,20.055
41851990,-0.787,-0.585,0.359,-47.197,23.94,23.012
41852000,-0.797,-0.602,0.331,-44.59,21.35,25.217
41852010,-0.756,-0.568,0.339,-39.847,17.867,24.99
41852010,-0.725,-0.568,0.327,-39.742,17.587,26.652
41852030,-0.768,-0.603,0.302,-39.917,19.705,26.827
41852030,-0.789,-0.591,0.295,-35.63,18.917,26.04
41852050,-0.727,-0.566,0.288,-32.27,16.975,26.565
41852050,-0.751,-0.585,0.276,-31.097,19.705,29.172
41852070,-0.805,-0.596,0.265,-27.492,21.875,30.38
41852070,-0.822,-0.574,0.261,-21.962,21.105,29.715
41852080,-0.839,-0.55,0.26,-16.345,19.04,28.472
41852090,-0.817,-0.556,0.254,-9.8,16.03,27.58
41852100,-0.812,-0.532,0.261,-1.365,14.595,27.912
41852110,-0.843,-0.515,0.263,5.477,13.142,24.972
41852120,-0.93,-0.504,0.269,10.115,8.085,20.387
41852130,-0.972,-0.524,0.268,12.967,-2.747,16.03
41852140,-0.963,-0.557,0.269,16.642,-15.312,14.052
41852150,-0.974,-0.547,0.279,21.017,-25.917,12.722
41852160,-0.97,-0.525,0.287,23.275,-37.117,12.6
41852170,-0.916,-0.532,0.312,22.767,-49.717,13.807
41852180,-0.872,-0.581,0.299,22.68,-61.407,19.547
41852190,-0.745,-0.528,0.358,28.647,-64.907,21.56
41852200,-0.814,-0.473,0.393,26.46,-60.532,21.437
41852210,-0.809,-0.487,0.373,22.697,-57.365,16.8
41852220,-0.827,-0.494,0.363,22.4,-58.502,12.11
41852230,-0.825,-0.505,0.345,25.637,-62.772,11.865
41852240,-0.811,-0.507,0.343,31.85,-66.097,11.952
41852250,-0.805,-0.529,0.343,37.905,-66.167,10.78
41852260,-0.811,-0.52,0.361,45.36,-64.82,10.325
41852270,-0.851,-0.501,0.382,51.94,-64.557,11.48
41852280,-0.858,-0.453,0.415,56.682,-66.027,11.847
41852290,-0.828,-0.417,0.461,56.49,-68.53,11.917
41852300,-0.933,-0.403,0.486,51.992,-72.572,12.845
41852310,-0.921,-0.364,0.507,48.282,-81.935,6.825
41852320,-0.828,-0.365,0.479,42.752,-90.072,-5.967
41852330,-0.816,-0.379,0.459,40.005,-95.795,-15.05
41852340,-0.811,-0.386,0.469,42.192,-101.92,-19.372
41852350,-0.791,-0.403,0.469,47.635,-110.337,-18.567
41852360,-0.757,-0.394,0.488,54.95,-117.267,-17.097
41852370,-0.738,-0.377,0.513,61.267,-123.76,-15.837
41852380,-0.694,-0.362,0.556,63.752,-128.887,-16.152
41852390,-0.64,-0.36,0.63,61.057,-132.93,-16.397
41852390,-0.509,-0.41,0.704,51.94,-129.062,-17.552
41852410,-0.384,-0.48,0.784,44.625,-114.117,-11.725
41852410,-0.308,-0.52,0.837,39.917,-89.32,0.577
41852420,-0.322,-0.514,0.854,34.825,-61.845,12.075
41852430,-0.415,-0.497,0.835,31.675,-45.115,19.11
41852440,-0.405,-0.436,0.776,33.985,-39.392,21.787
41852450,-0.359,-0.364,0.736,36.995,-33.145,22.242
41852460,-0.39,-0.338,0.697,37.712,-22.575,22.4
41852470,-0.447,-0.32,0.669,38.972,-11.637,20.667
41852480,-0.499,-0.353,0.591,39.322,-7,18.952
41852490,-0.49,-0.261,0.487,55.177,-4.917,23.73
41852500,-0.627,-0.193,0.589,83.702,9.957,19.04
41852510,-0.744,-0.165,0.676,83.422,3.675,19.302
41852520,-0.782,-0.26,0.709,78.085,-10.92,25.375
41852530,-0.756,-0.369,0.727,81.935,-26.215,28.77
41852540,-0.623,-0.33,0.818,88.322,-34.877,32.567
41852550,-0.606,-0.268,0.91,76.947,-31.815,36.522
41852560,-0.688,-0.323,0.934,57.452,-27.965,36.382
41852570,-0.588,-0.385,0.845,50.085,-29.662,33.757
41852580,-0.482,-0.325,0.804,52.272,-26.53,29.085
41852590,-0.491,-0.272,0.754,55.755,-18.742,31.36
41852600,-0.476,-0.232,0.73,60.287,-13.335,39.235
41852610,-0.44,-0.2,0.705,62.3,-5.6,43.277
41852620,-0.466,-0.196,0.712,63.035,4.287,46.182
41852630,-0.482,-0.176,0.738,63.297,16.31,48.352
41852640,-0.511,-0.166,0.76,60.935,31.132,46.882
41852650,-0.592,-0.152,0.794,57.575,43.785,45.92
41852660,-0.63,-0.136,0.822,54.897,52.99,46.9
41852670,-0.695,-0.147,0.819,50.505,58.485,47.337
41852680,-0.776,-0.155,0.786,50.417,54.827,46.917
41852690,-0.781,-0.106,0.766,54.337,46.112,44.012
41852700,-0.778,-0.057,0.757,55.51,36.382,39.585
41852710,-0.778,-0.042,0.735,53.917,26.25,34.737
41852720,-0.753,-0.026,0.733,52.745,16.292,30.415
41852730,-0.71,-0.025,0.741,50.61,7.577,28.35
41852740,-0.679,-0.025,0.755,46.725,3.675,27.23
41852750,-0.662,-0.046,0.766,42.665,3.08,28.455
41852760,-0.66,-0.06,0.767,41.335,3.867,31.027
41852760,-0.665,-0.024,0.78,42.332,5.547,32.655
41852780,-0.665,-0.004,0.793,40.635,6.142,32.987
41852780,-0.648,0.007,0.785,36.207,6.982,30.677
41852800,-0.616,-0.006,0.773,30.66,9.17,27.492
41852800,-0.711,-0.013,0.733,28.962,10.5,25.025
41852820,-0.654,-0.02,0.72,28.437,4.27,17.237
41852820,-0.564,0.006,0.732,28.56,5.197,15.172
41852830,-0.638,0.015,0.731,27.335,12.39,18.2
41852840,-0.718,-0.013,0.725,28.122,17.01,21.525
41852850,-0.732,0.013,0.754,30.677,19.057,21.472
41852860,-0.768,0.048,0.785,29.575,19.652,20.09
41852870,-0.801,0.042,0.764,23.747,17.85,18.497
41852880,-0.783,0.027,0.754,19.547,13.842,16.205
41852890,-0.774,0.022,0.733,17.85,10.587,14.367
41852900,-0.812,0.03,0.704,17.605,5.652,13.09
41852910,-0.806,0.084,0.702,18.042,-2.292,9.012
41852920,-0.766,0.095,0.701,12.565,-11.305,7.612
41852930,-0.726,0.021,0.655,9.17,-17.972,9.712
41852940,-0.696,0.02,0.668,14.892,-19.88,13.387
41852950,-0.693,0.06,0.713,19.67,-18.76,13.772
41852960,-0.656,0.07,0.721,20.195,-16.87,12.757
41852970,-0.628,0.077,0.744,20.422,-13.247,13.335
41852980,-0.645,0.057,0.755,20.58,-8.207,15.225
41852990,-0.694,0.049,0.766,21.21,-6.107,17.325
41853000,-0.671,0.045,0.768,21.56,-5.53,16.975
41853010,-0.68,0.062,0.763,23.31,-3.132,16.415
41853020,-0.692,0.068,0.754,23.555,-1.347,14.665
41853030,-0.712,0.069,0.736,23.887,-2.642,15.312
41853040,-0.702,0.064,0.719,24.272,-5.46,15.767
41853050,-0.665,0.095,0.731,24.15,-7.035,14.262
41853060,-0.686,0.097,0.713,21.647,-7.577,14.682
41853070,-0.703,0.086,0.705,19.092,-9.765,14.7
41853080,-0.661,0.115,0.715,17.955,-12.81,13.44
41853080,-0.662,0.145,0.716,13.755,-13.3,11.497
41853100,-0.662,0.128,0.707,7.892,-13.37,11.147
41853100,-0.705,0.098,0.685,4.515,-16.03,12.512
41853120,-0.705,0.096,0.709,4.882,-20.93,13.352
41853120,-0.711,0.092,0.709,6.02,-25.917,14.787
41853140,-0.671,0.084,0.734,9.817,-27.37,13.492
41853140,-0.681,0.071,0.766,14.385,-24.727,14.157
41853160,-0.655,0.059,0.774,22.61,-21.717,11.882
41853160,-0.609,0.129,0.819,29.82,-17.412,5.845
41853170,-0.592,0.178,0.847,28.525,-11.865,8.277
41853180,-0.616,0.155,0.8,21.367,-4.217,12.092
41853190,-0.644,0.138,0.765,18.06,1.75,11.865
41853200,-0.676,0.156,0.755,15.312,1.89,10.605
41853210,-0.707,0.143,0.721,11.847,-3.482,9.17
41853220,-0.731,0.112,0.699,10.587,-13.195,8.802
41853230,-0.743,0.1,0.691,14.07,-24.78,9.205
41853240,-0.725,0.124,0.723,18.725,-35.612,9.887
41853250,-0.693,0.139,0.735,21.367,-42.14,11.077
41853260,-0.641,0.179,0.758,23.38,-42.192,9.975
41853270,-0.624,0.168,0.761,22.417,-38.745,12.565
41853280,-0.63,0.189,0.771,22.085,-33.722,13.755
41853290,-0.649,0.203,0.762,20.195,-31.132,11.917
41853300,-0.634,0.194,0.756,19.162,-30.957,11.042
41853310,-0.626,0.214,0.767,18.042,-34.212,8.032
41853320,-0.609,0.193,0.748,15.995,-38.01,7.857
41853330,-0.59,0.149,0.743,17.745,-40.617,7.56
41853340,-0.593,0.187,0.772,22.225,-45.395,6.335
41853350,-0.541,0.228,0.781,23.695,-48.177,2.852
41853360,-0.507,0.275,0.801,21.577,-48.212,-2.555
41853370,-0.451,0.292,0.808,14.857,-43.732,-4.427
41853380,-0.371,0.208,0.803,10.5,-32.672,-4.952
41853390,-0.505,0.194,0.897,9.922,-17.237,1.837
41853400,-0.586,0.074,0.83,11.077,-13.737,2.537
41853410,-0.485,0.105,0.878,20.072,-15.68,-2.905
41853420,-0.675,0.147,0.882,25.62,-20.125,3.57
41853430,-0.628,0.106,0.824,23.117,-31.22,-0.945
41853440,-0.465,0.153,0.854,30.012,-31.64,-6.317
41853450,-0.51,0.236,0.873,29.522,-29.715,-1.225
41853460,-0.388,0.192,0.787,22.365,-16.257,-0.717
41853470,-0.5,0.182,0.823,21.332,-1.872,2.012
41853480,-0.573,0.162,0.814,23.432,4.217,6.755
41853490,-0.603,0.243,0.829,26.967,5.11,4.375
41853500,-0.599,0.259,0.8,24.045,1.4,2.905
41853510,-0.534,0.267,0.767,21.402,-1.54,0.962
41853510,-0.497,0.317,0.795,18.532,-0.7,-0.787
41853530,-0.499,0.294,0.773,11.602,1.697,-0.805
41853530,-0.501,0.274,0.767,7.122,3.745,-0.77
41853550,-0.531,0.267,0.779,4.287,5.25,-0.77
41853550,-0.538,0.251,0.776,1.05,5.285,-2.87
41853570,-0.575,0.227,0.767,-1.68,4.235,-1.575
41853570,-0.583,0.062,0.807,0,0.787,1.89
41853580,-0.373,0.098,0.819,21.087,6.58,-6.737
41853590,-0.538,0.375,0.975,30.432,15.155,-9.975
41853600,-0.641,0.25,0.838,17.062,18.217,-0.84
41853610,-0.59,0.23,0.78,16.537,17.08,-4.375
41853620,-0.617,0.277,0.768,17.552,12.232,-4.112
41853630,-0.613,0.268,0.728,15.855,6.37,-3.395
41853640,-0.579,0.301,0.727,14.735,1.977,-4.322
