time[ms],accX[g],accY[g],accZ[g],Value 1,Value 2,Value 3
49209790,-0.561,-0.541,0.652,15.89,2.292,35.315
49209800,-0.658,-0.546,0.684,19.775,3.045,28.91
49209810,-0.837,-0.565,0.763,17.78,-4.655,23.03
49209820,-0.852,-0.652,0.773,14.35,-43.207,2.572
49209830,-0.444,-0.484,0.573,29.172,-58.957,-26.617
49209840,0.042,-0.236,0.747,21.28,-37.852,-14.962
49209850,-0.749,-0.651,0.65,8.242,-0.735,22.47
49209850,-0.755,-0.567,0.728,16.922,-12.162,14.105
49209870,-0.344,-0.404,0.779,28.875,-22.592,6.965
49209870,-0.448,-0.441,0.704,21.28,-17.062,10.045
49209890,-0.488,-0.416,0.702,21.507,-12.967,10.71
49209890,-0.405,-0.364,0.765,23.012,-13.195,10.5
49209910,-0.415,-0.386,0.805,16.345,-8.575,12.18
49209910,-0.549,-0.449,0.811,8.015,-5.477,10.167
49209920,-0.583,-0.447,0.816,4.445,-8.277,5.11
49209930,-0.617,-0.453,0.843,0.892,-11.725,1.767
49209940,-0.726,-0.496,0.818,-4.847,-19.04,-3.01
49209950,-0.756,-0.532,0.817,-6.09,-30.73,-9.467
49209960,-0.77,-0.561,0.81,-4.847,-44.345,-15.505
49209970,-0.748,-0.565,0.769,-1.05,-61.442,-19.53
49209980,-0.674,-0.554,0.769,5.88,-76.125,-20.265
49209990,-0.53,-0.538,0.715,9.87,-89.04,-20.737
49210000,-0.258,-0.458,0.696,15.015,-90.16,-17.36
49210010,-0.151,-0.356,0.718,16.485,-79.485,-9.835
49210020,-0.166,-0.357,0.716,9.415,-63.735,-5.617
49210030,-0.115,-0.384,0.711,2.257,-49.612,-10.71
49210040,-0.141,-0.434,0.732,-2.082,-36.715,-10.29
49210050,-0.235,-0.491,0.76,-3.447,-29.54,-8.435
49210060,-0.248,-0.517,0.771,-0.77,-24.955,-7.437
49210070,-0.316,-0.518,0.779,2.415,-22.61,-6.3
49210080,-0.407,-0.523,0.761,4.042,-22.592,-6.125
49210090,-0.442,-0.508,0.762,7.962,-23.922,-6.37
49210100,-0.493,-0.488,0.771,9.712,-27.055,-4.462
49210110,-0.526,-0.461,0.822,8.557,-31.377,-3.587
49210120,-0.535,-0.461,0.864,4.375,-36.995,-4.585
49210130,-0.524,-0.468,0.918,1.452,-44.135,-4.865
49210140,-0.518,-0.47,0.92,-1.855,-54.915,-4.865
49210150,-0.386,-0.459,0.857,-1.592,-65.59,-5.267
49210160,-0.201,-0.403,0.759,1.82,-66.622,0.875
49210170,-0.168,-0.331,0.763,-1.61,-57.067,2.17
49210180,-0.185,-0.337,0.796,-11.06,-49.525,-3.902
49210190,-0.128,-0.39,0.816,-19.88,-36.557,-4.2
49210200,-0.269,-0.513,0.867,-23.24,-28.315,-1.312
49210210,-0.324,-0.516,0.911,-17.377,-30.87,-9.152
49210220,-0.311,-0.477,0.936,-13.562,-38.115,-11.532
49210230,-0.366,-0.538,0.945,-13.072,-47.495,-12.145
49210240,-0.36,-0.536,0.867,-9.66,-54.32,-17.272
49210250,-0.418,-0.481,0.827,-5.687,-59.097,-14.367
49210260,-0.482,-0.452,0.856,-4.917,-65.695,-14.14
49210260,-0.409,-0.495,0.86,-8.33,-74.917,-17.535
49210280,-0.262,-0.503,0.861,-8.977,-79.327,-19.687
49210280,-0.214,-0.464,0.848,-8.312,-79.205,-17.43
49210300,-0.184,-0.41,0.808,-9.765,-77.035,-17.027
49210300,-0.093,-0.379,0.795,-10.727,-71.977,-17.29
49210320,-0.153,-0.36,0.725,-11.042,-59.15,-14.542
49210320,-0.172,-0.374,1.002,-18.322,-63.822,-14.105
49210330,0.139,-0.602,0.824,-30.415,-61.687,-14.35
49210340,0.102,-0.495,0.82,-23.432,-50.662,-11.147
49210350,0.075,-0.376,0.792,-25.06,-37.66,-6.002
49210360,0.078,-0.399,0.796,-29.802,-23.1,-7.612
49210370,0.008,-0.473,0.747,-36.907,-12.757,-7.14
49210380,-0.073,-0.414,0.412,-34.02,2.065,-5.162
49210390,-0.503,-0.262,0.932,-28.63,8.54,5.687
49210400,-0.255,-0.661,1.059,-45.972,-10.115,-1.33
49210410,0.016,-1.002,0.922,-47.407,-24.027,-7.542
49210420,-0.16,-0.885,0.744,-27.562,-29.872,-4.27
49210430,-0.195,-0.604,0.694,-6.807,-36.015,-3.71
49210440,-0.095,-0.535,0.685,-2.642,-38.377,-6.965
49210450,-0.018,-0.599,0.695,-5.95,-34.72,-12.442
49210460,0.076,-0.611,0.709,-2.397,-27.265,-12.81
49210470,0.133,-0.573,0.721,4.952,-19.145,-6.125
49210480,0.218,-0.549,0.717,11.987,-8.837,1.12
49210490,0.319,-0.535,0.699,17.045,5.372,7.542
49210500,0.331,-0.508,0.658,21.7,25.375,13.3
49210510,0.301,-0.453,0.665,21.402,47.687,17.71
49210520,0.187,-0.47,0.692,15.295,68.197,22.067
49210530,0.074,-0.55,0.725,13.142,82.127,27.387
49210540,-0.069,-0.6,0.752,25.655,85.837,41.562
49210550,-0.108,-0.503,0.812,25.147,91,36.995
49210560,-0.27,-0.49,0.832,20.16,97.51,30.152
49210570,-0.453,-0.542,0.854,15.12,94.867,25.287
49210580,-0.577,-0.566,0.907,13.58,81.252,16.975
49210580,-0.454,-0.544,0.846,7,64.732,8.4
49210600,-0.505,-0.52,0.846,5.792,55.317,12.162
49210600,-0.539,-0.53,0.88,10.255,42.612,21.542
49210620,-0.543,-0.56,0.902,17.5,29.627,26.057
49210620,-0.436,-0.378,1.015,15.26,22.05,12.512
49210640,-0.563,-0.451,0.99,-0.98,12.53,10.622
49210640,-0.547,-0.573,0.913,-0.857,-3.885,6.545
49210660,-0.428,-0.472,0.911,8.172,-20.632,0.227
49210660,-0.391,-0.451,0.943,8.487,-31.955,-1.505
49210670,-0.314,-0.5,0.918,8.977,-39.795,-8.942
49210680,-0.163,-0.475,0.941,11.13,-42.262,-12.6
49210690,-0.171,-0.479,0.961,5.302,-36.19,-11.2
49210700,-0.152,-0.526,0.92,-0.927,-28.472,-14.91
49210710,-0.022,-0.523,0.828,1.82,-18.97,-19.075
49210720,0.021,-0.492,0.801,7.385,-4.305,-18.935
49210730,0.101,-0.493,0.801,8.365,13.177,-18.725
49210740,0.049,-0.546,0.836,7.752,31.605,-17.29
49210750,-0.043,-0.64,0.857,7.577,43.277,-14.105
49210760,-0.244,-0.752,0.909,12.425,49.367,-9.292
49210770,-0.478,-0.812,0.941,24.22,44.747,-7.07
49210780,-0.627,-0.781,0.967,39.182,28.245,-7.892
49210790,-0.604,-0.723,0.933,52.99,5.652,-10.43
49210800,-0.581,-0.665,0.884,67.725,-16.012,-12.722
49210810,-0.545,-0.524,0.878,78.61,-38.885,-12.355
49210820,-0.276,-0.413,1.001,72.537,-57.207,-8.172
49210830,0.016,-0.478,0.981,53.41,-57.995,7.56
49210840,0.551,-0.626,0.993,40.547,-12.512,27.072
49210850,0.386,-0.808,1.033,47.915,53.847,43.33
49210860,0.15,-0.828,1.063,75.127,92.365,43.137
49210870,-0.011,-0.63,1.143,99.662,109.147,42.507
49210880,-0.19,-0.47,1.097,102.112,100.362,50.872
49210890,-0.22,-0.432,1.003,100.257,84.682,40.022
49210900,-0.248,-0.451,0.9,99.032,61.495,22.067
49210910,-0.277,-0.421,0.794,101.867,33.582,7.927
49210920,-0.294,-0.351,0.731,111.002,6.51,-7.332
49210930,-0.294,-0.274,0.69,117.407,-17.185,-26.232
49210940,-0.264,-0.203,0.66,116.025,-35.945,-44.467
49210950,-0.228,-0.158,0.635,109.025,-48.58,-57.995
49210960,-0.185,-0.117,0.614,97.352,-53.882,-69.755
49210970,-0.198,-0.093,0.612,82.53,-53.76,-77.98
49210980,-0.229,-0.067,0.613,62.387,-52.85,-82.792
49210990,-0.239,-0.063,0.582,39.147,-51.765,-85.295
49211000,-0.227,-0.068,0.574,19.32,-50.085,-89.197
49211010,-0.225,-0.064,0.554,-3.185,-48.877,-92.732
49211010,-0.25,-0.068,0.56,-24.097,-48.387,-92.907
49211030,-0.274,-0.078,0.555,-48.422,-49.245,-89.81
49211030,-0.361,-0.157,0.574,-66.01,-52.22,-82.022
49211050,-0.423,-0.243,0.585,-74.585,-57.505,-76.72
49211050,-0.413,-0.285,0.632,-74.392,-65.205,-73.027
49211070,-0.415,-0.308,0.715,-69.65,-72.712,-65.38
49211070,-0.355,-0.315,0.806,-65.222,-76.562,-58.31
49211080,-0.267,-0.305,0.901,-63.7,-74.952,-52.202
49211090,-0.223,-0.325,0.971,-66.01,-72.065,-44.467
49211100,-0.17,-0.339,1.023,-70.245,-66.185,-39.83
49211110,-0.127,-0.38,1.048,-69.772,-59.727,-33.897
49211120,-0.114,-0.454,1.063,-62.282,-53.34,-27.055
49211130,-0.106,-0.526,1.082,-47.355,-48.16,-25.375
49211140,-0.047,-0.527,1.09,-28.875,-41.562,-29.067
49211150,-0.011,-0.515,1.102,-6.895,-36.33,-30.59
49211160,0.054,-0.464,1.113,11.847,-28.927,-32.077
49211170,0.108,-0.454,1.093,27.317,-18.322,-33.67
49211180,0.206,-0.356,1.098,38.045,-2.94,-35.77
49211190,0.152,-0.377,1.056,41.597,12.547,-24.062
49211200,0.101,-0.424,1.057,51.152,25.62,-21.962
49211210,0.096,-0.356,1.11,55.965,34.265,-27.177
49211220,0.031,-0.331,1.122,49.332,36.155,-26.495
49211230,-0.03,-0.348,1.114,45.99,32.2,-31.167
49211240,-0.022,-0.338,1.087,45.955,24.78,-39.725
49211250,0.004,-0.285,1.063,46.007,16.59,-45.517
49211260,0.039,-0.235,1.009,41.632,11.935,-49.385
49211270,0.069,-0.218,0.94,36.907,13.09,-53.637
49211280,0.058,-0.237,0.889,35.682,19.39,-55.457
49211290,0.01,-0.201,0.874,32.777,26.127,-53.812
49211300,-0.079,-0.176,0.853,25.655,30.187,-48.475
49211310,-0.162,-0.159,0.845,16.012,29.767,-45.132
49211320,-0.245,-0.165,0.826,3.5,22.592,-43.995
49211330,-0.286,-0.184,0.809,-5.547,9.817,-44.135
49211330,-0.284,-0.167,0.828,-16.642,-6.352,-41.58
49211350,-0.234,-0.113,0.779,-37.765,-20.247,-39.445
49211350,-0.257,-0.177,0.765,-49.07,-30.87,-31.027
49211370,-0.183,-0.169,0.738,-61.827,-35.402,-24.797
49211370,-0.164,-0.208,0.714,-72.625,-33.985,-12.565
49211390,-0.174,-0.269,0.723,-76.755,-26.11,-1.61
49211390,-0.194,-0.316,0.739,-72.852,-17.832,6.51
49211410,-0.237,-0.346,0.795,-65.397,-12.25,10.465
49211410,-0.278,-0.366,0.847,-58.467,-13.002,11.847
49211420,-0.285,-0.374,0.884,-52.797,-21.07,11.602
49211430,-0.283,-0.393,0.926,-50.662,-35.017,10.972
49211440,-0.284,-0.412,0.946,-49.402,-50.96,8.785
49211450,-0.223,-0.43,0.941,-46.025,-67.69,4.217
49211460,-0.118,-0.472,0.924,-38.185,-79.257,1.855
49211470,-0.029,-0.49,0.933,-24.885,-85.627,-0.612
49211480,0.054,-0.468,0.958,-9.397,-88.06,-2.257
49211490,0.14,-0.502,0.982,6.79,-84.227,-1.522
49211500,0.152,-0.513,0.986,24.307,-76.055,-1.137
49211510,0.147,-0.418,0.999,35.07,-69.597,-4.042
49211520,0.163,-0.333,1.014,40.46,-65.467,-9.73
49211530,0.158,-0.323,1.006,40.635,-65.642,-13.685
49211540,0.154,-0.334,0.979,39.112,-67.987,-16.52
49211550,0.187,-0.32,0.959,39.97,-71.697,-18.48
49211560,0.243,-0.306,0.947,39.585,-71.12,-16.152
49211570,0.352,-0.301,0.989,38.395,-62.527,-13.037
49211580,0.455,-0.351,0.953,34.125,-38.815,-8.557
49211590,0.362,-0.385,1.011,30.712,-14.857,-2.73
49211600,0.387,-0.395,1.036,23.52,9.38,2.082
49211610,0.26,-0.446,1.023,13.877,31.36,10.797
49211620,0.067,-0.473,1.011,15.802,37.625,8.68
49211630,0.097,-0.48,1.028,24.552,34.947,6.405
49211640,0.174,-0.461,1.029,33.705,33.932,6.667
49211650,0.169,-0.387,1.05,35.805,33.477,3.272
49211660,0.161,-0.335,1.055,30.485,35.402,0.122
49211670,0.156,-0.328,1.027,21.542,38.482,-0.297
49211680,0.183,-0.338,0.987,14.84,43.627,1.12
49211690,0.203,-0.335,0.963,12.53,52.605,4.007
49211700,0.214,-0.325,0.937,11.34,64.96,7.56
49211710,0.187,-0.319,0.932,10.78,81.602,11.655
49211720,0.103,-0.31,0.93,10.902,94.727,14.49
49211730,0.013,-0.314,0.92,10.78,101.272,15.89
49211740,0.011,-0.346,0.96,14.42,101.587,16.012
49211750,0.123,-0.325,0.883,28.455,113.435,14.997
49211760,0.054,-0.262,0.928,39.725,120.995,22.75
49211760,-0.023,-0.192,0.968,34.947,132.632,31.255
49211780,-0.003,-0.133,0.957,25.217,147.49,33.372
49211780,-0.016,-0.11,0.881,17.412,167.72,38.062
49211800,-0.129,-0.094,0.835,11.48,188.72,45.937
49211800,-0.32,-0.056,0.79,4.34,202.457,53.655
49211820,-0.519,-0.057,0.754,-4.34,200.69,57.907
49211820,-0.627,-0.085,0.689,-11.165,185.92,56.63
49211830,-0.718,-0.121,0.643,-13.055,158.655,53.042
49211840,-0.728,-0.153,0.619,-11.007,124.617,49.175
49211850,-0.647,-0.179,0.611,-4.48,93.852,46.462
49211860,-0.626,-0.221,0.645,3.92,71.575,42.927
49211870,-0.651,-0.272,0.729,10.185,52.5,32.76
49211880,-0.641,-0.322,0.8,14.14,33.617,18.375
49211890,-0.597,-0.361,0.848,18.795,12.862,4.637
49211900,-0.544,-0.383,0.899,23.747,-9.275,-4.725
49211910,-0.457,-0.349,0.954,23.24,-31.797,-12.862
49211920,-0.397,-0.366,0.997,16.747,-50.435,-16.712
49211930,-0.359,-0.417,1.038,8.977,-65.992,-21.07
49211940,-0.307,-0.459,1.067,1.137,-78.347,-29.925
49211950,-0.229,-0.485,1.107,-0.612,-89.652,-40.39
49211960,-0.142,-0.487,1.149,2.957,-99.925,-46.777
49211970,-0.038,-0.44,1.182,4.235,-105.77,-49.822
49211980,0.054,-0.363,1.213,-1.96,-105.35,-50.645
49211990,0.078,-0.314,1.196,-17.867,-101.535,-48.72
49212000,0.081,-0.287,1.128,-39.987,-95.69,-46.97
49212010,0.048,-0.287,1.058,-63.507,-91.315,-46.795
49212020,0.051,-0.287,0.964,-84.49,-87.08,-48.842
49212030,0.012,-0.309,0.881,-96.547,-82.407,-50.505
49212040,-0.079,-0.351,0.828,-97.072,-80.185,-54.862
49212050,-0.165,-0.364,0.798,-87.395,-84.052,-60.497
49212060,-0.229,-0.347,0.789,-70.98,-94.202,-65.362
49212070,-0.24,-0.309,0.781,-55.037,-106.557,-70.017
49212080,-0.201,-0.269,0.769,-42.087,-118.457,-73.097
49212080,-0.109,-0.213,0.751,-34.44,-122.885,-73.57
49212100,-0.029,-0.154,0.733,-29.627,-117.565,-69.44
49212100,0.002,-0.155,0.719,-27.037,-105.682,-60.9
49212120,0.061,-0.183,0.723,-24.5,-88.777,-48.527
49212120,0.101,-0.23,0.724,-17.325,-65.327,-31.272
49212140,0.106,-0.228,0.766,-5.635,-38.062,-18.147
49212140,0.068,-0.196,0.819,2.1,-12.495,-11.077
49212160,0.008,-0.196,0.868,2.415,5.005,-9.17
49212160,-0.049,-0.221,0.906,-2.677,12.442,-9.992
49212170,-0.09,-0.248,0.931,-12.862,10.71,-11.392
49212180,-0.105,-0.294,0.942,-23.082,4.165,-15.662
49212190,-0.063,-0.35,0.928,-27.055,-3.062,-20.457
49212200,0.011,-0.366,0.928,-28.525,-7.122,-22.26
49212210,0.05,-0.38,0.933,-26.88,-10.115,-20.37
49212220,0.094,-0.379,0.935,-23.607,-8.662,-17.867
49212230,0.156,-0.373,0.932,-18.55,-3.57,-11.637
49212240,0.212,-0.377,0.928,-13.107,7.945,-1.61
49212250,0.219,-0.369,0.942,-9.31,24.395,7.892
49212260,0.19,-0.37,0.96,-10.027,43.067,13.72
49212270,0.144,-0.402,0.982,-12.337,59.045,16.012
49212280,0.085,-0.456,0.992,-15.435,71.015,17.535
49212290,0.011,-0.499,0.997,-15.505,76.492,20.247
49212300,-0.045,-0.537,1.019,-9.607,76.335,23.467
49212310,-0.026,-0.587,1.03,-3.99,72.415,27.737
49212320,-0.093,-0.632,1.06,-1.067,69.02,35.385
49212330,-0.088,-0.65,1.047,8.505,69.72,34.072
49212340,0.022,-0.641,1.024,24.605,79.432,30.695
49212350,0.039,-0.637,0.997,40.512,99.207,33.582
49212360,0.005,-0.584,0.981,51.695,126.21,36.47
49212370,-0.047,-0.524,0.947,57.435,155.645,39.935
49212380,-0.128,-0.456,0.918,60.322,185.57,46.952
49212390,-0.206,-0.405,0.847,60.287,213.535,55.825
49212400,-0.27,-0.34,0.778,60.462,243.512,64.085
49212410,-0.355,-0.274,0.724,58.642,273.402,72.38
49212420,-0.455,-0.208,0.656,53.725,301.105,79.607
49212430,-0.536,-0.139,0.612,47.897,324.537,83.125
49212440,-0.655,-0.046,0.578,35.595,339.955,89.355
49212450,-0.786,0.011,0.547,14.297,346.08,94.78
49212460,-0.872,0.002,0.483,-11.62,342.09,93.502
49212470,-0.924,-0.039,0.438,-34.142,330.89,89.722
49212480,-0.97,-0.094,0.386,-51.012,314.317,85.715
49212490,-0.99,-0.173,0.306,-59.762,292.985,77.717
49212500,-1.014,-0.233,0.368,-50.032,267.05,67.83
49212510,-1.039,-0.173,0.427,-51.502,236.775,58.065
49212510,-1.026,-0.157,0.48,-57.697,200.707,44.31
49212530,-1.039,-0.216,0.475,-60.357,161.245,41.912
49212530,-0.921,-0.196,0.526,-60.322,123.182,35.787
49212550,-0.827,-0.263,0.472,-69.457,95.655,34.072
49212550,-0.678,-0.237,0.538,-65.87,79.835,26.285
49212560,-0.759,-0.292,0.508,-70.122,72.082,35.087
49212570,-0.744,-0.361,0.509,-65.957,67.2,38.57
49212580,-0.712,-0.39,0.496,-57.505,69.457,38.745
49212590,-0.822,-0.431,0.529,-46.515,69.405,42.105
49212600,-0.857,-0.388,0.556,-29.382,66.307,41.142
49212610,-0.847,-0.423,0.5,-18.34,59.832,42.647
49212620,-0.833,-0.379,0.513,-10.727,55.912,35.822
49212630,-0.89,-0.321,0.548,-0.91,51.065,33.635
49212640,-0.913,-0.263,0.509,-5.775,45.552,28.052
49212650,-0.912,-0.281,0.463,-10.972,38.307,20.107
49212660,-0.845,-0.299,0.409,-13.457,34.615,13.895
49212670,-0.813,-0.277,0.38,-12.477,34.072,12.425
49212680,-0.846,-0.247,0.377,-14.227,36.977,14.402
49212690,-0.879,-0.25,0.371,-18.532,38.64,12.25
49212700,-0.904,-0.257,0.349,-23.642,38.15,10.797
49212710,-0.969,-0.29,0.348,-25.795,32.497,10.657
49212720,-0.996,-0.263,0.358,-28.56,22.4,5.565
49212730,-1,-0.294,0.365,-33.705,10.115,0.857
49212740,-0.935,-0.28,0.384,-37.8,-1.207,-4.777
49212750,-0.95,-0.302,0.409,-41.02,-13.107,-3.797
49212760,-0.93,-0.315,0.46,-42.98,-23.537,-2.782
49212770,-0.833,-0.303,0.483,-42.227,-29.155,-3.762
49212780,-0.889,-0.295,0.525,-42,-34.16,1.872
49212790,-0.801,-0.297,0.477,-46.182,-32.025,-1.155
49212800,-0.764,-0.323,0.474,-51.502,-21.297,-2.415
49212810,-0.873,-0.406,0.426,-52.482,-12.477,-4.795
49212820,-0.851,-0.412,0.423,-47.005,-9.327,-13.65
49212830,-0.822,-0.412,0.368,-43.085,-3.255,-15.26
49212830,-0.846,-0.368,0.379,-34.545,4.69,-16.677
49212850,-0.926,-0.301,0.39,-37.625,10.325,-14
49212850,-0.935,-0.314,0.348,-44.957,10.867,-13.352
49212870,-0.963,-0.356,0.337,-45.447,9.992,-9.87
49212870,-0.982,-0.376,0.287,-46.06,3.92,-6.387
49212890,-0.982,-0.39,0.256,-41.965,-3.745,-7.157
49212890,-0.945,-0.383,0.239,-37.152,-11.13,-10.15
49212910,-0.886,-0.372,0.213,-30.835,-14.997,-12.477
49212910,-0.877,-0.379,0.219,-20.16,-17.587,-11.48
49212920,-0.798,-0.343,0.217,-9.082,-14.227,-9.975
49212930,-0.815,-0.263,0.299,-4.602,-6.265,-6.685
49212940,-0.858,-0.323,0.27,-9.695,-0.367,-2.66
49212950,-0.863,-0.352,0.321,-1.54,2.975,-2.625
49212960,-0.901,-0.379,0.342,0.07,2.012,-1.505
49212970,-0.902,-0.392,0.384,8.54,-1.172,-3.15
49212980,-0.856,-0.395,0.392,15.19,-2.257,-4.357
49212990,-0.853,-0.395,0.411,23.205,-0.682,-6.44
49213000,-0.871,-0.408,0.43,30.082,2.362,-8.802
49213010,-0.865,-0.404,0.414,34.265,4.707,-12.635
49213020,-0.853,-0.396,0.419,42.402,6.16,-16.94
49213030,-0.845,-0.301,0.511,47.407,7.472,-15.487
49213040,-0.921,-0.247,0.526,37.467,2.712,-15.925
49213050,-0.728,-0.281,0.482,33.985,11.567,-21.227
49213060,-0.839,-0.291,0.432,35.07,18.707,-19.757
49213070,-0.951,-0.294,0.364,26.39,17.132,-19.617
49213080,-0.846,-0.289,0.347,16.94,16.66,-25.305
49213090,-0.781,-0.352,0.283,5.145,19.547,-23.52
49213100,-0.829,-0.391,0.245,2.94,24.762,-17.43
49213110,-0.796,-0.314,0.274,2.957,30.8,-19.547
49213120,-0.885,-0.29,0.281,-8.925,36.557,-12.18
49213130,-1.003,-0.451,0.254,-11.077,34.982,7.07
49213140,-0.936,-0.371,0.289,-2.957,28.105,1.12
49213150,-0.985,-0.419,0.3,-1.102,19.18,-2.485
49213160,-0.854,-0.338,0.31,0.052,14.752,-18.462
49213170,-0.851,-0.338,0.309,-1.977,15.855,-13.755
49213180,-0.89,-0.349,0.318,-5.372,16.555,-12.005
49213190,-0.909,-0.399,0.316,-6.212,10.867,-12.197
49213200,-0.808,-0.336,0.254,0.192,11.2,-12.652
49213210,-0.881,-0.321,0.268,3.675,13.3,-11.41
49213220,-0.872,-0.381,0.292,-3.867,14.472,-12.372
49213230,-0.888,-0.394,0.249,-5.6,17.482,-8.61
49213230,-1.029,-0.429,0.279,6.545,11.182,3.972
49213250,-0.959,-0.402,0.291,9.782,2.362,-0.91
49213250,-0.896,-0.399,0.279,12.285,-1.137,-1.26
49213260,-0.883,-0.386,0.284,15.33,0.595,-1.592
49213270,-0.866,-0.402,0.275,14.21,5.862,-1.557
49213280,-0.894,-0.403,0.279,14.192,11.427,-1.365
49213290,-0.944,-0.378,0.28,12.25,11.952,-1.085
49213300,-0.949,-0.39,0.275,7.787,8.697,-1.085
49213310,-0.942,-0.422,0.259,5.145,3.167,-2.1
49213320,-0.89,-0.448,0.234,6.002,-0.542,-3.325
49213330,-0.923,-0.419,0.271,5.67,-4.795,-1.785
49213340,-0.971,-0.383,0.263,2.66,-12.582,-0.875
49213350,-0.853,-0.377,0.255,-1.225,-16.87,-2.835
49213360,-0.808,-0.393,0.251,-11.217,-12.792,0.035
49213370,-0.896,-0.399,0.259,-17.115,-7.507,5.652
49213380,-0.919,-0.405,0.267,-21.787,-4.34,9.362
49213390,-0.913,-0.424,0.26,-25.287,-3.955,11.007
49213400,-0.943,-0.425,0.269,-25.375,-5.215,13.107
49213410,-0.97,-0.415,0.27,-25.095,-10.412,13.317
49213420,-0.946,-0.401,0.274,-22.96,-15.207,11.27
49213430,-0.973,-0.357,0.293,-21.262,-23.082,9.887
49213440,-0.991,-0.34,0.298,-23.362,-34.335,7.787
49213450,-0.934,-0.331,0.296,-23.625,-43.662,3.447
49213460,-0.9,-0.317,0.305,-24.78,-50.89,2.135
49213470,-0.85,-0.336,0.302,-27.807,-52.307,2.835
49213480,-0.776,-0.34,0.305,-24.325,-46.637,1.872
49213490,-0.769,-0.323,0.299,-19.162,-38.045,3.325
49213500,-0.826,-0.309,0.289,-18.462,-30.485,6.23
49213510,-0.724,-0.269,0.237,-20.37,-20.825,9.625
49213520,-0.666,-0.241,0.192,-29.312,-1.522,18.532
49213530,-0.803,-0.227,0.172,-48.37,18.882,31.815
49213540,-0.841,-0.286,0.12,-62.58,35.98,46.882
49213550,-0.818,-0.427,0.133,-58.59,54.512,62.615
49213560,-0.979,-0.544,0.155,-32.322,64.54,76.247
49213570,-1.296,-0.558,0.287,11.287,48.562,79.117
49213580,-1.307,-0.467,0.305,43.575,13.125,66.885
49213580,-1.091,-0.341,0.274,60.13,-15.732,51.205
49213600,-1.092,-0.281,0.296,66.587,-41.632,39.917
49213600,-1.052,-0.225,0.303,66.552,-61.845,31.675
49213620,-0.86,-0.133,0.305,65.555,-66.85,23.852
49213620,-0.832,-0.17,0.301,54.967,-56.542,15.382
49213640,-0.861,-0.247,0.355,42.805,-41.737,0.665
49213640,-0.922,-0.259,0.328,39.83,-33.32,-11.042
49213660,-1.012,-0.228,0.388,42.822,-35.472,-14.7
49213660,-1.039,-0.236,0.397,39.97,-50.452,-14.91
49213670,-0.886,-0.258,0.384,37.082,-64.662,-14.822
49213680,-0.816,-0.286,0.445,28.035,-63.42,-14.192
49213690,-0.818,-0.297,0.463,17.727,-52.867,-16.94
49213700,-0.854,-0.293,0.52,15.26,-44.52,-17.85
49213710,-0.904,-0.349,0.509,9.52,-43.785,-16.957
49213720,-0.869,-0.351,0.487,9.695,-46.322,-17.71
49213730,-0.888,-0.31,0.477,8.12,-50.382,-17.132
49213740,-0.894,-0.326,0.441,3.027,-56.315,-16.222
49213750,-0.867,-0.384,0.382,0.997,-63.052,-14.192
49213760,-0.837,-0.393,0.342,4.252,-68.74,-11.13
49213770,-0.831,-0.337,0.366,7.945,-70.035,-7.21
49213780,-0.972,-0.339,0.4,2.327,-77.175,-6.3
49213790,-0.848,-0.365,0.365,-6.002,-90.125,-17.062
49213800,-0.8,-0.368,0.353,-5.897,-99.645,-21.507
49213810,-0.848,-0.321,0.384,-3.43,-110.442,-21.56
49213820,-0.749,-0.191,0.408,-6.405,-119.63,-22.435
49213830,-0.584,-0.178,0.346,-20.3,-119.262,-22.767
49213840,-0.41,-0.288,0.342,-32.182,-100.502,-22.68
49213850,-0.466,-0.322,0.411,-31.22,-69.825,-13.615
49213860,-0.641,-0.289,0.521,-27.44,-43.277,-4.13
49213870,-0.802,-0.272,0.605,-24.815,-30.257,-4.077
49213880,-0.968,-0.284,0.655,-26.337,-38.01,-12.495
49213890,-0.913,-0.349,0.633,-35.052,-56.682,-29.382
49213900,-0.895,-0.38,0.588,-38.972,-74.795,-34.51
49213910,-0.943,-0.508,0.614,-15.522,-101.097,-10.202
49213920,-0.823,-0.456,0.622,-5.495,-115.867,-22.032
49213920,-0.786,-0.411,0.654,-2.065,-118.58,-22.61
49213940,-0.828,-0.504,0.696,-1.435,-118.947,-21.945
49213940,-0.885,-0.518,0.768,2.94,-124.46,-23.415
49213960,-0.934,-0.498,0.783,2.502,-145.197,-25.76
49213960,-0.743,-0.527,0.766,7.157,-163.817,-25.007
49213980,-0.605,-0.517,0.762,27.3,-164.955,-13.877
49213980,-0.649,-0.503,0.809,46.34,-163.957,-2.047
49214000,-0.619,-0.511,0.802,57.085,-166.547,-1.382
49214000,-0.537,-0.497,0.801,69.125,-168.49,-2.1
49214010,-0.45,-0.445,0.834,84.945,-167.037,3.395
49214020,-0.37,-0.355,0.875,97.352,-157.71,6.3
49214030,-0.317,-0.274,0.908,101.08,-145.092,4.882
49214040,-0.272,-0.221,0.92,95.847,-130.34,1.505
49214050,-0.227,-0.176,0.921,85.295,-113.207,-1.12
49214060,-0.197,-0.134,0.914,71.872,-93.677,-0.752
49214070,-0.154,-0.09,0.887,53.847,-70.927,0.455
49214080,-0.151,-0.06,0.883,31.587,-46.077,0.612
49214090,-0.251,-0.073,0.865,4.41,-26.915,0.052
49214100,-0.317,-0.125,0.806,-21.822,-14.84,-0.175
49214110,-0.343,-0.196,0.759,-40.565,-5.95,0.402
49214120,-0.42,-0.256,0.742,-52.587,-2.24,-2.415
49214130,-0.509,-0.311,0.721,-58.502,-7.017,-11.217
49214140,-0.515,-0.359,0.694,-56.245,-16.677,-22.277
49214150,-0.474,-0.373,0.682,-47.39,-27.44,-28.997
49214160,-0.458,-0.347,0.679,-37.397,-36.802,-31.01
49214170,-0.432,-0.341,0.675,-27.002,-42.437,-29.54
49214180,-0.373,-0.296,0.658,-22.312,-41.702,-26.915
49214190,-0.389,-0.321,0.675,-13.667,-35.962,-17.762
49214200,-0.376,-0.275,0.714,-7.595,-28.525,-10.5
49214210,-0.399,-0.238,0.74,-3.885,-22.05,-1.522
49214220,-0.421,-0.195,0.778,-1.627,-17.78,6.772
49214230,-0.445,-0.153,0.831,-5.075,-18.987,16.625
49214240,-0.456,-0.145,0.843,-15.487,-23.327,26.04
49214250,-0.512,-0.233,0.837,-22.085,-29.417,35.577
49214260,-0.408,-0.234,0.833,-28,-31.57,30.432
49214270,-0.403,-0.307,0.807,-31.5,-28.577,34.37
49214280,-0.42,-0.389,0.796,-24.867,-22.19,36.277
49214290,-0.425,-0.443,0.806,-9.73,-15.627,31.797
49214300,-0.419,-0.447,0.835,10.675,-11.2,26.075
49214310,-0.424,-0.425,0.881,30.992,-7.367,22.172
49214320,-0.426,-0.353,0.94,45.832,-7.927,17.78
49214330,-0.441,-0.316,0.966,53.585,-12.197,16.31
49214330,-0.429,-0.261,1.002,56.157,-17.605,16.73
49214350,-0.413,-0.228,1.003,48.597,-22.557,18.095
49214350,-0.385,-0.235,0.983,42.787,-26.32,19.652
49214370,-0.33,-0.241,0.961,39.742,-25.9,21.28
49214370,-0.282,-0.233,0.944,36.715,-21.42,24.202
49214390,-0.282,-0.232,0.936,34.51,-13.002,27.93
49214390,-0.296,-0.232,0.938,34.475,-4.41,30.047
49214410,-0.314,-0.216,0.94,34.107,2.94,32.112
49214410,-0.339,-0.192,0.943,32.165,6.755,35.105
49214420,-0.366,-0.16,0.952,27.335,7.717,38.08
49214430,-0.395,-0.14,0.95,19.075,4.602,40.6
49214440,-0.398,-0.146,0.926,8.942,0.647,41.335
49214450,-0.389,-0.172,0.915,0.087,-2.432,40.792
49214460,-0.407,-0.213,0.893,-5.74,-4.2,39.095
49214470,-0.413,-0.225,0.89,-6.912,-6.072,33.705
49214480,-0.409,-0.231,0.897,-5.95,-9.747,27.422
49214490,-0.395,-0.232,0.897,-3.29,-13.545,19.407
49214500,-0.393,-0.213,0.92,-1.435,-17.587,10.85
49214510,-0.388,-0.203,0.935,-2.38,-22.855,4.305
49214520,-0.344,-0.213,0.928,-4.042,-26.442,-1.627
49214530,-0.323,-0.245,0.917,-3.202,-28.052,-4.952
49214540,-0.324,-0.261,0.909,2.24,-28.63,-4.147
49214550,-0.302,-0.245,0.909,7.07,-29.015,-3.675
49214560,-0.268,-0.222,0.911,11.585,-28.122,-3.85
49214570,-0.253,-0.205,0.922,15.33,-25.357,-3.307
49214580,-0.237,-0.183,0.926,14.91,-20.352,-3.08
49214590,-0.242,-0.165,0.928,11.2,-12.845,-3.325
49214600,-0.254,-0.162,0.93,6.965,-4.847,-4.112
49214610,-0.245,-0.168,0.916,0.945,4.882,-3.202
49214620,-0.223,-0.18,0.899,-3.99,16.607,-0.227
49214630,-0.201,-0.187,0.896,-6.825,33.372,4.742
49214640,-0.218,-0.178,0.892,-9.257,52.535,10.57
49214650,-0.228,-0.168,0.901,-11.655,71.627,15.54
49214660,-0.27,-0.154,0.903,-14.297,90.23,21.07
49214670,-0.355,-0.162,0.914,-18.865,103.302,24.552
49214670,-0.409,-0.183,0.907,-21.472,109.62,23.957
49214690,-0.454,-0.179,0.888,-21.892,110.67,23.1
49214690,-0.501,-0.188,0.91,-18.62,104.807,22.435
49214710,-0.51,-0.198,0.878,-20.422,97.93,25.48
49214710,-0.513,-0.205,0.858,-22.575,89.705,29.225
49214730,-0.518,-0.217,0.84,-25.777,83.405,33.197
49214730,-0.595,-0.312,0.775,-25.48,76.982,40.635
49214750,-0.538,-0.294,0.829,-12.32,71.61,34.545
49214750,-0.503,-0.217,0.845,-13.545,69.632,26.845
49214760,-0.55,-0.224,0.859,-19.512,69.65,31.412
49214770,-0.573,-0.24,0.86,-21.297,70.297,32.095
49214780,-0.67,-0.261,0.874,-21.612,65.257,30.835
49214790,-0.676,-0.26,0.88,-25.742,51.94,23.31
49214800,-0.629,-0.251,0.863,-26.11,38.675,15.33
49214810,-0.632,-0.23,0.839,-25.725,22.68,14.822
49214820,-0.645,-0.234,0.793,-28.455,7.122,17.15
49214830,-0.569,-0.226,0.761,-24.692,-6.037,9.992
49214840,-0.526,-0.228,0.722,-22.557,-12.39,3.832
49214850,-0.514,-0.259,0.69,-17.395,-13.387,2.45
49214860,-0.517,-0.238,0.705,-9.222,-11.217,0.472
49214870,-0.605,-0.201,0.71,-6.247,-11.935,-0.402
49214880,-0.636,-0.186,0.691,-7.227,-17.36,-3.762
49214890,-0.628,-0.188,0.683,-7.752,-22.54,-6.37
49214900,-0.694,-0.199,0.685,-8.925,-30.327,-7.21
49214910,-0.747,-0.187,0.698,-10.622,-41.387,-10.885
49214920,-0.777,-0.192,0.702,-12.022,-57.977,-15.435
49214930,-0.766,-0.218,0.691,-12.18,-76.86,-19.232
49214940,-0.707,-0.227,0.706,-9.66,-93.555,-22.085
49214950,-0.609,-0.233,0.769,-7.717,-109.147,-21.77
49214960,-0.118,-0.342,0.851,-9.52,-88.165,-11.27
49214970,-0.33,-0.38,0.857,-1.067,-41.142,8.522
49214980,-0.576,-0.277,0.982,19.022,-18.742,4.095
49214990,-0.7,-0.24,0.974,19.057,-16.922,1.855
49215000,-0.745,-0.307,0.906,17.202,-41.422,1.4
49215010,-0.627,-0.315,0.857,23.082,-67.742,-2.94
49215020,-0.523,-0.306,0.832,29.347,-87.85,-3.08
49215030,-0.5,-0.321,0.777,35.472,-98.227,-0.997
49215040,-0.471,-0.285,0.781,45.797,-104.702,-2.292
49215050,-0.388,-0.246,0.779,54.337,-109.077,-2.415
49215060,-0.198,-0.231,0.821,58.047,-104.79,2.537
49215070,-0.181,-0.206,0.85,55.072,-86.712,11.165
49215080,-0.284,-0.118,0.877,47.407,-73.972,10.657
49215080,-0.223,-0.081,0.945,29.067,-64.662,8.085
49215100,-0.189,-0.178,0.886,10.885,-49.297,9.082
49215100,-0.245,-0.189,0.912,6.475,-38.867,3.29
49215120,-0.215,-0.192,0.929,1.435,-31.535,0.822
49215120,-0.242,-0.197,0.912,2.17,-23.887,3.167
49215140,-0.283,-0.196,0.889,7.542,-21.07,2.747
49215140,-0.31,-0.141,0.844,10.972,-20.982,3.955
49215160,-0.323,-0.163,0.89,11.2,-22.96,6.947
49215160,-0.287,-0.2,0.88,15.102,-22.155,4.235
49215170,-0.251,-0.157,0.851,24.377,-19.74,-0.525
49215180,-0.292,-0.069,0.871,28.385,-18.2,-2.52
49215190,-0.245,-0.045,0.897,21.035,-16.625,-4.427
49215200,-0.15,-0.123,0.9,10.92,-6.002,-6.072
49215210,-0.162,-0.173,0.917,11.322,11.812,-6.055
49215220,-0.21,-0.163,0.951,17.08,29.47,-3.447
49215230,-0.274,-0.151,0.996,20.982,40.477,1.155
49215240,-0.303,-0.152,1.008,21.122,47.512,3.15
49215250,-0.346,-0.126,1.017,18.917,51.94,3.272
49215260,-0.458,-0.118,1.043,11.83,50.19,4.025
49215270,-0.502,-0.128,1.022,4.602,43.155,0.682
49215280,-0.454,-0.138,0.993,2.24,34.807,-4.147
49215290,-0.424,-0.132,0.972,1.785,27.177,-4.655
49215300,-0.44,-0.127,0.949,0.122,21.017,-2.572
49215310,-0.465,-0.136,0.942,-1.592,15.155,-1.855
49215320,-0.448,-0.131,0.94,1.277,9.922,-2.17
49215330,-0.446,-0.104,0.95,6.457,5.39,-0.07
49215340,-0.448,-0.075,0.938,7.752,-0.28,1.575
49215350,-0.447,-0.078,0.941,5.652,-5.285,0.857
49215360,-0.489,-0.095,0.91,3.745,-13.387,-1.662
49215370,-0.426,-0.088,0.894,4.13,-21.752,-8.05
49215380,-0.333,-0.086,0.874,4.655,-27.405,-10.657
49215390,-0.319,-0.055,0.89,1.855,-28.56,-8.207
49215400,-0.325,-0.024,0.899,-4.34,-25.69,-5.775
49215410,-0.311,-0.024,0.899,-10.29,-19.18,-6.422
49215420,-0.288,-0.029,0.886,-18.97,-11.48,-8.47
49215420,-0.303,-0.052,0.872,-29.33,-3.92,-10.15
49215440,-0.346,-0.079,0.871,-38.867,-0.35,-13.51
49215440,-0.404,-0.118,0.857,-48.212,-1.452,-19.022
49215460,-0.406,-0.136,0.833,-56.245,-8.382,-26.442
49215460,-0.363,-0.179,0.785,-59.08,-15.855,-30.625
49215480,-0.298,-0.208,0.759,-55.58,-19.775,-26.915
49215480,-0.29,-0.242,0.758,-49.927,-17.587,-16.467
49215500,-0.308,-0.246,0.768,-40.74,-11.042,-7.052
49215500,-0.337,-0.212,0.809,-33.425,-2.537,0.07
49215510,-0.375,-0.221,0.829,-33.46,2.38,6.405
49215520,-0.391,-0.293,0.81,-34.475,6.527,10.395
49215530,-0.412,-0.356,0.811,-31.22,5.81,13.685
49215540,-0.465,-0.405,0.823,-21.56,1.592,22.505
49215550,-0.498,-0.391,0.87,-7.682,-3.902,31.972
49215560,-0.557,-0.366,0.943,2.38,-15.085,39.497
49215570,-0.586,-0.43,1.015,9.135,-34.282,39.725
49215580,-0.546,-0.439,1.062,23.94,-58.17,30.555
49215590,-0.403,-0.277,1.071,43.767,-77.822,19.932
49215600,-0.264,-0.179,1.085,47.862,-86.135,17.762
49215610,-0.172,-0.178,1.05,41.335,-81.165,13.982
49215620,-0.105,-0.136,1.039,33.722,-64.067,7.28
49215630,-0.059,-0.103,1.035,22.505,-41.475,5.582
49215640,-0.063,-0.109,1.023,9.712,-17.43,5.722
49215650,-0.096,-0.114,1.01,-1.872,2.905,5.845
49215660,-0.165,-0.128,0.983,-10.115,16.24,5.967
49215670,-0.155,-0.109,0.935,-15.242,25.655,5.092
49215680,-0.213,-0.116,0.874,-20.457,38.045,5.687
49215690,-0.373,-0.247,0.884,-32.147,36.925,7.945
49215700,-0.303,-0.147,0.834,-26.757,35.875,-1.295
49215710,-0.344,-0.119,0.877,-25.322,30.817,0.665
49215720,-0.432,-0.233,0.859,-35.507,20.755,6.335
49215730,-0.343,-0.203,0.881,-30.992,14.805,-1.172
49215740,-0.273,-0.195,0.93,-24.815,12.897,0.035
49215750,-0.285,-0.204,0.92,-23.1,19.495,1.82
49215760,-0.3,-0.202,0.945,-22.487,29.417,-2.782
49215770,-0.318,-0.203,0.945,-24.272,38.64,-5.495
49215780,-0.346,-0.201,0.944,-25.025,43.785,-4.235
49215790,-0.396,-0.199,0.944,-27.335,44.572,-1.417
49215800,-0.436,-0.211,0.892,-32.042,39.445,1.155
49215810,-0.42,-0.232,0.861,-32.865,35.28,3.202
49215820,-0.452,-0.312,0.851,-29.015,27.002,3.727
49215830,-0.479,-0.304,0.814,-18.865,16.747,0.42
49215830,-0.451,-0.218,0.831,-8.505,4.462,-2.765
49215850,-0.432,-0.176,0.836,-6.737,-6.02,-2.17
49215850,-0.43,-0.19,0.836,-7.997,-14.297,-1.767
49215870,-0.478,-0.187,0.875,-11.987,-23.922,2.135
49215870,-0.514,-0.262,0.878,-19.127,-35.927,11.392
49215890,-0.475,-0.331,0.859,-18.917,-44.765,17.132
49215890,-0.427,-0.36,0.845,-6.107,-50.592,20.632
49215910,-0.382,-0.302,0.856,8.522,-50.33,22.715
49215910,-0.381,-0.249,0.887,20.037,-49.647,20.195
49215920,-0.326,-0.182,0.907,19.722,-47.687,14.647
49215930,-0.211,-0.158,0.943,11.62,-40.25,10.395
49215940,-0.172,-0.174,0.996,2.502,-27.755,11.707
49215950,-0.184,-0.181,1.009,-10.762,-17.185,18.13
49215960,-0.163,-0.22,1.031,-22.452,-9.8,28.087
49215970,-0.108,-0.234,1.023,-29.627,-1.365,39.847
49215980,-0.091,-0.245,0.99,-35.525,10.99,46.217
49215990,-0.086,-0.267,0.999,-39.27,30.975,43.05
49216000,-0.233,-0.321,0.99,-42.525,50.12,36.032
49216010,-0.248,-0.36,0.977,-38.85,60.182,24.675
49216020,-0.249,-0.334,1,-31.71,70.175,22.277
49216030,-0.472,-0.285,1.014,-36.435,69.492,24.465
49216040,-0.542,-0.334,1.009,-44.082,58.887,21.455
49216050,-0.431,-0.375,0.977,-46.55,50.557,16.415
49216060,-0.432,-0.383,0.955,-51.397,47.425,12.88
49216070,-0.5,-0.434,0.937,-59.5,46.9,11.987
49216080,-0.592,-0.518,0.899,-64.995,44.415,5.6
49216090,-0.65,-0.564,0.892,-65.887,37.835,-4.147
49216100,-0.713,-0.61,0.859,-61.775,27.002,-9.87
49216110,-0.765,-0.642,0.889,-51.537,13.107,-17.185
49216120,-0.739,-0.753,0.913,-39.235,-4.007,-27.352
49216130,-0.629,-0.829,0.944,-13.667,-12.967,-39.637
49216140,-0.741,-0.807,0.961,12.74,-36.872,-41.737
49216150,-0.67,-0.721,1.007,29.837,-68.757,-44.607
49216160,-0.497,-0.603,0.947,44.747,-102.777,-58.415
49216170,-0.329,-0.513,0.926,55.842,-131.495,-71.242
49216170,-0.158,-0.425,0.87,57.155,-147.822,-77.262
49216190,-0.037,-0.387,0.805,60.06,-149.362,-82.215
49216190,0.043,-0.292,0.786,60.322,-139.755,-85.627
49216210,0.06,-0.191,0.773,47.022,-124.792,-86.135
49216210,0.049,-0.131,0.777,26.232,-107.992,-86.537
49216230,0.059,-0.12,0.729,2.957,-88.165,-86.8
49216230,0.028,-0.117,0.729,-18.672,-68.232,-87.727
49216250,-0.085,-0.122,0.716,-41.492,-54.005,-90.37
49216250,-0.192,-0.183,0.709,-58.94,-47.477,-95.357
49216260,-0.232,-0.223,0.704,-68.425,-47.775,-101.15
49216270,-0.248,-0.276,0.708,-71.032,-54.302,-102.742
49216280,-0.213,-0.302,0.694,-68.705,-62.335,-100.852
49216290,-0.156,-0.333,0.68,-61.11,-68.442,-96.862
49216300,-0.087,-0.307,0.681,-52.692,-68.372,-93.257
49216310,-0.058,-0.297,0.686,-44.782,-62.387,-88.935
49216320,-0.041,-0.267,0.701,-38.062,-52.482,-84.875
49216330,-0.06,-0.265,0.723,-31.78,-44.31,-78.312
49216340,-0.06,-0.254,0.745,-27.632,-37.45,-71.68
49216350,-0.064,-0.264,0.771,-26.652,-31.5,-64.417
49216360,-0.097,-0.301,0.815,-26.81,-27.632,-56.962
49216370,-0.114,-0.341,0.834,-28.997,-26.477,-54.32
49216380,-0.094,-0.354,0.859,-30.117,-27.055,-52.675
49216390,-0.081,-0.402,0.887,-29.085,-28.945,-50.032
49216400,-0.053,-0.447,0.915,-26.232,-31.01,-49.157
49216410,-0.027,-0.498,0.939,-19.897,-32.165,-48.86
49216420,-0.004,-0.513,0.965,-10.605,-33.32,-52.045
49216430,0.009,-0.551,0.992,0.192,-34.65,-57.4
49216440,0.059,-0.554,1.006,12.81,-36.347,-65.327
49216450,0.101,-0.555,1.01,24.5,-36.75,-74.182
49216460,0.131,-0.539,1.012,34.177,-38.045,-83.492
49216470,0.16,-0.522,1.014,42.227,-40.635,-91.7
49216480,0.196,-0.503,1.004,53.165,-43.89,-97.58
49216490,0.287,-0.414,0.971,60.445,-43.645,-102.252
49216500,0.295,-0.38,0.931,67.322,-40.442,-98.752
49216510,0.31,-0.306,0.903,71.05,-32.882,-97.23
49216520,0.326,-0.234,0.863,68.845,-22.4,-96.337
49216530,0.268,-0.2,0.83,63.787,-10.902,-89.127
49216540,0.187,-0.181,0.818,55.422,-1.242,-80.115
49216550,0.151,-0.152,0.782,42.052,6.405,-70.227
49216560,0.075,-0.174,0.767,30.642,10.465,-54.53
49216570,0.006,-0.204,0.725,19.215,13.807,-37.1
49216580,-0.025,-0.209,0.752,14.945,17.377,-23.73
49216580,-0.051,-0.177,0.811,0.21,20.3,-10.062
49216600,-0.077,-0.18,0.855,-24.167,22.907,2.8
49216600,-0.058,-0.19,0.859,-53.9,26.792,11.2
49216610,-0.098,-0.281,0.873,-79.625,29.295,17.885
49216620,-0.123,-0.383,0.862,-98.07,31.867,21.472
49216630,-0.185,-0.49,0.854,-102.882,28.437,27.002
49216640,-0.199,-0.553,0.867,-96.197,22.312,24.43
49216650,-0.183,-0.596,0.875,-79.327,14.542,20.422
49216660,-0.159,-0.583,0.912,-56.77,4.9,15.26
49216670,-0.144,-0.584,0.929,-33.6,-6.737,8.417
49216680,-0.099,-0.561,0.948,-10.832,-19.215,-0.192
49216690,-0.049,-0.51,0.954,7.035,-32.077,-9.275
49216700,0.04,-0.451,0.973,18.585,-41.79,-18.147
49216710,0.091,-0.409,0.959,20.772,-48.702,-15.855
49216720,0.112,-0.462,0.915,26.337,-52.097,-15.452
49216730,0.227,-0.422,0.93,35.577,-47.565,-22.715
49216740,0.281,-0.355,0.92,35,-37.467,-16.625
49216750,0.296,-0.341,0.902,35.262,-21.752,-6.492
49216760,0.304,-0.322,0.897,38.692,-2.135,2.835
49216770,0.265,-0.304,0.904,39.725,17.202,16.1
49216780,0.202,-0.302,0.903,38.08,33.32,29.347
49216790,0.154,-0.307,0.898,35.175,46.777,37.695
49216800,0.104,-0.31,0.907,33.547,56.087,41.912
49216810,0.04,-0.31,0.923,32.935,61.32,43.207
49216820,-0.027,-0.32,0.943,33.162,59.465,42.752
49216830,-0.081,-0.332,0.956,32.182,51.38,42.332
49216840,-0.096,-0.346,0.961,32.27,39.34,40.285
49216850,-0.063,-0.354,0.968,33.39,28.455,38.307
49216860,-0.015,-0.362,0.97,33.81,20.545,39.077
49216870,0.02,-0.378,0.967,33.32,18.655,41.107
49216880,0.033,-0.389,0.973,32.445,20.335,38.955
49216890,0.021,-0.383,0.981,31.482,21.927,34.195
49216900,-0.009,-0.383,0.988,30.782,18.025,29.4
49216910,-0.065,-0.389,1,31.167,7.787,22.907
49216920,-0.057,-0.372,0.999,33.46,-8.627,13.405
49216920,0.003,-0.33,0.998,35.875,-26.547,4.812
49216940,0.113,-0.268,0.98,36.487,-40.425,-1.697
49216940,0.219,-0.22,0.943,33.285,-43.382,-6.002
49216960,0.252,-0.201,0.93,27.702,-36.785,-10.482
49216960,0.238,-0.202,0.902,20.352,-24.762,-17.937
49216980,0.224,-0.193,0.887,13.702,-10.36,-29.75
49216980,0.201,-0.161,0.894,10.15,0.735,-41.86
49217000,0.161,-0.135,0.902,4.602,5.267,-47.285
49217000,0.135,-0.124,0.888,-2.31,6.947,-47.845
49217010,0.124,-0.133,0.867,-9.065,7.175,-44.66
49217020,0.086,-0.172,0.846,-15.715,7.455,-37.607
49217030,0.066,-0.234,0.815,-19.512,9.1,-30.73
49217040,0.082,-0.291,0.803,-17.132,14.245,-24.815
49217050,0.067,-0.331,0.802,-10.85,22.785,-17.132
49217060,0.033,-0.338,0.826,-2.1,34.16,-10.465
49217070,-0.041,-0.337,0.835,7.507,44.03,-8.837
49217080,-0.108,-0.322,0.868,15.61,48.825,-12.25
49217090,-0.168,-0.292,0.925,19.302,42.822,-16.327
49217100,-0.197,-0.29,0.974,18.182,27.492,-18.41
49217110,-0.176,-0.322,1.007,14.262,8.155,-17.797
49217120,-0.079,-0.381,1.042,10.535,-9.835,-14.385
49217130,0.117,-0.459,1.085,10.902,-12.635,-6.807
49217140,0.198,-0.548,1.141,17.675,2.765,4.217
49217150,0.085,-0.555,1.182,33.915,22.68,7.857
49217160,-0.092,-0.473,1.223,52.605,27.667,6.37
49217170,-0.198,-0.38,1.232,62.475,17.78,7.647
49217180,-0.183,-0.318,1.219,63.28,2.467,6.055
49217190,-0.078,-0.324,1.195,57.33,-5.862,0.227
49217200,0.026,-0.391,1.134,52.867,1.19,-6.65
49217210,0.051,-0.433,1.079,60.182,21.332,-9.852
49217220,0.002,-0.396,1.061,76.685,48.755,-5.355
49217230,-0.106,-0.295,1.081,96.18,75.057,1.872
49217240,-0.219,-0.163,1.114,110.127,94.64,9.117
49217250,-0.332,-0.051,1.134,113.33,106.452,17.797
49217260,-0.415,0.017,1.113,108.115,108.937,26.285
49217270,-0.449,0.068,1.068,100.45,106.732,33.407
49217280,-0.449,0.125,1.005,93.66,100.502,39.882
49217280,-0.388,0.194,0.932,89.775,94.64,48.335
49217300,-0.272,0.275,0.862,86.87,93.012,60.987
49217300,-0.112,0.383,0.826,78.89,103.845,78.015
49217320,-0.064,0.437,0.772,59.972,123.025,93.817
49217320,-0.105,0.376,0.689,35.122,146.877,101.71
49217330,-0.144,0.284,0.633,17.027,165.725,105.367
49217340,-0.241,0.236,0.629,7.857,172.602,112.017
49217350,-0.397,0.135,0.619,4.235,163.03,117.25
49217360,-0.502,0.003,0.621,8.977,140.612,115.097
49217370,-0.496,-0.028,0.656,21.892,110.757,105.052
49217380,-0.459,0,0.72,32.445,78.085,97.282
49217390,-0.404,0.023,0.777,38.307,46.165,91.752
49217400,-0.382,0.037,0.837,37.485,20.405,89.32
49217410,-0.343,0.053,0.902,31.447,-0.35,85.767
49217420,-0.233,0.044,0.921,22.872,-14.262,84.017
49217430,-0.223,0.014,0.91,13.177,-21.087,88.69
49217440,-0.167,0.033,0.972,11.69,-20.807,89.442
49217450,-0.18,0.001,0.969,8.54,-19.022,100.695
49217460,-0.184,-0.039,0.959,11.287,-15.872,104.947
49217470,-0.175,-0.058,0.947,19.215,-10.727,104.317
49217480,-0.179,-0.027,0.978,28.122,-4.795,101.797
49217490,-0.268,-0.012,0.987,32.497,-1.312,97.002
49217500,-0.284,0.02,1.009,35.717,-1.05,83.265
49217510,-0.277,0.062,1.016,38.22,-5.705,72.695
49217520,-0.286,0.087,1.008,37.397,-13.912,66.78
49217530,-0.286,0.101,1.013,34.16,-23.362,63.507
49217540,-0.296,0.104,1.015,31.062,-34.772,61.635
49217550,-0.507,0.082,1.006,27.65,-59.535,59.57
49217560,-0.32,0.042,0.97,28.875,-102.322,45.447
49217570,0.004,0.034,0.915,35.035,-131.53,46.287
49217580,0.13,0.06,0.95,43.277,-135.852,56.647
49217590,0.159,0.112,0.948,45.78,-118.51,62.702
49217600,0.116,0.226,1.02,42.087,-94.027,61.53
49217610,0.051,0.263,1.068,26.932,-73.762,58.152
49217620,0.022,0.157,1.049,12.075,-56.35,51.957
49217630,0.016,0.115,1.053,7.945,-39.112,42.402
49217640,0.024,0.177,1.121,9.765,-23.03,33.477
49217650,-0.038,0.214,1.142,3.535,-9.38,30.17
49217660,-0.111,0.286,1.128,-3.045,-5.127,22.942
49217670,-0.135,0.271,1.101,-13.86,-10.675,18.025
49217670,-0.136,0.22,1.057,-29.47,-23.03,19.985
49217690,-0.038,0.103,1.062,-37.94,-29.785,22.907
49217690,-0.063,0.074,1.027,-39.935,-20.65,24.167
49217710,-0.058,0.111,1.002,-25.602,-24.202,6.457
49217710,0.02,0.218,1.064,-17.622,-30.065,1.312
49217730,-0.017,0.217,1,-31.692,-30.152,9.065
49217730,0.025,0.252,1.001,-32.305,-24.99,-0.945
49217750,0.073,0.281,0.991,-39.34,-16.31,-8.085
49217750,0.057,0.287,0.966,-55.72,-4.13,-9.765
49217760,0.03,0.301,0.95,-71.68,10.255,-11.34
49217770,0.001,0.317,0.955,-86.695,22.627,-12.652
49217780,-0.033,0.256,0.927,-103.53,31.185,-13.3
49217790,-0.083,0.134,0.866,-114.187,37.257,-18.025
49217800,-0.088,0.104,0.856,-115.132,43.575,-27.527
49217810,-0.077,0.109,0.845,-115.097,48.965,-33.53
49217820,-0.068,0.057,0.807,-114.975,55.107,-32.655
49217830,-0.038,0.009,0.79,-109.847,66.01,-25.917
49217840,-0.105,0.005,0.834,-102.445,79.607,-12.775
49217850,-0.25,0.032,0.881,-99.277,91.017,-0.717
49217860,-0.343,0.053,0.904,-101.762,96.355,4.935
49217870,-0.4,0.02,0.898,-106.697,94.447,9.31
49217880,-0.475,-0.062,0.882,-108.465,84.805,12.635
49217890,-0.522,-0.136,0.877,-102.865,68.827,12.722
49217900,-0.544,-0.182,0.882,-88.812,47.705,10.307
49217910,-0.546,-0.178,0.912,-72.45,24.447,6.09
49217920,-0.521,-0.157,0.932,-57.015,0.07,2.887
49217930,-0.466,-0.126,0.934,-42.385,-20.685,-0.017
49217940,-0.403,-0.121,0.928,-31.885,-36.872,-2.747
49217950,-0.326,-0.132,0.915,-24.657,-46.987,-6.055
49217960,-0.224,-0.134,0.909,-18.2,-50.26,-6.842
49217970,-0.063,-0.098,0.961,-12.11,-44.432,-2.257
49217980,0.059,-0.053,0.97,-12.582,-19.162,11.585
49217990,-0.085,-0.034,1.026,-21.28,9.117,24.465
49218000,-0.212,-0.042,1.048,-34.825,27.457,24.465
49218010,-0.251,-0.133,1.036,-49.647,32.217,22.067
49218010,-0.27,-0.253,0.998,-55.965,27.247,20.405
49218030,-0.118,-0.378,1.031,-46.76,25.777,14.682
49218030,-0.122,-0.41,1.044,-23.642,30.257,7.525
49218050,-0.231,-0.282,1.05,1.837,31.535,2.257
49218050,-0.336,-0.14,1.12,11.165,23.292,-0.98
49218070,-0.367,-0.149,1.081,2.415,6.545,-2.502
49218070,-0.274,-0.173,0.991,-1.785,-4.865,-5.985
49218080,-0.219,-0.188,0.928,0.052,-7.017,-3.307
49218090,-0.233,-0.183,0.907,2.205,-2.992,0.192
49218100,-0.271,-0.16,0.905,2.905,2.362,0.507
49218110,-0.311,-0.139,0.89,1.12,3.64,0.367
49218120,-0.33,-0.139,0.887,-0.98,3.202,0.437
49218130,-0.328,-0.14,0.906,-2.397,2.012,-0.315
49218140,-0.303,-0.161,0.923,-3.955,1.19,-2.292
49218150,-0.257,-0.175,0.908,-3.36,1.382,-3.587
49218160,-0.257,-0.135,0.92,-3.15,3.325,-2.117
49218170,-0.305,-0.114,0.948,-7.91,4.235,1.26
49218180,-0.255,-0.119,0.93,-12.197,6.212,1.557
49218190,-0.233,-0.145,0.92,-12.6,9.94,2.1
49218200,-0.285,-0.139,0.929,-15.067,12.39,3.185
49218210,-0.275,-0.136,0.931,-20.177,15.067,2.222
49218220,-0.277,-0.152,0.934,-23.59,17.64,0.98
49218230,-0.294,-0.162,0.941,-25.095,20.107,0.175
49218240,-0.287,-0.163,0.932,-27.632,21.647,-0.14
49218250,-0.378,-0.219,0.92,-24.692,19.635,4.865
49218260,-0.34,-0.189,0.932,-17.325,14.7,0.98
49218270,-0.316,-0.165,0.922,-17.535,11.252,-2.362
49218280,-0.292,-0.163,0.89,-19.477,11.795,-3.115
49218290,-0.199,-0.177,0.87,-18.217,21.752,-4.357
49218300,-0.311,-0.203,0.904,-16.1,31.482,1.907
49218310,-0.481,-0.257,0.93,-16.502,29.172,10.465
49218320,-0.38,-0.326,0.943,-2.275,25.567,3.255
49218330,-0.241,-0.319,0.935,21.752,27.37,-7.402
49218340,-0.14,-0.21,0.914,37.677,43.365,-8.032
49218350,-0.194,-0.076,0.909,47.6,70.245,3.29
49218360,-0.508,-0.192,0.931,32.847,63.682,22.925
49218370,-0.221,-0.14,0.877,40.39,68.932,16.222
49218380,-0.036,0.046,0.947,45.027,90.055,8.767
49218390,-0.121,-0.017,0.865,13.457,117.372,28
49218400,-0.315,-0.036,0.863,-0.98,150.885,35.087
49218410,-0.57,-0.033,0.954,-5.425,159.915,30.187
49218420,-0.739,-0.022,0.958,-19.022,147.367,25.252
49218420,-0.827,-0.083,0.934,-33.302,118.195,15.417
49218440,-0.758,-0.153,0.898,-38.36,84.612,5.092
49218440,-0.774,-0.15,0.904,-38.202,54.705,-2.467
49218460,-0.853,-0.174,0.853,-42.017,17.185,-7.262
49218460,-0.695,-0.164,0.847,-38.937,-12.862,-23.695
49218480,-0.549,-0.176,0.855,-35.77,-35.84,-33.39
49218480,-0.469,-0.162,0.819,-35.227,-46.987,-30.082
49218500,-0.404,-0.113,0.834,-28.157,-48.685,-25.812
49218500,-0.394,-0.093,0.838,-27.93,-46.445,-22.767
49218510,-0.415,-0.109,0.819,-35.017,-44.8,-23.292
49218520,-0.36,-0.131,0.792,-36.767,-43.032,-28.892
49218530,-0.302,-0.138,0.776,-37.38,-39.585,-28.402
49218540,-0.328,-0.155,0.766,-40.827,-33.477,-20.247
49218550,-0.372,-0.168,0.779,-40.617,-25.182,-14.472
49218560,-0.365,-0.187,0.82,-40.11,-15.732,-12.127
49218570,-0.323,-0.242,0.831,-41.912,-1.4,-8.435
49218580,-0.375,-0.3,0.857,-39.2,14.7,-4.287
49218590,-0.479,-0.341,0.885,-35.07,24.447,-2.835
49218600,-0.522,-0.373,0.908,-30.52,25.305,-3.342
49218610,-0.53,-0.394,0.913,-24.447,19.442,-6.142
49218620,-0.506,-0.347,0.929,-19.705,13.23,-8.487
49218630,-0.486,-0.287,0.924,-20.405,6.702,-12.792
49218640,-0.482,-0.272,0.896,-26.232,-1.505,-13.632
49218650,-0.458,-0.285,0.856,-33.95,-4.847,-10.92
49218660,-0.432,-0.292,0.82,-38.622,-5.25,-9.205
49218670,-0.45,-0.293,0.798,-39.672,-3.587,-7.192
49218680,-0.472,-0.328,0.781,-39.62,-2.59,-5.687
49218690,-0.475,-0.361,0.761,-34.58,-2.607,-5.32
49218700,-0.468,-0.343,0.767,-28.35,-2.747,-6.16
49218710,-0.466,-0.319,0.776,-23.625,-1.347,-6.037
49218720,-0.461,-0.298,0.79,-20.072,1.067,-6.107
49218730,-0.458,-0.277,0.83,-19.705,4.2,-4.06
49218740,-0.467,-0.273,0.842,-22.557,5.617,-1.225
49218750,-0.443,-0.269,0.856,-25.165,8.487,-1.172
49218760,-0.434,-0.278,0.866,-29.172,11.235,-0.227
49218760,-0.465,-0.315,0.868,-33.81,13.72,1.277
49218780,-0.488,-0.353,0.874,-35.56,14.245,-1.225
49218780,-0.496,-0.361,0.876,-35.437,15.452,-4.76
49218800,-0.527,-0.362,0.863,-35.892,14.122,-7.49
49218800,-0.536,-0.37,0.846,-36.995,12.495,-11.48
49218820,-0.53,-0.384,0.832,-38.29,9.677,-14.787
49218820,-0.523,-0.387,0.815,-40.267,6.02,-16.467
49218830,-0.503,-0.409,0.796,-41.3,2.852,-18.602
49218840,-0.466,-0.431,0.756,-39.147,2.992,-19.792
49218850,-0.431,-0.422,0.729,-33.985,5.32,-19.25
49218860,-0.427,-0.4,0.723,-29.207,8.96,-16.222
49218870,-0.413,-0.37,0.714,-25.9,12.197,-12.53
49218880,-0.389,-0.348,0.711,-23.73,16.292,-8.697
49218890,-0.38,-0.353,0.724,-22.435,21.997,-1.872
49218900,-0.381,-0.384,0.715,-21.315,28.49,3.272
49218910,-0.45,-0.416,0.653,-17.762,31.675,6.282
49218920,-0.58,-0.441,0.638,-13.842,23.345,8.365
49218930,-0.57,-0.399,0.625,-8.067,11.13,7.157
49218940,-0.424,-0.35,0.629,-0.35,5.862,4.077
49218950,-0.359,-0.383,0.643,4.042,19.005,10.832
49218960,-0.395,-0.46,0.711,13.965,41.16,15.872
49218970,-0.531,-0.418,0.805,22.977,55.685,16.712
49218980,-0.661,-0.357,0.909,13.58,49.84,20.405
49218990,-0.596,-0.414,0.924,-4.672,37.695,20.09
49219000,-0.437,-0.487,0.889,-11.445,32.83,13.475
49219010,-0.444,-0.487,0.862,-11.917,32.9,12.775
49219020,-0.53,-0.434,0.833,-11.497,30.17,13.685
49219030,-0.534,-0.388,0.771,-12.127,26.04,12.11
49219040,-0.493,-0.376,0.706,-13.44,25.462,12.11
49219050,-0.514,-0.384,0.658,-13.055,29.592,14.56
49219060,-0.575,-0.367,0.631,-11.147,34.055,16.782
49219070,-0.646,-0.349,0.635,-11.55,36.522,19.617
49219080,-0.678,-0.359,0.61,-12.215,35.7,19.775
49219090,-0.649,-0.379,0.638,-9.852,37.835,14.595
49219100,-0.683,-0.407,0.678,-10.202,38.815,13.09
49219110,-0.723,-0.418,0.716,-9.59,35.525,9.257
49219120,-0.7,-0.407,0.752,-9.485,29.522,3.307
49219130,-0.668,-0.4,0.76,-12.722,24.132,0.122
49219140,-0.597,-0.392,0.744,-15.33,22.032,-3.167
49219150,-0.553,-0.347,0.729,-18.147,23.222,-3.202
49219160,-0.514,-0.316,0.729,-24.167,26.407,1.592
49219170,-0.473,-0.294,0.691,-29.487,33.722,5.862
49219170,-0.495,-0.254,0.641,-36.522,42.735,10.605
49219190,-0.616,-0.266,0.606,-50.627,49.822,18.672
49219190,-0.769,-0.472,0.607,-57.96,48.195,21.35
49219210,-0.754,-0.624,0.626,-40.967,42.822,8.505
49219210,-0.787,-0.603,0.659,-25.06,35.735,1.05
49219230,-0.929,-0.551,0.647,-19.25,23.065,-4.655
49219230,-0.897,-0.545,0.611,-20.142,8.435,-15.207
49219250,-0.807,-0.572,0.546,-22.802,-5.162,-22.015
49219250,-0.708,-0.556,0.55,-19.775,-10.675,-25.182
49219260,-0.642,-0.555,0.584,-18.952,-11.06,-24.71
49219270,-0.508,-0.542,0.462,-15.225,7.577,-20.09
49219280,-0.686,-0.474,0.594,-5.67,20.562,-15.592
49219290,-0.783,-0.492,0.534,-14.157,21.07,-8.54
49219300,-0.805,-0.511,0.571,-12.302,16.415,-11.41
49219310,-0.938,-0.51,0.584,-11.27,-2.1,-17.237
49219320,-1.034,-0.474,0.576,-6.807,-36.907,-30.415
49219330,-1.024,-0.544,0.565,1.837,-83.58,-38.465
49219340,-0.82,-0.607,0.498,14.927,-121.432,-44.432
49219350,-0.615,-0.527,0.53,38.255,-138.005,-41.16
49219360,-0.529,-0.415,0.606,40.512,-132.247,-32.042
49219370,-0.641,-0.445,0.674,40.81,-123.935,-15.61
49219380,-0.483,-0.494,0.708,46.83,-115.867,-5.565
49219390,-0.323,-0.432,0.826,58.38,-103.81,0.42
49219400,-0.328,-0.338,0.875,51.135,-90.86,3.377
49219410,-0.352,-0.326,0.903,35.105,-77.857,4.83
49219420,-0.353,-0.362,0.894,17.325,-71.12,7.262
49219430,-0.337,-0.449,0.827,4.602,-65.712,5.145
49219440,-0.294,-0.417,0.782,0.805,-59.237,-0.577
49219450,-0.241,-0.349,0.78,-3.64,-50.522,1.225
49219460,-0.215,-0.306,0.735,-8.47,-39.97,6.387
49219470,-0.183,-0.281,0.712,-17.517,-26.337,9.485
49219480,-0.137,-0.269,0.681,-26.11,-10.08,10.587
49219490,-0.214,-0.335,0.677,-28.665,6.58,12.915
49219500,-0.269,-0.413,0.746,-21.647,24.15,8.137
49219510,-0.308,-0.362,0.817,-10.377,38.885,-0.087
49219510,-0.407,-0.318,0.859,-7.07,46.707,-2.292
49219530,-0.464,-0.28,0.872,-16.1,50.312,-9.432
49219530,-0.562,-0.356,0.803,-32.165,49.577,-12.932
49219550,-0.646,-0.5,0.747,-38.377,44.467,-13.737
49219550,-0.769,-0.523,0.663,-37.975,31.5,-13.177
49219570,-0.771,-0.606,0.654,-32.655,16.87,-16.222
49219570,-0.755,-0.662,0.633,-19.862,6.947,-19.53
49219580,-0.861,-0.613,0.649,-5.127,-7.262,-20.16
49219590,-0.817,-0.517,0.682,-4.76,-24.867,-21.175
49219600,-0.634,-0.49,0.647,-13.667,-36.802,-22.12
49219610,-0.513,-0.503,0.631,-21.052,-37.747,-22.557
49219620,-0.461,-0.471,0.691,-30.415,-33.897,-21.052
49219630,-0.393,-0.472,0.728,-40.81,-28.63,-23.782
49219640,-0.282,-0.483,0.775,-47.355,-22.015,-33.057
49219650,-0.337,-0.567,0.82,-43.12,-18.147,-28.49
49219660,-0.281,-0.493,0.841,-40.81,-15.82,-26.915
49219670,-0.29,-0.526,0.822,-40.075,-11.27,-21.962
49219680,-0.333,-0.557,0.775,-34.947,-5.862,-23.345
49219690,-0.424,-0.5,0.756,-30.87,-4.095,-24.675
49219700,-0.511,-0.482,0.763,-33.215,-6.737,-26.88
49219710,-0.49,-0.504,0.702,-39.112,-10.64,-35.122
49219720,-0.566,-0.55,0.691,-39.445,-13.23,-42.122
49219730,-0.557,-0.556,0.751,-37.065,-20.055,-52.517
49219740,-0.39,-0.419,0.705,-30.94,-15.627,-66.062
49219750,-0.797,-0.446,0.671,-36.925,-20.055,-55.527
49219760,-0.812,-0.631,0.539,-51.327,-38.01,-46.06
49219770,-0.517,-0.723,0.498,-43.96,-52.517,-48.492
49219780,-0.445,-0.603,0.56,-27.597,-63.857,-43.172
49219790,-0.345,-0.416,0.677,-18.76,-60.882,-29.995
49219800,-0.533,-0.512,0.722,-29.855,-57.33,-7
49219810,-0.529,-0.712,0.636,-41.825,-57.907,-6.632
49219820,-0.448,-0.72,0.647,-41.597,-65.222,-10.5
49219830,-0.356,-0.657,0.67,-41.737,-72.485,-6.037
49219840,-0.341,-0.689,0.671,-39.007,-78.277,-0.332
49219850,-0.14,-0.612,0.721,-37.905,-79.66,-3.202
49219860,0.015,-0.662,0.746,-43.312,-68.582,-1.61
49219870,0.01,-0.683,0.765,-40.67,-53.165,0.332
49219880,0.071,-0.619,0.821,-37.957,-37.38,-0.997
49219890,0.057,-0.656,0.766,-39.865,-22.54,3.797
49219900,-0.003,-0.631,0.711,-34.667,-10.57,7.052
49219910,-0.024,-0.502,0.69,-34.387,-0.227,6.195
49219920,-0.072,-0.489,0.604,-44.765,9.17,3.57
49219920,-0.281,-0.746,0.574,-36.487,14.84,18.69
49219940,-0.3,-0.738,0.567,-29.627,17.202,21.577
49219940,-0.434,-0.751,0.607,-20.107,15.645,13.807
49219960,-0.476,-0.753,0.627,-19.547,10.08,12.127
49219960,-0.427,-0.742,0.629,-22.137,4.112,11.48
49219980,-0.407,-0.721,0.592,-23.73,0.017,9.8
49219980,-0.411,-0.712,0.594,-24.15,-2.695,9.415
49219990,-0.375,-0.718,0.577,-23.415,-4.76,11.357
49220000,-0.351,-0.769,0.535,-19.687,-5.565,13.212
49220010,-0.333,-0.798,0.564,-12.075,-4.235,14.28
49220020,-0.341,-0.803,0.556,-7.035,-4.655,16.432
49220030,-0.306,-0.786,0.545,-1.907,-4.777,15.925
49220040,-0.269,-0.742,0.576,3.797,-3.447,18.515
49220050,-0.243,-0.725,0.592,7.665,-1.61,23.135
49220060,-0.255,-0.739,0.601,12.565,1.645,25.742
49220070,-0.262,-0.714,0.623,17.43,3.15,29.732
49220080,-0.297,-0.707,0.619,20.142,4.637,33.775
49220090,-0.354,-0.712,0.622,21.805,4.392,36.137
49220100,-0.296,-0.658,0.606,23.765,4.9,35.647
49220110,-0.311,-0.624,0.704,24.132,8.627,35.035
49220120,-0.473,-0.652,0.721,20.545,8.225,37.082
49220130,-0.505,-0.662,0.729,15.907,4.707,35.437
49220140,-0.46,-0.621,0.737,13.965,0.752,26.582
49220150,-0.422,-0.61,0.725,9.73,-1.155,22.662
49220160,-0.406,-0.628,0.696,5.915,-1.557,20.125
49220170,-0.37,-0.632,0.655,4.777,-1.12,16.205
49220180,-0.34,-0.634,0.633,5.757,-1.102,11.217
49220190,-0.261,-0.579,0.634,1.977,0.35,6.51
49220200,-0.123,-0.5,0.614,-7.525,6.86,-4.077
49220210,-0.219,-0.579,0.613,-10.22,20.265,0.7
49220220,-0.471,-0.711,0.642,-9.362,22.312,21.962
49220230,-0.446,-0.778,0.629,-0.35,15.715,29.662
49220240,-0.471,-0.766,0.591,10.535,10.692,36.61
49220250,-0.56,-0.711,0.556,13.562,7.245,41.597
49220260,-0.538,-0.683,0.602,13.685,5.11,38.535
49220260,-0.513,-0.7,0.584,11.725,2.87,33.18
49220280,-0.501,-0.733,0.584,14.227,0.192,32.97
49220280,-0.441,-0.658,0.619,21.612,-0.962,36.47
49220300,-0.383,-0.606,0.617,24.972,-0.472,37.187
49220300,-0.391,-0.546,0.639,27.23,5.162,39.742
49220320,-0.481,-0.534,0.68,24.045,9.887,40.897
49220320,-0.631,-0.608,0.705,17.535,10.552,35.63
49220330,-0.669,-0.639,0.732,13.702,4.97,22.732
49220340,-0.65,-0.596,0.741,6.632,-0.63,5.582
49220350,-0.662,-0.615,0.705,-1.977,-6.755,-11.497
49220360,-0.446,-0.553,0.581,-5.337,-10.115,-23.415
49220370,0.028,-0.419,0.54,-1.085,-0.787,-19.39
49220380,-0.191,-0.604,0.707,6.912,14.682,-5.197
49220390,-0.657,-0.707,0.734,7.35,11.69,14.472
49220400,-0.431,-0.653,0.655,8.837,1.102,12.495
49220410,-0.475,-0.485,0.747,17.832,-0.717,7.49
49220420,-0.559,-0.583,0.741,3.482,-3.815,10.587
49220430,-0.524,-0.628,0.733,4.357,-7.91,2.782
49220440,-0.531,-0.583,0.713,9.135,-12.022,-2.817
49220450,-0.474,-0.52,0.743,14.752,-14.927,-3.307
49220460,-0.411,-0.51,0.755,13.265,-12.897,-0.402
49220470,-0.418,-0.538,0.748,11.147,-6.527,0.105
49220480,-0.421,-0.506,0.74,10.325,-3.307,-0.91
49220490,-0.395,-0.493,0.732,7.472,-2.24,0.682
49220500,-0.431,-0.543,0.716,5.197,0.297,0.647
49220510,-0.485,-0.577,0.73,4.55,2.362,-1.82
49220520,-0.515,-0.593,0.717,3.185,1.82,-5.145
49220530,-0.518,-0.613,0.686,2.415,0.472,-9.467
49220540,-0.489,-0.628,0.662,3.622,-0.91,-13.527
49220550,-0.475,-0.628,0.664,5.285,-2.87,-14.297
49220560,-0.462,-0.621,0.671,6.912,-5.862,-13.265
49220570,-0.448,-0.629,0.686,7.892,-8.767,-11.812
49220580,-0.425,-0.652,0.696,8.417,-12.845,-9.152
49220590,-0.387,-0.68,0.735,11.532,-16.957,-7.21
49220600,-0.379,-0.703,0.772,16.957,-22.487,-7.192
49220610,-0.366,-0.705,0.762,22.19,-29.837,-8.575
49220620,-0.338,-0.673,0.705,27.195,-37.485,-7.122
49220630,-0.283,-0.627,0.626,37.222,-36.12,-1.347
49220640,-0.366,-0.626,0.673,58.537,-31.342,13.842
49220650,-0.478,-0.604,0.719,71.75,-24.342,26.057
49220660,-0.526,-0.536,0.714,71.75,-21.525,25.672
49220670,-0.498,-0.525,0.744,63.175,-16.152,15.872
49220670,-0.507,-0.472,0.747,49.262,-9.765,6.492
49220680,-0.479,-0.449,0.701,34.842,-5.81,4.532
49220690,-0.537,-0.485,0.732,32.41,-7.962,12.092
49220700,-0.457,-0.519,0.674,27.072,-21.227,15.575
49220710,-0.32,-0.539,0.624,30.38,-19.67,22.505
49220720,-0.315,-0.544,0.675,39.707,-13.352,27.912
49220730,-0.337,-0.52,0.707,47.6,-5.477,28.175
49220740,-0.3,-0.47,0.753,53.077,3.377,26.862
49220750,-0.26,-0.453,0.782,54.425,12.18,24.937
49220760,-0.223,-0.436,0.802,57.207,26.232,22.89
49220770,-0.208,-0.397,0.798,61.092,44.642,21.42
49220780,-0.25,-0.324,0.826,60.585,61.372,20.422
49220790,-0.306,-0.245,0.839,51.345,70.315,22.697
49220800,-0.338,-0.249,0.851,34.86,75.722,29.085
49220810,-0.398,-0.266,0.832,19.46,82.337,29.47
49220820,-0.585,-0.253,0.833,8.225,77.875,21.175
49220830,-0.735,-0.271,0.792,-5.687,57.645,9.747
49220840,-0.774,-0.295,0.726,-25.182,28.14,1.942
49220850,-0.805,-0.292,0.694,-45.675,-1.557,-5.355
49220860,-0.762,-0.303,0.677,-55.107,-27.247,-15.82
49220870,-0.599,-0.33,0.647,-53.042,-44.485,-22.505
49220880,-0.528,-0.464,0.639,-31.762,-48.142,-13.09
49220890,-0.331,-0.422,0.79,-16.135,-34.16,-6.737
49220900,-0.364,-0.399,0.974,-8.68,-2.677,-5.302
49220910,-0.683,-0.427,1.095,-12.162,14.962,-10.342
49220920,-0.87,-0.46,1.109,-31.255,3.902,-19.67
49220930,-0.784,-0.493,1.051,-48.422,-24.972,-31.202
49220940,-0.618,-0.494,0.944,-52.762,-48.422,-26.005
49220950,-0.645,-0.558,0.811,-46.392,-64.68,-14.07
49220960,-0.634,-0.472,0.757,-37.782,-74.55,-19.442
49220970,-0.663,-0.443,0.681,-37.012,-82.145,-24.937
49220980,-0.613,-0.496,0.615,-33.32,-88.532,-34.79
49220990,-0.552,-0.526,0.607,-25.147,-93.257,-33.46
49221000,-0.544,-0.535,0.608,-18.515,-98.647,-20.51
49221010,-0.494,-0.551,0.645,-11.06,-101.797,-12.215
49221010,-0.407,-0.553,0.66,-6.965,-102.235,-1.872
49221030,-0.289,-0.454,0.568,-5.67,-94.412,3.972
49221030,-0.454,-0.304,0.652,-15.102,-86.205,13.51
49221050,-0.438,-0.608,0.707,-40.512,-106.295,22.172
49221050,0.219,-0.709,0.701,-15.715,-86.082,-9.695
49221070,0.149,-0.661,0.908,3.5,-75.792,-21.07
49221070,0.035,-0.615,0.865,-2.642,-63.49,-11.322
49221080,0.121,-0.592,0.791,3.482,-53.812,-15.085
49221090,0.117,-0.572,0.731,7.262,-44.835,-6.772
49221100,0.155,-0.548,0.649,9.222,-32.322,-0.752
49221110,0.25,-0.473,0.662,15.33,-11.305,-2.31
49221120,0.158,-0.497,0.662,12.145,12.442,5.722
49221130,0.139,-0.593,0.709,11.06,35.927,6.457
49221140,0.083,-0.638,0.656,14.997,56.857,7.297
49221150,-0.016,-0.623,0.686,28.087,71.89,4.357
49221160,-0.08,-0.554,0.743,35.122,83.965,2.695
49221170,-0.14,-0.513,0.769,30.327,89.757,5.215
49221180,-0.209,-0.534,0.794,22.295,94.552,7.385
49221190,-0.25,-0.518,0.836,13.982,102.795,4.602
49221200,-0.332,-0.521,0.905,2.817,109.585,1.645
49221210,-0.433,-0.598,0.92,-6.422,117.18,-1.925
49221220,-0.56,-0.632,0.896,-5.285,121.415,-14.385
49221230,-0.747,-0.719,0.97,4.375,113.802,-17.465
49221240,-0.827,-0.681,0.874,9.73,94.22,-32.392
49221250,-0.856,-0.627,0.818,10.465,62.09,-55.772
49221260,-0.808,-0.516,0.754,10.115,25.357,-68.635
49221270,-0.721,-0.395,0.687,7.997,-6.212,-71.977
49221280,-0.666,-0.418,0.647,5.792,-27.842,-66.132
49221290,-0.555,-0.424,0.615,8.085,-40.74,-58.817
49221300,-0.381,-0.335,0.606,10.657,-41.212,-50.312
49221310,-0.255,-0.275,0.597,9.905,-27.212,-34.527
49221320,-0.287,-0.295,0.602,4.235,-5.127,-14.735
49221330,-0.403,-0.358,0.613,-2.205,14.91,3.01
49221340,-0.529,-0.424,0.627,-2.432,26.25,18.532
49221350,-0.597,-0.513,0.639,9.642,33.197,31.797
49221350,-0.638,-0.527,0.67,28.262,33.897,39.742
49221370,-0.623,-0.463,0.722,41.79,28.91,39.585
49221370,-0.529,-0.355,0.752,43.627,26.18,33.862
49221390,-0.457,-0.268,0.75,29.995,27.895,28.07
49221390,-0.59,-0.309,0.79,5.425,21.017,29.942
49221410,-0.612,-0.488,0.795,-14.192,-3.447,25.882
49221410,-0.378,-0.599,0.82,-11.217,-29.417,8.785
49221420,-0.028,-0.592,0.879,5.827,-35.7,-2.642
49221430,0.084,-0.547,0.932,10.395,-11.725,-2.485
49221440,-0.18,-0.59,0.881,10.57,12.985,6.842
49221450,-0.366,-0.582,0.795,19.372,18.445,7.49
49221460,-0.311,-0.483,0.773,27.317,15.557,0.735
49221470,-0.287,-0.401,0.767,19.04,15.697,-2.52
49221480,-0.363,-0.406,0.76,2.94,20.632,-2.397
49221490,-0.422,-0.44,0.753,-10.745,25.025,-3.255
49221500,-0.497,-0.471,0.816,-17.937,24.99,-2.257
49221510,-0.551,-0.482,0.823,-25.97,18.62,2.94
49221520,-0.59,-0.541,0.767,-30.625,8.977,5.022
49221530,-0.669,-0.611,0.724,-25.007,-4.637,10.045
49221540,-0.681,-0.64,0.693,-9.257,-21.875,13.405
49221550,-0.61,-0.578,0.68,10.587,-38.57,17.482
49221560,-0.559,-0.501,0.701,25.27,-48.527,20.545
49221570,-0.499,-0.444,0.765,33.145,-53.007,20.737
49221580,-0.415,-0.4,0.836,33.075,-53.042,20.037
49221590,-0.36,-0.405,0.823,24.377,-49.542,14.367
49221600,-0.314,-0.433,0.767,18.427,-43.505,7.42
49221610,-0.322,-0.407,0.736,20.492,-36.89,7.77
49221620,-0.337,-0.3,0.729,21.245,-31.237,10.972
49221630,-0.38,-0.312,0.9,12.845,-28.77,15.855
49221640,-0.25,-0.503,0.826,2.31,-25.567,13.737
49221650,-0.378,-0.564,0.801,4.83,-20.842,15.435
49221660,-0.498,-0.513,0.84,13.072,-24.167,19.232
49221670,-0.441,-0.468,0.856,17.64,-29.4,17.465
49221680,-0.398,-0.489,0.842,18.672,-31.937,16.1
49221690,-0.365,-0.459,0.834,19.25,-30.45,9.992
49221700,-0.35,-0.44,0.819,18.655,-28.42,2.992
49221710,-0.313,-0.428,0.806,18.217,-24.745,-2.94
49221720,-0.303,-0.416,0.82,16.975,-20.212,-5.757
49221730,-0.317,-0.422,0.843,13.195,-15.68,-8.785
49221740,-0.316,-0.444,0.835,9.415,-13.772,-12.53
49221750,-0.339,-0.467,0.815,9.345,-13.825,-13.772
49221760,-0.367,-0.46,0.83,12.197,-15.89,-16.17
49221760,-0.355,-0.451,0.839,13.685,-17.185,-20.58
49221780,-0.325,-0.465,0.846,13.527,-17.465,-24.745
49221780,-0.312,-0.5,0.848,14.28,-16.817,-26.845
49221800,-0.32,-0.55,0.839,18.305,-17.08,-26.565
49221800,-0.341,-0.594,0.861,24.85,-17.832,-26.302
49221820,-0.391,-0.631,0.901,31.937,-24.08,-25.585
49221820,-0.502,-0.611,0.9,35.035,-43.032,-26.617
49221830,-0.292,-0.642,0.825,32.777,-63.787,-32.882
49221840,-0.212,-0.691,0.951,35,-63.98,-36.645
49221850,-0.297,-0.689,0.931,43.767,-57.505,-37.31
49221860,-0.184,-0.702,0.916,64.785,-50.05,-37.345
49221870,-0.165,-0.682,0.924,83.055,-40.11,-29.487
49221880,-0.318,-0.603,0.951,93.012,-34.842,-21.07
49221890,-0.356,-0.546,0.921,93.765,-37.117,-23.152
49221900,-0.314,-0.555,0.872,95.322,-41.265,-29.715
49221910,-0.31,-0.557,0.848,99.785,-45.745,-29.785
49221920,-0.276,-0.468,0.853,102.042,-46.952,-33.687
49221930,-0.341,-0.353,0.867,95.725,-51.467,-36.242
49221940,-0.406,-0.292,0.844,77.63,-63.997,-35.332
49221950,-0.351,-0.257,0.816,61.88,-76.51,-36.26
49221960,-0.236,-0.169,0.777,45.202,-82.687,-39.235
49221970,-0.212,-0.113,0.774,27.387,-82.302,-40.075
49221980,-0.2,-0.083,0.756,3.377,-79.8,-42.56
49221990,-0.177,-0.069,0.732,-22.12,-75.565,-44.555
49222000,-0.171,-0.093,0.718,-45.29,-69.895,-48.93
49222010,-0.165,-0.109,0.704,-67.707,-63.997,-58.66
49222020,-0.166,-0.129,0.698,-85.61,-59.867,-67.602
49222030,-0.169,-0.165,0.678,-98.437,-56.472,-74.567
49222040,-0.183,-0.209,0.676,-101.867,-57.242,-76.737
49222050,-0.173,-0.215,0.701,-96.197,-57.487,-76.475
49222060,-0.111,-0.18,0.739,-87.99,-56.542,-79.782
49222070,-0.101,-0.18,0.771,-83.23,-54.285,-82.705
49222080,-0.082,-0.206,0.808,-79.082,-55.037,-83.737
49222080,-0.028,-0.231,0.82,-70.84,-56.07,-79.222
49222100,-0.007,-0.246,0.87,-57.767,-56.367,-69.982
49222100,0.019,-0.25,0.908,-49.035,-53.217,-59.902
49222120,0.056,-0.252,0.921,-40.477,-47.04,-49.035
49222120,0.086,-0.274,0.935,-33.425,-37.52,-39.637
49222140,0.06,-0.299,0.972,-22.207,-26.022,-29.12
49222140,0.047,-0.258,1.007,-12.25,-17.045,-22.767
49222160,0.001,-0.197,1.018,-10.272,-17.885,-14.332
49222160,-0.068,-0.269,0.976,-5.285,-28.805,-1.89
49222170,-0.006,-0.336,0.997,9.31,-44.975,3.622
49222180,0.154,-0.369,0.989,24.15,-53.34,11.375
49222190,0.322,-0.367,1.02,42.122,-48.825,25.935
49222200,0.56,-0.363,1.271,50.662,-21.507,47.162
49222210,0.595,-0.424,1.406,38.64,28.717,61.687
49222220,0.178,-0.448,1.337,20.16,59.675,56.122
49222230,-0.14,-0.406,1.227,16.082,56.7,45.64
49222240,-0.157,-0.388,1.159,20.055,31.937,33.722
49222250,0.008,-0.342,1.102,16.415,6.545,14.28
49222260,0.112,-0.377,1.028,10.867,-4.287,3.307
49222270,0.111,-0.474,1.012,15.347,-5.74,2.502
49222280,0.272,-0.512,0.999,30.03,5.372,6.195
49222290,0.349,-0.449,1.04,51.432,27.667,16.117
49222300,0.306,-0.351,1.091,66.167,55.405,25.987
49222310,0.195,-0.286,1.146,71.662,81.76,32.76
49222320,0.088,-0.248,1.159,69.51,100.327,34.475
49222330,-0.01,-0.22,1.15,63.28,110.232,33.075
49222340,-0.115,-0.221,1.1,54.932,110.232,29.487
49222350,-0.198,-0.241,1.021,51.537,101.447,22.452
49222360,-0.237,-0.237,0.95,54.6,86.012,17.43
49222370,-0.261,-0.18,0.913,61.932,67.06,13.947
49222380,-0.24,-0.074,0.879,65.992,47.74,12.67
49222390,-0.194,0,0.888,59.99,33.355,16.397
49222400,-0.213,0.052,0.885,50.05,20.965,17.552
49222410,-0.195,0.039,0.848,41.335,10.342,17.535
49222420,-0.14,-0.022,0.798,39.305,6.317,18.725
49222430,-0.142,-0.044,0.758,41.037,7.367,22.435
49222440,-0.076,-0.027,0.743,45.027,15.312,24.657
49222450,-0.013,0,0.746,46.935,33.005,32.742
49222460,-0.036,0.008,0.764,43.505,56.455,42.28
49222470,-0.113,0.01,0.781,35.297,78.347,55.387
49222480,-0.181,0.023,0.786,22.137,95.427,68.04
49222490,-0.232,0.016,0.795,4.847,108.01,77.21
49222500,-0.317,-0.019,0.755,-17.447,114.59,87.692
49222510,-0.445,-0.117,0.735,-35.315,110.11,93.205
49222510,-0.521,-0.195,0.716,-45.955,95.532,93.537
49222530,-0.586,-0.283,0.682,-46.637,73.605,93.38
49222530,-0.6,-0.316,0.707,-39.147,48.352,87.57
49222550,-0.599,-0.329,0.77,-31.342,22.487,76.09
49222550,-0.564,-0.356,0.811,-24.097,-2.38,58.555
49222570,-0.485,-0.371,0.85,-20.527,-23.03,36.785
49222570,-0.395,-0.353,0.867,-21.49,-38.99,19.46
49222580,-0.287,-0.309,0.901,-23.047,-47.267,4.672
49222590,-0.236,-0.301,0.92,-28.682,-52.167,-0.56
49222600,-0.228,-0.34,0.891,-33.127,-56.77,0.752
49222610,-0.162,-0.388,0.88,-30.992,-55.107,8.417
49222620,-0.117,-0.417,0.877,-25.13,-48.895,18.935
49222630,-0.163,-0.43,0.914,-17.692,-39.62,28.647
49222640,-0.224,-0.441,0.934,-9.992,-31.377,36.662
49222650,-0.267,-0.419,0.971,0.84,-27.632,39.935
49222660,-0.302,-0.361,1.021,7.367,-29.225,40.127
49222670,-0.282,-0.318,1.03,4.287,-34.02,40.337
49222680,-0.274,-0.332,0.985,-1.54,-39.777,39.042
49222690,-0.256,-0.351,1.02,0.455,-45.465,38.237
49222700,-0.308,-0.449,0.993,5.53,-54.687,46.445
49222710,-0.238,-0.518,1.054,21.962,-63.385,47.022
49222720,-0.167,-0.458,1.06,41.37,-59.062,51.205
49222730,-0.26,-0.262,1.09,58.415,-56.21,52.447
49222740,-0.289,-0.183,1.076,52.622,-59.395,52.78
49222750,-0.241,-0.206,1.005,36.4,-60.9,49.84
49222760,-0.301,-0.233,0.946,28.875,-64.75,46.462
49222770,-0.403,-0.199,0.848,25.865,-72.957,47.337
49222780,-0.386,-0.121,0.945,21.875,-93.117,46.672
49222790,-0.091,-0.173,0.909,12.092,-96.757,46.567
49222800,-0.042,-0.181,0.922,11.217,-84.647,44.187
49222810,-0.172,-0.199,0.951,11.585,-74.445,45.115
49222820,-0.218,-0.208,1,16.45,-76.335,43.925
49222830,-0.075,-0.22,0.994,25.707,-80.535,33.04
49222830,0.041,-0.107,1.049,39.445,-76.475,13.965
49222850,0.062,-0.024,1.064,37.31,-68.74,-0.28
49222850,0.152,0.017,1.064,29.452,-56.717,-14.542
49222870,0.167,0.025,1.073,14.7,-42.21,-17.517
49222870,0.134,-0.035,1.032,-3.097,-26.145,-17.815
49222890,0.105,-0.112,0.996,-11.357,-10.202,-20.055
49222890,0.016,-0.201,0.934,-13.667,-2.747,-13.772
49222910,-0.024,-0.164,0.97,-4.637,-1.907,-8.417
49222910,-0.035,-0.154,0.951,-8.137,-4.287,1.977
49222920,-0.001,-0.178,0.924,-7.875,-2.327,-5.32
49222930,0.066,-0.16,0.925,-6.055,5.477,-11.34
49222940,-0.005,-0.167,0.925,-9.065,12.512,-11.235
49222950,-0.028,-0.181,0.924,-8.662,15.207,-13.702
49222960,-0.021,-0.191,0.924,-6.842,14.455,-9.922
49222970,0.014,-0.119,1.03,-2.362,16.765,-7.77
49222980,0.03,-0.147,1.042,-7.735,24.447,-5.477
49222990,0.131,-0.109,1.012,-15.207,35.07,-10.15
49223000,0.341,-0.041,0.96,-19.495,61.022,-8.855
49223010,0.261,0.034,0.986,-23.677,89.46,-10.727
49223020,0.332,-0.01,0.886,-36.872,115.517,-12.25
49223030,0.271,-0.059,0.871,-41.772,138.635,-9.17
49223040,0.168,-0.102,0.866,-44.31,152.162,-6.562
49223050,0.139,-0.121,0.812,-44.467,165.532,-7.595
49223060,-0.042,-0.133,0.816,-47.232,181.072,-9.047
49223070,-0.329,-0.198,0.797,-54.95,188.737,-14.595
49223080,-0.485,-0.306,0.81,-57.417,183.102,-24.027
49223090,-0.432,-0.295,0.8,-48.632,176.365,-30.415
49223100,-0.732,-0.432,0.872,-25.935,164.622,-19.04
49223110,-0.805,-0.325,0.925,-21.84,142.765,-25.55
49223120,-0.896,-0.346,0.919,-22.785,111.685,-24.08
49223130,-0.643,-0.26,0.894,-27.632,81.952,-28.612
49223140,-0.62,-0.365,0.883,-14.875,69.545,-21.42
49223150,-0.607,-0.255,0.903,-14.297,56.63,-8.68
49223160,-0.544,-0.27,0.861,-21.542,45.797,-6.842
49223170,-0.48,-0.316,0.862,-22.645,42.717,-6.125
49223180,-0.412,-0.267,0.893,-26.355,42.21,-9.59
49223190,-0.312,-0.272,0.885,-31.64,45.727,-12.075
49223200,-0.317,-0.34,0.811,-31.622,52.43,-15.592
49223210,-0.391,-0.405,0.798,-22.12,54.495,-16.257
49223220,-0.509,-0.376,0.861,-1.032,47.967,-19.512
49223230,-0.522,-0.088,0.986,11.025,23.257,-26.845
49223240,-0.096,-0.011,0.966,-3.692,17.902,-26.582
49223250,-0.399,-0.255,0.801,-34.597,40.057,-19.495
49223260,-0.582,-0.355,0.706,-54.582,44.502,-13.37
49223260,-0.55,-0.19,0.748,-51.782,43.277,-8.155
49223280,-0.624,-0.174,0.725,-72.17,41.44,-0.84
49223280,-0.704,-0.382,0.684,-87.815,45.01,-0.892
49223300,-0.951,-0.725,0.742,-62.212,32.707,9.975
49223300,-0.894,-0.561,0.804,-35.875,2.975,10.815
49223320,-0.752,-0.413,0.792,-28.805,-24.815,8.54
49223320,-0.515,-0.381,0.739,-30.817,-35.927,6.527
49223330,-0.333,-0.392,0.731,-26.18,-33.39,12.915
49223340,-0.387,-0.349,0.758,-20.002,-27.492,40.04
49223350,-0.431,-0.345,0.784,-8.032,-24.745,55.912
49223360,-0.268,-0.29,0.841,-1.277,-23.31,51.065
49223370,-0.179,-0.324,0.867,-2.082,-11.252,50.662
49223380,-0.355,-0.406,0.806,-9.712,1.312,45.272
49223390,-0.425,-0.399,0.782,-5.547,5.617,24.85
49223400,-0.414,-0.324,0.777,5.617,1.417,13.58
49223410,-0.4,-0.262,0.774,6.912,-4.095,12.337
49223420,-0.485,-0.338,0.754,9.835,-5.092,14.122
49223430,-0.526,-0.337,0.804,13.457,-7.595,15.557
49223440,-0.581,-0.34,0.851,13.265,-12.687,16.205
49223450,-0.578,-0.337,0.877,11.2,-16.432,15.592
49223460,-0.559,-0.336,0.847,6.125,-11.707,16.275
49223470,-0.655,-0.343,0.813,0.087,-13.615,17.71
49223480,-0.389,-0.265,0.792,-1.557,-10.605,16.047
49223490,-0.453,-0.227,0.839,-3.43,-2.992,19.495
49223500,-0.459,-0.279,0.837,-9.205,2.502,23.607
49223510,-0.443,-0.331,0.829,-9.152,5.162,22.82
49223520,-0.466,-0.347,0.83,-5.337,6.125,21.927
49223530,-0.492,-0.307,0.828,0.35,5.617,18.672
49223540,-0.495,-0.238,0.822,2.572,1.907,13.352
49223550,-0.478,-0.216,0.804,-1.102,-0.857,11.095
49223560,-0.477,-0.239,0.814,-8.697,-0.192,12.215
49223570,-0.538,-0.276,0.888,-17.36,2.537,12.617
49223580,-0.626,-0.295,0.899,-22.732,-0.752,10.622
49223580,-0.58,-0.262,0.882,-28.77,-4.672,12.197
49223600,-0.573,-0.254,0.849,-36.505,-5.6,14.332
49223600,-0.691,-0.178,0.698,-46.165,-3.815,13.667
49223620,-0.797,-0.49,0.86,-63.612,-23.012,15.96
49223620,-0.318,-0.559,0.746,-42.315,-23.292,-2.327
49223640,-0.351,-0.142,0.961,-18.777,-23.222,-17.272
49223640,-0.533,-0.29,0.909,-36.68,-17.727,-0.665
49223660,-0.489,-0.438,0.853,-31.85,-22.172,-14.857
49223660,-0.344,-0.342,0.838,-18.707,-23.257,-22.942
49223670,-0.366,-0.256,0.809,-14.49,-18.76,-19.985
49223680,-0.372,-0.252,0.766,-14.14,-9.537,-19.775
49223690,-0.433,-0.318,0.739,-13.86,-2.975,-17.622
49223700,-0.51,-0.372,0.786,-13.352,-0.717,-16.065
49223710,-0.556,-0.402,0.815,-11.62,-2.257,-20.282
49223720,-0.61,-0.416,0.83,-11.83,-5.81,-24.797
49223730,-0.662,-0.438,0.795,-13.615,-11.462,-26.6
49223740,-0.646,-0.404,0.76,-11.882,-20.09,-32.9
49223750,-0.574,-0.384,0.743,-11.48,-28.105,-35.612
49223760,-0.512,-0.386,0.737,-12.372,-34.457,-35.42
49223770,-0.477,-0.409,0.789,-5.95,-38.36,-28.735
49223780,-0.396,-0.396,0.81,-4.235,-41.475,-16.432
49223790,-0.342,-0.369,0.835,-0.42,-40.267,-14.577
49223800,-0.284,-0.303,0.86,-1.837,-33.39,-21.997
49223810,-0.274,-0.305,0.88,-9.31,-23.345,-27.562
49223820,-0.357,-0.307,0.674,-12.267,-13.86,-34.51
49223830,-0.258,-0.141,1.003,-9.625,-3.08,-37.502
49223840,-0.363,-0.321,0.979,-25.672,13.527,-32.445
49223850,-0.431,-0.482,0.856,-34.65,16.415,-32.025
49223860,-0.339,-0.403,0.805,-23.555,11.707,-33.197
49223870,-0.292,-0.346,0.817,-21.21,12.582,-31.972
49223880,-0.418,-0.419,0.801,-27.51,17.605,-33.495
49223890,-0.553,-0.571,0.76,-28.595,16.467,-34.825
49223900,-0.564,-0.578,0.695,-20.125,6.352,-35.542
49223910,-0.48,-0.533,0.649,-13.44,-1.33,-35.122
49223920,-0.442,-0.515,0.665,-6.282,1.242,-33.862
49223930,-0.568,-0.532,0.752,-7.122,-7.332,-33.582
49223940,-0.499,-0.597,0.738,-4.112,-20.142,-26.88
49223950,-0.39,-0.599,0.754,3.342,-28.962,-23.047
49223960,-0.374,-0.508,0.764,9.065,-33.985,-22.662
49223970,-0.403,-0.494,0.767,12.775,-36.75,-19.915
49223980,-0.421,-0.498,0.749,16.555,-41.475,-17.342
49223990,-0.313,-0.478,0.76,19.67,-42.245,-15.662
49224000,-0.402,-0.475,0.829,23.222,-39.865,-13.58
49224010,-0.426,-0.5,0.807,25.13,-44.765,-11.672
49224010,-0.351,-0.454,0.811,29.592,-50.067,-10.605
49224030,-0.362,-0.432,0.854,31.797,-51.852,-9.87
49224030,-0.349,-0.451,0.867,31.92,-54.967,-11.952
49224050,-0.303,-0.417,0.865,33.127,-57.032,-15.96
49224050,-0.299,-0.377,0.914,31.797,-56.052,-17.5
49224060,-0.346,-0.363,0.921,26.425,-54.845,-20.93
49224070,-0.337,-0.342,0.937,20.457,-56.07,-26.092
49224080,-0.332,-0.338,0.919,13.912,-55.947,-29.155
49224090,-0.377,-0.371,0.875,11.515,-57.592,-31.185
49224100,-0.387,-0.412,0.842,15.26,-64.417,-28.42
49224110,-0.33,-0.382,0.845,21.017,-71.225,-24.342
49224120,-0.208,-0.317,0.829,23.922,-73.552,-25.007
49224130,-0.027,-0.293,0.795,22.575,-66.762,-22.487
49224140,0.187,-0.191,0.823,19.53,-48.825,-15.995
49224150,0.347,-0.118,0.917,12.39,-22.61,-12.285
49224160,0.404,-0.119,0.897,-6.72,9.24,-16.03
49224170,0.159,-0.287,0.908,-27.965,37.765,-22.61
49224180,-0.144,-0.576,0.831,-35.822,49.087,-28.472
49224190,-0.47,-0.768,0.686,-24.78,39.34,-27.422
49224200,-0.6,-0.617,0.767,1.96,16.8,-31.01
49224210,-0.516,-0.502,0.953,14.945,-3.325,-35.385
49224220,-0.478,-0.63,0.927,12.425,-11.725,-34.212
49224230,-0.475,-0.535,0.924,16.905,-24.062,-30.59
49224240,-0.292,-0.45,0.899,23.45,-34.422,-23.152
49224250,-0.129,-0.409,0.939,24.71,-35.7,-21.052
49224260,-0.022,-0.412,0.924,20.387,-31.622,-18.287
49224270,0.08,-0.401,0.911,17.762,-23.152,-16.222
49224280,0.166,-0.381,0.941,16.905,-10.325,-13.982
49224290,0.2,-0.403,0.955,14.997,7.105,-12.11
49224300,0.227,-0.447,0.898,14.245,25.042,-12.267
49224310,0.248,-0.501,0.808,19.425,43.242,-7.717
49224320,0.208,-0.537,0.652,30.117,58.852,3.255
49224330,0.033,-0.569,0.626,44.765,68.635,12.302
49224330,-0.131,-0.582,0.649,59.132,62.09,11.06
49224350,-0.136,-0.622,0.688,75.53,53.41,7.455
49224350,-0.194,-0.607,0.822,94.01,46.252,1.75
49224370,-0.381,-0.471,0.976,99.82,31.132,-5.092
49224370,-0.538,-0.257,1.141,83.667,6.737,-23.66
49224390,-0.284,-0.301,0.994,46.567,-18.83,-50.382
49224390,0.007,-0.517,1.14,0.63,-17.675,-64.995
49224410,-0.137,-0.617,0.994,-29.645,22.47,-48.597
49224410,-0.357,-0.692,1.039,-17.675,56.35,-39.865
49224420,-0.831,-0.801,1.126,0.84,42.665,-31.062
49224430,-0.873,-0.756,1.024,23.922,-10.5,-31.64
49224440,-0.378,-0.555,0.983,50.365,-58.537,-38.08
49224450,-0.217,-0.43,0.983,55.667,-85.75,-17.92
49224460,-0.244,-0.283,0.987,50.067,-87.307,-6.16
49224470,-0.237,-0.145,1.005,33.827,-79.31,-15.347
49224480,-0.18,-0.112,0.969,7.752,-73.272,-18.952
49224490,-0.1,-0.117,0.921,-19.355,-67.777,-18.69
49224500,0.003,-0.065,0.894,-47.04,-57.155,-17.885
49224510,-0.025,-0.086,0.855,-75.162,-42.175,-18.375
49224520,-0.045,-0.12,0.813,-96.11,-29.277,-23.957
49224530,-0.039,-0.116,0.81,-111.3,-20.055,-30.397
49224540,-0.133,-0.122,0.808,-118.755,-19.425,-31.132
49224550,-0.165,-0.134,0.798,-123.707,-24.097,-35.035
49224560,-0.183,-0.195,0.758,-121.852,-31.587,-38.027
49224570,-0.198,-0.277,0.726,-114.415,-40.25,-43.557
49224580,-0.234,-0.316,0.702,-96.827,-51.642,-47.582
49224590,-0.227,-0.308,0.693,-71.365,-64.155,-47.652
49224600,-0.163,-0.368,0.664,-36.907,-73.167,-45.482
49224610,-0.048,-0.187,0.765,-8.855,-71.365,-35.63
49224620,-0.078,-0.163,0.805,-6.737,-64.96,-11.235
49224630,-0.021,-0.148,0.799,-14.857,-48.947,-1.732
49224640,-0.061,-0.243,0.802,-26.652,-30.397,6.107
49224650,-0.131,-0.271,0.823,-34.037,-15.19,11.375
49224660,-0.161,-0.294,0.833,-39.305,-6.212,14.052
49224670,-0.242,-0.368,0.841,-36.015,-3.85,15.995
49224680,-0.325,-0.443,0.865,-24.377,-11.672,15.47
49224690,-0.265,-0.467,0.872,-5.425,-22.435,17.167
49224700,-0.147,-0.456,0.932,16.38,-29.61,26.022
49224710,0.025,-0.5,1.075,29.417,-25.55,34.195
49224720,0.177,-0.568,1.139,35.175,-5.967,39.48
49224730,0.107,-0.607,1.19,45.027,26.04,45.307
49224730,-0.105,-0.53,1.176,48.93,40.127,47.757
49224750,-0.297,-0.437,1.177,48.037,33.267,50.487
49224750,-0.294,-0.45,1.112,51.38,15.225,50.995
49224760,-0.192,-0.483,0.986,58.712,0.245,52.5
49224770,-0.125,-0.503,0.945,65.625,-4.41,58.467
49224780,-0.056,-0.519,0.93,74.427,6.387,58.222
49224790,-0.029,-0.479,0.945,90.142,31.08,51.432
49224800,-0.106,-0.419,0.974,105.56,55.107,45.237
49224810,-0.134,-0.33,1.008,115.797,70.91,40.81
49224820,-0.187,-0.258,1.002,116.795,78.89,40.267
49224830,-0.259,-0.222,0.991,113.47,82.565,36.207
49224840,-0.303,-0.208,0.948,110.32,81.2,28.332
49224850,-0.352,-0.194,0.917,110.722,73.797,16.747
49224860,-0.387,-0.171,0.873,114.957,56.752,6.772
49224870,-0.383,-0.155,0.809,122.202,34.702,3.22
49224880,-0.336,-0.116,0.796,133.752,14.21,-3.64
49224890,-0.277,-0.027,0.826,136.5,-2.362,-6.86
49224900,-0.146,0.114,0.835,124.635,-12.372,-12.11
49224910,-0.084,0.199,0.893,96.985,-12.04,-8.96
49224920,-0.211,0.122,0.854,55.72,-13.965,-0.297
49224930,-0.217,-0.013,0.785,26.162,-20.457,3.115
49224940,-0.177,-0.134,0.746,12.897,-28.805,11.567
49224950,-0.213,-0.192,0.773,9.992,-37.94,20.807
49224960,-0.222,-0.216,0.811,13.965,-50.522,23.222
49224970,-0.079,-0.216,0.875,24.99,-55.44,18.987
49224980,0.042,-0.188,0.938,32.812,-50.837,19.862
49224990,0.053,-0.113,1.025,35.035,-38.22,21.21
49225000,-0.006,-0.05,1.092,25.427,-25.2,25.305
49225010,-0.11,-0.107,1.078,7.77,-16.012,24.937
49225020,-0.234,-0.208,1.024,-7.367,-17.395,18.742
49225030,-0.181,-0.289,1.053,-10.885,-27.825,11.882
49225040,-0.169,-0.278,0.969,-3.517,-36.82,13.842
49225050,-0.423,-0.17,1.04,2.555,-63.122,13.352
49225060,0.093,-0.435,1.062,-5.11,-77.402,22.837
49225070,0.147,-0.518,1.086,21.752,-55.51,29.382
49225080,-0.016,-0.283,1.226,45.447,-43.68,27.195
49225080,-0.115,-0.099,1.185,34.58,-36.68,35.35
49225100,-0.046,-0.21,1.021,15.435,-38.01,32.427
49225100,0.079,-0.224,0.995,12.232,-29.382,23.047
49225120,-0.15,-0.121,0.987,6.79,-32.655,21.577
49225120,0.003,-0.06,0.997,-7.822,-39.392,11.847
49225140,0.071,-0.082,1.014,-27.825,-37.66,3.832
49225140,0.084,-0.103,0.991,-43.977,-28.875,-9.31
49225160,0.018,-0.118,0.989,-46.27,-17.745,-14.28
49225160,-0.014,-0.203,0.944,-44.082,-17.797,-9.852
49225170,0.05,-0.138,0.937,-30.432,-12.46,-11.515
49225180,0.014,-0.086,0.947,-27.597,-5.022,-11.34
49225190,-0.017,-0.093,0.97,-36.872,5.267,-13.335
49225200,-0.095,-0.188,0.982,-49.227,12.46,-17.097
49225210,-0.122,-0.302,0.939,-50.662,16.975,-15.19
49225220,-0.606,-0.492,0.801,-38.045,-3.097,-8.312
49225230,-0.227,-0.336,0.821,-1.575,-42.052,-16.537
49225240,-0.057,-0.183,0.891,27.02,-56.63,-2.835
49225250,-0.102,-0.243,0.892,29.225,-61.355,3.605
49225260,0,-0.218,0.894,31.535,-62.58,-8.347
49225270,-0.028,-0.196,0.977,32.847,-66.027,-11.9
49225280,-0.13,-0.191,1.009,32.882,-71.837,-12.582
49225290,-0.25,-0.206,0.983,35.752,-82.827,-17.29
49225300,-0.582,-0.03,0.694,40.6,-101.85,-21.875
49225310,-0.049,-0.132,1.028,32.637,-134.627,-27.65
49225320,0.2,-0.332,1.097,52.255,-100.747,-39.48
49225330,-0.327,-0.119,1.017,57.662,-110.967,-32.952
49225340,-0.026,0.077,0.945,59.307,-125.772,-30.485
49225350,0.157,0.004,0.853,53.025,-130.847,-34.142
49225360,0.164,-0.098,0.932,49.21,-127.925,-33.985
49225370,0.171,-0.03,0.933,52.482,-131.407,-37.642
49225380,0.261,-0.006,0.863,51.852,-138.617,-32.725
49225390,0.517,0.013,0.77,55.282,-132.125,-27.877
49225400,0.655,0.06,0.74,58.677,-110.705,-24.237
49225410,0.796,0.09,0.735,57.452,-80.745,-22.382
49225420,0.864,0.091,0.741,54.197,-51.555,-19.145
49225420,0.853,0.072,0.807,48.352,-22.085,-14.507
49225440,0.779,0.031,0.819,40.477,5.757,-16.467
49225440,0.623,-0.028,0.863,32.322,28.245,-14.945
49225460,0.472,-0.048,0.9,26.775,41.37,-14.315
49225460,0.337,-0.093,0.885,21.857,48.055,-11.55
49225480,0.233,-0.11,0.894,26.582,51.59,-13.107
49225480,0.05,-0.058,0.964,35.892,48.125,-10.937
49225500,-0.021,0.047,1.048,37.117,37.047,-7.892
49225500,-0.061,0.106,1.12,34.23,24.255,-8.032
49225510,-0.071,0.123,1.185,30.292,10.43,-7.385
49225520,-0.042,0.165,1.214,22.942,-3.657,-4.567
49225530,-0.086,0.163,1.2,18.042,-19.81,-2.572
49225540,0.012,0.158,1.13,12.67,-33.775,-0.682
49225550,0.164,0.183,1.061,10.22,-44.24,2.905
49225560,0.353,0.239,1.026,8.715,-45.482,5.267
49225570,0.557,0.272,0.994,2.082,-34.037,6.37
49225580,0.75,0.303,1.008,-7.157,-11.637,7.035
49225590,0.906,0.364,1.073,-18.217,18.795,10.255
49225600,0.953,0.374,1.077,-34.195,50.732,13.895
49225610,1.058,0.347,1.046,-51.082,89.372,16.992
49225620,0.937,0.304,0.982,-66.657,126.297,20.352
49225630,0.62,0.271,0.946,-84.927,158.445,21.437
49225640,0.326,0.084,0.886,-109.742,180.11,24.762
49225650,-0.106,-0.03,0.876,-116.147,182.052,26.95
49225660,-0.334,-0.056,1.001,-112.21,157.36,37.24
49225670,-0.158,0.061,1.18,-103.285,133.84,50.155
49225680,-0.04,0.193,1.268,-102.27,115.447,56.612
49225690,0.145,0.271,1.306,-114.712,112.332,55.142
49225700,0.321,0.273,1.273,-134.557,119.682,52.605
49225710,0.446,0.251,1.22,-153.79,135.24,50.347
49225720,0.399,0.208,1.129,-170.905,151.392,47.075
49225730,0.259,0.124,0.985,-184.152,164.045,40.337
49225740,0.042,-0.017,0.825,-188.965,168.035,29.05
49225750,-0.179,-0.174,0.672,-182.84,160.107,12.862
49225760,-0.282,-0.256,0.589,-160.125,141.417,1.522
49225770,-0.352,-0.391,0.527,-129.01,125.37,-1.365
49225780,-0.459,-0.527,0.488,-91.42,109.917,-12.617
49225790,-0.467,-0.618,0.521,-38.307,88.847,-36.225
49225800,-0.164,-0.671,0.512,30.677,64.732,-65.502
49225810,0.18,-0.498,0.599,97.247,66.325,-73.115
49225820,-0.067,-0.307,0.759,141.61,79.012,-46.077
49225830,-0.327,-0.196,0.87,152.46,84.962,-32.707
49225830,-0.4,-0.154,0.932,146.387,79.31,-36.242
49225850,-0.485,-0.133,0.938,128.047,61.215,-39.725
49225850,-0.603,-0.094,0.976,102.025,29.12,-41.352
49225870,-0.574,-0.039,0.931,63.647,-5.267,-37.94
49225870,-0.505,-0.178,0.741,26.39,-32.76,-34.387
49225890,-0.456,-0.213,0.705,16.887,-49.472,-32.585
49225890,-0.503,-0.193,0.698,4.812,-65.747,-21.42
49225910,-0.562,-0.208,0.624,-13.51,-84.157,-8.155
49225910,-0.59,-0.217,0.667,-27.475,-105.245,-12.967
49225920,-0.319,-0.167,0.777,-41.597,-118.335,-14.42
49225930,-0.21,-0.174,0.841,-75.425,-106.225,14.77
49225940,-0.219,-0.191,0.918,-106.627,-84.577,22.645
49225950,-0.211,-0.215,0.901,-135.975,-61.425,25.042
49225960,-0.208,-0.399,0.841,-157.902,-43.225,41.387
49225970,-0.245,-0.572,0.794,-165.147,-26.145,57.697
49225980,-0.368,-0.639,0.849,-155.487,-19.95,57.47
49225990,-0.52,-0.73,0.833,-128.66,-32.935,42.402
49226000,-0.43,-0.641,0.934,-80.657,-59.902,13.352
49226010,-0.303,-0.528,0.934,-52.797,-91.577,3.535
49226020,-0.155,-0.448,0.914,-37.327,-115.447,-7.857
49226030,0.025,-0.399,0.882,-29.242,-124.39,-15.19
49226040,0.214,-0.379,0.846,-25.06,-117.705,-11.287
49226050,0.246,-0.386,0.842,-21.962,-97.51,-1.207
49226060,0.195,-0.458,0.866,-17.01,-73.22,8.172
49226070,0.132,-0.513,0.872,-7.14,-52.78,15.032
49226080,0.323,-0.511,1.048,8.942,-22.627,22.802
49226090,0.102,-0.636,0.967,11.41,9.642,33.775
49226100,-0.332,-0.596,0.882,22.872,3.71,32.06
49226110,-0.15,-0.458,0.931,52.237,-7.717,19.232
49226120,-0.106,-0.485,0.936,68.95,-21.49,18.637
49226130,-0.156,-0.46,0.975,79.065,-33.267,21.752
49226140,-0.069,-0.384,1.056,81.515,-41.702,25.655
49226150,-0.022,-0.36,1.09,73.36,-42.14,28.98
49226160,-0.09,-0.384,1.05,60.48,-44.502,31.867
49226170,-0.099,-0.415,1.052,54.6,-48.247,29.75
49226170,-0.039,-0.467,1.049,53.812,-51.187,22.977
49226190,0.07,-0.486,1.028,55.632,-44.415,16.275
49226190,0.128,-0.465,1.039,61.162,-27.93,11.165
49226210,0.186,-0.423,1.054,66.5,-5.337,12.057
49226210,0.168,-0.385,1.043,69.825,19.862,18.777
49226230,0.132,-0.336,1.03,69.352,44.887,26.11
49226230,0.113,-0.287,1.014,67.357,69.632,33.652
49226250,0.047,-0.243,0.996,64.837,92.435,41.107
49226250,-0.039,-0.21,0.958,60.515,110.477,44.502
49226260,-0.094,-0.167,0.933,54.127,121.922,43.837
49226270,-0.111,-0.114,0.905,44.572,126.122,42.402
49226280,-0.135,-0.063,0.879,32.445,124.897,40.862
49226290,-0.176,-0.021,0.864,18.777,121.257,37.205
49226300,-0.198,-0.007,0.85,4.41,115.255,30.432
49226310,-0.22,-0.02,0.84,-8.82,107.52,23.065
49226320,-0.278,-0.064,0.817,-17.202,94.272,15.977
49226330,-0.307,-0.088,0.8,-17.867,76.422,8.96
49226340,-0.26,-0.083,0.818,-13.58,58.432,4.13
49226350,-0.179,-0.077,0.83,-10.64,47.232,1.417
49226360,-0.143,-0.068,0.865,-10.167,43.365,-1.242
49226370,-0.191,-0.053,0.888,-13.65,42.35,-2.887
49226380,-0.262,-0.086,0.899,-21.595,39.9,-3.902
49226390,-0.263,-0.149,0.894,-26.337,35.98,-7.63
49226400,-0.266,-0.195,0.904,-24.85,30.467,-11.83
49226410,-0.308,-0.24,0.922,-19.145,23.975,-14.945
49226420,-0.348,-0.256,0.943,-13.44,13.79,-18.83
49226430,-0.348,-0.257,0.953,-8.732,2.572,-22.627
49226440,-0.297,-0.26,0.968,-4.2,-8.82,-26.46
49226450,-0.256,-0.255,0.961,-1.295,-17.622,-29.05
49226460,-0.214,-0.259,0.965,-1.452,-25.2,-27.982
49226470,-0.195,-0.295,0.952,-3.202,-27.282,-23.957
49226480,-0.21,-0.349,0.941,2.205,-26.67,-22.382
49226490,-0.189,-0.359,0.945,15.137,-24.955,-22.61
49226500,-0.169,-0.311,0.965,28.63,-23.485,-24.517
49226510,-0.172,-0.231,1.006,34.23,-20.667,-29.277
49226520,-0.16,-0.165,1.027,29.225,-20.685,-35.28
49226530,-0.134,-0.129,1.038,15.977,-21.945,-37.432
49226540,-0.147,-0.159,1.009,-2.327,-24.902,-35.262
49226550,-0.175,-0.261,0.953,-18.322,-27.3,-32.567
49226560,-0.22,-0.379,0.941,-23.502,-31.29,-33.11
49226570,-0.259,-0.441,0.961,-15.102,-39.672,-37.03
49226580,-0.159,-0.454,0.959,3.097,-48.807,-39.55
49226580,-0.137,-0.411,1.015,20.755,-55.16,-38.885
49226600,-0.077,-0.396,1.043,27.125,-64.767,-40.407
49226600,-0.033,-0.342,1.067,19.862,-65.257,-42.805
49226620,-0.034,-0.334,1.027,10.29,-63.98,-44.957
49226620,0.055,-0.403,0.975,7.717,-58.677,-42.805
49226640,0.082,-0.39,0.965,12.897,-46.637,-37.695
49226640,0.095,-0.317,0.995,15.645,-32.707,-32.287
49226660,0.09,-0.244,0.988,14.35,-13.737,-29.487
49226660,0.074,-0.206,0.981,11.445,3.64,-28.472
49226670,-0.015,-0.195,0.964,7.017,13.755,-27.457
49226680,-0.083,-0.175,0.922,5.582,15.627,-25.48
49226690,-0.09,-0.179,0.872,11.322,13.545,-26.11
49226700,-0.091,-0.156,0.835,17.062,10.36,-31.745
49226710,-0.126,-0.114,0.837,25.2,6.72,-35
49226720,-0.148,-0.08,0.844,26.495,-0.262,-38.412
49226730,-0.144,-0.045,0.854,20.807,-8.995,-42.035
49226740,-0.145,-0.065,0.862,9.94,-19.74,-42.35
49226750,-0.088,-0.086,0.835,-4.235,-28.42,-41.317
49226760,-0.069,-0.147,0.83,-12.81,-32.935,-38.202
49226770,-0.048,-0.21,0.794,-22.522,-33.11,-37.397
49226780,-0.019,-0.248,0.73,-26.267,-29.767,-37.135
49226790,-0.031,-0.291,0.705,-21.735,-25.882,-33.495
49226800,-0.048,-0.249,0.732,-13.405,-20.335,-29.032
49226810,-0.088,-0.185,0.79,-8.277,-12.81,-22.82
49226820,-0.038,-0.164,0.841,-11.06,-4.025,-16.677
49226830,-0.012,-0.153,0.876,-16.205,10.727,-7.805
49226840,-0.056,-0.143,0.942,-20.545,26.88,2.835
49226850,-0.114,-0.115,1.007,-27.475,39.445,8.102
49226860,-0.181,-0.12,1.019,-32.865,42.962,11.025
49226870,-0.226,-0.127,1.056,-33.67,42.35,9.642
49226880,-0.291,-0.132,1.103,-32.795,34.667,3.745
49226890,-0.282,-0.149,1.055,-32.2,22.277,-8.33
49226900,-0.29,-0.163,1.141,-13.737,9.432,-10.237
49226910,-0.202,-0.189,1.216,-8.715,0.332,-16.642
49226920,-0.139,-0.252,1.214,-4.112,3.395,-32.427
49226920,-0.204,-0.163,1.235,17.272,15.505,-42.962
49226940,-0.298,-0.171,1.263,46.847,21.472,-30.747
49226940,-0.293,-0.125,1.293,71.907,18.27,-22.627
49226960,-0.327,-0.076,1.269,75.442,7.892,-21.91
49226960,-0.454,-0.07,1.186,79.38,-10.045,-17.727
49226980,-0.619,-0.041,1.117,88.165,-38.885,-19.46
49226980,-0.569,0.073,1.044,98.315,-74.637,-25.147
49227000,-0.285,0.206,0.979,99.277,-100.397,-30.047
49227000,-0.015,0.323,0.953,88.847,-104.352,-38.395
49227010,0.088,0.339,0.957,68.407,-84.472,-41.685
49227020,0.054,0.268,0.897,47.337,-55.562,-18.007
49227030,0.01,0.239,0.894,36.295,-24.552,0.262
49227040,-0.096,0.187,0.88,26.792,-2.012,15.68
49227050,-0.171,0.111,0.879,21,7.962,26.652
49227060,-0.153,0.109,0.917,11.952,9.117,31.955
49227070,-0.137,0.057,0.9,-9.572,10.097,29.942
49227080,-0.138,-0.061,0.883,-21.157,9.975,29.382
49227090,-0.096,-0.128,0.88,-24.325,12.372,28.577
49227100,-0.056,-0.132,0.894,-26.145,17.255,26.775
49227110,-0.042,-0.153,0.91,-27.02,26.127,27.737
49227120,-0.055,-0.178,0.918,-25.9,34.37,31.482
49227130,-0.084,-0.209,0.934,-22.925,39.952,35.297
49227140,-0.119,-0.223,0.936,-21.332,41.877,37.87
49227150,-0.137,-0.225,0.952,-17.675,41.23,39.042
49227160,-0.124,-0.213,0.95,-13.177,39.06,39.235
49227170,-0.122,-0.19,0.953,-8.907,37.152,42.525
49227180,-0.108,-0.141,0.965,-7.385,35.682,45.5
49227190,-0.058,-0.098,0.95,-15.137,39.515,45.5
49227200,-0.068,-0.096,0.931,-22.137,44.992,48.51
49227210,-0.11,-0.093,0.932,-24.57,50.557,51.362
49227220,-0.179,-0.107,0.921,-28.857,52.57,52.447
49227230,-0.231,-0.105,0.946,-32.76,50.47,46.882
49227240,-0.327,-0.142,0.96,-42,39.182,42.42
49227250,-0.412,-0.205,0.963,-48.965,16.695,38.692
49227260,-0.386,-0.257,0.915,-50.242,-11.585,35.017
49227270,-0.338,-0.255,0.961,-44.275,-38.867,34.405
49227280,-0.315,-0.22,1.002,-43.54,-65.712,34.597
49227290,-0.224,-0.15,1.053,-55.702,-86.782,34.16
49227300,-0.119,-0.136,1.064,-83.685,-97.23,33.425
49227310,-0.079,-0.209,1.015,-115.342,-94.395,28.42
49227320,-0.093,-0.378,0.905,-137.235,-85.82,14.297
49227330,-0.098,-0.515,0.846,-132.79,-77.315,-4.917
49227330,-0.082,-0.553,0.852,-107.03,-77.98,-16.397
49227350,-0.073,-0.49,0.931,-74.865,-86.275,-18.042
49227350,0.03,-0.399,0.986,-52.692,-90.632,-17.29
49227370,0.063,-0.4,0.971,-40.967,-86.94,-12.127
49227370,0.023,-0.379,1.018,-32.357,-83.282,-8.242
49227390,0.07,-0.352,0.978,-30.292,-78.942,-6.002
49227390,0.116,-0.348,0.94,-24.57,-73.482,-3.08
49227410,0.147,-0.339,0.918,-22.33,-65.625,-0.332
49227410,0.133,-0.327,0.902,-18.497,-54.582,3.71
49227420,0.117,-0.34,0.882,-17.097,-45.622,8.137
49227430,0.124,-0.371,0.863,-14.63,-32.655,9.572
49227440,0.073,-0.409,0.863,-11.112,-23.817,7.787
49227450,0.043,-0.409,0.889,-6.335,-21.105,4.882
49227460,0.013,-0.43,0.932,-3.185,-24.22,3.815
49227470,-0.002,-0.375,0.98,-2.66,-25.865,1.155
49227480,0.022,-0.397,0.999,-5.722,-32.252,-1.155
49227490,0.026,-0.459,1.004,-8.557,-37.94,-0.315
49227500,0.034,-0.499,1.016,-9.222,-43.627,-2.205
49227510,0.109,-0.532,0.991,-8.347,-47.53,-5.32
49227520,0.163,-0.575,0.964,-3.342,-47.88,-3.237
49227530,0.148,-0.603,0.943,6.317,-44.94,3.255
49227540,0.098,-0.596,0.905,20.177,-42,9.1
49227550,0.118,-0.574,0.876,37.467,-39.69,15.05
49227560,0.262,-0.489,0.917,53.13,-31.57,26.652
49227570,0.414,-0.424,0.893,56.21,-4.672,40.092
49227580,0.5,-0.387,0.89,55.615,37.467,46.602
49227590,0.437,-0.371,0.872,47.81,85.837,52.745
49227600,0.323,-0.361,0.839,41.842,129.815,57.645
49227610,0.21,-0.323,0.829,36.855,167.352,59.745
49227620,0.058,-0.28,0.834,30.012,193.305,60.952
49227630,-0.072,-0.254,0.809,20.545,207.305,58.397
49227640,-0.113,-0.251,0.795,12.442,213.657,55.16
49227650,-0.163,-0.266,0.785,9.992,215.67,54.985
49227660,-0.204,-0.263,0.774,12.6,218.697,55.475
49227670,-0.433,-0.193,0.789,19.215,208.197,51.012
49227670,-0.48,-0.142,0.845,8.05,185.115,49.437
49227690,-0.473,-0.1,0.825,-1.225,162.33,41.772
49227690,-0.434,-0.133,0.829,-13.597,136.482,31.517
49227710,-0.442,-0.16,0.772,-25.357,114.835,24.832
49227710,-0.408,-0.206,0.764,-27.3,97.44,18.812
49227730,-0.328,-0.229,0.757,-16.765,87.815,13.195
49227730,-0.276,-0.215,0.78,-4.532,86.345,11.445
49227750,-0.246,-0.167,0.838,4.707,92.96,8.26
49227750,-0.297,-0.098,0.89,11.252,99.767,0.157
49227760,-0.349,-0.045,0.937,5.057,104.125,-10.29
49227770,-0.383,-0.037,0.901,-7.91,104.16,-22.522
49227780,-0.562,-0.226,0.849,-7.7,95.165,-23.73
49227790,-0.354,-0.145,0.863,-0.315,81.182,-39.235
49227800,-0.385,-0.195,0.765,-9.467,73.255,-36.697
49227810,-0.475,-0.252,0.792,3.22,66.587,-28.717
49227820,-0.327,-0.201,0.762,13.09,66.92,-40.967
49227830,-0.11,-0.116,0.762,13.72,83.23,-50.207
49227840,-0.096,-0.148,0.752,19.932,116.287,-34.545
49227850,-0.223,-0.192,0.778,18.147,145.6,-13.3
49227860,-0.489,-0.374,0.734,4.357,165.62,-19.53
49227870,-0.775,-0.402,0.793,16.905,158.2,-11.427
49227880,-0.829,-0.282,0.876,24.657,128.52,-15.277
49227890,-0.735,-0.186,0.874,13.755,98.385,-26.897
49227900,-0.577,-0.164,0.801,-8.452,85.33,-44.905
49227910,-0.423,-0.104,0.744,-37.957,90.877,-56.455
49227920,-0.592,-0.124,0.644,-55.177,95.987,-21.262
49227930,-1.08,-0.562,0.71,-16.712,73.955,41.947
49227940,-0.734,-0.305,0.704,-18.112,52.517,0.7
49227950,-0.787,-0.387,0.63,-26.355,37.135,12.285
49227960,-0.784,-0.428,0.655,-11.795,28.07,14.175
49227970,-0.59,-0.383,0.763,-7.052,29.82,9.257
49227980,-0.577,-0.469,0.745,-1.4,47.565,13.142
49227990,-0.78,-0.346,0.824,9.432,57.102,9.905
49228000,-0.826,-0.294,0.835,4.305,53.97,10.255
49228010,-0.754,-0.369,0.806,-2.992,49.7,4.497
49228020,-0.797,-0.429,0.851,0.35,39.042,-0.035
49228030,-0.706,-0.37,0.834,11.287,28.682,-4.357
49228040,-0.698,-0.246,0.852,15.645,19.792,-6.562
49228050,-0.732,-0.266,0.806,7.315,9.73,-9.747
49228060,-0.653,-0.334,0.741,1.697,1.75,-17.22
49228070,-0.541,-0.331,0.726,0.21,1.54,-19.74
49228080,-0.562,-0.315,0.726,2.87,7.07,-11.69
49228080,-0.59,-0.321,0.726,2.852,15.19,-7.525
49228100,-0.647,-0.353,0.727,0.892,22.802,-8.977
49228100,-0.718,-0.378,0.718,-0.035,26.075,-16.555
49228110,-0.787,-0.362,0.712,2.59,23.31,-23.432
49228120,-0.806,-0.325,0.715,4.305,14.7,-29.54
49228130,-0.767,-0.338,0.66,3.185,6.492,-32.025
49228140,-0.751,-0.324,0.639,3.64,0.21,-34.142
49228150,-0.769,-0.31,0.597,4.06,-4.375,-33.127
49228160,-0.752,-0.306,0.6,6.912,-8.347,-31.36
49228170,-0.679,-0.257,0.596,5.88,-9.712,-32.55
49228180,-0.713,-0.247,0.596,3.08,-9.52,-28.052
49228190,-0.79,-0.279,0.606,2.327,-15.015,-21.875
49228200,-0.792,-0.194,0.607,-3.272,-33.092,-22.54
49228210,-0.731,-0.164,0.631,-21.385,-47.372,-21.945
49228220,-0.853,-0.208,0.463,-31.307,-75.897,-24.307
49228230,-0.295,-0.191,0.513,-22.487,-77.595,-34.737
49228240,0.063,-0.404,0.615,-23.31,-23.765,-12.022
49228250,-0.663,-0.386,0.698,-6.895,36.347,14.84
49228260,-1.055,-0.153,0.817,0.42,47.6,17.202
49228270,-0.981,-0.311,0.694,-21.752,25.952,11.392
49228280,-0.737,-0.424,0.64,-27.3,1.505,0.402
49228290,-0.577,-0.34,0.642,-26.285,0.56,-3.867
49228300,-0.597,-0.204,0.676,-25.97,8.925,-3.395
49228310,-0.663,-0.208,0.67,-37.642,14.49,-0.7
49228320,-0.678,-0.37,0.595,-45.36,7.945,-1.907
49228330,-0.537,-0.449,0.633,-30.957,-0.962,-8.435
49228340,-0.323,-0.451,0.675,-20.37,16.677,-2.222
49228350,-0.739,-0.397,0.856,-11.935,32.427,3.29
49228360,-0.865,-0.414,0.88,-9.38,23.432,-3.115
49228370,-0.729,-0.398,0.827,-9.607,11.917,-14.052
49228380,-0.708,-0.377,0.791,-14.63,3.01,-18.585
49228390,-0.698,-0.395,0.773,-18.865,1.032,-24.272
49228400,-0.728,-0.405,0.704,-23.975,-4.165,-28.84
49228410,-0.724,-0.443,0.624,-27.86,-11.672,-30.52
49228420,-0.628,-0.45,0.558,-25.917,-16.065,-31.185
49228420,-0.58,-0.425,0.543,-22.417,-15.312,-26.652
49228440,-0.538,-0.442,0.535,-17.587,-9.852,-20.895
49228440,-0.527,-0.426,0.565,-10.937,-2.642,-14.28
49228460,-0.528,-0.423,0.612,-7.875,5.04,-7.332
49228460,-0.545,-0.414,0.666,-4.112,11.305,-3.482
49228480,-0.602,-0.394,0.735,-2.292,11.165,-0.857
49228480,-0.618,-0.386,0.772,-3.64,7.927,-0.297
49228500,-0.651,-0.403,0.728,-7.14,3.482,-0.84
49228500,-0.677,-0.425,0.663,-8.995,-2.205,-2.082
49228510,-0.72,-0.465,0.617,-10.552,-8.802,-2.747
49228520,-0.708,-0.5,0.583,-8.207,-15.032,-4.375
49228530,-0.709,-0.485,0.562,-3.43,-21.455,-6.37
49228540,-0.637,-0.395,0.593,0.525,-21.997,-6.755
49228550,-0.644,-0.418,0.597,-5.88,-14.805,-3.745
49228560,-0.688,-0.484,0.618,-11.182,-8.015,-2.38
49228570,-0.707,-0.491,0.622,-10.43,-8.697,-4.147
49228580,-0.732,-0.427,0.634,-5.88,-22.47,-6.02
49228590,-0.332,-0.298,0.635,-3.062,-25.777,-7.315
49228600,-0.584,-0.43,0.624,-15.837,-8.82,4.305
49228610,-0.789,-0.585,0.591,-17.08,-6.58,7.612
49228620,-0.665,-0.527,0.599,-6.16,-10.342,-1.855
49228630,-0.689,-0.451,0.604,-2.047,-16.922,-3.412
49228640,-0.591,-0.434,0.625,-1.575,-15.557,-4.655
49228650,-0.701,-0.446,0.645,-3.955,-14.087,-1.592
49228660,-0.707,-0.433,0.641,-7.647,-16.73,-1.872
49228670,-0.685,-0.435,0.656,-10.675,-19.127,-3.22
49228680,-0.664,-0.438,0.662,-13.265,-22.89,-2.012
49228690,-0.606,-0.419,0.683,-12.302,-23.222,-3.412
49228700,-0.604,-0.4,0.689,-14.28,-21.647,-5.827
49228710,-0.626,-0.405,0.676,-16.625,-19.775,-7.42
49228720,-0.645,-0.423,0.674,-18.655,-19.967,-9.94
49228730,-0.665,-0.454,0.653,-18.9,-21.175,-11.725
49228740,-0.658,-0.443,0.646,-17.097,-22.54,-13.72
49228750,-0.638,-0.406,0.658,-17.552,-23.975,-14.297
49228760,-0.616,-0.411,0.669,-20.702,-24.307,-14.035
49228770,-0.613,-0.458,0.67,-24.36,-22.645,-15.645
49228780,-0.642,-0.494,0.65,-25.305,-22.19,-17.482
49228780,-0.657,-0.499,0.645,-24.78,-24.605,-18.41
49228800,-0.625,-0.494,0.637,-22.137,-28.542,-14.77
49228800,-0.66,-0.493,0.63,-15.487,-32.462,-0.595
49228820,-0.651,-0.524,0.657,-15.68,-37.747,4.602
49228820,-0.566,-0.541,0.678,-14.455,-36.452,-4.865
49228830,-0.559,-0.496,0.583,-13.177,-36.032,-9.17
49228840,-0.553,-0.398,0.523,-12.652,-35.647,-7.175
49228850,-0.446,-0.574,0.648,-13.107,-32.13,0.997
49228860,-0.498,-0.592,0.704,1.785,-29.767,2.1
49228870,-0.437,-0.437,0.68,4.567,-30.52,3.43
49228880,-0.411,-0.422,0.687,2.117,-24.71,5.635
49228890,-0.385,-0.46,0.678,-3.955,-17.99,3.675
49228900,-0.379,-0.46,0.681,-4.602,-9.642,1.575
49228910,-0.435,-0.468,0.694,-3.167,-3.202,0.997
49228920,-0.495,-0.519,0.688,-0.14,0.28,2.45
49228930,-0.556,-0.564,0.674,3.465,-0.42,2.607
49228940,-0.622,-0.604,0.67,7.262,-2.887,1.872
49228950,-0.649,-0.625,0.677,11.13,-7.577,-0.752
49228960,-0.63,-0.625,0.679,14.787,-13.65,-5.32
49228970,-0.598,-0.605,0.672,18.655,-19.232,-8.627
49228980,-0.544,-0.568,0.677,21.962,-23.485,-9.52
49228990,-0.48,-0.527,0.697,24.937,-24.955,-8.26
49229000,-0.493,-0.522,0.749,27.562,-26.582,-0.945
49229010,-0.507,-0.546,0.775,25.917,-28.525,1.732
49229020,-0.5,-0.552,0.824,24.237,-29.015,-2.677
49229030,-0.542,-0.576,0.886,18.252,-28.507,-4.112
49229040,-0.576,-0.622,0.909,11.847,-31.447,-6.72
49229050,-0.604,-0.652,0.93,6.597,-37.24,-7.385
49229060,-0.399,-0.75,1.114,-4.76,-50.382,-3.482
49229070,-0.177,-0.821,0.883,-10.745,-22.522,12.915
49229080,-0.767,-0.734,0.981,13.09,-26.197,6.3
49229090,-0.967,-0.611,0.942,2.1,-58.345,2.642
49229100,-0.693,-0.93,0.793,3.01,-96.022,15.417
49229110,-0.368,-1.083,0.716,42.717,-117.565,11.392
49229120,-0.376,-0.971,0.71,94.342,-136.412,7.367
49229130,-0.434,-0.767,0.754,139.51,-153.177,0.367
49229140,-0.343,-0.562,0.764,164.815,-170.047,-19.6
49229150,-0.236,-0.421,0.734,173.145,-183.487,-38.132
49229160,-0.175,-0.327,0.69,174.492,-187.53,-54.18
49229170,-0.124,-0.219,0.684,170.082,-182.735,-70.402
49229170,-0.083,-0.112,0.691,156.992,-174.825,-82.162
49229190,-0.064,-0.011,0.729,136.255,-163.782,-87.692
49229190,-0.099,0.059,0.775,105.787,-153.02,-85.347
49229210,-0.122,0.07,0.791,68.267,-142.275,-77.892
49229210,-0.115,0.037,0.787,31.22,-129.027,-69.107
49229230,-0.144,-0.017,0.795,-1.977,-114.87,-61.232
49229230,-0.181,-0.084,0.798,-29.47,-101.36,-56.437
49229250,-0.151,-0.11,0.826,-52.447,-88.182,-56.332
49229250,-0.035,-0.085,0.833,-75.74,-73.045,-57.54
49229260,-0.025,-0.127,0.829,-94.36,-54.722,-54.477
49229270,-0.088,-0.191,0.819,-111.195,-36.855,-55.23
49229280,-0.155,-0.268,0.805,-118.702,-27.44,-56.367
49229290,-0.189,-0.299,0.805,-118.965,-27.615,-58.957
49229300,-0.227,-0.319,0.797,-113.802,-36.785,-59.902
49229310,-0.207,-0.335,0.787,-104.212,-50.137,-59.097
49229320,-0.166,-0.355,0.768,-93.065,-63.227,-55.335
49229330,-0.114,-0.37,0.755,-79.59,-71.942,-51.345
49229340,-0.027,-0.399,0.739,-61.81,-74.462,-45.062
49229350,0.085,-0.39,0.744,-41.562,-67.69,-34.317
49229360,0.1,-0.361,0.775,-22.977,-55.685,-20.37
49229370,0.03,-0.305,0.825,-11.9,-44.222,-10.15
49229380,-0.024,-0.253,0.871,-12.932,-41.422,-3.097
49229390,-0.05,-0.281,0.876,-19.495,-45.78,6.982
49229400,-0.057,-0.321,0.876,-30.1,-53.76,12.337
49229410,-0.045,-0.366,0.829,-39.742,-60.025,13.09
49229420,-0.009,-0.426,0.833,-40.565,-63.542,12.197
49229430,0.059,-0.431,0.804,-39.602,-60.252,10.955
49229440,0.062,-0.467,0.788,-30.642,-52.29,10.395
49229450,0.075,-0.446,0.808,-17.22,-41.037,6.51
49229460,0.071,-0.401,0.823,-5.915,-32.462,4.042
49229470,0.051,-0.387,0.833,3.097,-26.81,3.972
49229480,0.042,-0.386,0.874,8.575,-24.64,5.285
49229490,0.04,-0.376,0.894,9.432,-26.25,10.342
49229500,0.05,-0.441,0.888,13.457,-29.645,19.67
49229510,0.141,-0.462,0.911,19.582,-25.882,29.242
49229510,0.292,-0.619,0.992,26.985,-10.605,41.51
49229530,0.308,-0.614,0.994,44.817,18.795,51.152
49229530,0.212,-0.503,1.073,65.17,53.515,46.112
49229550,-0.007,-0.481,1.204,64.032,64.785,39.357
49229550,-0.118,-0.513,1.26,42.91,59.202,35.227
49229570,-0.176,-0.577,1.198,25.252,41.317,34.65
49229570,-0.195,-0.607,1.079,26.495,20.492,29.785
49229580,-0.135,-0.574,0.996,37.327,1.995,25.917
49229590,-0.072,-0.493,0.978,47.862,-5.39,24.552
49229600,-0.077,-0.449,0.986,49.805,-5.845,27.247
49229610,0.002,-0.446,0.962,45.465,4.847,32.41
49229620,0.091,-0.447,0.915,44.187,29.365,40.005
49229630,0.081,-0.43,0.896,51.66,62.807,51.607
49229640,0.023,-0.363,0.901,60.812,100.24,66.71
49229650,-0.043,-0.285,0.914,65.642,137.077,83.93
49229660,-0.148,-0.233,0.908,63.98,170.397,99.645
49229670,-0.285,-0.219,0.894,57.96,195.265,106.767
49229680,-0.437,-0.191,0.897,50.05,205.24,109.445
49229690,-0.593,-0.185,0.878,43.242,197.575,108.972
49229700,-0.659,-0.2,0.867,41.825,173.337,102.252
49229710,-0.606,-0.185,0.84,42.455,142.94,96.11
49229720,-0.577,-0.179,0.828,41.632,110.53,93.117
49229730,-0.511,-0.156,0.837,39.76,81.672,88.375
49229740,-0.379,-0.102,0.84,34.37,59.045,86.222
49229750,-0.25,-0.103,0.819,29.365,47.932,85.82
49229760,-0.144,-0.079,0.837,21.84,48.947,83.3
49229770,-0.152,-0.119,0.823,7.402,56.332,82.075
49229780,-0.192,-0.149,0.848,-2.572,64.715,72.695
49229790,-0.288,-0.189,0.845,-13.23,66.692,63.84
49229800,-0.409,-0.223,0.882,-21.402,57.977,53.62
49229810,-0.493,-0.263,0.893,-28.507,39.725,41.457
49229820,-0.497,-0.299,0.896,-32.55,14.245,28.402
49229830,-0.467,-0.34,0.878,-33.775,-13.265,14.945
49229840,-0.361,-0.32,0.88,-30.73,-37.222,2.975
49229850,-0.237,-0.314,0.889,-29.155,-53.62,-1.137
49229860,-0.214,-0.353,0.859,-30.712,-62.212,-2.152
49229870,-0.163,-0.409,0.814,-33.53,-63.945,-4.637
49229880,-0.148,-0.469,0.792,-30.24,-61.197,-2.677
49229890,-0.142,-0.467,0.868,-19.757,-52.902,-2.467
49229900,-0.313,-0.484,0.925,-13.265,-52.902,-2.397
49229910,-0.277,-0.52,0.942,-3.885,-66.255,-18.83
49229920,0.345,-0.603,1.118,2.397,-49.665,-26.915
49229920,-0.041,-0.64,1.166,18.48,-5.652,-20.807
49229940,-0.56,-0.449,1.343,28.105,-1.925,-38.36
49229940,-0.459,-0.316,1.24,10.605,-27.912,-45.622
49229960,-0.222,-0.31,1.095,-10.377,-54.407,-37.957
49229960,-0.316,-0.416,0.879,-24.955,-60.567,-21.717
49229980,-0.089,-0.269,0.852,-28.98,-62.737,-27.772
49229980,0.12,-0.168,0.789,-52.395,-27.09,-24.675
49230000,-0.114,-0.38,0.723,-72.292,4.76,-21.367
49230000,-0.327,-0.57,0.705,-65.922,19.407,-20.895
49230010,-0.364,-0.552,0.755,-40.127,10.745,-7.262
49230020,-0.319,-0.439,0.845,-11.882,-3.517,6.86
49230030,-0.23,-0.351,0.908,-0.175,-10.727,11.252
49230040,-0.13,-0.291,0.937,-2.45,-8.015,6.265
49230050,-0.074,-0.266,0.923,-11.077,2.765,0.07
49230060,-0.078,-0.313,0.896,-14.455,15.015,-1.365
49230070,-0.108,-0.341,0.879,-12.827,26.057,0.787
49230080,-0.137,-0.341,0.866,-9.695,35.227,2.712
49230090,-0.201,-0.324,0.86,-6.422,42.77,2.607
49230100,-0.25,-0.327,0.857,-6.422,46.76,3.307
49230110,-0.311,-0.363,0.849,-8.68,48.632,3.08
49230120,-0.367,-0.4,0.832,-9.065,47.687,1.522
49230130,-0.428,-0.389,0.85,-6.02,43.872,-0.052
49230140,-0.499,-0.354,0.876,-7.402,34.737,-0.245
49230150,-0.544,-0.356,0.874,-12.215,22.172,-0.63
49230160,-0.475,-0.37,0.87,-14.455,9.537,-2.432
49230170,-0.343,-0.36,0.886,-13.142,4.952,-2.31
49230180,-0.256,-0.339,0.936,-12.53,8.662,-0.14
49230190,-0.214,-0.338,0.972,-15.645,19.915,1.995
49230200,-0.214,-0.366,0.971,-20.072,34.317,6.002
49230210,-0.353,-0.392,0.996,-25.462,44.922,13.02
49230220,-0.432,-0.308,0.916,-41.317,55.562,21.77
49230230,-0.479,-0.467,0.725,-63.7,59.132,26.162
49230240,-0.594,-0.665,0.812,-66.185,54.687,17.78
49230250,-0.656,-0.799,0.766,-44.397,38.045,19.285
49230260,-0.614,-0.588,0.886,-1.802,11.48,10.762
49230260,-0.507,-0.4,0.921,18.2,-15.242,8.435
49230280,-0.432,-0.362,0.908,19.95,-33.687,2.94
49230280,-0.326,-0.378,0.839,15.855,-42.332,-7.455
49230300,-0.202,-0.32,0.798,20.405,-41.702,-14.927
49230300,-0.199,-0.197,0.8,21.91,-35.262,-15.19
49230320,-0.291,-0.112,0.78,10.605,-32.917,-15.137
49230320,-0.314,-0.111,0.694,-8.697,-34.895,-16.572
49230330,-0.329,-0.14,0.618,-25.55,-40.127,-19.32
49230340,-0.345,-0.152,0.583,-39.375,-45.377,-22.662
49230350,-0.399,-0.204,0.566,-54.092,-50.33,-29.102
49230360,-0.432,-0.301,0.557,-65.992,-57.995,-38.955
49230370,-0.342,-0.433,0.622,-64.96,-66.657,-43.05
49230380,0.523,-0.839,1.021,-44.607,-25.515,-32.095
49230390,-0.038,-0.95,0.957,1.155,56.717,-1.61
49230400,-1.17,-0.507,1.269,34.247,52.832,6.79
49230410,-1.025,-0.207,1.414,23.065,-11.812,9.187
49230420,-0.129,-0.486,1.026,-3.92,-57.575,5.11
49230430,0.048,-0.63,0.866,-6.142,-50.925,1.19
49230440,-0.242,-0.474,0.778,-5.442,-35.455,4.182
49230450,-0.188,-0.295,0.746,-4.235,-25.322,-3.972
49230460,-0.03,-0.307,0.693,-9.135,-15.277,-5.862
49230470,-0.08,-0.42,0.723,-13.545,-1.995,0.07
49230480,-0.12,-0.452,0.764,-16.1,7.07,0.175
49230490,-0.138,-0.471,0.816,-13.702,12.197,-1.347
49230500,-0.181,-0.495,0.873,-9.135,15.925,-0.42
49230510,-0.249,-0.486,0.897,-14.245,18.777,1.487
49230520,-0.331,-0.527,0.878,-18.83,16.555,0.052
49230530,-0.347,-0.567,0.866,-14.332,13.492,-4.007
49230540,-0.349,-0.54,0.882,-8.75,8.015,-5.145
49230550,-0.329,-0.492,0.899,-10.097,6.16,-4.515
49230560,-0.343,-0.465,0.896,-17.885,4.865,-4.287
49230570,-0.302,-0.475,0.876,-29.89,6.23,-1.452
49230580,-0.273,-0.519,0.856,-38.92,10.272,3.395
49230590,-0.293,-0.542,0.867,-43.032,12.075,5.267
49230600,-0.274,-0.549,0.824,-41.737,15.82,6.335
49230610,-0.339,-0.536,0.859,-35.42,12.705,6.702
49230620,-0.314,-0.504,0.873,-30.047,10.465,9.66
49230630,-0.182,-0.443,0.762,-24.447,15.61,13.457
49230640,-0.196,-0.365,0.785,-29.89,29.067,24.937
49230650,-0.518,-0.419,0.804,-52.552,33.337,30.205
49230660,-0.334,-0.519,0.688,-58.17,31.43,18.375
49230670,-0.389,-0.598,0.705,-42.472,26.915,17.99
49230670,-0.518,-0.568,0.721,-26.092,16.38,16.537
49230690,-0.392,-0.499,0.718,-8.627,10.01,10.185
49230690,-0.465,-0.468,0.724,0.297,7.577,9.24
49230710,-0.563,-0.514,0.725,2.187,-0.227,6.037
49230710,-0.516,-0.479,0.724,9.152,-14.122,-6.072
49230730,-0.436,-0.414,0.736,16.345,-29.837,-11.252
49230730,-0.363,-0.403,0.727,19.547,-40.967,-12.337
49230750,-0.302,-0.396,0.731,19.407,-43.662,-13.545
49230750,-0.263,-0.398,0.743,20.86,-41.58,-14.49
49230760,-0.218,-0.418,0.776,22.277,-35.105,-14.262
49230770,-0.125,-0.427,0.816,22.33,-21.77,-13.895
49230780,-0.129,-0.426,0.842,23.205,-3.797,-14.245
49230790,-0.21,-0.432,0.869,20.86,10.692,-11.935
49230800,-0.285,-0.442,0.876,16.66,18.112,-7.157
49230810,-0.346,-0.466,0.895,12.372,16.887,-4.585
49230820,-0.378,-0.494,0.911,8.89,9.467,-4.322
49230830,-0.355,-0.515,0.888,7.105,-0.35,-6.65
49230840,-0.241,-0.495,0.887,8.05,-3.237,-8.89
49230850,-0.262,-0.496,0.878,4.987,1.085,-6.107
49230860,-0.332,-0.507,0.845,1.26,4.76,-5.495
49230870,-0.349,-0.503,0.808,1.032,3.587,-6.02
49230880,-0.332,-0.492,0.788,4.672,-0.332,-4.112
49230890,-0.337,-0.462,0.803,6.825,-4.217,-0.927
49230900,-0.331,-0.435,0.811,3.972,-7.017,1.26
49230910,-0.328,-0.448,0.805,-2.905,-7.735,3.255
49230920,-0.335,-0.494,0.802,-7.245,-7.787,4.9
49230930,-0.352,-0.533,0.803,-5.67,-7.752,3.36
49230940,-0.37,-0.547,0.818,0.052,-10.377,0.455
49230950,-0.397,-0.549,0.837,6.352,-14.752,-0.472
49230960,-0.444,-0.595,0.818,12.425,-22.33,-2.607
49230970,-0.408,-0.605,0.81,23.572,-30.257,-5.582
49230980,-0.335,-0.544,0.833,35.56,-36.435,-2.887
49230990,-0.297,-0.434,0.844,39.812,-37.992,0.84
49231000,-0.23,-0.357,0.833,31.57,-35.07,1.242
49231010,-0.194,-0.406,0.815,17.815,-26.53,2.012
49231010,-0.274,-0.489,0.824,11.41,-19.442,3.045
49231030,-0.357,-0.568,0.859,21.962,-26.232,-3.22
49231030,-0.18,-0.396,0.905,44.975,-36.417,-12.39
49231050,-0.245,-0.269,1.016,36.942,-45.657,-4.515
49231050,-0.096,-0.302,0.982,11.34,-45.675,-7.805
49231070,0.018,-0.381,0.95,-9.065,-32.602,-12.477
49231070,-0.048,-0.432,0.924,-18.917,-18.795,-7.595
49231080,-0.065,-0.424,0.891,-22.75,-2.345,0.752
49231090,-0.165,-0.47,0.885,-23.502,7.35,7.42
49231100,-0.155,-0.508,0.832,-22.96,17.71,7.612
49231110,-0.213,-0.509,0.791,-19.022,25.13,5.88
49231120,-0.311,-0.516,0.769,-6.632,25.462,3.325
49231130,-0.294,-0.471,0.766,7.717,21.7,0.665
49231140,-0.278,-0.394,0.765,14.105,18.007,0.7
49231150,-0.276,-0.357,0.749,13.86,16.1,1.312
49231160,-0.277,-0.357,0.741,12.145,16.747,0.875
49231170,-0.3,-0.342,0.753,9.205,17.465,1.995
49231180,-0.332,-0.319,0.76,3.22,14.77,2.782
49231190,-0.331,-0.312,0.763,-4.497,10.692,1.207
49231200,-0.287,-0.32,0.757,-12.95,7.805,0.192
49231210,-0.272,-0.35,0.738,-20.527,8.085,1.225
49231220,-0.275,-0.369,0.741,-25.655,10.762,3.5
49231230,-0.308,-0.382,0.747,-30.047,13.177,8.085
49231240,-0.356,-0.417,0.743,-33.005,13.317,12.32
49231250,-0.324,-0.483,0.804,-32.777,12.827,13.93
49231260,-0.094,-0.693,0.866,-28.49,29.715,19.652
49231270,-0.378,-0.73,0.866,-7.017,53.76,25.147
49231280,-0.727,-0.535,0.978,13.755,49.472,21.227
49231290,-0.76,-0.427,0.999,12.53,22.382,22.102
49231300,-0.601,-0.47,0.92,0.367,-8.365,18.777
49231310,-0.419,-0.526,0.886,-5.53,-25.025,15.417
49231320,-0.441,-0.533,0.915,-5.985,-33.442,15.522
49231330,-0.464,-0.514,0.926,-6.947,-43.522,9.38
49231340,-0.345,-0.503,0.864,-8.697,-53.672,4.41
49231350,-0.261,-0.497,0.826,-8.82,-57.68,3.71
49231360,-0.238,-0.491,0.816,-8.12,-55.457,1.242
49231370,-0.232,-0.51,0.804,-5.81,-52.062,-5.39
49231380,-0.162,-0.478,0.826,0.437,-50.47,-14.735
49231390,-0.058,-0.403,0.844,1.925,-43.155,-16.695
49231400,-0.108,-0.395,0.868,-3.36,-33.74,-12.775
49231410,-0.168,-0.431,0.88,-11.655,-26.67,-10.622
49231420,-0.161,-0.456,0.896,-16.695,-23.782,-8.487
49231420,-0.171,-0.467,0.907,-20.562,-19.18,-1.89
49231440,-0.243,-0.468,0.893,-27.387,-17.99,7.07
49231440,-0.332,-0.498,0.898,-36.522,-21.157,12.53
49231460,-0.162,-0.597,0.723,-37.905,-23.52,10.885
49231460,-0.228,-0.537,0.743,-22.12,-15.33,10.517
49231480,-0.39,-0.543,0.779,-10.395,-21.332,8.067
49231480,-0.13,-0.493,0.742,1.977,-20.195,-6.947
49231490,-0.259,-0.475,0.805,10.08,-19.582,-2.187
49231500,-0.304,-0.485,0.797,13.142,-18.567,1.015
49231510,-0.215,-0.482,0.82,18.672,-18.585,-1.96
49231520,-0.175,-0.462,0.823,21.28,-16.31,-1.995
49231530,-0.159,-0.414,0.854,20.86,-12.127,-2.432
49231540,-0.166,-0.413,0.833,16.135,-6.09,-3.29
49231550,-0.195,-0.423,0.797,11.165,-4.427,-4.76
49231560,-0.1,-0.409,0.776,8.68,-0.595,-6.492
49231570,-0.075,-0.409,0.881,5.25,8.767,-3.062
49231580,-0.169,-0.498,0.89,-3.132,16.24,3.692
49231590,-0.216,-0.546,0.864,-5.267,13.93,5.81
49231600,-0.187,-0.52,0.856,0.122,8.697,8.347
49231610,-0.179,-0.476,0.856,3.097,7.052,10.587
49231620,-0.207,-0.46,0.848,0.875,9.257,8.61
49231630,-0.241,-0.468,0.848,-2.572,12.127,3.657
49231640,-0.268,-0.478,0.846,-3.867,12.827,0.262
49231650,-0.293,-0.479,0.856,-3.132,12.32,-0.052
49231660,-0.313,-0.473,0.868,-2.94,10.255,0.63
49231670,-0.328,-0.473,0.868,-3.115,7.56,1.347
49231680,-0.34,-0.476,0.862,-1.977,3.255,2.082
49231690,-0.347,-0.474,0.857,0.28,-1.277,2.765
49231700,-0.348,-0.465,0.855,2.17,-7,2.537
49231710,-0.342,-0.462,0.855,2.782,-11.777,1.82
49231720,-0.337,-0.474,0.851,3.132,-16.485,1.54
49231730,-0.342,-0.496,0.845,4.515,-20.702,2.152
49231740,-0.336,-0.51,0.841,7.595,-25.847,3.5
49231750,-0.314,-0.504,0.846,10.762,-29.977,4.812
49231760,-0.296,-0.493,0.85,12.442,-34.72,5.39
49231760,-0.262,-0.491,0.849,12.372,-38.132,4.812
49231780,-0.198,-0.484,0.851,12.162,-39.725,3.132
49231780,-0.139,-0.456,0.862,12.005,-38.185,2.45
49231800,-0.102,-0.423,0.874,10.85,-34.265,2.345
49231800,-0.057,-0.396,0.891,7.875,-27.002,2.1
49231820,-0.018,-0.376,0.895,3.377,-17.745,3.027
49231820,0.004,-0.364,0.894,-2.187,-6.527,4.602
49231830,-0.012,-0.373,0.9,-8.26,4.637,7.122
49231840,-0.047,-0.399,0.894,-13.492,14.105,9.345
49231850,-0.026,-0.425,0.885,-16.362,21.122,11.2
49231860,-0.042,-0.426,0.829,-18.987,34.02,18.725
49231870,-0.28,-0.423,0.898,-23.327,37.485,24.955
49231880,-0.354,-0.452,0.837,-27.842,30.94,22.575
49231890,-0.314,-0.492,0.777,-22.627,20.107,20.702
49231900,-0.326,-0.484,0.8,-11.165,9.047,21.175
49231910,-0.305,-0.434,0.768,1.295,1.995,19.092
49231920,-0.283,-0.414,0.77,12.915,-5.932,17.5
49231930,-0.257,-0.425,0.784,21.7,-10.5,20.65
49231940,-0.204,-0.452,0.801,28.647,-12.372,27.457
49231950,-0.179,-0.487,0.804,35.927,-8.032,35.035
49231960,-0.29,-0.489,0.754,45.36,-4.042,38.43
49231970,-0.552,-0.418,0.775,61.652,-18.567,31.237
49231980,-0.304,-0.273,0.865,72.467,-36.977,12.967
49231990,0.026,-0.22,1.038,51.327,-40.512,14.892
49232000,0.161,-0.258,1.091,17.185,-10.255,23.345
49232010,-0.033,-0.453,1.092,-7.875,26.88,26.565
49232020,-0.299,-0.558,1.029,-18.077,41.195,26.39
49232030,-0.32,-0.542,0.967,-13.947,33.39,25.445
49232040,-0.263,-0.441,0.928,-6.72,20.597,23.52
49232050,-0.287,-0.399,0.883,-7.087,12.18,19.53
49232060,-0.225,-0.436,0.855,-9.45,12.005,9.625
49232070,-0.167,-0.423,0.793,-6.527,23.397,-0.35
49232080,-0.307,-0.346,0.815,-6.685,31.57,-1.557
49232090,-0.422,-0.414,0.791,-15.33,32.322,5.53
49232100,-0.37,-0.516,0.694,-4.077,24.902,-0.857
49232110,-0.365,-0.386,0.802,20.212,16.222,-6.422
49232120,-0.417,-0.246,0.832,24.955,0.595,1.645
49232130,-0.304,-0.211,0.832,15.732,-4.865,0.49
49232140,-0.207,-0.219,0.864,0.542,-4.672,-5.11
49232150,-0.15,-0.222,0.877,-22.767,1.295,-2.205
49232160,-0.049,-0.377,0.884,-31.36,17.885,0.105
49232160,-0.064,-0.414,0.927,-29.645,44.922,6.615
49232170,-0.319,-0.35,0.967,-33.757,60.69,17.412
49232180,-0.471,-0.387,0.946,-47.652,56.962,21.367
49232190,-0.406,-0.464,0.879,-54.565,44.747,19.46
49232200,-0.255,-0.472,0.82,-51.992,39.69,18.952
49232210,-0.303,-0.501,0.827,-47.67,42.42,22.172
49232220,-0.284,-0.444,0.816,-47.652,48.055,13.16
49232230,-0.312,-0.415,0.809,-52.5,54.337,10.57
49232240,-0.425,-0.454,0.794,-64.067,56.385,15.557
49232250,-0.526,-0.546,0.76,-71.172,52.605,15.557
49232260,-0.521,-0.591,0.755,-70.612,46.567,10.202
49232270,-0.515,-0.6,0.749,-64.872,39.62,7.245
49232280,-0.57,-0.6,0.759,-56.157,30.572,4.637
49232290,-0.551,-0.612,0.746,-45.43,18.9,-0.49
49232300,-0.502,-0.589,0.723,-29.54,8.347,-5.372
49232310,-0.506,-0.521,0.727,-17.937,0.297,-6.037
49232320,-0.448,-0.457,0.733,-17.29,-2.205,-7.525
49232330,-0.405,-0.468,0.731,-19.075,-0.595,-6.685
49232340,-0.372,-0.496,0.746,-22.225,4.41,-7.175
49232350,-0.385,-0.538,0.766,-23.642,10.43,-9.38
49232360,-0.404,-0.555,0.78,-22.05,13.982,-13.982
49232370,-0.437,-0.564,0.755,-19.04,13.755,-17.395
49232380,-0.482,-0.589,0.739,-14.98,10.71,-18.655
49232390,-0.488,-0.609,0.738,-8.522,6.335,-21.805
49232400,-0.45,-0.618,0.749,1.68,-0.42,-27.055
49232410,-0.366,-0.562,0.777,12.022,-4.62,-31.08
49232420,-0.441,-0.554,0.773,15.207,-12.39,-28.892
49232430,-0.356,-0.533,0.759,21.84,-19.652,-31.64
49232440,-0.182,-0.247,0.738,22.452,-24.272,-32.865
49232450,-0.066,-0.224,0.751,-10.377,5.285,-16.1
49232460,-0.516,-0.575,0.649,-40.547,20.44,5.967
49232470,-0.555,-0.726,0.639,-40.477,15.242,2.082
49232480,-0.439,-0.608,0.728,-22.417,-8.242,2.59
49232490,-0.406,-0.473,0.797,-21.56,-22.137,8.75
49232500,-0.451,-0.523,0.773,-34.3,-29.627,15.645
49232510,-0.418,-0.647,0.694,-38.762,-32.97,17.22
49232510,-0.346,-0.623,0.693,-31.202,-30.467,8.487
49232530,-0.342,-0.54,0.72,-27.86,-24.99,5.74
49232530,-0.416,-0.569,0.753,-31.465,-21.07,7.21
49232550,-0.484,-0.636,0.771,-32.882,-19.827,2.992
49232550,-0.476,-0.655,0.797,-29.487,-22.802,-4.077
49232570,-0.427,-0.594,0.827,-25.497,-26.18,-10.097
49232570,-0.387,-0.519,0.853,-28.63,-28.787,-15.295
49232580,-0.318,-0.525,0.8,-33.075,-28.472,-18.025
49232590,-0.241,-0.482,0.782,-33.53,-22.207,-22.365
49232600,-0.258,-0.463,0.78,-35.21,-13.44,-24.36
49232610,-0.228,-0.46,0.777,-35.525,-5.897,-24.43
49232620,-0.219,-0.453,0.786,-37.625,0.175,-23.397
49232630,-0.231,-0.507,0.748,-40.18,5.337,-20.685
49232640,-0.201,-0.505,0.772,-34.002,10.255,-17.64
49232650,-0.167,-0.442,0.777,-36.592,16.712,-17.5
49232660,-0.2,-0.446,0.749,-41.212,23.152,-16.257
49232670,-0.199,-0.434,0.735,-47.932,30.397,-17.447
49232680,-0.232,-0.459,0.721,-63.35,37.187,-27.457
49232690,-0.298,-0.538,0.685,-72.537,40.145,-30.625
49232700,-0.352,-0.633,0.646,-72.695,38.99,-30.817
49232710,-0.405,-0.642,0.6,-72.082,34.387,-30.765
49232720,-0.393,-0.724,0.539,-66.885,30.957,-30.065
49232730,-0.423,-0.805,0.531,-57.662,30.695,-21.122
49232740,-0.454,-0.825,0.55,-49.84,29.312,-17.727
49232750,-0.522,-0.857,0.553,-46.707,27.475,-17.832
49232760,-0.585,-0.87,0.579,-46.97,20.702,-22.767
49232770,-0.613,-0.878,0.565,-47.862,9.835,-28.385
49232780,-0.557,-0.871,0.547,-47.442,-0.21,-35.84
49232790,-0.469,-0.832,0.511,-46.06,-6.055,-42.472
49232800,-0.367,-0.804,0.473,-43.242,-7.472,-45.622
49232810,-0.387,-0.74,0.117,-36.837,-3.167,-46.41
49232820,-0.211,-0.542,0.646,-19.005,-10.675,-46.987
49232830,0.092,-0.827,0.768,-23.24,22.785,-39.077
49232830,-0.332,-0.91,0.7,-27.3,26.95,-34.702
49232850,-0.14,-0.66,0.659,-28.192,21.56,-44.432
49232850,-0.138,-0.624,0.63,-34.597,19.915,-39.392
49232870,-0.186,-0.693,0.578,-44.082,24.605,-34.335
49232870,-0.223,-0.681,0.557,-52.045,26.652,-37.975
49232890,-0.278,-0.693,0.502,-64.61,26.285,-42.892
49232890,-0.304,-0.831,0.418,-70.105,23.66,-40.057
49232910,-0.325,-0.916,0.454,-56.875,21.577,-28.997
49232910,-0.418,-0.957,0.461,-44.17,16.45,-17.027
49232920,-0.435,-1.012,0.452,-34.072,10.272,-12.6
49232930,-0.476,-1.019,0.436,-28.962,4.812,-16.642
49232940,-0.492,-1.008,0.424,-26.302,-1.995,-22.33
49232950,-0.494,-1.008,0.396,-22.032,-11.462,-23.94
49232960,-0.428,-0.976,0.417,-16.065,-20.195,-25.2
49232970,-0.33,-0.996,0.443,-13.125,-24.727,-23.782
49232980,-0.257,-1.004,0.411,-6.685,-24.885,-22.697
49232990,-0.191,-0.969,0.39,3.167,-23.905,-20.72
49233000,-0.12,-0.949,0.382,20.37,-21.525,-16.38
49233010,-0.041,-0.856,0.402,36.102,-16.1,-12.897
49233020,-0.024,-0.811,0.458,41.142,-5.915,-8.522
49233030,-0.102,-0.862,0.528,38.29,3.29,-6.37
49233040,-0.137,-0.964,0.525,37.852,4.2,-4.322
49233050,-0.17,-1.009,0.525,40.985,1.68,-4.812
49233060,-0.162,-0.987,0.512,44.38,-2.257,-7.805
49233070,-0.132,-0.977,0.506,49.805,-4.777,-8.417
49233080,-0.158,-0.958,0.527,55.37,-7.542,-8.435
49233090,-0.199,-0.937,0.575,57.855,-13.982,-12.547
49233100,-0.502,-1.015,0.827,50.242,-45.85,-26.687
49233110,0.066,-1.201,0.862,30.607,-87.535,-65.835
49233120,0.187,-1.122,0.689,23.362,-111.982,-100.747
49233130,-0.29,-1.173,0.379,37.642,-142.205,-125.387
49233140,-0.487,-1.274,-0.126,103.915,-208.985,-146.037
49233150,-0.009,-0.819,-0.513,188.002,-261.275,-153.3
49233160,0.86,-0.218,-0.365,253.452,-227.797,-153.93
49233170,1.354,-0.007,0.202,263.952,-126.42,-123.497
49233180,1.09,-0.162,0.5,202.702,14.542,-68.775
49233190,0.207,-0.529,0.588,131.057,133.157,-20.265
49233200,-0.584,-0.789,0.729,90.65,181.23,9.537
49233210,-0.845,-0.883,0.827,78.225,158.83,23.152
49233220,-0.626,-0.811,1.082,81.27,110.53,28.437
49233230,-0.391,-0.667,1.17,71.417,70.665,23.992
49233240,-0.022,-0.715,1.09,65.345,35.332,6.562
49233250,0.214,-0.656,1.053,70.227,33.565,0.262
49233260,0.221,-0.628,1.047,63.945,44.38,2.677
49233260,0.246,-0.577,1.007,55.16,73.325,-1.102
49233280,0.243,-0.559,0.962,50.96,108.57,-1.47
49233280,0.111,-0.547,0.955,52.832,141.207,6.685
49233300,-0.096,-0.486,0.905,48.177,160.142,13.965
49233300,-0.255,-0.475,0.886,52.43,164.465,18.182
49233320,-0.398,-0.464,0.886,58.94,153.387,28.385
