time[ms],accX[g],accY[g],accZ[g],Value 1,Value 2,Value 3
49766070,-0.466,-0.316,0.881,-44.065,-103.022,-19.88
49766080,-0.431,-0.31,0.906,-32.97,-116.217,-18.917
49766090,-0.291,-0.318,0.909,-23.782,-121.502,-25.602
49766100,-0.121,-0.358,0.982,-11.427,-112.612,-27.107
49766110,-0.016,-0.409,1.031,2.047,-89.25,-20.422
49766120,0.044,-0.27,1.09,17.587,-53.392,-15.627
49766130,-0.089,-0.189,1.139,18.707,-21.822,-8.855
49766140,-0.2,-0.164,1.119,9.817,-4.095,-6.405
49766150,-0.103,-0.175,1.016,2.432,8.102,-8.015
49766160,-0.087,-0.262,0.977,-4.742,14.245,-2.292
49766170,-0.076,-0.303,0.932,-2.957,29.137,6.947
49766170,-0.027,-0.29,0.914,10.692,49.227,14.647
49766190,-0.051,-0.268,0.928,21.192,71.487,21
49766190,-0.102,-0.255,0.954,26.582,95.322,23.695
49766210,-0.148,-0.236,0.945,28.402,117.985,23.45
49766210,-0.152,-0.217,0.961,29.505,141.312,25.357
49766230,-0.196,-0.192,0.937,26.425,165.147,30.047
49766230,-0.236,-0.173,0.899,20.44,191.31,36.767
49766250,-0.276,-0.166,0.866,14.227,217.77,43.89
49766250,-0.333,-0.153,0.811,6.895,242.602,51.625
49766260,-0.425,-0.127,0.757,0.122,268.887,56.49
49766270,-0.593,-0.124,0.713,-6.772,286.912,59.132
49766280,-0.699,-0.113,0.679,-12.267,294.332,61.897
49766290,-0.752,-0.103,0.654,-15.82,292.005,62.212
49766300,-0.793,-0.074,0.605,-19.232,285.285,59.325
49766310,-0.79,-0.066,0.571,-20.842,276.797,57.242
49766320,-0.715,-0.023,0.53,-24.062,274.732,56.192
49766330,-0.719,-0.042,0.445,-30.152,278.25,58.66
49766340,-0.788,-0.043,0.414,-33.53,283.465,56.962
49766350,-0.877,-0.069,0.35,-38.36,283.307,55.545
49766360,-0.954,-0.128,0.3,-33.687,275.205,55.912
49766370,-0.971,-0.139,0.303,-22.207,261.59,54.022
49766380,-1.056,-0.114,0.301,-19.057,243.67,48.65
49766390,-1.131,-0.138,0.274,-19.302,219.275,42.21
49766400,-1.059,-0.152,0.274,-13.282,196.63,31.587
49766410,-1.049,-0.139,0.271,-8.522,175.735,21.052
49766420,-1.05,-0.14,0.267,-3.692,156.1,14.122
49766430,-0.996,-0.113,0.236,5.53,139.86,8.697
49766440,-0.922,-0.048,0.232,6.982,130.182,1.645
49766450,-0.958,-0.057,0.192,1.207,123.445,-0.752
49766460,-0.973,-0.111,0.156,-0.665,117.897,-0.56
49766470,-1.001,-0.106,0.138,0.612,114.975,-4.935
49766480,-1.088,-0.106,0.15,-5.477,104.65,-8.977
49766490,-1.053,-0.123,0.138,-7.21,94.29,-5.337
49766500,-1.052,-0.091,0.128,-1.26,84.735,8.627
49766510,-1.024,-0.034,0.15,-6.037,79.03,14.787
49766520,-1.074,-0.053,0.135,-15.907,77.735,13.772
49766530,-1.12,-0.091,0.098,-21.647,72.485,11.34
49766540,-1.107,-0.142,0.07,-24.92,63.612,8.925
49766550,-1.08,-0.164,0.05,-23.607,54.827,7.962
49766560,-1.025,-0.148,0.052,-17.237,48.807,8.12
49766570,-0.946,-0.1,0.056,-11.2,48.947,10.08
49766580,-0.908,-0.06,0.063,-10.57,54.932,13.055
49766580,-0.915,-0.041,0.063,-14.42,64.575,16.94
49766590,-1.03,-0.048,0.07,-19.635,70.927,20.457
49766600,-1.159,-0.083,0.056,-25.48,64.312,19.215
49766610,-1.015,-0.067,0.033,-27.282,51.135,12.53
49766620,-1.026,-0.023,0.018,-30.205,41.667,13.072
49766630,-1.044,-0.05,-0.019,-34.807,34.755,11.62
49766640,-1.074,-0.133,-0.065,-35.175,28.945,9.432
49766650,-1.082,-0.197,-0.085,-27.335,19.775,6.755
49766660,-1.059,-0.16,-0.065,-12.705,10.167,4.55
49766670,-1.097,-0.11,-0.03,-2.082,-1.155,4.252
49766680,-1.029,-0.099,-0.019,3.08,-7.805,1.032
49766690,-0.999,-0.086,-0.019,2.887,-10.045,0.367
49766700,-0.955,-0.025,0.002,0.542,-7.857,-0.192
49766710,-0.983,0.001,0,-6.177,-3.92,-0.84
49766720,-0.992,0.015,-0.012,-15.05,0.507,-1.172
49766730,-1.005,0.023,-0.014,-23.45,4.147,0.402
49766740,-1.026,-0.032,-0.029,-31.045,7.595,0.647
49766750,-1.002,-0.095,-0.055,-34.247,11.83,-0.822
49766760,-1.036,-0.152,-0.074,-31.097,13.737,-0.455
49766770,-1.019,-0.171,-0.088,-22.505,14.297,-0.472
49766780,-0.991,-0.112,-0.073,-13.842,15.767,0.157
49766790,-1.018,-0.047,-0.069,-10.78,14.98,2.782
49766800,-0.997,-0.04,-0.068,-10.045,16.117,2.887
49766810,-1.029,-0.054,-0.074,-10.605,15.19,3.535
49766820,-1.043,-0.05,-0.085,-12.215,12.705,4.147
49766830,-1.054,-0.066,-0.086,-11.777,8.12,3.237
49766840,-1.056,-0.095,-0.098,-11.025,2.887,2.187
49766850,-1.035,-0.099,-0.102,-8.225,-1.767,0.98
49766860,-1.026,-0.108,-0.105,-5.617,-4.445,0.647
49766870,-1.022,-0.128,-0.107,-3.045,-5.617,0.735
49766880,-1.032,-0.131,-0.104,1.557,-6.545,1.697
49766890,-1.029,-0.092,-0.08,6.58,-7.857,3.027
49766900,-1.012,-0.065,-0.053,9.187,-9.537,3.64
49766910,-0.962,-0.049,-0.039,10.255,-8.785,3.797
49766920,-0.929,-0.027,-0.025,9.362,-4.532,5.6
49766920,-0.946,-0.042,-0.026,5.635,2.152,7.612
49766940,-0.946,-0.076,-0.042,3.517,9.012,8.47
49766940,-0.981,-0.084,-0.058,4.515,15.172,9.852
49766960,-1.012,-0.087,-0.062,6.037,19.232,11.392
49766960,-1.053,-0.087,-0.054,8.365,22.4,12.407
49766980,-1.134,-0.063,-0.061,9.152,19.407,12.687
49766980,-1.098,-0.037,-0.1,8.4,13.58,10.167
49767000,-1.065,-0.018,-0.062,8.977,6.335,6.352
49767000,-1.059,-0.081,-0.08,2.222,2.03,3.08
49767010,-0.997,-0.067,-0.129,2.292,-4.375,1.68
49767020,-0.989,-0.044,-0.07,7.455,-8.242,4.042
49767030,-0.946,-0.076,-0.112,1.89,-7.402,5.705
49767040,-0.989,-0.06,-0.075,5.827,-6.895,10.15
49767050,-1.021,-0.054,-0.07,4.55,-5.53,10.762
49767060,-1.021,-0.057,-0.079,2.817,-5.18,9.607
49767070,-1.061,-0.044,-0.069,3.71,-6.772,8.347
49767080,-1.069,-0.049,-0.082,0,-9.642,5.075
49767090,-1.035,-0.063,-0.093,-0.332,-13.457,1.837
49767100,-1.025,-0.062,-0.092,1.225,-15.855,1.032
49767110,-1.061,-0.054,-0.088,3.342,-20.125,0.367
49767120,-1.032,-0.037,-0.088,4.76,-25.917,-2.012
49767130,-0.941,-0.029,-0.092,5.022,-27.982,-3.36
49767140,-0.892,-0.029,-0.088,4.497,-22.89,-0.7
49767150,-0.915,-0.029,-0.072,3.955,-13.387,3.692
49767160,-0.98,-0.037,-0.054,3.167,-3.552,6.597
49767170,-1.054,-0.057,-0.037,2.642,1.837,7.682
49767180,-1.084,-0.064,-0.03,2.59,2.992,5.985
49767190,-1.076,-0.081,-0.039,3.465,1.61,3.272
49767200,-1.053,-0.083,-0.03,5.565,-1.137,1.89
49767210,-1.009,-0.087,-0.036,8.225,-4.882,1.505
49767220,-0.941,-0.055,-0.038,11.182,-4.97,0.77
49767230,-0.954,-0.042,-0.05,13.807,-2.887,0.857
49767240,-0.892,-0.015,-0.061,14.507,1.102,0.577
49767250,-0.939,-0.022,-0.07,10.202,9.625,3.902
49767260,-0.958,-0.067,-0.1,5.215,17.395,5.39
49767260,-1.012,-0.054,-0.094,5.057,24.115,7.017
49767280,-1.106,-0.039,-0.087,2.835,23.765,9.642
49767280,-1.114,-0.056,-0.075,0.455,21.017,8.837
49767300,-1.038,-0.059,-0.07,-0.35,18.27,7.542
49767300,-1.011,-0.063,-0.062,0.647,21.262,7.927
49767320,-1.031,-0.057,-0.07,1.452,24.097,9.397
49767320,-1.027,-0.05,-0.071,3.132,26.565,10.622
49767330,-1.103,-0.044,-0.092,4.34,24.027,11.165
49767340,-1.047,-0.007,-0.119,3.675,16.607,8.785
49767350,-0.993,0.006,-0.134,2.082,12.757,7.455
49767360,-1.01,0.006,-0.148,-2.397,11.322,6.93
49767370,-1.018,0.012,-0.145,-5.705,8.33,4.585
49767380,-1.028,0,-0.135,-9.065,3.482,2.45
49767390,-1.007,-0.017,-0.129,-10.727,-2.222,0.49
49767400,-1.004,-0.04,-0.112,-9.835,-7.752,0.192
49767410,-1.01,-0.039,-0.091,-6.982,-12.827,1.032
49767420,-1.009,-0.028,-0.073,-4.322,-16.222,2.1
49767430,-0.992,-0.039,-0.071,-3.027,-16.292,3.01
49767440,-1.022,-0.056,-0.07,-1.155,-14.017,5.215
49767450,-1.031,-0.044,-0.071,0.735,-11.882,6.23
49767460,-1.008,-0.04,-0.086,0.647,-8.417,6.195
49767470,-1.001,-0.045,-0.101,-0.07,-4.515,7.315
49767480,-1.01,-0.028,-0.109,-0.98,-0.367,8.767
49767490,-1.022,-0.013,-0.123,-2.992,2.852,8.662
49767500,-1.047,-0.025,-0.142,-5.617,5.215,7.857
49767510,-1.059,-0.022,-0.15,-7.122,5.827,6.265
49767520,-1.055,-0.018,-0.148,-7.787,5.075,4.462
49767530,-1.043,-0.017,-0.143,-7.945,3.867,3.517
49767540,-1.054,-0.012,-0.126,-7.997,2.485,3.57
49767550,-1.068,-0.006,-0.105,-8.715,-0.472,2.485
49767560,-1.073,0,-0.084,-10.132,-5.04,-0.245
49767570,-1.076,-0.016,-0.07,-12.057,-11.147,-3.587
49767580,-1.077,-0.038,-0.06,-12.932,-17.412,-6.3
49767590,-1.109,-0.04,-0.04,-12.407,-25.392,-8.645
49767600,-1.181,-0.043,-0.026,-12.11,-37.625,-12.582
49767610,-1.28,-0.076,-0.031,-11.69,-57.837,-18.585
49767620,-1.303,-0.116,-0.052,-8.557,-85.102,-25.532
49767630,-1.265,-0.108,-0.051,-1.907,-113.05,-30.31
49767640,-1.258,-0.08,-0.035,3.132,-137.532,-33.127
49767650,-1.266,-0.069,-0.011,3.29,-158.987,-38.01
49767660,-1.294,-0.094,-0.04,3.902,-182.997,-46.55
49767670,-1.121,-0.098,-0.066,9.432,-199.937,-49.84
49767670,-0.973,-0.103,-0.071,14.7,-202.457,-47.547
49767690,-0.92,-0.075,-0.039,15.61,-191.73,-41.912
49767690,-0.913,-0.05,-0.011,11.077,-175.42,-38.657
49767710,-0.833,-0.071,0.02,6.947,-155.067,-34.142
49767710,-0.572,0.06,0.029,-1.75,-115.64,-25.147
49767730,-1.07,-0.042,0.295,-15.925,-81.13,-7.472
49767730,-1.162,-0.124,0.169,-38.832,-78.785,-21.455
49767750,-0.992,-0.044,0.279,-31.01,-87.202,-22.032
49767750,-1.09,-0.126,0.292,-31.762,-106.242,-18.97
49767760,-1.018,-0.173,0.281,-42.087,-123.882,-31.395
49767770,-0.873,-0.14,0.309,-43.89,-136.22,-39.445
49767780,-0.811,-0.172,0.293,-41.965,-140.822,-44.345
49767790,-0.847,-0.201,0.301,-31.36,-145.005,-54.792
49767800,-0.687,-0.244,0.267,-7.542,-147.35,-65.082
49767810,-0.612,-0.213,0.34,18.987,-143.22,-61.232
49767820,-0.73,-0.166,0.401,27.002,-136.955,-50.12
49767830,-0.771,-0.167,0.445,28.997,-131.46,-45.447
49767840,-0.741,-0.184,0.479,29.907,-125.037,-42.542
49767850,-0.769,-0.18,0.528,28.542,-117.057,-37.782
49767860,-0.822,-0.15,0.577,21.122,-106.767,-32.952
49767870,-0.836,-0.155,0.614,8.452,-96.127,-29.995
49767880,-0.857,-0.195,0.639,-5.652,-84.822,-27.807
49767890,-0.877,-0.246,0.647,-14.63,-74.322,-28.77
49767900,-0.901,-0.256,0.671,-22.96,-66.22,-25.567
49767910,-0.909,-0.266,0.689,-34.055,-62.177,-23.065
49767920,-0.945,-0.232,0.749,-43.802,-63.175,-22.96
49767930,-0.907,-0.182,0.767,-57.312,-74.042,-20.037
49767940,-0.819,-0.189,0.753,-72.152,-82.74,-12.53
49767950,-0.723,-0.234,0.683,-85.207,-82.267,-7.385
49767960,-0.656,-0.312,0.616,-86.852,-72.52,2.362
49767970,-0.648,-0.356,0.567,-80.885,-56.752,13.282
49767980,-0.648,-0.369,0.499,-73.465,-38.237,13.545
49767990,-0.656,-0.388,0.453,-61.092,-19.267,10.167
49768000,-0.648,-0.386,0.4,-48.422,-5.81,9.66
49768010,-0.645,-0.408,0.364,-33.425,0.437,18.41
49768010,-0.74,-0.428,0.358,-14.717,0.98,30.94
49768030,-0.814,-0.374,0.41,6.737,-0.927,38.482
49768030,-0.832,-0.29,0.45,14.752,-6.545,37.152
49768050,-0.857,-0.246,0.482,10.465,-13.335,29.085
49768050,-0.905,-0.242,0.482,-0.91,-23.922,17.745
49768070,-0.92,-0.241,0.462,-12.512,-38.29,7.262
49768070,-0.875,-0.215,0.436,-21.84,-52.29,1.172
49768080,-0.842,-0.177,0.434,-29.82,-61.967,-1.12
49768090,-0.807,-0.156,0.439,-40.81,-69.475,-2.415
49768100,-0.741,-0.151,0.439,-54.547,-70.787,-3.465
49768110,-0.69,-0.167,0.447,-66.5,-67.025,-2.8
49768120,-0.661,-0.199,0.45,-75.32,-59.237,-0.7
49768130,-0.67,-0.175,0.45,-86.152,-48.772,-6.055
49768140,-0.699,-0.269,0.413,-85.312,-39.55,-6.685
49768150,-0.898,-0.426,0.429,-55.982,-43.732,23.537
49768160,-0.765,-0.337,0.482,-35.367,-48.877,7.91
49768170,-0.722,-0.212,0.502,-22.295,-54.477,3.937
49768180,-0.79,-0.195,0.572,-22.487,-60.655,3.237
49768190,-0.814,-0.278,0.636,-29.207,-66.99,7.49
49768200,-0.813,-0.365,0.591,-28.665,-71.872,5.617
49768210,-0.694,-0.414,0.612,-13.212,-75.442,-1.312
49768220,-0.743,-0.349,0.763,-1.417,-73.307,-6.107
49768230,-0.76,-0.319,0.8,-3.412,-74.357,-12.88
49768240,-0.663,-0.324,0.796,-5.635,-74.112,-21.017
49768250,-0.632,-0.352,0.778,-2.082,-71.592,-25.182
49768260,-0.581,-0.345,0.765,2.397,-63.927,-27.335
49768270,-0.549,-0.333,0.751,10.57,-53.532,-23.817
49768280,-0.484,-0.27,0.742,18.165,-38.657,-21.175
49768290,-0.471,-0.222,0.729,26.285,-21.735,-12.215
49768300,-0.49,-0.211,0.695,31.832,-5.407,-1.225
49768310,-0.52,-0.213,0.679,39.112,8.662,4.725
49768320,-0.612,-0.216,0.686,45.815,16.922,5.635
49768330,-0.712,-0.205,0.699,48.982,15.102,2.502
49768340,-0.772,-0.224,0.704,48.282,4.585,-5.197
49768350,-0.781,-0.242,0.695,45.605,-10.832,-14.035
49768360,-0.737,-0.235,0.683,42.122,-26.197,-21.98
49768370,-0.713,-0.278,0.702,43.89,-38.955,-29.137
49768380,-0.669,-0.262,0.719,43.645,-47.477,-33.25
49768390,-0.608,-0.254,0.744,40.39,-49.052,-36.907
49768400,-0.573,-0.268,0.778,36.732,-46.095,-39.83
49768410,-0.565,-0.304,0.794,34.02,-40.687,-37.992
49768420,-0.546,-0.352,0.805,35.665,-34.247,-34.422
49768420,-0.52,-0.358,0.831,40.617,-25.305,-31.972
49768440,-0.491,-0.315,0.852,43.75,-14.21,-30.45
49768440,-0.541,-0.272,0.884,43.417,-6.86,-27.702
49768460,-0.579,-0.256,0.885,37.257,-6.457,-26.337
49768460,-0.569,-0.251,0.861,28.315,-10.115,-23.695
49768480,-0.523,-0.243,0.838,21.14,-13.142,-20.475
49768480,-0.507,-0.251,0.818,15.452,-12.04,-15.242
49768500,-0.489,-0.27,0.808,13.23,-7.455,-12.81
49768500,-0.489,-0.279,0.795,15.067,-1.505,-9.275
49768510,-0.492,-0.286,0.792,20.737,4.182,-7.297
49768520,-0.527,-0.252,0.812,27.562,8.312,-7
49768530,-0.555,-0.221,0.809,29.767,7.367,-10.08
49768540,-0.536,-0.206,0.807,30.537,4.83,-13.667
49768550,-0.544,-0.195,0.817,27.352,0.91,-13.037
49768560,-0.574,-0.182,0.816,21.822,-2.66,-12.022
49768570,-0.579,-0.196,0.808,16.135,-5.932,-11.62
49768580,-0.552,-0.234,0.793,9.485,-4.672,-10.237
49768590,-0.571,-0.307,0.805,7.35,-1.627,-9.24
49768600,-0.594,-0.365,0.799,11.987,1.767,-10.395
49768610,-0.611,-0.349,0.802,22.365,2.607,-12.407
49768620,-0.583,-0.281,0.799,29.75,3.395,-14.472
49768630,-0.554,-0.201,0.812,29.19,4.357,-15.505
49768640,-0.587,-0.186,0.822,17.552,5.477,-11.742
49768650,-0.572,-0.225,0.801,7.245,7.525,-9.345
49768660,-0.556,-0.251,0.802,4.252,9.415,-8.277
49768670,-0.582,-0.248,0.798,2.1,10.115,-7.087
49768680,-0.608,-0.255,0.791,1.977,8.68,-7.332
49768690,-0.601,-0.247,0.811,2.887,5.95,-8.347
49768700,-0.564,-0.262,0.802,2.555,5.215,-8.417
49768710,-0.549,-0.264,0.778,3.867,7.367,-7
49768720,-0.563,-0.244,0.778,4.9,11.217,-5.74
49768730,-0.565,-0.247,0.765,4.287,13.335,-5.267
49768740,-0.57,-0.271,0.743,5.477,16.1,-5.425
49768750,-0.603,-0.292,0.739,9.1,17.447,-6.772
49768760,-0.617,-0.267,0.756,12.337,16.782,-8.05
49768760,-0.593,-0.257,0.754,14.367,17.762,-10.36
49768780,-0.624,-0.277,0.757,14.087,20.755,-10.727
49768780,-0.653,-0.292,0.745,14.91,22.12,-12.617
49768800,-0.655,-0.289,0.759,17.202,24.36,-16.467
49768800,-0.667,-0.294,0.748,17.762,25.602,-21.052
49768820,-0.672,-0.297,0.768,19.267,29.347,-27.667
49768820,-0.71,-0.245,0.825,20.475,33.792,-35.63
49768830,-0.757,-0.21,0.846,15.96,30.432,-43.12
49768840,-0.646,-0.169,0.831,11.165,29.61,-49.91
49768850,-0.729,-0.151,0.829,-5.092,29.032,-49.21
49768860,-0.674,-0.21,0.771,-16.222,25.375,-53.935
49768870,-0.527,-0.218,0.753,-14.192,23.485,-55.317
49768880,-0.602,-0.212,0.758,-14.297,23.362,-50.295
49768890,-0.57,-0.216,0.74,-12.25,20.317,-47.95
49768900,-0.596,-0.252,0.742,-10.395,15.102,-46.462
49768910,-0.599,-0.266,0.738,-8.785,8.767,-45.657
49768920,-0.599,-0.306,0.744,-5.092,2.765,-43.995
49768930,-0.591,-0.314,0.717,-1.47,-3.062,-40.285
49768940,-0.592,-0.299,0.72,1.785,-6.772,-36.575
49768950,-0.582,-0.317,0.708,0.157,-8.347,-32.725
49768960,-0.613,-0.359,0.745,-0.315,-10.605,-28.612
49768970,-0.623,-0.34,0.755,-0.402,-17.115,-24.745
49768980,-0.571,-0.291,0.765,-1.82,-21.332,-18.917
49768990,-0.582,-0.242,0.795,-7.21,-27.212,-9.922
49769000,-0.605,-0.251,0.793,-18.655,-37.835,1.435
49769010,-0.518,-0.343,0.78,-25.532,-46.007,10.552
49769020,-0.434,-0.422,0.752,-27.107,-43.522,13.58
49769030,-0.442,-0.417,0.728,-20.3,-33.862,8.75
49769040,-0.465,-0.334,0.745,-12.827,-24.15,-1.102
49769050,-0.53,-0.303,0.753,-10.902,-17.167,-2.59
49769060,-0.558,-0.32,0.736,-12.25,-13.65,-0.315
49769070,-0.576,-0.352,0.723,-11.235,-10.797,-0.175
49769080,-0.602,-0.352,0.723,-8.102,-10.395,-0.385
49769090,-0.59,-0.347,0.719,-5.652,-10.605,-1.487
49769100,-0.578,-0.351,0.718,-3.097,-10.027,-2.152
49769110,-0.579,-0.344,0.729,-0.35,-8.785,-2.66
49769120,-0.554,-0.344,0.738,1.137,-6.527,-3.622
49769130,-0.556,-0.334,0.741,2.835,-3.272,-3.447
49769140,-0.576,-0.317,0.745,3.15,-0.385,-2.677
49769150,-0.598,-0.325,0.757,1.277,1.102,-2.59
49769160,-0.565,-0.359,0.744,0.402,1.977,-3.5
49769170,-0.563,-0.35,0.745,3.99,3.08,-3.902
49769170,-0.596,-0.319,0.744,4.48,3.027,-3.15
49769190,-0.604,-0.321,0.747,2.362,1.102,-3.43
49769190,-0.579,-0.337,0.746,0.21,-1.347,-4.025
49769210,-0.574,-0.327,0.759,-0.56,-2.432,-3.535
49769210,-0.582,-0.319,0.773,-1.557,-3.797,-2.065
49769230,-0.562,-0.324,0.788,-2.152,-4.007,0.14
49769230,-0.576,-0.333,0.809,-3.552,-5.057,2.572
49769250,-0.554,-0.339,0.782,-5.25,-5.67,1.557
49769250,-0.52,-0.322,0.794,-2.38,-4.637,-0.227
49769260,-0.529,-0.302,0.802,-3.01,-2.677,-0.122
49769270,-0.525,-0.306,0.784,-5.74,-1.47,-2.747
49769280,-0.511,-0.316,0.764,-6.79,0.402,-3.202
49769290,-0.522,-0.335,0.741,-6.475,1.732,-1.102
49769300,-0.578,-0.335,0.757,-6.23,0.052,1.207
49769310,-0.575,-0.335,0.759,-9.607,-4.917,2.275
49769320,-0.518,-0.356,0.745,-10.622,-6.982,2.817
49769330,-0.508,-0.365,0.723,-8.61,-5.39,4.707
49769340,-0.539,-0.349,0.707,-4.62,-3.78,6.912
49769350,-0.568,-0.341,0.708,-1.522,-5.11,8.907
49769360,-0.543,-0.359,0.691,1.907,-5.967,9.065
49769370,-0.569,-0.331,0.744,6.842,-5.267,9.117
49769380,-0.622,-0.239,0.75,1.487,-8.312,9.205
49769390,-0.512,-0.239,0.874,-14.437,-1.085,10.062
49769400,-0.711,-0.464,0.819,-34.037,7.647,14.367
49769410,-0.756,-0.527,0.781,-27.23,0.49,8.207
49769420,-0.553,-0.342,0.793,-16.415,-3.132,-1.12
49769430,-0.589,-0.293,0.806,-19.932,-2.8,-1.452
49769440,-0.616,-0.367,0.728,-25.655,-4.025,-1.662
49769450,-0.539,-0.362,0.701,-21.857,-6.597,-3.85
49769460,-0.516,-0.332,0.686,-19.285,-6.615,-2.45
49769470,-0.524,-0.378,0.663,-16.835,-5.53,-0.315
49769480,-0.502,-0.403,0.673,-11.007,-2.642,2.257
49769490,-0.552,-0.422,0.692,-5.232,-0.595,5.687
49769500,-0.563,-0.435,0.711,-2.03,-0.245,7.332
49769510,-0.579,-0.441,0.746,0.997,-1.4,8.54
49769510,-0.562,-0.438,0.745,1.837,-5.197,8.382
49769530,-0.498,-0.403,0.742,3.85,-4.235,8.26
49769530,-0.522,-0.382,0.714,5.81,-3.885,12.022
49769550,-0.503,-0.363,0.716,7.91,-3.92,15.4
49769550,-0.462,-0.342,0.725,10.535,-2.607,19.145
49769570,-0.483,-0.348,0.721,12.337,1.015,23.905
49769570,-0.528,-0.361,0.722,13.807,4.392,27.23
49769580,-0.577,-0.371,0.716,15.277,5.267,29.085
49769590,-0.603,-0.366,0.722,16.572,5.215,29.575
49769600,-0.656,-0.372,0.707,16.87,2.712,28.962
49769610,-0.653,-0.352,0.714,19.53,-1.382,26.18
49769620,-0.628,-0.31,0.729,20.457,-2.362,20.422
49769630,-0.593,-0.3,0.739,18.585,-0.525,5.705
49769640,-0.584,-0.263,0.743,16.905,2.572,-0.56
49769650,-0.673,-0.277,0.741,13.51,0.14,15.662
49769660,-0.647,-0.309,0.723,10.552,-5.705,17.587
49769670,-0.599,-0.309,0.75,4.515,-11.147,13.16
49769680,-0.615,-0.372,0.815,1.54,-13.177,9.17
49769690,-0.671,-0.344,0.802,7.052,-17.605,6.23
49769700,-0.658,-0.225,0.853,2.38,-25.987,4.76
49769710,-0.581,-0.234,0.84,-4.165,-25.882,1.505
49769720,-0.662,-0.238,0.825,-6.317,-21.14,-0.665
49769730,-0.649,-0.229,0.815,-9.117,-18.287,-4.357
49769740,-0.559,-0.241,0.801,-11.392,-13.37,-8.487
49769750,-0.584,-0.264,0.777,-14.49,-8.295,-8.575
49769760,-0.596,-0.272,0.755,-14.997,-4.112,-9.275
49769770,-0.546,-0.262,0.717,-14.455,-0.822,-8.977
49769780,-0.505,-0.25,0.702,-13.037,5.477,-5.652
49769790,-0.523,-0.268,0.686,-9.887,12.757,-1.995
49769800,-0.533,-0.286,0.694,-6.23,19.477,1.155
49769810,-0.53,-0.302,0.667,-0.402,21.7,3.062
49769820,-0.526,-0.303,0.581,8.575,23.24,3.552
49769830,-0.613,-0.291,0.513,21.245,20.702,4.165
49769840,-0.727,-0.283,0.667,28.735,15.522,-0.175
49769850,-0.843,-0.345,0.853,20.86,9.677,-6.912
49769860,-0.845,-0.417,0.938,6.737,3.027,-11.585
49769870,-0.743,-0.418,0.968,-1.365,-1.837,-20.895
49769880,-0.647,-0.336,0.926,-8.33,-7.63,-28.035
49769890,-0.529,-0.264,0.824,-14,-12.652,-29.715
49769900,-0.447,-0.301,0.774,-17.64,-14.63,-26.407
49769910,-0.381,-0.362,0.703,-17.902,-12.075,-22.627
49769920,-0.435,-0.356,0.716,-13.23,-8.05,-14.105
49769920,-0.527,-0.368,0.721,-10.255,-7.052,-7.017
49769930,-0.553,-0.428,0.716,-8.872,-8.33,-4.917
49769940,-0.597,-0.433,0.741,-6.02,-9.87,-3.71
49769950,-0.681,-0.425,0.742,-6.195,-11.952,-4.042
49769960,-0.699,-0.429,0.702,-7.315,-16.765,-8.067
49769970,-0.662,-0.407,0.703,-4.602,-21.21,-12.04
49769980,-0.655,-0.344,0.729,-1.19,-23.59,-12.162
49769990,-0.677,-0.261,0.78,0.822,-26.67,-4.585
49770000,-0.648,-0.206,0.858,0.035,-28.157,-6.72
49770010,-0.631,-0.167,0.918,-6.23,-26.18,-16.817
49770020,-0.64,-0.159,0.952,-13.72,-24.307,-24.29
49770030,-0.605,-0.167,0.937,-23.59,-25.585,-30.17
49770040,-0.538,-0.22,0.876,-33.127,-27.352,-32.025
49770050,-0.524,-0.281,0.782,-38.29,-29.47,-31.517
49770060,-0.475,-0.314,0.72,-36.697,-29.89,-31.622
49770070,-0.479,-0.355,0.728,-34.702,-27.562,-29.277
49770080,-0.491,-0.424,0.675,-35.035,-24.867,-27.282
49770090,-0.502,-0.48,0.667,-31.307,-20.772,-24.85
49770100,-0.547,-0.511,0.647,-24.447,-20.177,-22.96
49770110,-0.522,-0.495,0.636,-16.135,-21.472,-22.522
49770120,-0.464,-0.442,0.719,-11.392,-20.387,-18.707
49770130,-0.509,-0.504,0.684,-15.82,-18.462,-13.825
49770140,-0.462,-0.471,0.688,-11.672,-18.55,-12.39
49770150,-0.421,-0.423,0.769,-6.125,-18.567,-6.317
49770160,-0.38,-0.463,0.721,-10.097,-15.855,-1.592
49770170,-0.376,-0.428,0.719,-6.44,-13.632,0.997
49770180,-0.352,-0.408,0.709,-5.407,-9.642,-0.665
49770190,-0.387,-0.411,0.734,-5.372,-5.18,-0.017
49770200,-0.437,-0.426,0.75,-4.077,-2.38,0.122
49770210,-0.463,-0.429,0.763,-3.5,-2.205,-0.385
49770220,-0.492,-0.428,0.752,-3.815,-4.427,-0.997
49770230,-0.531,-0.412,0.785,-3.727,-7.192,-1.96
49770240,-0.557,-0.425,0.837,-7.647,-10.552,-3.115
49770250,-0.594,-0.456,0.854,-14.122,-14.472,-4.567
49770260,-0.599,-0.443,0.878,-18.182,-19.005,-7.682
49770260,-0.573,-0.409,0.883,-22.89,-20.93,-10.43
49770280,-0.572,-0.372,0.881,-28.017,-22.295,-12.092
49770280,-0.532,-0.344,0.882,-33.897,-22.505,-15.102
49770300,-0.478,-0.327,0.865,-39.69,-19.897,-19.267
49770300,-0.471,-0.356,0.851,-45.412,-17.377,-19.617
49770320,-0.434,-0.404,0.82,-48.737,-12.967,-21.087
49770320,-0.487,-0.449,0.789,-52.5,-9.852,-23.817
49770330,-0.497,-0.503,0.755,-54.267,-9.17,-28.315
49770340,-0.504,-0.54,0.724,-52.377,-9.415,-31.552
49770350,-0.545,-0.549,0.696,-49.717,-11.672,-30.59
49770360,-0.544,-0.581,0.648,-46.392,-15.137,-28.245
49770370,-0.541,-0.629,0.602,-40.757,-19.547,-26.6
49770380,-0.559,-0.622,0.622,-33.092,-25.497,-25.147
49770390,-0.523,-0.633,0.618,-27.947,-33.495,-21.945
49770400,-0.513,-0.648,0.631,-22.347,-42.42,-19.162
49770410,-0.475,-0.617,0.671,-15.015,-50.067,-17.675
49770420,-0.432,-0.573,0.701,-10.325,-54.792,-15.382
49770430,-0.379,-0.48,0.715,-11.742,-56.455,-13.842
49770440,-0.297,-0.47,0.73,-13.352,-55.317,-13.632
49770450,-0.235,-0.457,0.749,-13.877,-50.435,-12.057
49770460,-0.208,-0.466,0.772,-15.085,-43.505,-10.71
49770470,-0.194,-0.488,0.767,-17.64,-36.312,-9.887
49770480,-0.185,-0.475,0.764,-19.547,-29.295,-8.05
49770490,-0.123,-0.465,0.76,-20.3,-20.93,-6.055
49770500,-0.1,-0.435,0.786,-23.257,-9.485,-1.085
49770510,-0.085,-0.479,0.758,-31.29,1.732,2.957
49770520,-0.09,-0.558,0.714,-35.717,13.492,4.725
49770530,-0.264,-0.718,0.689,-27.947,21.157,13.597
49770540,-0.262,-0.681,0.7,-19.495,25.27,12.915
49770550,-0.344,-0.717,0.663,-18.41,27.247,14.227
49770560,-0.375,-0.763,0.602,-13.212,27.912,12.635
49770570,-0.411,-0.724,0.597,-1.767,25.917,12.88
49770580,-0.421,-0.69,0.582,7.857,22.295,16.87
49770590,-0.411,-0.666,0.597,14.98,19.215,21.84
49770600,-0.398,-0.644,0.618,20.58,17.01,25.025
49770600,-0.389,-0.635,0.654,25.305,16.397,25.777
49770620,-0.416,-0.598,0.694,30.082,15.767,26.985
49770620,-0.443,-0.559,0.719,32.235,14.315,27.615
49770640,-0.428,-0.532,0.729,31.272,12.495,24.85
49770640,-0.424,-0.488,0.752,31.657,11.987,25.077
49770660,-0.411,-0.46,0.783,29.225,12.407,26.075
49770660,-0.427,-0.472,0.788,25.217,12.67,27.895
49770670,-0.405,-0.484,0.75,21.577,13.107,24.36
49770680,-0.418,-0.48,0.712,19.425,16.59,20.807
49770690,-0.488,-0.488,0.721,19.46,19.32,17.867
49770700,-0.517,-0.505,0.73,17.92,18.567,16.24
49770710,-0.541,-0.535,0.721,17.307,14.542,17.762
49770720,-0.531,-0.541,0.721,18.48,10.325,18.48
49770730,-0.51,-0.547,0.696,19.617,7.28,16.397
49770740,-0.504,-0.546,0.673,21.84,5.337,15.662
49770750,-0.492,-0.538,0.669,26.11,3.36,16.852
49770760,-0.499,-0.526,0.69,29.382,2.275,17.36
49770770,-0.506,-0.511,0.71,31.272,1.697,15.47
49770780,-0.54,-0.522,0.721,31.815,1.54,12.915
49770790,-0.566,-0.505,0.743,31.867,-0.35,8.785
49770800,-0.544,-0.452,0.756,32.55,-2.782,4.952
49770810,-0.497,-0.407,0.778,31.99,-4.602,4.462
49770820,-0.458,-0.386,0.806,29.4,-4.305,3.255
49770830,-0.41,-0.353,0.825,27.09,-3.552,4.69
49770840,-0.383,-0.339,0.84,25.567,-2.117,7
49770850,-0.372,-0.338,0.84,21.385,0.455,10.92
49770860,-0.432,-0.394,0.818,17.237,3.902,13.107
49770870,-0.515,-0.427,0.816,14.385,4.707,12.442
49770880,-0.581,-0.443,0.804,10.552,2.38,9.135
49770890,-0.594,-0.457,0.789,7.21,-2.415,4.882
49770900,-0.582,-0.447,0.767,6.86,-7.105,1.592
49770910,-0.574,-0.417,0.781,6.282,-10.867,-1.12
49770920,-0.562,-0.412,0.798,4.62,-13.72,-2.73
49770930,-0.562,-0.412,0.818,3.272,-16.397,-4.025
49770940,-0.543,-0.396,0.82,1.225,-19.005,-7.227
49770950,-0.509,-0.37,0.834,-0.297,-21.14,-9.047
49770960,-0.499,-0.353,0.821,-2.275,-22.977,-5.932
49770970,-0.473,-0.348,0.822,-5.25,-23.537,-4.112
49770980,-0.432,-0.361,0.822,-9.047,-21.98,-6.965
49770990,-0.421,-0.372,0.825,-12.705,-19.18,-9.327
49771000,-0.398,-0.38,0.827,-16.065,-16.782,-9.327
49771010,-0.381,-0.409,0.8,-19.39,-14.595,-8.067
49771010,-0.369,-0.451,0.754,-20.877,-12.18,-7.7
49771030,-0.353,-0.466,0.736,-19.39,-8.855,-6.842
49771030,-0.352,-0.504,0.71,-17.745,-5.862,-4.357
49771050,-0.366,-0.56,0.692,-14.262,-2.835,-1.522
49771050,-0.375,-0.568,0.697,-8.26,-1.435,1.75
49771070,-0.384,-0.567,0.676,-2.17,-0.437,5.512
49771070,-0.409,-0.56,0.652,4.462,0.105,9.677
49771080,-0.424,-0.542,0.68,11.165,1.067,13.195
49771090,-0.421,-0.532,0.688,14.945,1.102,14.262
49771100,-0.398,-0.524,0.687,19.827,1.54,15.225
49771110,-0.382,-0.476,0.719,25.865,1.855,19.25
49771120,-0.373,-0.465,0.748,28.507,3.71,23.835
49771130,-0.389,-0.459,0.756,30.485,4.585,27.282
49771140,-0.388,-0.429,0.757,32.672,6.247,28.28
49771150,-0.44,-0.412,0.771,32.497,8.557,27.632
49771160,-0.497,-0.421,0.78,30.362,9.555,26.88
49771170,-0.525,-0.431,0.768,29.347,8.12,24.412
49771180,-0.523,-0.374,0.783,30.59,6.422,23.502
49771190,-0.521,-0.353,0.797,31.01,5.11,22.942
49771200,-0.555,-0.349,0.813,30.135,4.095,23.345
49771210,-0.57,-0.355,0.834,28.315,1.627,22.4
49771220,-0.57,-0.352,0.833,25.48,-0.577,19.477
49771230,-0.566,-0.337,0.844,23.222,-2.59,15.05
49771240,-0.584,-0.334,0.862,20.16,-5.232,12.985
49771250,-0.55,-0.329,0.859,16.17,-8.067,9.432
49771260,-0.532,-0.312,0.86,13.3,-9.59,6.247
49771270,-0.532,-0.301,0.857,9.38,-11.095,3.797
49771280,-0.502,-0.299,0.855,4.847,-12.232,2.275
49771290,-0.473,-0.291,0.86,0.857,-12.547,1.085
49771300,-0.436,-0.279,0.866,-2.817,-11.76,1.312
49771310,-0.397,-0.29,0.858,-7,-9.222,2.205
49771320,-0.396,-0.318,0.842,-10.342,-5.565,4.217
49771330,-0.401,-0.329,0.822,-11.76,-2.502,6.72
49771330,-0.402,-0.312,0.817,-12.127,0.437,9.467
49771350,-0.436,-0.339,0.796,-14.035,3.272,12.25
49771350,-0.474,-0.359,0.768,-14.437,4.235,13.825
49771370,-0.498,-0.349,0.797,-13.265,4.655,14.175
49771370,-0.549,-0.381,0.804,-15.82,3.587,14.63
49771390,-0.567,-0.415,0.77,-16.03,-0.157,12.967
49771390,-0.554,-0.382,0.797,-12.512,-3.027,9.835
49771410,-0.569,-0.364,0.826,-13.422,-5.232,8.505
49771410,-0.537,-0.365,0.847,-16.152,-7.77,5.372
49771420,-0.523,-0.358,0.849,-19.512,-9.607,3.43
49771430,-0.495,-0.36,0.792,-22.225,-12.6,2.152
49771440,-0.427,-0.352,0.811,-21.262,-11.305,0.945
49771450,-0.462,-0.387,0.781,-23.362,-9.887,3.15
49771460,-0.468,-0.426,0.765,-22.732,-8.295,2.38
49771470,-0.502,-0.43,0.758,-20.44,-8.312,1.715
49771480,-0.524,-0.428,0.742,-18.445,-9.24,1.26
49771490,-0.515,-0.423,0.771,-16.222,-11.025,0.315
49771500,-0.513,-0.436,0.773,-15.732,-12.722,-0.157
49771510,-0.474,-0.413,0.781,-14.647,-15.312,-0.21
49771520,-0.422,-0.372,0.777,-13.93,-16.957,1.995
49771530,-0.391,-0.348,0.743,-14.175,-19.25,8.032
49771540,-0.357,-0.34,0.792,-11.025,-21.595,22.767
49771550,-0.422,-0.405,0.814,-14.315,-26.547,38.972
49771560,-0.446,-0.521,0.786,-18.795,-26.39,33.355
49771570,-0.559,-0.501,0.793,-18.042,-29.085,23.52
49771580,-0.628,-0.458,0.785,-20.335,-37.677,17.272
49771590,-0.562,-0.473,0.809,-23.66,-43.767,11.655
49771600,-0.524,-0.463,0.777,-22.015,-48.055,10.78
49771610,-0.52,-0.376,0.776,-18.55,-55.615,18.637
49771620,-0.459,-0.368,0.748,-21.98,-63.437,29.627
49771630,-0.337,-0.433,0.674,-21.857,-58.275,30.117
49771640,-0.405,-0.489,0.745,-17.01,-46.69,21.437
49771650,-0.425,-0.493,0.768,-12.18,-37.957,8.697
49771660,-0.452,-0.457,0.799,-3.5,-33.635,4.34
49771670,-0.463,-0.436,0.81,-0.332,-32.742,4.462
49771680,-0.429,-0.424,0.865,3.045,-32.567,4.077
49771690,-0.407,-0.409,0.877,4.637,-32.55,3.22
49771700,-0.397,-0.386,0.859,3.605,-33.425,1.855
49771710,-0.357,-0.351,0.83,2.502,-33.04,0.735
49771720,-0.307,-0.338,0.843,2.835,-29.015,2.782
49771730,-0.275,-0.346,0.84,1.417,-22.365,4.235
49771740,-0.3,-0.345,0.786,-1.505,-17.92,4.2
49771750,-0.296,-0.319,0.763,-1.925,-12.915,4.252
49771760,-0.273,-0.317,0.787,-1.995,-5.617,6.982
49771760,-0.305,-0.348,0.764,-4.917,2.24,10.57
49771780,-0.328,-0.374,0.767,-5.95,10.132,13.475
49771780,-0.416,-0.456,0.771,1.452,13.807,23.03
49771800,-0.397,-0.41,0.825,4.812,15.575,17.727
49771800,-0.437,-0.404,0.841,3.255,16.012,15.417
49771820,-0.464,-0.43,0.827,2.852,14.262,15.382
49771820,-0.474,-0.425,0.82,3.797,11.672,17.482
49771830,-0.465,-0.409,0.816,5.285,9.135,15.715
49771840,-0.457,-0.392,0.813,6.422,8.645,14.56
49771850,-0.457,-0.386,0.815,5.74,7.385,13.58
49771860,-0.434,-0.385,0.818,5.197,7.367,10.132
49771870,-0.422,-0.383,0.822,5.145,7.315,8.12
49771880,-0.422,-0.384,0.824,5.407,7.77,10.64
49771890,-0.423,-0.394,0.826,5.635,7.262,12.32
49771900,-0.421,-0.396,0.829,6.02,7.875,11.882
49771910,-0.426,-0.39,0.82,6.457,7.245,10.832
49771920,-0.43,-0.375,0.819,6.422,7.035,11.812
49771930,-0.416,-0.37,0.805,5.162,6.807,11.9
49771940,-0.419,-0.374,0.808,5.67,7.91,13.09
49771950,-0.441,-0.379,0.807,5.355,7.84,15.487
49771960,-0.436,-0.386,0.806,6.072,8.207,14.962
49771970,-0.443,-0.388,0.809,6.492,8.872,13.86
49771980,-0.462,-0.387,0.812,5.775,9.555,11.637
49771990,-0.472,-0.378,0.812,5.232,8.995,8.382
49772000,-0.462,-0.386,0.79,4.742,8.312,5.652
49772010,-0.477,-0.373,0.805,8.96,6.965,10.85
49772020,-0.474,-0.347,0.809,8.925,4.882,14.56
49772030,-0.452,-0.35,0.819,8.54,4.795,12.915
49772040,-0.471,-0.366,0.825,8.172,5.88,12.565
49772050,-0.494,-0.362,0.833,8.47,5.775,13.002
49772060,-0.499,-0.349,0.829,8.26,4.392,11.462
49772070,-0.494,-0.341,0.813,7.332,2.695,10.167
49772080,-0.486,-0.339,0.812,6.422,1.837,9.607
49772080,-0.482,-0.344,0.816,5.827,2.275,9.205
49772100,-0.485,-0.348,0.823,5.53,2.695,8.68
49772100,-0.486,-0.348,0.822,5.25,2.712,7.857
49772120,-0.482,-0.346,0.818,5.092,1.82,7
49772120,-0.469,-0.344,0.81,5.005,1.505,6.737
49772140,-0.457,-0.34,0.801,5.372,1.75,6.79
49772140,-0.451,-0.341,0.787,6.387,3.377,7.157
49772160,-0.444,-0.34,0.776,8.592,5.145,7.857
49772160,-0.432,-0.33,0.765,11.515,7.455,8.96
49772170,-0.435,-0.321,0.762,14.087,8.732,10.43
49772180,-0.481,-0.325,0.779,15.155,7.437,12.512
49772190,-0.501,-0.346,0.804,14.735,5.915,13.737
49772200,-0.499,-0.37,0.854,13.755,7.805,13.685
49772210,-0.531,-0.375,0.874,11.025,9.765,13.002
49772220,-0.587,-0.374,0.888,8.4,9.257,10.08
49772230,-0.601,-0.349,0.864,5.88,4.882,5.127
49772240,-0.557,-0.309,0.845,3.832,0.367,0.175
49772250,-0.517,-0.291,0.831,1.645,-2.275,-3.01
49772260,-0.486,-0.284,0.827,-0.7,-1.365,-4.812
49772270,-0.48,-0.284,0.839,-1.855,-1.19,-5.075
49772280,-0.48,-0.297,0.862,-3.622,-1.225,-4.725
49772290,-0.474,-0.318,0.881,-5.04,-0.175,-5.792
49772300,-0.491,-0.329,0.897,-6.772,0.227,-7.07
49772310,-0.537,-0.353,0.881,-9.38,-2.852,-8.767
49772320,-0.566,-0.368,0.859,-10.5,-9.852,-12.267
49772330,-0.532,-0.358,0.815,-10.57,-18.462,-15.312
49772340,-0.474,-0.36,0.777,-8.26,-21.892,-16.082
49772350,-0.443,-0.387,0.753,-2.572,-19.565,-14.21
49772360,-0.45,-0.373,0.748,5.092,-13.72,-12.022
49772370,-0.496,-0.354,0.757,9.275,-10.482,-10.202
49772380,-0.495,-0.357,0.781,10.43,-10.08,-10.99
49772390,-0.476,-0.353,0.794,9.922,-8.452,-13.107
49772400,-0.478,-0.34,0.825,8.085,-9.607,-14
49772410,-0.476,-0.347,0.84,4.462,-12.022,-12.775
49772420,-0.45,-0.364,0.826,1.47,-13.912,-11.34
49772430,-0.418,-0.367,0.824,1.802,-13.492,-11.077
49772440,-0.419,-0.349,0.828,1.82,-11.34,-9.712
49772450,-0.435,-0.335,0.833,1.295,-9.187,-8.487
49772460,-0.442,-0.327,0.813,0.07,-8.82,-6.072
49772470,-0.439,-0.323,0.797,-1.155,-8.907,-4.952
49772480,-0.417,-0.332,0.765,-1.837,-7.14,-5.705
49772490,-0.428,-0.35,0.75,0.525,-3.99,-4.83
49772500,-0.473,-0.343,0.751,5.197,-2.012,-2.17
49772510,-0.49,-0.323,0.767,8.785,-2.065,0.665
49772510,-0.482,-0.311,0.789,10.57,-3.727,-0.07
49772530,-0.445,-0.332,0.816,12.197,-1.417,0.857
49772530,-0.482,-0.341,0.844,14.665,0.21,2.642
49772550,-0.485,-0.332,0.865,13.37,1.19,1.785
49772550,-0.453,-0.335,0.869,8.872,1.155,-2.432
49772570,-0.447,-0.352,0.837,1.697,2.415,-3.255
49772570,-0.418,-0.374,0.808,-0.367,5.705,-0.385
49772580,-0.332,-0.377,0.791,2.415,16.975,7.385
49772590,-0.345,-0.369,0.789,6.895,33.74,19.705
49772600,-0.458,-0.347,0.8,13.387,49.84,29.68
49772610,-0.499,-0.304,0.81,21.315,60.305,34.527
49772620,-0.532,-0.278,0.8,23.957,63.875,39.882
49772630,-0.577,-0.266,0.783,23.117,62.737,43.05
49772640,-0.629,-0.262,0.772,21.262,56.805,41.3
49772650,-0.657,-0.251,0.763,18.952,44.905,35.192
49772660,-0.645,-0.253,0.745,17.745,31.307,30.45
49772670,-0.619,-0.259,0.729,20.527,18.165,29.015
49772680,-0.599,-0.254,0.72,23.222,7.542,29.417
49772690,-0.566,-0.253,0.713,28.21,0.822,28.28
49772700,-0.536,-0.231,0.729,32.795,-1.05,27.037
49772710,-0.54,-0.235,0.732,36.12,-1.242,27.51
49772720,-0.533,-0.23,0.759,40.005,1.627,24.727
49772730,-0.532,-0.202,0.792,41.3,4.41,20.51
49772740,-0.583,-0.188,0.821,38.78,3.605,18.165
49772750,-0.589,-0.2,0.837,35.49,0.035,12.967
49772760,-0.563,-0.209,0.839,33.6,-3.885,4.987
49772770,-0.528,-0.221,0.824,31.64,-7.875,1.26
49772780,-0.482,-0.225,0.826,32.812,-7.577,2.87
49772790,-0.502,-0.234,0.882,30.275,-4.025,9.222
49772800,-0.592,-0.225,0.887,25.06,-0.595,9.66
49772810,-0.535,-0.201,0.887,23.695,0.682,1.242
49772820,-0.57,-0.193,0.897,17.727,-1.592,1.47
49772830,-0.634,-0.2,0.882,12.267,-7.227,2.345
49772830,-0.582,-0.196,0.852,11.567,-14.525,-1.627
49772850,-0.517,-0.186,0.841,11.62,-19.565,-4.567
49772850,-0.491,-0.173,0.826,10.36,-21.21,-6.667
49772870,-0.447,-0.154,0.811,10.045,-17.22,-8.312
49772870,-0.425,-0.14,0.794,11.585,-8.732,-7.28
49772890,-0.423,-0.116,0.782,10.185,-0.245,-6.387
49772890,-0.395,-0.124,0.777,6.58,10.377,-5.582
49772910,-0.463,-0.131,0.758,4.83,20.93,-1.417
49772910,-0.503,-0.119,0.76,4.077,27.457,-0.875
49772920,-0.511,-0.124,0.751,-1.015,29.505,-3.097
49772930,-0.487,-0.155,0.747,-3.99,31.5,-5.775
49772940,-0.492,-0.174,0.75,-3.937,35.77,-6.79
49772950,-0.535,-0.178,0.785,-4.69,38.692,-7.052
49772960,-0.668,-0.298,0.788,2.362,36.61,6.44
49772970,-0.658,-0.282,0.863,14.77,28.227,12.915
49772980,-0.639,-0.248,0.87,11.637,22.12,4.095
49772990,-0.698,-0.252,0.883,10.675,17.412,3.5
49773000,-0.699,-0.237,0.848,6.072,12.565,3.237
49773010,-0.671,-0.245,0.812,4.427,8.75,2.012
49773020,-0.682,-0.236,0.784,4.147,5.53,3.097
49773030,-0.677,-0.224,0.753,3.272,0.717,2.747
49773040,-0.637,-0.204,0.736,4.182,-2.065,1.12
49773050,-0.607,-0.198,0.721,5.407,-4.182,0.647
49773060,-0.557,-0.189,0.717,9.31,-3.745,1.05
49773070,-0.542,-0.178,0.727,13.877,-2.17,3.167
49773080,-0.538,-0.162,0.742,16.747,0.402,4.9
49773090,-0.54,-0.161,0.756,18.987,2.572,6.457
49773100,-0.542,-0.153,0.778,21,4.322,6.737
49773110,-0.546,-0.138,0.797,20.597,5.985,6.002
49773120,-0.555,-0.133,0.811,18.41,8.487,5.302
49773130,-0.582,-0.146,0.823,15.907,11.077,5.04
49773140,-0.609,-0.163,0.819,13.177,12.932,4.06
49773150,-0.626,-0.18,0.813,12.057,14.087,1.522
49773160,-0.634,-0.178,0.804,11.112,14.122,-1.61
49773170,-0.675,-0.18,0.808,11.812,11.06,-0.245
49773180,-0.671,-0.169,0.798,11.007,6.072,0.21
49773190,-0.654,-0.163,0.8,11.497,1.68,-0.35
49773200,-0.623,-0.148,0.788,9.117,-0.367,-0.472
49773210,-0.613,-0.15,0.77,8.137,-0.017,-1.715
49773220,-0.608,-0.154,0.767,9.677,1.382,-1.102
49773230,-0.618,-0.152,0.764,10.797,1.68,1.015
49773240,-0.634,-0.167,0.771,14.017,-1.137,1.435
49773250,-0.581,-0.151,0.769,18.392,-2.975,-1.907
49773260,-0.583,-0.142,0.782,22.89,-3.937,-2.695
49773260,-0.572,-0.151,0.797,25.41,-2.782,-4.445
49773280,-0.56,-0.159,0.781,27.107,-1.33,-8.4
49773280,-0.575,-0.141,0.787,29.295,0.98,-11.55
49773290,-0.572,-0.13,0.774,29.225,1.942,-14.28
49773300,-0.593,-0.126,0.789,29.837,2.922,-13.125
49773310,-0.566,-0.106,0.783,26.652,3.78,-13.912
49773320,-0.576,-0.072,0.805,25.41,6.93,-9.38
49773330,-0.656,-0.078,0.833,19.337,7.787,-1.942
49773340,-0.644,-0.109,0.822,14.962,6.79,-0.122
49773350,-0.598,-0.09,0.836,14.087,6.755,0.175
49773360,-0.601,-0.085,0.834,10.867,9.31,0.367
49773370,-0.624,-0.089,0.796,7.07,12.285,-0.437
49773380,-0.627,-0.08,0.772,4.987,14.945,0.035
49773390,-0.645,-0.093,0.74,1.33,15.592,0.84
49773400,-0.689,-0.122,0.719,1.102,13.212,1.662
49773410,-0.686,-0.126,0.722,5.547,9.205,4.217
49773420,-0.653,-0.104,0.72,7.332,8.767,4.917
49773430,-0.667,-0.142,0.738,7.542,8.89,0.525
49773440,-0.663,-0.155,0.739,12.985,7.122,-2.555
49773450,-0.642,-0.111,0.751,19.582,3.447,-3.622
49773460,-0.625,-0.073,0.765,19.652,2.135,-5.232
49773470,-0.613,-0.068,0.775,16.817,2.222,-6.947
49773480,-0.604,-0.055,0.783,14.402,4.007,-5.39
49773490,-0.638,-0.051,0.808,12.25,6.562,0.962
49773500,-0.645,-0.047,0.809,5.985,7.56,2.747
49773510,-0.614,-0.04,0.806,1.54,10.237,2.73
49773520,-0.63,-0.045,0.8,-3.972,15.12,3.64
49773530,-0.694,-0.065,0.795,-8.767,16.397,4.55
49773540,-0.666,-0.058,0.79,-11.025,15.82,1.802
49773550,-0.671,-0.072,0.771,-12.687,14.63,1.155
49773560,-0.654,-0.077,0.744,-14.017,14.735,0.752
49773570,-0.684,-0.083,0.725,-14,14.735,2.275
49773580,-0.67,-0.077,0.697,-14.245,13.475,2.975
49773580,-0.701,-0.139,0.708,-12.897,11.935,4.585
49773600,-0.646,-0.158,0.689,-5.932,8.487,4.375
49773600,-0.593,-0.076,0.745,3.08,12.39,4.41
49773620,-0.691,-0.006,0.698,2.52,14.14,3.465
49773620,-0.666,-0.059,0.752,-3.78,12.092,1.47
49773640,-0.693,-0.154,0.711,-7.997,9.887,3.605
49773640,-0.684,-0.118,0.73,-0.682,9.66,2.975
49773660,-0.69,-0.079,0.753,-0.472,10.01,2.975
49773660,-0.746,-0.125,0.746,-2.87,8.645,2.065
49773670,-0.73,-0.125,0.738,-1.435,4.725,-0.175
49773680,-0.703,-0.092,0.743,-1.085,1.662,-1.102
49773690,-0.7,-0.09,0.741,-2.572,-0.787,-1.592
49773700,-0.686,-0.092,0.74,-3.937,-1.522,-2.222
49773710,-0.675,-0.094,0.738,-5.39,-1.977,-3.01
49773720,-0.691,-0.109,0.735,-6.23,-2.152,-2.975
49773730,-0.696,-0.096,0.729,-6.177,-3.832,-3.15
49773740,-0.687,-0.094,0.731,-7.945,-4.567,-3.29
49773750,-0.68,-0.115,0.72,-9.94,-5.495,-3.342
49773760,-0.674,-0.117,0.718,-9.187,-6.09,-3.062
49773770,-0.662,-0.114,0.71,-8.855,-6.79,-2.677
49773780,-0.651,-0.115,0.705,-7.437,-6.3,-1.61
49773790,-0.647,-0.117,0.705,-5.722,-5.792,-0.052
49773800,-0.645,-0.125,0.708,-4.34,-4.322,1.365
49773810,-0.652,-0.126,0.717,-1.75,-3.185,2.52
49773820,-0.66,-0.124,0.725,0.175,-1.855,3.64
49773830,-0.659,-0.122,0.729,1.907,-0.98,4.165
49773840,-0.664,-0.113,0.735,3.342,0.367,4.48
49773850,-0.675,-0.108,0.736,3.027,1.172,4.847
49773860,-0.688,-0.112,0.739,2.695,1.312,4.76
49773870,-0.692,-0.11,0.737,2.607,0.455,4.217
49773880,-0.688,-0.103,0.739,2.52,0.035,3.535
49773890,-0.687,-0.093,0.74,2.065,0,2.905
49773900,-0.686,-0.091,0.743,0.927,0.262,2.222
49773910,-0.688,-0.094,0.746,-0.367,0.42,1.435
49773920,-0.678,-0.089,0.75,-1.522,0.875,0.682
49773930,-0.669,-0.087,0.751,-3.237,2.047,0.49
49773940,-0.673,-0.093,0.749,-4.97,3.377,0.84
49773950,-0.672,-0.096,0.741,-6.212,5.11,0.84
49773960,-0.666,-0.095,0.733,-7.297,7.262,0.91
49773960,-0.672,-0.091,0.729,-8.732,9.94,1.225
49773980,-0.678,-0.093,0.717,-10.64,11.585,1.452
49773980,-0.686,-0.099,0.702,-13.055,12.46,1.872
49774000,-0.704,-0.1,0.691,-15.872,11.917,2.135
49774000,-0.714,-0.101,0.676,-18.9,10.5,2.17
49774010,-0.716,-0.108,0.668,-21.21,8.137,1.767
49774020,-0.725,-0.128,0.661,-23.117,5.862,1.487
49774030,-0.729,-0.149,0.656,-22.802,3.237,0.525
49774040,-0.729,-0.163,0.657,-20.492,0.875,-0.315
49774050,-0.711,-0.161,0.655,-17.027,-1.26,-0.98
49774060,-0.675,-0.155,0.667,-13.877,1.995,0.525
49774070,-0.746,-0.129,0.695,-6.492,5.022,0.437
49774080,-0.802,-0.111,0.708,-5.092,2.117,-3.272
49774090,-0.731,-0.099,0.701,-7.717,-0.49,-7.945
49774100,-0.699,-0.099,0.711,-9.362,-0.122,-9.852
49774110,-0.706,-0.113,0.715,-10.412,1.33,-10.272
49774120,-0.709,-0.129,0.743,-9.922,3.587,-9.94
49774130,-0.697,-0.121,0.736,-10.062,4.305,-10.307
49774140,-0.759,-0.078,0.712,-8.277,2.852,-14.105
49774150,-0.8,-0.085,0.716,-11.375,-10.972,-18.375
49774160,-0.507,-0.17,0.667,-17.045,-12.652,-19.075
49774170,-0.54,-0.163,0.729,-9.852,1.12,-10.937
49774180,-0.777,-0.113,0.754,-7.332,6.317,-4.27
49774190,-0.776,-0.136,0.761,-8.907,0.385,-3.447
49774200,-0.542,-0.227,0.758,-14.472,2.817,-1.312
49774210,-0.671,-0.285,0.745,-12.495,15.785,6.877
49774220,-0.814,-0.218,0.755,-3.535,16.555,4.165
49774230,-0.745,-0.14,0.72,0.245,12.232,-4.952
49774240,-0.739,-0.135,0.703,-1.942,2.887,-5.705
49774250,-0.718,-0.184,0.68,-4.532,-3.657,-4.83
49774260,-0.665,-0.206,0.665,-4.847,-6.807,-5.67
49774270,-0.632,-0.183,0.702,-0.315,-7.07,-9.345
49774280,-0.675,-0.157,0.732,-0.472,-5.757,-2.397
49774290,-0.692,-0.172,0.736,-4.585,-6.44,1.837
49774300,-0.685,-0.188,0.745,-7.105,-6.982,1.365
49774310,-0.678,-0.189,0.756,-9.957,-6.79,-1.067
49774320,-0.675,-0.185,0.77,-11.952,-5.792,-0.245
49774330,-0.66,-0.193,0.763,-15.172,-3.5,0.822
49774330,-0.665,-0.192,0.756,-17.675,-1.015,1.207
49774350,-0.683,-0.181,0.757,-20.265,-0.052,2.292
49774350,-0.715,-0.164,0.753,-23.975,-2.712,3.15
49774370,-0.727,-0.158,0.742,-29.662,-7.385,2.957
49774370,-0.711,-0.166,0.724,-34.072,-12.687,1.47
49774390,-0.692,-0.185,0.695,-36.89,-16.222,0.42
49774390,-0.617,-0.218,0.66,-36.872,-15.627,0.245
49774410,-0.569,-0.223,0.649,-31.15,-3.692,4.9
49774410,-0.681,-0.203,0.672,-22.417,6.282,11.795
49774420,-0.775,-0.182,0.691,-18.672,7.192,12.845
49774430,-0.759,-0.181,0.691,-19.635,1.172,8.242
49774440,-0.705,-0.196,0.676,-21.21,-3.29,5.407
49774450,-0.684,-0.208,0.668,-20.755,-4.707,5.302
49774460,-0.701,-0.212,0.673,-19.652,-2.607,5.25
49774470,-0.72,-0.215,0.67,-18.077,-1.802,3.605
49774480,-0.708,-0.215,0.664,-15.102,-1.907,1.33
49774490,-0.693,-0.209,0.651,-12.215,-2.17,-1.067
49774500,-0.689,-0.21,0.639,-9.012,-1.4,-2.38
49774510,-0.685,-0.221,0.623,-5.652,-1.26,-2.415
49774520,-0.68,-0.223,0.622,-1.365,-0.56,-2.485
49774530,-0.682,-0.217,0.623,2.59,-0.192,-1.715
49774540,-0.681,-0.22,0.631,4.952,-0.07,0.105
49774550,-0.698,-0.221,0.643,7.14,0.192,1.487
49774560,-0.741,-0.226,0.656,6.02,-0.245,2.73
49774570,-0.76,-0.231,0.661,3.465,-4.077,2.852
49774580,-0.749,-0.227,0.653,0.455,-8.837,2.31
49774590,-0.727,-0.229,0.637,-1.82,-12.6,1.925
49774600,-0.711,-0.231,0.629,-2.992,-13.667,2.677
49774610,-0.706,-0.232,0.634,-3.097,-12.897,4.165
49774620,-0.691,-0.239,0.668,-1.907,-11.795,5.337
49774630,-0.631,-0.249,0.673,0.56,-4.987,7.647
49774640,-0.713,-0.216,0.735,5.652,-0.227,9.327
49774650,-0.774,-0.179,0.742,2.275,-3.815,9.1
49774660,-0.673,-0.191,0.722,-1.96,-6.055,5.39
49774670,-0.636,-0.218,0.704,-2.625,-4.585,5.285
49774670,-0.676,-0.214,0.696,-0.175,-1.085,7.682
49774690,-0.699,-0.187,0.7,3.605,0.385,7.787
49774690,-0.69,-0.174,0.694,4.637,0.017,7.84
49774710,-0.69,-0.178,0.691,5.32,-0.21,7.682
49774710,-0.69,-0.18,0.688,6.02,-0.752,6.895
49774730,-0.679,-0.169,0.688,6.842,-0.35,6.422
49774730,-0.684,-0.166,0.683,6.23,0.77,7.49
49774750,-0.699,-0.189,0.671,4.497,2.03,9.117
49774750,-0.712,-0.205,0.668,4.865,2.257,10.027
49774760,-0.731,-0.199,0.678,5.617,1.575,9.817
49774770,-0.733,-0.192,0.684,5.005,-0.472,8.137
49774780,-0.715,-0.199,0.685,3.15,-1.365,6.702
49774790,-0.709,-0.209,0.679,2.432,-1.4,6.51
49774800,-0.714,-0.213,0.675,2.782,-0.42,7.07
49774810,-0.727,-0.21,0.673,3.587,-0.455,7.42
49774820,-0.727,-0.203,0.672,4.305,-0.7,7.472
49774830,-0.713,-0.189,0.671,5.127,-0.805,6.79
49774840,-0.702,-0.174,0.68,5.6,0.262,6.475
49774850,-0.698,-0.171,0.685,5.18,0.735,6.737
49774860,-0.694,-0.178,0.691,5.11,1.155,7.367
49774870,-0.703,-0.185,0.705,6.23,0.542,7.857
49774880,-0.692,-0.179,0.712,7.035,-0.437,6.965
49774890,-0.671,-0.164,0.719,7.21,-0.542,6.492
49774900,-0.676,-0.148,0.723,6.212,0.822,7.997
49774910,-0.692,-0.145,0.718,2.975,2.817,9.765
49774920,-0.731,-0.148,0.707,-1.085,4.515,10.797
49774930,-0.775,-0.174,0.691,-4.445,3.185,10.325
49774940,-0.749,-0.194,0.671,-3.255,0.875,7.14
49774950,-0.716,-0.176,0.673,-0.157,-0.07,4.917
49774960,-0.737,-0.156,0.675,0.875,0.315,5.25
49774970,-0.749,-0.157,0.671,0.507,0.035,4.567
49774980,-0.739,-0.17,0.658,0.315,-1.085,3.307
49774990,-0.719,-0.168,0.66,1.82,-2.1,2.327
49775000,-0.707,-0.156,0.671,3.185,-1.907,2.415
49775010,-0.721,-0.149,0.683,4.217,-1.347,3.342
49775020,-0.736,-0.153,0.696,4.112,-2.24,2.957
49775030,-0.713,-0.149,0.7,3.115,-3.622,1.242
49775040,-0.706,-0.152,0.702,1.977,-4.252,0.892
49775050,-0.71,-0.168,0.704,1.172,-3.797,1.102
49775060,-0.706,-0.17,0.706,1.925,-3.5,0.525
49775070,-0.703,-0.161,0.711,2.082,-2.8,1.225
49775080,-0.711,-0.172,0.704,1.277,-2.922,1.907
49775080,-0.705,-0.178,0.694,1.505,-2.992,1.347
49775100,-0.692,-0.163,0.682,2.397,-3.36,1.382
49775100,-0.694,-0.153,0.68,2.45,-2.415,2.362
49775120,-0.703,-0.164,0.678,2.117,-2.187,3.08
49775120,-0.714,-0.163,0.686,2.572,-2.047,3.727
49775140,-0.727,-0.158,0.686,1.855,-2.572,4.13
49775140,-0.729,-0.158,0.671,0.402,-3.15,3.605
49775160,-0.716,-0.167,0.657,-1.155,-3.377,3.657
49775160,-0.735,-0.175,0.661,-0.332,-1.68,4.147
49775170,-0.768,-0.167,0.668,1.54,-3.465,3.045
49775180,-0.726,-0.15,0.672,2.152,-5.005,1.242
49775190,-0.709,-0.145,0.676,2.572,-6.195,0.7
49775200,-0.712,-0.152,0.681,2.275,-5.6,1.207
49775210,-0.713,-0.153,0.689,2.695,-5.425,0.997
49775220,-0.718,-0.152,0.692,2.537,-5.302,1.4
49775230,-0.705,-0.154,0.687,2.082,-5.617,1.505
49775240,-0.699,-0.159,0.683,2.135,-5.425,2.222
49775250,-0.705,-0.164,0.681,2.17,-6.3,3.307
49775260,-0.708,-0.162,0.681,2.31,-6.93,4.06
49775270,-0.72,-0.158,0.682,2.205,-8.802,4.637
49775280,-0.723,-0.173,0.681,1.26,-10.675,4.48
49775290,-0.704,-0.186,0.681,3.01,-10.552,3.412
49775300,-0.717,-0.165,0.688,6.072,-9.117,2.362
49775310,-0.733,-0.148,0.693,6.002,-8.47,1.19
49775320,-0.746,-0.147,0.701,4.777,-9.292,-0.63
49775330,-0.728,-0.152,0.704,3.5,-10.605,-1.802
49775340,-0.699,-0.143,0.708,3.36,-10.08,-2.572
49775350,-0.692,-0.134,0.707,3.465,-8.767,-1.627
49775360,-0.7,-0.122,0.713,2.677,-7.49,-0.49
49775370,-0.71,-0.135,0.715,1.365,-7.21,0
49775380,-0.714,-0.158,0.702,1.47,-8.47,-0.56
49775390,-0.711,-0.167,0.695,4.147,-10.535,-1.662
49775400,-0.69,-0.155,0.69,7.385,-11.97,-2.397
49775410,-0.683,-0.138,0.689,8.75,-10.92,-2.187
49775420,-0.707,-0.147,0.683,8.61,-10.57,-1.312
49775420,-0.71,-0.158,0.69,8.715,-10.99,-0.595
49775440,-0.705,-0.157,0.696,9.047,-11.97,0.385
49775440,-0.715,-0.155,0.695,8.557,-12.967,1.785
49775460,-0.708,-0.163,0.687,8.575,-13.93,3.027
49775460,-0.687,-0.159,0.692,10.43,-13.807,3.972
49775480,-0.676,-0.137,0.695,11.427,-13.107,4.707
49775480,-0.672,-0.126,0.697,10.955,-11.935,5.04
49775500,-0.664,-0.131,0.698,11.025,-11.217,5.232
49775500,-0.655,-0.122,0.706,11.532,-9.695,5.897
49775510,-0.673,-0.112,0.714,10.972,-8.382,6.615
49775520,-0.71,-0.12,0.712,10.027,-8.102,6.807
49775530,-0.743,-0.134,0.723,9.8,-10.342,5.617
49775540,-0.728,-0.123,0.738,10.517,-13.212,3.062
49775550,-0.715,-0.106,0.751,9.52,-14.682,1.277
49775560,-0.72,-0.107,0.752,6.737,-15.417,0.612
49775570,-0.7,-0.111,0.749,6.125,-15.907,-0.07
49775580,-0.658,-0.096,0.753,7.507,-15.645,0.192
49775590,-0.636,-0.072,0.752,7.402,-14.315,2.065
49775600,-0.627,-0.068,0.755,5.6,-11.9,4.147
49775610,-0.62,-0.083,0.748,3.15,-9.782,4.69
49775620,-0.624,-0.091,0.752,2.555,-8.277,4.392
49775630,-0.635,-0.082,0.768,1.75,-7.962,4.637
49775640,-0.651,-0.085,0.772,-0.437,-7.927,6.107
49775650,-0.675,-0.103,0.753,-2.432,-9.152,6.72
49775660,-0.69,-0.121,0.728,-2.975,-9.817,6.597
49775670,-0.708,-0.128,0.707,-2.117,-11.34,6.352
49775680,-0.715,-0.129,0.701,-1.015,-11.917,5.565
49775690,-0.719,-0.134,0.702,-0.315,-11.97,3.867
49775700,-0.726,-0.136,0.697,0.927,-12.652,2.187
49775710,-0.72,-0.119,0.7,3.15,-14.315,0.822
49775720,-0.685,-0.101,0.711,3.99,-15.96,0.385
49775730,-0.696,-0.109,0.725,3.657,-17.535,2.31
49775740,-0.648,-0.108,0.749,3.115,-17.255,3.972
49775750,-0.658,-0.128,0.771,0.507,-14.192,5.372
49775760,-0.711,-0.142,0.763,-0.42,-15.435,5.582
49775770,-0.654,-0.132,0.774,2.275,-17.272,4.9
49775780,-0.629,-0.117,0.766,3.045,-18.445,5.897
49775790,-0.61,-0.096,0.762,2.94,-17.412,5.442
49775800,-0.594,-0.075,0.752,0.822,-15.505,5.775
49775810,-0.611,-0.077,0.74,-3.15,-13.09,7.805
49775820,-0.659,-0.116,0.738,-5.197,-13.282,8.435
49775830,-0.588,-0.127,0.717,1.102,-14.542,5.302
49775830,-0.541,-0.104,0.76,7.63,-13.562,1.312
49775850,-0.637,-0.082,0.756,5.915,-10.377,-0.542
49775850,-0.677,-0.09,0.775,4.987,-7.927,-1.102
49775870,-0.693,-0.114,0.763,1.907,-8.47,1.785
49775870,-0.693,-0.123,0.763,0.647,-10.465,4.602
49775890,-0.669,-0.122,0.77,1.855,-11.007,6.037
49775890,-0.648,-0.116,0.779,3.902,-11.742,5.425
49775910,-0.623,-0.102,0.788,5.355,-11.812,3.692
49775910,-0.598,-0.09,0.793,5.897,-11.602,3.167
49775920,-0.589,-0.083,0.791,4.865,-10.15,4.095
49775930,-0.575,-0.081,0.785,2.765,-7.822,5.11
49775940,-0.58,-0.064,0.776,0.822,-4.13,5.565
49775950,-0.557,-0.088,0.79,-3.675,-0.945,4.777
49775960,-0.607,-0.084,0.771,-4.882,3.237,5.215
49775970,-0.631,-0.086,0.783,-6.615,5.127,7.77
49775980,-0.637,-0.104,0.782,-9.397,4.952,9.537
49775990,-0.637,-0.099,0.798,-8.785,3.482,10.937
49776000,-0.637,-0.087,0.791,-8.68,1.802,12.582
49776010,-0.621,-0.103,0.808,-7.787,0.507,14.227
49776020,-0.621,-0.096,0.818,-8.032,1.417,14.805
49776030,-0.653,-0.106,0.815,-10.307,1.82,15.627
49776040,-0.666,-0.119,0.806,-11.252,1.697,14.315
49776050,-0.79,-0.102,0.739,-10.71,1.067,10.482
49776060,-0.891,-0.106,0.756,-11.69,-35.98,-2.065
49776070,-0.385,-0.09,0.711,-15.155,-43.26,-5.582
49776080,-0.509,-0.13,0.741,-10.885,-29.487,5.302
49776090,-0.798,-0.025,0.692,-11.287,-33.617,-0.157
49776100,-0.627,-0.08,0.698,-17.272,-43.732,-10.482
49776110,-0.569,-0.16,0.709,-11.865,-44.187,-4.165
49776120,-0.659,-0.164,0.78,-3.027,-40.442,4.882
49776130,-0.65,-0.117,0.768,-0.175,-33.652,8.837
49776140,-0.587,-0.069,0.786,5.145,-21.052,8.417
49776150,-0.627,-0.081,0.787,2.73,-6.947,9.03
49776160,-0.666,-0.081,0.788,1.785,0.77,9.502
49776170,-0.661,-0.068,0.794,3.202,2.782,11.83
49776170,-0.637,-0.06,0.782,3.5,0.77,12.04
49776190,-0.616,-0.056,0.762,4.322,-1.47,8.067
49776190,-0.601,-0.067,0.752,4.952,-4.585,2.905
49776210,-0.548,-0.066,0.765,6.527,-3.937,-1.925
49776210,-0.557,-0.056,0.792,6.282,-0.77,-4.06
49776230,-0.612,-0.074,0.811,2.87,2.555,-4.55
49776230,-0.645,-0.101,0.823,1.785,2.152,-5.407
49776250,-0.62,-0.122,0.849,3.552,1.137,-4.567
49776250,-0.603,-0.114,0.843,3.867,-0.245,-2.642
49776260,-0.573,-0.104,0.826,2.975,0.227,-4.007
49776270,-0.534,-0.106,0.821,4.97,1.12,-6.282
49776280,-0.587,-0.108,0.815,6.142,1.557,-6.702
49776290,-0.555,-0.085,0.819,6.562,-1.785,-7.14
49776300,-0.463,-0.089,0.788,3.342,8.085,-0.052
49776310,-0.6,-0.081,0.796,-0.542,18.112,3.412
49776320,-0.632,-0.073,0.756,-5.845,21.612,1.697
49776330,-0.657,-0.123,0.737,-0.367,17.99,6.86
49776340,-0.64,-0.08,0.738,0.49,14.105,3.832
49776350,-0.659,-0.078,0.73,-1.19,10.552,5.757
49776360,-0.66,-0.085,0.732,-1.382,10.01,4.952
49776370,-0.676,-0.088,0.74,-1.977,9.152,3.692
49776380,-0.689,-0.093,0.75,-2.362,8.365,2.17
49776390,-0.702,-0.104,0.766,-1.452,5.477,-0.087
49776400,-0.705,-0.105,0.768,-0.21,0.787,-3.097
49776410,-0.678,-0.098,0.77,2.695,-5.32,-6.72
49776420,-0.653,-0.086,0.772,4.655,-9.782,-9.117
49776430,-0.644,-0.077,0.765,5.617,-12.722,-10.64
49776440,-0.636,-0.082,0.764,6.002,-14.332,-10.745
49776450,-0.639,-0.088,0.769,7.122,-15.785,-10.08
49776460,-0.642,-0.087,0.78,7.962,-17.08,-9.94
49776470,-0.625,-0.083,0.794,8.627,-17.815,-10.255
49776480,-0.606,-0.1,0.796,9.03,-15.225,-8.19
49776490,-0.634,-0.092,0.789,10.167,-12.897,-6.982
49776500,-0.591,-0.086,0.804,8.487,-10.605,-11.847
49776510,-0.601,-0.127,0.776,8.295,-8.19,-11.077
49776520,-0.625,-0.111,0.754,11.357,-8.575,-8.82
49776530,-0.606,-0.08,0.769,14.14,-10.395,-8.697
49776540,-0.565,-0.125,0.781,15.89,-10.535,-8.855
49776550,-0.557,-0.099,0.783,18.287,-6.772,-8.47
49776560,-0.556,-0.084,0.826,16.38,-2.415,-6.58
49776570,-0.613,-0.099,0.778,10.832,-1.4,-3.815
49776580,-0.59,-0.124,0.781,9.222,-2.59,-1.225
49776580,-0.605,-0.154,0.744,11.48,-3.675,1.802
49776600,-0.594,-0.144,0.788,18.165,-4.9,-0.927
49776600,-0.684,-0.133,0.772,24.552,-8.995,-5.32
49776620,-0.69,-0.107,0.734,33.845,-19.635,-10.482
49776620,-0.699,-0.064,0.793,38.167,-27.037,-11.62
49776640,-0.8,-0.072,0.76,36.942,-37.485,-12.705
49776640,-0.746,-0.058,0.79,38.535,-55.247,-16.257
49776650,-0.432,-0.08,0.839,35.367,-54.81,-8.68
49776660,-0.571,-0.068,0.88,32.97,-45.972,6.772
49776670,-0.616,0.039,0.89,30.1,-40.442,10.692
49776680,-0.529,0.036,0.89,23.782,-38.08,6.51
49776690,-0.447,-0.008,0.845,20.545,-36.662,1.312
49776700,-0.331,0.031,0.858,20.79,-23.607,0.717
49776710,-0.573,0.019,0.851,15.82,-16.537,-0.455
49776720,-0.4,0.03,0.821,17.045,-12.057,-10.202
49776730,-0.443,0.022,0.81,10.5,-3.692,-10.255
49776740,-0.632,-0.014,0.802,5.652,-1.785,-9.94
49776750,-0.614,-0.042,0.783,4.97,-4.34,-9.187
49776760,-0.595,-0.061,0.782,8.05,-7.7,-5.46
49776770,-0.635,-0.053,0.785,10.01,-10.552,-2.625
49776780,-0.655,-0.037,0.831,11.462,-13.545,-1.837
49776790,-0.639,-0.034,0.856,12.722,-17.71,-0.542
49776800,-0.604,-0.012,0.876,10.92,-20.51,-0.367
49776810,-0.545,-0.005,0.879,8.627,-24.062,-2.17
49776820,-0.464,0.005,0.87,7.612,-22.05,-3.272
49776830,-0.43,0.037,0.862,6.492,-17.045,-4.707
49776840,-0.43,0.039,0.857,3.062,-9.887,-6.125
49776850,-0.445,0.022,0.854,-0.087,-3.045,-7.805
49776860,-0.464,0.009,0.855,-2.485,2.572,-9.257
49776870,-0.514,-0.001,0.866,-4.322,7.665,-9.502
49776880,-0.541,-0.024,0.854,-6.72,8.89,-9.8
49776890,-0.552,-0.044,0.848,-6.65,8.925,-8.855
49776900,-0.587,-0.053,0.831,-6.632,6.037,-7.035
49776910,-0.57,-0.055,0.812,-5.547,3.885,-6.195
49776920,-0.568,-0.061,0.815,-4.095,2.257,-5.512
49776920,-0.565,-0.05,0.807,-3.727,0.927,-5.827
49776940,-0.555,-0.05,0.813,-2.957,-0.315,-4.445
49776940,-0.554,-0.062,0.808,-2.922,-2.065,-2.38
49776960,-0.529,-0.051,0.816,-1.19,-3.097,-1.242
49776960,-0.523,-0.048,0.825,0.175,-2.8,0.595
49776980,-0.52,-0.055,0.834,0.875,-1.785,1.662
49776980,-0.534,-0.05,0.828,2.38,-0.84,2.292
49777000,-0.523,-0.032,0.831,3.115,-0.525,2.38
49777000,-0.517,-0.029,0.83,2.625,0.997,2.222
49777010,-0.527,-0.038,0.838,1.662,2.87,2.345
49777020,-0.55,-0.04,0.847,1.137,4.322,2.52
49777030,-0.55,-0.034,0.846,0.892,4.007,2.117
49777040,-0.538,-0.032,0.851,1.225,4.9,1.995
49777050,-0.536,-0.024,0.858,0.647,5.95,1.225
49777060,-0.535,-0.019,0.855,-0.875,7.682,0.385
49777070,-0.548,-0.022,0.838,-3.202,7.7,0.49
49777080,-0.556,-0.028,0.821,-4.165,6.702,0.822
49777090,-0.559,-0.029,0.823,-3.412,5.792,1.155
49777100,-0.576,-0.029,0.825,-3.815,5.88,0.892
49777110,-0.604,-0.038,0.823,-3.902,5.337,0.402
49777120,-0.618,-0.04,0.816,-3.377,2.485,0.35
49777130,-0.579,-0.024,0.818,-1.855,0,0.805
49777140,-0.581,-0.029,0.822,-1.925,-1.365,1.61
49777150,-0.575,-0.033,0.825,-2.362,-2.17,1.207
49777160,-0.58,-0.035,0.832,-1.487,-3.132,1.102
49777170,-0.563,-0.019,0.821,-0.595,-4.427,0.945
49777180,-0.565,-0.018,0.821,0.175,-5.127,1.382
49777190,-0.602,-0.047,0.809,0.245,-7.42,1.68
49777200,-0.568,-0.054,0.813,2.817,-9.73,1.207
49777210,-0.497,-0.043,0.837,5.337,-7.91,1.172
49777220,-0.437,0.007,0.858,3.692,1.452,0.28
49777230,-0.591,0.058,0.838,-5.985,4.27,-0.28
49777240,-0.672,-0.136,0.794,-12.67,-0.035,6.422
49777250,-0.56,-0.093,0.823,-1.137,-3.605,9.747
49777260,-0.525,0.007,0.833,-0.472,-3.22,3.902
49777270,-0.597,-0.045,0.819,-2.17,-1.715,-2.467
49777280,-0.589,-0.055,0.809,1.295,-4.007,-2.555
49777290,-0.573,-0.01,0.827,3.85,-7.525,2.205
49777300,-0.568,-0.005,0.829,2.047,-10.15,3.85
49777310,-0.52,-0.03,0.841,0.892,-8.312,2.292
49777320,-0.519,-0.027,0.836,1.312,-5.862,1.732
49777320,-0.524,-0.009,0.837,0.7,-3.5,1.12
49777330,-0.513,-0.012,0.839,-0.7,-1.032,0.525
49777340,-0.554,-0.009,0.819,-2.502,1.872,1.592
49777350,-0.583,-0.075,0.816,-3.447,0,3.412
49777360,-0.544,-0.028,0.815,1.207,1.137,2.835
49777370,-0.53,-0.013,0.824,0.157,1.907,-0.665
49777380,-0.589,-0.047,0.823,-0.157,3.29,-1.645
49777390,-0.605,-0.043,0.831,0.7,1.12,-0.28
49777400,-0.604,-0.032,0.834,1.505,-1.925,1.015
49777410,-0.591,-0.027,0.828,1.715,-4.217,1.015
49777420,-0.58,-0.028,0.818,1.89,-5.565,-0.192
49777430,-0.56,-0.014,0.812,2.8,-6.422,-0.682
49777440,-0.541,-0.014,0.827,2.397,-5.88,-0.385
49777450,-0.538,-0.027,0.84,0.63,-3.342,-0.262
49777460,-0.557,-0.033,0.842,-1.26,-1.907,-0.035
49777470,-0.559,-0.036,0.835,-1.837,-2.327,0.437
49777480,-0.551,-0.037,0.827,-1.085,-2.607,0.682
49777490,-0.545,-0.028,0.821,-0.612,-2.485,0.315
49777500,-0.555,-0.025,0.819,-0.997,-1.732,0.455
49777510,-0.558,-0.034,0.818,-1.732,-1.522,0.63
49777520,-0.556,-0.039,0.822,-1.522,-1.347,1.12
49777530,-0.563,-0.035,0.826,-0.63,-1.802,1.295
49777540,-0.548,-0.026,0.837,0.192,-1.19,0.577
49777550,-0.543,-0.025,0.846,-0.105,0.332,-0.63
49777560,-0.561,-0.023,0.843,-0.945,2.152,-0.507
49777570,-0.556,-0.016,0.836,-1.802,2.677,-0.402
49777580,-0.543,-0.019,0.822,-2.765,3.15,-1.277
49777590,-0.528,-0.024,0.822,-2.257,4.672,-2.187
49777600,-0.548,-0.007,0.829,-1.872,8.085,-2.677
49777610,-0.581,-0.014,0.834,-3.832,9.17,-3.762
49777620,-0.581,-0.022,0.832,-4.882,9.485,-4.567
49777630,-0.595,-0.03,0.829,-5.915,8.995,-4.305
49777640,-0.614,-0.04,0.826,-7.035,7.787,-4.497
49777650,-0.608,-0.039,0.825,-6.86,5.967,-4.987
49777660,-0.574,-0.025,0.822,-6.895,4.112,-5.302
49777670,-0.575,-0.016,0.831,-7.035,5.495,-4.707
49777670,-0.592,-0.021,0.826,-10.027,5.74,-5.04
49777690,-0.571,-0.018,0.828,-12.162,6.72,-5.757
49777690,-0.57,-0.029,0.827,-14.192,7.035,-5.285
49777710,-0.564,-0.041,0.825,-15.855,7.472,-5.442
49777710,-0.545,-0.052,0.812,-15.522,8.19,-5.285
49777730,-0.544,-0.043,0.797,-14.665,10.22,-4.952
49777730,-0.554,-0.03,0.801,-15.26,12.512,-5.757
49777750,-0.561,-0.04,0.809,-17.062,17.552,-6.615
49777750,-0.59,-0.036,0.832,-18.62,22.68,-6.755
49777760,-0.626,-0.028,0.853,-24.045,26.495,-5.827
49777770,-0.668,-0.038,0.86,-30.992,27.545,-4.987
49777780,-0.675,-0.053,0.849,-36.872,26.197,-4.725
49777790,-0.643,-0.063,0.837,-40.39,23.66,-4.935
49777800,-0.627,-0.06,0.82,-43.697,22.487,-5.687
49777810,-0.62,-0.056,0.781,-48.37,21.332,-7.542
49777820,-0.611,-0.072,0.758,-57.05,20.475,-8.662
49777830,-0.623,-0.138,0.715,-63.21,21.087,-7.402
49777840,-0.665,-0.221,0.686,-60.2,21.315,-1.907
49777850,-0.706,-0.254,0.667,-49.997,17.762,4.235
49777860,-0.715,-0.233,0.669,-36.347,12.67,7.192
49777870,-0.723,-0.245,0.674,-23.695,5.215,9.555
49777880,-0.738,-0.282,0.684,-10.412,-4.34,12.18
49777890,-0.703,-0.26,0.663,4.357,-16.187,14.787
49777900,-0.591,-0.208,0.664,21.07,-22.26,18.445
49777910,-0.487,-0.155,0.655,32.305,-16.835,19.407
49777920,-0.482,-0.138,0.673,37.24,-4.707,19.145
49777930,-0.503,-0.151,0.677,42.63,12.075,20.195
49777940,-0.556,-0.146,0.686,48.877,27.58,24.5
49777950,-0.57,-0.141,0.695,55.65,39.935,29.662
49777960,-0.591,-0.126,0.72,63.402,50.96,33.477
49777970,-0.646,-0.117,0.75,68.267,58.765,38.167
49777980,-0.729,-0.104,0.812,72.8,62.037,45.447
49777990,-0.795,-0.061,0.834,70.84,58.782,52.832
49778000,-0.794,0.014,0.849,65.502,52.307,54.617
49778010,-0.771,0.084,0.856,53.847,47.04,56.21
49778010,-0.785,0.109,0.819,33.32,43.557,58.992
49778030,-0.775,0.101,0.75,10.36,41.527,56.052
49778030,-0.762,0.095,0.707,-5.442,39.69,54.565
49778050,-0.713,0.088,0.659,-17.745,36.96,59.342
49778050,-0.643,0.118,0.665,-21,36.347,63.472
49778070,-0.648,0.123,0.679,-25.007,37.345,71.452
49778070,-0.678,0.106,0.673,-28.752,37.012,76.44
49778080,-0.693,0.12,0.699,-29.592,37.03,75.127
49778090,-0.727,0.09,0.695,-36.032,34.912,71.68
49778100,-0.739,0.06,0.665,-44.012,30.8,58.922
49778110,-0.78,0.075,0.687,-40.95,19.337,42.577
49778120,-0.848,0.069,0.694,-37.345,0.892,35.175
49778130,-0.833,0.05,0.672,-32.007,-22.995,26.25
49778140,-0.798,-0.003,0.656,-20.825,-47.25,15.137
49778150,-0.718,-0.067,0.658,-5.355,-66.552,4.515
49778160,-0.637,-0.046,0.691,20.877,-74.935,-4.742
49778170,-0.619,0.048,0.741,41.195,-78.33,-4.97
49778180,-0.534,0.113,0.772,45.062,-71.82,-2.66
49778190,-0.454,0.146,0.802,40.145,-52.447,-0.262
49778200,-0.486,0.128,0.77,25.375,-25.287,3.885
49778210,-0.589,0.08,0.75,11.865,-0.507,7.42
49778220,-0.701,0.019,0.724,4.935,12.582,10.097
49778230,-0.792,-0.049,0.721,6.737,11.917,11.077
49778240,-0.864,-0.08,0.714,18.13,-2.572,12.215
49778250,-0.856,0.006,0.758,34.457,-27.02,15.89
49778260,-0.779,0.128,0.779,42.84,-51.642,19.705
49778270,-0.598,0.184,0.752,42.927,-61.53,18.48
49778280,-0.459,0.165,0.723,34.685,-52.01,18.235
49778290,-0.455,0.158,0.725,25.252,-30.677,20.807
49778300,-0.52,0.198,0.761,16.677,-7.087,22.172
49778310,-0.619,0.218,0.782,4.707,10.132,20.02
49778320,-0.693,0.223,0.763,-10.43,17.01,14.945
49778330,-0.727,0.193,0.72,-25.55,14.857,10.727
49778340,-0.725,0.126,0.652,-36.557,7.07,8.417
49778350,-0.693,0.06,0.602,-39.515,-2.642,9.17
49778360,-0.688,-0.019,0.625,-34.387,-14.437,15.382
49778370,-0.718,-0.055,0.689,-17.552,-26.215,23.817
49778380,-0.76,0.002,0.79,3.342,-38.237,29.452
49778390,-0.763,0.07,0.85,15.575,-50.102,28.945
49778400,-0.715,0.097,0.88,18.882,-59.535,24.237
49778410,-0.654,0.105,0.873,18.655,-63.612,20.597
49778420,-0.589,0.131,0.857,17.272,-61.687,19.32
49778420,-0.568,0.143,0.843,13.72,-55.195,20.405
49778440,-0.597,0.145,0.815,10.045,-49.297,21.7
49778440,-0.611,0.14,0.779,8.662,-46.235,22.085
49778460,-0.596,0.131,0.75,9.782,-46.97,20.79
49778460,-0.573,0.131,0.735,12.39,-48.842,19.075
49778480,-0.562,0.134,0.727,16.397,-51.712,17.062
49778480,-0.557,0.146,0.739,20.615,-54.827,15.155
49778500,-0.552,0.164,0.756,22.942,-58.765,14.052
49778500,-0.52,0.176,0.769,22.925,-60.742,13.545
49778510,-0.473,0.18,0.787,20.895,-57.68,13.405
49778520,-0.462,0.17,0.794,17.412,-49.297,13.212
49778530,-0.466,0.155,0.808,15.015,-38.972,14.945
49778540,-0.492,0.152,0.832,14.542,-28.297,20.212
49778550,-0.52,0.159,0.859,14.525,-17.867,22.522
49778560,-0.549,0.152,0.861,13.667,-9.607,21.455
49778570,-0.556,0.167,0.868,14.472,-5.267,20.877
49778580,-0.528,0.206,0.871,14.315,-2.1,21.192
49778590,-0.459,0.24,0.877,10.062,3.202,20.825
49778600,-0.435,0.236,0.867,2.695,13.055,21.017
49778610,-0.459,0.208,0.854,-3.552,22.907,21.927
49778620,-0.482,0.189,0.851,-5.565,30.047,23.135
49778630,-0.524,0.177,0.85,-3.307,30.975,23.59
49778640,-0.58,0.173,0.833,0.962,26.337,20.457
49778650,-0.594,0.209,0.83,5.862,17.29,13.387
49778660,-0.553,0.216,0.821,9.782,6.86,6.037
49778670,-0.482,0.265,0.82,12.005,2.59,-0.945
49778680,-0.467,0.266,0.797,6.142,4.707,-6.842
49778690,-0.468,0.241,0.764,-0.07,10.36,-10.85
49778700,-0.471,0.211,0.75,-2.957,17.535,-9.362
49778710,-0.545,0.185,0.756,-3.832,22.837,-3.517
49778720,-0.645,0.189,0.777,-2.695,24.185,0.892
49778730,-0.691,0.196,0.79,-2.082,21.192,1.4
49778740,-0.701,0.181,0.78,-2.065,14.647,1.33
49778750,-0.705,0.166,0.77,-0.91,6.545,3.342
49778760,-0.675,0.177,0.763,1.592,-1.767,6.772
49778760,-0.623,0.188,0.763,3.307,-7.175,10.342
49778780,-0.593,0.194,0.763,3.22,-9.922,12.95
49778780,-0.585,0.195,0.765,3.237,-10.92,13.877
49778800,-0.562,0.203,0.778,3.99,-12.53,12.495
49778800,-0.535,0.207,0.795,4.725,-14.472,9.94
49778820,-0.496,0.217,0.811,5.722,-16.082,6.965
49778820,-0.456,0.227,0.827,6.212,-14.84,4.637
49778830,-0.441,0.216,0.836,5.582,-11.497,2.467
49778840,-0.437,0.205,0.839,6.317,-5.53,0.717
49778850,-0.457,0.216,0.849,7.735,0.63,-0.682
49778860,-0.501,0.234,0.854,7.77,6.107,-2.695
49778870,-0.534,0.233,0.847,6.405,8.872,-6.055
49778880,-0.554,0.232,0.838,5.512,10.272,-8.155
49778890,-0.586,0.222,0.828,5.495,9.03,-8.12
49778900,-0.623,0.196,0.817,6.772,5.67,-7.245
49778910,-0.632,0.179,0.81,11.392,-0.262,-6.335
49778920,-0.612,0.18,0.808,18.76,-5.722,-4.48
49778930,-0.591,0.209,0.817,25.97,-9.292,-2.362
49778940,-0.567,0.244,0.815,29.417,-9.222,-1.68
49778950,-0.537,0.256,0.803,28.945,-6.422,-1.977
49778960,-0.514,0.243,0.783,26.897,-0.577,-1.925
49778970,-0.504,0.233,0.766,25.27,6.527,-1.855
49778980,-0.51,0.228,0.761,24.517,14.105,-1.75
49778990,-0.512,0.23,0.76,24.85,20.02,-1.4
49779000,-0.498,0.247,0.774,25.935,26.477,-0.052
49779010,-0.492,0.263,0.789,25.462,35.017,0.682
49779020,-0.518,0.284,0.811,21,44.047,0.157
49779030,-0.58,0.296,0.797,13.072,50.785,-1.592
49779040,-0.62,0.281,0.769,5.197,53.235,-4.305
49779050,-0.631,0.258,0.735,-1.19,51.047,-6.947
49779060,-0.653,0.239,0.706,-4.025,45.202,-7.367
49779070,-0.663,0.233,0.685,-2.992,36.89,-5.477
49779080,-0.665,0.239,0.676,-0.63,28.542,-2.292
49779090,-0.675,0.241,0.671,0.91,21.787,-0.577
49779100,-0.676,0.239,0.673,1.365,16.73,-0.962
49779110,-0.663,0.237,0.687,1.715,13.527,-0.805
49779120,-0.657,0.239,0.707,2.677,12.285,0.577
49779130,-0.648,0.248,0.732,4.095,14.017,2.187
49779140,-0.646,0.257,0.752,5.267,17.867,3.937
49779150,-0.652,0.274,0.763,5.407,22.645,5.792
49779160,-0.638,0.29,0.758,4.042,26.967,6.195
49779170,-0.628,0.285,0.741,1.785,30.712,5.74
49779170,-0.632,0.281,0.72,0.087,32.602,5.18
49779190,-0.639,0.277,0.714,-0.612,33.39,4.025
49779190,-0.663,0.272,0.701,-0.787,31.552,2.117
49779210,-0.669,0.277,0.687,-0.787,28.402,0.21
49779210,-0.667,0.256,0.668,-1.802,24.202,-1.4
49779230,-0.686,0.229,0.653,-2.117,20.247,-1.417
49779230,-0.708,0.227,0.655,-0.385,14.892,0.595
49779250,-0.722,0.238,0.665,1.452,9.642,3.272
49779250,-0.726,0.247,0.677,2.415,4.497,4.742
49779260,-0.716,0.25,0.681,2.607,0.49,5.845
49779270,-0.7,0.249,0.681,2.537,-3.15,6.912
49779280,-0.669,0.26,0.684,2.327,-4.83,7.997
49779290,-0.64,0.274,0.687,2.24,-4.585,8.277
49779300,-0.624,0.277,0.692,0.682,-0.997,6.947
49779310,-0.624,0.271,0.693,-1.277,3.92,4.952
49779320,-0.637,0.288,0.686,-2.52,10.255,4.305
49779330,-0.645,0.333,0.668,-6.107,16.852,3.552
49779340,-0.7,0.265,0.675,-13.3,20.737,2.59
49779350,-0.755,0.241,0.65,-14.14,20.23,5.617
49779360,-0.771,0.29,0.656,-10.325,15.032,8.89
49779370,-0.787,0.251,0.624,-11.392,2.817,7.647
49779380,-0.728,0.208,0.601,-7.052,-9.782,7.175
49779390,-0.655,0.218,0.636,-0.332,-16.362,9.292
49779400,-0.675,0.246,0.684,3.972,-16.66,9.555
49779410,-0.695,0.264,0.728,7.91,-14.787,8.295
49779420,-0.67,0.265,0.762,10.36,-14.945,7.262
49779430,-0.632,0.273,0.774,10.412,-15.697,6.965
49779440,-0.593,0.289,0.783,9.642,-13.79,6.702
49779450,-0.574,0.288,0.768,7.245,-8.4,5.932
49779460,-0.583,0.273,0.739,4.83,-0.525,4.585
49779470,-0.618,0.251,0.707,4.182,7.262,3.395
49779480,-0.651,0.262,0.686,5.862,11.847,2.572
49779490,-0.669,0.293,0.676,6.755,13.72,1.977
49779500,-0.688,0.308,0.662,3.902,13.457,0.927
49779510,-0.699,0.304,0.641,-0.367,11.882,-0.297
49779510,-0.707,0.291,0.625,-4.322,8.417,-0.682
49779530,-0.7,0.291,0.625,-6.842,4.06,-0.735
49779530,-0.694,0.291,0.642,-8.645,-0.175,-1.102
49779550,-0.694,0.277,0.648,-10.325,-3.22,-2.555
49779550,-0.676,0.258,0.653,-10.832,-4.41,-4.06
49779570,-0.687,0.248,0.668,-9.817,-2.922,-3.412
49779570,-0.709,0.249,0.684,-7.297,-0.77,-2.152
49779580,-0.759,0.236,0.713,-4.182,-1.015,-0.665
49779590,-0.71,0.234,0.703,-0.7,-6.72,-0.735
49779600,-0.608,0.276,0.716,5.005,-7.735,-2.257
49779610,-0.565,0.286,0.691,6.23,-3.045,-3.307
49779620,-0.551,0.324,0.707,3.972,11.2,-3.552
49779630,-0.698,0.299,0.705,-2.765,23.38,-1.802
49779640,-0.739,0.274,0.67,-9.642,27.527,-3.43
49779650,-0.673,0.287,0.638,-12.512,27.877,-6.527
49779660,-0.662,0.272,0.612,-15.732,28.245,-8.33
49779670,-0.713,0.244,0.61,-15.977,28.927,-9.03
49779680,-0.755,0.218,0.632,-13.86,28.087,-7.35
49779690,-0.774,0.217,0.655,-9.852,24.447,-4.952
49779700,-0.758,0.248,0.671,-6.422,21.157,-2.852
49779710,-0.717,0.254,0.671,-4.882,19.127,-1.837
49779720,-0.681,0.276,0.673,-4.777,20.37,-2.397
49779730,-0.66,0.295,0.673,-8.347,23.922,-4.427
49779740,-0.649,0.302,0.671,-13.737,29.767,-8.592
49779750,-0.651,0.302,0.657,-19.897,35.962,-15.102
49779760,-0.669,0.273,0.63,-25.917,41.37,-21.542
49779770,-0.701,0.235,0.608,-29.137,45.062,-24.657
49779780,-0.776,0.202,0.608,-29.295,45.22,-22.872
49779790,-0.852,0.188,0.617,-25.987,40.722,-17.395
49779800,-0.859,0.189,0.615,-20.825,33.827,-11.06
49779810,-0.818,0.222,0.628,-17.36,29.12,-4.952
49779820,-0.796,0.248,0.614,-16.257,29.137,-0.017
49779830,-0.787,0.28,0.595,-19.81,31.255,2.957
49779840,-0.79,0.248,0.562,-24.937,32.847,4.707
49779850,-0.79,0.211,0.538,-27.002,33.39,4.672
49779860,-0.79,0.217,0.538,-26.88,31.867,2.152
49779870,-0.81,0.223,0.543,-26.705,28.927,-1.767
49779880,-0.836,0.207,0.544,-28.087,23.555,-7.297
49779890,-0.835,0.155,0.538,-28.052,17.097,-12.967
49779900,-0.812,0.113,0.53,-22.907,9.327,-15.067
49779910,-0.811,0.102,0.564,-15.015,2.397,-12.04
49779920,-0.824,0.095,0.614,-5.355,-2.047,-7.35
49779920,-0.839,0.093,0.656,3.937,-5.565,-3.412
49779940,-0.845,0.072,0.674,13.265,-11.392,0.962
49779940,-0.832,0.077,0.692,25.287,-18.795,6.825
49779960,-0.796,0.136,0.709,36.015,-25.392,10.237
49779960,-0.739,0.175,0.689,41.895,-28.192,7.892
49779980,-0.615,0.199,0.681,45.587,-23.642,2.975
49779980,-0.657,0.219,0.657,42.35,-11.182,-0.087
49780000,-0.727,0.192,0.631,40.145,-2.362,-3.71
49780000,-0.749,0.183,0.613,43.522,1.645,-7.595
49780010,-0.756,0.19,0.605,47.687,0.14,-11.147
49780020,-0.732,0.203,0.604,50.925,0.875,-14.84
49780030,-0.756,0.233,0.602,49.7,3.85,-15.487
49780040,-0.8,0.263,0.59,43.47,6.965,-13.492
49780050,-0.832,0.272,0.593,33.827,7.402,-10.622
49780060,-0.865,0.229,0.562,23.782,2.117,-7.07
49780070,-0.836,0.226,0.551,19.95,-7.752,-6.247
49780080,-0.81,0.234,0.543,16.712,-17.605,-7.892
49780090,-0.808,0.229,0.528,12.827,-27.055,-13.352
49780100,-0.783,0.222,0.525,10.395,-35.367,-21.63
49780110,-0.748,0.225,0.531,9.17,-42.857,-28.997
49780120,-0.729,0.253,0.532,5.74,-49.035,-35.77
49780130,-0.792,0.235,0.547,2.52,-52.85,-41.457
49780140,-0.788,0.246,0.562,-2.87,-54.197,-50.312
49780150,-0.752,0.272,0.592,-9.502,-55.247,-58.117
49780160,-0.707,0.284,0.614,-20.02,-54.145,-62.16
49780170,-0.668,0.277,0.611,-32.445,-50.662,-64.697
49780180,-0.683,0.244,0.624,-42.542,-44.835,-63.665
49780190,-0.739,0.205,0.612,-54.022,-38.22,-58.362
49780200,-0.804,0.146,0.595,-63.245,-32.917,-54.145
49780210,-0.785,0.107,0.584,-67.13,-29.225,-49.682
49780220,-0.796,0.054,0.596,-63.507,-28.14,-39.515
49780230,-0.803,0.064,0.627,-56.245,-28.84,-32.235
49780240,-0.821,0.073,0.66,-47.057,-30.905,-29.015
49780250,-0.777,0.119,0.681,-41.685,-30.905,-29.347
49780260,-0.753,0.129,0.681,-40.25,-30.117,-31.762
49780260,-0.698,0.151,0.69,-41.982,-25.637,-36.785
49780280,-0.604,0.185,0.683,-50.172,-19.022,-44.485
49780280,-0.616,0.164,0.671,-58.292,-9.852,-49.122
49780300,-0.655,0.119,0.645,-65.555,1.19,-52.342
49780300,-0.671,0.036,0.603,-70.245,10.78,-54.145
49780320,-0.744,0.035,0.635,-63.56,19.827,-43.61
49780320,-1.156,-0.235,0.633,-40.407,11.34,-3.325
49780330,-0.985,-0.109,0.708,-21.332,-6.02,-13.352
49780340,-0.871,-0.059,0.689,-13.527,-17.797,-12.092
49780350,-0.755,0.01,0.704,-6.615,-20.912,-11.9
49780360,-0.672,0.058,0.693,-6.37,-16.275,-10.465
49780370,-0.641,0.064,0.686,-6.632,-8.155,-8.61
49780380,-0.704,0.032,0.689,-6.615,-0.822,-6.982
49780390,-0.764,-0.005,0.682,-6.142,-0.297,-8.505
49780400,-0.767,-0.004,0.676,-3.867,-4.567,-11.865
49780410,-0.745,-0.002,0.678,-0.595,-9.835,-15.785
49780420,-0.698,-0.023,0.679,0.665,-11.55,-19.127
49780430,-0.682,-0.041,0.698,4.2,-8.032,-21.402
49780440,-0.706,-0.028,0.707,7.192,-6.16,-20.457
49780450,-0.716,-0.02,0.717,6.055,-4.007,-20.492
49780460,-0.727,-0.035,0.696,1.61,-0.612,-17.412
49780470,-0.742,-0.049,0.698,-0.437,1.75,-10.745
49780480,-0.746,-0.043,0.685,-3.15,2.835,-5.04
49780490,-0.729,-0.027,0.687,-4.147,2.45,-4.41
49780500,-0.705,-0.017,0.688,-5.372,2.24,-3.78
49780510,-0.772,-0.018,0.686,-6.037,0.42,-3.92
49780520,-0.768,0.019,0.673,-8.295,-8.365,-7.56
49780530,-0.619,-0.008,0.683,-14.385,-10.885,-9.8
49780540,-0.687,-0.079,0.676,-13.807,-5.057,-5.915
49780550,-0.744,-0.089,0.68,-9.887,-2.117,-3.36
49780560,-0.712,-0.07,0.703,-6.58,3.937,-1.925
49780570,-0.775,-0.061,0.702,-4.147,5.267,0.28
49780580,-0.806,-0.053,0.686,-3.605,1.645,-0.63
49780590,-0.76,-0.033,0.67,-1.33,-4.2,-4.445
49780600,-0.733,-0.027,0.66,-3.395,-9.275,-9.397
49780610,-0.751,-0.026,0.675,-5.792,-13.702,-11.182
49780620,-0.736,-0.019,0.663,-9.45,-18.497,-6.807
49780630,-0.737,-0.038,0.691,-9.677,-20.667,-4.69
49780640,-0.743,-0.053,0.68,-13.562,-21.84,-3.762
49780650,-0.717,-0.05,0.696,-13.65,-18.357,-3.902
49780660,-0.758,-0.05,0.713,-14.507,-14.84,-2.747
49780670,-0.752,-0.062,0.706,-15.575,-12.967,-3.587
49780670,-0.689,-0.06,0.703,-13.352,-8.855,-5.512
49780680,-0.696,-0.047,0.711,-9.642,-4.077,-4.83
49780690,-0.726,-0.039,0.715,-7.962,-1.365,-4.427
49780700,-0.737,-0.038,0.711,-8.277,-1.872,-6.125
49780710,-0.739,-0.052,0.692,-9.765,-4.427,-7.297
49780720,-0.767,-0.089,0.669,-10.85,-7.14,-8.347
49780730,-0.774,-0.117,0.651,-8.645,-11.655,-11.165
49780740,-0.689,-0.12,0.656,-5.74,-13.912,-12.722
49780750,-0.65,-0.114,0.652,-2.712,-7.332,-8.995
49780760,-0.763,-0.088,0.679,-0.647,-5.32,-4.06
49780770,-0.742,-0.072,0.675,-2.73,-7.052,-4.077
49780780,-0.714,-0.073,0.677,-5.25,-7.542,-3.57
49780790,-0.731,-0.087,0.67,-8.347,-7.455,-2.38
49780800,-0.759,-0.101,0.669,-7.945,-8.417,-2.485
49780810,-0.748,-0.085,0.689,-4.952,-11.76,-3.955
49780820,-0.729,-0.06,0.712,-3.202,-14.682,-6.09
49780830,-0.717,-0.072,0.725,-4.427,-16.432,-6.842
49780840,-0.714,-0.103,0.735,-5.355,-15.172,-6.825
49780850,-0.72,-0.081,0.756,-3.902,-15.732,-7.542
49780860,-0.681,-0.07,0.774,-6.51,-14.35,-8.242
49780870,-0.676,-0.095,0.759,-7.647,-11.41,-8.137
49780880,-0.706,-0.095,0.761,-5.897,-10.237,-7.945
49780890,-0.714,-0.078,0.752,-7.122,-11.375,-9.467
49780900,-0.696,-0.093,0.755,-7.525,-12.81,-11.34
49780910,-0.69,-0.1,0.736,-8.557,-12.092,-12.127
49780920,-0.745,-0.103,0.721,-9.17,-13.335,-12.18
49780930,-0.777,-0.106,0.7,-10.08,-17.395,-13.615
49780940,-0.731,-0.097,0.676,-9.135,-22.645,-16.712
49780950,-0.671,-0.124,0.704,-8.96,-23.24,-16.485
49780960,-0.727,-0.141,0.682,-8.312,-23.082,-13.947
49780970,-0.83,-0.107,0.69,-5.88,-33.127,-13.807
49780980,-0.677,-0.137,0.695,-9.607,-42.507,-12.495
49780990,-0.519,-0.209,0.689,-7.105,-35.647,-3.5
49781000,-0.574,-0.228,0.715,1.61,-20.737,6.912
49781010,-0.644,-0.191,0.76,9.415,-8.015,7.857
49781010,-0.66,-0.157,0.767,13.545,-1.557,6.65
49781030,-0.644,-0.139,0.761,14.49,1.54,8.277
49781030,-0.624,-0.131,0.729,14.192,2.625,8.837
49781050,-0.604,-0.134,0.691,15.47,5.775,7.035
49781050,-0.585,-0.128,0.667,19.477,10.342,4.83
49781070,-0.664,-0.114,0.686,24.832,13.457,5.635
49781070,-0.74,-0.113,0.683,25.637,8.995,5.005
49781080,-0.737,-0.113,0.681,24.22,2.187,0.28
49781090,-0.746,-0.146,0.674,22.277,-5.495,-5.04
49781100,-0.763,-0.167,0.677,23.205,-11.812,-10.937
49781110,-0.784,-0.174,0.691,26.355,-19.057,-14.63
49781120,-0.764,-0.174,0.696,29.645,-25.095,-20.65
49781130,-0.732,-0.174,0.686,32.812,-29.61,-27.755
49781140,-0.699,-0.188,0.668,38.675,-31.587,-31.22
49781150,-0.624,-0.149,0.639,47.32,-29.977,-27.02
49781160,-0.579,-0.096,0.654,57.4,-23.52,-16.502
49781170,-0.538,-0.058,0.661,59.272,-13.212,-10.36
49781180,-0.493,-0.012,0.67,56.28,4.742,-8.785
49781190,-0.629,-0.011,0.717,53.515,17.202,-6.422
49781200,-0.683,-0.014,0.725,48.37,21.105,-6.055
49781210,-0.63,0.003,0.729,44.362,22.26,-8.33
49781220,-0.624,0.006,0.736,41.72,25.707,-10.815
49781230,-0.62,0.028,0.743,38.22,29.907,-13.405
49781240,-0.729,-0.034,0.72,40.18,29.75,-3.342
49781250,-0.71,0.034,0.769,44.625,24.412,-3.08
49781260,-0.705,0.053,0.754,35.98,19.057,-2.957
49781270,-0.738,0.029,0.759,32.515,13.895,0.822
49781280,-0.718,0.024,0.748,29.19,8.26,1.627
49781290,-0.7,0.034,0.752,28.21,4.585,2.52
49781300,-0.697,0.035,0.743,26.302,1.102,5.53
49781310,-0.684,0.022,0.738,26.547,-0.472,8.802
49781320,-0.677,0.033,0.75,27.895,0.035,13.772
49781330,-0.698,0.047,0.73,28.245,-0.122,19.11
49781340,-0.633,0.081,0.736,28.157,2.87,23.135
49781350,-0.653,0.104,0.748,24.29,8.05,28
49781350,-0.722,0.122,0.758,18.742,9.187,30.87
49781370,-0.698,0.133,0.746,11.585,8.697,30.747
49781370,-0.641,0.134,0.744,4.637,10.605,31.587
49781390,-0.671,0.095,0.74,-0.507,14.28,33.04
49781390,-0.711,0.073,0.73,-2.66,15.452,30.52
49781410,-0.7,0.072,0.734,0.315,15.155,25.462
49781410,-0.691,0.091,0.743,2.747,14.49,24.745
49781420,-0.693,0.102,0.738,1.347,13.982,24.29
49781430,-0.703,0.109,0.74,2.642,12.46,21.14
49781440,-0.712,0.125,0.749,2.712,10.395,18.322
49781450,-0.701,0.131,0.729,-1.242,7,17.99
49781460,-0.686,0.138,0.714,-6.352,4.06,20.912
49781470,-0.688,0.139,0.703,-11.182,-0.105,27.737
49781480,-0.693,0.145,0.698,-16.765,-3.377,37.607
49781490,-0.708,0.131,0.71,-22.032,-6.3,49.21
49781500,-0.745,0.086,0.696,-28.595,-8.662,58.397
49781510,-0.768,0.043,0.692,-32.13,-10.535,56.052
49781520,-0.788,-0.017,0.663,-33.407,-9.695,48.142
49781530,-0.785,-0.062,0.665,-27.965,-7.7,37.1
49781540,-0.772,-0.06,0.678,-17.955,-6.125,26.442
49781550,-0.754,-0.004,0.707,-7.822,-6.667,19.757
49781560,-0.736,0.033,0.723,-1.977,-7.7,18.322
49781570,-0.697,0.063,0.735,1.907,-7.892,18.532
49781580,-0.688,0.083,0.744,3.062,-7.245,19.197
49781590,-0.705,0.115,0.752,2.747,-7.227,19.057
49781600,-0.71,0.135,0.747,-1.61,-8.645,17.08
49781610,-0.687,0.137,0.743,-7.542,-11.34,12.845
49781620,-0.681,0.136,0.73,-13.212,-13.387,7.122
49781630,-0.682,0.136,0.72,-18.112,-16.012,0.087
49781640,-0.673,0.126,0.707,-22.26,-19.81,-6.3
49781650,-0.645,0.108,0.69,-23.677,-23.065,-8.872
49781660,-0.641,0.058,0.663,-22.557,-24.797,-6.807
49781670,-0.624,0.048,0.691,-15.12,-24.202,-6.3
49781680,-0.642,0.05,0.714,-10.99,-21.035,-3.255
49781690,-0.679,0.052,0.744,-8.225,-17.465,-0.857
49781700,-0.711,0.055,0.766,-5.6,-14.927,-0.91
49781710,-0.741,0.048,0.792,-4.917,-14.35,-1.487
49781720,-0.749,0.02,0.794,-4.83,-16.467,-2.835
49781730,-0.697,0.017,0.785,-0.665,-17.727,-2.8
49781740,-0.66,0.071,0.789,2.852,-15.82,0.752
49781750,-0.668,0.11,0.78,-0.787,-12.477,2.38
49781760,-0.66,0.093,0.763,-5.775,-9.695,-0.175
49781760,-0.633,0.081,0.738,-8.977,-6.685,-1.365
49781780,-0.646,0.073,0.731,-11.725,-4.952,0.052
49781780,-0.675,0.055,0.712,-14.035,-5.285,0.84
49781800,-0.686,0.024,0.719,-11.427,-7.857,0.822
49781800,-0.676,0.029,0.724,-7.77,-10.377,0.735
49781820,-0.665,0.038,0.732,-5.617,-12.722,1.067
49781820,-0.655,0.045,0.738,-3.5,-12.967,1.067
49781830,-0.652,0.043,0.745,-2.415,-13.002,1.417
49781840,-0.67,0.04,0.745,-1.522,-13.177,2.432
49781850,-0.67,0.052,0.748,0.017,-14.21,2.607
49781860,-0.662,0.059,0.746,0.472,-14.595,1.977
49781870,-0.651,0.06,0.742,0.332,-14.77,0.7
49781880,-0.653,0.065,0.747,0.472,-14.14,0.122
49781890,-0.667,0.072,0.751,0.157,-14.787,-0.245
49781900,-0.667,0.075,0.753,-0.647,-15.697,-0.892
49781910,-0.649,0.075,0.757,-1.452,-15.925,-1.085
49781920,-0.645,0.071,0.769,-2.712,-14.525,-0.665
49781930,-0.648,0.069,0.774,-3.867,-13.317,-1.032
49781940,-0.644,0.067,0.78,-4.69,-12.075,-1.487
49781950,-0.637,0.056,0.783,-5.127,-11.095,-1.225
49781960,-0.634,0.049,0.78,-4.672,-9.712,-0.752
49781970,-0.629,0.058,0.773,-4.06,-8.487,-1.015
49781980,-0.621,0.064,0.765,-4.2,-6.72,-1.767
49781990,-0.622,0.063,0.758,-4.777,-4.847,-2.572
49782000,-0.628,0.062,0.745,-5.127,-3.675,-3.027
49782010,-0.626,0.072,0.731,-5.337,-2.992,-2.87
49782020,-0.646,0.053,0.752,-6.317,-2.94,-2.38
49782030,-0.668,0.039,0.728,-5.53,-5.32,-2.45
49782040,-0.637,0.062,0.757,-3.325,-7.315,-2.502
49782050,-0.645,0.043,0.756,-2.94,-8.12,-1.68
49782060,-0.649,0.053,0.762,-2.03,-8.645,-1.12
49782070,-0.628,0.047,0.781,-3.097,-6.93,-0.122
49782080,-0.648,0.022,0.779,-2.957,-5.617,1.137
49782080,-0.643,0.033,0.785,-1.925,-4.847,1.575
49782100,-0.635,0.035,0.789,-0.787,-4.865,1.68
49782100,-0.624,0.034,0.784,-0.332,-4.585,0.175
49782120,-0.611,0.04,0.777,-0.017,-4.2,-1.172
49782120,-0.603,0.045,0.774,0.122,-2.607,-0.98
49782140,-0.604,0.048,0.778,-0.542,-0.595,-0.56
49782140,-0.62,0.043,0.775,-2.065,1.452,-0.787
49782160,-0.626,0.037,0.767,-2.817,2.677,-1.837
49782160,-0.637,0.037,0.767,-2.327,3.482,-1.68
49782170,-0.65,0.04,0.767,-2.275,2.502,-1.592
49782180,-0.655,0.041,0.767,-2.555,1.592,-1.487
49782190,-0.659,0.037,0.759,-3.027,-0.035,-1.102
49782200,-0.662,0.034,0.757,-3.325,-1.102,-0.717
49782210,-0.664,0.034,0.759,-3.307,-2.59,-0.63
49782220,-0.661,0.034,0.758,-3.132,-3.43,-0.525
49782230,-0.653,0.037,0.762,-2.765,-4.445,-0.437
49782240,-0.64,0.043,0.762,-2.8,-4.62,-0.245
49782250,-0.638,0.046,0.766,-2.957,-4.777,-0.035
49782260,-0.638,0.043,0.761,-3.237,-4.462,-0.122
49782270,-0.638,0.041,0.76,-2.87,-4.55,-0.612
49782280,-0.641,0.038,0.758,-1.697,-4.13,-1.032
49782290,-0.651,0.038,0.756,-0.017,-4.217,-1.61
49782300,-0.649,0.044,0.761,1.54,-4.235,-2.415
49782310,-0.646,0.05,0.765,2.327,-4.567,-2.87
49782320,-0.646,0.054,0.77,2.17,-4.62,-2.922
49782330,-0.647,0.051,0.773,1.627,-4.9,-2.555
49782340,-0.648,0.037,0.774,1.05,-5.11,-1.68
49782350,-0.653,0.054,0.748,1.645,-5.6,-0.367
49782360,-0.626,0.062,0.783,1.295,-4.27,-0.49
49782370,-0.631,0.037,0.752,0.157,-4.165,-1.26
49782380,-0.63,0.041,0.771,1.417,-2.887,-0.455
49782390,-0.651,0.037,0.77,2.257,-3.517,-0.14
49782400,-0.65,0.035,0.776,3.745,-4.252,-1.277
49782410,-0.641,0.037,0.779,3.745,-4.847,-0.595
49782420,-0.645,0.042,0.77,2.047,-5.442,0.542
49782430,-0.637,0.045,0.76,-0.402,-5.617,0.84
49782440,-0.636,0.041,0.747,-3.062,-5.145,1.575
49782450,-0.643,0.03,0.748,-5.162,-5.075,1.33
49782460,-0.653,0.006,0.761,-4.707,-5.372,1.312
49782470,-0.656,-0.005,0.771,-1.89,-6.02,2.1
49782480,-0.643,0.024,0.775,1.522,-7.56,2.66
49782490,-0.614,0.055,0.787,1.575,-7.77,1.767
49782500,-0.609,0.038,0.785,-0.805,-6.527,1.172
49782510,-0.618,0.029,0.779,-2.205,-4.427,1.645
49782510,-0.617,0.038,0.782,-2.362,-3.657,1.61
49782530,-0.619,0.044,0.784,-1.942,-2.257,1.575
49782530,-0.629,0.039,0.767,-2.625,-1.452,1.365
49782550,-0.618,0.055,0.768,-4.287,-0.245,0.595
49782550,-0.637,0.044,0.759,-6.405,-0.297,0.56
49782570,-0.638,0.019,0.758,-6.527,-1.47,0.7
49782570,-0.631,0.012,0.751,-3.132,-3.692,1.61
49782580,-0.617,0.051,0.766,0.472,-4.427,2.187
49782590,-0.622,0.068,0.774,0.28,-3.902,1.89
49782600,-0.643,0.048,0.782,-1.837,-2.607,1.172
49782610,-0.645,0.033,0.774,-1.977,-2.415,1.067
49782620,-0.629,0.057,0.785,-0.682,-2.205,1.942
49782630,-0.635,0.06,0.786,-1.207,-1.68,2.135
49782640,-0.627,0.063,0.79,-2.922,-0.315,0.875
49782650,-0.629,0.039,0.773,-5.232,1.067,0.787
49782660,-0.618,0.038,0.771,-5.6,2.852,1.05
49782670,-0.605,0.043,0.77,-5.81,4.76,1.732
49782680,-0.62,0.042,0.767,-6.51,6.755,1.662
49782690,-0.633,0.039,0.758,-7.507,7.49,0.577
49782700,-0.654,0.028,0.766,-7.665,7.577,-0.07
49782710,-0.692,0.007,0.764,-6.405,5.407,-0.927
49782720,-0.694,0.015,0.766,-2.747,2.065,-1.96
49782730,-0.694,0.026,0.771,0.297,-1.19,-1.522
49782740,-0.7,0.034,0.774,1.19,-3.587,-1.837
49782750,-0.688,0.043,0.771,-0.297,-4.83,-3.15
49782760,-0.665,0.039,0.766,-2.905,-5.04,-3.5
49782770,-0.657,0.019,0.76,-4.917,-5.162,-3.255
49782780,-0.642,0.012,0.757,-4.882,-5.88,-3.097
49782790,-0.616,0.016,0.761,-3.132,-6.125,-2.607
49782800,-0.604,0.022,0.765,-1.785,-5.722,-2.31
49782810,-0.598,0.031,0.77,-1.137,-4.007,-2.537
49782820,-0.601,0.039,0.779,-1.47,-1.61,-2.73
49782830,-0.615,0.04,0.787,-2.835,1.05,-3.412
49782830,-0.621,0.033,0.784,-4.41,3.482,-5.477
49782850,-0.621,0.036,0.789,-4.83,6.737,-7.385
49782850,-0.697,-0.022,0.76,-3.185,7.227,-3.36
49782870,-0.667,0.025,0.774,2.765,5.705,-5.67
49782870,-0.648,0.064,0.761,2.537,5.617,-7.892
49782890,-0.675,0.063,0.744,0.56,6.58,-4.917
49782890,-0.682,0.053,0.724,-1.557,5.11,-6.44
49782910,-0.681,0.051,0.725,-1.312,3.062,-8.767
49782910,-0.683,0.034,0.725,0.07,-0.105,-10.395
49782920,-0.668,0.032,0.72,3.062,-1.89,-11.882
49782930,-0.636,0.06,0.728,5.302,-0.98,-13.475
49782940,-0.673,0.043,0.742,4.445,1.102,-14.402
49782950,-0.718,0.004,0.737,6.65,-0.175,-15.347
49782960,-0.685,0.012,0.751,11.392,-2.467,-16.887
49782970,-0.632,0.046,0.762,14.367,-3.657,-19.005
49782980,-0.619,0.064,0.78,15.417,-0.77,-19.39
49782990,-0.633,0.043,0.798,12.67,2.52,-19.372
49783000,-0.637,-0.004,0.816,12.075,5.075,-18.672
49783010,-0.634,-0.023,0.817,17.01,5.39,-17.307
49783020,-0.592,0.055,0.822,20.895,7.052,-15.96
49783030,-0.584,0.088,0.826,15.417,12.355,-15.942
49783040,-0.599,0.054,0.777,7.315,18.497,-16.887
49783050,-0.581,0.033,0.779,3.29,25.392,-15.487
49783060,-0.641,-0.024,0.749,-0.595,29.872,-13.212
49783070,-0.678,-0.045,0.722,2.362,29.522,-13.317
49783080,-0.68,-0.049,0.703,5.092,27.492,-14.63
49783090,-0.687,-0.065,0.652,5.827,24.605,-16.467
49783100,-0.667,-0.061,0.643,7.507,24.587,-19.075
49783110,-0.728,-0.061,0.668,6.755,25.252,-14.437
49783120,-0.848,-0.103,0.655,3.272,18.777,-7.332
49783130,-0.836,-0.109,0.674,5.547,5.775,-8.89
49783140,-0.762,-0.06,0.71,8.82,-5.565,-8.085
49783150,-0.72,-0.052,0.725,5.477,-11.48,-5.285
49783160,-0.704,-0.054,0.739,6.37,-12.337,-5.477
49783170,-0.7,-0.014,0.757,6.982,-11.182,-5.022
49783180,-0.697,0.024,0.761,4.095,-10.762,-5.617
49783190,-0.674,0.04,0.774,1.54,-9.695,-6.16
49783200,-0.645,0.059,0.779,-1.452,-8.592,-5.757
49783210,-0.621,0.077,0.779,-4.235,-6.335,-4.725
49783220,-0.603,0.085,0.782,-7.332,-3.5,-3.185
49783230,-0.61,0.084,0.761,-10.325,-0.787,-1.312
49783240,-0.591,0.072,0.751,-11.392,0.717,0.245
49783250,-0.58,0.071,0.741,-10.937,4.41,3.43
49783260,-0.603,0.071,0.751,-10.377,7.787,5.302
49783260,-0.593,0.084,0.753,-10.15,11.025,3.78
49783280,-0.58,0.09,0.766,-11.2,14.507,1.61
49783280,-0.541,0.11,0.782,-13.457,19.057,-0.945
49783300,-0.621,0.109,0.826,-17.237,22.452,11.13
49783300,-0.624,0.094,0.782,-24.762,22.26,16.747
49783320,-0.567,0.073,0.817,-23.222,25.235,18.41
49783320,-0.635,0.029,0.786,-28.7,29.12,20.982
49783330,-0.716,-0.006,0.767,-29.942,32.725,17.797
49783340,-0.777,-0.015,0.742,-32.13,39.06,9.747
49783350,-0.9,-0.038,0.722,-35.892,38.08,-2.415
49783360,-0.998,-0.05,0.702,-36.872,27.055,-5.67
49783370,-0.87,-0.05,0.659,-40.67,16.905,-9.397
49783380,-0.825,-0.059,0.635,-43.242,13.247,-4.165
49783390,-0.833,-0.09,0.607,-46.795,11.655,-4.655
49783400,-0.844,-0.095,0.624,-44.59,9.887,-3.29
49783410,-0.814,-0.107,0.582,-44.835,4.83,-3.412
49783420,-0.762,-0.103,0.581,-38.36,1.19,-6.107
49783430,-0.747,-0.081,0.588,-34.352,-0.542,-6.352
49783440,-0.76,-0.094,0.587,-32.217,-1.47,-6.335
49783450,-0.743,-0.078,0.604,-27.002,-0.682,-6.685
49783460,-0.79,-0.073,0.648,-23.572,-0.245,-5.6
49783470,-0.87,-0.105,0.646,-24.57,-9.1,-7.472
49783480,-0.767,-0.09,0.667,-22.557,-17.692,-12.53
49783490,-0.622,-0.1,0.684,-21.245,-14.682,-12.512
49783500,-0.668,-0.106,0.693,-21.017,-4.795,-7.017
49783510,-0.752,-0.102,0.71,-21.105,2.415,-3.272
49783520,-0.777,-0.107,0.699,-22.61,2.59,-2.642
49783530,-0.748,-0.128,0.668,-24.377,-0.192,-2.345
49783540,-0.716,-0.134,0.643,-23.73,-0.945,-0.402
49783550,-0.689,-0.129,0.622,-22.487,2.467,1.925
49783560,-0.694,-0.144,0.596,-21.385,8.067,3.85
49783570,-0.71,-0.173,0.56,-17.447,14.07,4.515
49783580,-0.717,-0.177,0.531,-10.132,18.69,4.812
49783580,-0.734,-0.173,0.522,-1.487,21.735,6.247
49783600,-0.844,-0.206,0.537,6.16,18.06,8.19
49783600,-0.931,-0.249,0.529,15.33,1.732,4.777
49783620,-0.861,-0.196,0.545,30.625,-14.735,-4.322
49783620,-0.808,-0.142,0.571,40.232,-30.275,-8.995
49783640,-0.775,-0.124,0.577,42.14,-41.422,-10.692
49783640,-0.693,-0.086,0.606,43.085,-41.912,-12.057
49783660,-0.63,-0.078,0.61,39.025,-35.577,-9.572
49783660,-0.611,0,0.687,28.542,-22.487,-4.847
49783670,-0.825,0.027,0.759,7.945,-19.075,2.782
49783680,-0.757,-0.04,0.746,-10.465,-19.88,2.835
49783690,-0.68,-0.118,0.75,-15.715,-16.327,0.542
49783700,-0.735,-0.139,0.754,-20.002,-10.85,2.45
49783710,-0.794,-0.135,0.775,-23.03,-7.525,2.502
49783720,-0.807,-0.143,0.785,-22.12,-8.015,-0.542
49783730,-0.769,-0.141,0.776,-18.2,-11.357,-4.287
49783740,-0.721,-0.108,0.762,-14.052,-12.25,-6.86
49783750,-0.684,-0.063,0.754,-9.642,-10.78,-8.487
49783760,-0.679,-0.037,0.757,-7.332,-7.175,-7
49783770,-0.692,-0.022,0.754,-7.437,-5.845,-5.967
49783780,-0.711,-0.017,0.752,-6.142,-6.51,-7.542
49783790,-0.704,0.004,0.747,-6.317,-8.89,-9.887
49783800,-0.676,0.013,0.727,-9.607,-11.55,-11.707
49783810,-0.653,0.004,0.715,-11.777,-13.492,-14.542
49783820,-0.646,-0.012,0.708,-12.915,-14.542,-15.207
49783830,-0.631,-0.045,0.681,-13.387,-16.432,-14.752
49783840,-0.605,-0.072,0.67,-9.87,-16.432,-12.565
49783850,-0.608,-0.089,0.665,-5.635,-15.505,-8.96
49783860,-0.614,-0.093,0.669,-0.227,-14.297,-5.39
49783870,-0.617,-0.076,0.671,4.34,-12.932,-2.1
49783880,-0.619,-0.062,0.662,6.282,-11.97,1.155
49783890,-0.63,-0.065,0.657,6.23,-10.167,4.252
49783900,-0.663,-0.072,0.663,5.092,-8.225,6.912
49783910,-0.708,-0.079,0.662,0.087,-7.087,4.882
49783920,-0.77,-0.124,0.676,-3.15,-8.662,1.627
49783930,-0.774,-0.13,0.677,-6.877,-11.235,-0.542
49783940,-0.807,-0.178,0.72,-7.332,-13.825,-1.4
49783950,-0.803,-0.274,0.762,-7.385,-15.4,1.102
49783960,-0.747,-0.332,0.806,4.497,-12.127,-2.275
49783970,-0.676,-0.267,0.856,13.72,-3.78,-2.03
49783980,-0.684,-0.18,0.804,13.737,8.12,0.77
49783990,-0.706,-0.102,0.795,14.035,15.977,0.087
49784000,-0.638,-0.071,0.761,8.015,20.65,0.612
49784010,-0.637,-0.097,0.731,2.152,22.715,3.307
49784010,-0.659,-0.11,0.699,-0.7,24.185,6.58
49784030,-0.623,-0.114,0.69,-0.402,25.585,9.38
49784030,-0.63,-0.113,0.697,1.872,30.1,13.282
49784040,-0.687,-0.107,0.702,4.305,30.835,16.275
49784050,-0.713,-0.094,0.682,5.32,26.81,16.782
49784060,-0.716,-0.07,0.666,5.792,23.187,15.96
49784070,-0.761,-0.068,0.649,3.272,18.042,14.892
49784080,-0.782,-0.085,0.628,0.21,11.952,13.16
49784090,-0.819,-0.082,0.613,-0.507,5.477,10.447
49784100,-0.867,-0.055,0.593,-3.465,-5.757,6.335
49784110,-0.859,-0.034,0.58,-10.377,-18.217,1.942
49784120,-0.808,-0.076,0.577,-17.71,-25.445,-2.905
49784130,-0.795,-0.132,0.606,-19.582,-26.967,-5.74
49784140,-0.823,-0.157,0.645,-16.642,-28.647,-8.627
49784150,-0.809,-0.145,0.707,-12.67,-31.605,-12.145
49784160,-0.815,-0.127,0.743,-8.767,-36.102,-15.872
49784170,-0.714,-0.101,0.749,-8.61,-38.342,-19.495
49784180,-0.549,-0.096,0.808,-9.345,-31.517,-17.937
49784190,-0.532,-0.098,0.782,-11.095,-8.977,-9.432
49784200,-0.764,-0.018,0.832,-9.24,2.66,-3.745
49784210,-0.86,-0.013,0.823,-19.25,-6.615,0.087
49784220,-0.682,-0.124,0.738,-25.777,-19.075,2.677
49784230,-0.572,-0.163,0.709,-18.637,-19.512,4.935
49784240,-0.609,-0.106,0.732,-9.082,-12.582,1.995
49784250,-0.652,-0.072,0.722,-8.837,-5.39,-4.305
49784260,-0.682,-0.1,0.718,-9.292,-3.727,-9.852
49784270,-0.672,-0.117,0.702,-10.762,-4.182,-9.922
49784280,-0.695,-0.137,0.698,-11.025,-5.845,-7.787
49784290,-0.706,-0.163,0.69,-9.852,-7.245,-7.595
49784300,-0.715,-0.173,0.7,-7.56,-9.782,-7.332
49784310,-0.72,-0.172,0.703,-7.35,-11.13,-7.105
49784320,-0.737,-0.184,0.708,-8.977,-12.67,-8.295
49784330,-0.747,-0.21,0.71,-9.677,-14.56,-9.222
49784330,-0.739,-0.214,0.707,-8.207,-16.817,-9.345
49784350,-0.725,-0.203,0.709,-6.055,-18.917,-6.597
49784350,-0.721,-0.194,0.71,-4.672,-21.665,-4.27
49784370,-0.706,-0.19,0.716,-3.465,-24.027,-4.567
49784370,-0.66,-0.161,0.713,-2.502,-26.25,-3.885
49784390,-0.653,-0.122,0.742,-3.307,-26.792,0.525
49784390,-0.654,-0.098,0.745,-8.802,-29.47,3.377
49784410,-0.605,-0.08,0.772,-14.682,-30.047,2.87
49784410,-0.563,-0.113,0.777,-21.822,-28.315,4.025
49784420,-0.56,-0.182,0.779,-22.925,-22.347,6.23
49784430,-0.584,-0.178,0.762,-16.852,-16.397,7.192
49784440,-0.597,-0.143,0.779,-13.562,-11.077,3.027
49784450,-0.626,-0.158,0.782,-14.875,-6.86,-1.872
49784460,-0.611,-0.145,0.766,-15.295,-2.975,-5.022
49784470,-0.617,-0.156,0.776,-18.27,1.137,-4.357
49784480,-0.625,-0.22,0.784,-20.055,4.2,-2.94
49784490,-0.606,-0.265,0.746,-16.1,9.012,-1.225
49784500,-0.718,-0.179,0.706,-7.91,6.072,0.28
49784510,-0.659,-0.097,0.713,-8.4,-1.382,-0.245
49784520,-0.532,-0.159,0.669,-15.33,0.56,-0.577
49784530,-0.564,-0.258,0.654,-13.352,5.057,4.217
49784540,-0.618,-0.248,0.685,-7.385,7.735,10.237
49784550,-0.64,-0.209,0.703,-2.117,7.07,11.952
49784560,-0.66,-0.187,0.7,0,3.185,14.017
49784570,-0.648,-0.171,0.724,-1.4,1.172,16.975
49784580,-0.675,-0.178,0.727,-4.27,0.787,16.765
49784590,-0.699,-0.18,0.735,-7.787,0.052,17.43
49784600,-0.688,-0.184,0.733,-13.562,-1.295,19.25
49784610,-0.705,-0.217,0.738,-16.065,-4.095,19.04
49784620,-0.694,-0.241,0.709,-14,-8.19,19.407
49784630,-0.641,-0.225,0.691,-8.522,-6.895,19.267
49784640,-0.671,-0.185,0.688,-2.572,-2.8,17.22
49784650,-0.718,-0.168,0.684,-0.525,0.332,13.982
49784660,-0.741,-0.175,0.697,1.05,1.627,11.235
49784670,-0.749,-0.188,0.691,2.905,0.297,6.982
49784680,-0.727,-0.16,0.678,5.652,-1.137,2.625
49784690,-0.7,-0.117,0.698,7.175,-1.347,1.12
49784700,-0.708,-0.137,0.693,4.2,-2.712,1.33
49784710,-0.686,-0.165,0.681,4.305,-2.87,-0.192
49784710,-0.68,-0.139,0.693,5.197,-3.937,-2.31
49784730,-0.681,-0.128,0.718,3.885,-4.865,-4.76
49784730,-0.655,-0.146,0.733,2.887,-4.812,-3.85
49784750,-0.665,-0.172,0.74,2.467,-4.007,3.325
49784750,-0.664,-0.168,0.757,3.325,-4.725,4.69
49784760,-0.645,-0.162,0.751,3.605,-4.97,4.9
49784770,-0.621,-0.144,0.735,3.15,-3.08,6.107
49784780,-0.627,-0.124,0.736,0.332,-0.017,8.417
49784790,-0.672,-0.154,0.729,-4.602,1.715,10.43
49784800,-0.687,-0.202,0.703,-5.495,0.525,10.29
49784810,-0.638,-0.182,0.694,0.122,0.245,9.782
49784820,-0.637,-0.145,0.717,4.305,2.432,11.095
49784830,-0.681,-0.128,0.712,5.477,3.832,12.215
49784840,-0.707,-0.132,0.721,4.217,3.08,12.022
49784850,-0.718,-0.153,0.704,2.52,1.785,10.762
49784860,-0.724,-0.15,0.703,3.587,0.805,8.435
49784870,-0.74,-0.139,0.726,4.165,-1.277,6.37
49784880,-0.73,-0.141,0.733,4.375,-4.165,3.587
49784890,-0.697,-0.14,0.747,3.762,-5.565,1.172
49784900,-0.708,-0.153,0.748,1.452,-6.265,0.332
49784910,-0.692,-0.158,0.754,0.455,-7.21,-1.207
49784920,-0.665,-0.154,0.752,-0.63,-7.472,-1.592
49784930,-0.647,-0.153,0.749,-1.855,-7.052,-1.05
49784940,-0.641,-0.155,0.743,-2.135,-5.582,0.42
49784950,-0.635,-0.152,0.738,-1.54,-4.077,2.17
49784960,-0.64,-0.144,0.741,-0.682,-2.887,4.06
49784970,-0.654,-0.144,0.742,-0.962,-1.96,5.687
49784980,-0.67,-0.15,0.741,-2.152,-1.89,6.282
49784990,-0.666,-0.158,0.732,-3.027,-3.115,6.527
49785000,-0.635,-0.151,0.724,-1.855,-2.73,6.86
49785010,-0.621,-0.137,0.716,-0.542,-0.28,8.137
49785020,-0.644,-0.131,0.709,0.682,2.66,9.502
49785030,-0.673,-0.125,0.704,1.452,4.55,9.257
49785040,-0.695,-0.136,0.693,1.61,5.145,8.12
49785050,-0.726,-0.153,0.696,3.08,4.812,8.872
49785060,-0.736,-0.15,0.702,4.042,3.692,7.577
49785070,-0.748,-0.145,0.71,4.147,2.66,4.76
49785080,-0.738,-0.144,0.711,3.657,0.927,0.472
49785080,-0.722,-0.134,0.707,3.447,-0.507,-4.077
49785100,-0.704,-0.115,0.716,3.36,-2.24,-6.055
49785100,-0.711,-0.117,0.716,1.837,-3.412,-1.942
49785120,-0.686,-0.129,0.717,1.102,-5.197,-1.802
49785120,-0.663,-0.124,0.729,1.61,-4.077,-1.942
49785140,-0.673,-0.123,0.727,0.892,-3.062,-0.962
49785140,-0.671,-0.115,0.734,1.12,-1.785,-0.7
49785160,-0.663,-0.117,0.746,-0.542,-0.892,-0.122
49785160,-0.683,-0.143,0.728,-2.187,0.507,0.735
49785170,-0.69,-0.131,0.735,-1.33,-0.385,0.227
49785180,-0.679,-0.127,0.737,-2.537,-0.21,0.35
49785190,-0.68,-0.152,0.73,-3.132,-0.612,0.157
49785200,-0.658,-0.149,0.732,-2.327,-0.437,0.577
49785210,-0.653,-0.139,0.737,-1.312,-0.402,1.715
49785220,-0.663,-0.142,0.732,-1.995,-0.017,3.307
49785230,-0.664,-0.15,0.718,-2.222,-0.157,4.042
49785240,-0.669,-0.15,0.711,-1.645,0.77,4.637
49785250,-0.688,-0.146,0.705,-1.19,1.26,5.302
49785260,-0.703,-0.143,0.702,-0.717,1.54,5.337
49785270,-0.708,-0.138,0.7,-0.437,0.822,4.48
49785280,-0.71,-0.134,0.699,0.07,0.385,3.815
49785290,-0.709,-0.13,0.694,0.227,-0.315,2.887
49785300,-0.703,-0.123,0.689,0.175,-0.035,2.38
49785310,-0.704,-0.117,0.695,-0.21,-0.052,2.1
49785320,-0.702,-0.126,0.7,-0.892,0.402,1.837
49785330,-0.696,-0.129,0.707,-0.192,0.07,1.225
49785340,-0.678,-0.121,0.727,0.262,0.332,1.225
49785350,-0.67,-0.13,0.732,-0.192,1.347,2.012
49785360,-0.667,-0.135,0.732,-0.262,2.537,2.59
49785370,-0.668,-0.135,0.732,-0.455,3.307,3.15
49785380,-0.66,-0.139,0.729,-0.717,4.707,3.832
49785390,-0.7,-0.152,0.719,-1.522,5.442,5.022
49785400,-0.708,-0.157,0.704,-1.067,4.375,4.585
49785410,-0.691,-0.149,0.697,0.315,3.745,4.252
49785420,-0.693,-0.145,0.689,0.945,3.115,5.005
49785420,-0.693,-0.148,0.688,1.592,3.185,5.32
49785440,-0.693,-0.152,0.686,2.555,3.762,5.285
49785440,-0.703,-0.15,0.682,3.692,4.742,5.582
49785460,-0.71,-0.14,0.682,4.935,4.935,5.932
49785460,-0.696,-0.14,0.693,5.547,5.232,6.51
49785480,-0.641,-0.157,0.706,6.212,9.712,7.892
49785480,-0.666,-0.138,0.696,8.645,13.86,10.097
49785500,-0.7,-0.102,0.695,9.047,14.297,11.707
49785500,-0.701,-0.096,0.7,8.12,13.212,10.482
49785510,-0.711,-0.13,0.684,6.527,10.377,8.732
49785520,-0.703,-0.137,0.68,6.44,11.147,10.535
49785530,-0.771,-0.107,0.712,9.222,11.55,10.027
49785540,-0.823,-0.097,0.717,7.525,8.557,6.667
49785550,-0.793,-0.112,0.711,6.16,3.167,2.275
49785560,-0.747,-0.113,0.698,6.107,-0.297,0.752
49785570,-0.733,-0.086,0.688,6.947,-1.33,1.295
49785580,-0.735,-0.067,0.68,6.65,-1.627,1.522
49785590,-0.731,-0.074,0.666,6.72,-3.36,-0.087
49785600,-0.731,-0.088,0.659,7.245,-4.882,-0.945
49785610,-0.736,-0.116,0.655,8.732,-6.825,-1.347
49785620,-0.716,-0.119,0.65,11.69,-6.58,-1.75
49785630,-0.702,-0.1,0.657,13.895,-6.037,-0.892
49785640,-0.713,-0.084,0.674,14.35,-4.235,0.437
49785650,-0.747,-0.071,0.706,11.795,-3.412,0.875
49785660,-0.796,-0.1,0.729,7.262,-5.792,-0.962
49785670,-0.772,-0.135,0.716,5.705,-12.162,-5.337
49785680,-0.685,-0.101,0.729,6.86,-13.09,-7.245
49785690,-0.677,-0.078,0.742,5.302,-11.515,-5.862
49785700,-0.679,-0.082,0.749,3.272,-8.767,-4.655
49785710,-0.649,-0.086,0.753,2.52,-6.125,-4.165
49785720,-0.631,-0.081,0.752,1.837,-2.362,-2.152
49785730,-0.648,-0.085,0.737,0.752,1.75,0.717
49785740,-0.675,-0.097,0.723,-0.052,4.83,3.517
49785750,-0.695,-0.106,0.703,-0.07,6.142,5.302
49785760,-0.707,-0.112,0.687,0.315,6.685,6.65
49785770,-0.726,-0.122,0.678,1.015,6.912,7.437
49785780,-0.743,-0.11,0.677,2.327,6.475,7.21
49785790,-0.771,-0.1,0.689,2.345,3.535,6.405
49785800,-0.772,-0.122,0.679,0.84,-1.662,4.69
49785810,-0.724,-0.129,0.682,1.995,-4.217,2.607
49785820,-0.719,-0.11,0.683,3.22,-5.46,2.432
49785830,-0.7,-0.101,0.691,3.762,-5.075,2.94
49785830,-0.684,-0.096,0.698,5.022,-3.745,3.622
49785850,-0.692,-0.091,0.707,5.495,-2.502,5.092
49785850,-0.675,-0.089,0.713,5.95,-0.577,6.475
49785870,-0.672,-0.085,0.728,7.245,3.167,8.417
49785870,-0.708,-0.071,0.732,7.245,5.932,10.465
49785890,-0.738,-0.07,0.726,6.247,7.14,10.307
49785890,-0.728,-0.085,0.699,6.667,6.317,8.295
49785910,-0.698,-0.063,0.682,7.682,6.825,6.177
49785910,-0.718,-0.05,0.674,5.722,8.102,4.34
49785920,-0.765,-0.067,0.661,3.237,7.437,3.552
49785930,-0.776,-0.085,0.651,1.47,3.675,3.272
49785940,-0.752,-0.085,0.655,0.682,0.385,2.397
49785950,-0.74,-0.083,0.659,0.735,-1.575,2.275
49785960,-0.732,-0.087,0.669,0.577,-1.47,2.59
49785970,-0.735,-0.094,0.682,0.875,-1.207,2.45
49785980,-0.735,-0.091,0.69,1.75,-1.067,2.31
49785990,-0.71,-0.081,0.701,3.255,-0.63,2.152
49786000,-0.674,-0.087,0.714,4.935,3.22,3.692
49786010,-0.675,-0.075,0.715,7.805,8.102,6.09
49786020,-0.701,-0.035,0.712,8.68,10.955,6.965
49786030,-0.71,-0.039,0.697,7.07,10.115,7.21
49786040,-0.662,-0.091,0.676,8.837,11.97,7.84
49786050,-0.671,-0.066,0.685,15.155,15.697,7.42
49786060,-0.745,0.006,0.694,16.625,16.957,3.22
49786070,-0.801,0.004,0.687,10.99,14.962,-1.68
49786080,-0.81,-0.053,0.654,3.167,13.23,-1.33
49786090,-0.841,-0.078,0.643,-0.087,9.922,5.792
49786100,-0.839,-0.048,0.644,0.07,4.585,6.212
49786110,-0.834,-0.036,0.648,-1.067,-1.277,2.187
49786120,-0.791,-0.048,0.636,-3.92,-5.915,-1.032
49786130,-0.749,-0.047,0.638,-4.357,-7.735,-2.66
49786140,-0.724,-0.057,0.644,-4.882,-6.912,-2.957
49786150,-0.716,-0.071,0.655,-3.517,-4.602,-2.38
49786160,-0.713,-0.074,0.67,-1.032,-2.152,-0.665
49786170,-0.718,-0.072,0.685,1.417,0,1.207
49786170,-0.719,-0.075,0.69,2.852,1.645,2.642
49786190,-0.721,-0.084,0.685,3.255,3.255,4.007
49786190,-0.722,-0.092,0.678,3.832,4.497,5.057
49786210,-0.725,-0.087,0.668,4.795,5.67,6.212
49786210,-0.728,-0.075,0.662,5.6,6.247,7.787
49786230,-0.737,-0.073,0.655,4.777,6.807,9.03
49786230,-0.753,-0.072,0.651,3.832,6.422,9.59
49786250,-0.777,-0.072,0.652,2.625,5.145,9.73
49786250,-0.79,-0.075,0.657,1.75,2.345,8.155
49786260,-0.792,-0.069,0.665,1.995,-0.665,5.39
49786270,-0.751,-0.043,0.661,1.995,-3.062,3.762
49786280,-0.724,-0.026,0.667,1.54,-2.345,3.955
49786290,-0.734,-0.027,0.665,0.14,-0.665,4.97
49786300,-0.75,-0.031,0.668,-0.105,0.927,5.057
49786310,-0.76,-0.026,0.669,0.91,0.717,4.077
49786320,-0.757,-0.012,0.668,1.82,0.612,3.29
49786330,-0.773,-0.008,0.66,1.802,0.577,3.605
49786340,-0.78,-0.009,0.647,1.172,1.102,3.097
49786350,-0.785,-0.005,0.647,1.067,1.417,2.012
49786360,-0.807,-0.015,0.643,-0.017,1.295,0.805
49786370,-0.81,-0.03,0.64,-0.192,-0.542,-1.662
49786380,-0.781,-0.029,0.635,0.385,-2.345,-3.517
49786390,-0.764,-0.026,0.635,0.455,-3.43,-4.217
49786400,-0.772,-0.035,0.637,-0.122,-3.797,-4.707
49786410,-0.78,-0.043,0.643,-0.332,-5.81,-5.582
49786420,-0.774,-0.049,0.646,-0.56,-8.207,-6.457
49786430,-0.762,-0.048,0.651,-0.665,-10.552,-7.28
49786440,-0.754,-0.047,0.656,-1.102,-11.69,-7.385
49786450,-0.748,-0.052,0.657,-1.715,-12.197,-7.087
49786460,-0.744,-0.055,0.662,-1.697,-11.707,-6.597
49786470,-0.745,-0.054,0.67,-1.627,-11.042,-6.282
49786480,-0.745,-0.052,0.677,-1.417,-10.237,-5.932
49786490,-0.739,-0.045,0.68,-1.435,-9.397,-5.74
49786500,-0.73,-0.044,0.68,-2.03,-7.927,-5.302
49786510,-0.724,-0.046,0.681,-2.345,-5.932,-4.445
49786520,-0.732,-0.056,0.682,-2.31,-3.517,-3.342
49786530,-0.737,-0.069,0.68,-1.68,-1.347,-2.625
49786540,-0.725,-0.08,0.697,-0.192,0.805,-2.292
49786550,-0.721,-0.094,0.693,1.54,3.272,-1.312
49786560,-0.714,-0.092,0.678,3.447,4.637,0.07
49786570,-0.724,-0.088,0.662,4.165,6.702,2.205
49786580,-0.747,-0.088,0.647,4.567,7.07,4.042
49786580,-0.754,-0.091,0.636,4.567,6.072,5.005
49786600,-0.768,-0.086,0.632,4.427,3.045,5.407
49786600,-0.771,-0.071,0.636,3.465,-0.525,5.845
49786620,-0.773,-0.064,0.647,1.925,-3.832,6.072
49786620,-0.775,-0.06,0.653,0.507,-5.897,5.617
49786640,-0.769,-0.048,0.662,0.105,-7.997,5.075
49786640,-0.758,-0.032,0.668,-0.42,-8.54,4.585
49786660,-0.741,-0.023,0.675,-0.752,-6.965,3.657
49786660,-0.74,-0.018,0.678,-1.155,-3.64,3.587
49786670,-0.763,-0.02,0.679,-1.242,-1.312,3.815
49786680,-0.771,-0.017,0.674,-0.945,0.157,2.782
49786690,-0.777,-0.014,0.671,-1.907,-0.07,1.085
49786700,-0.795,-0.021,0.649,-3.57,-2.24,-0.717
49786710,-0.774,-0.021,0.636,-4.375,-5.932,-3.5
49786720,-0.763,-0.025,0.633,-5.302,-8.977,-5.267
49786730,-0.782,-0.042,0.638,-5.442,-12.355,-6.142
49786740,-0.788,-0.051,0.652,-4.392,-15.102,-7.472
49786750,-0.79,-0.053,0.664,-3.78,-17.99,-9.205
49786760,-0.775,-0.057,0.667,-3.64,-19.897,-11.217
49786770,-0.748,-0.068,0.669,-3.64,-20.16,-12.425
49786780,-0.736,-0.081,0.669,-2.835,-18.515,-12.11
49786790,-0.719,-0.091,0.676,-1.33,-16.537,-10.255
49786800,-0.702,-0.099,0.686,0.42,-12.145,-7.892
49786810,-0.717,-0.108,0.692,1.785,-8.032,-5.775
49786820,-0.736,-0.098,0.693,3.447,-5.582,-3.675
49786830,-0.742,-0.078,0.691,3.692,-5.757,-2.835
49786840,-0.759,-0.069,0.685,2.17,-8.085,-2.642
49786850,-0.76,-0.065,0.687,-0.28,-11.76,-2.502
49786860,-0.771,-0.052,0.682,-2.695,-16.642,-2.012
49786870,-0.773,-0.036,0.683,-5.495,-22.4,-1.942
49786880,-0.766,-0.044,0.669,-9.1,-27.615,-3.045
49786890,-0.738,-0.05,0.675,-9.537,-31.062,-5.617
49786900,-0.75,-0.043,0.685,-9.625,-32.235,-5.687
49786910,-0.76,-0.034,0.681,-11.795,-33.477,-5.005
49786920,-0.727,-0.042,0.686,-11.742,-33.512,-6.072
49786920,-0.686,-0.033,0.687,-13.93,-30.905,-6.107
49786940,-0.688,-0.065,0.694,-14.805,-25.9,-4.042
49786940,-0.646,-0.076,0.738,-13.247,-20.632,-1.96
49786960,-0.61,-0.094,0.748,-8.575,-9.345,2.87
49786960,-0.748,-0.031,0.766,-4.585,-4.655,3.64
49786980,-0.74,-0.014,0.765,-7.017,-8.54,-3.447
49786980,-0.659,-0.054,0.734,-10.622,-11.62,-7.175
49787000,-0.678,-0.082,0.704,-12.897,-14.35,-8.032
49787000,-0.682,-0.081,0.682,-13.632,-18.34,-10.64
49787010,-0.669,-0.087,0.688,-12.565,-21.945,-10.727
49787020,-0.648,-0.121,0.681,-15.067,-21.665,-8.05
49787030,-0.658,-0.144,0.697,-14.28,-18.917,-4.41
49787040,-0.679,-0.156,0.704,-12.88,-16.73,-1.435
49787050,-0.731,-0.15,0.704,-10.132,-14.857,-0.945
49787060,-0.736,-0.136,0.711,-9.047,-18.987,-4.2
49787070,-0.684,-0.115,0.705,-7.927,-21.105,-4.97
49787080,-0.685,-0.083,0.705,-8.96,-21.857,-1.435
49787090,-0.746,-0.098,0.722,-15.767,-25.585,0.927
49787100,-0.728,-0.145,0.716,-18.217,-29.925,0.927
49787110,-0.651,-0.15,0.737,-12.897,-29.102,4.025
49787120,-0.654,-0.137,0.737,-10.22,-26.285,7.367
49787130,-0.675,-0.102,0.757,-6.055,-24.517,3.85
49787140,-0.661,-0.088,0.751,-5.547,-25.077,0.945
49787150,-0.59,-0.109,0.749,-7.07,-24.15,2.625
49787160,-0.579,-0.128,0.743,-7.682,-16.66,7.77
49787170,-0.617,-0.128,0.749,-8.61,-11.147,8.592
49787180,-0.627,-0.132,0.758,-9.887,-5.302,8.312
49787190,-0.623,-0.169,0.766,-12.337,-1.435,10.902
49787200,-0.643,-0.231,0.741,-10.185,0.507,14.752
49787210,-0.63,-0.238,0.734,-2.082,4.007,18.305
49787220,-0.629,-0.193,0.76,6.352,9.24,21.227
49787230,-0.666,-0.177,0.782,11.83,13.055,21.945
49787240,-0.663,-0.161,0.786,15.015,15.715,19.53
49787250,-0.662,-0.131,0.8,16.59,15.855,17.517
49787260,-0.691,-0.105,0.817,14.227,13.982,17.57
49787270,-0.714,-0.105,0.812,8.995,9.59,15.312
49787280,-0.701,-0.126,0.798,4.882,5.477,11.952
49787290,-0.683,-0.137,0.779,3.08,3.167,10.237
49787300,-0.672,-0.12,0.77,2.887,3.85,8.837
49787310,-0.69,-0.111,0.744,3.01,4.217,7.052
49787320,-0.68,-0.106,0.718,5.355,4.76,4.777
49787330,-0.654,-0.082,0.702,8.89,5.705,2.502
49787330,-0.658,-0.043,0.703,12.547,6.65,1.977
49787350,-0.695,-0.009,0.713,13.685,5.652,3.307
49787350,-0.714,0.012,0.701,9.03,-0.052,2.66
49787370,-0.697,-0.002,0.687,3.185,-6.79,0.7
49787370,-0.699,-0.033,0.676,-0.612,-13.545,-1.12
49787390,-0.663,-0.017,0.65,1.067,-19.617,-4.357
49787390,-0.612,0.009,0.671,-1.085,-22.855,-3.972
49787400,-0.601,-0.068,0.652,-7.402,-21.105,-1.242
49787410,-0.605,-0.084,0.674,-2.765,-14.28,-1.855
49787420,-0.674,-0.1,0.691,0.962,-10.377,2.782
49787430,-0.7,-0.085,0.698,0.297,-10.167,1.225
49787440,-0.699,-0.093,0.708,-0.997,-11.392,2.1
49787450,-0.701,-0.111,0.717,-3.99,-12.442,6.772
49787460,-0.736,-0.108,0.704,-5.897,-14.647,9.432
49787470,-0.681,-0.11,0.733,-6.055,-16.607,7
49787480,-0.665,-0.136,0.734,-8.487,-15.452,9.642
49787490,-0.679,-0.144,0.747,-6.545,-12.46,11.2
49787500,-0.715,-0.127,0.771,-3.412,-9.047,10.465
49787510,-0.797,-0.129,0.782,-1.907,-19.425,5.862
49787520,-0.689,-0.136,0.741,0.262,-29.627,2.537
49787530,-0.597,-0.102,0.738,6.93,-31.482,3.517
49787540,-0.589,-0.057,0.747,10.237,-28.49,5.11
49787550,-0.587,-0.033,0.756,10.762,-24.15,5.145
49787560,-0.581,-0.029,0.754,9.905,-18.97,5.127
49787570,-0.605,-0.034,0.754,8.977,-14.857,7.402
49787580,-0.632,-0.039,0.751,9.065,-12.915,8.295
49787590,-0.634,-0.029,0.758,12.39,-13.685,6.352
49787600,-0.645,-0.009,0.758,13.737,-15.697,3.797
49787610,-0.694,0.018,0.753,13.09,-22.067,0.367
49787620,-0.658,0.008,0.754,10.71,-30.87,-6.825
49787630,-0.61,-0.009,0.754,9.992,-36.855,-12.337
49787640,-0.587,-0.019,0.762,10.727,-39.602,-13.737
49787650,-0.591,-0.006,0.777,11.48,-40.512,-13.282
49787660,-0.603,-0.004,0.784,8.365,-41.895,-12.302
49787670,-0.605,-0.03,0.785,4.83,-43.96,-11.217
49787670,-0.585,-0.056,0.782,3.517,-45.22,-10.465
49787690,-0.524,-0.058,0.8,4.48,-42.437,-10.605
49787690,-0.446,-0.05,0.809,4.742,-29.225,-7.14
49787710,-0.521,-0.051,0.88,4.235,-13.86,-2.065
49787710,-0.57,-0.059,0.914,1.312,-3.062,0.035
49787730,-0.608,-0.078,0.921,-0.035,1.645,4.515
49787730,-0.653,-0.101,0.92,-0.577,-0.98,5.25
49787750,-0.646,-0.109,0.899,2.292,-6.947,1.715
49787750,-0.562,-0.058,0.876,6.965,-8.872,-2.502
49787760,-0.536,-0.006,0.86,7.017,-5.53,-5.075
49787770,-0.569,-0.006,0.834,3.78,-2.502,-6.93
49787780,-0.566,-0.026,0.806,1.557,-0.367,-8.522
49787790,-0.553,-0.025,0.784,1.505,-0.105,-7.84
49787800,-0.566,-0.018,0.785,3.272,-0.315,-4.27
49787810,-0.585,-0.027,0.797,3.552,-1.96,-0.437
49787820,-0.589,-0.031,0.802,4.427,-3.622,-0.087
49787830,-0.573,-0.036,0.81,4.042,-5.547,-1.855
49787840,-0.564,-0.043,0.819,3.22,-3.99,-3.412
49787850,-0.606,-0.05,0.836,1.75,-3.132,-2.572
49787860,-0.628,-0.062,0.835,-0.14,-5.232,-2.677
49787870,-0.559,-0.059,0.83,0.157,-6.44,-4.287
49787880,-0.562,-0.049,0.837,-1.96,-4.235,-2.765
49787890,-0.592,-0.056,0.826,-3.727,-3.132,-1.662
49787900,-0.569,-0.064,0.823,-3.57,-2.117,-2.467
49787910,-0.565,-0.072,0.813,-4.077,-1.697,-3.535
49787920,-0.566,-0.065,0.791,-2.625,-1.12,-5.215
49787930,-0.556,-0.047,0.789,-0.805,0.175,-5.285
49787940,-0.621,-0.065,0.769,-1.207,-0.332,2.012
49787950,-0.588,-0.066,0.785,2.065,-1.54,1.172
49787960,-0.59,-0.064,0.798,3.097,-1.435,0.77
49787970,-0.594,-0.069,0.798,2.712,-0.98,0
49787980,-0.578,-0.057,0.805,3.027,0.665,-0.84
49787990,-0.604,-0.051,0.81,0.927,2.345,-0.84
49788000,-0.625,-0.064,0.801,0.175,2.345,-0.315
49788010,-0.611,-0.068,0.794,0.7,0.332,0
49788020,-0.593,-0.064,0.788,1.592,-1.085,0.192
49788030,-0.59,-0.067,0.788,2.66,-1.452,0.35
49788040,-0.591,-0.07,0.791,4.112,-1.627,0.21
49788050,-0.586,-0.058,0.801,5.162,-2.135,-0.297
49788060,-0.581,-0.06,0.813,4.952,-2.957,-0.507
49788070,-0.581,-0.083,0.812,4.935,-3.325,-0.805
49788070,-0.577,-0.086,0.823,6.912,-4.2,-1.785
49788080,-0.563,-0.078,0.827,8.032,-3.815,-1.68
49788090,-0.579,-0.091,0.816,7.297,-2.52,0.087
49788100,-0.595,-0.091,0.813,9.362,-1.417,1.277
49788110,-0.604,-0.079,0.811,11.41,-1.785,0.77
49788120,-0.609,-0.08,0.802,11.567,-1.75,-0.332
49788130,-0.605,-0.082,0.802,12.827,-1.102,-2.695
49788140,-0.597,-0.073,0.803,14.122,0.437,-6.335
49788150,-0.586,-0.061,0.795,14.07,2.397,-8.452
49788160,-0.554,-0.051,0.791,13.545,6.002,-8.557
49788170,-0.516,-0.04,0.778,12.897,11.952,-3.85
49788180,-0.515,-0.045,0.767,13.965,22.645,2.8
49788190,-0.562,-0.048,0.757,17.71,32.55,10.062
49788200,-0.613,-0.023,0.763,21.84,37.8,13.895
49788210,-0.647,-0.011,0.775,23.94,37.625,14.437
49788220,-0.676,0.012,0.77,26.145,32.795,12.355
49788230,-0.669,0.047,0.782,26.232,24.132,8.995
49788240,-0.627,0.026,0.772,22.977,17.43,6.422
49788250,-0.625,0.004,0.755,24.272,14.507,3.955
49788260,-0.648,-0.013,0.76,27.527,12.67,1.137
49788270,-0.633,-0.031,0.759,32.305,11.602,-3.185
49788280,-0.629,-0.025,0.788,40.687,12.407,-8.207
49788290,-0.655,0.025,0.804,46.987,13.965,-15.942
49788300,-0.686,0.073,0.837,44.345,11.042,-19.635
49788310,-0.693,0.067,0.827,35.927,5.652,-14.017
49788320,-0.657,0.085,0.814,28.612,0.665,-10.36
49788330,-0.673,0.087,0.794,19.337,-6.177,-4.97
49788340,-0.649,0.09,0.78,8.12,-11.585,-3.29
49788350,-0.58,0.079,0.779,-0.787,-14.472,0.472
49788360,-0.585,0.019,0.763,-8.26,-12.495,10.867
49788370,-0.594,-0.034,0.749,-9.695,-10.202,13.107
49788380,-0.59,-0.032,0.781,-2.38,-8.26,8.155
49788390,-0.557,0.006,0.804,0.98,-5.705,4.987
49788400,-0.548,0.02,0.803,0.805,-1.207,5.775
49788410,-0.57,0.019,0.804,-0.682,4.077,6.58
49788420,-0.584,0.015,0.794,-3.727,7.962,5.582
49788420,-0.62,-0.004,0.784,-4.34,10.657,7.787
49788440,-0.635,-0.016,0.765,-4.777,11.865,11.795
49788440,-0.638,-0.018,0.758,-3.412,13.405,12.775
49788460,-0.584,-0.024,0.781,-2.625,17.43,14.77
49788460,-0.619,0.004,0.769,-0.035,33.565,18.672
49788480,-0.784,0.047,0.795,1.907,36.837,17.465
49788480,-0.819,0.032,0.753,-2.712,27.562,14.542
49788500,-0.733,0.018,0.719,-1.995,15.645,11.252
49788500,-0.695,0.04,0.707,-1.662,6.772,10.15
49788510,-0.656,0.039,0.694,-2.205,2.992,10.5
49788520,-0.633,0.035,0.703,0.595,3.57,11.375
49788530,-0.675,0.035,0.694,2.45,2.31,12.022
49788540,-0.681,0.036,0.694,4.865,-0.665,10.22
49788550,-0.652,0.056,0.717,8.75,-3.78,9.45
49788560,-0.648,0.069,0.717,8.942,-5.495,11.952
49788570,-0.628,0.065,0.721,9.38,-5.53,7.962
49788580,-0.636,0.056,0.735,10.097,-3.272,4.41
49788590,-0.668,0.039,0.733,9.047,-2.695,5.18
49788600,-0.689,0.04,0.754,9.677,-4.095,4.62
49788610,-0.708,0.049,0.777,10.36,-7.402,3.657
49788620,-0.704,0.042,0.786,9.45,-11.567,2.012
49788630,-0.69,0.023,0.795,8.89,-15.382,0.997
49788640,-0.686,0.025,0.801,10.272,-17.237,0.577
49788650,-0.695,0.051,0.808,12.215,-19.792,0.542
49788660,-0.67,0.076,0.798,11.567,-23.38,1.82
49788670,-0.651,0.048,0.775,10.027,-26.057,11.252
49788680,-0.622,0.031,0.758,11.06,-26.862,14.245
49788690,-0.598,0.066,0.747,14.612,-26.25,11.69
49788700,-0.587,0.065,0.747,15.767,-23.852,12.425
49788710,-0.574,0.065,0.73,15.82,-18.62,14.577
49788720,-0.601,0.11,0.738,15.102,-12.285,15.417
49788730,-0.633,0.122,0.748,10.395,-7.525,14.98
49788740,-0.643,0.08,0.766,4.917,-4.567,12.915
49788750,-0.665,0.046,0.751,4.987,-5.932,9.922
49788760,-0.648,0.074,0.765,9.45,-11.322,7.455
49788760,-0.624,0.089,0.767,12.932,-15.295,6.807
49788780,-0.595,0.102,0.774,13.842,-14.752,4.777
49788780,-0.621,0.092,0.768,11.672,-11.357,4.83
49788800,-0.643,0.082,0.765,10.202,-9.712,5.512
49788800,-0.621,0.077,0.763,10.115,-9.695,6.195
49788820,-0.613,0.08,0.775,11.515,-9.835,7.402
49788820,-0.625,0.084,0.777,12.46,-9.205,7.77
49788830,-0.633,0.091,0.774,13.125,-9.327,7.892
49788840,-0.657,0.093,0.77,13.527,-10.29,9.065
49788850,-0.658,0.09,0.766,14.14,-13.02,9.555
49788860,-0.647,0.096,0.77,15.312,-15.732,10.377
49788870,-0.649,0.108,0.772,15.697,-18.445,11.445
49788880,-0.657,0.117,0.774,15.277,-20.545,10.78
49788890,-0.651,0.12,0.78,14.665,-24.71,8.68
49788900,-0.609,0.118,0.775,15.977,-27.965,7.227
49788910,-0.573,0.137,0.779,17.745,-29.295,7.14
49788920,-0.557,0.147,0.785,17.885,-27.317,7.997
49788930,-0.567,0.141,0.793,17.972,-24.727,8.995
49788940,-0.585,0.142,0.799,17.78,-22.785,9.712
49788950,-0.594,0.145,0.8,17.132,-23.03,9.152
49788960,-0.604,0.137,0.801,16.415,-23.87,8.925
49788970,-0.639,0.141,0.808,16.467,-27.965,8.855
49788980,-0.611,0.164,0.811,15.767,-31.517,8.4
49788990,-0.557,0.164,0.82,14.717,-31.675,8.277
49789000,-0.549,0.15,0.825,13.387,-29.662,7.98
49789010,-0.562,0.144,0.829,13.562,-27.737,7.98
49789020,-0.566,0.142,0.828,13.947,-27.16,8.032
49789030,-0.545,0.129,0.811,14.577,-26.547,6.282
49789040,-0.532,0.143,0.807,15.977,-25.217,4.392
49789050,-0.528,0.163,0.806,16.485,-24.202,4.725
49789060,-0.516,0.171,0.803,16.59,-22.575,5.845
49789070,-0.525,0.182,0.803,15.925,-21.35,6.685
49789080,-0.526,0.196,0.806,14.472,-19.95,7.157
49789090,-0.528,0.197,0.802,12.932,-18.637,7.105
49789100,-0.523,0.205,0.811,10.955,-16.607,6.072
49789110,-0.514,0.22,0.822,8.697,-14.297,5.04
49789120,-0.526,0.227,0.838,5.705,-12.11,4.357
49789130,-0.546,0.212,0.845,2.555,-10.745,2.52
49789140,-0.518,0.21,0.851,1.05,-8.995,-0.857
49789150,-0.486,0.209,0.851,0.42,-6.527,-3.255
49789160,-0.498,0.187,0.836,-0.017,-3.902,-4.2
49789170,-0.538,0.172,0.824,1.12,-1.872,-3.867
49789170,-0.59,0.151,0.809,2.415,-4.497,-2.677
49789190,-0.585,0.139,0.799,4.865,-9.345,-1.4
49789190,-0.572,0.148,0.803,8.225,-14.542,0.7
49789210,-0.566,0.158,0.812,9.73,-18.812,2.59
49789210,-0.533,0.169,0.822,11.13,-22.085,3.377
49789230,-0.512,0.185,0.842,11.83,-23.59,4.462
49789230,-0.5,0.202,0.854,11.252,-24.43,4.672
49789250,-0.486,0.213,0.854,10.272,-23.31,4.48
49789250,-0.475,0.219,0.844,8.942,-22.155,4.042
49789260,-0.467,0.224,0.835,7.122,-19.092,3.85
49789270,-0.47,0.22,0.827,4.917,-15.382,3.325
49789280,-0.476,0.201,0.819,2.94,-10.57,2.59
49789290,-0.495,0.19,0.821,2.537,-7.262,2.677
49789300,-0.511,0.196,0.827,2.747,-5.302,3.01
49789310,-0.49,0.196,0.832,2.502,-4.655,2.537
49789320,-0.538,0.164,0.839,0.035,-3.447,3.202
49789330,-0.537,0.158,0.816,-0.21,-6.247,3.22
49789340,-0.498,0.216,0.858,2.94,-8.522,2.852
49789350,-0.478,0.222,0.835,2.1,-11.41,1.627
49789360,-0.355,0.235,0.884,3.132,-6.667,-1.925
49789370,-0.458,0.23,0.858,-1.767,1.102,-1.557
49789380,-0.524,0.224,0.84,-4.672,4.672,-2.327
49789390,-0.482,0.223,0.828,-5.81,5.355,-2.625
49789400,-0.492,0.232,0.817,-8.032,6.09,-3.22
49789410,-0.486,0.226,0.821,-10.08,8.557,-5.075
49789420,-0.494,0.213,0.837,-11.042,11.077,-6.422
49789430,-0.521,0.195,0.837,-12.705,10.885,-7.42
49789440,-0.544,0.183,0.822,-11.812,8.225,-6.527
49789450,-0.543,0.163,0.82,-10.937,4.112,-4.445
49789460,-0.546,0.16,0.819,-9.117,1.942,-3.097
49789470,-0.544,0.163,0.842,-7.017,0.035,-1.47
49789480,-0.554,0.16,0.847,-4.725,-0.945,0.612
49789490,-0.543,0.168,0.837,-3.447,-4.095,1.382
49789500,-0.506,0.162,0.82,-1.995,-6.912,2.695
49789510,-0.51,0.159,0.814,-0.752,-8.12,4.725
49789510,-0.529,0.162,0.827,0.157,-8.417,5.635
49789530,-0.544,0.154,0.837,0.245,-9.38,5.705
49789530,-0.54,0.165,0.837,1.12,-11.375,5.705
49789550,-0.528,0.173,0.837,1.68,-13.09,6.562
49789550,-0.511,0.183,0.827,1.155,-13.265,6.107
49789570,-0.505,0.2,0.827,0.542,-12.897,3.902
49789570,-0.487,0.194,0.822,-0.402,-12.582,1.557
49789580,-0.479,0.197,0.825,0.105,-10.675,-0.175
49789590,-0.49,0.202,0.836,-0.14,-9.012,-1.207
49789600,-0.494,0.206,0.856,-1.137,-7.612,-2.327
49789610,-0.474,0.211,0.872,-2.38,-6.195,-3.692
49789620,-0.485,0.214,0.873,-3.64,-4.41,-3.867
49789630,-0.495,0.215,0.859,-4.812,-4.112,-3.78
49789640,-0.482,0.209,0.832,-5.407,-3.482,-3.85
49789650,-0.492,0.2,0.815,-6.16,-2.765,-3.99
49789660,-0.504,0.181,0.833,-6.702,-1.855,-3.64
49789670,-0.528,0.161,0.84,-5.932,-2.24,-2.38
49789680,-0.537,0.16,0.854,-4.725,-3.797,-1.207
49789690,-0.522,0.165,0.852,-3.5,-6.317,-0.542
49789700,-0.508,0.167,0.844,-2.712,-7.927,-0.122
49789710,-0.503,0.167,0.838,-2.52,-8.995,-0.385
49789720,-0.503,0.17,0.843,-2.572,-9.047,-0.577
49789730,-0.497,0.172,0.851,-2.8,-9.222,-0.63
49789740,-0.486,0.181,0.859,-2.835,-8.785,-0.665
49789750,-0.48,0.188,0.861,-3.185,-8.295,-0.682
49789760,-0.478,0.194,0.858,-3.605,-7.56,-0.752
49789770,-0.485,0.198,0.858,-4.952,-7.227,-0.945
49789780,-0.5,0.19,0.864,-7.472,-7.63,-1.382
49789790,-0.511,0.188,0.88,-10.412,-8.47,-2.065
49789800,-0.5,0.185,0.894,-14,-9.642,-2.94
49789810,-0.477,0.168,0.907,-16.852,-10.972,-3.43
49789820,-0.471,0.133,0.921,-17.237,-12.197,-3.675
49789830,-0.454,0.111,0.944,-15.47,-14.455,-5.04
49789840,-0.451,0.119,0.982,-11.585,-16.1,-5.81
49789850,-0.494,0.117,1.014,-8.802,-15.802,-6.352
49789860,-0.555,0.088,1.036,-7.052,-16.362,-9.275
49789870,-0.595,0.048,1.037,-3.832,-20.072,-11.812
49789880,-0.598,0.043,1.045,2.03,-27.702,-12.232
49789890,-0.607,0.077,1.071,7.612,-38.325,-11.672
49789900,-0.584,0.118,1.115,9.17,-51.292,-12.635
49789910,-0.454,0.1,1.171,4.847,-61.862,-13.58
49789920,-0.303,-0.045,1.186,3.062,-60.007,-13.702
49789920,-0.315,0.137,1.328,10.255,-44.415,-16.1
49789940,-0.275,0.236,1.286,0.997,-20.51,-15.627
49789940,-0.197,0.142,1.27,-0.035,8.925,-19.53
49789960,-0.332,0.12,1.183,-1.382,29.19,-19.25
49789960,-0.393,0.205,1.127,-0.087,46.182,-16.485
49789980,-0.42,0.218,1.062,4.34,56.087,-15.137
49789980,-0.433,0.212,0.93,5.197,60.655,-14.315
49790000,-0.439,0.258,0.837,13.16,68.337,-16.187
49790000,-0.553,0.292,0.794,20.405,76.405,-18.76
49790010,-0.711,0.317,0.754,28.735,76.492,-23.695
49790020,-0.83,0.381,0.751,42.752,67.532,-28.507
49790030,-0.881,0.457,0.733,54.355,49.21,-33.232
49790040,-0.869,0.497,0.694,62.755,26.967,-39.27
49790050,-0.787,0.546,0.64,68.81,4.795,-46.042
49790060,-0.713,0.585,0.588,69.667,-11.567,-50.452
49790070,-0.668,0.601,0.543,68.005,-23.572,-52.692
49790080,-0.597,0.616,0.503,62.247,-33.145,-54.145
49790090,-0.569,0.61,0.48,50.715,-43.942,-52.412
49790100,-0.571,0.607,0.469,35.997,-57.557,-49.507
49790110,-0.558,0.597,0.467,20.422,-76.212,-44.905
49790120,-0.515,0.588,0.464,3.447,-98.035,-40.775
49790130,-0.473,0.553,0.479,-16.87,-119.227,-36.54
49790140,-0.43,0.51,0.518,-40.057,-137.69,-36.26
49790150,-0.354,0.448,0.535,-66.027,-151.165,-36.96
49790160,-0.23,0.428,0.612,-90.807,-155.4,-39.865
49790170,-0.187,0.352,0.631,-119.822,-152.215,-38.43
49790180,-0.119,0.268,0.676,-145.092,-142.047,-41.562
49790190,-0.091,0.161,0.664,-169.067,-126.175,-43.417
49790200,-0.066,0.066,0.715,-185.115,-108.185,-46.532
49790210,-0.111,-0.057,0.711,-198.957,-92.942,-46.567
49790220,-0.172,-0.193,0.738,-199.482,-82.145,-46.795
