time[ms],accX[g],accY[g],accZ[g],Value 1,Value 2,Value 3
48914800,-0.284,-0.04,0.862,23.24,27.982,-6.615
48914820,-0.33,0.073,0.879,30.992,33.932,2.362
48914820,-0.34,0.102,1.011,36.61,42.595,11.427
48914830,-0.204,0.158,0.996,28.017,57.697,4.725
48914840,-0.282,0.183,1.026,11.252,67.357,7.262
48914850,-0.309,0.153,0.997,-7.805,73.535,12.897
48914860,-0.337,0.075,0.973,-19.74,74.375,13.615
48914870,-0.29,0.025,0.917,-22.837,73.465,9.992
48914880,-0.357,0.059,0.953,-21.717,69.3,5.39
48914890,-0.363,0.018,0.908,-14.14,55.3,1.942
48914900,-0.323,0.076,0.887,0.035,44.922,-4.13
48914910,-0.383,0.108,0.873,8.225,29.26,-6.79
48914920,-0.389,0.101,0.876,10.972,13.842,-11.27
48914930,-0.372,0.097,0.856,7.56,-1.942,-19.372
48914940,-0.416,0.132,0.859,-1.4,-16.8,-23.782
48914950,-0.411,0.124,0.84,-12.267,-32.147,-23.695
48914960,-0.372,0.067,0.791,-28.962,-41.982,-23.397
48914970,-0.353,-0.039,0.779,-40.092,-44.362,-20.51
48914980,-0.34,-0.104,0.82,-43.225,-40.232,-16.695
48914990,-0.363,-0.131,0.886,-42.07,-36.925,-10.622
48915000,-0.383,-0.173,0.959,-37.31,-35.402,-5.267
48915010,-0.362,-0.189,1.027,-29.995,-37.66,-2.922
48915020,-0.334,-0.216,1.132,-21.262,-42.07,0.07
48915030,-0.251,-0.266,1.228,-12.897,-48.965,1.4
48915040,-0.095,-0.235,1.305,0.105,-50.155,1.977
48915050,0.007,-0.148,1.408,14.42,-44.047,5.057
48915060,0.118,-0.099,1.467,20.772,-28.542,9.415
48915070,0.215,-0.109,1.501,22.732,-3.167,9.975
48915080,0.16,-0.155,1.529,29.067,25.9,9.957
48915080,0.11,-0.158,1.502,38.465,49.227,4.2
48915100,0.02,-0.18,1.465,56.472,62.475,-5.127
48915100,-0.06,-0.168,1.363,74.76,62.282,-19.967
48915120,-0.114,-0.126,1.252,94.395,53.427,-34.807
48915120,-0.167,-0.09,1.117,110.547,38.062,-48.965
48915140,-0.22,-0.057,1.001,123.725,16.362,-62.562
48915140,-0.232,0.007,0.857,133.875,-9.747,-75.617
48915160,-0.187,0.091,0.726,141.295,-33.477,-88.917
48915160,-0.142,0.174,0.632,140.105,-47.285,-101.57
48915170,-0.125,0.244,0.602,129.36,-52.167,-111.457
48915180,-0.126,0.331,0.619,108.465,-51.117,-119.647
48915190,-0.171,0.381,0.669,77.21,-48.037,-123.567
48915200,-0.19,0.396,0.696,39.637,-43.4,-124.6
48915210,-0.203,0.353,0.681,0.577,-37.467,-121.835
48915220,-0.249,0.31,0.656,-34.982,-27.947,-115.43
48915230,-0.322,0.266,0.641,-63.42,-16.205,-105.14
48915240,-0.425,0.216,0.656,-86.467,-5.495,-92.697
48915250,-0.521,0.197,0.663,-105.612,-0.7,-78.96
48915260,-0.597,0.182,0.696,-123.217,-1.54,-60.602
48915270,-0.611,0.114,0.693,-140.647,-6.965,-41.737
48915280,-0.61,-0.016,0.67,-155.242,-8.837,-25.13
48915290,-0.62,-0.133,0.663,-162.417,-7.77,-16.275
48915300,-0.649,-0.185,0.705,-160.685,-7.525,-14.63
48915310,-0.666,-0.198,0.749,-150.185,-13.842,-17.115
48915320,-0.626,-0.185,0.781,-133.262,-25.882,-21.962
48915330,-0.644,-0.183,0.816,-110.425,-43.522,-16.817
48915340,-0.668,-0.157,0.872,-85.645,-63.14,-8.732
48915350,-0.527,-0.041,0.872,-78.015,-75.687,-21.297
48915360,-0.45,-0.019,0.902,-75.022,-75.6,-24.955
48915370,-0.429,-0.058,0.925,-75.652,-68.565,-16.975
48915380,-0.397,-0.117,0.929,-79.362,-55.37,-10.587
48915390,-0.374,-0.167,0.945,-77.315,-37.835,-8.995
48915400,-0.371,-0.167,0.972,-68.215,-19.285,-7.612
48915410,-0.395,-0.154,1.002,-56.875,-5.442,-4.042
48915420,-0.419,-0.18,1.014,-43.522,1.487,1.995
48915430,-0.439,-0.202,1.016,-26.967,0.56,7.175
48915440,-0.381,-0.128,1.048,-13.37,-3.867,5.25
48915450,-0.355,-0.146,1.012,-10.272,-9.047,7.787
48915460,-0.305,-0.146,1.015,0.787,-14.315,10.167
48915470,-0.244,-0.094,1.006,0,-17.972,8.925
48915480,-0.228,-0.11,0.975,-2.975,-20.387,13.212
48915490,-0.2,-0.13,0.958,-4.077,-21.122,16.642
48915500,-0.169,-0.152,0.917,-8.68,-19.565,21.91
48915510,-0.139,-0.158,0.89,-10.062,-14.91,29.697
48915510,-0.127,-0.195,0.859,-13.247,-6.405,38.465
48915530,-0.143,-0.236,0.832,-17.237,5.547,44.975
48915530,-0.162,-0.239,0.819,-19.425,16.607,50.96
48915550,-0.199,-0.226,0.82,-23.922,26.617,58.397
48915550,-0.29,-0.241,0.811,-32.427,33.267,65.205
48915570,-0.346,-0.256,0.811,-40.39,37.45,69.317
48915570,-0.406,-0.268,0.819,-46.287,37.24,74.13
48915580,-0.478,-0.339,0.825,-46.935,34.16,80.237
48915590,-0.463,-0.392,0.818,-42.35,30.537,79.485
48915600,-0.461,-0.402,0.84,-29.96,26.617,77.577
48915610,-0.47,-0.378,0.862,-10.797,20.23,77.245
48915620,-0.505,-0.33,0.91,7,11.935,70.84
48915630,-0.602,-0.259,0.973,16.835,-2.117,59.885
48915640,-0.652,-0.151,1.017,16.747,-28.682,43.47
48915650,-0.612,-0.103,1.009,10.85,-66.99,29.102
48915660,-0.479,-0.104,0.962,2.065,-101.237,17.92
48915670,-0.322,-0.107,0.897,-7.087,-125.265,7.332
48915680,-0.152,-0.079,0.856,-14.665,-135.467,-1.067
48915690,-0.031,-0.079,0.827,-22.085,-133.42,-2.905
48915700,0.052,-0.075,0.844,-26.617,-121.625,-2.152
48915710,0.143,-0.084,0.856,-30.345,-104.807,1.067
48915720,0.183,-0.135,0.932,-31.15,-82.197,5.827
48915730,0.46,-0.335,1.139,-26.285,-47.792,12.827
48915740,0.605,-0.412,1.245,-13.002,17.657,28.665
48915750,-0.025,-0.374,1.295,0.245,68.285,32.637
48915760,-0.395,-0.326,1.241,5.845,67.812,20.93
48915770,-0.243,-0.275,1.127,18.34,47.162,4.305
48915780,-0.216,-0.382,0.996,28.682,34.737,-0.472
48915790,-0.409,-0.269,1.143,35.07,21.787,-4.427
48915800,-0.337,-0.18,1.086,37.905,1.12,-13.632
48915810,-0.178,-0.25,0.972,42.577,-8.067,-14.63
48915820,-0.18,-0.202,0.961,52.5,-0.665,-9.012
48915830,-0.189,-0.133,0.941,59.01,14.455,3.097
48915830,-0.232,-0.12,0.928,59.745,32.917,12.95
48915850,-0.255,-0.102,0.909,55.86,53.62,23.24
48915850,-0.295,-0.071,0.886,47.075,74.62,34.982
48915870,-0.373,-0.051,0.87,32.987,93.327,44.625
48915870,-0.443,-0.055,0.839,20.685,104.912,53.515
48915890,-0.481,-0.077,0.798,14.192,109.742,60.83
48915890,-0.511,-0.095,0.781,13.16,108.832,65.8
48915910,-0.494,-0.081,0.765,13.58,104.93,67.287
48915910,-0.501,-0.073,0.765,13.125,98.42,67.41
48915920,-0.506,-0.048,0.783,14.07,89.057,65.852
48915930,-0.505,-0.025,0.798,14.42,74.707,68.512
48915940,-0.471,-0.003,0.798,13.947,60.375,71.312
48915950,-0.455,0.01,0.826,12.11,47.67,71.907
48915960,-0.459,0.022,0.87,9.275,34.23,70.875
48915970,-0.445,0.01,0.876,4.41,17.797,68.355
48915980,-0.415,0.012,0.899,-0.28,2.642,64.102
48915990,-0.401,0.002,0.912,-6.667,-14.437,58.24
48916000,-0.33,-0.01,0.897,-10.43,-28.332,53.585
48916010,-0.245,0.001,0.888,-14.717,-35.437,47.32
48916020,-0.226,0.022,0.881,-22.75,-35.455,42.49
48916030,-0.214,-0.017,0.88,-31.552,-30.87,37.572
48916040,-0.245,-0.078,0.909,-35.98,-25.445,32.707
48916050,-0.299,-0.131,0.93,-37.275,-25.812,28.157
48916060,-0.31,-0.177,0.948,-34.3,-29.225,23.345
48916070,-0.35,-0.194,0.981,-30.117,-35.752,18.83
48916080,-0.38,-0.204,1.024,-25.55,-46.672,13.265
48916090,-0.367,-0.199,1.034,-20.02,-58.38,9.695
48916100,-0.3,-0.208,1.028,-15.715,-66.972,8.89
48916110,-0.264,-0.179,1.04,-13.23,-69.177,9.992
48916120,-0.214,-0.136,1.059,-16.082,-65.607,10.115
48916130,-0.24,-0.115,1.026,-23.275,-58.397,10.867
48916140,-0.284,-0.122,1.012,-40.162,-57.26,12.74
48916150,-0.16,-0.144,0.935,-52.937,-51.852,20.09
48916160,-0.209,-0.149,0.918,-55.282,-41.562,28.752
48916170,-0.275,-0.151,0.899,-57.365,-31.605,32.69
48916180,-0.306,-0.164,0.917,-54.32,-24.447,33.81
48916190,-0.355,-0.208,0.979,-46.742,-25.322,31.307
48916200,-0.259,-0.22,0.951,-35.052,-29.872,27.265
48916210,-0.259,-0.143,0.995,-22.592,-29.802,24.797
48916220,-0.256,-0.068,1.046,-21.315,-29.592,22.26
48916230,-0.274,-0.121,1.034,-28.525,-31.465,27.037
48916240,-0.259,-0.177,1.022,-30.222,-32.462,25.952
48916250,-0.232,-0.183,1.022,-26.215,-31.622,28
48916260,-0.28,-0.23,1.017,-26.285,-28.175,31.272
48916260,-0.344,-0.233,1.02,-30.012,-26.95,25.06
48916280,-0.314,-0.212,0.982,-34.422,-29.575,19.075
48916280,-0.331,-0.233,0.974,-38.745,-32.357,14.595
48916290,-0.316,-0.283,0.934,-40.442,-35.875,10.43
48916300,-0.313,-0.291,0.924,-37.572,-38.465,6.422
48916310,-0.309,-0.299,0.906,-33.215,-42.07,3.377
48916320,-0.289,-0.301,0.884,-27.51,-45.167,1.627
48916330,-0.291,-0.303,0.889,-21.997,-49.087,-1.085
48916340,-0.181,-0.274,0.855,-20.737,-48.93,-7.7
48916350,-0.151,-0.243,0.843,-22.96,-42.14,-14.367
48916360,-0.118,-0.198,0.826,-23.695,-32.847,-18.515
48916370,-0.105,-0.173,0.786,-26.442,-21.98,-16.94
48916380,-0.197,-0.262,0.84,-32.742,-10.237,-11.287
48916390,-0.285,-0.314,0.922,-30.66,-12.127,-10.15
48916400,-0.249,-0.305,0.927,-14.21,-25.83,-9.59
48916410,-0.138,-0.238,0.917,0.315,-32.935,-11.917
48916420,-0.207,-0.172,0.937,3.832,-32.97,-13.79
48916430,-0.026,-0.214,0.968,-1.662,-27.737,-17.325
48916440,-0.21,-0.381,0.985,-1.452,-14.717,-8.575
48916450,-0.221,-0.265,1.065,11.217,-23.852,-13.632
48916460,-0.185,-0.301,1.06,17.78,-40.442,-13.457
48916470,-0.059,-0.238,0.998,24.377,-53.602,-14.665
48916480,-0.071,-0.196,1.03,21.367,-53.935,-15.522
48916490,-0.079,-0.245,0.999,20.072,-54.005,-15.172
48916500,0.007,-0.224,0.95,24.255,-52.92,-16.17
48916510,0.021,-0.184,0.942,25.742,-47.775,-12.267
48916520,-0.022,-0.155,0.938,24.325,-42.595,-8.382
48916530,0.051,-0.133,0.882,22.837,-40.6,-4.83
48916540,0.108,-0.116,0.824,18.62,-33.04,0.297
48916550,0.078,-0.118,0.817,11.357,-20.422,5.547
48916560,0.059,-0.147,0.806,1.05,-8.312,9.327
48916570,0.048,-0.247,0.855,-4.847,5.67,13.912
48916580,-0.064,-0.248,0.905,7.56,17.412,20.597
48916580,-0.118,-0.205,1.014,20.842,21.56,25.147
48916600,-0.216,-0.223,1.002,24.307,18.935,29.435
48916600,-0.176,-0.191,0.977,31.552,21.262,30.502
48916620,-0.213,-0.184,1.037,35.21,25.252,24.412
48916620,-0.207,-0.191,1.004,35.21,25.602,22.715
48916640,-0.216,-0.169,0.976,36.347,27.685,24.062
48916640,-0.265,-0.127,0.98,34.86,26.985,22.067
48916660,-0.315,-0.126,0.985,32.427,20.23,19.18
48916660,-0.282,-0.143,0.936,32.427,10.115,13.107
48916670,-0.199,-0.112,0.916,36.61,1.522,3.762
48916680,-0.228,-0.117,0.933,40.337,-4.917,5.057
48916690,-0.264,-0.105,0.954,44.905,-15.802,5.32
48916700,-0.226,-0.082,0.957,48.037,-29.47,1.19
48916710,-0.117,-0.049,0.95,48.982,-39.2,-1.435
48916720,-0.077,-0.014,0.978,46.217,-41.79,-2.45
48916730,-0.055,-0.002,1.007,40.372,-41.982,-4.882
48916740,0.011,-0.03,0.99,35.245,-38.43,-4.777
48916750,0.031,-0.034,1.014,30.415,-29.715,-1.155
48916760,-0.02,-0.032,1.029,23.345,-20.667,0.262
48916770,0.066,-0.028,1.004,17.01,-9.852,-1.207
48916780,0.062,-0.033,1.03,8.487,8.732,-0.035
48916790,-0.027,-0.048,1.052,-2.905,24.535,0.542
48916800,-0.068,-0.088,1.058,-9.117,31.745,3.062
48916810,-0.088,-0.11,1.034,-12.127,31.482,4.917
48916820,-0.117,-0.104,1.022,-12.162,27.107,5.617
48916830,-0.091,-0.068,1.015,-9.835,20.93,5.985
48916840,-0.054,-0.073,1,-9.677,18.847,5.617
48916850,-0.002,-0.07,0.972,-7.385,21.822,4.76
48916860,0.037,0.003,0.973,-7.175,31.99,7.56
48916870,0,-0.021,0.928,-12.652,43.155,14.157
48916880,0.081,-0.026,0.868,-14.665,59.622,8.505
48916890,0.13,-0.027,0.871,-17.15,85.995,10.185
48916900,-0.073,0.011,0.955,-19.95,113.872,15.872
48916910,-0.268,-0.055,0.998,-29.067,117.372,11.497
48916920,-0.216,-0.079,0.959,-37.205,113.627,5.635
48916930,-0.27,-0.093,0.945,-36.522,107.082,4.935
48916940,-0.403,-0.057,0.939,-38.762,100.345,0.577
48916950,-0.658,-0.046,0.977,-48.982,73.955,-7.157
48916960,-0.421,-0.147,0.855,-50.715,38.832,-18.445
48916960,-0.263,-0.213,0.864,-37.345,21.7,-25.357
48916980,-0.276,-0.143,0.902,-30.38,19.582,-24.937
48916980,-0.334,-0.157,0.914,-26.617,21.717,-18.795
48917000,-0.184,-0.184,0.902,-23.555,30.537,-15.225
48917000,-0.35,-0.198,0.967,-24.045,48.632,-6.86
48917010,-0.502,-0.166,1.007,-25.182,51.17,-6.247
48917020,-0.471,-0.196,0.996,-28.245,40.495,-6.895
48917030,-0.464,-0.257,0.955,-29.662,25.235,-4.34
48917040,-0.396,-0.225,0.932,-27.212,13.632,-6.02
48917050,-0.343,-0.251,0.896,-23.502,5.81,-4.252
48917060,-0.332,-0.278,0.892,-18.427,3.867,-3.867
48917070,-0.343,-0.281,0.874,-13.702,3.237,-7.157
48917080,-0.341,-0.272,0.889,-7.612,3.71,-10.867
48917090,-0.334,-0.278,0.885,1.155,-1.382,-13.807
48917100,-0.289,-0.247,0.902,10.045,-4.69,-14.822
48917110,-0.286,-0.214,0.932,14,-4.97,-13.58
48917120,-0.263,-0.174,0.967,18.305,0.385,-11.305
48917130,-0.328,-0.144,1.019,18.27,6.107,-10.517
48917140,-0.381,-0.145,1.029,12.617,7.665,-12.32
48917150,-0.365,-0.163,0.995,9.117,5.425,-13.72
48917160,-0.372,-0.155,0.983,9.52,4.392,-13.877
48917170,-0.4,-0.132,0.951,9.975,0.962,-14.717
48917180,-0.376,-0.101,0.909,10.307,-4.06,-13.317
48917190,-0.383,-0.093,0.895,9.345,-9.52,-7.665
48917200,-0.285,-0.072,0.882,7.577,-9.782,-3.062
48917210,-0.287,-0.049,0.892,2.992,-3.675,2.397
48917220,-0.315,-0.078,0.93,-5.862,2.24,6.265
48917230,-0.334,-0.085,0.903,-11.007,5.407,3.517
48917240,-0.325,-0.083,0.917,-14.997,3.272,0.822
48917250,-0.259,-0.128,0.903,-15.557,4.322,1.435
48917260,-0.248,-0.153,0.932,-8.837,9.135,-0.087
48917270,-0.293,-0.164,0.946,-4.042,11.497,-2.362
48917280,-0.325,-0.173,0.953,0.98,10.727,-4.97
48917290,-0.334,-0.169,0.959,3.377,5.827,-8.295
48917300,-0.323,-0.192,0.934,4.322,3.045,-9.362
48917310,-0.357,-0.205,0.919,2.31,0.822,-9.73
48917320,-0.348,-0.225,0.924,-0.7,-0.297,-10.43
48917330,-0.322,-0.216,0.927,-2.87,0.017,-9.677
48917330,-0.355,-0.22,0.962,-6.335,1.82,-7.402
48917350,-0.357,-0.248,0.963,-7.77,1.855,-6.562
48917350,-0.365,-0.255,0.957,-6.947,1.102,-7.962
48917370,-0.273,-0.214,0.904,-5.46,-0.77,-13.947
48917370,-0.316,-0.154,0.864,0.997,0.227,-13.16
48917390,-0.337,-0.152,0.813,4.042,2.415,-11.637
48917390,-0.316,-0.152,0.805,5.162,5.232,-14.542
48917410,-0.301,-0.106,0.776,6.195,9.625,-14.385
48917410,-0.317,-0.142,0.771,5.845,15.75,-12.337
48917420,-0.358,-0.193,0.793,9.87,19.022,-8.242
48917430,-0.41,-0.238,0.836,16.257,16.257,-1.4
48917440,-0.54,-0.304,0.884,19.197,6.597,5.145
48917450,-0.633,-0.356,0.95,21.962,-10.552,10.885
48917460,-0.716,-0.38,0.968,28.665,-32.812,16.957
48917470,-0.642,-0.409,0.937,39.427,-56.665,17.465
48917480,-0.595,-0.279,0.991,50.085,-75.407,13.317
48917490,-0.618,-0.285,1.002,52.132,-94.762,9.835
48917500,-0.566,-0.295,0.947,57.05,-110.757,1.19
48917510,-0.683,-0.177,0.86,60.287,-135.327,-7.997
48917520,-0.309,-0.296,0.713,62.387,-150.972,-3.097
48917530,-0.38,-0.206,0.741,77.997,-153.685,5.915
48917540,-0.155,0.015,0.724,79.03,-158.077,5.407
48917550,0.087,-0.027,0.697,69.685,-150.395,9.625
48917560,0.359,0.116,0.709,63.56,-128.835,10.027
48917570,0.619,0.314,0.794,54.932,-98.962,13.615
48917580,0.762,0.151,0.903,45.43,-54.81,16.275
48917590,0.558,0.165,1.102,51.31,-9.537,13.527
48917600,0.448,0.246,1.11,45.447,22.19,8.102
48917610,0.311,0.094,1.092,32.095,51.38,-2.117
48917620,-0.006,-0.037,1.094,28.402,70.437,-3.36
48917630,-0.124,0.021,1.064,29.732,73.832,0.805
48917640,-0.203,0.035,1.082,19.897,73.377,6.037
48917650,-0.237,-0.061,1.093,12.897,65.87,12.722
48917660,-0.203,0.045,1.058,6.702,60.445,10.762
48917670,-0.341,-0.011,0.995,-3.605,51.327,20.317
48917670,-0.313,-0.083,0.978,-0.717,38.937,16.87
48917690,-0.352,-0.033,0.938,3.692,29.592,10.01
48917690,-0.419,0.047,0.943,5.11,21.595,5.46
48917710,-0.44,0.004,0.945,4.182,10.027,7.07
48917710,-0.373,0.04,0.934,6.107,0.752,6.737
48917730,-0.316,0.109,0.947,5.652,-2.187,5.18
48917730,-0.303,0.09,0.992,3.272,-1.575,6.23
48917750,-0.263,0.085,1.054,1.067,-1.785,5.057
48917750,-0.24,0.073,1.082,0.63,-3.377,4.375
48917760,-0.191,0.075,1.092,2.03,-1.277,3.937
48917770,-0.232,0.053,1.075,2.047,0.052,3.955
48917780,-0.189,0.042,1.049,6.44,1.557,2.555
48917790,-0.149,0.042,1.002,9.905,4.13,1.347
48917800,-0.085,0.061,0.976,14.42,9.852,0.105
48917810,-0.013,0.073,0.961,19.46,18.48,-0.402
48917820,0.016,0.117,0.919,24.727,28.595,1.785
48917830,-0.02,0.16,0.899,27.3,37.17,5.512
48917840,-0.096,0.163,0.945,19.95,43.365,8.802
48917850,-0.16,0.115,0.992,6.895,48.44,11.077
48917860,-0.116,0.072,0.978,-5.372,54.355,13.895
48917870,-0.228,-0.044,1.077,-12.582,60.497,23.887
48917880,-0.436,-0.191,1.017,-21.98,53.007,27.335
48917890,-0.269,-0.129,0.938,-15.155,57.417,12.407
48917900,-0.433,-0.07,0.918,-12.95,64.085,-1.452
48917910,-0.484,-0.128,0.863,-7.367,55.422,-0.577
48917920,-0.427,-0.136,0.808,7.437,43.68,4.182
48917930,-0.436,-0.091,0.796,18.76,36.05,6.562
48917940,-0.452,-0.064,0.808,23.59,29.242,7.577
48917950,-0.406,-0.015,0.812,28.175,22.4,7.315
48917960,-0.399,-0.006,0.822,31.535,20.09,7.455
48917970,-0.426,-0.007,0.848,33.495,17.99,7.682
48917980,-0.426,0.047,0.881,34.387,14.542,6.965
48917990,-0.407,0.053,0.889,32.165,9.03,7.595
48918000,-0.373,0.044,0.94,31.36,4.48,8.75
48918010,-0.343,0.05,0.935,30.712,1.347,9.397
48918020,-0.324,0.063,0.929,30.642,2.677,7.7
48918030,-0.343,0.088,0.955,31.57,3.517,4.375
48918040,-0.337,0.103,0.96,29.137,2.94,2.31
48918050,-0.348,0.098,0.981,27.965,0.175,-0.542
48918060,-0.328,0.119,0.97,26.565,-2.782,-3.815
48918070,-0.34,0.13,0.986,27.23,-6.16,-4.655
48918080,-0.321,0.133,0.96,27.265,-9.607,-5.53
48918080,-0.349,0.136,1.001,28.227,-11.62,-5.022
48918100,-0.352,0.149,0.984,27.3,-15.82,-5.057
48918100,-0.329,0.172,0.968,25.742,-16.607,-4.847
48918120,-0.343,0.174,0.961,20.492,-16.24,-5.442
48918120,-0.334,0.154,0.953,17.657,-14.805,-4.987
48918140,-0.323,0.16,0.931,15.277,-13.055,-4.812
48918140,-0.334,0.175,0.917,14,-8.505,-2.712
48918160,-0.363,0.175,0.93,10.5,-5.565,-1.977
48918160,-0.325,0.163,0.888,6.755,-3.43,-1.225
48918170,-0.317,0.177,0.887,3.517,1.33,-0.805
48918180,-0.325,0.169,0.885,-0.752,6.3,0.542
48918190,-0.338,0.157,0.889,-3.465,8.347,4.515
48918200,-0.312,0.163,0.865,-5.075,10.202,8.68
48918210,-0.332,0.164,0.877,-5.915,13.265,10.465
48918220,-0.327,0.141,0.87,-7.735,16.117,8.68
48918230,-0.322,0.138,0.882,-5.617,18.83,7.122
48918240,-0.343,0.144,0.903,-1.82,21.07,7.157
48918250,-0.356,0.143,0.924,0.822,21.997,6.58
48918260,-0.363,0.131,0.931,2.765,22.82,5.477
48918270,-0.372,0.13,0.937,4.2,23.327,4.847
48918280,-0.376,0.142,0.934,4.462,24.115,4.62
48918290,-0.38,0.147,0.924,2.975,24.167,4.882
48918300,-0.391,0.137,0.912,1.102,23.38,4.987
48918310,-0.383,0.125,0.896,0.192,20.72,5.302
48918320,-0.388,0.113,0.889,1.242,19.022,6.055
48918330,-0.399,0.127,0.898,3.377,17.482,4.672
48918340,-0.407,0.132,0.902,3.937,16.467,3.08
48918350,-0.414,0.14,0.913,6.335,14.612,2.135
48918360,-0.417,0.152,0.92,7.805,13.352,0.84
48918370,-0.417,0.151,0.916,8.82,11.83,-0.682
48918380,-0.4,0.154,0.908,9.257,12.25,-1.452
48918390,-0.408,0.149,0.91,9.817,12.565,-0.927
48918400,-0.41,0.152,0.908,9.03,13.037,-1.855
48918410,-0.407,0.153,0.91,7.84,12.582,-2.45
48918420,-0.406,0.16,0.908,7.14,12.372,-2.327
48918420,-0.402,0.156,0.901,5.337,12.092,-1.925
48918440,-0.397,0.148,0.891,5.04,12.722,-1.05
48918440,-0.394,0.156,0.886,4.217,13.86,-0.647
48918460,-0.4,0.154,0.879,2.625,15.715,-0.017
48918460,-0.399,0.15,0.869,1.015,17.587,-0.262
48918480,-0.383,0.163,0.849,-1.277,19.407,-0.385
48918480,-0.39,0.168,0.845,-4.007,22.33,1.365
48918500,-0.534,0.111,0.973,-6.317,17.972,0.752
48918500,-0.58,-0.071,1.077,-2.642,-10.745,-8.085
48918510,-0.1,0.067,0.905,14.35,-40.232,-21.875
48918520,0.008,0.347,0.946,24.01,-26.197,-15.557
48918530,-0.248,0.213,0.902,13.387,2.31,-4.777
48918540,-0.348,0.136,0.908,5.39,20.335,-10.587
48918550,-0.342,0.165,0.858,0.665,23.8,-15.61
48918560,-0.316,0.218,0.802,-2.66,31.762,-16.082
48918570,-0.371,0.241,0.765,-8.575,45.22,-15.12
48918580,-0.569,0.149,0.843,-18.025,55.055,-13.457
48918590,-0.648,0.013,0.909,-16.905,43.26,-14.402
48918600,-0.382,0.265,0.735,-6.86,39.182,-14.437
48918610,-0.628,0.25,0.831,-11.812,48.702,0.105
48918620,-0.75,0.048,0.784,-15.592,46.515,1.155
48918630,-0.658,0.131,0.795,-6.562,32.637,-1.942
48918640,-0.615,0.196,0.789,-1.89,22.505,1.487
48918650,-0.58,0.185,0.81,1.33,17.552,2.537
48918660,-0.592,0.157,0.846,2.852,14.472,5.652
48918670,-0.559,0.17,0.879,4.095,10.027,4.742
48918680,-0.491,0.203,0.893,2.625,8.662,3.587
48918690,-0.496,0.165,0.924,-1.855,9.31,4.935
48918700,-0.484,0.137,0.951,-4.48,9.782,4.9
48918710,-0.482,0.133,0.965,-6.072,8.365,4.987
48918720,-0.468,0.128,0.945,-7.157,6.965,4.865
48918730,-0.436,0.127,0.899,-7.315,6.3,3.955
48918740,-0.402,0.155,0.833,-7.77,10.412,5.162
48918750,-0.486,0.113,0.827,-10.062,14.262,7
48918760,-0.484,0.111,0.79,-10.99,14.542,6.965
48918770,-0.566,0.081,0.85,-11.165,13.37,7.962
48918780,-0.447,0.115,0.748,-9.59,10.167,4.585
48918790,-0.514,0.158,0.828,-8.435,19.6,7.122
48918800,-0.645,0.063,0.819,-13.002,20.055,5.915
48918810,-0.595,0.073,0.867,-7.122,12.127,2.747
48918820,-0.539,0.114,0.838,-2.082,3.797,2.94
48918830,-0.516,0.135,0.844,1.907,1.785,2.45
48918830,-0.533,0.125,0.834,3.867,2.082,1.4
48918850,-0.49,0.181,0.81,5.04,5.81,0.665
48918850,-0.472,0.221,0.805,1.487,16.66,1.837
48918870,-0.674,0.162,0.862,-8.172,27.317,3.01
48918870,-0.764,-0.021,0.898,-13.142,13.16,-2.222
48918890,-0.523,0.142,0.86,-3.132,-0.98,-3.762
48918890,-0.607,0.11,0.847,-3.64,-7.315,1.067
48918910,-0.59,0.074,0.841,1.487,-12.915,0.28
48918910,-0.552,0.105,0.846,7.507,-17.395,1.277
48918920,-0.533,0.155,0.828,10.15,-15.715,3.657
48918930,-0.528,0.175,0.843,7.612,-9.975,5.407
48918940,-0.514,0.141,0.818,-0.332,-5.267,6.58
48918950,-0.463,0.158,0.823,-5.862,2.66,6.65
48918960,-0.593,0.087,0.844,-13.545,6.597,7.262
48918970,-0.489,0.114,0.777,-13.772,0.805,3.272
48918980,-0.463,0.124,0.758,-9.52,-0.437,3.027
48918990,-0.496,0.094,0.753,-4.007,-4.795,2.695
48919000,-0.434,0.119,0.77,5.145,-8.155,2.187
48919010,-0.437,0.117,0.799,11.62,-9.257,3.115
48919020,-0.415,0.154,0.843,16.695,-5.162,4.497
48919030,-0.442,0.188,0.866,15.312,1.435,5.862
48919040,-0.457,0.192,0.871,9.555,9.52,6.807
48919050,-0.483,0.168,0.871,3.657,14.367,6.37
48919060,-0.471,0.172,0.865,-0.787,17.885,6.615
48919070,-0.476,0.15,0.832,-4.165,19.442,5.617
48919080,-0.492,0.131,0.823,-3.01,22.277,4.637
48919090,-0.536,0.123,0.81,0.437,21.14,3.587
48919100,-0.564,0.145,0.795,5.442,17.832,3.097
48919110,-0.578,0.173,0.795,8.872,14.665,3.447
48919120,-0.618,0.174,0.81,9.082,12.582,4.27
48919130,-0.64,0.178,0.832,8.085,8.05,4.217
48919140,-0.638,0.189,0.849,6.37,2.852,4.567
48919150,-0.632,0.183,0.859,3.675,-2.607,3.815
48919160,-0.596,0.173,0.856,1.295,-6.405,2.59
48919170,-0.563,0.176,0.855,-0.017,-8.54,2.642
48919170,-0.548,0.148,0.846,-0.875,-9.695,3.202
48919190,-0.502,0.152,0.842,0.49,-9.94,2.205
48919190,-0.512,0.131,0.862,0.262,-9.765,1.575
48919210,-0.436,0.174,0.823,1.785,-9.1,1.557
48919210,-0.481,0.152,0.851,1.417,-5.162,3.412
48919230,-0.472,0.163,0.824,0.507,-3.185,2.52
48919230,-0.499,0.165,0.833,-1.295,-0.91,2.677
48919250,-0.504,0.163,0.81,-3.605,0.945,1.837
48919250,-0.543,0.147,0.848,-4.795,3.307,1.715
48919260,-0.561,0.139,0.827,-4.672,1.627,0.735
48919270,-0.558,0.178,0.85,-2.625,0.945,0.997
48919280,-0.567,0.172,0.795,-2.852,-1.47,1.295
48919290,-0.541,0.2,0.779,-0.595,-0.315,2.537
48919300,-0.576,0.201,0.775,-0.84,3.237,3.57
48919310,-0.615,0.174,0.803,-1.347,4.375,2.695
48919320,-0.586,0.19,0.815,-2.17,3.167,1.137
48919330,-0.593,0.193,0.816,-3.657,0.455,1.487
48919340,-0.536,0.16,0.837,-5.32,-1.592,1.4
48919350,-0.558,0.112,0.87,-4.655,-1.487,1.61
48919360,-0.529,0.126,0.878,-3.01,-4.042,0.49
48919370,-0.496,0.148,0.857,-0.63,-8.277,0.332
48919380,-0.441,0.166,0.803,2.52,-9.695,1.347
48919390,-0.461,0.17,0.789,3.85,-4.217,3.605
48919400,-0.542,0.137,0.792,1.907,-0.805,3.132
48919410,-0.509,0.166,0.788,0.717,0.227,2.59
48919420,-0.566,0.134,0.806,-1.12,-0.087,3.255
48919430,-0.531,0.144,0.806,-1.802,0.28,1.715
48919440,-0.581,0.135,0.82,-2.1,2.537,2.87
48919450,-0.579,0.144,0.79,-1.662,2.537,3.587
48919460,-0.626,0.12,0.821,-1.26,1.557,4.042
48919470,-0.593,0.135,0.799,-0.735,-3.535,3.045
48919480,-0.561,0.16,0.804,0.157,-5.985,3.972
48919490,-0.549,0.156,0.804,-0.787,-6.755,4.077
48919500,-0.516,0.158,0.812,-0.472,-5.897,4.06
48919510,-0.493,0.17,0.822,-0.647,-4.532,4.34
48919520,-0.478,0.168,0.829,-1.645,-1.277,4.042
48919530,-0.468,0.175,0.837,-1.942,2.8,3.447
48919540,-0.509,0.165,0.851,-3.167,7.35,2.555
48919550,-0.533,0.162,0.838,-4.165,10.097,-0.105
48919560,-0.578,0.151,0.841,-4.62,12.11,-2.03
48919570,-0.595,0.141,0.816,-4.532,10.22,-4.165
48919580,-0.563,0.196,0.767,-2.905,10.237,-3.692
48919580,-0.66,0.175,0.793,-3.5,9.345,-1.067
48919600,-0.637,0.165,0.791,-3.762,2.992,-1.19
48919600,-0.603,0.18,0.816,-2.922,-1.995,0.542
48919620,-0.597,0.191,0.825,-2.572,-4.462,2.905
48919620,-0.563,0.185,0.825,-2.065,-5.687,3.08
48919630,-0.547,0.17,0.82,-2.345,-5.705,2.065
48919640,-0.499,0.168,0.809,-2.31,-5.687,0.735
48919650,-0.481,0.173,0.807,-2.31,-2.065,0.665
48919660,-0.502,0.153,0.814,-4.182,2.537,0.385
48919670,-0.519,0.149,0.819,-4.62,5.407,-0.175
48919680,-0.533,0.155,0.823,-5.477,7.332,0.175
48919690,-0.565,0.144,0.822,-5.985,8.662,-0.07
48919700,-0.58,0.139,0.819,-5.897,9.362,-1.015
48919710,-0.602,0.133,0.81,-5.197,8.19,-1.242
48919720,-0.606,0.132,0.803,-3.92,6.002,-1.277
48919730,-0.62,0.132,0.801,-2.38,1.085,-0.595
48919740,-0.576,0.129,0.781,-0.315,-1.347,0.245
48919750,-0.575,0.143,0.793,2.03,-2.8,1.067
48919760,-0.559,0.156,0.8,2.94,-3.29,1.872
48919770,-0.551,0.17,0.807,3.132,-3.22,2.135
48919780,-0.555,0.172,0.816,2.345,-2.17,2.17
48919790,-0.541,0.179,0.814,1.47,-1.872,1.732
48919800,-0.553,0.174,0.814,0.437,-0.14,1.802
48919810,-0.555,0.167,0.806,-0.577,0.892,1.435
48919820,-0.562,0.165,0.8,-0.91,2.292,1.102
48919830,-0.57,0.156,0.795,-1.225,2.38,0.98
48919840,-0.58,0.142,0.798,-0.857,2.257,0.98
48919850,-0.596,0.141,0.796,0.262,0.35,0.787
48919860,-0.617,0.134,0.799,1.575,-2.66,0.997
48919870,-0.579,0.133,0.797,3.622,-5.862,0.367
48919880,-0.574,0.144,0.797,5.512,-7.157,-0.682
48919890,-0.562,0.145,0.789,6.947,-8.085,-1.365
48919900,-0.545,0.164,0.786,8.557,-7.175,-1.925
48919910,-0.59,0.181,0.807,7.857,-6.37,-3.027
48919920,-0.628,0.19,0.825,4.62,-6.072,-5.652
48919920,-0.661,0.192,0.793,0.945,-7.77,-8.872
48919940,-0.699,0.165,0.783,-2.8,-9.537,-11.532
48919940,-0.737,0.153,0.778,-5.46,-14.507,-16.327
48919960,-0.682,0.16,0.741,-6.282,-19.652,-20.02
48919960,-0.658,0.143,0.718,-5.617,-22.995,-19.197
48919980,-0.648,0.185,0.746,-2.415,-25.497,-17.867
48919980,-0.604,0.214,0.812,-1.75,-25.935,-16.852
48920000,-0.622,0.084,0.913,-3.027,-28.455,-14.945
48920000,-0.665,0.108,0.988,7.262,-30.537,-11.602
48920010,-0.581,0.205,0.975,12.197,-40.932,-13.475
48920020,-0.388,0.151,0.912,11.532,-41.265,-15.225
48920030,-0.36,0.168,0.918,15.802,-35.35,-13.142
48920040,-0.317,0.188,0.897,16.555,-30.835,-9.747
48920050,-0.271,0.142,0.861,15.942,-24.622,-7.472
48920060,-0.253,0.089,0.794,15.277,-17.045,-10.517
48920070,-0.232,0.112,0.719,15.26,-3.465,-13.265
48920080,-0.364,0.06,0.693,13.212,10.692,-10.85
48920090,-0.454,0.016,0.684,15.067,16.397,-6.702
48920100,-0.494,0.026,0.711,19.005,16.957,-2.152
48920110,-0.535,0.024,0.741,22.732,16.257,0.297
48920120,-0.576,0.03,0.761,28.035,16.222,-0.367
48920130,-0.635,0.056,0.783,33.372,11.392,-1.172
48920140,-0.686,0.071,0.805,38.99,3.132,0.42
48920150,-0.696,0.122,0.839,45.64,-8.522,2.94
48920160,-0.686,0.215,0.881,50.19,-20.877,6.702
48920170,-0.571,0.304,0.944,47.74,-30.415,7.245
48920180,-0.528,0.427,0.832,41.072,-29.96,5.425
48920190,-0.352,0.419,0.862,30.362,-21.63,3.517
48920200,-0.328,0.403,0.846,19.845,-4.462,3.447
48920210,-0.326,0.424,0.881,9.257,9.17,1.925
48920220,-0.334,0.383,0.868,-0.35,20.142,1.382
48920230,-0.342,0.362,0.822,-9.485,30.065,-2.222
48920240,-0.406,0.343,0.808,-17.745,44.502,-7.91
48920250,-0.558,0.212,0.813,-26.075,53.672,-13.44
48920260,-0.619,0.091,0.794,-27.947,52.465,-15.645
48920270,-0.649,0.059,0.817,-22.785,44.1,-15.487
48920280,-0.701,0.06,0.772,-15.26,32.847,-14.455
48920290,-0.692,0.121,0.76,-6.02,24.832,-14.14
48920300,-0.808,0.094,0.779,-0.98,16.135,-9.38
48920300,-0.799,0.074,0.769,6.23,0.997,-4.55
48920320,-0.721,0.131,0.788,14.21,-13.615,1.977
48920320,-0.662,0.157,0.784,17.657,-25.217,6.685
48920330,-0.568,0.209,0.791,20.475,-31.167,8.505
48920340,-0.519,0.241,0.803,20.352,-32.375,9.1
48920350,-0.502,0.266,0.82,16.432,-29.207,7.49
48920360,-0.513,0.28,0.83,10.64,-24.762,6.3
48920370,-0.529,0.271,0.833,4.252,-21.122,5.582
48920380,-0.507,0.261,0.823,-1.172,-17.587,4.532
48920390,-0.491,0.254,0.817,-5.197,-13.737,4.392
48920400,-0.495,0.236,0.747,-7.63,-9.87,5.005
48920410,-0.423,0.254,0.823,-8.697,-4.707,4.847
48920420,-0.702,0.18,0.86,-9.957,-2.065,7.472
48920430,-0.663,0.201,0.845,-8.347,-7.472,1.662
48920440,-0.774,0.177,0.824,-8.662,-15.155,-1.435
48920450,-0.902,0.122,0.832,-6.58,-29.96,-2.835
48920460,-0.924,0.09,0.826,-3.22,-50.33,-3.115
48920470,-0.899,0.001,0.75,3.307,-69.737,-2.782
48920480,-0.919,0.042,0.759,11.515,-83.545,-10.08
48920490,-0.856,0.09,0.78,21.752,-108.132,-12.687
48920500,-0.736,0.145,0.782,31.325,-132.44,-7.385
48920510,-0.623,0.21,0.816,35.35,-154.175,-0.612
48920520,-0.578,0.169,0.862,31.885,-169.347,3.797
48920530,-0.433,0.169,0.83,28.77,-180.162,-0.07
48920540,-0.352,0.191,0.873,29.435,-173.547,-6.457
48920550,-0.337,0.187,0.883,26.092,-162.26,-16.1
48920560,-0.592,0.152,0.857,27.44,-161.035,-28.192
48920570,-0.169,0.374,0.644,46.865,-177.922,-50.085
48920580,0.222,0.307,0.864,50.715,-140.577,-51.94
48920590,-0.321,-0.002,1.074,45.237,-118.195,-49.752
48920600,0.056,0.155,0.945,66.587,-130.602,-72.292
48920610,0.689,0.592,0.724,72.432,-98.28,-78.785
48920620,0.177,0.57,0.69,69.37,-43.312,-59.272
48920630,0.094,0.325,0.643,47.582,-4.305,-63.91
48920640,0.124,0.265,0.566,34.825,27.58,-66.692
48920650,-0.175,0.31,0.645,36.172,40.145,-60.917
48920660,-0.327,0.332,0.72,38.745,33.565,-46.62
48920670,-0.325,0.297,0.735,39.182,18.41,-35.455
48920670,-0.312,0.245,0.785,40.67,10.167,-27.142
48920690,-0.384,0.24,0.898,45.342,5.267,-18.9
48920690,-0.371,0.33,0.961,48.352,-2.082,-16.677
48920710,-0.2,0.432,0.965,44.257,-2.24,-16.555
48920710,-0.203,0.47,0.967,31.64,11.427,-7.787
48920730,-0.288,0.419,1.03,27.632,23.537,-7.682
48920730,-0.302,0.491,1.081,28.63,24.99,-9.905
48920750,-0.319,0.496,1.108,17.027,20.107,-3.605
48920750,-0.29,0.493,1.048,6.037,11.095,-0.962
48920760,-0.241,0.437,0.978,-1.295,6.58,3.167
48920770,-0.241,0.353,0.957,-1.82,7,4.742
48920780,-0.198,0.374,0.927,-4.795,9.677,-0.297
48920790,-0.414,0.333,0.955,-8.365,10.22,-3.237
48920800,-0.202,0.343,0.813,-6.16,-12.74,-16.327
48920810,0.005,0.43,0.744,0.332,-12.355,-13.422
48920820,-0.122,0.444,0.885,-7.612,6.58,-9.8
48920830,-0.213,0.34,0.958,-21.332,27.002,-13.527
48920840,-0.371,0.373,0.994,-32.34,36.872,-18.287
48920850,-0.389,0.312,0.931,-40.197,38.867,-20.895
48920860,-0.334,0.323,0.886,-42.525,43.75,-29.102
48920870,-0.411,0.336,0.871,-41.212,45.902,-30.45
48920880,-0.432,0.297,0.858,-40.722,44.52,-25.48
48920890,-0.418,0.296,0.843,-34.51,38.342,-20.492
48920900,-0.326,0.354,0.891,-29.242,39.252,-15.645
48920910,-0.292,0.385,0.93,-30.327,43.89,-13.16
48920920,-0.21,0.394,0.951,-33.565,50.925,-13.002
48920930,-0.137,0.485,1.009,-39.655,58.345,-11.112
48920940,-0.091,0.508,1.086,-52.377,69.16,-9.905
48920950,-0.082,0.562,1.166,-69.212,78.715,-10.272
48920960,-0.18,0.626,1.251,-95.095,81.83,-4.777
48920970,-0.306,0.587,1.292,-126.927,72.327,7.892
48920980,-0.408,0.442,1.235,-159.582,53.27,24.745
48920990,-0.348,0.173,1.21,-184.59,39.585,36.627
48921000,-0.42,-0.116,1.113,-190.067,38.255,38.185
48921010,-0.529,-0.151,1.065,-179.025,37.24,29.592
48921010,-0.536,-0.077,1.009,-169.277,38.727,18.532
48921030,-0.534,-0.074,0.886,-158.182,35.472,13.475
48921030,-0.551,-0.15,0.803,-139.842,34.265,15.417
48921050,-0.596,-0.241,0.792,-111.09,29.102,19.495
48921050,-0.51,-0.284,0.727,-69.51,20.265,22.312
48921070,-0.364,-0.266,0.65,-15.33,21.84,29.977
48921070,-0.442,-0.157,0.7,36.085,36.75,43.12
48921080,-0.598,-0.064,0.764,74.165,47.337,53.97
48921090,-0.667,-0.016,0.792,97.51,46.742,55.177
48921100,-0.667,0.037,0.82,107.047,35.962,48.475
48921110,-0.639,0.114,0.831,100.712,19.775,38.972
48921120,-0.6,0.168,0.819,82.18,3.535,30.415
48921130,-0.53,0.203,0.784,60.637,-8.907,21.245
48921140,-0.467,0.21,0.763,41.16,-15.61,12.477
48921150,-0.434,0.197,0.729,23.135,-17.902,4.252
48921160,-0.4,0.194,0.703,10.587,-16.467,-5.512
48921170,-0.423,0.188,0.708,4.62,-15.907,-14.647
48921180,-0.446,0.179,0.7,2.467,-19.25,-25.795
48921190,-0.449,0.185,0.708,5.197,-24.815,-36.872
48921200,-0.454,0.195,0.718,8.435,-31.15,-45.482
48921210,-0.448,0.216,0.726,10.552,-38.29,-55.09
48921220,-0.437,0.241,0.744,12.18,-44.45,-64.837
48921230,-0.439,0.245,0.757,9.642,-49.42,-73.85
48921240,-0.455,0.219,0.772,3.167,-52.92,-81.13
48921250,-0.453,0.191,0.775,-3.815,-57.732,-88.252
48921260,-0.438,0.188,0.785,-9.135,-61.495,-92.96
48921270,-0.433,0.181,0.8,-15.767,-65.187,-94.097
48921280,-0.439,0.14,0.788,-23.712,-67.165,-96.355
48921290,-0.418,0.161,0.822,-27.58,-67.847,-100.607
48921300,-0.491,0.113,0.838,-40.005,-69.79,-91.752
48921310,-0.534,0.056,0.845,-49.7,-76.877,-85.592
48921320,-0.506,0.047,0.857,-58.38,-84.945,-90.807
48921330,-0.501,0.014,0.86,-68.88,-92.19,-92.242
48921340,-0.514,-0.045,0.869,-76.737,-96.652,-87.377
48921350,-0.559,-0.099,0.906,-81.795,-102.357,-80.36
48921360,-0.673,-0.171,0.953,-88.06,-113.522,-74.987
48921370,-0.824,-0.256,1.003,-95.462,-136.01,-76.912
48921380,-0.982,-0.349,0.959,-107.537,-168.21,-90.037
48921390,-1.019,-0.376,0.905,-121.677,-202.702,-113.977
48921400,-1.059,-0.342,0.907,-141.435,-238.472,-139.58
48921410,-0.977,-0.34,0.851,-168.647,-272.282,-164.15
48921420,-0.836,-0.384,0.805,-187.897,-297.202,-179.777
48921420,-0.588,-0.516,0.872,-181.842,-314.352,-173.827
48921440,-0.213,-0.928,0.618,-136.71,-306.88,-144.357
48921440,0.167,-0.685,0.698,-33.512,-269.43,-111.335
48921460,0.528,-0.428,0.7,58.065,-202.58,-81.462
48921460,0.613,-0.116,0.81,114.73,-130.48,-61.67
48921480,0.549,0.066,0.926,146.807,-66.867,-51.38
48921480,0.413,0.135,1.009,149.852,-30.87,-45.027
48921500,0.231,0.158,1.076,135.975,-24.815,-37.94
48921500,0.135,0.231,1.115,116.567,-47.092,-34.65
48921510,0.16,0.287,1.076,88.462,-83.037,-41.037
48921520,0.303,0.3,1.003,60.322,-116.69,-52.167
48921530,0.494,0.311,0.907,41.772,-137.427,-58.607
48921540,0.708,0.333,0.812,34.72,-137.357,-57.312
48921550,0.807,0.346,0.791,29.925,-115.64,-49.455
48921560,0.787,0.335,0.786,20.422,-82.897,-41.492
48921570,0.675,0.294,0.808,7.297,-51.152,-35.77
48921580,0.518,0.241,0.834,-10.325,-30.747,-31.062
48921590,0.419,0.164,0.847,-29.225,-23.485,-26.162
48921600,0.369,0.073,0.834,-46.322,-22.102,-18.637
48921610,0.32,-0.087,0.802,-53.812,-21.805,-7.087
48921620,0.309,-0.169,0.798,-47.617,-18.532,-2.047
48921630,0.304,-0.188,0.831,-36.697,-12.127,1.575
48921640,0.244,-0.21,0.866,-28.525,-4.375,4.322
48921650,0.267,-0.197,0.891,-24.237,-1.172,3.885
48921660,0.285,-0.19,0.903,-22.855,6.58,7.437
48921670,0.254,-0.201,0.915,-21.805,14.945,11.9
48921680,0.233,-0.227,0.92,-21.07,21.822,15.662
48921690,0.196,-0.255,0.921,-19.792,25.025,19.04
48921700,0.187,-0.25,0.919,-17.08,25.147,20.632
48921710,0.221,-0.214,0.915,-14.822,24.045,20.475
48921720,0.232,-0.207,0.908,-12.53,25.48,20.02
48921730,0.25,-0.208,0.9,-8.47,27.807,19.547
48921740,0.257,-0.199,0.911,-2.677,32.007,19.6
48921750,0.26,-0.188,0.918,2.537,35.315,19.337
48921760,0.258,-0.184,0.924,8.75,38.745,19.285
48921760,0.248,-0.162,0.94,14.717,40.53,18.357
48921780,0.247,-0.142,0.95,19.687,41.037,16.502
48921780,0.257,-0.125,0.954,24.115,40.792,14.087
48921800,0.251,-0.109,0.959,27.912,41.772,11.305
48921800,0.245,-0.103,0.961,32.69,42.717,8.487
48921820,0.244,-0.101,0.957,39.672,45.15,6.09
48921820,0.225,-0.101,0.96,50.4,48.02,4.305
48921830,0.241,-0.111,0.941,67.042,52.325,3.885
48921840,0.274,-0.123,0.902,90.212,62.352,4.777
48921850,0.273,-0.11,0.877,118.79,79.117,4.952
48921860,0.263,-0.073,0.861,150.167,98.647,4.27
48921870,0.25,-0.029,0.848,179.952,119.297,3.605
48921880,0.232,0.022,0.841,205.1,140.07,3.675
48921890,0.192,0.087,0.841,223.667,159.425,4.585
48921900,0.096,0.166,0.881,233.45,174.545,6.37
48921910,-0.042,0.271,0.969,229.477,179.27,7.77
48921920,-0.183,0.366,1.054,210,169.575,7.787
48921930,-0.276,0.409,1.085,179.27,146.055,5.582
48921940,-0.296,0.402,1.06,146.247,117.197,2.362
48921950,-0.275,0.393,1.014,119.122,89.337,-1.19
48921960,-0.237,0.404,0.966,98.192,67.532,-3.43
48921970,-0.203,0.418,0.922,79.327,52.325,-3.762
48921980,-0.169,0.423,0.88,61.6,45.29,-2.887
48921990,-0.149,0.418,0.837,46.322,44.8,-0.787
48922000,-0.16,0.423,0.816,34.772,49.682,2.8
48922010,-0.192,0.444,0.819,25.882,54.932,7.98
48922020,-0.227,0.457,0.818,17.902,58.852,14.175
48922030,-0.267,0.457,0.804,11.462,60.217,19.25
48922040,-0.314,0.474,0.779,7.122,61.512,21.035
48922050,-0.359,0.509,0.781,4.095,59.517,20.282
48922060,-0.379,0.576,0.771,1.067,56.962,20.23
48922070,-0.396,0.638,0.76,-1.4,54.39,21.63
48922080,-0.417,0.681,0.756,-4.515,53.882,24.29
48922090,-0.405,0.723,0.754,-8.365,54.25,29.4
48922100,-0.388,0.742,0.758,-13.58,57.4,38.867
48922110,-0.395,0.732,0.778,-20.02,61.162,51.345
48922120,-0.413,0.711,0.798,-27.492,66.08,64.627
48922130,-0.454,0.705,0.832,-36.96,69.195,75.495
48922140,-0.508,0.686,0.856,-50.505,70.35,82.232
48922150,-0.556,0.644,0.856,-67.305,66.99,84.175
48922160,-0.611,0.565,0.84,-83.405,58.572,82.81
48922170,-0.6,0.508,0.822,-96.722,44.415,78.575
48922170,-0.534,0.493,0.804,-110.285,28.542,75.792
48922190,-0.46,0.491,0.783,-126.997,13.562,76.265
48922190,-0.322,0.485,0.73,-150.237,6.037,78.89
48922210,-0.179,0.39,0.68,-171.535,11.235,88.742
48922210,-0.149,0.271,0.665,-185.762,27.02,101.185
48922230,-0.321,0.073,0.694,-197.417,41.51,109.515
48922230,-0.503,-0.1,0.781,-199.447,41.86,104.44
48922250,-0.613,-0.188,0.883,-193.742,20.825,87.29
48922250,-0.623,-0.21,0.95,-189.087,-18.095,65.73
48922260,-0.516,-0.222,0.971,-184.87,-65.572,48.212
48922270,-0.373,-0.274,0.975,-181.037,-109.112,39.69
48922280,-0.285,-0.401,0.929,-178.412,-140.245,35.385
48922290,-0.123,-0.528,0.885,-168.192,-153.142,28.017
48922300,0.059,-0.589,0.878,-144.917,-147.997,28.157
48922310,0.137,-0.576,0.943,-118.44,-128.432,32.27
48922320,0.119,-0.568,0.999,-100.082,-102.48,35.07
48922330,0.089,-0.547,1.039,-83.405,-81.497,33.495
48922340,0.135,-0.604,1.124,-70.752,-65.94,32.042
48922350,0.215,-0.818,1.127,-54.915,-48.737,36.137
48922360,0.2,-0.637,1.178,-16.975,-27.58,33.005
48922370,0.019,-0.531,1.302,-0.28,-20.055,27.387
48922380,-0.028,-0.544,1.322,5.81,-24.027,24.622
48922390,0.017,-0.492,1.285,13.965,-38.902,14.63
48922400,0.124,-0.416,1.213,14.42,-49.245,10.78
48922410,0.158,-0.39,1.166,16.467,-51.572,10.71
48922420,0.265,-0.384,1.068,15.662,-44.957,7.91
48922430,0.338,-0.392,1.022,19.46,-25.497,5.512
48922440,0.325,-0.371,0.997,27.475,2.607,1.347
48922450,0.297,-0.304,0.971,37.082,30.52,-4.97
48922460,0.194,-0.24,0.986,45.185,54.005,-3.605
48922470,0.057,-0.264,0.957,54.827,65.677,2.03
48922480,-0.016,-0.185,0.995,63.612,70.542,-3.85
48922490,-0.114,-0.107,1.006,57.347,67.357,-10.325
48922500,-0.161,-0.074,0.99,46.41,57.505,-17.64
48922510,-0.159,-0.087,0.951,38.307,43.54,-22.662
48922510,-0.135,-0.103,0.916,30.87,31.92,-23.257
48922530,-0.118,-0.112,0.87,23.38,24.447,-24.255
48922530,-0.105,-0.136,0.844,17.71,22.207,-27.895
48922550,-0.081,-0.164,0.821,13.02,23.135,-30.782
48922550,-0.088,-0.171,0.823,10.675,29.155,-31.325
48922570,-0.132,-0.19,0.847,8.592,35.49,-30.59
48922570,-0.152,-0.209,0.855,5.32,39.13,-30.275
48922580,-0.168,-0.24,0.857,3.517,40.827,-28.875
48922590,-0.188,-0.252,0.859,3.01,41.912,-27.877
48922600,-0.21,-0.244,0.859,4.585,42,-27.825
48922610,-0.214,-0.221,0.847,7.892,43.785,-27.86
48922620,-0.243,-0.203,0.849,11.13,47.197,-27.142
48922630,-0.282,-0.18,0.856,12.88,49.595,-26.302
48922640,-0.298,-0.144,0.866,13.947,50.575,-27.055
48922650,-0.316,-0.132,0.868,14,50.575,-27.037
48922660,-0.318,-0.136,0.865,16.047,50.732,-25.83
48922670,-0.33,-0.124,0.858,19.74,50.627,-24.5
48922680,-0.325,-0.096,0.858,24.22,51.467,-21.682
48922690,-0.348,-0.082,0.862,27.702,52.395,-18.865
48922700,-0.376,-0.065,0.879,31.447,52.465,-20.265
48922710,-0.391,-0.044,0.902,34.527,50.242,-24.955
48922720,-0.399,-0.051,0.913,37.362,45.885,-30.835
48922730,-0.337,-0.04,0.879,44.345,43.925,-36.032
48922740,-0.325,0.022,0.833,53.357,47.32,-39.742
48922750,-0.343,0.093,0.861,57.102,52.5,-41.475
48922760,-0.305,0.2,0.822,53.392,62.002,-43.715
48922770,-0.443,0.205,0.853,57.33,69.632,-23.362
48922780,-0.591,0.205,0.915,60.777,66.482,-3.745
48922790,-0.566,0.285,0.909,49.437,57.26,-13.825
48922800,-0.583,0.272,0.881,35.472,48.457,-20.65
48922810,-0.586,0.24,0.851,27.265,37.747,-21.997
48922820,-0.576,0.219,0.831,26.565,25.025,-21.175
48922830,-0.551,0.235,0.84,27.387,12.04,-22.47
48922840,-0.499,0.247,0.835,22.61,4.427,-27.3
48922850,-0.443,0.293,0.852,14.315,1.505,-30.642
48922860,-0.428,0.264,0.852,6.755,1.102,-29.837
48922870,-0.41,0.254,0.865,3.517,1.102,-29.837
48922880,-0.373,0.257,0.872,-2.45,2.17,-27.632
48922890,-0.347,0.236,0.866,-9.905,4.2,-22.522
48922900,-0.322,0.208,0.857,-15.365,9.17,-17.115
48922910,-0.309,0.199,0.86,-18.55,16.52,-12.617
48922920,-0.329,0.171,0.866,-18.515,24.85,-8.925
48922920,-0.361,0.15,0.894,-15.172,31.832,-7.892
48922940,-0.385,0.127,0.911,-11.2,36.872,-7.7
48922940,-0.412,0.132,0.947,-6.475,39.672,-7.052
48922960,-0.437,0.127,0.958,-4.095,39.165,-5.302
48922960,-0.428,0.116,0.949,-1.347,36.89,-3.342
48922970,-0.405,0.109,0.929,-0.717,37.572,-2.52
48922980,-0.412,0.108,0.91,0.49,41.037,-1.732
48922990,-0.426,0.12,0.899,1.12,44.94,-2.73
48923000,-0.441,0.122,0.885,0.28,47.04,-3.92
48923010,-0.476,0.121,0.891,0.857,46.252,-3.517
48923020,-0.494,0.132,0.885,-1.102,42.612,-2.66
48923030,-0.492,0.123,0.873,-4.322,37.45,-0.507
48923040,-0.482,0.11,0.86,-8.12,33.46,1.557
48923050,-0.453,0.1,0.833,-13.352,32.182,1.977
48923060,-0.441,0.105,0.83,-16.45,35.28,2.817
48923070,-0.447,0.102,0.824,-20.282,39.13,2.957
48923080,-0.463,0.094,0.82,-21.63,43.382,3.99
48923090,-0.488,0.103,0.843,-20.422,45.657,4.865
48923100,-0.52,0.111,0.848,-19.705,45.027,5.985
48923110,-0.524,0.11,0.875,-15.802,40.372,8.085
48923120,-0.432,0.149,0.768,-13.317,41.282,10.57
48923130,-0.499,0.122,0.814,-14.49,48.002,17.412
48923140,-0.523,0.131,0.808,-20.037,54.582,14.717
48923150,-0.496,0.149,0.794,-22.995,58.712,13.44
48923160,-0.513,0.138,0.781,-22.12,66.01,17.78
48923170,-0.555,0.131,0.8,-18.55,74.305,20.615
48923180,-0.634,0.116,0.813,-11.515,77.367,23.397
48923190,-0.707,0.092,0.832,-4.97,73.097,19.985
48923200,-0.735,0.089,0.841,0.227,63.682,14.105
48923210,-0.737,0.073,0.841,4.375,50.085,9.94
48923220,-0.717,0.068,0.833,8.365,37.327,6.09
48923230,-0.69,0.056,0.828,16.87,27.212,5.407
48923240,-0.677,0.057,0.819,26.127,21.297,5.582
48923250,-0.669,0.071,0.821,35.77,17.045,6.387
48923260,-0.648,0.101,0.809,43.522,17.22,8.207
48923260,-0.636,0.138,0.797,47.285,19.11,10.552
48923280,-0.619,0.18,0.797,48.142,23.747,13.667
48923280,-0.648,0.213,0.783,46.252,28.63,17.955
48923300,-0.629,0.227,0.774,40.547,33.967,21.56
48923300,-0.603,0.24,0.726,32.62,42.875,23.887
48923320,-0.636,0.231,0.713,21.84,53.9,25.147
48923320,-0.657,0.211,0.717,10.64,64.12,23.03
48923330,-0.656,0.18,0.688,3.01,70.857,19.145
48923340,-0.635,0.177,0.661,1.172,76.545,16.065
48923350,-0.557,0.179,0.602,1.872,84.892,16.24
48923360,-0.532,0.126,0.648,5.862,101.342,18.865
48923370,-0.525,0.093,0.585,21.297,115.08,25.497
48923380,-0.303,0.143,0.439,42.857,146.457,36.872
48923390,-0.371,0.194,0.405,52.115,195.352,48.65
48923400,-0.622,0.172,0.425,54.67,235.9,55.93
48923410,-0.797,0.11,0.42,55.772,256.2,51.467
48923420,-0.955,0,0.422,55.072,257.25,38.01
48923430,-1.001,-0.014,0.386,59.412,244.755,21.84
48923440,-1.041,0.016,0.37,66.552,229.547,13.597
48923450,-1.135,0.064,0.365,71.207,209.527,8.05
48923460,-1.207,0.118,0.358,72.047,185.395,4.06
48923470,-1.199,0.177,0.356,69.737,158.06,0.315
48923480,-1.121,0.242,0.338,65.292,133.315,-1.872
48923490,-1.115,0.249,0.34,60.515,115.955,3.552
48923500,-1.359,0.199,0.468,61.967,99.365,18.2
48923510,-1.225,0.21,0.372,67.112,70.035,33.302
48923520,-1.063,0.174,0.331,72.835,56.455,54.302
48923530,-1.03,0.23,0.319,81.637,56.087,77.14
48923540,-1.001,0.316,0.313,86.625,66.727,89.32
48923550,-0.988,0.394,0.314,85.977,79.59,91.14
48923560,-1.053,0.471,0.385,80.115,89.967,88.462
48923570,-1.134,0.433,0.381,64.697,88.165,79.975
48923580,-1.131,0.339,0.34,50.19,78.452,66.675
48923590,-1.091,0.278,0.292,43.365,63.875,53.165
48923600,-1.034,0.293,0.256,41.72,49.49,41.492
48923610,-0.994,0.347,0.263,42.927,34.002,34.667
48923620,-0.942,0.382,0.2,45.185,18.392,33.197
48923630,-0.839,0.456,0.189,44.94,7.63,33.792
48923640,-0.85,0.462,0.158,37.432,4.357,35.14
48923640,-0.856,0.46,0.162,30.17,4.427,33.337
48923660,-0.888,0.402,0.156,20.947,2.625,26.74
48923660,-0.877,0.391,0.151,11.62,-0.962,17.517
48923670,-0.85,0.371,0.153,3.622,-3.745,9.24
48923680,-0.856,0.351,0.171,-0.35,-3.342,4.095
48923690,-0.889,0.354,0.201,-1.75,-3.307,1.085
48923700,-0.904,0.322,0.249,0.385,-5.337,1.977
48923710,-0.939,0.257,0.276,7.945,-9.94,8.68
48923720,-0.986,0.295,0.219,19.075,-15.977,13.037
48923730,-1.179,0.319,0.278,27.72,-30.712,22.645
48923740,-1.223,0.236,0.237,37.695,-69.947,25.847
48923750,-0.834,0.361,0.111,54.74,-107.275,32.147
48923760,-1.029,0.365,0.191,70.332,-119.84,60.707
48923770,-1.093,0.258,0.183,78.225,-137.602,71.557
48923780,-0.935,0.294,0.128,86.607,-158.917,65.94
48923790,-0.581,0.443,0.059,94.972,-167.807,62.247
48923800,-0.596,0.476,0.053,93.485,-143.71,67.235
48923810,-0.577,0.534,0.148,86.887,-107.415,66.675
48923820,-0.797,0.649,0.236,73.99,-78.172,60.76
48923830,-0.675,0.644,0.182,54.215,-54.81,45.272
48923840,-0.744,0.596,0.192,32.62,-27.44,34.16
48923850,-0.799,0.583,0.196,16.87,-1.365,23.87
48923860,-0.845,0.571,0.211,4.357,15.627,17.482
48923870,-0.818,0.583,0.2,-2.117,25.217,13.527
48923880,-0.899,0.616,0.279,-4.515,29.19,18.077
48923890,-0.767,0.572,0.18,-10.255,27.247,21.315
48923900,-0.895,0.532,0.216,-10.92,29.032,23.747
48923910,-0.835,0.48,0.235,-5.81,22.995,23.065
48923920,-0.826,0.551,0.201,0.455,20.772,18.497
48923930,-0.827,0.576,0.221,3.167,19.74,13.055
48923940,-0.744,0.563,0.183,1.907,25.392,3.5
48923950,-0.762,0.577,0.196,-1.33,33.81,-4.62
48923960,-0.798,0.547,0.208,-5.617,41.055,-8.452
48923970,-0.813,0.543,0.212,-8.312,43.767,-8.907
48923980,-0.842,0.559,0.193,-10.185,45.377,-3.552
48923990,-0.956,0.544,0.218,-12.74,40.215,2.73
48924000,-0.958,0.517,0.231,-15.05,26.425,8.767
48924010,-0.904,0.499,0.222,-13.002,5.985,17.902
48924010,-0.715,0.511,0.216,-4.182,2.17,25.812
48924030,-0.885,0.603,0.265,2.572,7.175,26.46
48924030,-0.859,0.549,0.259,-1.785,5.95,25.112
48924050,-0.804,0.552,0.239,-1.12,5.617,18.392
48924050,-0.856,0.553,0.226,-3.377,7.105,16.082
48924070,-0.876,0.522,0.215,-3.342,6.055,15.785
48924070,-0.926,0.485,0.204,-1.26,-0.735,18.13
48924080,-0.982,0.521,0.184,5.897,-18.27,21.385
48924090,-0.858,0.544,0.164,10.71,-44.205,27.667
48924100,-0.713,0.518,0.183,11.007,-53.812,43.137
48924110,-1.013,0.548,0.303,15.242,-65.187,55.685
48924120,-0.871,0.605,0.289,19.88,-89.827,58.135
48924130,-0.75,0.615,0.193,22.732,-103.74,64.312
48924140,-0.69,0.659,0.235,20.877,-98.822,66.482
48924150,-0.788,0.661,0.233,15.61,-88.427,63.647
48924160,-0.8,0.639,0.262,9.292,-81.147,58.607
48924170,-0.813,0.562,0.249,6.545,-77.455,52.255
48924180,-0.797,0.544,0.249,12.197,-78.75,46.357
48924190,-0.787,0.493,0.267,22.26,-84.087,47.775
48924200,-0.716,0.503,0.263,35.7,-91.14,50.242
48924210,-0.673,0.617,0.289,42.437,-94.272,52.57
48924220,-0.839,0.684,0.345,37.52,-99.365,52.325
48924230,-0.737,0.666,0.367,38.36,-110.477,44.45
48924240,-0.573,0.727,0.368,36.907,-119.77,37.38
48924250,-0.579,0.661,0.335,30.905,-120.295,28.927
48924260,-0.564,0.573,0.327,32.375,-114.765,14
48924270,-0.647,0.539,0.32,42.962,-115.045,1.802
48924280,-0.619,0.556,0.304,59.447,-115.517,-4.112
48924290,-0.498,0.778,0.316,72.765,-109.497,-4.707
48924300,-0.509,0.875,0.354,67.952,-92.855,-1.295
48924310,-0.549,0.831,0.356,53.672,-70.612,-0.612
48924320,-0.501,0.854,0.362,30.94,-43.977,-10.202
48924330,-0.482,0.816,0.307,3.132,-16.24,-25.287
48924330,-0.412,0.722,0.264,-22.347,15.347,-39.532
48924350,-0.432,0.606,0.201,-38.832,46.76,-45.517
48924350,-0.623,0.615,0.222,-45.36,70.297,-43.785
48924370,-0.72,0.641,0.204,-50.33,78.855,-37.345
48924370,-0.813,0.615,0.222,-56.052,80.325,-29.417
48924390,-0.773,0.524,0.191,-56.91,69.65,-23.327
48924390,-0.629,0.542,0.132,-50.96,63.945,-15.61
48924410,-0.778,0.527,0.168,-53.97,67.165,-3.342
48924410,-0.512,0.492,0.15,-56.455,77.525,-9.117
48924420,-0.55,0.574,0.248,-53.882,100.117,-15.4
48924430,-0.745,0.634,0.328,-58.24,115.272,-19.232
48924440,-0.735,0.586,0.354,-66.5,117.057,-29.505
48924450,-0.829,0.527,0.393,-67.9,106.925,-35.612
48924460,-0.843,0.57,0.437,-64.452,86.485,-40.092
48924470,-0.801,0.599,0.442,-59.692,63.332,-40.74
48924480,-0.767,0.569,0.411,-50.89,43.855,-35.875
48924490,-0.651,0.604,0.389,-40.232,34.125,-32.06
48924500,-0.572,0.642,0.339,-34.895,39.777,-31.482
48924510,-0.577,0.685,0.353,-30.66,55.457,-36.382
48924520,-0.625,0.617,0.292,-42.175,75.232,-41.597
48924530,-0.726,0.565,0.261,-47.967,91.367,-49.28
48924540,-0.854,0.51,0.236,-51.065,98.752,-55.615
48924550,-0.897,0.482,0.187,-48.16,95.97,-59.745
48924560,-0.856,0.478,0.143,-44.152,89.145,-60.112
48924570,-0.89,0.471,0.161,-39.847,84.227,-56.175
48924580,-0.922,0.479,0.182,-35.14,77.28,-56.192
48924590,-0.858,0.493,0.211,-34.037,71.4,-63.77
48924600,-0.773,0.447,0.244,-34.965,75.267,-77.332
48924610,-0.905,0.351,0.226,-33.757,86.94,-96.617
48924620,-0.915,0.372,0.217,-29.242,95.585,-123.917
48924630,-0.804,0.507,0.217,-28.227,102.27,-146.79
48924640,-0.838,0.486,0.194,-34.405,111.597,-152.53
48924650,-0.818,0.468,0.153,-43.767,121.642,-152.845
48924660,-0.732,0.54,0.132,-53.882,133.297,-149.467
48924670,-0.743,0.603,0.149,-71.137,144.095,-138.652
48924680,-0.805,0.592,0.149,-94.692,155.435,-126.56
48924690,-0.897,0.447,0.122,-120.522,163.607,-119.157
48924700,-1.031,0.343,0.107,-143.185,165.515,-118.002
48924710,-1.021,0.268,0.065,-159.775,159.267,-115.64
48924720,-1.073,0.066,0.004,-159.127,155.435,-103.53
48924730,-1.398,-0.052,0.008,-142.992,131.88,-89.897
48924740,-1.073,0.023,-0.109,-115.167,98.507,-83.772
48924750,-1.116,0.093,-0.141,-86.17,76.317,-63.07
48924760,-1.106,0.065,-0.204,-64.242,60.13,-46.532
48924760,-1.017,0.04,-0.258,-42.245,48.142,-35.507
48924780,-0.987,0.088,-0.229,-20.912,43.855,-27.545
48924780,-0.963,0.113,-0.23,-8.33,46.06,-20.527
48924800,-0.933,0.181,-0.183,2.45,51.187,-16.625
48924800,-0.972,0.178,-0.193,2.677,58.362,-7.28
48924820,-1.152,0.076,-0.166,5.565,59.867,0.262
48924820,-1.208,0.106,-0.161,12.985,45.097,2.502
48924830,-1.14,0.283,-0.154,13.772,33.722,6.352
48924840,-1.155,0.066,0.104,12.775,22.452,13.072
48924850,-0.993,0.208,-0.273,18.2,14.017,16.065
48924860,-1.081,0.014,-0.093,19.67,9.275,31.062
48924870,-1.104,0.114,-0.097,25.97,5.04,36.522
48924880,-1.098,0.008,-0.092,29.522,-16.065,48.982
48924890,-1.17,0.121,-0.032,41.125,-39.76,52.622
48924900,-1.03,0.176,-0.068,48.23,-63.752,59.465
48924910,-0.793,0.301,-0.107,49.682,-74.515,58.24
48924920,-0.781,0.278,-0.09,43.347,-66.08,59.902
48924930,-0.825,0.251,-0.043,36.085,-51.537,54.53
48924940,-0.926,0.306,0.029,26.652,-43.05,46.095
48924950,-1.08,0.311,0.061,15.347,-48.352,43.032
48924960,-1.019,0.206,0.007,7.542,-61.74,44.572
48924970,-0.903,0.152,-0.057,11.497,-71.242,51.17
48924980,-0.79,0.246,-0.075,18.322,-65.047,60.795
48924990,-0.937,0.294,-0.059,18.392,-49.052,69.51
48925000,-0.915,0.275,-0.031,17.272,-36.435,66.92
48925010,-0.976,0.249,-0.013,13.212,-23.8,59.132
48925020,-1.032,0.284,0.027,7.682,-15.767,48.492
48925030,-1.023,0.303,0.054,-0.875,-14.245,40.81
48925040,-1.062,0.314,0.048,-8.155,-15.435,41.912
48925050,-1.067,0.332,0.048,-9.695,-25.69,45.447
48925060,-0.913,0.381,0,-10.955,-30.817,47.967
48925070,-0.96,0.402,-0.085,-17.605,-28.857,53.27
48925080,-1.037,0.537,-0.077,-30.45,-22.75,57.785
48925080,-1.104,0.218,0.147,-48.265,-31.255,70.297
48925100,-0.785,0.082,0.008,-26.442,-35.227,50.802
48925100,-1.043,0.322,0.123,-5.617,-24.85,32.882
48925120,-1.091,0.33,0.102,0.507,-29.837,28.42
48925120,-1.046,0.239,0.108,8.207,-46.13,29.487
48925140,-1.019,0.268,-0.021,26.757,-65.642,36.207
48925140,-0.99,0.324,-0.11,45.447,-84.892,44.572
48925160,-0.927,0.359,-0.098,49.367,-93.782,52.92
48925160,-0.992,0.412,-0.057,46.83,-100.485,57.732
48925170,-0.735,0.508,-0.177,38.36,-96.705,54.197
48925180,-0.661,0.455,-0.149,22.382,-61.635,45.71
48925190,-0.802,0.428,-0.063,4.497,-23.975,35.542
48925200,-0.9,0.368,0.075,-4.935,2.012,28.14
48925210,-0.866,0.324,0.103,-2.187,13.492,17.5
48925220,-0.96,0.353,0.178,6.125,19.092,13.09
48925230,-1.13,0.379,0.23,14.017,8.05,13.405
48925240,-1.155,0.357,0.249,28.297,-19.547,11.55
48925250,-0.974,0.396,0.129,47.722,-47.407,7.927
48925260,-0.874,0.384,0.088,70.962,-61.022,11.935
48925270,-0.839,0.395,0.051,94.867,-65.047,16.835
48925280,-0.764,0.511,0.051,115.027,-62.142,21.297
48925290,-0.814,0.542,0.052,119.455,-56.402,26.46
48925300,-0.8,0.505,0.024,117.757,-49.245,25.025
48925310,-0.825,0.466,0.008,116.585,-41.86,27.457
48925320,-1.155,0.262,0.024,124.915,-51.432,40.075
48925330,-1.152,0.278,0.043,150.29,-88.777,58.222
48925340,-0.969,0.529,0.037,181.317,-123.357,88.077
48925350,-1.009,0.678,0.058,183.277,-148.295,116.62
48925360,-0.901,0.633,0.031,173.092,-160.947,134.767
48925370,-0.719,0.624,0.037,162.242,-158.882,144.182
48925380,-0.67,0.671,0.071,155.837,-145.477,154.945
48925390,-0.688,0.723,0.118,149.222,-129.832,160.79
48925400,-0.693,0.776,0.13,135.292,-114.94,158.13
48925410,-0.669,0.85,0.13,112.262,-100.817,148.68
48925420,-0.54,0.867,0.092,82.005,-81.917,133.577
48925430,-0.464,0.757,0.104,54.897,-54.687,113.19
48925440,-0.596,0.661,0.134,37.625,-30.537,85.785
48925450,-0.539,0.786,0.147,31.447,-17.955,56.49
48925460,-0.614,0.736,0.168,22.382,-9.432,36.907
48925470,-0.69,0.701,0.161,19.565,-9.887,20.51
48925480,-0.654,0.76,0.159,24.22,-15.172,10.01
48925490,-0.613,0.737,0.127,26.687,-16.485,4.252
48925500,-0.581,0.737,0.099,27.72,-11.917,0.822
48925510,-0.594,0.773,0.101,25.882,-2.327,-4.375
48925510,-0.795,0.71,0.115,17.377,6.685,-11.515
48925530,-0.312,0.843,0.097,15.837,3.167,-32.76
48925530,-0.46,0.865,0.121,7.157,33.635,-32.76
48925550,-0.739,0.806,0.09,-9.082,60.077,-27.3
48925550,-0.62,0.737,0.131,-4.34,65.415,-28.227
48925570,-0.672,0.811,0.11,-10.605,65.415,-24.255
48925570,-0.631,0.863,0.092,-14.437,66.15,-17.027
48925580,-0.668,0.897,0.066,-23.432,67.9,-11.322
48925590,-0.717,0.887,0.017,-38.22,68.862,-6.755
48925600,-0.773,0.777,-0.041,-55.142,68.18,-3.447
48925610,-0.856,0.698,-0.061,-69.457,62.965,-3.08
48925620,-0.949,0.51,-0.069,-80.657,50.155,-10.307
48925630,-0.71,0.128,0.008,-73.482,42.035,-23.187
48925640,-0.877,0.57,0.176,-41.072,41.545,-35.07
48925650,-0.876,0.893,0.176,-27.615,27.055,-40.915
48925660,-0.617,0.851,0.197,-38.01,21.49,-36.61
48925670,-0.893,0.705,0.076,-40.775,22.645,-29.662
48925680,-0.798,0.625,0.133,-40.845,13.16,-21.805
48925690,-0.804,0.693,-0.09,-40.18,8.75,-19.652
48925700,-0.71,0.454,-0.033,-48.002,11.567,-17.762
48925710,-0.933,0.434,-0.031,-44.52,13.212,-7.84
48925720,-0.83,0.609,-0.011,-34.58,-0.402,-6.702
48925730,-0.838,0.593,0.053,-33.705,-8.522,2.327
48925740,-0.784,0.651,0.086,-31.622,-17.377,6.667
48925750,-0.707,0.706,0.143,-29.575,-19.95,8.417
48925760,-0.659,0.722,0.137,-30.66,-15.627,6.562
48925770,-0.621,0.724,0.115,-32.007,-7.21,1.47
48925780,-0.615,0.689,0.085,-35.63,6.335,-2.817
48925790,-0.66,0.702,0.117,-38.325,18.655,-6.02
48925800,-0.686,0.703,0.141,-43.977,26.582,-6.545
48925810,-0.681,0.727,0.17,-48.615,30.852,-6.982
48925820,-0.697,0.713,0.174,-54.81,35.665,-5.46
48925830,-0.705,0.676,0.178,-58.782,41.475,-6.597
48925830,-0.753,0.647,0.17,-61.267,47.495,-13.002
48925850,-0.757,0.645,0.142,-63.56,50.435,-23.152
48925850,-0.743,0.583,0.103,-64.925,51.555,-33.162
48925870,-0.665,0.547,0.055,-60.007,53.165,-37.992
48925870,-0.717,0.549,0.046,-49.945,57.067,-34.702
48925890,-0.785,0.54,0.049,-38.955,56.7,-29.557
48925890,-0.804,0.506,0.044,-27.807,50.592,-25.375
48925910,-0.789,0.544,0.033,-13.265,41.387,-22.452
48925910,-0.765,0.588,0.036,-2.117,34.685,-21.525
48925920,-0.633,0.602,0.04,5.477,35.787,-24.272
48925930,-0.708,0.66,0.038,8.942,50.942,-21.682
48925940,-0.802,0.642,0.069,5.775,63.472,-24.832
48925950,-1.023,0.676,0.188,2.327,63.052,-28.315
48925960,-0.931,0.623,0.056,-4.48,35.122,-28.49
48925970,-0.717,0.67,-0.026,-7.962,19.355,-24.342
48925980,-0.795,0.574,-0.092,-17.587,17.132,-14.647
48925990,-0.75,0.552,-0.1,-24.01,18.112,-11.672
48926000,-0.761,0.5,-0.094,-28.035,22.557,-10.255
48926010,-0.822,0.433,-0.065,-28.035,23.467,-8.102
48926020,-0.79,0.491,-0.03,-22.96,25.445,-8.47
48926030,-0.824,0.583,0.009,-19.652,25.935,-5.46
48926040,-0.813,0.6,0.037,-14.227,27.562,-0.577
48926050,-0.794,0.569,0.015,-10.027,31.535,4.095
48926060,-0.798,0.593,0,-4.865,39.567,7.997
48926070,-0.792,0.598,-0.034,-2.835,50.295,7.717
48926080,-0.767,0.587,-0.072,-1.785,63.122,4.672
48926090,-0.717,0.579,-0.124,-0.7,78.085,1.33
48926100,-0.724,0.571,-0.155,0.122,95.165,-0.612
48926110,-0.823,0.534,-0.138,2.24,103.547,-4.27
48926120,-0.709,0.516,-0.156,4.987,103.512,-8.435
48926130,-0.814,0.525,-0.111,7.367,107.625,-8.575
48926140,-0.89,0.589,-0.069,9.345,103.985,-9.957
48926150,-0.871,0.633,-0.044,7.927,95.76,-11.917
48926160,-0.924,0.618,-0.009,5.11,89.775,-10.797
48926170,-0.958,0.616,0.005,5.25,82.74,-12.39
48926180,-0.969,0.625,0.003,5.74,72.852,-14.402
48926190,-0.935,0.63,-0.013,5.285,60.305,-14.455
48926200,-0.928,0.625,-0.037,3.325,48.877,-13.86
48926210,-0.912,0.602,-0.034,-0.647,36.82,-13.755
48926220,-0.849,0.559,-0.061,-3.517,29.312,-14.227
48926230,-0.803,0.565,-0.086,-3.43,30.59,-16.292
48926240,-0.835,0.605,-0.103,-5.337,35.192,-18.007
48926250,-0.846,0.569,-0.14,-10.15,38.325,-19.915
48926260,-0.881,0.572,-0.151,-12.985,38.15,-21.805
48926260,-0.924,0.619,-0.145,-16.747,32.095,-22.365
48926280,-0.986,0.591,-0.174,-21.997,19.81,-20.475
48926280,-0.952,0.563,-0.182,-24.885,4.48,-18.182
48926300,-0.859,0.634,-0.167,-25.322,-4.672,-15.855
48926300,-0.899,0.632,-0.145,-30.117,-5.11,-15.085
48926310,-0.911,0.626,-0.084,-37.52,-1.137,-19.25
48926320,-0.941,0.639,-0.037,-44.572,2.38,-24.64
48926330,-0.981,0.647,-0.021,-51.852,0.892,-28.21
48926340,-0.85,0.617,-0.053,-59.325,-2.065,-33.32
48926350,-0.739,0.607,-0.099,-66.692,2.572,-35.052
48926360,-0.696,0.594,-0.105,-73.395,14.105,-36.925
48926370,-0.57,0.543,-0.149,-80.027,31.57,-41.965
48926380,-0.722,0.422,-0.216,-81.585,48.807,-48.807
48926390,-0.966,0.236,-0.198,-74.812,40.53,-46.34
48926400,-0.879,0.266,-0.223,-55.265,14.752,-40.565
48926410,-0.646,0.419,-0.172,-39.9,1.26,-33.407
48926420,-0.84,0.493,-0.181,-35.682,-4.287,-27.755
48926430,-0.401,0.448,-0.222,-33.6,4.882,-20.422
48926440,-0.757,0.357,-0.235,-33.075,25.357,-9.975
48926450,-0.575,0.435,-0.267,-33.11,45.36,-24.342
48926460,-0.563,0.429,-0.274,-36.19,68.897,-36.487
48926470,-0.672,0.389,-0.327,-37.152,87.36,-42.455
48926480,-0.989,0.245,-0.35,-29.312,89.285,-34.405
48926490,-1.21,0.26,-0.284,-14.402,66.045,-22.137
48926500,-1.334,0.388,-0.217,-3.22,36.522,-13.667
48926510,-1.543,0.393,-0.171,4.077,4.882,-7.402
48926520,-1.487,0.491,-0.137,10.237,-32.287,1.26
48926530,-1.174,0.538,-0.187,13.842,-63.735,16.24
48926540,-0.918,0.53,-0.224,15.68,-74.812,28
48926550,-0.811,0.489,-0.212,16.922,-74.2,31.675
48926560,-0.848,0.433,-0.187,15.925,-75.267,28.595
48926570,-0.885,0.443,-0.169,15.995,-85.067,25.077
48926580,-0.986,0.453,-0.142,12.302,-99.225,22.925
48926580,-1.08,0.386,-0.153,5.88,-116.34,23.012
48926600,-0.935,0.362,-0.213,3.832,-125.965,22.382
48926600,-0.854,0.353,-0.236,3.552,-121.327,16.992
48926620,-0.901,0.294,-0.195,2.765,-113.627,13.79
48926620,-1.01,0.271,-0.161,4.445,-113.452,14.735
48926640,-1.183,0.176,-0.16,10.447,-124.18,16.362
48926640,-1.299,0.113,-0.185,27.667,-149.537,17.395
48926660,-1.329,0.179,-0.171,52.885,-183.382,29.032
48926660,-1.466,0.174,-0.154,73.237,-216.51,48.842
48926670,-1.446,0.298,-0.111,94.605,-247.765,65.555
48926680,-1.284,0.484,-0.084,109.69,-275.52,87.132
48926690,-1.164,0.592,-0.04,118.177,-295.505,112.717
48926700,-1.179,0.638,0,117.547,-311.342,130.007
48926710,-1.003,0.746,0.021,112.875,-324.59,127.382
48926720,-0.828,0.835,0.019,102.865,-328.615,125.58
48926730,-0.68,0.749,0.061,89.057,-330.015,127.715
48926740,-0.468,0.779,0.04,83.142,-329.63,138.022
48926750,-0.279,0.83,0.166,72.345,-330.522,156.45
48926760,-0.214,0.866,0.154,52.815,-329.542,186.515
48926770,0.03,1.199,0.232,36.575,-326.375,202.317
48926780,0.289,1.296,0.333,9.047,-305.585,213.01
48926790,0.46,1.299,0.42,-22.312,-275.555,220.272
48926800,0.722,1.358,0.502,-53.48,-227.325,209.125
48926810,0.85,1.312,0.576,-81.585,-161.56,178.395
48926820,0.804,1.198,0.614,-101.902,-88.06,126.542
48926830,0.623,1.079,0.658,-110.145,-22.312,63.14
48926840,0.468,0.921,0.702,-107.765,27.632,-0.997
48926850,0.233,0.68,0.814,-92.225,61.075,-49.7
48926860,0.131,0.631,0.796,-53.322,74.655,-81.655
48926870,0.017,0.867,0.86,-19.88,65.957,-105.805
48926880,-0.111,0.925,0.834,-7.385,49.56,-118.597
48926890,-0.22,0.852,0.763,-0.805,30.87,-129.85
48926900,-0.309,0.762,0.637,2.1,11.357,-135.31
48926910,-0.391,0.699,0.534,5.495,-9.817,-135.222
48926920,-0.45,0.669,0.46,4.637,-29.295,-136.92
48926930,-0.483,0.646,0.364,0.087,-45.57,-142.362
48926940,-0.455,0.678,0.327,-6.23,-54.302,-151.182
48926950,-0.441,0.705,0.303,-29.05,-54.512,-157.43
48926960,-0.472,0.681,0.296,-59.605,-49.752,-159.18
48926970,-0.496,0.637,0.303,-84.7,-44.975,-159.845
48926980,-0.51,0.592,0.324,-103.25,-40.985,-158.445
48926980,-0.511,0.601,0.38,-121.677,-39.795,-157.867
48927000,-0.564,0.547,0.409,-143.727,-39.882,-152.477
48927000,-0.633,0.471,0.451,-159.81,-43.347,-144.97
48927010,-0.693,0.409,0.476,-175.49,-50.4,-145.215
48927020,-0.723,0.285,0.416,-191.292,-56.91,-150.412
48927030,-0.81,0.224,0.557,-188.09,-63.472,-154.122
48927040,-0.625,0.351,0.461,-227.85,-65.38,-195.877
48927050,-0.722,0.143,0.433,-236.547,-63.297,-197.557
48927060,-0.771,0.079,0.493,-218.942,-66.167,-179.34
48927070,-0.744,0.084,0.479,-210.315,-74.13,-157.29
48927080,-0.722,0.059,0.49,-200.112,-79.66,-135.555
48927090,-0.736,0.012,0.509,-191.45,-83.212,-114.152
48927100,-0.721,-0.007,0.525,-182.262,-86.275,-89.512
48927110,-0.658,-0.039,0.518,-180.232,-82.985,-64.837
48927120,-0.598,-0.104,0.521,-187.442,-65.975,-44.362
48927130,-0.628,-0.255,0.523,-189.84,-41.545,-25.725
48927140,-0.684,-0.316,0.594,-168.77,-19.162,-15.347
48927150,-0.795,-0.297,0.686,-137.812,-7.787,-7.14
48927160,-0.906,-0.255,0.789,-99.417,-10.675,2.1
48927170,-0.94,-0.193,0.88,-61.81,-27.93,4.497
48927180,-0.905,-0.128,0.929,-34.405,-51.555,1.802
48927190,-0.826,-0.071,0.946,-16.345,-73.045,-1.907
48927200,-0.729,-0.016,0.944,-8.54,-84.035,-5.915
48927210,-0.635,0.025,0.931,-9.362,-82.652,-10.342
48927220,-0.622,0.015,0.94,-15.627,-70.857,-13.51
48927230,-0.666,-0.04,0.93,-21.175,-57.347,-10.062
48927240,-0.681,-0.064,0.908,-22.557,-46.742,-9.467
48927250,-0.747,-0.044,0.92,-21.087,-43.82,-6.265
48927260,-0.819,-0.035,0.929,-24.045,-51.8,-3.535
48927270,-0.832,-0.024,0.913,-29.575,-71.19,1.102
48927280,-0.784,-0.02,0.863,-38.255,-95.077,9.835
48927290,-0.67,-0.036,0.794,-48.947,-116.112,21.42
48927300,-0.53,-0.068,0.727,-57.715,-126.28,33.46
48927310,-0.391,-0.082,0.695,-63.735,-124.145,42.227
48927320,-0.314,-0.055,0.715,-72.397,-112.595,51.887
48927330,-0.321,-0.085,0.739,-82.687,-100.502,66.937
48927330,-0.313,-0.092,0.781,-95.515,-91.245,76.772
48927350,-0.329,-0.129,0.785,-106.47,-90.195,87.517
48927350,-0.306,-0.192,0.755,-114.45,-92.277,97.79
48927370,-0.32,-0.256,0.812,-117.267,-94.937,105.787
48927370,-0.457,-0.414,0.855,-112.7,-106.907,112.262
48927390,-0.509,-0.57,0.845,-91.332,-127.907,104.79
48927390,-0.38,-0.543,0.868,-63.35,-141.96,77.595
48927410,-0.271,-0.473,0.919,-37.187,-146.072,49.717
48927410,-0.06,-0.363,0.903,-19.127,-137.007,26.915
48927420,0.103,-0.316,0.882,-14.822,-111.667,13.702
48927430,0.075,-0.349,0.871,-12.792,-76.212,11.935
48927440,-0.016,-0.483,0.904,-1.995,-42.227,17.255
48927450,-0.159,-0.622,0.941,22.68,-16.205,23.38
48927460,-0.344,-0.603,1.038,53.427,-11.06,22.68
48927470,-0.448,-0.381,1.144,74.567,-24.797,13.23
48927480,-0.541,-0.224,1.187,69.772,-56.787,0.717
48927490,-0.478,-0.255,1.101,57.977,-95.725,-7.717
48927500,-0.246,-0.354,0.968,54.057,-124.057,-12.057
48927510,-0.105,-0.373,0.891,59.43,-134.417,-12.512
48927520,-0.042,-0.296,0.881,64.697,-130.76,-17.622
48927530,-0.013,-0.158,0.918,67.847,-122.395,-18.707
48927540,-0.004,-0.083,0.929,58.275,-114.677,-11.462
48927550,0.027,-0.112,0.906,41.877,-106.522,-2.695
48927560,0.092,-0.138,0.902,29.225,-92.277,1.977
48927570,0.057,-0.119,0.92,19.232,-77.91,4.112
48927580,0.056,0.004,0.888,10.202,-66.185,-0.227
48927590,-0.033,-0.08,0.997,-9.975,-65.59,-2.957
48927600,0.207,-0.33,0.92,-23.187,-59.01,-6.125
48927610,0.287,-0.205,1.061,1.4,-39.935,-20.37
48927620,0.119,-0.041,1.189,0.805,-31.045,-27.895
48927630,0.21,-0.043,1.113,-21.77,-27.667,-36.855
48927640,0.176,-0.113,1.092,-35.227,-22.417,-38.745
48927650,0.094,-0.126,1.042,-38.377,-24.307,-34.072
48927660,0.133,-0.072,1.047,-36.155,-26.635,-27.002
48927670,0.069,-0.103,1.008,-41.37,-32.392,-18.06
48927670,0.113,-0.141,0.921,-47.372,-34.405,-16.975
48927690,0.087,-0.165,0.868,-48.685,-36.522,-16.677
48927690,0.136,-0.154,0.799,-45.01,-42.035,-17.132
48927710,0.276,-0.185,0.747,-34.492,-35.612,-13.527
48927710,0.198,-0.206,0.78,-21.14,-22.557,-8.33
48927730,0.147,-0.131,0.829,-13.527,-13.667,-9.012
48927730,0.111,-0.09,0.89,-14.192,-11.375,-8.032
48927750,0.152,-0.094,0.879,-19.145,-14.63,-5.652
48927750,0.228,-0.144,0.882,-19.477,-11.97,-1.382
48927760,0.231,-0.194,0.865,-12.827,-3.167,3.185
48927770,0.21,-0.168,0.897,-0.77,7.787,4.322
48927780,0.194,-0.114,0.945,5.74,18.077,7.367
48927790,0.124,-0.129,0.94,4.567,25.41,12.162
48927800,0.122,-0.098,0.96,5.495,34.615,11.34
48927810,-0.05,-0.078,1.043,2.1,33.915,10.272
48927820,-0.027,-0.175,1.088,-13.072,16.765,7.507
48927830,0.133,-0.197,1.038,-12.617,14.227,-4.077
48927840,0.072,-0.192,1.099,-8.19,13.58,-8.785
48927850,-0.005,-0.185,1.083,-5.267,10.85,-7.367
48927860,0.039,-0.219,1.084,9.345,3.622,-3.867
48927870,0.036,-0.202,1.092,18.97,-2.082,0.875
48927880,0.04,-0.178,1.082,21.752,-7.245,1.995
48927890,0.053,-0.188,1.043,20.107,-8.417,0.752
48927900,-0.031,-0.195,0.992,15.067,-10.342,-4.357
48927910,-0.087,-0.183,0.956,14.052,-20.002,-13.142
48927920,-0.063,-0.174,0.894,17.027,-32.9,-15.505
48927930,-0.028,-0.141,0.87,21.717,-41.772,-14.035
48927940,-0.019,-0.099,0.899,20.23,-47.022,-11.392
48927950,0.131,-0.124,0.86,15.645,-41.825,-8.225
48927960,0.149,-0.121,0.877,13.44,-24.78,-4.042
48927970,0.062,-0.075,0.958,9.065,-11.445,1.452
48927980,0.069,-0.108,0.982,2.957,-4.13,8.837
48927990,0.107,-0.17,0.941,5.005,1.12,11.83
48928000,0.097,-0.124,0.98,12.862,6.65,11.952
48928010,0.025,-0.1,0.999,11.847,5.285,12.442
48928020,0.013,-0.065,0.975,6.877,1.015,5.862
48928030,-0.065,-0.066,1.112,-4.13,-17.657,1.925
48928040,0.103,-0.134,0.962,-17.272,-27.965,1.68
48928050,0.299,-0.136,1.004,-4.55,-22.942,-5.967
48928060,0.263,-0.072,1.033,-4.41,-10.43,-5.39
48928070,0.283,-0.081,0.997,-9.117,0.962,-3.78
48928080,0.371,-0.055,0.966,-6.107,16.012,-2.66
48928080,0.471,0.044,0.939,-3.29,35.525,5.46
48928100,0.453,0.082,0.915,-8.12,61.845,14.385
48928100,0.387,0.077,0.91,-23.292,93.292,17.64
48928120,0.2,-0.022,0.92,-46.165,118.055,15.242
48928120,-0.006,-0.183,0.898,-61.862,124.145,0.122
48928140,-0.03,-0.257,0.865,-56.245,115.692,-16.432
48928140,-0.087,-0.245,0.884,-36.89,99.61,-23.537
48928160,-0.133,-0.181,0.899,-18.62,78.207,-28.84
48928160,-0.035,-0.122,0.898,-4.655,60.375,-31.867
48928170,0.075,-0.094,0.925,1.242,56.63,-28.997
48928180,0.078,-0.066,0.966,-6.807,64.837,-24.78
48928190,0.035,-0.047,1.001,-25.742,78.505,-19.897
48928200,0.058,-0.069,0.992,-45.237,95.935,-12.722
48928210,-0.026,-0.145,0.984,-61.967,113.855,-1.54
48928220,-0.253,-0.285,0.982,-69.09,121.8,7
48928230,-0.409,-0.428,0.966,-61.757,111.457,7.507
48928240,-0.446,-0.509,0.951,-42.315,91.105,8.592
48928250,-0.486,-0.508,0.962,-16.38,69.545,12.075
48928260,-0.523,-0.464,0.979,4.952,48.317,14.84
48928270,-0.512,-0.439,0.958,19.862,26.547,16.012
48928280,-0.433,-0.408,0.925,34.195,8.47,17.902
48928290,-0.399,-0.379,0.924,46.27,-5.512,24.867
48928300,-0.408,-0.361,0.927,57.312,-18.567,31.517
48928310,-0.395,-0.353,0.926,72.852,-33.722,35.332
48928320,-0.38,-0.298,0.921,86.922,-50.05,38.745
48928330,-0.368,-0.216,0.946,90.457,-67.27,41.51
48928340,-0.283,-0.174,0.95,90.702,-78.347,41.895
48928350,-0.189,-0.089,0.959,89.127,-82.442,37.73
48928360,-0.132,0.013,0.996,74.06,-83.072,33.46
48928370,-0.002,0.039,1.001,50.68,-75.39,30.73
48928380,0.092,0.013,1.019,34.107,-57.26,28.122
48928390,0.067,0.011,1.035,24.71,-37.677,27.422
48928400,0.01,-0.003,1.054,17.937,-23.607,27.387
48928410,-0.024,0.003,1.064,14.42,-16.887,26.46
48928420,-0.089,0.015,1.058,8.522,-16.642,26.11
48928420,-0.096,-0.007,1.024,1.575,-20.667,23.117
48928440,-0.073,-0.053,0.98,-0.402,-24.955,17.745
48928440,-0.052,-0.081,0.95,1.452,-27.247,11.672
48928460,-0.062,-0.095,0.93,6.58,-28.542,9.31
48928460,-0.077,-0.069,0.937,14.175,-30.747,9.362
48928480,-0.092,-0.037,0.951,18.602,-34.142,10.167
48928480,-0.09,-0.043,0.939,18.637,-39.427,9.38
48928500,-0.032,-0.051,0.92,16.485,-42.297,7.472
48928500,0.001,-0.061,0.902,14.315,-40.127,6.632
48928510,0.012,-0.08,0.897,13.825,-33.74,6.86
48928520,0.006,-0.071,0.94,16.782,-28.245,9.887
48928530,-0.01,-0.051,0.999,19.407,-26.39,15.995
48928540,0.031,-0.037,1.021,22.505,-26.442,21.262
48928550,0.037,-0.01,1.037,24.692,-25.287,27.037
48928560,0.044,-0.001,1.045,20.475,-23.467,31.92
48928570,0.08,-0.026,1.016,14.77,-18.182,32.655
48928580,0.097,-0.047,0.993,13.195,-8.715,31.447
48928590,0.074,-0.048,0.971,13.317,1.82,30.222
48928600,0.082,-0.051,0.968,13.755,12.407,28.105
48928610,0.042,-0.099,0.977,17.482,20.685,29.907
48928620,-0.012,-0.127,0.989,27.492,25.637,31.71
48928630,-0.059,-0.106,1.041,39.917,25.462,33.74
48928640,-0.08,-0.084,1.07,49.717,21.35,35.752
48928650,-0.096,-0.037,1.097,56.052,15.645,32.795
48928660,-0.095,0.01,1.102,54.687,10.22,25.725
48928670,-0.06,0.027,1.078,49.857,5.845,18.917
48928680,-0.031,0.05,1.06,46.532,6.107,15.697
48928690,0.005,0.098,1.046,43.365,10.36,14.455
48928700,0.031,0.127,1.039,35.84,19.635,15.12
48928710,0.006,0.118,1.028,23.975,32.34,15.61
48928720,-0.016,0.099,1.02,12.565,45.972,14.98
48928730,-0.05,0.077,0.996,4.34,56.945,15.435
48928740,-0.094,0.046,0.979,-0.822,65.52,16.642
48928750,-0.157,-0.035,0.97,-2.607,70.28,17.22
48928760,-0.219,-0.101,0.975,2.922,71.907,17.062
48928770,-0.275,-0.101,1.003,14.875,68.39,19.022
48928780,-0.301,-0.098,1.025,27.492,63.682,21.28
48928790,-0.287,-0.1,1.021,38.202,61.092,23.187
48928800,-0.263,-0.065,1.032,46.2,66.972,26.18
48928810,-0.236,-0.014,1.026,47.582,81.935,27.842
48928820,-0.198,0.026,1.002,40.565,108.64,28.84
48928830,-0.194,0.07,0.959,28.875,143.99,32.2
48928830,-0.197,0.104,0.904,14.857,185.92,36.557
48928850,-0.216,0.1,0.825,-3.465,229.215,39.165
48928850,-0.315,0.074,0.762,-20.965,269.062,44.012
48928870,-0.47,0.044,0.736,-31.535,296.415,51.765
48928870,-0.557,0.06,0.704,-37.082,309.89,58.292
48928890,-0.639,0.062,0.699,-43.382,311.272,63.14
48928890,-0.688,0.029,0.657,-49.35,303.117,66.132
48928910,-0.678,0.018,0.619,-47.372,289.31,67.515
48928910,-0.674,0.015,0.586,-45.832,274.295,68.512
48928920,-0.681,-0.015,0.54,-43.032,257.11,68.722
48928930,-0.701,-0.039,0.536,-32.462,238.122,69.457
48928940,-0.734,-0.023,0.537,-18.06,214.392,69.72
48928950,-0.793,0.015,0.584,-2.782,186.322,66.99
48928960,-0.829,0.059,0.625,9.52,152.197,62.965
48928970,-0.843,0.088,0.66,20.965,113.575,57.505
48928980,-0.835,0.13,0.706,31.71,73.605,53.252
48928990,-0.801,0.193,0.745,40.617,34.247,50.26
48929000,-0.744,0.247,0.753,45.167,1.592,50.102
48929010,-0.681,0.271,0.749,47.267,-22.557,50.557
48929020,-0.636,0.245,0.691,45.395,-37.17,51.502
48929030,-0.586,0.277,0.761,49.367,-40.617,48.44
48929040,-0.522,0.291,0.731,43.592,-36.05,36.452
48929050,-0.597,0.332,0.823,48.072,-30.8,25.9
48929060,-0.579,0.276,0.856,43.487,-25.987,11.707
48929070,-0.55,0.269,0.853,49.437,-20.912,-5.967
48929080,-0.524,0.358,0.906,56.7,-12.32,-18.567
48929090,-0.584,0.391,0.871,52.202,-5.722,-25.585
48929100,-0.517,0.423,0.81,45.5,1.33,-32.812
48929110,-0.494,0.436,0.784,33.337,12.25,-37.905
48929120,-0.597,0.341,0.72,14.157,20.562,-41.807
48929130,-0.555,0.273,0.656,6.475,31.377,-41.755
48929140,-0.585,0.3,0.666,12.267,42.857,-39.462
48929150,-0.582,0.275,0.638,8.19,54.775,-37.52
48929160,-0.557,0.309,0.64,9.94,74.06,-33.81
48929170,-0.663,0.351,0.655,5.985,92.032,-30.782
48929170,-0.719,0.362,0.642,-6.072,106.312,-28.787
48929190,-0.749,0.293,0.609,-16.782,115.08,-25.235
48929190,-0.756,0.213,0.511,-19.915,120.487,-17.867
48929210,-0.772,0.173,0.481,-14.157,124.267,-7.402
48929210,-0.868,0.193,0.512,-7.525,128.52,3.78
48929230,-0.982,0.278,0.566,-1.382,122.272,11.847
48929230,-1.069,0.319,0.612,-4.06,106.05,17.027
48929250,-1.09,0.281,0.592,-15.382,79.432,16.782
48929250,-1.004,0.169,0.499,-23.292,53.147,11.69
48929260,-0.815,0.059,0.384,-23.38,37.17,4.41
48929270,-0.819,0.097,0.395,-11.305,36.155,-2.135
48929280,-0.846,0.168,0.408,-6.58,37.275,-11.532
48929290,-0.865,0.155,0.418,-7.017,38.325,-18.55
48929300,-0.872,0.112,0.372,-12.372,38.377,-26.022
48929310,-0.823,0.132,0.378,-10.377,41.247,-33.74
48929320,-0.688,0.121,0.347,-11.06,54.25,-37.922
48929330,-0.78,0.118,0.377,-13.597,78.435,-37.222
48929340,-1.031,0.109,0.424,-15.085,90.562,-33.67
48929350,-1.063,0.1,0.441,-14.507,82.862,-31.57
48929360,-1.028,0.134,0.433,-12.39,68.215,-23.87
48929370,-0.931,0.138,0.407,-12.757,56.682,-16.59
48929380,-0.941,0.096,0.372,-11.795,53.322,-12.81
48929390,-0.885,0.166,0.332,-8.575,49.297,-11.34
48929400,-0.877,0.268,0.287,-7.07,53.532,-4.305
48929410,-1.016,0.206,0.267,-23.975,57.697,1.155
48929420,-0.865,0.015,0.148,-38.482,58.467,0.542
48929430,-0.853,0.016,0.165,-30.922,65.187,2.677
48929440,-1.061,-0.05,0.351,-27.107,71.75,5.092
48929450,-1.1,0.01,0.415,-12.547,55.3,5.46
48929460,-1.171,0.148,0.542,13.405,29.155,18.847
48929470,-1.15,0.231,0.534,11.987,1.645,17.01
48929480,-1.173,0.173,0.497,3.43,-29.662,20.492
48929490,-1.117,0.229,0.448,6.09,-67.742,36.33
48929500,-0.957,0.249,0.392,5.18,-96.827,46.777
48929510,-0.727,0.222,0.285,-3.885,-99.925,39.882
48929520,-0.659,0.152,0.279,-8.137,-78.172,24.92
48929530,-0.581,0.142,0.278,-11.112,-45.517,9.065
48929540,-0.81,0.133,0.337,-17.29,-4.83,-6.037
48929550,-0.816,0.242,0.397,-21.805,13.877,-26.95
48929560,-0.963,0.171,0.412,-30.922,24.885,-28.577
48929570,-0.979,0.237,0.41,-39.672,24.762,-34.947
48929580,-0.975,0.099,0.365,-47.582,15.277,-34.405
48929580,-0.775,0.027,0.275,-37.555,11.2,-23.677
48929600,-0.839,0.089,0.321,-20.755,21.017,-15.68
48929600,-0.957,0.143,0.34,-17.78,31.552,-15.96
48929620,-0.983,0.123,0.338,-16.432,36.19,-15.977
48929620,-1.026,0.107,0.315,-20.685,35.507,-5.11
48929640,-1.082,0.036,0.339,-9.415,27.422,0.227
48929640,-1.075,0.111,0.316,-6.37,16.782,2.1
48929650,-1.023,0.156,0.325,-8.085,5.39,3.202
48929660,-0.982,0.143,0.326,-13.65,-0.175,4.585
48929670,-0.904,0.178,0.342,-22.067,0.717,6.422
48929680,-0.9,0.169,0.362,-29.802,5.6,6.807
48929690,-0.842,0.133,0.353,-35.402,15.505,2.975
48929700,-0.798,0.145,0.357,-35.91,30.8,-5.67
48929710,-0.899,0.192,0.398,-33.635,43.435,-10.132
48929720,-0.931,0.168,0.377,-39.375,48.247,-7.542
48929730,-1.02,0.175,0.382,-44.1,43.067,-5.967
48929740,-0.993,0.094,0.373,-46.83,31.692,-4.217
48929750,-1.046,0.074,0.347,-46.952,23.187,-4.287
48929760,-1.041,0.07,0.365,-40.967,10.99,-4.007
48929770,-0.946,-0.006,0.325,-28.56,3.15,0.227
48929780,-0.98,0.084,0.361,-19.967,4.392,0.91
48929790,-0.988,0.067,0.386,-21.175,6.79,2.485
48929800,-1.004,0.064,0.348,-24.762,8.137,1.12
48929810,-1.003,0.194,0.38,-21.245,3.692,2.572
48929820,-0.989,0.188,0.303,-37.537,0.525,2.66
48929830,-0.913,0.105,0.288,-49.332,2.992,0.892
48929840,-0.897,0.133,0.281,-60.62,9.712,-1.382
48929850,-1.122,0.208,0.271,-72.887,12.425,-10.832
48929860,-0.904,0.131,0.248,-96.687,8.4,-26.652
48929870,-0.916,-0.011,0.198,-105.402,11.69,-32.13
48929880,-0.906,-0.095,0.157,-98.035,15.435,-32.287
48929890,-0.899,-0.101,0.139,-81.165,20.037,-30.292
48929900,-0.979,-0.078,0.14,-58.712,19.267,-19.425
48929910,-1.012,-0.022,0.168,-41.982,14.35,-10.797
48929920,-1.066,-0.023,0.226,-37.852,10.885,-7.927
48929920,-1.049,-0.044,0.233,-38.045,6.002,-10.185
48929940,-0.991,-0.042,0.227,-35.402,4.515,-13.195
48929940,-1.017,-0.071,0.234,-29.277,4.935,-9.73
48929960,-1.022,-0.089,0.215,-20.895,3.762,-6.125
48929960,-1.009,-0.071,0.217,-9.38,2.345,-2.222
48929980,-1.036,-0.04,0.205,-3.307,1.4,-0.98
48929980,-0.989,-0.047,0.166,0.822,-0.595,-0.332
48930000,-1.009,-0.014,0.213,6.737,-2.17,3.062
48930000,-0.982,0.044,0.256,9.887,-5.705,7.157
48930010,-0.951,0.077,0.291,7.105,-6.125,12.722
48930020,-0.942,0.039,0.317,-1.277,-2.065,11.392
48930030,-1.006,-0.04,0.308,-5.057,2.292,9.485
48930040,-0.994,-0.005,0.332,2.765,2.835,8.767
48930050,-0.953,0,0.305,7.017,3.43,7.91
48930060,-0.885,-0.024,0.29,13.02,9.87,13.667
48930070,-0.835,-0.024,0.33,22.61,24.185,21.752
48930080,-0.94,-0.069,0.37,34.912,37.31,28.507
48930090,-0.634,0.175,0.204,58.572,47.985,31.885
48930100,-1.26,0.276,0.497,42.385,69.177,43.33
48930110,-1.378,0.241,0.395,-2.94,53.322,13.265
48930120,-1.089,-0.041,0.314,-19.18,14.945,-2.73
48930130,-0.996,0.028,0.245,-17.15,-19.88,-0.945
48930140,-0.995,0.083,0.251,-7.91,-46.532,6.44
48930150,-0.924,0.028,0.165,-5.355,-66.797,9.1
48930160,-0.792,-0.007,0.084,5.775,-75.267,6.965
48930170,-0.637,0.064,0.081,17.552,-63.98,2.1
48930180,-0.712,0.148,0.156,18.147,-37.8,-5.862
48930190,-1.011,0.108,0.249,9.03,-23.887,-3.36
48930200,-1.012,0.063,0.302,8.522,-29.82,-12.635
48930210,-0.984,-0.004,0.332,6.23,-27.947,-19.967
48930220,-1.109,0.023,0.37,0.735,-23.52,-24.307
48930230,-1.175,0.008,0.389,-4.462,-30.485,-29.137
48930240,-0.97,0.019,0.388,-6.685,-33.267,-31.552
48930250,-0.997,0.027,0.36,-6.755,-23.642,-25.567
48930260,-1.033,0.069,0.328,-10.027,-14.805,-25.795
48930270,-0.966,0.002,0.293,-14.455,-4.252,-28.455
48930280,-0.955,-0.043,0.262,-15.47,11.952,-34.09
48930290,-1.065,-0.008,0.21,-9.677,21.28,-36.05
48930300,-0.703,0.236,0.316,2.607,20.79,-39.655
48930310,-1.07,0.047,0.404,-11.147,38.115,-27.72
48930320,-1.134,0.053,0.33,-48.947,42.192,-38.955
48930320,-1.177,-0.071,0.398,-49.402,25.34,-39.987
48930330,-1.087,0.012,0.342,-47.635,6.055,-45.815
48930340,-1.031,0.089,0.364,-53.882,-10.08,-56.542
48930350,-0.812,0.039,0.259,-66.132,-11.62,-62.055
48930360,-0.832,-0.089,0.198,-78.032,2.17,-66.29
48930370,-0.851,-0.165,0.151,-71.172,15.067,-68.74
48930380,-0.924,-0.192,0.141,-46.707,18.235,-59.92
48930390,-1.002,-0.176,0.165,-25.882,16.117,-46.55
48930400,-1.131,-0.231,0.197,-12.582,8.715,-37.975
48930410,-1.156,-0.248,0.332,-0.472,-5.127,-34.947
48930420,-0.785,-0.108,-0.027,7.21,-21.227,-41.912
48930430,-0.83,0.029,0.159,5.705,-7.612,-40.862
48930440,-1.115,-0.034,0.253,-32.55,10.202,-38.92
48930450,-1.088,-0.224,0.28,-50.977,10.622,-38.867
48930460,-1.116,-0.314,0.332,-55.247,3.15,-34.667
48930470,-1.03,-0.261,0.415,-51.625,-0.262,-36.54
48930480,-1.083,-0.278,0.431,-49.822,-2.712,-35.49
48930490,-1.041,-0.326,0.371,-50.277,-8.452,-37.555
48930500,-0.899,-0.373,0.228,-40.67,-10.412,-34.177
48930510,-0.982,-0.365,0.227,-12.127,-10.885,-18.287
48930520,-1.121,-0.308,0.225,14.35,-22.085,0.087
48930530,-1.169,-0.313,0.196,38.692,-46.777,14.542
48930540,-1.196,-0.342,0.189,61.232,-78.89,24.78
48930550,-1.219,-0.352,0.188,83.422,-116.952,26.827
48930560,-1.102,-0.348,0.126,103.197,-152.547,29.82
48930570,-0.93,-0.311,0.125,131.722,-178.132,40.6
48930580,-0.692,-0.106,0.218,154.105,-178.132,48.93
48930590,-0.679,-0.014,0.312,149.835,-158.13,48.702
48930600,-0.725,-0.055,0.376,129.255,-130.532,41.212
48930610,-0.805,-0.078,0.448,114.467,-109.55,29.715
48930620,-0.856,-0.05,0.494,104.755,-98.665,18.13
48930630,-0.931,-0.077,0.518,95.235,-101.027,11.637
48930640,-0.98,-0.129,0.49,93.642,-114.712,11.9
48930650,-1.037,-0.123,0.495,101.01,-138.845,17.78
48930660,-1.094,-0.134,0.514,115.01,-173.88,28.192
48930670,-1.058,-0.096,0.522,131.005,-214.9,36.382
48930670,-1.009,-0.017,0.539,142.992,-257.285,46.165
48930690,-1.048,-0.025,0.52,151.707,-303.852,60.287
48930690,-1.104,-0.127,0.48,165.55,-359.187,82.302
48930710,-1.107,-0.251,0.407,197.12,-425.495,114.45
48930710,-1.086,-0.369,0.316,245.647,-498.102,153.422
48930730,-0.757,-0.182,0.149,310.467,-558.495,189.98
48930730,-0.426,0.307,0.415,346.115,-573.37,230.16
48930750,-0.311,0.602,0.484,312.795,-573.37,272.755
48930750,-0.083,0.615,0.493,263.62,-573.37,285.897
48930760,0.103,0.605,0.458,210.542,-571.287,265.72
48930770,0.405,0.613,0.466,161.14,-532.017,232.102
48930780,0.94,0.743,0.488,121.187,-436.782,197.207
48930790,1.146,0.898,0.669,73.885,-309.907,162.172
48930800,0.784,0.67,0.732,10.202,-199.482,126.315
48930810,0.886,0.765,0.843,-48.912,-121.502,58.152
48930820,0.864,0.721,0.844,-102.112,-55.632,41.265
48930830,0.665,0.525,0.793,-132.755,-9.152,62.755
48930840,0.434,0.42,0.852,-143.937,17.99,79.555
48930850,0.185,0.171,0.854,-147.28,22.487,73.902
48930860,0.045,0.034,0.829,-128.572,-4.252,52.675
48930870,0.159,0.202,0.874,-94.745,-32.952,36.05
48930880,0.257,0.364,0.903,-74.235,-50.067,26.127
48930890,0.296,0.397,0.865,-71.697,-54.495,28.315
48930900,0.317,0.319,0.797,-73.937,-44.957,33.88
48930910,0.361,0.229,0.733,-73.132,-25.952,30.8
48930920,0.343,0.184,0.752,-61.862,3.71,21.245
48930930,0.216,0.226,0.817,-49.542,29.732,8.242
48930940,0.095,0.252,0.876,-46.06,41.352,-1.662
48930950,-0.067,0.232,0.865,-52.605,31.85,-8.942
48930960,-0.207,0.149,0.889,-50.697,4.917,-0.35
48930970,-0.058,0.056,0.84,-39.69,-29.977,16.975
48930980,0.211,0.08,0.839,-13.877,-52.027,28.77
48930990,0.317,0.224,0.912,6.125,-57.82,32.567
48931000,0.273,0.299,0.961,-0.437,-57.067,35.56
48931010,0.228,0.304,0.922,-19.372,-58.03,34.107
48931010,0.283,0.188,0.971,-34.685,-61.915,28.997
48931030,0.343,0.08,0.9,-31.99,-67.375,19.372
48931030,0.501,0.198,0.957,-19.25,-80.185,-0.122
48931050,0.602,0.196,0.907,-24.92,-81.462,-0.875
48931050,0.642,0.139,0.881,-25.06,-69.195,3.185
48931070,0.58,0.168,0.889,-18.812,-49.945,8.837
48931070,0.482,0.152,0.872,-14.752,-32.445,15.942
48931080,0.441,0.152,0.895,-15.172,-19.302,13.23
48931090,0.354,0.242,0.925,-21.962,-9.905,6.93
48931100,0.369,0.289,0.945,-36.032,-8.785,7.525
48931110,0.364,0.24,0.954,-57.067,0.805,15.697
48931120,0.483,0.263,0.955,-73.185,9.485,17.447
48931130,0.562,0.152,0.928,-88.06,20.405,30.45
48931140,0.57,0.081,0.823,-92.33,41.265,43.75
48931150,0.574,0.012,0.791,-85.785,61.88,51.992
48931160,0.405,-0.052,0.813,-68.617,71.295,40.46
48931170,0.368,-0.035,0.866,-56.367,65.712,22.382
48931180,0.344,-0.006,0.901,-40.81,51.397,8.032
48931190,0.381,-0.045,0.841,-22.54,31.57,-3.867
48931200,0.38,-0.089,0.79,4.655,23.117,-10.657
48931210,0.372,-0.042,0.801,39.9,13.947,-18.042
48931220,0.424,-0.022,0.774,67.847,6.807,-24.29
48931230,0.54,0.007,0.757,91.07,17.447,-32.602
48931240,0.559,0.115,0.844,111.965,44.957,-41.982
48931250,0.44,0.244,0.975,112.28,79.485,-50.085
48931260,0.224,0.264,1.004,88.952,110.267,-59.64
48931270,-0.031,0.243,1.056,68.11,119.665,-67.655
48931280,-0.086,0.221,1.119,53.725,107.852,-66.447
48931290,-0.101,0.209,0.95,54.477,92.067,-59.325
48931300,0.081,0.289,1.133,66.08,63.14,-57.382
48931310,0.135,0.236,1,50.312,44.765,-48.86
48931320,0.381,0.132,0.916,43.015,45.587,-53.847
48931330,0.519,0.061,0.689,60.532,61.775,-64.662
48931340,0.768,0.223,0.87,90.002,88.865,-67.34
48931350,0.418,0.294,0.789,88.83,135.117,-54.162
48931360,0.371,0.367,0.942,85.137,167.247,-75.617
48931370,0.3,0.451,0.902,61.092,202.597,-90.387
48931380,0.118,0.458,0.854,29.05,232.452,-99.155
48931390,0.024,0.504,0.899,2.625,254.87,-111.422
48931400,-0.133,0.473,0.896,-30.852,269.29,-118.877
48931410,-0.28,0.35,0.879,-59.01,269.255,-128.187
48931420,-0.353,0.263,0.883,-70.367,257.652,-132.51
48931420,-0.395,0.193,0.872,-65.415,235.13,-122.57
48931440,-0.459,0.152,0.878,-49.787,206.64,-101.552
48931440,-0.475,0.134,0.878,-30.537,173.232,-80.29
48931460,-0.447,0.132,0.863,-8.61,139.37,-57.61
48931460,-0.38,0.198,0.874,12.652,111.982,-38.325
48931480,-0.311,0.257,0.902,23.432,98.945,-27.002
48931480,-0.29,0.276,0.91,20.895,97.352,-26.092
48931500,-0.281,0.224,0.879,13.37,104.282,-29.085
48931500,-0.325,0.159,0.872,10.272,116.235,-31.15
48931510,-0.419,0.168,0.911,11.935,125.177,-31.57
48931520,-0.486,0.158,0.958,14.28,128.765,-28.525
48931530,-0.661,0.283,0.923,21.507,128.17,-27.982
48931540,-0.746,0.403,1.019,14.665,107.642,-25.41
48931550,-0.49,0.34,0.859,-7.98,90.09,-26.197
48931560,-0.27,0.264,0.76,-14.175,89.932,-28.892
48931570,-0.248,0.208,0.717,-17.517,110.005,-29.452
48931580,-0.318,0.172,0.74,-18.515,132.702,-40.092
48931590,-0.224,0.374,0.772,-11.62,150.01,-59.57
48931600,0.041,0.51,0.762,-31.08,193.427,-66.552
48931610,-0.294,0.365,0.709,-74.882,256.322,-68.407
48931620,-0.468,0.261,0.661,-110.617,305.83,-95.025
48931630,-0.556,0.159,0.556,-136.395,335.02,-115.867
48931640,-0.812,0.013,0.509,-148.435,343.542,-121.87
48931650,-1.079,-0.057,0.548,-144.55,322.437,-118.265
48931660,-1.314,-0.134,0.584,-131.18,273.315,-108.85
48931670,-1.195,0.095,0.59,-111.51,208.827,-96.565
48931680,-1.467,-0.504,0.397,-61.95,130.987,-46.165
48931690,-1.076,-0.029,0.593,-1.382,70.437,-73.167
48931700,-0.935,-0.145,0.345,-5.092,38.377,-60.935
48931710,-0.867,-0.032,0.419,28.542,29.627,-58.117
48931720,-0.869,0.049,0.411,35.14,31.535,-52.762
48931730,-0.934,0.115,0.437,37.24,35,-44.922
48931740,-0.991,0.13,0.443,33.565,34.16,-37.345
48931750,-1.1,0.086,0.428,29.347,22.54,-28.28
48931760,-1.114,0.078,0.408,27.615,3.867,-21.017
48931760,-1.104,0.065,0.378,24.517,-17.185,-14.07
48931780,-1.08,0.042,0.33,22.557,-35.91,-3.237
48931780,-0.917,0.051,0.276,22.767,-44.8,4.147
48931800,-0.902,0.065,0.303,21.752,-42.28,9.45
48931800,-1.053,0.076,0.378,15.575,-44.345,10.062
48931820,-1.066,0.077,0.379,11.112,-58.17,7.035
48931820,-1.14,0,0.401,5.652,-80.097,8.067
48931830,-1.135,-0.082,0.334,1.242,-109.865,8.26
48931840,-1.053,-0.191,0.28,6.142,-134.837,18.165
48931850,-0.892,-0.26,0.343,24.29,-148.522,31.57
48931860,-0.904,-0.243,0.473,52.64,-148.172,48.685
48931870,-0.914,-0.194,0.707,81.725,-148.96,56.752
48931880,-0.804,0.018,0.853,106.977,-155.295,54.11
48931890,-0.898,0.228,0.917,106.522,-164.972,52.885
48931900,-0.818,0.158,0.816,95.252,-181.265,57.382
48931910,-0.567,0.086,0.703,96.74,-188.177,67.392
48931920,-0.414,0.172,0.7,100.607,-172.76,78.977
48931930,-0.367,0.225,0.701,89.022,-138.81,76.51
48931940,-0.431,0.234,0.718,66.08,-99.225,60.357
48931950,-0.629,0.24,0.742,41.842,-74.97,43.172
48931960,-0.679,0.25,0.734,26.285,-70.647,36.872
48931970,-0.676,0.246,0.717,15.067,-79.432,36.785
48931980,-0.539,0.181,0.656,10.185,-88.042,38.097
48931990,-0.36,0.189,0.64,15.487,-84.647,39.567
48932000,-0.286,0.479,0.48,15.207,-63.332,41.737
48932010,-0.691,0.297,0.716,-23.222,-22.487,60.182
48932020,-0.804,-0.52,0.795,-24.867,-9.59,57.207
48932030,-0.505,-0.05,0.802,37.73,-48.597,28.192
48932040,-0.415,0.546,0.921,66.22,-71.207,34.23
48932050,-0.493,0.298,0.92,50.452,-68.495,46.515
48932060,-0.344,0.191,0.834,39.462,-58.327,36.505
48932070,-0.282,0.277,0.797,41.002,-42,19.057
48932080,-0.31,0.31,0.799,37.205,-16.415,1.872
48932090,-0.398,0.306,0.775,29.837,6.912,-7.997
48932100,-0.489,0.292,0.754,27.055,21.752,-8.837
48932110,-0.56,0.291,0.76,23.94,27.93,-10.552
48932120,-0.531,0.303,0.719,21.192,29.295,-12.845
48932130,-0.49,0.34,0.711,20.002,32.812,-14.105
48932140,-0.471,0.322,0.708,16.677,41.667,-17.237
48932150,-0.483,0.32,0.743,15.575,51.327,-21.315
48932160,-0.485,0.379,0.759,14.052,60.742,-24.78
48932170,-0.609,0.34,0.779,4.742,69.055,-24.167
48932170,-0.657,0.278,0.788,-5.757,69.65,-25.13
48932190,-0.618,0.273,0.759,-7.052,64.4,-24.027
48932190,-0.683,0.331,0.799,-6.807,60.9,-20.562
48932210,-0.757,0.322,0.781,-17.307,54.652,-21
48932210,-0.751,0.248,0.726,-24.132,45.447,-19.967
48932230,-0.768,0.214,0.701,-22.12,34.352,-14.735
48932230,-0.751,0.2,0.668,-17.85,24.955,-9.747
48932250,-0.699,0.211,0.64,-13.545,19.32,-6.107
48932250,-0.682,0.255,0.652,-11.27,17.99,-2.257
48932260,-0.73,0.308,0.692,-15.785,17.517,0.822
48932270,-0.751,0.4,0.751,-27.265,9.712,2.835
48932280,-0.647,0.346,0.708,-48.072,5.74,7.56
48932290,-0.86,0.151,0.648,-47.407,9.922,10.01
48932300,-0.611,0.245,0.769,-38.92,-6.282,2.695
48932310,-0.538,0.249,0.679,-43.242,-2.17,7.717
48932320,-0.692,0.291,0.779,-49.612,-1.102,2.607
48932330,-0.649,0.292,0.758,-61.127,-3.797,-0.595
48932340,-0.554,0.285,0.769,-65.135,-4.777,1.015
48932350,-0.546,0.282,0.796,-72.275,3.395,2.327
48932360,-0.533,0.216,0.772,-75.652,15.207,2.415
48932370,-0.601,0.199,0.776,-73.745,25.34,4.935
48932380,-0.747,0.191,0.773,-75.39,27.965,7.507
48932390,-0.755,0.129,0.748,-78.4,23.747,4.182
48932400,-0.704,0.119,0.715,-80.307,19.95,-4.672
48932410,-0.707,0.099,0.664,-81.655,17.36,-12.81
48932420,-0.706,0.071,0.64,-80.237,17.657,-18.76
48932430,-0.691,0.058,0.613,-78.295,18.865,-22.417
48932440,-0.694,0.05,0.622,-73.552,20.825,-20.825
48932450,-0.748,0.058,0.676,-67.672,17.605,-14.105
48932460,-0.755,0.092,0.705,-66.71,9.642,-7.227
48932470,-0.699,0.104,0.727,-69.352,1.872,-1.295
48932480,-0.631,0.092,0.706,-74.935,-0.035,2.94
48932490,-0.585,0.033,0.666,-78.557,4.235,5.74
48932500,-0.69,-0.094,0.657,-75.845,7.857,7.612
48932510,-0.762,-0.106,0.653,-65.835,2.397,5.582
48932510,-0.759,-0.059,0.637,-56.017,-9.52,4.707
48932530,-0.713,-0.066,0.619,-49.927,-22.207,8.085
48932530,-0.638,-0.084,0.569,-42.91,-26.547,15.032
48932550,-0.6,-0.11,0.538,-33.74,-24.342,25.725
48932550,-0.69,-0.15,0.513,-16.712,-16.135,42.07
48932570,-0.816,-0.162,0.544,2.1,-13.825,60.515
48932570,-0.901,-0.162,0.604,18.847,-22.242,76.02
48932580,-0.953,-0.212,0.627,31.447,-39.27,88.795
48932590,-0.896,-0.191,0.643,51.38,-55.93,94.902
48932600,-0.875,-0.104,0.687,66.552,-70.84,96.162
48932610,-0.78,0.055,0.82,74.952,-83.16,93.555
48932620,-0.676,0.111,0.859,71.4,-92.067,94.062
48932630,-0.413,0.246,0.826,71.347,-89.215,88.357
48932640,-0.34,0.425,0.925,55.615,-68.862,76.947
48932650,-0.26,0.441,0.767,29.347,-40.775,50.89
48932660,-0.29,0.445,0.794,12.617,-12.775,32.165
48932670,-0.367,0.393,0.691,-3.167,6.737,18.305
48932680,-0.277,0.428,0.707,-6.702,27.265,1.645
48932690,-0.26,0.526,0.82,-16.082,46.41,-7.962
48932700,-0.265,0.491,0.839,-31.045,65.467,-18.375
48932710,-0.474,0.422,0.944,-41.142,69.02,-25.445
48932720,-0.5,0.402,0.91,-47.11,58.117,-29.312
48932730,-0.491,0.419,0.912,-54.11,51.135,-31.255
48932740,-0.573,0.313,0.867,-73.955,53.042,-35.122
48932750,-0.672,0.087,0.812,-82.145,54.46,-38.517
48932760,-0.795,0.051,0.829,-74.095,52.097,-35.805
48932770,-0.831,0.126,0.865,-66.64,45.447,-30.292
48932780,-0.878,0.113,0.925,-66.92,40.215,-12.162
48932790,-0.66,0.171,1.052,-42.7,37.292,-16.047
48932800,-0.588,0.267,1.023,-57.837,52.605,-18.375
48932810,-0.604,0.288,1.022,-78.942,73.097,-24.955
48932820,-0.665,0.238,1.002,-98.472,89.495,-25.935
48932830,-0.8,0.086,0.925,-115.027,96.53,-23.065
48932840,-0.95,-0.047,0.817,-119.07,90.58,-19.022
48932850,-1.012,-0.158,0.688,-111.527,78.102,-11.637
48932860,-1.043,-0.277,0.623,-95.847,65.922,0.385
48932870,-1.103,-0.288,0.626,-79.66,51.695,11.462
48932880,-1.062,-0.188,0.63,-69.072,39.672,19.932
48932890,-0.937,-0.166,0.616,-72.03,35.385,24.01
48932900,-0.851,-0.216,0.609,-82.915,40.04,24.202
48932910,-0.848,-0.309,0.569,-91.402,44.467,23.852
48932920,-0.825,-0.382,0.513,-89.285,48.212,19.985
48932920,-0.887,-0.391,0.541,-79.765,45.71,13.755
48932940,-0.906,-0.331,0.602,-66.062,32.69,8.452
48932940,-0.831,-0.249,0.655,-42.997,11.69,7.402
48932960,-0.703,-0.17,0.69,-23.782,-7.875,11.305
48932960,-0.59,-0.225,0.678,-13.37,-20.86,13.107
48932980,-0.536,-0.272,0.641,1.067,-18.41,9.257
48932980,-0.582,-0.222,0.645,19.442,-15.54,-5.32
48932990,-0.571,-0.201,0.728,32.2,-21.402,-22.33
48933000,-0.45,-0.301,0.694,55.58,-21.7,-31.325
48933010,-0.477,-0.171,0.734,94.762,-21.49,-45.132
48933020,-0.571,-0.037,0.698,112.105,-30.135,-55.02
48933030,-0.574,0.011,0.653,126.105,-38.08,-64.207
48933040,-0.494,0.066,0.604,136.377,-40.897,-76.002
48933050,-0.443,0.095,0.55,140.332,-35.927,-85.365
48933060,-0.454,0.132,0.525,140.437,-22.172,-95.235
48933070,-0.513,0.157,0.509,132.912,-6.492,-105.49
48933080,-0.619,0.147,0.497,120.487,7.14,-111.685
48933090,-0.748,0.114,0.486,105.367,13.597,-114.695
48933100,-0.87,0.055,0.487,91.052,12.057,-113.907
48933110,-0.95,0.022,0.485,79.677,0.455,-111.475
48933120,-1.059,-0.004,0.53,74.812,-21.525,-104.737
48933130,-1.154,-0.036,0.561,69.65,-56.455,-98.525
48933140,-1.142,-0.02,0.587,61.932,-98.857,-100.187
48933150,-1.119,-0.036,0.593,55.037,-144.795,-98.262
48933160,-1.038,-0.032,0.563,50.89,-187.407,-96.74
48933170,-0.886,-0.028,0.515,51.45,-220.08,-92.925
48933180,-0.651,-0.008,0.472,53.725,-230.405,-85.47
48933190,-0.448,0.031,0.483,52.202,-213.815,-73.745
48933200,-0.354,0.057,0.537,44.835,-176.522,-58.345
48933210,-0.34,0.074,0.611,34.772,-130.952,-40.355
48933220,-0.398,0.081,0.686,22.05,-85.61,-21.28
48933230,-0.497,0.062,0.739,8.627,-49.752,-4.637
48933240,-0.622,0.001,0.776,2.572,-28.192,9.87
48933250,-0.689,-0.025,0.782,5.687,-19.32,24.167
48933260,-0.619,0.032,0.761,13.352,-9.52,35.42
48933260,-0.547,0.098,0.735,12.075,6.195,43.977
48933280,-0.568,0.109,0.722,-5.215,28.805,49.385
48933280,-0.67,0.067,0.727,-28.997,50.487,50.89
48933300,-0.81,-0.018,0.739,-50.697,62.86,49.612
48933300,-0.934,-0.098,0.75,-62.982,62.86,46.812
48933320,-0.989,-0.132,0.776,-59.36,52.29,43.207
48933320,-0.973,-0.14,0.808,-45.797,33.302,37.065
48933330,-0.905,-0.102,0.833,-33.337,13.545,27.842
48933340,-0.849,-0.06,0.875,-28.7,-1.47,15.925
48933350,-0.806,-0.033,0.896,-34.037,-14.56,3.517
48933360,-0.763,-0.009,0.892,-43.19,-27.475,-5.827
48933370,-0.715,-0.004,0.887,-53.13,-40.092,-8.575
48933380,-0.656,-0.018,0.884,-62.912,-50.575,-10.92
48933390,-0.618,-0.023,0.875,-75.495,-58.537,-17.22
48933400,-0.584,-0.023,0.88,-91.717,-65.012,-24.797
48933410,-0.523,-0.051,0.86,-113.627,-72.135,-35.56
48933420,-0.515,-0.081,0.884,-125.37,-82.81,-48.877
48933430,-0.486,-0.077,0.867,-133.315,-97.877,-59.325
48933440,-0.462,-0.128,0.828,-133.332,-114.975,-66.43
48933450,-0.393,-0.242,0.747,-119.437,-131.32,-64.89
48933460,-0.23,-0.304,0.694,-88.392,-134.155,-53.287
48933470,-0.125,-0.327,0.726,-55.247,-120.82,-40.407
48933480,-0.15,-0.304,0.803,-31.605,-97.842,-31.745
48933490,-0.184,-0.271,0.885,-18.742,-72.555,-26.39
48933500,-0.218,-0.241,0.949,-16.1,-49.525,-22.627
48933510,-0.309,-0.241,0.988,-21.56,-34.51,-20.405
48933520,-0.447,-0.27,1.056,-30.887,-31.202,-19.652
48933530,-0.573,-0.315,1.067,-45.377,-44.152,-21.945
48933540,-0.63,-0.357,1.002,-58.887,-70.332,-36.137
48933550,-0.564,-0.37,0.959,-61.757,-101.5,-49.927
48933560,-0.413,-0.349,0.863,-66.307,-123.532,-57.242
48933570,-0.289,-0.348,0.807,-75.267,-135.537,-63.297
48933580,-0.207,-0.46,0.769,-80.412,-136.307,-58.572
48933590,-0.15,-0.61,0.76,-72.31,-128.187,-43.295
48933600,-0.051,-0.805,0.818,-59.832,-113.295,-27.58
48933610,-0.119,-0.874,0.778,-22.907,-97.615,-10.622
48933620,-0.266,-0.57,0.989,24.08,-90.912,0.052
48933630,-0.365,-0.482,1.104,21.245,-110.022,11.812
48933640,-0.285,-0.57,0.951,10.395,-132.807,11.707
48933650,-0.098,-0.562,0.922,7.77,-145.302,4.865
48933660,0.106,-0.511,0.877,-2.012,-141.12,5.652
48933660,0.272,-0.475,0.855,-11.06,-110.827,5.827
48933670,0.165,-0.454,0.891,-15.295,-75.915,5.337
48933680,0.131,-0.453,0.897,-21.77,-53.392,3.412
48933690,0.124,-0.479,0.913,-34.457,-38.447,9.555
48933700,0.188,-0.561,0.872,-43.61,-25.707,12.705
48933710,0.203,-0.694,0.911,-34.492,-9.012,21.63
48933720,0.201,-0.761,0.964,-23.257,8.995,27.965
48933730,0.208,-0.826,0.994,-7.437,25.462,24.57
48933740,0.201,-0.887,1.033,18.602,40.092,25.322
48933750,0.184,-0.895,1.081,43.592,50.557,27.492
48933760,0.165,-0.888,1.073,61.897,58.345,25.55
48933770,0.16,-0.851,1.048,78.662,65.45,17.097
48933780,0.103,-0.789,1.017,93.485,70.192,9.747
48933790,0.026,-0.704,0.985,106.085,68.652,3.64
48933800,-0.037,-0.61,0.941,114.782,61.6,-1.627
48933810,-0.103,-0.518,0.913,117.897,48.65,-6.475
48933820,-0.148,-0.427,0.905,114.485,32.882,-11.655
48933830,-0.173,-0.362,0.918,105,14.7,-18.62
48933840,-0.2,-0.308,0.939,91.455,-3.92,-29.347
48933850,-0.195,-0.251,0.922,75.705,-23.537,-42.42
48933860,-0.127,-0.182,0.879,57.172,-40.827,-53.655
48933870,-0.071,-0.117,0.854,36.732,-53.9,-64.417
48933880,-0.047,-0.07,0.806,14.857,-61.145,-75.897
48933890,-0.021,-0.051,0.805,-6.912,-64.435,-82.705
48933900,0.005,-0.064,0.803,-25.235,-63.507,-85.68
48933910,0.046,-0.138,0.756,-36.067,-57.767,-86.922
48933920,0.068,-0.199,0.75,-38.937,-45.675,-87.377
48933930,0.038,-0.212,0.768,-34.597,-31.132,-87.045
48933940,-0.009,-0.22,0.779,-24.78,-17.412,-86.345
48933950,-0.05,-0.22,0.809,-13.37,-7.42,-85.61
48933960,-0.094,-0.226,0.827,-3.57,-1.12,-84.42
48933970,-0.135,-0.228,0.844,3.132,0.735,-84.542
48933980,-0.161,-0.23,0.859,7.315,0.612,-85.977
48933990,-0.165,-0.228,0.852,8.802,-0.507,-86.625
48934000,-0.153,-0.232,0.851,11.497,-0.07,-88.095
48934010,-0.18,-0.216,0.831,17.237,2.31,-87.027
48934010,-0.212,-0.153,0.868,24.972,3.692,-83.702
48934030,-0.225,-0.056,0.881,29.435,2.66,-81.2
48934030,-0.234,0.035,0.935,23.765,0.07,-77.91
48934050,-0.249,0.057,0.859,5.687,-3.22,-73.447
48934050,-0.308,-0.07,0.828,14.087,-9.432,-69.632
48934070,-0.303,-0.055,0.862,32.147,-16.24,-64.225
48934070,-0.275,0.035,0.896,37.572,-21.717,-53.48
48934080,-0.289,0.04,0.911,39.392,-21.542,-43.12
48934090,-0.302,-0.03,0.894,46.165,-20.3,-38.167
48934100,-0.292,-0.073,0.904,59.027,-18.147,-39.112
48934110,-0.301,-0.009,0.946,68.582,-16.362,-42.315
48934120,-0.261,0.085,0.981,66.762,-17.587,-45.78
48934130,-0.29,0.104,1.01,55.667,-21.84,-43.785
48934140,-0.274,0.11,1.006,38.185,-27.615,-39.497
48934150,-0.217,0.1,0.976,22.137,-30.52,-34.86
48934160,-0.187,0.076,0.962,13.212,-25.83,-25.812
48934170,-0.182,0.075,0.978,8.347,-17.517,-15.96
48934180,-0.167,0.085,0.982,4.672,-7.77,-6.632
48934190,-0.154,0.093,0.995,2.467,2.467,0.245
48934200,-0.183,0.083,1.03,0.087,11.217,5.67
48934210,-0.205,0.051,1.054,-2.17,15.225,6.965
48934220,-0.183,0.013,1.037,-4.602,18.077,4.882
48934230,-0.166,-0.008,1.033,-6.86,21.472,3.902
48934240,-0.167,-0.041,1.028,-9.24,23.975,5.74
48934250,-0.128,-0.085,0.994,-10.272,25.025,9.24
48934260,-0.094,-0.136,0.971,-9.677,28.717,14.157
48934270,-0.083,-0.166,0.979,-8.522,32.76,17.955
48934280,-0.086,-0.178,0.992,-7.612,35.542,22.575
48934290,-0.07,-0.218,0.973,-6.615,36.505,26.547
48934300,-0.042,-0.268,0.946,-4.497,39.812,27.965
48934310,-0.051,-0.291,0.948,-2.642,42.892,28.77
48934320,-0.076,-0.311,0.938,-2.275,43.82,30.187
48934330,-0.067,-0.353,0.927,2.082,42.962,30.065
48934330,-0.054,-0.324,0.934,4.567,43.417,28.35
48934350,-0.129,-0.292,0.992,5.582,37.765,31.395
48934350,-0.167,-0.265,1.027,1.872,22.767,36.802
48934370,-0.137,-0.212,1.045,-6.125,1.312,38.097
48934370,-0.136,-0.229,1.054,-17.867,-20.195,39.777
48934390,-0.116,-0.325,1.044,-27.632,-39.445,36.102
48934390,-0.05,-0.421,1,-24.85,-52.902,24.692
48934410,0.054,-0.404,0.953,-10.062,-57.155,10.885
48934410,0.128,-0.301,0.937,3.937,-51.502,5.67
48934420,0.183,-0.219,0.906,5.477,-39.882,4.532
48934430,0.221,-0.193,0.86,-4.357,-22.785,7.997
48934440,0.198,-0.17,0.876,-23.782,-5.617,11.077
48934450,0.141,-0.193,0.843,-43.12,7.07,15.837
48934460,0.156,-0.226,0.791,-53.34,20.177,21.962
48934470,0.089,-0.252,0.787,-58.1,35.595,27.142
48934480,-0.03,-0.255,0.832,-58.905,46.672,27.405
48934490,-0.125,-0.255,0.855,-53.69,49.56,24.517
48934500,-0.173,-0.209,0.895,-48.965,45.727,16.065
48934510,-0.248,-0.155,0.951,-49.892,35.157,6.037
48934520,-0.269,-0.137,0.973,-53.462,20.02,-3.517
48934530,-0.212,-0.157,0.96,-56.735,5.337,-11.987
48934540,-0.142,-0.165,0.953,-61.32,-2.59,-20.422
48934550,-0.092,-0.177,0.961,-67.287,-3.482,-28.647
48934560,-0.043,-0.185,0.976,-73.395,2.992,-37.415
48934570,-0.021,-0.189,1.006,-80.78,12.67,-45.972
48934580,-0.039,-0.233,1.014,-90.23,20.527,-51.187
48934590,-0.057,-0.324,0.978,-95.427,25.777,-53.567
48934600,-0.037,-0.409,0.94,-90.037,31.237,-52.552
48934610,-0.014,-0.456,0.936,-75.512,37.012,-46.952
48934620,-0.058,-0.466,0.956,-61.145,42.805,-38.955
48934630,-0.126,-0.463,0.979,-51.345,42.28,-32.252
48934640,-0.177,-0.476,0.978,-46.34,34.895,-25.935
48934650,-0.227,-0.475,0.977,-45.815,20.37,-20.125
48934660,-0.272,-0.477,0.954,-48.195,1.19,-15.995
48934670,-0.253,-0.523,0.969,-50.89,-20.107,-14.805
48934680,-0.174,-0.67,0.957,-50.417,-35.525,-14.105
48934690,-0.091,-0.739,0.889,-30.345,-41.23,-14.962
48934700,-0.039,-0.674,0.944,2.31,-37.642,-14.875
48934710,0.074,-0.593,0.992,23.537,-30.222,-9.222
48934720,0.13,-0.549,0.991,33.775,-8.26,-2.905
48934730,-0.076,-0.497,1.048,37.712,6.58,-3.605
48934740,-0.133,-0.427,1.046,31.202,4.427,-9.8
48934750,-0.005,-0.363,0.946,19.11,-0.227,-9.362
48934760,0.005,-0.363,0.913,6.3,1.575,-2.957
48934760,-0.063,-0.39,0.842,-5.005,3.85,0.822
48934780,0.001,-0.378,0.861,-13.615,2.66,-0.052
48934780,0.101,-0.41,0.785,-25.375,9.17,8.365
48934800,0.066,-0.43,0.794,-28.297,23.625,13.317
48934800,0.034,-0.425,0.818,-26.687,37.38,12.337
48934820,-0.028,-0.476,0.833,-27.177,43.452,18.217
48934820,-0.083,-0.529,0.842,-23.677,43.33,21.98
48934830,-0.078,-0.53,0.861,-17.71,39.217,22.575
48934840,-0.102,-0.511,0.899,-15.82,33.32,23.59
48934850,-0.057,-0.526,0.914,-17.692,28.752,21.07
48934860,-0.025,-0.538,0.9,-20.317,28.612,18.76
48934870,-0.054,-0.52,0.907,-18.672,29.085,16.292
48934880,-0.068,-0.491,0.92,-16.432,28.787,13.807
48934890,-0.077,-0.494,0.916,-15.89,27.387,13.265
48934900,-0.086,-0.515,0.9,-13.895,26.635,13.002
48934910,-0.119,-0.513,0.916,-7.612,27.545,12.18
48934920,-0.147,-0.482,0.925,-4.497,29.172,10.097
48934930,-0.16,-0.443,0.919,-4.305,30.065,5.687
48934940,-0.217,-0.439,0.921,-2.485,29.89,5.407
48934950,-0.212,-0.408,0.914,-1.155,27.107,4.27
48934960,-0.223,-0.353,0.917,-3.22,25.427,2.677
48934970,-0.233,-0.313,0.905,-7.437,23.275,2.695
48934980,-0.241,-0.305,0.891,-14.105,22.855,4.287
48934990,-0.196,-0.304,0.832,-21.735,24.972,3.307
48935000,-0.318,-0.378,0.85,-17.482,29.05,14.945
48935010,-0.274,-0.357,0.849,-11.602,30.31,13.317
48935020,-0.291,-0.334,0.838,-14.157,33.88,8.47
48935030,-0.313,-0.349,0.852,-14.997,36.942,6.825
48935040,-0.4,-0.404,0.854,-9.835,35.822,11.585
48935050,-0.404,-0.423,0.855,-3.395,28.525,13.527
48935060,-0.4,-0.419,0.865,2.52,20.527,11.585
48935070,-0.396,-0.419,0.864,6.807,12.775,10.43
48935080,-0.38,-0.414,0.867,9.152,8.26,7
48935080,-0.366,-0.415,0.869,10.5,4.725,2.222
48935100,-0.356,-0.415,0.877,12.53,2.852,-0.577
48935100,-0.319,-0.395,0.875,15.05,1.645,-0.332
48935120,-0.309,-0.377,0.88,15.557,1.907,2.607
48935120,-0.312,-0.384,0.877,12.057,2.712,3.447
48935140,-0.307,-0.417,0.86,9.642,4.707,3.045
48935140,-0.295,-0.431,0.861,10.202,6.737,2.327
48935160,-0.28,-0.423,0.862,10.78,9.887,2.467
48935160,-0.288,-0.429,0.861,13.632,12.267,4.48
48935170,-0.303,-0.434,0.866,17.535,11.9,8.575
48935180,-0.279,-0.432,0.862,19.005,14.315,13.545
48935190,-0.256,-0.442,0.853,24.01,19.092,14.245
48935200,-0.244,-0.437,0.879,28.875,24.57,16.712
48935210,-0.306,-0.422,0.904,28.402,26.985,23.555
48935220,-0.355,-0.405,0.94,24.587,25.83,25.182
48935230,-0.387,-0.408,0.945,17.377,18.042,22.89
48935240,-0.342,-0.423,0.914,10.99,8.242,17.675
48935250,-0.281,-0.415,0.879,10.78,1.382,15.837
48935260,-0.274,-0.392,0.871,13.387,-0.525,17.99
48935270,-0.276,-0.37,0.86,13.79,-1.155,18.952
48935280,-0.295,-0.364,0.868,10.342,-0.98,19.057
48935290,-0.301,-0.368,0.853,5.53,-1.347,16.327
48935300,-0.281,-0.364,0.83,3.15,-1.54,12.81
48935310,-0.285,-0.354,0.823,2.537,-0.822,11.917
48935320,-0.299,-0.343,0.822,2.712,0.017,12.145
48935330,-0.305,-0.321,0.82,2.572,0.822,12.477
48935340,-0.326,-0.297,0.825,1.33,1.417,12.915
48935350,-0.359,-0.277,0.831,-1.627,-0.892,13.562
48935360,-0.36,-0.258,0.828,-5.967,-4.34,13.492
48935370,-0.359,-0.259,0.815,-11.375,-8.645,12.775
48935380,-0.359,-0.277,0.799,-16.485,-11.392,11.025
48935390,-0.35,-0.293,0.797,-19.232,-12.915,8.785
48935400,-0.324,-0.285,0.798,-19.95,-12.46,6.51
48935410,-0.442,-0.427,0.785,-11.83,-16.135,9.642
48935420,-0.336,-0.341,0.834,-5.74,-16.607,-2.922
48935430,-0.36,-0.36,0.813,-7.017,-17.762,-2.695
48935440,-0.352,-0.417,0.831,-3.255,-17.22,-6.387
48935450,-0.334,-0.476,0.798,3.99,-18.06,-9.765
48935460,-0.303,-0.502,0.787,18.445,-14.927,-11.865
48935470,-0.254,-0.466,0.82,35.28,-8.907,-12.582
48935480,-0.201,-0.446,0.815,46.095,2.047,-9.467
48935490,-0.178,-0.413,0.831,56.367,19.285,-6.51
48935500,-0.22,-0.363,0.919,59.762,37.012,-2.747
48935510,-0.282,-0.354,0.939,53.585,46.515,-1.085
48935510,-0.321,-0.363,0.969,46.462,50.312,-2.222
48935530,-0.375,-0.363,0.978,40.862,46.655,-4.532
48935530,-0.378,-0.354,0.978,38.535,37.555,-8.365
48935550,-0.357,-0.317,0.973,36.225,28.087,-11.147
48935550,-0.339,-0.279,0.981,32.567,19.95,-12.792
48935570,-0.32,-0.255,0.964,25.375,13.51,-12.04
48935570,-0.308,-0.256,0.965,17.885,10.692,-11.392
48935580,-0.306,-0.265,0.965,10.832,9.835,-11.252
48935590,-0.287,-0.275,0.951,5.11,10.727,-12.477
48935600,-0.282,-0.28,0.948,0.84,13.475,-13.685
48935610,-0.295,-0.298,0.944,-2.415,16.205,-13.685
48935620,-0.266,-0.294,0.921,-6.58,19.897,-20.107
48935630,-0.298,-0.316,0.908,-8.96,24.15,-25.777
48935640,-0.307,-0.303,0.898,-9.24,27.492,-28.42
48935650,-0.333,-0.32,0.905,-7.437,28.945,-28.7
48935660,-0.374,-0.319,0.902,-2.432,27.125,-23.887
48935670,-0.39,-0.307,0.901,-1.33,21.717,-22.925
48935680,-0.405,-0.31,0.902,-2.677,14.56,-24.132
48935690,-0.402,-0.325,0.885,-5.355,6.212,-24.325
48935700,-0.373,-0.319,0.872,-8.225,-0.087,-25.182
48935710,-0.38,-0.314,0.874,-9.047,-5.862,-20.772
48935720,-0.38,-0.317,0.861,-12.6,-11.637,-15.767
48935730,-0.377,-0.335,0.846,-17.01,-16.432,-12.267
48935740,-0.341,-0.359,0.806,-23.24,-17.832,-13.037
48935750,-0.311,-0.4,0.813,-25.812,-16.065,-16.432
48935760,-0.31,-0.4,0.752,-24.307,-11.025,-15.89
48935770,-0.382,-0.403,0.816,-22.382,-11.445,-8.96
48935780,-0.355,-0.443,0.81,-21.857,-10.535,-2.31
48935790,-0.295,-0.472,0.812,-10.01,-7.122,-0.77
48935800,-0.371,-0.448,0.853,-2.94,-3.465,2.992
48935810,-0.417,-0.448,0.883,-0.542,-4.252,2.117
48935820,-0.397,-0.455,0.89,2.94,-9.415,2.292
48935830,-0.377,-0.453,0.906,6.457,-15.75,6.23
48935830,-0.343,-0.436,0.895,7.962,-19.687,7.455
48935850,-0.336,-0.431,0.912,8.155,-21.017,6.737
48935850,-0.32,-0.446,0.917,6.737,-20.51,6.965
48935870,-0.305,-0.487,0.917,5.425,-19.127,8.015
48935870,-0.283,-0.527,0.936,6.755,-14.542,8.295
48935890,-0.287,-0.567,0.958,9.537,-8.207,8.085
48935890,-0.314,-0.6,0.969,13.842,-2.625,9.117
48935910,-0.342,-0.645,0.987,20.702,-0.455,10.955
48935910,-0.363,-0.68,1.003,28.28,-1.697,9.87
48935920,-0.399,-0.722,0.987,37.012,-8.015,12.407
48935930,-0.416,-0.738,0.966,50.82,-20.195,16.485
48935940,-0.421,-0.736,0.951,68.792,-36.697,16.642
48935950,-0.372,-0.681,0.932,83.737,-52.745,9.905
48935960,-0.321,-0.609,0.9,95.287,-66.78,1.61
48935970,-0.271,-0.525,0.894,105.017,-76.387,-4.917
48935980,-0.23,-0.427,0.884,108.22,-83.667,-10.64
48935990,-0.232,-0.337,0.906,107.782,-90.72,-14.665
48936000,-0.225,-0.247,0.917,99.155,-99.12,-21.087
48936010,-0.208,-0.186,0.898,82.775,-108.027,-30.047
48936020,-0.172,-0.133,0.876,61.215,-115.325,-39.532
48936030,-0.113,-0.081,0.862,39.042,-120.557,-48.405
48936040,-0.079,-0.034,0.841,14.927,-122.78,-54.792
48936050,-0.028,0.003,0.803,-10.132,-120.977,-60.777
48936060,0.015,0.047,0.772,-34.475,-113.347,-65.397
48936070,0.037,0.073,0.727,-55.58,-101.71,-67.9
48936080,0.059,0.079,0.698,-71.977,-85.942,-66.657
48936090,0.079,0.064,0.677,-83.72,-67.13,-62.877
48936100,0.062,0.013,0.669,-86.152,-44.887,-53.812
48936110,0.025,-0.046,0.694,-79.975,-23.17,-42.227
48936120,-0.008,-0.061,0.742,-68.162,-3.657,-29.907
48936130,-0.074,-0.067,0.795,-54.687,9.607,-16.362
48936140,-0.075,-0.044,0.873,-46.742,19.285,-8.12
48936150,-0.109,-0.076,0.877,-48.247,26.88,-0.052
48936160,-0.133,-0.202,0.899,-40.862,32.532,7.857
48936170,-0.146,-0.288,0.911,-17.132,38.062,14.402
48936180,-0.219,-0.206,0.985,9.415,40.775,18.41
48936190,-0.29,-0.149,1.035,25.9,34.475,27.965
48936200,-0.367,-0.148,1.049,30.292,21.175,36.925
48936210,-0.385,-0.181,1.037,24.447,3.395,38.727
48936220,-0.324,-0.271,0.995,22.942,-9.485,35.21
48936230,-0.302,-0.33,0.988,32.095,-16.712,28.332
48936240,-0.256,-0.325,0.98,40.127,-19.722,20.282
48936250,-0.232,-0.312,0.976,52.22,-18.252,9.03
48936260,-0.285,-0.267,1.036,64.977,-19.442,3.255
48936260,-0.245,-0.213,1.044,67.112,-24.587,0.98
48936280,-0.231,-0.201,1.053,62.947,-29.75,0.035
48936280,-0.236,-0.203,1.049,57.225,-36.505,-0.42
48936300,-0.181,-0.181,1.04,51.712,-42.892,0.21
48936300,-0.126,-0.158,1.038,45.535,-46.847,1.382
48936320,-0.088,-0.155,1.026,38.517,-47.162,1.907
48936320,-0.033,-0.167,1.021,32.69,-44.45,1.977
48936330,0.001,-0.196,1.02,28.577,-37.257,3.01
48936340,-0.014,-0.201,1.051,26.145,-27.352,1.172
48936350,-0.063,-0.171,1.076,21.367,-20.86,-3.745
48936360,-0.072,-0.142,1.092,16.555,-19.862,-8.207
48936370,-0.093,-0.15,1.096,12.547,-22.697,-9.292
48936380,-0.088,-0.138,1.102,8.12,-26.652,-10.272
48936390,-0.073,-0.124,1.113,1.75,-29.942,-10.36
48936400,-0.087,-0.148,1.121,-4.077,-31.587,-7.682
48936410,-0.098,-0.17,1.119,-10.115,-32.987,-6.44
48936420,-0.099,-0.18,1.103,-14.245,-33.652,-6.3
48936430,-0.096,-0.18,1.084,-15.032,-33.495,-5.495
48936440,-0.089,-0.189,1.061,-11.97,-32.62,-3.517
48936450,-0.07,-0.2,1.027,-5.075,-30.975,-2.24
48936460,-0.056,-0.197,1.016,3.045,-27.667,-1.837
48936470,-0.066,-0.183,1.022,9.502,-26.197,-1.172
48936480,-0.121,-0.194,1.043,14.7,-30.38,0.437
48936490,-0.169,-0.208,1.058,18.497,-44.45,0.542
48936500,-0.192,-0.241,1.073,22.452,-66.15,-1.575
48936510,-0.185,-0.284,1.089,22.277,-93.94,-7.07
48936520,-0.201,-0.381,1.129,21.35,-123.357,-17.272
48936530,-0.105,-0.445,1.139,14.91,-150.517,-31.727
48936540,-0.062,-0.525,1.174,4.322,-172.095,-45.185
48936550,-0.014,-0.574,1.129,-13.265,-187.232,-57.505
48936560,0.125,-0.525,1.019,-27.772,-195.492,-67.672
48936570,0.3,-0.409,0.933,-28.822,-190.96,-71.312
48936580,0.419,-0.251,0.877,-25.095,-173.145,-62.265
48936580,0.519,-0.172,0.808,-12.722,-146.142,-44.38
48936600,0.586,-0.153,0.752,9.485,-106.347,-16.205
48936600,0.594,-0.157,0.715,36.96,-58.73,13.877
48936620,0.561,-0.064,0.706,60.777,-6.685,41.562
48936620,0.496,0.017,0.707,81.252,41.405,64.977
48936640,0.397,0.083,0.735,93.52,80.745,87.027
48936640,0.284,0.114,0.762,100.415,107.87,101.342
48936660,0.206,0.151,0.828,101.762,122.29,107.555
48936660,0.161,0.165,0.898,96.53,123.952,108.92
48936670,0.11,0.128,0.936,87.587,115.552,103.477
48936680,0.039,0.068,0.956,79.467,98.63,90.405
48936690,0.003,0.061,0.982,71.452,73.71,70.857
48936700,0.02,0.078,1.024,69.02,41.37,52.167
48936710,0.112,0.117,1.026,63.927,8.942,38.622
48936720,0.233,0.139,0.988,56.822,-16.957,24.85
48936730,0.378,0.184,0.965,46.112,-29.4,10.675
48936740,0.523,0.254,0.924,28.455,-27.125,0.717
48936750,0.652,0.322,0.923,4.445,-8.277,-5.565
48936760,0.69,0.378,0.906,-31.692,21.472,-4.392
48936770,0.637,0.398,0.887,-73.237,55.597,1.54
48936780,0.529,0.338,0.843,-117.022,85.715,11.917
48936790,0.382,0.211,0.792,-153.632,106.732,25.637
48936800,0.244,0.043,0.727,-174.317,118.737,36.277
48936810,0.089,-0.139,0.705,-173.11,121.257,44.467
48936820,-0.045,-0.293,0.737,-153.632,114.572,47.862
48936830,-0.132,-0.375,0.775,-127.802,99.872,43.032
48936840,-0.182,-0.445,0.799,-100.625,78.697,33.792
48936850,-0.182,-0.503,0.808,-70.42,54.39,21.595
48936860,-0.174,-0.502,0.842,-38.622,30.887,8.207
48936870,-0.115,-0.409,0.879,-17.675,10.062,-6.79
48936880,-0.089,-0.361,0.909,-3.255,-6.912,-13.02
48936890,-0.032,-0.279,0.936,3.202,-19.687,-15.19
48936900,-0.013,-0.249,0.948,5.775,-27.37,-8.417
48936910,0.041,-0.208,0.949,4.042,-28.175,-1.067
48936920,0.082,-0.189,0.939,-1.855,-19.652,8.312
48936930,0.087,-0.181,0.933,-8.662,-4.235,19.232
48936940,0.053,-0.19,0.921,-12.407,15.382,29.872
48936950,0.008,-0.171,0.925,-14.49,35.175,38.692
48936960,-0.033,-0.148,0.919,-19.11,53.69,46.987
48936970,-0.078,-0.135,0.915,-23.555,69.93,54.337
48936980,-0.119,-0.127,0.896,-28.262,84.192,61.425
48936990,-0.164,-0.106,0.891,-33.232,97.387,66.972
48937000,-0.206,-0.091,0.87,-38.885,110.617,69.965
48937000,-0.225,-0.103,0.818,-40.617,123.865,71.47
48937010,-0.195,-0.107,0.789,-35.77,140,75.075
48937020,-0.243,-0.078,0.842,-29.645,155.82,81.812
48937030,-0.391,-0.092,0.935,-22.89,159.425,87.797
48937040,-0.467,-0.178,0.979,-6.16,146.982,90.195
48937050,-0.498,-0.285,1.002,22.995,125.667,93.642
48937060,-0.509,-0.351,1.078,55.615,97.615,96.407
48937070,-0.486,-0.398,1.093,72.537,64.785,95.322
48937080,-0.413,-0.46,1.074,82.127,35.35,89.057
48937090,-0.307,-0.471,1.075,89.215,18.287,80.097
48937100,-0.219,-0.425,1.087,91.542,12.932,73.132
48937110,-0.115,-0.369,1.082,88.9,16.135,64.137
48937120,-0.042,-0.309,1.036,75.687,30.117,58.695
48937130,-0.021,-0.298,1.034,57.925,50.522,53.585
48937140,-0.073,-0.324,0.996,36.522,68.932,51.52
48937150,-0.122,-0.373,0.938,20.265,81.41,50.697
48937160,-0.162,-0.419,0.908,10.99,90.702,48.527
48937170,-0.241,-0.451,0.894,5.355,92.96,47.005
48937180,-0.318,-0.499,0.87,2.432,86.52,44.362
48937190,-0.444,-0.502,0.901,6.562,69.877,39.217
48937200,-0.574,-0.477,0.946,17.832,34.877,34.58
48937210,-0.621,-0.383,1.009,34.37,-16.887,31.727
48937220,-0.685,-0.338,1.047,54.04,-81.532,27.177
48937230,-0.616,-0.284,1.045,79.45,-145.425,14.752
48937240,-0.421,-0.22,0.994,102.917,-196.402,-0.77
48937250,-0.172,-0.135,0.922,124.18,-226.782,-16.012
48937260,0.069,0.064,0.859,139.667,-224.892,-28.35
48937270,0.217,0.291,0.867,136.955,-194.477,-35.28
48937280,0.238,0.399,0.876,116.777,-149.38,-39.532
48937290,0.202,0.424,0.889,89.075,-99.61,-42.21
48937300,0.093,0.443,0.904,56.7,-53.48,-40.985
48937310,-0.02,0.41,0.869,24.605,-19.53,-37.957
48937320,-0.094,0.37,0.836,-4.48,8.662,-33.757
48937330,-0.234,0.304,0.831,-29.05,26.425,-27.125
48937330,-0.412,0.205,0.843,-44.852,29.89,-19.11
48937350,-0.499,0.158,0.86,-49.595,18.952,-12.355
48937350,-0.55,0.142,0.887,-47.95,-0.542,-5.442
48937370,-0.526,0.134,0.888,-44.555,-23.345,-1.96
48937370,-0.44,0.146,0.865,-41.422,-39.725,0.665
48937390,-0.367,0.151,0.861,-38.36,-47.565,5.897
48937390,-0.328,0.146,0.875,-36.89,-44.642,8.977
48937410,-0.328,0.119,0.894,-32.847,-34.702,14.157
48937410,-0.309,0.107,0.897,-26.075,-20.702,18.042
48937420,-0.294,0.102,0.897,-19.827,-4.322,18.497
48937430,-0.281,0.114,0.887,-18.48,14.822,13.562
48937440,-0.255,0.16,0.881,-22.54,33.005,7
48937450,-0.268,0.152,0.856,-29.015,47.11,6.265
48937460,-0.322,0.115,0.868,-35.315,55.842,6.3
48937470,-0.422,0.061,0.889,-41.247,52.92,10.57
48937480,-0.526,0.004,0.917,-40.775,36.19,20.685
48937490,-0.566,-0.015,0.961,-31.99,8.33,34.177
48937500,-0.504,-0.023,0.95,-25.095,-23.537,45.255
48937510,-0.378,-0.009,0.944,-16.695,-48.51,52.132
48937520,-0.256,0.013,0.962,-12.617,-63.945,59.307
48937530,-0.133,-0.009,0.955,-17.167,-69.44,62.422
48937540,-0.058,-0.017,0.934,-23.467,-62.755,63.665
48937550,-0.034,-0.01,0.97,-30.082,-50.312,62.93
48937560,-0.02,-0.012,0.993,-38.885,-36.522,62.842
48937570,0.003,-0.025,1.031,-46.007,-23.485,62.545
48937580,0.006,-0.032,1.039,-58.73,-9.45,59.692
48937590,-0.047,-0.064,1.085,-76.072,2.765,53.952
48937600,-0.106,-0.131,1.077,-94.78,9.765,46.305
48937610,-0.128,-0.204,1.05,-106.732,10.5,37.31
48937620,-0.129,-0.256,0.981,-114.922,8.312,29.715
48937630,-0.165,-0.385,0.934,-108.15,1.977,27.352
48937640,-0.097,-0.383,0.929,-94.762,-2.187,22.207
48937650,-0.108,-0.4,0.944,-78.61,-6.807,23.537
48937660,-0.118,-0.424,0.97,-60.83,-10.92,27.002
48937670,-0.079,-0.411,0.989,-48.3,-14.805,22.47
48937670,-0.078,-0.4,1.005,-36.627,-17.36,17.622
48937690,-0.058,-0.362,1.017,-27.685,-19.792,10.535
48937690,-0.032,-0.318,1.004,-24.815,-20.055,2.572
48937710,0.006,-0.314,0.984,-25.585,-18.27,-6.195
48937710,0.029,-0.321,0.948,-26.792,-10.377,-14.297
48937730,-0.017,-0.281,0.949,-23.992,-2.292,-21.63
48937730,-0.013,-0.252,0.963,-25.06,5.267,-25.55
48937750,0.022,-0.264,0.938,-27.737,14.297,-24.64
48937750,0.025,-0.277,0.931,-26.495,26.267,-19.985
48937760,-0.018,-0.291,0.948,-23.415,37.975,-11.532
48937770,-0.088,-0.335,0.98,-20.002,47.635,-2.887
48937780,-0.123,-0.334,1.025,-16.52,54.215,-0.822
48937790,-0.171,-0.318,1.037,-19.88,56.63,-0.402
48937800,-0.409,-0.499,1.141,1.872,39.165,6.702
48937810,-0.207,-0.315,1.117,-4.515,23.047,-12.407
48937820,-0.157,-0.34,1.05,-6.737,13.702,-12.442
48937830,-0.094,-0.277,1.037,-4.357,14.647,-16.38
48937840,-0.081,-0.24,1.031,-9.607,20.387,-14.052
48937850,-0.091,-0.282,0.983,-18.165,29.522,-8.96
48937860,-0.126,-0.327,0.955,-21.822,37.87,-10.412
48937870,-0.153,-0.351,0.943,-21.875,41.212,-16.03
48937880,-0.188,-0.356,0.948,-19.39,38.132,-17.867
48937890,-0.196,-0.364,0.973,-13.597,31.027,-14.07
48937900,-0.216,-0.377,0.975,-9.327,24.605,-8.4
48937910,-0.224,-0.425,0.985,-1.61,17.115,-2.327
48937920,-0.215,-0.482,0.982,6.51,11.672,2.257
48937930,-0.241,-0.547,0.988,18.882,8.312,7.805
48937940,-0.266,-0.558,1.014,35.262,5.127,8.242
48937950,-0.292,-0.519,1.041,49.752,0.385,6.37
48937960,-0.301,-0.487,1.047,58.24,-6.3,4.217
48937970,-0.258,-0.444,1.036,64.12,-12.005,1.347
48937980,-0.25,-0.411,1.031,68.057,-14.822,3.01
48937990,-0.224,-0.393,1.01,72.467,-16.24,7.157
48938000,-0.158,-0.349,0.969,77.367,-12.372,11.515
48938010,-0.111,-0.297,0.952,78.33,-1.487,15.522
48938020,-0.148,-0.255,0.944,73.85,12.652,16.957
48938030,-0.172,-0.222,0.924,65.59,24.587,15.54
48938040,-0.169,-0.191,0.907,57.26,34.177,13.545
48938050,-0.198,-0.17,0.89,50.155,40.6,12.425
48938060,-0.223,-0.168,0.859,45.832,45.15,11.515
48938070,-0.229,-0.167,0.829,45.622,47.95,11.322
48938080,-0.242,-0.167,0.796,47.705,52.745,13.842
48938080,-0.288,-0.151,0.801,51.66,56.945,16.38
48938100,-0.329,-0.088,0.816,53.375,60.06,18.672
48938100,-0.392,-0.097,0.817,54.197,58.345,21.647
48938120,-0.341,-0.057,0.783,51.152,57.575,19.635
48938120,-0.319,-0.078,0.74,53.077,61.477,26.32
48938140,-0.293,-0.055,0.733,56.315,73.027,33.582
48938140,-0.332,-0.013,0.718,55.37,86.975,42.367
48938160,-0.411,0.018,0.734,53.007,102.13,52.867
48938160,-0.517,0.058,0.797,45.832,109.83,59.692
48938170,-0.58,0.101,0.795,35,106.61,60.13
48938180,-0.552,0.152,0.779,27.037,97.93,61.495
48938190,-0.558,0.171,0.76,16.607,89.827,66.867
48938200,-0.59,0.16,0.752,6.002,80.902,70
48938210,-0.572,0.133,0.717,-3.71,73.29,68.897
48938220,-0.562,0.111,0.696,-9.397,67.812,64.995
48938230,-0.565,0.093,0.691,-9.957,63.227,60.602
48938240,-0.551,0.096,0.693,-6.685,59.552,54.845
48938250,-0.571,0.102,0.741,-2.45,55.177,49.945
48938260,-0.572,0.101,0.715,3.78,48.317,45.832
48938270,-0.568,0.072,0.752,10.867,43.295,46.357
48938280,-0.585,0.065,0.737,14.77,36.697,45.622
48938290,-0.557,0.067,0.772,13.352,32.41,44.467
48938300,-0.615,0.043,0.788,7.507,27.807,42.822
48938310,-0.59,0.011,0.763,10.412,22.26,38.937
48938320,-0.555,-0.028,0.749,24.395,20.965,37.345
48938330,-0.592,-0.047,0.8,41.597,19.127,39.69
48938340,-0.63,-0.078,0.838,65.03,15.435,40.635
48938350,-0.649,-0.009,0.935,97.422,3.99,41.09
48938360,-0.7,0.076,0.994,123.725,-16.747,46.602
48938370,-0.663,0.153,1.003,143.237,-39.392,46.987
48938380,-0.568,0.23,0.982,150.272,-56.752,42.647
48938390,-0.559,0.274,0.968,148.225,-70.787,36.155
48938400,-0.529,0.289,0.93,144.83,-84.157,27.807
48938410,-0.423,0.302,0.876,142.047,-94.64,20.51
48938420,-0.343,0.314,0.84,139.632,-98.857,17.762
48938420,-0.268,0.34,0.823,137.655,-96.6,16.59
48938440,-0.148,0.392,0.819,135.257,-83.282,15.452
48938440,-0.113,0.476,0.851,126.245,-59.885,14.665
48938460,-0.103,0.514,0.874,107.222,-30.065,14.297
48938460,-0.16,0.505,0.898,84.245,1.05,11.077
48938480,-0.278,0.466,0.949,64.75,25.147,5.687
48938480,-0.294,0.427,0.953,52.797,35.647,-1.522
48938500,-0.271,0.487,0.996,44.31,41.615,-4.725
48938500,-0.523,0.484,0.911,27.702,42.49,-1.82
48938510,-0.417,0.427,0.882,22.627,39.287,-8.575
48938520,-0.316,0.387,0.834,34.597,39.235,-7.892
48938530,-0.469,0.437,0.822,33.88,44.73,-5.197
48938540,-0.534,0.432,0.801,29.225,43.61,-9.992
48938550,-0.524,0.483,0.786,25.147,34.755,-11.392
48938560,-0.487,0.488,0.713,14.752,25.322,-10.815
48938570,-0.426,0.433,0.64,-0.665,24.92,-14.192
48938580,-0.382,0.381,0.599,-13.51,33.722,-17.202
48938590,-0.372,0.373,0.593,-19.74,48.545,-16.52
48938600,-0.441,0.333,0.611,-22.295,62.65,-12.267
