time[ms],accX[g],accY[g],accZ[g],Value 1,Value 2,Value 3
49104600,0.094,0.096,0.939,94.78,187.495,-142.59
49104610,0.081,0.121,0.957,85.085,190.627,-143.027
49104620,0.076,0.134,0.982,72.415,193.322,-141.277
49104630,0.022,0.131,0.964,54.18,194.565,-137.62
49104640,-0.064,0.096,0.942,41.807,190.82,-133.227
49104650,-0.085,0.091,0.919,34.982,187.075,-127.137
49104660,-0.077,0.105,0.907,33.04,184.765,-118.3
49104670,-0.085,0.138,0.898,31.902,185.045,-107.31
49104680,-0.14,0.144,0.89,28.595,186.025,-96.005
49104690,-0.18,0.169,0.866,23.257,188.457,-86.8
49104700,-0.244,0.173,0.859,18.305,188.527,-78.382
49104710,-0.318,0.199,0.844,7.42,185.22,-71.452
49104720,-0.406,0.18,0.833,-3.587,179.462,-65.992
49104730,-0.478,0.175,0.854,-14,169.54,-64.015
49104740,-0.562,0.124,0.871,-23.345,151.795,-59.902
49104750,-0.595,0.089,0.885,-30.712,128.222,-55.422
49104760,-0.608,0.027,0.887,-32.742,101.307,-50.207
49104770,-0.608,-0.001,0.902,-29.907,73.78,-45.29
49104780,-0.597,0.011,0.923,-27.58,47.337,-42.105
49104790,-0.566,0.029,0.941,-28.63,23.45,-41.317
49104800,-0.532,0.044,0.952,-33.827,2.362,-42.052
49104810,-0.507,0.02,0.936,-40.932,-15.067,-42.857
49104820,-0.428,0.006,0.918,-47.67,-26.897,-47.285
49104830,-0.364,-0.013,0.892,-53.427,-35.21,-49.052
49104840,-0.319,-0.036,0.864,-56.297,-38.395,-44.555
49104850,-0.313,-0.077,0.829,-52.99,-40.022,-32.515
49104860,-0.327,-0.1,0.828,-43.05,-39.41,-16.205
49104870,-0.384,-0.083,0.865,-31.097,-40.792,0.91
49104880,-0.436,-0.034,0.924,-21.735,-48.317,15.89
49104890,-0.453,0.004,0.943,-17.202,-62.86,30.467
49104900,-0.38,0.029,0.952,-17.57,-74.637,40.197
49104910,-0.297,0.029,0.923,-23.38,-79.887,44.415
49104920,-0.258,-0.005,0.912,-30.17,-76.212,43.907
49104920,-0.256,-0.037,0.918,-32.48,-71.12,39.812
49104930,-0.277,-0.072,0.908,-29.382,-69.457,39.532
49104940,-0.282,-0.089,0.919,-20.212,-70.665,41.405
49104950,-0.298,-0.086,0.946,-7.77,-75.39,40.74
49104960,-0.297,-0.068,0.964,3.815,-83.282,34.317
49104970,-0.225,-0.036,0.965,11.917,-87.64,24.71
49104980,-0.117,0.005,0.974,14.735,-85.575,17.255
49104990,-0.053,0.049,0.984,10.57,-75.53,13.002
49105000,0.063,0.055,1.055,1.137,-58.17,10.867
49105010,0.111,-0.005,0.972,-12.897,-23.467,14.945
49105020,0.031,0.009,1.006,-20.09,6.72,16.292
49105030,-0.041,0.021,1.016,-25.147,33.302,18.007
49105040,-0.127,-0.003,1.016,-36.435,48.86,25.777
49105050,-0.179,-0.078,0.994,-47.705,57.61,30.275
49105060,-0.174,-0.158,0.972,-50.715,60.952,27.527
49105070,-0.199,-0.155,0.966,-43.137,68.652,21.612
49105080,-0.303,-0.154,0.956,-33.617,67.9,25.567
49105090,-0.48,-0.296,0.971,-7.192,54.442,30.922
49105100,-0.355,-0.113,1.134,6.457,42.332,12.652
49105110,-0.412,-0.111,1.101,-8.89,27.93,16.292
49105120,-0.416,-0.119,1.01,-3.78,19.215,13.72
49105130,-0.366,-0.083,1.047,1.225,12.827,10.22
49105140,-0.344,-0.066,1.022,-6.09,9.432,10.955
49105150,-0.358,-0.072,0.977,-9.94,7.875,10.027
49105160,-0.342,-0.064,0.963,-10.85,6.79,6.807
49105170,-0.366,-0.06,0.952,-14.385,4.41,7.98
49105180,-0.363,-0.07,0.939,-15.54,-0.262,6.982
49105190,-0.273,-0.074,0.905,-15.032,-2.17,1.977
49105200,-0.263,-0.089,0.897,-13.737,0.262,3.867
49105210,-0.309,-0.124,0.888,-9.467,2.922,6.947
49105220,-0.277,-0.107,0.915,-2.8,5.88,3.185
49105230,-0.285,-0.099,0.922,-2.765,6.247,3.185
49105240,-0.297,-0.109,0.981,-3.29,4.742,2.782
49105250,-0.26,-0.139,0.978,-4.165,3.447,0.612
49105260,-0.265,-0.151,0.94,-2.555,1.47,-1.557
49105260,-0.273,-0.11,0.932,-0.787,-1.33,-2.747
49105280,-0.287,-0.092,0.897,0.227,-3.325,-1.54
49105280,-0.282,-0.064,0.918,0.612,-6.615,-0.367
49105300,-0.261,-0.092,0.904,-2.152,-6.842,4.427
49105300,-0.236,-0.113,0.896,-1.417,-4.375,5.6
49105320,-0.265,-0.135,0.889,1.417,-0.525,7.787
49105320,-0.285,-0.125,0.898,6.02,0.682,10.045
49105330,-0.282,-0.097,0.916,8.662,0.91,10.605
49105340,-0.269,-0.095,0.915,9.24,1.47,10.395
49105350,-0.268,-0.11,0.918,11.095,3.71,10.482
49105360,-0.288,-0.098,0.933,11.97,5.652,10.762
49105370,-0.317,-0.092,0.926,11.847,6.965,10.622
49105380,-0.33,-0.089,0.956,17.202,5.932,12.145
49105390,-0.324,-0.065,0.964,16.275,4.97,12.757
49105400,-0.326,-0.046,0.977,14.507,4.252,10.762
49105410,-0.337,-0.045,0.983,13.02,4.812,9.572
49105420,-0.337,-0.034,1.011,12.005,4.795,10.482
49105430,-0.342,-0.037,0.997,8.137,5.722,11.97
49105440,-0.377,-0.036,0.992,5.932,4.497,11.287
49105450,-0.372,-0.025,0.992,3.552,2.1,8.907
49105460,-0.35,-0.018,0.979,1.207,-0.63,7.052
49105470,-0.331,-0.017,0.966,-1.067,-2.152,5.862
49105480,-0.331,-0.022,0.948,-2.642,-2.782,4.9
49105490,-0.334,-0.025,0.947,-3.307,-3.972,3.605
49105500,-0.319,-0.024,0.954,-3.64,-5.845,2.012
49105510,-0.29,-0.03,0.959,-4.532,-6.247,1.015
49105520,-0.287,-0.046,0.951,-5.617,-5.372,1.015
49105530,-0.291,-0.058,0.938,-5.635,-4.252,1.032
49105540,-0.299,-0.05,0.953,-5.495,-3.64,1.452
49105550,-0.292,-0.057,0.944,-6.177,-3.937,2.205
49105560,-0.292,-0.064,0.941,-6.352,-3.587,2.905
49105570,-0.302,-0.063,0.948,-6.44,-3.797,3.832
49105580,-0.301,-0.06,0.941,-6.545,-4.06,4.637
49105590,-0.302,-0.056,0.943,-6.947,-4.375,5.25
49105600,-0.299,-0.066,0.931,-7.927,-3.552,5.635
49105600,-0.29,-0.073,0.926,-5.722,-2.327,4.532
49105620,-0.294,-0.058,0.931,-4.725,-0.07,4.672
49105620,-0.296,-0.053,0.933,-4.97,1.627,5.617
49105640,-0.3,-0.064,0.926,-4.497,3.85,6.475
49105640,-0.336,-0.043,0.931,-3.22,3.29,6.335
49105660,-0.331,-0.071,0.952,-3.43,2.485,4.917
49105660,-0.312,-0.095,0.955,-0.927,0.752,1.312
49105670,-0.333,-0.102,0.958,0.315,-0.542,-0.035
49105680,-0.359,-0.083,0.961,1.137,-4.13,-1.662
49105690,-0.354,-0.071,0.946,0.962,-7.857,-3.167
49105700,-0.34,-0.076,0.931,0.647,-11.777,-3.675
49105710,-0.311,-0.07,0.934,1.575,-13.09,-4.952
49105720,-0.31,-0.057,0.927,0.647,-14.21,-4.655
49105730,-0.293,-0.068,0.93,0.63,-14.682,-3.692
49105740,-0.263,-0.075,0.929,1.995,-14.227,-4.095
49105750,-0.261,-0.061,0.94,4.147,-12.705,-2.992
49105760,-0.243,-0.049,0.948,4.34,-10.045,-1.557
49105770,-0.267,-0.044,0.959,2.152,-6.58,0.227
49105780,-0.284,-0.063,0.956,0.035,-4.427,0.49
49105790,-0.285,-0.073,0.952,-0.105,-3.902,0.49
49105800,-0.306,-0.071,0.949,0.175,-5.11,0.105
49105810,-0.303,-0.073,0.945,0.665,-7.297,-1.592
49105820,-0.3,-0.073,0.946,2.205,-8.627,-2.117
49105830,-0.305,-0.052,0.963,2.852,-7.77,-1.68
49105840,-0.317,-0.029,0.948,1.4,-7.63,-1.522
49105850,-0.241,-0.036,0.928,-1.137,-3.29,-1.61
49105860,-0.3,-0.05,0.946,0.385,1.89,-0.07
49105870,-0.389,-0.028,0.955,2.975,-0.28,0.822
49105880,-0.317,0.008,0.972,2.922,-3.552,0.507
49105890,-0.286,0,0.982,-0.385,-4.445,0.315
49105900,-0.294,-0.03,0.986,-3.045,-2.677,-0.227
49105910,-0.283,-0.044,0.984,-4.252,-0.77,-1.26
49105920,-0.269,-0.042,0.98,-4.655,0.665,-1.767
49105930,-0.27,-0.043,0.965,-5.617,1.75,-1.277
49105940,-0.252,-0.056,0.952,-6.982,3.797,-0.297
49105950,-0.24,-0.068,0.941,-6.09,7.35,0.717
49105960,-0.268,-0.064,0.938,-3.937,10.325,1.522
49105970,-0.303,-0.055,0.942,-3.062,9.975,1.995
49105980,-0.305,-0.063,0.937,-3.307,8.505,2.31
49105990,-0.321,-0.071,0.93,-2.817,6.072,1.995
49106000,-0.333,-0.071,0.94,-2.24,4.13,1.592
49106010,-0.334,-0.064,0.941,-2.485,1.785,1.557
49106010,-0.337,-0.063,0.936,-3.325,-0.42,1.907
49106030,-0.333,-0.063,0.926,-3.412,-2.24,1.855
49106030,-0.333,-0.055,0.925,-2.782,-2.835,1.312
49106050,-0.328,-0.048,0.932,-2.555,-3.605,1.015
49106050,-0.32,-0.05,0.94,-2.712,-3.762,1.242
49106070,-0.305,-0.055,0.954,-2.502,-4.252,0.857
49106070,-0.283,-0.056,0.954,-2.572,-3.622,1.19
49106080,-0.286,-0.056,0.959,-2.502,-4.62,1.977
49106090,-0.274,-0.061,0.963,-3.115,-5.092,1.68
49106100,-0.259,-0.073,0.961,-3.535,-4.165,0.945
49106110,-0.277,-0.076,0.954,-3.797,-1.575,0.297
49106120,-0.295,-0.075,0.942,-3.99,-0.14,-0.385
49106130,-0.319,-0.08,0.939,-4.06,0.017,0.315
49106140,-0.317,-0.073,0.93,-2.87,-1.505,-0.297
49106150,-0.31,-0.07,0.938,-2.45,-0.682,-0.665
49106160,-0.342,-0.066,0.942,-2.8,-0.402,-0.42
49106170,-0.345,-0.067,0.942,-3.622,-1.4,-1.172
49106180,-0.336,-0.068,0.948,-4.34,-2.975,-1.505
49106190,-0.329,-0.065,0.945,-4.585,-4.707,-1.365
49106200,-0.299,-0.072,0.946,-4.34,-6.405,-1.137
49106210,-0.287,-0.054,0.941,-3.062,-6.195,-0.385
49106220,-0.29,-0.052,0.949,-3.237,-5.442,-0.122
49106230,-0.251,-0.057,0.924,-3.465,-2.782,-0.717
49106240,-0.272,-0.035,0.936,-3.027,0.595,-0.087
49106250,-0.307,-0.068,0.939,-4.445,2.45,1.977
49106260,-0.287,-0.094,0.948,-2.922,2.275,1.155
49106270,-0.285,-0.087,0.963,-2.065,1.19,1.382
49106280,-0.291,-0.091,0.961,-2.1,-0.052,2.275
49106290,-0.285,-0.095,0.942,-1.732,-0.332,0.857
49106300,-0.298,-0.088,0.931,-1.347,0.192,0.227
49106310,-0.32,-0.08,0.934,-1.207,0.262,0.367
49106320,-0.321,-0.082,0.92,-1.522,-0.175,-0.087
49106330,-0.324,-0.091,0.917,-1.155,-1.312,0.595
49106330,-0.332,-0.09,0.934,0.227,-2.082,0.997
49106350,-0.332,-0.082,0.953,0.962,-3.15,0
49106350,-0.338,-0.074,0.953,0.805,-4.41,-0.122
49106370,-0.327,-0.059,0.948,0.052,-6.002,-1.085
49106370,-0.307,-0.055,0.94,-1.242,-5.915,-1.172
49106390,-0.298,-0.061,0.935,-1.662,-5.442,-0.42
49106390,-0.299,-0.06,0.947,-1.347,-4.41,0.63
49106410,-0.292,-0.055,0.97,-1.05,-4.55,1.05
49106410,-0.271,-0.046,0.973,-1.662,-4.182,2.03
49106420,-0.261,-0.039,0.96,-3.237,-3.657,3.185
49106430,-0.245,-0.034,0.955,-4.725,-1.137,2.887
49106440,-0.258,-0.044,0.942,-6.65,1.505,2.135
49106450,-0.276,-0.055,0.945,-6.335,3.675,2.747
49106460,-0.288,-0.057,0.943,-6.195,4.462,4.042
49106470,-0.302,-0.058,0.945,-5.792,5.355,4.9
49106480,-0.323,-0.062,0.951,-6.282,4.76,5.53
49106490,-0.336,-0.076,0.936,-6.982,3.57,6.737
49106500,-0.347,-0.077,0.93,-7,1.487,6.79
49106510,-0.372,-0.081,0.942,-7.245,-2.152,8.417
49106520,-0.362,-0.101,0.949,-8.312,-6.755,8.015
49106530,-0.382,-0.072,0.936,-8.225,-9.415,6.387
49106540,-0.316,-0.086,0.999,-10.22,-14.087,4.952
49106550,-0.231,-0.124,0.913,-11.375,-10.062,4.585
49106560,-0.326,-0.089,0.903,-9.502,-9.012,8.61
49106570,-0.263,-0.06,0.983,-6.965,-7.875,6.72
49106580,-0.197,-0.101,0.951,-9.31,-4.777,3.132
49106590,-0.271,-0.117,0.907,-9.555,-2.24,4.637
49106600,-0.292,-0.078,0.965,-6.527,-1.137,3.622
49106610,-0.285,-0.105,0.946,-8.54,-0.42,2.012
49106620,-0.334,-0.137,0.927,-7.822,-1.697,2.572
49106630,-0.347,-0.094,0.986,-4.007,-3.325,1.05
49106640,-0.352,-0.087,0.994,-6.755,-5.337,-1.225
49106650,-0.367,-0.097,0.979,-10.902,-8.627,-2.59
49106660,-0.344,-0.095,0.996,-13.807,-11.672,-3.972
49106670,-0.316,-0.111,0.98,-15.26,-13.842,-4.917
49106680,-0.303,-0.102,0.956,-14.175,-15.33,-6.545
49106690,-0.275,-0.078,0.946,-11.637,-16.345,-6.982
49106700,-0.228,-0.065,0.937,-10.815,-15.032,-7.122
49106710,-0.215,-0.081,0.925,-10.657,-11.935,-5.687
49106720,-0.211,-0.098,0.921,-9.1,-7.612,-4.375
49106730,-0.225,-0.11,0.941,-6.58,-3.885,-2.24
49106740,-0.245,-0.119,0.926,-6.387,-2.117,-0.892
49106750,-0.242,-0.118,0.938,-3.57,-2.695,-1.277
49106760,-0.225,-0.103,0.93,-2.625,-2.432,-0.297
49106760,-0.21,-0.107,0.911,-3.097,-0.752,0.332
49106780,-0.219,-0.12,0.905,-2.17,2.975,1.085
49106780,-0.253,-0.128,0.915,-1.207,5.565,1.015
49106800,-0.285,-0.121,0.919,-0.245,7.752,-1.417
49106800,-0.322,-0.109,0.933,2.397,7.91,-0.857
49106820,-0.339,-0.095,0.942,1.802,7.63,-0.297
49106820,-0.376,-0.077,0.94,1.592,5.32,0.595
49106830,-0.373,-0.064,0.961,-0.087,1.942,4.112
49106840,-0.28,-0.045,0.933,-3.01,0.875,6.072
49106850,-0.263,0,1,-9.975,8.4,8.155
49106860,-0.347,-0.128,0.993,-16.73,12.915,13.405
49106870,-0.316,-0.165,1.008,-14.857,14.682,8.12
49106880,-0.302,-0.13,1.031,-11.357,13.02,5.46
49106890,-0.317,-0.111,1.044,-13.335,13.405,6.037
49106900,-0.32,-0.117,1.052,-16.485,13.282,3.237
49106910,-0.322,-0.134,1.028,-22.12,12.652,1.68
49106920,-0.348,-0.148,0.988,-24.465,9.642,0.875
49106930,-0.336,-0.137,0.97,-23.1,5.722,-0.56
49106940,-0.334,-0.126,0.978,-22.522,2.467,4.9
49106950,-0.315,-0.122,0.953,-25.252,-1.225,5.6
49106960,-0.31,-0.124,0.974,-27.37,-2.642,3.57
49106970,-0.312,-0.147,0.977,-29.697,-3.587,1.102
49106980,-0.289,-0.152,0.977,-29.96,-4.095,-1.417
49106990,-0.257,-0.147,1.001,-29.872,-4.357,-1.172
49107000,-0.267,-0.165,0.976,-29.137,-2.625,2.817
49107010,-0.301,-0.168,0.975,-24.832,-3.57,4.637
49107020,-0.29,-0.189,0.95,-21.665,-8.592,6.737
49107030,-0.231,-0.195,0.904,-17.482,-10.237,9.03
49107040,-0.202,-0.199,0.883,-11.34,-7.577,8.365
49107050,-0.181,-0.189,0.85,-5.32,-0.385,3.675
49107060,-0.201,-0.183,0.824,-0.752,7.472,-0.227
49107070,-0.237,-0.179,0.81,3.395,12.302,-2.397
49107080,-0.231,-0.165,0.809,5.932,14.98,-2.992
49107080,-0.248,-0.184,0.867,6.02,15.47,0.175
49107100,-0.281,-0.223,0.885,12.372,19.88,2.782
49107100,-0.317,-0.242,0.904,25.147,23.607,4.76
49107120,-0.347,-0.218,0.944,37.887,24.08,6.615
49107120,-0.377,-0.19,0.968,45.57,21.157,8.032
49107140,-0.393,-0.167,0.987,49.192,18.13,7.472
49107140,-0.396,-0.145,0.997,50.54,14.157,5.162
49107160,-0.391,-0.127,0.995,50.54,10.605,3.062
49107160,-0.378,-0.101,0.999,50.435,6.825,1.54
49107170,-0.384,-0.098,0.993,47.74,2.992,0.7
49107180,-0.368,-0.078,0.985,44.922,-1.4,-2.292
49107190,-0.354,-0.047,0.968,42.035,-4.83,-5.285
49107200,-0.342,-0.007,0.967,41.65,-8.697,-8.26
49107210,-0.322,0.041,0.97,39.165,-11.69,-10.832
49107220,-0.306,0.073,0.965,33.53,-14.07,-14.245
49107230,-0.293,0.098,0.971,25.76,-14.7,-19.775
49107240,-0.295,0.116,0.976,16.24,-15.575,-25.847
49107250,-0.297,0.109,0.969,5.792,-16.257,-31.535
49107260,-0.284,0.083,0.961,-3.255,-17.377,-37.187
49107270,-0.272,0.053,0.948,-10.185,-17.762,-42.35
49107280,-0.264,0.018,0.937,-15.155,-17.5,-46.13
49107290,-0.261,-0.013,0.932,-18.532,-15.575,-48.807
49107300,-0.261,-0.047,0.911,-21.175,-13.107,-50.977
49107310,-0.27,-0.082,0.896,-20.685,-10.097,-51.555
49107320,-0.279,-0.113,0.886,-17.78,-6.93,-52.202
49107330,-0.282,-0.118,0.895,-14.525,-3.027,-53.742
49107340,-0.3,-0.139,0.884,-14.647,1.015,-53.76
49107350,-0.309,-0.164,0.871,-14.507,5.862,-54.512
49107360,-0.312,-0.183,0.864,-14.945,11.427,-55.475
49107370,-0.331,-0.208,0.858,-16.415,16.572,-54.67
49107380,-0.354,-0.235,0.855,-18.112,21.42,-52.92
49107390,-0.389,-0.291,0.859,-17.08,24.027,-48.825
49107400,-0.412,-0.34,0.885,-13.16,23.94,-42.367
49107410,-0.435,-0.38,0.898,-8.4,21.122,-34.195
49107420,-0.442,-0.409,0.91,-2.292,17.622,-27.51
49107430,-0.421,-0.414,0.917,3.255,14.682,-23.415
49107440,-0.402,-0.407,0.899,7.84,13.422,-19.075
49107450,-0.4,-0.401,0.887,15.995,12.792,-13.492
49107460,-0.377,-0.354,0.887,23.362,13.492,-9.765
49107470,-0.374,-0.302,0.885,27.947,13.842,-6.177
49107480,-0.383,-0.263,0.881,30.205,14,-3.15
49107490,-0.391,-0.237,0.868,31.377,12.512,-2.187
49107500,-0.382,-0.199,0.866,31.622,10.902,-3.29
49107510,-0.374,-0.142,0.862,28.175,8.942,-5.005
49107510,-0.373,-0.086,0.856,23.24,7.63,-7.367
49107530,-0.372,-0.052,0.849,19.302,5.775,-9.38
49107530,-0.359,-0.017,0.841,14.14,5.162,-11.235
49107550,-0.355,0.011,0.832,9.082,4.532,-11.777
49107550,-0.386,-0.01,0.827,6.37,4.375,-10.762
49107570,-0.384,0.015,0.826,3.972,3.167,-12.495
49107570,-0.409,0.01,0.84,2.677,0.98,-11.655
49107580,-0.396,0.046,0.864,-3.727,-1.277,-13.93
49107590,-0.396,0.034,0.851,-13.072,-1.907,-16.677
49107600,-0.402,-0.005,0.853,-13.807,-2.957,-16.24
49107610,-0.4,-0.035,0.862,-12.547,-3.92,-16.485
49107620,-0.418,-0.055,0.893,-8.26,-6.142,-13.37
49107630,-0.414,-0.048,0.918,-9.45,-7.752,-12.635
49107640,-0.427,-0.087,0.928,-12.162,-10.867,-10.447
49107650,-0.432,-0.125,0.944,-14.28,-13.79,-9.187
49107660,-0.433,-0.153,0.955,-16.222,-17.99,-8.925
49107670,-0.419,-0.166,0.957,-17.395,-21.735,-8.995
49107680,-0.408,-0.192,0.964,-15.067,-25.13,-7.84
49107690,-0.385,-0.201,0.968,-13.23,-26.932,-7
49107700,-0.36,-0.197,0.979,-12.232,-27.545,-6.597
49107710,-0.342,-0.2,0.978,-11.655,-27.002,-5.022
49107720,-0.333,-0.221,0.971,-9.327,-26.005,-2.73
49107730,-0.32,-0.221,0.975,-5.092,-24.99,-0.84
49107740,-0.307,-0.207,0.976,-2.065,-23.642,0.385
49107750,-0.303,-0.192,0.976,0.892,-22.47,1.715
49107760,-0.303,-0.187,0.973,4.182,-21.84,2.397
49107770,-0.29,-0.164,0.973,7.315,-21.21,1.662
49107780,-0.279,-0.13,0.977,9.677,-19.985,1.085
49107790,-0.279,-0.097,0.977,10.29,-18.882,1.26
49107800,-0.282,-0.081,0.981,12.057,-17.78,1.715
49107810,-0.273,-0.057,0.98,12.792,-16.047,2.1
49107820,-0.267,-0.029,0.971,12.897,-12.88,3.307
49107830,-0.269,-0.011,0.964,13.772,-8.172,4.795
49107830,-0.28,-0.002,0.958,15.225,-2.205,7.227
49107850,-0.288,-0.009,0.934,18.375,4.725,9.747
49107850,-0.279,-0.029,0.913,25.935,13.597,12.967
49107870,-0.268,-0.041,0.903,37.205,23.467,18.935
49107870,-0.264,-0.05,0.894,53.182,36.522,27.72
49107890,-0.274,-0.04,0.889,72.765,51.94,35.577
49107890,-0.292,-0.009,0.88,90.422,70.962,41.002
49107910,-0.292,0.034,0.9,104.09,92.155,43.102
49107910,-0.281,0.081,0.916,109.55,116.13,45.185
49107920,-0.279,0.118,0.901,105.262,141.855,46.777
49107930,-0.293,0.162,0.882,93.59,170.327,46.305
49107940,-0.33,0.197,0.872,75.11,200.987,44.415
49107950,-0.379,0.216,0.839,51.082,233.537,38.622
49107960,-0.44,0.175,0.777,24.062,263.147,30.45
49107970,-0.505,0.099,0.701,-2.415,288.837,21.997
49107980,-0.585,0.019,0.618,-21.7,307.737,15.435
49107990,-0.652,-0.052,0.551,-31.692,320.53,10.727
49108000,-0.68,-0.096,0.504,-33.092,327.67,8.557
49108010,-0.733,-0.133,0.452,-30.887,328.79,9.695
49108020,-0.816,-0.185,0.399,-27.527,323.767,11.847
49108030,-0.839,-0.235,0.368,-19.547,314.965,12.04
49108040,-0.83,-0.297,0.31,-6.44,303.922,13.107
49108050,-0.837,-0.392,0.273,14.192,290.605,20.632
49108060,-0.878,-0.454,0.242,46.69,273.525,35.612
49108070,-1.008,-0.388,0.299,84.997,252.84,50.155
49108080,-1.404,-0.342,0.503,114.257,208.827,54.04
49108090,-1.411,-0.478,0.521,138.495,118.02,29.085
49108100,-0.855,-0.166,0.556,159.495,43.89,-13.86
49108110,-0.457,0.275,0.596,146.772,24.255,-14.035
49108120,-0.499,0.242,0.668,130.007,53.655,6.842
49108130,-0.793,0.162,0.551,99.592,90.982,1.75
49108140,-1.077,0.164,0.461,75.005,101.36,-29.33
49108150,-0.728,0.204,0.349,62.387,104.405,-52.745
49108160,-0.654,0.159,0.236,49.682,127.417,-48.877
49108170,-1.013,0.066,0.186,42.017,154.787,-36.662
49108180,-1.309,0.045,0.136,34.3,159.757,-42.56
49108190,-1.352,0.07,0.105,33.355,140.21,-54.442
49108200,-1.37,0.046,0.018,34.125,106.487,-37.467
49108210,-1.23,0.104,0.048,32.445,74.62,-34.86
49108220,-1.282,0.189,0.045,31.272,51.817,-28.49
49108230,-1.232,0.266,0.07,28.612,28.455,-15.155
49108240,-1.082,0.23,0.04,14.962,15.295,-11.742
49108250,-1.033,0.133,0.065,3.36,12.512,-6.405
49108260,-1.02,0.121,0.116,2.975,16.432,-3.675
49108260,-1.017,0.159,0.181,4.06,23.642,-6.16
49108280,-1.07,0.158,0.202,1.05,30.817,-9.292
49108280,-0.976,0.131,0.196,-0.717,33.705,-17.815
49108290,-0.902,0.086,0.172,-2.537,40.985,-25.445
49108300,-0.9,0.042,0.145,1.522,47.617,-24.727
49108310,-0.859,0.037,0.111,9.642,56.63,-22.995
49108320,-0.905,0.029,0.108,14.402,66.692,-16.03
49108330,-1.016,0.039,0.126,18.725,73.255,-4.445
49108340,-1.102,0.075,0.147,22.977,76.09,1.225
49108350,-1.147,0.093,0.109,21.105,76.282,0.525
49108360,-1.187,0.097,0.05,17.465,75.722,-0.472
49108370,-1.093,0.103,-0.073,14.28,76.86,-5.39
49108380,-1.052,-0.043,-0.078,6.772,69.265,-6.632
49108390,-1.349,0,-0.06,-4.917,56.087,-3.482
49108400,-1.064,0.007,-0.118,-1.207,42.175,-7.157
49108410,-0.99,0.024,-0.113,-2.275,32.165,-12.512
49108420,-1.014,0.001,-0.11,-5.67,27.055,-8.68
49108430,-1.079,-0.011,-0.093,-8.085,14.805,-8.68
49108440,-1.021,-0.019,-0.1,-7.367,-8.995,-11.095
49108450,-0.964,0.074,-0.062,-1.802,-29.032,-5.565
49108460,-1.001,0.048,-0.03,-1.032,-48.072,2.222
49108470,-0.956,0.051,-0.006,-0.455,-61.652,5.967
49108480,-1.026,0.062,0.038,2.117,-74.235,11.585
49108490,-0.992,0.085,0.066,3.237,-82.897,9.1
49108500,-0.978,0.107,0.097,3.36,-84.752,5.81
49108510,-0.953,0.137,0.13,4.585,-81.567,0.98
49108520,-0.978,0.231,0.17,2.73,-75.32,-7.175
49108530,-1.034,0.209,0.175,-6.912,-70.805,-15.522
49108540,-0.992,0.174,0.132,-16.24,-64.225,-25.305
49108550,-0.962,0.187,0.089,-25.165,-59.132,-32.725
49108560,-0.9,0.095,0.076,-34.562,-48.982,-32.165
49108570,-1.016,-0.041,0.094,-36.872,-38.097,-32.007
49108580,-1.156,-0.076,0.125,-33.425,-39.392,-35.927
49108580,-1.269,-0.086,0.147,-24.202,-56.245,-38.762
49108600,-1.2,-0.059,0.163,-15.855,-76.842,-42.857
49108600,-1.119,0.061,0.217,-12.687,-91.49,-45.255
49108620,-1.059,0.072,0.268,-19.25,-98.455,-42.612
49108620,-0.877,0.008,0.26,-21.665,-89.337,-39.9
49108640,-0.877,-0.005,0.288,-14.472,-69.37,-39.077
49108640,-1.024,0.015,0.348,-10.535,-58.397,-31.745
49108660,-1.181,-0.034,0.337,-8.277,-63.367,-24.605
49108660,-1.237,-0.045,0.316,-5.722,-84.227,-27.037
49108670,-1.169,-0.031,0.275,-8.365,-109.252,-33.005
49108680,-1.079,-0.071,0.23,-11.112,-127.872,-38.01
49108690,-0.885,-0.124,0.203,-9.887,-132.615,-41.912
49108700,-0.809,-0.133,0.219,-6.125,-126.84,-45.832
49108710,-0.747,-0.043,0.245,-2.345,-111.23,-49.332
49108720,-0.787,-0.026,0.308,-4.392,-92.942,-48.23
49108730,-0.859,-0.021,0.363,-14.805,-79.415,-46.672
49108740,-0.905,-0.098,0.366,-26.39,-70.63,-43.382
49108750,-0.925,-0.111,0.389,-28,-65.012,-38.762
49108760,-0.959,-0.103,0.407,-27.895,-64.662,-34.002
49108770,-1.009,-0.141,0.425,-27.772,-68.407,-34.37
49108780,-1.019,-0.207,0.409,-22.855,-77.175,-39.62
49108790,-1.077,-0.21,0.431,-13.055,-92.26,-35.997
49108800,-1.029,-0.171,0.407,-6.912,-109.917,-41.072
49108810,-0.93,-0.181,0.4,3.535,-120.802,-42
49108820,-0.808,-0.16,0.387,12.39,-119.63,-42.157
49108830,-0.742,-0.112,0.369,20.562,-106.802,-41.352
49108840,-0.681,-0.076,0.369,17.745,-84.682,-41.265
49108850,-0.69,-0.118,0.377,7.892,-59.132,-38.815
49108860,-0.785,-0.12,0.441,0.35,-42.665,-34.37
49108870,-0.841,-0.112,0.443,-5.11,-41.79,-31.867
49108880,-0.834,-0.125,0.461,-3.885,-50.26,-23.537
49108890,-0.835,-0.16,0.453,-10.552,-60.655,-15.697
49108900,-0.88,-0.239,0.471,-11.34,-72.59,-17.325
49108910,-0.887,-0.242,0.526,-1.627,-88.252,-21.455
49108920,-0.787,-0.153,0.558,3.832,-98.945,-24.78
49108930,-0.631,-0.158,0.533,-0.192,-97.667,-31.237
49108940,-0.557,-0.181,0.561,0.472,-81.165,-29.785
49108950,-0.613,-0.218,0.578,-9.065,-59.342,-16.572
49108960,-0.676,-0.306,0.567,-16.537,-37.52,-6.51
49108970,-0.788,-0.341,0.586,-8.925,-22.82,-6.177
49108980,-0.922,-0.313,0.649,0.927,-20.492,-1.417
49108980,-0.893,-0.29,0.639,0.297,-25.497,-4.2
49109000,-0.818,-0.318,0.628,1.697,-26.442,-2.415
49109000,-0.764,-0.302,0.627,-2.747,-22.155,-2.047
49109010,-0.773,-0.248,0.638,-3.815,-16.222,-0.945
49109020,-0.731,-0.257,0.636,-5.442,-11.042,0.175
49109030,-0.728,-0.257,0.635,-6.58,-4.585,0.91
49109040,-0.762,-0.255,0.658,-5.215,-2.642,2.73
49109050,-0.775,-0.295,0.696,-2.852,-1.942,2.327
49109060,-0.817,-0.277,0.682,-0.385,-4.252,-1.067
49109070,-0.863,-0.231,0.698,-1.19,-10.955,-5.845
49109080,-0.836,-0.264,0.666,-3.692,-20.562,-12.845
49109090,-0.804,-0.245,0.663,-4.06,-32.725,-20.58
49109100,-0.742,-0.222,0.636,-3.692,-44.222,-23.117
49109110,-0.676,-0.228,0.606,-3.395,-50.907,-23.572
49109120,-0.655,-0.253,0.581,-0.945,-54.845,-22.26
49109130,-0.665,-0.261,0.584,3.727,-58.012,-21.14
49109140,-0.734,-0.279,0.597,8.645,-65.187,-21.227
49109150,-0.782,-0.297,0.623,14.682,-79.765,-24.815
49109160,-0.87,-0.293,0.671,24.272,-102.532,-30.852
49109170,-0.938,-0.291,0.685,31.412,-131.775,-36.785
49109180,-0.885,-0.235,0.667,38.43,-163.485,-40.39
49109190,-0.62,-0.116,0.637,39.427,-184.765,-39.952
49109200,-0.393,-0.094,0.622,30.362,-179.497,-33.6
49109210,-0.132,-0.176,0.637,18.777,-146.177,-23.117
49109220,-0.011,-0.243,0.805,16.782,-70.21,-4.83
49109230,-0.66,-0.282,0.932,9.607,-14.752,17.255
49109240,-0.598,-0.197,0.926,2.117,4.007,10.99
49109250,-0.54,-0.129,0.849,-3.22,19.53,7.822
49109260,-0.706,-0.197,0.949,-19.372,30.59,15.627
49109270,-0.755,-0.338,0.856,-25.077,23.03,21.087
49109280,-0.443,-0.391,0.821,-9.975,24.36,27.632
49109290,-0.528,-0.422,0.921,-0.21,39.777,37.292
49109300,-0.451,-0.502,0.878,5.372,57.347,33.18
49109310,-0.491,-0.39,0.906,24.325,65.187,18.357
49109320,-0.625,-0.219,0.945,36.382,66.482,3.675
49109330,-0.683,-0.157,0.936,31.727,59.5,2.73
49109330,-0.589,-0.203,0.833,25.2,53.095,14.7
49109350,-0.515,-0.18,0.757,21.875,56.017,23.905
49109350,-0.492,-0.164,0.652,16.572,71.155,31.272
49109370,-0.611,-0.182,0.64,9.695,86.975,29.032
49109370,-0.686,-0.174,0.6,3.132,89.932,18.462
49109390,-0.654,-0.128,0.565,2.73,82.127,11.672
49109390,-0.731,-0.121,0.535,-3.71,69.527,12.285
49109410,-0.796,-0.127,0.513,-10.22,51.135,10.202
49109410,-0.735,-0.107,0.52,-13.247,31.692,4.742
49109420,-0.668,-0.1,0.512,-18.725,16.38,1.067
49109430,-0.633,-0.118,0.506,-24.85,9.222,0.245
49109440,-0.646,-0.134,0.52,-27.895,6.457,0.647
49109450,-0.734,-0.153,0.552,-29.435,2.712,-1.33
49109460,-0.853,-0.19,0.588,-28.84,-8.732,-5.915
49109470,-0.939,-0.223,0.643,-22.662,-28.07,-8.365
49109480,-0.991,-0.195,0.699,-20.475,-54.39,-15.417
49109490,-0.953,-0.192,0.733,-21.157,-82.512,-23.257
49109500,-0.667,-0.203,0.819,-23.957,-101.482,-22.242
49109510,-0.33,-0.312,0.776,-27.72,-83.615,-11.952
49109520,-0.438,-0.327,0.892,-23.03,-38.955,-2.327
49109530,-0.754,-0.347,0.937,-13.527,-11.76,4.707
49109540,-0.883,-0.374,0.988,-7.595,-4.532,0.402
49109550,-0.87,-0.24,0.855,-10.885,-20.685,-4.287
49109560,-0.704,-0.187,0.778,-15.225,-38.535,-6.037
49109570,-0.623,-0.232,0.697,-27.247,-48.58,-1.067
49109580,-0.587,-0.307,0.658,-32.69,-52.797,2.275
49109590,-0.553,-0.288,0.679,-31.272,-50.907,0.77
49109600,-0.62,-0.228,0.723,-35.455,-49.105,2.38
49109610,-0.623,-0.26,0.728,-42.7,-49.332,1.872
49109620,-0.558,-0.325,0.728,-43.907,-43.96,-3.132
49109630,-0.641,-0.295,0.744,-40.215,-36.802,-5.53
49109640,-0.725,-0.237,0.773,-41.142,-36.592,-8.277
49109650,-0.678,-0.236,0.743,-43.802,-41.562,-11.55
49109660,-0.595,-0.306,0.695,-45.08,-42.507,-9.87
49109670,-0.596,-0.315,0.705,-39.777,-43.155,-5.635
49109670,-0.582,-0.256,0.725,-35.927,-43.505,-1.505
49109690,-0.554,-0.236,0.715,-38.447,-44.24,2.1
49109690,-0.569,-0.255,0.721,-45.762,-40.687,5.53
49109710,-0.614,-0.244,0.741,-51.712,-39.952,5.232
49109710,-0.603,-0.245,0.777,-56.367,-37.695,4.515
49109730,-0.641,-0.268,0.833,-58.887,-36.855,4.69
49109730,-0.627,-0.307,0.85,-58.362,-37.922,5.81
49109750,-0.553,-0.378,0.831,-54.442,-36.82,7.875
49109750,-0.569,-0.376,0.811,-43.522,-34.93,13.405
49109760,-0.612,-0.324,0.829,-36.015,-36.47,11.427
49109770,-0.558,-0.307,0.795,-39.287,-38.325,7.175
49109780,-0.546,-0.357,0.734,-45.255,-38.447,2.992
49109790,-0.561,-0.385,0.688,-46.13,-38.36,1.19
49109800,-0.589,-0.386,0.675,-45.465,-41.422,-0.42
49109810,-0.566,-0.393,0.66,-42.892,-47.092,-0.402
49109820,-0.545,-0.452,0.639,-39.777,-48.335,0.7
49109830,-0.562,-0.503,0.624,-33.495,-49.91,2.222
49109840,-0.542,-0.461,0.644,-23.345,-53.462,2.31
49109850,-0.513,-0.409,0.688,-19.845,-56.77,2.572
49109860,-0.43,-0.413,0.764,-19.582,-53.06,2.957
49109870,-0.51,-0.464,0.807,-20.195,-49.227,3.797
49109880,-0.465,-0.438,0.844,-17.832,-51.537,2.047
49109890,-0.35,-0.429,0.861,-16.887,-47.722,1.557
49109900,-0.411,-0.422,0.841,-19.075,-41.335,0.892
49109910,-0.353,-0.418,0.814,-22.172,-37.59,0.192
49109920,-0.333,-0.409,0.803,-24.832,-29.452,-2.432
49109930,-0.386,-0.407,0.821,-30.59,-24.097,-3.815
49109940,-0.268,-0.403,0.842,-33.687,-18.287,-3.08
49109950,-0.256,-0.404,0.834,-34.79,-10.85,-0.84
49109960,-0.197,-0.365,0.791,-34.247,-3.552,2.59
49109970,-0.186,-0.35,0.759,-30.887,5.862,9.187
49109980,-0.329,-0.419,0.736,-32.077,16.38,17.622
49109990,-0.459,-0.487,0.703,-32.48,19.95,20.405
49110000,-0.558,-0.519,0.692,-29.242,19.075,15.155
49110010,-0.632,-0.554,0.705,-26.792,16.205,3.972
49110020,-0.641,-0.532,0.697,-23.572,9.607,-3.605
49110030,-0.606,-0.511,0.709,-16.31,-0.245,-0.875
49110040,-0.514,-0.466,0.716,-12.582,-6.51,5.215
49110050,-0.429,-0.441,0.696,-9.135,-7.35,8.032
49110060,-0.379,-0.447,0.689,-4.655,-3.692,10.535
49110070,-0.34,-0.455,0.687,-0.07,1.505,14.945
49110080,-0.368,-0.446,0.738,5.845,7.455,20.405
49110080,-0.407,-0.446,0.815,6.317,10.727,24.255
49110100,-0.428,-0.455,0.819,3.395,13.615,25.182
49110100,-0.468,-0.456,0.816,1.54,15.54,24.902
49110120,-0.483,-0.475,0.804,-1.26,18.182,23.415
49110120,-0.482,-0.468,0.734,-2.642,17.867,19.057
49110140,-0.476,-0.45,0.691,-0.577,17.955,17.132
49110140,-0.53,-0.441,0.731,1.295,18.567,18.217
49110160,-0.598,-0.494,0.746,2.1,19.022,14.49
49110160,-0.653,-0.513,0.741,6.317,15.54,7.682
49110170,-0.661,-0.472,0.774,10.15,9.992,1.19
49110180,-0.68,-0.442,0.765,10.902,2.887,0.332
49110190,-0.703,-0.432,0.753,8.242,-4.165,-1.4
49110200,-0.664,-0.415,0.72,6.597,-11.725,-5.53
49110210,-0.546,-0.375,0.718,7.805,-19.18,-6.562
49110220,-0.345,-0.36,0.753,10.325,-17.202,-8.19
49110230,-0.229,-0.34,0.756,11.83,-7.07,-5.46
49110240,-0.202,-0.323,0.75,11.147,4.34,3.552
49110250,-0.245,-0.345,0.817,7.962,15.05,14.402
49110260,-0.36,-0.399,0.854,1.05,22.802,22.627
49110270,-0.458,-0.39,0.843,-4.305,26.442,25.462
49110280,-0.551,-0.44,0.828,-11.445,28.98,24.36
49110290,-0.647,-0.472,0.747,-16.03,27.72,18.69
49110300,-0.696,-0.489,0.658,-15.05,22.365,8.645
49110310,-0.616,-0.417,0.661,-11.567,16.712,0.752
49110320,-0.646,-0.462,0.673,-8.277,14.367,2.327
49110330,-0.604,-0.463,0.788,-1.592,8.47,3.832
49110340,-0.434,-0.517,0.705,0.017,-1.155,-1.155
49110350,-0.306,-0.401,0.627,3.202,-1.26,0.84
49110360,-0.457,-0.371,0.644,2.205,8.347,14.56
49110370,-0.476,-0.406,0.677,2.817,17.255,14.28
49110380,-0.644,-0.413,0.686,3.92,23.835,12.46
49110390,-0.66,-0.407,0.677,6.79,24.307,6.982
49110400,-0.693,-0.408,0.683,8.907,22.487,4.427
49110410,-0.791,-0.392,0.77,10.797,15.47,9.66
49110420,-0.876,-0.436,0.78,7.927,5.39,7.997
49110420,-0.826,-0.428,0.758,5.477,-7.56,-2.852
49110440,-0.714,-0.406,0.745,3.325,-17.412,-11.777
49110440,-0.588,-0.401,0.743,1.365,-24.395,-15.155
49110460,-0.481,-0.399,0.756,0.665,-27.09,-13.86
49110460,-0.459,-0.423,0.755,-0.542,-25.83,-11.637
49110480,-0.467,-0.418,0.723,0.14,-25.462,-1.942
49110480,-0.463,-0.447,0.7,2.817,-23.922,4.182
49110500,-0.483,-0.44,0.709,6.79,-19.967,3.377
49110500,-0.496,-0.377,0.709,11.742,-16.257,-0.595
49110510,-0.547,-0.343,0.757,11.025,-11.672,-5.565
49110520,-0.615,-0.359,0.796,6.457,-12.162,-4.987
49110530,-0.665,-0.392,0.815,3.045,-18.392,-2.607
49110540,-0.689,-0.411,0.807,1.592,-27.947,-1.382
49110550,-0.711,-0.424,0.801,0.997,-38.815,-0.752
49110560,-0.617,-0.407,0.758,1.855,-49.962,-1.837
49110570,-0.583,-0.419,0.752,1.522,-54.862,-1.942
49110580,-0.526,-0.435,0.748,1.732,-59.622,-0.63
49110590,-0.434,-0.393,0.772,3.99,-60.567,1.172
49110600,-0.415,-0.396,0.787,1.645,-60.147,2.257
49110610,-0.376,-0.396,0.781,0.437,-60.917,2.065
49110620,-0.249,-0.371,0.784,1.89,-53.2,-0.542
49110630,-0.297,-0.368,0.771,-0.28,-42.507,-2.117
49110640,-0.335,-0.374,0.775,-2.66,-33.005,-3.325
49110650,-0.31,-0.407,0.763,-2.607,-26.757,-3.902
49110660,-0.393,-0.42,0.761,-0.385,-19.915,-3.01
49110670,-0.415,-0.406,0.774,-0.962,-17.517,-1.54
49110680,-0.443,-0.431,0.766,-1.365,-15.032,-1.82
49110690,-0.494,-0.475,0.759,-1.715,-14.7,-2.17
49110700,-0.49,-0.462,0.776,2.03,-17.045,-2.397
49110710,-0.455,-0.417,0.802,7.98,-20.247,-0.192
49110720,-0.428,-0.381,0.803,10.535,-21.787,1.47
49110730,-0.384,-0.365,0.793,11.392,-21.577,3.255
49110740,-0.368,-0.374,0.782,13.142,-18.795,6.545
49110750,-0.355,-0.353,0.77,13.737,-14.857,7.42
49110760,-0.351,-0.379,0.817,11.235,-6.177,6.86
49110770,-0.361,-0.373,0.816,8.067,-2.747,7.612
49110780,-0.373,-0.361,0.847,6.475,1.732,7.577
49110790,-0.404,-0.368,0.867,0.63,4.567,5.46
49110800,-0.397,-0.381,0.881,-3.675,6.65,3.482
49110810,-0.437,-0.393,0.885,-4.672,5.845,2.8
49110820,-0.419,-0.377,0.863,-6.072,3.325,2.59
49110830,-0.383,-0.37,0.826,-6.422,2.572,2.747
49110830,-0.444,-0.382,0.799,-8.207,4.497,1.715
49110850,-0.49,-0.401,0.776,-10.482,3.482,0.437
49110850,-0.537,-0.422,0.779,-9.187,0.122,1.365
49110870,-0.656,-0.424,0.794,-8.19,-5.355,0.105
49110870,-0.715,-0.417,0.81,-6.825,-15.75,-1.96
49110890,-0.649,-0.392,0.843,-0.56,-27.702,-3.132
49110890,-0.59,-0.377,0.873,2.012,-36.557,-5.32
49110910,-0.493,-0.368,0.839,0.647,-41.387,-8.33
49110910,-0.431,-0.33,0.787,1.47,-42.455,-6.842
49110920,-0.492,-0.304,0.592,3.605,-42.367,-3.36
49110930,-0.603,-0.029,0.491,9.31,-49.385,2.065
49110940,-0.333,-0.374,0.942,7.28,-39.9,3.377
49110950,-0.311,-0.534,0.955,-0.21,-41.772,-0.157
49110960,-0.295,-0.425,0.949,4.847,-48.667,11.812
49110970,-0.216,-0.358,1.005,2.24,-48.3,11.637
49110980,-0.222,-0.442,1.061,-10.955,-39.515,2.975
49110990,-0.243,-0.473,0.995,-23.87,-35.105,-3.85
49111000,-0.102,-0.397,0.891,-27.107,-27.667,-10.535
49111010,-0.1,-0.377,0.77,-29.26,-16.205,-10.447
49111020,-0.096,-0.417,0.742,-31.71,-4.042,-7.087
49111030,-0.137,-0.488,0.75,-33.372,9.992,-7.122
49111040,-0.309,-0.531,0.815,-29.155,19.337,-5.74
49111050,-0.414,-0.517,0.864,-26.232,19.845,-4.83
49111060,-0.406,-0.518,0.86,-25.252,15.96,-4.9
49111070,-0.381,-0.49,0.813,-21.98,11.235,-4.112
49111080,-0.355,-0.447,0.784,-19.005,8.592,-2.24
49111090,-0.333,-0.441,0.733,-17.657,8.68,-1.26
49111100,-0.349,-0.455,0.705,-15.155,11.445,-0.245
49111110,-0.349,-0.47,0.711,-10.535,11.865,3.867
49111120,-0.261,-0.459,0.747,-4.777,13.965,8.645
49111130,-0.221,-0.441,0.763,-1.627,19.512,12.635
49111140,-0.258,-0.434,0.793,-2.012,27.405,14.14
49111150,-0.283,-0.436,0.776,-6.335,34.02,13.492
49111160,-0.329,-0.466,0.729,-6.142,38.447,14.647
49111170,-0.489,-0.525,0.742,6.02,36.277,25.97
49111170,-0.463,-0.448,0.8,11.287,32.41,21.035
49111190,-0.469,-0.458,0.8,7.98,29.942,16.485
49111190,-0.475,-0.486,0.794,7.332,27.23,15.732
49111210,-0.423,-0.485,0.769,10.587,21.857,17.447
49111210,-0.375,-0.494,0.721,13.352,19.512,19.075
49111230,-0.381,-0.526,0.685,17.412,18.672,18.882
49111230,-0.354,-0.57,0.659,22.365,20.02,18.865
49111250,-0.333,-0.54,0.693,29.627,22.382,19.267
49111250,-0.349,-0.446,0.723,33.547,26.722,18.795
49111260,-0.454,-0.42,0.783,33.705,31.045,17.412
49111270,-0.668,-0.419,0.824,33.197,29.505,16.257
49111280,-0.69,-0.335,0.813,35.157,18.987,15.802
49111290,-0.647,-0.283,0.816,35.805,11.095,13.247
49111300,-0.664,-0.304,0.795,35.315,4.585,15.82
49111310,-0.658,-0.265,0.821,37.082,-0.49,14.332
49111320,-0.709,-0.208,0.899,35.385,-4.707,9.257
49111330,-0.695,-0.207,0.955,27.72,-11.06,2.135
49111340,-0.571,-0.23,0.962,19.652,-16.94,-4.97
49111350,-0.436,-0.243,0.932,13.912,-18.672,-8.54
49111360,-0.322,-0.234,0.9,9.065,-15.872,-7.805
49111370,-0.334,-0.256,0.881,1.627,-9.415,-4.795
49111380,-0.363,-0.3,0.862,-4.007,-3.552,-4.55
49111390,-0.396,-0.316,0.845,-6.615,0.42,-4.637
49111400,-0.527,-0.323,0.86,-9.66,1.19,-2.17
49111410,-0.587,-0.344,0.872,-13.615,-2.502,-4.025
49111420,-0.572,-0.368,0.85,-16.765,-7.927,-8.925
49111430,-0.596,-0.405,0.829,-19.145,-13.79,-13.107
49111440,-0.59,-0.43,0.807,-19.145,-20.86,-16.625
49111450,-0.494,-0.454,0.779,-16.257,-28.735,-17.307
49111460,-0.413,-0.459,0.78,-9.135,-33.985,-12.022
49111470,-0.354,-0.419,0.785,-4.62,-35.98,-6.195
49111480,-0.33,-0.381,0.784,-2.31,-32.322,-6.352
49111490,-0.313,-0.367,0.768,-0.612,-27.195,-6.51
49111500,-0.335,-0.361,0.76,2.275,-19.512,-5.407
49111510,-0.385,-0.376,0.791,4.725,-14.14,-1.942
49111520,-0.425,-0.373,0.867,6.3,-10.675,-0.332
49111530,-0.499,-0.342,0.934,4.392,-10.885,-2.117
49111540,-0.573,-0.317,0.958,-1.26,-15.855,-4.777
49111550,-0.571,-0.31,0.976,-6.877,-24.587,-7
49111560,-0.602,-0.287,1.003,-12.127,-32.777,-9.537
49111570,-0.647,-0.275,1.006,-19.862,-43.627,-13.58
49111580,-0.635,-0.307,0.979,-28.455,-56.647,-16.59
49111580,-0.61,-0.346,0.964,-35.455,-71.26,-19.057
49111600,-0.517,-0.325,0.974,-41.457,-82.845,-21.402
49111600,-0.438,-0.311,0.96,-49.98,-92.085,-23.03
49111620,-0.334,-0.342,0.919,-57.697,-98.227,-22.925
49111620,-0.25,-0.388,0.851,-62.317,-100.52,-19.565
49111640,-0.205,-0.455,0.757,-59.412,-98.105,-14.315
49111640,-0.168,-0.443,0.721,-50.312,-93.957,-9.135
49111660,-0.112,-0.422,0.716,-43.365,-85.942,-4.48
49111660,-0.089,-0.457,0.73,-38.307,-74.305,-1.785
49111670,-0.091,-0.475,0.745,-37.275,-62.72,-0.14
49111680,-0.095,-0.483,0.721,-38.342,-55.492,0.962
49111690,-0.038,-0.471,0.69,-37.012,-47.32,1.662
49111700,0.015,-0.45,0.711,-33.967,-34.685,5.04
49111710,-0.014,-0.452,0.724,-37.555,-19.687,9.502
49111720,-0.073,-0.5,0.729,-40.39,-7.14,7.525
49111730,-0.13,-0.538,0.748,-40.757,1.82,5.74
49111740,-0.204,-0.576,0.754,-38.29,5.915,6.772
49111750,-0.266,-0.623,0.756,-28.56,6.142,9.362
49111760,-0.31,-0.62,0.778,-15.54,1.82,11.917
49111770,-0.336,-0.58,0.786,-6.982,-5.355,13.982
49111780,-0.319,-0.548,0.794,-2.362,-11.445,14.49
49111790,-0.31,-0.534,0.801,-0.805,-16.975,15.05
49111800,-0.289,-0.513,0.838,-0.385,-21.122,16.03
49111810,-0.285,-0.48,0.881,-2.502,-24.955,17.395
49111820,-0.293,-0.488,0.914,-8.085,-28.07,18.235
49111830,-0.287,-0.536,0.908,-12.145,-30.835,17.955
49111840,-0.297,-0.583,0.892,-9.957,-34.177,18.515
49111850,-0.257,-0.602,0.856,-2.432,-37.52,17.937
49111860,-0.198,-0.574,0.842,5.722,-37.327,15.505
49111870,-0.179,-0.548,0.816,10.36,-35.35,13.055
49111880,-0.146,-0.519,0.789,12.862,-29.645,9.047
49111890,-0.127,-0.48,0.78,13.212,-23.415,5.687
49111900,-0.134,-0.485,0.755,12.512,-16.642,4.007
49111910,-0.162,-0.511,0.731,15.137,-10.57,1.697
49111920,-0.203,-0.532,0.752,19.53,-8.295,-1.592
49111920,-0.117,-0.477,0.676,29.96,-7.385,-6.247
49111940,-0.171,-0.498,0.74,40.32,-8.347,1.26
49111940,-0.236,-0.485,0.765,42.682,-7.997,6.457
49111960,-0.21,-0.416,0.802,42.805,-9.922,3.272
49111960,-0.183,-0.383,0.84,38.062,-12.302,3.43
49111980,-0.192,-0.421,0.826,29.61,-11.935,8.155
49111980,-0.2,-0.485,0.815,25.515,-9.555,11.55
49112000,-0.182,-0.535,0.806,28.35,-4.007,14.735
49112000,-0.179,-0.561,0.804,36.872,3.675,18.48
49112010,-0.201,-0.564,0.828,48.825,12.827,21.735
49112020,-0.228,-0.539,0.864,61.425,20.632,22.767
49112030,-0.25,-0.495,0.886,71.295,26.162,21.717
49112040,-0.269,-0.46,0.891,77.052,28.595,18.69
49112050,-0.264,-0.436,0.879,79.065,28.7,15.05
49112060,-0.259,-0.424,0.843,79.782,27.282,13.685
49112070,-0.26,-0.418,0.809,81.515,25.76,14.332
49112080,-0.245,-0.386,0.793,85.435,23.607,16.87
49112090,-0.238,-0.323,0.81,88.672,20.457,23.012
49112100,-0.22,-0.252,0.826,88.252,18.34,29.312
49112110,-0.185,-0.195,0.811,82.425,20.072,32.655
49112120,-0.163,-0.174,0.808,74.375,24.342,33.582
49112130,-0.176,-0.159,0.799,66.22,30.117,32.322
49112140,-0.209,-0.149,0.795,59.185,35.07,29.82
49112150,-0.266,-0.131,0.819,55.02,35.77,27.65
49112160,-0.299,-0.116,0.842,49.805,31.097,25.935
49112170,-0.325,-0.126,0.857,45.64,22.837,26.32
49112180,-0.325,-0.129,0.887,44.467,15.12,27.912
49112190,-0.33,-0.11,0.931,42.647,8.417,28.28
49112200,-0.323,-0.085,0.952,36.452,4.2,25.795
49112210,-0.317,-0.09,0.974,30.082,1.872,23.275
49112220,-0.313,-0.094,0.997,21.717,1.592,22.33
49112230,-0.3,-0.096,0.99,14.63,2.712,21.297
49112240,-0.298,-0.117,1,10.797,6.457,21.997
49112250,-0.316,-0.143,1.011,8.872,11.69,23.222
49112260,-0.369,-0.16,1.016,9.677,15.907,24.272
49112270,-0.395,-0.189,1.022,11.077,14.7,25.165
49112280,-0.348,-0.276,1.099,13.79,12.022,26.792
49112290,-0.28,-0.272,1.028,22.295,18.287,27.877
49112300,-0.309,-0.177,1.099,36.365,27.737,27.562
49112310,-0.454,-0.109,1.12,31.57,28.367,28.84
49112320,-0.496,-0.117,1.078,18.095,20.3,25.55
49112330,-0.433,-0.157,1.002,8.89,6.072,21.787
49112330,-0.363,-0.177,0.952,4.2,-3.937,24.027
49112350,-0.304,-0.163,0.942,3.517,-6.72,26.565
49112350,-0.273,-0.126,0.94,4.165,-3.955,26.81
49112360,-0.282,-0.092,0.927,2.835,-0.63,26.337
49112370,-0.269,-0.08,0.928,0.98,2.782,24.692
49112380,-0.262,-0.082,0.93,-1.732,6.177,22.89
49112390,-0.268,-0.08,0.939,-6.335,10.132,20.965
49112400,-0.288,-0.082,0.949,-11.672,13.265,17.867
49112410,-0.28,-0.096,0.96,-15.505,17.185,14.612
49112420,-0.3,-0.119,0.973,-19.302,21.052,13.947
49112430,-0.366,-0.135,0.975,-22.715,23.292,14.402
49112440,-0.44,-0.187,0.942,-21.77,20.947,17.045
49112450,-0.476,-0.172,0.951,-16.45,15.61,15.54
49112460,-0.503,-0.161,0.977,-20.23,5.722,7.28
49112470,-0.4,-0.224,0.878,-21.787,1.26,-0.14
49112480,-0.421,-0.222,0.885,-15.645,0.77,-0.245
49112490,-0.51,-0.183,0.898,-14.122,-4.357,3.465
49112500,-0.522,-0.212,0.876,-11.637,-11.917,3.517
49112510,-0.462,-0.219,0.855,-6.755,-20.825,0.735
49112520,-0.404,-0.189,0.858,-4.882,-23.695,1.645
49112530,-0.412,-0.179,0.875,-4.13,-24.01,4.06
49112540,-0.392,-0.155,0.875,-3.08,-21.437,3.01
49112550,-0.406,-0.154,0.92,-1.907,-18.76,3.377
49112560,-0.439,-0.162,0.925,-4.06,-21.385,3.36
49112570,-0.404,-0.163,0.943,-4.637,-25.48,1.487
49112580,-0.385,-0.18,0.943,-3.132,-29.61,0.927
49112590,-0.376,-0.19,0.933,0.682,-34.335,-1.732
49112600,-0.329,-0.168,0.92,5.477,-37.45,-5.95
49112610,-0.227,-0.138,0.926,7.017,-32.9,-6.527
49112620,-0.252,-0.141,0.922,3.657,-22.977,-2.782
49112630,-0.246,-0.135,0.92,-0.682,-14.402,-1.54
49112640,-0.224,-0.159,0.907,-2.292,-4.795,2.572
49112650,-0.267,-0.184,0.902,-4.27,-0.367,7.28
49112660,-0.264,-0.206,0.892,-4.515,3.605,6.685
49112670,-0.258,-0.203,0.908,-3.622,6.317,3.342
49112670,-0.284,-0.203,0.901,-4.637,7.927,0.542
49112690,-0.294,-0.204,0.879,-2.45,8.557,-1.417
49112690,-0.307,-0.193,0.893,2.03,9.415,-0.612
49112710,-0.333,-0.17,0.909,3.29,8.522,1.417
49112710,-0.338,-0.147,0.914,1.872,8.085,4.077
49112730,-0.331,-0.145,0.923,-0.84,7.542,7.315
49112730,-0.328,-0.156,0.934,-4.655,8.54,9.712
49112750,-0.233,-0.156,0.957,-7.402,15.19,10.92
49112750,-0.321,-0.197,0.987,-13.895,26.25,16.887
49112760,-0.438,-0.205,0.921,-20.387,26.775,16.625
49112770,-0.38,-0.218,0.9,-16.012,25.532,12.442
49112780,-0.409,-0.229,0.915,-7.752,21.402,15.242
49112790,-0.412,-0.191,0.905,-7.717,19.337,11.812
49112800,-0.468,-0.19,0.889,-9.502,16.152,6.912
49112810,-0.508,-0.213,0.831,-6.3,5.6,0.77
49112820,-0.396,-0.2,0.814,4.935,-2.887,-4.27
49112830,-0.331,-0.191,0.843,15.102,-4.445,-4.585
49112840,-0.362,-0.145,0.885,17.465,-1.575,-3.552
49112850,-0.4,-0.154,0.874,14.227,-0.175,-1.61
49112860,-0.386,-0.184,0.875,14.787,-0.297,-4.025
49112870,-0.37,-0.181,0.897,16.31,0.28,-5.355
49112880,-0.364,-0.161,0.897,16.572,1.645,-4.952
49112890,-0.386,-0.127,0.896,17.955,5.11,-3.937
49112900,-0.447,-0.109,0.952,17.202,4.865,-3.482
49112910,-0.462,-0.126,0.975,11.637,0.717,-4.112
49112920,-0.45,-0.167,0.986,5.88,-5.075,-5.845
49112930,-0.438,-0.183,0.977,2.782,-10.78,-8.155
49112940,-0.416,-0.169,0.964,1.295,-15.4,-10.237
49112950,-0.405,-0.174,0.928,1.592,-20.177,-9.73
49112960,-0.401,-0.188,0.918,6.055,-23.642,-8.33
49112970,-0.39,-0.173,0.909,8.347,-26.32,-9.292
49112980,-0.39,-0.171,0.894,9.362,-27.23,-10.92
49112990,-0.402,-0.179,0.883,10.78,-28.84,-11.987
49113000,-0.406,-0.197,0.873,12.25,-30.415,-13.072
49113010,-0.421,-0.219,0.865,14.805,-33.845,-14.402
49113020,-0.444,-0.255,0.836,19.74,-37.677,-15.032
49113030,-0.506,-0.309,0.808,28.63,-42.105,-15.172
49113030,-0.704,-0.403,0.785,42.28,-59.307,-16.782
49113050,-0.885,-0.517,0.781,62.527,-88.69,-22.365
49113050,-0.961,-0.59,0.794,92.942,-130.165,-27.72
49113070,-1.043,-0.618,0.818,130.287,-180.582,-31.762
49113070,-0.983,-0.504,0.824,168,-226.8,-38.937
49113080,-0.71,-0.222,0.825,197.19,-267.05,-43.522
49113090,-0.404,0.021,0.853,205.992,-291.602,-36.925
49113100,-0.146,0.119,0.785,199.447,-293.16,-27.107
49113110,0.091,0.17,0.763,191.082,-277.025,-21.77
49113120,0.323,0.185,0.821,183.347,-245.402,-11.987
49113130,0.449,0.188,0.825,174.545,-201.267,5.687
49113140,0.566,0.275,0.828,173.862,-143.01,19.74
49113150,0.55,0.406,0.884,166.372,-81.497,37.852
49113160,0.456,0.461,0.856,146.125,-27.002,55.265
49113170,0.349,0.467,0.871,127.26,14.682,56.892
49113180,0.221,0.478,0.882,109.742,36.242,51.555
49113190,0.168,0.503,0.887,93.17,40.53,47.127
49113200,0.148,0.5,0.859,77.192,34.282,46.095
49113210,0.186,0.534,0.88,63.91,22.627,39.9
49113220,0.206,0.55,0.866,46.83,8.767,35.577
49113230,0.274,0.557,0.849,30.135,-2.537,28.805
49113240,0.328,0.573,0.848,12.25,-8.05,24.587
49113250,0.354,0.572,0.818,-7.525,-8.19,21.017
49113260,0.404,0.575,0.828,-27.09,-2.747,14.84
49113270,0.414,0.531,0.793,-48.247,4.69,9.292
49113280,0.43,0.483,0.8,-63.052,15.715,2.975
49113290,0.389,0.422,0.757,-75.32,27.107,1.697
49113300,0.358,0.356,0.766,-79.94,37.1,-0.35
49113310,0.281,0.31,0.793,-79.59,44.31,0.56
49113320,0.174,0.268,0.83,-76.615,46.095,1.54
49113330,0.08,0.238,0.879,-72.327,40.985,-0.315
49113340,0.005,0.193,0.921,-68.547,30.957,-3.99
49113350,-0.036,0.13,0.958,-63.42,15.767,-7.105
49113360,-0.029,0.073,0.976,-55.685,-0.367,-6.002
49113370,0.008,0.042,0.991,-42.91,-13.93,0.122
49113380,0.065,-0.015,1.026,-26.687,-17.85,9.922
49113390,0.06,0,1.029,-7,-17.412,19.967
49113400,0.11,0.057,1.169,7.297,-10.605,27.632
49113410,0.077,0.086,1.122,3.377,7.175,35.892
49113420,-0.009,0.145,1.202,-0.105,17.657,29.68
49113420,-0.05,0.175,1.212,-18.62,24.43,22.732
49113440,-0.064,0.091,1.125,-40.74,25.34,19.915
49113440,-0.06,-0.02,1.097,-44.677,19.355,11.83
49113460,-0.034,-0.055,1.071,-39.287,12.6,5.932
49113460,-0.073,-0.064,1.064,-23.572,2.747,3.132
49113480,-0.06,-0.006,1.031,-4.567,-9.782,0.402
49113480,-0.015,0.108,1.009,5.442,-25.41,0.612
49113500,0.034,0.182,0.976,5.53,-39.34,0.035
49113500,0.131,0.203,0.956,-0.472,-44.887,-2.52
49113510,0.2,0.19,0.929,-7.14,-40.302,-3.062
49113520,0.198,0.16,0.922,-10.587,-31.01,-2.905
49113530,0.192,0.149,0.921,-13.09,-20.037,-4.567
49113540,0.185,0.14,0.932,-13.387,-9.485,-9.222
49113550,0.181,0.131,0.936,-11.462,0.665,-14.07
49113560,0.153,0.122,0.936,-9.52,9.187,-15.645
49113570,0.132,0.118,0.93,-5.88,16.695,-14.805
49113580,0.103,0.105,0.942,0.962,22.557,-12.162
49113590,0.078,0.108,0.946,8.05,28.787,-11.217
49113600,0.026,0.13,0.951,13.842,32.567,-13.072
49113610,0.018,0.165,0.948,17.902,34.475,-16.45
49113620,0.016,0.189,0.958,17.43,35.455,-17.745
49113630,0.029,0.232,0.956,11.865,36.242,-18.042
49113640,0.007,0.246,0.992,2.8,39.62,-17.64
49113650,-0.027,0.176,0.978,-5.985,41.93,-15.96
49113660,-0.054,0.152,0.997,-4.305,44.117,-14.997
49113670,-0.087,0.165,1.026,-0.297,42.595,-11.637
49113680,-0.114,0.162,1.054,0.997,40.092,-10.64
49113690,-0.162,0.112,1.059,2.835,35.35,-15.085
49113700,-0.203,0.055,1.052,7.385,28.35,-23.73
49113710,-0.145,0.053,0.998,15.627,20.545,-30.502
49113720,-0.138,0.123,1.009,25.147,13.842,-29.907
49113730,-0.152,0.188,1.022,25.007,3.587,-25.83
49113740,-0.154,0.217,1.025,15.977,-7.595,-20.282
49113750,-0.165,0.14,1.03,3.902,-21.402,-12.022
49113760,-0.04,0.047,1.015,-0.857,-29.4,-6.492
49113760,0.052,0.04,0.95,2.52,-26.197,-3.832
49113780,0.03,0.102,1.001,7.192,-20.667,-3.885
49113780,-0.022,0.155,1.012,2.782,-15.855,-7.28
49113800,-0.066,0.159,1.016,-9.187,-18.76,-14
49113800,0.012,0.127,0.961,-19.705,-19.267,-21.315
49113820,-0.018,0.118,0.977,-20.58,-19.337,-23.502
49113820,-0.051,0.138,0.981,-23.31,-22.645,-22.522
49113830,0.008,0.147,0.978,-26.6,-24.57,-23.712
49113840,0.022,0.137,0.986,-28.647,-25.2,-22.995
49113850,0.055,0.159,0.942,-29.645,-23.887,-20.982
49113860,0.098,0.205,0.943,-30.17,-23.677,-16.712
49113870,0.154,0.246,0.934,-35.455,-22.54,-12.477
49113880,0.237,0.264,0.94,-44.222,-18.252,-9.782
49113890,0.238,0.251,0.967,-57.68,-11.252,-4.357
49113900,0.29,0.183,0.941,-71.61,-0.315,-0.315
49113910,0.37,0.065,0.896,-82.25,17.08,5.46
49113920,0.396,-0.067,0.902,-86.94,44.8,16.047
49113930,0.282,-0.207,0.903,-78.61,69.825,25.392
49113940,0.357,-0.35,0.914,-52.517,85.75,34.65
49113950,0.438,-0.388,0.957,-13.37,107.467,53.882
49113960,0.311,-0.193,1.13,20.947,139.702,56.297
49113970,0.208,-0.057,1.226,24.92,172.13,42.595
49113980,0.124,-0.127,1.189,14.595,204.085,23.782
49113990,0.039,-0.208,1.122,12.635,227.797,8.4
49114000,-0.106,-0.163,1.068,20.247,239.19,0.91
49114010,-0.266,-0.063,1.074,29.75,237.16,-0.35
49114020,-0.388,0.034,1.053,30.905,224.875,-1.102
49114030,-0.431,0.097,0.993,27.265,203.717,-4.532
49114040,-0.48,0.101,0.911,26.74,179.585,-6.685
49114050,-0.542,0.15,0.877,28.525,152.285,-10.955
49114060,-0.554,0.219,0.847,26.267,124.495,-16.03
49114070,-0.542,0.222,0.817,28.122,99.522,-20.545
49114080,-0.513,0.259,0.804,27.72,82.197,-26.652
49114090,-0.459,0.322,0.762,22.12,71.907,-33.407
49114100,-0.483,0.326,0.828,15.557,68.897,-32.952
49114110,-0.476,0.331,0.76,-3.097,69.982,-36.435
49114120,-0.505,0.268,0.754,-9.257,74.62,-41.02
49114130,-0.575,0.244,0.746,-12.722,76.58,-38.395
49114140,-0.637,0.242,0.76,-15.067,73.587,-34.877
49114150,-0.649,0.225,0.759,-17.692,68.425,-30.625
49114160,-0.696,0.222,0.752,-17.885,60.392,-27.475
49114170,-0.706,0.245,0.738,-18.917,44.73,-22.242
49114170,-0.638,0.252,0.719,-21.49,33.407,-15.47
49114190,-0.608,0.219,0.687,-23.59,27.317,-12.582
49114190,-0.532,0.205,0.701,-29.137,18.305,-14
49114210,-0.515,0.092,0.632,-28.91,17.08,-10.115
49114210,-0.467,0.114,0.64,-19.197,20.79,-10.587
49114230,-0.495,0.11,0.673,-13.807,22.802,-3.832
49114230,-0.556,0.086,0.703,-11.007,25.287,-2.275
49114250,-0.623,0.122,0.755,-7.945,23.135,-5.057
49114250,-0.668,0.143,0.799,-11.532,14.192,-9.1
49114260,-0.662,0.139,0.836,-15.4,1.487,-14.07
49114270,-0.634,0.153,0.865,-25.62,-14.017,-17.885
49114280,-0.536,0.106,0.879,-42.822,-22.61,-19.67
49114290,-0.433,0.08,0.85,-47.337,-15.067,-21.962
49114300,-0.455,0.043,0.895,-50.767,-3.202,-21.962
49114310,-0.506,-0.002,0.882,-57.855,10.99,-16.345
49114320,-0.369,-0.071,0.941,-56.612,30.415,-8.505
49114330,-0.401,-0.103,0.92,-54.18,65.45,4.62
49114340,-0.643,-0.03,0.957,-56.857,86.555,13.125
49114350,-0.743,0.054,0.939,-68.915,93.765,17.447
49114360,-0.787,0.075,0.904,-88.322,90.877,18.602
49114370,-0.727,0.035,0.83,-109.392,81.235,13.755
49114380,-0.503,-0.019,0.694,-125.667,86.87,9.012
49114390,-0.47,-0.036,0.616,-133.332,106.54,9.205
49114400,-0.535,-0.054,0.552,-139.65,125.405,13.09
49114410,-0.704,-0.1,0.56,-138.022,136.657,22.68
49114420,-0.886,-0.165,0.516,-136.062,128.065,30.975
49114430,-1.002,-0.18,0.536,-125.825,110.022,18.672
49114440,-1.138,-0.341,0.542,-120.33,73.202,7.787
49114450,-1.302,-0.543,0.516,-82.005,18.235,26.005
49114460,-0.946,-0.274,0.563,-46.497,-20.422,-20.527
49114470,-0.878,-0.119,0.573,-33.897,-49.105,-47.11
49114480,-0.87,-0.145,0.576,-32.252,-69.37,-65.695
49114490,-0.758,-0.206,0.52,-35.157,-81.322,-69.877
49114500,-0.751,-0.213,0.564,-30.432,-89.215,-53.235
49114510,-0.708,-0.173,0.571,-29.277,-94.255,-52.57
49114510,-0.607,-0.155,0.638,-31.832,-91.122,-49.175
49114530,-0.466,-0.308,0.68,-40.757,-75.95,-38.92
49114530,-0.504,-0.398,0.721,-37.257,-49.14,-28.052
49114550,-0.678,-0.329,0.815,-25.585,-31.762,-25.13
49114550,-0.915,-0.305,0.876,-27.405,-39.462,-23.922
49114570,-0.946,-0.298,0.846,-38.062,-70.787,-28.997
49114570,-0.812,-0.353,0.736,-41.387,-107.362,-35.227
49114580,-0.502,-0.321,0.66,-37.992,-130.445,-35.21
49114590,-0.44,-0.453,0.627,-30.957,-126.735,-16.38
49114600,-0.619,-0.435,0.653,-10.01,-123.672,-1.96
49114610,-0.627,-0.372,0.697,2.905,-126.35,4.462
49114620,-0.497,-0.312,0.729,2.73,-131.6,5.057
49114630,-0.445,-0.29,0.708,-5.337,-130.305,2.992
49114640,-0.376,-0.26,0.776,-14.822,-125.055,-2.625
49114650,-0.272,-0.316,0.745,-26.057,-112.997,-6.667
49114660,-0.368,-0.419,0.824,-21,-100.695,-7.945
49114670,-0.401,-0.395,0.807,-7.105,-100.712,-11.042
49114680,-0.23,-0.25,0.854,6.422,-96.075,-13.895
49114690,-0.004,-0.28,0.987,0.035,-71.382,0.122
49114700,-0.138,-0.459,0.92,-2.222,-22.662,5.11
49114710,-0.45,-0.413,0.979,3.797,-8.365,-3.552
49114720,-0.389,-0.279,0.947,4.007,-13.772,-6.177
49114730,-0.318,-0.291,0.889,5.845,-19.705,-0.612
49114740,-0.32,-0.33,0.865,8.12,-15.627,2.87
49114750,-0.305,-0.289,0.868,8.487,-4.445,1.067
49114760,-0.338,-0.237,0.881,5.197,8.435,-0.28
49114770,-0.459,-0.24,0.903,-1.505,12.477,-0.052
49114780,-0.469,-0.249,0.909,-9.905,8.557,-3.43
49114790,-0.479,-0.253,0.886,-20.16,-1.277,-5.652
49114800,-0.427,-0.274,0.865,-22.872,-8.575,-6.562
49114810,-0.366,-0.286,0.862,-24.255,-11.025,-4.252
49114820,-0.382,-0.312,0.86,-25.427,-8.925,-1.207
49114830,-0.353,-0.29,0.86,-25.357,-3.22,-2.327
49114840,-0.338,-0.304,0.922,-29.645,2.537,-2.747
49114850,-0.31,-0.341,0.877,-35.28,15.137,0.892
49114860,-0.368,-0.381,0.869,-32.69,30.922,4.077
49114870,-0.521,-0.342,0.835,-29.015,35.927,5.6
49114880,-0.543,-0.359,0.804,-28.35,28.577,6.09
49114890,-0.496,-0.403,0.764,-25.165,19.372,4.567
49114900,-0.521,-0.374,0.756,-18.042,11.48,2.257
49114910,-0.526,-0.338,0.744,-13.545,1.82,-0.28
49114920,-0.489,-0.336,0.731,-10.972,-6.177,-1.452
49114920,-0.469,-0.328,0.728,-9.222,-12.985,-3.15
49114940,-0.478,-0.328,0.736,-8.89,-17.92,-5.477
49114940,-0.468,-0.333,0.736,-8.26,-23.922,-8.085
49114960,-0.467,-0.357,0.738,-6.492,-29.96,-8.33
49114960,-0.498,-0.384,0.738,-3.622,-37.992,-8.977
49114980,-0.452,-0.386,0.732,1.575,-46.41,-13.562
49114980,-0.381,-0.373,0.732,7.63,-51.1,-16.572
49115000,-0.368,-0.386,0.761,12.232,-50.627,-15.907
49115000,-0.33,-0.382,0.808,13.282,-46.62,-17.36
49115010,-0.256,-0.454,0.845,16.012,-36.032,-17.797
49115020,-0.327,-0.47,0.872,24.937,-24.622,-15.365
49115030,-0.369,-0.408,0.924,33.757,-21.087,-15.522
49115040,-0.361,-0.377,0.93,35.805,-22.33,-14.455
49115050,-0.368,-0.374,0.907,33.775,-25.287,-14.157
49115060,-0.326,-0.37,0.912,31.097,-29.05,-13.002
49115070,-0.271,-0.356,0.902,27.3,-28.98,-7.42
49115080,-0.264,-0.339,0.92,22.645,-24.57,-1.4
49115090,-0.259,-0.332,0.923,14.367,-18.112,1.785
49115100,-0.282,-0.356,0.92,6.195,-13.965,3.01
49115110,-0.283,-0.358,0.895,2.992,-12.792,3.552
49115120,-0.335,-0.373,0.879,3.605,-15.575,5.582
49115130,-0.35,-0.368,0.879,3.5,-22.925,5.425
49115140,-0.265,-0.327,0.871,4.462,-26.775,4.147
49115150,-0.209,-0.32,0.856,6.352,-24.43,5.022
49115160,-0.221,-0.315,0.858,6.212,-17.622,6.44
49115170,-0.255,-0.302,0.879,3.552,-12.652,6.912
49115180,-0.274,-0.305,0.887,0.56,-9.135,6.895
49115190,-0.274,-0.32,0.895,0.507,-7.35,6.527
49115200,-0.275,-0.319,0.899,3.447,-5.687,6.055
49115210,-0.299,-0.333,0.902,6.562,-5.827,6.58
49115220,-0.345,-0.319,0.905,8.645,-6.79,4.812
49115230,-0.383,-0.287,0.909,11.06,-11.795,-0.035
49115240,-0.409,-0.261,0.905,14.7,-21.612,-2.66
49115250,-0.382,-0.245,0.893,14.892,-34.51,-5.53
49115260,-0.32,-0.247,0.878,13.177,-44.695,-7.087
49115260,-0.283,-0.249,0.871,13.317,-49.875,-6.142
49115280,-0.265,-0.247,0.865,14,-49.087,-4.672
49115280,-0.19,-0.256,0.88,15.82,-43.505,-4.27
49115300,-0.152,-0.26,0.894,16.817,-28.35,-1.505
49115300,-0.28,-0.245,0.947,15.802,-17.237,-1.312
49115320,-0.251,-0.211,0.974,13.667,-12.092,-4.567
49115320,-0.216,-0.221,0.999,9.992,-7.752,-3.5
49115330,-0.217,-0.238,1.006,3.43,-0.42,-1.785
49115340,-0.238,-0.237,1.029,-2.712,6.667,-2.73
49115350,-0.261,-0.239,1.036,-7.612,12.355,-3.097
49115360,-0.303,-0.268,1.008,-11.707,12.425,-1.435
49115370,-0.297,-0.292,0.97,-12.197,9.117,-1.015
49115380,-0.297,-0.28,0.968,-7.612,5.757,-0.927
49115390,-0.331,-0.244,0.992,-4.847,1.33,-2.555
49115400,-0.359,-0.221,1.005,-7.525,-5.687,-7.385
49115410,-0.433,-0.203,1.021,-13.79,-17.885,-13.387
49115420,-0.508,-0.183,1.042,-25.62,-38.202,-17.675
49115430,-0.423,-0.207,1.045,-39.48,-58.397,-22.557
49115440,-0.319,-0.229,1.069,-48.16,-62.142,-29.417
49115450,-0.372,-0.212,1.101,-58.66,-63.052,-35.402
49115460,-0.349,-0.232,1.073,-69.562,-60.672,-42.367
49115470,-0.282,-0.25,1.067,-78.277,-58.432,-47.425
49115480,-0.281,-0.294,0.987,-83.422,-60.077,-43.137
49115490,-0.251,-0.312,0.932,-78.697,-62.125,-34.912
49115500,-0.226,-0.268,0.915,-70.927,-65.852,-22.242
49115510,-0.191,-0.247,0.878,-71.19,-68.285,-12.547
49115520,-0.114,-0.297,0.821,-77.367,-65.187,-12.512
49115530,-0.056,-0.371,0.775,-82.757,-57.295,-18.987
49115540,-0.067,-0.39,0.814,-86.87,-47.792,-26.11
49115550,-0.15,-0.435,0.815,-93.17,-42.665,-28.962
49115560,-0.13,-0.518,0.769,-93.782,-40.687,-32.095
49115570,-0.128,-0.535,0.77,-84.262,-42.245,-27.877
49115580,-0.15,-0.521,0.757,-76.055,-46.305,-18.27
49115590,-0.067,-0.498,0.74,-70.42,-48.965,-15.592
49115600,0.022,-0.507,0.702,-68.092,-44.52,-14.262
49115610,-0.022,-0.522,0.702,-64.225,-36.312,-14.262
49115620,-0.093,-0.505,0.702,-62.667,-33.32,-17.465
49115630,-0.064,-0.517,0.706,-62.615,-34.79,-24.727
49115640,-0.068,-0.561,0.726,-63.262,-33.967,-31.377
49115650,-0.107,-0.637,0.75,-60.83,-34.825,-37.397
49115660,-0.131,-0.699,0.779,-52.15,-39.392,-38.097
49115670,-0.107,-0.684,0.827,-42.875,-47.985,-32.462
49115670,-0.067,-0.676,0.814,-39.585,-54.74,-27.72
49115690,-0.007,-0.681,0.806,-35.052,-57.242,-26.285
49115690,0.022,-0.673,0.811,-32.48,-55.282,-23.922
49115710,0.025,-0.662,0.815,-32.182,-51.152,-25.847
49115710,0.047,-0.627,0.854,-34.177,-47.092,-28.595
49115720,0.034,-0.628,0.875,-38.43,-45.045,-29.942
49115730,0.079,-0.639,0.921,-43.015,-42.122,-34.44
49115740,0.179,-0.657,0.982,-47.88,-38.972,-38.57
49115750,0.304,-0.673,0.935,-51.362,-29.12,-36.837
49115760,0.28,-0.614,0.907,-53.847,-14.332,-32.287
49115770,0.071,-0.468,0.913,-61.88,-11.392,-25.585
49115780,0.352,-0.5,0.749,-86.047,-15.12,-22.68
49115790,0.372,-0.549,0.597,-95.672,5.985,-19.145
49115800,0.151,-0.575,0.608,-88.322,25.235,-14.98
49115810,0.056,-0.509,0.575,-77.717,28.262,-12.617
49115820,0.05,-0.491,0.535,-67.847,22.54,-8.715
49115830,0.023,-0.524,0.481,-60.742,14.665,-8.837
49115840,0.02,-0.571,0.446,-47.407,4.48,-9.117
49115850,0.09,-0.624,0.442,-24.167,-2.467,-3.815
49115860,0.077,-0.64,0.488,1.032,-4.165,0.647
49115870,0.036,-0.639,0.584,15.452,-7.192,-1.277
49115880,0.044,-0.642,0.635,14.192,-13.247,-7.98
49115890,0.076,-0.684,0.643,6.16,-20.16,-13.65
49115900,0.127,-0.733,0.642,-0.227,-23.047,-17.377
49115910,0.225,-0.763,0.679,-2.485,-18.935,-18.27
49115920,0.379,-0.811,0.686,-2.03,2.555,-12.845
49115930,0.096,-0.897,0.759,-0.472,27.055,1.032
49115940,0.003,-0.919,0.765,3.465,32.55,10.99
49115950,0.083,-0.899,0.718,14.315,31.202,18.497
49115960,0.036,-0.839,0.698,27.195,33.652,26.46
49115970,-0.094,-0.749,0.763,34.405,29.26,28.63
49115980,0,-0.731,0.716,30.362,15.4,27.597
49115990,0.091,-0.733,0.7,28.735,8.68,23.905
49116000,-0.037,-0.697,0.665,31.605,5.705,18.427
49116010,-0.009,-0.596,0.696,33.862,-6.667,10.237
49116010,0.156,-0.592,0.667,33.372,-9.852,6.982
49116030,0.066,-0.589,0.68,31.657,-6.072,8.977
49116030,0.068,-0.58,0.68,29.802,-3.115,10.867
49116050,0.06,-0.601,0.684,29.96,-2.187,12.127
49116050,-0.018,-0.61,0.687,30.887,-2.59,14.14
49116070,-0.046,-0.582,0.686,30.957,-8.592,15.312
49116070,-0.025,-0.569,0.739,30.012,-17.412,17.237
49116080,0.272,-0.631,0.798,26.075,-14.997,20.492
49116090,0.129,-0.791,0.885,25.427,10.657,31.657
49116100,-0.175,-0.819,0.976,21.56,10.552,35.49
49116110,-0.025,-0.758,0.96,21.735,4.97,26.565
49116120,-0.1,-0.734,0.895,19.74,-3.412,23.607
49116130,-0.087,-0.67,0.844,21.525,-13.895,19.967
49116140,0.007,-0.6,0.776,25.742,-20.195,15.277
49116150,0.029,-0.543,0.766,27.125,-18.707,10.85
49116160,0.026,-0.52,0.765,23.817,-13.632,6.317
49116170,0.032,-0.506,0.775,18.777,-7.07,0.752
49116180,0.012,-0.524,0.782,12.757,-3.115,-0.42
49116190,0.013,-0.553,0.804,9.502,-0.262,0.98
49116200,0.003,-0.591,0.837,10.745,0.997,1.4
49116210,-0.013,-0.608,0.841,14.612,0.14,-0.945
49116220,-0.007,-0.588,0.847,19.267,-0.525,-2.87
49116230,-0.014,-0.564,0.826,21.665,-1.452,-4.252
49116240,-0.01,-0.55,0.805,21.577,-2.327,-5.512
49116250,0.022,-0.565,0.802,21.192,-2.065,-5.267
49116260,0.046,-0.581,0.81,20.86,-0.42,-3.29
49116270,0.082,-0.581,0.816,21.525,1.522,-1.82
49116280,0.139,-0.57,0.823,21.577,6.3,-2.782
49116290,0.159,-0.545,0.824,21.087,11.462,-4.077
49116300,0.185,-0.518,0.815,20.3,18.147,-4.672
49116310,0.227,-0.467,0.806,20.597,25.987,-3.85
49116320,0.208,-0.43,0.809,18.9,35.227,0.28
49116330,0.196,-0.406,0.825,13.825,43.137,4.637
49116340,0.228,-0.408,0.81,7.402,53.305,8.26
49116350,0.207,-0.403,0.793,1.54,64.225,13.09
49116360,0.072,-0.467,0.808,3.08,68.985,25.515
49116370,0.272,-0.394,0.865,-2.345,74.83,27.09
49116380,0.226,-0.453,0.888,-19.04,92.82,30.87
49116390,0.095,-0.497,0.795,-30.94,100.66,33.145
49116400,0.214,-0.444,0.801,-32.445,111.405,32.112
49116410,0.096,-0.435,0.836,-37.677,120.82,36.592
49116410,-0.067,-0.531,0.839,-45.587,127.715,36.732
49116420,-0.206,-0.619,0.863,-49.945,126.735,30.52
49116430,-0.358,-0.685,0.824,-52.727,117.075,22.645
49116440,-0.525,-0.738,0.796,-51.572,97.562,9.677
49116450,-0.493,-0.671,0.784,-46.427,72.45,-6.65
49116460,-0.454,-0.577,0.78,-40.705,45.272,-13.457
49116470,-0.185,-0.483,0.712,-41.58,36.365,-19.337
49116480,-0.25,-0.497,0.669,-43.487,43.155,-11.585
49116490,-0.368,-0.561,0.654,-50.12,52.15,-7.07
49116500,-0.627,-0.838,0.774,-32.69,44.66,9.345
49116510,-0.524,-0.681,0.821,-26.005,33.897,0.087
49116520,-0.586,-0.646,0.795,-39.077,26.25,-1.505
49116530,-0.55,-0.707,0.718,-49.105,17.972,-8.295
49116540,-0.461,-0.734,0.705,-49.717,9.205,-13.475
49116550,-0.392,-0.77,0.702,-45.5,2.712,-16.205
49116560,-0.381,-0.746,0.693,-40.057,-4.76,-16.747
49116570,-0.308,-0.718,0.652,-38.132,-12.092,-22.802
49116580,-0.222,-0.726,0.577,-34.72,-13.667,-25.707
49116590,-0.286,-0.758,0.617,-30.537,-14.122,-23.327
49116600,-0.173,-0.79,0.581,-27.615,-16.31,-23.52
49116610,-0.012,-0.684,0.605,-19.39,-15.435,-20.615
49116620,0.081,-0.675,0.632,-12.792,-6.562,-10.587
49116630,0.103,-0.883,0.536,0.437,9.45,-5.075
49116640,-0.136,-0.897,0.628,14.122,12.442,3.605
49116650,-0.072,-0.684,0.775,25.06,-0.07,0.507
49116660,-0.075,-0.744,0.764,18.41,-10.85,-7.315
49116670,-0.131,-0.822,0.678,9.59,-19.88,-21.647
49116680,-0.07,-0.736,0.698,11.06,-27.947,-39.497
49116690,0.053,-0.674,0.684,8.032,-29.382,-49.63
49116700,0.097,-0.749,0.682,11.165,-21.892,-47.88
49116710,0.141,-0.789,0.667,19.967,-11.007,-46.532
49116720,0.013,-0.8,0.655,33.092,-4.76,-41.982
49116730,-0.026,-0.734,0.628,45.535,-8.4,-43.435
49116740,0.025,-0.709,0.588,54.81,-13.405,-49.682
49116750,0.101,-0.651,0.593,70.577,-15.12,-46.375
49116760,0.18,-0.573,0.526,80.675,-9.607,-36.225
49116760,0.184,-0.505,0.538,82.337,4.13,-21.962
49116780,-0.207,-0.827,0.486,98.735,10.29,10.692
49116780,-0.225,-0.678,0.613,118.317,0.997,25.06
49116800,-0.024,-0.458,0.71,114.345,4.952,19.495
49116800,-0.073,-0.476,0.794,99.68,24.517,36.067
49116820,-0.266,-0.635,0.87,94.255,42.332,57.627
49116820,-0.278,-0.647,0.982,95.55,60.742,53.112
49116830,-0.039,-0.477,1.13,83.527,80.99,50.767
49116840,-0.048,-0.508,1.14,77.297,96.145,84.962
49116850,0.266,-0.409,1.291,51.747,125.3,97.072
49116860,0.383,-0.477,1.045,36.242,182.035,101.955
49116870,0.096,-0.557,1.077,37.485,230.142,116.55
49116880,-0.517,-0.712,0.982,32.2,244.335,130.182
49116890,-0.636,-0.498,1.087,46.812,224.017,122.955
49116900,-0.483,-0.405,1.002,25.777,203.42,99.697
49116910,-0.554,-0.517,0.828,11.025,178.325,91.157
49116920,-0.686,-0.594,0.748,13.177,151.83,65.642
49116930,-0.758,-0.553,0.688,20.545,119.192,38.99
49116940,-0.813,-0.473,0.661,24.552,83.51,9.537
49116950,-0.862,-0.476,0.585,33.162,45.622,-23.94
49116960,-0.862,-0.538,0.505,55.737,8.522,-56.227
49116970,-0.832,-0.487,0.515,91.07,-27.265,-74.357
49116980,-0.789,-0.379,0.595,116.462,-60.06,-87.832
49116990,-0.672,-0.206,0.649,114.817,-84.787,-103.635
49117000,-0.574,-0.162,0.658,98.035,-100.292,-111.072
49117010,-0.509,-0.198,0.638,75.495,-108.832,-107.73
49117020,-0.437,-0.227,0.627,57.487,-110.39,-97.737
49117030,-0.376,-0.226,0.644,44.082,-103.915,-83.737
49117040,-0.363,-0.22,0.679,26.372,-89.127,-70.892
49117050,-0.401,-0.275,0.706,7.7,-72.327,-56.98
49117060,-0.439,-0.377,0.718,-9.345,-55.405,-46.427
49117070,-0.47,-0.443,0.714,-18.007,-42.052,-39.55
49117080,-0.483,-0.477,0.738,-19.407,-32.165,-34.895
49117080,-0.506,-0.476,0.769,-17.22,-27.79,-30.152
49117100,-0.537,-0.469,0.798,-13.807,-26.915,-25.357
49117100,-0.527,-0.459,0.836,-12.267,-28.227,-22.925
49117120,-0.46,-0.415,0.813,-14.297,-29.015,-21.822
49117120,-0.46,-0.509,0.831,-4.182,-30.642,-9.94
49117140,-0.366,-0.383,0.868,-5.39,-28.087,-5.722
49117140,-0.38,-0.347,0.85,-16.537,-23.555,0.122
49117160,-0.383,-0.374,0.823,-21.945,-18.147,8.225
49117160,-0.392,-0.417,0.788,-22.295,-14.927,14.857
49117170,-0.402,-0.441,0.778,-17.622,-13.037,20.02
49117180,-0.407,-0.41,0.772,-13.632,-13.055,23.397
49117190,-0.454,-0.432,0.783,-6.79,-15.295,26.127
49117200,-0.476,-0.388,0.831,-3.85,-23.135,23.467
49117210,-0.549,-0.374,0.845,-5.827,-40.582,21.315
49117220,-0.548,-0.377,0.834,-7.945,-63.367,15.435
49117230,-0.457,-0.364,0.808,-12.285,-85.242,7.63
49117240,-0.415,-0.382,0.783,-16.24,-102.69,1.89
49117250,-0.366,-0.373,0.778,-17.377,-114.502,-6.317
49117260,-0.263,-0.359,0.774,-18.865,-121.345,-14.542
49117270,-0.179,-0.36,0.767,-18.217,-123.235,-19.302
49117280,-0.13,-0.377,0.762,-15.522,-120.435,-20.422
49117290,-0.077,-0.381,0.769,-9.625,-114.17,-18.987
49117300,-0.024,-0.368,0.793,-3.15,-105.175,-14.7
49117310,-0.001,-0.358,0.828,0.35,-93.87,-7.735
49117320,0.002,-0.364,0.871,-0.385,-80.132,-1.277
49117330,-0.002,-0.38,0.907,-4.707,-67.165,3.15
49117340,-0.017,-0.419,0.918,-9.922,-55.79,6.37
49117350,-0.036,-0.461,0.924,-12.232,-46.602,8.277
49117360,-0.055,-0.479,0.934,-10.85,-39.48,8.33
49117370,-0.075,-0.483,0.937,-6.667,-35.472,7.437
49117380,-0.078,-0.479,0.94,-2.24,-31.972,6.16
49117390,-0.1,-0.474,0.941,0.84,-30.135,4.34
49117400,-0.123,-0.471,0.942,2.922,-29.137,1.837
49117410,-0.145,-0.461,0.945,4.55,-32.112,-0.21
49117420,-0.148,-0.442,0.943,4.725,-36.907,-0.507
49117430,-0.132,-0.418,0.945,2.415,-41.562,-0.752
49117440,-0.121,-0.398,0.954,-4.13,-43.242,-1.505
49117450,-0.129,-0.396,0.967,-14.157,-44.135,-2.765
49117460,-0.123,-0.427,0.981,-25.182,-44.047,-3.832
49117470,-0.131,-0.485,0.991,-32.567,-44.065,-4.27
49117480,-0.162,-0.551,1.048,-32.462,-45.307,-2.677
49117490,-0.186,-0.627,1.118,-24.64,-49.595,1.732
49117500,-0.194,-0.701,1.187,-9.152,-55.667,7.455
49117510,-0.166,-0.752,1.21,15.05,-62.72,14.805
49117510,-0.055,-0.746,1.181,48.02,-62.58,25.952
49117530,0.04,-0.671,1.157,86.362,-51.59,41.282
49117530,0.098,-0.54,1.107,124.302,-29.19,57.067
49117550,0.156,-0.387,1.055,160.807,1.68,69.72
49117550,0.171,-0.181,1.008,185.692,37.065,88.987
49117570,0.129,-0.012,0.881,197.207,71.837,109.97
49117570,0.067,0.105,0.789,204.645,106.312,117.25
49117580,-0.052,0.205,0.727,203.262,133.245,118.107
49117590,-0.207,0.265,0.7,194.127,143.587,117.075
49117600,-0.301,0.331,0.734,176.697,138.705,107.485
49117610,-0.478,0.342,0.714,142.31,118.212,94.937
49117620,-0.547,0.342,0.761,108.237,83.492,70.56
49117630,-0.58,0.292,0.777,65.87,33.862,56.14
49117640,-0.536,0.216,0.765,20.02,-21.595,42.84
49117650,-0.409,0.126,0.748,-22.312,-72.292,30.047
49117660,-0.229,0.036,0.729,-61.285,-108.307,19.197
49117670,-0.083,-0.095,0.681,-94.552,-129.832,9.8
49117680,0.043,-0.266,0.646,-112.595,-138.687,6.422
49117690,0.144,-0.434,0.648,-113.82,-136.727,6.37
49117700,0.187,-0.517,0.722,-104.247,-127.505,14.315
49117710,0.189,-0.583,0.774,-90.58,-115.202,21.402
49117720,0.19,-0.576,0.868,-73.937,-100.38,24.062
49117730,0.176,-0.572,0.926,-60.952,-88.707,25.287
49117740,0.162,-0.554,0.979,-49.805,-79.765,24.92
49117750,0.161,-0.557,0.959,-42.91,-73.395,23.1
49117760,0.228,-0.522,1.003,-29.47,-66.5,18.375
49117770,0.248,-0.46,0.981,-31.972,-58.887,25.69
49117780,0.241,-0.474,0.918,-33.985,-47.985,33.53
49117790,0.253,-0.475,0.903,-29.785,-32.55,37.31
49117800,0.246,-0.443,0.88,-28.525,-14.98,41.02
49117810,0.195,-0.424,0.87,-26.145,1.96,44.152
49117820,0.121,-0.411,0.867,-24.605,15.12,46.077
49117830,0.019,-0.422,0.909,-22.575,19.285,46.83
49117830,-0.033,-0.423,0.963,-24.657,16.345,45.08
49117850,-0.1,-0.46,0.972,-30.572,5.74,42.91
49117850,-0.14,-0.532,0.96,-33.267,-7.087,35.402
49117870,-0.201,-0.661,0.995,-18.987,-25.287,31.937
49117870,-0.088,-0.642,1.009,-15.347,-40.915,12.845
49117890,0.023,-0.618,1.04,-5.88,-48.562,-9.292
49117890,0.074,-0.583,1.025,-0.332,-50.4,-14.437
49117910,0.123,-0.58,0.99,13.807,-48.545,-13.772
49117910,0.186,-0.524,1.028,29.697,-40.005,-12.232
49117920,0.217,-0.453,1.022,27.772,-28.017,-8.942
49117930,0.222,-0.438,1.003,22.347,-12.88,-3.99
49117940,0.21,-0.451,0.974,19.932,3.097,1.33
49117950,0.199,-0.405,0.965,17.972,19.127,5.057
49117960,0.142,-0.358,0.947,15.155,31.605,10.43
49117970,0.086,-0.34,0.934,13.492,39.357,13.895
49117980,0.048,-0.328,0.924,11.83,42.945,13.702
49117990,-0.001,-0.332,0.905,10.657,41.632,11.725
49118000,-0.04,-0.339,0.901,13.405,36.015,9.52
49118010,-0.041,-0.326,0.908,19.582,27.387,7.682
49118020,-0.031,-0.302,0.923,26.197,19.705,5.372
49118030,-0.022,-0.274,0.942,31.202,13.965,1.872
49118040,-0.008,-0.247,0.961,33.162,11.13,-2.485
49118050,0.007,-0.224,0.976,32.13,10.465,-6.912
49118060,0.007,-0.215,0.983,29.05,12.145,-10.395
49118070,-0.004,-0.233,0.988,25.83,13.807,-12.635
49118080,-0.02,-0.286,0.969,24.797,14.297,-13.265
49118090,-0.024,-0.357,0.96,29.785,11.97,-14.612
49118100,-0.022,-0.391,0.968,41.965,12.442,-20.3
49118110,-0.01,-0.362,0.998,58.66,15.785,-28.735
49118120,0.011,-0.299,1.042,72.765,21.98,-35.21
49118130,0.02,-0.247,1.062,79.222,28.017,-36.47
49118140,0.014,-0.222,1.046,78.68,33.722,-34.037
49118150,0.012,-0.208,1.004,74.847,39.112,-30.45
49118160,-0.011,-0.194,0.974,69.177,44.992,-25.987
49118170,-0.065,-0.184,0.951,62.65,48.37,-21.21
49118180,-0.108,-0.164,0.936,56.227,50.82,-19.39
49118190,-0.135,-0.133,0.933,49.805,50.085,-19.075
49118200,-0.151,-0.094,0.933,42.997,46.987,-19.722
49118210,-0.151,-0.051,0.94,35.42,41.825,-22.522
49118220,-0.16,-0.023,0.945,26.39,34.615,-24.5
49118230,-0.16,-0.012,0.946,16.765,25.917,-26.53
49118240,-0.153,-0.01,0.94,7.385,17.587,-29.575
49118250,-0.151,-0.011,0.93,-2.485,9.275,-32.865
49118260,-0.153,-0.032,0.91,-11.952,2.047,-36.855
49118260,-0.144,-0.054,0.9,-19.74,-3.272,-42.91
49118280,-0.147,-0.083,0.9,-27.475,-6.842,-48.772
49118280,-0.154,-0.129,0.889,-34.405,-10.78,-53.83
49118300,-0.146,-0.179,0.88,-36.225,-15.155,-56.962
49118300,-0.121,-0.217,0.872,-33.792,-18.83,-57.277
49118320,-0.106,-0.246,0.87,-28.822,-21.297,-54.46
49118320,-0.095,-0.258,0.879,-22.137,-22.995,-49.087
49118330,-0.081,-0.268,0.896,-14.91,-23.905,-41.51
49118340,-0.058,-0.267,0.911,-8.82,-22.767,-33.057
49118350,-0.044,-0.264,0.928,-4.445,-18.742,-24.955
49118360,-0.044,-0.245,0.954,-2.572,-12.215,-18.217
49118370,-0.052,-0.257,0.963,-3.255,-4.83,-14.035
49118380,-0.057,-0.255,0.974,-4.55,2.502,-10.587
49118390,-0.075,-0.254,0.983,-6.877,7.332,-6.947
49118400,-0.092,-0.255,0.988,-9.082,10.377,-4.042
49118410,-0.105,-0.254,0.992,-10.745,11.112,-1.715
49118420,-0.113,-0.256,0.983,-12.162,10.657,0.297
49118430,-0.109,-0.261,0.978,-11.532,9.327,1.172
49118440,-0.096,-0.238,0.97,-12.407,9.222,1.347
49118450,-0.111,-0.243,0.966,-11.217,8.207,3.622
49118460,-0.1,-0.234,0.966,-10.412,8.417,2.975
49118470,-0.101,-0.23,0.972,-10.71,7.612,2.555
49118480,-0.1,-0.23,0.971,-11.917,6.457,3.167
49118490,-0.089,-0.243,0.965,-12.652,5.18,4.427
49118500,-0.098,-0.272,0.961,-11.357,4.76,7.822
49118510,-0.078,-0.256,0.963,-10.815,5.792,8.54
49118520,-0.084,-0.262,0.971,-9.677,9.415,12.302
49118530,-0.061,-0.261,0.967,-10.43,17.01,14.63
49118540,-0.033,-0.259,0.96,-12.512,30.852,18.182
49118550,-0.027,-0.269,0.96,-15.067,51.117,24.027
49118560,-0.016,-0.267,0.945,-20.142,78.662,31.447
49118570,-0.041,-0.27,0.927,-26.075,109.707,42.035
49118580,-0.126,-0.277,0.908,-32.217,140.087,52.08
49118580,-0.263,-0.294,0.899,-35.91,161.945,62.002
49118600,-0.373,-0.287,0.897,-37.012,171.972,68.932
49118600,-0.44,-0.261,0.879,-34.51,170.45,75.407
49118620,-0.526,-0.286,0.87,-26.232,159.81,83.86
49118620,-0.549,-0.255,0.87,-19.022,143.552,84.175
49118640,-0.578,-0.239,0.865,-14,123.322,81.987
49118640,-0.585,-0.239,0.849,-8.68,100.922,75.95
49118660,-0.533,-0.224,0.838,-2.765,78.977,67.532
49118660,-0.514,-0.232,0.829,6.177,57.522,63.892
49118670,-0.459,-0.187,0.84,13.072,38.78,56.297
49118680,-0.427,-0.177,0.842,19.25,22.4,51.59
49118690,-0.367,-0.148,0.865,24.22,10.36,46.007
49118700,-0.313,-0.11,0.872,24.097,1.4,40.25
49118710,-0.283,-0.084,0.884,25.655,-4.567,34.772
49118720,-0.263,-0.074,0.91,28.542,-7.945,32.182
49118730,-0.245,-0.053,0.939,27.422,-10.29,31.307
49118740,-0.24,-0.046,0.942,23.1,-11.025,28.227
49118750,-0.244,-0.062,0.961,21.735,-10.517,23.31
49118760,-0.243,-0.082,0.958,18.9,-9.642,19.74
49118770,-0.233,-0.085,0.96,17.587,-8.382,16.1
49118780,-0.228,-0.088,0.949,16.467,-5.145,13.755
49118790,-0.241,-0.101,0.952,16.275,-1.242,12.057
49118800,-0.274,-0.118,0.955,15.382,2.59,10.955
49118810,-0.302,-0.131,0.952,14.612,4.637,8.102
49118820,-0.316,-0.139,0.942,14.665,5.932,5.635
49118830,-0.327,-0.141,0.937,15.015,6.37,3.972
49118840,-0.343,-0.138,0.934,14.857,7.157,2.1
49118850,-0.349,-0.141,0.924,14.332,7.245,-0.087
49118860,-0.349,-0.146,0.916,13.79,9.082,-2.432
49118870,-0.36,-0.147,0.915,13.58,10.535,-4.007
49118880,-0.378,-0.149,0.912,13.037,11.112,-4.795
49118890,-0.382,-0.145,0.915,12.46,10.465,-6.125
49118900,-0.39,-0.136,0.919,10.622,9.555,-8.102
49118910,-0.402,-0.137,0.911,8.715,6.527,-11.34
49118920,-0.403,-0.147,0.903,8.697,3.43,-14.087
49118930,-0.393,-0.147,0.902,10.08,-0.49,-15.995
49118940,-0.38,-0.125,0.887,9.975,-3.29,-17.5
49118950,-0.382,-0.125,0.892,12.565,-5.53,-17.797
49118960,-0.378,-0.111,0.9,13.16,-7.245,-17.78
49118970,-0.378,-0.088,0.906,9.782,-9.625,-17.867
49118980,-0.383,-0.074,0.906,4.182,-12.04,-18.41
49118990,-0.382,-0.068,0.894,-2.397,-15.505,-18.672
49119000,-0.364,-0.062,0.886,-9.152,-18.48,-18.025
49119010,-0.358,-0.056,0.893,-15.732,-20.825,-16.135
49119010,-0.359,-0.052,0.898,-25.042,-22.015,-15.172
49119030,-0.348,-0.048,0.895,-37.625,-21.367,-16.187
49119030,-0.35,-0.071,0.873,-52.045,-18.725,-18.777
49119050,-0.337,-0.112,0.826,-61.932,-14.997,-21.402
49119050,-0.495,-0.247,0.844,-51.905,-18.62,-9.835
49119070,-0.375,-0.153,0.819,-52.832,-22.837,-22.855
49119070,-0.385,-0.17,0.843,-46.987,-26.18,-23.537
49119080,-0.401,-0.162,0.819,-49.945,-28.122,-19.355
49119090,-0.391,-0.152,0.831,-53.672,-31.202,-20.667
49119100,-0.401,-0.155,0.814,-59.937,-34.475,-19.075
49119110,-0.386,-0.167,0.839,-63.402,-36.872,-17.15
49119120,-0.402,-0.164,0.874,-70.945,-41.072,-11.935
49119130,-0.436,-0.185,0.916,-74.375,-51.765,-7.735
49119140,-0.468,-0.284,0.888,-67.217,-68.145,-0.332
49119150,-0.418,-0.289,0.925,-39.532,-87.745,9.887
49119160,-0.223,-0.202,0.926,-26.95,-94.272,7.525
49119170,-0.172,-0.199,0.941,-14.98,-89.722,25.515
49119180,-0.138,-0.222,0.943,-7.542,-75.477,34.16
49119190,-0.146,-0.263,0.954,0.752,-57.89,42.91
49119200,-0.165,-0.257,0.993,8.12,-38.92,47.495
49119210,-0.208,-0.231,1.02,9.957,-21.525,47.302
49119220,-0.251,-0.227,1.028,7.14,-5.74,46.06
49119230,-0.266,-0.237,1.027,0.367,6.282,42.7
49119240,-0.308,-0.269,1.003,-7.612,14.595,39.287
49119250,-0.353,-0.295,0.998,-12.46,17.027,35.542
49119260,-0.385,-0.297,0.982,-13.702,15.382,30.695
49119270,-0.398,-0.28,0.969,-14.28,9.66,25.392
49119280,-0.39,-0.262,0.961,-17.062,2.555,21.682
49119290,-0.387,-0.239,0.948,-21.735,-5.845,17.395
49119300,-0.363,-0.214,0.916,-28.28,-14.42,13.195
49119310,-0.328,-0.202,0.869,-35.945,-23.38,11.182
49119320,-0.27,-0.223,0.857,-43.365,-28.35,12.075
49119330,-0.222,-0.387,0.87,-47.705,-30.537,16.835
49119330,-0.135,-0.523,0.835,-34.527,-19.845,21.805
49119350,-0.175,-0.503,0.944,-1.417,-7.402,20.335
49119350,-0.368,-0.426,1.043,20.58,-9.485,16.957
49119370,-0.465,-0.385,1.081,29.085,-26.232,5.425
49119370,-0.373,-0.339,1.076,33.512,-45.675,-4.55
49119390,-0.277,-0.288,1.075,34.125,-58.152,-6.79
49119390,-0.249,-0.334,1.043,33.967,-61.267,-7.7
49119410,-0.22,-0.373,1.021,41.107,-57.347,-7.21
49119410,-0.121,-0.318,0.998,51.45,-48.982,-7.595
49119420,-0.129,-0.175,0.933,54.565,-41.527,-4.97
49119430,-0.074,-0.075,0.982,45.64,-41.265,-0.682
49119440,-0.102,-0.14,0.855,23.047,-31.745,6.177
49119450,-0.085,-0.224,0.768,20.37,-21.7,1.225
49119460,-0.028,-0.193,0.808,30.292,-10.01,-5.932
49119470,-0.1,-0.14,0.848,29.295,3.15,-3.57
49119480,-0.162,-0.211,0.794,25.725,12.88,-3.045
49119490,-0.183,-0.258,0.811,38.447,19.04,-9.1
49119500,-0.211,-0.239,0.823,50.505,20.457,-11.147
49119510,-0.208,-0.173,0.831,59.78,20.912,-14.822
49119520,-0.213,-0.095,0.855,63.63,21.682,-18.62
49119530,-0.294,-0.047,0.921,59.08,17.622,-18.48
49119540,-0.371,-0.036,0.991,44.152,7.805,-15.732
49119550,-0.332,-0.101,1.009,28.087,-3.342,-14.157
49119560,-0.266,-0.158,1.028,18.06,-9.835,-13.195
49119570,-0.303,-0.233,1.062,16.52,-14.735,-8.977
49119580,-0.3,-0.234,1.069,20.107,-18.55,-9.205
49119590,-0.249,-0.196,1.079,22.907,-22.907,-15.137
49119600,-0.243,-0.164,1.087,23.222,-26.53,-17.622
49119610,-0.219,-0.162,1.055,21.07,-30.327,-17.517
49119620,-0.151,-0.14,1.022,20.947,-32.217,-19.25
49119630,-0.092,-0.114,1.009,21.997,-30.8,-18.007
49119640,-0.118,-0.103,1.015,18.777,-29.225,-11.952
49119650,-0.183,-0.125,0.985,14.35,-32.865,-8.102
49119660,-0.208,-0.182,0.95,15.295,-40.757,-8.575
49119670,-0.316,-0.258,0.913,23.012,-56.682,-8.785
49119680,-0.352,-0.267,0.919,38.675,-81.48,-12.057
49119690,-0.213,-0.186,0.94,62.002,-104.3,-12.46
49119700,-0.092,-0.088,0.91,79.677,-112.997,-5.495
49119710,-0.031,-0.004,0.966,85.19,-114.59,2.275
49119720,0.167,0.045,0.916,70.822,-89.565,10.255
49119730,0.267,0.031,0.989,56.717,-53.777,6.037
49119740,0.011,0.007,0.988,37.992,-26.25,2.957
49119750,-0.08,-0.015,0.994,27.44,-16.66,-0.035
49119760,-0.06,-0.047,1.004,27.755,-19.582,2.1
49119760,-0.051,-0.051,1.038,31.202,-23.765,4.865
49119770,-0.095,-0.019,1.064,32.025,-27.3,5.127
49119780,-0.092,0.014,1.089,28.507,-30.24,3.097
49119790,-0.065,0.077,1.083,20.177,-29.732,4.06
49119800,-0.022,0.152,1.067,5.985,-23.31,6.877
49119810,0,0.17,1.052,-15.102,-11.532,10.64
49119820,0.034,0.131,1.03,-36.907,4.462,11.445
49119830,0.083,0.119,1.079,-55.93,23.31,10.78
49119840,0.129,0.111,1.09,-75.145,41.755,10.395
49119850,0.022,0.033,1.121,-93.222,52.482,15.715
49119860,-0.004,-0.053,1.08,-106.085,53.952,15.977
49119870,0.041,-0.118,1.061,-111.947,51.73,10.255
49119880,0.026,-0.183,1.073,-113.732,50.155,6.877
49119890,-0.079,-0.254,1.069,-109.917,44.695,8.102
49119900,-0.186,-0.287,1.044,-98.612,33.74,9.712
49119910,-0.226,-0.291,1.016,-83.632,16.205,10.062
49119920,-0.24,-0.276,0.968,-70.35,-1.505,10.045
49119930,-0.23,-0.249,0.901,-58.52,-16.415,6.51
49119940,-0.176,-0.203,0.859,-51.152,-25.672,0.035
49119950,-0.107,-0.16,0.805,-48.86,-30.59,-4.165
49119960,-0.033,-0.165,0.749,-46.48,-28.332,-3.762
49119970,0.034,-0.179,0.709,-42.577,-17.78,0.63
49119980,0.077,-0.22,0.706,-37.922,1.75,6.842
49119990,-0.009,-0.277,0.761,-30.52,20.562,12.162
49120000,-0.125,-0.231,0.802,-11.042,32.305,9.17
49120010,-0.193,-0.243,0.87,4.235,30.31,5.442
49120020,-0.219,-0.272,0.868,18.042,19.215,2.292
49120030,-0.207,-0.215,0.892,30.905,3.517,-3.78
49120040,-0.134,-0.172,1.017,30.765,-5.372,-6.492
49120050,-0.105,-0.161,1.037,19.162,-4.97,-8.12
49120060,-0.079,-0.182,1.064,8.47,-1.067,-9.485
49120070,-0.13,-0.212,1.059,1.067,1.837,-6.492
49120080,-0.161,-0.231,1.045,-2.292,-0.297,-5.267
49120080,-0.139,-0.22,1.033,-2.782,-5.32,-6.405
49120100,-0.136,-0.206,1.014,-2.625,-10.955,-6.335
49120100,-0.12,-0.207,0.978,-2.117,-14.63,-6.877
49120120,-0.101,-0.208,0.957,-0.91,-16.012,-8.977
49120120,-0.071,-0.19,0.945,-0.84,-15.627,-11.2
49120140,-0.04,-0.175,0.933,-1.417,-13.807,-11.672
49120140,-0.024,-0.163,0.925,-1.505,-10.832,-9.555
49120160,-0.011,-0.164,0.924,-2.432,-6.44,-6.3
49120160,0,-0.182,0.936,-3.342,0.367,-3.482
49120170,-0.051,-0.194,0.938,-4.515,6.597,-1.277
49120180,-0.082,-0.194,0.968,-5.582,8.452,-1.575
49120190,-0.043,-0.21,0.968,-6.37,9.625,-1.19
49120200,-0.09,-0.219,0.967,-5.302,10.342,0.997
49120210,-0.068,-0.204,0.978,-3.727,10.377,0.857
49120220,-0.013,-0.198,0.983,-4.62,15.067,2.38
49120230,-0.106,-0.201,0.977,-7.017,20.265,5.88
49120240,-0.116,-0.196,0.978,-8.592,21.525,6.055
49120250,-0.059,-0.21,0.979,-9.187,25.147,7.577
49120260,-0.185,-0.227,0.968,-9.537,25.952,10.745
49120270,-0.24,-0.219,0.966,-8.487,19.512,7.052
49120280,-0.2,-0.219,0.953,-7.402,7.192,1.207
49120290,-0.09,-0.227,0.934,-4.147,1.855,-2.485
49120300,-0.138,-0.214,0.957,-2.555,2.607,-1.575
49120310,-0.149,-0.217,0.967,-4.865,5.075,-2.222
49120320,-0.153,-0.256,0.964,-8.032,7.682,-1.627
49120330,-0.173,-0.287,0.958,-7.752,6.79,0.437
49120340,-0.152,-0.279,0.964,-4.445,5.302,1.977
49120350,-0.185,-0.266,0.957,-2.222,0.892,2.747
49120360,-0.121,-0.249,0.954,-0.857,-3.132,-1.382
49120370,-0.044,-0.247,0.953,-0.227,-0.612,-3.762
49120380,-0.117,-0.245,0.919,-1.085,1.435,-3.832
49120390,-0.073,-0.236,0.925,0.472,4.2,-5.127
49120400,-0.073,-0.235,0.928,1.032,6.842,-2.572
49120410,-0.131,-0.228,0.922,0.665,7.315,1.277
49120420,-0.128,-0.203,0.916,0.157,4.182,2.992
49120430,-0.051,-0.196,0.933,0.122,4.795,4.41
49120440,-0.095,-0.198,0.908,-1.522,8.172,8.085
49120450,-0.123,-0.221,0.925,2.257,9.905,9.835
49120460,-0.092,-0.2,0.953,4.795,12.81,7.21
49120460,-0.122,-0.187,0.975,3.465,15.662,7.822
49120480,-0.164,-0.209,0.998,1.907,16.782,8.732
49120480,-0.167,-0.216,1.006,1.085,16.17,7.437
49120500,-0.169,-0.21,1.003,-0.577,15.435,3.255
49120500,-0.2,-0.217,0.973,-1.907,13.492,2.257
49120510,-0.212,-0.228,0.957,-0.455,11.637,0.227
49120520,-0.21,-0.227,0.959,2.8,10.587,-0.245
49120530,-0.227,-0.213,0.947,1.522,11.357,-1.89
49120540,-0.242,-0.222,0.936,-1.102,11.34,-2.345
49120550,-0.246,-0.233,0.944,-1.82,10.5,0.455
49120560,-0.238,-0.238,0.947,-2.082,7.91,1.907
49120570,-0.197,-0.227,0.937,-1.75,4.392,1.855
49120580,-0.176,-0.206,0.951,-0.087,2.38,4.795
49120590,-0.158,-0.2,0.947,-1.207,1.015,7.542
49120600,-0.137,-0.211,0.922,-2.135,0.892,9.047
49120610,-0.122,-0.202,0.942,-0.21,1.435,10.185
49120620,-0.117,-0.196,0.965,0.402,3.202,11.69
49120630,-0.124,-0.198,0.98,-0.017,4.077,12.687
49120640,-0.144,-0.182,0.996,-0.945,5.267,13.877
49120650,-0.152,-0.156,1.001,-4.095,5.425,13.545
49120660,-0.169,-0.165,0.995,-6.632,6.335,14.892
49120670,-0.195,-0.166,0.992,-9.642,6.947,16.135
49120680,-0.234,-0.166,1.001,-12.635,7.525,15.557
49120690,-0.266,-0.192,0.996,-15.925,6.125,13.965
49120700,-0.298,-0.217,1.002,-18.655,4.2,11.76
49120710,-0.323,-0.232,1.005,-21.315,0.42,5.6
49120720,-0.314,-0.234,1.001,-24.85,-3.622,-0.315
49120730,-0.307,-0.245,0.978,-26.932,-8.96,-3.587
49120740,-0.313,-0.251,0.961,-25.585,-15.312,-1.575
49120750,-0.303,-0.265,0.94,-22.085,-23.695,2.047
49120760,-0.237,-0.26,0.927,-19.092,-29.032,1.505
49120770,-0.208,-0.259,0.925,-17.115,-31.377,1.435
49120780,-0.17,-0.256,0.923,-17.342,-31.307,0
49120790,-0.144,-0.289,0.905,-15.312,-31.237,-2.432
49120800,-0.101,-0.263,0.909,-13.335,-29.015,-5.162
49120810,-0.071,-0.249,0.92,-10.885,-26.792,-3.115
49120820,-0.054,-0.268,0.91,-9.397,-22.592,-2.327
49120830,-0.031,-0.251,0.934,-8.61,-17.202,-4.777
49120830,-0.039,-0.244,0.94,-10.815,-12.232,-4.165
49120850,-0.029,-0.265,0.953,-11.235,-8.33,-3.64
49120850,-0.076,-0.22,0.951,-11.55,-4.69,-3.255
49120870,-0.067,-0.223,0.972,-14.7,-3.885,-1.575
49120870,-0.06,-0.255,0.97,-14.77,0.752,-1.89
49120890,-0.139,-0.273,0.964,-15.907,3.307,-0.472
49120890,-0.14,-0.281,0.96,-15.627,4.357,-1.68
49120910,-0.17,-0.292,0.95,-16.52,3.482,-3.01
49120910,-0.203,-0.303,0.93,-19.617,2.345,-5.18
49120920,-0.22,-0.322,0.91,-21.892,1.365,-9.87
49120930,-0.253,-0.351,0.897,-19.477,-1.75,-7.945
49120940,-0.247,-0.346,0.906,-14.962,-6.527,-6.002
49120950,-0.242,-0.342,0.91,-13.842,-11.882,-6.037
49120960,-0.22,-0.342,0.91,-13.44,-16.975,-7.507
49120970,-0.185,-0.338,0.909,-12.232,-22.12,-7.595
49120980,-0.171,-0.325,0.92,-10.605,-26.512,-6.23
49120990,-0.156,-0.312,0.937,-10.92,-31.08,-5.53
49121000,-0.109,-0.316,0.937,-13.457,-33.705,-7.227
49121010,-0.058,-0.331,0.937,-13.545,-33.18,-9.17
49121020,-0.034,-0.328,0.969,-11.637,-29.487,-9.012
49121030,-0.043,-0.326,0.948,-13.317,-27.09,-8.12
49121040,-0.046,-0.33,0.933,-11.2,-25.602,-9.117
49121050,-0.045,-0.318,0.918,-7.21,-25.742,-9.66
49121060,-0.034,-0.298,0.923,-3.307,-24.797,-8.365
49121070,-0.026,-0.306,0.93,-0.595,-22.067,-6.58
49121080,-0.042,-0.31,0.946,0.595,-17.78,-5.932
49121090,-0.048,-0.311,0.954,-0.017,-14.035,-6.212
49121100,-0.059,-0.314,0.966,-1.382,-10.675,-5.617
49121110,-0.083,-0.321,0.971,-1.872,-10.692,-4.182
49121120,-0.07,-0.311,0.976,-2.345,-11.585,-1.662
49121130,-0.065,-0.287,0.994,-3.71,-12.582,3.99
49121140,-0.081,-0.275,0.98,-6.737,-13.667,11.585
49121150,-0.057,-0.277,0.955,-9.94,-13.492,16.555
49121160,-0.007,-0.284,0.946,-15.102,-8.435,21.122
49121170,-0.015,-0.3,0.954,-20.3,-1.942,26.88
49121170,-0.014,-0.302,0.954,-24.01,7.175,30.887
49121190,-0.067,-0.288,0.984,-27.195,14.647,34.265
49121190,-0.097,-0.313,0.978,-30.38,18.252,34.755
49121210,-0.034,-0.345,0.959,-27.527,26.337,28.682
49121210,-0.042,-0.353,0.978,-22.067,34.282,25.567
49121230,-0.098,-0.338,0.978,-19.267,40.215,25.2
49121230,-0.16,-0.314,0.958,-16.59,41.545,23.275
49121250,-0.209,-0.298,0.949,-15.767,34.457,20.37
49121250,-0.225,-0.318,0.944,-20.037,23.485,20.335
49121260,-0.205,-0.353,0.903,-23.1,14.192,20.107
49121270,-0.192,-0.376,0.883,-20.807,7.472,18.322
49121280,-0.169,-0.356,0.885,-18.13,4.655,14.122
49121290,-0.156,-0.349,0.877,-17.272,4.585,11.497
49121300,-0.147,-0.36,0.87,-16.45,6.317,8.75
49121310,-0.163,-0.368,0.864,-14.98,7.122,5.32
49121320,-0.166,-0.354,0.865,-13.387,6.772,1.242
49121330,-0.159,-0.345,0.863,-11.777,5.25,-1.47
49121340,-0.153,-0.345,0.86,-10.605,3.78,-3.71
49121350,-0.153,-0.342,0.86,-9.905,2.712,-5.652
49121360,-0.153,-0.34,0.853,-9.012,2.31,-7.682
49121370,-0.151,-0.341,0.845,-7.262,1.802,-9.765
49121380,-0.158,-0.333,0.848,-6.44,1.33,-12.005
49121390,-0.178,-0.331,0.846,-7.14,-0.455,-14.332
49121400,-0.187,-0.339,0.838,-7.875,-1.925,-16.992
49121410,-0.183,-0.352,0.828,-7.402,-4.2,-19.582
49121420,-0.18,-0.348,0.841,-6.93,-5.862,-21.507
49121430,-0.177,-0.342,0.848,-6.842,-7.612,-22.47
49121440,-0.181,-0.371,0.849,-3.517,-7.945,-19.967
49121450,-0.181,-0.395,0.856,2.887,-8.627,-17.657
49121460,-0.159,-0.38,0.871,8.19,-6.247,-19.862
49121470,-0.178,-0.386,0.871,11.41,-4.112,-20.212
49121480,-0.172,-0.391,0.862,14.332,-0.98,-25.76
49121490,-0.165,-0.389,0.885,19.985,-0.14,-30.31
49121500,-0.158,-0.368,0.907,22.872,-0.787,-31.535
49121510,-0.144,-0.343,0.924,22.172,-3.08,-32.077
49121520,-0.142,-0.35,0.929,20.16,-5.53,-30.502
49121530,-0.125,-0.361,0.929,18.952,-7.035,-26.355
49121540,-0.092,-0.363,0.926,17.99,-5.355,-20.755
49121550,-0.067,-0.351,0.931,19.18,-1.417,-13.807
49121560,-0.059,-0.351,0.956,19.18,3.342,-5.565
49121570,-0.001,-0.32,0.96,13.912,10.08,-1.557
49121580,-0.013,-0.318,0.971,6.947,19.792,4.375
49121580,-0.077,-0.348,0.937,-0.052,27.247,12.495
49121600,-0.196,-0.469,0.949,6.02,28.91,23.467
49121600,-0.14,-0.378,0.972,10.622,28.857,19.215
49121620,-0.156,-0.323,0.97,7.49,27.545,18.62
49121620,-0.192,-0.359,0.968,0.035,25.725,17.342
49121640,-0.231,-0.406,0.951,-6.632,19.635,16.187
49121640,-0.206,-0.395,0.957,-8.137,12.985,12.512
49121660,-0.157,-0.351,0.953,-1.347,10.745,8.067
49121660,-0.171,-0.308,0.978,-1.155,8.347,11.567
49121670,-0.198,-0.322,0.945,-8.102,5.442,15.487
49121680,-0.174,-0.331,0.928,-10.535,4.392,13.895
49121690,-0.163,-0.323,0.92,-11.27,3.657,13.335
49121700,-0.17,-0.326,0.92,-10.692,4.41,13.125
49121710,-0.173,-0.331,0.918,-8.995,4.672,11.742
49121720,-0.163,-0.333,0.899,-7.752,5.687,10.5
49121730,-0.154,-0.339,0.895,-5.127,7.42,9.047
49121740,-0.175,-0.35,0.898,-2.66,8.925,9.187
49121750,-0.202,-0.364,0.896,-0.647,8.662,8.767
49121760,-0.209,-0.371,0.909,1.925,7.402,6.965
49121770,-0.21,-0.375,0.916,3.185,5.372,5.827
49121780,-0.2,-0.381,0.92,4.165,5.162,4.077
49121790,-0.223,-0.379,0.924,4.602,3.535,3.097
49121800,-0.248,-0.396,0.926,5.04,-0.105,1.522
49121810,-0.211,-0.372,0.933,5.652,-4.62,-1.89
49121820,-0.206,-0.374,0.914,4.095,-6.877,-2.852
49121830,-0.201,-0.381,0.91,5.11,-7.595,-6.265
49121840,-0.186,-0.369,0.899,7.997,-6.002,-9.66
49121850,-0.186,-0.331,0.917,10.972,-5.302,-11.445
49121860,-0.196,-0.32,0.915,9.712,-6.16,-10.937
49121870,-0.203,-0.316,0.91,8.662,-8.89,-8.05
49121880,-0.188,-0.322,0.899,7.682,-11.9,-6.545
49121890,-0.145,-0.324,0.908,8.837,-14.525,-4.445
49121900,-0.128,-0.358,0.897,10.57,-13.352,-2.345
49121910,-0.171,-0.353,0.937,16.362,-12.985,0.402
49121920,-0.193,-0.311,0.96,19.74,-14.262,1.785
49121920,-0.199,-0.282,0.961,19.862,-17.062,-0.56
49121940,-0.19,-0.27,0.933,20.93,-19.792,-2.572
49121940,-0.035,-0.282,0.939,16.257,-18.637,-7.385
49121960,-0.12,-0.301,0.898,7.665,-16.625,-0.612
49121960,-0.111,-0.295,0.903,9.975,-8.417,4.637
49121980,-0.138,-0.32,0.896,9.835,-3.272,4.952
49121980,-0.172,-0.348,0.891,13.475,-0.7,3.342
49122000,-0.169,-0.348,0.891,16.835,-0.875,2.362
49122000,-0.153,-0.343,0.893,19.005,-0.875,1.732
49122010,-0.162,-0.34,0.896,21.857,0.35,0.997
49122020,-0.202,-0.337,0.893,24.692,0,2.047
49122030,-0.217,-0.319,0.898,26.81,-2.66,2.397
49122040,-0.204,-0.311,0.905,27.422,-6.055,1.82
49122050,-0.185,-0.306,0.92,28.245,-8.225,1.575
49122060,-0.205,-0.29,0.943,28.84,-10.832,2.222
49122070,-0.215,-0.271,0.955,27.982,-15.61,2.275
49122080,-0.203,-0.255,0.973,26.075,-19.985,2.292
49122090,-0.196,-0.234,0.983,22.102,-23.52,3.605
49122100,-0.213,-0.231,0.987,18.305,-25.865,5.057
49122110,-0.211,-0.239,0.994,14.945,-28.227,4.655
49122120,-0.197,-0.237,0.999,14.332,-29.907,3.955
49122130,-0.176,-0.206,1.007,13.125,-31.482,3.412
49122140,-0.147,-0.181,1.002,7.962,-30.975,1.557
49122150,-0.132,-0.193,0.993,3.5,-29.627,0.997
49122160,-0.119,-0.196,0.983,0.84,-28.455,0.542
49122170,-0.101,-0.193,0.997,-1.12,-28.262,-0.717
49122180,-0.088,-0.197,0.997,-4.007,-27.93,-0.927
49122190,-0.063,-0.215,0.974,-5.162,-27.335,-1.837
49122200,-0.05,-0.218,0.98,-2.52,-24.657,-1.417
49122210,-0.065,-0.197,0.99,-2.555,-23.117,2.187
49122220,-0.044,-0.2,0.98,-4.042,-21.087,3.01
49122230,-0.04,-0.225,0.951,-4.952,-18.655,2.1
49122240,-0.054,-0.236,0.958,-4.27,-15.61,2.485
49122250,-0.13,-0.258,1.01,-6.3,-15.085,7.105
49122260,-0.116,-0.289,0.96,-3.535,-12.425,6.597
49122270,-0.167,-0.235,0.981,0.56,-15.575,3.22
49122280,-0.186,-0.244,0.996,-6.772,-22.872,0.7
49122290,-0.128,-0.301,0.939,-15.225,-28.63,-2.31
49122300,-0.106,-0.333,0.89,-12.547,-29.96,-3.797
49122310,-0.143,-0.312,0.901,-4.27,-32.672,-2.012
49122320,-0.118,-0.263,0.923,0.437,-35.98,-1.557
49122330,-0.061,-0.243,0.926,-0.367,-38.342,-1.365
49122330,-0.03,-0.263,0.927,-2.135,-37.345,1.225
49122350,-0.013,-0.275,0.938,-1.575,-34.615,2.362
49122350,-0.007,-0.27,0.965,-0.437,-32.252,2.94
49122370,0.001,-0.267,0.972,0.875,-30.432,4.007
49122370,-0.003,-0.272,0.969,4.025,-28.805,5.32
49122390,-0.005,-0.275,0.963,6.72,-26.95,7.192
49122390,-0.041,-0.256,0.93,9.065,-27.755,9.275
49122410,0.021,-0.18,0.943,6.807,-27.3,6.37
49122410,0.049,-0.199,0.931,0.735,-23.275,4.952
49122420,0.002,-0.237,0.932,-2.887,-19.267,6.072
49122430,-0.003,-0.246,0.943,-4.182,-16.765,7.682
49122440,-0.018,-0.243,0.956,-4.567,-16.047,8.942
49122450,-0.039,-0.255,0.964,-4.935,-17.202,10.29
49122460,-0.05,-0.27,0.98,-4.707,-18.917,10.71
49122470,-0.106,-0.287,0.955,-4.13,-23.152,12.232
49122480,-0.147,-0.285,0.977,-2.712,-32.637,14.595
49122490,-0.184,-0.266,0.969,-3.57,-47.81,17.412
49122500,-0.103,-0.243,0.96,-5.495,-61.565,14.49
49122510,0.005,-0.214,0.938,-7.245,-67.217,9.135
49122520,0.082,-0.216,0.953,-9.59,-63.682,3.937
49122530,0.093,-0.259,0.93,-14.14,-56.875,3.517
49122540,0.086,-0.284,0.936,-12.67,-51.012,2.572
49122550,0.074,-0.265,0.97,-9.642,-49.84,1.207
49122560,0.149,-0.232,0.962,-10.517,-47.932,-0.14
49122570,0.244,-0.211,0.915,-11.69,-41.51,-1.085
49122580,0.266,-0.2,0.887,-11.392,-28.822,0.192
49122590,0.241,-0.192,0.882,-10.955,-16.467,2.835
49122600,0.204,-0.201,0.869,-10.622,-7.35,5.25
49122610,0.147,-0.212,0.873,-9.957,-2.87,6.842
49122620,0.166,-0.239,0.935,-11.725,1.925,5.232
49122630,0.161,-0.321,0.934,-15.172,7.91,5.075
49122640,0.095,-0.374,0.932,-13.615,11.795,6.982
49122650,0.082,-0.352,0.973,-7.315,13.72,6.982
49122660,0.054,-0.327,1.04,-6.002,12.425,6.562
49122670,0.04,-0.343,1.05,-10.237,9.205,3.377
49122670,0.03,-0.351,1.051,-11.672,5.39,-1.12
49122690,0.03,-0.324,1.055,-9.87,-0.017,-4.357
49122690,0.041,-0.299,1.081,-9.31,-4.392,-7.157
49122710,0.046,-0.292,1.094,-13.037,-7.507,-10.937
49122710,0.057,-0.295,1.101,-19.005,-8.365,-15.05
49122730,0.054,-0.316,1.103,-25.13,-9.695,-17.85
49122730,0.034,-0.352,1.052,-29.382,-11.882,-19.267
49122750,0.027,-0.382,0.985,-28.577,-15.627,-19.022
49122750,0.011,-0.406,0.912,-21.385,-20.107,-16.555
49122760,0.02,-0.426,0.83,-7,-22.19,-13.51
49122770,0.053,-0.426,0.783,11.427,-19.232,-12.232
49122780,0.055,-0.426,0.701,28.63,-13.282,-12.897
49122790,0.084,-0.438,0.716,47.81,-4.34,-15.627
49122800,0.124,-0.539,0.774,72.887,6.002,-15.995
49122810,0.112,-0.574,0.807,109.742,21.192,-9.205
49122820,0.001,-0.523,0.745,157.535,27.02,2.03
49122830,0.017,-0.243,0.803,196.42,27.142,-5.145
49122840,0.067,-0.054,1.086,194.18,15.767,-13.947
49122850,0.083,-0.076,0.944,156.765,11.83,-10.08
49122860,0.143,-0.055,0.909,134.995,16.292,-12.565
49122870,0.023,0.04,0.937,116.427,18.76,-5.512
49122880,0.344,0.024,0.963,96.197,30.52,12.267
49122890,0.459,0.073,0.82,93.257,88.462,29.995
49122900,0.066,0.159,1.043,91.857,124.932,27.475
49122910,-0.225,0.278,1.092,62.965,127.382,18.602
49122920,-0.247,0.266,1.067,22.505,103.425,23.677
49122930,-0.157,0.146,0.968,-2.992,82.075,31.727
49122940,-0.186,0.082,0.947,-8.785,62.545,32.235
49122950,-0.219,0.07,0.941,-14.472,40.617,24.885
49122960,-0.15,0.022,0.896,-19.652,21.752,15.4
49122970,-0.077,-0.045,0.881,-15.557,8.697,10.78
49122980,-0.034,-0.038,0.915,-3.605,2.082,6.16
49122990,0.028,0.032,0.954,6.09,0.822,-1.067
49123000,0.064,0.059,0.984,8.277,5.687,-4.165
49123010,0.072,0.037,1,7.175,12.092,-5.635
49123020,0.08,-0.003,0.971,8.47,18.55,-5.897
49123030,0.046,-0.009,0.998,10.395,23.047,-2.59
49123040,-0.037,0.025,1.01,7.612,23.082,1.487
49123050,-0.133,0.035,1.06,1.032,14.875,2.695
49123060,-0.185,-0.014,1.058,-10.587,-3.272,2.31
49123070,-0.076,-0.041,1.017,-14.017,-22.872,-3.482
49123080,0.058,-0.071,0.998,-12.95,-32.952,-4.06
49123080,0.324,-0.096,0.996,-11.76,-17.062,1.452
49123100,0.301,-0.12,1.08,-8.575,25.13,10.745
49123100,-0.053,-0.08,1.114,-14.822,58.38,12.635
49123120,-0.232,-0.052,1.099,-26.355,63.875,4.042
49123120,-0.21,-0.127,1.002,-35,49.752,-0.647
49123140,-0.14,-0.176,0.967,-30.975,35.927,2.03
49123140,-0.137,-0.129,0.994,-25.742,28.63,4.935
49123150,-0.175,-0.114,0.977,-24.43,27.597,3.097
49123160,-0.208,-0.162,0.912,-19.617,26.547,1.855
49123170,-0.18,-0.193,0.918,-8.505,21.332,3.027
49123180,-0.153,-0.126,0.936,3.815,15.312,6.737
49123190,-0.214,-0.053,1.011,7.35,11.427,11.987
49123200,-0.294,-0.122,1.026,1.942,4.637,12.67
49123210,-0.34,-0.152,1.006,1.33,-4.357,8.89
49123220,-0.425,-0.14,0.998,4.06,-19.512,9.065
49123230,-0.458,-0.132,1.002,9.345,-41.247,11.795
49123240,-0.444,-0.123,1.025,13.475,-67.235,15.295
49123250,-0.422,-0.131,1.024,15.995,-95.427,21.997
49123260,-0.233,-0.129,0.994,24.797,-118.492,30.345
49123270,-0.105,-0.033,0.973,39.305,-123.987,40.355
49123280,-0.039,-0.062,1.039,38.972,-133.262,44.747
49123290,0.231,0.026,0.991,33.967,-124.95,31.447
49123300,0.151,0.062,1.023,25.97,-117.18,29.907
49123310,0.173,-0.026,0.945,13.982,-108.762,30.94
49123320,0.209,-0.046,0.921,11.795,-98.577,20.685
49123330,0.138,-0.016,0.904,8.085,-93.047,13.335
49123340,0.233,-0.075,0.917,5.775,-85.732,11.34
49123350,0.198,-0.121,0.928,10.535,-77.437,7.21
49123360,0.115,-0.081,0.922,10.307,-74.217,9.677
49123370,0.174,-0.054,0.931,10.902,-71.767,8.487
49123380,0.182,-0.045,0.941,10.815,-67.41,10.78
49123390,0.225,0.013,0.968,12.565,-62.86,10.902
49123400,0.323,0.08,0.987,8.907,-53.2,12.285
49123410,0.326,0.117,0.94,0.805,-38.92,10.727
49123420,0.328,0.111,0.977,-8.54,-25.532,9.835
49123420,0.239,-0.007,1.004,-10.64,-10.307,8.54
49123440,-0.005,-0.03,1.027,-10.762,-12.005,10.115
49123440,-0.045,-0.032,0.992,-7.35,-24.57,14.56
49123460,-0.09,-0.043,1.033,-4.952,-42.717,18.34
49123460,-0.047,-0.127,1.014,-2.345,-55.475,18.777
49123480,-0.09,-0.088,1,3.587,-72.362,19.127
49123480,-0.047,-0.07,0.961,8.61,-92.767,22.382
49123500,0.146,-0.076,0.896,15.382,-104.09,22.067
49123500,0.257,0.02,0.904,18.97,-102.707,21.402
49123510,0.291,0.052,0.906,14.682,-94.57,14.542
49123520,0.307,0.002,0.909,10.745,-85.82,7.455
49123530,0.279,-0.068,0.896,7.682,-81.13,5.407
49123540,0.174,-0.146,0.859,9.73,-83.265,1.977
49123550,0.061,-0.226,0.817,15.995,-93.065,-4.707
49123560,0.021,-0.265,0.766,26.25,-110.67,-12.092
49123570,0.052,-0.249,0.731,40.827,-129.29,-16.59
49123580,0.062,-0.161,0.769,55.562,-148.715,-16.66
49123590,0.24,-0.114,0.762,64.277,-162.032,-18.217
49123600,0.368,-0.052,0.762,76.072,-165.777,-23.012
49123610,0.499,0.018,0.771,84.192,-166.46,-24.605
49123620,0.689,0.12,0.781,85.277,-159.355,-22.907
49123630,0.859,0.184,0.788,81.532,-143.71,-22.872
49123640,0.978,0.247,0.812,73.027,-115.745,-23.852
49123650,0.989,0.286,0.85,59.115,-84.945,-27.65
49123660,0.976,0.3,0.865,43.417,-54.932,-29.172
49123670,1.006,0.3,0.843,30.52,-27.212,-28.717
49123680,1.046,0.326,0.836,21.91,2.38,-21.332
49123690,1.116,0.382,0.861,13.282,32.585,-11.497
49123700,1.139,0.427,0.953,1.575,65.415,-1.295
49123710,1.1,0.416,1.009,-17.937,94.395,7.157
49123720,1.133,0.357,1.029,-38.815,124.285,10.64
49123730,1.051,0.333,1.035,-57.12,151.567,16.205
49123740,0.968,0.334,1.073,-75.197,173.355,21.63
49123750,0.839,0.295,1.178,-95.707,185.78,21.385
49123760,0.653,0.228,1.215,-124.057,197.032,11.322
49123770,0.392,0.155,1.207,-155.872,196.315,-6.965
49123780,0.213,0.066,1.123,-184.135,192.447,-26.215
49123790,-0.006,-0.017,1.047,-205.887,182.525,-39.252
49123800,-0.314,-0.213,1.067,-226.012,166.88,-41.37
49123810,-0.476,-0.447,0.782,-237.562,132.142,-42.385
49123820,-0.212,-0.466,0.667,-212.1,91.962,-60.462
49123820,-0.141,-0.343,0.713,-192.325,61.95,-58.117
49123830,0.068,-0.348,0.664,-178.272,44.415,-58.835
49123840,0.13,-0.508,0.682,-142.24,37.87,-54.145
49123850,0.101,-0.677,0.652,-88.935,36.452,-34.422
49123860,0.183,-0.649,0.628,-14.56,42.472,-16.887
49123870,0.215,-0.371,0.766,54.985,58.695,-9.66
49123880,0.123,-0.053,0.919,82.39,69.737,-7.77
49123890,-0.008,0.144,1.006,64.102,66.062,-6.965
49123900,-0.04,0.193,0.967,16.117,51.222,-3.272
49123910,0.004,0.077,0.823,-31.657,35.752,-0.035
49123920,0.088,-0.033,0.71,-61.722,29.662,-1.225
49123930,0.144,-0.062,0.656,-79.922,33.32,-0.682
49123940,0.131,-0.078,0.621,-90.597,43.102,-1.102
49123950,-0.063,-0.055,0.736,-99.627,44.065,-5.18
49123960,-0.072,-0.051,0.737,-118.492,31.587,-11.795
49123970,0.024,-0.134,0.701,-134.715,17.36,-15.05
49123980,0.128,-0.213,0.658,-141.417,11.637,-16.31
49123990,0.123,-0.265,0.656,-137.637,12.145,-11.952
49124000,0.135,-0.31,0.669,-127.505,16.992,-4.147
49124010,0.142,-0.342,0.686,-115.027,23.712,8.75
49124020,0.118,-0.35,0.751,-99.855,32.777,26.302
49124030,0.172,-0.48,0.912,-84.35,45.727,44.677
49124040,0.22,-0.643,0.964,-63.087,68.985,58.397
49124050,0.061,-0.664,1.001,-36.75,84.315,67.777
49124060,-0.211,-0.643,1.037,-13.877,78.802,73.045
49124070,-0.38,-0.575,1.046,2.677,49.402,64.645
49124080,-0.303,-0.523,0.978,12.862,11.042,44.415
49124090,-0.157,-0.419,0.935,22.242,-17.342,23.135
49124100,-0.072,-0.367,0.886,29.715,-34.177,10.465
49124110,-0.017,-0.394,0.712,48.195,-37.73,3.08
49124120,-0.009,-0.252,0.785,84.28,-33.967,-2.66
49124130,-0.031,-0.09,0.762,82.337,-28.997,14.525
49124140,0.105,-0.123,0.763,79.485,-16.047,30.625
49124150,0.138,-0.204,0.76,79.065,7.875,52.5
49124160,0.025,-0.253,0.794,79.45,32.007,73.097
49124170,-0.179,-0.269,0.933,79.782,43.242,82.53
49124170,-0.411,-0.236,1.104,74.042,32.287,78.925
49124190,-0.435,-0.288,1.141,60.2,3.675,65.047
49124190,-0.264,-0.43,1.111,48.615,-30.642,40.705
49124210,0.021,-0.6,1.119,51.45,-53.935,6.737
49124210,0.226,-0.431,1.32,58.747,-59.727,-16.642
49124230,0.183,-0.319,1.326,53.13,-69.002,-9.275
49124230,0.405,-0.272,1.308,44.047,-79.205,-10.062
49124250,0.676,-0.304,1.271,37.415,-73.692,-9.432
49124250,0.729,-0.354,1.253,35.087,-57.592,-7.42
49124260,0.728,-0.34,1.26,34.457,-39.13,-14.735
49124270,0.79,-0.245,1.266,30.45,-19.215,-34.755
49124280,0.735,-0.252,1.163,16.905,-0.84,-47.215
49124290,0.641,-0.262,1.045,10.272,16.292,-60.025
49124300,0.509,-0.202,0.956,10.412,32.077,-70.122
49124310,0.371,-0.197,0.92,4.812,47.775,-68.635
49124320,0.273,-0.311,0.984,-6.475,69.352,-54.67
49124330,0.183,-0.517,1.06,-15.225,97.737,-35.98
49124340,-0.057,-0.557,0.995,-2.205,113.172,-36.96
49124350,-0.201,-0.677,0.954,25.847,104.44,-46.147
49124360,-0.192,-0.56,0.985,67.865,89.757,-43.557
49124370,-0.262,-0.313,1.025,97.965,66.797,-40.495
49124380,-0.306,-0.11,1.075,98.577,41.51,-56.07
49124390,-0.132,-0.075,0.992,79.292,25.095,-75.897
49124400,0.009,-0.139,0.871,62.737,21.805,-79.292
49124410,-0.047,-0.126,0.812,55.772,24.675,-76.422
49124420,-0.114,-0.094,0.817,55.107,27.615,-72.31
49124430,-0.094,-0.012,0.82,51.117,28.787,-65.607
49124440,-0.112,0,0.801,42.84,29.505,-57.085
49124450,-0.124,0.013,0.796,36.47,31.255,-55.3
49124460,-0.144,0.034,0.797,28.892,31.727,-55.895
49124470,-0.183,0.057,0.794,17.15,28.542,-58.345
49124480,-0.218,0.034,0.796,5.372,23.852,-61.145
49124490,-0.182,0.046,0.762,-10.395,17.972,-66.78
49124500,-0.161,0.032,0.745,-23.852,14.122,-67.725
49124510,-0.166,-0.002,0.726,-34.842,11.725,-66.552
49124510,-0.177,-0.022,0.731,-42.997,10.22,-64.977
49124530,-0.187,-0.04,0.75,-47.635,8.417,-63.665
49124530,-0.197,-0.049,0.769,-51.73,6.562,-61.215
49124550,-0.218,-0.076,0.799,-54.967,2.502,-57.19
49124550,-0.239,-0.095,0.818,-58.8,-2.24,-53.847
49124570,-0.26,-0.12,0.837,-63.49,-9.677,-51.205
49124570,-0.262,-0.164,0.853,-67.252,-18.217,-48.142
49124580,-0.212,-0.18,0.842,-73.447,-25.077,-45.465
49124590,-0.192,-0.234,0.846,-74.935,-28.14,-38.85
49124600,-0.166,-0.255,0.863,-75.022,-27.877,-34.405
49124610,-0.148,-0.257,0.876,-73.937,-25.13,-29.96
49124620,-0.193,-0.347,0.926,-67.987,-23.222,-23.852
49124630,-0.126,-0.257,0.944,-71.05,-21.07,-23.572
49124640,-0.147,-0.315,0.952,-73.01,-20.667,-17.517
49124650,-0.135,-0.383,0.976,-66.972,-19.845,-14.175
49124660,-0.105,-0.384,1.003,-58.205,-21.157,-11.042
49124670,-0.069,-0.373,1.028,-49.717,-21.787,-9.065
49124680,-0.054,-0.384,1.049,-40.337,-21.77,-7.805
49124690,-0.036,-0.382,1.057,-32.41,-21.385,-9.397
49124700,-0.023,-0.388,1.069,-23.765,-21.612,-12.162
49124710,-0.02,-0.401,1.066,-14.612,-22.557,-16.187
49124720,-0.009,-0.385,1.069,-2.782,-23.432,-23.852
49124730,0.007,-0.337,1.068,6.002,-23.94,-33.442
49124740,-0.029,-0.328,1.068,16.782,-29.015,-39.392
49124750,-0.056,-0.334,1.047,26.267,-39.55,-44.205
49124760,-0.031,-0.372,1.003,38.342,-50.225,-49.63
49124770,0.03,-0.441,0.957,59.64,-55.405,-54.722
49124780,0.106,-0.437,0.941,88.06,-53.725,-57.89
49124790,0.142,-0.398,0.924,118.685,-46.34,-57.207
49124800,0.176,-0.329,0.933,151.305,-33.862,-55.422
49124810,0.203,-0.222,0.964,176.365,-20.37,-52.237
49124820,0.208,-0.107,1.006,187.617,-6.667,-47.722
49124830,0.197,-0.024,1.031,185.237,7.105,-43.557
49124840,0.169,0.041,1.059,169.575,21.805,-40.057
49124850,0.114,0.111,1.074,143.29,32.375,-36.855
49124860,0.023,0.158,1.073,109.042,37.187,-28.805
49124870,-0.054,0.171,1.038,69.877,37.275,-20.37
49124880,-0.099,0.135,0.96,31.045,36.312,-10.692
49124890,-0.071,0.098,0.879,-1.067,38.5,-4.375
49124900,-0.07,0.09,0.822,-27.877,46.532,1.977
49124910,-0.108,0.082,0.786,-52.29,54.845,10.29
49124920,-0.133,0.05,0.774,-72.59,61.582,19.827
49124920,-0.159,-0.014,0.795,-87.675,63.647,30.415
49124940,-0.186,-0.089,0.811,-98.07,61.355,40.6
49124940,-0.199,-0.172,0.859,-101.307,55.002,46.602
49124960,-0.19,-0.248,0.907,-98.84,46.935,46.41
49124960,-0.186,-0.301,0.971,-89.845,35.752,41.457
49124980,-0.2,-0.354,1.009,-76.965,21.402,31.412
49124980,-0.181,-0.367,1.056,-59.237,3.167,17.22
49125000,-0.126,-0.332,1.074,-41.195,-16.835,0.682
49125000,-0.068,-0.268,1.091,-24.202,-35.875,-11.637
49125010,0.053,-0.177,1.101,-12.74,-50.137,-24.307
49125020,0.162,-0.111,1.086,-10.78,-57.085,-28.945
49125030,0.211,-0.128,1.019,-13.685,-55.317,-29.872
49125040,0.271,-0.157,0.988,-9.905,-46.235,-38.692
49125050,0.296,-0.146,0.973,-2.555,-32.445,-42.402
49125060,0.277,-0.126,0.963,3.587,-19.022,-40.39
49125070,0.265,-0.093,0.966,8.242,-4.707,-37.817
49125080,0.23,-0.07,0.966,7.77,8.715,-31.517
49125090,0.175,-0.074,0.963,5.915,19.512,-23.205
49125100,0.126,-0.083,0.954,5.442,27.072,-14.857
49125110,0.077,-0.094,0.969,6.072,31.15,-7.052
49125120,0.041,-0.086,0.974,2.712,34.212,-2.852
49125130,0.004,-0.083,0.974,-3.482,36.225,-3.08
49125140,-0.044,-0.101,0.965,-9.642,36.855,-5.092
49125150,-0.092,-0.126,0.951,-13.247,34.895,-6.51
49125160,-0.127,-0.132,0.955,-14.507,31.01,-7.157
49125170,-0.158,-0.114,0.948,-18.41,25.2,-7.35
49125180,-0.186,-0.135,0.945,-21.035,18.445,-8.12
49125190,-0.174,-0.138,0.931,-24.815,12.425,-8.96
49125200,-0.172,-0.179,0.913,-25.69,8.277,-7
49125210,-0.182,-0.213,0.925,-21.262,5.67,-3.57
49125220,-0.18,-0.181,0.934,-21.105,4.55,-1.592
49125230,-0.205,-0.187,0.956,-20.72,2.625,0.49
49125240,-0.209,-0.181,0.97,-22.207,1.82,1.977
49125250,-0.208,-0.178,0.976,-24.115,-0.052,2.94
49125260,-0.219,-0.182,0.997,-24.027,-1.207,4.13
49125260,-0.225,-0.178,1.009,-24.78,-2.975,4.322
49125280,-0.224,-0.177,1.013,-26.845,-4.27,3.395
49125280,-0.213,-0.16,1.015,-28.262,-5.582,2.642
49125300,-0.194,-0.148,1.022,-27.86,-6.055,3.587
49125300,-0.174,-0.114,1.047,-26.127,-7.98,6.037
49125320,-0.144,-0.074,1.049,-28.507,-9.187,7.525
49125320,-0.08,-0.068,1.037,-33.932,-8.61,7.157
49125330,-0.029,-0.112,1.01,-37.835,-4.602,7.752
49125340,-0.012,-0.164,0.987,-36.732,0.805,9.275
49125350,-0.015,-0.205,0.979,-29.767,6.037,11.375
49125360,-0.033,-0.222,0.998,-19.985,7.56,14.735
49125370,-0.049,-0.24,1.013,-13.072,6.195,17.395
49125380,-0.068,-0.27,1.025,-8.207,1.54,18.2
49125390,-0.08,-0.306,1.019,-5.6,-4.795,17.972
49125400,-0.072,-0.331,1.011,-2.45,-12.39,15.4
49125410,-0.056,-0.349,1.003,1.242,-19.372,10.832
49125420,-0.053,-0.353,0.981,2.905,-25.9,6.685
49125430,-0.017,-0.346,0.976,4.532,-30.957,2.205
49125440,0,-0.343,0.975,4.987,-34.79,0.227
49125450,0.037,-0.328,0.98,-0.245,-35.717,-0.7
49125460,0.066,-0.33,0.961,-9.31,-33.845,-0.262
49125470,0.081,-0.335,0.946,-16.292,-29.522,0.717
49125480,0.079,-0.374,0.934,-19.005,-25.007,3.605
49125490,0.086,-0.37,0.925,-20.037,-19.39,8.225
49125500,0.098,-0.355,0.932,-20.492,-12.687,11.217
49125510,0.086,-0.334,0.932,-22.575,-5.092,14.805
49125520,0.063,-0.341,0.925,-23.485,2.117,16.782
49125530,0.051,-0.342,0.929,-21.227,8.312,17.605
49125540,0.028,-0.327,0.928,-18.48,13.352,17.587
49125550,-0.017,-0.315,0.937,-15.417,15.417,15.19
49125560,-0.062,-0.302,0.939,-13.037,13.877,11.795
49125570,-0.088,-0.296,0.932,-11.2,7.735,7.822
49125580,-0.079,-0.29,0.916,-8.785,-0.035,3.202
49125590,-0.056,-0.28,0.908,-5.967,-6.947,-0.682
49125600,-0.035,-0.263,0.909,-3.745,-10.552,-3.867
49125610,-0.02,-0.245,0.914,-3.027,-12.267,-6.562
49125620,-0.006,-0.243,0.92,-3.482,-11.777,-8.312
49125630,-0.021,-0.241,0.921,-2.432,-10.517,-9.537
49125640,-0.04,-0.232,0.929,-0.787,-9.852,-9.572
49125650,-0.034,-0.23,0.942,-0.542,-12.005,-8.417
49125660,-0.032,-0.251,0.956,-0.7,-15.015,-5.792
49125670,-0.014,-0.24,0.968,-4.41,-18.095,-4.952
49125670,0.007,-0.242,0.996,-10.36,-20.58,-6.282
49125690,0.016,-0.259,0.968,-16.205,-20.65,-7.7
49125690,0.016,-0.277,0.989,-19.162,-21.227,-12.32
49125710,0.02,-0.273,1.018,-26.162,-23.03,-15.102
49125710,0.015,-0.313,0.976,-31.85,-22.4,-14.262
49125730,0.059,-0.348,1.01,-29.627,-22.347,-15.015
49125730,0.102,-0.357,1.034,-28.63,-15.452,-11.34
49125750,0.061,-0.379,1.053,-25.987,-9.082,-7.875
49125750,0.021,-0.389,1.061,-21.7,-5.687,-8.75
49125760,-0.046,-0.388,1.043,-17.482,-9.677,-7.7
49125770,-0.058,-0.379,1.014,-11.865,-17.097,-7.892
49125780,-0.034,-0.355,0.978,-4.655,-25.497,-9.957
49125790,-0.018,-0.315,0.963,1.382,-32.025,-11.375
49125800,0.046,-0.286,0.937,4.865,-33.81,-12.232
49125810,0.095,-0.269,0.916,6.895,-28.962,-11.987
49125820,0.108,-0.242,0.914,7.787,-21.14,-11.06
49125830,0.115,-0.21,0.916,3.36,-11.777,-8.802
49125840,0.103,-0.208,0.904,-4.742,-3.22,-2.94
49125850,0.079,-0.223,0.886,-13.317,4.515,2.922
49125860,0.047,-0.229,0.886,-22.4,10.552,7.735
49125870,0.025,-0.235,0.865,-34.037,15.12,12.862
49125880,-0.005,-0.268,0.843,-42.875,18.602,15.96
49125890,-0.043,-0.307,0.831,-47.81,19.617,18.62
49125900,-0.051,-0.349,0.821,-48.387,17.832,21.49
49125910,-0.043,-0.381,0.822,-45.92,15.172,22.995
49125920,-0.058,-0.409,0.834,-41.965,12.285,21.7
49125930,-0.066,-0.435,0.855,-36.505,8.015,16.607
49125940,-0.061,-0.453,0.889,-31.657,1.942,9.957
49125950,-0.061,-0.479,0.91,-27.965,-5.442,1.592
49125960,-0.035,-0.496,0.914,-23.485,-12.18,-8.12
49125970,-0.033,-0.502,0.942,-18.48,-20.107,-14.245
49125980,-0.002,-0.534,0.939,-12.162,-26.285,-17.185
49125990,0.045,-0.576,0.914,-1.417,-27.107,-16.327
49126000,0.006,-0.617,0.886,17.185,-25.077,-10.85
49126010,-0.042,-0.643,0.827,46.427,-24.342,-2.362
49126010,-0.005,-0.635,0.786,85.837,-21.612,9.66
49126030,-0.007,-0.569,0.782,127.277,-18.602,25.287
49126030,-0.005,-0.442,0.826,161.805,-14.455,37.555
49126050,-0.01,-0.286,0.892,177.87,-10.85,47.005
49126050,-0.033,-0.18,0.945,177.082,-10.64,53.165
49126070,0.019,-0.109,0.964,166.442,-11.217,60.06
49126070,0.101,-0.004,0.993,146.65,-3.535,65.38
49126080,0.137,0.119,1.011,117.617,8.47,67.462
49126090,0.157,0.173,1.012,80.692,23.292,67.567
49126100,0.131,0.162,0.999,40.547,37.52,66.517
49126110,0.055,0.105,0.983,3.727,45.115,64.242
49126120,-0.01,0.037,0.952,-25.83,44.117,63.157
49126130,-0.062,-0.058,0.939,-39.987,37.362,61.81
49126140,-0.12,-0.138,0.944,-40.775,24.745,61.74
49126150,-0.167,-0.178,0.97,-37.17,8.417,60.55
49126160,-0.201,-0.219,0.97,-29.61,-11.042,52.325
49126170,-0.179,-0.206,0.984,-19.845,-29.802,36.015
49126180,-0.131,-0.166,1.006,-14.385,-49.577,21.087
49126190,-0.089,-0.128,1.023,-17.01,-67.392,9.03
49126200,-0.037,-0.12,1.016,-25.182,-80.885,-2.502
49126210,0.011,-0.151,1.016,-34.947,-91.595,-12.372
49126220,0.106,-0.253,1.047,-45.15,-96.267,-18.27
49126230,0.26,-0.28,0.985,-51.467,-89.337,-23.065
49126240,0.26,-0.261,1.021,-48.457,-76.055,-25.952
49126250,0.21,-0.265,1.023,-42.297,-62.772,-21.21
49126260,0.217,-0.293,1.065,-36.68,-52.412,-20.632
49126270,0.308,-0.279,1.14,-44.012,-41.405,-17.535
49126280,0.429,-0.324,1.166,-55.51,-18.917,-15.102
49126290,0.312,-0.438,1.051,-60.952,-0.175,-5.722
49126300,0.08,-0.449,0.929,-58.555,4.602,2.397
49126310,-0.006,-0.36,0.885,-48.405,-1.085,2.292
49126320,0.051,-0.291,0.862,-41.387,-9.502,-2.712
49126330,0.137,-0.279,0.85,-42,-13.317,-9.695
49126340,0.173,-0.298,0.838,-47.477,-10.57,-14.787
49126350,0.166,-0.323,0.847,-51.467,-4.83,-18.602
49126360,0.11,-0.364,0.797,-49.98,-1.155,-21.35
49126370,-0.11,-0.351,0.819,-42.98,-11.41,-23.117
49126380,0.055,-0.334,0.828,-30.677,-28.875,-34.755
49126390,0.399,-0.314,0.893,-23.625,-32.025,-38.272
49126400,0.553,-0.297,0.997,-30.87,-7.07,-29.382
49126410,0.455,-0.312,1.023,-50.347,26.722,-25.55
49126420,0.269,-0.331,0.958,-71.785,50.767,-25.76
49126420,0.157,-0.352,0.884,-83.09,60.567,-26.512
49126440,0.064,-0.441,0.858,-81.515,57.452,-25.322
49126440,0.038,-0.529,0.827,-70.507,44.397,-21.612
49126460,0.05,-0.591,0.822,-52.902,30.45,-11.9
49126460,0.046,-0.645,0.821,-29.452,19.915,2.38
49126480,-0.042,-0.629,0.863,-5.232,7.14,15.155
49126480,0.091,-0.619,0.889,12.057,-5.005,22.645
49126500,0.22,-0.63,0.916,20.982,-3.22,25.812
49126500,0.242,-0.623,0.964,26.232,9.467,20.79
49126510,0.255,-0.597,1.025,28.857,25.707,12.88
49126520,0.274,-0.597,1.098,29.015,39.97,9.1
49126530,0.311,-0.606,1.122,27.247,53.025,9.327
49126540,0.317,-0.601,1.128,24.22,66.237,11.672
49126550,0.297,-0.584,1.107,20.772,79.852,16.187
49126560,0.289,-0.558,1.071,19.075,92.872,22.225
49126570,0.256,-0.515,1.009,18.48,106.26,28.385
49126580,0.179,-0.461,0.981,17.045,118.125,30.52
49126590,0.068,-0.414,0.941,13.335,124.39,28.105
49126600,-0.032,-0.388,0.908,9.94,122.377,22.12
49126610,-0.108,-0.374,0.885,8.592,111.405,13.685
49126620,-0.153,-0.34,0.859,7.052,95.217,3.867
49126630,-0.164,-0.307,0.838,5.967,76.16,-6.772
49126640,-0.156,-0.282,0.815,4.147,58.1,-17.465
49126650,-0.152,-0.262,0.795,2.642,41.632,-27.195
49126660,-0.146,-0.254,0.772,-0.63,27.632,-35.787
49126670,-0.149,-0.282,0.759,-1.05,16.047,-42.367
49126680,-0.142,-0.285,0.742,-2.38,7.315,-48.16
49126690,-0.145,-0.302,0.732,-1.225,0.577,-50.785
49126700,-0.142,-0.304,0.732,-2.047,-2.957,-50.662
49126710,-0.155,-0.311,0.71,-5.512,-5.145,-49.507
49126720,-0.171,-0.358,0.686,-4.847,-5.285,-47.232
49126730,-0.175,-0.371,0.696,-1.977,-4.742,-44.065
49126740,-0.186,-0.357,0.706,-5.32,-3.412,-38.797
49126750,-0.203,-0.323,0.744,-13.86,-2.187,-33.022
49126760,-0.186,-0.325,0.716,-30.905,0.402,-30.625
49126760,-0.209,-0.409,0.698,-36.277,2.012,-21.42
49126780,-0.201,-0.427,0.693,-37.975,4.427,-13.807
49126780,-0.212,-0.427,0.723,-38.08,5.862,-5.092
49126800,-0.189,-0.383,0.745,-42.717,7.717,2.94
49126800,-0.226,-0.416,0.76,-50.137,7.857,15.19
49126820,-0.235,-0.456,0.76,-56.98,8.207,22.802
49126820,-0.247,-0.486,0.772,-60.655,7.105,27.422
49126830,-0.251,-0.506,0.771,-62.177,6.072,30.275
49126840,-0.291,-0.568,0.778,-56.927,2.992,32.025
49126850,-0.28,-0.559,0.803,-48.877,-0.437,27.93
49126860,-0.288,-0.549,0.818,-39.305,-5.652,25.182
49126870,-0.303,-0.558,0.851,-27.142,-11.812,21.98
49126880,-0.275,-0.512,0.859,-18.515,-19.162,18.375
49126890,-0.305,-0.538,0.867,-8.837,-27.3,17.29
49126900,-0.253,-0.516,0.883,-0.472,-33.425,5.372
49126910,-0.254,-0.493,0.905,8.225,-39.007,-0.42
49126920,-0.243,-0.467,0.911,13.912,-45.045,-3.675
49126930,-0.221,-0.46,0.926,23.292,-51.397,-3.15
49126940,-0.173,-0.414,0.938,30.625,-56.945,-2.03
49126950,-0.132,-0.372,0.948,35.245,-60.042,0.717
49126960,-0.083,-0.335,0.973,37.8,-60.042,3.552
49126970,-0.032,-0.297,0.982,35.437,-56.997,6.562
49126980,0,-0.28,0.991,33.39,-51.467,10.01
49126990,0.031,-0.258,1.006,29.225,-43.627,13.545
49127000,0.059,-0.236,1.014,22.872,-35.07,17.15
49127010,0.069,-0.231,1.014,15.697,-25.585,20.982
49127020,0.068,-0.24,1.011,9.257,-16.117,24.027
49127030,0.054,-0.259,1.006,5.057,-7.682,26.932
49127040,0.032,-0.278,1.005,3.132,-0.98,28.717
49127050,0.005,-0.294,1.008,3.045,3.202,28.875
49127060,-0.02,-0.314,1.01,3.85,4.76,27.825
49127070,-0.03,-0.334,1.005,5.005,3.885,25.375
49127080,-0.035,-0.356,1.001,6.93,2.362,21.682
49127090,-0.034,-0.362,0.997,7.805,0.647,16.677
49127100,-0.035,-0.368,0.986,8.662,-0.98,11.515
49127110,-0.037,-0.386,0.96,12.372,-3.29,7.49
49127120,-0.034,-0.41,0.949,21.735,-5.53,5.495
49127130,-0.032,-0.401,0.943,31.185,-8.12,5.862
49127140,-0.032,-0.384,0.949,39.287,-9.992,6.545
49127150,-0.051,-0.371,0.94,42.892,-11.707,7.7
49127160,-0.037,-0.354,0.926,43.557,-11.777,3.237
49127170,-0.026,-0.341,0.924,43.295,-10.465,-0.962
49127170,-0.042,-0.34,0.91,40.425,-7.717,-0.77
49127190,-0.054,-0.331,0.906,36.627,-5.232,-0.437
49127190,-0.056,-0.316,0.907,32.077,-1.855,1.085
49127200,-0.068,-0.311,0.904,26.95,1.19,6.685
49127210,-0.098,-0.321,0.893,22.102,4.48,14.087
49127220,-0.107,-0.322,0.898,19.005,7.682,18.672
49127230,-0.125,-0.313,0.902,13.317,12.005,24.185
49127240,-0.151,-0.325,0.894,7.735,14.91,28.227
49127250,-0.163,-0.336,0.89,5.372,18.217,31.027
49127260,-0.184,-0.357,0.896,4.602,19.302,35.192
49127270,-0.21,-0.363,0.897,3.325,18.83,38.395
49127280,-0.215,-0.375,0.903,3.447,16.275,38.727
49127290,-0.218,-0.402,0.904,4.217,12.88,39.165
49127300,-0.223,-0.433,0.909,6.282,8.12,39.62
49127310,-0.22,-0.458,0.914,10.78,2.642,37.747
49127320,-0.207,-0.466,0.925,17.342,-3.587,35.752
49127330,-0.179,-0.474,0.936,23.677,-8.995,34.86
49127340,-0.146,-0.475,0.934,29.47,-13.212,33.862
49127350,-0.108,-0.467,0.939,35.98,-15.015,32.707
49127360,-0.088,-0.463,0.937,42.385,-14.735,33.81
49127370,-0.056,-0.442,0.947,48.615,-12.075,33.162
49127380,-0.041,-0.42,0.946,52.64,-8.785,34.65
49127390,-0.017,-0.398,0.95,57.4,-4.462,35.28
49127400,0.006,-0.379,0.957,62.23,1.382,36.085
49127410,0.02,-0.349,0.954,66.622,7.77,37.677
49127420,0.023,-0.333,0.942,71.977,14.735,39.97
49127430,0.025,-0.325,0.918,79.922,22.522,42.42
49127440,0.044,-0.311,0.894,91.07,32.375,43.732
49127450,0.055,-0.278,0.855,101.22,44.975,44.572
49127460,0.043,-0.246,0.842,113.347,60.112,44.17
49127470,0.013,-0.209,0.835,124.285,75.705,43.855
49127480,-0.02,-0.181,0.854,135.1,90.965,42.017
49127490,-0.07,-0.125,0.874,140.35,101.832,41.685
49127500,-0.108,-0.093,0.91,141.61,109.375,42.945
49127510,-0.118,-0.063,0.912,139.597,116.515,43.89
49127510,-0.108,0.009,0.919,134.382,127.627,43.487
49127530,-0.125,0.099,0.964,123.06,142.117,41.632
49127530,-0.163,0.203,0.969,103.092,159.232,37.607
49127550,-0.198,0.277,0.945,78.662,176.12,29.925
49127550,-0.206,0.299,0.885,53.41,193.917,22.47
49127570,-0.232,0.277,0.817,30.625,212.065,17.902
49127570,-0.289,0.255,0.773,14.105,229.932,16.397
49127580,-0.385,0.244,0.745,3.202,244.772,17.482
49127590,-0.49,0.243,0.74,-3.797,256.357,19.827
49127600,-0.579,0.228,0.735,-7.315,262.08,22.942
49127610,-0.628,0.214,0.74,-6.422,265.457,26.582
49127620,-0.697,0.194,0.736,-3.745,264.197,29.995
49127630,-0.791,0.169,0.735,0.927,259.437,32.655
49127640,-0.858,0.163,0.758,9.012,249.445,35.7
49127650,-0.898,0.153,0.748,16.765,235.76,36.312
49127660,-0.909,0.125,0.726,25.567,218.785,33.967
49127670,-0.907,0.071,0.654,35.07,203.402,35.7
49127680,-0.943,-0.034,0.62,55.282,187.11,44.467
49127690,-0.91,0.077,0.669,65.59,173.477,37.765
49127700,-0.987,0.117,0.673,64.942,157.78,37.957
49127710,-0.999,0.165,0.672,63.91,138.792,35.052
49127720,-0.935,0.182,0.632,54.215,119.84,23.852
49127730,-0.907,0.11,0.557,42.892,103.757,11.06
49127740,-1.186,-0.08,0.616,38.01,69.072,1.417
49127750,-0.977,-0.342,0.541,53.13,3.535,-17.115
49127760,-0.378,0.007,0.59,93.485,-24.43,-41.615
49127770,-0.086,0.227,0.662,98.805,4.952,-28.052
49127780,-0.578,0.23,0.688,78.592,56.682,-19.792
49127790,-0.925,0.36,0.706,52.99,80.692,-44.502
49127800,-0.907,0.328,0.597,18.637,83.055,-59.062
49127810,-0.939,0.219,0.493,-6.405,75.355,-60.987
49127820,-0.944,0.159,0.399,-19.53,68.11,-62.317
49127830,-0.972,0.029,0.286,-25.812,65.52,-65.957
49127840,-0.987,-0.087,0.221,-18.375,62.965,-66.78
49127850,-1.286,-0.2,0.225,12.285,45.92,-28.717
49127860,-1.161,-0.043,0.338,40.407,21.332,-34.702
49127870,-1.051,0.06,0.33,50.137,7.105,-38.272
49127870,-1.061,0.203,0.417,51.24,-7.017,-31.43
49127890,-0.978,0.297,0.436,33.145,-14.455,-28.227
49127890,-0.883,0.228,0.427,13.597,-13.737,-28.49
49127910,-0.825,0.147,0.45,0.227,-5.932,-28.63
49127910,-0.773,0.069,0.42,-6.212,7.455,-31.237
49127920,-0.757,0.071,0.425,-3.202,23.24,-31.902
49127930,-0.886,0.097,0.455,-4.042,34.632,-26.862
49127940,-0.97,0.074,0.464,-3.045,35.315,-22.802
49127950,-0.982,0.131,0.463,0.245,30.38,-18.97
49127960,-1.023,0.097,0.444,-5.985,22.05,-14.805
49127970,-0.951,0.019,0.383,-13.37,20.825,-17.71
49127980,-0.93,-0.011,0.364,-14.507,23.87,-22.522
49127990,-0.979,-0.055,0.326,-14.752,27.93,-31.377
49128000,-0.946,-0.118,0.307,-6.545,29.627,-47.652
49128010,-0.885,-0.036,0.267,5.67,32.9,-57.172
49128020,-0.991,0.014,0.28,13.755,30.59,-53.602
49128030,-1.056,-0.004,0.278,17.517,19.95,-50.785
49128040,-0.975,0,0.261,20.51,5.39,-48.877
49128050,-0.926,0.026,0.255,22.82,-5.74,-47.25
49128060,-0.927,0.089,0.323,21.84,-14.315,-45.78
49128070,-0.876,0.151,0.39,20.16,-17.482,-47.302
49128080,-0.898,0.149,0.354,-3.71,-13.807,-51.222
49128090,-0.827,-0.007,0.276,-20.055,0.472,-66.92
49128100,-0.983,-0.2,0.267,-35.42,20.177,-87.482
49128110,-0.616,-0.032,0.261,-71.557,45.622,-199.622
49128120,-0.821,-0.123,0.265,-89.495,75.337,-140.91
49128130,-1.468,-0.394,0.31,-13.492,41.195,-13.265
49128140,-1.04,0.028,0.462,5.477,12.67,-50.732
49128150,-1.107,-0.345,0.325,-18.375,2.537,-15.662
49128160,-1.089,-0.319,0.369,1.207,-5.67,-16.87
49128170,-0.973,-0.095,0.444,10.815,-8.89,-16.047
49128180,-0.951,-0.112,0.381,-7.175,-3.71,-18.917
49128190,-0.93,-0.21,0.359,-10.885,2.8,-17.78
49128200,-0.94,-0.218,0.327,-9.87,9.257,-13.737
49128210,-0.975,-0.172,0.324,-7.07,12.127,-9.275
49128220,-0.931,-0.136,0.373,-5.915,10.535,-3.097
49128230,-0.978,-0.181,0.391,-8.365,6.072,4.48
49128240,-0.936,-0.2,0.388,-0.227,-1.837,9.695
49128250,-0.936,-0.161,0.434,11.357,-11.462,15.872
49128260,-0.929,-0.168,0.456,18.62,-22.697,22.347
49128260,-0.925,-0.137,0.453,27.982,-39.235,27.685
49128280,-0.921,-0.115,0.415,34.65,-57.33,36.067
49128280,-0.99,-0.123,0.376,39.602,-78.662,45.272
49128300,-1.125,-0.15,0.351,43.907,-111.422,60.515
49128300,-1.141,-0.139,0.345,57.295,-157.937,81.042
49128320,-1.156,-0.18,0.347,73.867,-209.965,104.037
49128320,-1.112,-0.181,0.314,93.975,-263.13,113.067
49128330,-0.993,-0.129,0.301,114.292,-311.115,136.85
49128340,-0.989,-0.162,0.313,127.05,-352.8,161.98
49128350,-0.746,-0.056,0.326,138.425,-383.04,160.58
49128360,-0.563,0.088,0.367,140.21,-387.747,158.76
49128370,-0.531,0.139,0.377,125.072,-375.445,159.827
