time[ms],accX[g],accY[g],accZ[g],Value 1,Value 2,Value 3
38580900,-0.116,0.123,0.983,-0.77,-3.325,0.017
38580910,-0.133,0.121,0.977,-0.332,-4.515,2.695
38580920,-0.098,0.112,0.972,-0.945,-6.825,3.237
38580920,-0.063,0.087,0.977,-2.677,-7.052,2.012
38580940,-0.053,0.064,0.985,-2.31,-6.16,0.367
38580940,-0.044,0.054,0.994,0.175,-3.745,-0.525
38580960,-0.037,0.07,0.989,4.165,-1.522,-0.717
38580960,-0.053,0.093,0.982,7.42,1.435,-0.385
38580980,-0.054,0.097,0.976,8.592,3.132,0.122
38580980,-0.032,0.093,0.974,8.015,5.442,0.875
38581000,-0.048,0.101,0.979,7.77,7.787,0.805
38581000,-0.078,0.103,0.982,7.997,9.205,-0.157
38581010,-0.094,0.112,0.978,8.89,8.837,-1.172
38581020,-0.102,0.129,0.979,9.012,7.77,-1.61
38581030,-0.105,0.138,0.972,7.647,6.16,-1.767
38581040,-0.113,0.151,0.975,5.145,4.41,-1.067
38581050,-0.127,0.141,0.973,2.415,2.292,-0.367
38581060,-0.129,0.142,0.982,0.332,-0.49,0.105
38581070,-0.132,0.145,0.979,-0.787,-3.325,0.472
38581080,-0.128,0.13,0.982,-2.082,-6.282,0.472
38581090,-0.128,0.119,0.984,-3.255,-8.557,0.56
38581100,-0.116,0.111,0.985,-4.305,-10.412,1.155
38581110,-0.104,0.102,0.985,-4.55,-10.99,1.907
38581120,-0.089,0.093,0.986,-3.867,-11.252,2.502
38581130,-0.076,0.09,0.984,-2.187,-10.22,2.94
38581140,-0.061,0.083,0.987,-0.262,-9.03,2.922
38581150,-0.057,0.084,0.99,1.4,-6.72,2.345
38581160,-0.055,0.093,0.99,2.87,-4.812,1.435
38581170,-0.053,0.108,0.986,3.745,-2.362,0.875
38581180,-0.065,0.112,0.984,4.287,-0.857,0.35
38581190,-0.08,0.107,0.993,4.077,0.91,0.175
38581200,-0.097,0.104,1.003,3.622,1.277,-0.052
38581210,-0.104,0.119,0.999,2.502,1.645,-0.402
38581220,-0.103,0.152,0.985,1.452,0.612,-0.875
38581230,-0.097,0.133,0.985,-0.21,-0.437,-0.962
38581240,-0.076,0.133,0.967,-1.89,-1.96,-0.612
38581250,-0.058,0.159,0.947,-2.73,-1.995,-0.315
38581260,-0.049,0.125,0.967,-4.375,-2.38,-0.612
38581270,-0.064,0.093,0.984,-5.39,-1.172,-1.82
38581280,-0.066,0.099,0.985,-5.46,-0.332,-3.132
38581290,-0.059,0.097,0.97,-5.53,1.347,-4.9
38581300,-0.076,0.085,0.946,-4.095,2.397,-6.965
38581310,-0.117,0.072,0.937,-1.085,3.202,-8.172
38581320,-0.18,0.047,0.942,3.342,2.012,-8.697
38581330,-0.22,0.063,0.953,9.45,-0.7,-7.77
38581330,-0.137,0.062,0.964,14.735,-4.742,-4.147
38581350,-0.047,0.183,0.973,18.165,-5.407,0.875
38581350,-0.089,0.265,0.943,17.675,-5.985,4.637
38581370,-0.114,0.267,0.95,9.502,-9.222,8.225
38581370,-0.106,0.269,0.946,0.542,-14.507,10.552
38581390,-0.095,0.251,0.968,-8.942,-19.355,10.622
38581390,-0.128,0.155,0.995,-17.097,-23.677,7.332
38581410,-0.08,0.047,1.015,-20.755,-25.55,2.555
38581410,-0.083,0.094,1.006,-19.355,-23.695,-3.237
38581420,0.008,0.145,1.004,-17.22,-21.07,-6.055
38581430,0.046,0.134,1.029,-17.115,-15.942,-6.93
38581440,0.027,0.07,1.034,-18.585,-8.54,-5.915
38581450,0.027,0.097,1.03,-20.142,-0.962,-3.22
38581460,-0.041,0.134,1.021,-21.595,5.302,-0.927
38581470,-0.157,0.123,1.01,-24.622,7.717,-1.995
38581480,-0.178,0.086,0.969,-26.722,4.497,-3.727
38581490,-0.161,-0.005,0.931,-24.727,-0.192,-3.535
38581500,-0.114,-0.063,0.947,-18.725,-4.795,-2.012
38581510,-0.037,-0.013,0.968,-10.097,-5.25,2.31
38581520,-0.021,0.054,0.983,-3.395,-2.957,7.717
38581530,-0.095,0.116,1.003,-1.4,-0.49,10.255
38581540,-0.187,0.163,1.014,-4.602,-2.835,8.207
38581550,-0.182,0.17,1.032,-12.232,-8.47,3.36
38581560,-0.076,0.18,1.048,-21.105,-13.615,-2.537
38581570,-0.044,0.146,1.066,-29.995,-11.9,-6.86
38581580,0.008,0.158,1.104,-38.272,-7.822,-10.745
38581590,0.045,0.232,1.146,-50.015,5.67,-13.947
38581600,-0.014,0.225,1.191,-68.862,20.072,-20.422
38581610,-0.013,0.212,1.224,-96.757,29.995,-22.347
38581620,-0.02,0.165,1.219,-125.79,38.395,-21.385
38581630,0.015,0.116,1.198,-156.17,43.785,-17.727
38581640,0.012,0.079,1.175,-182.752,49.595,-10.307
38581650,0.022,0.07,1.16,-203.857,49.49,-0.402
38581660,0.129,0.03,1.125,-219.835,50.015,11.655
38581670,0.04,-0.07,1.086,-226.765,57.155,21.315
38581670,0.009,-0.27,1.111,-229.355,60.602,23.257
38581690,-0.128,-0.275,1.211,-232.05,63.105,22.715
38581690,-0.121,-0.604,1.518,-227.57,61.127,15.312
38581710,0.113,-1.185,1.525,-205.292,46.462,3.92
38581710,0.153,-1.219,1.138,-120.785,49.735,9.257
38581730,0.324,-1.197,1.419,-27.685,80.395,1.015
38581730,0.336,-1.541,1.63,62.125,80.955,-33.932
38581750,0.44,-0.828,0.312,201.057,93.765,-64.137
38581750,-0.147,-0.276,-0.376,260.47,114.782,-73.71
38581760,-0.408,-0.251,-0.614,209.545,83.457,-91.525
38581770,-0.353,-0.095,-0.983,171.062,30.66,-90.737
38581780,-0.288,0.161,-0.911,103.53,1.295,-72.782
38581790,-0.226,0.066,-0.327,-34.387,-10.237,-76.58
38581800,-0.261,-0.244,0.196,-116.777,-27.86,-90.352
38581810,-0.282,-0.16,0.145,-103.25,-42.805,-93.485
38581820,-0.293,0.07,-0.132,-71.417,-49.997,-84.735
38581830,-0.328,0.188,-0.293,-57.995,-51.205,-77.927
38581840,-0.399,0.394,-0.366,-52.99,-55.72,-74.112
38581850,-0.064,1.201,0.067,-55.317,-59.167,-60.252
38581860,-1.994,-0.098,1.908,-174.37,-263.445,-41.825
38581870,0.604,-1.998,0.348,245.472,-422.012,-91.087
38581880,1.325,-0.026,0.837,432.88,-19.53,115.675
38581890,-1.286,1.808,-0.132,464.1,-36.645,-24.85
38581900,0.983,-0.391,1.757,401.1,-95.9,-73.062
38581910,0.921,0.613,1.867,356.055,-38.657,-4.375
38581920,1.211,1.478,1.728,268.642,18.69,20.405
38581930,-0.13,1.657,1.549,129.85,89.337,60.13
38581940,-0.961,1.497,1.342,1.907,74.007,77.735
38581950,-0.454,0.719,1.443,-117.057,16.31,61.582
38581960,-0.669,0.225,0.972,-163.502,-3.185,15.487
38581970,-0.684,-0.413,0.759,-170.047,-16.117,-31.097
38581980,-0.36,-0.63,0.555,-130.602,-32.935,-58.03
38581990,0.011,-0.8,0.593,-68.04,-38.762,-67.602
38582000,0.391,-0.754,0.681,-7.945,-41.002,-51.8
38582010,0.538,-0.402,0.798,39.585,-33.775,-17.5
38582020,0.495,-0.135,0.887,68.215,-18.672,20.72
38582030,0.19,-0.08,1.005,82.775,1.68,49.892
38582040,0.02,0.034,1.051,85.452,12.792,65.345
38582050,-0.128,0.148,1.075,82.337,19.705,63.752
38582060,-0.338,0.395,1.117,73.15,18.865,50.627
38582070,-0.339,0.485,1.169,49.315,10.237,30.38
38582080,-0.224,0.427,1.13,14.612,-3.29,10.062
38582080,-0.159,0.258,1.062,-17.465,-12.722,-4.97
38582100,-0.11,0.059,1.009,-33.932,-18.812,-14.192
38582100,0.002,-0.041,1.044,-37.135,-20.86,-19.337
38582120,0.134,0.082,1.071,-37.415,-16.712,-19.67
38582120,0.187,0.162,1.186,-45.605,-5.302,-14.227
38582140,0.175,0.248,1.261,-71.365,9.87,-9.31
38582140,0.016,0.294,1.279,-110.477,20.86,-2.94
38582160,-0.063,0.19,1.319,-161.297,12.705,8.995
38582160,0.045,0.236,1.373,-219.275,-0.945,29.645
38582170,-0.033,0.257,1.302,-266.892,-8.977,51.17
38582180,-0.23,0.038,1.252,-309.365,-20.58,67.165
38582190,-0.11,-0.297,1.256,-351.12,-34.825,84.752
38582200,-0.059,-0.482,1.436,-389.025,-39.025,98.717
38582210,-0.025,-0.745,1.633,-420.84,-17.815,99.557
38582220,-0.438,-1.69,1.437,-373.642,-22.96,82.705
38582230,0.649,-1.217,1.17,-240.17,-38.43,69.58
38582240,-0.495,-1.168,0.59,-107.082,26.425,66.447
38582250,-0.779,-0.712,1.101,-6.65,69.772,0.332
38582260,-0.334,-0.615,0.854,34.457,62.107,-6.527
38582270,-0.09,0.051,-0.287,145.617,50.662,-19.215
38582280,-0.088,0.094,-0.554,131.74,69.002,-37.817
38582290,-0.091,0,-0.397,72.065,75.477,-64.82
38582300,-0.085,-0.044,-0.238,29.575,74.9,-89.53
38582310,-0.012,-0.105,-0.178,-5.512,73.99,-111.177
38582320,-0.19,-0.073,-0.273,-14.35,72.8,-146.965
38582330,-0.459,-0.009,-0.294,-17.482,70.63,-173.057
38582340,-0.599,0.07,-0.201,-25.602,60.2,-172.812
38582350,-0.603,0.094,-0.123,-31.57,47.897,-148.75
38582360,-0.561,0.091,-0.124,-28.332,38.01,-108.167
38582370,-0.415,0.076,-0.177,-22.067,33.862,-60.13
38582380,-0.46,0.178,0.045,-26.53,36.89,-13.475
38582390,0.656,-1.394,1.557,-112.21,-2.87,-1.54
38582400,0.143,-1.812,1.983,-69.107,-149.432,-48.072
38582410,-0.192,-1.998,0.822,215.792,-276.955,-167.072
38582420,0,0.141,0.399,537.635,-23.8,-88.795
38582420,0.983,1.76,0.006,463.627,-106.347,-52.132
38582440,1.697,-0.979,1.282,368.252,-48.947,-35.402
38582440,0.619,-0.295,1.515,416.115,12.197,-27.055
38582460,0.494,0.926,0.979,414.645,21.455,29.785
38582460,1.532,0.468,1.597,286.055,85.82,103.25
38582480,-0.764,1.233,1.666,235.165,150.972,109.077
38582480,-1.133,1.243,1.388,143.272,117.897,103.897
38582500,-1.186,0.898,1.233,44.17,51.782,69.492
38582500,-0.87,0.497,1.153,-26.267,-6.807,8.575
38582510,-0.437,0.198,1.063,-73.972,-40.232,-38.045
38582520,0.045,-0.08,1.04,-96.915,-54.232,-55.772
38582530,0.341,-0.176,0.958,-97.65,-43.645,-51.502
38582540,0.429,-0.234,0.767,-79.38,-20.842,-23.642
38582550,0.178,-0.555,0.636,-41.457,-3.045,12.355
38582560,-0.075,-0.797,0.602,14.857,-0.577,38.22
38582570,-0.076,-0.88,0.565,81.007,-3.867,54.197
38582580,0.005,-0.211,0.979,132.37,-3.937,58.642
38582590,0.161,0.504,1.285,143.465,6.562,51.117
38582600,-0.163,0.88,1.269,103.985,18.357,33.81
38582610,-0.282,0.413,1.093,48.93,14.56,18.095
38582620,-0.286,0.408,1.064,17.15,1.802,8.085
38582630,-0.337,0.24,1.015,-5.512,-15.015,-5.827
38582640,-0.195,0.12,1.02,-18.41,-29.697,-15.26
38582650,0.05,0.158,1.036,-21.927,-35.052,-22.015
38582660,0.183,0.095,1.042,-25.725,-30.432,-22.172
38582670,0.082,0.107,1.043,-29.172,-18.497,-18.095
38582680,0.018,0.098,1.062,-35.297,-10.307,-15.977
38582690,-0.053,0.157,1.115,-46.567,-5.005,-19.145
38582700,-0.049,0.254,1.181,-65.17,-2.24,-25.322
38582710,-0.026,0.266,1.217,-92.557,5.407,-31.99
38582720,-0.051,0.199,1.23,-125.912,10.92,-33.81
38582730,-0.003,0.161,1.175,-163.082,16.205,-25.532
38582740,-0.065,0.148,1.157,-196.735,15.207,-13.562
38582750,-0.126,0.102,1.133,-227.657,1.89,0.157
38582760,-0.022,-0.027,1.078,-248.85,-17.972,14.402
38582770,0.007,-0.115,1.139,-260.855,-16.047,30.52
38582780,-0.094,-0.212,1.198,-262.99,-4.97,39.935
38582790,-0.159,-0.531,1.317,-263.725,14.752,40.67
38582800,-0.236,-0.955,1.767,-255.307,16.17,35.437
38582810,-0.05,-1.489,1.998,-192.045,0.315,16.642
38582820,-0.609,-1.998,1.853,0.752,26.075,10.377
38582830,-0.127,-1.086,-0.075,289.537,40.687,15.645
38582830,0.008,-0.083,-1.091,371.91,53.147,51.905
38582850,0.043,-0.234,-1.469,289.677,18.952,29.61
38582850,0.42,-0.538,-0.915,155.68,11.795,-9.362
38582870,0.503,-0.626,-0.166,2.31,43.75,-47.145
38582870,0.257,-0.552,0.196,-132.247,88.427,-80.255
38582880,-0.04,-0.607,0.109,-130.095,87.885,-150.867
38582890,-0.414,-0.332,-0.112,-94.115,60.742,-202.352
38582900,-0.589,-0.302,-0.157,-101.062,14.297,-244.895
38582910,-0.607,-0.439,-0.015,-109.83,-11.55,-267.855
38582920,-0.747,0.018,0.033,-84.455,-18.777,-257.617
38582930,-0.971,0.75,-0.096,-43.19,-35.385,-201.985
38582940,-0.623,1.584,0.658,-37.642,-67.042,-106.872
38582950,-1.022,-0.18,1.672,-150.99,-221.305,-2.992
38582960,1.972,-1.998,0.329,325.92,-154.7,-12.81
38582970,0.237,-0.563,0.523,538.195,32.952,-30.327
38582980,0.63,1.577,0.646,419.667,33.635,-7.962
38582990,1.748,0.351,1.402,423.325,59.815,60.322
38583000,-0.096,0.629,1.978,363.79,136.587,69.667
38583010,-1.302,1.419,1.74,269.43,161.245,81.235
38583020,-1.678,1.966,0.891,131.46,81.795,57.855
38583030,-1.033,0.964,1.216,-41.265,-24.71,11.865
38583040,-0.199,0.412,1.213,-130.305,-80.622,-30.957
38583050,0.181,-0.191,0.989,-156.852,-82.74,-46.777
38583060,0.308,-0.626,0.906,-132.562,-64.96,-44.537
38583070,0.41,-0.374,0.854,-89.792,-37.555,-26.127
38583080,0.312,-0.323,0.827,-50.942,-11.427,-1.172
38583090,0.116,-0.378,0.8,-23.485,5.285,20.632
38583100,-0.018,-0.348,0.897,3.902,8.522,31.482
38583110,0.038,-0.043,1.062,17.325,11.427,34.772
38583120,0.058,0.258,1.161,7.665,15.33,38.605
38583130,-0.057,0.351,1.244,-19.355,17.517,39.655
38583140,-0.126,0.41,1.312,-52.237,15.907,36.347
38583150,-0.161,0.416,1.379,-100.222,14.087,30.73
38583160,-0.202,0.411,1.353,-159.67,7.875,26.25
38583170,-0.163,0.362,1.285,-220.745,3.797,22.435
38583170,-0.095,0.209,1.204,-272.16,4.76,16.992
38583190,-0.09,0.03,1.164,-310.38,8.4,12.915
38583190,0.089,-0.068,1.212,-330.96,14.262,12.88
38583210,0.105,-0.327,1.28,-340.952,31.5,15.662
38583210,-0.08,-0.704,1.429,-344.802,28.052,10.762
38583230,-0.281,-0.917,1.778,-342.475,13.23,5.967
38583230,-0.374,-1.48,1.973,-276.447,-32.847,22.12
38583250,0.384,-1.071,1.323,-103.285,-71.907,5.827
38583250,0.157,-1.084,1.014,-16.835,-5.652,20.422
38583260,0.083,-1.333,0.917,58.38,35.997,-0.122
38583270,0.032,-0.993,0.177,195.44,24.377,-4.34
38583280,-0.022,-0.527,-0.488,278.425,6.247,-0.962
38583290,-0.145,-0.188,-1.151,266.577,-23.152,3.237
38583300,-0.17,0.012,-1.319,209.895,-50.82,8.872
38583310,0,-0.031,-0.911,89.442,-58.135,20.02
38583320,0.206,-0.243,-0.206,-71.732,-44.397,44.485
38583330,0.311,-0.51,0.276,-170.992,-41.79,55.527
38583340,0.226,-0.499,0.315,-158.147,-70.63,52.01
38583350,0.174,-0.419,-0.036,-98.805,-131.512,73.675
38583360,0.31,-0.418,-0.351,-57.54,-209.282,120.242
38583370,0.401,-0.486,-0.396,-58.45,-285.477,160.895
38583380,0.483,-0.455,-0.232,-97.65,-350.98,174.422
38583390,0.442,-0.38,0.009,-151.882,-385.682,175.735
38583400,0.066,-0.14,0.044,-164.832,-386.61,175.385
38583410,0.16,0.573,1.487,-180.722,-335.387,165.777
38583420,0.805,0.473,1.73,-140.017,-37.03,175.192
38583430,0.657,-1.881,1.295,161.665,308.735,168.962
38583440,-1.732,-1.181,-0.096,549.832,96.32,-116.742
38583450,1.156,1.93,0.941,447.72,159.197,0.875
38583460,0.952,1.57,0.583,452.252,181.842,64.68
38583470,0.147,-0.692,1.363,467.407,171.027,-6.93
38583480,-0.894,0.377,1.625,395.64,139.947,2.432
38583490,-0.559,1.471,1.551,331.45,93.695,32.602
38583500,-0.624,1.06,1.705,183.627,72.747,36.82
38583510,-0.651,1.014,1.481,84.175,45.692,12.25
38583520,-0.584,0.672,1.308,-1.715,14.822,-8.522
38583530,-0.41,0.273,1.128,-60.095,-12.442,-29.505
38583540,-0.007,-0.002,0.955,-79.45,-27.16,-43.295
38583550,0,-0.273,0.874,-73.377,-22.26,-47.267
38583550,0.049,-0.344,0.88,-58.292,-17.762,-37.397
38583570,0.048,-0.286,0.905,-38.272,-16.59,-22.19
38583570,0.116,-0.182,0.966,-26.425,-15.487,-7.472
38583580,0.146,-0.073,1.017,-20.405,-10.325,4.97
38583590,-0.016,0.006,1.05,-22.155,-3.465,11.515
38583600,-0.052,0.041,1.079,-31.097,-1.137,11.2
38583610,-0.048,0.083,1.15,-44.17,0.455,6.457
38583620,-0.013,0.175,1.245,-66.22,5.092,-0.245
38583630,0.051,0.244,1.303,-101.99,12.092,-4.567
38583640,0.05,0.205,1.316,-146.982,16.887,-4.235
38583650,0.085,0.104,1.296,-196.752,23.555,-0.735
38583660,0.119,0.081,1.293,-238.98,29.942,3.517
38583670,0.125,0.025,1.336,-274.242,40.25,6.107
38583680,0.173,-0.177,1.397,-307.405,59.64,6.247
38583690,0.128,-0.343,1.664,-340.672,81.637,2.887
38583700,-0.013,-0.954,1.998,-370.79,67.165,-8.505
38583710,-0.326,-1.615,1.922,-311.64,19.32,-20.545
38583720,0.024,-1.556,1.335,-102.48,-20.895,-2.485
38583730,0.367,-1.684,1.243,1.085,38.517,12.46
38583740,0.585,-1.76,0.692,86.187,67.69,-31.605
38583750,0.464,-0.922,-0.626,244.825,78.47,-72.432
38583760,-0.155,-0.291,-1.033,203.21,90.457,-107.275
38583770,-0.448,-0.362,-0.568,69.177,39.847,-162.767
38583780,-0.264,-0.601,0.022,-45.937,5.057,-184.835
38583790,-0.225,-0.562,0.166,-74.83,25.445,-171.202
38583800,-0.551,-0.195,-0.095,-42.49,41.615,-162.697
38583810,-0.698,0.096,-0.257,-27.615,33.25,-136.447
38583820,-0.53,0.242,-0.182,-29.12,13.825,-78.61
38583830,-0.357,0.356,-0.037,-32.672,-4.357,-16.52
38583840,-0.23,0.499,0.016,-28.91,-18.025,36.47
38583850,-0.065,0.545,-0.045,-29.207,-25.62,77.14
38583860,0.047,0.525,-0.096,-44.73,-33.512,97.195
38583870,0.03,0.399,-0.17,-70.752,-55.387,96.495
38583880,0.064,0.222,-0.239,-93.852,-94.36,84.7
38583890,0.251,-0.053,-0.252,-119.35,-122.535,74.585
38583900,0.242,-0.201,-0.17,-142.1,-131.582,57.732
38583910,0.085,-0.527,-0.387,-155.907,-128.712,34.247
38583920,0.119,-1.484,1.281,-205.94,-29.995,-18.532
38583920,-1.364,-1.958,1.623,-163.642,37.38,-78.855
38583940,-1.02,-1.998,0.629,388.815,-47.005,-65.922
38583940,0.479,0.69,-0.552,568.505,-75.582,-36.4
38583960,0.756,1.875,0.214,457.222,-84,-48.51
38583960,1.322,-0.803,0.79,441.98,-11.392,-1.067
38583980,1.828,-1.312,1.19,538.405,61.74,-18.97
38583980,-0.014,1.419,1.014,564.497,120.925,16.642
38584000,0.632,0.985,1.821,451.78,140.245,79.87
38584000,-1.035,1.017,1.946,290.675,184.975,78.627
38584010,-1.909,1.997,0.944,182.7,121.1,52.57
38584020,-0.936,1.387,1.374,-32.322,0.157,13.685
38584030,-0.21,0.577,1.485,-165.06,-59.902,-35.297
38584040,0.086,0.108,0.869,-189.367,-59.657,-49.927
38584050,-0.154,-0.768,0.817,-191.047,-48.282,-56.91
38584060,-0.043,-0.749,0.681,-156.502,-36.592,-53.217
38584070,0.227,-0.627,0.596,-104.352,-29.54,-29.452
38584080,0.232,-0.654,0.661,-51.922,-26.302,-2.397
38584090,0.185,-0.534,0.775,-1.872,-19.757,25.025
38584100,0.186,-0.31,0.894,30.59,-13.072,44.555
38584110,0.132,-0.084,1.048,43.54,-5.355,52.692
38584120,0.056,0.144,1.105,40.39,2.747,54.127
38584130,-0.07,0.211,1.135,24.85,8.277,51.94
38584140,-0.284,0.26,1.171,4.707,8.96,41.457
38584150,-0.381,0.293,1.203,-20.527,6.44,20.317
38584160,-0.319,0.262,1.213,-49.507,1.802,-4.077
38584170,-0.136,0.214,1.25,-84.315,1.05,-23.135
38584180,0.044,0.191,1.245,-116.795,8.33,-30.152
38584190,0.092,0.118,1.245,-151.27,20.405,-26.775
38584200,0.079,0.094,1.253,-185.482,24.902,-18.672
38584210,0.21,0.038,1.264,-217.892,32.2,-6.02
38584220,0.316,-0.053,1.301,-245.997,48.422,4.375
38584230,0.289,-0.19,1.345,-271.845,66.255,13.737
38584240,0.095,-0.382,1.417,-294.437,70.42,21.017
38584250,-0.141,-0.756,1.6,-308.332,44.975,22.26
38584260,-0.472,-0.954,1.753,-303.275,-16.432,13.632
38584260,-0.767,-1.113,1.59,-268.922,-90.072,12.32
38584280,-0.494,-1.195,1.267,-207.532,-109.357,39.917
38584280,-0.156,-1.878,1.163,-119.805,-62.072,53.812
38584300,-0.03,-1.553,1.108,-0.525,-1.05,3.78
38584300,-0.588,-1.107,-0.142,123.235,7.665,-74.48
38584320,-0.681,-0.411,-0.987,166.81,35.052,-86.607
38584320,-0.553,-0.274,-0.938,75.81,55.755,-77.21
38584330,-0.248,-0.232,-0.425,-26.635,52.972,-73.622
38584340,0.068,-0.225,0.046,-83.352,52.202,-62.177
38584350,0.23,-0.073,0.177,-83.982,57.89,-50.662
38584360,0.261,0.233,0.032,-57.26,58.957,-41.93
38584370,0.233,0.523,-0.136,-35.735,48.877,-33.127
38584380,0.242,0.643,-0.182,-31.832,29.365,-29.155
38584390,0.246,0.586,-0.106,-41.86,7.84,-31.43
38584400,0.204,0.453,-0.018,-47.512,-12.005,-38.01
38584410,0.125,0.359,0.027,-42.98,-22.452,-38.395
38584420,0.046,0.317,0.001,-33.827,-30.712,-31.062
38584430,0.037,0.275,-0.044,-33.792,-45.115,-21.017
38584440,0.156,0.12,-0.334,-46.357,-56.84,-5.582
38584450,0.814,-1.007,0.549,-82.862,19.81,4.48
38584460,-1.412,-1.998,1.983,-173.302,112.682,-93.467
38584470,-1.367,-1.998,0.459,326.042,-78.96,-101.815
38584480,-0.001,1.047,-0.422,563.71,-117.057,5.495
38584490,0.998,1.837,-0.021,401.152,-149.187,-21.735
38584500,1.663,-0.996,1.554,317.292,-32.042,26.582
38584510,0.173,-0.897,1.634,380.345,0.735,-58.1
38584520,0.834,0.66,1.018,414.487,26.127,15.89
38584530,0.667,0.569,1.257,331.817,51.59,73.605
38584540,-0.2,0.323,1.668,268.38,67.952,80.745
38584550,-0.635,0.978,1.534,219.17,65.362,91.227
38584560,-0.849,1.021,1.408,117.67,41.335,74.9
38584570,-0.736,0.76,1.246,20.772,8.855,38.307
38584580,-0.514,0.504,1.233,-47.442,-20.177,1.505
38584590,-0.36,0.324,1.238,-100.362,-37.66,-31.395
38584600,-0.042,0.126,1.15,-137.077,-45.465,-47.547
38584610,0.13,-0.062,0.935,-151.795,-36.19,-52.115
38584620,0.169,-0.361,0.748,-148.295,-22.085,-43.662
38584630,0.198,-0.654,0.634,-119.297,-17.027,-24.307
38584640,0.202,-0.708,0.683,-71.207,-16.555,-2.642
38584650,0.131,-0.481,0.779,-27.44,-11.462,13.37
38584660,0.085,-0.312,0.875,2.677,-7.332,24.762
38584670,0.007,-0.162,0.978,19.565,-4.322,30.485
38584670,-0.077,-0.045,1.023,24.78,-2.905,31.972
38584690,-0.112,-0.026,1.064,20.44,-2.275,27.79
38584690,-0.128,0.042,1.113,10.745,-2.24,19.46
38584710,-0.117,0.148,1.201,-8.505,-1.785,12.74
38584710,-0.132,0.229,1.277,-38.64,-0.245,6.002
38584730,-0.094,0.246,1.299,-76.825,2.45,-0.192
38584730,-0.044,0.198,1.278,-121.345,5.075,-2.8
38584750,0.027,0.133,1.221,-162.382,4.532,-0.577
38584750,0.068,0.035,1.152,-199.552,5.162,6.16
38584760,0.106,-0.042,1.115,-231,10.815,13.79
38584770,0.067,-0.139,1.113,-254.415,21.56,21.262
38584780,0.035,-0.27,1.146,-270.095,31.657,25.27
38584790,0.022,-0.451,1.224,-279.51,40.775,27.58
38584800,-0.136,-0.658,1.262,-270.567,34.212,21.105
38584810,-0.348,-0.837,1.48,-254.502,20.755,17.657
38584820,-0.224,-1.028,1.508,-181.877,-10.937,17.57
38584830,-0.088,-0.833,1.139,-96.635,-41.912,2.065
38584840,0.098,-0.504,0.681,-72.712,-32.375,12.215
38584850,0.16,-0.561,0.775,-56.227,-5.442,12.547
38584860,0.154,-0.887,0.813,-22.645,29.172,-11.357
38584870,0.116,-1.004,0.645,59.15,52.202,-26.967
38584880,0.401,-0.756,0.438,120.19,74.252,-50.767
38584890,0.134,-0.564,-0.03,140.227,72.852,-82.582
38584900,-0.344,0.021,-0.3,133.91,36.382,-138.005
38584910,-0.648,0.414,-0.302,93.835,4.147,-155.435
38584920,-0.77,0.542,-0.175,34.142,-4.602,-128.852
38584930,-0.7,0.474,-0.145,0.595,6.282,-81.322
38584940,-0.616,0.381,-0.246,6.475,30.555,-23.135
38584950,-0.456,0.335,-0.394,20.93,46.655,18.06
38584960,-0.237,0.17,-0.457,16.432,51.152,39.392
38584970,-0.072,0.151,-0.497,1.697,50.802,43.487
38584980,0.009,0.395,-0.867,-8.277,40.04,37.205
38584990,1.401,-0.581,0.007,-34.72,104.702,10.027
38585000,-0.896,-1.998,1.998,-215.705,-6.247,-107.31
38585010,-0.875,-1.374,0.934,191.73,-410.97,-378.945
38585010,1.774,1.967,-0.633,548.1,-100.52,-34.23
38585030,1.939,1.868,-0.181,427.437,-11.357,-16.135
38585030,0.58,-1.291,1.75,332.57,49.402,-120.47
38585050,0.795,-0.228,1.531,399.91,71.102,34.895
38585050,0.824,1.516,1.188,399.035,54.845,121.327
38585070,-0.863,0.715,1.817,223.09,76.177,144.777
38585070,-1.287,0.998,1.584,132.457,63.14,160.755
38585080,-1.226,1.037,1.245,46.497,23.205,100.625
38585090,-1.059,0.406,1.189,-53.042,-12.372,4.077
38585100,-0.354,0.032,0.982,-85.12,-48.982,-51.38
38585110,0.182,-0.25,0.807,-86.257,-60.48,-68.565
38585120,0.439,-0.529,0.798,-62.562,-48.457,-56.42
38585130,0.436,-0.449,0.835,-27.037,-32.9,-23.275
38585140,0.35,-0.319,0.862,2.117,-18.112,10.342
38585150,0.077,-0.229,0.95,20.265,-4.497,30.415
38585160,-0.027,-0.059,1.002,28.14,0.297,42.49
38585170,-0.089,0.047,1.016,25.27,1.942,42.087
38585180,-0.093,0.044,1.057,18.62,0.122,34.912
38585190,-0.052,0.116,1.108,10.307,-2.187,29.26
38585200,-0.035,0.179,1.189,-6.685,-3.43,26.215
38585210,-0.091,0.292,1.256,-33.372,-3.885,25.305
38585220,-0.179,0.333,1.316,-72.45,-8.942,23.397
38585230,-0.251,0.315,1.344,-122.272,-19.18,22.732
38585240,-0.224,0.293,1.322,-179.742,-36.82,25.2
38585250,-0.084,0.239,1.258,-240.292,-53.917,34.492
38585260,0.017,0.136,1.193,-292.005,-66.08,43.015
38585270,-0.014,0.038,1.177,-334.267,-71.96,50.067
38585280,-0.162,-0.262,1.367,-366.38,-84.805,51.695
38585290,-0.664,-0.807,1.924,-394.747,-143.15,48.982
38585300,-1.186,-1.015,1.944,-382.13,-276.412,70.98
38585310,-0.311,-1.478,1.866,-230.317,-438.375,117.04
38585320,0.309,-1.386,1.212,-119.91,-364.175,216.72
38585330,0.461,-1.898,1.173,2.467,-122.43,242.182
38585340,-1.002,-1.051,0.87,148.575,-3.675,191.275
38585350,-0.387,-0.908,-0.331,258.842,49.49,195.772
38585360,-0.124,-0.156,-0.742,268.117,82.67,194.39
38585370,-0.38,-0.081,-0.567,166.127,90.65,149.765
38585380,-0.193,-0.067,-0.197,62.982,62.737,98.717
38585390,0.348,-0.076,0.138,-8.015,60.375,77.472
38585400,0.601,0.198,0.23,-44.275,81.69,45.5
38585410,0.431,0.412,0.212,-46.9,99.102,-15.645
38585420,0.08,0.583,0.206,-31.395,100.03,-68.145
38585420,-0.085,0.65,0.155,-13.912,90.562,-90.842
38585440,-0.076,0.623,0.04,5.407,84.892,-100.03
38585440,-0.151,0.51,-0.006,20.737,83.195,-114.607
38585460,-0.278,0.326,0,20.562,75.652,-123.042
38585460,-0.269,0.086,-0.002,13.16,62.895,-112.822
38585480,-0.256,-0.133,-0.077,5.005,46.27,-92.277
38585480,-0.208,-0.358,-0.239,-1.872,28.542,-70.945
38585500,-0.252,-0.559,-0.312,-17.937,13.965,-50.925
38585500,-0.46,-0.918,-0.513,-39.042,-3.307,-32.882
38585510,1.685,-1.72,1.239,-98.157,37.327,-24.22
38585520,0.724,-1.978,1.45,-97.475,84.245,-136.202
38585530,-1.994,-1.664,1.95,209.037,26.267,-309.417
38585540,0.928,-0.507,-0.4,462.49,-115.062,-150.657
38585550,1.97,1.921,-0.373,526.277,4.777,-32.602
38585560,1.031,0.128,0.991,388.727,38.92,-60.147
38585570,1.336,-0.511,1.552,426.842,87.867,39.55
38585580,0.579,1.057,1.56,457.012,159.407,129.622
38585590,-1.514,0.849,1.956,325.237,209.3,124.565
38585600,-1.976,1.853,1.313,206.71,137.917,77.315
38585610,-1.349,1.625,1.047,64.015,15.242,17.097
38585620,-0.454,0.492,1.207,-69.632,-69.895,-39.287
38585630,0.074,-0.101,0.999,-106.435,-90.195,-56.7
38585640,0.324,-0.481,0.878,-98.087,-78.435,-49.315
38585650,0.543,-0.443,0.855,-65.782,-49.98,-25.077
38585660,0.431,-0.2,0.914,-31.5,-16.852,5.88
38585670,0.05,-0.139,0.942,-8.155,9.327,30.782
38585680,-0.176,-0.013,0.982,2.66,12.267,44.572
38585690,-0.217,0.068,1.014,2.415,4.672,41.79
38585700,-0.166,0.079,1.013,-3.727,-2.695,30.205
38585710,-0.063,0.073,1.05,-11.235,-5.827,19.407
38585720,0,0.146,1.105,-19.162,-5.18,12.582
38585730,0.007,0.168,1.153,-32.987,-1.435,5.635
38585740,0.007,0.175,1.169,-50.872,3.325,-2.537
38585750,-0.055,0.183,1.224,-71.347,10.797,-9.922
38585760,-0.052,0.221,1.269,-101.377,16.695,-16.765
38585760,-0.035,0.222,1.281,-140.56,22.872,-19.915
38585780,0.013,0.189,1.234,-185.955,28.28,-18.095
38585780,0.077,0.113,1.228,-228.497,31.132,-13.807
38585800,0.134,0.041,1.283,-266.717,43.19,-7.385
38585800,0.106,-0.053,1.34,-294.227,60.637,-0.525
38585820,0.015,-0.256,1.266,-311.447,78.295,2.31
38585820,0.183,-0.456,1.409,-332.587,83.93,8.452
38585830,-0.292,-1.025,1.749,-371.07,60.147,15.802
38585840,-1.133,-1.723,1.923,-362.495,-50.732,-3.132
38585850,-0.155,-1.569,1.74,-234.5,-149.135,18.007
38585860,0.561,-1.693,0.914,-41.125,-101.15,78.925
38585870,0.38,-1.335,0.129,71.33,3.08,33.95
38585880,-0.519,-0.471,-0.363,156.887,63.945,-22.767
38585890,-1.277,0.055,-0.462,141.54,31.675,-40.11
38585900,-1.084,-0.015,-0.606,73.5,-42.525,-30.012
38585910,-0.445,-0.19,-0.181,-4.882,-84.227,-5.197
38585920,0.124,-0.336,0.143,-67.095,-80.657,-2.957
38585930,0.266,-0.278,0.1,-57.19,-45.412,-22.47
38585940,0.129,-0.178,-0.083,-28.91,-23.625,-51.38
38585950,-0.017,-0.232,-0.211,-31.272,-23.87,-90.685
38585960,-0.086,-0.31,-0.236,-46.077,-32.882,-136.71
38585970,-0.202,-0.269,-0.133,-67.147,-31.972,-177.8
38585980,-0.23,-0.101,0.007,-87.15,-11.34,-204.487
38585990,-0.385,0.256,0.067,-91.402,15.627,-206.447
38586000,-0.62,0.541,0.063,-88.077,18.725,-192.78
38586010,-0.644,0.612,0.057,-94.78,4.585,-158.13
38586020,-0.559,0.489,0.073,-99.312,-9.327,-103.845
38586030,-0.564,0.216,-0.004,-89.337,-23.887,-46.742
38586040,0.017,-0.262,0.57,-84.7,-20.405,-5.477
38586050,1.568,-1.604,1.896,-122.027,160.09,35.507
38586060,1.269,-1.998,0.113,159.25,218.487,-123.97
38586070,-1.931,1.362,0.365,564.707,43.365,-364.297
38586080,1.064,1.639,0.374,416.622,42.245,7.997
38586090,1.963,-1.659,1.308,265.912,85.26,214.497
38586100,0.464,-0.477,1.358,421.032,104.212,87.167
38586110,-0.828,0.767,0.766,474.565,122.342,170.922
38586120,-0.835,0.245,1.193,374.325,70.595,217.157
38586130,-1.195,0.7,1.483,331.66,60.655,214.34
38586140,-1.021,1.395,1.476,270.62,35.542,155.802
38586150,-0.699,1.317,1.554,132.562,7.875,71.942
38586160,-0.356,1.282,1.363,20.912,-29.557,7.91
38586170,-0.086,0.525,1.236,-69.02,-47.862,-19.215
38586170,-0.088,0.177,1.073,-115.29,-46.9,-29.575
38586190,-0.081,-0.133,0.865,-128.712,-42.42,-31.045
38586190,-0.044,-0.493,0.735,-116.06,-42.997,-26.232
38586210,0.089,-0.551,0.735,-74.445,-42.7,-13.16
38586210,0.252,-0.461,0.82,-30.887,-36.785,2.712
38586230,0.373,-0.332,0.852,4.585,-22.785,20.282
38586230,0.259,-0.2,0.945,26.775,-0.525,35.787
38586240,0.071,-0.017,1.042,37.45,12.932,43.085
38586250,-0.154,0.125,1.06,35.035,17.01,39.025
38586260,-0.202,0.115,1.091,24.395,13.387,25.462
38586270,-0.184,0.236,1.165,10.447,9.502,7.91
38586280,-0.052,0.3,1.219,-13.597,9.082,-10.01
38586290,0.02,0.265,1.236,-46.48,15.732,-22.872
38586300,0.008,0.217,1.241,-77.157,25.637,-29.032
38586310,0.031,0.197,1.25,-112.875,35.735,-30.03
38586320,-0.02,0.213,1.27,-153.195,42.787,-25.725
38586330,0.004,0.139,1.248,-195.895,41.58,-16.59
38586340,0.07,0.077,1.235,-237.807,43.505,-1.382
38586350,0.018,0.057,1.249,-268.485,47.617,18.182
38586360,0.062,-0.072,1.21,-295.242,54.687,40.355
38586370,0.029,-0.282,1.196,-320.565,60.865,56.787
38586380,-0.174,-0.575,1.168,-334.827,58.59,71.505
38586390,-0.228,-0.69,1.287,-348.04,35.752,82.582
38586400,-0.435,-0.913,1.381,-328.16,22.837,89.005
38586410,-0.587,-1.279,1.714,-276.657,20.107,78.837
38586420,-0.504,-1.765,1.966,-171.377,-23.87,78.505
38586430,0.546,-1.642,1.513,53.567,-15.347,77.98
38586440,0.225,-1.189,0.854,150.5,31.78,64.435
38586450,0.177,-0.736,-0.252,212.887,13.3,8.89
38586460,0.225,-0.105,-0.988,218.137,-3.92,8.592
38586470,0.357,0.394,-1.136,155.61,-20.23,10.71
38586480,0.414,0.514,-0.821,34.58,-37.415,-24.657
38586490,0.247,0.428,-0.224,-107.257,-48.772,-65.677
38586500,0.22,0.166,0.376,-199.325,-47.162,-92.032
38586510,0.161,0.026,0.697,-197.102,-41.86,-108.29
38586510,-0.072,0.047,0.638,-122.605,-53.06,-114.975
38586530,-0.294,0.123,0.313,-47.11,-76.212,-105.332
38586530,-0.418,0.172,-0.152,5.95,-110.652,-88.97
38586550,-0.563,0.145,-0.508,31.832,-146.072,-73.622
38586550,-0.724,0.105,-0.659,25.147,-175,-59.797
38586570,-0.733,-0.062,-0.644,-19.267,-182.77,-38.062
38586570,-0.698,-0.163,-0.474,-65.695,-175.647,-8.347
38586580,-0.682,-0.199,-0.387,-95.095,-168.507,18.672
38586590,-0.828,-0.404,-0.119,-111.405,-170.555,44.205
38586600,0.647,-1.223,1.828,-208.04,-62.457,63.052
38586610,0.752,-1.998,-0.174,50.12,158.515,-29.05
38586620,-1.873,1.449,-0.254,562.17,-73.325,-324.03
38586630,1.456,1.769,0.293,388.237,59.85,58.065
38586640,1.833,-1.32,1.175,168.122,101.08,216.09
38586650,0.108,-1.333,1.489,419.982,58.87,-9.397
38586660,0.667,0.959,0.654,449.015,111.895,60.217
38586670,0.367,0.386,1.255,362.617,153.475,94.622
38586680,-1.56,0.359,1.85,278.092,138.757,73.36
38586690,-0.876,1.186,1.53,243.285,96.687,83.982
38586700,-1.141,1.298,1.418,126.35,48.912,33.932
38586710,-0.606,0.855,1.342,8.522,-5.127,-19.285
38586720,-0.138,0.335,1.149,-64.61,-35.77,-47.792
38586730,0.075,-0.125,0.919,-95.515,-37.1,-51.17
38586740,0.12,-0.401,0.814,-83.895,-29.907,-39.2
38586750,0.137,-0.385,0.836,-53.48,-21.525,-17.605
38586760,0.121,-0.279,0.86,-23.537,-12.74,3.762
38586770,-0.002,-0.252,0.891,0.087,-4.392,18.637
38586780,0,-0.134,0.97,16.485,-1.557,27.475
38586790,-0.009,0.032,1.045,20.02,1.102,26.652
38586800,-0.011,0.111,1.077,12.302,3.132,21.455
38586810,-0.013,0.12,1.105,-0.857,6.02,16.415
38586820,-0.075,0.212,1.165,-18.27,7.647,11.55
38586830,-0.097,0.255,1.205,-42.962,8.662,5.302
38586840,-0.113,0.214,1.195,-71.907,7.402,-2.1
38586850,-0.08,0.101,1.195,-99.207,6.772,-5.39
38586860,-0.076,0.12,1.194,-126.77,5.39,-4.62
38586870,-0.005,0.064,1.157,-157.447,1.995,1.662
38586880,0.063,-0.005,1.163,-190.575,4.375,12.617
38586890,0.055,-0.073,1.137,-214.707,11.795,21.945
38586900,0.047,-0.103,1.124,-234.185,24.5,30.187
38586910,0.048,-0.048,1.185,-253.225,42.682,33.967
38586910,-0.013,-0.185,1.218,-274.382,59.605,31.167
38586920,-0.02,-0.518,1.24,-300.79,71.05,21.892
38586930,-0.043,-0.677,1.374,-332.832,65.765,10.08
38586940,-0.432,-1.185,1.48,-346.622,29.172,5.215
38586950,-0.543,-1.693,1.857,-310.31,-23.537,10.36
38586960,-0.113,-1.809,1.616,-122.132,-37.94,45.955
38586970,-0.798,-1.474,1.146,-0.77,10.587,58.835
38586980,-1.098,-0.969,0.71,96.985,5.11,63.245
38586990,-0.624,-0.683,0.121,157.64,-19.407,97.895
38587000,-0.3,-0.14,-0.378,184.607,-35.385,106.382
38587010,-0.123,0.307,-0.689,159.127,-9.362,101.885
38587020,-0.03,0.585,-0.477,89.232,45.377,103.547
38587030,-0.088,0.786,-0.095,-6.212,77.577,97.055
38587040,0.015,0.831,0.334,-85.347,76.352,80.22
38587050,0.285,0.67,0.642,-104.947,67.882,67.375
38587060,0.343,0.646,0.557,-61.495,57.172,47.18
38587070,0.221,0.744,0.24,1.102,38.115,17.237
38587080,0.168,0.679,-0.138,43.487,9.24,-15.382
38587090,0.094,0.563,-0.385,59.027,-8.61,-50.837
38587100,-0.066,0.37,-0.457,59.115,-24.22,-92.085
38587110,-0.348,0.118,-0.428,52.395,-39.812,-128.695
38587120,-0.438,-0.145,-0.371,46.2,-49.122,-148.592
38587130,-0.492,-0.343,-0.412,44.695,-49.437,-144.795
38587140,0.828,-1.417,0.245,39.322,21.192,-136.762
38587150,-0.232,-1.998,1.998,-90.422,-33.145,-213.01
38587160,-1.983,-1.867,1.346,289.257,-373.52,-398.177
38587170,0.783,1.559,0.395,541.012,-108.885,-141.155
38587180,1.998,1.921,-0.089,456.505,-38.482,102.305
38587190,0.605,-0.219,1.558,316.295,-6.195,-86.712
38587200,0.761,-1.276,1.802,294.087,20.947,-9.257
38587210,1.233,1.51,1.116,342.615,81.13,153.947
38587220,-0.65,0.797,1.56,228.165,106.575,148.96
38587230,-1.568,0.724,1.556,106.837,88.077,125.405
38587240,-1.348,0.94,1.157,52.395,34.37,78.295
38587250,-1.071,0.454,1.137,-30.31,-20.09,-2.1
38587260,-0.321,0.105,1.06,-78.085,-64.68,-51.835
38587260,0.246,-0.193,0.923,-84.385,-70.647,-64.12
38587280,0.433,-0.315,0.885,-67.567,-47.477,-52.78
38587280,0.441,-0.332,0.914,-48.492,-23.922,-24.08
38587300,0.233,-0.228,0.926,-26.32,-3.955,5.075
38587300,-0.055,-0.153,0.983,-14.875,9.747,19.057
38587320,-0.1,-0.041,1.03,-12.162,11.06,23.502
38587320,-0.098,0.047,1.069,-16.992,11.235,19.04
38587330,-0.057,0.058,1.105,-29.452,12.6,11.34
38587340,-0.038,0.106,1.166,-46.095,15.662,6.562
38587350,-0.061,0.192,1.241,-69.16,18.287,3.465
38587360,-0.114,0.209,1.277,-101.132,16.625,0.7
38587370,-0.068,0.22,1.265,-139.895,14.717,1.697
38587380,-0.145,0.192,1.206,-178.92,23.73,1.89
38587390,-0.167,0.121,1.205,-218.697,27.527,0.42
38587400,-0.097,0.039,1.233,-252.455,33.67,2.327
38587410,-0.06,-0.008,1.274,-283.675,48.282,5.722
38587420,-0.054,-0.141,1.275,-311.535,63.997,3.657
38587430,-0.29,-0.779,1.485,-337.382,65.922,-1.242
38587440,-0.393,-0.839,1.519,-317.555,54.425,1.47
38587450,-0.59,-0.663,1.744,-231.997,43.19,-27.632
38587460,0.184,-0.842,1.665,-245.77,34.405,-13.737
38587470,0.293,-0.794,1.224,-179.025,44.485,8.295
38587480,-0.162,-0.969,1.18,-110.477,66.045,-13.282
38587490,-1.171,-1.006,1.728,-51.485,78.242,-11.917
38587500,-0.739,-0.904,1.469,83.3,28.822,44.24
38587510,0.135,-0.742,0.469,200.357,-34.912,108.867
38587520,0.298,-0.242,-0.323,259.105,-71.732,105.017
38587530,0.245,0.094,-0.904,262.01,-78.575,92.505
38587540,0.12,0.389,-1.164,209.16,-65.537,74.182
38587550,0.114,0.646,-0.845,107.467,-39.305,52.71
38587560,0.114,0.566,-0.285,-22.872,-14.647,25.987
38587570,-0.037,0.403,0.323,-133.945,3.972,-5.687
38587580,-0.168,0.257,0.586,-146.545,10.167,-34.282
38587580,-0.307,0.335,0.312,-62.615,2.887,-46.165
38587600,-0.377,0.421,0.02,17.937,-11.445,-38.43
38587600,-0.316,0.279,-0.068,42.227,-27.037,-32.147
38587620,-0.25,0.014,-0.069,52.885,-39.077,-36.61
38587620,-0.289,-0.115,-0.118,71.505,-39.795,-43.155
38587640,-0.364,-0.14,-0.172,66.22,-30.222,-47.967
38587640,-0.423,-0.121,-0.178,42.752,-25.375,-51.555
38587660,-0.456,-0.076,-0.113,9.66,-28.437,-52.587
38587660,0.254,-0.894,-0.522,-23.012,4.322,-51.572
38587670,1.333,-1.998,1.858,-118.457,135.695,-76.912
38587680,-1.998,-1.998,1.223,4.497,-247.852,-350.052
38587690,-0.901,0.817,1.274,520.537,-119.665,-239.767
38587700,1.998,1.997,-0.968,487.165,-2.59,93.415
38587710,1.086,0.625,0.94,355.512,54.897,-19.092
38587720,-0.248,-1.782,1.962,284.182,22.12,-89.862
38587730,1.125,1.028,1.095,358.137,66.885,163.467
38587740,-0.392,1.225,1.543,268.642,66.237,168.927
38587750,-1.621,0.782,1.81,114.397,73.325,156.397
38587760,-1.195,1.435,1.319,43.347,29.96,105.682
38587770,-1.138,0.673,1.21,-73.342,-10.29,11.515
38587780,-0.414,-0.058,0.884,-128.17,-41.877,-55.737
38587790,0.137,-0.458,0.742,-116.007,-48.422,-76.86
38587800,0.378,-0.504,0.784,-78.627,-38.832,-61.652
38587810,0.454,-0.472,0.869,-44.852,-29.715,-25.62
38587820,0.263,-0.294,0.906,-13.877,-17.885,9.975
38587830,0.057,-0.212,0.944,4.83,-7.892,31.692
38587840,-0.113,-0.115,0.952,15.732,-1.785,38.29
38587850,-0.122,-0.088,0.999,19.705,2.66,30.467
38587860,-0.053,0.018,1.06,17.447,5.652,18.83
38587870,-0.008,0.107,1.125,7.437,10.587,11.392
38587880,0.007,0.125,1.203,-10.167,16.765,7.035
38587890,-0.03,0.166,1.192,-34.65,25.795,3.727
38587900,-0.039,0.111,1.161,-59.657,31.937,-1.452
38587910,-0.077,0.073,1.205,-83.982,35.07,-7
38587920,0.011,0.108,1.265,-113.417,35.665,-8.015
38587930,0.068,0.11,1.308,-149.38,43.435,-3.08
38587940,0.062,0.033,1.329,-188.072,52.99,5.425
38587950,0.031,-0.073,1.309,-224.157,61.337,19.53
38587960,0.109,-0.257,1.245,-257.477,58.695,34.947
38587970,0.007,-0.354,1.308,-295.785,46.882,52.657
38587980,-0.236,-0.429,1.644,-335.527,30.397,75.757
38587990,-0.419,-1.285,1.99,-354.217,-30.135,81.392
38588000,-0.586,-1.727,1.703,-305.252,-145.687,76.422
38588010,-0.081,-1.642,1.419,-152.565,-178.15,126.7
38588010,-0.115,-1.533,1.107,-29.627,-121.065,159.477
38588030,0.013,-1.115,0.571,79.45,-92.54,143.78
38588030,0.137,-0.455,-0.129,155.05,-65.1,138.057
38588050,-0.163,-0.155,-0.465,140.805,-46.392,122.727
38588050,-0.235,0.064,-0.559,103.215,-50.907,89.372
38588070,-0.107,0.192,-0.439,50.155,-43.085,61.162
38588070,-0.046,0.216,-0.165,-23.38,-12.687,31.762
38588080,-0.016,0.181,0.119,-84.472,16.572,-1.032
38588090,0.007,0.215,0.248,-94.377,34.79,-30.03
38588100,0.148,0.423,0.18,-66.36,47.477,-49
38588110,0.216,0.656,0.067,-34.545,52.937,-61.18
38588120,0.185,0.832,-0.022,-15.697,44.17,-78.365
38588130,0.142,1.001,-0.124,-10.115,31.937,-98.192
38588140,0.026,1.156,-0.127,-14.472,19.372,-117.512
38588150,-0.144,1.198,-0.045,-32.48,4.777,-137.462
38588160,-0.42,1.212,0.033,-52.43,-15.015,-144.97
38588170,-0.604,1.181,0.098,-69.457,-42.962,-134.767
38588180,0.63,-0.325,-0.684,-79.502,-11.06,-106.452
38588190,-0.015,-1.998,1.95,-172.375,185.92,-93.012
38588200,-1.896,-1.998,0.49,-7.665,-177.765,-307.702
38588210,-1.717,1.135,-0.804,540.365,-148.435,-199.99
38588220,1.194,1.867,-0.531,409.57,-232.417,3.465
38588230,1.965,-0.552,1.032,232.89,27.58,138.267
38588240,-0.937,-1.251,1.792,341.407,89.425,-90.772
38588250,0.677,0.087,1.255,415.8,57.47,8.312
38588260,0.553,0.888,1.157,312.725,92.592,152.425
38588270,-0.447,0.294,1.44,253.347,81.112,124.145
38588280,-1.04,0.688,1.452,204.487,72.222,122.132
38588290,-1.192,0.845,1.25,148.75,40.897,82.652
38588300,-0.84,0.539,1.222,73.745,-9.835,15.855
38588310,0.044,0.409,1.234,10.447,-44.835,-22.907
38588320,0.311,0.3,1.152,-28.315,-40.705,-25.515
38588330,0.098,0.034,1.029,-55.02,-20.79,-15.82
38588330,-0.125,-0.187,0.876,-54.722,-11.69,-7.455
38588350,-0.121,-0.318,0.853,-34.772,-14.227,-1.925
38588350,0.041,-0.253,0.925,-9.695,-17.885,2.17
38588370,0.231,-0.052,0.993,7.105,-11.427,8.995
38588370,0.188,0.067,1.058,8.942,2.8,15.925
38588390,0.091,0.098,1.089,0.472,17.605,16.782
38588390,-0.056,0.133,1.124,-13.142,25.375,12.88
38588410,-0.025,0.169,1.197,-31.99,27.982,7.91
38588410,0.012,0.195,1.258,-55.842,34.492,1.12
38588420,-0.043,0.169,1.328,-87.097,40.827,-5.18
38588430,-0.078,0.155,1.371,-129.762,39.865,-6.772
38588440,0.168,0.027,1.281,-179.025,36.75,0.122
38588450,0.117,-0.01,1.255,-217.087,58.677,17.885
38588460,0.183,-0.163,1.329,-236.95,64.225,28.997
38588470,0.389,-0.505,1.342,-257.705,78.855,42.192
38588480,0.722,-1.037,1.598,-265.772,108.29,49.612
38588490,-0.186,-1.555,1.958,-271.442,129.937,42.892
38588500,-0.829,-1.998,1.993,-218.645,35.7,6.055
38588510,1.148,-1.998,1.597,11.217,-43.907,-1.82
38588520,0.958,-1.785,-0.493,306.547,-20.422,32.777
38588530,-0.176,-0.983,-1.061,304.535,-9.73,-22.295
38588540,-0.948,-0.955,-1.346,154.122,-65.765,-67.62
38588550,-1.141,-0.586,-1.147,59.517,-158.182,-91.752
38588560,-0.794,-0.379,-0.713,-42.122,-185.465,-79.257
38588570,-0.418,-0.491,0.01,-215.18,-127.575,-41.265
38588580,-0.402,-0.943,0.688,-325.832,-51.117,-27.947
38588590,-0.493,-1.011,0.745,-246.347,-9.695,-13.247
38588600,-0.37,-0.372,0.439,-115.745,3.045,42.175
38588610,-0.114,0.147,0.2,-79.52,4.76,105.192
38588620,0.084,0.286,0.172,-94.867,-7.647,144.182
38588630,0.259,0.529,0.214,-124.705,-35.175,142.345
38588640,0.338,0.827,0.122,-160.352,-81.532,111.807
38588650,0.632,0.921,-0.016,-183.47,-115.395,74.567
38588660,0.726,1.012,0.004,-194.757,-116.76,35.367
38588670,0.353,0.933,0.202,-199.955,-122.027,-21.542
38588680,-0.114,0.746,0.321,-194.11,-151.777,-69.037
38588690,-0.254,0.859,0.457,-178.675,-166.425,-67.287
38588700,0.034,0.729,0.553,-144.077,-101.447,-44.397
38588710,0.251,-0.871,1.998,-64.277,103.32,-64.12
38588720,-0.925,-1.941,-0.865,482.107,100.607,-76.247
38588730,0.064,1.708,-0.251,559.3,-6.825,-83.09
38588740,1.998,1.645,0.258,420.7,123.76,101.045
38588750,-0.335,-1.02,1.916,325.832,167.965,56.052
38588760,-0.994,0.347,1.537,417.322,98.07,45.832
38588760,-0.477,1.424,1.314,357.385,76.37,157.797
38588780,-1.115,0.913,1.681,196.035,45.517,115.57
38588780,-0.947,0.898,1.498,112.245,19.407,62.352
38588800,-0.612,0.721,1.387,28.07,-10.185,-3.955
38588800,-0.184,0.423,1.217,-46.725,-21.297,-51.03
38588820,0.03,0.035,0.992,-82.442,-17.36,-70.805
38588820,0.127,-0.358,0.835,-86.66,-11.427,-69.23
38588830,0.211,-0.556,0.764,-60.725,-10.762,-50.75
38588840,0.213,-0.483,0.843,-26.442,-12.32,-24.797
38588850,0.181,-0.27,0.957,-2.257,-9.992,0.752
38588860,0.112,-0.091,1.046,3.99,-4.217,20.282
38588870,-0.003,0.039,1.13,-6.09,1.225,33.53
38588880,-0.188,0.161,1.14,-26.46,3.132,35
38588890,-0.222,0.15,1.15,-53.322,1.96,24.255
38588900,-0.243,0.198,1.228,-80.92,-2.677,13.527
38588910,-0.269,0.276,1.279,-114.572,-7.84,5.757
38588920,-0.323,0.308,1.275,-161.822,-13.93,-0.07
38588930,-0.246,0.205,1.214,-210.245,-24.22,-4.147
38588940,-0.105,0.057,1.152,-252.84,-35.63,-6.965
38588950,0.002,-0.053,1.117,-283.972,-40.232,-6.405
38588960,-0.01,-0.128,1.122,-311.08,-39.235,-5.617
38588970,0.027,-0.313,1.173,-334.25,-32.795,-7.875
38588980,0.019,-0.65,1.257,-358.242,-18.865,-6.72
38588990,0.138,-0.743,1.699,-337.837,-1.96,2.52
38589000,0.103,-1.182,1.998,-263.077,-12.95,-31.972
38589010,-0.144,-1.354,1.985,-209.055,14.402,-37.817
38589020,-0.051,-1.068,1.642,-56,53.287,-33.197
38589030,0.009,-0.92,1.169,110.285,98.945,-35.507
38589040,-0.412,-0.691,0.661,219.012,99.382,-34.79
38589050,-0.097,-0.388,-0.281,291.322,91.525,-14.805
38589060,0.008,-0.009,-0.902,306.372,108.937,17.447
38589070,-0.586,0.186,-1.127,249.55,107.45,12.302
38589080,-0.954,0.434,-0.711,152.705,62.58,5.705
38589080,-0.395,0.022,-0.068,26.372,31.902,27.615
38589100,0.034,-0.434,0.417,-51.887,57.977,55.335
38589100,-0.322,-0.182,0.253,-2.922,73.482,45.237
38589120,-0.449,0.037,-0.167,52.955,51.485,43.522
38589120,-0.196,-0.209,-0.306,38.745,23.8,65.257
38589140,0.033,-0.468,-0.228,21.262,10.447,69.79
38589140,-0.035,-0.609,-0.137,10.307,11.83,57.347
38589160,-0.157,-0.61,-0.184,1.155,5.582,41.895
38589160,-0.137,-0.551,-0.285,-9.327,-7.787,31.535
38589170,0.044,-0.392,-0.261,-41.09,-14.822,21.175
38589180,0.298,-0.19,-0.089,-78.61,-3.78,6.965
38589190,-0.082,-0.75,1.924,-158.34,-25.532,-24.185
38589200,-1.457,-1.998,0.925,-134.732,-400.032,-176.925
38589210,0.72,-0.284,0.939,464.467,-286.632,-262.115
38589220,1.513,1.404,-0.222,533.977,-29.767,-25.322
38589230,1.365,1.655,0.959,394.607,12.442,-71.96
38589240,0.666,-0.798,1.779,378.542,36.487,-83.737
38589250,0.885,0.636,1.493,366.135,56.577,85.347
38589260,0.084,1.124,1.601,277.637,65.52,142.432
38589270,-0.952,0.993,1.619,141.26,82.932,171.167
38589280,-1.332,1.034,1.215,74.497,55.352,144.2
38589290,-1.26,0.475,1.076,-4.935,6.632,52.885
38589300,-0.694,0.078,0.999,-48.562,-39.497,-27.895
38589310,0.186,-0.092,0.959,-55.685,-61.197,-55.982
38589320,0.444,-0.189,0.98,-44.887,-47.022,-55.072
38589330,0.515,-0.192,1.001,-36.645,-22.907,-25.97
38589340,0.309,-0.13,0.978,-27.475,1.61,5.792
38589350,-0.069,-0.089,0.996,-21.612,14.787,22.872
38589360,-0.188,0.022,1.042,-21.42,14.472,26.932
38589370,-0.228,0.139,1.099,-29.33,12.652,17.675
38589380,-0.117,0.188,1.195,-50.505,9.537,7.192
38589390,-0.115,0.277,1.266,-82.407,8.592,0.997
38589400,-0.091,0.296,1.345,-127.715,2.835,0.542
38589410,-0.073,0.299,1.314,-184.065,-8.487,3.43
38589420,-0.017,0.265,1.27,-242.235,-14.402,13.755
38589430,-0.098,0.143,1.228,-291.13,-15.015,22.12
38589440,-0.006,-0.001,1.292,-331.187,-17.762,28.735
38589450,0.048,-0.101,1.218,-368.322,-2.52,35
38589460,0.067,-0.399,1.276,-393.592,12.512,31.412
38589470,-0.182,-0.612,1.409,-426.475,33.652,34.86
38589480,-0.09,-1.119,1.799,-370.667,19.407,40.162
38589490,-0.363,-1.248,1.795,-277.147,-37.117,-8.33
38589500,0.208,-1.106,1.568,-210.542,-49.052,-11.515
38589510,0.247,-1.086,1.668,-86.537,17.167,18.777
38589510,-0.565,-0.819,1.395,43.697,38.815,-3.815
38589530,-0.772,-0.478,0.83,162.575,-11.655,-2.765
38589530,-0.645,-0.303,0.369,227.027,-59.64,39.007
38589550,-0.48,-0.175,-0.101,253.855,-92.05,42.875
38589550,-0.408,-0.154,-0.75,277.672,-96.285,36.75
38589570,-0.264,0.017,-1.17,291.97,-63.84,39.165
38589570,-0.325,0.175,-1.228,247.485,2.187,47.057
38589580,-0.388,0.116,-0.928,148.085,55.23,50.312
38589590,-0.348,-0.146,-0.26,23.922,64.82,56.577
38589600,-0.168,-0.555,0.366,-81.532,40.11,49.262
38589610,0.265,-0.835,0.588,-97.212,15.12,30.485
38589620,0.555,-0.795,0.246,-20.982,19.6,15.557
38589630,0.374,-0.472,-0.186,38.115,28.822,-11.795
38589640,0.131,-0.358,-0.311,30.957,18.27,-49.332
38589650,0.097,-0.346,-0.28,-5.355,-11.69,-90.947
38589660,0.027,-0.185,-0.282,-37.87,-46.182,-129.78
38589670,-0.227,-0.005,-0.233,-66.045,-74.007,-152.652
38589680,-0.393,0.091,-0.198,-93.87,-96.722,-150.342
38589690,-0.454,0.088,-0.268,-112.402,-120.26,-130.97
38589700,-0.372,0.715,1.295,-174.37,-108.902,-114.555
38589710,1.742,-1.998,0.552,-185.062,27.93,-172.025
38589720,-1.19,-0.319,-0.139,501.935,61.425,-176.365
38589730,0.561,1.997,-0.955,513.1,-17.675,-31.605
38589740,1.946,0.348,0.399,319.305,37.502,91.262
38589750,0.79,-0.82,1.994,406.7,153.772,51.082
38589760,-0.009,0.703,1.997,516.285,246.207,140.752
38589770,-1.824,1.508,1.733,336.052,248.78,160.825
38589780,-1.819,1.997,0.672,145.04,120.452,115.43
38589790,-1.288,0.992,1.033,-41.615,-41.475,17.622
38589800,0.306,0.059,1.258,-127.54,-105.997,-42.665
38589810,0.656,-0.447,0.975,-113.347,-81.585,-49.35
38589820,0.406,-0.516,0.85,-83.352,-38.657,-26.162
38589830,0.214,-0.439,0.884,-37.607,-9.677,-1.242
38589830,-0.032,-0.234,0.884,-5.075,1.33,18.042
38589850,-0.145,-0.105,0.966,15.015,3.342,25.602
38589850,-0.122,0.067,1.033,21.647,4.095,17.762
38589870,-0.131,0.202,1.063,14.105,4.357,8.085
38589870,0.005,0.215,1.098,-0.892,4.06,0.98
38589890,0.041,0.247,1.169,-20.457,8.015,-2.082
38589890,-0.024,0.353,1.22,-45.867,14.315,-4.392
38589910,-0.102,0.318,1.231,-78.12,19.46,-11.62
38589910,-0.174,0.212,1.214,-112.122,23.327,-18.917
38589920,-0.171,0.157,1.218,-144.27,23.992,-26.127
38589930,-0.174,0.133,1.179,-177.73,13.737,-27.545
38589940,-0.008,0.075,1.141,-215.565,3.78,-19.652
38589950,-0.035,0.081,1.166,-249.55,5.092,-6.317
38589960,-0.022,-0.007,1.2,-273.787,5.6,5.162
38589970,0.039,-0.202,1.277,-294.105,15.522,17.255
38589980,0.09,-0.397,1.372,-307.352,32.62,30.362
38589990,0.195,-0.737,1.624,-311.36,63.857,36.4
38590000,-0.201,-1.324,1.998,-289.292,62.912,32.357
38590010,-0.803,-1.859,1.95,-177.222,-4.06,21.577
38590020,-0.821,-1.988,1.873,64.627,-21.49,46.2
38590030,0.314,-1.459,-0.009,299.985,-22.242,113.137
38590040,0.659,-0.796,-0.505,336.07,23.572,127.785
38590050,0.194,-0.844,-0.677,243.18,22.662,56.052
38590060,0.132,-0.941,-0.804,183.802,-12.477,-13.65
38590070,0.271,-0.643,-0.938,144.812,-26.495,-43.19
38590080,0.223,-0.18,-0.75,53.655,-28.717,-80.062
38590090,-0.129,-0.047,-0.344,-89.827,-46.462,-142.817
38590100,-0.377,-0.356,0.127,-194.46,-70.07,-177.66
38590110,-0.457,-0.446,0.322,-199.99,-86.747,-185.517
38590120,-0.584,-0.251,0.208,-137.707,-99.137,-182.892
38590130,-0.829,-0.024,0.07,-95.112,-106.557,-162.102
38590140,-0.899,-0.023,0.044,-94.657,-105.682,-122.22
38590150,-0.775,-0.11,0.081,-97.737,-87.937,-69.09
38590160,-0.642,0.018,0.062,-90.58,-61.005,-28.472
38590170,-0.543,0.389,-0.045,-84.507,-28.822,-0.105
38590180,-0.524,0.648,-0.166,-91.35,-8.365,20.912
38590190,-0.376,0.793,-0.265,-101.08,-6.702,28.455
38590200,-0.25,1.033,-0.357,-96.022,-9.152,31.745
38590210,0.962,0.37,1.887,-211.855,33.267,0.017
38590220,0.659,-1.998,-1.171,79.572,84.472,-217.647
38590230,-1.673,1.048,0.276,561.452,36.505,-277.62
38590240,1.549,1.951,-0.752,431.34,56,-7.665
38590250,1.715,-1.316,1.708,284.935,106.032,114.082
38590260,-0.67,0.807,1.993,414.277,127.33,62.475
38590260,-0.732,1.961,1.652,361.97,162.19,170.852
38590270,-1.85,1.768,1.545,116.602,118.772,116.305
38590280,-1.399,1.362,1.229,5.81,19.635,41.37
38590290,-0.587,0.478,1.195,-98.805,-47.897,-33.32
38590300,0.027,-0.157,0.892,-134.102,-68.915,-69.317
38590310,0.405,-0.625,0.824,-115.115,-62.247,-67.27
38590320,0.51,-0.48,0.835,-74.41,-35.945,-40.355
38590330,0.422,-0.312,0.873,-44.432,-8.785,-0.42
38590340,0.182,-0.203,0.928,-24.08,9.905,32.112
38590350,-0.159,-0.01,0.962,-10.762,15.802,52.622
38590360,-0.238,-0.047,1.037,-9.152,6.667,51.17
38590370,-0.229,0.115,1.089,-19.81,-0.262,38.972
38590380,-0.158,0.205,1.141,-37.397,-3.412,22.627
38590390,-0.113,0.313,1.275,-63.297,-4.235,10.92
38590400,-0.154,0.39,1.323,-103.74,-5.74,5.967
38590410,-0.21,0.322,1.263,-153.23,-12.477,3.325
38590420,-0.214,0.263,1.2,-200.112,-21.682,-1.155
38590430,-0.237,0.164,1.146,-244.93,-29.627,-5.792
38590440,-0.119,0.081,1.12,-282.467,-38.115,-6.982
38590450,-0.001,0.024,1.083,-311.01,-42.297,-5.442
38590460,0.076,-0.023,1.071,-339.045,-39.602,-3.745
38590470,0.206,-0.584,1.131,-362.145,-26.862,-2.642
38590480,0.001,-0.043,1.13,-377.492,0.997,20.842
38590490,0.425,-1,1.279,-301.682,7.315,5.092
38590500,0.158,-1.087,1.538,-293.912,24.85,-15.61
38590510,-0.006,-1.071,1.93,-283.027,34.142,-13.492
38590520,0.023,-1.304,1.995,-209.965,10.395,-14.98
38590530,0.195,-1.003,1.565,-58.817,23.94,-10.377
38590540,0.358,-0.745,1.082,103.53,65.572,-16.135
38590550,-0.272,-0.48,0.868,182.647,90.632,-45.255
38590560,0.058,-0.546,-0.08,247.712,91.805,-47.6
38590570,0.186,-0.092,-0.795,300.142,120.802,-10.867
38590580,-0.129,0.371,-1.113,277.917,150.937,-12.827
38590580,-0.805,0.421,-0.865,177.467,133.14,-27.807
38590600,-0.73,0.28,-0.202,62.51,63.77,-25.69
38590600,-0.006,-0.159,0.338,-19.092,16.607,12.652
38590620,0.374,-0.273,0.457,-17.22,18.69,27.597
38590620,0.133,-0.057,0.062,46.637,33.88,16.625
38590640,-0.162,0.119,-0.281,76.405,28.192,16.502
38590640,-0.142,-0.047,-0.308,59.132,3.132,26.232
38590660,-0.002,-0.312,-0.218,39.515,-18.042,32.62
38590660,0.118,-0.331,-0.244,36.82,-18.235,27.965
38590670,0.101,-0.233,-0.323,31.71,-5.005,11.83
38590680,0.076,-0.026,-0.395,4.76,-1.662,-14.105
38590690,0.029,0.094,-0.375,-30.065,-10.097,-32.812
38590700,-0.504,-0.096,0.765,-89.285,-10.465,-58.625
38590710,-0.981,-1.998,0.534,-197.645,-307.51,-265.545
38590720,0.298,0.711,0.658,454.982,-75.32,-175.332
38590730,0.447,1.997,-1.332,554.417,-35.98,55.02
38590740,1.73,0.923,1.213,286.282,-19.302,7.577
38590750,0.231,-1.929,1.998,220.535,12.267,-95.182
38590760,0.54,1.008,1.477,407.382,30.117,63.892
38590770,0.473,1.754,1.503,276.097,51.502,133.682
38590780,-0.604,1.025,1.995,59.622,64.277,132.702
38590790,-0.869,1.594,1.545,-40.005,45.22,135.73
38590800,-0.867,0.682,1.091,-169.697,11.69,93.887
38590810,-1.012,-0.264,0.68,-230.72,-12.495,20.282
38590820,-0.73,-0.763,0.442,-188.86,-34.177,-35.332
38590830,-0.239,-0.844,0.418,-120.995,-46.042,-66.71
38590840,0.219,-0.815,0.546,-40.145,-50.47,-77.49
38590850,0.495,-0.827,0.777,18.375,-41.895,-65.345
38590860,0.691,-0.374,0.875,58.747,-28.875,-28.875
38590870,0.629,-0.113,0.973,80.097,-13.527,17.552
38590880,0.285,-0.157,1.085,77.805,1.61,51.8
38590890,-0.039,0.007,1.039,74.952,14.332,70.42
38590900,-0.439,0.29,1.158,67.2,17.517,64.75
38590910,-0.559,0.397,1.255,38.36,11.2,39.48
38590920,-0.439,0.331,1.205,-5.092,0,6.877
38590930,-0.192,0.199,1.142,-44.415,-10.237,-16.135
38590940,-0.037,0.069,1.097,-68.355,-14.525,-24.955
38590940,-0.03,0.028,1.1,-86.292,-13.457,-24.71
38590960,-0.085,0.042,1.093,-99.785,-14.07,-21.28
38590960,-0.116,-0.007,1.103,-117.127,-16.152,-17.395
38590980,-0.13,-0.002,1.129,-136.237,-19.547,-14.56
38590980,-0.082,-0.002,1.156,-160.65,-23.695,-11.165
38591000,-0.029,-0.023,1.162,-192.552,-27.387,-4.69
38591000,0.029,-0.029,1.153,-223.265,-31.167,4.742
38591010,0.038,-0.044,1.131,-254.047,-33.512,13.737
38591020,0.023,-0.147,1.11,-281.312,-32.97,19.442
38591030,0.042,-0.665,1.153,-301.122,-25.952,20.772
38591040,-0.168,-0.274,1.287,-309.89,-7.49,36.907
38591050,-0.069,-0.815,1.722,-261.73,-40.215,6.44
38591060,-0.314,-1.309,1.998,-273.945,-97.265,-1.872
38591070,-0.224,-1.65,1.993,-195.107,-145.792,1.4
38591080,0.095,-1.479,1.931,-8.26,-103.04,22.347
38591090,0.231,-1.337,0.784,171.342,-36.33,38.517
38591100,0.364,-1.091,-0.177,291.13,53.567,29.907
38591110,-0.306,-0.722,0.012,278.81,143.85,21.192
38591120,-0.671,-1.044,-0.65,267.47,117.792,0.07
38591130,-0.683,-0.57,-1.162,291.655,67.655,-7.297
38591140,-0.558,-0.107,-1.312,244.982,33.372,3.605
38591150,-0.3,-0.144,-0.93,109.532,29.225,5.267
38591160,-0.053,-0.387,-0.187,-70.822,49.63,-5.302
38591170,-0.044,-0.724,0.501,-176.96,61.407,-27.877
38591180,-0.128,-0.659,0.655,-150.972,56.84,-52.727
38591190,-0.179,-0.233,0.302,-67.462,47.932,-53.62
38591200,-0.207,0.2,-0.124,-22.172,34.247,-47.197
38591210,-0.284,0.516,-0.373,-19.337,22.032,-47.757
38591220,-0.345,0.663,-0.46,-29.75,6.072,-61.267
38591230,-0.4,0.773,-0.355,-55.3,-13.317,-79.31
38591240,-0.439,0.75,-0.204,-87.762,-31.185,-82.022
38591250,-0.42,0.64,-0.081,-104.335,-49.245,-65.135
38591260,-0.228,0.718,-0.184,-95.515,-58.257,-42.577
38591270,1.218,-0.248,1.998,-255.552,-15.435,-59.395
38591280,0.633,-1.998,-0.544,-33.04,-110.932,-292.057
38591290,-0.928,1.301,-0.302,554.855,24.307,-243.88
38591300,1.886,1.956,-0.685,409.745,61.18,43.137
38591310,1.819,-1.23,1.805,151.27,173.652,121.222
38591320,-0.539,-0.383,1.835,380.24,125.37,97.247
38591330,-0.39,1.955,1.435,386.225,77.822,285.32
38591330,-1.265,1.245,1.575,135.922,59.92,316.925
38591350,-1.463,1.031,1.456,20.265,35.385,236.285
38591350,-1.674,0.932,1.111,-31.5,13.247,93.31
38591370,-1.149,0.334,1.052,-111.737,-9.572,-43.715
38591370,-0.333,0.108,0.776,-130.165,-27.527,-125.965
38591390,0.207,-0.527,0.714,-105.035,-29.295,-147.752
38591390,0.676,-0.947,0.825,-66.657,-27.247,-125.667
38591410,0.932,-0.557,0.812,-18.847,-18.025,-62.195
38591410,0.674,-0.373,0.892,13.387,-4.462,6.23
38591420,0.168,-0.402,0.97,35.875,7.56,52.482
38591430,-0.211,-0.113,1.01,49.7,14.647,74.217
38591440,-0.509,0.153,1.025,48.387,16.677,69.79
38591450,-0.585,0.252,1.094,30.922,12.775,43.312
38591460,-0.435,0.318,1.185,0.542,3.99,8.89
38591470,-0.235,0.347,1.251,-37.047,-1.172,-20.002
38591480,-0.124,0.266,1.224,-78.33,1.102,-37.17
38591490,-0.045,0.108,1.17,-113.312,5.495,-42.787
38591500,-0.01,0.014,1.113,-137.532,8.907,-45.307
38591510,0.031,-0.081,1.111,-156.012,12.81,-42.665
38591520,0.028,-0.145,1.094,-170.082,15.697,-33.565
38591530,0.029,-0.195,1.098,-184.8,16.572,-19.827
38591540,0.035,-0.205,1.108,-199.377,18.182,-3.587
38591550,0.008,-0.184,1.142,-214.445,20.072,9.677
38591560,-0.017,-0.227,1.188,-234.15,21.735,20.807
38591570,-0.154,-0.471,1.204,-249.637,20.3,28.7
38591580,-0.243,-0.382,1.329,-252.927,12.25,45.447
38591590,-0.184,-0.78,1.509,-222.862,-20.527,23.992
38591600,-0.385,-0.962,1.908,-228.06,-57.61,15.382
38591610,-0.011,-1.01,1.813,-195.177,-100.362,15.085
38591620,0.374,-0.888,1.18,-97.527,-85.645,39.69
38591630,0.516,-0.85,1.121,-25.497,0.227,52.43
38591640,-0.006,-0.662,1.394,52.272,65.345,29.47
38591650,0.077,-0.413,0.477,177.397,63.665,17.027
38591660,0.478,-0.042,-0.26,249.777,99.907,41.702
38591670,0.167,0.564,-0.693,243.512,119.717,41.44
38591670,-0.225,0.839,-0.801,177.45,97.422,23.607
38591690,-0.159,0.934,-0.321,80.36,35.577,14.297
38591690,0.192,0.593,0.246,-10.64,6.737,23.012
38591710,-0.082,0.309,0.595,-39.427,-5.302,24.045
38591710,-0.419,0.152,0.24,13.055,-47.11,9.485
38591730,-0.356,-0.047,-0.224,63.21,-83.37,22.855
38591730,-0.27,-0.413,-0.298,56.927,-96.81,23.345
38591750,-0.434,-0.841,-0.199,45.815,-96.18,-4.515
38591750,-0.65,-0.959,-0.26,56,-94.57,-27.772
38591760,-0.647,-1.012,-0.345,57.435,-91,-36.417
38591770,-0.616,-1.039,-0.413,33.582,-81.357,-41.247
38591780,-0.633,-0.987,-0.381,1.172,-75.215,-44.887
38591790,-1.403,-0.636,1.803,-98.262,-120.54,-51.397
38591800,1.374,-1.998,0.257,50.365,-139.72,-148.085
38591810,-1.472,0.976,0.904,547.61,75.04,-108.062
38591820,1.122,1.985,0.184,428.54,11.655,-31.237
38591830,1.367,-0.911,1.247,307.737,-12.267,7.682
38591840,0.297,-0.627,1.507,352.502,1.89,3.132
38591850,1.518,0.904,1.429,390.495,91.525,105.91
38591860,-0.634,0.947,1.917,261.502,150.272,84.49
38591870,-1.685,1.971,1.02,137.585,119.385,64.855
38591880,-1.191,1.354,1.101,1.347,20.772,29.592
38591890,-0.498,0.663,1.316,-116.287,-47.67,-20.475
38591900,0.147,0.109,1.059,-157.307,-65.17,-49.07
38591910,0.199,-0.725,0.773,-141.207,-50.33,-49.035
38591920,0.299,-0.899,0.722,-95.69,-30.852,-33.11
38591930,0.296,-0.558,0.751,-34.562,-10.185,-6.527
38591940,0.136,-0.344,0.828,5.145,4.532,18.987
38591950,0.027,-0.184,0.976,30.87,9.467,36.54
38591960,-0.054,0.127,1.085,37.607,14,45.64
38591970,-0.124,0.215,1.097,20.667,18.095,43.312
38591980,-0.174,0.24,1.119,1.33,17.815,35.122
38591990,-0.19,0.327,1.149,-19.285,16.485,26.127
38592000,-0.151,0.356,1.248,-47.285,14.962,13.597
38592010,-0.173,0.356,1.237,-83.492,18.55,-0.735
38592020,-0.188,0.2,1.162,-118.002,19.495,-14.49
38592030,-0.152,0.059,1.136,-148.54,16.782,-24.92
38592040,-0.034,0.037,1.148,-174.125,17.465,-28.017
38592050,0.069,-0.001,1.169,-197.487,28.297,-26.355
38592060,0.077,-0.012,1.194,-217.14,43.12,-20.772
38592070,0.165,-0.068,1.231,-234.29,59.15,-12.897
38592080,0.192,-0.171,1.252,-246.47,77.945,-4.357
38592080,0.321,-0.345,1.282,-250.25,99.4,2.677
38592100,0.397,-0.569,1.423,-248.622,124.792,12.862
38592100,0.236,-0.691,1.531,-242.725,130.042,21.087
38592120,0.267,-1.102,1.79,-227.78,86.415,37.8
38592120,0.56,-1.383,1.797,-181.107,34.947,75.827
38592140,1.116,-1.461,1.866,-74.567,15.697,79.38
38592140,1.47,-1.474,1.354,8.435,-20.387,25.147
38592160,1.217,-1.036,0.429,135.66,-75.827,-34.247
38592160,0.281,-0.321,-0.528,170.642,-92.522,-102.025
38592170,-0.192,0.221,-0.693,116.672,-116.515,-123.077
38592180,-0.849,0.212,-0.576,2.45,-163.922,-131.127
38592190,-1.606,0.421,-0.292,-84.612,-233.205,-150.43
38592200,-1.387,0.201,-0.022,-137.532,-266.122,-130.445
38592210,-1.072,-0.076,0.434,-169.907,-198.52,-60.9
38592220,-1.19,-0.139,0.544,-112.28,-101.08,-10.132
38592230,-1.492,0.085,0.276,10.937,-50.19,27.72
38592240,-1.319,0.342,-0.082,76.65,-42.577,47.285
38592250,-0.913,0.17,-0.225,75.215,-23.52,93.03
38592260,-0.582,0.037,-0.221,64.837,6.492,116.165
38592270,-0.495,0.03,-0.236,55.247,25.76,100.117
38592280,-0.403,0.083,-0.299,28.437,29.032,60.917
38592290,-0.276,0.196,-0.433,-10.027,26.022,12.145
38592300,0.057,0.316,0.113,-40.67,43.19,-41.212
38592310,0.315,-1.427,1.998,-217.367,30.607,-166.25
38592320,-0.014,-1.619,-1.035,191.117,-48.142,-400.487
38592330,-0.747,1.97,-0.48,563.71,39.042,-185.78
38592340,1.998,1.754,-0.045,396.095,61.425,-57.855
38592350,0.543,-1.395,1.88,221.777,74.76,-95.602
38592360,1.302,0.574,1.595,440.405,71.47,31.395
38592370,0.076,1.482,1.701,370.895,151.445,136.342
38592380,-1.238,1.107,1.674,169.627,153.072,124.967
38592390,-1.922,1.519,1.069,95.2,85.96,101.482
38592400,-1.247,0.691,1.094,-19.127,-4.83,24.885
38592410,-0.311,0.189,1.08,-80.99,-59.552,-36.61
38592420,0.306,-0.191,0.987,-90.877,-69.02,-50.977
38592420,0.475,-0.333,0.865,-75.81,-48.037,-32.182
38592440,0.312,-0.447,0.826,-44.73,-20.93,-1.767
38592440,0.058,-0.388,0.85,-7.927,-4.322,19.582
38592460,-0.058,-0.21,0.933,19.582,-0.087,26.46
38592460,-0.004,0.003,1.004,32.322,2.292,23.835
38592480,-0.041,0.14,1.051,30.24,5.845,19.18
38592480,-0.08,0.148,1.047,20.055,7.962,14.385
38592500,-0.124,0.201,1.079,8.767,7.28,8.522
38592500,-0.154,0.314,1.128,-6.667,5.005,1.837
38592510,-0.176,0.304,1.139,-32.725,1.645,-5.127
38592520,-0.176,0.254,1.151,-57.417,-2.642,-15.33
38592530,-0.087,0.208,1.184,-81.83,-5.355,-23.52
38592540,-0.111,0.191,1.222,-107.1,-4.427,-28.98
38592550,-0.094,0.185,1.199,-138.355,-1.82,-30.03
38592560,-0.088,0.092,1.145,-173.967,-2.31,-28.682
38592570,-0.024,0.035,1.105,-208.267,-8.47,-21.315
38592580,0.065,0,1.111,-233.555,-14.035,-12.04
38592590,0.053,-0.064,1.096,-250.267,-15.155,-2.485
38592600,0.031,-0.181,1.111,-263.165,-12.582,7.157
38592610,0.056,-0.336,1.071,-272.072,-6.177,16.992
38592620,0.102,-0.433,1.18,-274.925,7.42,22.82
38592630,-0.016,-0.467,1.322,-280.49,18.41,19.197
38592640,-0.346,-0.81,1.567,-260.715,0.21,17.657
38592650,-0.152,-1.379,1.496,-156.992,-32.76,16.345
38592660,0.025,-1.244,1.173,-43.085,-34.702,-6.912
38592670,0.073,-1.285,0.828,20.16,21.997,-9.922
38592680,-0.07,-1.027,0.555,120.365,38.57,-36.417
38592690,-0.14,-0.802,0.259,167.195,48.177,-67.427
38592700,-0.285,-0.834,-0.054,172.917,76.177,-84.14
38592710,-0.652,-0.602,-0.297,175.227,107.537,-103.127
38592720,-1.048,-0.243,-0.54,179.217,118.44,-111.562
38592730,-1.39,0.039,-0.674,149.922,114.572,-98.385
38592740,-1.391,0.217,-0.598,85.242,85.977,-56.367
38592750,-0.78,0.124,-0.344,11.287,59.202,1.05
38592760,-0.133,0.071,-0.073,-40.477,56.717,44.94
38592770,0.256,0.266,0.036,-56.07,64.697,56.595
38592780,0.542,0.387,-0.055,-60.322,79.555,45.64
38592790,0.607,0.529,-0.285,-64.102,71.067,2.957
38592800,0.59,0.763,-0.679,-56.07,28.805,-64.89
38592810,-0.147,1.081,1.397,-70.665,-23.257,-129.675
38592820,-1.345,-1.327,1.894,-127.4,-278.95,-251.842
38592830,1.181,-1.634,1.046,388.867,-126.245,-343.437
38592830,-0.984,1.861,-0.555,571.27,-0.875,-161.962
38592850,1.998,1.538,0.747,426.177,-70.7,-53.742
38592850,0.384,-0.684,1.972,290.465,-19.635,-2.537
38592870,1.172,1.019,1.898,348.722,36.697,111.3
38592870,-0.628,1.885,1.646,216.877,109.165,161.857
38592890,-1.479,1.673,1.253,55.912,77.805,138.302
38592890,-1.101,0.857,1.163,-53.567,6.72,89.127
38592910,-0.739,0.272,1.084,-126.91,-32.917,8.435
38592910,-0.423,-0.071,0.999,-152.635,-47.04,-45.482
38592920,0.06,-0.161,0.913,-145.302,-52.517,-61.705
38592930,0.268,-0.395,0.85,-119.77,-40.425,-51.625
38592940,0.29,-0.644,0.737,-89.582,-26.127,-30.152
38592950,0.374,-0.658,0.714,-44.45,-17.237,-1.662
38592960,0.285,-0.518,0.778,1.12,-7.017,20.755
38592970,0.217,-0.335,0.918,29.557,3.482,39.2
38592980,0.159,-0.077,1.032,42.122,15.855,56.542
38592990,-0.127,0.18,1.142,38.167,25.182,65.712
38593000,-0.219,0.29,1.161,21.105,21.892,60.252
38593010,-0.223,0.284,1.2,-4.06,19.792,47.285
38593020,-0.235,0.306,1.242,-34.65,17.815,36.277
38593030,-0.191,0.283,1.246,-72.135,15.697,27.545
38593040,-0.144,0.208,1.238,-114.607,13.02,18.287
38593050,-0.02,0.072,1.228,-157.115,16.082,19.355
38593060,0.008,-0.067,1.22,-193.305,17.92,33.6
38593070,0.074,-0.15,1.242,-220.832,19.005,57.557
38593080,0.02,-0.093,1.163,-236.04,18.48,80.832
38593090,-0.001,-0.169,1.119,-248.185,16.222,99.802
38593100,-0.114,-0.319,1.131,-277.497,18.497,109.06
38593110,-0.364,-0.442,1.25,-299.005,14.122,109.042
38593120,-0.748,-0.868,1.465,-306.285,-19.652,120.032
38593130,-1.157,-1.37,1.956,-295.417,-98.087,116.515
38593140,-0.347,-1.837,1.745,-220.22,-208.617,121.257
38593150,-0.245,-1.786,1.188,-27.527,-209.422,183.312
38593160,0.193,-0.869,0.591,120.61,-134.137,184.537
38593170,-0.17,-0.436,0.263,135.905,-67.532,136.237
38593170,-0.304,-0.184,0.031,147.42,-33.6,77.962
38593190,-0.303,0.01,-0.304,150.955,-8.225,50.54
38593190,-0.347,0.35,-0.612,136.99,9.047,28.332
38593210,-0.438,0.584,-0.867,103.53,15.68,11.585
38593210,-0.444,0.666,-0.832,51.712,12.145,-1.015
38593230,-0.328,0.556,-0.542,-21.612,6.562,-6.895
38593230,-0.17,0.291,-0.175,-86.625,2.257,-0.245
38593250,-0.084,0.102,0.147,-102.27,3.342,4.725
38593250,-0.158,-0.062,0.241,-71.575,1.12,2.257
38593260,-0.316,-0.095,0.13,-33.04,-16.747,-7.787
38593270,-0.501,-0.197,-0.032,-14.787,-50.435,-18.217
38593280,-0.497,-0.433,-0.199,-13.142,-84.612,-29.435
38593290,-0.401,-0.501,-0.333,-17.115,-87.36,-40.757
38593300,0.142,-0.202,0.541,-36.505,-34.755,-57.767
38593310,0.73,-1.332,1.998,-193.182,-75.215,-114.852
38593320,1.45,-1.918,-0.811,200.2,-86.87,-343.612
38593330,-1.383,1.117,-0.505,569.677,37.467,-250.95
38593340,1.882,1.713,-0.564,497.945,40.197,-144.585
38593350,0.148,1.232,1.554,406.42,135.38,-89.915
38593360,1.438,0.268,1.998,519.557,92.33,-27.965
38593370,-0.232,0.954,1.904,353.64,246.277,99.627
38593380,-1.814,1.997,0.303,197.347,194.845,89.46
38593390,-1.494,1.357,0.955,-37.38,9.292,65.852
38593400,-0.209,0.043,1.318,-132.107,-93.52,-28.525
38593410,0.27,-0.269,0.962,-133.175,-90.405,-31.202
38593420,0.345,-0.698,0.845,-104.772,-63.227,-15.907
38593430,0.433,-0.738,0.846,-60.322,-35.035,8.102
38593440,0.123,-0.382,0.813,-10.797,-11.847,33.32
38593450,-0.053,-0.34,0.938,19.897,-1.137,51.94
38593460,-0.161,0.108,1.023,37.922,4.147,50.312
38593470,-0.14,0.305,1.11,30.345,5.092,36.19
38593480,-0.16,0.498,1.097,4.987,0.07,19.39
38593490,-0.025,0.239,1.135,-25.13,-5.39,12.372
38593500,-0.024,0.322,1.166,-50.242,-6.457,8.697
38593510,0.083,0.311,1.194,-75.722,-4.672,3.5
38593520,-0.013,0.209,1.228,-102.9,0.21,-3.22
38593530,-0.112,0.181,1.268,-131.302,7.07,-12.88
38593540,-0.121,0.162,1.235,-165.567,8.925,-20.842
38593550,-0.137,0.155,1.158,-206.535,6.877,-20.772
38593560,-0.022,0.042,1.094,-242.252,-1.137,-16.712
38593570,0.05,0.014,1.127,-264.302,4.042,-11.025
38593580,0.003,-0.027,1.142,-277.357,10.447,-8.627
38593580,-0.068,-0.149,1.148,-290.202,17.08,-4.987
38593600,0.001,-0.371,1.251,-302.05,28.525,-0.577
38593600,0.074,-0.461,1.369,-304.342,50.26,-6.335
38593620,-0.194,-1.031,1.753,-293.3,78.26,-4.935
38593620,-0.085,-1.818,1.998,-185.517,52.552,-15.925
38593630,0.212,-1.626,1.883,11.252,-15.47,-58.362
38593640,0.085,-1.199,0.462,234.377,-45.29,-63.455
38593650,-0.409,-0.111,-0.299,323.032,-37.52,-72.66
38593660,-0.995,-0.087,-1.01,262.342,-53.515,-73.377
38593670,-1.341,0.008,-1.32,204.645,-86.1,-78.75
38593680,-1.341,0.212,-1.245,132.265,-97.282,-60.112
38593690,-1.042,-0.017,-0.591,-3.395,-39.06,-11.602
38593700,-0.814,-0.464,0.209,-144.882,33.74,41.982
38593710,-0.665,-0.837,0.627,-144.252,67.76,66.972
38593720,-0.286,-0.71,0.427,-27.055,59.395,80.202
38593730,-0.111,-0.453,0.067,32.585,54.39,120.68
38593740,0.057,-0.466,-0.041,21.175,52.307,149.415
38593750,0.349,-0.71,0.022,-14.682,46.83,144.725
38593760,0.565,-0.68,0.093,-61.757,37.082,101.29
38593770,0.598,-0.527,0.115,-102.025,26.232,38.605
38593780,0.603,-0.23,0.044,-129.377,18.462,-26.6
38593790,0.794,0.108,-0.319,-129.902,16.03,-85.417
38593800,-0.523,1.876,1.849,-160.107,6.44,-109.882
38593810,-0.517,-1.227,1.133,-87.045,-286.965,-221.83
38593820,1.432,-1.992,0.225,480.515,-12.197,-180.967
38593830,-0.632,0.92,0.047,552.72,20.44,-135.905
38593840,1.662,0.806,0.717,405.44,16.257,-57.155
38593850,0.799,-0.29,1.617,385.84,47.687,38.867
38593860,0.457,0.698,1.764,427.437,42.525,99.627
38593870,-0.321,1.701,1.91,284.357,109.69,161.21
38593880,-1.945,1.985,1.207,150.482,107.555,117.827
38593890,-1.554,1.193,0.994,6.51,13.405,52.237
38593900,-0.7,0.214,1.054,-81.217,-68.985,-29.33
38593910,0.186,-0.266,0.903,-86.24,-96.267,-59.15
38593920,0.669,-0.598,0.934,-63.122,-78.452,-49.367
38593920,0.604,-0.286,0.95,-22.872,-36.715,-12.652
38593940,0.253,-0.176,0.947,-0.56,0.367,20.37
38593940,-0.125,-0.088,0.989,13.667,19.74,32.882
38593960,-0.277,0.149,1.017,18.025,18.865,26.792
38593960,-0.164,0.17,1.059,6.44,10.587,10.64
38593980,-0.071,0.258,1.109,-7.42,7.262,-2.432
38593980,0.083,0.278,1.179,-26.337,10.465,-8.75
38594000,0.106,0.33,1.273,-51.52,21.752,-11.077
38594000,0.11,0.353,1.333,-83.667,37.45,-11.637
38594010,-0.174,0.328,1.299,-129.517,46.497,-15.365
38594020,-0.263,0.252,1.261,-185.08,32.882,-14.437
38594030,-0.102,0.155,1.165,-239.697,13.58,-7.402
38594040,-0.16,0.223,1.218,-275.1,12.757,3.01
38594050,-0.187,0.154,1.285,-298.672,16.537,4.882
38594060,-0.145,-0.034,1.286,-320.88,26.145,-2.17
38594070,-0.078,-0.169,1.361,-342.44,41.982,-7.28
38594080,-0.074,-0.369,1.752,-356.79,57.312,-11.882
38594090,-0.426,-1.221,1.998,-333.13,27.807,-18.147
38594100,-0.493,-1.638,1.794,-217.612,-26.162,-19.022
38594110,0.073,-1.83,1.83,-10.395,6.79,8.4
38594120,-0.17,-1.021,0.552,186.707,33.057,14.892
38594130,0.156,-0.446,-0.221,250.74,62.965,25.707
38594140,-0.128,-0.376,-0.326,187.11,65.52,9.765
38594150,-0.101,-0.508,-0.557,138.355,18.672,-33.46
38594160,-0.015,-0.223,-0.79,132.107,-17.552,-54.267
38594170,0.049,0.125,-0.772,73.657,-16.292,-66.99
38594180,0.055,0.199,-0.414,-39.62,-9.047,-97.16
38594190,-0.189,0.022,0.111,-144.305,-19.845,-133.07
38594200,-0.296,-0.133,0.438,-162.102,-36.032,-142.117
38594210,-0.284,0.083,0.363,-96.057,-47.39,-119.192
38594220,-0.306,0.465,0.068,-31.5,-56.245,-87.132
38594230,-0.371,0.667,-0.218,-16.625,-63.122,-55.842
38594240,-0.379,0.693,-0.382,-21.07,-70.805,-23.187
38594250,-0.344,0.689,-0.467,-25.917,-79.31,2.817
38594260,-0.294,0.721,-0.474,-42.14,-91.98,12.355
38594270,-0.255,0.579,-0.506,-63.507,-105.175,13.247
38594280,-0.007,0.177,-0.448,-82.39,-95.917,6.737
38594290,1.491,-1.405,1.998,-291.235,30.887,-77.7
38594300,-0.76,-1.203,-0.616,68.792,9.03,-321.965
38594300,-0.463,1.997,-0.713,568.452,-2.082,-109.742
38594320,1.998,1.864,-0.504,382.06,49.577,105.595
38594320,0.735,-1.221,1.795,91.245,148.47,34.58
38594330,-0.917,-0.859,1.626,408.87,75.967,3.587
38594340,0.499,1.911,1.121,462.315,82.215,153.107
38594350,-1.213,1.136,1.819,224.805,97.44,122.307
38594360,-1.464,1.42,1.556,100.082,73.517,83.772
38594370,-1.18,1.286,1.244,16.257,7.035,10.115
38594380,-0.36,0.466,1.218,-101.867,-41.825,-53.445
38594390,0.144,-0.255,0.844,-120.522,-49.175,-84.875
38594400,0.238,-0.639,0.729,-93.082,-29.26,-85.907
38594410,0.384,-0.702,0.746,-43.89,-14.91,-56.402
38594420,0.455,-0.475,0.865,-4.34,-7.507,-17.01
38594430,0.204,-0.127,0.979,23.765,8.417,17.377
38594440,-0.072,0.051,1.096,27.93,16.415,36.995
38594450,-0.246,0.185,1.107,11.9,17.027,45.15
38594460,-0.293,0.267,1.128,-10.535,13.702,36.505
38594470,-0.266,0.425,1.306,-40.407,10.395,21.385
38594480,-0.21,0.534,1.428,-88.655,9.135,7.332
38594490,-0.172,0.454,1.396,-150.937,10.395,-1.47
38594500,-0.092,0.295,1.311,-209.002,11.935,-5.757
38594510,0.012,0.088,1.256,-259.315,12.32,-7.367
38594520,0.088,0.027,1.332,-296.415,22.907,-0.157
38594530,0.174,-0.03,1.35,-320.407,42.805,6.125
38594540,0.136,-0.268,1.409,-342.16,68.705,7.122
38594550,0.044,-0.564,1.634,-361.83,70.49,-1.61
38594560,-0.193,-1.021,1.584,-347.812,38.132,-11.76
38594570,-0.734,-1.043,1.998,-298.235,-8.785,9.012
38594580,-0.221,-1.28,1.572,-178.132,-75.845,27.895
38594590,0.094,-1.424,1.25,-92.732,-70.315,71.75
38594600,-0.302,-1.323,1.243,-14.577,-21.385,91.052
38594610,-0.277,-0.884,0.487,127.417,-16.66,109.305
38594620,0.074,-0.379,-0.034,216.09,-17.517,143.727
38594630,-0.008,-0.085,-0.524,207.567,-38.78,131.705
38594640,-0.028,0.18,-0.786,183.085,-72.59,110.232
38594650,0.028,0.373,-0.843,134.19,-101.535,94.832
38594660,0.27,0.341,-0.621,46.427,-97.142,69.825
38594670,0.397,0.212,-0.221,-57.575,-68.057,28.402
38594670,0.27,0.03,0.127,-130.06,-34.825,-23.572
38594690,0.031,-0.07,0.241,-127.82,-13.44,-63.77
38594690,-0.19,0.086,0.114,-75.757,-18.322,-79.397
38594710,-0.273,0.258,-0.2,-30.765,-41.09,-78.19
38594710,-0.266,0.299,-0.438,-22.365,-64.75,-74.865
38594730,-0.377,0.276,-0.503,-41.387,-81.812,-74.707
38594730,-0.548,0.183,-0.323,-79.957,-91.14,-73.657
38594750,-0.761,-0.003,-0.003,-128.117,-95.462,-62.842
38594750,-0.907,-0.3,0.049,-148.942,-102.655,-44.205
38594760,-0.122,-1.022,0.952,-155.26,-82.232,-29.977
38594770,1.756,-1.993,1.998,-174.23,282.1,-12.39
38594780,-1.36,-1.988,1.751,167.842,292.547,-97.177
38594790,-1.624,-1.418,-0.734,533.155,-194.355,-227.71
38594800,1.818,1.964,-0.049,542.85,-87.85,-146.387
38594810,1.571,1.811,0.793,449.452,143.045,41.737
38594820,-0.112,-1.255,1.887,416.447,83.072,-127.977
38594830,0.388,-0.006,1.615,408.082,83.825,34.58
38594840,0.137,1.732,1.533,396.077,94.36,124.95
38594850,-1.288,1.233,1.949,219.222,107.607,112.752
38594860,-1.385,1.423,1.582,88.165,66.447,63.63
38594870,-0.827,1.169,1.376,-29.925,6.3,1.872
38594880,-0.376,0.414,1.193,-135.87,-24.955,-52.902
38594890,-0.041,-0.132,0.884,-162.277,-32.235,-78.487
38594900,0.168,-0.53,0.672,-143.342,-19.32,-84.472
38594910,0.332,-0.729,0.69,-105.175,-7.192,-70.962
38594920,0.441,-0.589,0.809,-52.955,-1.82,-34.212
38594930,0.317,-0.388,0.827,-13.755,8.732,4.655
38594940,0.014,-0.306,0.932,12.442,14.49,32.847
38594950,-0.202,-0.086,1.002,25.602,16.677,46.497
38594960,-0.32,0.126,1.064,20.877,15.032,42.945
38594970,-0.31,0.222,1.167,2.292,10.78,25.917
38594980,-0.248,0.314,1.256,-29.12,7.7,9.835
38594990,-0.234,0.334,1.317,-72.257,7.105,-2.747
38595000,-0.173,0.334,1.34,-119.7,8.522,-12.6
38595010,-0.111,0.235,1.295,-166.145,10.15,-19.915
38595010,-0.027,0.091,1.252,-212.257,12.32,-22.557
38595030,0.097,-0.036,1.238,-247.765,19.092,-22.347
38595030,0.165,-0.145,1.241,-269.745,31.185,-19.512
38595050,0.157,-0.229,1.276,-284.865,47.407,-17.885
38595050,0.141,-0.438,1.295,-297.412,57.207,-14.35
38595070,0.055,-0.896,1.377,-298.637,52.185,-13.055
38595070,-0.277,-0.678,1.299,-271.005,25.427,-5.32
38595080,-0.338,-1.255,1.323,-190.925,-25.655,-0.472
38595090,0.19,-0.99,1.061,-150.85,-51.537,-1.487
38595100,0.136,-1.157,1.003,-108.692,-37.275,32.13
38595110,0.05,-1.208,0.814,-38.57,-26.88,22.977
38595120,-0.503,-0.861,0.577,75.442,-40.075,19.74
38595130,-0.409,-0.403,0.393,136.955,-77.49,17.115
38595140,0.066,-0.329,-0.037,164.902,-76.737,24.587
38595150,-0.004,-0.158,-0.514,170.817,-6.755,5.46
38595160,-0.313,0.311,-0.975,170.222,71.067,-26.425
38595170,-0.777,0.831,-1.096,145.057,119.927,-31.78
38595180,-1.107,1.006,-0.822,52.78,113.645,-36.137
38595190,-0.789,0.615,-0.096,-66.762,70.455,-25.532
38595200,-0.292,-0.041,0.523,-141.715,55.247,15.487
38595210,-0.11,-0.231,0.518,-80.692,55.16,40.757
38595220,-0.184,-0.04,0.024,14.927,31.885,45.482
38595230,-0.152,-0.334,-0.136,14.857,5.18,42.56
38595240,-0.081,-0.712,-0.136,-18.112,-12.442,32.06
38595250,0.116,-0.957,0.542,-16.467,2.747,10.535
38595260,-1.044,-1.949,1.998,-117.845,-103.705,-23.152
38595270,-0.633,-1.905,0.291,169.347,-365.4,-151.865
38595280,0.22,1.5,1.203,528.622,-109.812,-58.222
38595290,1.97,1.904,-0.294,438.462,-48.597,73.01
38595300,0.732,-0.777,1.566,342.125,-22.89,-57.75
38595310,-0.208,-1.41,1.898,330.575,-17.832,-85.137
38595320,1.113,1.346,1.129,400.19,12.547,87.99
38595330,0.038,1.141,1.583,273.035,31.185,95.69
38595340,-0.817,0.902,1.79,119.28,50.907,100.205
38595350,-0.997,1.114,1.282,52.867,32.497,76.86
38595360,-1.015,0.386,1.138,-42.227,-1.592,13.44
38595370,-0.622,0.031,0.988,-84.857,-34.37,-44.257
38595380,-0.031,-0.158,0.816,-81.462,-49.367,-68.95
38595390,0.251,-0.44,0.838,-59.727,-37.992,-76.737
38595400,0.47,-0.467,0.942,-31.5,-25.497,-55.247
38595410,0.59,-0.153,1.001,-9.94,-11.025,-13.72
38595420,0.193,-0.049,1.038,-4.165,7.21,21.28
38595420,-0.171,-0.021,1.103,-11.55,12.425,40.442
38595440,-0.294,0.149,1.082,-23.135,11.252,41.51
38595440,-0.348,0.206,1.129,-43.942,8.382,27.51
38595460,-0.275,0.232,1.235,-72.432,4.41,10.167
38595460,-0.156,0.259,1.267,-106.312,3.412,-1.715
38595480,-0.019,0.194,1.228,-145.46,6.405,-7.91
38595480,0.038,0.078,1.224,-181.072,9.747,-10.937
38595500,0.124,-0.015,1.21,-214.252,17.832,-5.582
38595500,0.207,-0.135,1.175,-236.407,31.237,5.11
38595510,0.183,-0.21,1.163,-248.045,45.272,13.282
38595520,0.139,-0.27,1.192,-258.632,57.47,20.107
38595530,0.059,-0.393,1.217,-271.617,64.067,26.705
38595540,-0.167,-0.541,1.32,-287.927,55.667,35.91
38595550,-0.223,-0.801,1.696,-259.7,22.137,38.395
38595560,-0.734,-0.951,1.916,-228.987,-57.085,15.242
38595570,-0.396,-1.313,1.422,-176.312,-124.652,27.597
38595580,0.091,-1.01,0.984,-58.17,-108.937,71.557
38595590,-0.117,-0.781,1.203,29.382,-72.047,82.477
38595600,-0.16,-0.887,0.06,140.385,-73.29,57.925
38595610,0.235,-0.2,-0.209,217.7,-20.562,62.667
38595620,0.081,-0.172,-0.557,189.997,19.67,41.685
38595630,-0.278,-0.009,-0.618,144.427,34.737,-10.255
38595640,-0.265,0.055,-0.309,82.302,31.692,-48.02
38595650,-0.058,0.011,0.039,8.732,34.247,-65.502
38595660,-0.047,0.041,0.22,-29.242,32.252,-93.205
38595670,-0.168,0.166,0.186,-18.952,27.37,-112.227
38595680,-0.32,0.342,0.09,5.862,13.702,-110.512
38595690,-0.36,0.348,-0.043,16.065,-10.64,-99.662
38595700,-0.368,0.22,-0.156,20.44,-32.165,-81.602
38595710,-0.437,0.133,-0.298,23.607,-49.07,-60.41
38595720,-0.553,0.074,-0.402,14.542,-70.595,-39.567
38595730,-0.606,-0.057,-0.375,-13.02,-94.115,-14.297
38595740,-0.609,-0.26,-0.362,-47.827,-118.23,13.597
38595750,0.371,-0.9,1.608,-148.627,-79.66,18.357
38595760,1.678,-1.998,0.291,-139.02,-72.625,-132.457
38595760,-1.744,0.56,0.357,503.51,31.622,-175.49
38595780,0.923,1.997,-0.941,523.95,-20.772,-30.87
38595780,1.983,0.781,0.891,280.227,79.485,64.925
38595800,-0.29,-1.768,1.998,307.947,82.53,-41.947
38595800,0.584,0.988,1.453,411.215,79.187,67.865
38595820,-0.383,1.43,1.588,285.757,115.815,112.017
38595820,-1.534,1.123,1.686,123.217,107.17,70.875
38595830,-1.194,1.299,1.24,41.37,37.992,21.297
38595840,-0.647,0.499,1.154,-66.482,-19.722,-32.077
38595850,0,-0.157,0.95,-93.905,-47.512,-67.007
38595860,0.269,-0.42,0.857,-78.155,-36.592,-69.895
38595870,0.337,-0.428,0.832,-46.865,-15.382,-47.145
38595880,0.243,-0.329,0.901,-22.925,-4.672,-11.532
38595890,0.047,-0.155,0.964,-3.255,5.25,16.082
38595900,-0.181,0.059,1.08,0.385,6.195,31.01
38595910,-0.272,0.237,1.129,-13.772,1.207,33.215
38595920,-0.21,0.27,1.192,-39.742,-4.217,23.485
38595930,-0.204,0.386,1.278,-72.45,-7.245,12.075
38595940,-0.165,0.405,1.32,-113.715,-7.612,2.957
38595950,-0.166,0.323,1.288,-163.765,-1.977,-3.377
38595960,-0.184,0.232,1.182,-205.677,0.332,-8.225
38595970,-0.162,0.089,1.111,-240.625,-1.172,-15.452
38595980,-0.093,-0.053,1.103,-264.967,-8.802,-18.042
38595990,0.002,-0.094,1.118,-284.62,-13.3,-9.31
38596000,0.033,-0.117,1.128,-302.96,-11.585,4.97
38596010,0.006,-0.332,1.163,-325.377,-8.312,23.205
38596020,-0.224,-0.707,1.304,-341.477,-17.29,44.432
38596030,-0.243,-0.717,1.424,-305.06,-45.745,60.06
38596040,-0.945,-0.984,1.478,-238,-89.705,45.902
38596050,-0.601,-1.005,1.859,-245.77,-118.02,68.722
38596060,0.091,-1.202,1.297,-172.777,-141.995,125.265
38596070,-1.494,-0.747,1.071,-66.605,-157.832,114.992
38596080,-1.685,-0.819,1.355,31.167,-116.252,178.115
38596090,-1.315,-0.626,0.935,148.19,-91.945,287.297
38596100,0.129,-0.53,0.017,258.72,-56.612,328.335
38596110,0.785,-0.235,-0.208,268.397,18.357,306.88
38596120,0.66,-0.086,-0.519,262.045,89.582,259.927
38596130,0.485,0.171,-0.782,240.642,123.847,205.695
38596140,0.639,0.116,-0.664,156.502,123.917,137.952
38596150,0.691,-0.01,-0.25,25.48,84.14,33.285
38596160,0.447,-0.215,0.245,-101.71,28,-85.19
38596170,0.216,-0.512,0.577,-141.452,5.792,-137.812
38596170,0.061,-0.42,0.5,-100.065,6.965,-176.487
38596190,-0.216,-0.207,0.175,-24.167,14.472,-207.182
38596190,-0.546,0.043,-0.187,22.452,18.602,-229.547
38596210,-0.81,0.309,-0.484,32.112,9.747,-237.667
38596210,-0.95,0.476,-0.492,31.902,-13.475,-227.027
38596230,-0.937,0.444,-0.268,13.405,-28.367,-182.35
38596230,-0.743,0.433,0.054,-9.712,-17.5,-103.81
38596250,-0.499,0.386,-0.115,6.877,6.142,-23.065
38596250,1.893,-1.101,1.699,-59.745,105.822,-8.33
38596260,0.178,-1.998,0.716,-129.955,-276.937,-282.327
38596270,-1.657,0.726,0.469,494.392,-46.83,-348.022
38596280,1.624,1.991,-1.378,552.44,-36.837,-54.302
38596290,1.89,0.737,1.378,349.86,99.242,42.805
38596300,-0.495,-0.861,1.961,382.742,106.82,-17.675
38596310,0.938,1.18,1.66,400.067,99.89,184.87
38596320,-1.417,1.574,1.609,273,110.285,215.88
38596330,-1.851,1.368,1.474,110.53,77.77,175.735
38596340,-1.654,1.1,1.21,-6.965,10.955,63.997
38596350,-0.892,0.409,1.14,-109.2,-47.95,-43.697
38596360,-0.069,0.008,0.888,-141.522,-72.485,-91.647
38596370,0.42,-0.41,0.845,-122.255,-59.955,-97.195
38596380,0.548,-0.584,0.874,-87.972,-41.527,-71.715
38596390,0.601,-0.371,0.893,-57.12,-27.912,-24.115
38596400,0.246,-0.199,0.958,-33.635,-13.755,18.112
38596410,-0.026,-0.145,1.044,-26.81,-8.032,43.155
38596420,-0.173,0.068,1.042,-27.667,-6.825,53.182
38596430,-0.222,0.044,1.038,-38.657,-6.492,48.93
38596440,-0.196,0.048,1.103,-56.77,-11.252,40.075
38596450,-0.048,0.098,1.162,-78.995,-14.035,36.102
38596460,0.001,0.116,1.224,-111.475,-14.77,36.365
38596470,0.084,0.083,1.214,-147.507,-15.75,42.577
38596480,0.055,0.008,1.172,-183.365,-20.545,50.312
38596490,0.033,-0.108,1.123,-217.472,-24.482,61.687
38596500,0.136,-0.177,1.11,-247.625,-25.462,79.747
38596510,0.203,-0.17,1.062,-270.917,-18.585,98.21
38596510,0.08,-0.658,1.07,-290.955,-18.13,115.115
38596530,0.018,-0.888,1.342,-309.417,-26.862,138.285
38596530,0.269,-1.167,1.395,-267.242,-46.812,129.255
38596550,-0.156,-1.388,1.748,-271.267,-57.417,124.95
38596550,0.468,-1.505,1.498,-231.14,-101.307,130.497
38596570,0.237,-1.09,1.209,-128.765,-98.472,185.622
38596570,-0.419,-1.297,1.048,-62.3,-86.467,197.942
38596580,-1.177,-1.19,0.839,50.645,-87.43,230.387
38596590,-0.093,-1.068,0.472,165.13,-71.872,293.352
38596600,1.516,-0.789,0.002,199.22,-32.042,318.797
38596610,1.587,-0.534,-0.125,205.59,33.39,279.265
38596620,0.986,-0.279,-0.322,186.847,46.847,184.765
38596630,0.839,-0.045,-0.448,148.015,1.26,47.442
38596640,0.62,0.136,-0.294,70.822,-46.217,-90.352
38596650,0.523,0.301,-0.171,-37.17,-52.605,-193.007
38596660,-0.03,0.206,-0.029,-87.535,-50.75,-288.277
38596670,-0.881,0.241,0.074,-83.405,-47.74,-338.17
38596680,-1.632,0.533,-0.005,-56.437,-71.452,-339.272
38596690,-1.749,0.692,-0.117,-46.655,-102.427,-300.317
38596700,-1.347,0.504,-0.095,-59.64,-93.327,-244.912
38596710,-1.203,0.273,0.044,-61.845,-41.597,-198.467
38596720,-1.295,0.227,0.32,-46.305,1.61,-176.662
38596730,-1.032,0.107,0.441,-14.315,27.65,-165.532
38596740,-0.73,0.051,0.328,52.85,53.917,-142.012
38596750,0.843,-0.591,0.931,93.362,119.787,-156.467
38596760,1.748,-1.954,1.75,-6.982,249.777,-176.715
38596770,-1.704,-0.744,-0.595,296.03,10.587,-372.82
38596780,1.507,1.997,-0.711,564.007,193.497,-146.002
38596790,1.955,0.735,0.434,396.48,177.975,41.527
38596800,-0.866,-1.583,1.99,223.16,119.735,-45.657
38596810,0.846,1.471,1.458,395.447,108.412,150.57
38596820,-1.081,1.553,1.736,289.275,112.787,162.085
38596830,-1.645,1.352,1.558,98.035,94.972,125.142
38596840,-1.417,1.018,1.247,4.83,20.702,53.427
38596850,-0.7,0.391,1.193,-88.042,-36.435,-20.002
38596860,0.123,-0.038,0.996,-121.415,-62.3,-49.332
38596870,0.269,-0.389,0.847,-113.505,-53.252,-46.865
38596880,0.318,-0.484,0.783,-81.882,-37.187,-21.682
38596890,0.256,-0.411,0.817,-49.07,-22.155,5.477
38596900,0.163,-0.276,0.942,-21.262,-10.745,26.88
38596910,0.057,-0.023,1.039,-9.957,-1.767,40.635
38596920,0.012,0.055,1.09,-16.187,0.175,48.842
38596920,0.034,0.068,1.152,-33.372,-0.052,54.092
38596940,-0.057,0.19,1.218,-55.212,0,56.42
38596940,-0.087,0.22,1.293,-90.842,0.472,56.262
38596960,-0.163,0.263,1.223,-132.125,3.01,50.487
38596960,-0.191,0.159,1.147,-172.567,10.377,42
38596970,-0.188,0.011,1.089,-201.95,17.115,24.552
38596980,-0.094,-0.059,1.075,-220.097,28.105,8.085
38596990,0.079,-0.121,1.096,-233.03,45.71,-4.707
38597000,0.308,-0.258,1.133,-241.185,69.632,-11.287
38597010,0.388,-0.697,1.27,-244.737,100.485,-8.925
38597020,0.095,-0.311,1.156,-243.005,126.63,16.31
38597030,0.137,-0.787,1.227,-192.5,113.89,13.807
38597040,-0.101,-0.87,1.617,-201.757,80.237,14.07
38597050,-0.152,-1.127,1.904,-194.285,30.712,30.73
38597060,-0.177,-0.906,1.302,-104.475,-20.44,49.332
38597070,-0.038,-0.788,0.841,-21.245,-12.32,88.777
38597080,-0.618,-0.781,1.333,13.265,9.38,114.52
38597090,-0.812,-0.85,0.806,102.182,-22.802,131.985
38597100,0.785,-0.635,0.385,202.072,2.415,192.307
38597110,0.964,-0.329,-0.104,217.402,31.255,176.085
38597120,0.62,-0.002,-0.297,196.525,7.665,97.912
38597130,0.618,0.083,-0.175,153.79,-48.317,7.822
38597140,0.381,0.172,-0.02,95.76,-87.85,-65.52
38597150,0.272,0.391,0.012,50.33,-101.85,-125.23
38597160,-0.022,0.384,0,28.525,-103.022,-176.33
38597170,-0.37,0.36,-0.137,27.352,-96.617,-200.48
38597180,-0.604,0.44,-0.325,35.595,-100.31,-204.312
38597190,-0.623,0.318,-0.338,25.952,-110.547,-206.325
38597200,-0.594,-0.044,-0.215,1.89,-104.947,-194.757
38597210,-0.541,-0.306,-0.199,-3.517,-81.97,-178.01
38597220,-0.606,-0.178,-0.368,20.387,-68.337,-167.86
38597230,-0.806,0.187,-0.614,36.085,-71.977,-148.925
38597240,-0.72,0.041,0.681,-5.652,-73.832,-108.01
38597250,1.047,-1.769,1.371,-210.49,82.845,-82.425
38597260,-0.651,-0.535,0.483,279.947,147.157,-171.972
38597260,-0.272,1.997,-1.146,566.93,51.117,-46.252
38597280,1.998,0.858,0.408,340.567,63.787,110.285
38597280,-0.613,-1.65,1.998,120.26,74.322,-9.187
38597300,0.244,1.693,1.516,323.75,116.76,84.157
38597300,-1.173,1.723,1.307,181.86,105.105,74.462
38597320,-1.054,0.829,1.381,-6.002,46.9,38.605
38597320,-0.913,0.489,1.043,-61.6,-11.69,-3.237
38597330,-0.238,-0.241,0.865,-99.277,-48.352,-32.007
38597340,0.249,-0.659,0.797,-72.275,-61.635,-41.195
38597350,0.401,-0.501,0.887,-21.595,-44.852,-22.487
38597360,0.385,-0.11,0.96,10.097,-18.147,3.15
38597370,0.159,-0.04,1.059,15.767,8.085,22.855
38597380,-0.265,0.202,1.101,12.267,19.145,31.15
38597390,-0.207,0.155,1.056,-5.512,11.305,26.407
38597400,-0.191,0.152,1.144,-26.005,2.992,15.207
38597410,-0.045,0.324,1.252,-46.445,1.155,8.277
38597420,0.051,0.419,1.344,-83.002,5.092,4.445
38597430,0.044,0.258,1.387,-130.83,14.542,3.972
38597440,-0.034,0.14,1.364,-182.367,16.642,6.195
38597450,0.095,0.089,1.311,-231.787,15.137,16.327
38597460,0.239,0.038,1.289,-275.887,24.797,29.26
38597470,0.162,0,1.42,-310.38,46.497,40.775
38597480,0.036,-0.088,1.493,-339.272,61.915,46.042
38597490,-0.141,-0.629,1.444,-370.02,56.245,48.825
38597500,-0.682,-1.129,1.92,-384.702,-10.605,56.945
38597510,-0.437,-1.016,1.534,-347.655,-94.062,70.84
38597520,-0.855,-1.014,1.613,-233.432,-147.192,134.172
38597530,-0.47,-1.107,0.726,-116.287,-208.565,129.412
38597540,-0.496,-1.113,0.984,-92.855,-150.99,152.915
38597550,-0.715,-0.572,0.822,-5.81,-98.087,163.275
38597560,0.121,-0.198,0.43,124.827,-71.295,171.972
38597570,0.29,0.107,0.14,149.905,-30.677,153.09
38597580,0.288,0.228,-0.026,143.727,13.912,114.082
38597590,0.227,0.434,-0.165,153.072,38.675,82.53
38597600,0.152,0.717,-0.27,147.07,43.05,54.197
38597610,0.113,0.874,-0.26,106.907,34.23,31.745
38597620,0.18,0.869,-0.166,66.552,12.197,13.667
38597630,0.324,0.825,-0.068,40.162,-4.935,-7.56
38597640,0.335,0.619,0.002,21.962,-11.235,-36.96
38597640,0.172,0.397,0.032,13.825,-12.337,-70.7
38597660,-0.064,0.132,-0.017,18.025,-21.525,-100.187
38597660,-0.247,-0.137,-0.144,27.212,-42.262,-120.68
38597670,-0.425,-0.368,-0.339,31.29,-71.452,-130.497
38597680,-0.605,-0.631,-0.485,21.595,-105.665,-132.282
38597690,-0.695,-0.895,-0.473,-9.887,-133.857,-119.402
38597700,-0.655,-1.203,-0.388,-51.415,-134.47,-87.465
38597710,-0.253,-1.745,-0.008,-71.47,-78.715,-60.34
38597720,1.988,-1.998,1.998,-164.972,164.045,-66.605
38597730,-0.34,-1.995,-0.338,149.975,187.652,-224.822
38597740,-0.778,1.511,0.04,565.775,29.242,-190.855
38597750,1.998,1.951,-0.495,504.77,65.52,127.19
38597760,0.998,-0.918,1.491,345.87,52.115,74.847
38597770,0.215,-0.671,1.998,399.367,102.095,35.35
38597780,-0.652,1.81,1.795,420.192,200.41,122.867
38597790,-1.865,1.997,0.534,187.04,134.452,46.06
38597800,-0.986,1.23,1.25,-60.13,-1.032,21.332
38597810,-0.071,0.372,1.584,-173.967,-54.95,-33.197
38597820,0.288,0.036,0.968,-195.037,-52.325,-42.91
38597830,0.119,-0.71,0.851,-178.902,-30.642,-40.635
38597840,0.109,-0.85,0.865,-147.91,-6.685,-45.762
38597850,0.277,-0.375,0.653,-88.112,8.872,-22.715
38597860,0.075,-0.541,0.684,-38.5,6.177,1.102
38597870,-0.018,-0.502,0.883,-0.945,5.547,20.825
38597880,-0.034,-0.138,1.028,26.232,9.415,36.995
38597890,0.049,0.136,1.158,15.312,18.025,47.932
38597900,0.035,0.19,1.212,-12.355,25.847,53.865
38597910,-0.044,0.255,1.309,-46.48,32.042,54.092
38597920,-0.043,0.32,1.384,-88.602,39.987,51.52
38597930,-0.142,0.406,1.378,-132.877,51.415,43.085
38597940,-0.173,0.359,1.38,-181.142,61.915,32.725
38597950,-0.207,0.261,1.307,-230.195,74.987,20.527
38597960,-0.031,-0.049,1.319,-264.967,69.72,7.735
38597970,-0.01,-0.041,1.368,-296.257,72.887,6.23
38597980,-0.152,-0.169,1.296,-305.182,76.072,9.327
38597990,-0.215,-0.22,1.4,-318.535,55.895,9.03
38598000,-0.44,-0.373,1.526,-317.8,26.197,14.192
38598010,-0.28,-0.74,1.811,-291.095,-22.067,33.337
38598010,0.12,-0.859,1.959,-214.725,-97.3,32.585
38598030,-0.351,-0.63,1.506,-124.302,-143.762,29.155
38598030,-0.409,-1.274,1.168,-10.85,-129.272,35.682
38598050,0.107,-0.913,0.965,110.407,-129.185,39.76
38598050,-0.073,-1.114,-0.274,221.095,-145.127,36.977
38598070,-0.597,-0.811,-1.157,256.445,-110.18,4.847
38598070,-0.997,-0.519,-1.282,204.312,-80.132,-6.23
38598080,-0.896,-0.593,-0.759,101.132,-61.11,-3.36
38598090,-0.442,-0.865,-0.031,-28.56,-13.335,32.2
38598100,-0.109,-0.959,0.407,-83.65,23.975,55.947
38598110,0.065,-0.658,0.328,-37.712,42.945,53.13
38598120,0.256,-0.182,0.047,-0.962,53.917,47.687
38598130,0.301,0.009,-0.116,-2.485,55.702,43.452
38598140,0.251,0.052,-0.243,-7.63,41.842,26.792
38598150,0.263,0.133,-0.296,-18.007,21.105,-6.755
38598160,0.174,0.108,-0.335,-42.577,-1.872,-52.5
38598170,-0.093,0.103,-0.313,-66.762,-29.557,-98.927
38598180,-0.309,0.124,-0.291,-83.685,-58.467,-124.162
38598190,-0.28,0.367,-0.31,-92.242,-79.957,-118.3
38598200,-0.222,0.8,-0.426,-94.045,-96.162,-96.88
38598210,-0.05,1.031,-0.865,-102.48,-103.442,-71.872
38598220,-0.022,1.162,1.388,-176.12,12.197,-51.45
38598230,-1.249,-1.99,0.714,-263.042,-28.297,-164.78
38598240,0.307,-0.048,-1.281,473.357,56.7,-117.057
38598250,0.394,1.997,-1.612,563.5,-33.337,-7.595
38598260,1.666,-0.251,1.671,285.425,92.225,85.452
38598270,-0.612,-1.631,1.992,345.135,55.335,-0.875
38598280,0.424,1.791,1.674,534.187,66.972,174.002
38598290,-0.837,1.73,1.964,306.022,123.322,211.172
38598300,-1.914,1.991,1.335,98.822,97.107,139.195
38598310,-1.032,1.091,1.104,-18.917,-10.587,55.195
38598320,-0.306,0.016,1.114,-116.987,-66.57,-11.165
38598330,0.322,-0.29,0.902,-112.42,-66.15,-25.48
38598330,0.334,-0.354,0.922,-91.945,-48.072,-14.262
38598350,0.258,-0.215,0.949,-64.942,-30.1,10.692
38598350,0.01,-0.203,0.98,-50.05,-19.81,29.382
38598370,-0.05,-0.058,1.004,-39.865,-15.137,32.742
38598370,-0.037,-0.062,0.999,-35.21,-10.745,25.532
38598390,-0.054,0.006,1.093,-37.24,-4.007,16.345
38598390,0.059,0.172,1.189,-46.742,3.937,8.837
38598410,0.002,0.237,1.282,-76.72,11.585,3.01
38598410,-0.076,0.245,1.311,-119.472,13.44,-0.157
38598420,-0.065,0.258,1.255,-168.7,10.622,-3.57
38598430,-0.027,0.173,1.193,-218.645,8.277,-7.122
38598440,0.065,0.008,1.208,-259.437,5.967,-7.122
38598450,0.055,-0.012,1.261,-291.025,8.382,-0.98
38598460,-0.037,-0.125,1.201,-312.13,9.485,6.317
38598470,0.035,-0.447,1.397,-342.72,10.447,10.832
38598480,0.132,-0.766,1.509,-379.032,36.312,15.207
38598490,-0.277,-1.132,1.965,-361.742,53.217,35.945
38598500,-0.568,-1.717,1.723,-245.735,-44.73,-5.652
38598510,-0.094,-1.279,1.518,-113.487,-83.807,-15.47
38598520,-0.522,-1.295,0.96,28.105,-41.65,-0.297
38598530,-0.368,-0.574,0.71,117.512,-40.355,-28.07
38598540,-0.331,-0.513,0.169,169.872,-30.135,-36.715
38598550,-0.56,-0.248,0.064,180.792,-0.822,-60.13
38598560,-0.758,0.004,-0.11,185.15,7.14,-71.47
38598570,-0.641,0.337,-0.589,199.517,8.767,-64.067
38598580,-0.496,0.769,-0.891,186.287,30.87,-35.857
38598590,-0.477,0.869,-0.845,113.89,60.165,-6.212
38598600,-0.441,0.816,-0.303,15.907,60.235,19.617
38598610,-0.099,0.512,0.229,-50.207,30.747,41.912
38598620,0.764,0.207,0.515,-46.585,22.785,63.35
38598630,0.998,0.176,0.327,13.44,52.535,74.165
38598640,0.729,0.394,-0.123,77.035,68.39,47.285
38598650,0.469,0.271,-0.39,91.875,46.637,4.357
38598660,0.343,0.05,-0.37,51.485,-1.015,-48.965
38598670,0.119,-0.229,-0.226,6.597,-34.282,-89.005
38598680,-0.207,-0.349,-0.127,-6.58,-39.952,-105.997
38598690,-0.577,-0.272,-0.14,2.677,-37.082,-103.985
38598700,-1.231,-0.111,1.397,-25.567,-50.522,-89.425
38598710,0.663,-1.998,0.307,-11.865,-218.277,-259.402
38598720,-1.591,0.97,0.71,532.052,87.867,-196.315
38598730,1.585,1.997,-0.701,543.69,-14.455,-40.075
38598740,1.381,-0.565,1.7,288.365,-24.412,41.055
38598750,1.02,0.232,1.942,253.435,80.43,30.432
38598760,-0.995,1.997,1.074,287.262,158.182,88.427
38598760,-1.761,1.778,0.978,52.237,82.25,73.202
38598780,-0.914,0.818,1.138,-85.067,-37.345,20.352
38598780,-0.019,-0.225,1.142,-145.477,-78.575,-28.21
38598800,0.211,-0.507,0.965,-134.085,-68.425,-50.837
38598800,0.457,-0.575,0.843,-98.56,-46.392,-43.715
38598820,0.525,-0.492,0.82,-52.255,-19.25,-23.205
38598820,0.043,-0.37,0.866,-10.657,3.885,6.072
38598830,-0.105,-0.165,0.996,11.427,10.412,13.842
38598840,-0.076,0.15,1.102,15.085,10.062,11.9
38598850,-0.023,0.318,1.17,-3.972,11.305,7.892
38598860,-0.069,0.337,1.28,-36.75,13.037,7.612
38598870,-0.093,0.41,1.353,-78.872,16.782,7.612
38598880,-0.255,0.419,1.329,-131.827,17.885,3.535
38598890,-0.326,0.344,1.243,-187.04,8.505,-0.35
38598900,-0.252,0.213,1.167,-235.48,-8.645,-4.672
38598910,-0.06,0.106,1.157,-271.285,-14.315,-11.41
38598920,-0.006,0.052,1.161,-290.57,-6.877,-16.922
38598930,0.082,-0.254,1.209,-303.327,4.76,-24.587
38598940,0.23,-0.433,1.303,-313.705,32.812,-30.555
38598950,0.216,-0.643,1.314,-317.205,77.28,-39.83
38598960,0.03,-1.167,1.415,-290.867,111.755,-50.33
38598970,-0.463,-1.716,1.646,-169.522,136.202,-51.31
38598980,-0.882,-1.721,1.343,7.805,106.26,-117.302
38598990,-0.503,-1.361,0.446,89.25,75.687,-108.325
38599000,-0.226,-0.723,-0.381,167.125,69.352,-101.78
38599010,-0.754,-0.398,-0.234,122.045,70.262,-126.927
38599020,-0.809,-0.345,-0.032,69.965,51.502,-140.875
38599030,-0.701,-0.11,-0.008,77.542,36.715,-123.182
38599040,-0.638,0.222,-0.111,72.642,36.855,-96.337
38599050,-0.574,0.417,-0.226,51.432,39.007,-66.325
38599060,-0.471,0.584,-0.434,41.212,41.79,-26.757
38599070,-0.337,0.639,-0.557,32.13,45.237,9.765
38599080,-0.231,0.499,-0.486,-1.715,55.247,39.655
38599080,-0.055,0.317,-0.368,-41.737,64.05,64.995
38599100,0.101,0.325,-0.338,-59.64,60.06,81.515
38599100,0.449,0.481,-0.4,-66.22,42.402,84.875
38599120,0.915,0.655,-0.428,-85.365,30.625,87.01
38599120,-0.983,0.285,1.998,-267.872,-154,29.802
38599140,1.282,-1.998,0.05,-119.682,-436.975,-319.025
38599140,-0.89,0.388,0.008,535.43,126.28,-179.567
38599160,-0.565,1.997,-1.045,563.832,-62.79,-83.527
38599160,1.89,-0.782,1.787,303.975,-52.045,41.037
38599170,-1.07,-0.582,1.948,368.287,-9.205,-39.952
38599180,1.472,1.611,1.565,438.095,5.495,111.912
38599190,-0.509,1.455,1.941,223.002,81.672,135.607
38599200,-1.569,1.907,1.22,94.412,72.712,103.267
38599210,-1.151,0.789,1.126,-35.42,-3.902,46.865
38599220,-0.672,0.085,1.049,-104.002,-55.947,-19.215
38599230,-0.052,-0.239,0.939,-107.135,-77.332,-53.637
38599240,0.36,-0.334,0.968,-89.092,-70.385,-59.745
38599250,0.611,-0.263,0.998,-60.445,-40.915,-35.91
38599260,0.437,-0.058,1.05,-50.347,-11.55,1.837
38599270,0.103,0.054,1.096,-49.77,8.452,30.66
38599280,-0.02,0.036,1.156,-66.797,11.305,46.707
38599290,-0.205,0.15,1.164,-88.217,12.127,50.085
38599300,-0.182,0.198,1.218,-117.845,3.552,46.217
38599310,-0.18,0.223,1.225,-163.362,-5.442,42.07
38599320,-0.005,0.159,1.211,-210.77,-7.28,43.767
38599330,0.015,0.069,1.173,-251.895,-3.01,46.515
38599340,-0.033,-0.046,1.135,-282.275,-0.017,51.87
38599350,0.069,-0.123,1.153,-307.912,4.34,57.767
38599360,0.111,-0.311,1.238,-325.885,17.885,57.715
38599370,0.259,-0.689,1.473,-333.97,40.425,47.6
38599380,0.225,-0.963,1.76,-327.582,85.802,42.717
38599390,0.164,-1.462,1.968,-182.892,72.012,27.317
38599400,-0.127,-1.107,1.427,-53.305,26.88,-23.152
38599410,-0.138,-1.176,0.947,48.125,32.935,-27.16
38599420,-0.285,-0.916,0.884,133.455,3.71,-29.767
38599430,0.139,-0.936,0.111,188.65,-33.32,-21.647
38599440,-0.151,-0.911,-0.2,212.94,-34.632,-26.565
38599450,-0.596,-0.853,-0.886,215.915,-59.832,-41.3
38599460,-0.707,-0.579,-1.451,225.26,-79.87,-32.777
38599470,-0.709,-0.357,-1.177,142.8,-69.265,-15.4
38599480,-0.526,-0.681,-0.301,-28.052,-51.695,6.037
38599490,-0.199,-1.199,0.454,-156.8,-34.072,21.875
38599500,0.107,-1.236,0.508,-119.297,-20.702,31.027
38599510,0.04,-0.625,0.178,-31.885,-19.022,49.157
38599510,-0.14,-0.242,-0.066,-39.602,-42.35,59.64
38599530,0.012,-0.182,-0.297,-86.152,-76.09,58.887
38599530,-0.063,0.322,-0.559,-104.825,-103.46,48.02
38599550,-0.419,1.049,-0.805,-106.96,-138.092,29.4
38599550,-0.62,1.512,-0.993,-131.407,-179.077,22.277
38599570,-0.729,1.943,-0.317,-171.99,-205.117,28.035
38599570,1.543,0.144,1.998,-364.315,-26.792,20.212
38599580,-0.606,-1.998,-0.366,143.272,181.387,-160.247
38599590,-0.327,1.425,-0.406,561.802,41.807,-231.717
38599600,1.987,1.824,-0.368,401.257,145.53,118.335
38599610,0.289,-1.776,1.977,285.407,138.477,105.892
38599620,-0.73,0.879,1.74,424.602,101.15,108.517
38599630,-1.098,1.821,1.456,354.322,99.487,186.497
38599640,-1.547,1.139,1.686,115.027,60.847,94.57
38599650,-1.225,1.061,1.246,20.492,3.902,8.12
38599660,-0.266,0.334,1.159,-84.315,-44.537,-56.42
38599670,0.306,-0.28,0.918,-110.81,-49.647,-74.34
38599680,0.471,-0.474,0.915,-86.45,-30.292,-57.067
38599690,0.513,-0.278,0.997,-54.092,-5.687,-17.57
38599700,0.137,-0.067,1.038,-39.97,17.587,14.105
38599710,-0.037,0.029,1.125,-44.485,24.78,33.39
38599720,-0.273,0.181,1.142,-61.407,23.502,37.345
38599730,-0.258,0.106,1.149,-92.242,6.755,30.747
38599740,0.02,0.058,1.197,-124.302,-8.61,31.412
38599750,0.039,0.134,1.202,-157.15,-9.887,42.752
38599760,-0.024,0.083,1.21,-196.07,-12.215,56.98
38599770,-0.191,-0.018,1.161,-235.48,-19.355,73.727
38599780,-0.06,0.004,1.166,-268.345,-17.587,88.9
38599790,-0.148,-0.068,1.028,-288.575,-2.642,88.69
38599800,-0.062,-0.612,1.156,-305.987,4.112,72.345
38599810,-0.094,-0.809,1.298,-316.995,21.717,50.067
38599820,-0.172,-0.608,1.403,-290.01,23.275,43.995
38599830,0.154,-0.86,1.363,-194.617,0.262,19.547
38599830,0.182,-0.618,1.426,-165.41,7.665,15.627
38599850,0.184,-0.624,1.056,-122.902,18.655,19.355
38599850,0.143,-0.675,0.943,-74.41,38.78,14.367
38599870,-0.032,-0.643,1.129,-27.09,52.622,5.582
38599870,-0.42,-0.574,0.974,38.36,51.975,5.46
38599890,0.482,-0.444,0.629,134.067,50.75,37.205
38599890,0.447,0.122,0.152,224.507,37.992,31.307
38599910,0.297,0.442,-0.653,257.407,5.635,-17.832
38599910,0.139,0.671,-1.079,218.96,-14.787,-51.467
38599920,0.017,0.522,-0.856,125.702,-29.61,-87.255
38599930,-0.203,0.144,-0.44,21.21,-45.237,-138.53
38599940,-0.697,-0.106,-0.231,-45.097,-51.38,-177.135
38599950,-1.199,-0.153,-0.481,-36.435,-52.692,-174.982
38599960,-1.543,-0.013,-0.747,-5.075,-58.922,-125.422
38599970,-1.558,-0.281,-0.744,-16.292,-69.16,-31.622
38599980,-0.514,-0.859,-0.502,-29.522,-68.022,43.872
38599990,1.785,-1.886,1.886,-110.74,-0.91,67.795
38600000,0.217,-1.998,-0.351,69.807,-192.535,-159.407
38600010,-1.775,1.131,0.87,552.51,-13.352,-221.305
38600020,1.874,1.997,-0.562,479.22,24.22,75.372
38600030,1.227,0.75,0.81,337.067,77.91,67.217
38600040,0.223,-1.503,1.998,386.05,33.355,-72.887
38600050,1.031,1.378,1.853,422.712,135.8,94.552
38600060,-1.168,1.522,1.746,288.295,171.92,44.94
38600070,-1.896,1.994,1.091,98.07,116.27,42.805
38600080,-1.069,1.224,1.234,-36.207,4.707,5.67
38600090,-0.375,0.555,1.253,-154,-52.045,-38.57
38600100,0.104,-0.323,0.891,-169.05,-66.64,-67.812
38600110,0.199,-0.882,0.805,-142.152,-55.527,-72.432
38600120,0.338,-0.718,0.683,-81.672,-30.537,-56.49
38600130,0.356,-0.48,0.735,-32.777,-13.895,-22.067
38600140,0.11,-0.381,0.823,9.292,-1.802,9.327
38600150,-0.018,-0.178,0.952,36.995,4.602,26.722
38600160,-0.099,0.051,1.019,42.805,6.737,32.532
38600170,-0.114,0.112,1.096,32.9,7.437,30.222
38600180,-0.096,0.255,1.127,17.325,7.577,23.782
38600190,-0.072,0.301,1.183,-3.185,8.172,17.5
38600200,-0.07,0.312,1.26,-33.11,10.447,8.4
38600210,-0.066,0.33,1.311,-66.587,15.33,-0.717
38600220,-0.097,0.311,1.345,-106.015,21.49,-11.217
38600230,-0.074,0.297,1.305,-151.462,27.44,-20.912
38600240,-0.047,0.216,1.222,-194.95,30.59,-25.322
38600250,-0.021,0.076,1.204,-230.755,36.995,-28.735
38600260,0.082,-0.071,1.238,-252.175,47.6,-31.045
38600260,0.102,-0.092,1.215,-262.622,64.242,-29.242
38600280,0.061,-0.1,1.204,-266.105,78.19,-31.29
38600280,0.004,-0.272,1.255,-272.93,83.807,-32.497
38600300,-0.151,-0.488,1.26,-276.185,78.347,-40.18
38600300,-0.403,-0.61,1.398,-259.052,50.872,-51.905
38600320,-0.727,-0.782,1.717,-235.707,11.007,-28.577
38600320,0.031,-1.154,1.258,-145.32,-33.285,-25.095
38600330,0.217,-0.869,0.99,-69.125,-12.285,-14.42
38600340,0.312,-0.78,1,-10.36,29.435,-29.015
38600350,-0.04,-0.476,0.603,83.317,27.79,-56.91
38600360,-0.032,0.07,0.244,168.402,12.775,-71.382
38600370,-0.184,0.449,-0.283,171.71,7.647,-66.482
38600380,-0.301,0.732,-0.462,157.185,-8.995,-60.112
38600390,-0.501,0.836,-0.438,119.665,-30.047,-49.717
38600400,-0.307,0.7,-0.267,60.655,-39.007,-26.267
38600410,-0.133,0.42,-0.03,5.95,-28.49,8.312
38600420,0.036,0.075,0.115,-10.062,-16.59,31.412
38600430,0.198,-0.209,-0.002,19.477,-9.24,39.585
38600440,0.18,-0.251,-0.27,56.962,-10.815,32.06
38600450,0.021,-0.325,-0.54,70.7,-28.665,13.772
38600460,-0.087,-0.45,-0.769,60.48,-60.06,-9.52
38600470,-0.22,-0.47,-0.911,32.515,-93.747,-37.66
38600480,-0.256,-0.19,0.132,-13.247,-104.037,-57.592
38600490,-1.307,-1.904,1.383,-249.725,-168.717,-144.812
38600500,0.346,-0.689,-0.038,319.655,-28.997,-170.94
38600510,0.677,1.997,-0.911,572.145,21.21,28.612
38600520,1.781,1.703,-0.065,436.205,15.802,55.09
38600530,0.797,-1.833,1.998,230.125,34.055,8.207
38600540,0.223,1.223,1.903,381.727,134.837,93.905
38600550,-1.304,1.997,1.12,287.752,152.81,90.055
38600560,-1.814,1.753,0.995,33.162,69.212,53.69
38600570,-0.703,0.688,1.173,-96.18,-39.777,-1.312
38600580,-0.06,-0.14,1.081,-150.395,-74.637,-43.19
38600580,0.228,-0.485,0.953,-138.495,-66.78,-55.405
38600600,0.39,-0.396,0.905,-104.037,-47.407,-39.252
38600600,0.439,-0.377,0.864,-64.522,-21.542,-12.582
38600620,0.19,-0.417,0.819,-34.615,0.56,17.202
38600620,-0.12,-0.391,0.887,-2.03,5.075,35.192
38600640,-0.181,-0.134,0.95,17.43,4.375,37.415
38600640,-0.11,0.061,1.032,18.007,2.8,32.672
38600660,-0.088,0.215,1.086,6.055,3.15,28.875
38600660,-0.04,0.17,1.151,-14.91,3.237,25.532
38600670,-0.064,0.265,1.214,-37.327,5.162,20.562
38600680,-0.087,0.264,1.257,-65.52,6.055,17.745
38600690,-0.214,0.26,1.252,-99.96,2.957,15.015
38600700,-0.206,0.205,1.203,-140.017,-6.895,12.512
38600710,-0.186,0.11,1.161,-183.435,-18.165,13.667
38600720,-0.043,0.015,1.116,-212.59,-30.292,14.612
38600730,0.029,-0.021,1.089,-232.662,-27.055,17.167
38600740,0.043,-0.183,1.055,-244.352,-21.122,19.197
38600750,0.147,-0.324,1.094,-250.425,-6.982,22.522
38600760,0.2,-0.443,1.128,-242.952,10.185,25.83
38600770,0.208,-0.763,1.168,-228.62,27.002,26.617
38600780,0.202,-0.717,1.317,-205.712,42.875,35.945
38600790,0.244,-1.272,1.236,-119.262,32.672,22.977
38600800,-0.074,-1.111,0.981,-64.907,22.557,7.105
38600810,-0.029,-0.949,0.902,-19.32,29.522,23.205
38600820,0.178,-1.238,0.759,20.58,25.217,15.907
38600830,0.405,-1.184,0.569,77.35,35.122,-19.53
38600840,0.23,-0.857,0.352,129.85,68.18,-66.587
38600850,-0.43,-0.526,0.079,148.207,81.532,-130.165
38600860,-0.839,-0.206,-0.165,141.067,59.867,-182.07
38600870,-0.939,0.058,-0.444,118.877,36.715,-197.522
38600880,-1.151,0.373,-0.587,82.81,19.11,-190.697
38600890,-1.372,0.609,-0.531,27.79,2.222,-167.65
38600900,-1.311,0.581,-0.282,-36.417,0.262,-103.547
38600910,-0.988,0.397,-0.034,-85.277,27.44,-5.25
38600920,-0.6,0.459,-0.082,-79.397,60.182,82.617
38600930,-0.196,0.89,-0.414,-37.712,82.302,144.322
38600940,0.486,1.345,0.058,-19.285,100.275,173.985
38600950,1.376,-0.686,1.998,-227.955,-105.875,118.597
38600960,1.151,-1.998,0.684,69.107,-321.23,-317.8
38600970,-1.964,0.936,-0.328,562.922,-3.237,-277.725
38600980,1.68,1.814,0.077,525.227,-72.17,-37.152
38600990,1.183,-0.336,1.87,326.025,-58.59,-4.602
38601000,1.195,0.954,1.892,372.54,-8.47,54.11
38601000,-0.123,1.891,1.8,283.797,110.53,147.945
38601010,-1.788,1.954,1.3,96.425,96.355,129.797
38601020,-1.132,1.054,1.16,-38.237,5.565,88.235
38601030,-0.553,0.054,1.059,-120.26,-46.865,5.477
38601040,0.011,-0.532,0.812,-131.67,-57.855,-37.572
38601050,0.274,-0.621,0.838,-98.262,-52.57,-43.942
38601060,0.43,-0.428,0.859,-43.767,-35.157,-20.842
38601070,0.354,-0.303,0.934,-10.972,-10.115,1.767
38601080,0.095,-0.066,0.986,11.235,8.96,20.755
38601090,-0.128,0.027,1.038,14.752,14.402,28.962
38601100,-0.131,0.05,1.05,5.25,12.565,24.745
38601110,-0.197,0.191,1.103,-6.16,9.922,18.48
38601120,-0.161,0.268,1.183,-29.172,5.285,11.69
38601130,-0.127,0.297,1.267,-60.55,2.73,3.132
38601140,-0.147,0.244,1.258,-95.497,-0.875,-1.33
38601150,-0.193,0.159,1.183,-132.37,-8.785,-0.35
38601160,-0.228,0.054,1.123,-165.13,-23.362,1.347
38601170,-0.266,-0.024,1.102,-190.592,-35.402,-0.297
38601180,-0.204,-0.054,1.107,-205.975,-49.63,-1.767
38601190,-0.211,-0.149,1.11,-218.33,-60.69,5.005
38601200,-0.197,-0.425,1.41,-228.707,-62.177,5.617
38601210,-0.454,-0.855,1.624,-225.19,-79.012,-10.395
38601220,0.141,-1.299,1.929,-166.705,-80.675,-27.282
38601230,0.519,-1.869,1.833,-39.865,-11.9,-32.48
38601240,0.65,-1.901,0.733,184.957,111.352,-66.482
38601250,-0.928,-0.665,0.012,309.75,211.365,-53.095
38601260,-1.558,-0.161,-0.864,318.395,131.145,-41.51
38601270,-0.702,-0.303,-0.946,224.49,18.76,0.56
38601280,-0.02,-0.575,-0.655,68.407,-3.255,48.685
38601290,-0.24,-0.52,-0.152,-32.882,-4.55,48.212
38601300,-0.255,-0.635,0.165,-83.895,-4.812,38.01
38601310,0.032,-0.675,0.214,-91.56,-3.867,38.937
38601320,-0.091,-0.453,0.145,-72.747,-4.97,27.807
38601330,-0.192,-0.322,-0.001,-72.712,-12.407,18.007
38601330,-0.078,-0.137,-0.096,-83.65,-13.965,24.657
38601350,-0.09,0.161,-0.18,-95.532,-16.082,35.577
38601350,0.016,0.544,-0.378,-104.65,-28.157,45.692
38601370,1.109,1.86,1.438,-162.365,-36.452,74.34
38601370,1.998,-1.143,0.503,-5.25,-14.455,51.94
38601390,-1.688,-0.701,1.298,546.07,46.69,-206.447
38601390,-0.361,-0.88,1.669,392.612,-62.772,-127.662
38601410,1.907,0.999,1.017,324.187,11.83,134.645
38601410,0.308,0.395,1.947,324.712,79.012,58.555
38601420,-1.274,1.828,1.371,189.805,130.077,76.09
38601430,-1.491,1.67,0.816,82.95,58.642,49.682
38601440,-0.84,0.485,1.114,-65.607,-29.907,-7.017
38601450,0.052,-0.088,1.004,-89.915,-68.215,-48.632
38601460,0.313,-0.53,0.942,-91.507,-59.132,-51.695
38601470,0.391,-0.461,0.91,-54.95,-32.69,-29.802
38601480,0.175,-0.218,0.968,-17.902,-7.21,-5.88
38601490,-0.023,-0.045,1.003,3.412,8.627,10.062
38601500,-0.215,0.143,1.041,10.027,12.022,15.855
38601510,-0.286,0.21,1.042,1.627,5.565,11.445
38601520,-0.29,0.214,1.068,-19.442,-6.615,-0.542
38601530,-0.09,0.278,1.139,-41.247,-15.82,-7.07
38601540,-0.045,0.312,1.156,-65.17,-18.882,-8.365
38601550,-0.019,0.227,1.212,-94.92,-17.64,-3.692
38601560,-0.138,0.183,1.243,-124.127,-18.847,0.997
38601570,-0.165,0.141,1.171,-155.855,-24.43,7.017
38601580,-0.227,0.033,1.087,-185.657,-32.445,11.69
38601590,-0.242,-0.044,1.063,-208.355,-42.315,16.38
38601600,-0.289,-0.02,1.111,-219.905,-59.255,13.177
38601610,-0.365,-0.056,1.154,-229.547,-80.132,9.642
38601620,-0.334,-0.215,1.279,-232.032,-98.525,-1.155
38601630,-0.239,-0.53,1.498,-230.44,-106.225,-17.027
38601640,0.072,-1.096,1.306,-200.462,-99.295,-34.895
38601650,0.251,-1.816,1.736,-129.57,-36.75,-81.235
38601660,0.328,-1.998,1.289,-13.895,47.425,-160.282
38601670,-1.141,-1.488,0.267,158.445,101.202,-213.517
38601670,-1.383,-0.587,-0.315,205.397,63.227,-230.09
38601690,-0.969,-0.386,-0.253,89.565,21.122,-217.332
38601690,-1.067,-0.346,0.005,-6.825,18.2,-209.702
38601710,-1.393,-0.036,-0.194,1.12,25.34,-187.897
38601710,-1.676,0.631,-0.321,22.085,53.742,-127.872
38601730,-1.826,0.872,-0.135,-31.605,92.172,-26.967
38601730,-1.211,0.475,0.162,-89.32,129.71,87.885
38601750,-0.455,0.268,-0.015,-63.227,163.327,173.74
38601750,0.227,0.964,-0.757,14.437,189.017,219.59
38601760,0.711,1.755,-1.615,49.332,192.412,243.425
38601770,1.88,1.07,1.348,-92.592,84.35,187.845
38601780,1.58,-1.998,1.998,-167.142,-285.775,-202.58
38601790,-1.843,-0.744,0.828,526.68,5.25,-529.707
38601800,1.937,1.991,-0.281,508.042,-62.457,-47.302
38601810,0.812,-0.543,1.784,236.092,1.102,131.74
38601820,0.427,0.809,1.795,256.69,75.775,125.265
38601830,-1.22,1.914,1.242,207.305,121.345,189.822
38601840,-1.634,1.311,1.11,12.617,64.75,132.475
38601850,-1.238,0.324,1.037,-50.575,-9.957,36.242
38601860,-0.529,0.068,0.961,-80.482,-54.687,-46.392
38601870,0.36,-0.149,0.959,-87.78,-69.422,-75.95
38601880,0.642,-0.384,1.012,-70.647,-44.327,-66.307
38601890,0.546,-0.019,1.116,-58.625,-5.372,-31.605
38601900,0.141,0.229,1.163,-60.882,24.657,-5.127
38601910,-0.148,0.116,1.111,-80.377,30.975,1.505
38601920,-0.361,0.035,1.123,-100.712,23.502,2.922
38601930,-0.404,0.127,1.121,-117.162,9.205,1.05
38601940,-0.21,0.181,1.094,-145.985,-2.397,2.87
38601950,-0.108,0.157,1.104,-179.165,-11.357,11.165
38601960,-0.109,0.061,1.08,-212.992,-19.617,27.02
38601970,-0.164,0.005,1.102,-242.742,-34.65,46.9
38601980,-0.383,0.038,1.124,-268.485,-57.382,70.192
38601990,-0.516,0.235,1.281,-300.195,-88.41,92.26
38602000,-0.355,0.032,1.508,-341.302,-115.675,122.115
38602010,0.016,-1.127,1.85,-349.282,-143.727,138.442
38602020,-0.348,-0.9,1.906,-255.132,-141.452,137.427
38602030,-1.097,0.093,1.947,-28.822,-132.667,110.18
38602040,-0.342,0.554,0.414,146.422,-56.63,203.682
38602050,0.025,0.861,0.576,213.132,114.642,331.572
38602060,0.829,0.559,-0.28,212.187,97.93,316.557
38602070,1.794,0.294,-0.281,229.39,62.23,249.585
38602080,1.757,0.289,-0.494,187.985,33.705,141.75
38602080,1.248,0.23,-0.462,129.202,-13.86,-51.467
38602100,0.385,-0.243,-0.336,54.705,-38.15,-176.382
38602100,-0.365,-0.583,-0.47,25.585,-54.932,-259.682
38602120,-1.224,-0.583,-0.548,23.205,-62.265,-278.477
38602120,-1.474,-0.712,-0.533,-6.265,-61.372,-260.505
38602140,-1.202,-1.029,-0.586,-21.682,-27.457,-226.8
38602140,-1.741,-0.638,0.764,-12.827,-19.635,-197.925
38602160,1.339,-1.986,0.469,-54.372,-70.14,-248.937
38602160,-0.913,-0.105,0.88,448.21,81.34,-260.732
38602170,-0.478,1.997,-0.484,556.15,7.997,-165.13
38602180,1.997,0.234,1.223,363.86,69.37,111.58
38602190,-0.425,-0.805,1.998,234.272,186.357,81.095
38602200,-1.982,1.92,0.694,244.79,185.972,86.047
38602210,-1.516,1.509,0.679,52.237,49.507,65.082
38602220,-0.635,0.249,1.171,-98.315,-64.365,-2.03
38602230,0.364,-0.352,1.043,-99.382,-81.83,-10.92
38602240,0.176,-0.289,0.969,-84.175,-58.012,-4.865
38602250,0.296,-0.525,0.936,-53.235,-38.955,-0.542
38602260,0.549,-0.398,0.923,-15.925,-13.037,7.385
38602270,0.005,-0.12,0.992,24.097,18.392,22.96
38602280,-0.174,0.114,1.019,35.962,26.985,23.59
38602290,-0.128,0.232,1.031,26.32,21.752,15.137
38602300,-0.044,0.265,1.063,6.457,18.532,12.897
38602310,0.039,0.29,1.109,-17.062,21.087,15.68
38602320,-0.001,0.434,1.22,-47.81,24.167,23.205
38602330,0.257,0.505,1.421,-94.447,13.405,41.58
38602340,0.058,0.44,1.461,-150.027,5.547,59.045
38602350,-0.057,0.187,1.426,-214.147,-5.652,71.12
38602360,-0.149,0.175,1.321,-275.17,3.972,86.082
38602370,-0.157,0.32,1.208,-319.41,16.625,104.265
38602380,-0.017,0.282,1.124,-357.402,29.89,116.462
38602390,0.038,-0.052,1.237,-389.532,42.07,118.037
38602400,-0.129,-0.393,1.628,-421.907,61.285,112.84
38602410,-0.223,-0.967,1.974,-387.485,18.235,91.525
38602420,0.175,-1.114,1.349,-287.052,-14.122,94.815
38602420,-0.054,-0.284,1.455,-140.84,6.562,123.55
38602440,-0.598,0.275,1.627,-50.487,17.71,106.435
38602440,-0.168,-0.117,1.117,1.365,39.987,119.542
38602460,1.02,0.187,0.484,97.86,89.25,149.817
38602460,0.854,0.649,-0.017,112.945,57.907,87.552
38602480,0.769,0.699,-0.224,95.935,-7.245,-53.532
38602480,0.041,0.714,-0.101,52.797,-37.555,-172.007
38602500,-0.885,0.821,-0.401,48.58,-41.79,-240.642
38602500,-1.902,1.153,-0.789,70.472,-62.475,-261.677
38602510,-1.995,0.883,-0.901,54.022,-62.072,-182.595
38602520,-1.778,0.229,-0.742,27.632,-31.78,-77.21
38602530,-1.253,-0.323,-0.712,47.547,15.715,23.73
38602540,-0.414,-0.331,-0.81,91.437,16.8,12.775
38602550,-0.261,-0.326,-0.851,125.247,-11.13,-31.237
38602560,-0.08,-0.419,-0.315,131.582,1.417,-45.307
38602570,-0.785,-1.939,1.157,-119.7,-192.867,-118.877
38602580,0.683,-0.122,1.305,211.417,-181.615,-405.02
38602590,1.028,1.997,-1.398,568.067,82.127,-120.207
38602600,1.991,0.857,0.722,396.655,-5.39,-109.952
38602610,1.3,-0.883,1.94,198.8,34.947,-13.195
38602620,0.864,1.688,1.325,364.647,133.84,179.795
38602630,-1.47,1.008,1.687,190.662,157.395,183.837
38602640,-1.984,1.428,1.15,79.31,84.49,121.66
38602650,-1.308,0.734,1.129,-26.127,-9.642,10.71
38602660,-0.221,0.205,1.209,-106.05,-66.325,-65.117
38602670,0.535,0.053,1.123,-118.422,-69.37,-77.962
38602680,0.607,-0.132,1.123,-129.692,-32.97,-57.26
38602690,0.386,0.038,1.146,-138.967,3.937,-12.757
38602700,0.02,-0.03,1.034,-150.57,8.137,20.352
38602710,-0.204,-0.226,1.076,-166.547,-6.002,35.367
38602720,-0.134,-0.146,1.085,-179.392,-16.205,54.617
38602730,-0.05,-0.053,1.074,-193.2,-17.605,71.61
38602740,0.01,-0.149,1.065,-215.775,-17.027,84.21
38602750,-0.269,-0.264,1.09,-234.675,-19.302,104.387
38602760,-0.027,-0.487,1.234,-257.197,-25.795,129.027
38602770,0.242,-0.958,1.347,-267.767,-16.38,156.957
38602780,0.093,-1.247,1.256,-218.365,-46.48,161.752
38602790,-0.79,-1.873,1.322,-130.812,-80.377,149.87
38602800,-1.804,-1.844,1.535,-13.335,-49.595,196.56
38602810,-1.18,-1.505,0.467,172.795,-27.615,268.712
38602820,0.596,-1.268,0.263,226.082,22.312,343.962
38602830,1.034,-1.351,0.185,186.025,34.93,332.15
38602830,0.923,-1.064,-0.038,185.08,13.16,259.857
38602850,0.813,-0.778,-0.431,164.797,5.32,217.805
38602850,0.974,-0.511,-0.574,86.38,-2.24,169.242
38602870,0.903,-0.278,-0.484,-7.175,-23.782,81.025
38602870,0.531,-0.167,-0.42,-77.7,-73.99,-35.63
38602890,0.121,-0.149,-0.22,-129.062,-102.795,-82.285
38602890,-0.068,0.135,-0.126,-181.527,-116.13,-99.802
38602910,-0.345,0.42,-0.122,-193.252,-152.53,-126.717
38602910,-0.407,0.942,-0.128,-187.792,-167.79,-136.325
38602920,-0.6,1.918,0.804,-188.93,-144.777,-119.14
38602930,-0.961,0.903,1.98,-161.77,45.745,-57.627
38602940,1.814,-1.998,0.655,388.605,218.68,15.785
38602950,-1.704,0.049,0.903,551.985,68.757,-79.117
38602960,0.71,1.697,0.932,420.892,25.795,14.857
38602970,0.456,0.926,1.619,351.225,30.52,91.892
38602980,-0.401,0.987,1.972,281.557,49.14,72.887
38602990,-0.849,1.663,1.527,164.57,60.602,70
38603000,-0.919,1.139,1.275,28.332,16.765,27.947
38603010,-0.675,0.575,1.214,-74.55,-26.075,-8.732
38603020,-0.379,-0.041,0.945,-119.542,-54.075,-40.407
38603030,0.053,-0.418,0.97,-136.307,-65.275,-54.827
38603040,0.36,-0.175,1.038,-102.847,-43.26,-56.84
38603050,0.499,-0.024,1.107,-94.15,-10.815,-44.957
38603060,0.366,0.001,1.112,-99.995,12.565,-20.3
38603070,0.143,-0.003,1.106,-104.632,28.14,-3.342
38603080,0.099,-0.024,1.141,-118.527,34.335,-0.507
38603090,0.045,0.054,1.193,-140.14,40.827,-2.012
38603100,0.143,0.054,1.193,-165.9,51.887,-6.58
38603110,0.24,-0.034,1.239,-197.277,64.4,-7.787
38603120,0.195,-0.111,1.251,-225.225,81.882,-6.58
38603130,0.127,-0.158,1.249,-241.255,93.485,-9.835
38603140,-0.03,-0.249,1.357,-253.627,105.927,-14.122
38603150,-0.126,-0.302,1.599,-258.02,110.442,-28.507
38603160,-0.105,-0.758,1.622,-240.152,115.657,-34.492
38603170,-0.175,-0.689,1.523,-162.942,102.847,-24.185
38603170,0.085,-0.565,0.964,-71.382,80.237,-63.385
38603190,0.783,-1.01,0.533,-50.592,67.287,-104.282
38603190,1.664,-0.841,1.52,-63.857,48.982,-160.422
38603210,0.018,0.028,0.379,23.047,25.235,-303.835
38603210,-1.27,1.321,0.01,149.362,-15.505,-375.812
38603230,-1.825,1.803,-0.307,122.412,-52.745,-314.44
38603230,-1.519,1.707,-0.991,130.095,-77.157,-193.76
38603250,-0.984,1.542,-1.425,188.352,-50.925,-76.002
38603250,-0.797,0.975,-1.036,154.717,35.682,6.562
38603260,-0.63,0.001,-0.489,75.372,98.997,50.767
38603270,-0.393,-0.604,-0.34,78.995,80.972,78.102
38603280,0.161,-0.745,-0.011,123.795,6.387,72.065
38603290,-1.14,-1.462,1.967,-39.27,-233.432,8.33
38603300,0.868,-1.657,0.718,40.495,-254.1,-335.317
38603310,-1.447,1.903,-0.039,507.447,51.887,-64.697
38603320,1.998,1.997,-0.336,453.215,15.137,83.912
38603330,0.643,-0.321,1.632,195.527,32.532,41.387
38603340,-0.317,-0.822,1.858,261.362,8.82,-10.71
38603350,0.419,1.867,1.068,325.71,73.202,142.52
38603360,-1.125,0.902,1.707,139.51,73.937,78.33
38603370,-1.256,1.314,1.134,55.195,31.29,42.892
38603380,-0.522,0.439,1.176,-40.04,-29.277,-17.622
38603390,0.051,0.063,0.999,-77.402,-52.85,-48.72
38603400,0.318,-0.33,0.958,-81.095,-45.902,-47.845
38603410,0.294,-0.244,0.978,-59.605,-24.64,-29.557
38603420,0.226,-0.097,0.991,-40.267,-3.605,-9.485
38603430,0.048,-0.076,1.034,-32.9,11.06,1.785
38603440,-0.033,0.052,1.098,-31.657,17.482,9.047
38603450,-0.1,0.195,1.179,-47.617,19.67,9.432
38603460,-0.128,0.309,1.231,-77.437,18.742,6.37
38603470,-0.122,0.304,1.264,-118.142,15.295,5.145
38603480,-0.111,0.265,1.266,-163.642,5.88,9.17
38603490,-0.126,0.218,1.22,-213.237,-7.875,18.567
38603500,-0.23,0.086,1.137,-254.94,-26.337,29.26
38603510,-0.369,-0.037,1.1,-282.66,-43.732,37.292
38603520,-0.482,-0.09,1.079,-304.902,-63.752,45.29
38603530,-0.386,-0.053,1.172,-334.6,-75.425,53.357
38603540,-0.295,-0.219,1.378,-362.775,-82.46,57.68
38603550,-0.356,-0.87,1.548,-358.382,-106.802,67.9
38603560,0.272,-1.658,1.464,-218.732,-101.92,67.13
38603570,-0.64,-1.49,1.614,-66.342,-45.43,36.557
38603580,-1.802,-1.2,1.214,38.797,19.005,72.66
38603580,-0.343,-0.942,0.399,157.465,63.927,161.77
38603600,-0.102,-0.851,0.31,169.907,92.697,229.215
38603600,0.786,-1.083,0.236,167.212,90.107,197.085
38603620,0.798,-0.917,0.148,182.787,125.562,174.37
38603620,0.635,-0.644,-0.393,196.822,139.352,130.847
38603640,0.627,-0.343,-0.904,181.702,134.137,67.217
38603640,0.55,-0.132,-0.994,117.372,106.382,-16.887
38603660,0.205,-0.082,-0.677,12.092,43.872,-121.117
38603660,0.333,-0.288,-0.324,-94.587,8.015,-169.4
38603670,0.247,-0.219,-0.189,-128.555,-4.217,-210.647
38603680,-0.139,0.21,-0.347,-92.155,-14.717,-246.242
38603690,-0.514,0.783,-0.589,-66.255,-39.707,-259.997
38603700,-0.632,1.061,-0.713,-70.56,-70.997,-239.19
38603710,-0.53,1.158,-1.165,-74.917,-87.027,-183.802
38603720,-1.525,0.804,1.849,-177.957,-92.242,-125.912
38603730,0.974,-1.998,-0.302,-29.365,-312.2,-197.382
38603740,-0.396,0.724,0.251,555.187,174.982,-59.237
38603750,0.864,1.997,-0.891,540.802,34.352,1.26
38603760,1.771,-0.534,1.5,263.165,48.737,60.165
38603770,-0.827,-0.767,1.974,283.115,30.082,46.865
38603780,0.166,1.966,1.382,374.15,49.7,181.09
38603790,-1.203,1.24,1.65,156.275,54.477,141.907
38603800,-1.294,1.123,1.278,10.5,21.56,71.697
38603810,-0.999,0.341,1.107,-71.242,-24.447,-10.815
38603820,-0.221,-0.036,0.957,-110.845,-60.305,-66.167
38603830,0.357,-0.301,0.887,-90.212,-61.845,-81.83
38603840,0.499,-0.378,0.973,-62.825,-37.887,-65.59
38603850,0.59,-0.214,1.027,-40.985,-15.75,-26.792
38603860,0.348,-0.075,1.054,-36.54,7.77,9.187
38603870,0.142,-0.068,1.121,-40.39,21.297,30.205
38603880,0.029,0.031,1.123,-52.115,32.69,40.39
38603890,-0.161,0.161,1.165,-70.665,39.55,38.5
38603900,-0.119,0.185,1.248,-102.235,32.287,33.442
38603910,-0.046,0.206,1.252,-142.555,32.077,29.417
38603920,-0.063,0.129,1.214,-180.687,39.252,26.985
38603920,-0.008,-0.068,1.195,-217.98,41.037,26.845
38603940,0.102,-0.068,1.255,-250.145,52.517,33.792
38603940,-0.062,-0.075,1.125,-258.002,58.607,31.797
38603960,0.009,-0.278,1.174,-272.23,62.37,18.917
38603960,-0.153,-0.374,1.324,-296.677,77.577,7.227
38603980,-0.676,-0.557,1.721,-301.577,69.545,-2.712
38603980,-0.598,-1.213,1.901,-221.69,12.6,-7.997
38604000,-0.471,-1.415,1.569,-96.897,-47.827,-30.502
38604000,0.21,-1.119,1.629,-15.207,-37.905,-47.197
38604010,-0.037,-1.26,0.879,99.05,-34.177,-55.562
38604020,-0.049,-0.663,0.35,229.18,-13.212,-88.182
38604030,-0.54,-0.248,-0.371,271.967,11.48,-97.195
38604040,-1.038,0.329,-1.289,291.375,-13.912,-100.345
38604050,-1.289,0.982,-1.562,268.012,-48.37,-78.33
38604060,-1.189,0.838,-0.877,118.79,-47.565,-39.847
38604070,-0.622,0.245,0.034,-59.605,-25.777,-2.187
38604080,-0.211,-0.155,0.373,-98.595,21.087,3.955
38604090,-0.193,0.052,0.097,12.302,50.645,-14.717
38604100,-0.29,0.363,-0.127,54.687,49.507,-26.18
38604110,-0.07,-0.052,-0.043,12.285,27.09,-29.96
38604120,0.157,-0.458,0.051,-11.2,5.372,-40.512
38604130,0.217,-0.616,-0.057,-0.052,0.892,-59.92
38604140,0.177,-0.679,-0.271,7.717,8.4,-78.68
38604150,-0.028,-0.561,0.043,-9.8,9.012,-92.995
38604160,-0.454,-0.405,1.993,-169.015,-109.48,-114.782
38604170,1.404,-1.837,0.157,161.035,-24.01,-206.64
38604180,-1.527,1.756,0.248,569.1,34.247,-131.232
38604190,1.824,1.515,0.335,426.055,-2.17,13.387
38604200,1.229,-1.154,1.804,265.72,14.315,97.09
38604210,0.345,0.414,1.997,380.117,100.537,110.372
38604220,-1.349,1.954,1.402,299.197,162.207,128.467
