time[ms],accX[g],accY[g],accZ[g],Value 1,Value 2,Value 3
37811010,-0.079,0.047,0.986,0.14,-1.137,1.977
37811010,-0.078,0.046,0.986,0.017,-1.89,1.785
37811030,-0.078,0.049,0.984,-0.105,-2.012,2.012
37811030,-0.081,0.05,0.984,-0.157,-2.642,2.012
37811050,-0.079,0.049,0.984,-0.35,-2.992,2.17
37811050,-0.073,0.052,0.983,-0.402,-3.465,2.327
37811070,-0.069,0.051,0.983,-0.577,-3.535,2.485
37811070,-0.069,0.045,0.985,-0.665,-3.64,2.555
37811080,-0.068,0.046,0.986,-0.577,-3.465,2.625
37811090,-0.07,0.045,0.986,-0.525,-3.342,2.59
37811100,-0.067,0.045,0.985,-0.367,-3.377,2.52
37811110,-0.07,0.048,0.985,-0.297,-3.255,2.362
37811120,-0.074,0.047,0.985,-0.42,-3.552,2.1
37811130,-0.069,0.044,0.983,-0.577,-3.727,1.942
37811140,-0.065,0.048,0.982,-0.525,-3.972,1.802
37811150,-0.07,0.048,0.985,-0.647,-3.92,1.505
37811160,-0.076,0.044,0.987,-0.7,-4.235,1.26
37811170,-0.072,0.043,0.986,-0.752,-4.165,1.242
37811180,-0.069,0.042,0.987,-0.63,-4.55,0.997
37811190,-0.068,0.041,0.987,-0.612,-4.182,0.875
37811200,-0.066,0.043,0.987,-0.402,-4.217,0.735
37811210,-0.064,0.043,0.986,-0.245,-3.587,0.752
37811220,-0.063,0.043,0.985,0.052,-3.482,0.735
37811230,-0.059,0.047,0.985,0.21,-2.607,0.717
37811240,-0.056,0.045,0.985,0.367,-2.362,0.63
37811250,-0.052,0.049,0.979,0.472,-1.417,0.682
37811260,-0.051,0.055,0.978,0.735,-1.155,0.56
37811270,-0.061,0.046,0.986,0.437,-0.21,0.21
37811280,-0.064,0.049,0.993,0.455,-0.332,-0.07
37811290,-0.083,0.047,1,-0.105,-0.577,0.175
37811300,-0.079,0.035,1.011,-0.612,-2.292,0.332
37811310,-0.076,0.014,1.02,-0.892,-2.782,0.77
37811320,-0.065,0.002,1.03,-0.157,-2.642,0.507
37811330,-0.087,0.005,1.05,0.56,-1.05,0.28
37811340,-0.039,-0.022,1.038,2.047,0.56,0.525
37811350,0.009,0,1.007,5.67,5.582,1.137
37811360,-0.042,0.055,1.001,7.385,10.71,0.735
37811370,-0.058,0.071,0.971,8.277,13.387,0.7
37811380,-0.034,0.145,0.919,7.682,13.632,1.767
37811390,-0.072,0.223,0.877,3.727,12.617,0.892
37811400,-0.05,0.258,0.85,-2.152,9.485,-0.14
37811410,-0.069,0.237,0.906,-8.96,7.997,-0.752
37811420,-0.174,0.061,0.971,-16.73,5.81,-3.692
37811420,-0.342,0.001,0.944,-15.837,2.082,-4.13
37811430,-0.479,-0.026,0.901,-13.58,-7.105,-0.945
37811440,-0.474,-0.126,0.897,-9.94,-20.422,4.847
37811450,-0.273,-0.185,1.042,-1.785,-31.57,12.985
37811460,0.146,-0.109,1.046,4.392,-37.012,20.44
37811470,0.196,0.495,0.826,8.942,-33.792,22.47
37811480,-0.144,0.52,0.875,-12.25,-36.435,19.845
37811490,0.066,-0.048,1.008,-36.47,-45.465,19.967
37811500,0.32,-0.073,1.027,-30.52,-40.565,21.455
37811510,-0.085,0.046,1.062,-24.307,-29.05,14.717
37811520,0.019,-0.153,1.05,-23.747,-25.147,18.41
37811530,0.012,-0.032,1.019,-15.172,-21.28,12.582
37811540,0.162,0.074,1.008,-11.742,-16.082,6.615
37811550,0.148,-0.023,1.003,-12.53,-3.605,7.192
37811560,0.049,-0.118,0.994,-10.255,9.782,7.122
37811570,-0.008,-0.092,1.001,-4.147,18.62,5.267
37811580,-0.07,0.003,1.009,2.117,21.752,2.975
37811590,-0.083,0.016,1.002,4.375,21.735,1.977
37811600,-0.121,0.016,0.995,4.935,19.547,0.052
37811610,-0.108,0.012,0.997,4.34,17.202,-0.63
37811620,-0.132,0.034,0.999,3.692,14.315,-1.015
37811630,-0.157,0.043,0.999,2.1,11.182,-1.085
37811640,-0.119,0.029,0.994,1.207,6.457,-2.572
37811650,-0.058,0.02,0.996,1.505,4.725,-5.565
37811660,-0.01,0.022,1.002,2.695,5.81,-8.26
37811670,-0.04,0.037,1.014,2.852,9.205,-10.605
37811680,-0.026,0.097,1.04,0.875,11.042,-12.005
37811690,-0.027,0.122,1.082,-4.76,15.015,-13.702
37811700,-0.098,0.239,1.151,-15.417,19.53,-18.147
37811710,-0.063,0.271,1.29,-36.872,24.377,-27.282
37811720,0.164,0.258,1.498,-73.08,41.212,-40.915
37811730,-0.18,0.268,1.521,-122.08,89.145,-61.915
37811740,-0.234,0.189,1.454,-194.635,109.515,-71.347
37811750,-0.121,0.247,1.4,-257.67,98.385,-64.085
37811760,0.076,0.205,1.42,-307.335,74.252,-48.247
37811760,0.229,0.027,1.381,-339.902,57.732,-22.347
37811780,-0.022,-0.061,1.391,-367.185,47.687,-3.15
37811780,-0.993,-0.799,1.869,-404.372,5.897,9.257
37811800,-1.327,-1.882,1.545,-385.245,-118.457,5.127
37811800,-0.743,-1.741,1.577,-293.947,-174.842,46.69
37811820,0.563,-1.791,0.53,-133.525,-139.842,67.882
37811820,0.261,-0.82,0.507,-35.945,-65.327,40.477
37811830,0.041,-0.069,0.24,4.462,-51.712,-21.857
37811840,0.027,0.395,0.162,16.222,-59.167,-58.695
37811850,-0.009,0.534,0.328,-16.502,-66.885,-68.057
37811860,-0.086,0.487,0.269,-11.55,-78.505,-71.365
37811870,-0.078,0.482,0.136,5.722,-70.56,-54.39
37811880,-0.157,0.291,0.165,6.317,-51.817,-40.617
37811890,-0.354,0.042,0.19,20.825,-34.037,-27.37
37811900,-0.431,-0.012,0.026,47.232,-10.395,4.602
37811910,-0.477,0.047,-0.133,65.082,6.177,40.932
37811920,-0.519,0.04,-0.105,53.585,0.455,65.887
37811930,-0.413,-0.185,0.014,25.462,-14.105,88.55
37811940,-0.272,-0.295,0.124,13.877,-18.725,104.195
37811950,-0.204,-0.318,0.135,14.017,-6.44,110.18
37811960,-0.279,-0.245,0.095,15.732,14.56,108.57
37811970,-0.327,-0.188,0.079,10.832,30.887,103.407
37811980,-0.22,-0.282,0.088,-1.4,40.827,93.117
37811990,-0.028,-0.38,0.121,-8.715,54.162,78.872
37812000,0.069,-0.573,0.208,-12.985,65.905,57.557
37812010,0.67,-1.111,0.5,-19.477,89.635,19.442
37812020,1.377,-1.734,1.035,1.365,147.91,-26.25
37812030,-0.317,-1.772,1.59,73.5,140.122,-84.805
37812040,-1.624,-1.998,0.79,252.227,-167.335,-206.15
37812050,0.375,0.338,0.734,509.495,-79.327,-166.897
37812060,0.156,1.938,0.125,392.42,-41.3,29.732
37812070,1.209,-0.349,1.326,303.117,-94.115,-48.562
37812080,0.121,-1.469,1.484,332.535,-65.327,-56.717
37812090,1.005,-0.213,0.795,396.13,-39.882,57.05
37812100,1.475,0.508,1.998,341.145,64.977,98.647
37812110,-1.275,1.662,1.4,239.12,147.035,58.992
37812120,-1.557,1.35,0.84,63.332,71.26,58.73
37812120,-0.958,0.24,1.115,-65.502,-31.92,18.06
37812140,0.149,-0.047,1.132,-92.855,-69.247,-12.46
37812140,0.159,-0.306,0.914,-98.245,-57.33,-19.285
37812160,0.287,-0.739,0.745,-69.195,-38.325,-16.73
37812160,0.231,-0.542,0.85,-23.922,-18.112,-0.437
37812170,0.061,-0.115,0.914,16.625,-0.577,20.405
37812180,-0.324,-0.062,0.986,32.742,5.022,25.62
37812190,-0.298,0.113,1.036,35.472,-3.815,15.33
37812200,-0.045,0.089,1.048,24.36,-13.65,2.922
37812210,0.066,0.136,1.043,14.682,-12.145,0.787
37812220,-0.074,0.156,1.046,4.725,-5.792,4.13
37812230,-0.115,0.249,1.08,-5.985,-4.497,4.427
37812240,-0.159,0.208,1.095,-23.835,-7.157,0.297
37812250,-0.198,0.209,1.11,-41.335,-11.48,-7.84
37812260,-0.074,0.161,1.216,-57.557,-15.12,-14.787
37812270,-0.166,0.335,1.359,-86.17,-13.527,-19.617
37812280,0.042,0.352,1.411,-131.932,-14.035,-15.47
37812290,-0.101,0.229,1.425,-185.185,-2.555,-13.195
37812300,-0.145,0.093,1.415,-247.135,-2.187,-9.992
37812310,-0.154,0.141,1.501,-305.9,-7.735,3.395
37812320,-0.264,0.13,1.625,-354.655,-22.662,18.777
37812330,-0.234,-0.495,1.953,-399.017,-36.942,32.48
37812340,-0.845,-1.58,1.988,-419.65,-69.02,41.055
37812350,-1.273,-1.862,1.368,-368.112,-146.282,73.762
37812360,0.487,-1.709,0.353,-261.292,-162.802,146.212
37812370,-0.334,-1.819,0.241,-219.94,-99.837,132.842
37812380,-0.961,-1.998,0.594,-226.082,-71.435,87.01
37812390,0.216,-1.961,0.641,-120.662,-19.862,87.167
37812400,0.653,-1.08,0.41,22.032,64.872,58.275
37812410,-0.132,0.181,-0.424,118.737,112.367,-6.142
37812420,-0.302,0.877,-0.606,90.807,108.255,-24.64
37812430,-0.289,0.912,-0.201,-11.637,74.305,-29.522
37812440,-0.155,0.797,0.202,-58.8,46.935,-29.137
37812450,-0.136,0.678,0.403,-54.915,49.245,-20.282
37812460,-0.258,0.601,0.337,-28.647,52.937,-18.707
37812470,-0.083,0.332,0.136,-2.835,44.415,-15.12
37812480,0.236,0.02,-0.026,14.595,45.027,-15.4
37812490,0.4,-0.258,-0.163,25.935,60.672,-28.91
37812500,0.46,-0.436,-0.341,35.157,74.392,-46.777
37812510,0.474,-0.513,-0.516,31.517,77.7,-65.607
37812510,0.388,-0.616,-0.606,4.55,74.462,-88.707
37812530,0.198,-0.691,-0.566,-33.897,74.83,-108.832
37812530,-0.148,-0.691,-0.43,-71.75,85.82,-116.515
37812550,-0.548,-0.675,-0.241,-103.547,90.3,-107.66
37812550,-0.616,-1.095,-0.127,-126.857,76.142,-79.765
37812570,-0.661,-1.155,1.86,-140.42,74.34,-35.787
37812570,-0.209,-1.031,1.546,18.217,22.067,40.197
37812580,0.684,0.118,0.189,388.342,21.84,109.97
37812590,-0.255,0.87,1.852,240.852,-32.357,72.117
37812600,-0.866,-1.971,1.172,258.282,-249.707,-37.992
37812610,0.186,-0.461,0.578,557.34,-104.807,-33.39
37812620,-0.005,1.9,0.426,511.77,-78.75,10.062
37812630,-0.11,0.016,1.286,438.515,-93.292,-19.337
37812640,0.828,-0.186,1.808,440.037,-76.475,-4.812
37812650,1.129,0.969,1.934,400.277,-22.61,46.462
37812660,0.799,1.364,1.959,246.662,69.37,52.535
37812670,-1.183,1.989,1.334,115.535,92.487,56.052
37812680,-0.734,1.099,1.487,-53.532,28.07,55.93
37812690,-0.541,0.534,1.377,-150.202,-28.875,27.23
37812700,-0.155,-0.132,0.939,-189.63,-47.932,5.53
37812710,-0.539,-0.77,0.58,-183.225,-45.762,-20.965
37812720,-0.062,-1.144,0.42,-144.637,-48.02,-25.27
37812730,0.275,-0.988,0.383,-69.72,-45.482,-7.017
37812740,0.45,-0.906,0.465,11.287,-37.257,17.92
37812750,0.348,-0.59,0.772,83.545,-19.722,44.205
37812760,0.255,-0.136,1.13,119.472,-2.117,67.06
37812770,0.027,0.286,1.261,110.512,16.677,79.52
37812780,-0.281,0.427,1.22,77.437,23.782,72.38
37812790,-0.486,0.467,1.256,37.047,15.89,50.19
37812800,-0.538,0.478,1.228,-8.557,-2.467,21.227
37812810,-0.388,0.28,1.225,-57.75,-22.732,-8.277
37812820,-0.203,0.154,1.249,-93.432,-37.957,-27.562
37812830,-0.064,0.117,1.288,-123.585,-44.66,-34.212
37812830,-0.143,0.101,1.31,-154.105,-50.47,-30.835
37812850,-0.206,-0.035,1.277,-187.075,-63.665,-22.102
37812850,-0.162,-0.164,1.233,-215.635,-82.057,-14.122
37812870,0.059,-0.212,1.125,-236.285,-81.182,-5.582
37812870,0.085,-0.341,1.204,-247.415,-67.76,-0.14
37812890,-0.033,-0.619,1.1,-241.202,-63.997,-6.755
37812890,-0.197,-0.664,1.104,-200.41,-44.887,-17.57
37812910,-0.826,-1.15,1.331,-174.142,-24.92,-30.817
37812910,-1.071,-1.95,1.094,-104.055,-0.927,-33.39
37812920,-0.654,-1.602,0.753,-9.485,65.905,5.95
37812930,-1.13,-0.95,0.487,24.325,114.572,35.77
37812940,-1.066,-1.028,0.517,5.845,106.592,29.837
37812950,-0.736,-1.021,0.399,-1.19,92.855,59.185
37812960,-0.272,-0.704,0.05,1.802,94.167,84.052
37812970,-0.223,-0.455,-0.041,-33.04,100.642,88.305
37812980,-0.206,-0.741,0.151,-97.72,86.817,69.965
37812990,-0.137,-1.103,0.434,-141.33,74.585,42.857
37813000,0.146,-0.775,0.307,-129.5,90.422,22.505
37813010,0.107,0.228,-0.052,-89.67,117.495,10.5
37813020,-0.089,0.844,-0.198,-85.715,102.952,-5.057
37813030,0.149,0.738,-0.145,-98.07,70.945,-11.742
37813040,0.323,0.738,-0.118,-88.252,63.21,-4.882
37813050,0.471,1.262,-0.411,-48.317,72.292,3.22
37813060,0.532,1.702,-0.587,-17.64,65.485,3.395
37813070,0.636,1.051,0.472,-30.87,42.49,-27.58
37813080,1.296,-1.519,1.855,-54.635,-32.305,-87.01
37813090,-1.512,-1.998,0.959,292.547,-359.52,-326.515
37813100,1.017,0.084,1.397,512.925,-226.747,-375.392
37813110,1.631,1.956,-0.625,441.927,-33.862,-19.442
37813120,1.894,-0.499,1.459,375.427,-6.842,-124.215
37813130,0.349,0.109,1.637,389.935,71.207,-50.942
37813140,0.908,0.924,1.642,381.395,68.985,107.642
37813150,-0.259,0.792,1.777,239.522,66.587,148.89
37813160,-0.971,1.075,1.555,158.76,64.277,157.36
37813170,-1.397,0.929,1.334,70.14,45.255,119.787
37813180,-1.374,0.433,1.106,-10.902,8.732,28.805
37813190,-0.775,0.116,0.918,-62.125,-31.027,-49.595
37813200,-0.171,-0.034,0.84,-68.775,-46.2,-87.36
37813210,0.076,-0.373,0.909,-56.35,-40.372,-102.182
37813220,0.395,-0.471,0.969,-42.175,-33.18,-87.867
37813230,0.615,-0.22,0.973,-27.72,-23.537,-48.51
37813240,0.496,-0.134,1.043,-18.025,-11.655,-2.38
37813250,0.074,-0.078,1.069,-15.225,3.22,28.035
37813260,-0.138,-0.059,1.068,-23.537,7.367,36.19
37813260,-0.286,0.061,1.114,-34.912,9.24,27.387
37813280,-0.274,0.143,1.204,-54.932,10.202,11.357
37813280,-0.209,0.207,1.269,-87.29,12.582,-5.39
37813300,-0.115,0.194,1.307,-127.032,14.857,-15.557
37813300,-0.073,0.169,1.307,-171.237,16.45,-19.355
37813320,-0.052,0.138,1.259,-213.85,17.797,-18.567
37813320,-0.024,0.043,1.216,-252.157,20.737,-15.68
37813330,0.07,-0.3,1.201,-282.66,27.86,-12.687
37813340,-0.021,0.122,1.27,-299.897,48.527,12.057
37813350,0.513,-0.253,1.282,-296.782,65.905,-2.1
37813360,0.285,-0.725,1.775,-343.157,84.805,-3.78
37813370,0.1,-1.436,1.998,-335.457,82.792,3.43
37813380,0.007,-1.996,1.983,-235.497,20.58,-0.455
37813390,1.247,-1.919,1.784,-79.87,23.66,-1.032
37813400,1.3,-1.819,0.733,42.577,28.367,-30.555
37813410,0.851,-0.835,0.051,121.87,50.417,-85.925
37813420,-0.43,0.175,-0.409,91.962,41.107,-78.435
37813430,-1.136,1.038,-0.068,12.302,-42.997,-31.465
37813440,-0.456,1.045,0.197,-32.777,-111.51,33.302
37813450,-0.019,1.1,0.38,-13.037,-85.872,65.292
37813460,-0.514,1.258,0.243,41.055,-25.305,62.685
37813470,-0.885,1.286,-0.06,79.66,-8.522,61.862
37813480,-0.656,0.893,-0.221,77.84,-27.352,71.697
37813490,-0.425,0.376,-0.176,68.11,-37.555,71.54
37813500,-0.411,-0.068,-0.105,68.512,-28.455,59.045
37813510,-0.399,-0.383,-0.189,78.242,-14.98,34.667
37813520,-0.438,-0.621,-0.33,79.607,-3.377,-5.81
37813530,-0.573,-0.867,-0.479,69.352,6.615,-58.082
37813540,-0.845,-0.993,-0.627,57.435,14.35,-106.207
37813550,-1.046,-1.036,-0.684,38.692,21.42,-137.812
37813560,-1.081,-1.105,-0.595,11.077,30.38,-147.245
37813570,-0.98,-0.995,-0.47,-8.872,45.097,-134.4
37813580,-0.665,-0.601,0.151,-13.79,68.827,-109.112
37813580,-1.128,-1.905,1.636,-82.985,-119.91,-156.117
37813600,1.6,-1.431,0.215,360.727,-234.955,-355.145
37813600,-1.042,1.985,-0.219,531.422,84.227,-168.227
37813620,1.998,0.146,0.673,382.812,-18.147,-70.682
37813620,0.666,-0.476,1.677,415.222,5.355,-72.257
37813640,1.69,1.389,1.902,424.812,73.167,95.847
37813640,-0.745,0.883,1.97,269.797,161.56,130.375
37813660,-1.998,1.995,1.219,134.557,127.68,110.74
37813660,-1.427,1.272,1.202,-23.642,4.2,42.122
37813670,-0.334,0.111,1.153,-110.862,-74.532,-25.865
37813680,0.553,-1.116,0.925,-120.645,-77.227,-45.5
37813690,0.459,-0.57,0.744,-84.525,-42.262,-23.047
37813700,0.274,-0.383,0.834,-45.972,-14.84,16.362
37813710,-0.027,-0.362,0.855,-16.187,-2.677,39.935
37813720,-0.251,-0.222,0.946,3.78,-1.592,45.01
37813730,-0.217,-0.036,1.044,9.905,-2.835,33.145
37813740,-0.086,0.082,1.101,-0.017,-2.975,17.587
37813750,0.097,0.12,1.164,-15.382,0.332,8.942
37813760,0.141,0.145,1.27,-39.392,7.805,12.232
37813770,0.017,0.23,1.389,-74.865,13.37,19.32
37813780,-0.041,0.225,1.403,-124.827,11.13,26.985
37813790,-0.273,0.167,1.306,-178.587,8.61,30.957
37813800,-0.277,0.082,1.235,-226.205,1.12,27.772
37813810,-0.198,0.085,1.204,-258.702,-1.855,21.98
37813820,-0.176,0.058,1.234,-277.847,4.322,14.455
37813830,-0.008,-0.467,1.364,-295.225,19.46,7.472
37813840,0.151,-0.423,1.657,-304.097,56.595,17.797
37813850,0.156,-1.284,1.998,-264.04,62.335,-17.972
37813860,-0.226,-1.995,1.927,-190.575,-11.707,-33.775
37813870,-0.474,-1.998,1.289,-25.042,-7.07,-1.452
37813880,-0.841,-1.982,1.016,110.04,18.112,58.607
37813890,-0.086,-1.579,-0.937,233.677,-46.637,121.625
37813900,0.597,-0.78,-1.138,194.512,-73.045,120.645
37813910,0.6,-0.983,-0.5,17.15,-103.25,42.227
37813920,0.198,-1.2,0.276,-87.832,-110.337,-40.635
37813930,-0.281,-0.806,0.426,-95.55,-85.522,-60.445
37813940,-0.521,-0.073,0.193,-78.96,-64.645,-59.71
37813950,-0.577,0.265,0.21,-113.312,-35.525,-52.92
37813960,-0.591,0.549,0.417,-133.052,-7,-38.535
37813970,-0.662,0.985,0.348,-104.16,8.942,-15.417
37813980,-0.53,1.297,0.143,-74.777,14.07,9.012
37813990,-0.237,1.378,-0.006,-63.997,25.795,26.267
37814000,-0.153,1.351,-0.137,-54.6,37.327,23.73
37814010,-0.188,1.279,-0.245,-46.462,40.687,6.212
37814010,-0.216,1.104,-0.159,-48.02,30.852,-19.285
37814030,-0.144,0.658,0.163,-59.447,22.522,-45.185
37814030,-0.035,0.324,0.244,-46.112,33.652,-60.812
37814050,-0.14,0.564,0.042,-0.262,55.982,-59.657
37814050,0.602,-0.565,-0.063,17.482,91.647,-46.322
37814070,0.538,-1.786,1.969,-3.622,176.995,-25.847
37814070,-1.451,-1.967,1.125,375.952,-242.62,-430.972
37814080,-0.069,1.719,-0.382,566.527,34.895,-161.98
37814090,1.998,1.812,0.05,434.175,100.065,145.53
37814100,-0.215,-1.581,1.897,261.607,29.872,-44.415
37814110,0.034,0.147,1.645,324.922,36.785,109.165
37814120,-0.157,1.668,1.492,289.8,54.057,221.34
37814130,-1.149,0.406,1.755,135.555,39.27,165.567
37814140,-1.259,0.947,1.329,78.277,20.422,126.402
37814150,-1.059,0.376,1.226,-9.205,-11.865,32.27
37814160,-0.376,0.082,1.057,-61.687,-45.517,-31.587
37814170,0.196,-0.221,0.904,-73.815,-50.207,-52.972
37814180,0.403,-0.426,0.821,-54.635,-33.215,-48.44
37814190,0.427,-0.499,0.85,-26.705,-16.73,-22.785
37814200,0.399,-0.332,0.918,3.185,-0.577,5.967
37814210,0.155,-0.219,1.007,21.857,17.465,25.567
37814220,0.006,-0.039,1.096,24.815,26.565,36.942
37814230,-0.114,0.119,1.164,12.827,34.142,36.662
37814240,-0.22,0.202,1.251,-13.737,38.57,24.36
37814250,-0.199,0.24,1.343,-54.285,40.285,11.322
37814260,-0.058,0.241,1.431,-107.607,33.565,6.842
37814270,0.022,0.236,1.441,-169.522,33.757,8.785
37814280,-0.014,0.172,1.384,-234.132,32.182,18.007
37814290,-0.033,0.167,1.354,-295.592,32.655,36.855
37814300,-0.093,0.089,1.24,-336.945,31.465,51.152
37814310,0.031,-0.439,1.325,-379.925,32.252,61.04
37814320,-0.245,-0.175,1.415,-413.017,54.092,92.365
37814330,-0.272,-0.987,1.917,-403.06,48.3,51.432
37814330,-0.649,-1.917,1.988,-367.395,-3.237,38.36
37814350,-0.229,-1.176,1.785,-202.247,-44.677,40.197
37814350,-0.986,-0.999,1.936,-76.597,-5.127,85.82
37814370,-0.496,-1.078,1.016,68.407,-51.1,145.81
37814370,0.757,0.059,-0.521,210.105,-61.74,224.805
37814390,1.314,0.309,-0.875,134.627,-73.29,194.635
37814390,1.349,-0.002,-0.128,2.17,-64.19,95.305
37814410,0.845,0.032,0.392,-20.072,-53.865,-16.187
37814410,0.208,0.247,0.427,9.8,-45.797,-45.552
37814420,0.095,0.531,0.21,23.012,-44.082,-53.602
37814430,-0.11,0.551,0.085,27.072,-40.915,-60.287
37814440,-0.264,0.471,0.03,30.082,-37.992,-58.835
37814450,-0.309,0.319,-0.08,34.02,-36.802,-51.835
37814460,-0.253,0.171,-0.198,35.105,-32.217,-50.732
37814470,-0.218,-0.056,-0.216,28.84,-24.202,-60.83
37814480,-0.262,-0.263,-0.251,16.66,-20.58,-69.16
37814490,-0.36,-0.389,-0.38,4.322,-38.64,-81.217
37814500,-0.465,-0.547,-0.449,-19.477,-75.775,-99.872
37814510,-0.553,-0.728,-0.467,-50.382,-106.452,-121.117
37814520,-0.754,-0.812,-0.543,-70.192,-120.102,-145.687
37814530,-1.115,-0.735,-0.627,-84.822,-120.75,-168.875
37814540,-1.584,-0.828,-0.687,-113.12,-113.277,-170.905
37814550,-1.937,-1.162,0.777,-168.577,-98.122,-161.507
37814560,0.878,-1.926,1.998,-49.052,109.865,-74.322
37814570,-0.886,-1.242,-1.726,485.31,-65.59,-300.265
37814580,-0.701,1.997,-0.101,501.112,61.407,-321.282
37814590,1.994,0.752,1.566,197.277,104.737,-26.74
37814600,1.704,-0.098,0.335,385.42,69.51,-76.405
37814610,1.887,-0.313,1.059,427.752,186.952,10.097
37814620,0.426,0.632,1.556,333.077,245.332,98.787
37814630,-0.55,0.17,1.947,322.525,234.797,178.955
37814640,-1.792,1.018,1.823,226.082,190.172,158.515
37814650,-1.731,1.833,1.247,108.92,91.77,109.882
37814660,-1.421,0.394,1.139,-19.022,-4.882,22.54
37814670,-0.183,-0.032,1.019,-67.165,-59.885,-41.177
37814680,0.423,-0.373,0.936,-70.945,-64.837,-50.995
37814690,0.562,-0.361,0.886,-54.285,-37.975,-27.002
37814700,0.184,-0.252,0.911,-31.692,-8.312,0.245
37814710,-0.045,-0.216,0.95,-14.385,5.862,15.33
37814720,-0.161,-0.002,1.033,-5.022,5.442,19.635
37814730,-0.186,0.028,1.071,-10.342,0.595,15.417
37814740,-0.09,0.026,1.088,-23.975,-3.71,7.42
37814750,0.003,0.113,1.166,-38.972,-3.185,4.252
37814760,-0.027,0.17,1.231,-62.825,-1.137,5.582
37814760,-0.054,0.118,1.294,-94.412,0.472,7.612
37814780,-0.201,0.148,1.301,-130.427,-1.382,6.16
37814780,-0.15,0.107,1.259,-170.555,-4.042,4.795
37814800,-0.087,0.045,1.244,-212.38,-4.795,6.335
37814800,0.056,-0.056,1.211,-250.092,-3.832,11.112
37814820,0.151,-0.053,1.247,-280.752,3.832,20.195
37814820,0.168,-0.313,1.271,-301.122,20.02,36.627
37814830,0.406,-0.472,1.3,-301.595,44.642,61.74
37814840,0.412,-1.087,1.527,-303.905,49.262,32.9
37814850,-0.191,-1.592,1.82,-300.142,36.05,30.975
37814860,0.001,-1.819,1.915,-232.4,-14.105,30.747
37814870,0.249,-1.686,0.988,-101.955,-79.852,65.94
37814880,0.032,-1.998,0.649,-4.462,-78.977,95.585
37814890,0.088,-1.89,0.145,73.307,-77.332,109.445
37814900,0.366,-1.188,0.004,159.477,-77.84,117.67
37814910,0.335,-0.922,-0.334,157.762,-75.827,100.905
37814920,0.071,-0.747,-0.551,138.355,-61.565,59.342
37814930,-0.337,-0.388,-0.773,110.337,-46.48,33.127
37814940,-0.8,0.133,-0.716,52.552,-46.445,14.42
37814950,-0.748,0.188,-0.519,-35.262,-47.11,-3.36
37814960,-0.655,-0.003,-0.064,-106.61,-23.52,0.07
37814970,-0.681,0.021,0.276,-119.14,8.855,10.027
37814980,-0.557,0.31,0.345,-88.655,36.032,28.997
37814990,-0.343,0.568,0.212,-64.767,55.86,53.585
37815000,-0.143,0.712,0.102,-58.292,67.585,69.667
37815010,-0.017,0.816,-0.008,-62.457,71.207,72.87
37815020,0.199,0.779,-0.121,-77.472,65.922,63.875
37815030,0.26,0.717,-0.212,-99.487,49.787,38.92
37815040,0.289,0.756,-0.291,-119.91,18.865,-2.222
37815050,0.424,0.764,-0.853,-143.202,-21.175,-41.527
37815060,0.034,-0.193,0.828,-177.432,1.575,-81.462
37815070,-1.466,-1.866,1.805,-250.355,-71.277,-101.64
37815080,0.358,-1.998,-0.928,381.902,-334.425,-185.255
37815080,-0.32,1.384,0.115,508.532,-12.95,-71.61
37815100,0.988,1.627,-0.1,381.762,-122.027,-42.857
37815100,1.997,-1.499,1.279,374.867,-33.565,-25.76
37815120,1.279,-0.635,1.249,475.842,38.185,18.917
37815120,0.771,1.193,1.366,449.155,81.182,105
37815140,-0.142,0.715,1.896,320.372,108.675,150.22
37815140,-1.25,1.076,1.895,231.857,106.802,151.287
37815160,-1.45,1.534,1.422,121.712,65.292,120.61
37815160,-1.27,0.698,1.237,-5.407,0.472,32.165
37815170,-0.604,0.097,1.052,-74.322,-50.382,-35.7
37815180,0.104,-0.308,0.876,-88.725,-74.602,-58.345
37815190,0.439,-0.453,0.858,-68.267,-61.442,-53.672
37815200,0.451,-0.377,0.875,-38.5,-32.532,-32.06
37815210,0.353,-0.346,0.908,-15.61,-8.242,-7.385
37815220,0.125,-0.198,0.965,4.392,12.67,11.987
37815230,-0.151,-0.078,1.019,13.86,23.1,19.285
37815240,-0.234,0.019,1.075,10.272,21.017,13.615
37815250,-0.183,0.141,1.189,-5.565,16.712,0.805
37815260,-0.011,0.212,1.331,-34.667,18.69,-10.622
37815270,0.07,0.247,1.453,-76.195,31.71,-18.672
37815280,-0.006,0.243,1.444,-128.66,52.412,-22.697
37815290,-0.136,0.148,1.363,-189.227,61.005,-25.182
37815300,-0.151,0.018,1.303,-243.477,55.055,-27.807
37815310,-0.046,-0.061,1.415,-282.817,51.117,-32.865
37815320,0.026,-0.117,1.561,-309.767,62.44,-39.27
37815330,0.047,-0.377,1.584,-322.927,73.412,-46.287
37815340,-0.261,-1.257,1.168,-323.995,64.872,-58.082
37815350,-0.344,-1.882,1.238,-304.885,76.405,-49.402
37815360,-0.121,-1.998,0.057,-238.35,90.475,-80.727
37815370,0.901,-1.998,0.346,-233.45,151.917,-143.08
37815380,-0.09,-1.998,1.107,-227.955,135.065,-235.585
37815390,-0.991,-1.679,0.685,-111.965,47.075,-297.465
37815400,-0.978,-0.396,0.702,-33.897,8.837,-229.215
37815410,-0.806,0.438,0.699,-44.1,-21.35,-149.642
37815420,-0.788,0.946,0.613,-23.94,-39.375,-76.545
37815430,-0.73,1.159,0.584,9.327,-23.625,23.992
37815440,-0.577,1.029,0.542,40.162,2.87,116.567
37815450,-0.467,0.939,0.393,73.71,24.167,181.335
37815460,-0.237,1.16,0.053,118.335,34.79,228.882
37815470,-0.03,1.515,-0.437,159.127,36.645,263.462
37815480,0.078,1.606,-0.77,160.895,24.832,270.06
37815490,0.389,1.399,-0.884,122.85,5.845,251.282
37815500,0.822,1.052,-0.562,56.612,0.227,218.26
37815510,0.832,0.569,0.073,-11.515,-2.45,160.335
37815510,0.485,0.112,0.617,-25.095,-44.625,81.83
37815520,0.424,-0.158,0.59,14.07,-102.305,5.88
37815530,0.453,-0.334,0.065,61.442,-127.347,-34.65
37815540,0.221,-0.308,-0.489,76.702,-124.232,-88.742
37815550,-0.45,-0.409,-0.593,44.59,-126.595,-135.625
37815560,-0.444,-1.128,-0.015,-2.467,-122.377,-140.98
37815570,-1.698,-1.998,1.998,-35.437,-177.345,-182.245
37815580,0.88,-1.405,-0.365,330.627,-245.507,-227.57
37815590,1.774,1.997,-0.706,562.432,14.437,31.255
37815600,1.762,1.709,-0.072,444.57,-55.982,-13.457
37815610,1.504,-1.823,1.964,308.857,-14.297,-80.395
37815620,0.774,0.871,1.984,489.055,125.405,65.345
37815630,-0.589,1.423,1.948,373.572,180.25,68.39
37815640,-1.967,1.997,0.918,125.79,140.77,62.65
37815650,-1.663,1.137,1.075,-21.175,12.792,34.317
37815660,-0.346,-0.231,1.203,-127.942,-70.087,-19.565
37815670,0.341,-0.435,0.877,-119.892,-78.89,-39.427
37815680,0.387,-0.738,0.86,-91.472,-53.55,-28.122
37815690,0.394,-0.477,0.804,-46.777,-24.325,-2.94
37815700,0.157,-0.458,0.804,-7.315,-1.68,24.482
37815710,-0.189,-0.22,0.94,25.235,7.367,41.667
37815720,-0.208,0.075,1.071,33.967,4.375,39.952
37815730,-0.231,0.247,1.096,19.862,-0.49,26.197
37815740,-0.057,0.185,1.116,-1.767,-6.352,14.7
37815750,0.045,0.219,1.193,-23.432,-4.497,10.71
37815760,0.106,0.239,1.254,-51.45,1.382,12.792
37815770,-0.01,0.208,1.251,-80.465,8.96,18.392
37815780,-0.114,0.123,1.291,-112.735,17.36,17.045
37815790,-0.212,0.178,1.241,-150.57,25.917,9.852
37815800,-0.146,0.079,1.205,-186.812,32.392,0.717
37815810,-0.053,0.013,1.204,-220.097,35.805,-8.995
37815820,0.119,0.03,1.303,-248.01,41.177,-4.865
37815830,0.276,-0.029,1.432,-282.327,61.057,14.787
37815830,0.339,-0.359,1.339,-312.357,84.84,41.632
37815850,0.301,-1.068,1.329,-344.085,87.902,74.375
37815850,0.343,-0.736,1.562,-374.517,71.417,124.757
37815870,0,-1.57,1.21,-337.645,14.77,150.972
37815870,-0.479,-1.795,1.151,-322.017,-56.035,145.162
37815890,-0.065,-1.707,0.741,-278.547,-108.08,172.427
37815890,0.334,-1.678,0.769,-211.61,-87.885,159.652
37815910,0.406,-1.496,1.377,-185.832,-27.265,119.945
37815910,0.788,-0.881,1.161,-32.532,4.55,64.207
37815920,0.627,0.175,0.599,102.095,42.7,-10.22
37815930,0.281,0.902,0.359,124.897,58.152,-81.567
37815940,-0.005,1.176,0.36,104.475,47.425,-115.745
37815950,-0.018,1.282,0.308,108.167,31.622,-119.892
37815960,-0.113,1.308,0.303,114.082,17.64,-111.58
37815970,-0.175,1.119,0.323,119.28,11.2,-95.305
37815980,-0.223,0.852,0.178,141.872,0.367,-77.385
37815990,-0.253,0.487,-0.129,166.897,-20.422,-67.252
37816000,-0.242,0.121,-0.464,161.105,-37.047,-62.457
37816010,-0.221,-0.172,-0.58,126.7,-46.655,-71.452
37816020,-0.399,-0.539,-0.58,82.18,-55.825,-88.865
37816030,-0.69,-0.746,-0.524,41.562,-65.24,-102.34
37816040,-0.979,-0.89,-0.477,10.867,-75.565,-105.945
37816050,-1.176,-1.034,-0.486,-10.815,-84.455,-96.967
37816060,-1.26,-1.065,-0.524,-17.132,-93.8,-80.5
37816070,-1.263,-1.19,-0.63,-21.087,-100.047,-58.17
37816080,-0.013,-1.379,0.538,-32.27,-65.03,-60.252
37816090,-1.209,-1.998,1.998,-94.587,-30.24,-71.102
37816100,1.3,-1.811,-1.374,392.385,-18.602,-162.33
37816110,-1.672,1.862,0.402,566.125,111.422,-34.352
37816120,1.569,1.612,-0.263,450.975,-28.21,23.992
37816130,1.698,-1.498,1.771,359.537,9.537,-21.42
37816140,0.328,0.288,1.998,415.852,145.967,-9.17
37816150,-1.047,1.929,1.059,277.375,204.855,64.592
37816160,-1.875,1.457,0.729,46.952,111.177,76.895
37816170,-1.424,0.098,1.101,-100.695,-37.73,22.785
37816180,0.25,-0.793,0.989,-89.25,-93.362,-25.917
37816190,0.388,-0.695,0.977,-69.895,-70.49,-30.8
37816190,0.648,-0.369,0.915,-29.907,-35.192,-5.897
37816210,0.02,-0.274,0.957,-2.975,-0.367,24.185
37816210,-0.244,-0.13,1.002,15.347,10.167,35.717
37816230,-0.255,0.034,1.014,17.272,4.532,25.147
37816230,-0.082,0.056,1.033,10.955,-3.955,13.44
37816250,-0.052,0.121,1.035,1.89,-4.34,10.325
37816250,0.029,0.04,1.045,-11.357,-1.627,11.55
37816260,-0.066,0.119,1.059,-21.962,4.725,12.81
37816270,-0.093,0.103,1.118,-34.352,5.635,10.167
37816280,-0.093,0.174,1.231,-55.737,5.46,3.482
37816290,-0.026,0.241,1.401,-83.737,2.87,-2.012
37816300,0.038,0.203,1.517,-132.527,6.37,-6.177
37816310,0.039,0.167,1.501,-185.132,25.935,-8.61
37816320,0.045,0.221,1.439,-240.59,47.512,-5.197
37816330,0.125,0.305,1.417,-287.612,55.615,-0.385
37816340,0.269,0.1,1.427,-325.517,59.307,2.362
37816350,0.09,-0.297,1.512,-348.495,66.447,0.21
37816360,-0.18,-1.01,1.561,-356.772,46.777,-14.14
37816370,-0.655,-1.234,1.147,-330.907,1.505,-5.617
37816380,-0.49,-0.637,1.201,-262.325,-38.237,-4.777
37816390,-0.095,-1.186,0.327,-260.242,-39.13,1.417
37816400,0.453,-1.527,0.291,-233.24,23.992,-17.097
37816410,0.054,-1.25,0.35,-225.015,78.365,-79.642
37816420,-0.172,-0.884,0.623,-195.352,127.207,-128.257
37816430,-0.293,-0.486,1.18,-143.132,191.817,-128.572
37816440,-0.914,0.128,1.262,-40.355,218.347,-113.05
37816450,-1.539,0.662,0.966,72.765,193.112,-61.705
37816460,-1.53,0.778,0.758,137.532,138.967,27.702
37816470,-1.036,0.424,0.416,187.46,85.75,127.505
37816480,-0.564,0.212,-0.064,233.975,52.605,193.025
37816490,-0.192,0.079,-0.581,263.445,31.99,224.98
37816500,0.193,0.175,-1,265.912,20.055,230.632
37816510,0.528,0.218,-1.296,228.847,11.812,205.555
37816520,0.788,0.157,-1.128,138.39,7.752,154.28
37816530,0.857,-0.142,-0.583,21.227,6.947,76.265
37816540,0.645,-0.717,-0.003,-42.49,-4.095,-11.515
37816550,0.285,-0.9,0.223,-33.565,-22.225,-81.987
37816560,0.016,-0.744,0.044,4.27,-41.632,-117.81
37816570,-0.049,-0.497,-0.324,18.987,-57.977,-138.092
37816580,-0.084,-0.29,-0.727,15.12,-52.255,-147.035
37816580,-0.856,0.196,0.75,-8.645,-26.407,-141.925
37816600,-1.998,-1.853,1.3,-55.615,-391.755,-153.352
37816600,1.678,-1.117,0.714,460.337,-380.887,-147.315
37816620,0.738,1.995,-1.056,523.862,7.14,121.87
37816620,0.882,1.791,0.413,551.127,-133.595,-66.57
37816640,1.964,-1.083,1.998,357.787,-120.942,-50.54
37816640,0.458,0.764,1.804,340.497,104.09,6.86
37816660,-1.513,1.926,0.52,169.715,137.042,96.967
37816660,-1.521,0.908,1.319,-90.667,36.942,104.755
37816670,-0.68,-0.201,1.088,-133.63,-43.33,32.637
37816680,-0.077,-1.044,0.891,-142.17,-59.535,-13.002
37816690,-0.029,-0.483,0.781,-92.575,-50.33,-44.17
37816700,0.613,-0.587,0.838,-57.767,-41.055,-34.352
37816710,0.429,-0.526,0.742,-14.017,-12.74,-8.05
37816720,-0.066,-0.395,0.865,30.94,5.81,22.697
37816730,-0.125,-0.071,1.035,53.025,9.362,26.355
37816740,-0.13,0.243,1.146,48.877,10.587,16.537
37816750,-0.092,0.269,1.137,25.13,12.145,5.687
37816760,-0.213,0.207,1.109,1.435,12.267,-0.665
37816770,-0.035,0.131,1.141,-19.372,11.025,-8.172
37816780,-0.111,0.139,1.157,-36.75,17.587,-14.77
37816790,-0.169,0.159,1.193,-56.437,22.26,-23.187
37816800,-0.124,0.195,1.251,-82.005,26.372,-32.27
37816810,-0.105,0.244,1.294,-116.707,34.282,-37.8
37816820,-0.114,0.168,1.256,-162.225,41.982,-40.25
37816830,-0.081,0.043,1.181,-206.342,43.155,-42.297
37816840,-0.074,-0.008,1.172,-237.597,43.33,-38.517
37816850,-0.029,-0.023,1.203,-260.365,41.545,-27.335
37816860,0.072,-0.132,1.262,-283.675,45.22,-9.275
37816870,0.139,-0.572,1.254,-292.25,62.807,10.062
37816880,0.022,-0.283,1.4,-273.56,103.617,41.702
37816890,0.663,-0.848,1.568,-251.055,138.127,5.337
37816900,0.145,-1.477,1.976,-244.51,152.81,-0.84
37816910,-0.618,-1.905,1.968,-132.79,138.267,-25.812
37816920,-0.852,-1.972,1.994,33.687,90.947,-17.08
37816920,0.126,-1.639,0.931,197.365,-6.23,51.275
37816940,0.589,-0.803,-0.291,302.19,-55.44,57.33
37816940,0.29,-0.309,-0.464,255.377,-33.652,18.97
37816960,-0.162,-0.364,-0.631,199.377,-7.542,-5.337
37816960,-0.526,0.046,-0.895,192.097,19.075,-3.36
37816980,-0.923,0.612,-0.991,150.202,37.555,20.422
37816980,-1.016,0.728,-0.825,62.737,44.31,57.207
37817000,-0.811,0.452,-0.42,-27.352,44.17,96.162
37817000,-0.481,0.077,0.038,-59.797,44.485,127.435
37817010,-0.187,-0.025,0.249,-39.025,43.505,141.942
37817020,0.006,0.045,0.285,-19.355,40.285,139.405
37817030,0.172,-0.13,0.265,-25.2,31.08,125.51
37817040,0.394,-0.356,0.174,-34.177,1.732,98.105
37817050,0.702,-0.45,-0.042,-41.492,-29.155,48.16
37817060,0.755,-0.368,-0.209,-49.122,-44.905,-23.887
37817070,0.609,-0.212,-0.232,-57.995,-53.655,-110.81
37817080,0.226,-0.037,-0.133,-69.247,-52.517,-162.732
37817090,-0.03,0.296,-0.129,-67.322,-46.13,-181.86
37817100,-0.4,1.356,0.954,-65.275,-60.445,-146.195
37817110,-1.997,-1.381,-0.046,42.822,-427.787,-135.257
37817120,1.83,-1.753,1.338,485.135,-282.537,-29.715
37817130,0.772,1.649,0.414,468.09,-29.33,206.797
37817140,-0.435,0.744,1.246,512.05,-119.647,-47.057
37817150,1.353,-0.793,1.931,234.167,76.842,37.502
37817160,-1.99,1.955,-0.741,263.55,161.822,27.93
37817170,0.321,0.575,1.226,-85.487,-28.157,110.635
37817180,-1.692,-0.782,1.334,-172.865,-82.39,35.332
37817190,0.802,-0.532,0.972,-114.572,-107.292,29.085
37817200,0.019,-0.769,0.975,-105.21,-81.567,-4.235
37817210,0.652,-0.397,0.923,-67.935,-52.325,13.387
37817220,0.199,-0.333,0.835,-34.055,-22.61,30.922
37817230,-0.173,-0.432,0.879,-5.932,-9.66,47.495
37817240,-0.045,-0.173,0.971,16.555,-9.87,43.82
37817250,0.063,0.134,1.125,20.422,-6.352,36.557
37817260,0.015,0.264,1.139,0.087,-1.47,35.945
37817270,0.065,0.195,1.125,-28.315,-2.415,44.45
37817280,0.014,0.069,1.155,-49.052,-4.742,53.445
37817290,0.052,0.208,1.23,-68.757,-3.167,56.682
37817300,-0.122,0.179,1.301,-99.575,2.467,53.497
37817310,-0.16,0.108,1.322,-140.927,6.755,44.485
37817320,-0.175,0.034,1.232,-186.952,3.762,42.525
37817330,-0.116,-0.028,1.158,-233.887,-5.53,50.837
37817330,-0.04,-0.073,1.115,-270.585,-18.655,66.115
37817350,-0.109,-0.06,1.045,-291.427,-32.2,79.642
37817350,-0.152,-0.347,1.093,-305.112,-48.755,94.99
37817370,-0.333,-0.331,1.473,-304.167,-63.175,120.505
37817370,-0.712,-1.382,1.924,-306.337,-137.007,98
37817390,-0.986,-1.994,1.997,-239.4,-236.512,102.987
37817390,-1.639,-1.082,1.982,-40.495,-240.537,143.745
37817410,-1.997,-1.231,1.716,184.677,-143.692,280.087
37817410,-0.681,-1.441,0.496,306.617,-17.412,407.697
37817420,0.182,-0.86,0.034,377.265,71.557,419.125
37817430,-0.027,-0.533,-0.418,381.062,101.01,349.3
37817440,0.079,-0.46,-0.753,331.712,115.972,264.967
37817450,0.277,-0.298,-1.099,262.552,129.797,192.237
37817460,-0.002,-0.012,-1.03,156.765,123.83,123.112
37817470,-0.167,-0.144,-0.431,24.185,67.252,40.162
37817480,0.113,-0.66,0.054,-69.825,15.732,-32.585
37817490,0.209,-0.653,0.122,-62.51,14.91,-85.925
37817500,-0.187,-0.218,0.024,-26.425,34.86,-152.967
37817510,-0.616,-0.105,0.016,-39.392,36.4,-216.807
37817520,-0.719,-0.193,0.074,-77.525,18.952,-245.822
37817530,-0.576,-0.083,0.109,-101.01,3.027,-245.577
37817540,-0.525,0.163,0.212,-116.41,-1.26,-226.082
37817550,-0.492,0.301,0.275,-132.282,-2.327,-196.315
37817560,-0.337,0.628,0.213,-128.292,5.442,-151.2
37817570,-0.335,1.504,-0.012,-113.47,17.92,-92.505
37817580,-0.392,1.47,1.982,-159.197,-74.165,-57.102
37817590,1.998,-1.991,1.69,76.09,-388.727,-217.087
37817600,-0.628,-1.923,0.813,530.127,30.467,-316.277
37817610,0.061,1.487,0.313,425.652,-30.642,-121.852
37817620,1.962,0.221,1.052,403.252,30.94,106.662
37817630,-0.492,0.061,1.998,394.992,210.945,87.692
37817640,-1.91,1.667,1.165,277.375,238.577,127.995
37817650,-1.453,1.69,0.552,60.34,79.572,89.565
37817660,-1.022,0.059,1.318,-136.552,-60.042,-18.042
37817670,0.652,-0.65,0.986,-134.137,-82.617,-40.547
37817670,0.462,-1.052,0.841,-84.017,-42.455,-36.697
37817690,0.425,-0.449,0.801,-23.625,-2.555,4.497
37817690,0.057,-0.368,0.875,17.062,22.26,30.66
37817710,-0.214,-0.148,0.989,46.112,33.46,41.247
37817710,-0.317,0.173,1.044,55.877,32.83,32.025
37817730,-0.313,0.204,1.067,39.55,24.482,12.967
37817730,-0.079,0.263,1.096,20.825,16.642,0.525
37817750,0.064,0.205,1.139,0.332,20.632,-4.235
37817750,0.35,0.181,1.326,-25.917,36.207,-2.03
37817760,0.318,0.157,1.45,-57.365,54.092,13.142
37817770,0.402,0.069,1.472,-109.97,65.187,40.932
37817780,0.185,0.066,1.387,-163.31,88.9,75.057
37817790,0.05,0.057,1.31,-212.59,101.675,94.272
37817800,-0.044,0.199,1.267,-245.192,108.762,99.19
37817810,-0.19,-0.096,1.257,-263.427,102.025,102.41
37817820,-0.156,-0.195,1.406,-292.092,93.747,105.63
37817830,0.026,-0.271,1.615,-295.19,88.13,108.185
37817840,-0.518,-0.97,1.944,-306.915,80.045,91.787
37817850,0.434,-1.998,1.737,-279.23,-17.955,58.1
37817860,-0.096,-1.998,1.595,-166.862,-32.042,74.952
37817870,0.792,-1.998,1.196,-33.46,-51.38,14.157
37817880,0.219,-1.559,0.424,99.575,-42.14,13.02
37817890,-0.144,-0.595,-0.423,171.605,-50.155,-2.31
37817900,-0.586,-0.165,-0.425,98.35,-63.49,0.612
37817910,-0.541,-0.268,-0.362,13.597,-103.232,-7.892
37817920,-0.256,-0.13,-0.262,-25.427,-130.042,-14.577
37817930,0.05,0.034,-0.061,-62.107,-120.295,-20.457
37817940,0.266,0.029,0.195,-101.692,-88.707,-39.865
37817950,0.193,0.039,0.376,-108.5,-58.642,-66.307
37817960,0.013,0.309,0.407,-79.66,-50.242,-81.97
37817970,-0.134,0.688,0.308,-56.332,-64.855,-80.78
37817980,-0.256,0.931,0.106,-53.2,-94.412,-69.982
37817990,-0.33,1.024,-0.102,-57.312,-122.097,-54.547
37818000,-0.376,1.045,-0.215,-67.077,-137.2,-36.96
37818010,-0.472,1.003,-0.203,-80.71,-138.11,-21.157
37818020,-0.593,0.947,-0.101,-92.487,-136.605,-11.235
37818030,-0.6,1.007,-0.036,-93.432,-133.21,-3.132
37818040,-0.595,1.174,-0.082,-82.407,-130.095,2.537
37818050,-0.643,1.223,-0.17,-74.462,-134.33,0.647
37818060,-0.195,-0.343,-0.208,-69.387,-127.33,-12.215
37818070,-1.217,-1.858,1.729,-84.892,112.42,-33.145
37818080,-1.689,-0.599,-0.469,471.152,131.775,-188.772
37818080,-0.217,1.997,-1.236,555.082,102.34,-47.075
37818100,1.998,1.089,0.666,398.65,99.767,31.797
37818100,-0.89,-1.901,1.986,362.81,115.097,-76.895
37818120,0.821,1.181,1.996,451.097,91.507,67.655
37818120,-0.568,1.982,1.96,275.73,152.407,95.2
37818140,-1.69,1.854,1.464,85.872,117.775,71.785
37818140,-1.312,0.833,1.25,-35.84,22.697,49.77
37818160,-0.726,0.073,1.115,-116.41,-39.375,-18.532
37818160,0.079,-0.401,0.93,-118.947,-58.957,-57.085
37818170,0.389,-0.56,0.812,-98.297,-37.572,-63.21
37818180,0.384,-0.513,0.792,-64.96,-8.067,-46.62
37818190,0.22,-0.527,0.73,-33.845,5.11,-18.742
37818200,0.126,-0.393,0.853,1.96,12.022,4.41
37818210,0.04,-0.124,1.017,23.467,19.845,16.467
37818220,-0.156,0.04,1.121,21.98,26.11,15.505
37818230,-0.18,0.121,1.136,8.855,30.117,4.9
37818240,-0.198,0.174,1.189,-10.85,32.882,-9.922
37818250,-0.061,0.193,1.288,-36.68,38.815,-22.627
37818260,-0.025,0.27,1.388,-72.117,55.895,-32.427
37818270,-0.096,0.284,1.377,-116.305,72.275,-38.57
37818280,-0.194,0.259,1.33,-164.097,81.025,-45.15
37818290,-0.31,0.193,1.291,-209.125,82.967,-54.95
37818300,-0.255,0.134,1.246,-247.362,76.51,-61.127
37818310,-0.256,0.102,1.209,-278.145,65.887,-59.22
37818320,0.024,-0.14,1.252,-310.747,57.68,-48.895
37818330,-0.011,-0.597,1.221,-337.907,52.902,-32.97
37818340,-0.525,-0.514,1.159,-364.927,40.827,-1.557
37818350,-0.649,-1.018,1.696,-372.05,-26.652,22.925
37818360,-0.327,-0.788,1.669,-341.775,-109.917,57.382
37818370,-0.07,-0.831,1.34,-268.922,-138.512,103.005
37818380,0.118,-1.262,1.234,-210.857,-141.33,99.33
37818390,0.187,-1.143,1.607,-134.47,-92.4,92.12
37818400,-0.01,-0.497,1.062,5.635,-67.06,80.552
37818410,0.161,0.326,0.475,114.502,-33.617,60.865
37818420,0.092,0.723,0.186,123.97,0.35,36.697
37818420,-0.064,0.924,-0.067,126.665,14.927,5.757
37818440,-0.07,1.096,-0.312,130.235,25.48,-1.522
37818440,-0.141,1.169,-0.239,98.7,35.455,-0.542
37818460,-0.226,0.816,0.098,49.297,29.715,-0.14
37818460,-0.145,0.331,0.442,41.912,13.562,1.137
37818480,0.087,0.035,0.482,82.267,8.732,2.31
37818480,0.185,-0.093,0.15,138.092,11.742,-15.627
37818500,0.136,-0.132,-0.303,167.965,9.905,-46.27
37818500,0.016,-0.286,-0.526,147.647,6.597,-77.892
37818510,-0.158,-0.685,-0.46,106.89,-0.122,-107.065
37818520,-0.396,-0.897,-0.392,71.96,-8.837,-127.242
37818530,-0.624,-0.987,-0.4,54.495,-15.19,-124.6
37818540,-0.672,-1.044,-0.457,35.962,-16.38,-101.447
37818550,-0.562,-1.076,-0.5,14.192,-12.775,-72.765
37818560,-1.252,-1.03,1.138,-26.285,-29.995,-41.282
37818570,-0.17,-1.998,0.007,47.652,-313.442,-231.14
37818580,-0.202,0.484,1.396,527.415,0.962,-227.797
37818590,0.358,1.997,-0.666,517.37,11.13,-29.452
37818600,1.609,0.406,1.168,262.132,-7.927,-14.612
37818610,0.147,-1.85,1.968,279.265,-11.042,-63.49
37818620,1.379,1.044,1.498,381.01,70.997,89.897
37818630,-0.21,1.096,1.962,264.11,136.202,96.18
37818640,-1.434,1.814,1.355,115.605,121.17,63.997
37818650,-1.125,1.402,1.29,-8.242,42.35,32.357
37818660,-0.527,0.406,1.406,-129.727,-22.4,-24.64
37818670,-0.055,-0.172,1.101,-164.587,-30.8,-61.652
37818680,0.121,-0.532,0.831,-163.485,-6.072,-70.21
37818690,0.114,-0.639,0.608,-129.097,14.367,-56.42
37818700,-0.007,-0.702,0.628,-86.24,11.655,-33.337
37818710,-0.006,-0.517,0.726,-43.732,2.572,-6.947
37818720,-0.073,-0.288,0.809,-10.937,-3.57,12.442
37818730,-0.178,-0.234,0.899,5.145,-7.735,20.807
37818740,-0.184,-0.197,0.92,14,-12.425,23.065
37818750,-0.141,-0.166,0.934,20.265,-16.957,20.58
37818760,-0.051,-0.074,1.021,25.217,-19.022,20.072
37818770,-0.056,0.046,1.133,22.767,-16.24,20.965
37818780,-0.036,0.161,1.25,6.09,-10.5,17.955
37818790,-0.098,0.249,1.281,-22.225,-0.577,9.747
37818800,-0.138,0.176,1.295,-58.625,7.07,-0.735
37818810,-0.126,0.132,1.301,-97.65,13.685,-6.597
37818820,-0.129,0.14,1.288,-139.93,16.292,-7.77
37818830,-0.043,0.099,1.248,-180.547,16.87,-4.707
37818830,0.083,0.02,1.237,-216.09,23.59,1.697
37818850,0.152,-0.023,1.262,-243.512,38.657,10.342
37818850,0.022,-0.131,1.222,-265.23,51.082,19.687
37818870,-0.078,-0.508,1.244,-279.492,51.047,29.942
37818870,-0.153,-0.24,1.26,-278.18,45.972,51.327
37818890,-0.189,-0.707,1.235,-259.227,14.682,20.457
37818890,-0.313,-0.968,1.184,-265.702,-9.1,24.202
37818910,-0.167,-0.76,1.38,-231.472,-18.585,34.16
37818910,0.081,-0.854,1.233,-188.125,-22.19,41.055
37818920,0.154,-1.139,1.097,-126.245,2.8,17.64
37818930,0.574,-1.157,1.314,-71.715,40.425,-23.8
37818940,0.264,-0.773,1.387,2.782,41.58,-78.767
37818950,-0.268,-0.136,0.664,133.122,32.602,-135.415
37818960,-0.461,1.031,-0.389,238.437,40.215,-118.755
37818970,-0.735,1.965,-0.864,229.6,63.28,-84.21
37818980,-1.176,1.966,-0.662,138.215,70.28,-43.61
37818990,-0.932,1.599,-0.01,70.157,56.735,27.492
37819000,-0.237,1.007,0.456,78.155,48.93,100.187
37819010,0.295,0.711,0.293,134.855,54.355,133.472
37819020,0.635,0.625,0.134,172.707,53.025,120.802
37819030,0.945,-0.055,0.167,146.387,22.4,65.87
37819040,1.214,-0.731,0.004,127.277,-8.505,-18.55
37819050,0.785,-0.85,-0.117,122.115,-9.887,-123.13
37819060,-0.044,-0.932,-0.266,101.15,-13.632,-212.292
37819070,-0.803,-0.9,0.702,67.55,-35.962,-264.32
37819080,-1.964,-1.989,-0.002,89.827,-302.137,-357.647
37819090,1.878,-1.36,1.466,416.325,-170.712,-349.615
37819100,1.178,1.977,0.414,448.385,-1.33,-43.417
37819110,-0.407,1.752,0.233,355.145,-108.78,-184.782
37819120,1.76,-1.004,1.582,225.977,-131.915,-76.457
37819130,1.378,-0.539,1.998,293.16,37.24,23.292
37819140,0.192,1.564,1.562,224.56,137.462,56.77
37819150,-1.787,1.758,0.932,84.175,123.602,96.39
37819160,-1.283,1.102,1.123,-34.65,20.282,75.985
37819170,-0.497,0.21,1.078,-92.435,-55.16,30.73
37819170,0.318,-0.932,0.925,-106.33,-64.715,0.63
37819190,0.28,-0.809,0.848,-62.842,-39.41,-13.93
37819190,0.361,-0.279,0.892,-25.935,-16.537,5.845
37819210,0.117,-0.133,0.944,-1.54,3.937,24.465
37819210,-0.18,-0.106,0.974,14.542,11.13,34.405
37819230,-0.251,-0.015,0.987,18.532,6.965,28.612
37819230,-0.145,-0.017,1.011,16.45,-0.84,15.732
37819250,-0.091,0.089,1.041,11.48,-4.06,9.397
37819250,-0.094,0.147,1.056,1.47,-6.037,7.07
37819260,-0.031,0.137,1.072,-11.13,-6.755,5.635
37819270,-0.007,0.086,1.098,-25.532,-5.81,5.53
37819280,0.087,0.141,1.133,-42.122,-5.162,10.692
37819290,0.07,0.151,1.2,-60.27,-3.307,19.005
37819300,0.078,0.178,1.271,-83.597,-0.7,25.182
37819310,-0.041,0.148,1.298,-115.465,3.045,26.215
37819320,-0.051,0.065,1.264,-159.495,7.577,25.515
37819330,-0.137,0.046,1.184,-201.337,10.342,27.405
37819340,-0.164,0.038,1.13,-234.832,4.69,33.722
37819350,-0.111,0.007,1.127,-261.082,2.87,39.305
37819360,-0.093,-0.103,1.107,-278.862,5.67,36.715
37819370,0.009,-0.374,1.075,-290.57,12.442,32.532
37819380,0.086,-0.811,1.103,-297.377,24.867,26.547
37819390,0.041,-0.329,1.278,-294.997,44.345,29.225
37819400,0.115,-0.911,1.5,-244.895,54.25,7.805
37819410,0.1,-1.557,1.579,-219.642,53.637,-3.64
37819420,0.523,-1.923,1.39,-104.055,64.365,-11.987
37819430,0,-1.968,1.304,2.992,105.665,-45.57
37819440,0.107,-1.579,0.687,158.147,108.955,-81.182
37819450,0.191,-1.061,-0.093,263.777,127.085,-63.21
37819460,-0.05,-0.55,-0.813,278.985,126.84,-60.917
37819470,-0.695,0.09,-1.093,237.825,83.335,-81.322
37819480,-0.72,0.409,-0.975,138.39,18.917,-105.875
37819490,-0.33,0.307,-0.513,25.795,-11.165,-120.715
37819500,-0.322,0.099,-0.002,-45.902,3.92,-135.677
37819510,-0.478,0.06,0.242,-44.152,21.192,-151.69
37819520,-0.538,0.112,0.125,-16.397,28.787,-147.927
37819530,-0.483,0.139,-0.116,-7.192,27.545,-131.53
37819540,-0.48,0.005,-0.271,-22.697,15.557,-113.557
37819550,-0.499,-0.164,-0.318,-50.33,-8.505,-98.175
37819560,-0.393,-0.321,-0.407,-71.872,-36.487,-81.812
37819570,-0.309,-0.254,-0.478,-82.915,-60.48,-65.135
37819580,-0.23,0.484,0.101,-93.922,-72.047,-47.127
37819580,-1.887,-0.156,1.998,-166.845,-191.065,-41.125
37819590,1.388,-1.998,-0.583,268.94,-226.397,-72.135
37819600,-0.191,0.233,-0.35,568.225,68.005,1.68
37819610,-0.137,0.974,0.342,497.49,-48.702,-72.222
37819620,1.986,-0.387,1.981,435.802,-16.432,18.97
37819630,1.306,1.102,1.998,470.995,113.942,66.675
37819640,-1.566,1.894,1.113,244.877,184.012,57.785
37819650,-1.225,1.699,0.917,23.24,59.78,89.565
37819660,-0.861,0.24,1.417,-157.185,-54.547,31.22
37819670,0.076,-0.219,1.149,-176.925,-76.037,-8.592
37819680,0.08,-0.732,0.924,-176.225,-61.092,-23.24
37819690,0.179,-0.679,0.766,-139.265,-48.072,-22.592
37819700,0.369,-0.632,0.701,-96.04,-30.187,-12.25
37819710,0.262,-0.655,0.602,-43.54,-12.722,7.962
37819720,-0.024,-0.681,0.618,7.997,-4.9,24.43
37819730,0.054,-0.526,0.763,57.417,-2.852,28.297
37819740,0.126,-0.07,1.098,86.467,5.337,34.335
37819750,0.038,0.327,1.212,78.662,19.88,40.932
37819760,-0.24,0.31,1.16,47.915,23.555,42.63
37819770,-0.365,0.315,1.199,18.182,16.397,34.247
37819780,-0.347,0.344,1.231,-17.412,4.55,19.022
37819790,-0.388,0.321,1.245,-57.382,-6.247,-1.907
37819800,-0.229,0.241,1.346,-97.492,-14.052,-23.782
37819810,-0.112,0.236,1.394,-141.155,-14.192,-38.325
37819820,-0.048,0.196,1.295,-186.13,-10.517,-39.095
37819830,-0.027,0.102,1.22,-234.605,-7.857,-29.89
37819840,0.019,0.009,1.167,-271.25,-8.837,-17.99
37819850,0.105,-0.014,1.175,-294.7,-11.69,-3.85
37819860,0.056,-0.089,1.172,-317.012,-6.755,11.602
37819870,-0.098,-0.45,1.234,-334.827,-2.59,26.74
37819880,-0.076,-0.482,1.253,-327.215,-8.785,33.407
37819890,-0.195,-0.913,1.454,-302.155,-35.997,1.295
37819900,-0.339,-1.204,1.777,-272.597,-55.58,-3.255
37819910,-0.21,-1.639,1.594,-201.145,-75.407,-10.062
37819920,-0.322,-1.9,1.184,-83.475,-47.565,-18.655
37819920,-0.75,-1.525,1.014,41.93,-4.007,-17.36
37819940,-0.997,-1.327,0.368,149.467,-10.867,-0.542
37819940,-0.824,-1.064,0.18,208.88,-20.86,24.395
37819960,-0.739,-0.929,-0.117,227.167,-41.055,28.315
37819960,-0.706,-0.692,-0.726,251.125,-45.202,22.837
37819980,-0.741,-0.181,-1.157,241.185,-22.54,29.855
37819980,-0.736,0.03,-1.197,155.61,29.452,47.18
37820000,-0.75,-0.137,-0.804,36.067,77.787,71.417
37820000,-0.601,-0.524,-0.182,-60.007,100.8,89.512
37820010,-0.374,-0.84,0.308,-95.952,96.39,89.617
37820020,-0.193,-0.846,0.467,-80.552,82.862,78.19
37820030,-0.052,-0.722,0.377,-57.68,74.742,60.182
37820040,0.055,-0.662,0.11,-50.645,74.585,32.707
37820050,0.21,-0.634,-0.121,-56.49,88.637,-8.627
37820060,0.211,-0.544,-0.228,-79.275,108.22,-65.065
37820070,0.042,-0.537,-0.124,-112.63,113.767,-128.992
37820080,-0.123,-0.488,0.056,-155.225,99.365,-184.135
37820090,-0.254,-0.569,0.227,-182.7,73.115,-218.61
37820100,-0.157,-0.423,0.283,-190.487,58.1,-234.115
37820110,-0.464,0.116,0.605,-184.992,64.085,-220.535
37820120,-0.898,0.622,1.885,-192.832,71.225,-144.147
37820130,1.363,0.976,1.946,-37.572,60.48,-2.817
37820140,1.998,-0.928,0.621,472.727,-32.095,24.587
37820150,-0.057,-1.966,0.548,571.042,-85.592,-231.77
37820160,0.322,0.01,1.77,522.147,-95.917,-155.592
37820170,1.548,1.926,1.47,451.5,2.047,100.45
37820180,0.453,0.595,1.92,317.03,-29.68,98.56
37820190,-0.427,1.259,1.958,180.46,-2.73,187.25
37820200,-1.083,1.104,1.66,83.195,6.3,181.965
37820210,-1.338,0.402,1.376,-46.217,5.092,87.815
37820220,-1.142,0.161,0.989,-96.442,-1.557,-17.535
37820230,-0.475,-0.107,0.788,-122.097,-9.712,-92.872
37820240,-0.027,-0.498,0.622,-93.45,-14.7,-131.652
37820250,0.43,-0.972,0.729,-57.697,-18.462,-127.977
37820260,0.755,-0.622,0.806,-14.77,-15.382,-76.632
37820270,0.681,-0.412,0.969,12.075,-8.592,-17.482
37820280,0.267,-0.273,1.037,22.837,1.505,33.617
37820280,-0.073,-0.23,1.036,21.752,8.855,60.112
37820300,-0.356,-0.126,1.045,13.982,10.29,60.095
37820300,-0.368,0.011,1.151,-3.045,11.165,46.392
37820320,-0.266,0.15,1.273,-34.545,12.092,31.185
37820320,-0.158,0.156,1.372,-80.15,12.6,20.492
37820330,-0.12,0.132,1.37,-133.315,10.465,21.262
37820340,-0.165,0.059,1.323,-187.407,4.462,33.355
37820350,-0.207,-0.025,1.283,-232.207,-6.772,54.407
37820360,0.005,-0.036,1.18,-262.43,-23.152,81.672
37820370,-0.135,-0.153,1.27,-316.19,-38.85,112.332
37820380,-0.297,-0.278,1.329,-372.89,-53.567,154.892
37820390,-0.372,-1.106,1.565,-414.067,-81.917,182.577
37820400,-0.626,-1.86,1.772,-396.497,-117.215,193.532
37820410,-1.759,-1.922,1.956,-319.602,-214.917,194.425
37820420,-1.995,-1.932,1.802,-224.77,-335.142,239.627
37820430,-1.998,-1.334,1.429,-5.495,-393.505,414.942
37820440,-0.689,-1.998,0.485,196.297,-353.587,564.602
37820450,1.098,-1.717,-0.056,279.51,-265.807,573.37
37820460,1.942,-1.071,-0.75,299.845,-145.512,573.37
37820470,1.998,-0.526,-0.881,259.595,17.325,571.392
37820480,1.931,0.069,-0.899,159.267,114.187,501.235
37820490,1.592,0.764,-0.826,8.96,66.937,298.952
37820500,1.509,0.465,-0.234,-158.672,-48.58,62.265
37820510,1.188,0.347,0.36,-260.172,-107.152,-70.367
37820520,0.941,0.466,0.602,-234.167,-113.172,-169.697
37820530,0.582,0.583,0.761,-175.84,-87.692,-231.367
37820540,0.012,0.511,0.678,-112.945,-62.23,-288.54
37820550,-0.491,0.483,0.599,-41.212,-48.405,-319.042
37820560,-0.876,0.782,0.339,18.935,-54.6,-327.407
37820570,-0.937,0.942,0.135,54.162,-57.995,-315.385
37820580,-0.871,0.708,0.044,61.705,-48.055,-286.457
37820590,-0.509,0.279,-0.048,73.377,-4.637,-257.635
37820600,-0.277,-0.041,-0.349,101.71,74.742,-245.122
37820610,-0.376,-0.37,-0.604,118.825,148.05,-251.895
37820620,0.008,0.017,-0.428,154.35,171.115,-333.62
37820630,-1.678,-1.177,-0.256,147.507,176.802,-251.86
37820640,-0.259,-1.998,1.998,-34.93,327.845,-226.537
37820650,-1.952,-1.998,0.021,372.137,188.44,-315.472
37820660,1.213,1.071,0.321,514.43,-9.047,-459.917
37820670,1.488,1.997,0.472,405.125,82.267,-294.98
37820670,1.713,-0.908,1.513,439.582,67.602,-112.787
37820690,0.626,0.034,1.893,361.025,103.652,45.447
37820690,-0.105,1.593,1.916,412.492,154.35,125.422
37820710,-1.998,1.153,1.679,164.482,161.017,114.572
37820710,-1.796,1.663,1.047,51.065,45.377,76.3
37820730,-0.897,0.149,1.319,-104.09,-55.055,-8.627
37820730,0.224,-0.026,0.887,-120.645,-82.11,-42.997
37820750,0.369,-0.621,0.774,-112.7,-67.83,-36.75
37820750,0.467,-0.555,0.829,-66.272,-42,-15.312
37820760,0.234,-0.249,0.84,-30.012,-16.66,8.207
37820770,-0.059,-0.331,0.863,-8.89,-6.947,24.657
37820780,-0.21,-0.255,0.899,10.92,-7.227,26.792
37820790,-0.155,-0.126,0.983,22.785,-8.032,18.165
37820800,-0.052,-0.011,1.045,24.955,-6.58,11.13
37820810,-0.051,0.064,1.091,18.042,-2.205,9.31
37820820,-0.084,0.043,1.096,4.602,1.925,8.487
37820830,-0.111,0.054,1.103,-10.167,4.27,5.757
37820840,-0.111,0.048,1.143,-26.337,6.247,0.175
37820850,-0.022,0.067,1.221,-44.537,11.182,-5.897
37820860,0.06,0.07,1.276,-67.147,22.33,-11.515
37820870,0.04,0.053,1.303,-96.845,37.852,-12.022
37820880,0.045,-0.016,1.299,-132.807,51.205,-7.122
37820890,0.04,-0.01,1.332,-167.37,58.292,-3.062
37820900,0.038,0.063,1.342,-200.672,59.167,1.82
37820910,0.084,0.097,1.358,-230.545,60.287,6.457
37820920,0.027,-0.102,1.275,-256.987,60.515,12.32
37820930,-0.127,-0.829,1.263,-282.047,43.767,16.73
37820940,-0.516,-0.656,1.725,-317.047,7.017,28.927
37820950,-0.442,-1.743,1.487,-287.717,-78.557,57.61
37820960,0.289,-1.423,1.276,-221.707,-114.782,99.907
37820970,0.644,-1.991,0.018,-136.08,-101.447,95.952
37820980,1.049,-1.998,1.094,-127.662,-49.927,46.13
37820990,0.575,-1.669,0.73,-64.505,-38.972,-44.065
37821000,-0.588,-0.688,0.305,17.955,-8.942,-118.79
37821010,-1.011,-0.246,0.282,-4.585,17.587,-123.655
37821010,-1.504,-0.033,0.069,-17.29,1.207,-114.012
37821030,-1.578,0.514,-0.312,4.952,-21.42,-81.007
37821030,-1.57,1.031,-0.442,-19.477,-23.922,-19.215
37821050,-1.1,1.16,-0.418,-70.455,1.12,40.81
37821050,-0.452,1.514,-0.301,-74.235,51.275,69.965
37821070,-0.293,1.907,-0.198,-51.747,92.592,51.677
37821070,-0.186,1.79,-0.136,-36.942,110.11,10.71
37821080,-0.118,1.46,-0.062,-21.385,109.795,-28.105
37821090,-0.159,1.024,0.144,-5.022,100.38,-67.585
37821100,-0.309,0.51,0.227,24.587,85.295,-93.747
37821110,-0.39,0.404,-0.177,82.53,72.275,-95.427
37821120,0.639,-0.243,-1.281,119.927,127.26,-87.115
37821130,0.379,-1.998,1.806,-5.652,309.347,-131.81
37821140,-1.616,-1.998,0.218,266.28,-266.98,-407.032
37821150,0.55,0.541,0.529,570.745,-103.635,-371.332
37821160,1.904,1.997,-0.792,557.182,-53.515,-58.152
37821170,1.377,-0.001,1.757,306.232,-39.497,-97.965
37821180,0.182,-1.345,1.965,271.355,-36.575,-24.185
37821190,1.567,1.936,1.335,376.162,27.912,232.61
37821200,-1.297,0.915,1.822,147.857,53.865,197.872
37821210,-1.556,0.376,1.544,40.39,43.295,158.602
37821220,-1.658,0.69,0.967,-2.135,16.8,67.55
37821230,-0.869,-0.185,1.052,-79.677,-21.262,-53.795
37821240,-0.002,0.048,0.783,-68.565,-34.842,-92.225
37821250,0.25,-0.415,0.808,-65.17,-26.53,-99.26
37821260,0.462,-0.616,0.901,-39.025,-19.81,-69.142
37821270,0.623,-0.319,0.921,-8.925,-9.905,-21.402
37821280,0.213,-0.284,0.985,7.787,5.232,19.092
37821290,-0.117,-0.171,1.039,18.147,12.022,42.507
37821300,-0.314,0.017,1.075,13.632,12.74,46.287
37821310,-0.427,0.132,1.104,-3.08,10.85,30.485
37821320,-0.377,0.125,1.168,-26.18,6.527,5.04
37821330,-0.189,0.145,1.257,-55.422,4.322,-14.962
37821340,-0.112,0.14,1.323,-90.982,10.202,-24.185
37821350,-0.134,0.109,1.284,-131.845,17.955,-24.447
37821360,-0.137,0.069,1.223,-171.535,20.457,-19.635
37821370,-0.116,0,1.182,-206.167,20.667,-16.467
37821380,-0.003,-0.042,1.143,-231.945,21.385,-12.792
37821390,0.088,-0.059,1.125,-249.795,28,-7.227
37821400,0.199,-0.61,1.188,-266.192,42.245,-4.445
37821410,-0.04,0.316,1.135,-261.642,60.2,-3.132
37821420,-0.026,-0.932,1.459,-277.567,58.572,-7.14
37821420,-0.325,-1.243,1.79,-285.267,34.44,-22.33
37821440,-0.385,-1.6,1.45,-206.71,12.617,-23.345
37821440,-0.295,-0.934,1.2,-133.262,9.835,0.262
37821460,0.291,-0.754,1.143,-81.2,22.75,30.012
37821460,-0.023,-0.714,1.191,-31.43,44.94,23.625
37821480,-0.389,-0.037,0.626,70.472,35.805,22.68
37821480,-0.225,0.611,0.014,113.032,34.335,54.862
37821500,-0.585,0.929,-0.415,88.2,-7.035,52.64
37821500,-0.682,0.969,-0.538,37.537,-54.775,44.117
37821510,-0.505,0.686,-0.435,-22.872,-66.972,61.582
37821520,-0.19,0.331,-0.239,-45.482,-48.265,73.535
37821530,-0.09,0.159,-0.163,-38.99,-15.942,73.902
37821540,-0.094,0.143,-0.236,-17.412,6.667,58.94
37821550,0.108,0.283,-0.387,0.315,17.622,41.282
37821560,0.377,0.524,-0.5,5.897,25.97,18.935
37821570,0.454,0.598,-0.455,-6.387,35.717,-10.587
37821580,1.283,-0.588,-1.192,-14.052,111.387,-45.692
37821590,-0.129,-1.998,1.947,-110.932,336.507,-120.54
37821600,-1.703,-1.998,-0.314,206.78,-196.787,-392.367
37821610,-0.844,1.543,-0.257,547.785,33.267,-199.307
37821620,0.21,1.681,-1.183,431.497,-60.147,15.592
37821630,1.721,-1.11,1.576,265.982,-163.397,-66.255
37821640,-0.81,-1.536,1.399,391.44,-70.857,-116.2
37821650,0.973,1.146,1.003,518.647,-80.482,17.045
37821660,1.248,0.978,1.51,322.84,-43.277,124.127
37821670,0.075,0.276,1.997,249.55,-9.73,132.44
37821680,-0.923,1.572,1.81,181.79,50.995,158.987
37821690,-1.21,1.074,1.346,45.22,35.192,103.39
37821700,-0.925,0.199,1.077,-43.505,-10.885,28.245
37821710,-0.442,-0.088,0.946,-69.79,-41.195,-24.15
37821720,0.065,-0.218,0.938,-71.942,-53.83,-37.835
37821730,0.328,-0.324,0.921,-56.42,-40.53,-27.737
37821740,0.429,-0.325,0.939,-36.715,-17.115,-2.712
37821750,0.203,-0.179,1.001,-17.92,9.205,22.592
37821760,0.027,-0.028,1.086,-13.632,22.942,38.115
37821760,-0.153,0.072,1.166,-24.045,23.117,42.84
37821780,-0.068,0.05,1.204,-49.14,17.78,41.02
37821780,-0.069,0.07,1.274,-75.25,24.762,38.237
37821800,0.005,0.084,1.35,-113.942,29.575,43.54
37821800,-0.006,0.061,1.332,-161.665,35.525,54.792
37821820,-0.096,-0.045,1.252,-206.71,42.332,67.077
37821820,-0.014,-0.234,1.262,-243.985,44.957,77.595
37821830,0.057,-0.099,1.194,-262.552,55.58,87.92
37821840,0.113,0,1.169,-266.052,63.42,90.807
37821850,0.087,-0.174,1.283,-279.352,76.527,81.725
37821860,-0.101,-0.597,1.607,-285.635,73.517,60.025
37821870,-0.452,-1.205,1.976,-246.505,33.11,60.69
37821880,-0.061,-1.765,1.697,-144.305,-25.62,39.83
37821890,0.892,-1.303,1.566,-69.825,3.307,64.417
37821900,0.623,-1.779,1.749,60.655,37.485,68.25
37821910,0.877,-1.13,0.27,231.035,30.047,42.735
37821920,0.393,0.057,-1.186,297.132,34.055,30.03
37821930,0.007,0.92,-1.537,212.275,-29.312,-2.905
37821940,-0.158,0.686,-0.887,21.472,-123.567,-64.715
37821950,0.019,-0.18,-0.014,-128.992,-182.927,-130.217
37821960,-0.111,-0.642,0.402,-111.457,-185.587,-182.315
37821970,-0.731,-0.383,0.09,-27.545,-148.925,-226.047
37821980,-1.532,-0.139,-0.431,3.377,-136.815,-236.53
37821990,-1.687,-0.041,-0.743,-15.19,-140.315,-191.292
37822000,-1.468,0.041,-0.789,-50.662,-117.285,-98.77
37822010,-1.231,0.029,-0.58,-63.927,-86.782,-21.122
37822020,-0.915,-0.007,-0.51,-48.58,-55.597,31.325
37822030,-0.709,0.403,-0.731,-19.862,-31.377,71.715
37822040,0.362,0.553,-0.233,-24.132,-5.477,95.13
37822050,1.998,-1.545,1.298,-149.292,166.6,41.23
37822060,-0.64,-0.957,-0.226,371.472,151.917,-213.062
37822070,-0.185,1.99,-0.369,557.55,-1.312,-69.632
37822080,1.828,1.243,0.715,350.035,20.877,167.405
37822090,-0.644,-1.444,1.998,306.81,-10.045,-3.465
37822100,0.51,1.975,1.843,343.945,110.687,128.24
37822110,-1.806,1.852,1.473,112.28,93.292,76.51
37822120,-0.952,0.832,1.427,-94.78,2.887,50.12
37822130,-0.647,0.069,0.961,-138.915,-51.38,-7.157
37822140,-0.193,-0.738,0.787,-158.55,-71.365,-41.002
37822150,0.203,-0.715,0.684,-107.835,-69.58,-47.967
37822160,0.439,-0.575,0.769,-61.722,-51.047,-29.61
37822170,0.498,-0.479,0.808,-28.192,-26.845,-0.682
37822170,0.143,-0.281,0.872,2.082,-4.392,27.825
37822190,-0.1,-0.221,0.971,17.902,2.502,39.55
37822190,-0.1,-0.084,1.049,20.65,2.8,38.885
37822210,-0.11,0.103,1.128,12.897,4.27,33.705
37822210,-0.152,0.16,1.187,-8.032,4.095,27.177
37822230,-0.1,0.19,1.287,-37.59,3.937,17.815
37822230,-0.084,0.211,1.351,-74.567,4.515,10.167
37822250,-0.137,0.131,1.318,-121.957,0.367,9.485
37822250,-0.13,0.02,1.259,-172.077,-12.845,14.105
37822260,-0.037,-0.052,1.18,-213.727,-26.162,19.652
37822270,0.013,-0.043,1.113,-238.262,-28.665,21.98
37822280,-0.091,-0.525,1.216,-250.18,-26.197,21.927
37822290,-0.34,0.408,1.077,-238.507,-33.075,28.822
37822300,0.08,-0.686,1.31,-242.567,-37.1,29.837
37822310,-0.082,-1.024,1.633,-238.927,-28.087,31.5
37822320,-0.183,-1.492,1.215,-141.032,-47.88,24.902
37822330,-0.283,-1.846,1.778,-63.507,-51.117,-6.352
37822340,-0.349,-1.9,1.144,52.85,-32.252,-14.052
37822350,-0.412,-0.971,0.074,227.255,10.342,2.59
37822360,-0.783,-0.267,-0.522,235.795,42.262,16.677
37822370,-1.018,-0.4,-1.037,178.097,28.052,19.547
37822380,-0.821,-0.404,-0.828,118.247,45.237,52.692
37822390,-0.9,-0.549,-0.105,18.392,74.672,83.842
37822400,-0.413,-1.029,0.332,-30.205,72.887,88.48
37822410,0.054,-0.888,0.237,-8.242,82.145,85.96
37822420,-0.052,-0.317,0.068,-5.075,91.385,70.525
37822430,-0.114,-0.184,0.127,-58.03,81.007,43.277
37822440,-0.005,-0.319,0.279,-111.125,58.695,17.202
37822450,-0.023,-0.21,0.348,-121.52,45.955,-11.9
37822460,-0.084,0.185,0.207,-113.277,45.762,-34.422
37822470,0.065,0.923,-0.081,-101.797,53.427,-35.752
37822480,0.379,1.882,-0.523,-85.277,62.002,-20.177
37822490,-0.42,1.967,1.643,-95.427,26.075,-14.507
37822500,0.705,-1.59,0.64,61.337,-317.625,-185.307
37822510,-0.446,-1.626,1.675,531.405,-84.35,-347.182
37822510,0.066,1.954,0.042,493.78,-31.43,-168.42
37822530,1.898,-0.04,1.129,315.875,-40.81,28.577
37822530,0.068,-0.035,1.933,314.807,-27.615,12.442
37822550,1.155,1.256,1.944,279.177,32.165,173.32
37822550,-0.906,1.32,1.754,142.87,78.382,175.49
37822570,-1.202,1.171,1.209,45.167,54.425,164.762
37822570,-1.302,0.129,0.939,-32.445,4.322,81.725
37822580,-0.864,-0.389,0.798,-43.942,-39.252,2.817
37822590,0.097,-0.211,0.931,-34.177,-69.632,-30.887
37822600,0.592,-0.16,1.026,-19.74,-61.687,-25.445
37822610,0.388,-0.162,1.014,-8.925,-29.995,0.122
37822620,0.02,-0.111,0.996,-0.157,-5.337,21.21
37822630,-0.164,-0.026,1.004,3.342,2.24,24.832
37822640,-0.13,-0.042,1.029,1.312,0.315,18.077
37822650,0.039,0.031,1.082,-4.585,0.35,11.165
37822660,0.106,0.142,1.152,-16.572,7.455,11.13
37822670,0.094,0.18,1.172,-34.685,17.307,16.45
37822680,0.073,0.051,1.175,-55.597,23.345,23.905
37822690,0.092,-0.013,1.248,-79.415,24.815,32.62
37822700,-0.009,-0.078,1.238,-111.107,26.477,44.852
37822710,-0.018,-0.128,1.182,-149.94,24.517,63.56
37822720,0.001,-0.172,1.125,-184.205,22.347,81.375
37822730,-0.034,-0.044,1.151,-208.617,22.732,88.83
37822740,-0.109,-0.053,1.065,-211.557,22.592,89.18
37822750,0.117,-0.328,1.157,-224.227,40.985,89.635
37822760,0.356,-0.615,1.086,-228.707,86.03,90.545
37822770,0.321,-0.778,1.013,-194.25,138.582,82.617
37822780,-0.021,-0.861,1.136,-153.195,174.842,65.957
37822790,-0.403,-1.092,1.795,-91.63,171.447,55.352
37822800,-0.836,-1.846,1.754,-2.73,93.712,28.087
37822810,0.808,-1.818,0.889,125.895,-25.585,-33.005
37822820,1.11,-1.204,-0.291,238.105,-41.195,-64.627
37822830,0.472,-0.742,-0.513,187.565,-9.432,-157.552
37822840,-0.183,-0.775,-0.46,108.85,-17.377,-233.345
37822850,-0.554,-0.513,-0.244,50.05,-47.635,-252.052
37822860,-0.81,-0.167,-0.125,-3.692,-89.915,-243.582
37822870,-0.879,0.025,-0.127,-37.345,-117.512,-217.612
37822880,-1.041,0.252,-0.082,-61.11,-118.072,-164.885
37822890,-1.183,0.378,0.043,-89.827,-111.58,-90.177
37822900,-0.946,0.377,0.025,-113.785,-107.555,-7.822
37822910,-0.436,0.63,-0.247,-109.112,-97.65,65.957
37822920,-0.175,1.117,-0.557,-96.67,-89.547,118.562
37822920,-0.116,1.47,-0.862,-110.407,-102.357,146.772
37822940,-0.205,0.551,1.905,-220.342,-92.452,135.52
37822940,1.447,-1.998,-0.853,77.857,-64.4,4.637
37822960,-1.159,0.141,0.571,560.84,122.412,7.14
37822960,0.254,1.996,0.018,478.432,-8.155,20.755
37822980,1.382,0.29,1.507,295.505,13.825,85.732
37822980,-0.525,-0.199,1.995,354.147,-21.822,23.765
37822990,0.569,1.753,1.913,282.17,30.572,106.382
37823000,-0.914,1.533,1.746,118.772,52.325,77.525
37823010,-0.823,0.923,1.387,-12.495,19.215,55.475
37823020,-0.556,0.236,1.194,-98.7,-15.995,10.132
37823030,-0.267,-0.279,0.917,-124.232,-29.435,-23.485
37823040,-0.038,-0.518,0.685,-108.71,-36.855,-39.462
37823050,0.325,-0.622,0.744,-65.922,-33.53,-39.06
37823060,0.411,-0.458,0.856,-25.532,-16.695,-23.992
37823070,0.331,-0.292,0.918,-3.465,2.467,-0.84
37823080,-0.012,-0.123,1.013,10.377,15.627,15.312
37823090,-0.107,-0.015,1.062,8.732,18.935,20.912
37823100,-0.178,0.006,1.091,-3.447,19.88,14.892
37823110,-0.17,0.077,1.151,-19.6,19.32,9.537
37823120,-0.148,0.177,1.274,-46.13,18.147,6.177
37823130,-0.1,0.295,1.396,-86.607,17.185,5.845
37823140,-0.164,0.29,1.355,-143.57,14.157,9.135
37823150,-0.09,0.099,1.255,-201.74,1.61,16.31
37823160,-0.164,-0.018,1.189,-249.497,-4.497,28.402
37823170,-0.253,0.027,1.225,-284.392,-17.85,41.107
37823180,-0.261,-0.105,1.157,-318.307,-35.332,57.505
37823190,-0.538,0.023,1.462,-345.345,-65.957,76.23
37823200,-0.763,-0.857,1.497,-338.957,-143.955,80.5
37823210,-0.429,-1.952,1.936,-317.887,-244.895,71.75
37823220,0.366,-1.484,1.218,-217.42,-253.54,77.98
37823230,-0.044,-0.83,1.053,-121.905,-149.082,122.377
37823240,-1.725,-1.207,1.347,-104.772,-81.322,139.475
37823250,-0.826,-0.82,1.201,-6.3,-1.68,203.63
37823260,0.459,0.781,0.391,115.535,78.627,265.125
37823260,0.566,1.906,-0.277,167.72,126.56,236.967
37823280,0.757,1.976,-0.543,158.007,146.23,147.332
37823280,0.99,1.611,-0.431,132.16,170.082,61.985
37823300,0.829,1.21,-0.34,112.77,174.825,-36.242
37823300,0.574,0.528,-0.234,101.902,150.99,-114.012
37823320,0.514,0.151,-0.219,101.745,122.605,-171.657
37823320,0.22,-0.062,-0.086,92.137,95.305,-205.73
37823330,0.083,-0.404,-0.001,83.247,66.412,-218.522
37823340,0.159,-0.799,-0.097,91.525,52.272,-216.247
37823350,0.162,0.086,-0.373,123.917,52.605,-228.532
37823360,-0.558,-1.274,0.505,115.675,87.36,-193.392
37823370,-0.988,-1.998,0.515,51.8,-192.255,-388.78
37823380,0.884,0.644,0.871,488.88,-62.755,-313.95
37823390,1.773,1.997,-0.954,529.357,20.037,-18.97
37823400,1.161,-0.101,1.368,219.66,-37.975,-129.395
37823410,0.135,-1.327,1.928,255.272,-24.552,-15.645
37823420,0.843,1.891,1.316,362.495,37.8,157.902
37823430,-0.81,0.695,1.788,142.1,69.527,122.237
37823440,-1.108,1.223,1.308,69.387,58.17,121.712
37823450,-1.317,0.739,1.057,-11.235,5.127,65.52
37823460,-0.802,-0.055,1.022,-79.275,-46.322,-11.9
37823470,-0.037,-0.149,0.923,-88.55,-71.732,-41.895
37823480,0.437,-0.355,0.967,-85.802,-65.327,-39.375
37823490,0.496,-0.318,0.926,-59.587,-36.977,-16.187
37823500,0.417,-0.332,0.923,-37.275,-7.245,13.37
37823510,0.086,-0.155,0.98,-14.28,14,34.702
37823520,-0.128,-0.047,1.048,-8.662,18.375,42.192
37823530,-0.188,0.005,1.093,-15.47,15.697,37.957
37823540,-0.152,0.059,1.146,-31.395,10.832,29.277
37823550,-0.101,0.084,1.173,-52.167,13.912,20.79
37823560,-0.04,0.061,1.249,-78.855,16.625,16.572
37823570,-0.037,0.104,1.294,-111.107,19.635,18.48
37823580,-0.107,0.081,1.25,-150.272,20.422,23.957
37823590,-0.151,0.005,1.195,-192.342,18.567,32.2
37823600,-0.107,0.013,1.193,-223.16,18.55,40.355
37823610,-0.136,0.121,1.195,-240.852,20.947,45.15
37823620,-0.164,0.016,1.155,-251.457,17.535,46.322
37823630,0.033,-0.415,1.284,-264.005,23.537,41.702
37823640,-0.028,-1.079,1.514,-245.77,26.6,23.222
37823650,-0.397,-0.633,1.533,-171.115,11.847,14.682
37823660,0.211,-1.505,1.716,-92.977,-14.525,-28.787
37823670,0.49,-1.567,1.535,-33.74,-31.587,-41.317
37823670,1.752,-1.148,0.16,174.387,3.517,-41.09
37823680,0.875,0.036,-0.661,202.142,7.612,-96.705
37823690,-0.449,0.281,-0.844,122.202,-90.072,-180.39
37823700,-0.938,-0.085,-0.048,-32.34,-166.11,-148.592
37823710,-0.468,-0.76,0.221,-78.067,-164.797,-46.725
37823720,-0.822,-0.297,0.007,-7.07,-128.047,9.03
37823730,-1.274,0.152,-0.121,19.827,-111.51,50.767
37823740,-0.896,-0.387,-0.095,-21.735,-113.26,112.245
37823750,-0.345,-0.892,-0.283,-26.915,-106.452,143.587
37823760,-0.441,-0.69,-0.394,6.685,-89.985,122.832
37823770,-0.744,-0.366,-0.434,-11.865,-87.99,90.335
37823780,-0.755,0.155,-0.548,-43.207,-85.732,83.772
37823790,-0.942,0.849,-0.622,-55.842,-87.99,76.142
37823800,-0.827,1.009,0.596,-83.912,-89.267,59.552
37823810,1.738,-0.946,1.903,-126.647,86.485,33.547
37823820,0.56,-1.76,-0.088,346.342,126.945,-220.64
37823830,-1.48,1.666,0.586,542.377,72.607,-246.102
37823840,1.803,0.614,0.309,363.545,85.575,56.997
37823850,1.227,-0.972,1.877,330.697,142.012,69.3
37823860,-1.016,1.576,1.998,413.262,224.472,120.575
37823870,-1.634,1.679,1.671,256.882,188.002,136.622
37823880,-1.636,1.835,1.213,70.227,82.075,73.972
37823890,-0.979,0.713,1.314,-67.357,-15.505,16.66
37823900,-0.04,0.109,1.141,-148.872,-53.497,-29.61
37823910,0.313,-0.49,0.723,-139.265,-48.177,-37.065
37823920,0.412,-1.016,0.735,-93.397,-28.945,-25.62
37823930,0.36,-0.557,0.781,-34.23,1.452,-2.362
37823940,0.128,-0.335,0.867,3.937,19.18,22.172
37823950,-0.071,-0.22,0.943,24.535,24.185,37.625
37823960,-0.239,-0.023,1.008,35.385,23.397,40.127
37823970,-0.299,0.088,1.079,28.017,19.845,28.84
37823980,-0.294,0.235,1.124,10.85,16.012,14.752
37823990,-0.178,0.185,1.171,-14.647,12.53,2.712
37824000,-0.134,0.21,1.228,-42.087,11.182,-5.215
37824010,-0.15,0.227,1.238,-73.377,12.267,-10.027
37824010,-0.191,0.122,1.249,-109.235,12.267,-12.477
37824030,-0.258,0.112,1.214,-141.47,8.645,-12.197
37824030,-0.261,0.059,1.172,-175.735,1.592,-12.635
37824050,-0.293,0.004,1.128,-205.817,-5.617,-9.555
37824050,-0.258,-0.059,1.084,-227.64,-13.79,-4.882
37824070,-0.158,-0.102,1.05,-244.247,-20.667,-0.997
37824070,-0.122,-0.139,1.05,-259.455,-23.485,2.817
37824080,-0.176,-0.539,1.264,-267.68,-25.427,8.855
37824090,-0.447,0.037,1.409,-253.802,-41.65,22.26
37824100,-0.316,-1.176,1.914,-242.252,-93.31,-2.94
37824110,-0.257,-1.477,1.582,-182.07,-139.895,5.337
37824120,0,-1.252,0.881,-72.047,-129.29,23.135
37824130,-0.223,-1.185,1.138,-18.06,-47.722,60.707
37824140,-0.628,-1.124,0.899,61.722,0.087,86.152
37824150,0.1,-0.458,0.359,147.647,54.81,138.46
37824160,0.311,0.067,-0.346,157.815,70.612,165.025
37824170,0.429,0.466,-0.871,139.895,51.572,133.752
37824180,0.415,0.742,-0.779,71.032,29.172,98.735
37824190,0.626,0.474,-0.155,-42.647,2.765,39.06
37824200,0.492,-0.051,0.381,-102.917,-19.705,-25.06
37824210,0.094,-0.1,0.311,-53.655,-33.845,-78.75
37824220,-0.419,0.113,-0.292,9.012,-45.15,-105.402
37824230,-0.868,0.247,-0.711,13.877,-59.22,-103.95
37824240,-0.994,-0.121,-0.692,-27.807,-63.595,-78.417
37824250,-0.949,-0.495,-0.524,-54.407,-52.027,-46.147
37824260,-0.775,-0.539,-0.649,-39.777,-25.602,-22.855
37824270,1.118,-1.314,1.837,-55.632,73.43,-10.832
37824280,0.773,-1.998,1.181,92.907,3.587,-127.312
37824290,-0.986,-0.388,1.051,506.677,15.557,-244.02
37824300,1.494,1.997,0.273,440.72,51.012,-44.222
37824310,1.708,0.159,1.346,287.525,39.445,33.215
37824320,-0.31,-1.179,1.995,213.43,42.175,40.022
37824330,0.23,1.795,1.653,241.78,74.707,177.905
37824340,-1.638,1,1.699,88.97,62.755,134.015
37824350,-1.384,0.502,1.396,-21.507,21.402,74.725
37824350,-1.176,0.305,1.06,-69.72,-13.527,0.122
37824370,-0.457,-0.273,0.882,-108.885,-48.842,-57.592
37824370,0.201,-0.417,0.706,-80.867,-51.922,-79.257
37824390,0.413,-0.644,0.834,-56.122,-30.712,-74.077
37824390,0.602,-0.439,0.94,-30.922,-17.832,-39.585
37824410,0.517,-0.239,0.974,-17.097,-0.98,3.517
37824410,0.056,-0.272,1.05,-15.242,12.425,32.427
37824420,-0.17,-0.132,1.092,-20.177,16.537,43.225
37824430,-0.28,0.029,1.136,-32.287,17.675,38.622
37824440,-0.302,0.094,1.209,-54.215,17.552,24.815
37824450,-0.262,0.1,1.303,-84.77,15.662,10.552
37824460,-0.196,0.084,1.342,-125.002,14.367,2.992
37824470,-0.055,0.034,1.33,-168.577,13.405,0.997
37824480,0.029,-0.272,1.358,-206.307,25.007,5.425
37824490,0.004,0.217,1.272,-220.64,35.035,19.04
37824500,0.04,-0.452,1.428,-240.607,29.172,-0.84
37824510,-0.089,-0.602,1.506,-248.307,30.695,0.577
37824520,-0.247,-0.678,1.342,-217.98,11.55,-11.515
37824530,-0.631,-0.95,1.237,-210.542,-25.742,-23.38
37824540,-0.355,-0.914,1.344,-202.825,-54.862,-5.477
37824550,-0.175,-1.292,0.806,-155.102,-62.23,15.242
37824560,-0.297,-1.926,0.196,-120.207,-61.477,-22.347
37824570,-0.564,-1.762,1.054,-128.292,-25.497,-30.87
37824580,-0.424,-1.267,1.051,-71.715,7.245,-34.107
37824590,-0.388,-0.364,0.977,7.105,62.142,-22.837
37824600,-0.647,0.628,0.454,62.23,103.057,-5.985
37824610,-0.828,1.537,-0.001,89.6,106.96,27.772
37824620,-0.638,1.965,-0.367,77.717,72.8,64.977
37824630,-0.114,1.699,-0.37,42.997,41.23,85.715
37824640,0.327,1.05,-0.135,23.257,31.727,82.32
37824650,0.661,0.529,-0.109,39.357,40.442,55.702
37824660,0.752,0.29,-0.423,70.07,52.64,17.412
37824670,0.622,0.174,-0.748,84.035,51.625,-27.58
37824680,0.403,0.067,-0.883,63.91,17.5,-76.807
37824690,0.317,-0.061,-0.975,27.895,-31.605,-120.522
37824700,0.224,0.072,-1.085,15.137,-65.187,-139.527
37824710,0.533,-0.133,-1.113,15.47,-46.112,-143.202
37824720,0.008,-1.87,1.913,-97.177,143.762,-176.942
37824730,-0.603,-1.998,-0.206,211.54,-73.692,-289.362
37824740,0.115,1.298,-0.37,570.517,-3.202,-152.845
37824750,1.998,1.982,-0.256,535.885,-3.815,71.365
37824760,-0.005,-1.272,1.896,307.667,-25.987,-17.57
37824760,0.038,0.153,1.865,352.765,4.06,89.04
37824780,-0.302,1.891,1.641,316.155,63.7,200.637
37824780,-1.873,0.806,1.901,57.225,49.682,80.36
37824800,-1.106,0.911,1.351,-25.27,5.285,17.902
37824800,-0.631,0.222,1.166,-126.472,-29.347,-63.892
37824820,-0.007,-0.173,0.812,-146.965,-30.152,-98.665
37824820,0.196,-0.577,0.668,-126.787,-12.897,-101.237
37824830,0.399,-0.757,0.804,-95.742,-10.045,-75.95
37824840,0.474,-0.453,0.801,-54.39,-5.18,-28.577
37824850,0.284,-0.475,0.856,-28.385,2.03,10.132
37824860,0.044,-0.357,0.974,-5.075,8.015,39.9
37824870,-0.116,-0.108,1.086,-1.26,12.022,53.375
37824880,-0.219,0.088,1.159,-15.102,16.135,48.86
37824890,-0.287,0.135,1.221,-40.425,18.445,33.512
37824900,-0.253,0.199,1.349,-76.58,17.64,18.655
37824910,-0.278,0.292,1.404,-124.88,19.285,6.282
37824920,-0.297,0.287,1.36,-179.55,21.07,-3.71
37824930,-0.257,0.167,1.321,-229.092,27.405,-12.897
37824940,-0.159,-0.291,1.333,-267.137,38.867,-20.93
37824950,-0.131,0.382,1.127,-278.932,66.237,-9.047
37824960,-0.302,-1.01,0.813,-301.665,68.652,-50.557
37824970,-1.199,-1.236,1.69,-316.4,97.23,-66.325
37824980,-0.748,-0.704,1.94,-306.092,55.02,-48.457
37824990,-0.07,-0.276,1.719,-231.875,7.49,-5.39
37825000,0.133,-0.229,0.953,-151.9,5.425,-1.33
37825010,-0.265,-0.045,1.134,-114.205,10.657,0.105
37825020,-1.732,-0.004,1.73,-99.47,-10.622,19.057
37825030,-0.852,0.172,1.501,34.3,-27.125,115.552
37825040,0.103,0.642,0.338,153.615,-4.812,224.63
37825050,0.357,1.341,-0.493,210.647,9.905,213.867
37825060,0.194,1.559,-0.752,156.362,-19.39,148.032
37825070,0.229,1.055,-0.318,71.242,-65.59,73.605
37825080,0.456,0.432,-0.116,43.522,-94.605,4.707
37825080,0.32,0.17,-0.283,66.01,-51.625,-47.407
37825100,-0.48,0.095,-0.584,87.832,25.322,-71.767
37825100,-1.292,-0.1,-0.815,86.66,40.512,-72.677
37825120,-1.022,-0.565,-0.873,54.705,2.537,-45.22
37825120,-0.332,-1.316,-1.135,22.225,-2.205,-5.792
37825140,1.85,-1.998,0.543,-16.467,164.902,-30.012
37825140,-0.451,-1.998,1.994,2.31,136.622,-298.462
37825160,-1.998,-1.292,0.575,498.855,-176.452,-422.362
37825160,0.721,1.926,0.054,435.662,-145.057,-154.717
37825170,1.998,1.764,1.035,307.527,-58.695,32.725
37825180,0.011,-0.554,1.581,369.512,-34.142,-125.615
37825190,0.302,-1.364,1.831,346.447,-44.467,-60.13
37825200,0.979,1.36,1.354,339.272,15.225,145.792
37825210,-0.486,0.877,1.776,249.287,23.87,124.6
37825220,-1.29,0.879,1.646,125.125,45.5,96.425
37825230,-1.263,0.969,1.188,50.855,13.667,38.535
37825240,-0.678,0.255,1.128,-42.052,-38.185,-29.172
37825250,0.022,-0.037,0.99,-65.782,-57.365,-56.945
37825260,0.187,-0.265,0.997,-65.747,-37.345,-60.042
37825270,0.367,-0.235,1.033,-58.065,-16.555,-36.295
37825280,0.291,-0.086,1.074,-51.502,0.017,-4.305
37825290,-0.001,-0.06,1.097,-53.375,16.03,16.205
37825300,-0.083,-0.073,1.064,-61.6,21.77,25.165
37825310,-0.056,-0.137,1.042,-71.435,24.57,27.562
37825320,-0.073,-0.131,1.087,-81.165,25.445,31.342
37825330,0.056,-0.13,1.128,-96.04,20.895,39.375
37825340,0.239,-0.131,1.247,-122.92,21.91,53.305
37825350,0.268,0.005,1.298,-151.042,30.362,73.08
37825360,0.121,0.036,1.235,-173.862,35.682,90.422
37825370,-0.067,-0.356,1.167,-201.372,29.767,102.62
37825380,0.197,-0.563,1.422,-243.477,29.82,114.292
37825390,0.297,-0.267,1.486,-247.59,42.087,134.032
37825400,-0.352,-0.761,1.711,-267.347,25.112,127.855
37825410,-0.066,-1.981,1.365,-246.085,-85.907,79.992
37825420,0.501,-1.609,1.17,-150.937,-109.182,75.775
37825430,-0.356,-1.808,-0.195,-68.88,-54.775,77.752
37825440,0.729,-1.765,0.623,-39.375,21.717,3.692
37825450,-0.459,-1.195,-0.239,-16.59,32.742,-86.467
37825460,-0.965,-0.292,-0.226,24.29,37.485,-165.847
37825470,-0.889,-0.128,0.157,-68.81,49.962,-174.002
37825480,-1.002,0.153,0.376,-90.545,22.715,-186.235
37825490,-0.974,0.597,0.414,-80.202,-5.162,-169.347
37825500,-0.705,0.7,0.299,-86.905,-32.672,-136.955
37825510,-0.379,1.088,0.034,-81.865,-47.005,-103.565
37825510,-0.211,1.555,-0.178,-74.27,-48.702,-73.517
37825530,-0.159,1.461,-0.272,-80.552,-52.272,-66.605
37825530,-0.201,1.521,-0.413,-80.727,-55.615,-72.135
37825550,-0.062,1.986,-0.698,-59.57,-44.94,-65.572
37825550,-0.023,0.852,-1.153,-47.512,-16.327,-65.1
37825570,0.3,0.066,0.635,-101.342,193.69,-82.897
37825570,-1.997,-1.998,1.667,132.86,79.782,-219.292
37825580,1.036,-0.705,-0.384,450.975,-94.15,-278.985
37825590,1.257,1.997,-0.931,514.395,-8.347,-133.035
37825600,1.692,1.002,1.004,479.867,50.19,-54.267
37825610,-0.47,-1.794,1.973,366.905,64.697,-34.212
37825620,0.823,1.34,1.299,414.89,43.365,104.93
37825630,-0.289,1.368,1.733,291.585,50.977,143.71
37825640,-1.38,0.743,1.926,130.987,59.727,104.107
37825650,-1.35,1.114,1.514,55.195,33.757,50.995
37825660,-1.019,0.359,1.414,-63.122,-4.427,-33.687
37825670,-0.128,0.238,1.046,-102.935,-7.927,-93.695
37825680,-0.016,-0.451,0.953,-112.297,22.452,-132.02
37825690,0.543,-0.501,0.979,-110.057,27.685,-124.512
37825700,0.677,-0.131,0.898,-87.447,38.272,-84.437
37825710,0.385,-0.353,1.031,-86.31,47.547,-43.172
37825720,0.102,-0.245,1.025,-80.045,58.152,-11.76
37825730,-0.078,-0.236,1.124,-80.482,68.092,-3.465
37825740,-0.101,-0.176,1.227,-90.107,82.18,-6.597
37825750,-0.181,-0.1,1.237,-100.45,98.28,-10.85
37825760,-0.354,-0.05,1.313,-126.49,104.072,-16.887
37825770,-0.284,-0.068,1.317,-160.702,102.515,-22.557
37825780,-0.319,-0.068,1.178,-180.075,101.955,-26.197
37825790,-0.446,-0.266,1.152,-190.627,96.285,-38.885
37825800,-0.819,-0.462,1.442,-202.965,73.587,-59.535
37825810,-0.859,-1.6,1.44,-177.835,34.615,-69.947
37825820,-1.106,-1.866,1.444,-127.172,-18.62,-87.605
37825830,0.075,-1.998,0.673,-48.125,-14.192,-53.865
37825830,0.143,-1.998,0.477,44.572,39.322,-40.582
37825850,-0.417,-1.991,0.209,119.542,45.237,-66.202
37825850,-0.556,-1.639,-0.209,177.695,23.327,-57.75
37825870,-0.557,-1.172,-0.185,164.692,-26.022,-46.69
37825870,-0.309,-0.959,-0.431,126.542,-109.497,-46.287
37825890,0.289,-0.374,-0.733,103.862,-160.947,-34.405
37825890,0.424,0.464,-0.643,16.52,-158.217,-23.31
37825910,0.322,0.457,-0.276,-122.85,-141.312,-29.155
37825910,0.422,0.166,0.158,-191.957,-118.23,-15.4
37825920,0.494,0.676,0.179,-150.605,-79.275,9.677
37825930,0.043,1.624,-0.043,-107.852,-76.265,14.262
37825940,-0.137,1.718,-0.131,-113.697,-108.745,14.805
37825950,-0.104,1.52,-0.142,-118.02,-138.302,35.77
37825960,-0.246,1.753,-0.282,-80.185,-163.03,60.27
37825970,-0.446,1.746,-0.479,-51.45,-197.767,74.147
37825980,-0.601,1.348,-0.579,-54.337,-233.415,84.402
37825990,0.101,-0.22,0.776,-92.96,-219.345,70.962
37826000,0.981,-1.998,0.101,53.182,220.08,-131.145
37826010,-1.853,1.263,0.088,550.497,200.182,-172.007
37826020,1.862,1.805,-0.342,467.232,133.752,91.822
37826030,-0.232,-1.739,1.963,186.34,127.557,108.64
37826040,-1.066,0.346,1.6,357.822,36.102,18.165
37826050,0.031,1.824,1.327,291.077,50.505,139.982
37826060,-0.987,0.029,1.931,72.1,27.965,42.157
37826070,-0.679,0.896,1.379,36.19,14.63,21.577
37826080,-0.234,0.053,1.243,-53.025,-4.585,-24.29
37826090,0.063,-0.245,0.942,-69.195,-4.532,-36.242
37826100,0.172,-0.343,0.921,-59.132,1.505,-27.16
37826110,0.208,-0.28,1.045,-54.687,9.537,-9.922
37826120,0.123,-0.063,1.073,-54.022,16.275,10.15
37826130,-0.027,-0.076,1.152,-74.165,19.95,21.805
37826140,-0.158,-0.006,1.182,-94.22,14.962,29.137
37826150,-0.155,-0.006,1.192,-125.387,6.492,31.29
37826160,-0.082,-0.051,1.186,-157.727,2.432,35.245
37826170,-0.091,-0.082,1.18,-188.335,-0.595,45.99
37826180,0.015,-0.128,1.158,-218.75,-4.97,58.065
37826190,0.063,-0.123,1.144,-242.077,-0.822,68.18
37826200,0.04,-0.6,1.206,-256.357,6.44,73.342
37826210,0.051,-0.013,1.322,-247.38,16.73,81.917
37826220,0.246,-1.502,1.598,-239.82,29.487,76.632
37826230,0.018,-1.87,1.724,-202.405,25.935,54.635
37826240,-0.259,-1.301,1.099,-71.82,22.487,23.66
37826250,-0.149,-0.947,1.068,21.49,62.16,26.25
37826260,-0.025,-1.166,0.924,77.28,71.19,34.475
37826260,0.356,-0.745,0.246,152.95,101.85,46.165
37826280,0.172,-0.193,-0.083,186.252,118.107,47.425
37826280,-0.052,-0.085,-0.522,165.252,86.187,18.585
37826300,0.14,0.049,-0.944,139.247,50.977,8.802
37826300,0.137,0.307,-0.986,76.72,29.96,0.507
37826320,0.053,0.072,-0.666,-25.112,3.36,-32.357
37826320,0.004,-0.243,-0.345,-96.127,-16.397,-60.777
37826330,-0.146,-0.128,-0.177,-94.955,-26.985,-65.222
37826340,-0.242,0.237,-0.167,-81.305,-37.887,-58.59
37826350,-0.348,0.579,-0.237,-90.457,-55.037,-35.385
37826360,-0.395,1.001,-0.454,-102.165,-85.085,-0.28
37826370,-0.227,1.654,-0.25,-112.892,-117.372,40.337
37826380,-1.998,-1.083,1.725,-235.357,-302.12,0.7
37826390,1.3,-1.81,0.23,355.25,-273.385,-60.252
37826400,-0.653,1.847,-1.263,556.832,95.305,116.585
37826410,-0.3,1.511,0.195,497.105,-60.06,-94.902
37826420,1.286,-1.956,1.939,284.567,-30.432,-55.737
37826430,0.08,0.624,1.509,458.027,-22.12,17.132
37826440,1.132,1.799,1.652,370.142,2.66,65.747
37826450,-0.175,0.986,1.974,146.282,62.212,83.755
37826460,-0.902,1.669,1.433,75.897,62.842,95.917
37826470,-0.966,0.468,1.292,-62.755,19.022,50.172
37826480,-0.74,-0.226,0.928,-105.805,-13.405,-11.025
37826490,-0.212,-0.451,0.777,-103.355,-33.827,-49.56
37826500,0.248,-0.392,0.895,-73.902,-32.515,-61.652
37826510,0.429,-0.259,0.988,-48.44,-11.83,-46.62
37826520,0.426,-0.192,1.05,-44.835,4.532,-13.405
37826530,0.081,-0.022,1.105,-44.537,18.882,14.91
37826540,-0.072,-0.02,1.138,-62.055,20.842,28.7
37826550,-0.262,0.055,1.186,-85.995,20.265,31.832
37826560,-0.281,0.162,1.235,-115.5,12.845,26.215
37826570,-0.253,0.151,1.251,-158.515,5.757,15.732
37826580,-0.101,0.052,1.188,-200.952,-0.647,9.992
37826580,-0.03,-0.077,1.11,-232.575,-0.612,11.882
37826600,-0.073,-0.217,1.102,-252.927,-3.92,18.427
37826600,-0.082,-0.678,1.253,-264.775,-7.717,32.55
37826620,-0.19,0.363,1.199,-247.572,8.802,52.412
37826620,0.288,-1.126,1.496,-240.292,28.63,52.552
37826640,-0.099,-1.76,1.756,-231.752,29.575,40.302
37826640,-0.697,-1.716,1.875,-80.132,8.032,3.307
37826660,-0.613,-1.413,1.088,71.697,-27.86,12.39
37826660,0.399,-0.854,-0.192,207.287,16.047,69.282
37826670,-0.11,-0.13,-0.156,163.187,62.177,77.857
37826680,-0.03,-0.661,0.003,96.057,22.505,33.197
37826690,0.22,-0.718,-0.136,101.01,4.375,18.672
37826700,0.321,-0.121,-0.43,121.8,5.302,-8.872
37826710,0.27,0.219,-0.597,92.662,4.147,-72.187
37826720,0.215,0.219,-0.451,17.43,11.112,-150.482
37826730,-0.04,0.04,-0.227,-39.567,18.987,-223.58
37826740,-0.463,0.001,-0.215,-50.26,10.867,-279.86
37826750,-0.932,0.315,-0.369,-53.602,-20.387,-308.42
37826760,-1.104,0.499,-0.501,-87.29,-47.162,-294.56
37826770,-1.204,0.634,-0.455,-131.477,-49.437,-236.442
37826780,-1.448,0.728,-0.163,-148.82,-56.175,-169.697
37826790,0.122,-0.209,1.936,-220.552,-1.33,-119.892
37826800,1.982,-1.998,-0.806,96.985,13.685,-175.735
37826810,0.039,0.645,0.898,533.54,123.83,-182.105
37826820,1.126,1.939,0.075,356.125,84.752,-99.33
37826830,1.262,-1.385,1.644,284.532,88.76,61.407
37826840,-0.196,-0.46,1.694,309.557,65.765,115.202
37826850,-0.155,1.563,1.46,343.07,77.035,178.92
37826860,-1.706,1.028,1.737,190.627,77.717,138.512
37826870,-1.673,1.146,1.43,90.352,35.77,74.322
37826880,-1.027,0.734,1.278,-6.685,-33.197,-11.602
37826890,-0.129,0.2,1.194,-83.527,-77.472,-51.607
37826900,0.409,-0.204,1.048,-90.702,-72.047,-59.15
37826910,0.584,-0.241,1.107,-89.6,-35.262,-45.78
37826920,0.556,-0.043,1.171,-91.455,1.067,-14.98
37826930,0.226,-0.033,1.225,-113.295,32.095,14.42
37826940,0.075,0.01,1.232,-144.532,39.585,34.842
37826950,-0.21,0.1,1.244,-184.03,28.245,48.877
37826960,0.242,-0.052,1.257,-225.452,2.817,61.495
37826970,0.159,-0.009,1.298,-265.58,11.2,81.2
37826980,0.147,-0.169,1.29,-295.75,8.05,105.315
37826990,0.045,-0.311,1.404,-332.955,-7.752,139.772
37827000,0.035,-1.044,1.319,-359.922,-50.452,176.645
37827010,-0.234,-1.123,1.574,-374.342,-88.707,191.905
37827010,-0.653,-1.087,1.122,-280.105,-137.917,191.87
37827030,-0.291,-0.236,1.195,-249.217,-187.95,194.985
37827030,-0.819,-1.26,1.055,-228.392,-224.332,195.072
37827050,-0.929,-0.94,0.698,-119.507,-198.52,167.475
37827050,-0.548,-0.807,1.175,-38.762,-81.62,209.597
37827060,0.327,-0.81,0.995,31.745,26.46,218.05
37827070,0.382,-0.22,0.485,173.932,98.42,189.525
37827080,0.46,0.375,-0.267,245.122,124.11,159.302
37827090,0.397,0.718,-1.036,241.622,111.142,133.91
37827100,0.149,1.034,-1.341,180.792,46.795,106.102
37827110,0.241,0.735,-1.098,54.285,-49.402,61.687
37827120,0.56,-0.063,-0.454,-57.015,-98.472,8.4
37827130,0.5,-0.488,-0.116,-62.947,-75.197,-51.065
37827140,-0.032,-0.442,-0.276,-8.995,-26.565,-109.637
37827150,-0.51,-0.421,-0.671,18.725,-0.297,-140.56
37827160,-0.61,-0.528,-0.942,6.055,-11.165,-145.845
37827170,-0.287,-0.675,-1.027,-26.565,-29.662,-130.865
37827180,-0.503,-0.779,0.131,-55.422,-23.87,-112.437
37827190,-1.919,-1.885,1.998,-76.65,-114.992,-126.192
37827200,0.842,-1.998,-0.827,337.61,-136.15,-54.302
37827210,-0.119,1.019,-0.061,571.952,116.2,98.927
37827220,-0.67,1.932,0.158,537.845,-36.102,-13.16
37827230,0.617,-1.194,1.725,391.93,-39.287,28.997
37827240,0.249,-0.537,1.998,476.455,-33.652,62.685
37827250,1.006,1.949,1.971,396.655,56.017,66.727
37827260,-1.444,1.997,1.116,164.08,91.875,27.422
37827270,-1.092,1.344,1.125,-23.047,20.422,35.087
37827280,-0.815,0.009,1.15,-111.965,-44.012,6.895
37827290,-0.105,-0.638,0.932,-118.807,-67.13,-17.535
37827300,-0.013,-0.602,0.919,-94.062,-63.49,-30.012
37827310,0.456,-0.295,0.913,-67.34,-50.785,-28.262
37827320,0.47,-0.366,0.941,-46.76,-26.285,-6.51
37827330,-0.001,-0.073,1.019,-27.545,-3.43,13.247
37827330,-0.131,0,1.078,-26.635,2.782,14.14
37827350,-0.162,0.131,1.197,-42.857,1.925,7.192
37827350,-0.01,0.287,1.252,-66.762,2.555,1.732
37827370,0.007,0.178,1.352,-106.75,7.052,2.327
37827370,-0.165,0.135,1.314,-150.937,7.227,10.692
37827390,-0.391,0.178,1.222,-203.385,-3.43,20.492
37827390,-0.382,0.157,1.149,-249.182,-24.272,25.34
37827410,-0.373,0.104,1.136,-279.667,-50.382,19.495
37827410,-0.448,0.025,1.091,-299.355,-68.075,5.057
37827420,-0.388,-0.681,1.187,-310.065,-79.94,-14.787
37827430,-0.584,0.495,1.202,-300.667,-94.885,-18.462
37827440,0.314,-1.137,1.6,-285.215,-125.562,-36.435
37827450,0.178,-1.839,1.46,-272.247,-102.917,-25.27
37827460,0.01,-1.998,1.145,-114.975,13.335,-34.842
37827470,-0.582,-1.897,0.981,14.962,113.312,-41.912
37827480,-0.363,-1.649,-0.002,132.177,165.357,-26.215
37827490,-0.361,-0.824,0.328,124.652,191.292,-0.332
37827500,-0.114,-0.855,0.275,81.935,159.74,-12.197
37827510,0.234,-0.639,0.213,100.94,148.732,-32.06
37827520,0.065,0.294,-0.247,116.97,157.657,-46.672
37827530,-0.168,1.232,-0.796,119.035,148.68,-68.88
37827540,-0.623,1.832,-0.892,50.085,113.61,-71.155
37827550,-0.472,1.736,-0.577,-52.57,39.9,-57.977
37827560,0.163,1.358,-0.138,-111.002,-3.657,-25.042
37827570,0.404,1.275,-0.176,-75.967,0.63,4.147
37827580,0.293,1.488,-0.646,-7.525,14.245,11.917
37827590,0.189,1.575,-0.974,1.925,13.895,15.085
37827600,0.191,1.005,-1.376,-21.822,6.877,21.227
37827610,-1.068,-1.125,1.841,-110.495,-52.22,-65.887
37827620,1.226,-1.261,0.255,229.967,-204.417,-391.107
37827630,-0.836,1.997,-1.26,572.687,140.77,-41.667
37827640,1.872,1.655,0.818,439.057,-37.887,-39.165
37827650,0.322,-1.987,1.998,193.077,-25.497,-13.405
37827660,0.941,0.968,1.912,394.66,54.932,153.65
37827670,-1.254,1.948,1.574,291.707,118.457,171.08
37827680,-1.57,1.438,1.491,-7.105,58.52,98.962
37827690,-0.773,0.666,1.232,-87.797,-30.625,34.912
37827700,-0.16,-0.169,1.054,-158.375,-52.92,-18.462
37827710,0.062,-0.466,0.929,-154.42,-42.892,-33.302
37827720,0.359,-0.429,0.864,-124.74,-25.445,-13.562
37827730,0.341,-0.474,1,-110.232,-8.12,12.145
37827740,0.188,-0.208,1.045,-99.89,-1.715,43.68
37827750,0.108,-0.102,1.038,-104.58,-2.1,66.167
37827750,0.001,-0.185,1.03,-118.3,-2.485,78.26
37827760,-0.172,-0.317,1.054,-133.682,-2.572,89.827
37827770,0.007,-0.15,1.157,-156.555,-3.22,103.827
37827780,0.045,-0.028,1.098,-178.08,-6.545,118.37
37827790,0.114,-0.284,1.158,-212.327,-14.752,132.142
37827800,0.149,-0.422,1.151,-234.657,-16.467,150.745
37827810,0.105,-0.622,1.147,-241.64,-14.157,163.887
37827820,-0.1,-0.216,1.183,-238.647,-9.695,175.192
37827830,0.035,-0.671,1.35,-208.617,-24.99,153.195
37827840,-0.281,-1.066,1.404,-214.322,-47.775,132.58
37827850,0.745,-0.789,1.335,-160.72,-56.262,98.84
37827860,0.019,-0.51,0.96,-95.515,-18.742,93.17
37827870,-0.214,-0.767,0.999,-56.647,25.147,73.85
37827880,0.323,-1.115,1.186,-13.877,46.707,53.445
37827890,1.069,-0.535,1.03,78.522,76.335,17.22
37827900,0.722,0.309,0.123,180.862,87.027,-52.867
37827910,0.201,0.973,-0.719,230.93,72.8,-125.842
37827920,-0.167,1.393,-1.482,203.437,33.267,-149.905
37827930,-0.416,1.623,-1.444,123.97,-11.13,-148.575
37827940,-0.539,1.217,-0.764,2.66,-44.17,-137.392
37827950,-0.323,0.554,-0.345,-34.212,-57.47,-119.752
37827960,-0.274,0.585,-0.499,22.015,-42.262,-94.115
37827970,-0.276,0.439,0.181,41.212,-29.89,-87.237
37827980,-1.799,-1.335,0.751,-16.765,-204.12,-108.22
37827990,0.452,-0.811,0.755,421.557,-10.797,-171.325
37828000,0.197,1.997,-0.911,561.907,62.195,59.78
37828010,0.958,1.73,0.784,324.695,-30.205,-26.372
37828020,0.129,-1.761,1.991,189.595,-55.3,-20.667
37828030,0.425,0.606,1.708,287.752,10.92,74.462
37828040,-0.068,1.68,1.506,190.137,63.262,93.992
37828050,-0.949,0.822,1.738,11.217,46.882,50.33
37828060,-0.624,1.024,1.334,-55.562,7.752,30.59
37828070,-0.441,0.038,1.11,-143.062,-14.98,-7.735
37828080,-0.328,-0.43,0.729,-145.687,-21.402,-36.89
37828080,0.007,-0.736,0.532,-109.34,-19.32,-48.055
37828100,0.143,-0.818,0.697,-54.022,-14.98,-50.05
37828100,0.386,-0.525,0.86,-12.81,-8.05,-34.002
37828120,0.447,-0.223,0.965,9.625,4.532,-3.255
37828120,0.125,-0.152,1.078,17.92,20.982,24.202
37828140,-0.116,-0.061,1.11,6.912,27.317,35.682
37828140,-0.205,0.056,1.109,-8.435,29.592,36.382
37828160,-0.305,0.206,1.19,-25.917,27.422,27.352
37828160,-0.31,0.192,1.308,-57.155,26.092,11.235
37828170,-0.268,0.211,1.306,-102.077,27.877,-4.252
37828180,-0.236,0.16,1.212,-145.162,26.162,-14.84
37828190,-0.178,-0.012,1.143,-182.052,21.315,-20.755
37828200,-0.167,-0.096,1.082,-203.752,16.695,-20.247
37828210,-0.164,-0.122,1.025,-210.332,14.315,-16.537
37828220,-0.201,-0.206,0.968,-211.995,10.36,-15.47
37828230,-0.246,-0.349,0.909,-210.525,5.127,-18.777
37828240,-0.337,-0.702,0.913,-205.222,-4.077,-23.992
37828250,-0.646,-0.117,1.094,-188.247,-16.765,-21.402
37828260,-0.463,-1.062,0.969,-131.897,-50.085,-27.072
37828270,-0.392,-1.204,1.016,-89.53,-58.415,-17.5
37828280,-0.089,-1.598,1.193,-19.04,-50.907,-12.722
37828290,-0.633,-1.74,1.166,68.337,-11.935,-25.007
37828300,-0.596,-1.456,0.391,193.847,41.877,-19.705
37828310,-0.379,-0.706,-0.173,247.397,93.345,13.352
37828320,-0.43,-0.453,-0.539,214.27,95.83,17.115
37828330,-0.223,-0.32,-0.669,175.017,84.752,17.99
37828340,-0.062,-0.196,-0.704,112.787,80.832,27.842
37828350,0.033,-0.16,-0.761,36.417,69.825,21.035
37828360,0.289,0.006,-0.868,-28.98,59.937,10.517
37828370,0.449,0.461,-0.616,-102.165,57.96,12.302
37828380,0.571,0.608,-0.357,-172.13,31.675,6.51
37828390,0.63,1.458,0.891,-202.02,-10.78,-2.222
37828400,-0.74,-0.645,0.971,-178.167,-327.932,-65.817
37828410,0.717,-1.896,0.863,472.29,-74.742,-114.362
37828420,-1.005,0.167,0.862,515.865,-15.697,-76.107
37828420,1.321,1.301,1.31,312.2,-54.285,-27.387
37828440,0.84,0.305,1.417,332.342,-54.285,23.712
37828440,0.811,0.543,1.969,257.985,-24.675,66.535
37828460,-0.045,1.132,1.789,176.155,48.65,116.042
37828460,-0.969,1.272,1.363,66.937,57.855,93.747
37828480,-0.912,0.547,1.186,-25.602,15.312,57.12
37828480,-0.729,0.036,1.007,-69.44,-19.092,4.532
37828500,-0.223,-0.305,0.919,-79.152,-38.202,-37.537
37828500,0.11,-0.295,0.97,-68.215,-38.902,-53.69
37828510,0.38,-0.165,1.087,-54.075,-18.585,-40.32
37828520,0.292,0.007,1.199,-60.375,8.907,-14.665
37828530,0.037,0.136,1.192,-78.33,30.537,6.895
37828540,-0.136,-0.01,1.145,-107.1,32.515,13.895
37828550,-0.175,-0.048,1.137,-133.262,27.72,13.737
37828560,-0.121,-0.003,1.144,-151.532,22.872,11.462
37828570,-0.146,0.007,1.15,-177.642,24.045,8.837
37828580,-0.102,-0.019,1.139,-200.515,26.88,10.447
37828590,-0.129,-0.086,1.098,-219.625,27.335,13.737
37828600,-0.123,-0.124,1.065,-233.73,23.992,16.362
37828610,-0.14,-0.216,1.03,-240.782,24.027,17.132
37828620,-0.217,-0.259,1.047,-228.69,20.492,15.907
37828630,-0.22,-0.424,0.872,-206.867,19.845,9.572
37828640,-0.421,-0.422,1.073,-219.625,8.855,-9.852
37828650,-0.624,-0.528,1.254,-192.185,-6.422,0.787
37828660,-0.433,-0.787,1.154,-136.517,-46.182,-4.987
37828670,0.02,-0.719,1.069,-78.785,-57.75,-8.155
37828680,0.034,-0.136,1.402,-19.11,-12.74,-8.382
37828690,-0.453,-0.141,1.539,70.262,29.627,-20.37
37828700,-0.433,0.23,0.377,221.27,64.662,-8.872
37828710,-0.419,1.097,-0.782,304.097,106.942,47.232
37828720,-0.514,1.59,-1.863,273.787,86.59,75.285
37828730,-0.122,1.908,-1.867,164.71,41.72,81.55
37828740,0.483,1.479,-0.992,-9.502,-3.412,66.71
37828750,1.113,0.73,-0.117,-82.88,-36.837,18.69
37828760,0.591,0.185,1.423,-36.137,-50.697,-45.5
37828770,-0.81,-1.998,0.146,39.095,-324.345,-284.795
37828780,-0.489,-1.032,0.777,449.067,-55.562,-353.395
37828790,-0.213,1.997,-1.049,562.87,-12.372,-95.287
37828800,1.961,0.428,1.12,320.792,-91.332,-59.937
37828810,0.056,-1.396,1.998,249.707,-60.305,-62.282
37828820,1.399,1.654,1.856,355.88,58.887,126.192
37828830,-1.643,1.764,1.512,166.092,117.407,111.51
37828830,-1.704,1.777,1.021,44.082,51.292,83.562
37828850,-0.952,0.522,1.203,-72.065,-44.082,0.227
37828850,0.147,-0.11,1.063,-114.747,-79.992,-51.082
37828870,0.473,-0.769,0.924,-100.52,-60.287,-64.242
37828870,0.491,-0.429,0.902,-70.157,-28.49,-40.162
37828890,0.412,-0.165,0.962,-43.995,0.192,1.505
37828890,-0.068,-0.139,1.007,-30.117,18.427,29.435
37828910,-0.185,-0.153,1.029,-26.88,18.252,33.635
37828910,-0.185,-0.104,1.082,-31.57,14.035,26.005
37828920,-0.139,-0.006,1.146,-44.362,8.662,21.717
37828930,-0.083,-0.022,1.21,-65.835,2.082,21.717
37828940,-0.135,-0.128,1.249,-92.295,-6.72,26.39
37828950,-0.025,-0.44,1.322,-121.45,-10.272,33.512
37828960,0.369,-0.976,1.359,-148.802,13.387,51.625
37828970,0.463,-1.488,1.647,-139.807,69.23,80.657
37828980,0.004,-1.588,1.636,-91.875,79.957,65.03
37828990,-1.732,-1.959,1.432,0.087,-18.235,-21.122
37829000,0.193,-1.998,-0.214,89.687,-69.912,-86.712
37829010,-1.469,-1.756,-0.487,106.942,-6.562,-29.067
37829020,-0.954,-1.481,0.035,14.84,-16.17,-26.495
37829030,-0.043,-1.851,0.702,-151.917,-6.37,44.992
37829040,0.666,-1.714,0.893,-165.2,13.282,73.132
37829050,0.602,-0.538,0.602,-132.037,34.142,63.507
37829060,0.343,0.075,-0.079,-174.055,24.08,31.85
37829070,0.337,0.902,-0.238,-225.837,-3.272,-20.142
37829080,-0.383,1.654,-0.163,-275.082,-27.807,-57.942
37829090,-0.491,1.962,-0.536,-267.802,-57.155,-75.757
37829100,-0.41,1.997,-1.058,-224,-27.352,-36.26
37829110,-0.172,1.997,-1.649,-171.745,8.995,22.032
37829120,-1.391,0.889,1.878,-219.345,-93.45,28.56
37829130,1.829,-1.987,-0.875,257.617,-210.857,-203.472
37829140,-1.74,-0.137,0.861,555.975,118.492,-116.602
37829150,1.368,1.997,0.485,472.692,12.722,-17.92
37829160,0.997,-0.778,1.917,378.122,9.852,105.297
37829170,-0.109,1.589,1.908,305.83,102.9,119.28
37829170,-1.572,1.995,1.471,170.8,105.927,127.785
37829190,-1.266,1.066,1.434,-51.485,26.985,90.65
37829190,-0.612,0.344,1.174,-121.275,-29.557,25.007
37829210,-0.275,-0.384,0.944,-154.875,-38.657,-27.562
37829210,0.001,-0.342,0.93,-136.797,-37.065,-53.847
37829230,0.484,-0.21,1.027,-118.142,-26.145,-48.055
37829230,0.495,-0.292,1.07,-120.137,2.975,-29.645
37829250,0.226,-0.171,1.036,-126.682,27.772,-3.85
37829250,0.11,-0.173,1.017,-137.007,32.987,19.145
37829260,0.037,-0.227,1.087,-149.677,29.82,30.45
37829270,0.06,-0.164,1.122,-163.992,30.922,39.97
37829280,-0.033,-0.031,1.16,-184.555,35.297,53.462
37829290,0.038,0.083,1.29,-214.147,37.257,65.52
37829300,0.091,-0.531,1.242,-246.365,41.51,75.162
37829310,0.062,0.293,1.321,-256.917,44.73,72.362
37829320,-0.033,-0.565,1.444,-275.065,71.645,82.162
37829330,-0.08,-1.172,1.956,-318.902,94.92,77.805
37829340,-0.506,-1.317,1.67,-250.32,36.837,66.465
37829350,0.085,-0.079,0.848,-145.39,-30.345,47.11
37829360,-0.408,0.718,0.96,-107.485,-27.422,82.005
37829370,0.303,1.02,1.79,-110.932,-30.887,93.31
37829380,0.639,1.703,1.511,27.055,-53.9,118.527
37829390,1.068,1.997,0.744,200.742,-65.625,113.295
37829400,0.644,1.935,0.76,214.427,-71.557,68.232
37829410,0.43,0.813,-0.101,224.35,-92.172,26.005
37829420,0.248,0.331,-0.854,275.24,-99.137,-2.485
37829430,-0.438,-0.405,-0.321,163.537,-86.712,-53.795
37829440,-0.781,-1.857,-0.133,57.19,-80.412,-84.595
37829450,-1.042,-1.804,-0.603,110.687,-69.685,-108.535
37829460,-1.603,-1.481,-0.81,103.67,-60.41,-132.825
37829470,-1.918,-1.942,-0.935,29.032,-55.282,-136.71
37829480,-1.998,-1.872,0.573,-14.367,-52.097,-99.767
37829490,-0.48,-1.998,0.485,1.417,-141.295,-154.332
37829500,0.836,-0.744,0.686,446.67,-38.185,-205.17
37829510,-0.495,1.997,0.028,508.585,13.142,-165.847
37829520,1.942,0.345,1.172,331.432,-23.135,-64.085
37829530,1.199,-0.976,1.998,272.807,62.562,0.087
37829540,0.134,1.479,1.696,297.92,167.195,77.927
37829550,-1.963,1.869,1.071,130.165,157.762,90.405
37829560,-1.68,1.252,0.986,5.162,37.572,43.75
37829570,-0.337,0.135,1.075,-70.997,-58.992,-25.27
37829580,0.441,-0.484,1.054,-84.63,-68.652,-53.252
37829580,0.467,-0.484,0.939,-61.932,-36.4,-30.485
37829600,0.351,-0.382,0.926,-33.46,-3.43,-0.787
37829600,-0.006,-0.201,0.956,-5.845,20.597,20.527
37829620,-0.36,-0.022,1.047,5.022,24.71,20.387
37829620,-0.261,0.258,1.13,-4.445,13.072,5.897
37829640,-0.108,0.249,1.223,-33.722,4.655,-5.32
37829640,-0.091,0.242,1.299,-68.022,4.585,-8.487
37829660,0.086,0.213,1.388,-108.78,1.277,-1.907
37829660,-0.011,0.153,1.379,-158.235,-0.857,9.66
37829670,-0.122,0.118,1.246,-211.82,-4.742,28.315
37829680,-0.298,0.171,1.173,-251.247,-15.085,45.815
37829690,-0.318,0.099,1.145,-276.64,-36.05,53.847
37829700,-0.285,-0.279,1.184,-294.017,-24.36,52.517
37829710,-0.244,-0.555,1.218,-284.41,-4.952,43.907
37829720,-0.21,-1.05,1.161,-250.512,-6.947,19.005
37829730,0.009,-1.555,1.214,-172.567,15.61,-18.165
37829740,-0.262,-1.99,1.361,-55.002,93.677,-57.295
37829750,-0.208,-1.177,0.567,71.242,151.952,-70.735
37829760,-0.184,-0.222,0.335,131.162,140,-70.84
37829770,-0.069,-0.308,0.337,64.47,104.422,-114.03
37829780,-0.191,-0.44,0.093,56.315,80.552,-135.975
37829790,-0.65,-0.062,-0.392,82.53,63.332,-148.242
37829800,-1.313,0.209,-0.555,45.692,36.785,-142.975
37829810,-1.502,0.164,-0.395,-36.137,4.392,-96.792
37829820,-0.719,0.135,-0.344,-80.43,15.032,-3.412
37829830,-0.162,0.661,-0.63,-39.672,51.24,77.262
37829840,0.162,1.538,-1.194,20.405,60.847,102.9
37829850,0.357,1.996,-1.636,19.547,41.755,118.002
37829860,0.728,1.996,-0.734,-25.742,6.527,116.865
37829870,-0.516,-1.025,0.976,-198.747,-276.902,-61.04
37829880,-0.014,-1.095,0.939,372.592,-129.185,-394.432
37829890,-0.426,1.997,-0.987,567.122,-25.165,-114.625
37829900,1.984,0.883,1.438,326.235,-132.177,52.062
37829910,0.981,-0.458,1.997,200.935,3.01,19.162
37829920,-0.986,1.997,1.101,285.11,145.11,150.167
37829920,-1.252,1.606,1.081,-3.307,63.525,148.487
37829940,-1.006,0.092,1.318,-131.6,-39.567,71.347
37829940,-0.104,-0.432,0.881,-123.987,-62.615,14.98
37829960,-0.07,-0.68,0.962,-120.347,-53.06,-27.09
37829960,0.478,-0.276,0.892,-75.705,-38.867,-31.902
37829980,0.602,-0.32,1.013,-63.105,-11.532,-14.805
37829980,0.179,-0.083,1.109,-48.23,16.24,6.807
37830000,0.123,0.009,1.106,-52.237,29.592,18.287
37830000,-0.065,-0.064,1.16,-71.155,34.422,22.067
37830010,-0.173,0.007,1.249,-91.735,30.677,26.95
37830020,-0.167,0.165,1.254,-128.467,18.917,34.457
37830030,-0.155,0.194,1.254,-176.557,8.592,49.385
37830040,-0.206,-0.017,1.179,-224.385,0.385,63.665
37830050,-0.118,-0.029,1.196,-260.295,-10.99,73.745
37830060,-0.305,0.07,1.196,-276.412,-17.097,84.665
37830070,-0.285,-0.27,1.286,-293.667,-20.457,83.037
37830080,-0.262,-0.659,1.641,-308.017,2.187,84.805
37830090,-0.032,-1.398,1.562,-239.557,-22.172,56.98
37830100,-0.198,-1.893,1.635,-157.85,-38.99,17.447
37830110,-0.316,-1.211,1.38,-26.127,28.035,31.22
37830120,-0.582,-0.488,0.007,111.37,46.655,77.98
37830130,0.218,0.511,-0.453,123.515,52.587,120.417
37830140,0.822,0.266,0.044,-12.652,18.55,117.285
37830150,1.5,-0.242,0.452,-72.152,-17.902,48.037
37830160,1.375,0.404,0.361,-15.96,-13.912,-30.205
37830170,0.55,1.173,-0.034,33.932,-23.31,-119.962
37830180,-0.32,1.336,-0.315,25.882,-58.537,-183.452
37830190,-0.883,1.1,-0.375,-6.23,-82.845,-172.095
37830200,-1.172,0.924,-0.458,-8.977,-83.912,-117.81
37830210,-1.174,0.688,-0.553,-2.905,-66.797,-66.412
37830220,-0.832,-0.138,-0.407,10.482,-30.625,-25.655
37830230,-1.666,0.877,-0.303,53.917,-8.697,35.087
37830240,0.759,-1.846,1.58,-53.165,-50.855,-30.555
37830250,-0.231,-0.989,0.118,196.245,11.69,-345.485
37830260,-0.805,1.997,-0.915,568.995,48.58,-131.652
37830270,1.998,1.097,0.555,353.255,33.915,17.727
37830280,-0.596,-1.965,1.998,163.992,31.797,-79.257
37830290,1.333,1.084,1.435,434.035,83.597,83.107
37830300,-0.57,1.269,1.806,286.23,141.627,108.885
37830310,-1.798,1.366,1.565,108.132,110.6,68.775
37830320,-1.265,1.239,1.074,35.7,23.275,24.15
37830330,-0.49,0.127,1.187,-88.34,-44.765,-42.962
37830330,0.279,-0.508,0.886,-82.215,-59.71,-66.43
37830350,0.573,-0.639,0.922,-64.575,-35.91,-54.39
37830350,0.537,-0.153,0.951,-22.907,1.242,-17.797
37830370,0.126,-0.145,1.075,-13.72,33.582,9.852
37830370,-0.209,0.094,1.145,-12.88,44.572,18.27
37830390,-0.216,0.175,1.207,-33.845,39.707,8.365
37830390,-0.181,0.165,1.281,-63.787,37.59,-4.217
37830410,-0.173,0.216,1.339,-101.815,40.267,-11.112
37830410,-0.151,0.236,1.351,-153.58,40.197,-8.4
37830420,-0.18,0.187,1.281,-215.005,29.102,4.252
37830430,-0.295,0.161,1.252,-264.25,11.13,20.825
37830440,-0.258,0.158,1.279,-290.657,-11.13,33.407
37830450,-0.491,0.011,1.355,-323.015,-18.392,33.967
37830460,-0.703,-0.375,1.561,-356.055,-33.285,18.48
37830470,-1.002,-1.098,1.762,-346.587,-73.115,-7.63
37830480,-0.638,-1.678,1.386,-226.362,-106.662,-9.782
37830490,0.269,-1.976,0.888,-21.787,-25.69,2.66
37830500,-1.092,-0.869,0.228,109.13,67.567,5.862
37830510,-0.46,-0.099,-0.305,156.677,78.54,26.74
37830520,-0.055,-0.158,0.02,59.762,56.07,35.192
37830530,0.353,-0.496,0.013,38.43,26.39,4.532
37830540,0.348,-0.037,-0.304,82.967,41.02,-4.742
37830550,0.077,0.401,-0.478,64.452,58.292,-21.612
37830560,-0.109,0.256,-0.38,1.05,44.292,-50.732
37830570,-0.122,-0.035,-0.179,-42.332,19.652,-63.892
37830580,-0.11,-0.117,-0.081,-48.02,6.597,-59.552
37830590,-0.239,-0.035,-0.179,-40.705,2.642,-56.612
37830600,-0.353,0.16,-0.299,-39.69,0.752,-47.897
37830610,-0.33,0.411,-0.38,-57.102,1.33,-24.29
37830620,-0.243,0.73,-0.429,-76.072,-4.13,4.69
37830630,-0.15,1.012,-0.436,-85.837,-12.425,25.83
37830640,-1.032,-0.235,1.998,-205.1,-103.95,-5.18
37830650,1.633,-1.998,-0.737,156.607,-322.472,-236.232
37830660,-1.169,0.575,0.358,564.725,90.86,-170.765
37830670,1.095,1.987,0.208,496.877,-30.887,-87.185
37830670,1.515,-0.629,1.552,319.182,-4.06,10.045
37830690,0.632,-0.431,1.997,374.92,19.197,40.302
37830690,0.034,1.881,1.928,346.097,115.517,158.672
37830710,-1.841,1.583,1.57,164.185,113.015,107.957
37830710,-1.546,1.293,1.115,28.997,34.142,54.425
37830730,-0.686,0.22,1.124,-73.482,-46.147,-22.347
37830730,0.097,-0.219,1.022,-98.49,-74.252,-52.972
37830750,0.377,-0.246,1.037,-87.202,-60.865,-49.752
37830750,0.578,-0.205,1.062,-80.272,-29.872,-28.385
37830760,0.268,-0.096,1.118,-76.685,4.34,-1.715
37830770,0.022,0,1.146,-85.207,19.39,16.03
37830780,-0.158,-0.032,1.167,-102.742,20.212,19.652
37830790,-0.216,-0.005,1.214,-125.842,14.98,22.382
37830800,-0.184,0.138,1.222,-159.407,6.23,26.477
37830810,-0.079,0.102,1.212,-198.8,-9.712,34.142
37830820,0.008,0.008,1.209,-239.435,-21.227,50.295
37830830,-0.102,-0.043,1.2,-270.672,-29.102,67.795
37830840,-0.289,-0.121,1.172,-289.31,-43.242,79.52
37830850,-0.421,-0.561,1.527,-312.672,-53.112,90.195
37830860,-0.395,-0.226,1.681,-290.535,-77.752,95.427
37830870,-0.021,-1.847,1.742,-248.535,-135.975,51.555
37830880,-0.2,-1.489,1.135,-146.265,-109.497,53.515
37830890,-0.67,-0.893,1.029,-25.305,-56.28,74.672
37830900,-1.033,-1.008,0.552,47.25,-19.705,119.472
37830910,0.241,-0.702,0.487,106.487,54.862,185.622
37830920,0.398,-0.462,0.125,121.712,73.71,189.42
37830930,0.528,-0.307,0.031,134.137,66.92,139.667
37830940,0.537,-0.287,-0.249,126.577,58.625,100.17
37830950,0.664,-0.076,-0.74,126.42,49.472,49.402
37830960,0.526,0.305,-0.832,85.137,46.217,-6.825
37830970,0.285,0.355,-0.51,-7.472,26.075,-73.745
37830980,0.246,0.301,-0.173,-66.43,-11.48,-127.82
37830990,0.145,0.606,-0.121,-58.222,-34.772,-162.417
37831000,-0.099,0.954,-0.26,-36.12,-44.485,-190.732
37831010,-0.456,1.029,-0.41,-38.36,-44.275,-203.84
37831020,-0.91,1.09,-0.501,-46.725,-56.105,-195.317
37831030,-1.188,0.927,-0.439,-65.38,-89.985,-164.045
37831040,-0.388,-0.994,1.988,-200.34,-68.127,-175.472
37831050,0.534,-1.437,-1.26,177.73,56,-277.812
37831060,-0.698,1.997,-0.359,563.955,83.667,-68.565
37831070,1.99,1.458,0.324,340.567,64.067,-3.342
37831080,-0.489,-1.921,1.981,155.382,45.71,-73.535
37831080,0.81,0.553,1.392,437.342,53.9,66.36
37831100,-0.031,1.396,1.708,348.442,111.457,124.705
37831100,-1.464,0.777,1.772,149.292,106.925,71.47
37831120,-1.498,1.645,1.042,99.295,45.01,39.34
37831120,-0.723,0.493,1.242,-49.455,-35.035,-17.745
37831130,-0.114,0.093,1.063,-82.67,-67.707,-45.5
37831140,0.278,-0.348,1.068,-94.097,-64.26,-46.235
37831150,0.304,-0.122,1.068,-83.037,-42.28,-29.452
37831160,0.32,-0.134,1.04,-79.59,-17.447,-8.977
37831170,0.083,-0.137,1.087,-83.107,3.185,3.692
37831180,0.031,-0.029,1.128,-83.352,9.835,15.085
37831190,-0.054,-0.033,1.181,-101.85,8.61,20.58
37831200,-0.045,0.013,1.197,-128.397,-0.857,29.54
37831210,0.011,0.061,1.138,-159.792,-9.31,42.665
37831220,-0.066,-0.013,1.101,-188.965,-20.072,55.195
37831230,0.051,-0.225,1.081,-210.927,-38.377,71.225
37831240,-0.204,-0.142,1.177,-231.647,-47.232,93.835
37831250,-0.412,-0.165,1.263,-247.975,-70.35,116.777
37831260,-0.132,-0.835,1.62,-268.117,-77.437,139.055
37831270,-0.583,-1.283,1.15,-233.607,-96.547,155.347
37831280,-0.377,-1.998,1.468,-83.947,-140.122,97.02
37831290,-0.59,-1.998,1.191,-16.94,-25.672,71.767
37831300,-1.785,-1.025,0.244,160.212,90.212,136.85
37831310,-0.257,-0.254,0.392,132.807,108.727,158.725
37831320,0.263,-0.737,0.425,22.277,102.795,166.215
37831330,0.575,-0.1,0.305,33.74,95.095,148.05
37831340,0.541,0.874,-0.258,32.637,88.917,144.585
37831350,0.787,1.784,-0.703,-4.69,70.682,117.81
37831360,0.533,1.997,-0.76,-72.782,32.427,67.235
37831370,0.323,1.997,-0.628,-123.375,-33.005,-7.017
37831380,0.427,1.997,-0.461,-108.272,-43.89,-47.757
37831390,-0.171,1.997,-0.333,-44.957,-12.775,-62.807
37831400,-0.601,1.997,-0.5,21.647,-7.822,-57.417
37831410,-0.427,0.415,0.116,58.17,31.762,-34.3
37831420,-0.212,-1.998,0.882,5.232,-208.32,-287.822
37831420,-1.245,0.572,0.068,482.615,75.127,-265.965
37831440,1.824,1.997,-1.003,544.512,-41.44,-75.267
37831440,1.594,-0.999,1.851,220.797,-71.12,-53.182
37831460,1.14,0.618,1.873,304.675,125.352,91.612
37831460,-1.652,1.997,1.01,348.985,206.657,165.55
37831480,-1.997,1.703,0.938,20.947,83.387,102.777
37831480,-0.601,0.245,1.144,-69.825,-55.545,-7.612
37831500,0.274,-0.141,1.093,-104.265,-81.06,-36.575
37831500,0.279,-0.325,1.079,-97.335,-56.21,-28.665
37831510,0.607,-0.264,1.094,-85.487,-25.97,-10.832
37831520,0.352,-0.034,1.151,-87.745,5.39,15.207
37831530,0.123,-0.142,1.165,-97.79,22.662,34.877
37831540,-0.071,-0.214,1.145,-111.702,33.232,36.557
37831550,-0.036,-0.038,1.174,-120.54,37.52,38.99
37831560,0.005,0.089,1.221,-147.175,40.722,39.9
37831570,0.008,0.027,1.224,-181.685,45.517,50.05
37831580,0.115,0.059,1.274,-225.312,46.2,74.217
37831590,0.095,0.057,1.236,-263.147,49.332,94.78
37831600,-0.093,-0.167,1.184,-286.142,50.907,94.237
37831610,-0.297,-0.5,1.38,-309.295,48.79,81.007
37831620,-0.236,-0.611,1.606,-329.297,52.867,80.85
37831630,-0.184,-0.987,1.573,-298.847,18.812,72.747
37831640,-0.065,-0.564,1.69,-254.415,-42.14,28.612
37831650,0.079,0.111,1.329,-201.565,-14.735,70.542
37831660,0.353,0.009,1.683,-160.877,10.727,77
37831670,1.04,0.474,1.759,-82.46,16.17,38.115
37831680,1.066,1.525,1.131,82.145,53.83,7.945
37831690,0.338,1.997,-0.081,231.682,57.837,-52.552
37831700,-0.16,1.997,-0.721,260.382,32.55,-79.87
37831710,-0.33,1.757,-0.756,192.78,-2.677,-83.895
37831720,-0.363,0.922,-0.493,133.35,-30.38,-94.885
37831730,-0.47,0.236,-0.23,119.7,-35.945,-105.157
37831740,-0.481,-0.252,-0.323,136.85,-30.607,-108.412
37831750,-0.517,-0.339,-0.531,155.172,-19.04,-107.59
37831760,-0.668,-0.453,-0.681,136.78,-9.415,-112.525
37831770,-1.056,-1.008,0.916,86.52,-24.465,-119.472
37831780,-0.123,-1.998,0.487,-16.607,-188.352,-315.525
37831790,-1.294,-0.696,0.388,439.11,96.477,-301.385
37831800,0.328,1.997,-0.794,546.105,-112.28,-176.067
37831800,1.998,0.925,1.165,230.65,-112.49,-14.91
37831820,0.345,-1.444,1.998,168.665,-36.032,-88.217
37831820,0.657,1.869,1.298,289.905,120.522,100.257
37831830,-1.628,1.673,0.98,83.352,125.002,100.275
37831840,-1.549,0.653,1.108,-54.022,29.61,49.84
37831850,-0.398,-0.054,1.104,-85.54,-46.182,-7.822
37831860,0.258,-0.605,0.983,-95.532,-58.205,-47.477
37831870,0.347,-0.431,0.932,-70.752,-33.267,-40.25
37831880,0.421,-0.26,0.934,-45.167,-4.55,-13.09
37831890,0.156,-0.167,0.981,-25.445,20.317,9.94
37831900,-0.106,-0.081,1.051,-16.31,28.822,23.712
37831910,-0.177,0.023,1.122,-17.43,27.055,22.732
37831920,-0.164,0.141,1.199,-28.262,23.852,16.8
37831930,-0.175,0.195,1.209,-54.827,24.097,14.315
37831940,-0.118,0.157,1.207,-86.835,24.937,14.892
37831950,-0.143,0.074,1.237,-124.512,21.91,21.595
37831960,-0.186,-0.01,1.273,-164.255,7.28,37.047
37831970,-0.299,-0.087,1.301,-202.545,7.63,61.057
37831980,-0.153,-0.377,1.244,-217.262,15.802,82.39
37831990,-0.002,-0.404,1.303,-215.705,25.9,96.862
37832000,-0.309,-0.818,1.459,-187.25,20.86,93.1
37832010,-0.669,-1.768,1.586,-126.227,18.025,53.742
37832020,-1.647,-1.967,1.495,-10.482,54.232,38.92
37832030,-0.62,-1.186,0.069,128.625,51.905,84.385
37832040,0.412,-0.502,-0.193,123.742,53.515,105.07
37832050,0.448,-0.768,0.222,-3.71,51.905,49.227
37832060,0.222,-1.025,0.371,-38.762,34.685,-17.395
37832070,0.071,-0.456,0.012,-9.03,22.802,-49.98
37832080,0.036,0.192,-0.475,-24.85,14.927,-76.335
37832090,-0.119,0.556,-0.553,-85.225,7.525,-102.55
37832100,-0.347,0.637,-0.303,-144.41,-5.722,-113.277
37832110,-0.388,0.684,-0.134,-167.51,-19.897,-95.935
37832120,-0.217,1.027,-0.163,-156.852,-16.135,-60.13
37832130,-0.13,1.572,-0.4,-136.727,8.505,-16.992
37832140,-0.665,1.967,0.54,-115.885,19.862,18.165
37832150,-1.358,-0.447,1.254,-158.812,-262.99,-12.162
37832160,1.46,-1.998,1.057,351.872,-195.492,-143.92
37832170,-1.918,0.935,0.445,487.532,31.167,-70.297
37832170,1.669,1.797,0.68,373.94,-86.625,-3.08
37832190,0.92,-0.358,1.773,189.052,-38.552,38.5
37832190,0.339,-0.056,1.741,264.285,-46.637,31.815
37832210,0.724,1.28,1.567,192.535,9.905,154.35
37832210,-0.656,0.528,1.686,88.095,27.702,139.055
37832230,-0.705,0.69,1.418,6.545,26.967,138.04
37832230,-0.846,0.507,1.191,-58.38,14.35,75.757
37832250,-0.766,0.045,1.084,-114.852,5.075,8.015
37832250,-0.388,-0.012,1.004,-131.18,-3.727,-37.38
37832260,0.067,-0.098,1.058,-142.52,-5.827,-54.18
37832270,0.242,-0.124,1.108,-149.047,-0.087,-47.355
37832280,0.238,-0.109,1.099,-160.16,6.685,-25.375
37832290,0.126,-0.182,1.061,-176.155,10.692,-1.837
37832300,0.042,-0.27,1.067,-191.205,11.462,17.587
37832310,0.061,-0.324,1.117,-208.162,11.357,35.787
37832320,0.129,-0.345,1.123,-224.507,16.1,54.337
37832330,-0.023,-0.104,1.243,-234.342,14.315,74.427
37832340,0.184,-0.299,1.172,-238.595,10.745,84.927
37832350,-0.219,-0.599,1.562,-272.825,3.605,95.322
37832360,-0.326,-1.145,1.981,-269.255,-30.922,103.967
37832370,-0.097,-1.397,1.912,-211.68,-95.165,89.67
37832380,0.35,-0.648,1.061,-111.825,-112.14,78.33
37832390,-0.258,-0.345,1.477,-40.127,-38.902,112.087
37832400,0.185,-0.829,0.941,15.172,-40.985,92.54
37832410,0.615,-0.129,0.654,110.565,28.997,101.167
37832420,0.288,0.558,0.111,138.25,61.775,86.52
37832430,0.256,0.902,-0.226,144.62,45.955,32.357
37832440,0.246,1.049,-0.405,117.617,39.865,8.12
37832450,0.186,0.985,-0.28,78.715,34.685,-16.992
37832460,0.109,0.589,-0.025,49.367,22.12,-48.422
37832470,0.097,0.189,0.017,50.155,14.017,-76.09
37832480,-0.021,0.016,-0.136,70.367,15.96,-103.915
37832490,-0.288,-0.062,-0.275,75.267,17.307,-136.377
37832500,-0.516,-0.228,-0.363,60.322,9.45,-163.24
37832510,-0.663,-0.278,-0.476,47.18,-4.637,-179.34
37832510,-0.713,-0.276,-0.557,27.58,-10.727,-176.907
37832530,-0.684,-0.7,-0.524,0.98,-4.515,-154.857
37832530,-1.157,-0.538,0.238,-5.04,15.347,-121.817
37832550,-1.194,-1.998,0.6,-9.31,-227.972,-227.552
37832550,1.253,0.321,0.725,448,-70.962,-267.435
37832570,0.385,1.997,-1.182,559.982,50.365,-9.59
37832570,1.163,0.943,1.212,265.492,-3.465,-103.722
37832580,0.432,-1.893,1.998,187.215,-7.525,-43.312
37832590,1.053,1.547,1.344,384.3,49.105,115.5
37832600,-0.399,1.197,1.687,216.527,99.68,127.33
37832610,-1.529,1.022,1.578,60.34,77.752,89.46
37832620,-1.042,0.971,1.109,6.212,10.657,52.237
37832630,-0.479,-0.118,1.13,-90.072,-37.835,-15.365
37832640,0.067,-0.223,0.903,-87.377,-49.332,-33.652
37832650,0.297,-0.367,0.961,-78.172,-42.087,-22.575
37832660,0.355,-0.197,0.972,-58.205,-24.167,0.157
37832670,0.139,-0.183,0.987,-48.545,-8.995,23.432
37832680,-0.084,-0.094,1.056,-44.712,-5.967,40.46
37832690,-0.1,0.026,1.123,-51.8,-8.295,46.375
37832700,-0.097,0.081,1.195,-72.852,-10.045,44.1
37832710,-0.117,0.146,1.232,-99.067,-10.832,42.227
37832720,-0.152,0.155,1.299,-136.465,-15.907,43.89
37832730,-0.122,0.015,1.278,-185.99,-23.432,48.212
37832740,-0.007,-0.116,1.196,-232.26,-31.097,59.202
37832750,0.034,-0.121,1.107,-262.36,-33.827,72.817
37832760,-0.038,-0.064,1.156,-282.572,-40.775,79.432
37832770,-0.206,-0.523,1.454,-302.785,-35.665,94.325
37832780,0.188,-0.639,1.544,-254.117,-63.647,98.91
37832790,0.39,-1.74,1.743,-227.465,-96.845,54.285
37832800,0.014,-1.587,1.425,-139.545,-76.037,42.927
37832810,-0.208,-0.737,1.079,-22.872,-27.825,42.857
37832820,0.018,-0.909,0.719,33.11,27.195,67.76
37832830,-0.045,-0.285,0.46,68.092,66.167,57.697
37832840,-0.109,0.181,0.252,87.622,66.902,49.21
37832850,-0.009,0.434,0,87.132,48.597,30.555
37832860,-0.033,0.759,-0.183,80.85,41.982,12.985
37832870,-0.129,0.998,-0.247,55.755,36.802,-3.605
37832880,-0.155,0.979,-0.188,25.445,30.187,-14.84
37832890,-0.176,0.899,-0.075,2.415,25.9,-16.712
37832900,-0.184,0.697,-0.086,-1.785,24.22,-14.175
37832910,-0.236,0.584,-0.192,10.167,26.337,-6.86
37832920,-0.383,0.481,-0.41,13.877,15.785,-0.122
37832920,-0.331,0.156,-0.557,-1.33,-3.902,5.897
37832940,-0.141,-0.424,-0.862,-24.377,-0.052,6.002
37832940,0.513,-1.508,1.025,-66.185,84.857,-24.815
37832960,-1.346,-1.998,0.967,-78.487,-126.402,-215.267
37832960,-0.4,0.136,0.012,476.367,-33.11,-226.485
37832980,0.734,1.997,-0.711,482.772,-23.625,6.86
37832980,1.339,1.131,1.173,227.657,14.665,22.61
37833000,-0.449,-1.943,1.998,278.25,-33.162,-70.385
37833000,1.266,0.967,1.491,337.61,40.985,102.497
37833010,-0.625,1.413,1.616,267.54,89.005,122.272
37833020,-1.593,0.834,1.694,86.747,72.695,65.94
37833030,-1.203,0.962,1.132,23.94,11.917,21.262
37833040,-0.51,0.116,1.146,-74.042,-42.892,-42.7
37833050,0.187,-0.229,0.915,-81.777,-62.212,-68.775
37833060,0.376,-0.426,0.875,-61.092,-40.092,-69.177
37833070,0.423,-0.412,0.932,-31.622,-10.937,-46.112
37833080,0.234,-0.144,1.015,-15.225,7.49,-12.18
37833090,-0.064,0.046,1.11,-13.685,21.367,8.872
37833100,-0.247,0.134,1.172,-27.475,21.402,13.457
37833110,-0.322,0.184,1.241,-54.722,15.382,6.912
37833120,-0.273,0.222,1.322,-91.227,9.922,-2.082
37833130,-0.152,0.233,1.349,-138.652,7.91,-4.795
37833140,-0.139,0.175,1.275,-192.885,5.092,3.115
37833150,-0.149,0.083,1.178,-238.105,-4.235,15.995
37833160,-0.177,-0.001,1.105,-264.477,-18.515,26.057
37833170,-0.225,-0.079,1.034,-276.815,-26.285,29.54
37833180,-0.398,-0.375,1.096,-278.495,-20.405,40.652
37833190,-0.026,0.079,0.908,-248.115,-10.132,41.422
37833200,-0.316,-0.674,1.444,-257.075,-22.015,-5.302
37833210,-0.068,-1.271,1.611,-227.097,-23.852,-9.065
37833220,-0.163,-1.151,0.816,-115.115,-13.965,-3.692
37833230,-0.411,-0.618,0.653,-49.927,50.505,9.45
37833240,-0.884,-0.729,1.41,-46.13,51.887,37.905
37833250,-1.698,-0.508,0.901,44.485,-5.687,70.21
37833260,-0.048,-0.199,0.409,148.032,53.165,195.562
37833260,0.873,-0.257,-0.199,137.322,66.605,246.54
37833280,1.232,-0.077,-0.756,142.1,14.665,156.73
37833280,0.976,0,-0.732,96.652,-18.042,62.475
37833300,0.888,-0.279,-0.625,4.55,-42.682,-72.537
37833300,-0.112,-0.281,-0.718,-29.522,-59.36,-201.425
37833320,-1.004,0.151,-0.846,-43.732,-49.682,-236.705
37833320,-1.418,0.372,-0.786,-75.827,-39.042,-203.612
37833330,-1.094,0.451,-0.708,-77.84,-13.335,-127.032
37833340,-0.615,-0.332,0.903,-67.305,32.532,-71.82
37833350,0.844,-1.95,0.072,44.66,-122.272,-140.612
37833360,-0.305,-0.095,1.432,509.022,-11.865,-323.19
37833370,0.692,1.997,-0.105,482.002,46.865,-87.08
37833380,1.593,-0.631,1.317,315.822,42.262,40.705
37833390,-0.592,-0.906,1.769,225.575,31.99,25.865
37833400,0.352,1.548,1.307,316.522,44.362,156.31
37833410,-1.308,1.024,1.719,151.165,46.13,115.325
37833420,-1.161,0.665,1.544,63.035,21.07,64.312
37833430,-0.867,0.561,1.275,-16.117,-14.122,2.992
37833440,-0.294,0.102,1.217,-88.042,-45.482,-44.712
37833450,0.201,-0.023,1.001,-99.837,-43.277,-63.385
37833460,0.354,-0.294,1.017,-105.227,-20.195,-62.37
37833470,0.394,-0.237,1.056,-106.032,-0.665,-32.585
37833480,0.248,-0.083,1.046,-110.022,7.56,1.68
37833490,0.05,-0.167,1.063,-121.905,8.662,25.497
37833500,-0.072,-0.173,1.059,-134.19,6.16,42.227
37833510,-0.084,-0.185,1.03,-144.882,-0.367,49.997
37833520,-0.067,-0.223,1.067,-160.265,-2.59,51.397
37833530,-0.044,-0.256,1.084,-174.667,-2.975,52.342
37833540,0.059,-0.435,1.099,-186.025,-1.75,58.555
37833550,-0.055,-0.149,1.221,-183.487,6.317,82.005
37833560,0.469,-0.529,1.208,-162.82,15.645,75.932
37833570,0.238,-1.03,1.485,-179.305,40.46,83.877
37833580,-0.069,-1.135,1.385,-122.622,37.642,71.137
37833590,-0.361,-1.253,1.301,-55.65,18.007,55.475
37833600,-0.365,-1.896,1.497,-8.872,1.4,58.712
37833610,0.156,-1.667,0.377,108.92,-0.507,66.395
37833620,0.204,-0.786,-0.199,206.99,61.442,81.305
37833630,-0.152,-0.529,-0.363,152.267,80.22,45.36
37833640,-0.329,-0.69,-0.526,108.937,46.55,-11.2
37833650,-0.225,-0.206,-0.676,94.5,15.242,-32.76
37833660,-0.356,0.274,-0.385,24.587,-36.872,-56.77
37833670,-0.105,0.059,-0.067,-76.685,-100.94,-98.892
37833670,0.131,0.022,0.066,-117.88,-128.047,-122.465
37833690,0.072,0.493,-0.02,-101.815,-133.875,-143.01
37833690,-0.139,1.026,-0.194,-105.77,-142.747,-169.61
37833710,-0.401,1.411,-0.342,-133.245,-159.127,-186.497
37833710,-0.689,1.597,0.29,-159.862,-178.622,-188.93
37833730,0.285,-0.208,1.99,-177.24,-34.247,-154.577
37833730,1.358,-1.998,-0.233,202.3,319.847,-110.495
37833750,-1.631,0.931,1.023,520.607,150.342,-162.172
37833750,1.169,1.48,0.084,381.43,98.542,35.7
37833760,0.146,-1.777,1.749,275.45,73.22,57.26
37833770,-0.385,0.229,1.498,342.965,39.147,70.157
37833780,-0.296,1.481,1.514,303.467,54.145,148.557
37833790,-1.081,0.874,1.793,164.657,47.267,91.997
37833800,-1.038,1.243,1.421,81.935,20.335,44.047
37833810,-0.521,0.65,1.389,-27.755,-19.005,-9.292
37833820,-0.182,0.228,1.157,-86.38,-35.262,-38.465
37833830,0.041,-0.278,0.964,-111.457,-36.067,-46.812
37833840,0.191,-0.38,0.849,-96.67,-25.532,-37.59
37833850,0.261,-0.404,0.901,-70.927,-12.25,-17.255
37833860,0.234,-0.316,0.952,-53.13,-0.035,0.997
37833870,0.109,-0.184,1.003,-42.42,11.515,16.8
37833880,0.045,-0.089,1.103,-44.222,16.537,29.977
37833890,-0.129,0.051,1.169,-59.815,19.442,36.172
37833900,-0.157,0.034,1.208,-88.69,8.82,36.435
37833910,0.007,-0.047,1.199,-125.527,-2.117,43.207
37833920,-0.019,-0.005,1.204,-159.18,0.63,55.02
37833930,-0.022,-0.028,1.197,-190.54,1.347,65.59
37833940,-0.054,-0.056,1.132,-217.525,0.175,77.945
37833950,-0.032,-0.082,1.134,-237.475,0.682,88.305
37833960,-0.19,-0.245,1.181,-256.707,0.385,91.42
37833970,-0.495,-0.455,1.426,-259.77,-12.67,105.612
37833980,-0.03,-1.456,1.35,-214.742,-59.412,79.362
37833990,-0.341,-1.703,1.387,-164.955,-98.472,53.322
37834000,-0.364,-1.472,0.918,-66.465,-82.407,57.925
37834010,-0.274,-1.403,0.666,16.66,-42.91,79.73
37834010,0.095,-1.078,0.292,68.127,-6.247,97.335
37834030,0.368,-0.439,0.558,73.622,23.712,95.287
37834030,0.23,-0.156,0.114,85.96,6.475,61.652
37834050,0.286,0.389,-0.325,119.752,0.822,17.972
37834050,0.364,0.935,-0.82,108.115,16.782,-11.777
37834070,0.032,1.357,-0.958,64.172,28.98,-53.2
37834070,-0.451,1.451,-0.746,-6.16,12.442,-100.415
37834080,-0.522,1.362,-0.561,-44.432,-6.282,-106.382
37834090,-0.592,1.383,-0.432,-31.955,0.682,-73.097
37834100,-0.976,1.377,-0.456,-8.487,-2.17,-38.097
37834110,-0.937,-0.053,0.565,-8.277,3.797,-6.072
37834120,-0.162,-1.998,0.415,-17.377,-218.715,-158.182
37834130,-0.211,0.215,0.751,477.33,53.462,-203.175
37834140,0.333,1.997,-0.932,551.74,14.822,-43.26
37834150,1.547,0.508,1.314,273.875,-22.575,5.215
37834160,0.655,-0.904,1.998,238.805,1.627,13.79
37834170,0.19,1.993,1.385,340.707,118.107,103.267
37834180,-1.852,1.134,1.414,87.097,107.73,74.532
37834190,-1.429,1.029,1.119,-0.14,20.335,38.622
37834200,-0.453,0.327,1.25,-86.782,-51.012,-15.715
37834210,0.088,-0.043,1.054,-118.282,-65.957,-51.852
37834220,0.362,-0.62,0.948,-110.32,-52.045,-55.457
37834230,0.546,-0.361,0.962,-86.397,-22.032,-40.687
37834240,0.433,-0.214,0.951,-61.617,13.072,-12.985
37834250,0.094,-0.204,1.065,-57.75,34.965,3.08
37834260,-0.032,-0.126,1.066,-54.145,42.227,11.515
37834270,-0.035,-0.11,1.142,-67.025,44.275,9.047
