time[ms],accX[g],accY[g],accZ[g],Value 1,Value 2,Value 3
60819770,0.105,0.053,1.404,-85.697,22.645,56.507
60819780,-0.255,0.325,1.273,-42.84,17.36,50.54
60819790,0.791,0.982,0.647,46.83,-24.57,44.537
60819800,0.614,0.998,0.717,52.57,3.027,48.965
60819810,0.243,0.439,0.557,45.395,-13.807,33.355
60819820,0.447,0.272,0.803,60.637,-30.73,7.472
60819830,0.29,0.25,0.869,86.362,-37.887,-16.345
60819840,0.04,0.192,0.854,102.672,-40.022,-36.207
60819850,-0.041,0.144,0.884,108.99,-39.147,-44.012
60819860,-0.118,-0.043,0.912,109.13,-33.705,-46.777
60819870,-0.162,-0.14,0.884,114.03,-24.727,-44.38
60819880,-0.144,-0.203,0.879,113.417,-12.81,-36.295
60819890,-0.05,-0.348,0.901,103.775,2.31,-24.202
60819900,-0.054,-0.505,0.825,95.095,17.307,-11.69
60819910,-0.119,-0.52,0.64,85.645,20.772,-2.03
60819920,-0.117,-0.498,0.395,60.847,13.282,7.892
60819930,-0.012,-0.509,0.188,20.475,7.682,24.202
60819940,0.123,-0.582,0.179,-29.872,20.65,44.135
60819950,-0.172,-1.104,0.202,-73.587,44.327,62.86
60819960,0.288,-1.688,1.823,-136.937,-88.602,78.767
60819970,1.841,-1.998,1.22,-129.08,7.892,91.49
60819980,-0.996,-0.993,0.545,83.755,30.082,-58.345
60819990,-0.499,1.311,1.418,124.53,54.792,-102.305
60820000,-0.56,1.077,0.741,31.202,-14.262,-18.725
60820010,0.761,0.276,0.838,-5.775,-11.812,40.897
60820020,0.718,-0.569,1.022,-8.925,-0.105,35.595
60820030,0.271,-0.4,1.027,13.195,4.375,-2.257
60820040,-0.017,0.046,0.984,25.427,4.567,-18.41
60820050,0.26,-0.082,0.967,9.642,1.75,-4.97
60820060,0.46,-0.267,0.957,2.66,6.947,0.822
60820070,0.298,-0.168,0.952,6.107,14.227,-2.03
60820080,0.202,-0.158,0.97,6.247,19.757,-0.245
60820080,0.237,-0.145,0.962,8.68,18.252,0.98
60820100,0.168,-0.138,0.97,9.135,18.34,1.015
60820100,0.108,-0.166,0.995,8.942,12.827,0.105
60820120,0.108,-0.168,0.988,9.66,6.265,-1.61
60820120,0.117,-0.144,0.977,9.397,-2.8,-4.707
60820140,0.139,-0.105,0.966,8.452,-8.12,-6.475
60820140,0.155,-0.088,0.966,7.455,-13.492,-6.212
60820150,0.158,-0.106,0.972,6.23,-15.872,-5.337
60820160,0.167,-0.111,0.977,5.11,-19.915,-4.76
60820170,0.19,-0.104,0.981,3.955,-21.367,-3.342
60820180,0.227,-0.107,0.979,2.782,-23.695,-2.502
60820190,0.231,-0.087,0.964,0.017,-23.625,-1.995
60820200,0.256,-0.175,0.977,-2.117,-24.097,-0.822
60820210,0.297,-0.102,0.936,0.875,-23.1,-3.447
60820220,0.32,-0.112,0.927,1.19,-19.197,-2.327
60820230,0.377,-0.137,0.922,1.417,-11.322,0.805
60820240,0.356,-0.122,0.88,3.167,-2.747,1.89
60820250,0.347,-0.013,0.895,2.327,6.965,1.82
60820260,0.412,-0.063,0.887,-2.537,16.572,4.34
60820270,0.315,-0.135,0.942,-5.127,26.67,4.795
60820280,0.236,-0.143,0.962,-4.707,31.5,3.307
60820290,0.252,-0.212,0.968,-4.707,32.55,4.287
60820300,0.182,-0.201,0.987,-1.067,32.742,3.675
60820310,0.139,-0.139,0.991,2.362,29.277,3.115
60820320,0.053,-0.128,0.997,2.555,23.905,2.625
60820330,0.044,-0.125,0.999,2.835,13.475,0.595
60820340,0.132,-0.124,0.98,1.995,5.547,-0.542
60820350,0.177,-0.105,0.975,1.575,0.7,-1.452
60820360,0.197,-0.1,0.974,0.647,0.245,-1.47
60820370,0.193,-0.096,0.975,-0.647,-1.067,-1.085
60820380,0.208,-0.099,0.974,-2.625,-0.542,-0.035
60820390,0.217,-0.092,0.971,-3.937,-1.33,0.315
60820400,0.218,-0.098,0.973,-6.562,0.857,1.785
60820410,0.196,-0.1,0.976,-8.347,0.525,2.065
60820420,0.158,-0.123,0.983,-9.817,0.385,2.152
60820420,0.147,-0.161,0.983,-8.82,-4.9,1.225
60820440,0.172,-0.165,0.982,-6.02,-8.312,0.437
60820440,0.21,-0.156,0.973,-3.132,-12.6,-1.312
60820460,0.238,-0.162,0.971,-1.785,-11.935,-1.4
60820460,0.242,-0.153,0.965,0.245,-12.11,-1.435
60820480,0.225,-0.13,0.966,1.015,-9.397,-0.875
60820480,0.226,-0.103,0.961,0.612,-8.977,-0.875
60820500,0.224,-0.121,0.964,-1.907,-6.317,-0.577
60820500,0.225,-0.142,0.963,-2.677,-6.142,-0.332
60820510,0.212,-0.125,0.966,-2.275,-4.147,0
60820520,0.209,-0.131,0.967,-2.45,-4.83,0.035
60820530,0.21,-0.128,0.966,-2.8,-4.06,-0.07
60820540,0.21,-0.133,0.965,-2.922,-5.302,-0.945
60820550,0.224,-0.126,0.964,-2.992,-4.62,-1.627
60820560,0.226,-0.111,0.967,-3.395,-4.83,-2.467
60820570,0.232,-0.102,0.965,-4.882,-3.395,-2.502
60820580,0.211,-0.103,0.966,-6.352,-3.552,-2.59
60820590,0.225,-0.105,0.963,-7.35,-3.097,-2.275
60820600,0.217,-0.108,0.964,-8.382,-3.22,-2.082
60820610,0.231,-0.101,0.966,-9.38,-2.292,-1.05
60820620,0.195,-0.12,0.979,-11.235,-1.837,0.612
60820630,0.228,-0.079,0.978,-12.687,-1.925,3.132
60820640,0.258,-0.096,0.981,-16.73,-0.455,6.387
60820650,0.298,-0.093,0.996,-21.35,2.677,8.977
60820660,0.351,-0.057,1.037,-30.485,9.817,12.617
60820670,0.379,-0.045,1.12,-47.355,21.192,18.445
60820680,0.347,0.001,1.302,-76.475,38.255,25.217
60820690,0.224,0.048,1.435,-120.89,51.817,30.8
60820700,0.158,0.192,1.55,-164.22,46.532,24.132
60820710,0.32,0.191,1.378,-225.417,37.292,30.065
60820720,0.325,-0.142,1.502,-290.85,48.195,20.195
60820730,0.779,-0.219,1.345,-314.72,91.892,15.295
60820740,0.728,-0.614,1.703,-341.285,198.17,21.822
60820750,0.536,-1.32,1.448,-323.645,280.857,17.43
60820760,0.125,-1.506,1.165,-262.465,358.225,0.105
60820770,-0.214,-1.618,0.954,-195.212,360.062,-51.607
60820780,-0.832,-1.895,-0.069,-115.15,317.292,-73.272
60820790,-1.772,-1.187,-0.08,-27.16,230.247,-67.13
60820800,-0.99,-0.714,0.287,-32.462,117.197,-16.31
60820810,-0.199,-0.76,0.16,-25.112,12.74,61.267
60820820,0.433,-0.596,-0.112,-0.927,-39.637,92.522
60820830,0.426,-0.544,-0.144,-4.427,-46.777,100.94
60820830,0.364,-0.438,-0.161,-19.652,-60.025,83.422
60820840,0.426,-0.238,-0.243,-23.292,-88.322,57.295
60820850,0.536,-0.057,-0.295,-32.27,-106.785,34.107
60820860,0.521,0.07,-0.272,-51.52,-116.585,15.295
60820870,0.397,0.044,-0.144,-68.897,-115.395,9.712
60820880,0.487,-0.004,-0.067,-75.582,-111.195,3.885
60820890,0.422,0.023,-0.009,-67.987,-101.64,4.287
60820900,0.409,0,-0.09,-61.355,-93.817,3.01
60820910,0.303,-0.021,-0.054,-64.085,-82.6,11.777
60820920,0.2,-0.133,-0.081,-72.38,-93.87,15.557
60820930,0.151,-0.304,-0.097,-86.275,-116.602,14.717
60820940,0.014,-0.784,0.888,-105.227,-162.522,-17.622
60820950,-1.951,-1.471,1.998,52.517,-209.195,35.052
60820960,-0.293,-1.562,1.998,208.88,-194.25,71.505
60820970,1.335,-1.853,1.315,325.272,-80.132,126.822
60820980,-1.54,-0.997,-0.348,352.502,-118.16,87.255
60820990,-0.297,0.969,1.625,310.607,-5.337,-21.017
60821000,-0.523,0.304,0.817,301.245,-50.47,-45.71
60821010,-0.916,-0.581,1.036,257.722,-80.412,-99.4
60821020,-0.613,0.084,0.995,268.8,-97.632,-168.56
60821030,0.438,0.349,1.267,255.5,-110.46,-206.972
60821040,1.027,-0.051,1.436,185.5,-119.7,-172.112
60821050,1.42,0.242,1.17,133.122,-108.885,-101.412
60821060,1.235,0.243,1.21,79.012,-54.582,-3.762
60821070,0.626,0.257,1.237,23.957,-0.927,68.477
60821080,0.218,0.139,1.058,-26.407,22.96,102.305
60821090,-0.031,-0.267,0.799,-40.827,22.75,87.115
60821100,-0.302,-0.824,0.698,-18.235,13.58,39.112
60821110,-0.216,-0.562,0.799,26.127,-5.127,-14.63
60821120,0.081,-0.334,0.92,51.747,-22.505,-46.83
60821130,0.372,-0.123,1.026,55.825,-30.38,-53.795
60821140,0.541,0.053,1.024,44.38,-20.492,-43.277
60821150,0.419,-0.146,0.964,25.987,-4.147,-21.647
60821160,0.213,-0.133,0.998,19.197,9.292,-6.44
60821170,0.132,-0.065,1.048,14.752,8.872,-5.302
60821170,0.19,-0.03,1.053,3.395,6.562,-10.15
60821190,0.238,-0.113,1.006,-9.607,5.635,-10.92
60821190,0.271,-0.25,0.965,-15.557,8.4,-4.567
60821210,0.235,-0.192,0.995,-14.35,9.03,4.83
60821210,0.214,-0.097,1.039,-18.392,12.652,12.845
60821230,0.199,-0.074,1.103,-31.08,14.805,16.362
60821230,0.263,-0.04,1.162,-53.042,19.88,18.182
60821250,0.299,0.004,1.259,-87.395,25.147,22.645
60821250,0.316,0.05,1.375,-132.842,32.427,29.067
60821260,0.274,0.069,1.454,-185.85,36.05,30.695
60821270,0.303,0.121,1.396,-242.987,40.617,25.007
60821280,0.739,-0.369,1.282,-298.725,68.6,19.32
60821290,1.198,0.249,1.276,-331.38,151.27,-8.68
60821300,0.971,-0.659,1.852,-370.335,255.43,33.285
60821310,0.661,-1.871,1.429,-388.43,387.852,71.487
60821320,0.639,-1.998,1.142,-318.43,381.657,30.712
60821330,1.51,-1.998,-0.489,-240.205,318.045,-60.2
60821340,0.281,-1.796,0.711,-162.155,283.92,-139.107
60821350,-0.854,-1.477,0.861,-133.682,176.592,-215.285
60821360,-1.476,-0.498,0.737,-44.66,63,-235.795
60821370,-1.597,0.493,0.623,-0.98,-23.467,-215.337
60821380,-1.321,0.769,0.486,-12.547,-46.62,-133.787
60821390,-1.067,0.782,0.215,-19.722,-33.915,-42.927
60821400,-1.049,0.662,0.143,-23.835,-27.912,21.525
60821410,-0.72,0.338,0.12,-30.537,-33.39,77.49
60821420,-0.358,0.03,-0.018,-15.977,-46.707,112.052
60821430,-0.08,-0.07,-0.191,9.835,-55.195,123.935
60821440,0.085,-0.186,-0.324,19.81,-49.997,126.612
60821450,0.185,-0.288,-0.353,24.185,-38.045,126.035
60821460,0.124,-0.246,-0.278,21.14,-30.502,117.53
60821470,0.058,-0.332,-0.247,2.59,-31.78,111.545
60821480,0.173,-0.402,-0.189,-7.14,-26.145,111.632
60821490,0.175,-0.412,-0.166,-7.717,-16.257,105.105
60821500,0.132,-0.336,-0.179,-10.43,-2.03,98.42
60821510,0.112,-0.28,-0.188,-20.79,8.47,97.16
60821520,0.148,-0.355,-0.165,-35.822,15.137,100.24
60821530,0.479,-0.628,-0.523,-61.32,3.902,67.55
60821530,-0.842,-1.276,0.439,27.982,-47.267,43.277
60821550,-1.251,-1.998,1.128,80.675,-273.805,74.567
60821550,-0.645,-1.998,1.998,115.937,-291.9,82.215
60821570,1.444,-1.883,0.066,389.812,-158.34,59.395
60821570,0.107,1.214,0.449,435.925,-134.715,27.055
60821580,-1.575,1.045,1.17,302.837,-82.845,-42.367
60821590,-0.88,-1.065,0.699,297.692,-83.877,-33.267
60821600,-1.035,0.327,0.941,338.712,-182.997,-110.617
60821610,-1.456,0.961,0.909,337.19,-256.41,-218.12
60821620,0.008,-0.521,1.554,259.595,-300.16,-281.977
60821630,1.541,-0.065,1.522,213.237,-275.065,-267.032
60821640,1.998,1.194,1.181,136.762,-196.437,-196.525
60821650,1.724,0.328,1.054,34.352,-81.445,-74.235
60821660,0.944,0.099,0.878,-6.895,7.315,25.847
60821670,0.113,-0.522,0.806,-15.557,50.26,71.155
60821680,-0.41,-0.607,0.821,11.655,41.545,54.04
60821690,-0.341,-0.313,0.986,39.55,12.635,8.172
60821700,-0.032,-0.014,1.109,42.227,-15.697,-32.392
60821710,0.331,-0.042,1.047,23.432,-29.75,-50.365
60821720,0.595,-0.153,0.907,9.065,-25.06,-47.477
60821730,0.468,-0.224,0.9,6.597,-6.72,-28.28
60821740,0.21,-0.142,0.995,9.257,7.105,-12.827
60821750,0.102,0.011,1.081,4.042,7.192,-12.39
60821760,0.325,0.042,1.061,-9.555,4.55,-23.502
60821770,0.332,-0.065,1.013,-25.41,11.882,-29.592
60821780,0.255,-0.219,0.959,-36.61,21.98,-26.285
60821790,0.21,-0.24,0.972,-38.01,23.345,-18.777
60821800,0.186,-0.163,1.023,-42,22.662,-8.155
60821810,0.155,-0.135,1.065,-51.817,19.512,0.752
60821820,0.106,-0.098,1.19,-68.32,19.302,8.785
60821830,0.108,0.041,1.329,-96.792,12.495,13.737
60821840,0.031,0.075,1.423,-142.047,9.135,16.905
60821850,0.048,-0.156,1.405,-194.617,9.887,14.455
60821860,0.388,0.152,1.334,-231.42,26.985,-17.22
60821870,0.319,0.348,1.096,-275.782,82.862,-9.835
60821880,0.731,-0.407,1.419,-373.432,165.095,-17.255
60821890,0.776,-1.604,1.911,-391.002,279.562,-12.617
60821900,1.014,-1.998,1.558,-356.107,414.82,9.082
60821910,-0.588,-1.998,0.513,-266.647,454.335,2.607
60821920,-0.162,-1.998,-0.503,-144.602,372.575,-96.582
60821920,-0.75,-1.756,-0.322,-73.115,239.47,-84.98
60821940,-0.94,-0.926,0.294,-87.71,72.607,-56.595
60821940,-0.382,-0.447,0.483,-88.2,-58.222,6.807
60821960,0.315,0.025,0.495,-89.617,-109.55,53.97
60821960,0.156,0.25,0.434,-94.43,-110.39,61.775
60821980,0.066,0.576,0.48,-97.072,-91.455,35.892
60821980,-0.238,0.681,0.539,-99.697,-67.742,8.697
60822000,-0.501,0.647,0.481,-85.715,-45.045,3.5
60822000,-0.64,0.655,0.432,-64.96,-31.622,16.082
60822010,-0.706,0.587,0.369,-54.792,-25.357,48.685
60822020,-0.527,0.377,0.299,-44.852,-23.187,97.387
60822030,-0.168,0.089,0.133,-20.877,-22.47,144.602
60822040,0.209,-0.063,-0.078,6.632,-19.967,164.465
60822050,0.44,-0.146,-0.255,24.552,-10.64,161.052
60822060,0.602,-0.321,-0.42,32.777,-2.572,145.162
60822070,0.912,-0.432,-0.505,30.327,11.76,114.397
60822080,0.961,-0.619,-0.392,17.535,32.462,69.982
60822090,0.762,-0.778,-0.299,14.805,47.477,18.847
60822100,0.497,-0.936,-0.52,24.605,52.64,-26.18
60822110,-0.887,-1.256,0.134,23.537,21.752,-75.827
60822120,-1.979,-1.998,1.381,114.87,-213.797,-6.282
60822130,-0.178,-1.998,1.998,246.295,-223.562,98.612
60822140,1.88,-1.998,0.448,405.282,-105.455,37.887
60822150,-0.547,0.484,-0.18,519.785,-62.912,62.79
60822160,-1.299,1.858,0.953,428.627,-148.522,-41.37
60822170,0.533,-0.786,1.243,278.04,-81.025,48.807
60822180,-1.653,0.082,1.088,345.1,-159.565,-8.277
60822190,-1.935,1.491,0.462,395.202,-275.187,-80.377
60822200,0.335,0.556,1.627,271.565,-421.767,-120.19
60822210,1.129,-0.76,1.927,203.402,-440.37,-209.387
60822220,1.998,0.991,0.677,115.622,-290.902,-161.28
60822230,1.334,1.084,0.535,2.485,-63.35,-56.927
60822240,0.803,-0.755,1.113,-78.085,62.072,64.557
60822250,-0.469,-0.718,0.902,-35.262,69.685,63.262
60822260,-0.376,-0.724,0.991,-6.93,36.417,31.062
60822260,-0.025,-0.087,1.036,18.515,1.627,-18.34
60822280,0.206,-0.067,1.023,0.927,-11.34,-43.277
60822280,0.703,-0.109,0.869,-7.28,-9.52,-45.447
60822300,0.438,-0.098,0.887,-6.492,18.217,-22.4
60822300,0.109,-0.171,0.993,-4.27,33.267,-0.367
60822320,-0.103,-0.163,1.009,-4.795,29.207,0.717
60822320,-0.006,-0.159,1.014,-3.587,10.535,-10.832
60822330,0.231,-0.058,0.995,-2.782,0.63,-20.772
60822340,0.161,-0.178,0.97,-9.257,1.522,-21.665
60822350,0.128,-0.326,0.946,-7.052,-0.262,-17.377
60822360,0.131,-0.231,0.955,1.522,-7.052,-8.102
60822370,0.119,-0.164,0.989,6.317,-10.832,-1.417
60822380,0.106,-0.125,0.997,5.232,-15.785,-1.277
60822390,0.186,-0.135,0.995,0.332,-19.04,-2.1
60822400,0.252,-0.073,1.004,-5.617,-18.707,-0.84
60822410,0.313,-0.031,1.05,-19.127,-12.32,2.135
60822420,0.334,0.073,1.134,-39.655,0.42,1.767
60822430,0.265,-0.026,1.314,-71.68,13.807,-1.662
60822440,0.282,0.103,1.404,-116.27,20.527,-4.48
60822450,0.317,0.142,1.443,-170.87,27.93,-6.982
60822460,0.345,0.184,1.216,-230.65,31.535,-6.142
60822470,0.573,0.14,1.25,-282.135,48.527,-6.947
60822480,0.79,-0.419,1.205,-325.727,69.72,-27.072
60822490,0.295,-0.013,1.261,-313.827,92.382,-32.655
60822500,0.513,-1.093,1.759,-381.99,151.2,-12.232
60822510,-0.086,-0.757,1.621,-332.272,190.96,-30.1
60822520,-0.265,-0.539,1.322,-279.002,227.237,-49.542
60822530,0.64,-1.055,0.978,-270.725,252.262,-74.427
60822540,-0.598,-1.723,1.128,-237.3,263.357,-127.19
60822550,-0.734,-1.552,1.022,-171.797,217.7,-202.65
60822560,-1.461,-1.074,1.198,-84,158.707,-220.255
60822570,-1.998,-0.712,1.123,-38.465,44.905,-204.33
60822580,-1.762,-0.221,0.493,18.655,-45.447,-137.672
60822590,-1.21,0.074,-0.227,70.315,-58.205,-34.545
60822600,-0.651,0.244,-0.963,94.377,3.377,64.417
60822610,-0.431,0.242,-1.204,97.265,94.955,164.412
60822620,-0.393,0.002,-0.923,61.022,149.065,230.387
60822630,-0.034,-0.476,-0.671,15.26,122.71,259.997
60822640,0.671,-0.863,-0.619,-4.427,56.542,272.492
60822650,1.543,-1.013,-0.463,-8.627,-7.595,236.442
60822660,1.972,-0.906,-0.16,-18.707,-30.31,157.587
60822670,1.573,-0.634,0.049,-24.692,-32.41,74.97
60822670,0.977,-0.141,0.001,-30.817,-33.092,9.572
60822690,0.656,0.357,-0.146,-39.27,-37.905,-24.692
60822690,0.544,0.515,-0.201,-50.785,-30.59,-27.72
60822710,0.369,0.433,-0.074,-62.09,-32.34,-13.475
60822710,0.499,-0.147,-0.235,-82.372,-46.13,-22.155
60822730,-1.171,-0.415,0.895,107.397,-149.187,-0.35
60822730,-0.07,-1.998,1.977,94.22,-239.522,154.927
60822750,1.065,-1.836,-1.808,356.3,4.305,72.642
60822750,-1.627,1.843,0.956,533.715,-197.575,-35.647
60822760,1.543,1.145,0.6,296.047,-78.067,-9.135
60822770,-0.77,-1.364,1.37,155.715,-83.177,60.165
60822780,-1.563,0.243,0.777,313.67,-214.515,-76.23
60822790,0.253,0.732,1.284,280.402,-280.455,-153.457
60822800,0.351,-0.506,1.576,187.372,-261.065,-215.075
60822810,1.878,0.191,1.45,124.425,-202.335,-189.805
60822820,1.938,0.818,1.156,50.907,-111.142,-108.29
60822830,1.374,0.058,1.258,-35.07,-12.617,6.632
60822840,0.587,0.235,1.135,-84.315,49.945,74.9
60822850,-0.214,-0.36,0.949,-111.16,66.78,88.55
60822860,-0.472,-0.55,0.818,-97.597,47.075,58.59
60822870,-0.324,-0.512,0.774,-69.405,20.405,12.88
60822880,0.005,-0.499,0.733,-36.802,6.895,-19.67
60822890,0.016,-0.665,0.604,-1.505,6.422,-49.21
60822900,0.089,-0.802,0.615,41.982,4.865,-68.897
60822910,0.094,-0.692,0.645,82.495,-2.695,-72.8
60822920,-0.114,-0.469,0.982,109.62,-11.48,-69.807
60822930,0.172,0.173,1.25,102.795,-30.695,-61.04
60822940,0.375,0.213,1.254,59.185,-33.442,-46.55
60822950,0.614,0.304,1.176,11.515,-20.44,-28.752
60822960,0.468,-0.151,0.997,-29.155,6.212,-4.707
60822970,0.172,-0.385,0.84,-35.402,19.512,9.87
60822980,-0.053,-0.511,0.837,-19.547,18.952,14.56
60822990,-0.137,-0.371,0.951,4.007,3.675,7.735
60823000,-0.041,-0.178,0.968,12.302,-11.865,-3.657
60823010,0.131,-0.262,1.002,7.63,-23.327,-12.145
60823010,0.309,-0.179,0.972,3.57,-23.275,-14.455
60823030,0.345,-0.215,0.966,-4.69,-16.555,-7.682
60823030,0.273,-0.228,0.995,-11.865,-6.597,1.172
60823050,0.25,-0.127,1.08,-21.507,-2.205,6.825
60823050,0.242,-0.06,1.229,-43.575,2.415,10.517
60823070,0.329,0.094,1.406,-79.345,-0.402,14.682
60823070,0.52,0.214,1.575,-134.575,9.642,27.912
60823080,0.422,0.063,1.652,-201.74,24.412,47.39
60823090,0.453,-0.037,1.649,-263.252,36.487,45.815
60823100,0.865,0.134,1.718,-315.245,67.375,30.625
60823110,0.895,-0.706,1.981,-378.787,162.872,55.895
60823120,0.637,-1.951,1.763,-363.125,221.637,59.552
60823130,0.704,-1.997,1.978,-302.557,222.985,14.875
60823140,1.749,-1.998,0.931,-244.807,226.275,-61.232
60823150,0.824,-1.997,1.115,-115.237,206.482,-170.887
60823160,-0.422,-1.756,0.695,-3.657,97.562,-272.247
60823170,-0.844,-0.64,-0.067,111.562,71.277,-258.457
60823180,-1.386,-0.029,-0.092,114.52,27.72,-171.657
60823190,-1.225,-0.036,-0.1,77.962,-12.145,-64.382
60823200,-0.934,0.141,-0.118,49.56,-54.53,18.952
60823210,-0.595,0.316,-0.338,19.197,-78.47,82.39
60823220,-0.174,0.375,-0.413,-6.527,-85.96,112.42
60823230,0.191,0.517,-0.312,-27.93,-78.645,112.017
60823240,0.357,0.517,-0.062,-55.86,-50.61,102.235
60823250,0.39,0.356,0.224,-75.127,-20.527,86.677
60823260,0.412,0.339,0.359,-71.242,-0.77,60.567
60823270,0.373,0.413,0.385,-57.872,9.975,34.422
60823280,0.287,0.322,0.448,-47.897,20.965,19.6
60823290,0.178,0.164,0.483,-28.595,19.32,11.41
60823300,0.034,0.078,0.494,1.61,4.27,5.337
60823310,-0.066,0.026,0.459,29.522,-33.267,0.017
60823320,0.006,-0.032,0.175,48.632,-81.025,-4.2
60823330,0.216,-0.001,-0.136,68.792,-117.495,-7.035
60823340,0.362,0.038,-0.346,76.702,-129.395,-9.362
60823350,0.316,-0.049,-0.377,73.867,-125.422,-8.557
60823360,0.151,-0.107,-0.417,56.507,-117.075,-6.702
60823370,-0.048,-0.232,-0.323,26.897,-110.372,4.112
60823380,-0.181,-0.582,-0.213,6.632,-107.467,31.71
60823390,-0.309,-0.611,-0.241,4.322,-117.967,61.967
60823400,-0.298,-0.667,-0.354,2.94,-158.077,98.717
60823410,0.05,-1.477,-0.514,-13.23,-219.712,133.455
60823420,0.285,-1.911,1.622,29.19,-255.237,88.76
60823420,1.931,-1.998,1.922,457.38,65.502,305.83
60823440,-1.727,-1.565,-0.43,568.312,78.067,232.96
60823440,0.266,1.918,0.993,573.37,45.902,82.95
60823460,-1.175,1.308,1.216,489.632,6.825,101.412
60823460,-0.769,-1.823,1.971,257.722,-148.925,140.577
60823480,-0.919,0.768,1.902,362.705,-218.417,-62.02
60823480,1.855,1.744,1.059,167.457,-227.027,-124.407
60823500,1.845,1.279,0.504,-50.54,-94.657,-77.42
60823500,0.877,-0.584,1.216,-126.087,42.367,12.705
60823510,-0.216,-0.491,1.11,-104.125,73.027,53.882
60823520,-0.379,-0.568,1.052,-93.555,50.942,54.67
60823530,-0.257,-0.176,0.885,-87.937,18.795,21.087
60823540,-0.043,-0.38,0.801,-81.165,-4.235,-18.217
60823550,0.317,-0.576,0.656,-46.025,-14.297,-44.135
60823560,0.446,-0.699,0.65,-5.407,-4.095,-44.31
60823570,0.366,-0.476,0.816,36.522,4.182,-29.802
60823580,0.241,-0.121,1.065,56.122,9.17,-13.3
60823590,0.069,0.046,1.109,45.255,7.7,-4.252
60823600,0.023,0.01,1.105,21.14,1.487,-9.905
60823610,0.238,0.077,1.155,-3.972,-7.542,-22.872
60823620,0.395,0.037,1.112,-33.215,-4.637,-22.662
60823630,0.211,-0.148,1.024,-51.03,1.452,-12.32
60823640,0.043,-0.312,0.986,-55.93,-0.98,-5.407
60823650,0.066,-0.246,0.997,-53.637,-13.667,-10.307
60823660,0.124,-0.206,1.036,-54.477,-19.862,-19.6
60823670,0.25,-0.151,1.109,-62.86,-22.33,-27.895
60823680,0.327,-0.083,1.206,-85.4,-15.505,-29.487
60823690,0.39,-0.282,1.313,-120.347,-12.687,-30.712
60823700,0.336,0.196,1.171,-146.265,-12.285,-28.805
60823710,0.541,-0.167,1.108,-204.82,1.522,-13.51
60823720,0.536,-0.103,1.025,-241.937,46.917,-17.01
60823730,0.454,-0.021,1.319,-289.625,80.185,-30.152
60823740,0.676,-0.279,1.535,-330.155,95.725,-39.882
60823750,1.174,-0.727,1.664,-351.575,163.047,-38.867
60823760,0.888,-1.467,1.176,-353.08,266.665,-52.745
60823760,-0.273,-1.621,1.204,-328.86,318.517,-108.325
60823780,0.2,-1.036,1.209,-309.435,323.487,-153.335
60823780,1.73,-1.827,0.914,-289.555,352.642,-148.102
60823800,0.473,-1.998,1.367,-227.85,350.962,-202.527
60823800,-0.527,-1.998,1.5,-109.935,237.405,-324.922
60823820,-1.836,-1.584,1.367,11.2,115.062,-355.985
60823820,-1.987,-0.805,0.665,119.91,-17.255,-326.48
60823830,-1.85,-0.159,-0.445,188.51,-79.432,-240.852
60823840,-1.974,0.668,-1.427,206.762,-58.87,-154.857
60823850,-1.944,1.232,-1.579,139.387,8.085,-46.287
60823860,-1.735,1.064,-0.77,-21.7,82.547,81.112
60823870,-1.304,0.122,0.223,-163.485,99.925,196.927
60823880,-0.683,-0.494,0.803,-191.852,60.637,268.187
60823890,-0.128,-0.676,0.951,-128.205,2.24,287.07
60823900,0.35,-0.49,0.828,-40.25,-40.407,278.915
60823910,0.508,-0.302,0.573,26.565,-60.637,267.487
60823920,0.632,-0.157,0.354,67.2,-68.495,254.275
60823930,0.758,-0.13,0.09,96.162,-58.712,241.832
60823940,0.932,-0.155,-0.167,121.327,-22.225,223.79
60823950,0.838,-0.112,-0.312,137.847,34.055,195.387
60823960,0.565,-0.14,-0.451,133.542,84.507,157.36
60823970,0.275,-0.252,-0.459,109.007,104.895,130.882
60823980,0.244,-0.471,-0.562,78.645,87.045,110.022
60823990,0.741,-0.649,-0.687,57.715,69.422,94.85
60824000,1.324,-0.964,-0.633,45.412,103.775,91.42
60824010,1.23,-1.353,-0.7,54.18,160.3,80.097
60824020,0.464,-1.267,-0.928,71.137,166.25,70.28
60824030,-1.214,-1.812,0.138,50.155,59.185,67.847
60824040,-1.993,-1.659,1.489,-54.372,-326.322,60.252
60824050,-0.19,-1.998,-0.995,213.465,-453.932,171.115
60824060,1.444,0.426,-0.561,565.092,-239.54,104.335
60824070,-0.504,1.997,0.998,566.457,-494.777,65.45
60824080,-0.532,1.844,0.711,310.73,-301.087,34.09
60824090,-1.72,-1.563,1.965,69.615,-456.155,-30.59
60824100,1.754,-0.648,0.946,196.787,-521.692,-243.687
60824110,-0.435,1.997,-0.411,160.51,-163.537,-179.97
60824120,0.475,-0.847,1.632,-232.68,1.592,-2.275
60824130,1.319,-0.993,0.917,-138.967,9.327,67.007
60824140,-0.682,-0.551,0.781,-27.597,31.272,21.455
60824150,-0.571,-1.202,1.029,-8.312,-7.98,19.285
60824160,-0.239,-0.197,1.028,46.357,-60.025,-42.805
60824170,0.878,-0.273,0.934,32.812,-79.415,-63.805
60824170,1.095,0,0.759,34.58,-49.63,-53.427
60824190,0.614,0.451,0.909,29.19,4.567,-12.6
60824190,-0.027,0.046,1.024,-1.015,35.385,9.45
60824210,0.058,-0.255,1.023,-17.027,25.2,2.852
60824210,0.392,-0.056,0.957,-14.542,13.615,-12.81
60824230,0.344,-0.042,0.96,-22.4,23.03,-10.377
60824230,0.055,-0.205,1.007,-27.825,30.38,-2.03
60824250,-0.024,-0.2,1.019,-25.515,22.54,-4.112
60824250,0.197,-0.1,1,-24.535,11.725,-16.66
60824260,0.208,-0.088,0.983,-23.695,11.27,-23.94
60824270,0.25,-0.15,0.988,-26.565,13.685,-20.947
60824280,0.199,-0.187,0.995,-29.907,17.78,-15.645
60824290,0.257,-0.185,1.013,-36.365,19.18,-11.515
60824300,0.336,-0.112,1.026,-46.62,26.04,-5.95
60824310,0.35,-0.115,1.069,-62.562,37.66,-0.35
60824320,0.396,-0.097,1.122,-79.012,53.147,5.722
60824330,0.469,-0.033,1.237,-108.29,70.28,10.29
60824340,0.634,-0.275,1.356,-144.707,92.522,6.317
60824350,0.754,0.19,1.38,-164.797,110.092,-12.967
60824360,1.486,0.053,1.73,-205.17,133.945,-36.75
60824370,0.619,-0.98,1.041,-192.92,218.12,-67.69
60824380,1.457,-1.766,1.28,-165.672,225.785,-168.175
60824390,1.998,-1.998,1.845,-144.865,-45.202,-418.075
60824400,1.801,-1.815,0.69,-37.712,-106.365,-571.27
60824410,-1.002,-1.762,-0.946,27.212,70.962,-546.017
60824420,-1.958,-1.462,-0.327,23.66,-19.32,-463.242
60824430,-0.98,-1.125,-0.363,-51.555,-92.54,-356.475
60824440,-1.198,-0.953,-0.442,-73.902,-88.077,-222.932
60824450,-1.314,-0.787,-0.174,-110.932,-87.71,-112.822
60824460,-0.688,-0.882,0.098,-122.517,-103.932,-14.77
60824470,-0.399,-0.677,0.311,-104.842,-122.255,48.475
60824480,-0.365,-0.417,0.4,-87.99,-139.947,109.672
60824490,0.09,-0.496,0.375,-74.217,-154.542,187.915
60824500,0.555,-0.671,0.194,-47.407,-152.04,234.097
60824510,0.607,-0.403,-0.104,-17.412,-142.8,235.865
60824510,0.597,-0.037,-0.053,-18.742,-119.437,227.115
60824530,0.554,0.015,0.263,-43.47,-94.605,217.507
60824530,0.58,0.042,0.39,-52.64,-76.247,191.327
60824550,0.344,0.42,0.357,-41.492,-62.79,155.627
60824550,0.081,1.07,0.293,-28.14,-57.47,126.577
60824570,0.155,1.522,0.182,-21.735,-50.382,118.86
60824570,0.725,1.156,0.048,-16.205,-27.65,119.35
60824580,1.732,0.302,1.83,76.387,268.905,117.932
60824590,-1.998,-1.998,-0.669,456.12,456.872,336.84
60824600,-1.28,-1.763,1.783,460.425,173.04,191.222
60824610,-0.04,1.169,1.161,372.505,-73.045,70.647
60824620,-1.006,1.351,1.003,378.49,-80.937,30.555
60824630,-0.969,0.954,1.647,332.815,-162.277,-79.345
60824640,0.193,0.151,1.971,226.782,-254.537,-147.875
60824650,1.857,0.84,0.984,93.957,-229.232,-163.817
60824660,1.825,1.092,0.526,4.865,-82.355,-78.19
60824670,0.852,-0.011,1.105,-58.87,60.252,45.01
60824680,-0.206,-0.153,1.121,-73.797,91.28,72.24
60824690,-0.64,-0.665,0.912,-65.082,56.875,34.86
60824700,-0.333,-0.638,0.859,-38.955,11.007,-12.845
60824710,-0.125,-0.592,0.868,-5.67,-25.777,-51.642
60824720,0.253,-0.505,0.886,22.522,-48.195,-67.567
60824730,0.645,-0.207,0.927,44.87,-51.59,-55.002
60824740,0.529,0.099,0.996,46.235,-25.865,-23.397
60824750,0.252,0.078,1.013,25.462,-3.43,0.14
60824760,0.113,-0.076,1.032,4.27,2.66,-0.367
60824770,0.202,-0.047,1.024,-8.767,-2.835,-10.64
60824780,0.559,0.126,1.04,-23.502,1.995,-16.03
60824790,0.354,0.212,1.111,-40.565,26.005,-19.792
60824800,0.306,-0.031,1.307,-76.982,47.775,-17.307
60824810,0.488,0.172,1.364,-123.217,56.157,-18.655
60824820,0.264,0.122,1.602,-182.07,72.642,-10.552
60824830,0.269,0.195,1.539,-237.877,61.337,4.655
60824840,0.429,0.117,1.397,-298.672,60.707,13.072
60824850,0.804,-0.169,1.246,-343.14,97.37,9.905
60824860,1.384,-0.809,1.894,-370.02,178.342,-0.157
60824870,1.982,-1.889,1.857,-368.567,339.657,-55.475
60824880,1.737,-1.916,0.926,-292.985,485.677,-142.012
60824890,0.646,-1.883,0.875,-176.435,548.135,-255.657
60824900,-1.805,-1.998,1.252,-119.332,497.577,-335.947
60824910,-0.895,-1.842,1.256,-46.83,289.117,-341.547
60824920,-1.92,-1.254,1.275,22.435,116.655,-298.865
60824920,-1.7,-0.005,0.53,103.792,-59.29,-254.275
60824940,-0.996,0.451,0.105,115.325,-160.79,-150.745
60824940,-0.713,0.449,-0.133,60.83,-177.852,-56.735
60824960,-0.368,0.482,-0.453,40.985,-162.487,10.062
60824960,-0.189,0.54,-0.472,40.915,-120.995,64.662
60824980,-0.177,0.423,-0.39,37.17,-77.402,111.79
60824980,-0.051,0.296,-0.27,44.8,-50.995,146.195
60825000,-0.054,0.256,-0.139,35.297,-50.82,157.43
60825000,-0.002,0.072,-0.018,17.465,-70.315,154.35
60825010,0.272,-0.122,0.098,13.65,-97.72,140.087
60825020,0.533,-0.261,0.168,21.98,-119.122,113.82
60825030,0.751,-0.308,0.112,39.935,-129.535,80.535
60825040,0.843,-0.27,-0.109,55.65,-122.64,43.33
60825050,0.689,-0.242,-0.396,66.587,-109.112,9.59
60825060,0.395,-0.257,-0.587,76.632,-99.33,-11.427
60825070,0.124,-0.227,-0.555,72.502,-100.485,-17.29
60825080,-0.194,-0.253,-0.277,35.875,-106.785,-1.785
60825090,-0.562,-0.472,-0.061,-11.025,-118.142,32.707
60825100,-0.761,-0.552,0.071,-37.992,-133.087,78.61
60825110,-0.636,-0.454,0.073,-42.455,-138.862,135.8
60825120,-0.338,-0.338,-0.056,-31.692,-127.452,204.977
60825130,0.114,-0.127,-0.178,-15.575,-104.282,259.63
60825140,0.709,0.113,-0.199,-7.507,-57.802,286.562
60825150,1.43,-1.593,1.335,-33.425,34.947,255.325
60825160,0.571,-1.998,-0.726,299.407,406.962,208.967
60825170,-1.901,0.656,1.255,504.367,34.37,52.237
60825180,1.86,1.994,0.071,349.79,-251.125,-62.125
60825190,-0.293,-1.263,1.405,272.842,-110.495,117.635
60825200,-0.819,0.611,1.367,358.557,-279.667,-112.297
60825210,0.618,-0.898,1.998,283.132,-389.637,-178.885
60825220,1.73,1.587,-0.548,123.795,-256.725,-176.592
60825230,-0.386,1.004,0.718,-29.732,0.98,-78.155
60825240,0.498,-1.277,1.353,-125.3,87.71,53.375
60825250,-0.389,-0.135,1.122,-70.07,65.082,0.227
60825260,-0.308,-0.264,1.093,-64.102,29.732,-35.77
60825260,-0.298,-0.807,1.072,-66.675,-2.712,-67.025
60825280,0.115,-0.309,0.859,-59.867,-22.767,-93.695
60825280,0.527,-0.441,0.706,-34.877,-30.345,-89.705
60825300,0.582,-0.381,0.72,2.817,-25.375,-61.53
60825300,0.434,-0.191,0.983,32.847,-14.752,-24.762
60825320,0.198,0.219,1.11,29.82,-2.345,-8.207
60825320,0.138,0.027,1.083,-3.797,-0.472,-3.815
60825330,0.229,-0.15,1.034,-26.6,-3.132,-5.022
60825340,0.312,-0.103,1.078,-39.987,0.192,-3.972
60825350,0.158,-0.052,1.072,-61.162,9.222,-3.412
60825360,0.206,-0.215,0.971,-74.62,5.25,-0.752
60825370,0.252,-0.235,0.842,-71.767,-3.482,0.262
60825380,0.246,-0.381,0.789,-55.09,-4.882,4.392
60825390,0.271,-0.363,0.873,-33.547,-4.952,8.277
60825400,0.267,-0.329,0.872,-21.297,-3.535,12.845
60825410,0.239,-0.267,0.943,-13.335,-0.455,16.66
60825420,0.233,-0.192,0.984,-11.812,2.012,18.917
60825430,0.188,-0.18,0.995,-16.677,1.732,21.577
60825440,0.223,-0.164,0.97,-22.767,2.012,20.387
60825450,0.24,-0.186,0.98,-27.737,2.502,16.012
60825460,0.278,-0.185,0.981,-34.247,6.58,14.297
60825470,0.27,-0.186,0.993,-41.72,9.922,15.82
60825480,0.305,-0.185,1.03,-51.135,15.312,20.387
60825490,0.333,-0.132,1.067,-64.207,17.552,28.595
60825500,0.292,-0.118,1.091,-81.567,16.625,41.965
60825510,0.284,-0.164,1.098,-100.222,7.962,56.892
60825520,0.243,-0.135,1.109,-120.557,2.992,71.697
60825530,0.18,-0.124,1.157,-142.87,-5.302,82.355
60825540,0.117,-0.143,1.192,-175.227,-15.067,88.9
60825550,0.065,-0.046,1.25,-218.155,-22.435,85.907
60825560,0.041,-0.44,1.314,-275.467,-21.332,66.587
60825570,0.105,0.253,1.483,-308.017,-27.93,4.34
60825580,1.015,-0.589,1.102,-356.912,27.142,27.527
60825590,1.359,-1.985,1.998,-469.227,217.052,46.182
60825600,-0.615,-1.852,1.663,-433.002,412.912,-17.22
60825610,1.02,-1.765,1.5,-291.952,437.395,-132.142
60825620,1.357,-1.998,0.754,-247.415,379.925,-216.16
60825630,-1.031,-1.994,1.567,-105.315,282.975,-329.052
60825640,-1.744,-0.837,0.329,111.72,129.29,-394.397
60825650,-1.944,0.504,-0.755,212.31,-43.172,-321.982
60825660,-1.314,0.981,-1.353,122.395,-132.247,-181.387
60825670,-0.737,1.185,-1.081,-12.95,-95.2,-28.367
60825670,-0.852,0.847,-0.059,-159.18,-18.987,78.4
60825690,-0.834,0.567,0.939,-226.03,-14.332,150.78
60825690,-0.349,0.316,1.431,-229.005,-67.655,206.115
60825710,0.294,0.167,1.513,-180.775,-123.252,233.957
60825710,0.762,0.279,1.331,-89.04,-166.862,214.9
60825720,0.946,0.438,1.156,-8.802,-185.5,176.102
60825730,0.959,0.376,1.045,33.897,-186.34,129.01
60825740,0.871,0.215,0.957,63.84,-174.947,76.912
60825750,0.705,0.096,0.69,103.897,-150.062,20.772
60825760,0.437,0.124,0.287,145.512,-106.522,-31.885
60825770,0.117,0.205,-0.042,171.185,-43.47,-68.372
60825780,-0.328,0.222,-0.151,176.312,21.017,-82.827
60825790,-0.75,0.186,-0.042,157.797,61.32,-75.932
60825800,-0.949,-0.007,0.176,126,75.425,-46.042
60825810,-0.945,-0.251,0.317,106.977,68.88,-2.555
60825820,-0.899,-0.356,0.27,113.4,52.01,41.545
60825830,-0.768,-0.326,0.088,131.53,29.627,86.537
60825840,-0.683,-0.364,-0.069,142.38,15.575,144.025
60825850,-0.581,-0.512,-0.064,144.637,-8.697,198.135
60825860,-0.286,-0.738,-0.448,146.405,-48.212,240.205
60825870,0.283,-0.716,-0.579,161.017,-61.74,266.682
60825880,0.627,-0.819,-0.938,147.07,-63.577,285.757
60825890,1.018,-1.263,-0.942,108.797,-70.385,277.952
60825900,1.786,-0.08,-1.279,53.025,-95.34,196.84
60825910,-0.142,-1.718,-1.309,135.38,-156.817,216.947
60825920,-0.309,-1.998,0.379,32.847,-79.17,299.722
60825930,-1.998,-0.175,-0.284,414.155,-445.042,62.982
60825940,1.794,1.997,-0.385,567.56,-320.075,-105.017
60825950,-1.038,-0.274,1.585,196.105,-126.175,256.147
60825960,-0.667,-1.765,1.851,144.672,-197.785,47.547
60825970,0.26,1.597,1.746,416.01,-242.97,-130.97
60825980,1.43,0.406,1.338,128.59,-181.02,-96.687
60825990,1.778,1.704,0.517,25.147,-82.022,-61.057
60826000,0.477,-0.223,1.363,-103.932,38.99,26.547
60826010,-0.166,0.049,1.246,-121.065,54.04,35.455
60826010,-0.22,-0.589,1.152,-145.897,35.402,8.207
60826030,0.191,-0.148,1.19,-168.245,12.565,-10.517
60826030,0.245,-0.125,0.835,-185.937,6.142,-14.735
60826050,0.216,-0.816,0.389,-160.772,9.415,-11.69
60826050,0.226,-1.231,0.148,-87.237,16.292,-12.512
60826070,0.141,-1.146,0.279,3.482,21.927,-13.825
60826070,-0.082,-0.734,0.677,79.362,22.4,-18.637
60826080,-0.224,-0.246,1.06,119.682,5.722,-32.62
60826090,-0.008,0.155,1.268,119.157,-22.277,-51.17
60826100,0.296,0.084,1.168,81.62,-38.64,-59.745
60826110,0.403,0.054,1.126,46.427,-34.475,-60.55
60826120,0.581,0.125,1.103,16.992,-22.435,-51.992
60826130,0.543,0.017,1.025,-16.94,-3.552,-23.432
60826140,0.354,-0.202,0.982,-35.787,12.547,3.465
60826150,0.165,-0.162,1.019,-41.86,16.467,14.017
60826160,0.132,-0.199,1.043,-50.155,12.372,12.687
60826170,0.154,-0.17,1.034,-59.115,6.387,4.602
60826180,0.17,-0.189,1.042,-69.44,6.02,0.402
60826190,0.177,-0.304,1.081,-81.55,1.732,-1.645
60826200,0.2,-0.04,1.163,-87.657,-2.782,-16.03
60826210,0.251,-0.044,1.184,-101.43,-6.615,2.24
60826220,0.195,-0.25,1.311,-149.502,-9.817,6.195
60826230,0.236,0.001,1.281,-178.762,-10.727,1.487
60826240,0.343,0.099,1.275,-238.42,17.78,-5.057
60826250,0.317,-0.038,1.406,-302.242,52.307,-9.625
60826260,0.947,-0.429,1.884,-349.02,88.952,-8.505
60826270,1.674,-1.648,1.998,-414.19,254.065,1.96
60826280,0.815,-1.998,1.917,-406.997,462.332,-6.072
60826290,0.995,-1.998,1.382,-285.057,480.655,-101.412
60826300,0.024,-1.998,0.63,-53.55,479.167,-239.82
60826310,-1.682,-1.749,0.356,93.415,356.352,-339.587
60826320,-1.21,-0.977,0.146,117.932,178.447,-324.59
60826330,-1.133,-0.607,-0.63,156.1,43.295,-245.472
60826340,-0.96,-0.059,-1.283,150.745,-38.01,-177.625
60826350,-0.733,0.343,-1.855,98.787,-64.505,-86.712
60826360,-0.349,0.49,-1.688,-2.03,-38.325,-0.752
60826370,-0.565,0.066,-0.823,-124.215,12.897,77.542
60826380,-0.703,-0.42,0.048,-200.375,24.5,129.115
60826390,-0.432,-0.529,0.588,-192.867,-12.81,158.025
60826400,-0.019,-0.391,0.744,-159.18,-57.4,174.457
60826410,0.383,-0.296,0.655,-131.67,-76.702,189.332
60826410,0.736,-0.196,0.519,-100.747,-71.47,193.077
60826420,0.835,-0.057,0.316,-67.322,-67.725,175.787
60826430,0.884,0.11,0.108,-41.002,-67.602,147.297
60826440,0.905,0.199,-0.043,-26.6,-64.452,122.412
60826450,1.093,0.139,-0.2,-20.317,-56.77,91.087
60826460,1.217,0.129,-0.11,-27.037,-31.622,54.145
60826470,1.077,-0.031,0.042,-48.037,5.827,10.115
60826480,0.709,-0.183,0.168,-53.462,39.322,-31.745
60826490,0.337,-0.147,0.172,-33.11,49.682,-67.34
60826500,0.133,0.122,0.116,-10.482,37.03,-80.062
60826510,0.004,0.374,0.122,-8.697,14.525,-60.795
60826520,0.046,0.386,0.132,-27.265,-5.337,-11.112
60826530,0.263,0.251,0.109,-41.895,-24.71,53.602
60826540,0.784,-0.254,-0.252,-63.63,-54.635,92.452
60826550,-0.178,-1.197,-1.069,30.117,-169.452,41.51
60826560,-1.147,-1.675,1.869,221.97,-322.122,161.735
60826570,0.579,-1.998,-0.595,265.09,-73.237,285.04
60826580,-0.421,0.447,-0.974,549.307,-259.717,194.617
60826590,1.427,1.997,1.215,410.34,-96.407,125.58
60826600,-1.231,0.074,1.41,242.847,32.48,111.527
60826610,-1.968,-0.669,1.408,251.002,-164.412,36.242
60826620,-0.462,0.566,1.354,364.735,-264.705,-112.472
60826630,-0.084,0.067,1.626,272.755,-239.12,-257.53
60826640,1.295,0.3,1.603,191.835,-191.852,-308.717
60826650,1.573,1.053,1.633,76.44,-114.467,-284.287
60826660,1.453,0.818,1.354,-56.105,-45.36,-169.61
60826670,0.959,0.143,0.79,-123.427,-9.502,-28.105
60826680,0.617,-0.947,0.643,-135.625,22.33,79.327
60826690,0.045,-0.643,0.525,-88.34,36.277,93.205
60826700,-0.221,-0.65,0.729,-38.937,24.71,83.44
60826710,-0.437,-0.595,0.836,-0.822,3.255,49.77
60826720,-0.536,-0.619,0.802,27.72,-17.045,1.82
60826730,-0.267,-0.698,0.737,64.855,-48.772,-49.805
60826740,0.034,-0.541,0.796,105.717,-66.605,-85.872
60826750,0.197,-0.205,0.899,130.987,-75.022,-96.67
60826760,0.5,-0.02,1.033,129.325,-78.837,-84.122
60826760,0.726,0.109,1.075,103.722,-69.912,-60.13
60826780,0.57,0.052,1.058,69.58,-42.052,-30.03
60826780,0.357,-0.015,1.029,41.965,-20.282,-12.232
60826800,0.322,-0.057,1.013,21.857,-10.482,-4.935
60826800,0.284,-0.034,1.047,4.9,-6.282,-1.907
60826820,0.305,-0.031,1.048,-14.84,-4.637,0.735
60826820,0.331,-0.035,1.092,-35.42,-3.202,2.87
60826830,0.338,-0.025,1.17,-58.94,-2.502,8.295
60826840,0.353,0.025,1.272,-89.845,-0.14,16.065
60826850,0.225,0.078,1.381,-132.65,-1.61,24.027
60826860,0.29,0.067,1.293,-183.347,-10.675,28.402
60826870,0.414,0.044,1.062,-232.75,10.587,20.492
60826880,0.084,-0.076,1.257,-293.842,78.785,2.87
60826890,-0.173,-0.563,1.277,-365.242,96.267,-24.01
60826900,0.857,-0.029,1.36,-400.015,110.022,-84.945
60826910,1.068,-1.033,1.998,-445.06,252.945,-43.697
60826920,0.67,-1.998,1.678,-509.197,508.305,1.96
60826930,1.054,-1.998,0.751,-346.062,541.922,-70.21
60826940,0.946,-1.998,0.296,-191.012,448.35,-213.237
60826950,-1.303,-1.937,1.192,-133.945,276.797,-327.705
60826960,-1.991,-0.784,0.628,-25.76,67.112,-335.247
60826970,-1.998,0.323,0.305,35.402,-113.207,-234.622
60826980,-1.765,0.41,0.207,-12.897,-185.902,-56.052
60826990,-1,0.484,-0.042,-43.785,-179.917,93.275
60827000,-0.489,0.742,-0.082,-58.397,-136.43,178.57
60827010,0.018,0.742,0.112,-80.99,-76.737,231.63
60827020,0.246,0.569,0.461,-94.937,-32.462,246.557
60827030,0.322,0.422,0.747,-84.087,-22.137,236.075
60827040,0.438,0.306,0.863,-63.087,-28.455,222.215
60827050,0.67,0.25,0.851,-34.44,-38.237,202.685
60827060,0.855,0.261,0.727,-1.785,-37.87,173.092
60827070,0.963,0.252,0.575,29.05,-23.817,142.73
60827080,0.96,0.193,0.433,56.77,4.165,115.955
60827090,0.802,0.13,0.289,83.825,30.45,85.802
60827100,0.595,0.075,0.058,106.47,41.527,49.997
60827100,0.463,0.074,-0.161,118.09,39.112,14.035
60827120,0.339,0.039,-0.294,109.55,36.575,-17.762
60827120,0.165,-0.139,-0.35,92.347,34.615,-41.755
60827140,-0.022,-0.34,-0.354,84.805,34.685,-57.225
60827140,-0.26,-0.475,-0.354,77.262,30.835,-56.157
60827160,-0.46,-0.625,-0.402,68.355,16.73,-30.117
60827160,-0.376,-0.673,-0.516,69.79,-10.78,15.75
60827170,-0.103,-0.652,-0.714,73.78,-40.162,73.482
60827180,0.135,-1.192,-0.796,61.705,-66.062,130.147
60827190,0.632,0.273,-1.349,47.53,-123.165,116.095
60827200,-1.684,-1.998,0.121,157.727,-287.805,191.187
60827210,0.785,-1.998,0.782,8.82,-241.937,184.38
60827220,-0.992,-0.967,-1.895,455.227,-298.707,108.482
60827230,0.552,1.997,0.778,565.425,-384.86,-50.61
60827240,-0.692,0.469,0.951,327.057,-169.225,101.167
60827250,-0.267,-1.903,1.802,203.682,-273.49,8.802
60827260,-0.477,1.003,1.789,503.545,-248.832,-181.965
60827270,1.124,-0.425,1.853,277.077,-255.675,-179.007
60827280,1.817,1.997,-0.324,102.637,-162.137,-145.53
60827290,1.121,0.19,1.256,-85.785,62.44,17.43
60827300,-0.254,0.244,1.899,-170.957,123.585,58.345
60827310,-0.136,0.101,1.284,-235.567,102.585,30.747
60827320,-0.44,-0.832,0.94,-248.885,75.285,-6.842
60827330,0.073,-0.906,0.705,-236.022,53.445,-13.405
60827340,0.014,-0.825,0.416,-194.967,38.255,-16.187
60827350,0.348,-1,0.057,-109.952,25.567,-19.372
60827360,0.136,-0.919,0.175,-6.09,31.43,-14.682
60827370,-0.037,-1.15,0.557,67.025,30.765,-7.42
60827380,-0.448,-0.192,0.988,131.39,15.365,-31.377
60827390,-0.215,0.163,1.36,129.08,-21.367,-48.107
60827400,0.226,0.202,1.274,83.702,-41.457,-64.575
60827410,0.396,-0.093,1.166,36.627,-33.215,-70.315
60827420,0.56,0.25,1.199,5.775,-15.925,-70.07
60827430,0.674,0.002,1.118,-43.75,-0.192,-33.267
60827440,0.383,-0.166,0.967,-70.752,13.545,5.407
60827450,0.032,-0.363,0.922,-76.58,16.117,26.302
60827460,-0.129,-0.383,0.896,-60.76,5.845,15.767
60827470,0.004,-0.412,0.856,-43.907,-9.8,10.202
60827480,0.051,-0.483,0.861,-41.002,-15.837,-1.75
60827490,0.138,-0.368,0.88,-26.337,-18.025,-14.175
60827500,0.225,-0.35,0.973,-22.277,-16.8,-14.927
60827510,0.27,-0.203,1.04,-26.075,-15.592,-14.682
60827510,0.262,-0.2,1.087,-40.39,-13.212,-8.75
60827530,0.287,-0.159,1.162,-61.285,-12.005,-0.997
60827530,0.301,-0.098,1.278,-91.367,-8.627,7.07
60827550,0.355,-0.008,1.277,-135.94,-0.63,13.387
60827550,0.254,0.019,1.355,-197.33,26.495,16.24
60827570,0.228,-0.084,1.469,-270.9,48.912,8.452
60827570,0.381,-0.387,1.796,-337.837,81.882,-0.892
60827580,1.014,-1.17,1.861,-382.672,177.047,-7.052
60827590,0.754,-1.866,1.809,-398.422,319.532,-1.295
60827600,-0.707,-1.998,1.778,-358.995,382.637,-35.682
60827610,-0.15,-1.998,0.25,-326.112,344.82,-104.632
60827620,-0.158,-1.998,0.583,-264.88,281.75,-108.167
60827630,-0.593,-1.817,1.107,-253.102,187.582,-138.635
60827640,-1.225,-1.085,1.514,-176.767,61.285,-147.7
60827650,-0.911,0.112,1.447,-108.885,-77.98,-100.905
60827660,-0.284,1.262,0.983,-73.482,-159.285,-30.59
60827670,0.121,1.874,0.908,-79.87,-161.7,31.15
60827680,0.155,1.616,1.081,-100.327,-110.372,79.975
60827690,-0.014,1.2,1.301,-85.855,-70.175,100.625
60827700,-0.054,1.005,1.283,-35.105,-66.255,105.052
60827710,0.293,0.838,1.059,11.515,-80.132,109.532
60827720,0.634,0.494,0.844,36.102,-75.81,109.847
60827730,0.811,0.15,0.62,66.377,-53.952,85.365
60827740,0.771,-0.061,0.397,110.215,-20.842,51.275
60827750,0.607,-0.169,0.216,143.692,6.72,20.23
60827760,0.373,-0.273,0.102,155.172,12.162,-6.702
60827770,0.237,-0.399,0.035,152.215,-7.997,-29.26
60827780,0.254,-0.615,-0.168,150.185,-35.927,-48.23
60827790,0.298,-0.74,-0.733,167.37,-48.107,-67.165
60827800,0.266,-0.686,-1.118,202.335,-28.752,-80.132
60827810,-0.212,-0.375,-1.314,195.247,3.465,-82.547
60827820,-0.871,-0.59,-1.226,135.415,21.595,-40.547
60827830,-0.924,-0.848,-0.997,56.227,17.08,24.955
60827830,-0.703,-1.218,-0.804,4.322,8.855,102.655
60827850,-0.415,-1.65,-0.734,18.095,10.272,161.402
60827850,-0.152,-1.589,-0.894,89.005,15.732,184.205
60827870,0.014,-1.29,-1.173,143.045,22.365,199.132
60827870,0.128,-0.999,-1.33,119.892,37.17,230.405
60827890,0.237,-1.13,-1.309,46.007,42.892,259.542
60827890,-1.327,-1.98,0.452,-15.12,-40.967,243.215
60827910,-0.013,-1.996,1.986,-97.527,-423.85,151.602
60827910,1.817,-1.998,-1.217,426.212,-156.275,112
60827920,-1.526,0.458,-1.015,573.37,-121.712,139.86
60827930,0.148,1.995,1.019,514.517,-297.482,-85.54
60827940,-0.496,0.89,1.166,309.522,-132.65,87.342
60827950,-1.367,-1.555,1.874,271.862,-396.83,-63
60827960,1.998,1.053,0.864,309.977,-426.72,-191.362
60827970,0.259,1.832,0.154,46.9,-155.592,-162.592
60827980,1.731,-1.105,1.362,-180.792,25.83,1.872
60827990,-1.062,-0.178,1.325,-131.267,82.267,-14.84
60828000,0.223,-0.996,1.238,-149.94,55.737,-21.245
60828010,0.105,0.062,0.86,-151.585,40.407,-39.532
60828020,0.033,-0.704,0.725,-138.6,37.222,-48.545
60828030,0.252,-0.884,0.616,-98.612,27.72,-49.997
60828040,0.392,-0.515,0.655,-49.77,29.96,-43.435
60828050,0.2,-0.516,0.699,-5.057,35.332,-27.055
60828060,-0.062,-0.42,0.93,33.565,34.457,-18.025
60828070,-0.119,-0.106,1.1,47.53,18.917,-25.462
60828080,0.031,-0.022,1.169,30.362,6.002,-39.445
60828090,0.22,-0.03,1.117,1.785,1.435,-51.537
60828100,0.265,-0.053,1.071,-23.8,10.097,-54.46
60828110,0.247,-0.163,1.031,-42.262,14.98,-47.792
60828120,0.222,-0.17,1,-52.692,19.075,-38.045
60828130,0.105,-0.386,0.99,-59.57,17.395,-29.032
60828140,0.094,-0.073,0.996,-49.787,11.252,-29.452
60828150,0.174,-0.304,1.041,-63.437,10.867,-13.825
60828160,0.094,-0.303,1.054,-73.062,8.96,-12.6
60828170,0.107,-0.183,1.045,-78.575,2.205,-12.512
60828180,0.118,-0.283,1.127,-97.72,1.855,-7.787
60828190,0.106,-0.201,1.181,-118.16,1.435,-9.17
60828200,0.166,-0.108,1.216,-151.375,11.585,-11.497
60828210,0.089,-0.122,1.318,-197.837,31.097,-16.835
60828220,0.183,-0.172,1.32,-246.12,52.99,-28.105
60828230,0.172,-0.518,1.645,-291.515,95.06,-40.757
60828240,0.335,-0.779,1.537,-298.97,158.357,-50.207
60828250,0.872,-0.944,1.49,-278.46,257.74,-53.55
60828260,-0.198,-1.14,1.356,-273.437,364.927,-53.095
60828260,-0.011,-1.845,1.701,-258.51,380.625,-103.827
60828280,0.019,-1.998,1.788,-214.585,366.975,-118.352
60828280,-0.514,-1.998,1.525,-70.63,308.717,-150.605
60828300,-1.773,-1.998,0.783,103.127,202.527,-202.702
60828300,-1.594,-1.343,0.524,214.27,63.315,-217.437
60828320,-0.62,-1.074,-0.185,292.022,-30.292,-182.735
60828320,-0.327,-0.716,-1.077,308.7,-59.867,-163.065
60828330,-0.345,-0.084,-1.896,305.147,-22.33,-135.152
60828340,-0.39,0.436,-1.997,249.077,44.642,-96.547
60828350,-0.644,0.566,-1.79,114.012,97.265,-55.895
60828360,-1.031,0.234,-1.069,-41.685,112.297,-19.197
60828370,-1.283,-0.316,-0.266,-149.8,85.96,23.922
60828380,-1.245,-0.74,0.366,-187.18,30.782,65.8
60828390,-1.093,-0.806,0.687,-173.67,-43.977,94.71
60828400,-0.808,-0.59,0.616,-146.597,-108.342,132.912
60828410,-0.433,-0.464,0.429,-115.43,-136.237,205.94
60828420,-0.076,-0.515,0.229,-84.665,-137.252,291.707
60828430,0.29,-0.547,0.017,-51.502,-143.395,348.862
60828440,0.81,-0.414,-0.226,-24.185,-147.857,375.462
60828450,1.407,-0.361,-0.401,-15.505,-163.257,368.76
60828460,1.997,-0.116,-0.433,-40.687,-185.412,317.8
60828470,1.998,-0.075,-0.183,-57.137,-192.447,277.182
60828480,1.998,-0.074,0.084,-90.44,-177.257,203.49
60828490,1.97,-0.12,0.39,-114.275,-153.72,126.857
60828500,1.553,-0.163,0.573,-113.137,-137.655,72.205
60828510,1.269,-0.292,0.226,-104.65,-141.155,35.857
60828520,-0.828,-1.917,1.507,161.507,-184.957,22.715
60828530,0.038,-1.998,0.66,288.487,-84.332,126.385
60828540,-0.731,-1.513,-1.231,507.185,-55.947,138.915
60828550,-0.541,1.989,1.282,496.422,-252.77,-66.832
60828560,0.334,1.045,-0.11,410.69,-125.212,-14.07
60828570,-1.998,-0.893,1.683,272.247,-245.56,-0.84
60828580,-0.024,1.046,1.862,373.082,-335.177,-123.112
60828580,1.651,0.639,1.74,227.657,-331.8,-203.42
60828600,1.998,1.463,0.733,11.935,-206.36,-153.825
60828600,1.353,0.573,1.173,-88.2,-4.917,-40.617
60828620,0.517,-0.168,1.253,-154.77,78.085,51.345
60828620,-0.444,-0.769,0.789,-157.605,69.65,70.367
60828640,-0.373,-0.79,0.55,-106.732,36.61,42.7
60828640,-0.317,-0.556,0.831,-65.03,12.32,-3.027
60828660,-0.139,-0.64,0.586,-19.862,-4.602,-52.395
60828660,0.065,-0.892,0.61,28.542,-10.885,-85.995
60828670,0.295,-0.314,0.892,81.287,-25.655,-95.305
60828680,0.429,0.039,1.122,89.442,-32.532,-68.617
60828690,0.237,0.012,1.093,66.675,-25.865,-39.252
60828700,0.262,0.133,1.164,43.067,-21.77,-29.96
60828710,0.55,0.193,1.102,8.207,-14.63,-26.705
60828720,0.46,-0.12,0.956,-27.527,8.89,-9.835
60828730,0.184,-0.362,0.896,-33.197,24.132,7.805
60828740,0,-0.33,0.931,-19.617,21.875,13.667
60828750,0.086,-0.227,0.979,-10.395,9.432,12.005
60828760,0.149,-0.202,0.986,-10.675,3.132,11.497
60828770,0.204,-0.169,1.014,-13.895,-1.4,15.855
60828780,0.22,-0.141,1.059,-20.947,-1.627,25.83
60828790,0.209,-0.095,1.136,-35.087,-3.5,37.712
60828800,0.241,-0.016,1.225,-58.975,-3.447,50.487
60828810,0.238,0.005,1.295,-94.605,-5.967,63.28
60828820,0.342,0.019,1.352,-141.522,-6.195,75.425
60828830,0.587,0.058,1.339,-191.222,-0.227,79.117
60828840,0.589,0.003,1.287,-239.557,27.79,82.18
60828850,0.766,-0.253,1.319,-277.777,52.307,96.267
60828860,1.192,-0.792,1.795,-311.587,98.787,120.19
60828870,1.68,-1.608,1.998,-351.155,236.337,149.502
60828880,-0.019,-1.998,0.814,-316.75,384.037,149.24
60828890,-0.881,-1.998,-0.117,-215.337,292.617,61.477
60828900,-1.119,-1.976,-0.642,-111.387,160.37,0.682
60828910,-0.246,-1.568,0.086,-105.84,89.495,47.74
60828920,0.479,-1.235,0.415,-88.567,-49.997,91.035
60828930,1.254,-0.685,0.048,-49.315,-162.837,82.11
60828940,1.491,-0.14,0.09,-34.335,-190.102,54.582
60828950,1.299,0.296,0.384,-53.13,-171.395,33.425
60828960,1.076,0.626,0.589,-70.262,-139.685,28.14
60828970,0.979,0.779,0.701,-92.662,-116.112,18.112
60828980,0.784,0.732,0.761,-111.667,-102.375,0.717
60828990,0.602,0.714,0.748,-107.205,-98.63,-13.457
60829000,0.48,0.683,0.635,-76.44,-99.47,-21.717
60829010,0.483,0.689,0.513,-40.985,-100.8,-32.217
60829010,0.499,0.52,0.413,-12.88,-94.587,-48.282
60829030,0.45,0.354,0.308,9.047,-81.777,-68.477
60829030,0.406,0.114,0.259,31.797,-69.3,-87.132
60829050,0.362,-0.026,0.044,56.437,-59.255,-115.535
60829050,0.294,-0.216,-0.267,86.24,-37.03,-136.99
60829070,0.276,-0.062,-0.497,106.382,-5.757,-184.117
60829070,-0.625,0.129,-0.515,138.337,34.265,-147.997
60829080,-0.655,-0.257,-0.36,101.307,71.505,-90.877
60829090,-0.554,-0.781,-0.108,41.247,81.077,-70.735
60829100,-0.405,-1.159,0.143,77,101.045,-21.84
60829110,-0.279,-1.557,-0.008,162.417,119.175,15.645
60829120,-0.324,-1.608,-0.678,223.545,91.77,-6.545
60829130,-1.691,-1.918,0.738,219.012,120.785,16.292
60829140,-1.998,-1.998,-0.184,241.272,250.302,295.365
60829150,0.124,0.478,0.832,535.08,-288.697,255.185
60829160,1.272,1.997,0.647,499.922,-189.612,-51.415
60829170,-1.992,0.411,1.376,368.392,-107.362,-4.13
60829180,0.858,-0.92,1.998,322.035,-256.865,-35.997
60829190,1.829,1.189,0.671,208.145,-251.527,-131.547
60829200,1.316,1.766,0.005,39.165,-76.475,-75.285
60829210,0.942,-0.878,1.55,-167.807,75.845,64.26
60829220,-0.376,-0.857,0.986,-120.872,73.92,57.172
60829230,-0.193,-0.937,0.862,-86.152,40.53,51.082
60829240,-0.271,-0.585,0.906,-35.192,8.295,16.94
60829250,0.114,-0.275,0.902,-18.13,-15.435,-25.34
60829260,0.438,-0.28,0.893,-1.242,-19.985,-49.577
60829270,0.493,-0.4,0.821,15.365,-10.745,-39.882
60829280,0.219,-0.595,0.872,41.492,1.172,-20.02
60829290,-0.013,0.023,1.104,69.142,-2.397,-14.315
60829300,0.065,0.331,1.073,41.492,-7.507,-20.422
60829310,0.273,0.039,1.015,-2.537,-10.43,-33.827
60829320,0.367,-0.009,0.96,-21.717,-3.43,-37.082
60829330,0.278,-0.196,0.97,-26.355,6.807,-24.08
60829330,0.035,-0.165,0.993,-19.74,10.745,-14.507
60829350,-0.033,-0.242,1.014,-17.115,0.035,-19.18
60829350,0.121,-0.172,0.976,-14.647,-12.88,-30.152
60829370,0.237,-0.152,0.984,-15.382,-18.34,-33.635
60829370,0.233,-0.092,0.992,-19.11,-16.835,-30.817
60829390,0.242,-0.126,1.032,-27.685,-13.965,-27.352
60829390,0.235,-0.044,1.068,-39.27,-10.797,-27.09
60829410,0.211,-0.047,1.147,-58.957,-7.14,-28.262
60829410,0.253,-0.011,1.259,-86.607,-0.98,-33.705
60829420,0.214,0.085,1.34,-128.817,9.222,-40.215
60829430,0.375,-0.305,1.32,-177.012,10.85,-48.247
60829440,0.308,0.432,1.073,-203.752,30.607,-63.42
60829450,0.545,-0.015,1.147,-272.475,76.492,-47.477
60829460,0.41,-0.137,1.088,-309.837,118.352,-48.597
60829470,0.457,-0.314,1.621,-349.23,131.197,-52.237
60829480,1.549,-0.671,1.998,-377.457,204.05,-48.055
60829490,1.446,-1.515,1.889,-364.245,402.937,-37.345
60829500,0.602,-1.998,1.664,-340.97,556.517,-55.877
60829510,1.653,-1.998,0.793,-247.187,573.37,-171.115
60829520,-0.742,-1.998,0.826,-64.907,568.732,-260.172
60829530,-1.998,-1.975,0.693,89.81,457.24,-355.6
60829540,-1.929,-0.722,0.107,239.4,222.075,-373.38
60829550,-1.311,0.046,-0.269,277.392,33.635,-298.252
60829560,-1.402,0.122,-0.55,182.857,-77.77,-197.155
60829570,-1.755,0.161,-0.533,86.012,-151.41,-101.797
60829580,-1.631,0.132,-0.925,30.45,-199.255,-9.467
60829590,-1.278,0.217,-1.231,23.397,-214.27,77.437
60829600,-0.676,0.483,-1.217,-6.16,-168.245,152.6
60829610,-0.463,0.32,-0.751,-77.227,-66.727,243.565
60829620,-0.447,-0.28,-0.166,-143.605,22.067,319.497
60829630,-0.292,-0.728,0.282,-150.377,48.562,351.05
60829640,0.033,-0.828,0.368,-111.09,30.432,351.995
60829650,0.448,-0.744,0.251,-73.92,6.282,344.015
60829660,0.799,-0.595,0.174,-58.205,-3.412,330.417
60829670,1.002,-0.558,0.086,-56.63,-6.282,310.432
60829680,1.174,-0.563,-0.076,-57.47,-7.157,275.502
60829690,1.416,-0.401,-0.228,-58.415,-3.92,222.95
60829700,1.275,-0.251,-0.169,-62.09,-2.695,172.55
60829710,1.053,-0.208,-0.046,-79.677,-23.695,117.617
60829720,0.939,-0.208,0.155,-97.86,-60.567,64.662
60829730,0.921,-0.24,0.271,-99.697,-98.052,25.882
60829740,0.899,-0.177,0.262,-78.557,-126.595,-0.14
60829750,0.823,-0.569,-0.255,-65.327,-141.47,-28.84
60829760,-1.445,-1.479,1.844,29.417,-250.53,-62.282
60829760,-1.591,-1.998,1.922,239.802,-470.225,56.682
60829780,1.991,-1.993,-1.927,464.082,-199.535,156.345
60829780,-0.285,1.509,0.449,568.312,-356.737,82.862
60829800,-0.182,1.506,-0.541,418.81,-250.407,-93.502
60829800,-1.697,-1.584,1.157,264.88,-252.262,32.077
60829820,-1.966,-0.97,1.256,424.987,-405.597,-94.027
60829820,1.645,-0.074,1.956,489.79,-495.127,-180.827
60829830,0.684,1.337,-0.306,164.797,-290.797,-202.265
60829840,0.18,0.793,0.879,-64.295,-0.962,-41.72
60829850,0.283,-1.3,1.701,-214.445,87.43,96.617
60829860,-0.612,-0.519,0.952,-152.705,63.437,32.567
60829870,-0.15,-1.211,0.573,-101.202,22.872,2.765
60829880,-0.646,-1.326,0.658,-21.017,-8.925,-35.805
60829890,0.34,-0.467,0.834,56.805,-47.565,-68.267
60829900,0.744,0.041,1.042,84.577,-49.945,-72.275
60829910,0.593,0.365,1.041,62.877,-26.705,-45.937
60829920,0.393,0.286,1.023,20.107,4.48,-12.705
60829930,0.21,-0.173,1.006,-11.987,16.135,-4.655
60829940,0.148,0.008,1.023,-19.215,16.537,-6.895
60829950,0.303,-0.192,0.998,-33.25,14.63,-7.665
60829960,0.174,-0.084,1.015,-38.762,20.125,-4.865
60829970,0.09,-0.231,1.044,-43.767,18.182,1.96
60829980,0.12,-0.161,1.016,-46.445,11.042,1.015
60829990,0.119,-0.205,0.988,-47.285,4.34,0.105
60830000,0.175,-0.301,0.976,-53.06,0.157,0.612
60830010,0.193,-0.157,1.049,-51.677,-4.585,2.572
60830020,0.274,-0.138,1.142,-65.082,-4.41,8.82
60830030,0.361,-0.049,1.225,-90.807,-0.927,13.16
60830040,0.34,-0.029,1.291,-128.1,11.41,21.735
60830050,0.299,-0.065,1.261,-169.4,14.315,25.69
60830060,0.445,-0.048,1.153,-207.357,28.56,16.747
60830070,0.531,0.013,1.026,-240.257,70.612,-7.822
60830080,0.714,-0.092,0.982,-274.172,151.952,-36.12
60830080,1.12,-0.511,1.278,-317.555,240.922,-54.6
60830100,1.347,-1.183,1.381,-328.685,390.792,-60.375
60830100,1.739,-1.786,1.382,-310.677,541.625,-78.592
60830120,1.253,-1.807,0.82,-270.357,573.37,-113.575
60830120,1.678,-1.998,0.635,-169.155,573.37,-167.09
60830140,1.253,-1.998,0.327,-36.802,573.37,-181.037
60830140,-0.056,-1.998,0.838,114.292,563.517,-204.085
60830160,-1.631,-1.996,0.994,208.915,385.175,-250.092
60830160,-1.039,-1.495,0.509,277.077,77.192,-277.83
60830170,-0.324,-0.947,0.227,303.31,-142.117,-286.545
60830180,-0.43,-0.661,-0.208,257.74,-257.792,-294.857
60830190,-1.287,-0.313,-0.563,205.747,-344.382,-314.037
60830200,-1.998,0.105,-0.853,155.942,-485.17,-365.085
60830210,-1.998,0.856,-1.284,86.362,-567.455,-407.925
60830220,-1.998,1.647,-1.924,-17.657,-530.757,-356.195
60830230,-1.998,1.997,-1.137,-116.9,-273.525,-129.307
60830240,-1.998,1.388,-0.058,-236.827,-7.735,201.582
60830250,-1.889,0.367,0.789,-299.67,80.097,439.915
60830260,-1.104,-0.381,1.269,-265.545,39.217,558.197
60830270,-0.377,-0.85,1.345,-186.375,-53.2,573.37
60830280,0.313,-1.119,1.434,-104.212,-139.317,570.412
60830290,1.371,-1.204,0.609,7.49,-220.447,539.77
60830300,1.998,-0.663,-0.614,189.315,-180.372,492.467
60830310,1.998,-0.288,-1.087,267.767,-24.552,420.962
60830320,1.998,-0.456,-0.883,158.41,81.147,222.25
60830330,1.33,-1.027,-0.328,41.597,39.48,-27.072
60830340,0.02,-1.547,-0.51,45.342,-55.475,-193.077
60830350,-1.998,-1.998,1.833,203.42,-267.627,-43.802
60830360,0.981,-1.998,-1.987,382.847,-207.707,148.067
60830370,1.998,1.443,0.09,568.225,-391.195,-16.747
60830380,0.558,1.673,-0.543,407.102,-216.212,-150.57
60830390,-1.627,-0.638,1.599,145.25,-145.565,9.957
60830400,-1.783,-1.481,1.553,328.737,-302.225,-46.305
60830410,1.455,1.229,1.777,468.877,-350.437,-148.382
60830420,1.529,0.939,1.075,158.077,-211.627,-134.015
60830430,1.507,1.262,0.366,8.137,-73.955,-87.762
60830440,0.566,-0.392,1.319,-126.455,43.505,36.715
60830450,-0.193,-0.697,1.049,-106.925,51.31,34.177
60830460,-0.08,-1.101,0.772,-77.927,32.847,26.145
60830470,-0.071,-0.544,0.91,-25.9,11.322,3.097
60830480,-0.028,-0.387,0.865,-2.922,-5.687,-14.157
60830490,0.178,-0.412,0.876,21.315,-19.145,-36.155
60830500,0.371,-0.065,0.961,42.98,-21.805,-38.062
60830510,0.363,-0.011,1.019,37.992,-12.775,-25.637
60830510,0.304,0.112,1.016,19.39,0.192,-9.292
60830530,0.258,-0.005,1.009,-4.27,10.815,-0.35
60830530,0.164,-0.113,1.023,-20.177,14.087,-1.592
60830550,0.204,-0.112,1.007,-29.347,14.385,-5.95
60830550,0.228,-0.128,1.011,-34.002,15.715,-5.67
60830570,0.103,-0.16,1.022,-39.707,17.325,-5.635
60830570,0.16,-0.134,1.04,-44.45,13.755,-9.345
60830580,0.15,-0.055,1.081,-54.705,13.737,-12.46
60830590,0.216,-0.136,1.098,-71.4,12.53,-11.515
60830600,0.141,-0.15,1.142,-88.322,9.782,-7.297
60830610,0.24,-0.117,1.18,-108.832,4.077,-3.71
60830620,0.198,-0.039,1.234,-141.452,2.712,1.032
60830630,0.183,-0.048,1.278,-179.182,-2.485,7
60830640,0.107,-0.076,1.242,-221.147,-9.03,6.247
60830650,0.309,-0.185,1.057,-256.83,-4.217,-2.03
60830660,0.543,-0.348,1.347,-281.925,29.925,-34.475
60830670,0.19,0.003,1.331,-250.705,56.595,-35.77
60830680,0.555,-0.907,1.545,-319.042,140.385,-39.287
60830690,0.486,-1.218,1.49,-298.287,210.98,-65.765
60830700,1.224,-1.373,1.574,-263.777,232.242,-82.495
60830710,1.398,-1.863,0.532,-197.522,303.31,-132.09
60830720,-1.43,-1.854,1.225,-159.635,267.61,-262.115
60830730,-0.472,-1.507,0.487,-106.365,158.287,-302.295
60830740,-1.177,-1.018,0.658,-32.935,63.017,-248.5
60830750,-1.126,-0.473,0.331,10.605,-2.66,-202.807
60830760,-1.101,-0.199,0.144,47.775,-15.47,-118.422
60830770,-1.24,0.018,-0.026,53.462,-7.612,-39.812
60830780,-1.301,0.489,-0.146,43.33,2.24,24.517
60830790,-1.38,0.673,-0.127,31.85,12.425,118.72
60830800,-1.138,0.549,-0.108,14.017,3.937,195.422
60830810,-0.91,0.448,0.081,11.112,-18.987,239.54
60830820,-0.709,0.319,0.332,3.517,-40.967,274.995
60830830,-0.535,-0.084,0.488,-2.1,-63.227,310.66
60830830,-0.273,-0.444,0.429,20.457,-92.907,332.482
60830850,0.218,-0.553,0.134,60.55,-117.722,336.14
60830850,0.58,-0.446,-0.202,90.86,-116.515,332.36
60830870,0.794,-0.407,-0.588,95.62,-93.38,322.437
60830870,1.009,-0.381,-0.768,79.87,-62.44,294.77
60830890,1.224,-0.364,-0.709,38.272,-39.935,242.742
60830890,1.225,-0.487,-0.458,-16.712,-27.562,173.6
60830910,1.112,-0.933,0.048,-60.445,-17.062,97.772
60830910,0.693,-0.864,-0.653,-59.675,-7.332,31.115
60830920,-0.537,-1.995,1.283,126.63,-118.755,-25.042
60830930,0.113,-1.998,-0.855,186.375,-147.56,-27.02
60830940,-0.524,0.332,-0.683,555.275,-111.212,-140
60830950,0.34,1.997,0.34,474.95,-301.927,-281.54
60830960,-0.417,-0.488,0.688,261.415,-137.13,-1.05
60830970,-1.608,-1.297,1.547,299.74,-316.102,-131.652
60830980,1.448,0.792,1.896,418.25,-365.802,-170.782
60830990,1.763,1.283,1.004,186.76,-270.882,-136.342
60831000,1.762,1.316,0.556,9.1,-100.362,-67.095
60831010,1.155,0.067,1.238,-105.612,52.587,43.785
60831020,0.182,-0.39,1.14,-135.362,99.12,89.057
60831030,-0.744,-0.868,0.907,-117.512,82.565,82.267
60831040,-0.292,-0.701,0.732,-69.72,37.03,38.01
60831050,-0.465,-0.537,0.791,-30.73,2.852,-7.315
60831060,-0.125,-0.661,0.735,12.635,-29.627,-46.55
60831070,0.383,-0.426,0.85,56.49,-52.815,-61.985
60831080,0.398,-0.114,1.017,76.475,-49.717,-50.872
60831090,0.324,0.025,1.06,67.34,-41.405,-33.46
60831100,0.195,0.02,1.068,46.392,-33.81,-25.252
60831110,0.266,0.077,1.049,24.447,-34.755,-28.07
60831120,0.503,0.081,0.976,-0.612,-26.355,-21.437
60831130,0.533,-0.119,0.929,-22.872,-9.52,-7.997
60831140,0.332,-0.202,0.945,-28.525,8.837,8.54
60831150,0.138,-0.188,1.01,-26.722,12.792,17.78
60831160,0.151,-0.084,1.058,-29.942,8.522,19.127
60831170,0.16,-0.085,1.114,-43.382,2.59,20.86
60831180,0.17,-0.055,1.191,-63.647,-2.555,25.462
60831190,0.119,0.035,1.347,-93.1,-13.055,35.192
60831200,0.229,-0.022,1.469,-140.787,-31.29,44.31
60831210,0.38,0.169,1.528,-189.402,-28.07,39.882
60831220,0.097,0.147,1.547,-261.362,-10.885,32.392
60831230,0.669,-0.027,1.397,-332.535,41.597,26.81
60831240,1.083,-0.569,1.695,-401.24,203.315,3.552
60831250,1.481,-1.961,1.967,-470.575,370.072,-11.847
60831260,1.175,-1.998,1.208,-397.215,529.077,-9.047
60831260,-0.191,-1.998,-1.415,-210.7,551.862,-52.71
60831270,0.236,-1.996,0.016,-143.062,464.695,-89.897
60831280,-0.629,-1.956,0.839,-157.71,306.18,-44.66
60831290,-0.556,-0.87,1.629,-116.917,29.575,-48.667
60831300,0.444,0.054,1.084,-68.285,-181.247,-40.075
60831310,0.466,0.78,0.854,-51.467,-244.58,-33.74
60831320,-0.155,1.247,1.133,-90.947,-234.815,-45.832
60831330,-0.457,1.439,1.288,-117.25,-206.797,-58.222
60831340,-1.076,1.42,1.488,-110.6,-177.03,-45.745
60831350,-1.448,1.161,1.402,-74.217,-157.972,7.017
60831360,-1.2,0.882,1.192,-3.15,-145.617,89.18
60831370,-0.683,0.496,0.794,79.292,-151.305,170.222
60831380,-0.089,0.195,0.328,136.062,-151.532,212.222
60831390,0.357,-0.032,-0.125,171.167,-138.687,218.47
60831400,0.622,-0.157,-0.511,193.147,-109.2,202.825
60831410,0.919,-0.23,-0.984,198.957,-64.802,178.832
60831420,0.935,-0.178,-1.156,181.335,-22.225,143.01
60831430,0.892,-0.31,-1.132,115.272,-7.21,64.015
60831440,0.714,-0.715,-0.993,21.595,21.297,-12.512
60831450,0.223,-1.269,-0.789,-33.04,59.57,-69.195
60831460,-0.252,-1.372,-0.6,-27.02,91.227,-103.057
60831470,-0.63,-1.188,-0.511,-9.45,79.17,-112.175
60831480,-0.688,-1.133,-0.56,-10.972,24.99,-93.712
60831490,-0.435,-1.118,-0.713,-19.985,-38.167,-51.887
60831500,-0.302,-1.114,-0.825,-15.312,-75.652,-4.97
60831510,-0.298,-1.093,-0.787,-15.33,-96.705,25.305
60831520,-0.582,-0.86,-0.746,-11.06,-121.992,44.555
60831530,-1.27,-1.391,0.11,109.13,-167.65,89.95
60831540,0.856,-1.945,1.998,40.46,-33.442,181.79
60831550,0.837,-1.998,-1.05,345.765,128.397,309.435
60831560,-1.063,1.278,0.653,534.1,-215.81,87.045
60831570,1.054,0.329,0.329,277.48,-199.08,118.842
60831580,-1.42,-1.042,1.658,247.992,-218.225,99.172
60831580,-0.28,0.683,1.46,390.495,-264.705,-84.105
60831600,0.94,0.328,1.872,243.512,-252.472,-130.095
60831600,1.936,0.736,1.174,120.417,-187.232,-126.945
60831620,1.691,1.01,1.064,-14.945,-66.745,-34.72
60831620,0.696,0.335,1.471,-120.295,27.317,53.882
60831640,-0.297,-0.016,1.22,-187.302,39.865,84.822
60831640,0.084,-0.309,0.855,-189.42,-6.16,67.287
60831660,0.08,-0.85,0.588,-154.507,-15.68,31.202
60831660,0.119,-0.545,0.387,-102.882,-0.087,1.522
60831670,0.115,-1.097,0.401,-62.09,16.905,-9.572
60831680,0.256,-0.686,0.599,7.962,23.852,-21.962
60831690,0.116,-0.396,0.813,43.207,24.447,-18.847
60831700,-0.083,-0.31,1.001,60.777,19.967,-20.632
60831710,-0.001,-0.151,1.086,63.595,3.955,-37.45
60831720,0.168,-0.023,1.164,51.222,-5.425,-51.87
60831730,0.407,0.121,1.186,23.712,-9.59,-53.077
60831740,0.385,-0.051,1.093,-11.742,-5.845,-33.722
60831750,0.356,-0.199,0.966,-32.952,-5.95,-10.832
60831760,0.142,-0.374,0.931,-36.855,-5.792,1.33
60831770,0.068,-0.207,0.944,-24.307,-12.11,-2.712
60831780,0.143,-0.271,1.084,-35.017,-12.635,-9.8
60831790,0.251,-0.102,1.122,-44.135,-13.335,-21.507
60831800,0.348,-0.153,1.182,-71.032,-6.265,-23.712
60831810,0.391,-0.099,1.223,-105.35,1.015,-27.265
60831820,0.425,-0.085,1.222,-148.382,16.082,-29.907
60831830,0.416,-0.006,1.183,-196.665,46.812,-38.99
60831840,0.554,0.125,1.246,-252.63,104.177,-54.985
60831850,1.011,0.104,1.486,-331.17,171.255,-81.532
60831860,1.971,-1.029,1.736,-416.045,322.14,-113.155
60831870,1.441,-1.998,1.744,-444.902,532.192,-132.02
60831880,0.96,-1.954,0.763,-340.235,573.37,-201.442
60831890,1.985,-1.998,1.019,-317.135,573.37,-260.697
60831900,0.599,-1.998,1.691,-220.412,564.655,-319.462
60831910,-1.998,-1.998,1.638,20.65,362.162,-501.182
60831920,-1.998,-0.98,0.733,243.635,28.21,-561.295
60831930,-1.998,0.705,-0.105,286.825,-211.19,-483.962
60831940,-1.998,0.91,-1.152,180.11,-237.545,-325.027
60831950,-1.998,1.656,-1.08,57.96,-105.052,-137.725
60831960,-1.956,1.497,-0.494,-45.815,42.997,95.55
60831960,-1.367,0.494,0.262,-155.067,90.685,248.5
60831980,-0.592,-0.163,0.824,-189.437,55.352,281.505
60831980,0.17,-0.48,1.047,-139.842,12.88,267.557
60832000,0.57,-0.428,0.939,-56.927,-6.667,229.355
60832000,0.734,-0.316,0.681,27.212,-0.385,186.025
60832010,0.691,-0.198,0.382,90.177,15.645,134.627
60832020,0.476,-0.208,0.132,120.225,33.162,88.48
60832030,0.383,-0.381,-0.355,138.967,54.827,52.867
60832040,0.508,-0.418,-0.965,166.197,99.032,20.65
60832050,0.518,-0.278,-1.365,171.815,165.235,-13.772
60832060,0.113,-0.286,-1.497,121.502,223.545,-39.427
60832070,-0.096,-0.489,-1.203,45.045,245.245,-27.947
60832080,-0.206,-0.889,-0.793,-26.915,224.945,0.735
60832090,-0.035,-1.091,-0.5,-44.887,173.915,37.607
60832100,0.132,-0.884,-0.386,-22.75,111.825,87.01
60832110,0.367,-0.613,-0.492,-15.907,44.765,142.607
60832120,0.793,-0.643,-0.751,-37.59,-9.747,202.702
60832130,1.21,-0.772,-0.947,-70.577,-54.775,248.045
60832140,1.213,-0.95,-0.91,-112.507,-119.245,261.975
60832150,1.344,-1.168,-0.811,-160.282,-233.012,245.682
60832160,1.827,-1.539,-0.616,-189.385,-316.522,237.16
60832170,0.591,-1.592,0.337,-182.91,-355.425,224.875
60832180,-1.993,-1.202,1.828,-333.515,-523.145,165.742
60832190,1.884,-1.998,-0.925,131.075,-453.582,262.027
60832200,0.375,0.47,-0.552,573.037,-309.855,401.17
60832210,-1.301,1.84,-0.201,502.635,-448.997,-59.237
60832220,-1.328,-1.317,1.674,87.29,-355.932,48.44
60832230,-0.216,0.036,1.808,237.86,-442.872,-167.457
60832240,1.791,1.343,1.065,268.73,-350.122,-272.842
60832250,1.004,1.227,0.737,-78.137,-90.107,-157.29
60832260,1.381,0.094,1.605,-160.09,77.507,38.902
60832270,-0.259,0.003,1.422,-226.047,139.002,77.315
60832280,-0.543,-0.676,0.568,-227.027,110.162,66.342
60832290,-0.729,-1.382,0.459,-167.755,65.397,22.225
60832300,-0.3,-0.691,0.618,-94.57,33.477,-20.405
60832310,-0.112,-0.882,0.428,-34.615,16.047,-57.19
60832320,0.077,-0.786,0.637,34.842,4.725,-70.805
60832330,-0.044,-0.403,0.834,89.442,-9.94,-72.8
60832330,0.046,-0.146,1.122,107.992,-26.67,-74.025
60832350,0.337,0.106,1.193,94.29,-36.085,-72.327
60832350,0.484,0.103,1.144,58.38,-28,-59.412
60832370,0.495,0.107,1.107,21.98,-7.945,-38.272
60832370,0.385,-0.145,1.001,-11.707,12.232,-15.347
60832390,0.092,-0.251,0.962,-23.082,22.522,4.83
60832390,-0.145,-0.343,0.947,-19.232,15.12,8.277
60832410,-0.082,-0.326,0.915,-4.445,-2.87,-0.332
60832410,0.107,-0.393,0.94,7.385,-17.885,-4.27
60832420,0.157,-0.288,0.954,16.135,-25.147,-6.86
60832430,0.238,-0.233,0.987,19.39,-28.315,-2.485
60832440,0.231,-0.274,1.033,15.277,-22.225,5.18
60832450,0.238,-0.358,1.11,9.31,-15.715,7.962
60832460,0.331,-0.494,1.217,3.92,-6.195,11.497
60832470,0.708,-0.759,1.625,0.105,-7.63,20.597
60832480,1.393,-1.627,1.998,-2.747,39.637,42.087
60832490,0.952,-1.998,1.768,78.942,119.997,57.33
60832500,1.724,-1.998,-0.583,192.955,277.147,35.84
60832510,-1.57,-1.998,-0.006,83.107,349.072,51.835
60832520,1.18,-1.998,-0.022,-60.777,50.312,-163.292
60832530,1.974,-1.998,-0.672,-21.98,-15.995,-323.417
60832540,0.427,-1.998,0.071,-103.88,-22.172,-396.952
60832550,-0.489,-1.998,0.493,-285.372,-110.862,-443.292
60832560,-1.084,-1.3,0.145,-347.392,-167.335,-445.672
60832570,-1.851,0.463,1.172,-396.742,-127.382,-419.125
60832580,-1.998,1.388,1.959,-448.297,-85.505,-334.127
60832590,-1.713,1.997,1.418,-404.32,-105.245,-229.005
60832600,-0.316,1.997,0.552,-283.517,-83.825,-48.895
60832610,0.6,1.751,0.012,-221.585,-68.477,83.737
60832620,1.334,1.96,0.834,-164.64,-67.76,41.58
60832630,-1.987,1.704,1.998,83.142,118.737,41.002
60832640,-0.22,-1.269,-0.105,408.712,90.527,306.302
60832650,0.038,-1.998,1.957,443.047,152.127,485.432
60832660,-0.755,0.492,1.236,278.337,-10.622,118.615
60832670,-0.77,1.274,1.293,356.877,-95.602,-44.782
60832670,-0.418,-0.416,1.71,248.885,-122.5,-112.175
60832690,0.458,0.537,1.344,231.805,-155.89,-217.122
60832690,1.229,0.142,1.071,138.775,-134.68,-193.2
60832710,1.66,0.114,0.784,95.06,-100.012,-113.68
60832710,1.275,0.19,0.905,63.297,-22.575,-7.192
60832730,0.365,0.159,1.1,31.692,41.335,54.617
60832730,0.065,0.069,1.125,-4.217,48.632,61.145
60832750,0.051,-0.004,1.099,-33.53,41.142,41.02
60832750,0.116,-0.131,1.061,-55.335,33.04,20.842
60832760,0.202,-0.215,1.013,-67.41,28.647,7.525
60832770,0.284,-0.236,0.991,-70.927,26.46,4.2
60832780,0.315,-0.221,0.993,-72.38,29.347,9.047
60832790,0.282,-0.2,1.002,-74.777,32.847,16.695
60832800,0.216,-0.206,0.989,-79.117,36.75,22.855
60832810,0.174,-0.253,0.947,-79.835,35.455,24.167
60832820,0.151,-0.296,0.925,-76.457,35.402,23.38
60832830,0.092,-0.34,0.89,-70.437,32.147,21.822
60832840,0.023,-0.346,0.897,-64.995,28.682,19.74
60832850,-0.054,-0.343,0.876,-60.375,19.635,14.21
60832860,-0.045,-0.361,0.821,-56.262,11.235,3.955
60832870,-0.009,-0.435,0.789,-49.542,5.407,-6.177
60832880,0.028,-0.481,0.792,-34.65,2.432,-16.817
60832890,0.116,-0.459,0.768,-13.965,-2.625,-23.94
60832900,0.201,-0.452,0.755,6.265,-1.872,-22.785
60832910,0.251,-0.454,0.77,26.495,-1.732,-16.66
60832920,0.241,-0.43,0.797,45.185,2.572,-7.087
60832930,0.185,-0.386,0.832,62.37,5.6,1.942
60832940,0.102,-0.287,0.902,77.385,7.315,5.932
60832950,-0.007,-0.332,0.925,88.235,-1.645,4.007
60832960,-0.064,-0.322,0.954,97.702,-14.682,-2.87
60832970,-0.051,-0.275,0.97,107.537,-34.002,-13.527
60832980,-0.024,-0.306,0.997,113.225,-51.765,-23.677
60832990,0.099,-0.302,1.06,114.52,-69.737,-36.89
60833000,0.192,-0.124,1.047,101.255,-76.335,-44.625
60833010,0.211,0.079,1.102,93.45,-71.242,-33.985
60833020,0.346,-0.156,1.127,74.375,-62.842,-27.492
60833030,0.481,0.04,0.973,65.1,-57.242,-34.23
60833040,0.562,0.008,0.924,40.792,-38.5,-22.785
60833050,0.498,0.028,0.914,26.197,-16.45,-6.44
60833060,0.361,-0.014,0.936,15.837,2.695,8.015
60833070,0.327,-0.112,0.952,5.95,13.16,14.437
60833080,0.261,-0.111,0.951,1.207,18.532,14.98
60833080,0.191,-0.116,0.963,-2.765,20.247,14.892
60833100,0.149,-0.108,0.97,-2.712,17.762,13.615
60833100,0.098,-0.128,0.987,-2.117,12.53,9.555
60833120,0.087,-0.11,0.987,-2.222,2.642,1.627
60833120,0.131,-0.155,0.996,-6.965,-6.457,-4.9
60833140,0.164,-0.124,0.983,-7,-14.805,-9.782
60833140,0.12,-0.108,0.963,-7.612,-19.407,-11.655
60833160,0.188,-0.022,0.963,-5.74,-25.462,-14.577
60833160,0.231,-0.097,0.97,-12.337,-25.567,-15.925
60833170,0.361,-0.093,0.959,-18.322,-23.397,-13.055
60833180,0.4,-0.028,0.975,-24.552,-13.405,-6.615
60833190,0.319,-0.017,1.041,-36.75,-3.762,0.472
60833200,0.288,0.005,1.103,-53.287,3.132,5.495
60833210,0.283,-0.048,1.138,-73.675,3.447,8.26
60833220,0.131,0.008,1.164,-94.185,1.085,10.115
60833230,0.264,0.056,1.157,-120.995,-7.472,16.66
60833240,0.394,0.067,1.144,-148.82,-3.132,26.285
60833250,0.094,0.046,1.19,-176.33,8.522,32.235
60833260,0.198,0.01,1.176,-199.027,0.157,36.855
60833270,0.217,-0.085,1.062,-215.6,-8.435,40.6
60833280,0.273,-0.169,1.18,-235.322,-4.375,43.89
60833290,0.335,-0.631,1.446,-257.652,-1.575,42.857
60833300,0.668,-0.108,1.593,-226.03,15.837,-3.937
60833310,0.391,0.095,1.425,-131.67,6.667,19.355
60833320,0.991,-0.182,1.982,-131.95,85.785,36.767
60833330,-0.195,0.313,0.618,0.437,74.62,-10.447
60833340,0.167,1.428,0.29,57.89,-34.02,-77.35
60833350,0.832,1.075,0.218,-12.915,-36.4,-56.175
60833360,0.513,0.25,0.777,-38.64,-1.785,-25.882
60833370,0.133,0.173,0.891,9.45,2.152,-53.882
60833380,0.039,0.572,0.773,71.767,-27.335,-81.042
60833390,0.084,0.665,0.721,86.205,-37.992,-75.652
60833400,0.032,0.438,0.782,88.76,-29.61,-48.93
60833410,-0.098,0.266,0.818,101.71,-26.197,-29.855
60833420,-0.154,0.217,0.882,114.17,-26.652,-16.1
60833420,-0.17,0.113,0.987,119.087,-22.61,4.287
60833440,-0.271,-0.066,1.076,124.442,-14.052,33.092
60833440,-0.333,-0.202,1.126,131.495,-9.66,62.195
60833460,-0.213,-0.374,1.174,138.967,-8.715,93.292
60833460,-0.04,-0.635,1.173,146.877,-6.002,123.392
60833480,0.077,-0.864,1.152,154.717,-4.882,141.4
60833480,0.09,-0.986,1.172,157.552,-9.345,146.16
60833500,0.054,-1.103,1.178,154,-22.382,142.922
60833500,0.037,-1.145,1.111,154.385,-33.897,139.615
60833510,-0.012,-1.135,0.993,154.997,-41.23,136.902
60833520,-0.049,-1.058,0.792,148.767,-40.355,133.455
60833530,0.05,-1.007,0.681,136.85,-30.66,131.967
60833540,0.066,-1.065,0.6,110.652,-12.355,129.605
60833550,-0.084,-1.092,0.513,87.43,-2.1,123.462
60833560,-0.075,-0.987,0.405,66.745,5.635,117.775
60833570,0.144,-0.967,0.441,37.695,26.092,115.552
60833580,0.263,-1.121,0.715,13.282,66.237,116.707
60833590,0.214,-1.203,0.846,7.437,86.432,105.192
60833600,0.273,-1.01,0.664,14.157,76.265,78.855
60833610,0.48,-0.706,0.387,11.497,55.317,50.225
60833620,0.7,-0.529,0.457,-25.13,51.607,25.497
60833630,0.566,-0.748,0.933,-73.937,55.037,13.842
60833640,-0.258,-0.655,1.484,-61.232,27.947,4.357
60833650,-0.765,-0.303,1.734,-5.915,-30.117,-3.255
60833660,-0.982,-0.456,1.165,60.165,-46.445,3.272
60833670,-0.237,-0.403,1.45,85.032,-89.25,-1.067
60833680,0.064,-0.243,1.309,84.63,-122.99,-11.882
60833690,0.63,0.284,0.952,80.29,-140.297,-27.825
60833700,0.866,0.228,0.823,32.462,-103.145,-13.72
60833710,0.668,-0.044,0.897,4.847,-65.712,-1.802
60833720,0.654,-0.083,0.873,-6.457,-38.727,-2.257
60833730,0.647,-0.133,0.86,-8.75,-12.442,-1.12
60833740,0.469,-0.231,0.932,-9.87,12.897,1.995
60833750,0.327,-0.127,0.954,-5.582,24.937,-0.175
60833760,0.189,-0.214,0.999,-6.615,29.522,-0.857
60833770,0.184,-0.193,1.014,-4.69,25.847,-1.89
60833780,0.182,-0.185,1.009,-1.925,20.842,-2.975
60833790,0.137,-0.249,1.012,2.135,15.61,-2.537
60833800,0.123,-0.044,0.938,9.1,10.342,-4.76
60833810,0.026,0.048,0.922,5.512,7.98,-4.532
60833820,0.174,-0.071,0.937,-2.66,4.585,-1.61
60833830,0.237,-0.156,0.957,-5.705,4.795,-0.927
60833830,0.228,-0.051,0.937,-3.482,6.177,-3.727
60833850,0.242,-0.057,0.954,-7.542,10.132,-2.1
60833850,0.222,-0.09,0.962,-9.992,11.655,-1.802
60833870,0.239,-0.116,0.972,-11.69,13.16,-1.837
60833870,0.198,-0.066,0.986,-12.18,12.967,-3.29
60833890,0.096,-0.094,0.998,-14.647,11.55,-4.06
60833890,0.039,-0.147,0.993,-13.685,3.447,-5.127
60833910,0.088,-0.17,0.982,-10.605,-5.337,-7.105
60833910,0.191,-0.169,0.97,-9.205,-13.282,-8.575
60833920,0.217,-0.156,0.957,-8.855,-14.14,-8.155
60833930,0.228,-0.19,0.96,-6.265,-15.662,-6.825
60833940,0.309,-0.14,0.954,-3.045,-13.3,-4.672
60833950,0.29,-0.135,0.955,-2.03,-9.73,-1.82
60833960,0.242,-0.182,0.959,-1.12,-4.83,0.385
60833970,0.237,-0.081,0.938,0.245,-4.48,-1.89
60833980,0.214,-0.06,0.945,-4.2,-1.05,-3.517
60833990,0.28,-0.02,0.933,-11.217,0.63,-5.932
60834000,0.222,-0.112,0.951,-20.912,6.457,-6.527
60834010,0.208,-0.143,0.97,-23.38,6.23,-8.137
60834020,0.227,-0.117,0.98,-23.835,8.61,-7.035
60834030,0.193,-0.148,0.989,-25.672,10.22,-4.655
60834040,0.185,-0.138,0.991,-26.442,12.197,-2.572
60834050,0.168,-0.146,0.988,-26.145,9.94,-2.31
60834060,0.147,-0.171,0.985,-24.955,8.557,-3.29
60834070,0.163,-0.137,0.99,-22.26,4.217,-6.195
60834080,0.167,-0.163,0.982,-21.752,2.625,-8.05
60834090,0.214,-0.167,0.976,-24.045,0.455,-7.56
60834100,0.231,-0.159,0.98,-26.232,1.715,-6.002
60834110,0.208,-0.128,0.996,-29.697,2.66,-4.445
60834120,0.14,-0.137,1.003,-34.597,3.22,-5.582
60834130,0.158,-0.149,1.011,-39.34,0.472,-9.065
60834140,0.187,-0.151,0.999,-44.485,-0.945,-14.122
60834150,0.252,-0.186,0.956,-46.62,-0.525,-20.16
60834160,0.338,-0.229,0.905,-46.147,4.777,-21.455
60834170,0.252,-0.23,0.92,-43.697,16.957,-20.335
60834170,0.233,-0.237,0.908,-38.657,20.405,-18.567
60834190,0.184,-0.256,0.931,-34.51,22.645,-16.835
60834190,0.221,-0.226,0.965,-32.13,22.855,-16.695
60834210,0.23,-0.177,1.006,-35.42,25.655,-16.38
60834210,0.306,-0.15,1.017,-43.435,29.802,-15.085
60834230,0.283,-0.156,1.051,-52.692,38.08,-15.82
60834230,0.325,-0.111,1.095,-63.122,45.937,-12.53
60834250,0.345,-0.135,1.166,-84.49,58.082,-11.497
60834250,0.378,-0.075,1.24,-105.49,70.105,-13.387
60834260,0.462,-0.058,1.301,-139.125,91.21,-16.205
60834270,0.503,-0.017,1.285,-180.18,123.567,-24.552
60834280,0.655,-0.123,1.387,-234.622,186.655,-36.452
60834290,0.827,-0.471,1.467,-295.61,291.147,-48.387
60834300,0.958,-1.012,1.502,-335.3,424.952,-72.432
60834310,0.689,-0.948,1.155,-336.945,538.247,-118.807
60834320,1.086,-1.413,1.672,-361.182,572.6,-172.672
60834330,1.844,-1.998,1.99,-400.155,573.37,-158.305
60834340,0.481,-1.998,1.837,-207.025,573.37,-155.085
60834350,-1.519,-1.998,1.978,83.93,542.762,-252.087
60834360,-1.683,-1.624,-0.273,400.242,257.285,-403.375
60834370,-0.055,0.147,-1.855,542.71,-73.605,-412.51
60834380,-0.471,0.261,-1.995,343.735,-244.737,-363.405
60834390,-0.299,0.138,-1.596,73.71,-261.747,-307.422
60834400,-1.052,0.188,-0.714,-111.825,-199.71,-222.722
60834410,-1.894,0.014,0.062,-174.352,-147.647,-148.05
60834420,-1.998,0.13,0.454,-133.105,-157.552,-97.265
60834430,-1.998,0.217,0.566,-100.467,-214.812,-28.962
60834440,-1.543,0.362,0.371,-105.927,-267.767,75.302
60834450,-0.685,0.204,0.257,-103.39,-283.377,210.175
60834460,0.048,-0.119,0.101,-98.49,-271.827,306.635
60834470,0.615,-0.216,0.02,-79.012,-251.807,319.147
60834480,0.974,-0.103,-0.045,-47.302,-227.587,284.357
60834490,1.166,0.131,-0.08,-16.957,-196.63,241.937
60834500,1.253,0.328,-0.021,0.105,-150.745,205.222
60834510,1.163,0.379,0.083,-1.19,-98.087,169.662
60834520,0.968,0.328,0.207,-8.802,-51.065,130.637
60834530,0.753,0.275,0.271,-17.78,-20.58,85.855
60834540,0.493,0.202,0.294,-17.307,-6.86,48.965
60834550,0.26,0.172,0.267,-12.337,-8.96,24.045
60834560,0.015,0.118,0.202,-6.475,-25.55,15.82
60834570,-0.189,0.212,0.127,4.742,-51.66,29.067
60834580,-0.26,0.277,0.074,14.7,-78.645,61.337
60834580,-0.316,0.219,0.108,13.877,-100.765,109.182
60834600,-0.336,0.054,0.235,5.915,-131.075,154.542
60834600,-0.08,-0.24,0.279,8.907,-170.397,189.56
60834620,0.495,-0.823,-0.314,20.51,-220.272,162.015
60834620,1.224,1.114,0.338,91.892,-238.262,66.622
60834640,-0.914,-1.44,-1.565,371.14,-263.34,302.68
60834640,-0.395,-1.998,1.998,287.63,-350.945,333.042
60834660,1.998,-1.998,0.503,425.95,-22.697,206.937
60834660,-0.133,-0.654,-1.618,544.617,245.892,174.44
60834670,-1.307,1.997,0.969,354.427,-266.087,-80.307
60834680,1.095,0.56,0.431,221.62,-137.76,87.412
60834690,-1.998,-0.642,1.747,213.99,-229.862,22.715
60834700,-0.171,0.613,1.39,302.137,-331.94,-213.202
60834710,0.852,-1.334,1.429,272.055,-346.307,-304.045
60834720,1.998,0.806,1.093,219.52,-270.882,-321.317
60834730,1.998,1.759,0.454,104.527,-116.2,-175.262
60834740,0.856,0.212,1.12,-12.792,52.465,47.687
60834750,-0.518,-0.234,1.217,-55.597,86.922,98.892
60834760,-0.659,-0.615,1.038,-63.297,41.772,68.022
60834770,-0.351,-0.438,0.981,-31.99,-11.025,6.335
60834780,0.119,-0.268,0.93,-8.155,-42.857,-31.605
60834790,0.617,-0.212,0.822,3.71,-50.907,-40.705
60834800,0.666,-0.153,0.825,11.2,-28.455,-22.662
60834810,0.344,-0.213,0.905,12.425,-2.38,1.207
60834820,0.074,-0.211,0.991,14.665,6.387,6.982
60834830,0.059,-0.084,1.034,13.177,-2.292,-5.11
60834840,0.272,-0.015,1.018,0.542,-9.642,-16.905
60834850,0.464,-0.024,0.974,-18.077,-5.32,-17.797
60834860,0.408,-0.06,0.993,-35.472,10.307,-6.055
60834870,0.2,-0.117,1.039,-49.91,21.262,7.735
60834880,0.055,-0.167,1.039,-59.587,19.442,12.617
60834890,0.04,-0.244,1.017,-63.875,7.105,8.942
60834900,0.121,-0.213,1.005,-64.242,-7.175,3.692
60834910,0.205,-0.173,1.016,-66.15,-15.4,2.187
60834920,0.242,-0.103,1.109,-76.142,-19.565,6.387
60834920,0.27,-0.027,1.18,-98.472,-24.797,18.76
60834940,0.246,0.007,1.24,-133.087,-33.722,34.772
60834940,0.25,-0.485,1.292,-174.492,-43.802,46.532
60834960,0.202,0.576,1.113,-188.807,-55.02,23.94
60834960,0.203,0.078,1.329,-247.17,-42.577,61.005
60834980,0.003,-0.14,1.227,-302.365,-53.287,50.26
60834980,0.307,-0.143,1.026,-308.805,-58.835,32.637
60835000,0.364,-0.818,1.462,-345.485,-32.725,25.095
60835000,0.591,-0.791,1.984,-367.902,41.86,11.69
60835010,0.76,-1.161,1.717,-370.195,154.612,-2.502
60835020,0.145,-1.355,1.554,-344.47,239.312,8.032
60835030,0.048,-1.137,1.699,-319.952,261.03,-24.955
60835040,-0.087,-1.607,1.371,-285.74,245,-40.11
60835050,-0.367,-1.742,1.387,-199.202,191.8,-53.882
60835060,-0.441,-1.406,1.047,-75.372,112.332,-116.445
60835070,-0.275,-0.557,0.618,48.562,35.717,-143.972
60835080,-0.237,0.025,0.102,111.457,-16.205,-122.71
60835090,-0.351,0.563,-0.396,116.585,-57.697,-99.05
60835100,-0.299,1.082,-0.804,79.205,-79.362,-74.235
60835110,-0.121,1.403,-0.721,13.125,-59.027,-32.882
60835120,-0.178,1.328,-0.185,-61.705,4.41,34.072
60835130,-0.341,1.003,0.505,-120.995,57.207,101.465
60835140,-0.235,0.68,1.109,-155.102,70.63,138.477
60835150,0.179,0.464,1.508,-152.075,61.932,150.08
60835160,0.658,-0.264,1.242,-114.957,68.565,133.577
60835170,0.851,-0.137,1.574,-67.34,89.302,69.37
60835180,0.703,-0.311,1.154,75.827,97.107,39.13
60835190,0.7,-0.341,0.485,221.182,84,34.965
60835200,0.825,-0.63,0.091,232.54,91.892,-6.492
60835210,0.794,-0.774,-0.279,201.775,110.967,-82.215
60835220,0.401,-0.929,-0.528,198.625,155.61,-131.022
60835230,-0.125,-1.091,-0.695,214.725,205.73,-142.87
60835240,-0.699,-1.261,-0.947,215.11,227.237,-144.305
60835250,-0.806,-1.264,-1.272,212.572,238,-118.23
60835260,-0.588,-1.239,-1.619,197.19,268.432,-51.625
60835270,-0.476,-1.545,-1.926,166.005,291.847,35.315
60835280,-0.337,-1.998,-0.252,100.73,252.857,87.71
60835290,1.27,-1.998,1.757,43.47,-135.905,-40.635
60835300,0.084,-1.998,1.638,431.007,-367.482,-119.927
60835310,-0.629,-0.292,-0.769,508.882,-264.915,-4.235
60835320,0.681,1.997,1.556,508.515,-306.985,-52.815
60835330,-1.161,0.091,1.76,350.682,-236.477,-36.487
60835330,-0.601,-1.051,1.998,301.525,-304.955,-39.427
60835350,1.613,0.87,1.08,332.377,-314.09,-124.022
60835350,1.945,1.997,0.009,82.81,-159.162,-77.91
60835370,1.065,0.213,1.1,-99.33,14.84,-4.48
60835370,-0.065,-0.958,1.405,-148.662,60.112,25.007
60835390,-0.076,0.08,1.359,-148.575,51.555,23.362
60835390,-0.186,-0.509,0.891,-152.582,16.572,41.982
60835410,-0.236,-0.799,0.993,-145.442,-14.297,50.662
60835410,0.023,-0.145,0.939,-134.312,-29.47,24.57
60835420,0.021,-0.414,0.637,-118.527,-39.935,9.065
60835430,0.076,-0.935,0.42,-71.33,-42.875,-4.55
60835440,0.115,-1.045,0.367,11.62,-38.762,-22.242
60835450,0.042,-0.943,0.18,100.24,-37.292,-48.807
60835460,-0.152,-0.731,0.788,181.93,-31.622,-77.367
60835470,-0.182,-0.166,1.384,227.29,-67.725,-98.892
60835480,0.223,0.356,1.785,215.197,-111.72,-97.142
60835490,1.164,0.883,0.915,127.487,-121.94,-64.68
60835500,0.583,0.972,0.82,28.245,-66.22,-32.497
60835510,0.462,0.127,0.933,-36.4,-34.44,-3.185
60835520,0.325,-0.585,0.982,-51.747,-22.417,17.937
60835530,0.399,-0.308,0.901,-33.18,-26.635,-4.235
60835540,0.231,-0.153,0.992,-29.19,-24.412,-13.177
60835550,0.392,-0.143,0.938,-33.635,-28.192,-18.987
60835560,0.536,-0.101,0.932,-40.18,-15.522,-21.857
60835570,0.182,0.06,1.138,-58.082,22.785,-32.69
60835580,0.308,-0.184,1.119,-82.092,21.91,-31.955
60835590,0.419,-0.089,1.108,-106.592,22.645,-32.847
60835600,0.334,-0.047,1.148,-139.965,35.245,-27.965
60835610,0.301,-0.137,1.054,-183.767,52.255,-26.705
60835620,0.185,-0.419,1.105,-223.51,71.557,-45.57
60835630,0.135,0.127,1.016,-221.742,66.605,-81.305
60835640,0.292,0.018,0.925,-258.072,74.76,-87.115
60835650,0.408,-0.575,0.901,-281.032,89.302,-99.767
60835660,0.717,-0.532,1.256,-253.417,112.98,-90.195
60835670,0.646,-0.528,1.121,-254.03,205.905,-61.967
60835670,0.283,-0.864,1.219,-267.907,310.747,-21.262
60835690,0.471,-0.839,1.363,-266.77,360.955,-32.725
60835690,0.818,-0.988,1.53,-251.02,400.12,-40.232
60835710,0.642,-1.551,1.602,-230.72,426.877,-26.005
60835710,-0.153,-1.768,1.685,-162.085,358.557,-42.49
60835730,-1.549,-1.782,1.522,-40.285,207.76,-98.28
60835730,-1.767,-1.372,0.906,107.782,7.455,-116.06
60835750,-1.571,-0.86,0.128,234.85,-151.812,-81.48
60835750,-1.867,-0.399,-0.498,275.502,-269.535,-53.34
60835760,-1.998,-0.393,-1.091,263.532,-334.967,-19.862
60835770,-1.921,-0.446,-1.597,247.992,-353.202,50.032
60835780,-1.72,-0.027,-1.714,186.9,-295.505,215.687
60835790,-1.119,-0.382,-1.109,83.982,-197.942,429.45
60835800,-0.708,-1.069,-0.585,-21.087,-142.257,559.282
60835810,0.08,-1.987,-0.202,-23.31,-144.97,573.37
60835820,1.453,-1.998,-0.209,69.685,-164.29,573.37
60835830,1.998,-1.647,-0.72,163.992,-156.782,572.932
60835840,1.998,-0.544,-0.795,153.055,-78.365,550.69
60835850,1.998,-0.301,-0.371,27.702,-9.502,456.085
60835860,1.998,-0.299,0.169,-106.33,-17.797,271.617
60835870,1.767,-0.078,0.468,-160.667,-53.322,109.007
60835880,1.122,0.32,0.487,-175,-76.177,15.435
60835890,0.391,0.498,0.278,-174.667,-79.782,-41.545
60835900,0.173,0.512,0.531,-132.177,-59.412,-97.475
60835910,-1.276,-1.51,1.998,189.49,57.277,14.84
60835920,0.523,-1.998,-1.458,354.34,204.312,174.842
60835930,-1.478,0.562,1.295,363.807,-98.56,-38.202
60835940,1.06,1.63,-0.107,230.265,-144.217,-110.057
60835950,-1.827,-0.506,1.227,321.772,-159.267,-41.947
60835960,-0.401,-0.376,1.159,338.87,-280.122,-137.55
60835970,0.505,0.487,1.752,341.687,-303.362,-220.272
60835980,1.722,0.619,1.502,218.61,-251.317,-192.412
60835990,1.974,1.384,0.562,97.16,-141.4,-113.522
60836000,1.122,0.3,0.924,-12.862,15.417,2.205
60836010,0.001,-0.026,1.173,-62.492,82.617,54.11
60836020,-0.384,-0.461,1.073,-83.912,69.107,45.832
60836030,-0.311,-0.537,0.923,-63.49,33.232,8.295
60836040,-0.093,-0.483,0.899,-33.04,0.157,-22.767
60836050,0.106,-0.458,0.877,-6.422,-18.235,-40.372
60836060,0.247,-0.274,0.91,15.277,-26.162,-44.17
60836070,0.355,-0.129,0.976,24.797,-24.517,-32.252
60836080,0.309,-0.007,1.007,16.047,-16.747,-19.04
60836080,0.321,-0.022,1.01,-1.785,-6.055,-9.852
60836100,0.265,0.001,1.077,-19.81,1.697,-6.475
60836100,0.305,0,1.124,-46.55,14.98,-5.512
60836120,0.211,0.025,1.122,-80.727,31.325,-8.872
60836120,0.152,-0.016,1.136,-106.33,37.152,-8.662
60836130,0.208,-0.198,1.165,-125.65,31.482,3.92
60836140,0.399,-0.112,1.132,-152.74,25.725,14.385
60836150,0.354,-0.071,1.071,-169.855,23.87,27.352
60836160,0.312,-0.137,1.104,-199.57,34.807,45.237
60836170,0.283,0.011,1.122,-226.52,47.11,49.682
60836180,0.255,-0.05,1.13,-256.41,58.59,53.812
60836190,0.269,-0.329,1.262,-285.005,63.822,58.187
60836200,0.898,-0.358,1.531,-314.055,86.45,59.255
60836210,1.311,-1.065,1.958,-361.48,212.695,59.132
60836220,1.722,-1.997,1.998,-390.967,430.115,63.332
60836230,0.353,-1.998,1.897,-300.755,538.247,51.922
60836240,-1.743,-1.998,0.056,-49.612,419.51,-218.26
60836250,-0.711,-1.315,-0.848,127.645,197.26,-340.847
60836260,-0.078,-0.755,-1.177,91.315,82.512,-281.89
60836270,0.096,-0.607,-0.946,15.925,59.78,-209.23
60836280,-0.279,-0.41,-0.596,2.677,50.505,-175.7
60836290,-0.486,-0.064,0.021,-5.005,48.16,-135.467
60836300,-0.859,0.109,0.492,-39.742,38.587,-86.607
60836310,-0.95,0.487,0.742,-69.702,-2.905,-56.175
60836320,-0.707,0.937,0.885,-98.682,-54.407,-42.14
60836330,-0.521,1.189,0.896,-108.447,-96.617,-20.352
60836340,-0.172,1.433,0.767,-101.447,-115.43,8.207
60836350,0.202,1.427,0.662,-65.362,-103.092,49.332
60836360,0.346,1.261,0.581,-23.66,-77.805,83.387
60836370,0.227,0.968,0.537,15.015,-58.607,96.267
60836380,0.082,0.682,0.433,47.967,-55.51,98.175
60836390,0.096,0.357,0.274,79.887,-56.717,107.38
60836400,0.168,0.076,0.023,104.37,-57.067,111.125
60836410,0.361,-0.121,-0.436,118.125,-44.17,109.655
60836420,0.638,-0.237,-0.874,126.787,-7.332,101.622
60836420,0.664,-0.263,-0.823,108.972,38.115,77.052
60836440,0.484,-0.79,-0.336,55.247,70.84,51.922
60836440,0.276,-1.494,0.114,15.872,79.87,35
60836460,0.767,-1.23,-0.391,50.172,60.532,-17.307
60836460,0.409,-1.316,-1.041,189.577,75.46,33.425
60836480,0.345,-1.099,-1.279,214.497,78.627,63.035
60836480,-0.947,-1.893,-0.282,111.895,4.97,50.942
60836500,-1.779,-1.998,0.344,107.152,-258.125,202.842
60836500,1.876,-0.698,-1.338,491.907,-308.017,313.442
60836510,1.987,1.997,1.02,526.732,-427.035,4.917
60836520,-1.612,1.236,0.627,257.81,-94.482,89.862
60836530,-1.985,-1.766,1.725,141.365,-189.875,3.92
60836540,0.608,1.182,1.861,347.007,-338.73,-131.53
60836550,1.87,0.668,0.886,160.055,-288.242,-206.692
60836560,1.947,1.19,0.6,-12.915,-115.867,-132.842
60836570,1.043,0.017,1.024,-55.825,44.905,11.392
60836580,-0.674,-0.465,1.134,-75.652,90.86,62.895
60836590,-0.66,-0.717,1.043,-63.77,46.392,38.57
60836600,-0.187,-0.196,0.948,-35.857,-0.14,-26.705
60836610,0.167,-0.321,0.946,-27.457,-22.557,-59.482
60836620,0.487,-0.344,0.868,-15.137,-21.472,-65.17
60836630,0.521,-0.271,0.877,-8.785,-5.53,-42.052
60836640,0.266,-0.266,0.955,-4.935,11.27,-10.062
60836650,0.004,-0.129,1.038,-5.302,15.487,-1.207
60836660,0.094,-0.013,1.102,-16.52,11.567,-12.635
60836670,0.129,-0.023,1.129,-38.342,13.545,-28.42
60836680,0.173,-0.004,1.114,-58.345,18.217,-40.442
60836690,0.155,-0.197,1.112,-80.167,23.467,-38.937
60836700,0.119,-0.178,1.095,-95.497,18.987,-40.215
60836710,0.109,-0.182,1.153,-110.302,9.415,-37.817
60836720,0.144,-0.153,1.139,-132.212,2.852,-31.867
60836730,0.058,-0.212,1.077,-157.727,1.662,-28.157
60836740,0.028,-0.222,1.041,-182,3.745,-32.165
60836750,0.061,-0.199,1.082,-204.68,11.532,-42.42
60836760,0.097,-0.277,1.003,-234.517,28.262,-58.03
60836770,0.038,-0.524,1.34,-268.502,49.682,-69.807
60836780,0.385,-0.518,1.416,-270.567,89.11,-77.997
60836790,0.488,-0.715,1.581,-269.377,160.965,-91.77
60836800,0.198,-1.021,1.487,-273.175,250.722,-78.347
60836810,-0.56,-1.048,1.672,-248.535,312.34,-83.002
60836820,0.033,-1.793,1.563,-257.25,309.977,-112.997
60836820,-0.986,-1.998,1.399,-214.672,300.002,-91.595
60836830,-1.93,-1.947,0.966,-91.822,198.38,-156.73
60836840,-1.998,-1.274,1.026,33.075,68.162,-192.255
60836850,-1.597,-0.955,0.732,112.927,-53.427,-111.177
60836860,-1.012,-0.927,0.123,170.135,-115.027,-20.177
60836870,-0.535,-0.394,-0.373,219.45,-136.43,35.315
60836880,-0.164,0.34,-0.657,227.587,-112.297,104.632
60836890,-0.155,0.618,-0.726,190.592,-75.635,199.78
60836900,-0.061,0.471,-0.676,135.397,-49.875,276.43
60836910,0.153,0.263,-0.593,82.6,-36.155,322.892
60836920,0.427,0.192,-0.414,43.82,-31.255,335.79
60836930,0.61,0.193,-0.233,8.435,-37.625,334.512
60836940,0.764,0.113,-0.062,-25.812,-50.155,328.895
60836950,0.989,-0.043,0.02,-50.522,-69.86,314.562
60836960,1.381,-0.18,0.063,-53.637,-84.367,292.792
60836970,1.799,-0.261,0.016,-39.042,-88.567,257.582
60836980,1.94,-0.19,-0.09,-19.285,-78.347,201.635
60836990,1.682,0.042,-0.215,-6.58,-64.785,131.057
60837000,1.229,0.181,-0.244,-14.805,-60.655,71.47
60837010,0.814,0.158,-0.2,-37.065,-77.962,37.135
60837020,0.584,0.033,-0.183,-52.605,-105.945,22.435
60837030,0.764,0.528,-0.42,-61.845,-126.822,-13.527
60837040,0.298,-1.149,-0.022,149.73,-64.54,46.497
60837050,-1.036,-1.998,-0.395,127.837,-73.57,252.35
60837060,0.535,-0.339,-0.605,488.337,-206.167,36.015
60837070,0.523,1.997,-0.012,539.21,-425.18,-334.967
60837080,-1.332,-0.093,1.397,298.9,-218.977,5.722
60837090,-0.165,-1.04,1.974,259.175,-323.855,-97.86
60837100,1.683,1.418,0.522,322.595,-345.957,-213.85
60837110,0.667,1.282,0.168,1.347,-97.055,-81.025
60837120,1.375,-0.451,1.214,-121.152,76.247,46.025
60837130,-0.692,0.009,1.456,-113.907,96.302,46.445
60837140,-0.454,-1.318,0.78,-100.222,54.46,19.477
60837150,-0.29,-0.781,0.747,-50.207,11.725,-16.502
60837160,-0.135,-0.764,0.847,-2.555,-21.262,-44.817
60837170,0.352,-0.375,0.9,33.022,-40.862,-64.907
60837170,0.583,0.026,0.958,41.02,-37.835,-60.795
60837190,0.529,-0.031,0.951,28.787,-16.835,-37.59
60837190,0.276,0.03,1.018,15.89,2.135,-16.975
60837210,0.222,-0.015,1.03,-0.49,11.375,-10.605
60837210,0.245,0.064,1.057,-18.007,13.335,-12.617
60837230,0.221,-0.096,1.077,-40.442,22.907,-15.225
60837230,0.155,-0.264,1.061,-57.487,30.677,-25.322
60837250,0.088,-0.071,0.999,-59.745,36.33,-33.372
60837250,0.146,-0.287,0.996,-65.397,31.78,-31.045
60837260,0.161,-0.257,0.94,-56.21,23.677,-29.295
60837270,0.224,-0.288,0.903,-47.477,14.612,-21.525
60837280,0.197,-0.336,0.901,-36.61,11.27,-10.447
60837290,0.167,-0.333,0.891,-23.555,4.707,-3.342
60837300,0.102,-0.349,0.896,-10.167,0.647,0.752
60837310,0,-0.351,0.897,5.005,-8.505,-0.98
60837320,-0.055,-0.35,0.917,18.445,-19.197,-4.48
60837330,-0.094,-0.353,0.93,33.53,-36.365,-10.92
60837340,-0.16,-0.36,0.941,48.562,-56.122,-20.107
60837350,-0.158,-0.353,0.966,65.012,-81.9,-31.867
60837360,0.028,-0.265,0.947,80.43,-105.35,-47.04
60837370,0.309,-0.106,1.016,91.945,-116.305,-61.53
60837380,0.782,-0.06,0.866,87.202,-110.547,-67.742
60837390,1.56,0.01,0.593,67.287,-72.152,-58.537
60837400,1.571,0.183,0.698,47.285,21.385,-26.407
60837410,0.571,0.307,0.834,18.69,96.6,-15.032
60837420,0.378,0.142,0.821,-10.78,118.615,-21.647
60837430,0.635,-0.058,0.837,-30.975,130.812,-15.82
60837440,0.011,-0.17,1.118,-24.955,137.427,-20.667
60837450,-0.738,-0.489,1.219,-37.87,120.05,-18.41
60837460,-0.832,-0.19,1.051,-12.67,75.722,-21.542
60837470,-0.389,0.017,0.963,1.47,46.322,-2.1
60837480,-0.095,-0.119,1.002,-9.537,17.115,6.545
60837490,-0.038,-0.099,0.963,-3.885,-2.572,0.052
60837500,0.022,-0.032,0.951,3.605,-16.45,-2.38
60837510,0.059,-0.131,0.979,-2.905,-24.692,-3.412
60837510,0.136,-0.143,0.98,-4.042,-32.06,-6.72
60837530,0.255,-0.117,0.959,-3.64,-31.745,-6.965
60837530,0.301,-0.156,0.967,-5.81,-27.02,-5.32
60837550,0.291,-0.152,0.966,-4.305,-18.165,-3.78
60837550,0.262,-0.134,0.96,-1.295,-10.885,-2.012
60837570,0.235,-0.128,0.962,0.525,-2.59,0.735
60837570,0.22,-0.116,0.961,2.1,2.03,3.29
60837580,0.182,-0.097,0.959,1.225,7.052,4.27
60837590,0.122,-0.11,0.973,-1.19,7.35,4.585
60837600,0.087,-0.137,0.983,-3.552,6.335,4.287
60837610,0.081,-0.139,0.978,-3.307,0.752,2.887
60837620,0.07,-0.125,0.974,-2.975,-3.325,2.187
60837630,0.084,-0.143,0.98,-2.152,-9.205,2.45
60837640,0.106,-0.151,0.985,-0.472,-13.055,2.065
60837650,0.13,-0.14,0.979,1.435,-18.532,0.42
60837660,0.16,-0.123,0.971,1.435,-20.335,-0.91
60837670,0.211,-0.13,0.969,-0.105,-21.945,-1.575
60837680,0.251,-0.135,0.958,-0.892,-18.585,-1.592
60837690,0.27,-0.135,0.955,-0.805,-15.347,-1.505
60837700,0.26,-0.121,0.956,-0.542,-8.89,-0.56
60837710,0.239,-0.121,0.954,0.052,-4.392,0.402
60837720,0.23,-0.125,0.961,-0.542,0.84,1.907
60837730,0.206,-0.123,0.964,-0.612,3.342,2.397
60837740,0.179,-0.121,0.967,-1.242,5.53,2.73
60837750,0.17,-0.124,0.971,-1.96,5.162,2.712
60837760,0.154,-0.13,0.978,-2.345,4.83,2.485
60837770,0.138,-0.133,0.974,-2.082,2.607,1.75
60837780,0.145,-0.122,0.969,-1.645,0.507,0.892
60837790,0.165,-0.128,0.973,-1.89,-1.207,0.455
60837800,0.169,-0.14,0.973,-2.012,-1.68,0.402
60837810,0.164,-0.136,0.973,-1.89,-1.732,0.402
60837820,0.166,-0.135,0.975,-1.575,-2.327,0.507
60837830,0.166,-0.148,0.978,-1.575,-2.485,0.84
60837840,0.161,-0.138,0.977,-0.665,-3.657,0.507
60837850,0.167,-0.138,0.975,-0.315,-3.885,0.63
60837860,0.179,-0.134,0.974,-0.087,-4.865,0.56
60837870,0.174,-0.13,0.972,-0.35,-4.182,0.472
60837880,0.171,-0.127,0.973,-0.647,-4.9,0.21
60837890,0.172,-0.126,0.971,-1.242,-4.322,0.14
60837900,0.182,-0.125,0.97,-1.505,-5.337,-0.21
60837910,0.177,-0.125,0.967,-1.977,-4.165,-0.245
60837920,0.179,-0.128,0.966,-1.925,-5.057,-0.402
60837920,0.19,-0.116,0.963,-1.96,-3.5,-0.105
60837940,0.198,-0.125,0.961,-2.292,-3.482,0.087
60837940,0.187,-0.117,0.963,-2.992,-1.05,0.455
60837960,0.198,-0.125,0.967,-3.605,-0.875,0.507
60837960,0.188,-0.137,0.972,-4.97,1.592,0.945
60837980,0.172,-0.131,0.974,-5.25,0.752,0.455
60837980,0.158,-0.144,0.979,-6.072,1.75,0.525
60838000,0.143,-0.148,0.978,-5.687,-0.857,-0.315
60838000,0.15,-0.145,0.976,-5.075,-1.75,-0.7
60838010,0.164,-0.151,0.973,-3.955,-4.532,-1.155
60838020,0.164,-0.147,0.971,-2.852,-4.2,-0.91
60838030,0.175,-0.138,0.966,-1.47,-5.792,-0.84
60838040,0.186,-0.136,0.965,-1.015,-4.532,-0.192
60838050,0.191,-0.13,0.964,-0.542,-4.742,0.227
60838060,0.2,-0.129,0.962,-0.682,-2.362,1.242
60838070,0.193,-0.13,0.965,-0.735,-1.592,1.715
60838080,0.186,-0.133,0.965,-0.91,0.542,2.362
60838090,0.175,-0.135,0.969,-0.77,0.35,2.397
60838100,0.168,-0.137,0.971,-0.752,1.155,2.625
60838110,0.164,-0.14,0.973,-0.56,0.105,2.275
60838120,0.157,-0.139,0.974,-0.507,-0.175,1.89
60838130,0.163,-0.141,0.973,-0.35,-1.61,1.382
60838140,0.163,-0.141,0.973,-0.157,-2.03,1.067
60838150,0.168,-0.144,0.973,0.175,-3.045,0.542
60838160,0.173,-0.145,0.972,0.507,-3.36,0.367
60838170,0.176,-0.143,0.971,0.962,-3.57,0.21
60838180,0.18,-0.139,0.971,1.452,-3.517,0.14
60838190,0.18,-0.138,0.971,1.575,-3.062,0.262
60838200,0.185,-0.136,0.971,1.802,-2.887,0.49
60838210,0.187,-0.134,0.969,1.732,-1.785,0.77
60838220,0.184,-0.134,0.97,1.715,-1.382,0.91
60838230,0.176,-0.13,0.971,1.435,-0.14,1.19
60838240,0.171,-0.127,0.969,1.312,-0.385,1.225
60838250,0.165,-0.127,0.971,0.7,0.455,1.277
60838260,0.164,-0.127,0.969,0.28,-0.56,1.067
60838260,0.163,-0.126,0.971,-0.227,-0.07,1.015
60838280,0.164,-0.131,0.971,-0.472,-1.47,0.612
60838280,0.166,-0.128,0.971,-0.805,-0.857,0.472
60838300,0.165,-0.131,0.971,-0.84,-2.257,0.087
60838300,0.17,-0.133,0.971,-1.085,-1.575,0.105
60838320,0.167,-0.13,0.973,-0.875,-2.87,-0.332
60838320,0.163,-0.135,0.976,-1.295,-1.942,-0.262
60838330,0.155,-0.135,0.977,-1.242,-3.622,-0.752
60838340,0.15,-0.134,0.979,-1.575,-3.307,-0.84
60838350,0.144,-0.141,0.988,-1.907,-5.582,-1.435
60838360,0.166,-0.143,0.994,-2.397,-5.635,-1.802
60838370,0.177,-0.168,1.019,-2.432,-7,-2.625
60838380,0.177,-0.194,1.051,-3.22,-6.247,-4.532
60838390,0.177,-0.211,1.072,-4.585,-9.047,-8.242
60838400,0.1,-0.227,1.06,-6.667,-12.775,-12.495
60838410,0.34,-0.173,1.048,-5.53,-18.287,-18.445
60838420,0.133,-0.137,1.029,-4.97,-13.37,-18.952
60838430,0.155,-0.156,1.059,-3.797,-6.282,-9.17
60838440,0.439,-0.184,1.052,-4.2,1.085,-5.39
60838450,0.886,-0.154,1.11,-0.787,16.38,-7.35
60838460,0.075,-0.084,0.878,8.382,36.715,-11.06
60838470,0.276,-0.074,1.029,12.32,37.065,-22.33
60838480,0.118,-0.228,0.949,15.592,31.237,-17.447
60838490,0.604,-0.117,1.006,18.112,13.65,-42.14
60838500,0.595,-0.078,0.787,14.332,15.767,-54.425
60838510,0.36,-0.07,0.861,0.647,4.357,-69.037
60838520,0.636,-0.516,0.643,-32.69,-37.677,-79.152
60838530,0.858,-0.713,1.003,-63.07,-43.802,-96.04
60838540,0.005,-0.673,1.034,-62.72,-39.672,-98
60838550,-0.259,-0.366,0.958,-33.11,-43.312,-81.305
60838560,-0.232,-0.134,0.816,-28.84,-59.447,-36.155
60838570,-0.24,-0.292,0.772,-41.982,-68.81,19.127
60838580,-0.094,-0.472,0.76,-39.165,-67.532,68.075
60838590,-0.098,-0.447,0.71,-23.695,-61.005,104.807
60838600,-0.111,-0.387,0.623,-14.332,-55.37,136.325
60838610,-0.089,-0.392,0.474,-15.225,-50.96,165.777
60838620,-0.028,-0.352,0.315,-23.957,-41.195,189.017
60838630,-0.081,-0.276,0.375,-42.752,-21.21,209.737
60838640,-0.15,-0.411,0.655,-74.322,-7.735,230.912
60838650,-0.015,-0.733,0.78,-87.745,-3.167,250.53
60838660,-0.232,-0.334,0.998,-64.295,-8.102,250.53
60838670,1.615,-0.197,1.837,-21.84,-35.822,209.755
60838670,1.411,0.176,0.71,87.85,-33.232,198.117
60838690,1.064,1.994,0.9,158.2,18.322,117.215
60838690,0.365,1.442,0.581,109.602,89.67,99.172
60838710,-1.243,-1.388,1.705,51.327,86.24,116.725
60838710,-1.114,-1.267,1.186,121.52,-29.522,28.472
60838730,0.057,-0.097,1.128,165.27,-84.017,-34.3
60838730,-0.076,-0.137,1.351,124.547,-101.36,-49.507
60838750,0.504,-0.053,1.143,107.712,-111.072,-57.505
60838750,1.253,0.51,0.771,74.165,-80.027,-37.59
60838760,0.83,0.322,0.758,26.565,-9.94,-7.087
60838770,0.398,0.095,0.917,-5.075,35,9.24
60838780,0.278,0.035,0.964,-18.375,50.155,7.7
60838790,0.109,-0.149,1.006,-33.18,51.17,-0.192
60838800,0.046,-0.229,1.013,-34.492,46.147,-8.26
60838810,0.071,-0.2,0.989,-32.427,37.31,-12.407
60838820,0.06,-0.317,0.985,-26.32,30.52,-11.602
60838830,0.065,-0.345,1.002,-13.055,20.842,-10.762
60838840,0.083,-0.165,0.965,-0.017,13.107,-11.287
60838850,0.129,-0.111,0.985,1.837,6.597,-13.702
60838860,0.139,-0.133,0.982,0.49,4.322,-16.24
60838870,0.162,-0.149,0.982,-1.435,1.837,-17.815
60838880,0.151,-0.134,0.984,-2.52,0.752,-17.132
60838890,0.162,-0.131,0.988,-3.675,-1.26,-17.01
60838900,0.161,-0.125,0.986,-5.425,-1.995,-16.292
60838910,0.152,-0.135,0.986,-7.63,-2.782,-14.927
60838920,0.14,-0.153,0.988,-8.19,-4.742,-13.37
60838930,0.156,-0.139,0.989,-8.505,-7.087,-11.935
60838940,0.143,-0.108,0.998,-10.692,-9.135,-11.217
60838950,0.128,-0.132,1.002,-14.577,-10.64,-12.722
60838960,0.147,-0.144,1.007,-17.5,-13.842,-14.122
60838970,0.154,-0.112,1.033,-23.712,-14.07,-13.282
60838980,0.175,-0.094,1.074,-37.345,-13.265,-11.987
60838990,0.168,-0.099,1.164,-59.675,-7.612,-13.107
60839000,0.206,-0.018,1.199,-86.66,-3.78,-17.622
60839010,0.377,-0.063,1.238,-127.207,8.522,-22.032
60839010,0.175,0.109,1.289,-167.44,24.902,-25.34
60839030,0.457,0.064,1.017,-201.425,28.525,-18.462
60839030,0.579,-0.165,0.982,-234.622,67.935,-19.722
60839050,0.393,-0.192,1.097,-269.937,97.37,-30.625
60839050,1.05,-0.528,1.418,-284.427,140.997,-42.21
60839070,1.978,-1.408,1.778,-288.505,280.56,-41.597
60839070,1.446,-1.998,0.738,-218.33,499.52,-42.507
60839080,-0.994,-1.998,1.108,-105.77,467.95,-125.317
60839090,-0.459,-1.516,0.297,-6.247,143.535,-300.055
60839100,0.515,-0.455,-0.537,45.36,-28.787,-276.902
60839110,0.352,-0.13,0.018,-10.395,-29.102,-199.815
60839120,-0.469,-0.529,0.643,-48.825,-33.39,-120.592
60839130,-0.668,-0.311,0.6,4.812,-114.222,-68.862
60839140,-0.188,0.388,0.229,61.337,-176.102,-19.547
60839150,0.114,0.594,-0.061,74.532,-169.732,53.322
60839160,0.063,0.464,-0.391,55.615,-141.155,124.372
60839170,0.269,0.454,-0.569,41.37,-129.902,159.407
60839180,0.774,0.403,-0.484,13.965,-115.01,168.35
60839190,1.055,0.147,-0.234,-25.375,-81.83,161.175
60839200,1.011,-0.141,-0.023,-49.157,-54.88,132.965
60839210,0.846,-0.268,0.089,-46.707,-42.875,92.19
60839220,0.621,-0.259,0.051,-35.91,-38.78,55.597
60839230,0.387,-0.52,-0.049,-30.782,-37.45,32.41
60839240,0.37,-0.124,-0.116,-18.83,-38.832,4.987
60839250,0.326,-0.291,1.557,114.17,69.527,115.115
60839260,-1.998,-1.561,0.091,165.357,384.632,319.165
60839270,-0.777,-0.813,0.91,464.117,-107.467,323.802
60839280,1.153,1.949,1.387,215.407,-232.68,122.325
60839290,-0.33,1.699,1.352,248.22,-118.72,59.377
60839300,-0.802,0.696,1.771,185.167,-124.88,-98.315
60839310,0.182,0.236,1.74,100.817,-138.95,-206.797
60839320,0.876,-0.222,1.226,13.037,-122.307,-310.187
60839330,1.336,0.294,0.986,-66.132,-46.007,-269.535
60839340,1.444,-0.033,0.65,-95.2,-1.015,-150.43
60839350,1.36,-0.693,0.528,-84.945,25.97,5.18
60839360,0.358,-0.441,0.775,-54.652,71.907,96.145
60839370,-0.589,-0.453,1.004,-27.422,61.617,116.55
60839380,-0.621,-0.427,1.016,-7.805,10.937,85.452
60839390,-0.645,-0.383,0.942,3.78,-10.92,20.492
60839400,-0.279,-0.503,0.897,18.515,-38.762,-35.35
60839410,0.168,-0.485,0.903,37.852,-57.312,-65.992
60839420,0.494,-0.16,0.913,51.1,-58.642,-70.472
60839420,0.594,-0.096,0.984,42.367,-41.02,-45.15
60839440,0.469,-0.021,1.042,23.607,-19.512,-14.63
60839440,0.179,-0.074,1.156,-3.99,-0.595,7.437
60839460,0.096,-0.013,1.196,-32.147,-1.925,7.857
60839460,0.199,-0.08,1.145,-65.065,-8.417,5.617
60839480,0.202,-0.161,1.095,-92.015,-5.915,5.582
60839480,0.211,-0.226,1.021,-109.147,-1.645,8.295
60839500,0.192,-0.288,0.992,-118.3,-2.45,10.097
60839500,0.185,-0.293,0.978,-124.425,-0.21,9.59
60839510,0.171,-0.292,0.932,-130.147,0.63,8.942
60839520,0.158,-0.324,0.852,-136.185,9.467,6.72
60839530,0.091,-0.394,0.913,-144.165,19.04,-1.54
60839540,0.122,-0.368,0.976,-152.197,19.932,-14.472
60839550,0.253,-0.45,1.161,-166.057,26.057,-25.025
60839560,0.536,-0.696,1.408,-161.332,68.197,-22.575
60839570,0.72,-1.097,1.864,-147.717,168.017,-21.98
60839580,0.263,-1.862,1.998,-140.455,247.205,-43.225
60839590,-0.745,-1.986,1.998,-90.002,168.507,-110.39
60839600,-0.196,-1.998,1.856,-3.08,-15.575,-216.51
60839610,-1.259,-1.77,0.815,142.975,-106.452,-261.59
60839620,-1.998,-0.984,0.515,216.667,-160.895,-261.187
60839630,-1.998,-0.875,-0.298,186.585,-195.912,-221.095
60839640,-1.998,-0.695,-1.063,177.152,-184.205,-131.6
60839650,-1.679,-0.143,-1.042,144.882,-103.145,-40.057
60839660,-1.215,-0.022,-0.548,63.122,16.94,78.277
60839670,-0.981,-0.517,0.026,-13.947,119.385,192.307
60839680,-0.48,-0.973,0.482,-34.195,158.777,239.54
60839690,0.414,-0.807,0.432,-21.455,171.22,219.187
60839700,1.366,-0.337,0.077,-16.24,208.18,183.12
60839710,1.717,-0.011,-0.123,-29.942,247.467,149.625
60839720,1.399,0.054,-0.076,-65.73,214.55,88.777
60839730,1.508,-0.059,-0.292,-110.932,142.415,14.087
60839740,1.783,0.112,-0.465,-113.995,74.952,-40.32
60839750,1.98,1.096,-0.521,-126.437,9.117,-120.19
60839760,1.944,1.545,-0.474,-133.087,1.26,-149.222
60839760,1.415,1.545,0.087,-156.17,17.412,-123.375
60839780,0.797,-0.118,-0.004,-167.51,-14.525,-129.202
60839780,-1.688,-1.762,1.913,62.527,-91.945,-144.427
60839800,0.729,-1.998,-0.502,436.992,-62.527,224.297
60839800,0.709,0.394,1.312,466.952,-173.53,140.332
60839820,-0.649,1.997,0.119,344.4,-92.417,-100.065
60839820,-0.623,-0.112,1.702,339.937,-102.182,35.07
60839830,-0.598,0.413,1.853,285.022,-131.652,-41.842
60839840,1.016,1.415,1.605,157.657,-174.405,-147.332
60839850,1.528,0.786,1.369,-32.62,-110.022,-148.242
60839860,0.931,0.543,1.221,-120.96,-10.36,-117.845
60839870,0.376,-0.348,0.972,-179.567,30.8,-37.87
60839880,0.276,-0.667,0.509,-154.997,18.48,4.48
60839890,0.171,-1.214,0.39,-95.847,16.415,30.52
60839900,-0.086,-0.903,0.585,-37.992,18.655,10.832
60839910,-0.096,-0.618,0.668,20.492,11.69,-18.077
60839920,-0.05,-0.523,0.902,58.8,4.69,-33.932
60839930,0.043,-0.166,1.073,78.225,-11.987,-50.68
60839940,0.154,-0.036,1.123,66.535,-22.505,-51.345
60839950,0.286,-0.016,1.086,42.087,-24.237,-50.242
60839960,0.404,0.105,1.139,15.137,-14.385,-49.42
60839970,0.478,0.119,1.224,-26.11,3.465,-42.14
60839980,0.47,0.136,1.23,-73.115,23.922,-30.677
60839990,0.356,-0.023,1.215,-120.925,37.887,-9.905
60840000,0.33,-0.144,1.176,-155.592,40.372,9.817
60840010,0.408,-0.116,1.049,-182.962,50.277,24.08
60840020,0.338,0.003,1.066,-212.572,74.445,32.97
60840030,0.263,0.003,1.092,-253.015,92.697,38.08
60840040,0.226,-0.092,1.039,-288.067,94.692,39.305
60840050,0.375,-0.47,1.402,-316.855,108.85,46.882
60840060,0.613,-0.78,1.38,-316.47,164.15,53.392
60840070,0.959,-1.685,1.557,-317.135,292.092,59.762
60840080,0.222,-1.949,1.826,-328.492,388.867,66.972
60840090,0.2,-1.63,1.102,-271.32,383.775,-35.315
60840100,-0.207,-1.931,0.432,-209.335,358.75,-120.837
60840110,-0.174,-1.296,0.768,-162.995,281.277,-164.762
60840120,-1.053,-0.592,1.054,-135.275,168.087,-209.37
60840130,-0.967,-0.071,1.05,-99.137,44.8,-217.14
60840140,-0.754,0.401,1.118,-42.84,-51.8,-166.355
60840150,-0.559,0.973,0.982,-7.962,-123.095,-108.902
60840160,-0.489,1.519,0.997,-1.312,-175.017,-43.085
60840170,-0.269,1.672,0.991,-16.59,-203.805,40.005
60840170,0.061,0.928,1.04,-14.227,-222.18,111.265
60840190,0.519,1.404,0.907,21.07,-234.027,104.475
60840190,0.487,0.93,1.04,82.302,-225.505,114.572
60840210,0.455,0.52,0.914,141.802,-209.72,144.007
60840210,0.397,0.063,0.73,191.747,-200.147,135.38
60840230,0.231,-0.209,0.327,233.817,-194.407,99.54
60840230,0.052,-0.206,-0.223,267.015,-178.78,62.615
60840250,-0.248,-0.01,-0.616,282.222,-149.38,56.892
60840250,-0.454,0.04,-0.644,251.51,-126.21,83.23
60840260,-0.349,-0.363,-0.297,193.515,-126.787,131.547
60840270,0.086,-1.129,-0.06,143.92,-145.967,168.84
60840280,0.556,-1.46,-0.372,161.56,-159.687,155.575
60840290,0.663,-1.112,-0.87,207.375,-149.257,105.927
60840300,0.323,-0.904,-1.106,201.372,-120.697,77.612
60840310,0.081,-1.819,-1.092,134.172,-83.615,86.957
60840320,-1.998,-1.998,0.593,150.5,205.73,376.215
60840330,-0.335,-0.533,0.632,477.365,-255.08,179.235
60840340,0.849,1.997,-0.446,501.83,-158.62,-52.29
60840350,-1.648,1.322,1.115,330.68,-69.562,92.522
60840360,-1.521,-1.788,1.998,128.082,-168.385,35.507
60840370,0.911,1.179,1.102,238.122,-291.55,-141.732
60840380,1.983,1.725,0.128,16.975,-191.677,-135.38
60840390,1.385,0.241,0.869,-85.837,-5.267,-37.695
60840400,-0.057,0.355,1.143,-79.292,91.542,-7.542
60840410,-0.679,-1.415,1.131,-82.022,72.59,-17.307
60840420,-0.104,-0.554,0.876,-44.975,16.117,-46.672
60840430,0.156,-0.673,0.896,-26.372,-5.18,-60.69
60840440,0.431,-0.252,0.875,-2.642,-16.117,-69.387
60840450,0.717,-0.079,0.908,5.477,-4.077,-55.842
60840460,0.551,-0.033,0.936,-3.85,24.167,-26.547
60840470,0.201,-0.078,1.027,-13.212,47.792,0.507
60840480,-0.124,-0.068,1.093,-24.622,48.02,-0.122
60840490,0.032,0.057,1.137,-37.065,37.992,-23.975
60840500,0.164,0.096,1.128,-59.587,37.362,-54.197
60840510,0.167,-0.049,1.097,-87.605,47.46,-73.185
60840510,0.165,-0.15,0.992,-98.262,48.86,-85.662
60840530,0.192,-0.292,0.978,-101.71,51.45,-86.537
60840530,0.213,-0.249,0.958,-99.295,48.965,-86.572
60840550,0.215,-0.347,1.012,-100.537,48.125,-81.865
60840550,0.107,-0.172,0.989,-98.91,44.52,-68.267
60840570,0.154,-0.411,1.046,-125.072,46.497,-61.512
60840570,0.104,-0.255,0.995,-133.84,47.74,-56.297
60840580,0.146,-0.243,0.995,-159.81,58.572,-49.245
60840590,0.111,-0.299,0.99,-182.42,66.885,-44.555
60840600,0.195,-0.274,0.982,-191.205,72.345,-34.422
60840610,0.374,-0.403,0.995,-204.277,91.402,-23.537
60840620,0.31,-0.731,1.092,-225.05,137.34,-22.785
60840630,0.247,-0.902,1.09,-224.525,185.622,-21.35
60840640,0.342,-1.258,1.365,-204.33,242.48,-9.817
60840650,-0.199,-1.633,1.229,-189.175,270.725,-13.142
60840660,-1.044,-1.967,1.184,-142.8,207.13,-55.335
60840670,-0.772,-1.998,0.499,-75.95,84.63,-103.932
60840680,-0.642,-1.57,0.575,-12.547,-59.36,-130.637
60840690,-1.056,-1.011,0.462,7.227,-170.327,-97.405
60840700,-1.787,-0.859,0.026,75.705,-288.032,-16.292
60840710,-1.218,-0.323,-0.541,115.71,-352.835,40.092
60840720,-0.46,0.249,-0.856,125.037,-303.817,140.875
60840730,-0.175,0.311,-0.97,117.285,-190.242,256.882
60840740,-0.213,0.153,-0.656,87.027,-99.417,327.862
60840750,0.193,0.003,-0.303,39.095,-94.517,342.545
60840760,1.21,-0.236,-0.114,6.895,-103.46,339.447
60840770,1.905,-0.407,-0.087,-7.035,-92.907,314.195
60840780,1.998,-0.207,-0.096,-18.602,-68.04,253.032
60840790,1.998,0.041,-0.088,-38.937,-48.895,179.147
60840800,1.848,-0.103,-0.123,-60.812,-42.945,103.232
60840810,1.912,0.814,0.131,-16.047,-50.487,19.635
60840820,0.808,0.243,1.665,105.717,17.395,28.052
60840830,-1.99,-1.998,0.083,147.402,243.372,193.515
60840840,-1.004,-1.409,0.007,507.745,-41.93,193.987
60840850,-0.923,1.768,1.14,265.3,-206.342,-14.017
60840860,0.41,1.92,0.531,270.62,-149.992,-52.797
60840870,-1.232,0.029,1.389,300.387,-151.62,6.247
60840880,-0.793,-0.107,1.751,293.037,-197.172,-92.137
60840890,0.805,0.801,1.642,246.645,-260.155,-208.092
60840900,1.585,-0.07,1.235,117.67,-216.615,-188.545
60840910,1.909,0.667,0.61,54.932,-120.417,-96.757
60840920,0.946,0.246,0.963,-6.212,8.522,19.897
60840920,0.071,-0.047,1.113,-45.237,59.15,57.96
60840940,-0.225,-0.505,0.996,-62.79,47.39,41.562
60840940,-0.28,-0.539,0.926,-40.477,19.635,7.805
60840960,-0.058,-0.388,0.913,-8.802,-10.377,-19.32
60840960,-0.045,-0.592,0.914,12.95,-29.015,-33.88
60840970,0.229,-0.388,0.892,42.892,-48.702,-40.197
60840980,0.372,-0.057,1.029,63.122,-48.492,-27.405
60840990,0.391,0.191,1.006,46.935,-37.607,-14.717
60841000,0.427,0.029,0.958,15.33,-21.962,-8.382
60841010,0.508,0.031,0.946,-2.082,-8.505,-3.745
60841020,0.598,0.037,0.967,-22.19,13.825,8.277
60841030,0.585,-0.029,1.059,-47.652,41.317,26.267
60841040,0.491,-0.04,1.156,-76.86,69.982,42.07
60841050,0.267,-0.295,1.19,-112.7,93.327,53.147
60841060,0.297,0.077,1.214,-133.07,103.495,56.962
60841070,0.219,0.013,1.179,-165.655,102.27,65.275
60841080,0.3,-0.027,1.129,-191.467,102.83,73.727
60841090,0.357,-0.097,1.122,-205.485,118.772,76.895
60841100,0.746,-0.283,1.173,-216.527,150.027,79.835
60841110,1.099,-0.446,1.353,-207.725,204.33,80.867
60841120,1.772,-0.995,1.557,-202.86,290.01,95.707
60841130,0.803,-1.984,1.16,-164.22,357.175,122.045
60841140,-0.237,-1.998,0.528,-85.872,258.352,58.432
60841150,0.307,-1.887,1.149,-5.967,11.48,-27.895
60841160,1.96,-1.166,-0.162,2.765,-203.525,-64.277
60841170,1.153,-0.548,-0.042,55.457,-184.502,-33.74
60841180,0.24,-0.062,0.244,31.5,-185.325,-24.867
60841190,0.375,-0.063,0.253,23.835,-208.687,1.155
60841200,0.623,0.233,0.061,46.707,-239.855,21.752
60841210,0.851,0.746,-0.097,58.52,-247.8,18.497
60841220,0.915,1.052,-0.123,45.937,-233.59,13.037
60841230,0.791,1.122,-0.212,21.7,-204.697,-3.587
60841240,0.61,1.206,-0.054,3.36,-171.745,-34.895
60841250,0.31,1.108,0.261,-23.957,-122.482,-54.705
60841260,-0.247,0.739,0.41,-40.022,-85.837,-59.36
60841260,-0.478,0.485,0.362,-26.6,-67.34,-56.297
60841280,-0.237,-0.354,0.191,1.977,-49.49,-48.335
60841280,1.162,0.456,0.847,61.197,-11.2,-48.405
60841300,-1.881,-1.863,1.998,158.427,349.3,301.98
60841300,0.095,-1.979,0.427,462.507,116.567,522.83
60841320,0.346,1.139,0.725,419.615,-207.917,284.112
60841320,-1.507,1.739,0.729,335.055,-142.24,111.912
60841330,-0.923,-0.112,1.998,281.54,-120.785,101.132
60841340,0.4,0.287,1.708,226.695,-191.1,-59.167
60841350,1.885,1.713,0.413,84.945,-171.08,-115.01
60841360,1.404,0.761,0.549,-30.117,-33.46,-38.115
60841370,0.522,0.037,1.136,-70.385,68.932,35.927
60841380,-0.166,-0.31,1.168,-82.757,77.227,27.072
60841390,-0.137,-0.417,1.065,-78.365,49.822,-6.895
60841400,-0.102,-0.413,1.027,-62.772,25.62,-28.717
60841410,-0.046,-0.405,0.959,-53.707,6.44,-43.732
60841420,0.293,-0.626,0.824,-34.317,-8.662,-48.562
60841430,0.38,-0.426,0.953,-3.727,-8.872,-24.255
60841440,0.214,0.139,1.086,5.302,-0.07,-7.91
60841450,0.146,0.167,1.226,-27.142,6.475,-9.065
60841460,0.224,0.004,1.279,-77.892,8.96,-26.25
60841470,-0.016,-0.032,1.372,-125.947,10.045,-51.415
60841480,-0.004,0.308,1.273,-160.02,1.837,-70.7
60841490,0.124,-0.158,1.242,-208.32,6.37,-73.307
60841500,0.074,-0.146,1.147,-246.995,8.365,-85.47
60841510,-0.066,-0.12,0.988,-267.015,17.325,-94.447
60841520,-0.49,-0.403,1.099,-297.85,11.2,-111.405
60841530,-0.648,-0.692,1.259,-308.507,-42.035,-137.637
60841540,-0.297,-0.757,1.576,-285.425,-67.637,-163.45
60841550,0.153,-0.678,1.542,-272.492,-24.15,-179.147
60841560,-0.49,-0.928,1.193,-245.84,45.955,-172.76
60841570,-0.962,-0.658,1.624,-205.502,54.18,-196.787
60841580,-0.282,-0.962,1.77,-193.882,71.767,-201.67
60841590,-1.385,-0.746,1.455,-133.77,109.742,-169.05
60841600,-1.648,-0.486,0.96,-18.847,119.927,-174.492
60841610,-1.266,-0.187,0.148,76.632,125.807,-86.45
60841620,-0.997,-0.111,-0.48,116.917,138.985,7.315
60841630,-0.081,0.049,-1.132,122.15,172.62,64.732
60841640,0.445,0.232,-0.975,113.61,205.94,133.245
60841650,0.463,-0.109,-0.282,51.66,180.88,188.79
60841660,0.914,-0.77,0.193,6.912,111.23,212.992
60841660,1.687,-0.977,-0.027,35.14,53.392,202.72
60841670,1.939,-0.361,-0.384,66.64,42.052,176.015
60841680,1.72,0.038,-0.471,21.91,51.66,144.34
60841690,1.474,-0.059,-0.318,-45.657,41.79,103.53
60841700,1.342,-0.788,1.098,48.457,-54.495,37.485
60841710,1.941,-1.998,0.702,110.25,34.615,42.997
60841720,-1.733,-1.24,-0.498,398.72,90.702,-25.76
60841730,-0.425,1.953,0.712,254.905,-187.25,-161.297
60841740,1.664,0.328,1.158,258.247,-177.1,20.615
60841750,-1.557,-0.682,1.416,294.262,-156.66,-32.69
60841760,0.639,0.6,1.387,283.692,-181.825,-89.442
60841770,0.402,0.289,1.503,178.99,-173.407,-111.755
60841780,1.315,0.405,1.177,106.085,-142.03,-104.702
60841790,1.245,0.275,0.956,42.525,-75.022,-60.567
60841800,0.68,0.049,0.977,-4.06,-7.7,-8.47
60841810,0.241,-0.152,1.004,-26.337,24.185,11.655
60841820,0.105,-0.226,1.013,-33.705,30.135,8.837
60841830,0.075,-0.17,1.031,-38.325,26.232,1.855
60841840,0.061,-0.233,1.013,-44.467,21.245,-5.215
60841850,0.137,-0.287,0.988,-48.79,16.8,-10.22
60841860,0.284,-0.239,1.002,-50.592,15.662,-6.562
60841870,0.317,-0.13,1.083,-58.992,22.89,2.135
60841880,0.33,-0.038,1.176,-79.502,34.807,8.26
60841890,0.373,-0.02,1.221,-108.447,49.577,8.61
60841900,0.359,-0.004,1.216,-139.265,65.87,12.355
60841910,0.323,-0.069,1.218,-184.73,85.54,16.66
60841920,0.225,0.057,1.17,-203.507,95.585,11.445
60841930,0.305,-0.048,1.063,-229.25,99.242,7.927
60841940,0.656,-0.194,1.006,-250.74,130.935,9.415
60841950,0.734,-0.473,0.932,-257.04,180.897,13.125
60841960,0.66,-0.937,1.189,-245.525,233.677,31.185
60841970,0.526,-1.222,1.504,-230.982,284.357,49.77
60841980,-0.11,-1.578,1.838,-212.117,270.707,53.34
60841990,0.61,-1.998,1.95,-179.707,157.71,7.735
60842000,1.983,-1.953,1.275,-113.872,-8.435,-101.22
60842010,1.501,-0.502,0.142,38.43,-39.742,-230.667
60842010,-0.58,-0.114,-0.032,103.635,3.972,-243.74
60842030,-1.953,0.219,-0.074,52.377,-97.912,-242.147
60842030,-1.998,0.554,-0.015,13.44,-244.58,-216.877
60842050,-1.966,0.932,-0.02,5.442,-289.135,-96.635
60842050,-1.637,0.858,-0.039,16.03,-234.57,125.597
60842070,-1.229,0.92,0.199,13.755,-157.955,307.16
60842070,-0.477,0.621,0.495,11.847,-140.612,403.515
60842080,0.607,-0.216,0.415,33.827,-143.22,456.032
60842090,1.855,-0.561,0.184,89.302,-102.112,413.14
60842100,1.998,-0.369,-0.167,156.642,-43.767,310.677
60842110,1.891,-0.071,-0.393,152.355,-10.447,178.692
60842120,1.008,-0.356,-0.597,99.505,-28.77,70.245
60842130,0.646,-0.06,-0.441,46.515,-73.377,10.482
60842140,-0.126,-1.121,-1.169,80.272,-103.145,13.387
60842150,-1.998,-1.809,1.369,92.907,89.582,165.165
60842160,-0.488,-1.998,-0.904,230.86,144.742,375.34
60842170,-1.204,0.786,0.637,481.46,-248.255,65.66
60842180,1.61,1.976,-0.52,334.985,-300.65,-124.547
60842190,-0.068,0.183,1.296,151.34,-115.395,122.85
60842200,-1.076,-1.347,1.57,151.165,-168.017,-93.835
60842210,0.916,1.628,1.286,327.932,-251.177,-180.18
60842220,1.096,-0.305,1.299,121.537,-198.975,-181.422
60842230,1.887,0.541,0.783,59.465,-116.025,-103.232
60842240,0.922,0.138,0.961,14.385,-5.145,1.522
60842250,0.104,-0.155,1.05,-25.27,45.482,50.365
60842260,-0.169,-0.315,1.023,-31.99,40.407,43.802
60842270,-0.139,-0.347,0.983,-30.065,23.152,16.047
60842280,0.087,-0.178,1.014,-24.552,7.472,-12.477
60842290,0.24,-0.156,1.018,-26.67,5.04,-28.21
60842300,0.392,-0.102,1.016,-36.242,11.2,-24.5
60842310,0.275,-0.106,1.057,-50.68,26.32,-10.832
60842320,0.124,-0.113,1.112,-66.762,34.422,-1.155
60842330,0.104,-0.162,1.212,-82.897,37.485,-5.705
60842340,0.183,0.086,1.174,-101.78,41.545,-18.112
60842350,0.145,-0.019,1.199,-147.647,53.882,-18.795
60842350,0.14,-0.064,1.089,-167.457,59.062,-15.68
60842370,0.168,-0.162,0.968,-186.252,58.677,-10.762
60842370,0.198,-0.252,0.905,-197.715,63.875,-4.375
60842390,0.31,-0.43,1.23,-196.805,69.912,4.847
60842390,1.195,-0.666,1.578,-196.245,98.875,17.885
60842410,1.91,-0.96,1.938,-172.69,183.365,20.772
60842410,0.79,-1.88,1.533,-92.26,274.61,-15.627
60842420,-1.998,-1.997,1.821,56.84,116.305,-98.087
60842430,-0.424,-1.699,1.188,42.7,-197.365,-158.55
60842440,0.393,-1.206,-0.697,190.925,-262.342,-112.245
60842450,-1.139,-0.583,-1.13,226.327,-148.26,-100.782
60842460,-1.181,0.105,-1.19,152.25,-44.397,-69.37
60842470,-0.445,-0.035,-1.04,105.682,48.16,35.472
60842480,-0.06,-0.553,-0.821,60.182,120.487,139.597
60842490,0.507,-0.776,-0.674,45.132,151.235,168.402
60842500,0.892,-0.521,-0.41,44.712,140.315,161.105
60842510,1.169,-0.13,-0.138,3.01,100.065,133.192
60842520,1.456,0.047,-0.018,-52.535,61.635,101.132
60842530,1.192,0.129,-0.12,-87.272,28.525,58.52
60842540,0.587,0.549,-0.408,-100.625,-12.162,10.272
60842550,0.475,1.316,-0.818,-106.26,-61.67,-16.327
60842560,-0.007,1.991,1.408,-173.355,-12.88,30.66
60842570,-1.651,-1.474,-0.468,-183.505,-90.422,168.91
60842580,-0.287,-0.65,0.959,451.972,-230.212,232.207
60842590,1.298,1.925,0.227,287.542,-315.14,-66.29
60842600,-1.442,-1.457,1.648,248.622,-216.877,-76.3
60842610,0.691,0.307,1.933,303.747,-341.792,-203.63
60842620,1.585,-0.76,1.017,219.887,-335.667,-191.222
60842630,0.368,1.997,0.054,86.922,-155.435,-151.147
60842640,1.317,-0.352,0.914,-34.825,17.377,40.005
60842650,-0.129,-0.125,1.11,-47.635,54.722,48.247
60842660,0.265,-0.677,1.059,-40.162,34.247,14.07
60842670,0.325,0.004,0.924,-37.712,30.397,-4.305
60842680,0.01,-0.411,1.057,-42.42,33.145,-1.295
60842690,0.087,-0.26,0.97,-28.962,21.892,-15.347
60842700,0.108,-0.229,0.958,-20.002,11.777,-26.6
60842710,0.111,-0.528,0.969,-0.332,1.925,-31.517
60842720,0.221,-0.185,0.975,14.227,-11.305,-25.917
60842730,0.217,-0.116,1.008,18.427,-13.475,-19.372
60842740,0.15,-0.067,1.023,15.487,-15.12,-14.297
60842750,0.112,-0.109,1.018,8.715,-17.85,-12.845
60842760,0.135,-0.136,1.002,4.112,-24.36,-10.097
60842760,0.136,-0.133,0.993,2.975,-27.44,-6.282
60842780,0.14,-0.137,0.99,2.52,-32.672,-2.205
60842780,0.106,-0.143,0.998,1.225,-35.927,1.19
60842800,0.119,-0.145,0.987,0.997,-43.557,0.927
60842800,0.191,-0.139,0.953,0.717,-47.985,-0.717
60842820,0.262,-0.157,0.928,1.225,-50.137,-1.907
60842820,0.342,-0.325,0.933,2.415,-44.485,-2.59
60842830,0.422,-0.133,0.87,11.987,-36.872,-5.337
60842840,0.481,-0.122,0.83,18.935,-26.11,-5.32
60842850,0.652,-0.123,0.836,19.11,-9.117,-3.867
60842860,0.59,-0.095,0.884,20.492,11.585,-2.765
60842870,0.742,-0.075,0.885,21.367,31.412,-3.167
60842880,0.294,0.011,0.75,20.107,50.347,-7.507
60842890,0.579,0.104,0.675,10.167,80.027,-3.15
60842900,0.244,0.105,1.153,-13.335,99.802,-0.717
60842910,-0.283,-0.267,1.032,-21.77,84.262,2.59
60842920,-0.119,-0.264,1.091,-11.147,70.98,9.59
60842930,0,-0.287,1.057,-8.925,56.402,15.05
60842940,0.162,-0.246,1.025,-0.997,42.892,16.415
60842950,0.265,-0.095,0.956,7.665,35.875,12.652
60842960,0.25,0.048,0.909,13.405,35.262,7.84
60842970,-0.037,0.083,0.902,9.082,31.115,-1.295
60842980,-0.343,0.009,0.91,-1.417,13.055,-13.352
60842990,-0.243,-0.029,0.933,-8.907,-6.545,-16.52
60843000,-0.072,-0.056,0.954,-10.972,-19.967,-12.407
60843010,0.091,-0.161,1.009,-11.235,-26.232,-4.795
60843020,0.127,-0.174,0.999,-7.385,-30.572,-1.995
60843030,0.291,-0.127,0.992,-1.557,-29.4,0.315
60843040,0.375,-0.176,0.975,-0.28,-21.35,5.775
60843050,0.339,-0.142,0.985,4.042,-11.777,6.317
60843060,0.248,-0.14,0.971,3.762,-5.967,5.075
60843070,0.21,-0.102,0.97,1.977,-1.347,3.99
60843080,0.192,-0.129,0.981,-1.645,-0.367,4.69
60843080,0.125,-0.141,0.989,-2.625,-0.245,3.657
60843100,0.096,-0.119,0.985,0.21,-5.67,1.82
60843100,0.128,-0.128,0.984,0.752,-8.977,1.767
