time[ms],accX[g],accY[g],accZ[g],Value 1,Value 2,Value 3
38136950,-0.041,0.082,0.986,2.87,-1.645,-0.595
38136960,-0.05,0.09,0.986,3.517,-1.505,-0.962
38136970,-0.044,0.107,0.981,3.71,-1.452,-0.962
38136980,-0.055,0.108,0.985,2.922,-2.065,-1.085
38136990,-0.05,0.112,0.987,1.872,-3.08,-0.98
38137000,-0.047,0.11,0.986,0.945,-4.27,-0.787
38137010,-0.044,0.109,0.983,0.035,-4.865,-0.507
38137020,-0.043,0.107,0.985,-0.595,-5.075,-0.21
38137030,-0.045,0.102,0.984,-1.137,-5.057,0.227
38137040,-0.045,0.097,0.986,-1.522,-4.882,0.525
38137050,-0.048,0.091,0.987,-1.522,-4.62,0.7
38137060,-0.04,0.086,0.986,-1.452,-4.165,0.857
38137070,-0.037,0.085,0.986,-0.962,-3.587,0.857
38137080,-0.043,0.083,0.986,-0.49,-2.607,0.892
38137080,-0.049,0.082,0.988,0.157,-2.187,0.787
38137100,-0.046,0.088,0.986,0.735,-1.785,0.682
38137100,-0.044,0.088,0.986,1.067,-1.75,0.455
38137120,-0.043,0.092,0.985,1.295,-1.102,0.332
38137120,-0.043,0.095,0.984,1.417,-0.997,0.28
38137140,-0.043,0.096,0.985,1.347,-0.315,0.122
38137140,-0.04,0.094,0.986,1.47,-0.175,0.035
38137160,-0.037,0.097,0.983,1.592,0.752,0.122
38137160,-0.042,0.096,0.986,1.75,1.137,0.017
38137170,-0.047,0.092,0.99,1.837,2.117,0.052
38137180,-0.054,0.088,0.996,2.135,2.38,-0.14
38137190,-0.066,0.082,1.005,2.24,3.097,-0.42
38137200,-0.075,0.069,1.013,2.59,2.852,-1.19
38137210,-0.068,0.076,1.014,3.062,3.535,-1.505
38137220,-0.061,0.085,1.006,3.255,3.43,-1.872
38137230,-0.031,0.091,0.999,3.29,4.13,-1.242
38137240,-0.04,0.098,0.999,3.01,4.48,-1.137
38137250,-0.043,0.099,0.997,2.152,5.565,-0.84
38137260,-0.068,0.111,0.995,1.732,5.652,0.035
38137270,-0.014,0.09,1,1.05,6.3,0.892
38137280,-0.058,0.095,1.003,1.925,7.787,1.19
38137290,-0.044,0.088,1,1.505,8.925,1.837
38137300,0.022,0.105,0.978,2.415,10.535,2.065
38137310,-0.044,0.094,0.998,1.592,13.632,1.662
38137320,-0.064,0.103,0.975,2.712,13.685,-0.14
38137330,-0.007,0.169,0.921,4.13,14.297,0.105
38137340,-0.038,0.179,0.912,2.187,14.525,-1.837
38137350,-0.038,0.212,0.878,0.63,13.685,-5.005
38137360,-0.041,0.215,0.869,-0.367,13.86,-6.492
38137370,-0.104,0.147,0.91,-5.232,14.997,-10.937
38137380,-0.235,0.036,0.971,-5.425,13.51,-15.627
38137390,-0.355,-0.016,0.942,-1.207,6.457,-18.322
38137400,-0.291,0.079,0.955,4.62,-3.727,-16.292
38137410,-0.126,-0.014,1.043,5.267,-8.102,-10.745
38137420,-0.07,0.116,1.043,8.155,-7.035,-4.025
38137420,-0.146,0.279,0.95,7.052,-6.86,2.467
38137440,-0.112,0.22,0.926,-5.162,-9.817,8.732
38137440,-0.044,0.123,0.981,-11.55,-9.607,14.7
38137460,-0.193,0.094,0.983,-13.387,-11.62,13.002
38137460,-0.252,0.113,0.985,-14.98,-20.457,10.272
38137480,-0.058,0.001,0.998,-17.237,-27.125,11.322
38137480,0.14,0.007,0.977,-10.045,-25.515,8.995
38137500,0.117,0.054,1,-1.137,-14.367,3.99
38137500,-0.057,0.12,1.003,3.482,-6.107,1.627
38137510,-0.086,0.143,1,2.222,-4.252,4.69
38137520,-0.114,0.149,0.999,-0.49,-6.177,5.267
38137530,-0.125,0.124,1.001,-4.2,-8.837,4.34
38137540,-0.098,0.1,1.001,-7.21,-11.515,4.427
38137550,-0.081,0.102,0.995,-8.452,-11.742,5.775
38137560,-0.068,0.064,0.995,-9.117,-12.075,5.845
38137570,-0.043,0.032,0.998,-8.417,-10.745,4.532
38137580,-0.021,0.071,0.993,-6.492,-9.117,2.135
38137590,-0.025,0.093,0.99,-5.582,-6.282,-0.157
38137600,-0.076,0.093,0.992,-5.355,-5.057,-3.132
38137610,-0.085,0.123,0.996,-5.775,-5.145,-6.405
38137620,-0.076,0.11,0.995,-7.595,-7.035,-10.307
38137630,-0.041,0.068,1,-9.59,-6.982,-13.72
38137640,-0.019,0.091,0.999,-9.415,-5.39,-15.155
38137650,0.008,0.062,0.993,-9.712,-1.365,-14.717
38137660,0.055,0.048,1,-8.102,3.552,-14.192
38137670,0.036,0.088,1.013,-5.495,11.55,-12.897
38137680,0.008,0.124,1.021,-5.232,18.935,-12.355
38137690,-0.059,0.167,1.06,-8.785,25.497,-12.845
38137700,-0.102,0.276,1.126,-18.725,29.015,-13.475
38137710,-0.035,0.412,1.284,-38.867,34.79,-14.91
38137720,-0.27,0.396,1.336,-67.515,52.01,-21.665
38137730,-0.051,0.297,1.555,-129.587,60.34,-32.287
38137740,-0.353,0.342,1.464,-191.327,81.077,-21.84
38137750,-0.385,0.429,1.562,-262.5,47.6,-6.475
38137760,-0.011,0.326,1.838,-338.52,28.455,9.905
38137770,0.101,-0.301,1.998,-401.432,60.935,11.305
38137780,-1.263,-1.368,1.998,-409.955,41.86,17.272
38137790,-1.617,-1.972,1.308,-307.86,-92.662,49.787
38137800,-1.998,-1.825,0.401,-156.222,-84.752,162.4
38137810,-1.612,-1.931,1.233,-127.295,-27.947,230.772
38137820,0.9,-1.646,1.057,-26.652,48.44,312.83
38137830,1.962,-0.519,-0.029,97.142,108.762,268.66
38137830,1.985,-0.098,0.1,41.475,125.002,127.12
38137850,1.709,-0.077,0.378,-55.825,99.75,-26.425
38137850,0.827,0.339,0.312,-35.595,67.655,-144.777
38137870,0.071,0.649,0.209,-18.672,41.037,-162.19
38137870,-0.293,0.913,0.143,-18.305,8.05,-159.792
38137890,-0.508,0.922,0.209,-17.29,-20.265,-134.102
38137890,-0.23,0.74,0.128,-5.6,-33.145,-81.147
38137910,0.084,0.454,0.036,2.817,-33.005,-43.085
38137910,0.259,0.117,-0.03,4.952,-36.277,-32.34
38137920,0.325,-0.146,-0.109,0.49,-52.762,-31.01
38137930,0.364,-0.343,-0.139,-14.332,-77.945,-36.33
38137940,0.227,-0.441,-0.136,-35.822,-98.577,-44.642
38137950,-0.007,-0.52,-0.117,-52.815,-113.732,-47.267
38137960,-0.117,-0.535,-0.133,-64.61,-120.032,-41.492
38137970,-0.174,-0.479,-0.095,-83.51,-120.12,-41.72
38137980,-0.215,-0.568,0.019,-102.935,-117.757,-49.017
38137990,-0.206,-0.464,0.013,-101.937,-110.075,-54.687
38138000,-0.257,-0.231,-0.015,-98.822,-106.662,-60.445
38138010,-1.089,-1.082,1.348,-116.112,-106.82,-70.612
38138020,-1.343,-1.979,0.901,-4.515,-58.695,-49.735
38138030,-0.168,-0.68,-0.021,400.82,182.647,83.772
38138040,-0.903,1.169,1.86,260.417,138.04,49.49
38138050,0.479,-1.627,1.022,219.957,-96.197,-57.557
38138060,-0.692,0.834,0.748,546.525,-19.95,-53.287
38138070,0.791,0.819,1.424,427.28,-18.182,12.757
38138080,0.112,-0.14,1.666,350.437,-25.777,5.635
38138090,1.098,0.312,1.385,333.567,-12.862,66.255
38138100,0.481,1.103,1.911,276.99,69.737,96.6
38138110,-0.828,1.508,1.533,158.48,97.475,63.91
38138120,-0.927,1.459,1.132,41.125,48.317,51.24
38138130,-0.597,0.587,1.273,-67.077,-10.325,26.967
38138140,-0.204,0.078,1.2,-117.547,-39.252,2.047
38138150,0.096,-0.155,0.953,-135.905,-43.505,-5.6
38138160,0.026,-0.495,0.731,-119.805,-32.795,-6.842
38138170,0.025,-0.639,0.64,-81.077,-26.512,1.872
38138170,-0.05,-0.587,0.67,-26.81,-23.52,12.617
38138190,0.117,-0.576,0.67,25.567,-21.77,23.502
38138190,0.328,-0.363,0.862,73.132,-10.902,34.72
38138210,0.122,0.179,1.116,97.527,10.745,37.712
38138210,-0.118,0.384,1.18,81.672,23.467,30.45
38138230,-0.263,0.251,1.095,52.325,19.495,17.937
38138230,-0.277,0.342,1.138,30.957,8.102,8.242
38138250,-0.318,0.334,1.083,6.072,-6.825,-6.09
38138250,-0.102,0.051,1.027,-17.255,-19.932,-19.845
38138260,0.076,-0.038,1.031,-19.022,-22.435,-29.4
38138270,0.186,0.088,1.093,-16.485,-13.702,-35.402
38138280,0.2,0.228,1.135,-22.277,3.185,-41.615
38138290,0.09,0.144,1.156,-35.402,24.517,-50.417
38138300,0.07,0.152,1.249,-55.982,44.117,-54.425
38138310,0.039,0.214,1.328,-83.265,65.45,-57.732
38138320,0.122,0.192,1.402,-128.292,82.337,-57.102
38138330,0.092,0.149,1.439,-178.132,94.815,-50.75
38138340,-0.043,0.135,1.469,-230.37,92.452,-35.192
38138350,0.053,0.12,1.592,-282.012,73.395,-12.67
38138360,0.155,-0.034,1.705,-328.632,61.95,11.672
38138370,-0.101,-0.461,1.735,-372.697,49.945,20.002
38138380,-0.99,-1.699,1.636,-431.742,-12.092,7.577
38138390,-1.428,-1.761,1.801,-426.772,-95.427,7.945
38138400,-0.584,-1.998,-0.109,-295.242,-125.387,48.93
38138410,-0.388,-1.998,0.019,-188.79,-90.177,22.172
38138420,-0.355,-1.889,0.614,-192.535,-37.73,-17.185
38138430,-0.21,-1.024,0.444,-123.34,14.455,-29.75
38138440,-0.137,0.226,0.493,-58.065,85.172,-8.68
38138450,-0.263,0.92,0.413,-60.34,96.127,19.355
38138460,-0.048,1.393,0.454,-59.202,62.265,53.585
38138470,0.669,1.501,0.477,-50.277,28.612,83.912
38138480,1.129,1.297,0.588,-37.695,24.92,75.162
38138490,1.053,1.099,0.529,-1.47,32.602,17.36
38138500,0.655,0.905,0.37,41.737,33.285,-40.932
38138510,0.261,0.554,0.237,65.345,19.74,-60.567
38138520,0.128,0.271,0.058,75.162,-10.5,-64.33
38138530,0.158,-0.039,-0.04,55.562,-38.22,-63.997
38138540,0.211,-0.243,-0.069,31.71,-51.835,-63.14
38138550,0.127,-0.351,-0.1,17.657,-58.467,-62.475
38138560,-0.059,-0.402,-0.172,5.582,-72.467,-58.8
38138570,-0.253,-0.445,-0.208,-15.172,-98.717,-44.275
38138580,-0.327,-0.543,-0.154,-46.567,-128.222,-18.76
38138580,-0.236,-0.588,-0.089,-74.725,-150.307,1.977
38138600,-0.484,-0.675,0.007,-85.382,-158.497,16.292
38138600,-0.615,-1.166,0.657,-92.032,-112.962,59.447
38138620,-0.333,-1.998,1.201,33.775,-24.675,26.967
38138620,-1.444,-1.126,1.536,97.282,84.262,-49.875
38138640,-1.603,-1.469,1.731,159.862,-0.21,-36.61
38138640,0.691,-0.75,-0.29,470.977,-153.912,-2.432
38138660,0.433,1.99,-0.004,416.237,-112.105,-44.152
38138660,1.407,-0.376,0.925,256.952,-26.617,-35.052
38138670,0.739,-1.956,1.135,351.032,38.412,-76.51
38138680,1.519,0.115,0.754,456.872,75.845,-40.565
38138690,0.901,1.104,0.865,432.88,113.715,51.642
38138700,0.029,0.253,1.754,332.535,101.062,101.71
38138710,-0.583,1.024,1.869,265.002,102.007,153.44
38138720,-1.504,1.543,1.544,169.75,81.305,127.732
38138730,-1.379,0.871,1.341,28.647,27.457,72.415
38138740,-0.824,0.465,1.186,-51.03,-26.285,-3.447
38138750,-0.13,0.163,1.086,-103.285,-56.455,-45.92
38138760,0.247,-0.169,0.887,-113.417,-57.26,-53.007
38138770,0.261,-0.328,0.856,-100.415,-40.022,-39.252
38138780,0.196,-0.304,0.837,-77.577,-26.722,-16.52
38138790,0.079,-0.3,0.848,-54.46,-18.952,1.627
38138800,-0.008,-0.316,0.892,-32.375,-14.612,9.712
38138810,-0.004,-0.201,0.934,-15.75,-11.042,8.4
38138820,0.096,-0.147,0.953,-6.755,-7.91,4.742
38138830,0.147,-0.132,1.023,-2.52,0.297,4.235
38138840,0.061,0,1.088,-0.612,10.115,5.792
38138850,-0.014,0.074,1.156,-11.27,18.357,4.112
38138860,-0.052,0.121,1.222,-31.045,25.707,-1.715
38138870,0.012,0.151,1.283,-57.312,33.687,-7.175
38138880,0.044,0.178,1.315,-91.402,42.455,-10.185
38138890,-0.022,0.144,1.325,-133.91,47.04,-6.632
38138900,0.055,0.042,1.306,-179.672,39.725,3.885
38138910,0.106,0.027,1.315,-224.367,33.407,26.057
38138920,0.064,0.073,1.271,-259.385,25.27,52.832
38138920,-0.292,-0.112,1.221,-294.91,7.28,78.89
38138940,-0.567,-1.051,1.444,-340.392,-46.06,94.587
38138940,-0.722,-0.975,1.815,-368.042,-100.677,109.27
38138960,-0.696,-0.962,1.437,-305.48,-182.98,95.76
38138960,-0.887,-0.788,1.325,-279.685,-225.015,133.367
38138980,-0.767,-1.21,1.031,-244.877,-269.902,142.082
38138980,-0.676,-1.618,0.702,-170.117,-288.067,140.245
38139000,-0.218,-1.708,0.577,-101.22,-229.18,149.765
38139000,0.238,-1.585,0.444,-46.725,-113.312,149.117
38139010,0.619,-0.994,0.454,29.19,22.522,105.175
38139020,0.113,-0.427,0.288,74.112,112.157,57.855
38139030,0.069,-0.069,0.08,71.277,155.085,20.632
38139040,0.167,0.206,0.293,30.467,178.062,7.595
38139050,0.332,0.534,0.384,12.25,182.892,-12.74
38139060,0.401,0.856,0.34,18.9,186.165,-29.837
38139070,0.358,1.177,0.287,24.167,174.527,-51.502
38139080,0.298,1.413,0.22,28.035,137.847,-74.445
38139090,0.37,1.525,0.178,33.74,98.437,-74.97
38139100,0.523,1.484,0.239,41.545,72.03,-74.777
38139110,0.436,1.144,0.268,53.427,52.325,-83.335
38139120,0.291,0.808,0.109,85.172,38.36,-85.662
38139130,0.143,0.421,-0.153,113.592,20.247,-73.885
38139140,0.119,-0.124,-0.381,114.922,-8.505,-60.637
38139150,0.262,-0.704,-0.506,109.287,-34.737,-59.745
38139160,0.246,-1.074,-0.607,98.49,-51.957,-73.22
38139170,0.431,-1.472,-0.724,80.937,-50.487,-95.217
38139180,-0.732,-1.989,1.901,-15.225,53.27,-102.987
38139190,-1.988,-1.998,1.699,279.982,55.352,-250.46
38139200,-1.419,-1.986,0.335,492.87,-42.297,-98.63
38139210,1.639,1.53,0.256,561.697,-158.217,-23.957
38139220,1.998,1.905,-0.195,523.285,-78.382,22.592
38139230,0.769,-1.002,1.88,387.485,-33.197,-50.47
38139240,0.944,-0.257,1.998,377.912,34.492,0.332
38139250,0.534,1.812,1.922,379.925,144.392,95.042
38139260,-1.768,1.955,1.214,150.99,138.302,49.962
38139270,-1.126,1.249,1.184,-11.83,38.692,47.407
38139280,-0.401,0.303,1.567,-138.862,-29.855,12.285
38139290,0.106,0.207,1.128,-181.86,-51.31,-2.502
38139300,-0.132,-0.255,0.582,-173.757,-37.31,2.607
38139310,-0.29,-1.137,0.528,-142.957,-36.837,-11.55
38139320,-0.007,-0.986,0.46,-68.827,-41.685,-2.887
38139330,0.319,-0.697,0.503,12.915,-42.07,12.897
38139330,0.322,-0.492,0.769,72.782,-29.96,27.282
38139350,0.319,0.038,1.086,110.285,-6.492,47.635
38139350,0.066,0.394,1.253,103.705,20.125,56.595
38139370,-0.232,0.305,1.143,72.922,30.082,50.715
38139370,-0.369,0.405,1.195,45.745,21.665,38.115
38139380,-0.542,0.482,1.159,14.612,2.905,21
38139390,-0.198,0.145,1.059,-24.727,-20.912,-4.305
38139400,0.02,-0.062,0.997,-34.44,-29.925,-17.657
38139410,0.172,-0.022,1.045,-29.137,-23.345,-21.962
38139420,0.107,0.07,1.078,-26.985,-10.815,-24.185
38139430,0.091,0.076,1.125,-32.27,2.922,-29.907
38139440,0.22,0.058,1.145,-39.305,25.882,-40.915
38139450,0.148,0.079,1.286,-55.405,57.487,-55.055
38139460,0.272,0.099,1.422,-86.38,87.657,-58.87
38139470,0.353,0.084,1.448,-132.352,113.907,-54.687
38139480,0.319,0.084,1.462,-182.91,124.337,-39.62
38139490,0.221,0.14,1.537,-229.6,108.657,-17.307
38139500,0.335,0.182,1.57,-277.427,86.327,14.577
38139510,-0.197,0.007,1.222,-331.03,44.135,48.23
38139520,-1.421,-1.3,1.875,-435.54,-59.045,68.985
38139530,-1.437,-1.998,1.484,-470.627,-301.927,35.875
38139540,0.622,-1.998,0.664,-305.357,-344.767,59.325
38139550,0.784,-1.998,0.714,-134.785,-131.635,-25.62
38139560,-0.989,-1.998,0.061,1.225,126.14,-232.435
38139570,-1.998,-1.663,0.034,80.43,251.37,-298.06
38139580,-1.985,-0.86,-0.183,101.115,255.43,-208.862
38139590,-1.42,0.401,-0.482,84.822,204.522,-92.96
38139600,-0.982,1.143,-0.533,8.872,113.382,-21.315
38139610,-0.142,1.031,-0.025,-114.87,61.547,18.672
38139620,0.698,0.964,0.706,-192.36,76.37,42.42
38139630,0.838,0.853,0.996,-166.582,114.135,36.26
38139640,0.552,1.012,0.697,-90.072,120.522,-5.232
38139650,0.267,0.944,0.325,-35.945,97.93,-49.997
38139660,0.059,0.752,0.131,-13.685,60.112,-70.595
38139670,-0.143,0.678,0.074,-11.76,3.797,-63.017
38139670,-0.119,0.607,0.027,-16.835,-68.757,-37.17
38139690,0.211,0.46,-0.006,-18.882,-123.165,-5.635
38139690,0.478,0.322,-0.022,-24.745,-141.382,5.232
38139710,0.523,0.296,0.059,-38.482,-130.095,-7.455
38139710,0.334,0.32,0.126,-47.355,-101.657,-26.425
38139730,0.094,0.319,0.136,-41.842,-74.637,-38.535
38139730,-0.19,0.287,0.069,-32.567,-63.052,-46.182
38139750,-0.429,0.293,0.01,-21.332,-70.735,-47.495
38139750,-0.481,-0.715,-0.028,-20.492,-83.02,-35.385
38139760,0.088,-0.043,1.169,-43.802,23.572,24.71
38139770,0.148,-1.998,1.998,140.577,88.235,-97.527
38139780,-1.799,-1.958,0.372,336.665,-76.685,-247.817
38139790,-0.56,1.434,-0.972,563.85,-169.505,-141.417
38139800,1.997,1.801,-0.682,493.43,-77.787,-15.732
38139810,0.576,-0.935,1.861,273.245,107.73,3.692
38139820,-0.261,-1.049,1.816,416.71,78.872,-58.432
38139830,0.76,1.667,1.212,470.61,110.547,135.73
38139840,-0.711,1.183,1.836,285.705,103.845,120.785
38139850,-1.425,1.197,1.816,138.775,90.16,111.825
38139860,-1.267,1.263,1.196,44.45,28.157,63.787
38139870,-0.773,0.143,1.136,-70.542,-30.87,-5.775
38139880,-0.12,-0.139,0.985,-89.775,-62.072,-48.825
38139890,0.347,-0.324,0.711,-75.372,-54.04,-54.407
38139900,0.366,-0.647,0.746,-42.052,-30.047,-45.675
38139910,0.384,-0.404,0.864,2.362,-13.335,-14.472
38139920,0.221,-0.158,0.912,32.06,4.13,14.035
38139930,-0.092,-0.12,1.036,43.242,19.39,23.8
38139940,-0.222,0.125,1.071,45.08,22.365,21.7
38139950,-0.262,0.122,1.085,30.607,17.185,9.135
38139960,-0.207,0.21,1.123,15.19,8.557,-3.815
38139970,-0.056,0.289,1.214,-4.935,4.392,-11.795
38139980,0.001,0.348,1.329,-36.207,10.29,-17.062
38139990,-0.043,0.39,1.433,-76.685,24.71,-20.09
38140000,-0.084,0.428,1.466,-133.77,42.402,-23.187
38140010,-0.125,0.426,1.385,-199.517,52.43,-24.01
38140020,-0.055,0.341,1.321,-262.482,43.12,-18.217
38140030,0.086,0.259,1.387,-315.157,38.447,-2.1
38140040,0.055,0.107,1.429,-352.712,51.362,17.01
38140050,0.016,-0.391,1.235,-385.752,66.71,28.525
38140050,-0.003,-1.214,1.267,-427.245,60.637,36.207
38140070,-0.977,-1.185,1.612,-434.735,63.84,65.152
38140070,-0.514,-1.991,1.998,-375.69,-26.145,78.487
38140080,0.146,-1.748,1.36,-218.977,-115.71,133.91
38140090,-0.121,-1.266,1.249,-101.78,-63.192,186.76
38140100,0.246,-1.613,1.358,-55.002,-3.745,223.877
38140110,1.358,-1.249,1.037,107.047,34.667,245.875
38140120,1.826,-0.734,0.511,211.4,83.755,224.122
38140130,1.378,-0.35,0.046,206.447,104.965,135.432
38140140,0.635,0.131,-0.46,209.422,52.99,28.595
38140150,0.1,0.637,-0.849,193.655,-41.702,2.835
38140160,0.429,0.999,-0.865,116.585,-126.647,20.895
38140170,0.806,0.699,-0.432,-30.607,-145.722,10.657
38140180,0.554,0.133,0.274,-138.477,-102.182,-29.977
38140190,-0.134,-0.104,0.56,-95.375,-63.665,-70.787
38140200,-0.675,0.232,0.345,-0.612,-75.092,-80.955
38140210,-0.582,0.334,-0.003,28.07,-111.947,-68.46
38140220,-0.184,0.095,-0.34,25.025,-135.205,-60.375
38140230,-0.115,0.004,-0.62,28.192,-142.397,-81.917
38140240,-0.431,-0.036,-0.623,8.015,-161.892,-122.237
38140250,-0.739,-0.339,-0.355,-56.437,-208.845,-146.597
38140260,-0.763,-0.753,-0.064,-117.005,-268.17,-148.785
38140270,-0.638,-0.907,-0.073,-130.13,-314.702,-148.067
38140280,-0.749,-0.694,-0.208,-126.437,-339.552,-153.037
38140290,-1.101,-0.635,-0.301,-159.932,-340.9,-144.567
38140300,-1.432,-1.39,0.701,-214.497,-326.48,-98.56
38140310,-0.643,-1.897,1.905,-235.305,-115.412,-64.4
38140320,0.996,-1.99,1.742,95.795,301.175,10.202
38140330,0.876,-1.697,0.795,500.482,303.782,-78.4
38140340,-1.672,1.837,0.97,531.02,135.922,-283.605
38140350,0.878,1.592,0.272,465.36,96.67,-6.037
38140360,1.998,-0.602,0.061,407.435,168.857,68.53
38140370,0.552,0.228,1.508,403.252,333.077,12.81
38140380,-1.079,0.683,1.694,400.61,340.795,46.917
38140390,-1.72,0.69,1.998,329.507,283.605,126.542
38140400,-1.795,1.913,1.532,194.04,164.762,70.455
38140410,-1.439,1.592,1.367,35.857,38.902,25.095
38140420,-0.449,0.45,1.35,-96.827,-39.725,-42.42
38140420,0.099,-0.154,0.929,-131.04,-56.63,-68.057
38140440,0.418,-0.615,0.731,-114.345,-41.597,-65.992
38140440,0.249,-0.488,0.73,-73.885,-14.822,-44.835
38140460,0.196,-0.408,0.802,-38.535,-5.25,-12.705
38140460,-0.046,-0.259,0.887,-11.742,0.017,11.655
38140480,-0.231,-0.057,1.018,1.452,-3.5,23.362
38140480,-0.264,0.085,1.08,-1.872,-11.13,18.9
38140500,-0.176,0.082,1.101,-17.377,-17.902,9.485
38140500,-0.058,0.148,1.163,-31.815,-22.12,3.78
38140510,-0.08,0.273,1.222,-53.235,-20.352,2.607
38140520,-0.073,0.202,1.205,-85.067,-16.485,-1.085
38140530,-0.095,0.136,1.141,-111.545,-10.64,-5.162
38140540,0.024,-0.003,1.121,-131.845,-3.412,-11.287
38140550,0.088,0.001,1.141,-149.52,7.14,-18.235
38140560,0.222,-0.013,1.186,-171.202,16.607,-17.132
38140570,0.305,-0.065,1.232,-200.795,29.645,-8.085
38140580,0.399,-0.076,1.288,-234.92,44.922,8.785
38140590,0.522,-0.1,1.376,-270.34,68.67,37.817
38140600,0.221,-0.41,1.457,-302.067,102.287,69.405
38140610,-0.092,-0.677,1.388,-316.12,96.67,100.52
38140620,-0.219,-1.275,1.841,-328.422,24.062,88.725
38140630,-0.03,-1.112,1.972,-333.917,-40.74,102.865
38140640,-0.027,-0.737,1.571,-263.602,-92.085,120.96
38140650,0.19,-0.945,1.207,-203.7,-116.672,131.687
38140660,0.305,-1.42,1.485,-165.83,-104.772,130.165
38140670,0.325,-1.624,1.156,-70.84,-52.657,105.717
38140680,0.413,-1.226,0.807,101.71,-4.987,65.117
38140690,0.147,-0.84,0.451,195.825,1.207,19.145
38140700,0.004,-0.518,-0.256,232.19,-14.017,-22.33
38140710,0.042,0.005,-0.973,225.96,-4.375,-43.82
38140720,-0.029,0.42,-1.231,145.582,37.52,-49.542
38140730,-0.204,0.808,-0.838,15.802,71.505,-71.417
38140740,-0.237,0.891,-0.127,-98.595,103.18,-96.092
38140750,-0.462,1.113,0.65,-137.987,140.665,-98.087
38140760,-0.908,1.669,0.848,-73.5,125.387,-81.462
38140760,-0.783,1.997,0.554,12.355,68.39,-35.805
38140780,-0.427,1.916,0.349,29.347,20.072,24.92
38140780,-0.28,1.342,0.381,25.252,-9.012,53.147
38140800,-0.402,0.614,0.306,50.697,-28.28,62.072
38140800,-0.468,-0.132,0.113,73.062,-55.527,73.815
38140820,-0.438,-0.82,-0.155,75.092,-84.367,87.22
38140820,-0.468,-1.055,-0.656,77.087,-128.187,83.09
38140830,-0.476,-1.25,-1.027,45.57,-172.182,68.267
38140840,-0.623,-1.494,-0.957,-31.272,-198.065,55.195
38140850,-0.08,-1.884,-0.715,-99.715,-148.995,61.057
38140860,-1.906,-1.998,1.751,-241.622,-182.892,-5.53
38140870,-0.687,-0.373,0.077,332.78,-324.765,-157.062
38140880,1.969,1.997,-0.166,546.315,-12.442,2.327
38140890,1.84,1.708,-0.08,372.925,-44.24,29.662
38140900,1.204,-1.757,1.755,299.88,-28.77,-105.07
38140910,1.231,-0.698,1.456,419.212,49.857,8.715
38140920,1.511,1.937,1.334,503.685,166.722,91.752
38140930,-1.385,0.414,1.997,266.612,233.852,58.415
38140940,-1.766,1.994,0.899,148.207,154.945,83.667
38140950,-1.118,1.234,1.165,-14.087,7.087,50.19
38140960,-0.355,0.304,1.588,-153.37,-64.715,-17.972
38140970,0.322,0.185,1.092,-171.675,-61.32,-41.807
38140980,0.049,-0.656,0.874,-187.057,-34.23,-54.11
38140990,0.06,-0.789,0.61,-153.72,-17.185,-55.86
38141000,0.365,-0.63,0.484,-87.605,-11.235,-29.977
38141010,0.132,-0.716,0.692,-31.657,-6.282,-3.412
38141020,0.096,-0.399,0.818,17.57,-5.285,22.137
38141030,-0.011,-0.142,0.966,42.857,-3.307,37.065
38141040,-0.082,0.077,1.064,47.932,-0.507,41.335
38141050,-0.124,0.116,1.059,39.847,1.767,36.75
38141060,-0.111,0.04,1.089,25.76,1.487,28.875
38141070,-0.081,0.205,1.176,13.755,3.92,22.61
38141080,-0.154,0.31,1.203,-10.202,6.79,11.742
38141090,-0.12,0.259,1.241,-45.01,9.59,-2.397
38141100,-0.06,0.169,1.227,-75.932,13.877,-12.652
38141110,-0.019,0.099,1.173,-103.775,21.77,-18.655
38141120,0.013,0.03,1.164,-129.167,29.102,-21.91
38141130,0.017,-0.008,1.198,-152.285,33.355,-21.542
38141140,0.079,-0.02,1.187,-180.652,34.107,-18.41
38141150,0.174,-0.025,1.268,-210.875,33.775,-9.625
38141160,0.099,-0.087,1.269,-239.207,35.052,5.32
38141170,0.093,-0.277,1.257,-271.617,14.91,30.712
38141170,0.268,-0.43,1.384,-321.422,-9.642,75.302
38141190,-0.198,-0.662,1.596,-374.78,-30.695,110.005
38141190,-0.783,-1.626,1.998,-400.645,-107.642,116.847
38141210,-0.65,-1.849,1.652,-286.247,-234.115,105.42
38141210,-0.824,-1.382,1.524,-138.32,-282.992,167.125
38141230,-1.06,-1.759,0.927,-62.86,-268.432,152.897
38141230,-0.876,-1.179,0.613,98.525,-217.052,154.087
38141250,-0.182,-0.761,-0.183,198.817,-127.19,159.25
38141250,-0.206,-0.645,-0.611,210.752,-25.637,114.94
38141260,-0.392,-0.404,-0.851,201.53,71.242,78.557
38141270,-0.569,-0.08,-1.034,169.855,136.587,55.912
38141280,-0.27,-0.041,-0.728,88.392,166.74,44.73
38141290,0.061,-0.234,-0.101,-23.8,161.245,34.947
38141300,0.415,-0.18,0.442,-99.907,135.03,2.292
38141310,0.968,-0.203,0.732,-107.502,139.912,-30.607
38141320,0.877,0.079,0.58,-65.485,154.175,-91.577
38141330,0.569,0.64,0.249,-15.032,139.195,-196.21
38141340,0.17,0.91,0.02,0.647,110.722,-294.437
38141350,-0.139,1.076,-0.089,-9.642,95.042,-323.417
38141360,-0.513,1.159,-0.123,-14.805,78.19,-338.117
38141370,-0.832,1.268,-0.02,-24.762,65.52,-318.885
38141380,-1.051,1.319,0.034,-30.59,52.78,-264.512
38141390,-0.973,1.318,0.102,-31.395,39.06,-183.715
38141400,-0.801,1.271,0.184,-30.45,18.532,-83.055
38141410,0.937,0.001,-0.583,-25.322,62.737,10.605
38141420,0.553,-1.998,1.998,-161.84,141.627,-3.412
38141430,-1.036,-1.998,-0.554,298.812,-279.142,-432.355
38141440,-1.702,1.497,-0.155,573.352,-63.157,-286.422
38141450,1.86,1.796,-0.929,535.745,-146.475,15.627
38141460,0.567,0.323,1.516,307.387,36.89,60.112
38141470,0.706,-1.467,1.955,483.77,6.615,-10.692
38141480,0.982,1.735,1.935,454.58,152.985,211.925
38141490,-1.888,1.368,1.865,311.29,194.88,155.995
38141500,-1.735,1.997,1.063,131.757,98.28,112
38141510,-0.99,1.067,1.108,-21.035,-41.475,9.117
38141510,0.128,0.195,1.282,-127.155,-95.112,-35.07
38141530,0.327,-0.224,1.017,-125.16,-80.832,-39.2
38141530,0.353,-0.516,0.847,-115.447,-52.867,-29.33
38141550,0.329,-0.564,0.816,-82.302,-28.997,-18.27
38141550,0.225,-0.448,0.766,-37.38,-9.572,-1.505
38141570,0.124,-0.448,0.851,-0.332,0.385,13.86
38141570,0.099,-0.159,0.987,29.277,9.555,24.097
38141580,-0.028,0.184,1.099,33.565,16.94,28.927
38141590,-0.18,0.283,1.142,13.72,17.727,26.53
38141600,-0.156,0.274,1.152,-14.245,12.442,15.435
38141610,-0.01,0.259,1.26,-43.452,11.235,4.97
38141620,-0.061,0.385,1.335,-79.94,14.7,-2.1
38141630,-0.189,0.298,1.364,-127.33,17.22,-4.83
38141640,-0.182,0.249,1.291,-180.687,7.262,-2.205
38141650,-0.056,0.255,1.126,-230.475,-4.865,7.332
38141660,-0.085,0.119,1.007,-265.212,-13.51,22.085
38141670,-0.129,-0.159,1.034,-287.35,-24.71,35.017
38141680,-0.101,-0.258,1.142,-311.727,-32.725,51.502
38141690,-0.018,-0.526,1.166,-329.35,-27.772,72.502
38141700,-0.038,-0.227,1.1,-336.105,-21.507,106.05
38141710,0.044,-1.1,1.414,-336.175,-45.885,78.452
38141720,-0.259,-1.404,1.692,-339.78,-69.982,70.7
38141730,-0.234,-1.859,1.823,-293.545,-98.787,48.877
38141740,0.123,-1.106,1.625,-175.087,-79.905,58.66
38141750,0.061,-1.417,0.938,-52.132,-22.26,98.665
38141760,-0.851,-1.135,0.846,58.66,27.492,84.07
38141770,-0.631,-1.028,0.646,150.465,49.42,114.485
38141780,0.3,-0.887,0.34,197.942,36.715,146.807
38141790,0.817,-0.603,0.071,240.957,38.71,113.627
38141800,0.433,-0.334,-0.22,233.537,58.73,41.475
38141810,0.065,-0.112,-0.391,199.885,53.83,-31.535
38141820,-0.076,0.163,-0.428,154.385,35.945,-79.415
38141830,-0.157,0.442,-0.597,90.755,13.405,-104.947
38141840,-0.376,0.653,-0.516,29.522,-5.022,-121.362
38141850,-0.605,0.648,-0.289,-32.165,-17.185,-134.645
38141860,-0.545,0.454,-0.011,-77.315,-16.66,-124.372
38141870,-0.56,0.356,0.213,-78.207,-2.8,-89.355
38141880,-0.44,0.349,0.2,-43.627,9.502,-55.44
38141890,-0.29,0.37,0.096,-6.317,21,-19.705
38141900,-0.238,0.331,0.081,4.917,25.567,6.737
38141910,-0.22,0.134,0.058,-4.795,6.387,16.467
38141920,0.006,-0.028,-0.116,-9.082,-24.955,20.3
38141920,0.211,0.015,-0.334,-11.847,-49.105,18.532
38141940,0.182,0.038,-0.443,-48.3,-70.84,-4.077
38141940,0.353,-0.284,-0.154,-106.015,-68.81,-43.417
38141960,-1.078,-1.86,1.884,-313.512,-90.807,-139.072
38141960,0.198,-1.883,-1.106,166.162,-177.152,-272.16
38141980,0.007,1.851,-0.048,563.15,-18.252,-157.342
38141980,1.998,1.981,-0.427,411.215,2.642,8.242
38142000,0.994,-0.961,1.692,266.892,83.055,-12.145
38142000,1.273,-0.468,1.943,432.46,120.382,65.45
38142010,-0.522,1.858,1.854,416.08,219.187,158.287
38142020,-1.998,1.66,1.571,189.7,182.63,127.05
38142030,-1.733,1.883,1.005,58.432,56.472,84.087
38142040,-0.646,0.613,1.304,-81.025,-56.245,-6.195
38142050,0.25,0.183,1.208,-149.292,-82.372,-45.587
38142060,0.405,-0.245,0.887,-138.617,-62.335,-43.522
38142070,0.517,-0.782,0.818,-120.715,-32.987,-30.765
38142080,0.409,-0.595,0.721,-67.305,-0.927,-8.522
38142090,0.218,-0.576,0.635,-15.645,18.025,21.07
38142100,0.045,-0.871,0.577,38.115,23.59,39.182
38142110,-0.062,-0.566,0.809,97.755,30.59,51.135
38142120,-0.006,0.217,1.138,124.285,37.31,58.24
38142130,-0.187,0.603,1.251,99.925,47.932,49.297
38142140,-0.473,0.456,1.088,59.465,43.61,31.15
38142150,-0.403,0.3,1.13,26.407,27.02,12.372
38142160,-0.397,0.435,1.095,3.675,11.41,-8.19
38142170,-0.233,0.246,1.142,-28.525,-2.607,-24.832
38142180,-0.029,0.212,1.199,-50.802,-4.987,-32.147
38142190,0.012,0.207,1.251,-73.99,5.267,-34.51
38142200,-0.083,0.174,1.281,-107.117,19.775,-31.71
38142210,-0.096,0.168,1.266,-145.197,25.252,-26.722
38142220,-0.119,0.148,1.215,-182.472,19.442,-20.895
38142230,-0.074,0.054,1.182,-217.14,8.522,-13.387
38142240,-0.065,0.023,1.214,-242.27,11.462,1.155
38142250,-0.064,0.028,1.18,-255.36,14.227,19.512
38142260,-0.059,-0.041,1.146,-267.785,16.397,35.315
38142260,0.072,-0.489,1.256,-280.77,30.31,45.237
38142280,-0.385,-0.646,1.66,-283.395,42.017,41.895
38142280,-0.415,-1.184,1.961,-265.51,-3.745,35.157
38142300,-0.335,-1.299,1.907,-202.335,-54.845,51.642
38142300,-0.395,-1.686,1.975,-21.14,-35.997,76.965
38142320,-1.092,-1.23,1.5,166.915,-11.287,114.17
38142320,0.004,-0.888,-0.097,300.965,-46.585,168.087
38142330,0.225,-0.641,-0.526,300.965,-54.722,154.857
38142340,0.222,-0.659,-0.789,232.75,-81.27,100.117
38142350,0.179,-0.644,-0.724,172.917,-101.097,54.477
38142360,0.402,-0.566,-0.53,92.942,-96.127,9.695
38142370,0.43,-0.505,-0.228,1.697,-80.552,-45.045
38142380,0.114,-0.539,-0.053,-48.055,-80.5,-116.97
38142390,-0.198,-0.484,-0.027,-47.897,-87.745,-174.247
38142400,-0.37,-0.221,-0.057,-47.792,-99.925,-207.392
38142410,-0.595,-0.071,-0.073,-72.975,-119.682,-231.49
38142420,-0.714,-0.061,-0.078,-103.18,-138.197,-245.77
38142430,-0.762,0.025,-0.004,-131.705,-138.285,-236.232
38142440,-0.746,0.054,0.032,-157.36,-122.867,-209.492
38142450,-0.643,0.116,0.023,-174.475,-91.122,-173.162
38142460,-0.629,0.22,0.05,-188.177,-45.377,-131.617
38142470,-0.726,0.386,0.022,-189.402,-3.745,-89.355
38142480,-0.629,0.691,-0.244,-163.765,25.83,-42.857
38142490,0.487,1.087,0.965,-147.542,73.01,0.577
38142500,1.998,-1.364,1.129,-160.125,393.925,-9.275
38142510,-1.403,-0.961,0.59,421.452,282.905,-329.28
38142520,0.207,1.905,0.163,534.642,108.85,-178.395
38142530,1.401,0.241,1.16,295.977,151.725,224.735
38142540,-0.822,-0.943,1.988,200.48,96.617,121.555
38142550,-0.958,1.871,1.452,341.967,115.307,207.392
38142560,-1.768,1.54,1.448,153.177,76.842,133.63
38142570,-1.444,0.927,1.473,-5.74,15.207,37.187
38142580,-0.675,0.811,1.274,-63.192,-50.172,-39.427
38142590,0.029,0.272,1.24,-144.427,-75.757,-75.967
38142600,0.393,-0.079,0.998,-152.775,-55.702,-85.942
38142610,0.392,-0.375,0.865,-144.62,-18.462,-74.165
38142620,0.271,-0.519,0.785,-126.805,1.487,-51.082
38142630,0.134,-0.599,0.66,-92.557,3.745,-25.27
38142640,0.081,-0.649,0.758,-59.115,2.52,-7.63
38142650,0.079,-0.355,0.887,-27.982,3.902,8.697
38142660,0.103,-0.13,1.056,-16.327,7.017,21.91
38142670,0.021,0.019,1.214,-32.707,11.2,34.02
38142670,-0.082,0.169,1.261,-63.07,13.632,42.017
38142690,-0.134,0.216,1.34,-105.805,10.57,43.82
38142690,-0.198,0.321,1.387,-156.152,7.035,44.607
38142710,-0.305,0.357,1.354,-210.35,3.325,40.145
38142710,-0.278,-0.216,1.312,-261.135,-0.682,28.962
38142730,-0.378,0.567,1.049,-289.31,3.447,21.105
38142730,-0.203,-0.316,1.175,-290.535,-0.175,13.335
38142750,-0.295,-0.549,1.39,-318.062,-9.257,-9.205
38142750,-0.439,-0.558,1.34,-306.897,-29.365,-18.795
38142760,-0.632,-0.681,1.488,-288.855,-59.22,-22.382
38142770,-1.225,-0.952,1.77,-269.08,-135.905,-22.33
38142780,-1.379,-0.922,1.082,-185.78,-223.562,10.482
38142790,-1.145,-0.535,1.158,-73.517,-197.12,98.735
38142800,-1.91,-0.418,1.498,-16.59,-176.137,143.325
38142810,-1.963,-0.371,1.171,101.237,-106.032,220.972
38142820,-1.14,-0.151,0.734,220.797,12.18,335.562
38142830,-0.281,0.116,0.177,270.042,60.06,359.8
38142840,-0.136,0.489,-0.589,298.55,78.155,318.727
38142850,0.186,0.864,-0.834,262.657,90.842,280.192
38142860,0.606,0.559,-0.436,164.727,89.6,237.142
38142870,0.704,0.052,0.239,47.25,59.92,166.722
38142880,0.711,-0.225,0.609,-30.607,23.747,82.267
38142890,0.652,-0.391,0.447,-13.65,16.24,7.49
38142900,0.38,-0.223,0.043,51.835,23.975,-68.005
38142910,-0.168,-0.125,-0.151,58.275,26.88,-123.812
38142920,-0.454,-0.286,-0.158,21.525,7.472,-144.707
38142930,-0.364,-0.399,-0.15,-1.19,-12.897,-141.715
38142940,-0.178,-0.39,-0.072,-9.24,-8.54,-116.357
38142950,0.056,-0.182,-0.008,-7.052,5.547,-83.51
38142960,0.311,-0.389,0.27,-7.752,21.14,-62.807
38142970,1.959,-1.998,1.55,-204.487,-91.07,-187.512
38142980,-0.044,-1.136,0.602,181.842,-120.732,-490.962
38142990,-0.789,1.997,-0.9,570.045,-20.492,-335.335
38143000,1.998,1.41,-0.169,394.205,-33.6,-67.847
38143010,1.405,-1.84,1.886,205.152,58.047,-61.617
38143010,0.038,-0.205,1.319,503.685,59.955,-16.52
38143030,1.137,1.374,1.61,443.817,125.002,209.09
38143030,-1.63,0.92,1.939,279.475,188.072,164.99
38143050,-1.998,1.997,0.752,171.097,119,93.38
38143050,-1.26,1.087,1.166,-36.785,-42.822,-18.865
38143070,0.02,0.095,1.294,-127.907,-114.8,-92.015
38143070,0.622,-0.268,1.034,-124.775,-91.157,-101.307
38143080,0.558,-0.431,0.879,-114.502,-25.672,-88.13
38143090,0.56,-0.56,0.799,-83.335,7.822,-43.872
38143100,0.255,-0.391,0.848,-44.712,24.132,7.612
38143110,-0.097,-0.296,0.912,-13.405,31.64,31.36
38143120,-0.228,-0.217,0.936,5.407,29.662,35.875
38143130,-0.312,-0.054,0.927,14.735,26.53,30.397
38143140,-0.195,0.054,1.073,13.947,20.965,25.077
38143150,-0.087,0.241,1.264,-4.287,18.655,24.902
38143160,-0.062,0.389,1.376,-44.695,20.037,31.43
38143170,-0.083,0.367,1.383,-101.395,19.145,35.962
38143180,-0.119,0.35,1.359,-163.03,15.995,40.46
38143190,-0.049,0.324,1.368,-218.225,20.16,46.252
38143200,0.048,0.246,1.416,-264.687,34.982,50.907
38143210,0.147,0.096,1.389,-295.715,61.512,49.56
38143220,0.242,-0.2,1.354,-311.78,82.18,41.405
38143230,0.299,-0.343,1.363,-328.58,92.68,33.792
38143240,-0.014,-0.526,1.574,-341.6,96.897,39.27
38143250,0.532,-1.126,1.95,-313.302,91.577,31.552
38143260,0.62,-1.344,1.519,-246.54,97.772,9.835
38143270,0.692,-0.469,1.683,-172.742,117.145,18.217
38143280,0.971,-1.637,0.422,-93.572,65.187,-69.597
38143290,1.445,-1.18,1.9,-82.407,70.262,-117.967
38143300,-0.456,-1.288,0.735,34.422,-71.592,-288.102
38143310,-1.673,0.151,-0.42,184.87,-170.432,-327.18
38143320,-1.767,0.49,-1.126,142.012,-212.047,-214.97
38143330,-1.56,0.098,-1.043,30.03,-195.667,-91.105
38143340,-1.141,-0.495,-0.678,-19.775,-127.872,4.095
38143350,-1.119,-0.578,-0.341,-1.225,-49.63,74.987
38143360,-0.832,-0.669,-0.31,29.452,-30.765,109.672
38143370,-0.249,-0.724,-0.43,52.57,-45.482,108.815
38143380,0.27,-0.638,-0.515,57.26,-50.032,55.685
38143390,0.039,-0.496,-0.485,42.507,-39.41,-1.767
38143400,-0.346,-0.122,-0.505,20.597,-36.085,-43.505
38143410,-0.574,0.128,-0.528,-13.51,-49.087,-62.562
38143420,-0.564,0.159,-0.501,-57.627,-52.972,-61.845
38143420,-0.599,0.251,-0.475,-78.942,-38.815,-54.512
38143430,-0.829,0.595,-0.457,-80.08,-20.16,-48.562
38143440,-1.755,0.247,1.99,-175.07,-45.15,-57.802
38143450,-0.763,-1.946,1.479,-130.235,-251.09,-65.292
38143460,1.998,-1.125,-0.847,482.667,-104.265,-131.705
38143470,0.386,1.997,-0.372,458.43,111.597,-96.757
38143480,1.871,0.984,1.026,397.022,100.415,-30.677
38143490,0.378,-1.501,1.989,367.955,120.33,38.342
38143500,0.126,1.104,1.593,369.285,100.642,114.187
38143510,-0.776,1.379,1.586,266.052,97.65,148.05
38143520,-1.572,0.849,1.647,111.597,72.362,117.18
38143530,-1.364,0.952,1.318,39.672,19.127,63.175
38143540,-0.868,0.514,1.308,-54.932,-31.78,-19.425
38143550,-0.035,0.22,1.15,-105.787,-59.535,-58.66
38143560,0.381,-0.065,1.072,-124.495,-48.965,-67.375
38143570,0.4,-0.145,1.034,-132.807,-23.047,-52.5
38143580,0.302,-0.195,0.947,-135.485,-7.35,-23.38
38143590,0.129,-0.282,0.944,-135.397,-1.505,-1.067
38143600,-0.032,-0.22,0.956,-129.885,-1.872,10.622
38143610,-0.109,-0.174,0.987,-128.362,-6.545,16.03
38143620,-0.155,-0.1,1.059,-137.48,-11.777,17.045
38143630,-0.226,-0.031,1.119,-155.172,-20.02,16.922
38143640,-0.286,0.027,1.197,-185.167,-31.885,14.875
38143650,-0.281,-0.295,1.253,-222.565,-42.315,11.13
38143660,-0.271,0.336,1.143,-244.685,-50.015,13.597
38143670,-0.196,-0.188,1.377,-276.692,-69.125,-24.815
38143680,-0.317,-0.324,1.573,-328.755,-66.605,-26.635
38143690,0.042,-0.695,1.83,-323.242,-58.31,-33.74
38143700,0.149,-1.27,1.996,-301.892,-27.265,-33.722
38143710,-0.291,-1.643,1.849,-231.56,36.942,-51.415
38143720,-0.829,-1.135,1.836,-110.985,125.842,-62.667
38143730,-0.749,-1.307,1.724,0.542,165.777,-39.672
38143740,-0.8,-0.741,0.994,125.667,137.392,12.25
38143750,-0.103,-0.263,0.302,210.245,128.065,92.207
38143760,0.507,-0.198,-0.598,218.715,100.415,126.787
38143760,0.687,0.4,-0.785,197.82,90.825,122.395
38143780,0.58,0.535,-0.563,112.962,71.225,102.812
38143780,0.756,0.301,0.072,-4.007,45.815,52.657
38143800,0.681,0.004,0.52,-68.985,20.895,5.932
38143800,0.415,0.051,0.388,-36.802,4.935,-34.685
38143820,0.064,0.163,-0.062,19.792,1.557,-67.725
38143820,-0.349,0.124,-0.388,42.35,-6.51,-74.427
38143830,-0.721,-0.098,-0.615,32.567,-25.235,-73.622
38143840,-0.882,-0.394,-0.61,20.02,-51.1,-59.762
38143850,-0.874,-0.753,-0.486,14.262,-70.875,-35.315
38143860,-0.77,-1.025,-0.343,4.06,-72.607,1.785
38143870,-0.562,-1.262,-0.302,10.92,-67.602,33.617
38143880,-0.27,-1.214,-0.395,30.59,-67.287,33.915
38143890,-0.203,-1.141,-0.491,29.365,-64.015,21.612
38143900,0.035,-0.855,-0.575,4.007,-44.03,16.8
38143910,0.176,0.092,0.545,-37.695,5.04,1.68
38143920,0.533,-0.434,1.931,-263.812,-79.117,-56
38143930,1.6,-1.998,-0.626,122.062,-234.85,-229.425
38143940,0.426,0.515,-1.086,562.747,-3.08,-335.492
38143950,1.446,1.669,-0.527,457.432,154.892,-142.572
38143960,0.652,1.144,1.559,357.122,244.807,-76.422
38143970,0.159,0.533,1.962,526.102,102.182,-6.65
38143980,0.414,1.367,1.998,334.897,190.68,165.795
38143990,-1.994,1.994,0.96,172.55,187.005,107.52
38144000,-0.6,1.049,1.478,-56.577,11.497,86.1
38144010,-0.535,0.664,1.746,-192.745,-57.19,-2.852
38144020,0.348,0.319,1.018,-212.8,-21.717,-27.037
38144030,-0.362,-0.226,0.639,-238.105,1.96,-44.642
38144040,-0.164,-1.008,0.421,-197.277,-2.537,-43.242
38144050,-0.091,-1.15,0.451,-130.585,-12.722,-41.072
38144060,0,-0.891,0.439,-56.14,-17.745,-22.435
38144070,0.084,-0.804,0.561,12.022,-20.457,-9.817
38144080,0.204,-0.499,0.8,67.182,-20.317,12.25
38144090,0.295,-0.104,1.054,97.86,-14.717,35.245
38144100,0.203,0.166,1.235,86.765,-5.635,51.765
38144100,-0.094,0.356,1.237,59.08,1.435,58.502
38144120,-0.281,0.531,1.391,21.437,5.022,57.172
38144120,-0.411,0.595,1.435,-31.36,7.787,37.992
38144140,-0.426,0.473,1.33,-95.637,11.585,8.925
38144140,-0.316,0.246,1.25,-145.022,16.45,-16.065
38144160,-0.142,0.098,1.208,-177.38,24.937,-33.197
38144160,-0.09,0.026,1.185,-198.887,32.375,-42.385
38144170,-0.024,-0.079,1.16,-215.32,34.615,-40.722
38144180,0.138,-0.185,1.132,-229.827,36.487,-32.532
38144190,0.125,-0.222,1.126,-235.427,39.742,-22.995
38144200,0.056,-0.333,1.154,-234.885,40.967,-17.22
38144210,-0.079,-0.712,1.304,-236.04,39.847,-7.77
38144220,-0.369,-0.381,1.666,-228.182,32.602,8.365
38144230,-0.122,-1.144,1.918,-187.932,5.862,15.89
38144240,-0.198,-1.181,1.825,-136.412,-7.682,26.477
38144250,-0.047,-1.259,1.57,-40.67,17.937,44.73
38144260,-0.605,-1.359,1.823,75.985,22.33,48.947
38144270,0.039,-1.042,0.434,237.352,-38.255,56.192
38144280,0.524,-0.607,-0.24,299.477,-18.655,75.547
38144290,0.435,-0.509,-0.552,257.74,4.41,52.517
38144300,0.228,-0.505,-0.879,225.557,2.712,11.305
38144310,0.138,-0.105,-1.062,184.397,-2.782,-16.292
38144320,0.151,0.137,-0.808,82.075,-1.75,-31.115
38144330,0.164,0.138,-0.326,-57.767,-11.532,-63.927
38144340,-0.111,-0.139,0.217,-150.727,-33.407,-109.217
38144350,-0.35,-0.264,0.416,-132.947,-63.49,-144.34
38144360,-0.488,-0.028,0.235,-67.217,-92.802,-156.747
38144370,-0.595,0.22,-0.082,-34.44,-118.195,-158.725
38144380,-0.756,0.29,-0.325,-35.175,-139.352,-154.63
38144390,-0.913,0.303,-0.334,-58.17,-156.59,-135.275
38144400,-0.883,0.121,-0.253,-94.937,-163.012,-97.895
38144410,-0.723,-0.034,-0.127,-117.862,-146.965,-51.922
38144420,-0.822,-0.212,-0.026,-121.012,-118.51,-11.9
38144430,0.355,-0.19,1.203,-155.067,-60.76,-1.767
38144440,1.971,-1.844,1.634,-193.13,204.995,-28.245
38144450,-0.898,-0.895,-0.449,392.787,149.502,-231.052
38144460,-0.54,1.997,-0.417,532.402,61.302,-147.997
38144470,1.952,0.637,0.761,266.105,112.455,77.385
38144480,0.249,-1.729,1.975,249.672,81.865,14.052
38144490,0.352,1.273,1.394,402.307,92.172,104.335
38144500,-0.926,1.21,1.763,283.167,120.032,132.44
38144510,-1.577,1.307,1.609,126.98,91.752,76.125
38144510,-1.316,1.213,1.245,47.25,17.605,14.91
38144530,-0.507,0.535,1.207,-56.367,-44.922,-37.012
38144530,0.045,-0.113,0.996,-89.652,-66.972,-65.572
38144550,0.408,-0.477,0.829,-80.15,-57.347,-62.317
38144550,0.37,-0.506,0.8,-44.117,-31.57,-39.952
38144570,0.319,-0.37,0.847,-13.597,-14.35,-6.51
38144570,0.09,-0.252,0.915,12.705,0.56,17.045
38144580,-0.092,-0.077,1.008,28.192,7.77,25.585
38144590,-0.212,0.1,1.056,28.752,7.35,24.115
38144600,-0.143,0.146,1.095,15.925,1.732,18.62
38144610,-0.139,0.252,1.159,-4.427,-1.557,14.49
38144620,-0.094,0.314,1.248,-34.055,-6.562,14.087
38144630,-0.113,0.361,1.347,-73.115,-10.972,13.107
38144640,-0.191,0.339,1.355,-119.035,-19.215,14.087
38144650,-0.176,0.2,1.291,-169.365,-35.385,14.542
38144660,-0.034,0.134,1.197,-220.08,-47.652,20.667
38144670,-0.002,0.092,1.128,-254.222,-58.537,25.392
38144680,-0.022,0.025,1.167,-277.497,-66.692,29.802
38144690,-0.299,-0.051,1.327,-299.372,-81.357,35.717
38144700,-0.008,-0.873,1.528,-310.065,-95.532,50.837
38144710,-0.187,-1.036,1.832,-288.207,-90.16,88.76
38144720,0.318,-1.918,1.976,-159.197,-104.422,45.99
38144730,-0.074,-1.998,1.831,-10.692,-50.505,11.095
38144740,-0.934,-1.235,0.153,223.422,58.852,24.587
38144750,-0.724,-0.366,-0.362,302.382,67.585,70.297
38144760,0.093,-0.607,-0.164,172.375,66.465,74.217
38144770,-0.058,-0.874,-0.101,119.052,72.152,47.092
38144780,-0.188,-0.52,-0.472,148.137,71.522,18.095
38144790,-0.224,0.026,-0.721,134.732,79.572,9.66
38144800,-0.251,0.261,-0.597,33.355,86.642,-3.36
38144810,-0.37,0.005,-0.196,-79.852,69.037,-25.445
38144820,-0.32,-0.247,0.077,-122.062,42.262,-40.267
38144830,-0.108,-0.092,-0.003,-102.532,33.897,-42.682
38144830,-0.119,0.216,-0.199,-89.407,44.45,-53.427
38144850,-0.305,0.289,-0.271,-114.415,50.487,-74.2
38144850,-0.4,0.279,-0.266,-153.3,44.537,-88.637
38144870,-0.395,0.473,-0.308,-172.375,30.24,-89.81
38144870,-0.344,0.846,-0.441,-170.712,20.842,-85.347
38144890,-0.648,1.726,1.994,-242.69,-0.735,-90.23
38144890,0.559,-0.821,1.737,-257.18,-254.607,-142.817
38144910,1.806,-1.998,-1.217,351.015,-42.56,-289.485
38144910,-1.864,1.205,0.167,540.977,107.94,-284.042
38144920,0.745,1.553,0.77,314.055,60.69,-115.36
38144930,1.321,-1.321,1.918,287.14,56.577,50.627
38144940,0.147,0.827,1.768,351.102,49.98,93.31
38144950,-0.277,1.517,1.81,233.747,97.58,199.99
38144960,-1.549,1.217,1.493,111.02,87.237,148.33
38144970,-1.488,0.854,1.178,12.162,32.27,78.802
38144980,-0.935,0.158,1.044,-54.425,-23.275,-11.042
38144990,-0.134,-0.132,0.875,-70.035,-60.322,-52.342
38145000,0.371,-0.461,0.846,-49.647,-63.7,-55.737
38145010,0.555,-0.402,0.902,-18.672,-41.492,-31.167
38145020,0.465,-0.174,0.955,4.882,-13.195,9.31
38145030,0.025,-0.049,1.036,14.857,11.882,38.062
38145040,-0.224,0.134,1.052,14.052,14.472,49.717
38145050,-0.239,0.105,1.059,3.115,7.455,43.225
38145060,-0.224,0.156,1.12,-11.252,0.297,33.022
38145070,-0.075,0.295,1.246,-31.762,-3.937,27.037
38145080,-0.008,0.398,1.373,-70.315,-3.15,27.142
38145090,-0.134,0.377,1.463,-122.762,-10.535,36.05
38145100,-0.021,0.179,1.376,-190.627,-39.13,52.395
38145110,0.036,0.086,1.262,-257.145,-49.875,76.387
38145120,-0.016,-0.04,1.099,-297.29,-48.02,95.987
38145130,0.063,-0.11,1.082,-318.972,-45.762,111.02
38145140,0.156,-0.192,1.477,-339.605,-30.17,117.88
38145150,-0.028,-0.721,1.864,-358.627,-1.33,119.402
38145160,-0.041,-1.655,1.998,-290.955,-50.137,116.48
38145170,-0.172,-1.943,1.995,-150.272,-124.862,59.045
38145180,-0.717,-1.412,1.945,33.302,-32.392,87.377
38145190,-0.688,-0.829,0.292,260.872,3.15,188.072
38145200,0.1,-0.333,-0.848,318.342,18.392,188.457
38145210,-0.041,-0.353,-0.782,218.032,49.367,160.562
38145220,-0.224,-0.614,-0.634,123.34,33.565,89.267
38145230,-0.344,-0.483,-0.584,94.062,3.482,34.107
38145240,-0.157,-0.367,-0.425,47.95,1.995,-1.172
38145250,-0.003,-0.309,-0.276,-46.935,19.337,-38.902
38145260,-0.138,-0.442,-0.018,-115.377,30.94,-97.475
38145260,-0.284,-0.538,0.181,-125.335,33.565,-138.32
38145280,-0.302,-0.386,0.207,-112.49,33.25,-144.672
38145280,-0.269,-0.16,0.079,-102.462,23.957,-139.562
38145300,-0.21,0.012,-0.16,-100.782,7.927,-131.635
38145300,-0.21,0.343,-0.342,-112.98,-12.845,-118.37
38145320,-0.099,0.678,-0.53,-147.962,-39.672,-100.555
38145320,-0.032,0.931,-0.579,-203.752,-65.432,-82.722
38145330,-0.047,1.21,-0.723,-258.282,-94.552,-73.622
38145340,0.294,1.931,1.31,-342.247,-63.472,-77.91
38145350,1.269,-1.512,1.897,-464.992,57.295,-69.3
38145360,-0.951,-1.844,-0.863,272.807,8.085,-175.647
38145370,-0.739,1.915,-0.622,485.117,-11.13,-263.305
38145380,1.688,0.543,0.252,248.832,91.49,44.047
38145390,0.342,-1.869,1.842,268.8,142.502,18.287
38145400,-0.586,0.146,1.141,449.54,61.6,14.437
38145410,0.759,1.144,1.125,355.897,63.227,183.487
38145420,-0.925,0.603,1.656,245.822,54.442,163.537
38145430,-1.192,0.746,1.571,204.575,48.422,147.84
38145440,-1.191,0.909,1.342,135.922,21.647,84.367
38145450,-0.751,0.448,1.332,37.677,-16.257,5.04
38145460,-0.14,0.286,1.213,-14.122,-40.827,-34.16
38145470,0.169,0.108,1.144,-47.372,-37.642,-42.28
38145480,0.195,-0.065,1.073,-67.007,-24.78,-30.065
38145490,0.092,-0.088,1.033,-73.71,-15.715,-4.725
38145500,-0.16,-0.035,1.062,-79.135,-13.72,13.02
38145510,-0.236,0.035,1.126,-93.38,-19.232,19.425
38145520,-0.256,0.101,1.146,-114.87,-24.377,18.34
38145530,-0.2,0.078,1.149,-143.745,-33.267,17.78
38145540,-0.217,0.019,1.152,-176.12,-42.455,18.987
38145550,-0.212,0.032,1.147,-210.017,-53.97,19.075
38145560,-0.155,0.026,1.119,-246.942,-63.017,23.87
38145570,-0.126,-0.066,1.093,-282.607,-73.955,25.025
38145580,-0.131,-0.453,1.127,-307.195,-79.765,32.532
38145580,0.073,-0.061,1.041,-278.827,-84.595,37.642
38145600,-0.213,-0.696,1.419,-267.977,-119.997,-15.155
38145600,-0.132,-1.039,1.851,-271.6,-127.995,-7.595
38145620,0.621,-1.287,1.689,-210.175,-101.132,5.285
38145620,0.665,-1.291,1.481,-126.892,34.055,16.1
38145640,1.068,-1.375,1.134,-14.087,154.787,16.712
38145640,-0.062,-0.897,0.833,104.107,210.332,4.602
38145660,0.526,-0.798,0.593,206.185,230.352,-3.885
38145660,0.567,-0.424,0.748,198.257,280.052,42.927
38145670,0.898,-0.265,0.29,261.73,263.585,42.91
38145680,0.974,0.128,-0.468,309.015,218.26,27.965
38145690,0.708,0.663,-0.865,284.217,155.697,2.257
38145700,0.563,0.888,-1.042,183.19,63.367,-33.6
38145710,0.43,0.828,-0.761,59.027,-28.315,-77.35
38145720,0.192,0.41,-0.337,-47.057,-72.887,-125.195
38145730,-0.291,-0.031,-0.005,-88.357,-61.915,-152.18
38145740,-0.937,-0.038,0.009,-52.15,-43.137,-169.207
38145750,-1.388,0.119,-0.168,-7.805,-46.042,-158.165
38145760,-1.243,0.061,-0.274,-6.755,-49.035,-103.635
38145770,-0.758,-0.165,-0.334,-19.04,-33.582,-29.277
38145780,-0.315,-0.181,-0.462,-3.01,-27.44,11.812
38145790,-0.94,-0.238,1.209,-42.28,-64.032,7.875
38145800,0.282,-1.998,0.183,-134.067,-339.867,-195.09
38145810,-0.783,0.731,1.022,484.155,95.497,-109.34
38145820,0.505,1.997,-0.978,538.44,30.275,4.882
38145830,1.946,0.498,0.874,205.695,29.19,9.572
38145840,-0.385,-1.911,1.998,208.88,8.365,-66.535
38145850,0.903,1.308,1.238,392.787,50.54,81.357
38145860,-0.242,1.297,1.579,253.365,93.03,104.685
38145870,-1.164,0.925,1.6,81.235,85.96,68.11
38145880,-1.227,0.932,1.08,41.772,25.427,37.415
38145890,-0.61,0.198,1.063,-46.532,-35.35,-11.9
38145900,0.028,-0.243,0.928,-59.482,-63.857,-35.332
38145910,0.382,-0.381,0.861,-40.11,-57.155,-24.552
38145920,0.339,-0.296,0.921,-16.152,-32.392,-1.907
38145930,0.076,-0.104,0.97,5.827,-10.01,16.572
38145940,-0.106,-0.003,1.026,12.162,0.875,23.537
38145950,-0.175,0.089,1.05,9.222,0.402,19.407
38145960,-0.11,0.105,1.064,-2.292,-3.605,11.497
38145970,0.013,0.142,1.099,-16.712,-5.057,6.79
38145980,0.06,0.238,1.155,-33.74,-1.33,7.822
38145990,0.089,0.237,1.212,-58.275,4.007,10.36
38146000,0.049,0.222,1.261,-89.022,9.52,12.477
38146010,-0.007,0.162,1.252,-123.06,13.265,16.065
38146010,-0.116,0.081,1.195,-162.732,16.52,16.572
38146030,-0.176,0.03,1.16,-196.49,15.47,18.235
38146030,-0.139,-0.032,1.126,-221.655,11.76,17.272
38146050,-0.164,-0.011,1.147,-242.742,15.907,16.047
38146050,-0.112,-0.058,1.154,-259.21,22.592,12.46
38146070,-0.052,-0.336,1.146,-274.312,37.24,7.262
38146070,-0.192,0.008,1.232,-269.71,56.542,8.855
38146080,0.225,-0.528,1.353,-243.635,69.125,-11.987
38146090,-0.087,-0.749,1.704,-251.702,71.75,-48.562
38146100,-0.155,-1.371,1.524,-214.165,69.177,-63.262
38146110,-0.17,-1.088,1.342,-121.362,83.965,-66.29
38146120,0.179,-1.428,1.299,-88.27,105.945,-61.215
38146130,0.713,-1.574,1.368,-57.837,126.192,-86.87
38146140,0.373,-0.595,0.91,54.635,126.682,-114.17
38146150,-0.232,0.766,-0.076,155.767,101.465,-115.85
38146160,-0.878,1.859,-0.588,154.472,25.952,-75.32
38146170,-0.619,1.965,-0.719,67.532,-65.275,-12.18
38146180,-0.036,1.448,-0.501,1.505,-104.947,54.687
38146190,0.141,0.926,-0.416,19.372,-86.905,86.152
38146200,-0.129,0.552,-0.698,73.78,-57.417,88.217
38146210,-0.312,0.239,-1.094,114.8,-51.975,77.105
38146220,-0.336,-0.159,-1.289,108.762,-63.805,58.432
38146230,-0.362,-0.604,-1.169,67.847,-69.825,39.97
38146240,-0.446,-1.042,-0.922,24.202,-68.267,20.807
38146250,-0.951,-1.385,0.783,-29.487,-80.045,-5.792
38146260,0.253,-1.998,0.27,-37.117,-316.767,-239.715
38146270,-1.139,1.123,0.737,528.517,64.487,-114.467
38146280,1.316,1.997,-1.074,559.09,-71.12,-8.435
38146290,1.997,-0.379,1.461,293.912,-47.425,48.702
38146300,0.575,-0.662,1.998,230.86,122.552,25.392
38146310,-1.179,1.944,1.007,386.382,204.96,110.25
38146320,-1.541,1.868,0.66,72.59,100.555,113.26
38146330,-1.026,0.087,1.486,-185.045,-30.327,51.1
38146330,-0.005,-0.454,1.095,-164.08,-87.115,-12.075
38146350,0.031,-0.432,0.868,-160.737,-80.955,-37.257
38146350,0.21,-0.758,0.831,-127.995,-60.287,-44.135
38146370,0.523,-0.616,0.718,-78.96,-29.715,-36.697
38146370,0.308,-0.563,0.702,-26.617,-0.822,-9.905
38146390,0.117,-0.377,0.884,13.335,15.96,5.285
38146390,0.056,-0.117,1.033,37.922,27.195,16.24
38146410,-0.049,0.141,1.131,34.265,33.827,20.632
38146410,-0.149,0.204,1.145,13.457,35.122,16.625
38146420,-0.095,0.184,1.235,-17.692,33.932,13.737
38146430,-0.085,0.25,1.313,-53.462,35.035,11.987
38146440,-0.116,0.241,1.289,-96.95,33.25,13.772
38146450,-0.314,0.258,1.222,-137.007,26.04,15.75
38146460,-0.432,0.214,1.138,-174.755,12.88,10.955
38146470,-0.339,0.08,1.07,-207.165,2.695,1.085
38146480,-0.259,-0.028,1.05,-223.51,4.567,-10.027
38146490,-0.211,-0.096,1.059,-225.05,10.062,-23.66
38146500,-0.15,-0.165,1.058,-220.692,17.78,-32.357
38146510,-0.003,-0.494,1.094,-207.777,31.622,-34.93
38146520,-0.192,-0.394,1.134,-172.13,49.35,-25.007
38146530,-0.135,-1.095,1.162,-111.842,43.505,-58.345
38146540,-0.177,-1.351,1.384,-74.935,63.402,-59.85
38146550,-1.124,-1.657,1.853,14.595,109.497,-51.047
38146560,-1.481,-1.678,0.882,172.795,114.257,-17.5
38146570,-0.621,-0.87,-0.424,319.777,109.41,88.007
38146580,-0.55,-0.446,-1.006,301.682,88.375,126.07
38146590,-0.521,-0.54,-0.96,200.69,37.082,103.722
38146600,-0.263,-0.932,-0.649,92.907,4.55,87.85
38146610,0.017,-1.184,-0.427,13.212,8.977,77.945
38146620,0.042,-0.932,-0.25,-35.752,20.772,38.955
38146630,-0.127,-0.723,0.026,-97.475,24.605,-12.932
38146640,-0.132,-0.82,0.161,-151.567,12.127,-53.76
38146650,0.052,-0.651,0.042,-150.727,8.102,-72.502
38146660,0.071,-0.089,-0.415,-125.912,11.007,-74.497
38146670,-0.615,1.814,1.476,-149.362,-33.337,-45.22
38146680,0.294,1.949,1.368,-49.892,-347.97,-32.48
38146690,1.489,0.819,1.346,448.052,-121.73,1.575
38146700,-1.646,-1.896,1.686,478.45,-48.212,-192.132
38146710,0.442,0.416,1.568,366.117,-85.26,-71.312
38146720,1.379,1.377,1.228,327.145,-36.435,96.355
38146730,0.381,0.767,1.998,163.292,13.037,69.002
38146740,-0.552,1.483,1.596,78.82,68.407,113.05
38146750,-0.771,1.133,1.213,-20.51,40.32,94.64
38146760,-0.701,0.217,1.09,-103.022,2.852,56.875
38146760,-0.728,-0.272,0.831,-109.217,-14.98,2.8
38146780,-0.478,-0.39,0.676,-102.83,-27.387,-36.102
38146780,-0.115,-0.462,0.739,-69.965,-41.037,-51.275
38146790,0.071,-0.494,0.833,-32.83,-36.662,-51.327
38146800,0.268,-0.337,0.91,-4.69,-32.235,-32.077
38146810,0.319,-0.211,0.983,14.752,-21.7,-3.57
38146820,0.115,-0.076,1.043,24.465,-7.49,19.792
38146830,-0.097,0.02,1.083,21.402,0.192,34.51
38146840,-0.244,0.132,1.097,10.027,2.31,36.172
38146850,-0.281,0.237,1.168,-9.1,1.522,27.142
38146860,-0.303,0.303,1.234,-39.34,-1.382,14.07
38146870,-0.284,0.284,1.257,-77.595,-7.14,3.045
38146880,-0.26,0.208,1.229,-121.1,-13.702,-2.432
38146890,-0.26,0.088,1.168,-160.912,-22.715,-3.045
38146900,-0.165,-0.042,1.081,-191.765,-31.587,1.067
38146910,-0.138,-0.119,1.029,-208.092,-34.545,5.512
38146920,-0.126,-0.111,1.066,-212.625,-36.505,9.415
38146930,-0.131,-0.095,1.096,-209.877,-39.952,15.19
38146940,-0.087,-0.579,1.252,-204.102,-32.847,22.54
38146950,-0.167,-0.389,1.378,-186.27,-11.847,38.29
38146960,0.131,-1.202,1.683,-125.755,-20.352,6.807
38146970,0.018,-1.729,1.998,-53.567,12.687,-7.087
38146980,-1.344,-1.905,1.567,135.187,75.11,-19.6
38146990,-0.338,-1.201,0.011,342.772,110.285,36.417
38147000,0.163,-0.707,-0.638,341.705,96.18,72.152
38147010,0.262,-0.868,-0.68,228.637,72.73,25.497
38147020,0.215,-1.242,-0.622,132.877,60.602,-21.98
38147030,0.002,-1.057,-0.575,86.467,42.752,-69.37
38147040,-0.156,-0.65,-0.442,34.965,32.445,-108.902
38147050,-0.352,-0.387,-0.242,-49.787,34.86,-140.192
38147060,-0.728,-0.383,0.02,-108.377,34.457,-156.03
38147070,-0.773,-0.284,0.03,-108.78,36.715,-140.332
38147080,-0.744,0.142,-0.13,-92.592,50.505,-104.405
38147080,-0.728,0.445,-0.265,-100.082,59.36,-68.53
38147100,-0.592,0.54,-0.395,-127.557,61.46,-21.647
38147100,-0.396,1.433,0.931,-158.637,39.567,35.682
38147120,-0.505,0.757,0.232,-208.757,-362.495,65.205
38147120,1.847,-1.549,1.83,424.532,-259.455,44.625
38147140,-1.002,-1.651,1.695,464.047,-70.42,-137.585
38147140,0.181,1.203,1.433,412.002,-82.18,-66.342
38147160,1.694,1.22,1.418,332.045,-26.302,91.297
38147160,0.242,1.146,1.971,172.375,71.645,73.972
38147170,-1.353,1.748,1.355,95.69,82.652,96.652
38147180,0.348,0.755,1.552,-73.955,-7.175,11.305
38147190,-0.051,0.598,1.372,-144.112,-15.312,-52.412
38147200,0.437,-0.369,0.839,-192.5,9.905,-14.035
38147210,-0.534,-0.929,0.519,-169.505,9.835,-31.797
38147220,-0.157,-1.003,0.475,-98.892,-1.61,-17.255
38147230,-0.102,-0.779,0.591,-34.615,-9.327,-19.057
38147240,0.013,-0.612,0.72,27.195,-13.405,-13.72
38147250,0.164,-0.32,0.891,65.957,-12.092,1.54
38147260,0.119,-0.007,1.107,84.262,-4.112,17.027
38147270,-0.002,0.242,1.224,68.425,5.32,26.495
38147280,-0.317,0.372,1.22,37.642,11.287,29.207
38147290,-0.309,0.458,1.255,-1.715,9.327,17.692
38147300,-0.237,0.391,1.319,-50.347,7.56,-3.517
38147310,-0.169,0.36,1.327,-101.885,4.9,-12.285
38147320,-0.167,0.278,1.262,-155.4,2.047,-8.785
38147330,-0.27,0.184,1.199,-204.207,-7.595,-2.8
38147340,-0.302,0.086,1.101,-240.082,-21.052,4.847
38147350,-0.28,-0.07,1.041,-262.972,-32.34,10.832
38147360,-0.197,-0.139,1.038,-274.82,-41.125,13.79
38147370,-0.083,-0.517,1.155,-277.217,-40.757,16.17
38147380,-0.341,0.313,1.191,-266.28,-29.155,30.555
38147390,-0.017,-0.429,1.413,-238.612,-39.847,15.855
38147400,-0.159,-1.144,1.724,-253.12,-53.392,19.407
38147410,0.08,-1.516,1.867,-175.77,-56.122,6.265
38147420,-0.306,-1.251,1.968,-27.3,29.557,9.152
38147430,-1.35,-0.771,1.456,145.04,98.945,45.552
38147440,-0.191,-0.412,-0.023,287.56,107.275,118.685
38147450,0.339,-0.17,-0.613,283.99,137.217,181.895
38147460,0.485,-0.012,-0.896,222.127,126.892,150.307
38147470,0.621,-0.048,-0.924,171.08,105.56,98.14
38147480,0.608,0.037,-0.596,81.69,84.14,40.81
38147480,0.724,-0.135,-0.145,-33.635,51.415,-30.065
38147500,0.645,-0.355,0.188,-96.547,25.62,-102.042
38147500,0.267,-0.398,0.315,-83.58,14.98,-183.592
38147510,-0.293,-0.424,0.267,-41.002,9.817,-236.897
38147520,-0.704,-0.406,0.012,-8.155,-4.812,-253.435
38147530,-0.905,-0.397,-0.346,24.255,-23.467,-246.067
38147540,-1.161,-0.277,-0.616,41.282,-54.845,-222.25
38147550,-1.054,-0.066,-0.754,26.757,-90.702,-176.96
38147560,-1.6,0.176,1.859,-76.667,-166.145,-101.657
38147570,1.449,-1.998,-0.162,71.085,-229.775,-131.145
38147580,-0.497,0.215,0.262,552.405,86.52,-79.292
38147590,0.094,1.997,0.218,526.277,-33.04,-96.302
38147600,1.902,0.098,1.428,352.87,-22.242,65.572
38147610,0.936,0.179,1.998,359.327,83.282,90.405
38147620,-1.213,1.925,1.308,273.437,173.215,87.972
38147630,-1.783,1.933,0.668,78.802,93.292,83.3
38147640,-1.072,0.461,1.183,-106.137,-36.33,18.917
38147650,0.211,-0.254,1.097,-119.577,-80.85,-27.93
38147660,0.293,-0.591,0.892,-99.242,-61.53,-33.705
38147670,0.363,-0.694,0.832,-56.245,-36.33,-12.162
38147680,0.24,-0.511,0.866,-12.372,-13.772,7.42
38147690,0.189,-0.346,0.911,20.335,5.25,28.245
38147700,-0.111,-0.036,1.022,42.7,18.462,37.222
38147710,-0.11,0.247,1.083,42.875,21.437,31.027
38147720,-0.233,0.312,1.082,20.79,20.475,22.085
38147730,-0.085,0.355,1.123,-3.92,13.702,15.207
38147740,0.023,0.264,1.199,-33.95,10.15,13.352
38147750,0.115,0.329,1.336,-62.51,12.512,18.025
38147760,0.189,0.36,1.364,-96.757,20.16,23.87
38147770,-0.009,0.216,1.331,-147.105,28.35,38.92
38147780,-0.213,0.013,1.251,-204.47,27.125,48.86
38147790,-0.201,0.127,1.162,-246.785,22.33,73.185
38147800,-0.139,0.257,1.11,-267.715,14.945,86.152
38147810,-0.265,0.037,1.152,-289.765,-1.54,80.832
38147820,-0.041,-0.385,1.406,-329.052,0.542,85.207
38147830,-0.151,-0.916,1.605,-341.162,23.747,94.412
38147830,-0.272,-1.578,1.927,-290.727,-11.847,69.982
38147850,-0.401,-1.666,1.987,-175.997,-32.41,59.027
38147850,0.302,-1.9,1.497,61.722,-7.192,73.43
38147870,0.36,-0.798,-0.093,280.857,61.635,110.862
38147870,-0.042,-0.042,-0.513,265.825,76.912,102.147
38147890,-0.097,-0.229,-0.88,152.967,19.46,59.972
38147890,0.106,-0.29,-0.88,101.412,-43.155,43.767
38147910,0.08,-0.106,-0.586,35.332,-72.187,27.212
38147910,0.198,-0.095,-0.054,-82.477,-82.53,-12.32
38147920,0.211,-0.524,0.348,-148.26,-73.08,-47.722
38147930,0.083,-0.57,0.338,-91.875,-47.705,-71.855
38147940,-0.238,-0.04,0.075,-23.432,-32.375,-82.827
38147950,-0.407,0.212,-0.104,-28.56,-37.485,-80.29
38147960,-0.33,0.137,-0.163,-66.727,-48.947,-63.297
38147970,-0.188,0.28,-0.229,-85.05,-51.677,-40.565
38147980,-0.221,0.592,-0.331,-82.32,-54.652,-25.042
38147990,-0.249,0.852,-0.479,-85.837,-67.69,-13.09
38148000,-0.156,1.049,-0.665,-102.637,-83.632,4.725
38148010,-0.58,0.441,1.785,-216.79,-35.332,5.355
38148020,0.704,-1.998,-0.654,52.85,30.467,-97.09
38148030,-1.374,0.736,0.44,564.27,100.17,-15.767
38148040,0.937,1.997,-0.428,491.96,-30.135,-2.467
38148050,1.783,0.205,1.429,242.147,38.517,98.367
38148060,-0.495,-0.561,1.998,322.42,27.93,59.675
38148070,-0.233,1.893,1.771,322.945,87.482,132.72
38148080,-1.649,1.973,1.216,112.63,66.29,83.09
38148090,0.636,0.539,1.696,-91.14,-25.462,-0.175
38148100,-0.669,0.638,1.336,-141.785,-20.912,-73.167
38148110,0.411,-0.154,0.829,-198.572,-9.257,-40.547
38148120,-0.441,-0.89,0.655,-182.315,-7.035,-63.84
38148130,0.045,-0.755,0.598,-113.89,-9.467,-40.512
38148140,0.168,-0.689,0.697,-73.36,-8.61,-33.512
38148150,0.239,-0.604,0.755,-33.512,-4.252,-15.592
38148160,0.222,-0.34,0.923,5.827,1.68,8.33
38148170,0.115,-0.108,1.143,14.542,7.997,28.752
38148170,0.022,0.196,1.234,-3.552,19.407,40.722
38148190,-0.198,0.267,1.197,-33.057,21.945,47.355
38148190,-0.149,0.22,1.273,-75.6,15.347,50.592
38148210,-0.233,0.287,1.309,-115.867,16.222,47.512
38148210,-0.293,0.209,1.251,-157.15,16.24,36.172
38148230,-0.248,0.137,1.187,-200.077,18.742,27.37
38148230,-0.224,0.005,1.112,-223.457,20.947,20.51
38148250,-0.199,-0.312,1.095,-239.015,16.432,12.197
38148250,-0.28,-0.087,1.252,-238.21,15.995,18.27
38148260,-0.102,-0.323,1.352,-212.8,19.197,21.7
38148270,-0.25,-0.779,1.677,-208.407,1.102,3.237
38148280,-0.001,-1.289,1.568,-174.562,-20.387,-8.977
38148290,-0.104,-1.175,1.585,-70.105,4.165,-20.667
38148300,-0.08,-1.174,1.49,32.147,44.59,-36.155
38148310,-0.158,-1.153,0.58,153.51,48.842,-38.482
38148320,0.201,-0.523,-0.297,246.242,71.067,-35
38148330,-0.086,-0.146,-0.683,223.58,82.355,-32.742
38148340,-0.215,-0.153,-0.694,141.96,56.472,-54.162
38148350,-0.03,-0.352,-0.524,69.23,20.352,-63.875
38148360,0.243,-0.405,-0.362,15.592,7.35,-68.81
38148370,0.359,-0.323,-0.373,-16.1,3.535,-91.297
38148380,0.203,-0.221,-0.52,-28.122,-5.967,-123.742
38148390,0.003,-0.058,-0.653,-34.51,-20.055,-137.882
38148400,-0.193,0.082,-0.676,-68.302,-43.172,-131.372
38148410,-0.225,0.031,-0.619,-118.965,-71.19,-112.385
38148420,0.097,0.331,-0.713,-146.09,-84.7,-83.09
38148430,-1.496,1.025,1.998,-274.172,-107.73,-36.452
38148440,-0.051,-1.998,-0.294,-55.457,-285.67,-46.865
38148450,1.216,-0.41,0.371,546.105,78.767,65.502
38148460,-0.278,1.997,-0.332,526.855,25.725,3.99
38148470,0.541,0.475,1.28,359.31,13.422,-14.507
38148480,0.092,-0.817,1.978,320.145,19.67,62.965
38148490,0.072,1.346,1.677,370.02,23.502,85.96
38148500,-0.468,1.555,1.753,221.637,52.902,93.03
38148510,-1.019,1.315,1.519,50.54,46.305,53.375
38148520,-0.711,0.784,1.24,-31.185,2.432,6.737
38148530,-0.479,0.076,0.975,-99.4,-25.445,-33.302
38148540,-0.102,-0.414,0.82,-93.73,-44.905,-46.882
38148550,0.05,-0.381,0.886,-63.787,-48.597,-46.042
38148560,0.192,-0.193,1.019,-44.73,-38.465,-32.025
38148570,0.249,-0.042,1.055,-43.05,-26.512,-12.425
38148580,0.135,0.022,1.066,-49.455,-13.142,7.857
38148580,-0.067,-0.035,1.076,-59.22,-8.4,20.16
38148600,-0.092,-0.044,1.092,-73.01,-10.307,26.337
38148600,-0.05,0.021,1.122,-90.825,-13.72,30.52
38148620,-0.054,0.107,1.159,-113.645,-19.582,37.292
38148620,-0.073,0.117,1.165,-138.95,-30.66,45.78
38148640,-0.057,0.055,1.151,-164.342,-47.425,58.467
38148640,0.023,-0.063,1.155,-186.06,-60.322,77.595
38148660,-0.029,-0.391,1.133,-194.495,-62.825,100.1
38148660,0.295,-0.673,1.453,-199.657,-39.847,132.09
38148670,-0.462,-1.159,1.569,-188.475,-30.415,153.842
38148680,-1.54,-1.229,1.998,-97.825,-123.952,133.56
38148690,-0.096,-1.995,1.441,65.222,-121.765,173.197
38148700,0.278,-1.258,0.185,234.132,28.227,257.18
38148710,-0.159,-0.275,-0.474,289.03,78.417,206.675
38148720,-0.256,-0.369,-0.456,202.055,76.09,166.582
38148730,0.367,-0.835,-0.369,90.86,77.892,146.912
38148740,0.414,-0.706,-0.506,61.267,67.34,110.512
38148750,0.308,-0.306,-0.63,44.415,46.427,60.025
38148760,0.387,-0.14,-0.467,-46.847,29.96,22.47
38148770,0.42,-0.424,-0.241,-146.387,10.937,-21.752
38148780,0.378,-0.474,-0.138,-165.55,-3.15,-74.655
38148790,0.251,-0.139,-0.038,-160.912,1.05,-117.075
38148800,0.92,0.845,0.404,-185.832,14.192,-151.48
38148810,-1.846,1.358,1.163,-234.692,-10.78,-120.242
38148820,1.174,-1.155,0.068,393.277,-54.005,-66.062
38148830,1.636,-1.212,1.347,332.097,-5.967,-8.977
38148840,-1.392,-0.565,1.505,233.975,-5.022,-113.75
38148850,0.417,1.142,1.033,331.292,-35.385,-31.43
38148860,0.879,0.278,1.341,223.09,-35.857,11.917
38148870,0.284,0.432,1.583,129.115,6.335,31.36
38148880,-0.121,0.726,1.338,114.712,40.337,57.19
38148890,-0.605,0.75,1.277,31.377,37.607,47.162
38148900,-0.561,0.539,1.213,-20.825,12.512,23.905
38148910,-0.47,0.239,1.088,-58.485,-8.207,-10.727
38148920,-0.237,-0.122,1.041,-78.837,-20.51,-34.982
38148920,-0.066,-0.086,1.006,-77.42,-22.732,-46.935
38148940,0.062,-0.102,1.024,-75.005,-14,-46.165
38148940,0.144,-0.034,1.083,-80.587,-6.632,-32.935
38148960,0.048,0.064,1.099,-91.227,0.84,-16.327
38148960,-0.07,0.047,1.08,-111.895,3.937,-5.88
38148980,-0.095,-0.027,1.081,-131.355,0.647,-0.7
38148980,-0.144,-0.06,1.063,-144.515,-4.83,1.33
38149000,-0.104,-0.091,1.048,-156.397,-10.01,5.425
38149000,-0.08,-0.15,1.029,-167.842,-12.845,8.12
38149010,-0.033,-0.186,1.012,-175.577,-13.93,9.205
38149020,0.008,-0.195,1.031,-179.567,-12.285,10.85
38149030,0.046,-0.361,1.004,-181.142,-5.39,12.372
38149040,-0.028,-0.203,1.192,-172.742,11.812,17.762
38149050,0.197,-0.556,1.082,-133.49,20.93,23.922
38149060,0.331,-0.781,1.078,-133.21,58.38,20.615
38149070,0.188,-0.94,1.404,-108.727,98.385,12.407
38149080,-0.21,-1.37,1.644,-36.872,94.132,-26.862
38149090,-0.423,-1.662,1.461,75.372,75.565,-69.405
38149100,-0.003,-1.296,0.152,224.875,59.132,-75.67
38149110,0.078,-0.355,-0.915,305.217,60.13,-65.065
38149120,-0.518,0.228,-1.263,241.01,47.215,-82.652
38149130,-0.687,0.148,-1.075,93.222,0.437,-92.207
38149140,-0.348,-0.215,-0.753,-41.545,-31.552,-67.97
38149150,-0.004,-0.356,-0.43,-91.42,-31.43,-47.67
38149160,-0.069,-0.151,-0.191,-83.44,-22.12,-53.112
38149170,0.073,0.325,-0.096,-77.525,-15.557,-45.972
38149180,-1.286,1.521,1.998,-169.715,-79.572,4.987
38149190,0.961,-1.927,0.47,90.912,-216.055,-10.605
38149200,0.195,-1.011,0.885,450.642,29.015,12.162
38149210,-0.661,-0.099,0.858,364.7,-14.735,-58.8
38149220,0.191,0.167,1.098,321.247,-30.45,-0.542
38149230,0.591,0.436,1.316,326.497,-37.607,46.515
38149240,0.499,0.622,1.695,254.31,-1.382,49.052
38149250,0.019,1.015,1.646,177.362,52.535,58.362
38149260,-0.717,1.34,1.265,95.165,54.967,49.245
38149270,-0.794,0.886,1.175,-4.655,18.445,32.69
38149280,-0.598,0.242,1.101,-66.727,-20.23,0.945
38149290,-0.303,-0.135,0.992,-83.457,-42.84,-28.227
38149300,-0.017,-0.172,1.026,-79.8,-51.327,-43.102
38149310,0.325,-0.046,1.095,-73.92,-43.155,-36.907
38149320,0.286,0.108,1.152,-82.32,-18.235,-22.312
38149330,0.151,0.154,1.171,-102.812,2.24,-3.08
38149330,-0.07,0.075,1.113,-127.977,11.077,9.607
38149350,-0.171,-0.059,1.098,-152.6,2.642,16.765
38149350,-0.103,-0.038,1.092,-175.087,-6.912,24.587
38149370,-0.058,-0.026,1.061,-190.522,-14.997,31.045
38149370,0.024,-0.073,1.082,-206.167,-18.777,35.77
38149390,-0.022,-0.04,1.179,-219.187,-16.677,40.985
38149390,-0.09,-0.074,1.248,-230.51,-17.71,43.102
38149410,0.106,-0.464,1.318,-244.755,-1.575,54.967
38149410,0.266,-0.841,1.549,-242.515,27.72,75.565
38149420,-0.031,-1.148,1.388,-161.367,16.712,71.4
38149430,-0.333,-1.994,1.739,-65.012,-8.89,27.562
38149440,-0.612,-1.688,1.36,16.17,3.692,16.677
38149450,-0.372,-0.821,-0.045,192.167,-2.852,40.442
38149460,-0.03,-0.048,-0.271,203.63,8.89,43.137
38149470,-0.251,0.119,-0.284,92.942,-6.79,15.365
38149480,-0.145,0.237,-0.264,48.702,-36.837,-5.425
38149490,0.107,0.73,-0.277,28.98,-50.19,-4.042
38149500,0.175,1.018,-0.494,-7.35,-59.08,-14.542
38149510,0.218,1.245,-0.653,-33.232,-64.505,-30.275
38149520,-0.183,1.389,-0.623,-61.775,-76.825,-35.787
38149530,-0.398,1.44,-0.552,-95.06,-132.72,-41.037
38149540,-0.27,1.325,-0.463,-110.967,-182.49,-26.215
38149550,-0.556,1.253,1.055,-138.74,-207.76,-21.84
38149560,1.797,-1.995,0.389,-160.947,159.39,-149.695
38149570,-1.962,0.118,0.905,428.295,240.31,-257.18
38149580,0.882,1.997,-1.547,562.975,47.687,-44.117
38149590,0.881,-0.633,1.298,295.085,102.69,132.615
38149600,-0.442,-1.221,1.998,241.377,86.572,16.52
38149610,-0.053,1.862,1.707,428.382,156.38,155.505
38149620,-1.637,1.995,1.245,232.347,137.34,69.895
38149630,-1.285,1.547,1.078,38.15,46.357,28.98
38149640,-0.403,0.874,1.2,-50.19,-34.755,-13.072
38149650,-0.175,0.4,1.419,-135.747,-50.54,-39.042
38149660,0.216,0.116,1.422,-162.435,-35.035,-41.16
38149670,0.21,0.109,1.364,-201.057,-5.897,-34.37
38149670,-0.174,0.076,1.112,-235.27,7.315,-17.062
38149690,-0.142,0.064,1.047,-257.11,-3.85,2.66
38149690,-0.026,-0.062,1.02,-267.715,-6.055,16.905
38149710,0.028,-0.09,1.108,-275.695,1.575,22.837
38149710,0.072,-0.074,1.083,-277.585,22.365,29.277
38149730,0.242,-0.362,1.277,-286.177,49.035,40.18
38149730,-0.011,-0.856,1.741,-281.26,59.027,42.157
38149750,0.109,-1.331,1.791,-214.235,51.87,32.41
38149750,-0.217,-0.915,1.363,-108.64,94.605,45.71
38149760,0.477,-0.877,1.026,16.012,108.885,71.26
38149770,-0.452,-0.596,0.967,34.177,87.5,56.192
38149780,-0.242,-0.705,0.9,106.925,64.855,32.462
38149790,1.254,-0.697,0.284,156.66,111.58,125.912
38149800,0.773,0.122,-0.71,201.967,83.545,58.817
38149810,0.151,0.696,-1.143,195.23,-1.26,-54.845
38149820,-0.044,0.988,-1.162,88.007,-90.825,-106.907
38149830,0.128,0.932,-0.873,-22.522,-147.822,-134.102
38149840,-0.124,0.692,-0.449,-85.155,-152.635,-167.195
38149850,-0.625,0.574,-0.466,-59.745,-125.86,-181.86
38149860,-0.946,0.878,-0.773,0.892,-94.885,-158.27
38149870,-1.067,1.123,-1.087,4.34,-85.977,-111.055
38149880,-1.177,0.719,0.458,-65.24,-68.302,-50.102
38149890,0.33,-1.998,0.215,-180.932,-163.415,-194.407
38149900,-1.366,0.784,0.617,472.22,137.235,-140.14
38149910,1.332,1.997,-1.132,549.202,-55.265,-75.32
38149920,1.269,-0.597,1.5,178.64,-7.455,41.23
38149930,0.421,-0.572,1.971,131.967,65.222,22.522
38149940,0.061,1.997,1.251,397.197,147.455,106.645
38149950,-1.678,1.826,1.033,128.362,129.902,63.245
38149960,-1.239,0.97,1.16,-19.162,38.867,31.64
38149970,-0.531,0.819,1.126,-56.402,-31.972,3.272
38149980,-0.458,0.321,1.334,-137.952,-58.817,-18.917
38149990,0.026,0.032,1.365,-163.257,-68.547,-32.497
38150000,0.075,0.078,1.227,-188.37,-54.232,-38.062
38150010,0.126,-0.074,1.194,-216.965,-35.822,-43.785
38150020,0.273,-0.027,1.078,-237.3,-13.597,-35.735
38150030,0.412,-0.08,1.032,-247.31,-7.612,-21.542
38150040,0.227,-0.23,1.128,-267.732,-9.38,6.702
38150050,0.183,-0.302,1.233,-290.71,-22.61,45.132
38150060,0.245,-0.531,1.457,-307.86,-9.17,93.887
38150070,0.069,-1.002,1.457,-306.442,18.34,125.737
38150080,-0.035,-1.035,1.285,-227.85,14.997,117.215
38150080,-0.348,-1.1,0.753,-129.955,23.817,89.617
38150100,-0.69,-0.669,1.108,-68.075,57.557,73.92
38150100,-0.944,-0.15,1.118,-26.985,71.347,67.322
38150120,-0.079,0.423,1.143,-2.485,88.112,105.42
38150120,0.689,1.013,0.833,44.117,91.665,127.102
38150140,0.385,1.912,0.266,111.562,63.017,86.415
38150140,0.379,1.997,-0.21,147.752,33.775,61.302
38150160,0.483,1.997,-0.947,166.442,7.682,63.98
38150160,0.587,1.997,-1.672,209.755,-22.575,54.18
38150170,0.331,1.835,-1.281,155.207,-39.655,17.692
38150180,0.104,0.537,-0.671,25.095,-53.952,-23.87
38150190,0.018,-0.703,0.633,20.737,-39.637,-33.337
38150200,-1.097,-1.785,0.27,9.292,-225.732,-148.89
38150210,-0.5,-1.239,1.659,370.895,-174.247,-358.75
38150220,0.321,1.997,-1.084,569.327,-38.22,-53.917
38150230,1.875,1.149,0.505,390.757,-91.717,19.985
38150240,0.258,-1.616,1.998,84.455,-8.032,-57.942
38150250,0.676,1.749,1.212,275.887,127.662,76.37
38150260,-1.585,1.901,0.768,150.29,134.225,66.797
38150270,-1.219,0.934,1.142,-39.602,44.957,25.305
38150280,-0.484,0.617,1.19,-60.742,-24.622,3.745
38150290,-0.401,0.424,1.449,-131.915,-46.252,-18.252
38150300,0.151,0.056,1.501,-168.297,-48.79,-35.525
38150310,0.194,0.177,1.347,-211.05,-23.222,-44.1
38150320,0.06,0.004,1.164,-250.617,5.985,-36.382
38150330,0.163,-0.004,1.058,-272.457,10.622,-25.97
38150340,0.387,-0.14,1.078,-280.962,17.5,3.85
38150350,0.144,-0.223,1.13,-290.587,19.005,36.207
38150360,-0.008,-0.298,1.215,-294.455,17.465,67.235
38150370,-0.159,-0.678,1.479,-293.545,9.257,87.99
38150380,-0.143,-1.144,1.351,-244.265,-13.492,85.242
38150390,0.007,-0.708,0.978,-153.51,-15.785,88.97
38150400,-0.131,-0.233,1.279,-96.81,24.902,102.042
38150410,-0.388,0.175,1.618,-11.235,30.45,84.017
38150420,-0.075,0.355,0.685,134.872,42.192,107.205
38150420,-0.113,1.139,-0.447,230.947,30.747,136.167
38150440,0.086,1.198,-1.274,207.795,-13.16,134.82
38150440,0.109,0.936,-1.025,91.997,-39.357,125.93
38150460,0.18,0.389,-0.387,-26.687,-68.18,98
38150460,0.142,0.051,-0.458,-26.687,-86.712,48.982
38150480,-0.376,0.389,-0.728,20.317,-68.442,9.642
38150480,-0.919,0.463,-0.77,-6.807,-67.97,-29.207
38150500,-1.236,-0.126,0.873,-81.76,-102.305,-40.092
38150500,0.215,-1.998,0.359,-117.32,-202.335,-159.932
38150510,-1.337,0.072,1.232,430.85,50.697,-207.48
38150520,0.864,1.997,-0.956,552.667,-54.81,-85.68
38150530,1.706,0.096,1.1,266.087,-33.425,54.127
38150540,-0.114,-1.452,1.997,144.795,16.152,-54.6
38150550,1.086,1.608,1.364,346.692,125.142,92.592
38150560,-1.354,1.68,1.224,171.132,140.262,61.162
38150570,-1.404,1.432,0.956,38.062,70.665,39.27
38150580,-0.661,0.863,1.109,-38.972,-17.255,-3.447
38150590,-0.415,0.449,1.328,-114.87,-55.16,-33.197
38150600,0.01,0.122,1.293,-154.577,-69.51,-44.817
38150610,0.318,-0.197,1.298,-180.845,-52.64,-49.577
38150620,0.229,0.069,1.195,-191.292,-17.517,-42.682
38150630,0.242,0.024,1.142,-217.087,11.13,-31.727
38150640,0.185,-0.067,1.131,-237.877,23.94,-14.385
38150650,0.123,-0.05,1.069,-244.247,25.917,14.07
38150660,-0.093,-0.041,1.043,-255.885,17.115,38.535
38150670,-0.132,-0.133,1.154,-271.39,1.89,60.742
38150680,0.022,-0.314,1.211,-276.465,-1.575,75.757
38150690,-0.208,-0.418,1.418,-260.505,9.66,76.265
38150700,-0.259,-0.549,1.142,-205.152,-2.292,68.425
38150710,-0.01,0.155,1.118,-96.285,-7.56,90.125
38150720,0.201,0.395,1.295,-11.917,-11.97,43.172
38150730,-0.904,1.883,1.19,68.075,-17.132,48.335
38150740,0.108,1.776,0.349,215.722,-4.06,102.97
38150750,0.134,1.306,-0.786,264.722,14.525,141.207
38150760,0.115,1.066,-1.382,266.262,-5.845,119.175
38150770,0.363,0.091,-0.867,151.672,-21.945,90.457
38150780,0.427,-1.059,-0.433,37.537,-28.402,19.652
38150790,-0.493,-1.348,-0.03,34.702,-32.672,-45.605
38150800,-1.821,-1.915,1.348,-12.547,-183.102,-117.53
38150810,0.757,-1.952,1.196,146.387,-197.225,-280.157
38150820,-0.322,1.41,0.217,478.397,8.032,-9.992
38150830,1.884,1.997,0.173,450.66,-61.827,-11.375
38150830,1.351,-1.141,1.813,199.272,-0.157,21.122
38150840,0.321,-0.166,1.829,181.947,112.297,11.515
38150850,-1.273,1.939,0.811,215.565,146.685,68.687
38150860,-1.212,1.63,0.87,25.06,57.697,51.065
38150870,-0.489,0.598,1.37,-84.49,-36.347,14.875
38150880,-0.128,0.503,1.699,-152.687,-53.55,-9.257
38150890,-0.118,0.467,1.661,-228.007,-40.197,-39.462
38150900,0.064,0.335,1.351,-291.235,-17.535,-54.705
38150910,-0.092,0.29,1.149,-357.612,-4.97,-50.347
38150920,-0.302,0.03,1.156,-386.225,-12.897,-41.195
38150930,0.009,-0.138,1.387,-397.582,-19.197,-34.177
38150940,0.48,-0.263,1.462,-380.38,9.397,-18.795
38150950,0.885,-0.676,1.662,-319.165,92.312,-17.027
38150960,-0.15,-0.768,1.845,-222.932,177.012,-50.225
38150970,-1.647,1.018,1.279,-46.515,166.635,-82.547
38150980,-0.507,1.075,1.075,130.865,42.595,-84.63
38150990,-0.397,1.032,0.267,125.632,-44.712,-16.975
38151000,0.674,1.048,-0.579,238.21,-23.87,28.875
38151010,0.245,1.31,-0.897,264.827,29.89,59.482
38151020,0.189,0.957,-0.735,220.045,34.44,47.425
38151030,0.273,0.191,-0.174,141.365,17.972,43.89
38151040,0.398,-0.461,0.036,84.192,-13.79,33.232
38151050,0.297,-0.774,-0.122,85.295,-32.095,17.307
38151060,-0.042,-0.66,-0.423,77.595,-47.53,3.64
38151070,-0.192,-0.613,-0.782,44.24,-65.537,0.367
38151080,-0.904,-0.307,0.485,-7.542,-99.365,3.272
38151090,-1.171,-1.713,0.812,-101.587,-363.947,-94.797
38151100,0.637,-1.073,1.37,346.185,-74.935,-145.022
38151110,-1.078,1.997,-0.707,564.462,52.377,1.837
38151120,1.996,0.888,1.541,365.102,42.472,31.71
38151130,-0.595,-0.358,1.896,124.04,134.47,-36.977
38151140,-1.479,1.991,0.39,155.487,128.922,48.212
38151150,-1.121,0.872,1.092,-17.692,15.54,44.012
38151160,-0.422,0.088,1.18,-75.425,-61.145,-0.122
38151170,0.255,-0.26,1.114,-87.745,-67.375,-17.045
38151170,0.061,-0.255,1.114,-97.825,-47.67,-29.435
38151190,0.266,-0.19,1.094,-84.927,-32.83,-21.455
38151190,0.287,0.105,1.11,-93.502,-10.71,-12.267
38151210,-0.154,0.048,1.1,-98.56,7.787,-3.517
38151210,-0.182,-0.035,1.124,-117.04,7.49,-5.04
38151230,-0.12,0.005,1.153,-133.927,-3.01,-0.682
38151230,-0.053,-0.061,1.176,-155.925,-7.56,8.347
38151250,0.149,-0.558,1.169,-181.965,-1.522,22.085
38151250,0.338,-1.013,1.151,-181.44,26.337,53.532
38151260,0.315,-1.292,1.36,-147.77,59.955,66.657
38151270,-0.44,-1.876,1.857,-109.917,52.185,47.057
38151280,-0.652,-1.998,1.37,-5.74,-18.182,-5.425
38151290,0.754,-1.998,0.263,135.94,-27.212,-39.497
38151300,-0.283,-1.479,-0.021,125.422,-0.997,-62.072
38151310,-0.238,-1.372,-0.038,41.685,-10.535,-113.435
38151320,-0.111,-0.969,-0.119,-70.595,-11.567,-111.457
38151330,0.053,-0.025,0.069,-146.142,-10.255,-104.212
38151340,-0.199,0.849,0.289,-237.93,-7.91,-89.285
38151350,-0.23,1.713,-0.118,-274.26,-15.54,-62.265
38151360,-0.262,1.997,-1.07,-181.3,-13.177,-28.42
38151370,-0.394,1.997,-1.662,-112.962,-1.942,4.812
38151380,-0.235,1.996,0.624,-139.51,6.055,19.302
38151390,-0.078,-1.866,0.194,42,-53.567,-97.72
38151400,-0.941,-0.319,0.773,556.587,38.045,-197.942
38151410,0.709,1.997,-0.264,554.627,-7.63,-9.012
38151420,1.088,-0.076,1.81,330.452,15.225,99.837
38151430,-0.556,0.898,1.821,237.002,100.415,36.68
38151440,-1.353,1.987,0.87,178.412,94.745,76.282
38151450,-1.174,1.045,1.353,-55.37,5.792,34.807
38151460,-0.427,0.32,1.236,-123.62,-53.007,-10.272
38151470,-0.13,-0.216,1.093,-162.47,-63.332,-47.355
38151480,0.173,-0.335,1.086,-155.487,-60.532,-61.477
38151490,0.562,-0.008,1.086,-150.15,-30.117,-53.865
38151500,0.283,-0.136,1.001,-155.19,6.125,-34.265
38151510,0.029,-0.204,1.002,-167.02,13.37,-7.945
38151510,-0.065,-0.15,1.02,-171.605,7.927,9.555
38151530,-0.038,-0.042,1.077,-182.122,-2.45,19.81
38151530,-0.062,-0.001,1.086,-197.015,-12.53,30.31
38151550,-0.014,-0.106,1.116,-220.255,-28.927,47.005
38151550,-0.072,-0.134,1.154,-250.687,-40.197,69.072
38151570,-0.149,-0.073,1.149,-273.455,-49.647,87.675
38151570,-0.447,-0.389,1.234,-293.107,-51.712,108.01
38151580,0.213,-0.654,1.437,-264.53,-52.92,105.91
38151590,-0.034,-1.156,1.6,-224.402,-60.585,52.797
38151600,-0.15,-1.208,1.402,-139.317,-39.567,34.37
38151610,-0.937,-0.846,1.663,-19.512,2.887,20.195
38151620,-1.751,-0.807,1.231,83.982,17.99,55.212
38151630,0.043,-0.759,0.624,200.147,80.71,139.492
38151640,0.398,-0.379,0.419,221.987,141.33,184.31
38151650,0.472,-0.234,-0.212,249.847,143.99,143.885
38151660,0.614,0.083,-0.673,270.742,137.41,111.282
38151670,0.688,0.225,-0.988,233.695,125.545,74.935
38151680,0.625,0.369,-0.946,131.442,71.487,-17.115
38151690,0.463,0.054,-0.537,-1.627,-3.15,-123.287
38151700,0.349,-0.379,-0.19,-99.942,-26.215,-168.122
38151710,-0.206,-0.31,-0.234,-98.77,-33.197,-213.395
38151720,-0.852,0.044,-0.518,-51.887,-53.375,-241.5
38151730,-1.08,0.363,-0.816,-42.77,-80.727,-230.09
38151740,-1.089,0.533,-0.776,-47.845,-98.892,-174.877
38151750,-1.192,-0.158,1.959,-160.947,-136.57,-120.225
38151760,1.774,-1.994,-0.591,123.637,-94.325,-210.367
38151770,-1.825,1.48,0.11,566.387,80.622,-129.115
38151780,1.718,1.973,0.073,449.312,17.185,26.005
38151790,1.157,-1.254,1.845,227.745,31.062,99.925
38151800,-0.33,0.064,1.905,317.187,87.605,89.53
38151810,-0.879,1.935,1.376,304.412,137.83,154.997
38151820,-1.754,1.612,1.176,101.797,77.84,63.455
38151830,-0.839,0.802,1.062,-15.96,-16.222,3.78
38151840,-0.212,0.075,1.052,-88.007,-64.19,-29.47
38151850,0.198,-0.265,0.984,-90.195,-69.93,-34.055
38151860,0.331,-0.24,1.016,-65.747,-50.085,-17.727
38151870,0.256,-0.085,1.027,-42.927,-24.08,0.542
38151880,0.106,-0.053,1.052,-34.492,-3.832,15.067
38151890,-0.082,0.09,1.085,-37.38,3.85,24.447
38151900,-0.121,0.15,1.138,-52.062,3.955,18.305
38151910,-0.099,0.167,1.213,-75.215,3.167,9.362
38151920,-0.033,0.23,1.25,-104.387,5.792,6.37
38151920,-0.002,0.193,1.256,-145.11,5.11,9.887
38151940,0.083,0.148,1.231,-191.607,1.907,19.372
38151940,0.032,0.124,1.165,-229.582,7.63,30.187
38151960,-0.074,0.012,1.103,-253.942,7.857,39.235
38151960,-0.118,-0.086,1.134,-274.645,7.997,48.177
38151980,-0.094,-0.137,1.115,-287.542,16.24,50.435
38151980,-0.135,-0.282,1.172,-294,29.837,45.237
38152000,-0.186,-0.558,1.464,-302.855,46.585,45.832
38152000,0.094,-1.017,1.572,-256.725,58.817,49.052
38152010,-0.177,-1.322,1.351,-146.632,17.622,13.037
38152020,-0.5,-0.83,0.991,-73.92,21.892,10.937
38152030,-0.445,-0.682,1.351,-28.455,28.052,37.012
38152040,-0.098,-0.501,0.879,27.58,19.092,71.47
38152050,0.433,0.261,0.221,124.337,30.625,100.94
38152060,0.47,0.953,-0.297,137.62,16.222,103.932
38152070,0.466,1.499,-0.58,115.22,-32.427,79.52
38152080,0.485,1.634,-0.345,59.465,-80.622,50.715
38152090,0.474,1.279,0.101,-16.835,-114.047,-1.907
38152100,-0.137,0.893,0.229,-19.407,-120.277,-45.85
38152110,-0.639,0.694,0.115,19.74,-106.172,-44.257
38152120,-0.959,0.283,0.032,34.562,-106.575,-32.865
38152130,-0.841,-0.257,-0.113,52.937,-103.145,-10.027
38152140,-0.837,-0.636,-0.298,88.025,-85.19,18.077
38152150,-1.468,-0.865,0.936,95.76,-82.11,48.807
38152160,1.134,-1.998,-0.017,31.132,-186.375,-147.245
38152170,-1.546,0.423,1.659,421.977,70.07,-209.947
38152180,0.324,1.997,-1.019,564.06,-17.185,-31.045
38152190,1.759,1.146,0.589,337.995,29.365,109.042
38152200,0.466,-1.827,1.994,198.712,33.04,-5.81
38152210,0.566,0.816,1.843,331.1,128.135,91.21
38152220,-0.982,1.734,1.421,243.985,145.215,77.962
38152230,-1.645,1.653,1.073,69.212,84.472,49.332
38152240,-0.947,0.693,1.046,-18.865,-14.77,8.05
38152250,-0.197,0.082,1.106,-77.367,-66.762,-27.177
38152260,0.343,-0.168,1.021,-78.715,-67.235,-39.025
38152260,0.335,-0.289,1.015,-68.302,-42.437,-30.24
38152280,0.341,-0.105,0.994,-50.872,-14.192,-11.725
38152280,0.156,-0.021,1.014,-40.845,11.357,3.027
38152300,-0.06,-0.037,1.065,-37.432,24.885,6.492
38152300,-0.052,0.024,1.1,-39.847,26.565,3.937
38152320,0.039,0.104,1.177,-51.257,34.37,-4.742
38152320,0.091,0.197,1.243,-74.585,48.335,-10.22
38152330,0.128,0.166,1.25,-107.957,68.355,-10.85
38152340,0.093,0.089,1.239,-143.955,78.33,-6.51
38152350,-0.002,0.076,1.189,-177.065,83.772,-0.385
38152360,0.007,-0.05,1.171,-199.78,84.997,9.8
38152370,-0.04,-0.128,1.184,-215.057,93.1,18.305
38152380,-0.101,-0.103,1.157,-218.837,97.335,21.21
38152390,-0.021,-0.072,1.233,-220.99,91.402,20.072
38152400,-0.256,-0.181,1.377,-233.292,89.88,17.22
38152410,-0.454,-0.931,1.623,-234.062,61.547,0.245
38152420,-0.299,-1.05,1.742,-194.512,23.432,16.17
38152430,-0.12,-1.567,1.827,-48.527,2.485,22.47
38152440,0.859,-1.316,1.059,38.867,-32.707,-10.552
38152450,0.81,-0.915,0.11,172.83,13.055,-6.317
38152460,-0.512,0.093,-0.563,189.315,7.157,-73.517
38152470,-0.809,0.162,-0.637,128.555,-55.457,-112.647
38152480,-0.51,-0.128,-0.625,60.497,-96.337,-98.98
38152490,-0.411,-0.072,-0.535,23.852,-105.122,-104.072
38152500,-0.525,0.009,-0.354,-19.022,-93.45,-126.647
38152510,-0.67,-0.012,-0.176,-60.182,-70.875,-126.63
38152520,-0.704,0.059,-0.223,-57.54,-59.517,-98.402
38152530,-0.762,0.26,-0.376,-22.032,-63.927,-52.587
38152540,-0.655,0.343,-0.658,3.377,-75.022,5.215
38152550,-0.397,0.352,-0.864,6.895,-70.752,76.685
38152560,-0.051,0.355,-0.914,-6.877,-38.465,149.8
38152570,-0.918,0.459,1.92,-150.01,-88.987,168.035
38152580,1.922,-1.998,-0.636,14.227,-145.442,-13.09
38152590,-1.666,0.575,0.337,563.482,121.695,-32.497
38152600,0.53,1.997,-0.162,531.475,5.302,68.425
38152610,1.335,-0.221,1.709,320.512,12.285,152.985
38152620,-0.389,0.027,1.934,269.342,73.482,52.955
38152630,-1.123,1.997,0.508,252.49,109.34,88.147
38152640,-1.129,1.286,1.095,-22.032,14.84,39.077
38152650,-0.471,0.002,1.224,-123.095,-50.715,-2.765
38152660,-0.042,-0.522,0.858,-116.34,-63.787,-27.475
38152670,0.077,-0.631,0.917,-97.457,-57.995,-35.857
38152670,0.373,-0.408,0.892,-53.987,-42.665,-25.217
38152690,0.495,-0.246,0.98,-21.822,-17.045,-6.037
38152690,0.103,-0.017,1.056,3.675,13.282,11.515
38152710,-0.057,0.049,1.053,4.13,25.305,12.372
38152710,-0.002,0.149,1.196,-3.85,29.312,13.65
38152730,-0.02,0.407,1.276,-22.242,37.257,9.345
38152730,0.04,0.345,1.308,-64.435,48.772,3.045
38152750,-0.011,0.23,1.308,-117.32,59.587,3.097
38152750,-0.059,0.114,1.258,-166.757,53.707,10.36
38152760,0.006,0.044,1.176,-213.902,51.327,23.397
38152770,-0.07,0.012,1.148,-237.002,53.567,38.955
38152780,-0.158,0.053,1.227,-248.342,48.002,49.017
38152790,-0.048,-0.123,1.313,-263.777,38.622,58.415
38152800,-0.09,-0.278,1.457,-286.177,54.932,64.207
38152810,-0.36,-0.999,1.794,-302.4,71.452,72.677
38152820,-0.662,-1.556,1.98,-249.655,-2.73,71.277
38152830,-0.37,-1.951,1.843,-124.512,-46.095,94.307
38152840,0.312,-1.782,0.954,82.18,-17.745,160.072
38152850,1.142,-0.647,-0.218,215.372,36.47,173.932
38152860,1.093,-0.571,0.089,126.752,43.767,128.59
38152870,0.909,-0.795,0.147,49.49,-23.1,15.312
38152880,0.926,-0.463,0.148,60.2,-65.38,-77.087
38152890,0.464,-0.263,0,55.405,-59.395,-122.01
38152900,0.147,0.022,-0.192,35.507,-56.192,-176.12
38152910,-0.106,0.099,-0.515,26.285,-64.382,-239.732
38152920,-0.645,0.364,-0.712,23.52,-62.51,-272.982
38152930,-0.981,0.577,-0.41,-9.17,-57.102,-283.5
38152940,-1.112,0.311,-0.048,-61.127,-34.335,-247.012
38152950,-1.095,0.349,-0.052,-44.485,-14.735,-188.895
38152960,-0.993,0.727,-0.267,26.687,-21.437,-144.69
38152970,-0.806,0.937,-0.46,49.227,-32.602,-108.097
38152980,-0.601,1.007,-0.595,24.22,-15.067,-53.217
38152990,-0.478,1.159,-0.759,8.435,4.987,-2.625
38153000,-0.953,1.565,1.299,-50.995,-17.57,22.942
38153010,0.097,-1.995,0.049,-47.232,-246.032,-114.852
38153010,-1.001,0.749,0.607,534.817,101.832,-105.7
38153030,-0.941,1.997,-0.8,545.125,-24.412,-56.455
38153030,1.893,-0.697,1.469,223.09,-29.68,54.985
38153050,-0.388,0.625,1.854,82.845,112.14,8.137
38153050,-1.062,1.997,0.768,217.14,113.382,78.68
38153070,-1.236,1.142,1.139,-69.3,42.77,79.555
38153070,-0.932,-0.66,1.153,-138.407,-28.857,16.8
38153080,-0.085,-0.674,0.712,-90.79,-62.265,-19.862
38153090,0.369,-0.764,0.831,-70.472,-64.295,-33.407
38153100,0.517,-0.342,0.865,-17.395,-42.63,-12.477
38153110,0.384,-0.204,0.919,15.732,-9.292,20.597
38153120,-0.137,-0.094,1.049,30.957,12.547,39.375
38153130,-0.349,0.155,1.075,32.795,11.357,33.88
38153140,-0.213,0.259,1.101,14,-2.765,20.44
38153150,-0.069,0.386,1.21,-10.43,-10.727,13.457
38153160,-0.108,0.445,1.266,-46.935,-13.947,11.182
38153170,0.19,0.534,1.407,-92.645,-15.225,16.152
38153180,0.056,0.497,1.465,-144.41,-8.435,22.417
38153190,-0.128,0.27,1.418,-215.267,-8.347,36.015
38153200,-0.309,0.178,1.31,-289.87,-34.23,63.245
38153210,-0.035,0.178,1.307,-348.722,-60.007,95.707
38153220,-0.467,0.296,1.319,-394.695,-63.577,116.865
38153230,-0.774,-0.244,1.871,-449.68,-90.842,119.087
38153240,-0.739,-1.694,1.972,-500.78,-158.532,126
38153250,-0.143,-1.951,1.998,-288.75,-230.475,147.647
38153260,-1.969,-1.208,1.998,55.3,-86.257,196.42
38153270,-1.558,-1.078,1.295,272.737,36.732,378.367
38153280,1.594,-1.712,-0.114,351.802,119.735,561.837
38153290,1.998,-1.262,0.07,297.657,174.615,492.555
38153300,1.847,-1.463,0.024,209.51,162.662,292.565
38153310,1.538,-1.257,-0.112,165.987,116.532,65.275
38153320,0.968,-1.06,-0.364,129.482,97.492,-77.927
38153330,0.385,-0.713,-0.431,80.727,93.905,-153.3
38153340,-0.219,-0.553,-0.445,44.03,63.542,-268.625
38153350,-0.808,-0.46,-0.309,3.22,36.26,-344.995
38153360,-1.17,-0.243,-0.147,-33.46,34.842,-359.31
38153370,-1.501,-0.042,0.007,-59.15,46.882,-330.085
38153380,-1.608,0.115,0.203,-71.347,45.482,-272.002
38153390,-1.19,0.101,0.39,-84.63,44.625,-186.2
38153400,-0.571,-0.017,0.433,-87.167,60.952,-95.27
38153410,-0.105,-0.151,0.355,-52.815,67.27,-53.83
38153420,0.119,-0.149,0.146,4.602,54.827,-61.18
38153420,-0.039,-0.083,-0.093,48.86,35.192,-62.562
38153440,-0.091,0,-0.259,50.172,24.972,-26.652
38153440,0.018,0.005,-0.431,12.145,26.127,31.535
38153460,0.345,0.194,-0.615,-41.352,43.207,103.11
38153460,0.671,0.616,-0.74,-87.115,56.017,142.502
38153480,0.903,1.126,-0.759,-136.972,59.885,154.892
38153480,1.015,1.186,-0.478,-181.055,31.482,136.517
38153500,1.046,1.379,-0.3,-192.815,-37.03,75.477
38153500,0.95,1.225,-0.124,-177.677,-106.767,1.662
38153510,0.799,0.854,-0.087,-123.515,-150.657,-56.21
38153520,1.193,-0.642,0.366,-66.167,-86.03,-101.57
38153530,-1.926,-1.998,1.655,-55.142,-78.977,-224.035
38153540,1.121,-0.635,-1.795,452.602,-67.742,-283.22
38153550,-1.213,1.997,-1.862,573.37,-130.742,-10.605
38153560,1.998,0.446,0.486,439.407,-169.4,96.267
38153570,-0.167,-1.864,1.998,1.54,-42.525,-15.89
38153580,0.395,1.829,1.603,396.182,122.78,74.865
38153590,-1.255,1.911,0.476,185.377,120.312,81.2
38153600,-0.578,0.252,1.76,-199.377,32.637,79.572
38153610,-0.635,-0.264,1.195,-171.36,-11.48,31.745
38153620,-0.213,-0.316,0.674,-153.72,-7.665,21.315
38153630,-0.538,-0.62,0.508,-155.627,-13.335,-5.267
38153640,-0.218,-0.661,0.565,-91.07,-34.02,-1.855
38153650,-0.044,-0.532,0.688,-39.935,-41.23,8.68
38153660,-0.086,-0.425,0.72,4.777,-45.202,12.39
38153670,0.01,-0.279,0.91,31.027,-47.215,18.252
38153680,0.211,-0.05,1.001,48.055,-38.255,28.717
38153690,0.165,-0.027,1.064,52.15,-21.962,34.597
38153700,0.008,0.16,1.15,49.822,-5.897,38.675
38153710,-0.223,0.289,1.153,38.412,1.277,38.29
38153720,-0.243,0.181,1.133,10.902,-1.312,25.602
38153730,-0.101,0.076,1.036,-6.755,-6.265,13.037
38153740,-0.045,-0.05,0.974,-13.685,-6.562,5.25
38153750,0.082,-0.173,0.948,-8.417,-4.847,1.75
38153760,-0.005,-0.042,0.983,0.787,3.08,4.445
38153760,-0.13,0.003,0.997,6.79,5.372,5.915
38153780,-0.153,-0.011,1.01,3.36,4.235,4.725
38153780,-0.121,0.032,1.017,1.452,1.312,4.165
38153800,-0.121,0.044,1.053,-5.932,0.507,2.835
38153800,-0.11,0.114,1.075,-14.385,-0.56,2.852
38153820,-0.121,0.174,1.186,-29.68,-0.805,6.405
38153820,-0.191,0.311,1.339,-57.435,-2.502,10.587
38153830,-0.296,0.401,1.506,-104.247,-9.117,17.92
38153840,-0.152,0.371,1.516,-169.802,-31.15,26.985
38153850,0.034,0.421,1.526,-249.812,-38.272,49.927
38153860,0.085,0.383,1.483,-331.24,-45.202,77.21
38153870,-0.039,-0.067,1.555,-411.635,-59.115,103.022
38153880,-0.244,-1.118,1.813,-502.635,-91.91,126.332
38153890,-1.368,-1.848,1.934,-564.707,-192.797,138.565
38153900,-1.205,-1.846,1.933,-477.47,-314.212,181.107
38153910,-0.982,-1.998,1.035,-196.612,-370.23,298.585
38153920,-0.551,-1.998,0.725,-42.297,-260.225,348.932
38153930,1.351,-1.2,0.355,32.322,-14.035,338.765
38153940,1.333,-0.438,0.107,108.535,133.192,240.782
38153950,0.939,0.065,0.489,48.335,172.865,108.867
38153960,1.023,0.268,0.928,-20.562,138.582,0.192
38153970,0.885,0.808,1.007,-26.302,118.457,-75.11
38153980,0.66,1.282,0.845,2.205,116.882,-92.732
38153990,0.518,1.727,0.643,40.67,115.272,-121.345
38154000,0.012,1.849,0.52,49.525,101.342,-139.37
38154010,-0.256,1.774,0.409,49.227,69.352,-126.892
38154020,-0.208,1.744,0.256,62.842,42.927,-82.757
38154030,-0.232,1.577,0.195,75.477,27.982,-44.59
38154040,-0.286,1.219,0.256,77.245,21.21,-12.74
38154050,-0.15,0.791,0.32,88.97,18.462,18.655
38154060,-0.04,0.395,0.314,113.487,12.95,42.805
38154070,0.023,0.061,0.161,128.205,-0.682,60.252
38154080,0.212,-0.291,-0.035,126.647,-20.16,69.93
38154090,0.344,-0.603,-0.224,110.88,-37.817,66.815
38154100,0.312,-0.794,-0.343,84.402,-53.672,44.432
38154110,0.154,-0.932,-0.364,47.915,-74.69,10.657
38154120,-0.083,-1.113,-0.356,8.697,-100.012,-23.222
38154130,-0.258,-1.189,-0.389,-17.797,-127.085,-55.002
38154140,-0.276,-1.235,-0.492,-37.852,-134.522,-84.997
38154150,-0.289,-1.288,-0.601,-61.985,-111.405,-115.167
38154160,-0.409,-1.24,-0.706,-80.832,-69.912,-142.45
38154170,-0.598,-1.115,-0.682,-102.042,-34.422,-159.6
38154170,-0.582,-0.994,-0.531,-131.495,-13.055,-157.832
38154190,0.411,-1.879,0.037,-156.712,18.392,-144.305
38154190,0.144,-1.998,1.998,-167.912,401.922,-100.66
38154200,-1.859,-1.998,0.421,329.717,162.627,-134.82
38154210,0.223,0.493,-0.576,573.247,-121.24,-260.662
38154220,1.725,1.997,-0.76,503.562,48.737,25.375
38154230,1.782,0.268,1.07,348.88,105.105,125.195
38154240,-0.334,-1.822,1.998,386.347,60.952,-58.345
38154250,0.243,1.628,1.822,446.722,190.627,119.122
38154260,-1.993,1.997,0.168,226.45,149.52,56.14
38154270,-0.61,0.578,1.657,-129.85,3.675,32.812
38154280,-0.588,-0.034,1.641,-203.717,-50.19,-40.495
38154290,-0.069,-0.235,0.388,-189.192,-53.62,-55.177
38154300,0.065,-1.02,0.483,-151.515,-48.51,-47.915
38154310,-0.033,-0.976,0.901,-80.657,-46.217,-51.432
38154320,0.501,-0.216,0.732,-23.275,-24.727,-12.53
38154330,0.063,-0.232,0.652,17.22,-12.425,20.527
38154340,-0.206,-0.604,0.727,50.592,-17.132,40.215
38154350,-0.231,-0.485,0.697,100.432,-21.262,57.872
38154360,-0.149,-0.309,0.929,134.75,-20.737,72.117
38154370,0.25,0.053,1.432,146.195,-5.145,75.53
38154380,0.322,0.797,1.372,124.687,24.115,52.64
38154390,-0.421,1.064,0.936,67.952,34.475,26.425
38154400,-0.389,0.173,1.01,8.172,11.865,14.42
38154410,-0.285,0.03,0.939,1.365,-9.695,-1.12
38154420,0.12,-0.163,1.007,0.665,-16.292,-8.977
38154430,0.205,0.077,1.022,14.49,-4.305,-9.187
38154440,0.03,0.109,0.994,21.157,11.392,-4.865
38154450,-0.155,0.037,1.003,21.77,17.92,-4.077
38154460,-0.245,0.255,0.957,25.007,16.065,-3.587
38154470,-0.141,0.172,0.961,16.152,6.562,-4.532
38154480,-0.053,0.147,0.984,8.522,2.292,-5.95
38154490,-0.02,0.148,0.975,6.107,4.182,-3.78
38154500,-0.138,0.174,0.964,1.54,6.212,-1.435
38154510,-0.083,0.159,0.994,-3.465,4.357,0.647
38154510,-0.22,0.262,0.98,-6.545,2.17,0.14
38154530,-0.109,0.23,1.03,-17.902,-4.97,-1.032
38154530,-0.028,0.216,1.108,-31.937,-4.97,-5.18
38154550,0.146,0.211,1.256,-51.555,4.83,-10.325
38154550,0.112,0.209,1.446,-82.46,29.627,-16.555
38154570,-0.242,0.175,1.505,-131.057,42.017,-12.915
38154570,0.107,0.284,1.393,-195.177,19.862,13.282
38154580,-0.153,0.473,1.242,-230.23,17.482,42.612
38154590,-0.23,0.155,1.123,-258.72,-12.687,54.88
38154600,0.002,-0.508,1.405,-306.827,-31.482,64.785
38154610,-0.303,-1.035,1.568,-332.99,-18.777,81.55
38154620,-0.802,-1.168,1.918,-310.03,-71.522,93.152
38154630,-0.257,-1.98,1.26,-255.237,-144.497,103.617
38154640,-0.042,-1.998,1.133,-164.517,-94.867,125.58
38154650,-0.426,-1.845,0.728,-15.837,8.172,122.15
38154660,0.002,-1.092,0.38,71.172,63.455,135.38
38154670,0.364,-0.679,-0.027,90.632,46.532,118.93
38154680,0.315,-0.4,-0.068,55.002,40.11,83.002
38154690,0.306,-0.32,-0.018,7.56,19.81,48.72
38154700,0.267,-0.112,-0.093,-24.517,-10.465,-0.332
38154710,0.323,0.039,-0.131,-65.905,-23.8,-48.93
38154720,0.244,-0.062,-0.103,-91.647,-32.305,-106.61
38154730,-0.162,-0.109,0.003,-106.05,-46.97,-170.835
38154740,-0.69,-0.137,0.141,-119.682,-76.02,-204.417
38154750,-0.918,-0.166,0.119,-120.435,-122.062,-225.907
38154760,-1.046,-0.061,-0.024,-100.45,-156.765,-230.912
38154770,-1.28,0.261,-0.16,-84.56,-166.162,-214.76
38154780,-1.554,0.76,-0.229,-92.295,-156.327,-179.672
38154790,-1.317,1.093,-0.391,-105.367,-108.255,-107.485
38154800,-1.093,1.177,-0.541,-92.68,-15.05,-5.04
38154810,-1.202,1.548,-0.653,-63.437,67.147,42.875
38154820,1.197,1.45,1.813,-148.977,192.15,62.93
38154830,1.453,-1.998,0.237,-105.577,166.18,-26.285
38154840,-1.015,-0.419,0.348,517.475,65.695,-435.942
38154850,-0.5,1.997,-0.45,466.585,104.247,-123.567
38154860,1.943,-0.221,1.292,290.78,117.547,197.277
38154870,-0.451,-0.06,1.991,242.182,95.165,116.095
38154880,-1.017,1.969,1.47,289.607,131.022,211.382
38154890,-1.815,1.091,1.566,62.982,83.65,149.485
38154890,-1.421,0.551,1.251,-32.13,13.807,41.44
38154910,-0.617,0.124,1.027,-75.582,-39.707,-35.28
38154910,0.275,-0.252,0.906,-87.937,-62.667,-63.857
38154920,0.452,-0.339,0.885,-61.285,-45.552,-54.6
38154930,0.475,-0.355,0.945,-43.487,-18.445,-26.285
38154940,0.24,-0.152,0.983,-27.895,2.66,2.17
38154950,-0.022,-0.077,1.038,-23.87,14.612,14.402
38154960,-0.097,-0.016,1.094,-28.612,17.36,13.597
38154970,-0.093,0.041,1.13,-39.217,19.897,6.475
38154980,-0.086,0.131,1.234,-61.95,21.77,1.89
38154990,-0.11,0.241,1.304,-95.62,21.49,2.572
38155000,-0.117,0.268,1.328,-142.205,15.277,4.742
38155010,-0.043,0.151,1.266,-195.702,8.47,8.662
38155020,-0.035,0.018,1.21,-239.82,7.455,13.212
38155030,-0.027,-0.07,1.185,-269.29,10.937,15.592
38155040,-0.048,-0.457,1.275,-286.51,17.745,16.082
38155050,-0.371,0.128,1.161,-291.532,27.317,32.375
38155060,0.061,-0.641,1.34,-261.117,13.702,5.95
38155070,-0.178,-0.718,1.439,-263.13,-3.64,-15.4
38155080,-0.322,-0.813,1.678,-241.78,-20.615,-18.445
38155090,-0.35,-1.155,1.563,-185.64,-65.66,-22.347
38155100,0.028,-0.898,0.833,-92.785,-99.312,-7.507
38155110,0.069,-1.22,0.724,-21.245,-60.76,21.77
38155120,-0.137,-1.26,0.964,21.052,-17.167,-0.647
38155130,-0.073,-1.133,0.283,133.857,-12.67,-8.225
38155140,0.154,-0.797,-0.094,216.982,30.17,4.305
38155150,-0.068,-0.564,-0.68,210.14,58.45,-7.962
38155160,-0.417,-0.183,-0.972,196.822,50.33,-28.49
38155170,-0.61,0.078,-0.948,139.842,20.037,-34.65
38155180,-0.333,-0.01,-0.54,29.522,0.385,-30.607
38155190,-0.071,-0.218,-0.025,-92.4,-0.28,-23.362
38155200,-0.01,-0.393,0.356,-140.822,8.767,-28.367
38155210,-0.129,-0.147,0.397,-85.925,12.39,-26.215
38155220,-0.212,0.389,0.051,-19.11,7.962,-0.805
38155230,-0.177,0.758,-0.316,-1.12,-5.46,27.947
38155240,-0.055,0.824,-0.475,-17.622,-18.655,45.5
38155250,-0.058,0.886,-0.423,-45.727,-27.125,48.247
38155260,-0.14,0.962,-0.474,-76.44,-36.82,30.73
38155260,0.467,0.196,1.904,-170.03,20.23,5.04
38155280,-1.67,-1.998,1.798,-181.895,-102.2,-112.91
38155280,0.066,-1.321,-1.78,446.582,-116.147,-215.302
38155300,-0.381,1.997,-1.427,561.26,-56.945,-179.007
38155300,1.96,1.066,0.133,366.817,5.092,-41.51
38155320,0.27,-0.581,1.998,214.812,127.61,-51.782
38155320,-0.201,0.442,1.858,493.517,48.002,-41.842
38155330,1.044,1.629,1.841,332.832,141.33,141.225
38155340,-1.871,1.198,1.811,162.82,163.73,92.487
38155350,-1.78,1.517,1.152,66.185,81.235,79.257
38155360,-1.279,0.534,1.103,-38.64,-21.42,3.22
38155370,-0.072,-0.181,0.978,-88.795,-76.545,-46.165
38155380,0.516,-0.558,0.867,-64.907,-76.772,-50.225
38155390,0.707,-0.36,0.947,-37.817,-41.912,-21.612
38155400,0.25,-0.02,0.983,-17.045,-0.332,12.617
38155410,-0.069,-0.089,1.039,-16.87,15.697,32.147
38155420,-0.203,0.127,1.061,-15.662,10.43,42.63
38155430,-0.241,0.104,1.085,-28.595,1.435,36.96
38155440,-0.137,0.081,1.137,-48.37,-4.305,25.27
38155450,-0.065,0.23,1.198,-67.69,-4.41,19.39
38155460,0,0.194,1.259,-98.787,-2.397,16.257
38155470,0.026,0.158,1.286,-133.857,-1.715,18.9
38155480,0.019,0.154,1.229,-171.22,-2.467,27.002
38155490,-0.031,0.067,1.136,-209.895,2.362,34.685
38155500,-0.161,-0.041,1.077,-233.38,6.737,36.47
38155510,-0.132,-0.174,1.068,-247.047,9.66,35.437
38155520,0.054,-0.167,1.108,-257.442,20.352,33.6
38155530,-0.023,-0.339,1.176,-258.72,40.355,29.697
38155540,0.012,-0.144,1.081,-227.902,57.697,24.762
38155550,0,-0.591,1.188,-208.495,55.737,-17.902
38155560,-0.208,-0.743,1.311,-210.332,67.322,-25.97
38155570,-0.113,-0.707,1.351,-163.887,67.165,-37.03
38155580,0.028,-0.756,1.23,-130.165,77.052,-38.202
38155580,-0.109,-0.671,1.101,-81.322,80.605,-34.912
38155600,-0.046,-0.842,1.045,-27.09,84.927,-26.565
38155600,-0.252,-1.001,0.944,45.762,93.327,-24.36
38155620,-0.827,-0.565,1.311,140.98,51.485,-18.235
38155620,-0.064,-0.371,-0.069,232.137,-28.297,13.142
38155640,0.322,-0.048,-0.472,257.285,-18.48,26.39
38155640,0.103,0.141,-0.748,206.482,-12.022,-2.642
38155660,-0.212,0.252,-0.893,159.04,-19.565,-35.542
38155660,-0.284,0.517,-0.779,94.85,-19.985,-44.607
38155670,-0.19,0.51,-0.584,13.125,-18.252,-44.642
38155680,-0.182,0.305,-0.413,-55.807,-20.93,-52.255
38155690,-0.337,0.143,-0.333,-69.037,-22.54,-47.582
38155700,-0.275,0.055,-0.406,-35.367,-27.685,-23.135
38155710,-0.066,-0.112,-0.517,-14.21,-32.427,7.385
38155720,0.014,-0.495,0.154,-11.182,-21.822,17.657
38155730,-1.767,-1.733,1.791,-202.212,-256.515,-56.84
38155740,1.721,-1.5,-0.454,273.647,-247.047,-213.692
38155750,-1.25,1.917,-0.543,572.915,91.21,47.46
38155760,1.618,1.997,-0.002,518.332,-30.73,-2.17
38155770,1.073,-1.016,1.858,317.852,-50.242,-2.292
38155780,1.355,0.435,1.978,328.16,67.795,47.74
38155790,-1.114,1.997,1.053,294.612,147.175,46.83
38155800,-1.914,1.523,0.826,33.915,74.042,54.477
38155810,-1.041,0.353,1.138,-89.757,-53.865,9.975
38155820,0.059,-0.124,1.059,-100.642,-100.38,-25.41
38155830,0.367,-0.479,1.067,-101.377,-88.48,-43.715
38155840,0.615,-0.357,0.971,-73.132,-59.867,-39.515
38155850,0.508,-0.151,0.935,-50.767,-21.315,-18.987
38155860,0.042,-0.129,1.034,-33.6,7.787,-2.712
38155870,-0.067,0.009,1.086,-30.065,16.992,-5.722
38155880,-0.094,0.136,1.166,-39.375,19.285,-15.347
38155890,0.02,0.275,1.243,-64.47,23.992,-21.682
38155900,0.026,0.246,1.286,-100.205,30.257,-20.16
38155910,-0.036,0.21,1.316,-146.3,30.817,-12.635
38155920,-0.074,0.113,1.262,-195.16,24.29,2.607
38155930,-0.183,0.079,1.177,-236.915,17.972,17.71
38155940,-0.29,0.082,1.116,-259.035,2.59,20.86
38155950,-0.232,0,1.147,-273.35,-7.84,17.062
38155960,-0.287,-0.15,1.286,-289.94,-5.652,11.707
38155970,-0.144,-0.861,1.463,-303.065,18.042,2.065
38155980,-0.252,-0.773,1.622,-268.432,40.25,14.63
38155990,-0.175,-1.803,1.259,-140.035,8.347,-47.372
38156000,-0.418,-1.995,1.051,-41.387,42.665,-84.49
38156010,-0.583,-1.455,0.535,43.785,73.22,-83.965
38156010,-0.594,-0.828,0.051,103.215,79.712,-61.932
38156030,-0.757,-0.496,0,93.835,64.33,-51.432
38156030,-0.704,-0.427,0.044,61.827,35.822,-28.542
38156050,-0.528,-0.314,-0.014,56.525,14.157,12.722
38156050,-0.386,-0.05,-0.127,46.742,8.347,49.735
38156070,-0.364,0.045,-0.335,11.952,9.52,84.49
38156070,-0.059,0.037,-0.61,-17.395,18.76,126.437
38156080,0.293,0.372,-0.749,-31.815,38.062,169.452
38156090,0.26,0.872,-0.808,-61.092,40.407,189.84
38156100,0.388,1.125,-0.692,-101.815,6.65,186.06
38156110,0.74,1.135,-0.537,-140.052,-29.75,178.08
38156120,0.95,1.058,-0.583,-133.42,-37.047,163.117
38156130,1.669,0.319,1.334,-182.91,-5.81,103.967
38156140,-1.16,-1.998,1.198,-201.18,-332.5,-167.09
38156150,0.241,-0.294,0.308,473.812,-17.115,-261.712
38156160,-0.164,1.997,-1.668,570.937,-72.327,6.51
38156170,1.949,0.526,1.066,366.765,-32.637,34.72
38156180,-1.076,-1.856,1.998,238.525,-44.135,-78.12
38156190,1.479,1.633,1.545,435.172,-6.982,104.562
38156200,-0.646,1.679,1.807,223.457,69.457,111.247
38156210,-1.346,1.425,1.538,6.825,53.515,66.5
38156220,-1.032,0.856,1.17,-67.847,-11.235,25.865
38156230,-0.544,-0.16,1.085,-151.97,-46.392,-37.38
38156240,0.139,-0.332,0.906,-139.79,-52.482,-70.245
38156250,0.211,-0.31,0.902,-117.67,-27.755,-76.422
38156260,0.409,-0.454,0.944,-100.765,-7.42,-66.552
38156270,0.507,-0.333,0.908,-78.767,10.237,-39.882
38156280,0.37,-0.282,1,-63.49,27.632,-14.192
38156290,0.266,-0.184,1.111,-56.665,42.56,2.94
38156300,0.113,-0.031,1.223,-63.7,56.822,12.232
38156310,-0.013,0.146,1.293,-88.182,70.857,18.777
38156320,0.033,0.192,1.297,-130.095,85.207,23.03
38156330,0.047,0.098,1.362,-177.17,100.24,27.142
38156330,-0.065,0.029,1.389,-220.972,113.085,33.705
38156350,-0.145,-0.067,1.345,-254.275,109.567,43.505
38156350,-0.03,-0.293,1.349,-292.075,98.49,49.122
38156370,-0.249,0.061,1.297,-322.14,96.74,71.505
38156370,-0.482,-0.253,1.619,-340.76,80.867,53.392
38156390,-1.29,-1.224,1.84,-378.227,26.512,42.91
38156390,0.179,-1.655,1.866,-299.285,-58.887,15.715
38156410,-0.037,-1.291,1.326,-161.7,-36.907,51.275
38156410,0.218,-1.323,1.179,-61.285,19.74,44.922
38156420,0.794,-0.834,0.87,0.507,53.585,27.282
38156430,0.602,-0.224,0.524,77.227,71.697,1.312
38156440,0.32,0.327,0.143,107.765,57.015,-36.12
38156450,0.239,0.695,0.111,94.255,21.945,-48.09
38156460,0.345,0.714,0.042,77.84,-28.42,-54.057
38156470,0.348,0.753,-0.008,74.427,-68.827,-62.65
38156480,0.339,0.703,-0.148,73.64,-92.575,-77.665
38156490,0.281,0.582,-0.246,69.142,-94.605,-89.267
38156500,0,0.426,-0.279,57.54,-91.385,-103.81
38156510,-0.324,0.245,-0.311,50.015,-101.185,-116.742
38156520,-0.559,0.185,-0.297,48.65,-136.132,-116.025
38156530,-0.468,0.033,-0.323,34.125,-183.19,-102.707
38156540,-0.289,-0.195,-0.339,12.53,-212.205,-82.897
38156550,-0.162,-0.444,-0.464,5.127,-226.485,-68.39
38156560,-0.168,-0.667,-0.554,11.165,-226.082,-58.502
38156570,-0.38,-0.99,-0.592,5.25,-212.205,-34.545
38156580,-0.889,-1.769,-0.071,-11.252,-211.925,7.105
38156590,-0.084,-1.998,1.945,-73.062,40.757,76.37
38156600,-1.722,-1.998,1.633,272.93,222.775,138.127
38156610,0.352,0.355,0.264,568.89,-29.872,99.19
38156620,1.416,1.997,-0.747,527.397,119.332,221.882
38156630,0.706,0.556,0.976,416.972,101.867,178.762
38156640,-1.724,-1.793,1.998,212.485,75.897,-1.732
38156650,-0.647,1.57,1.397,361.042,64.452,75.547
38156660,-0.447,1.63,1.525,218.575,30.695,50.312
38156670,-0.505,0.676,1.85,-1.662,3.57,-17.342
38156680,-0.146,0.659,1.193,-37.31,-8.82,-28.017
38156690,-0.127,-0.111,1.02,-106.137,-8.47,-42.875
38156700,-0.16,-0.363,0.833,-97.597,-9.1,-48.317
38156710,-0.101,-0.297,0.861,-72.415,-11.532,-42.035
38156720,0.018,-0.187,1.021,-60.62,-11.007,-37.415
38156730,0.223,-0.08,1.076,-55.527,-5.232,-28.122
38156740,0.201,-0.088,1.108,-67.305,6.387,-11.62
38156750,0.082,-0.127,1.09,-79.817,16.642,4.13
38156760,0.013,-0.13,1.101,-93.835,22.032,18.357
38156760,-0.019,0.016,1.176,-112.07,24.412,30.432
38156780,-0.107,0.145,1.218,-138.547,28.262,35.665
38156780,-0.134,0.139,1.25,-171.937,28.665,32.83
38156800,-0.045,-0.076,1.209,-201.512,31.92,31.675
38156800,0.161,-0.251,1.187,-224.367,51.38,34.685
38156820,0.085,-0.453,1.187,-232.015,75.495,43.715
38156820,0.3,-0.729,1.315,-204.12,76.16,26.39
38156830,0.101,-0.688,1.514,-192.115,63.875,7.175
38156840,-0.049,-0.755,1.866,-190.277,46.287,5.145
38156850,-0.082,-1.497,1.493,-159.337,-6.072,-20.947
38156860,0.483,-1.369,1.224,-86.117,-26.705,-7.437
38156870,0.281,-1.678,1.036,-5.617,8.96,15.382
38156880,0.07,-1.517,0.747,91.472,-0.595,-28.56
38156890,0.405,-1.101,0.26,172.935,-12.6,-35.14
38156900,-0.336,-0.76,-0.278,193.655,-13.055,-76.51
38156910,-0.971,-0.43,-0.428,165.042,-31.57,-118.51
38156920,-1.155,-0.216,-0.614,133.927,-55.825,-121.222
38156930,-1.064,0.035,-0.877,108.78,-62.527,-101.115
38156940,-0.986,0.331,-0.771,48.755,-41.09,-76.02
38156950,-0.797,0.232,-0.277,-53.147,18.602,-31.5
38156960,-0.342,-0.035,0.251,-118.72,92.172,30.975
38156970,-0.265,0.136,0.403,-81.147,120.907,71.977
38156980,-0.211,0.592,0.184,-23.012,89.95,87.692
38156990,0.242,0.624,-0.025,-26.687,51.712,109.095
38157000,0.746,0.464,-0.168,-61.32,35.787,116.235
38157010,0.869,0.579,-0.318,-82.11,28.49,83.02
38157020,0.682,0.833,-0.485,-87.657,-0.28,25.007
38157030,0.541,1.264,-0.211,-99.382,-28.805,-25.322
38157040,-1.826,-0.449,1.966,-254.397,-198.485,-85.645
38157050,0.872,-1.962,0.593,234.132,-347.497,-141.802
38157060,0.443,1.465,-1.114,566.247,69.317,140.945
38157070,0.522,1.92,-0.614,523.372,-69.702,-77
38157080,0.628,-1.668,1.905,212.712,-40.25,-70.035
38157080,0.023,0.021,1.783,290.622,-9.257,24.08
38157100,0.681,1.985,1.265,374.29,22.435,97.545
38157100,-0.789,0.789,1.862,69.632,49.455,63.542
38157120,-0.989,0.731,1.316,-13.912,24.832,55.16
38157120,-0.776,0.196,1.025,-60.9,-16.135,8.4
38157140,-0.376,-0.321,0.941,-103.215,-44.222,-36.435
38157140,0.24,-0.377,0.768,-63.437,-52.395,-44.555
38157160,0.397,-0.464,0.922,-34.055,-34.615,-41.912
38157160,0.462,-0.26,0.958,-12.74,-15.19,-15.662
38157170,0.17,-0.041,1.009,-0.262,4.532,8.872
38157180,-0.138,-0.022,1.072,-2.205,13.772,16.31
38157190,-0.273,0.041,1.121,-10.745,13.807,7.297
38157200,-0.169,0.165,1.238,-28.542,10.815,-10.132
38157210,-0.012,0.341,1.368,-62.475,20.685,-25.042
38157220,-0.008,0.374,1.452,-115.937,39.182,-38.937
38157230,0.056,0.302,1.456,-186.165,51.695,-45.062
38157240,0.145,0.185,1.441,-251.842,54.25,-44.24
38157250,0.085,0.018,1.566,-310.047,51.345,-37.537
38157260,0.08,-0.234,1.615,-360.237,49.087,-31.36
38157270,-0.168,-0.384,1.761,-404.88,65.31,-28.28
38157280,-0.996,-0.772,1.998,-456.452,50.312,-17.395
38157290,-1.187,-1.998,1.431,-395.237,-38.85,-61.827
38157300,-1.448,-1.998,1.438,-236.915,-35.192,-36.54
38157310,-0.841,-1.998,0.43,-114.292,5.39,-32.935
38157320,-1.402,-1.857,0.624,-12.652,54.442,-74.62
38157330,-0.832,-1.225,0.389,69.825,71.715,-48.09
38157340,-0.317,-0.64,-0.063,110.582,106.592,0.927
38157350,0.025,-0.424,0.141,81.672,138.407,22.172
38157360,0.416,-0.159,0.513,46.375,141.89,39.095
38157370,1.035,0.409,0.532,46.585,151.707,62.3
38157380,1.511,0.986,0.544,41.352,165.602,77.105
38157390,1.57,1.466,0.461,36.417,120.54,38.832
38157400,1.395,1.839,0.299,40.285,30.24,-38.01
38157410,1.14,1.926,0.239,32.812,-46.515,-80.482
38157420,0.877,1.732,0.291,13.02,-76.055,-90.125
38157430,0.443,1.247,0.328,3.36,-76.562,-80.22
38157440,-0.212,0.901,0.201,24.937,-78.75,-52.622
38157450,-0.621,0.656,-0.015,52.552,-104.072,-7.805
38157460,-0.66,0.233,-0.142,53.655,-128.257,59.307
38157470,-0.494,-0.239,-0.297,58.345,-138.407,121.205
38157480,-0.408,-0.498,-0.53,78.75,-146.44,153.93
38157490,-0.388,-0.689,-0.804,85.872,-168.052,152.862
38157500,-0.439,-0.941,-0.907,62.667,-192.78,130.812
38157510,-0.48,-1.306,-0.801,15.557,-217.262,96.407
38157510,-0.542,-1.663,-0.548,-30.887,-235.357,58.275
38157530,-0.586,-1.866,-0.401,-62.947,-237.825,25.742
38157530,-0.611,-1.769,-0.523,-74.952,-216.615,-22.347
38157550,-0.324,-1.849,-0.134,-97.247,-159.407,-46.585
38157550,1.559,-1.515,1.78,-236.46,231.98,-57.032
38157570,-1.806,-1.994,-1.206,153.055,126.437,-145.897
38157570,0.857,1.463,-0.589,567.14,9.257,-208.792
38157580,1.32,1.961,-0.314,503.667,113.767,14.332
38157590,1.137,-1.543,1.998,224.507,116.882,-27.107
38157600,-0.744,1.28,1.836,336.28,244.982,53.742
38157610,-1.942,1.997,0.404,252.245,171.552,75.442
38157620,-1.36,1.509,1.7,-157.045,10.587,48.737
38157630,-0.129,0.766,1.62,-285.827,-80.062,-2.8
38157640,-0.001,-0.83,0.588,-253.89,-63.7,-31.412
38157650,-0.251,-1.885,0.437,-247.205,-36.925,-62.265
38157660,0.344,-0.875,0.431,-140.472,-25.305,-54.442
38157670,0.477,-0.709,0.327,-66.482,-26.337,-15.505
38157680,0.147,-0.995,0.527,-3.185,-30.17,28.087
38157690,0.069,-0.573,0.683,82.932,-29.435,53.795
38157700,0.234,-0.127,1.069,107.73,-20.142,62.72
38157710,0.082,0.238,1.225,100.747,-1.802,66.71
38157720,-0.032,0.282,1.261,73.867,10.657,73.255
38157730,-0.308,0.454,1.306,39.935,12.74,67.935
38157740,-0.415,0.492,1.286,-5.915,5.232,50.4
38157750,-0.441,0.405,1.294,-55.755,-7.507,21.962
38157760,-0.205,0.232,1.35,-97.475,-17.78,-4.602
38157770,-0.1,0.213,1.383,-141.102,-22.925,-11.235
38157780,-0.014,0.179,1.347,-187.81,-29.435,-3.605
38157790,0.066,0.084,1.353,-247.555,-33.162,8.172
38157800,0.08,0.06,1.372,-299.967,-38.867,23.712
38157810,0.022,0.056,1.462,-343.77,-43.33,37.625
38157820,-0.117,-0.606,1.69,-392.157,-58.485,43.225
38157830,-0.523,-0.327,1.937,-433.545,-95.952,51.502
38157830,-0.518,-1.593,1.982,-395.972,-170.38,35.857
38157850,-0.939,-1.766,1.268,-310.642,-260.277,37.485
38157850,-0.903,-1.427,1,-201.46,-257.722,111.825
38157870,-1.413,-1.375,0.488,-138.39,-269.062,108.587
38157870,-0.65,-1.304,0.508,-86.432,-222.932,113.312
38157890,0.054,-0.868,0.856,-8.785,-100.66,110.582
38157890,-0.029,-0.454,0.639,108.29,16.135,71.015
38157910,-0.075,-0.308,0.311,164.36,157.727,37.432
38157910,-0.248,-0.337,0.243,177.537,289.835,11.707
38157920,-0.518,-0.279,0.301,188.3,364.157,0.455
38157930,-0.582,-0.186,0.282,213.535,368.952,3.272
38157940,-0.425,-0.137,0.093,237.877,325.955,13.072
38157950,-0.12,0.044,-0.197,248.412,260.89,20.055
38157960,0.311,0.242,-0.561,248.395,199.01,28.612
38157970,0.66,0.214,-0.826,225.085,153.562,30.135
38157980,0.885,0.039,-0.889,160.317,127.435,0.315
38157990,1.012,-0.078,-0.673,57.855,111.702,-74.637
38158000,0.868,-0.219,-0.327,-57.522,93.975,-171.447
38158010,0.408,-0.447,0.059,-118.037,78.925,-250.25
38158020,-0.131,-0.567,0.289,-108.15,49.385,-287.542
38158030,-0.295,-0.406,0.269,-76.685,3.587,-276.342
38158040,-0.185,-0.124,0,-47.967,-45.762,-242.637
38158050,0.007,0.086,-0.293,-27.51,-82.897,-198.59
38158060,0.139,0.329,-0.593,-22.365,-102.725,-150.64
38158070,0.066,0.767,-0.814,-21.945,-115.22,-99.295
38158080,-0.152,0.915,-1.234,-33.215,-143.657,-53.042
38158090,0.076,1.595,1.057,-103.635,-98.805,-20.177
38158100,-0.418,-1.958,0.527,-327.652,-269.535,-121.485
38158110,1.176,-0.521,-0.447,419.055,2.082,-218.82
38158120,0.158,1.997,-1.935,572.897,15.172,-62.44
38158130,1.987,0.437,0.73,427.192,49.7,86.905
38158140,-1.017,-1.082,1.998,213.99,130.112,55.02
38158150,-0.869,1.997,1.451,463.347,193.602,151.025
38158160,-1.619,1.997,0.58,155.68,96.25,116.707
38158170,-1.346,0.582,1.546,-196.367,-43.837,32.095
38158180,-0.033,-0.42,1.198,-224.525,-99.032,-37.572
38158190,0.259,-0.59,0.676,-158.9,-92.295,-53.217
38158200,0.558,-0.83,0.834,-132.79,-65.03,-47.022
38158210,0.582,-0.486,0.779,-81.427,-32.042,-26.127
38158220,0.208,-0.424,0.738,-40.845,-7.245,15.312
38158230,-0.079,-0.377,0.959,-12.565,-1.732,28.227
38158240,-0.042,-0.138,0.984,6.37,4.182,21.84
38158250,0.102,-0.055,1.031,5.985,10.78,13.002
38158250,-0.026,0.158,1.147,0.297,18.007,9.345
38158260,-0.012,0.238,1.29,-21.997,25.375,5.285
38158270,-0.023,0.309,1.367,-60.847,34.352,-0.7
38158280,-0.029,0.288,1.363,-112.647,40.827,-6.895
38158290,-0.039,0.237,1.352,-168.77,44.765,-10.605
38158300,0.024,0.126,1.328,-217.385,40.11,-15.347
38158310,0.022,0.078,1.356,-260.977,42.91,-12.232
38158320,-0.057,0.038,1.463,-288.26,43.155,-6.142
38158330,-0.179,-0.371,1.499,-313.827,47.18,8.68
38158340,-0.332,-0.415,1.582,-311.972,33.565,39.935
38158350,-0.669,-1.396,1.402,-279.405,-16.45,9.887
38158360,-0.931,-0.392,1.823,-318.202,-82.775,20.16
38158370,-0.415,-0.367,1.405,-299.635,-116.917,83.755
38158380,-0.729,-1.186,0.962,-253.872,-143.797,96.32
38158390,-0.807,-1.706,0.496,-232.732,-148.837,59.535
38158400,-0.324,-1.444,0.888,-195.615,-71.137,64.785
38158410,0.086,-1.519,0.998,-133.35,28.455,90.615
38158420,0.237,-1.124,0.991,-16.1,109.707,79.187
38158430,0.07,-0.793,0.883,84.805,148.995,82.215
38158440,0.142,-0.47,0.451,146.002,139.562,91.875
38158450,0.467,0.023,0.137,177.887,129.115,102.462
38158460,0.757,0.46,-0.043,173.915,129.85,107.887
38158470,0.939,0.79,-0.154,148.925,133.315,106.295
38158480,0.86,1.066,-0.249,127.242,115.517,86.835
38158490,0.911,1.213,-0.28,99.89,74.812,51.73
38158500,1.001,1.188,-0.189,56.682,27.65,5.792
38158510,0.897,0.938,-0.013,20.125,-8.592,-18.497
38158520,0.787,0.749,0.214,10.535,-31.43,-55.93
38158530,0.415,0.457,0.406,23.117,-56.07,-92.732
38158540,0.182,0.145,0.341,61.32,-82.652,-109.182
38158550,0.129,-0.032,-0.021,120.82,-106.172,-108.692
38158560,0.153,-0.155,-0.514,167.895,-119.21,-107.17
38158570,0.032,-0.248,-0.718,168.577,-119.14,-117.425
38158580,-0.37,-0.483,-0.694,126.962,-128.082,-142.555
38158580,-0.672,-0.763,-0.383,75.722,-160.125,-158.252
38158600,-0.746,-1.153,-0.109,22.662,-190.137,-150.867
38158600,-0.575,-1.632,-0.261,13.44,-197.61,-131.652
38158620,-0.991,-1.982,1.489,-0.595,-118.125,-135.555
38158620,0.081,-1.998,-0.377,84.192,92.697,-148.645
38158640,-0.042,1.025,0.421,550.777,198.66,-29.767
38158640,0.445,1.997,-1.889,571.305,74.515,81.375
38158660,1.446,0.467,1.018,360.78,100.292,168.822
38158660,-1.054,-1.227,1.998,7.595,151.847,26.617
38158670,-1.737,1.997,-0.022,256.462,139.912,36.417
38158680,-0.341,1.55,1.126,4.532,2.922,74.182
38158690,-0.845,-0.107,1.843,-260.295,-39.392,-43.295
38158700,0.336,-0.033,0.939,-186.41,-26.862,-71.592
38158710,0.002,-0.521,0.603,-133.297,17.745,-74.48
38158720,-0.132,-1.196,0.709,-136.85,7.175,-74.707
38158730,0.249,-0.848,0.55,-78.487,-9.467,-40.547
38158740,0.281,-0.621,0.544,-14.297,-23.572,12.425
38158750,-0.055,-0.596,0.807,32.2,-30.642,38.832
38158760,0.101,-0.214,1.089,62.037,-29.102,59.15
38158770,0.223,0.187,1.188,57.487,-14.175,72.362
38158780,0.047,0.365,1.251,32.952,8.12,76.632
38158790,-0.151,0.421,1.36,-0.297,20.79,74.62
38158800,-0.249,0.535,1.388,-46.742,28.875,61.162
38158810,-0.207,0.432,1.345,-97.422,33.932,32.375
38158820,-0.108,0.3,1.309,-149.345,46.445,6.965
38158830,-0.047,0.122,1.276,-187.512,60.847,-7.7
38158840,0.016,0.091,1.299,-220.045,76.16,-10.885
38158850,-0.033,-0.009,1.272,-241.57,84.682,-10.5
38158860,-0.025,-0.158,1.304,-264.162,83.177,-12.267
38158870,-0.244,-0.243,1.393,-280.735,69.055,-7.122
38158880,-0.325,-0.653,1.466,-294.105,40.547,1.19
38158890,-0.711,-0.725,1.244,-293.247,13.422,33.915
38158900,-0.489,-0.692,1.497,-271.985,-25.27,24.465
38158910,-0.728,-0.633,1.303,-301.577,-74.585,29.137
38158920,-0.634,-1.547,1.028,-284.48,-104.807,49.35
38158920,-0.025,-1.794,0.866,-242.34,-102.952,51.222
38158940,0.006,-1.357,1.248,-243.355,-69.107,71.365
38158940,0.015,-1.069,1.285,-208.04,-35.525,79.485
38158960,-0.149,-0.35,1.1,-90.212,-28.105,95.182
38158960,0.037,0.535,0.682,20.387,-51.555,120.89
38158980,0.415,1.288,0.251,79.502,-66.482,144.69
38158980,0.435,1.877,-0.018,81.812,-66.832,155.05
38159000,0.287,1.988,-0.039,57.102,-79.642,130.2
38159000,0.237,1.73,0.11,28.262,-104.177,87.727
38159010,0.174,1.311,0.268,12.687,-118.317,55.86
38159020,0.107,0.809,0.357,22.365,-114.1,39.287
38159030,0.023,0.285,0.392,46.217,-94.955,25.445
38159040,-0.211,-0.304,0.265,71.435,-73.885,8.347
38159050,-0.513,-0.747,0.04,107.24,-68.775,-5.74
38159060,-0.741,-0.889,-0.319,144.427,-82.53,-7.052
38159070,-0.818,-0.946,-0.757,160.16,-107.415,-5.915
38159080,-0.782,-1.065,-0.94,128.117,-119.997,2.537
38159090,-0.736,-1.391,-0.8,60.34,-112.857,15.102
38159100,-0.599,-1.671,-0.574,6.685,-100.887,17.92
38159110,-0.592,-1.915,-0.632,-3.727,-93.432,6.177
38159120,0.688,-1.998,1.169,-29.47,-12.267,-4.252
38159130,0.254,-1.998,1.998,-56.105,20.055,-19.127
38159140,-1.599,-1.998,0.973,295.592,-80.885,-127.33
38159150,0.505,1.148,-0.524,568.505,-35.665,-58.817
38159160,1.998,1.783,-0.63,545.597,24.57,156.292
38159170,0.811,-0.903,1.941,385.717,97.912,85.032
38159180,-0.565,-0.334,1.998,430.92,99.137,37.082
38159190,-0.27,1.543,1.976,392.332,173.285,166.407
38159200,-1.998,1.862,1.29,199.85,141.645,90.912
38159210,-1.372,1.531,0.817,27.912,24.447,41.177
38159220,-0.395,-0.017,1.265,-101.867,-67.69,-35.91
38159230,0.218,-0.271,0.928,-102.427,-75.232,-53.462
38159240,0.276,-0.584,0.829,-81.672,-55.44,-48.527
38159250,0.527,-0.55,0.855,-35.7,-31.64,-26.425
38159260,0.498,-0.211,0.986,6.772,1.942,4.987
38159270,-0.001,0.109,1.094,25.077,31.99,27.51
38159280,-0.442,0.363,1.103,17.797,36.19,29.05
38159290,-0.367,0.242,1.071,-6.037,18.69,13.545
38159300,-0.161,0.232,1.164,-28.805,7.542,-5.845
38159310,0.103,0.383,1.312,-54.145,9.73,-13.405
38159320,0.119,0.382,1.35,-97.685,25.917,-15.435
38159330,0.011,0.241,1.29,-148.627,36.96,-14.052
38159330,-0.108,0.125,1.184,-193.252,44.835,-9.345
38159350,-0.151,0.056,1.104,-218.54,38.885,-9.047
38159350,-0.171,-0.01,1.129,-232.645,41.335,-7.035
38159370,-0.064,-0.033,1.186,-243.687,47.53,-5.827
38159370,0.011,-0.116,1.238,-253.837,57.102,-5.407
38159390,0.213,-0.444,1.359,-262.255,78.715,-7.332
38159390,-0.054,-0.357,1.263,-252.49,104.685,18.445
38159410,0.317,-0.612,1.445,-204.172,98.525,-16.467
38159410,-0.464,-0.665,1.711,-210.035,67.935,-43.96
38159420,-0.568,-1.36,1.614,-193.532,-1.557,-42.84
38159430,0.654,-1.241,1.076,-105.052,-31.185,-18.077
38159440,-0.009,-1.459,0.996,-4.882,6.16,-5.6
38159450,0.365,-1.104,0.583,73.727,-24.552,-62.142
38159460,0.493,-0.814,-0.059,152.495,-35.437,-59.605
38159470,-0.096,-0.334,-0.35,165.9,-36.347,-97.772
38159480,-0.467,-0.202,-0.411,130.795,-62.317,-127.662
38159490,-0.665,-0.21,-0.487,102.235,-89.407,-134.54
38159500,-0.731,-0.02,-0.539,84.157,-101.097,-121.59
38159510,-0.862,0.178,-0.604,46.83,-103.355,-100.152
38159520,-0.796,0.188,-0.509,-13.685,-89.845,-77.035
38159530,-0.644,-0.008,-0.315,-62.895,-54.32,-39.777
38159540,-0.486,-0.075,-0.124,-73.132,-17.272,-12.88
38159550,-0.437,0.05,-0.016,-50.225,3.955,1.295
38159560,-0.327,0.291,-0.059,-27.492,14.612,21.175
38159570,-0.273,0.558,-0.217,-25.62,19.985,43.33
38159580,-0.241,0.866,-0.417,-44.397,27.772,77.945
38159590,-0.464,1.64,0.786,-102.935,24.535,101.937
38159600,-0.287,-1.675,1.421,-341.46,-227.115,6.317
38159610,1.667,-1.752,-0.869,345.17,14.507,-143.465
38159620,-1.99,1.796,-0.829,569.222,59.587,-56.42
38159630,1.076,1.667,0.3,394.555,-77.542,-36.995
38159640,1.224,-0.74,1.962,158.095,29.96,66.955
38159650,-0.615,-0.325,1.991,406.07,-18.865,-34.055
38159660,1.035,1.925,1.66,281.312,83.527,108.062
38159670,-1.166,1.477,1.582,113.925,99.172,72.1
38159670,-1.146,1.104,1.26,-9.677,39.672,66.815
38159690,-0.783,0.217,1.035,-72.957,-24.92,22.417
38159690,-0.339,-0.329,0.936,-101.64,-53.707,-14.49
38159710,0.137,-0.378,0.887,-79.467,-61.53,-26.442
38159710,0.371,-0.31,0.884,-53.06,-49.402,-18.55
38159730,0.28,-0.361,0.844,-25.952,-27.772,0.14
38159730,0.159,-0.337,0.896,0.262,-10.097,17.167
38159750,0.137,-0.088,0.987,24.342,1.557,27.282
38159750,0.01,0.016,1.031,29.522,11.077,31.867
38159760,-0.091,0.045,1.053,25.83,15.032,31.815
38159770,-0.108,0.149,1.097,17.482,16.275,25.97
38159780,-0.033,0.212,1.168,0.56,16.992,16.607
38159790,0.116,0.281,1.308,-25.095,23.082,9.17
38159800,0.143,0.317,1.416,-59.08,35.857,6.597
38159810,0.059,0.237,1.44,-110.18,49.262,10.097
38159820,-0.109,0.17,1.419,-174.457,45.71,17.832
38159830,0.072,0.031,1.35,-238.752,24.972,35.227
38159840,-0.023,0.078,1.512,-290.325,18.2,66.815
38159850,0.104,0.128,1.544,-324.415,17.955,83.825
38159860,0.092,-0.443,1.579,-354.532,14.927,83.387
38159870,-0.459,-1.38,1.974,-403.777,20.212,60.655
38159880,-1.606,-1.703,1.987,-359.695,-55.02,44.642
38159890,-0.516,-1.994,1.955,-124.495,-146.125,73.482
38159900,-0.146,-1.552,0.354,184.642,-119.927,161.857
38159910,0.126,-0.473,-1.037,322.577,-58.712,142.31
38159920,-0.593,-0.259,-0.845,196.98,-34.597,86.345
38159930,-0.512,-0.618,-0.377,67.48,-60.865,20.3
38159940,-0.181,-0.762,-0.175,61.775,-57.382,-16.555
38159950,-0.094,-0.505,-0.292,82.11,-2.607,-34.912
38159960,-0.228,-0.248,-0.408,59.325,59.062,-64.732
38159970,-0.58,-0.163,-0.371,31.832,77.035,-117.232
38159980,-0.894,-0.075,-0.302,8.75,58.73,-154.612
38159990,-0.882,0.034,-0.238,-20.457,25.147,-156.765
38160000,-0.722,0.137,-0.095,-51.187,1.33,-141.925
38160010,-0.55,0.142,0.088,-77.805,-6.527,-127.89
38160020,-0.503,0.152,0.317,-96.722,-5.005,-115.867
38160030,-0.365,0.156,0.481,-107.117,3.517,-101.885
38160040,-0.148,0.076,0.559,-115.867,30.467,-79.362
38160050,-0.072,0.063,0.554,-120.365,65.135,-57.242
38160060,-0.104,0.048,0.414,-116.935,89.39,-40.6
38160070,-0.133,0.03,0.23,-105.07,88.007,-28.367
38160080,-0.135,0.047,0.029,-94.36,66.027,-23.66
38160080,0.033,0.039,-0.155,-94.36,40.145,-18.795
38160100,0.338,0.279,-0.571,-96.495,27.422,-11.48
38160100,0.904,0.858,0.678,-87.885,52.36,-4.532
38160120,0.685,-0.83,1.923,-185.342,-38.15,16.922
38160120,1.079,-1.947,-1.115,425.827,-19.932,-292.74
38160140,-1.233,1.61,-0.527,572.372,-42.612,-257.6
38160140,1.998,1.827,1.066,425.775,10.552,107.275
38160160,0.308,0.057,1.998,347.462,-1.312,74.62
38160160,0.63,1.608,1.968,352.677,128.415,142.66
38160170,-1.941,1.997,0.937,197.26,146.23,133.035
38160180,-1.058,1.575,1.403,-87.885,1.82,74.2
38160190,-0.294,0.326,1.437,-201.18,-78.067,12.337
38160200,0.07,-0.468,0.724,-205.187,-70.752,-12.862
