time[ms],accX[g],accY[g],accZ[g],Value 1,Value 2,Value 3
43092390,0.035,-0.285,0.926,9.467,-8.417,-6.72
43092390,0.093,-0.165,1.005,14.367,-7.402,-8.522
43092410,0.129,-0.126,1.047,11.095,-4.952,-11.602
43092410,0.105,-0.099,1.046,5.092,-1.277,-10.22
43092420,0.02,-0.119,1.04,-3.395,1.417,-10.832
43092430,-0.045,-0.12,1.047,-8.89,2.607,-14.455
43092440,-0.01,-0.048,1.101,-14.98,2.66,-21.367
43092450,0.001,0.005,1.162,-25.97,4.112,-29.487
43092460,0.024,0.103,1.279,-38.937,11.987,-44.432
43092470,-0.138,0.154,1.52,-69.58,30.677,-68.25
43092480,0.145,0.076,1.614,-126.7,46.742,-82.407
43092490,0.173,-0.128,1.665,-196.752,51.852,-70.227
43092500,0.536,-0.153,1.531,-263.007,37.03,-32.76
43092510,0.535,-0.234,1.466,-291.55,14.822,24.062
43092520,0.375,-0.257,1.549,-291.987,-20.037,65.66
43092530,0.21,-0.133,1.603,-327.88,-58.222,108.745
43092540,-1.126,-1.208,1.998,-400.452,-127.925,142.59
43092550,-0.3,-1.998,0.236,-371.227,-241.797,122.272
43092560,-0.328,-1.998,-0.061,-205.03,-162.312,130.077
43092570,-0.476,-1.77,-0.174,-67.515,-48.51,118.177
43092580,0.742,-0.992,-0.287,-36.417,49.612,98.175
43092590,0.837,-0.673,0.057,-72.94,105.647,14.91
43092600,0.688,-0.501,0.25,-99.172,132.755,-71.435
43092610,0.417,0.004,0.441,-80.43,162.155,-121.8
43092620,0.113,0.482,0.57,-79.887,187.407,-154.507
43092630,-0.192,1.086,0.779,-79.817,193.97,-163.45
43092640,-0.219,1.575,0.932,-62.615,179.06,-148.61
43092650,-0.188,1.592,0.951,-29.54,151.9,-129.955
43092660,-0.202,1.407,0.834,22.26,121.852,-100.887
43092670,-0.293,1.247,0.554,79.24,84.962,-62.107
43092670,-0.332,1,0.192,104.545,37.047,-25.987
43092690,-0.42,0.566,-0.112,92.085,-21.14,1.855
43092690,-0.432,0.097,-0.276,68.967,-83.685,17.99
43092710,-0.526,-0.287,-0.429,38.43,-141.627,27.177
43092710,-0.544,-0.555,-0.612,6.93,-188.562,29.312
43092730,-0.558,-0.649,-0.712,-18.882,-212.17,34.125
43092730,-0.577,-0.85,-0.76,-45.22,-211.137,32.252
43092750,-0.637,-0.987,-0.668,-53.742,-193.952,14.192
43092750,0.021,-1.837,0.016,-65.87,-157.027,-27.51
43092760,1.13,-1.998,1.166,-61.25,81.287,-32.847
43092770,-1.712,-1.998,0.976,126.437,147.822,-124.495
43092780,-0.517,-0.292,-0.815,493.867,53.095,-291.305
43092790,0.441,1.997,1.453,547.715,71.417,-201.215
43092800,1.998,-0.472,-0.094,358.067,22.855,-115.902
43092810,1.881,-1.586,0.878,424.427,90.422,-55.02
43092820,1.258,1.863,1.174,556.377,143.99,56.91
43092830,-0.019,-0.559,1.833,444.885,237.912,60.497
43092840,-1.992,1.997,1.544,257.337,171.062,50.47
43092850,-1.463,1.369,1.998,-112.245,-4.41,41.37
43092860,0.451,-0.176,1.621,-287.612,-71.75,3.027
43092870,0.213,-1.058,0.11,-238.035,-34.09,-21.07
43092880,-0.191,-1.731,0.141,-164.167,-26.39,-24.027
43092890,-0.063,-0.981,0.176,-91.07,-24.465,-19.687
43092900,0.267,-0.833,0.244,-19.687,-28.157,-4.865
43092910,-0.003,-0.713,0.51,47.25,-35.577,19.95
43092920,0.157,-0.467,0.811,88.27,-39.235,32.427
43092930,0.291,-0.033,1.258,101.605,-28.35,35.192
43092940,0.142,0.226,1.464,79.922,-10.325,30.415
43092950,-0.102,0.168,1.303,37.292,-3.902,25.812
43092960,-0.224,0.066,1.258,1.12,-10.622,18.602
43092970,-0.157,0.021,1.195,-29.435,-19.775,8.33
43092980,0.142,-0.179,1.205,-56.56,-24.605,-8.277
43092990,0.298,-0.091,1.23,-74.217,-16.397,-9.205
43093000,0.253,-0.147,1.261,-98.227,-4.795,-5.67
43093010,0.315,-0.246,1.191,-129.01,0.787,0.367
43093020,0.277,-0.234,1.24,-146.79,2.625,7.42
43093030,0.317,-0.318,1.248,-171.867,2.17,18.217
43093040,0.372,-0.365,1.208,-195.755,1.627,34.247
43093050,0.179,-0.238,1.322,-205.135,-11.042,63.98
43093060,0.028,-0.047,1.331,-229.022,-53.795,103.092
43093070,0.275,-0.547,0.845,-271.915,-74.847,142.52
43093080,-0.234,-0.923,1.406,-279.422,-42.105,180.547
43093080,-0.523,-1.964,1.292,-265.895,-53.917,142.87
43093090,-0.379,-1.998,0.641,-197.487,-54.95,104.282
43093100,-0.751,-1.998,0.549,-48.352,38.85,104.895
43093110,-0.533,-1.357,-0.014,53.69,99.54,102.742
43093120,-0.201,-0.479,-0.189,100.082,129.692,88.602
43093130,-0.079,0.028,0.043,54.705,132.667,78.872
43093140,0.397,0.201,0.233,24.43,105.752,53.357
43093150,0.787,0.355,0.356,15.172,87.5,38.272
43093160,0.836,0.421,0.315,13.842,68.565,10.745
43093170,0.688,0.393,0.117,11.165,40.53,-27.037
43093180,0.579,0.373,-0.053,23.03,10.202,-71.54
43093190,0.304,0.353,-0.203,24.71,-11.795,-116.585
43093200,-0.015,0.188,-0.313,15.05,-26.897,-154.857
43093210,-0.353,0.112,-0.354,1.207,-36.33,-183.995
43093220,-0.632,-0.088,-0.381,-11.06,-37.52,-208.057
43093230,-0.993,-0.255,-0.441,-27.37,-30.117,-204.155
43093240,-1.37,-0.301,-0.419,-36.33,-31.797,-178.622
43093250,-1.18,-0.306,-0.421,-49.595,-36.172,-126.682
43093260,-0.849,-0.148,-0.428,-30.765,-21.49,-57.207
43093270,-0.625,0.055,-0.363,9.31,3.395,-0.665
43093280,-0.884,0.248,0.42,36.907,14.035,25.742
43093290,-0.465,-1.946,0.185,29.382,-250.635,-166.67
43093300,0.798,-0.922,-0.566,473.007,-14.052,-290.727
43093310,-1.679,1.986,1.076,565.355,72.52,-101.115
43093320,1.531,-0.09,1.024,491.732,-19.81,-65.887
43093330,1.998,-1.646,1.998,530.46,199.675,0.717
43093340,-1.725,1.84,-0.324,405.615,298.13,-9.275
43093350,0.131,-0.001,1.542,80.15,20.23,84.402
43093360,-0.528,-0.573,1.533,-255.482,-101.062,47.985
43093370,0.093,-0.746,0.923,-172.865,-103.18,26.617
43093380,0.302,-1.643,0.353,-174.475,-79.712,-8.435
43093390,0.385,-0.889,0.289,-46.06,-44.135,-11.042
43093400,0.854,-0.813,0.648,8.575,-14.542,-15.47
43093410,0.128,-0.497,0.942,64.137,24.412,12.092
43093420,-0.164,-0.157,1.112,82.215,35.595,7.56
43093420,-0.166,0.171,1.164,63.717,27.79,-4.69
43093440,-0.047,0.324,1.134,36.732,14.647,-3.71
43093440,-0.179,-0.063,1.043,11.742,1.207,2.205
43093460,-0.065,-0.018,1.043,-4.48,-10.535,-0.35
43093460,-0.082,-0.024,1.042,-15.452,-18.707,1.277
43093480,0.029,-0.172,0.997,-28.752,-26.285,0.437
43093480,0.132,-0.155,1.014,-34.212,-27.877,-1.557
43093500,0.152,-0.161,1.016,-38.15,-24.85,-0.857
43093500,0.17,-0.209,1.035,-42.787,-20.177,-0.665
43093510,0.06,-0.169,1.082,-47.092,-15.89,-0.21
43093520,0.134,-0.148,1.213,-57.26,-14.805,-2.572
43093530,0.1,-0.089,1.285,-79.415,-13.58,-3.885
43093540,0.121,-0.063,1.426,-109.9,-11.847,-4.147
43093550,0.07,0.005,1.444,-151.952,-13.23,3.482
43093560,0.029,-0.028,1.421,-202.195,-37.03,28.21
43093570,-0.027,-0.014,1.537,-241.482,-73.57,59.412
43093580,-0.238,-0.192,1.513,-293.212,-111.877,71.557
43093590,-0.437,0.043,1.484,-318.237,-149.292,75.127
43093600,-0.935,-0.192,1.503,-350,-204.837,81.62
43093610,-0.915,-1.303,1.246,-407.172,-294.665,99.715
43093620,0.029,-1.998,0.072,-427.98,-337.347,109.917
43093630,0.924,-1.988,-0.016,-278.67,-172.2,154.017
43093640,-0.649,-1.735,-0.009,-96.425,26.862,180.145
43093650,-1.507,-1.55,0.896,-134.557,93.835,140.875
43093660,-0.379,-1.308,0.917,-100.502,103.67,145.565
43093670,0.676,-0.06,1.126,-11.375,160.702,161.49
43093680,0.975,1.035,1.283,38.832,225.977,128.677
43093690,0.664,1.899,1.229,83.212,242.322,53.62
43093700,0.539,1.997,1.417,103.372,213.027,-20.667
43093710,0.53,1.79,1.231,119.612,169.575,-75.845
43093720,0.383,1.352,0.529,184.887,142.712,-94.482
43093730,-0.063,1.206,-0.18,252.297,121.922,-84.525
43093740,-0.325,0.814,-0.647,237.667,84.28,-70.35
43093750,-0.123,-0.086,-0.806,166.81,41.72,-69.072
43093760,0.12,-0.862,-0.742,104.72,12.985,-71.872
43093760,0.233,-1.388,-0.73,59.43,1.207,-80.097
43093780,0.168,-1.634,-0.875,39.847,1.137,-88.707
43093780,-0.08,-1.635,-1.074,27.65,1.015,-86.94
43093800,-0.541,-1.267,-1.241,2.695,-4.077,-60.882
43093800,-0.545,-1.407,-1.139,-13.982,-26.845,-61.267
43093820,-0.954,-1.728,0.568,-42.98,-48.44,-57.4
43093820,-0.103,-1.998,0.47,16.047,-276.377,-230.562
43093830,1.18,-0.421,-0.324,506.572,70.56,-276.92
43093840,-1.895,1.997,0.769,547.872,75.495,-47.565
43093850,1.553,-1.034,0.252,415.362,-30.152,-92.015
43093860,1.808,-0.385,1.775,502.127,54.337,32.655
43093870,0.644,0.723,1.956,515.987,231.28,37.485
43093880,-1.998,1.993,0.286,267.137,178.972,57.872
43093890,-0.484,0.354,1.951,-106.767,-18.007,58.73
43093900,0.098,0.33,1.909,-288.172,-95.27,32.392
43093910,0.629,-0.35,1.213,-323.435,-72.047,32.602
43093920,-0.177,-0.134,0.52,-245.07,-34.44,26.81
43093930,-0.553,-1.835,0.306,-239.47,-19.215,-16.065
43093940,0.114,-0.872,0.172,-169.347,-4.305,-43.4
43093950,0.37,-0.999,-0.099,-98.192,6.597,-38.622
43093960,0.283,-1.298,-0.04,-5.757,1.417,-19.845
43093970,0.357,-0.948,0.253,90.86,-0.402,11.812
43093980,0.272,-0.526,0.814,152.932,-2.957,38.237
43093990,0.106,-0.055,1.334,161.385,-7.892,59.22
43094000,-0.227,0.442,1.482,122.552,-7.227,70.962
43094010,-0.486,0.336,1.349,74.725,-4.48,56.77
43094020,-0.636,0.105,1.33,33.18,-11.585,21.927
43094030,-0.272,0.264,1.453,-9.642,-27.527,-6.405
43094040,0.169,0.192,1.366,-51.59,-31.71,-24.08
43094050,0.373,-0.145,1.228,-85.662,-22.575,-31.605
43094060,0.318,-0.173,1.177,-112.052,-7.42,-21.665
43094070,0.265,-0.241,1.167,-133.577,2.94,-9.17
43094080,0.285,-0.386,1.229,-157.535,7.052,-0.542
43094090,0.291,-0.363,1.237,-183.767,10.202,18.672
43094100,0.278,-0.444,1.253,-204.802,4.637,45.22
43094110,0.35,-0.459,1.353,-224.245,-9.905,67.585
43094120,0.211,-0.267,1.408,-239.627,-36.382,105.332
43094130,0.463,-0.018,1.125,-264.862,-71.05,147.787
43094140,-0.3,-0.852,1.902,-332.955,-116.095,202.055
43094150,-0.939,-1.966,1.614,-378.787,-242.9,163.345
43094160,0.168,-1.988,0.761,-269.167,-264.88,172.9
43094170,-0.3,-1.973,-0.001,-174.825,-197.89,190.767
43094170,-0.901,-1.998,-0.356,-151.795,-141.12,158.305
43094190,0.095,-1.959,-0.123,-91.472,-97.492,159.425
43094190,0.388,-1.446,-0.14,-5.372,-61.092,153.072
43094210,0.546,-0.723,0.06,46.952,-27.335,131.477
43094210,0.869,-0.221,-0.003,58.555,-9.537,116.882
43094230,1.224,0.199,0.067,39.235,15.522,98.192
43094230,1.174,0.426,0.264,2.992,23.957,51.117
43094250,1.179,0.545,0.349,-17.412,24.36,-4.077
43094250,1.117,0.917,0.376,-6.562,24.062,-56.052
43094260,0.771,1.211,0.385,7.752,24.062,-108.92
43094270,0.317,1.109,0.323,10.5,15.067,-167.16
43094280,-0.05,1.063,0.188,16.852,0.63,-200.532
43094290,-0.208,0.865,-0.033,20.825,-7.245,-211.452
43094300,-0.712,0.608,-0.19,24.57,-10.115,-203.105
43094310,-1.082,0.478,-0.385,23.047,-21.752,-184.712
43094320,-1.275,0.212,-0.431,6.895,-44.66,-141.802
43094330,-1.231,-0.225,-0.482,-20.125,-73.22,-80.29
43094340,-1.237,-0.704,-0.469,-40.04,-105.297,-24.64
43094350,-1.157,-0.929,-0.647,-45.185,-141.102,1.82
43094360,-0.99,-1.169,-0.777,-15.032,-153.842,17.22
43094370,-1.197,-1.258,-0.433,16.45,-139.107,4.165
43094380,1.3,-1.75,1.616,-11.497,-0.315,-42.21
43094390,1.674,-1.998,0.073,17.22,400.697,-95.06
43094400,-1.617,0.357,-0.668,510.842,219.59,-289.852
43094410,1.085,1.997,1.763,537.967,176.872,-184.17
43094420,1.617,-1.042,-1.075,280.962,100.222,-1.96
43094430,1.965,-0.469,1.577,476.507,229.862,-3.185
43094440,-0.748,1.084,1.998,524.422,401.922,55.09
43094450,-1.487,1.997,1.246,275.94,236.477,76.475
43094460,-1.467,0.987,1.986,-92.977,19.652,59.377
43094470,-0.511,0.417,1.917,-281.767,-75.827,31.885
43094480,-0.069,-0.242,0.728,-306.547,-68.04,4.427
43094490,-0.277,-0.966,0.475,-225.715,-36.347,-29.96
43094500,0.155,-1.326,0.122,-214.375,-27.947,-83.3
43094510,0.792,-0.958,0.149,-140.56,-12.477,-74.445
43094510,0.508,-0.929,0.174,-71.785,-14.857,-20.16
43094530,0.244,-0.948,0.301,-6.895,-17.552,25.252
43094530,0.108,-0.64,0.588,52.815,-22.102,48.247
43094550,-0.051,-0.472,0.834,81.935,-23.572,54.162
43094550,-0.075,-0.23,0.985,91.84,-22.47,49.857
43094570,-0.188,-0.127,1.106,87.237,-18.41,38.307
43094570,-0.089,-0.185,1.096,73.342,-19.407,27.422
43094580,0.017,-0.134,1.135,58.765,-20.317,19.792
43094590,0.051,-0.131,1.12,44.485,-17.92,16.117
43094600,0.031,-0.233,1.019,29.505,-14.735,11.725
43094610,0.096,-0.3,0.938,25.48,-11.707,9.117
43094620,0.159,-0.374,0.906,29.085,-7.175,8.505
43094630,0.17,-0.336,0.946,36.592,1.172,8.032
43094640,0.172,-0.245,1.03,39.672,10.675,7.787
43094650,0.037,-0.146,1.092,34.002,17.797,8.505
43094660,-0.106,-0.066,1.121,20.09,17.657,7.017
43094670,-0.11,-0.094,1.128,0.892,10.78,1.872
43094680,-0.057,-0.015,1.174,-16.082,3.657,-0.997
43094690,0.049,-0.072,1.274,-41.3,-1.295,-4.462
43094700,-0.098,-0.043,1.383,-71.365,-5.792,-0.385
43094710,0.142,0,1.587,-116.427,-28.105,9.38
43094720,-0.004,0.017,1.569,-168.927,-55.895,24.727
43094730,0.081,0.109,1.412,-215.495,-82.967,38.447
43094740,-0.107,0.045,1.364,-259,-98.385,49.507
43094750,-0.293,-0.034,1.342,-295.802,-105.7,48.387
43094760,-0.406,0.007,1.191,-324.765,-111.492,34.807
43094770,-0.666,-0.267,1.307,-338.047,-124.915,17.447
43094780,-0.783,-0.941,1.542,-340.795,-168.472,-4.27
43094790,-0.373,-1.558,1.276,-298.165,-238.875,-29.19
43094800,0.223,-1.419,1.246,-229.372,-264.792,-33.635
43094810,0.89,-1.232,1.09,-166.635,-171.745,-13.632
43094820,0.579,-1.199,0.839,-110.39,-26.862,-10.605
43094830,0.482,-1.644,0.895,-47.46,114.992,-0.35
43094840,-0.357,-1.123,1.133,42.507,191.852,2.887
43094850,0.334,-0.807,0.576,125.055,248.08,14.822
43094860,0.201,-0.36,0.221,160.947,302.032,9.677
43094870,-0.32,-0.134,-0.094,177.467,322.77,-9.957
43094880,-0.64,0.123,-0.4,186.707,313.425,-32.62
43094890,-0.741,0.364,-0.465,157.36,281.487,-38.377
43094900,-0.602,0.462,-0.481,93.8,229.407,-37.467
43094910,-0.192,0.428,-0.51,53.865,182.052,-35.56
43094920,-0.033,0.41,-0.655,65.59,151.217,-28.525
43094920,-0.19,0.544,-0.919,85.785,130.9,-17.325
43094940,-0.281,0.645,-1.092,89.547,105.612,-5.897
43094940,-0.223,0.445,-1.168,63.962,74.287,1.697
43094960,-0.015,0.009,-1.263,34.37,49.507,0.157
43094960,0.05,-0.286,-1.329,29.19,34.842,-6.02
43094980,-0.054,-0.392,-1.205,24.36,13.072,-17.955
43094980,0.087,-0.602,-1.043,-4.287,-14.962,-34.807
43095000,-0.832,-0.849,0.81,-37.905,-74.13,-46.567
43095000,-0.106,-1.998,0.858,118.65,-386.697,-280.385
43095010,1.061,0.556,0.318,560.717,-59.115,-359.677
43095020,-0.817,1.997,-0.359,567.875,-6.16,94.745
43095030,1.998,-1.264,1.998,446.11,42.367,-24.202
43095040,-1.037,0.712,-0.242,465.43,317.59,94.237
43095050,1.401,0.383,1.377,264.11,73.5,309.33
43095060,-1.807,-1.959,0.987,-421.732,-67.095,101.622
43095070,0.02,-0.723,0.734,-179.847,-89.792,0.962
43095080,-0.018,-0.662,0.64,-103.757,-51.257,-18.987
43095090,0.655,-0.75,0.639,-56.245,-42.875,-42.157
43095100,0.588,-0.761,0.739,-5.372,-17.097,-6.667
43095110,-0.092,-0.282,0.838,37.012,3.185,19.46
43095120,-0.107,-0.616,0.774,55.93,5.075,19.145
43095130,0.341,0.159,1.458,88.41,11.042,9.992
43095140,-0.187,1.231,1.317,49.892,16.502,17.377
43095150,-0.381,-0.518,0.931,-35.77,-3.307,7.507
43095160,0.005,-0.252,0.948,-30.187,-14.402,-5.775
43095170,0.172,-0.125,1.043,-23.17,-10.972,-7.63
43095180,0.314,-0.235,1.001,-24.027,-1.12,-9.765
43095190,0.053,-0.334,0.944,-16.17,12.792,-6.212
43095200,-0.022,-0.125,1.018,-8.802,18.095,-8.312
43095210,0.083,-0.046,1.134,-14.595,19.757,-14.647
43095220,0.109,-0.018,1.165,-28.367,25.515,-19.232
43095230,0.074,-0.054,1.235,-48.3,32.392,-22.067
43095240,0.139,-0.021,1.427,-81.13,35.927,-16.66
43095250,0.11,0.081,1.545,-126.332,47.355,0.262
43095260,-0.05,0.129,1.537,-185.832,51.835,15.977
43095260,0.003,0.041,1.536,-248.727,42.035,25.515
43095280,0.24,-0.06,1.519,-296.817,38.885,36.47
43095280,0.121,-0.258,1.617,-321.545,39.672,57.085
43095300,0.5,-0.254,1.442,-329.805,39.987,65.345
43095300,0.5,-0.43,1.209,-328.667,38.15,94.99
43095320,-1.394,-1.677,1.539,-389.165,-16.432,120.067
43095320,-1.372,-1.998,1.801,-401.415,-127.137,73.535
43095330,0.767,-1.998,0.729,-256.567,-175.052,42.455
43095340,1.575,-1.998,-0.184,-55.685,-61.18,72.607
43095350,1.06,-1.625,-0.161,46.532,89.985,64.715
43095360,0.431,-0.806,-0.853,35.14,106.12,-35.77
43095370,0.321,-0.394,-0.308,-43.487,85.522,-103.25
43095380,0.482,-0.204,0.094,-105.577,60.55,-142.065
43095390,0.627,0.16,0.298,-97.86,60.007,-149.38
43095400,0.181,0.646,0.365,-63.945,57.837,-119.84
43095410,-0.132,1.354,0.247,-14.402,22.452,-81.97
43095420,-0.04,1.917,0.242,17.622,-26.88,-38.552
43095430,-0.048,1.918,0.311,14.875,-75.39,-1.225
43095440,0.042,1.474,0.337,4.935,-110.162,15.837
43095450,0.073,1.022,0.268,21.63,-124.897,18.462
43095460,-0.067,0.732,0.101,52.22,-130.48,10.99
43095470,-0.215,0.426,0.001,64.627,-133.455,-3.815
43095480,-0.359,0.024,-0.221,60.007,-137.112,-22.417
43095490,-0.455,-0.169,-0.459,60.602,-137.777,-39.357
43095500,-0.69,-0.237,-0.679,45.22,-140.665,-50.995
43095510,-0.992,-0.29,-0.776,2.485,-154.402,-56.105
43095520,-1.115,-0.636,-0.529,-55.387,-174.737,-52.517
43095530,-1.147,-0.727,-0.743,-128.695,-194.88,-47.285
43095540,-0.983,-1.207,-0.596,-96.32,-195.615,-49.805
43095550,-0.985,-0.959,-0.466,5.495,-165.06,-53.62
43095560,-0.408,-0.986,0.457,58.257,-116.865,-97.352
43095570,1.983,-1.768,1.909,-53.147,224.927,-110.372
43095580,-1.204,-1.65,-1.989,367.937,348.18,-226.432
43095590,-1.515,1.997,0.965,573.37,86.345,-264.127
43095600,1.998,1.814,0.009,507.675,10.745,-116.672
43095610,1.504,-1.798,1.321,284.13,397.95,1.872
43095620,-1.787,0.411,0.571,448.052,497.35,27.212
43095630,0.122,1.162,1.132,358.19,125.965,95.9
43095640,-0.882,-1.972,0.838,-362.215,-52.972,105
43095650,0.038,-0.515,1.036,-164.78,-91.245,20.545
43095660,-0.029,0.149,1.025,-125.002,-71.05,18.637
43095670,0.232,-0.888,0.629,-162.05,-61.092,-10.307
43095670,0.721,-1.169,0.18,-110.6,-27.562,-2.415
43095690,0.102,-0.817,0.379,-52.727,-14.367,9.625
43095690,0.431,-0.834,0.482,-5.547,-15.365,28.857
43095710,0.344,-0.585,0.692,41.195,-14.105,49.017
43095710,0.135,-0.255,0.93,71.697,-5.355,66.622
43095720,-0.093,-0.073,1.123,78.89,4.305,68.53
43095730,-0.316,0.13,1.223,70.945,11.935,53.112
43095740,-0.457,0.088,1.226,44.765,9.205,23.275
43095750,0.018,-0.049,1.192,11.917,-6.545,-1.505
43095760,0.297,-0.222,1.018,-10.307,-11.042,-7.035
43095770,0.066,-0.385,0.842,-11.112,-2.642,-3.482
43095780,0.016,-0.429,0.807,0.735,1.627,-3.832
43095790,0.158,-0.352,0.887,15.067,4.34,-5.425
43095800,0.053,-0.217,0.974,24.622,8.417,-3.22
43095810,0.012,-0.211,1.004,21.91,8.452,-3.307
43095820,-0.024,-0.125,1.062,15.942,5.862,-4.322
43095830,-0.014,-0.094,1.079,4.952,0.402,-3.027
43095840,-0.112,-0.116,1.105,-6.947,-6.282,-0.42
43095850,-0.101,-0.032,1.159,-21.735,-15.732,-1.557
43095860,-0.033,-0.034,1.289,-44.205,-25.655,-3.727
43095870,0.014,0.107,1.485,-72.292,-30.327,-5.18
43095880,0.071,0.135,1.624,-120.802,-26.617,-7.927
43095890,-0.066,0.067,1.697,-182.42,-33.74,-7.332
43095900,0.103,0.124,1.499,-244.685,-60.48,0.245
43095910,0.127,0.19,1.522,-305.532,-75.407,14.122
43095920,-0.035,0.211,1.32,-363.405,-87.955,23.31
43095930,-0.39,-0.05,1.37,-397.145,-103.897,33.6
43095940,-0.998,-0.84,1.536,-428.4,-159.757,33.617
43095950,-1.566,-1.799,1.989,-464.975,-303.082,29.435
43095960,-1.182,-1.998,0.473,-413.262,-486.832,11.042
43095970,-0.209,-1.998,1.018,-233.852,-452.042,26.53
43095980,-0.631,-1.982,-0.555,-65.695,-288.33,121.537
43095990,-0.273,-0.643,0.332,68.67,-97.51,164.675
43096000,-0.608,-0.348,0.739,37.712,118.632,152.53
43096010,-0.269,-0.885,0.372,14.612,194.355,72.835
43096010,0.039,-0.603,0.268,70.84,227.272,70.612
43096030,-0.022,0.383,0.396,110.862,242.025,93.957
43096030,0.181,0.961,0.582,87.395,232.557,77.7
43096050,0.151,1.011,0.643,53.41,229.565,62.895
43096050,0.231,0.95,0.703,79.135,226.03,38.255
43096070,0.087,1.067,0.634,126.962,207.48,14.052
43096070,-0.059,1.182,0.345,162.242,176.872,-5.95
43096080,-0.022,1.119,-0.068,176.435,149.467,-13.702
43096090,0.019,0.895,-0.408,168.245,130.077,-15.505
43096100,-0.111,0.607,-0.554,134.207,107.905,-20.667
43096110,-0.007,0.296,-0.579,83.352,76.002,-27.3
43096120,0.358,-0.037,-0.389,28.84,46.007,-35.42
43096130,0.699,-0.546,-0.161,-24.377,21.14,-48.16
43096140,0.988,-1.124,0.148,-52.675,-7.542,-63.857
43096150,1.41,-1.537,0.13,-41.405,-21,-69.667
43096160,1.288,-1.22,-0.318,12.407,-25.882,-52.92
43096170,0.759,-0.787,-0.767,41.265,-60.952,-38.482
43096180,0.017,-0.175,-0.635,11.935,-121.747,7.297
43096190,0.607,-0.995,0.082,105.752,-153.51,-46.357
43096200,-0.235,-1.998,1.624,-72.887,-225.067,-127.05
43096210,0.889,-1.925,0.29,235.287,-284.34,-242.287
43096220,1.975,1.747,-1.035,573.142,10.482,-48.37
43096230,-0.088,1.995,1.69,496.895,-37.607,33.372
43096240,-0.191,-1.38,0.265,324.817,-83.632,-76.965
43096250,1.627,-0.641,1.944,442.645,164.902,-220.045
43096260,0.218,1.997,1.794,413.315,228.007,-155.802
43096270,-1.559,1.28,1.412,117.425,102.13,-6.545
43096280,-0.642,1.277,1.661,-49.192,-14.822,51.975
43096290,0.164,-0.626,1.379,-142.24,-49.245,40.477
43096300,0.43,-0.47,0.379,-171.675,-5.932,-0.857
43096310,-0.01,-1.641,0.383,-130.585,12.88,-5.512
43096320,0.375,-0.922,0.481,-56.752,8.417,-4.515
43096330,0.24,-0.48,0.736,11.917,9.94,16.1
43096340,-0.111,-0.307,0.892,41.632,12.495,28.472
43096350,-0.279,-0.156,1.076,51.047,8.767,19.337
43096360,-0.136,0.004,1.112,40.022,1.697,2.065
43096370,0.015,-0.039,1.114,23.975,-8.172,-7.822
43096370,0.071,-0.073,1.101,9.292,-12.512,-10.605
43096390,0.102,-0.027,1.105,-3.815,-12.057,-9.502
43096390,0.027,-0.133,1.057,-16.73,-11.042,-8.505
43096410,0.174,-0.202,1.026,-26.442,-8.295,-12.792
43096410,0.319,-0.207,1.02,-30.852,1.33,-13.44
43096420,0.227,-0.238,1.001,-32.9,20.02,-11.742
43096430,0.102,-0.237,0.967,-26.775,40.145,-18.532
43096440,0.017,-0.241,0.959,-21.63,47.127,-28.525
43096450,0.066,-0.223,1.059,-18.165,52.762,-35.35
43096460,0.173,-0.128,1.206,-27.597,54.092,-32.795
43096470,0.172,-0.064,1.262,-52.01,56.542,-22.05
43096480,0.197,-0.11,1.328,-88.9,54.355,-11.392
43096490,0.206,-0.157,1.441,-133.49,48.37,2.922
43096500,0.239,-0.097,1.546,-187.617,38.062,27.09
43096510,0.287,-0.029,1.619,-248.5,25.62,58.345
43096520,0.351,-0.268,1.629,-300.492,30.292,92.505
43096530,0.2,-0.615,1.624,-313.53,45.622,118.335
43096540,-0.156,-0.876,0.855,-345.607,48.055,133.962
43096550,-1.621,-1.998,1.729,-418.827,65.642,188.965
43096560,-1.992,-1.998,-0.716,-382.27,-24.132,198.94
43096570,-1.998,-1.998,0.224,-204.085,-31.955,252.472
43096580,0.461,-1.998,-0.158,-159.057,-61.442,259.892
43096590,1.998,-1.998,0.016,-92.295,135.887,260.802
43096600,1.709,-1.413,0.618,-163.327,271.46,180.915
43096610,1.296,-0.572,1.374,-248.867,250.582,-29.837
43096620,1.657,0.592,1.798,-255.202,202.09,-146.282
43096630,0.941,1.89,1.765,-194.635,157.412,-149.572
43096640,-0.15,1.997,1.818,-103.407,64.085,-109.795
43096650,-0.077,1.997,1.987,-60.777,-70.612,-58.467
43096660,1.01,1.997,1.791,-85.26,-157.01,9.8
43096670,1.375,1.997,1.36,3.727,-166.932,75.215
43096680,1.066,1.997,1.123,156.975,-168.052,97.597
43096690,0.946,1.657,0.903,214.375,-201.005,89.512
43096700,1.103,0.216,0.347,233.765,-230.772,62.405
43096710,1.344,-0.652,0.044,287.577,-226.712,15.295
43096720,1.142,-0.808,-0.235,309.732,-206.395,-51.625
43096730,0.795,-1.366,-0.624,263.095,-169.61,-115.955
43096740,-0.038,-1.771,-0.913,199.167,-152.74,-164.99
43096750,-0.998,-1.679,-0.842,108.132,-200.375,-188.615
43096760,-1.522,-1.829,-0.927,-33.477,-286.702,-147.805
43096760,-1.159,-1.998,-0.829,-85.312,-336.262,-58.502
43096780,-0.877,-1.998,-0.661,-119.245,-358.575,-10.832
43096780,-0.842,-1.995,-0.622,-143.465,-367.465,-18.62
43096800,-0.695,-1.826,-0.871,-92.155,-348.792,-6.125
43096800,-1.122,-1.174,-0.796,53.795,-305.795,69.002
43096820,1.071,0.037,1.203,108.36,-185.412,84.717
43096820,-0.063,-1.933,0.703,-51.537,420.892,294.98
43096830,-1.998,-0.264,-0.754,496.825,131.635,302.19
43096840,-1.969,1.997,0.86,573.37,-39.2,57.662
43096850,1.525,-0.027,0.781,485.66,48.72,-141.837
43096860,0.967,-1.155,0.899,354.375,107.432,-221.375
43096870,-1.089,1.937,0.118,216.387,170.817,10.29
43096880,-0.275,-1.553,1.344,-228.725,31.255,35.28
43096890,-1.731,0.164,1.929,-218.575,-15.995,66.657
43096900,-0.283,0.379,0.617,-238.122,1.015,24.587
43096910,-0.506,-1.24,-0.347,-235.795,26.355,-42.14
43096920,0.285,-1.433,-0.241,-132.825,19.915,-42.455
43096930,0.183,-1.407,0.114,-32.76,19.32,-50.067
43096940,0.412,-0.935,0.215,27.387,7.21,-23.765
43096950,0.12,-0.715,0.711,77.7,-11.427,5.565
43096960,0.136,-0.188,1.129,100.222,-28.525,17.255
43096970,0.151,0.113,1.39,86.275,-24.045,19.145
43096980,0.192,0.117,1.478,47.022,-8.837,11.007
43096990,0.246,0.295,1.649,9.257,-0.157,7.752
43097000,0.089,0.091,1.413,-50.207,14.875,5.46
43097010,0.002,-0.232,0.998,-91.21,31.815,-3.692
43097020,0.014,-0.367,0.847,-97.597,36.417,-6.615
43097030,0.051,-0.499,0.86,-91.892,32.165,-6.23
43097040,0.029,-0.503,0.923,-80.395,26.635,-3.832
43097050,-0.03,-0.44,0.947,-69.825,22.715,0
43097060,-0.072,-0.299,1.003,-53.655,22.942,1.785
43097070,-0.213,-0.09,1.258,-43.96,19.46,-1.942
43097080,-0.406,0.036,1.361,-97.177,-5.127,-10.587
43097080,-0.016,-0.107,1.171,-184.45,-39.235,-14.28
43097100,0.007,-0.276,1.304,-235.112,-59.027,-4.672
43097100,0.069,-0.182,1.195,-263.952,-82.95,-0.577
43097120,0.205,-0.34,1.051,-279.125,-87.99,17.482
43097120,0.107,-0.532,1.048,-279.825,-77.332,36.592
43097140,-0.084,-0.758,1.261,-278.6,-80.762,48.195
43097140,-0.205,-0.967,1.834,-273.962,-110.162,54.897
43097160,-0.14,-1.708,1.982,-255.465,-149.887,46.025
43097160,0.353,-1.974,1.696,-190.837,-137.62,36.82
43097170,-0.559,-1.36,1.821,-54.495,-82.477,47.355
43097180,-0.126,-0.359,0.077,128.835,-73.727,101.99
43097190,0.958,-0.181,1.139,165.672,74.515,201.127
43097200,0.219,-0.083,0.382,169.942,74.462,182.682
43097210,0.305,0.766,-0.197,233.1,75.18,152.547
43097220,0.376,1.477,-0.314,204.435,70.315,118.737
43097230,0.229,1.24,-0.083,126.98,45.517,37.502
43097240,0.032,0.822,0.044,50.767,16.94,-35.945
43097250,-0.039,0.525,0.236,22.977,-1.872,-82.722
43097260,-0.027,0.076,0.26,38.132,-4.812,-120.645
43097270,-0.288,-0.29,0.141,72.87,11.2,-140.175
43097280,-0.808,-0.38,-0.127,96.267,31.062,-127.785
43097290,-0.932,-0.517,-0.443,104.65,38.605,-119.647
43097300,-0.793,-0.726,-0.672,85.452,54.617,-98.122
43097310,-0.594,-0.918,-0.765,53.917,81.917,-76.387
43097320,-0.456,-1.102,-0.825,31.395,98.682,-67.287
43097330,-0.17,-1.285,-0.998,22.102,103.565,-65.73
43097340,-0.102,-1.126,-1.315,25.252,109.357,-51.782
43097350,-0.114,-1.383,-1.022,49.315,97.16,-74.357
43097360,-1.131,-1.988,1.551,26.075,-87.885,-205.45
43097370,1.969,-1.867,-0.354,414.347,-97.58,-474.967
43097380,-1.787,1.723,-1,571.987,205.292,-62.755
43097390,1.361,0.86,0.882,488.162,-20.825,-62.527
43097400,1.813,-1.787,1.998,360.412,115.377,39.69
43097410,-1.554,1.96,0.342,472.57,310.117,74.147
43097420,-0.485,0.66,1.631,92.697,76.422,137.2
43097430,-1.524,-0.811,1.182,-278.897,-70.595,43.82
43097440,0.854,-0.919,0.812,-191.835,-93.537,-12.687
43097450,0.198,-0.939,0.577,-128.117,-56,-21.332
43097460,0.749,-0.853,0.616,-35.367,-27.457,-28.42
43097470,0.435,-0.79,0.7,-19.862,-1.785,3.797
43097480,-0.12,-0.136,1.003,29.26,11.147,32.095
43097490,-0.381,-0.022,1.088,15.837,5.967,29.627
43097500,-0.238,-0.136,1.008,5.95,-4.987,11.007
43097510,0.139,-0.156,1.082,-4.007,-12.862,-2.747
43097510,0.206,-0.073,1.125,-9.012,-7.402,0.84
43097530,0.069,-0.101,1.167,-27.335,-3.622,12.617
43097530,-0.142,0.077,1.16,-48.212,-5.232,20.247
43097550,0.097,-0.152,1.159,-69.79,-10.99,13.02
43097550,0.015,-0.193,1.13,-83.58,-7.77,4.865
43097570,0.087,-0.119,1.219,-96.32,-4.252,1.05
43097570,0.08,-0.104,1.296,-118.212,0.7,-1.417
43097580,0.08,-0.157,1.305,-145.425,4.882,-0.735
43097590,0.102,-0.229,1.219,-177.957,8.4,6.44
43097600,0.121,-0.282,1.165,-202.352,7.997,18.795
43097610,0.131,-0.284,1.198,-218.872,2.87,33.25
43097620,0.128,-0.321,1.176,-226.747,1.102,48.055
43097630,0.098,-0.257,1.193,-222.88,-1.54,54.127
43097640,0.053,-0.346,1.116,-247.24,-5.337,65.135
43097650,-0.148,-0.77,1.695,-256.13,-20.037,77.612
43097660,-0.152,-1.816,1.775,-260.207,-74.165,63.997
43097670,0.278,-1.998,1.318,-187.915,-114.152,33.337
43097680,0.321,-1.998,1.379,-94.692,-82.6,42.297
43097690,0.649,-1.953,0.724,100.485,-46.357,31.587
43097700,0.796,-0.772,-0.247,291.427,25.55,62.492
43097710,-0.064,-0.228,-0.363,251.772,64.452,64.697
43097720,-0.158,-0.593,-0.189,177.03,20.667,-0.787
43097730,-0.049,-0.68,-0.151,138.722,-3.85,-13.93
43097740,0.193,-0.237,-0.353,144.707,-4.322,-9.695
43097750,-0.057,0.394,-0.538,126.7,-0.07,0.98
43097760,-0.325,0.812,-0.611,79.922,-6.247,18.165
43097770,-0.262,0.908,-0.434,20.107,-17.237,28.84
43097780,-0.033,0.744,-0.224,-38.762,-17.692,25.445
43097790,0.026,0.583,-0.057,-73.325,-1.715,13.177
43097800,-0.203,0.481,-0.006,-76.947,13.23,-3.587
43097810,-0.485,0.448,-0.025,-68.285,9.222,-26.092
43097820,-0.536,0.318,-0.091,-72.047,-9.292,-54.075
43097830,-0.515,0.118,-0.238,-81.27,-27.51,-82.302
43097830,-0.673,0.11,-0.404,-84,-42.805,-106.155
43097850,-0.872,0.113,-0.439,-100.117,-63.402,-122.78
43097850,-0.757,-0.435,-0.536,-147.297,-87.36,-118.86
43097870,-0.915,-0.346,-0.652,-101.972,-88.567,-81.182
43097870,-0.275,-1.09,1.008,39.077,-62.51,-131.757
43097890,0.916,-1.998,-0.788,63.315,-22.155,-282.59
43097890,-0.597,0.763,-0.448,555.887,175.822,-157.535
43097910,-0.449,1.958,1.433,457.38,26.635,-53.042
43097910,1.77,-1.598,0.495,217.472,6.527,7.175
43097920,0.181,-0.098,1.998,426.125,256.27,74.322
43097930,-1.998,1.997,1.425,331.782,228.987,127.085
43097940,-0.77,0.49,1.629,-68.53,10.727,98.63
43097950,-0.92,0.213,1.432,-188.422,-72.432,32.952
43097960,0.406,-0.837,0.635,-191.677,-73.097,1.032
43097970,0.257,-1.17,0.539,-109.83,-39.235,-16.292
43097980,0.372,-1.044,0.403,-69.142,-16.677,-23.485
43097990,0.494,-0.752,0.456,-19.215,-4.585,6.002
43098000,-0.054,-0.589,0.762,30.012,-2.502,35.367
43098010,-0.19,-0.121,1.08,49.035,-3.237,40.582
43098020,-0.175,0.092,1.234,40.775,-3.447,27.247
43098030,0.02,-0.051,1.151,14.245,-5.967,12.897
43098040,0.096,-0.114,1.13,-1.68,-6.44,8.89
43098050,0.124,-0.08,1.213,-20.002,-7.805,15.12
43098060,0.051,0.048,1.237,-45.08,-9.835,20.65
43098070,0.301,-0.238,1.088,-73.185,-11.13,17.78
43098080,0.131,-0.303,1.05,-78.26,1.312,18.917
43098090,0.03,-0.246,1.11,-86.275,11.357,11.69
43098100,-0.051,-0.086,1.25,-100.59,16.345,8.242
43098110,-0.085,-0.006,1.296,-125.247,18.392,5.337
43098120,-0.018,-0.073,1.284,-159.477,15.592,2.205
43098130,0.03,-0.225,1.196,-193.095,13.055,6.755
43098140,-0.007,-0.272,1.169,-209.65,8.627,18.445
43098150,-0.058,-0.207,1.202,-220.675,-1.68,31.412
43098160,-0.192,-0.251,1.232,-245.402,-18.515,46.69
43098170,-0.163,-0.379,1.246,-275.187,-40.425,55.667
43098180,-0.266,-0.709,1.289,-286.755,-62.667,70.42
43098190,-0.338,-1.143,1.426,-277.2,-93.572,66.605
43098200,-0.008,-1.392,1.178,-257.932,-122.692,54.845
43098210,0.562,-1.516,0.962,-213.727,-115.22,53.06
43098220,0.128,-1.64,0.217,-165.585,-74.707,85.207
43098230,-0.461,-1.983,0.849,-137.2,-47.565,72.555
43098240,-1.33,-1.998,0.887,-111.055,-78.977,80.972
43098250,0.659,-1.705,0.622,25.585,-78.767,117.547
43098260,1.238,-0.601,-0.075,162.207,-29.785,146.58
43098260,0.675,0.326,-0.238,196.245,12.005,103.005
43098280,0.214,0.617,-0.232,147.315,17.29,33.915
43098280,0.289,0.486,-0.174,95.287,0.542,-28.507
43098300,0.307,0.447,-0.311,75.617,-8.855,-68.197
43098300,0.203,0.624,-0.478,82.372,1.12,-98.595
43098320,-0.052,0.7,-0.432,66.255,18.41,-114.52
43098320,-0.357,0.427,-0.415,19.95,24.115,-123.165
43098330,-0.495,0.109,-0.343,-13.09,19.302,-124.005
43098340,-0.561,-0.081,-0.18,-28.962,15.102,-116.287
43098350,-0.655,-0.401,-0.053,-42.805,11.27,-107.765
43098360,-0.645,-0.62,-0.153,-35.56,10.167,-99.575
43098370,-0.786,-0.424,-0.238,-7.087,11.742,-89.442
43098380,-0.829,-0.425,-0.298,4.48,14.21,-79.012
43098390,-0.788,-0.403,-0.363,0.717,25.76,-61.11
43098400,-0.849,-0.44,-0.271,23.047,39.637,-41.282
43098410,-0.835,-0.434,-0.498,39.48,46.287,-24.447
43098420,-0.915,-1.416,1.932,12.81,8.697,-58.292
43098430,1.94,-1.998,-1.06,159.582,-241.657,-353.867
43098440,0.16,0.583,-0.384,563.097,82.022,-216.265
43098450,0.432,1.878,0.69,468.195,14.542,-76.58
43098460,1.891,0.005,0.911,330.032,5.092,-69.037
43098470,1.874,0.448,1.998,432.46,212.03,35.875
43098480,-1.018,0.842,1.998,331.695,306.127,95.235
43098490,-1.642,1.983,1.804,153.3,153.457,154.052
43098500,-1.227,0.486,1.644,-58.607,-1.452,126.595
43098510,-0.785,-0.119,1.316,-147.052,-55.44,37.782
43098520,-0.069,-0.51,0.718,-151.217,-45.395,-22.732
43098530,0.211,-0.944,0.394,-131.442,-26.285,-58.8
43098540,0.56,-1,0.359,-68.442,-12.95,-44.467
43098550,0.536,-0.787,0.498,-9.642,-5.267,-3.307
43098560,0.015,-0.712,0.613,32.725,-1.61,31.01
43098570,-0.209,-0.308,0.947,63.56,-4.252,40.6
43098580,-0.185,0.119,1.243,68.075,-4.76,28.227
43098580,0,-0.022,1.182,38.587,-7.892,8.295
43098600,0.134,-0.047,1.173,15.645,-9.695,2.607
43098600,-0.013,-0.054,1.221,-2.817,-8.925,7.332
43098620,-0.091,-0.014,1.142,-27.58,-10.99,5.215
43098620,-0.064,-0.284,1.012,-48.387,-15.365,-5.442
43098640,0.22,-0.299,0.969,-50.732,-13.492,-11.287
43098640,0.174,-0.302,1.021,-48.842,-5.74,-10.587
43098660,0.082,-0.179,1.12,-51.065,-2.905,-4.252
43098660,0.163,-0.132,1.166,-69.142,-6.387,1.61
43098670,0.006,-0.17,1.215,-91.577,-7.402,6.09
43098680,-0.045,-0.158,1.205,-118.142,-18.305,8.925
43098690,-0.058,-0.146,1.188,-147.087,-36.102,12.425
43098700,-0.04,-0.147,1.196,-173.985,-56.21,18.147
43098710,-0.001,-0.13,1.151,-198.572,-75.775,27.072
43098720,-0.014,-0.144,1.092,-217.98,-91.805,33.845
43098730,-0.038,-0.19,0.992,-229.547,-101.115,37.03
43098740,0.01,-0.371,0.94,-238.647,-105.752,35.612
43098750,0.059,-0.572,0.825,-247.397,-104.02,28.63
43098760,-0.236,-0.745,1.032,-238.157,-109.095,23.432
43098770,-0.434,-1.194,1.212,-210.035,-157.692,3.867
43098780,-0.302,-1.482,1.277,-175.735,-218.855,-23.397
43098790,0.044,-1.59,0.901,-117.407,-234.01,-49.472
43098800,0.903,-1.995,0.51,-59.99,-153.422,-81.69
43098810,1.488,-1.998,0.131,2.94,-21.997,-83.265
43098820,0.496,-1.463,-0.109,105.14,94.867,-68.512
43098830,-0.912,-0.818,0.161,118.965,167.51,-51.537
43098840,-0.767,-0.949,0.056,120.715,144.602,-68.075
43098850,-0.417,-0.724,-0.062,122.657,135.205,-63.892
43098860,-0.671,-0.187,-0.099,129.272,134.207,-35.455
43098870,-0.783,0.386,-0.184,105.175,136.325,-4.882
43098880,-0.634,0.8,-0.101,62.632,138.915,36.312
43098890,-0.463,0.697,0.101,27.877,130.41,60.532
43098900,0.142,0.659,-0.006,40.18,133.857,57.242
43098910,0.291,1.069,-0.288,80.08,155.242,53.76
43098920,-0.264,1.367,-0.333,82.022,151.095,39.462
43098930,-0.352,1.128,-0.27,40.355,103.582,-0.07
43098940,0.084,0.313,-0.338,2.257,57.96,-23.415
43098950,-0.058,0.726,-0.843,34.44,57.347,5.302
43098960,-1.33,-0.359,1.073,93.572,-11.847,-85.417
43098970,1.101,-1.998,0.614,180.127,-244.387,-384.807
43098980,-0.382,0.237,-0.782,550.917,202.037,-230.72
43098990,-0.021,1.997,1.334,507.202,60.637,-21.192
43099000,1.961,-0.747,1.723,222.582,27.037,43.505
43099000,-1.396,0.28,1.927,281.067,198.135,133.805
43099010,-1.849,1.849,1.544,166.267,128.782,217.7
43099020,-1.19,-0.311,1.478,-139.965,-33.215,105.682
43099030,-0.399,0.231,1.298,-142.012,-62.212,53.742
43099040,0.132,-1.014,0.661,-171.605,-53.585,1.907
43099050,0.011,-0.365,0.466,-113.505,-28.927,-5.915
43099060,0.311,-0.943,0.523,-59.78,-25.9,-14.805
43099070,0.202,-0.848,0.411,-28.42,-16.905,10.552
43099080,0.107,-0.59,0.742,30.292,-12.372,13.965
43099090,0.103,-0.274,0.992,46.147,-6.055,24.185
43099100,-0.016,0.002,1.202,50.242,1.015,25.287
43099110,-0.084,-0.116,1.118,25.655,3.08,18.637
43099120,-0.123,-0.02,1.171,10.43,0.77,12.145
43099130,-0.193,0.025,1.288,-8.207,-3.885,6.825
43099140,-0.127,0.033,1.138,-40.267,-9.275,-4.392
43099150,0.042,-0.339,0.996,-64.732,-13.597,-19.46
43099160,0.186,-0.282,0.932,-60.06,-6.79,-21.857
43099170,0.164,-0.337,1.004,-56.962,0.35,-22.312
43099180,0.165,-0.224,1.1,-58.415,10.43,-22.732
43099190,0.111,-0.209,1.15,-71.207,18.987,-24.57
43099200,0.132,-0.262,1.211,-93.362,24.08,-26.25
43099210,0.108,-0.23,1.263,-117.162,25.13,-17.045
43099220,-0.015,-0.201,1.293,-142.66,16.31,-2.642
43099230,-0.071,-0.161,1.332,-174.247,3.692,8.4
43099240,-0.099,-0.137,1.339,-202.58,-6.44,16.082
43099250,-0.156,-0.148,1.286,-232.855,-18.287,19.827
43099260,-0.103,-0.375,1.25,-257.302,-26.757,24.255
43099270,-0.244,-0.65,1.466,-268.152,-41.772,26.687
43099280,-0.218,-0.871,1.266,-266.927,-63.577,26.582
43099290,-0.305,-1.385,0.475,-235.76,-45.325,40.775
43099300,-0.347,-1.442,0.82,-202.51,-5.792,44.94
43099310,0.419,-1.485,-0.501,-151.725,63.77,71.487
43099320,-1.44,-1.343,0.662,-129.815,116.83,60.637
43099330,-1.45,-1.424,1.363,-161.315,68.215,60.095
43099330,-0.027,-1.141,1.434,-77.875,50.347,105.542
43099350,1.312,-0.003,1.306,39.357,94.71,150.815
43099350,1.39,1.19,0.991,97.02,143.832,131.495
43099370,1.038,1.947,0.909,117.617,136.29,59.745
43099370,0.986,1.997,0.841,132.195,79.45,-21.035
43099390,1.051,1.997,0.629,145.11,26.827,-89.355
43099390,0.889,1.784,0.28,171.412,13.632,-148.225
43099410,0.399,1.327,-0.109,205.87,28.997,-180.145
43099410,-0.168,0.466,-0.678,193.69,31.412,-205.66
43099420,-0.283,-0.676,-1.168,157.99,20.352,-229.407
43099430,-0.169,-1.482,-1.102,84.052,25.305,-211.68
43099440,-0.577,-1.975,-1.142,17.22,31.412,-169.54
43099450,-0.932,-1.95,-1.022,22.75,-1.61,-151.952
43099460,-1.913,-1.998,0.9,-13.265,-184.59,-193.777
43099470,1.796,-1.855,0.471,373.765,-132.597,-436.45
43099480,-1.512,1.658,-0.29,513.03,177.625,45.762
43099490,1.119,1.997,1.303,515.025,-24.5,-65.117
43099500,1.26,-0.995,0.172,198.415,-78.067,-5.932
43099510,1.763,-1.32,1.998,383.442,56.595,36.732
43099520,-0.977,1.996,1.285,413.315,221.847,42.035
43099530,-0.799,1.175,1.02,98.997,89.915,65.502
43099540,-1.069,0.49,1.594,-141.19,-41.615,27.37
43099550,-0.025,-0.414,1.256,-198.292,-83.755,9.327
43099560,0.541,-1.021,0.637,-199.43,-69.16,-17.377
43099570,0.106,-1.043,0.582,-103.88,-33.075,-21.402
43099580,0.566,-1.01,0.702,-86.187,-17.272,-21.98
43099590,0.454,-0.28,0.798,-42.315,-1.61,8.12
43099600,-0.009,-0.5,0.756,-31.902,4.672,35.857
43099610,-0.147,-0.424,0.726,-10.377,0.122,42.437
43099620,-0.126,-0.367,0.832,10.36,-4.987,40.005
43099630,-0.183,-0.118,1.01,24.64,-6.86,35.525
43099640,-0.146,-0.089,1.145,16.922,-9.012,20.142
43099650,-0.03,-0.029,1.191,0.157,-10.64,7.577
43099660,0.067,-0.013,1.242,-18.287,-9.1,4.252
43099670,0.105,-0.104,1.193,-45.78,-7.717,2.275
43099670,0.118,-0.172,1.1,-64.435,-2.432,1.225
43099690,0.121,-0.237,1.054,-74.445,6.247,-1.155
43099690,0.113,-0.334,0.97,-81.217,15.26,-3.465
43099710,0.11,-0.35,0.957,-79.03,23.31,-2.065
43099710,0.034,-0.356,0.938,-76.947,29.907,-1.557
43099730,0.075,-0.38,0.934,-76.37,34.23,-0.857
43099730,0.074,-0.376,0.967,-74.987,36.732,4.34
43099750,0.06,-0.372,1.069,-78.592,37.835,9.747
43099750,0.076,-0.335,1.171,-89.53,37.485,17.867
43099760,0.038,-0.293,1.209,-107.362,33.635,28.315
43099770,-0.037,-0.294,1.247,-127.977,22.872,39.655
43099780,-0.033,-0.253,1.298,-153.335,6.667,54.792
43099790,-0.2,-0.208,1.493,-180.372,-20.632,72.292
43099800,-0.627,-0.387,1.7,-219.59,-71.785,83.44
43099810,-1.31,-1.238,1.849,-230.055,-177.905,73.097
43099820,-0.477,-1.938,1.402,-189.542,-278.827,33.495
43099830,0.423,-1.998,1.469,-97.16,-290.5,33.075
43099840,1.457,-1.914,0.32,104.352,-199.78,63.927
43099850,1.754,-1.763,0.131,117.337,-35.77,86.31
43099860,0.481,-1.171,0.083,96.705,14.962,29.61
43099870,-0.087,-0.365,-0.109,115.867,31.727,-1.155
43099880,0.089,0.081,-0.354,100.187,13.895,-13.352
43099890,0.004,0.284,-0.335,62.755,-12.565,-17.517
43099900,0.108,0.377,-0.202,11.112,-32.725,-19.372
43099910,0.277,0.619,-0.099,-14.332,-48.072,-16.222
43099920,0.198,0.913,-0.047,-21.84,-64.155,-15.137
43099930,0.144,1.021,-0.031,-28.437,-82.267,-22.977
43099940,0.08,1.016,0.053,-33.46,-97.265,-36.067
43099950,-0.044,0.92,0.081,-30.887,-109.917,-51.012
43099960,-0.123,0.812,0.102,-24.132,-116.13,-62.16
43099970,-0.278,0.499,-0.015,-18.322,-112.14,-68.967
43099980,-0.598,0.429,-0.146,-11.515,-105,-61.075
43099990,-1.004,0.159,-0.123,-18.217,-99.557,-28.822
43100000,-1.073,-0.29,-0.155,-12.687,-112.297,-19.267
43100010,-1.235,-0.727,-0.068,-8.662,-135.52,4.795
43100020,-0.854,-1.314,-0.025,-1.225,-154.157,9.117
43100030,1.67,-1.998,1.998,28.612,70.7,-4.462
43100040,0.427,-1.727,-1.065,439.285,502.862,-111.352
43100050,-1.998,1.977,1.342,573.37,285.512,-73.132
43100060,1.485,0.552,1.725,424.987,93.187,-12.372
43100070,0.087,-1.283,1.652,212.24,257.88,13.807
43100080,-1.985,1.997,0.224,405.527,271.495,61.687
43100080,0.727,0.125,1.554,-17.727,30.852,81.515
43100100,-1.4,-0.044,1.807,-276.202,-79.222,32.69
43100100,0.631,0.292,1.537,-227.5,-86.117,46.812
43100120,-0.291,-0.933,0.661,-256.62,-43.435,-4.217
43100120,-0.105,-1.24,0.25,-209.195,-12.967,-44.345
43100140,0.273,-1.143,0.474,-166.565,-2.1,-77
43100140,0.685,-0.549,0.339,-111.947,2.712,-49.157
43100160,0.237,-0.864,0.173,-66.5,-6.545,-0.63
43100160,0.157,-0.971,0.338,-2.082,-12.477,23.467
43100170,0.234,-0.683,0.536,52.395,-14.7,37.415
43100180,0.203,-0.347,0.933,85.82,-11.165,47.827
43100190,0.058,-0.137,1.182,88.27,-2.782,48.51
43100200,-0.034,-0.076,1.223,66.22,3.202,44.012
43100210,-0.122,0.044,1.288,45.29,6.457,36.487
43100220,-0.204,-0.026,1.292,19.74,11.812,21.787
43100230,-0.244,-0.071,1.224,-6.265,15.855,0.28
43100240,-0.013,-0.095,1.206,-29.015,14.21,-19.442
43100250,0.173,-0.189,1.153,-52.92,17.237,-28.612
43100260,0.176,-0.22,1.115,-67.2,25.252,-25.567
43100270,0.141,-0.306,1.092,-84.945,27.632,-17.395
43100280,0.127,-0.331,1.105,-98.542,26.547,-8.225
43100290,0.055,-0.355,1.14,-111.492,23.835,0.805
43100300,-0.034,-0.327,1.177,-127.452,17.062,10.517
43100310,-0.089,-0.309,1.201,-148.505,4.48,25.41
43100320,-0.101,-0.213,1.301,-170.205,-10.465,40.915
43100330,-0.084,-0.124,1.311,-200.515,-26.372,50.172
43100340,-0.175,-0.344,1.345,-232.312,-40.6,65.222
43100350,-0.241,-0.647,1.338,-248.517,-59.115,76.387
43100360,-0.358,-0.921,1.433,-245.525,-89.88,77.087
43100370,-0.481,-1.229,1.262,-238.805,-150.657,70.437
43100380,-0.286,-1.839,1.045,-205.1,-188.002,62.457
43100390,-0.481,-1.825,0.91,-122.132,-189.507,84.402
43100400,-0.538,-1.759,0.84,-7.262,-170.135,93.222
43100410,0.057,-1.199,0.31,134.207,-103.81,146.615
43100420,0.423,-0.536,-0.135,214.462,-21.717,185.132
43100420,0.383,-0.324,-0.079,200.427,19.355,146.772
43100440,0.179,-0.484,-0.22,166.582,25.06,89.232
43100440,0.325,-0.458,-0.341,159.04,21.805,44.38
43100460,0.355,-0.257,-0.5,153.947,23.607,16.45
43100460,0.223,-0.042,-0.852,139.282,23.572,-7.892
43100480,-0.122,0.375,-0.944,114.94,14.385,-21.7
43100480,-0.443,0.665,-0.643,48.947,-12.425,-24.832
43100500,-0.41,0.477,-0.193,-40.757,-46.427,-24.99
43100500,-0.19,0.078,0.223,-85.82,-66.325,-20.072
43100510,-0.268,-0.124,0.353,-57.872,-68.197,-6.58
43100520,-0.383,0.194,0.105,11.672,-61.652,12.302
43100530,-0.51,0.725,-0.165,58.432,-57.645,40.425
43100540,-0.651,0.521,-0.061,46.357,-71.172,73.237
43100550,-0.658,0.244,-0.124,27.947,-90.002,119.437
43100560,-0.209,0.066,0.23,97.562,-112.227,98.507
43100570,-1.303,-1.385,1.307,107.03,-216.405,61.075
43100580,1.79,-1.998,-0.603,417.235,-108.132,-220.955
43100590,-1.564,1.412,0.739,572.407,139.072,19.005
43100600,1.716,1.199,1.839,453.932,193.182,-30.03
43100610,-1.32,1.047,1.41,292.005,225.872,60.235
43100620,-0.259,1.19,1.135,129.237,50.61,112.875
43100630,-0.041,-1.686,1.171,-199.955,-76.16,68.092
43100640,-0.697,-0.246,1.043,-112.525,-61.407,39.865
43100650,0.167,-1.127,0.742,-131.407,-53.515,-1.575
43100660,0.089,-0.288,0.624,-40.775,-36.907,-5.092
43100670,0.603,-0.873,0.782,-20.51,-27.072,-9.8
43100680,0.083,-0.208,0.932,18.392,1.715,19.862
43100690,-0.185,-0.104,1.057,23.485,0.91,29.96
43100700,-0.154,-0.137,0.993,7.682,-6.44,20.755
43100710,-0.033,-0.256,0.951,6.93,-10.692,7.105
43100720,0.216,-0.16,1.021,7.612,-11.655,0.315
43100730,0.125,-0.153,0.988,5.635,-5.67,4.62
43100740,0.038,-0.138,1.038,1.015,-6.23,9.17
43100750,-0.095,-0.193,0.991,-4.9,-6.51,6.737
43100760,0.079,-0.261,0.959,-10.237,-10.255,-1.977
43100770,0.229,-0.187,1.019,-11.217,-7.595,-5.477
43100780,0.134,-0.188,1.024,-13.632,-0.21,-1.697
43100790,0.095,-0.142,1.063,-21.175,3.395,-4.042
43100800,0.14,-0.185,1.114,-33.302,5.565,-7.525
43100810,0.242,-0.125,1.179,-44.135,6.562,-4.497
43100820,0.187,-0.25,1.219,-72.17,6.86,2.187
43100830,0.216,-0.117,1.333,-96.197,4.2,16.292
43100830,0.062,-0.063,1.236,-126.28,-2.73,31.045
43100850,-0.004,-0.121,1.2,-158.2,-16.047,38.22
43100850,-0.25,-0.053,1.202,-175.892,-26.372,40.057
43100870,-0.643,-0.033,1.194,-191.047,-37.87,33.617
43100870,-0.468,-0.21,1.091,-226.17,-45.902,4.952
43100890,-0.429,-0.434,1.072,-226.397,-35.822,-31.08
43100890,-0.397,-0.356,1.105,-203,-19.337,-63.91
43100910,-0.038,-0.246,1.112,-178.57,-2.187,-87.727
43100910,0.283,-0.511,1.222,-169.872,19.705,-95.76
43100920,-0.418,-1.583,1.022,-177.922,52.132,-101.99
43100930,-0.82,-1.942,0.959,-130.27,67.287,-101.85
43100940,-0.805,-1.951,0.439,-68.845,84.07,-95.76
43100950,-1.053,-1.821,0.804,-26.635,76.51,-93.537
43100960,-0.736,-1.242,1.12,-10.71,89.215,-70.28
43100970,-0.455,-0.815,0.619,46.69,99.75,-40.705
43100980,-0.89,0,0.169,86.275,92.26,-16.117
43100990,-1.215,0.799,0.06,90.02,64.872,19.81
43101000,-1.094,0.983,-0.057,50.592,17.937,63.717
43101010,-0.224,0.68,-0.477,19.635,9.747,99.907
43101020,0.368,1.077,-1.069,62.877,63.892,133.98
43101030,0.218,1.942,-1.633,120.522,130.375,161
43101040,0.029,1.997,-1.53,127.82,150.15,150.08
43101050,0.338,1.918,-1.093,64.697,91.735,96.827
43101060,0.012,1.162,-0.472,31.587,36.627,106.155
43101070,-1.211,-1.173,0.974,139.44,-238.21,-116.392
43101080,1.504,-1.998,0.916,422.45,-216.755,-494.235
43101090,-1.458,1.396,-0.988,554.155,124.705,-58.765
43101100,1.997,0.521,1.295,370.51,-62.702,-37.73
43101110,0.475,0.08,1.271,191.275,159.32,24.237
43101120,-0.62,1.896,1.255,223.667,134.89,289.59
43101130,-0.648,-1.276,0.968,-265.405,-55.737,240.012
43101140,-0.562,-0.78,0.859,-163.817,-91.262,164.727
43101150,-0.916,-1.08,0.519,-103.46,-55.685,84.962
43101160,-0.678,-0.262,0.739,-43.522,-40.635,1.225
43101170,0.617,-0.614,0.868,-29.242,-52.815,-27.037
43101170,0.58,-0.237,0.996,3.395,-34.685,-16.45
43101190,0.298,-0.092,1.098,15.417,-7.122,1.172
43101190,0.039,-0.34,0.909,-1.487,8.61,9.712
43101210,0.104,-0.148,1.091,4.935,12.285,7.157
43101210,0.053,0.033,1.232,-10.22,13.93,9.957
43101230,-0.066,0.034,1.29,-38.465,13.405,16.275
43101230,-0.021,0.173,1.51,-82.635,-4.917,20.632
43101250,0.368,-0.015,1.352,-133.455,-17.482,28.122
43101250,0.176,-0.359,1.187,-173.845,-15.207,39.06
43101260,-0.078,-0.402,1.094,-195.475,-27.65,60.27
43101270,0.002,-0.232,1.175,-201.477,-35.997,76.002
43101280,-0.068,-0.083,1.178,-205.572,-38.202,79.45
43101290,-0.201,-0.3,1.247,-218.417,-36.505,73.955
43101300,0.136,-0.804,1.392,-232.505,-22.417,66.43
43101310,0.298,-1.12,1.301,-204.522,9.537,64.05
43101320,-0.334,-1.744,0.818,-134.54,3.185,34.02
43101330,-1.255,-1.806,0.84,-75.722,19.46,26.075
43101340,-1.796,-1.967,0.526,-5.985,31.587,67.637
43101350,-1.293,-1.668,0.269,86.467,20.125,110.757
43101360,0.881,-1.214,0.169,85.942,57.61,158.69
43101370,1.41,-1.171,0.004,69.527,82.407,101.465
43101380,0.685,-0.911,0.124,48.457,105.227,25.69
43101390,0.591,-0.562,0.133,38.902,103.88,-52.972
43101400,0.448,-0.194,0.031,23.362,92.767,-115.447
43101410,0.06,0.152,-0.016,3.237,71.242,-167.037
43101420,-0.344,0.326,0.03,-14.297,43.785,-198.415
43101430,-0.473,0.454,0.134,-29.277,18.322,-201.792
43101440,-0.47,0.688,0.145,-36.172,1.155,-181.562
43101450,-0.456,0.961,0.017,-31.01,-2.397,-144.235
43101460,-0.329,1.071,-0.103,-26.95,7.717,-102.515
43101470,-0.269,0.943,-0.086,-32.76,21.665,-67.655
43101480,-0.143,0.664,-0.054,-38.815,28.875,-47.932
43101490,0.044,0.538,-0.201,-34.702,29.855,-40.915
43101500,0.042,0.448,-0.564,0.35,32.882,-35.122
43101510,-1.301,-0.712,1.448,1.592,3.692,-67.182
43101520,-0.869,-1.998,1.34,122.85,-309.785,-249.9
43101530,1.747,-1.009,1.146,495.915,38.325,-242.2
43101540,-1.906,1.99,0.473,458.377,72.817,-28.227
43101550,1.211,0.177,0.544,307.09,-48.93,-93.38
43101560,1.914,-1.188,1.941,323.085,-15.837,12.285
43101570,1.187,1.776,1.998,296.362,98.122,77.227
43101580,-1.402,1.976,1.772,97.3,106.592,122.57
43101580,-0.388,0.888,1.891,-95.165,10.465,143.167
43101600,-0.677,0.173,1.277,-161.437,-25.287,84.42
43101600,-0.523,-1.025,0.709,-176.942,-11.095,18.637
43101620,-0.802,-0.431,0.094,-133.262,2.275,-8.085
43101620,-0.226,-0.807,0.363,-82.967,-18.777,-47.197
43101630,0.275,-0.724,0.599,-37.782,-23.782,-35.892
43101640,0.388,-0.62,0.712,-5.915,-25.725,-19.005
43101650,0.372,-0.546,0.852,8.47,-26.915,5.67
43101660,0.107,-0.352,0.999,19.6,-20.545,34.142
43101670,-0.033,-0.189,1.031,17.955,-15.802,40.407
43101680,-0.115,-0.202,1.018,14.437,-12.915,31.237
43101690,-0.115,-0.084,1.164,9.59,-13.212,20.72
43101700,0.053,-0.046,1.286,-7.84,-11.97,10.517
43101710,0.059,-0.06,1.257,-35.402,-8.05,4.76
43101720,0.086,-0.17,1.17,-63.49,-3.43,2.467
43101730,0.145,-0.247,1.146,-83.86,-1.085,2.922
43101740,0.111,-0.192,1.134,-101.535,2.782,5.967
43101750,0.063,-0.193,1.122,-117.88,4.69,8.505
43101760,0.092,-0.265,1.118,-137.637,7.017,9.135
43101770,0.036,-0.271,1.111,-151.777,13.947,11.515
43101780,0.075,-0.297,1.139,-165.252,20.23,14.665
43101790,0.032,-0.229,1.117,-176.767,30.432,19.145
43101800,0.001,-0.208,1.17,-189.805,33.635,20.002
43101810,0.044,-0.272,1.241,-216.737,37.117,20.86
43101820,-0.066,-0.318,1.237,-234.447,45.587,20.195
43101830,-0.085,-0.279,1.302,-249.042,43.96,12.565
43101840,-0.332,-0.925,1.623,-254.73,30.712,10.745
43101850,-0.485,-1.162,1.821,-242.69,4.165,3.552
43101860,-0.233,-1.143,1.65,-188.615,-26.547,-13.195
43101870,0.225,-0.467,0.925,-116.847,-27.93,-7.21
43101880,0.633,-0.165,0.95,-74.287,3.202,13.965
43101890,0.088,-0.49,1.747,-53.725,10.08,-8.575
43101900,-0.019,0.266,0.705,88.095,-23.222,-11.497
43101910,0.967,1.504,0.821,216.177,44.38,68.46
43101920,0.501,1.412,0.449,198.31,33.197,66.185
43101920,0.228,1.478,0.248,194.775,-5.267,22.452
43101940,0.311,1.54,0.108,209.125,-44.957,9.887
43101940,0.556,1.347,-0.124,204.365,-61.057,-3.08
43101960,0.48,0.963,-0.228,183.942,-43.977,-37.835
43101960,-0.082,0.367,-0.167,146.072,-21.84,-67.235
43101980,-0.166,-0.359,-0.004,108.745,-16.187,-97.44
43101980,-0.291,-1.057,-0.062,87.237,-20.51,-125.79
43102000,-0.45,-1.354,-0.375,93.117,-18.935,-146.02
43102000,-0.742,-1.176,-0.972,106.645,-12.372,-155.435
43102010,-1.215,-1.2,-1.22,81.13,-11.707,-143.377
43102020,-1.267,-1.998,0.486,45.57,-84.052,-183.277
43102030,0.966,-1.694,0.168,392.297,109.987,-397.162
43102040,-1.47,1.967,0.027,475.72,163.887,-27.142
43102050,1.996,1.591,1.97,327.127,58.835,-39.217
43102060,-0.384,-1.97,1.691,20.65,38.097,75.897
43102070,-0.294,1.532,1.537,189,112.647,126.875
43102080,-1.402,1.141,1.443,31.867,62.72,121.397
43102090,-0.78,0.046,1.445,-88.585,-12.862,44.905
43102100,-0.213,0.165,1.283,-124.827,-33.88,-0.717
43102110,0.148,-0.283,0.915,-161.017,-46.445,-7.892
43102120,0.006,-0.499,0.668,-138.617,-43.277,-7.017
43102130,0.069,-0.925,0.372,-115.29,-35.28,-10.64
43102140,0.149,-0.946,0.379,-59.29,-25.287,-8.732
43102150,0.153,-0.63,0.568,-2.765,-17.272,1.05
43102160,0.13,-0.511,0.764,32.34,-9.975,9.17
43102170,0.139,-0.268,1.004,55.492,-1.277,13.405
43102180,0.126,-0.16,1.134,52.167,6.527,16.45
43102190,-0.009,-0.156,1.092,36.155,10.657,16.765
43102200,-0.05,-0.134,1.158,20.807,8.225,14.735
43102210,-0.124,0.044,1.333,1.225,5.005,11.427
43102220,-0.079,0.039,1.313,-33.565,1.942,2.03
43102230,0.038,-0.137,1.208,-69.422,0.962,-8.12
43102240,0.119,-0.279,1.105,-90.895,2.835,-11.2
43102250,0.095,-0.326,1.024,-98.735,3.78,-5.757
43102260,0.035,-0.403,0.95,-104.107,-0.21,1.295
43102270,0.032,-0.465,0.952,-103.95,-6.545,9.572
43102280,0.08,-0.455,0.965,-102.445,-11.742,22.365
43102280,0.115,-0.408,0.948,-104.335,-19.302,34.86
43102300,0.07,-0.391,0.971,-104.545,-29.4,52.64
43102300,-0.026,-0.37,1.043,-107.992,-49.262,65.607
43102320,-0.121,-0.531,1.158,-113.47,-78.33,80.972
43102320,-0.267,-1.021,1.211,-118.947,-109.55,102.952
43102330,-0.236,-1.62,1.225,-101.202,-154.857,101.272
43102340,-0.177,-1.995,1.262,-60.795,-189.927,101.15
43102350,-0.515,-1.998,1.766,67.112,-180.32,101.937
43102360,-0.168,-1.44,-0.419,318.272,-108.36,189.787
43102370,-0.273,-0.169,-1.067,341.477,24.78,336.84
43102380,-0.273,-0.593,-0.826,196.35,-5.705,286.685
43102390,0.507,-1.038,-0.611,75.145,-41.335,198.765
43102400,1.118,-0.926,-0.19,23.31,-7.42,136.832
43102410,1.05,-0.589,0.032,-35.595,38.972,53.392
43102420,0.497,-0.464,0.164,-92.487,60.2,-44.555
43102430,0.266,-0.281,0.231,-126.56,66.062,-136.552
43102440,0.041,-0.045,0.229,-160.265,63.63,-204.47
43102450,-0.2,0.319,0.105,-185.797,63.997,-247.957
43102460,-0.735,1.008,0.065,-201.705,59.185,-257.547
43102470,-1.293,1.677,-0.115,-206.71,25.445,-247.117
43102480,-0.681,1.997,-0.717,-167.86,11.865,-209.807
43102490,-1.388,1.656,1.469,-121.905,38.185,-128.187
43102500,-0.442,-1.818,0.525,23.607,-105.227,-188.562
43102510,1.883,-1.998,-0.755,501.637,240.362,-88.042
43102520,-1.749,-1.269,1.854,404.932,112.647,-133.525
43102530,1.092,1.705,0.827,371.752,38.255,-71.452
43102540,0.381,0.36,1.787,319.725,66.99,48.107
43102550,-0.166,1.382,1.918,252.14,38.15,37.117
43102560,-0.204,1.091,1.394,16.747,35.91,-22.89
43102570,-0.05,0.215,1.476,-61.215,60.952,43.785
43102580,-0.987,0.188,1.219,-133.385,26.477,49.402
43102590,-0.075,-0.65,0.72,-151.497,7.665,19.845
43102600,-0.511,-0.842,0.154,-95.602,2.485,2.87
43102610,-0.29,-0.616,0.527,-39.672,-12.582,-20.475
43102620,0.163,-0.611,0.716,-14.472,-21.84,-24.622
43102630,0.336,-0.404,0.762,13.072,-20.86,-15.75
43102640,0.163,-0.548,0.894,20.282,-16.852,0.332
43102650,0.038,-0.187,1.027,32.182,-10.5,12.337
43102660,-0.072,-0.217,1.08,22.645,-7.857,10.395
43102670,-0.113,-0.011,1.182,12.005,-8.715,7.262
43102670,-0.06,-0.05,1.294,-7.157,-10.36,1.435
43102690,0.045,0.04,1.284,-34.545,-9.187,-5.232
43102690,0.124,-0.132,1.237,-68.827,-8.085,-7.56
43102710,0.151,-0.149,1.208,-93.852,-4.602,-2.17
43102710,0.054,-0.259,1.122,-119,-10.57,7.07
43102730,0.105,-0.335,1.108,-140.525,-21.735,17.22
43102730,-0.021,-0.341,1.044,-147.245,-23.66,25.2
43102750,-0.09,-0.267,1.021,-152.337,-26.617,25.567
43102750,-0.049,-0.312,1.006,-163.362,-30.065,24.657
43102760,-0.059,-0.318,1.008,-169.907,-33.25,24.272
43102770,-0.097,-0.32,1.026,-173.372,-36.172,20.615
43102780,-0.139,-0.392,0.987,-184.187,-43.96,13.02
43102790,-0.372,-0.519,1.121,-180.757,-60.917,11.917
43102800,-0.382,-0.789,1.319,-178.727,-91.84,3.622
43102810,-0.127,-1.239,1.15,-154.07,-117.95,-10.78
43102820,0.24,-1.255,0.931,-98.07,-109.095,-22.942
43102830,0.326,-1.45,0.88,-46.34,-67.182,-24.307
43102840,-0.032,-1.606,0.622,18.34,3.132,-1.33
43102850,-0.214,-1.365,0.447,107.94,38.902,1.102
43102860,-0.552,-0.543,0.394,151.48,48.947,17.377
43102870,-0.178,-0.565,0.164,128.187,50.61,49.07
43102880,0.066,-0.38,-0.344,126.315,32.427,49.14
43102890,-0.382,0.566,-0.817,129.832,18.112,69.632
43102900,-0.87,0.92,-0.54,54.757,-21.647,90.615
43102910,-0.574,0.19,-0.323,-59.552,-99.312,92.015
43102920,0.358,-0.398,-0.306,-69.58,-134.995,101.255
43102930,0.599,0.052,-0.576,5.512,-104.02,129.972
43102940,-0.094,0.647,-1.017,50.785,-71.4,150.097
43102950,0.018,0.64,-0.854,77.507,-88.9,102.882
43102960,-0.041,0.306,-0.813,43.907,-114.257,66.29
43102970,0.691,-1.269,1.148,43.942,-96.285,-33.127
43102980,1.071,-1.926,-0.267,387.555,166.057,-256.847
43102990,-1.796,1.691,0.926,565.302,157.657,-20.79
43103000,1.951,1.243,1.736,470.68,65.502,38.062
43103010,1.374,-1.705,1.998,273.542,93.135,55.265
43103010,-1.379,1.93,1.816,346.605,196.42,95.287
43103030,-1.255,1.299,1.714,37.415,66.22,86.012
43103030,-0.571,0.466,1.868,-196.227,-44.992,38.78
43103050,0.548,0.058,1.351,-247.782,-50.347,15.015
43103050,0.067,-0.814,0.488,-249.34,-15.522,-8.032
43103070,-0.315,-0.805,0.157,-167.912,1.277,-23.642
43103070,-0.138,-1.329,0.228,-121.537,-0.98,-59.867
43103080,0.334,-0.861,0.288,-45.08,8.137,-43.767
43103090,0.222,-0.837,0.41,11.462,5.967,-26.792
43103100,0.568,-0.761,0.767,54.32,6.02,-4.637
43103110,0.354,-0.254,1.127,79.205,15.61,29.942
43103120,0.186,-0.047,1.318,62.842,20.37,44.852
43103130,0.012,0.059,1.306,33.67,26.162,48.44
43103140,-0.04,0.173,1.534,3.045,30.17,45.395
43103150,-0.22,0.244,1.613,-45.832,42.262,33.302
43103160,-0.241,0.316,1.536,-104.247,59.307,13.247
43103170,-0.195,0.116,1.461,-157.15,76.037,-16.502
43103180,-0.064,-0.004,1.276,-197.19,95.532,-42.367
43103190,0.001,-0.188,1.171,-209.615,112.507,-59.097
43103200,0.087,-0.335,1.104,-214.69,125.65,-74.777
43103210,0.096,-0.362,1.042,-216.335,136.15,-78.435
43103220,0.114,-0.35,1.028,-214.83,142.555,-77.14
43103230,-0.038,-0.416,1.05,-224.437,135.432,-74.637
43103240,-0.798,-0.775,1.29,-225.662,95.427,-60.637
43103250,-0.854,-1.543,1.616,-220.552,19.495,-74.165
43103260,-0.237,-1.729,1.251,-174.93,-36.12,-80.482
43103270,0.843,-1.179,0.737,-84.367,-34.632,-72.782
43103280,0.466,-1.767,0.864,-36.26,10.727,-88.865
43103290,1.57,-1.502,0.439,26.32,28.63,-163.31
43103300,0.755,-0.656,0.223,123.987,90.09,-163.922
43103310,-0.794,-0.045,-0.07,163.415,89.722,-177.905
43103320,-0.933,0.403,-0.014,149.957,22.015,-154.98
43103330,-0.495,0.565,-0.162,113.137,-46.795,-103.11
43103340,-0.103,0.528,-0.304,86.905,-81.567,-44.59
43103350,0.021,0.38,-0.389,74.672,-84.28,4.917
43103360,0.018,0.311,-0.489,64.172,-68.897,42.192
43103370,0.088,0.237,-0.515,45.885,-46.375,62.58
43103380,0.102,0.048,-0.441,15.47,-32.41,59.027
43103390,0.217,-0.196,-0.373,-17.815,-24.885,35.297
43103400,0.312,-0.322,-0.269,-42.262,-14.77,6.142
43103410,0.141,-0.419,-0.263,-59.85,-2.59,-14.28
43103420,0.213,-0.474,-0.274,-46.462,6.51,-52.097
43103420,-0.023,-0.235,-0.248,-15.522,16.012,-70.21
43103440,0.352,0.195,-0.663,30.31,16.1,-92.295
43103440,-1.423,-1.49,1.849,-29.575,-81.322,-79.415
43103460,0.111,-1.968,-1.75,284.655,-336.245,-217.542
43103460,1.899,1.678,1.01,518.752,142.94,-78.995
43103480,-1.629,1.957,0.729,445.252,41.58,26.075
43103480,0.313,-1.212,0.587,323.155,-35.91,-40.145
43103500,1.102,-0.389,1.998,386.225,48.37,48.492
43103500,-0.586,1.963,1.791,290.867,146.667,58.73
43103510,-1.254,1.526,1.717,60.672,63.857,112.612
43103520,-1,0.224,1.554,-121.94,-30.607,82.95
43103530,-0.326,-0.366,1.042,-170.59,-54.407,28.822
43103540,0.122,-0.622,0.654,-155.137,-41.265,-9.835
43103550,0.174,-0.904,0.462,-129.832,-28.98,-16.87
43103560,0.262,-0.781,0.504,-71.032,-23.047,-7.577
43103570,0.208,-0.681,0.593,-29.207,-19.53,6.667
43103580,0.088,-0.517,0.743,6.825,-17.22,15.26
43103590,0.15,-0.302,0.973,29.365,-12.092,20.195
43103600,0.124,-0.197,1.128,30.45,-4.672,18.462
43103610,0.131,-0.126,1.14,16.012,0.822,17.342
43103620,0.038,-0.127,1.14,-1.33,4.077,18.2
43103630,0.007,-0.119,1.21,-15.767,8.155,14.787
43103640,0.057,-0.023,1.271,-36.137,14.927,7.665
43103650,0.092,-0.107,1.219,-67.217,21.385,0.315
43103660,0.063,-0.156,1.216,-91.927,25.357,-2.205
43103670,-0.03,-0.148,1.222,-117.39,24.43,-3.902
43103680,-0.005,-0.146,1.226,-144.34,20.632,-5.337
43103690,0.004,-0.177,1.197,-169.435,17.447,-4.427
43103700,0.041,-0.221,1.161,-192.43,14.437,1.627
43103710,0.028,-0.314,1.144,-209.632,13.947,12.932
43103720,0.073,-0.324,1.199,-223.562,13.947,25.672
43103730,0.001,-0.306,1.138,-233.117,14.91,40.53
43103740,0.037,-0.402,1.073,-250.985,6.422,48.842
43103750,-0.2,-0.779,1.304,-263.865,-1.085,67.882
43103760,-0.413,-1.489,1.255,-240.695,-33.985,75.74
43103760,-0.396,-1.652,1.173,-176.977,-87.692,55.107
43103780,-0.313,-1.998,1.545,-116.217,-124.162,24.15
43103780,-0.391,-1.954,1.019,0.052,-122.832,47.635
43103800,-0.322,-0.372,-0.284,245.77,-65.205,135.502
43103800,-0.149,0.497,-0.266,256.322,-7.437,215.862
43103820,-0.035,-0.006,-0.191,115.727,-49.892,145.442
43103820,0.734,-0.346,-0.234,55.492,-69.965,82.565
43103830,1.053,-0.289,-0.231,53.55,-39.55,46.795
43103840,0.941,0.005,-0.408,48.545,-19.897,-33.722
43103850,0.714,0.144,-0.72,29.19,-2.397,-116.567
43103860,0.278,0.341,-0.659,1.697,12.862,-172.077
43103870,-0.364,0.419,-0.446,-53.235,-9.572,-206.605
43103880,-0.598,0.468,-0.174,-101.29,-56.35,-210.385
43103890,-0.445,0.296,-0.019,-119.875,-78.225,-176.365
43103900,-0.326,-0.016,-0.014,-110.197,-51.747,-121.537
43103910,-0.634,0.069,-0.238,-43.312,1.347,-65.625
43103920,-0.894,0.308,-0.315,48.947,38.097,-17.517
43103930,-0.848,0.18,-0.413,50.347,44.467,18.322
43103940,-0.719,-1.711,1.135,-37.24,-44.152,-54.407
43103950,1.686,-1.71,-1.264,342.597,-5.127,-328.632
43103960,-1.628,1.941,0.985,553.91,203.367,3.22
43103970,1.7,1.892,1.402,458.587,96.022,-18.147
43103980,1.367,-1.655,1.489,267.592,75.11,78.505
43103990,-0.379,-0.075,1.998,373.502,153.352,106.627
43104000,-1.772,1.997,1.954,295.82,142.747,82.932
43104010,-1.482,1.01,1.724,21.98,34.405,22.82
43104020,-0.434,0.619,1.613,-121.52,-41.282,-17.412
43104030,0.102,-0.074,1.364,-175.752,-59.045,-35.7
43104040,0.306,-0.622,0.552,-189.28,-36.907,-41.317
43104050,0.245,-0.975,0.339,-144.305,-21.42,-38.15
43104060,0.453,-1.117,0.37,-97.965,-14.245,-29.12
43104070,0.499,-0.657,0.561,-38.482,-2.905,-4.2
43104080,0.185,-0.658,0.595,-7.91,6.405,20.09
43104090,0.074,-0.538,0.774,27.545,9.765,30.87
43104100,-0.027,-0.296,0.937,46.882,12.792,31.99
43104110,-0.075,-0.233,0.998,50.697,13.947,28.245
43104120,-0.141,-0.172,1.066,45.832,13.055,19.88
43104130,-0.16,0.052,1.363,35.84,12.635,13.702
43104140,-0.212,0.104,1.391,-3.045,10.342,1.82
43104150,-0.156,0.095,1.359,-42.542,9.957,-11.69
43104160,0.002,-0.042,1.352,-84.297,8.872,-30.135
43104170,0.072,-0.08,1.326,-118.475,13.702,-39.235
43104170,0.046,-0.077,1.33,-149.17,20.16,-46.165
43104190,0.096,-0.159,1.259,-184.117,24.867,-45.832
43104190,0.178,-0.221,1.256,-200.2,27.79,-40.145
43104210,0.207,-0.204,1.192,-216.37,31.097,-26.512
43104210,0.127,-0.255,1.175,-233.957,27.335,-11.567
43104230,-0.051,-0.408,1.232,-255.972,12.635,4.06
43104230,-0.218,-0.502,1.267,-282.555,-10.657,17.15
43104250,-0.476,-0.723,1.487,-292.215,-42.875,28.42
43104250,-0.517,-1.204,1.56,-281.645,-81.97,29.225
43104260,-0.203,-1.573,1.055,-248.342,-104.667,32.567
43104270,-0.198,-1.566,0.785,-178.08,-65.765,52.675
43104280,-0.131,-1.614,1.125,-104.177,-18.27,54.617
43104290,-0.629,-1.145,0.434,-24.185,-26.005,71.067
43104300,0.241,-0.344,0.505,93.94,-10.552,120.855
43104310,0.767,0.243,-0.137,120.015,-16.117,154.035
43104320,1.466,0.313,0.081,94.36,8.995,120.82
43104330,1.495,0.222,0.175,50.452,16.485,56.402
43104340,1.218,0.25,0.211,49.892,14.122,-18.707
43104350,1.028,0.317,-0.046,75.162,17.885,-70.385
43104360,0.716,0.479,-0.374,112.455,30.345,-110.232
43104370,-0.023,0.535,-0.593,118.492,33.25,-131.81
43104380,-0.631,0.293,-0.57,77.385,15.75,-122.867
43104390,-0.548,-0.273,-0.407,25.375,-1.925,-94.902
43104400,-0.446,-0.702,-0.456,-2.607,-6.335,-53.777
43104410,-0.485,-0.66,-0.497,6.842,-2.17,-14.052
43104420,-0.268,-0.641,-0.516,4.795,-7.63,8.732
43104430,-0.085,-0.638,-0.646,-9.59,-14.42,18.287
43104440,-0.066,-0.795,-0.642,5.39,-20.545,10.955
43104450,0.063,-0.436,-0.723,18.655,-26.302,8.995
43104460,-1.986,-1.983,0.973,-26.967,-221.182,-46.83
43104470,1.314,-1.488,-0.536,374.605,-185.325,-197.785
43104480,0.25,1.983,0.145,554.085,152.022,44.975
43104490,-1.85,1.839,1.372,494.48,-13.545,-71.102
43104500,1.201,-1.813,0.495,302.26,-21.735,-46.795
43104510,1.998,-0.215,1.798,484.89,71.977,11.585
43104510,0.728,1.721,1.866,408.59,209.772,27.825
43104530,-1.774,1.894,1.539,156.975,161.315,85.907
43104530,-1.265,0.673,1.626,-91.105,10.447,88.585
43104550,-0.707,-0.131,1.399,-203.42,-63.052,36.837
43104550,-0.003,-0.814,0.429,-225.75,-67.095,-7.192
43104570,-0.025,-0.986,0.66,-129.01,-49.91,-27.282
43104570,0.353,-0.838,0.543,-105.7,-36.575,-36.855
43104580,0.592,-0.679,0.482,-59.587,-23.012,-18.497
43104590,0.277,-0.704,0.528,-9.887,-11.952,12.967
43104600,0.082,-0.626,0.679,31.675,-4.042,27.335
43104610,0.068,-0.278,1.011,57.925,3.045,31.115
43104620,-0.081,0.053,1.263,55.93,8.102,29.19
43104630,-0.209,0.055,1.253,24.972,6.457,19.46
43104640,-0.167,0.028,1.259,-4.392,-0.367,8.592
43104650,-0.163,0.002,1.257,-35.647,-7.315,-0.262
43104660,-0.12,-0.077,1.149,-66.465,-13.002,-10.587
43104670,-0.028,-0.167,1.115,-81.882,-14.98,-19.425
43104680,-0.017,-0.251,1.02,-92.225,-13.492,-26.512
43104690,-0.008,-0.257,0.986,-92.522,-12.915,-33.425
43104700,0.082,-0.264,1.027,-99.137,-9.712,-42.315
43104710,0.068,-0.27,1.071,-106.295,-2.957,-46.725
43104720,0.041,-0.304,1.11,-119.157,-1.592,-46.13
43104730,0.127,-0.342,1.151,-138.425,-7.157,-38.972
43104740,0.175,-0.377,1.199,-162.557,-15.295,-24.622
43104750,0.171,-0.349,1.223,-184.607,-24.342,-3.132
43104760,0.127,-0.296,1.225,-207.62,-37.975,22.085
43104770,-0.189,-0.39,1.287,-240.135,-66.587,41.93
43104780,-0.682,-0.578,1.581,-273.507,-122.36,54.04
43104790,-1.384,-1.238,1.884,-288.505,-235.287,53.97
43104800,-1.285,-1.853,1.456,-258.965,-371.822,21.315
43104810,-0.705,-1.998,0.418,-175.28,-438.76,-2.922
43104820,-0.006,-1.972,0.515,-48.072,-361.532,16.082
43104830,0.538,-1.541,-0.457,109.532,-154.245,65.152
43104840,0.075,-1.228,0.236,103.39,63.42,84.122
43104850,-0.641,-0.987,0.204,130.952,149.03,71.557
43104860,-0.218,-0.391,-0.112,173.04,190.365,65.73
43104870,0.098,-0.179,-0.057,159.022,200.882,56.017
43104880,0.17,-0.105,-0.01,138.74,207.322,42.857
43104890,0.384,0.054,-0.129,128.03,216.055,33.687
43104900,0.544,0.332,-0.467,110.757,225.26,26.757
43104910,0.445,0.739,-0.601,89.687,221.252,8.12
43104910,0.244,0.95,-0.507,38.57,184.572,-34.422
43104920,0.248,0.866,-0.126,-31.815,128.485,-96.74
43104930,0.314,0.557,0.251,-100.59,83.527,-154.892
43104940,0.118,0.09,0.36,-112.63,65.712,-184.817
43104950,-0.55,0.228,0.15,-50.382,58.625,-172.41
43104960,-1.234,0.781,0.211,2.747,40.372,-99.19
43104970,-1.172,0.635,0.093,24.552,20.475,-10.237
43104980,-0.849,-0.169,0.232,66.867,-3.36,54.95
43104990,-1.087,-0.741,0.571,66.01,-15.505,124.355
43105000,0.542,-1.997,0.488,64.942,-192.36,-22.68
43105010,1.209,-1.78,1.598,428.505,-158.13,-431.655
43105020,-1.665,1.644,-0.608,538.527,92.855,-20.055
43105030,1.994,1.05,0.946,424.462,-32.042,-69.51
43105040,1.998,-1.816,1.738,303.642,-12.635,15.435
43105050,1.147,1.385,1.998,440.825,126.402,120.557
43105060,-1.702,1.957,1.785,290.115,170.905,116.515
43105070,-1.578,1.609,1.659,23.607,46.48,88.41
43105080,-0.539,0.05,1.444,-180.6,-54.18,20.002
43105090,0.267,-0.211,1.064,-194.337,-68.32,-3.797
43105100,0.229,-0.595,0.787,-171.762,-55.737,-12.215
43105110,0.008,-0.785,0.41,-150.535,-43.487,1.032
43105120,-0.025,-1.153,0.294,-94.99,-34.23,-2.362
43105130,0.236,-0.898,0.348,-28.245,-26.075,2.922
43105140,0.211,-0.65,0.611,29.837,-20.265,14.997
43105150,0.219,-0.244,1.014,63.402,-11.76,26.792
43105160,0.102,-0.004,1.234,63.245,-2.117,30.135
43105170,-0.082,-0.019,1.164,38.657,2.187,25.532
43105180,-0.02,-0.101,1.14,17.045,1.417,16.24
43105190,-0.073,0.007,1.32,0.717,2.065,8.872
43105200,0.092,0.115,1.337,-33.985,1.872,3.797
43105210,0.148,-0.104,1.193,-67.532,6.23,-5.547
43105220,0.205,-0.229,1.096,-85.207,17.395,-11.077
43105230,0.269,-0.275,1.024,-89.355,31.832,-12.617
43105240,0.271,-0.398,1.007,-91.595,44.905,-9.012
43105250,0.302,-0.463,0.954,-90.09,58.292,0.77
43105260,0.313,-0.502,1.032,-94.675,65.677,15.05
43105260,0.378,-0.498,1.099,-110.547,60.305,37.94
43105280,0.393,-0.47,1.214,-131.827,40.39,71.785
43105280,0.028,-0.45,1.147,-154.665,9.975,113.155
43105300,-0.086,-0.289,1.154,-176.767,-49.63,138.057
43105300,0.127,-0.556,0.97,-211.592,-79.94,174.177
43105320,-0.357,-0.594,1.259,-235.165,-102.76,217.595
43105320,-0.815,-1.073,1.836,-267.295,-134.032,244.405
43105330,-1.015,-1.921,0.936,-229.53,-220.535,234.202
43105340,1.279,-1.942,0.731,-171.097,-214.445,202.755
43105350,-1.549,-1.998,1.024,-100.94,-171.237,213.762
43105360,-0.813,-1.349,0.012,98.857,-165.007,227.587
43105370,0.862,-0.547,-0.438,178.22,-73.57,257.6
43105380,0.377,-0.153,-0.336,113.662,-35.63,175.437
43105390,0.625,-0.495,0.098,54.442,4.795,77.262
43105400,1.06,-0.585,0.139,48.107,49.35,7.91
43105410,0.905,-0.109,0.047,74.987,76.142,-72.345
43105420,0.593,0.403,-0.034,72.065,84.42,-147.315
43105430,0.472,0.601,-0.155,46.725,80.185,-221.567
43105440,0.212,0.669,-0.195,19.722,73.85,-282.345
43105450,-0.275,0.672,-0.151,-6.51,63.682,-322.822
43105460,-0.879,0.566,-0.126,-33.705,43.82,-341.372
43105470,-1.356,0.473,-0.139,-57.995,11.235,-337.872
43105480,-1.699,0.379,-0.064,-75.827,-18.007,-289.45
43105490,-1.715,0.053,-0.035,-85.75,-30.117,-203.892
43105500,-1.473,-0.308,-0.214,-60.707,-26.547,-108.22
43105510,-1.555,-0.244,-0.262,14.91,-9.065,-5.075
43105520,-1.348,0.001,0.216,71.872,0.122,65.52
43105530,-0.369,-1.407,1.094,22.54,-94.815,-23.992
43105540,1.884,-1.761,-0.754,372.907,-28.14,-339.115
43105550,-1.938,1.779,0.565,567.332,179.252,-81.725
43105560,1.234,1.276,1.553,411.005,8.312,-69.562
43105570,1.41,-1.219,1.994,275.975,125.195,47.075
43105580,-1.847,1.906,1.998,270.252,219.485,123.165
43105580,-1.346,1.553,1.998,2.292,65.117,185.57
43105600,-0.739,0.339,1.9,-220.517,-53.48,127.155
43105600,-0.465,0.069,0.704,-252.472,-41.51,69.002
43105620,-0.839,-1.171,0.111,-215.32,-26.145,7.437
43105620,-0.695,-1.221,-0.002,-157.552,-37.572,-43.872
43105640,-0.019,-1.042,0.097,-85.907,-38.045,-70.21
43105640,0.624,-1.042,0.187,-6.23,-39.917,-56.875
43105660,0.901,-1.028,0.465,41.072,-45.605,-13.387
43105660,0.786,-0.414,0.865,89.337,-30.152,33.425
43105670,0.379,-0.281,1.294,88.427,-16.59,74.27
43105680,-0.157,0.298,1.292,72.135,-3.85,88.935
43105690,-0.595,0.039,1.226,43.732,-3.85,65.835
43105700,-0.588,0.03,1.345,19.04,-10.745,29.155
43105710,-0.049,0.051,1.344,-16.24,-17.307,-7.14
43105720,0.317,-0.234,1.081,-53.375,-16.45,-19.74
43105730,0.395,-0.44,0.898,-62.422,-3.307,-13.037
43105740,0.233,-0.474,0.823,-55.755,9.835,-2.782
43105750,0.01,-0.396,0.902,-45.587,13.125,4.357
43105760,-0.019,-0.309,1.006,-43.697,13.632,3.64
43105770,-0.016,-0.275,1.096,-52.482,12.25,-2.415
43105780,0.001,-0.24,1.159,-68.197,6.23,-4.095
43105790,0.075,-0.257,1.159,-90.352,-11.27,-0.962
43105800,0.129,-0.249,1.155,-114.992,-20.982,10.447
43105810,-0.073,-0.177,1.169,-129.027,-32.357,26.6
43105820,-0.166,-0.236,1.196,-152.547,-51.975,36.47
43105830,-0.19,-0.21,1.342,-181.597,-69.457,47.827
43105840,-0.319,-0.378,1.237,-205.537,-85.155,53.655
43105850,-0.202,-1.172,1.304,-212.187,-95.777,68.022
43105860,-0.028,-1.455,0.857,-182.857,-126.472,71.435
43105870,-0.429,-1.998,1.016,-116.182,-156.73,41.755
43105880,-1.998,-1.998,0.787,-50.557,-137.935,121.695
43105890,-1.253,-1.223,0.15,159.775,1.977,328.562
43105900,0.696,-0.606,-0.651,153.93,39.042,393.33
43105910,1.794,-0.831,-0.095,23.695,49.752,292.6
43105920,1.672,-1.347,0.077,-60.27,86.03,185.622
43105930,1.396,-0.862,0.239,-12.775,114.362,73.937
43105940,1.14,0.046,0.24,23.257,125.807,-48.772
43105950,0.779,0.419,0.261,-4.322,122.622,-169.575
43105960,0.428,0.47,0.334,-26.075,113.995,-260.907
43105970,-0.052,0.673,0.406,-1.172,100.187,-307.317
43105980,-0.514,1.05,0.376,38.045,78.207,-319.795
43105990,-0.625,1.328,0.21,65.1,72.747,-300.58
43106000,-1.1,1.494,-0.068,79.975,72.467,-247.782
43106010,-1.339,1.603,-0.179,94.902,56.875,-180.092
43106010,-1.023,1.392,-0.198,93.52,44.082,-101.167
43106030,-0.403,0.941,-0.549,102.777,42.122,-41.51
43106030,-0.156,-0.32,-0.171,113.347,73.342,-20.072
43106050,0.381,-1.998,1.282,97.09,-21.91,-252.35
43106050,-0.331,-0.499,-0.184,470.995,110.582,-336.927
43106070,0.047,1.997,1.212,506.345,42.297,-68.547
43106070,1.699,-0.119,0.847,149.45,-36.172,-44.327
43106080,1.164,-0.535,1.924,155.61,32.777,73.08
43106090,-1.007,1.991,1.993,211.155,121.66,172.025
43106100,-0.802,0.445,1.651,-68.425,16.327,136.15
43106110,-1.246,0.257,1.18,-95.707,-19.18,87.132
43106120,-0.817,-0.714,0.63,-131.687,-28.14,11.532
43106130,-0.541,-0.713,0.44,-109.97,-34.597,-42.175
43106140,0.356,-0.477,0.569,-50.697,-45.027,-61.775
43106150,0.66,-0.989,0.616,-32.865,-40.162,-46.707
43106160,0.768,-0.629,0.64,6.895,-25.41,-4.69
43106170,0.157,-0.562,0.724,35.332,-10.762,31.517
43106180,-0.167,-0.319,0.94,58.94,-3.71,39.445
43106190,-0.214,-0.072,1.109,64.662,-2.747,26.74
43106200,-0.09,-0.049,1.156,49.262,-7.21,10.675
43106210,0.006,0,1.243,29.907,-10.167,3.622
43106220,-0.081,-0.046,1.227,2.782,-11.217,0.682
43106230,-0.09,-0.044,1.157,-22.47,-14.402,-3.132
43106240,-0.03,-0.164,1.132,-44.992,-18.427,-11.83
43106250,0.054,-0.202,1.114,-60.76,-17.815,-16.117
43106260,0.048,-0.202,1.114,-71.207,-15.872,-17.71
43106270,0.04,-0.235,1.088,-86.957,-16.905,-18.847
43106280,0.017,-0.27,1.084,-101.045,-20.055,-19.32
43106290,0.059,-0.293,1.057,-112.997,-25.392,-16.397
43106300,0.081,-0.343,1.028,-122.552,-29.715,-9.327
43106310,0.033,-0.315,1.015,-130.13,-34.702,-1.382
43106320,-0.057,-0.295,1.013,-134.697,-42.56,4.287
43106330,-0.277,-0.299,1.027,-136.15,-59.727,5.985
43106330,-0.352,-0.423,1.029,-142.292,-92.505,4.322
43106350,-0.381,-0.654,0.978,-151.042,-130.322,1.995
43106350,-0.655,-0.992,1.119,-140.192,-176.82,-2.432
43106370,-0.526,-0.978,0.807,-104.877,-230.317,-21.035
43106370,-0.073,-1.803,1.008,-78.435,-242.812,-56.14
43106390,-0.429,-1.998,0.569,-4.567,-199.92,-55.982
43106390,-0.677,-1.998,0.257,127.54,-68.827,23.205
43106410,-1.541,-1.509,0.249,138.705,95.69,150.045
43106410,-1.347,-1.139,-0.021,165.707,73.062,190.89
43106420,0.395,-1.025,-0.211,120.54,82.635,196.63
43106430,0.81,-0.856,-0.015,74.077,140.297,200.462
43106440,0.276,-0.55,0.125,24.867,172.567,167.632
43106450,0.272,-0.325,0.218,-24.36,165.9,98.857
43106460,0.421,-0.155,0.201,-68.197,141.452,23.695
43106470,0.401,-0.074,0.122,-102.042,126.28,-44.502
43106480,0.29,0.265,-0.329,-127.872,127.4,-95.112
43106490,0.372,1.49,-0.545,-117.18,156.887,-106.155
43106500,-0.854,1.98,-0.772,-107.625,143.867,-82.337
43106510,-1.339,1.997,0.856,-96.162,75.915,-91.087
43106520,-0.107,0.305,1.05,-18.812,-252.98,-249.34
43106530,1.959,-1.998,0.641,393.75,27.177,-403.935
43106540,-1.898,-0.431,0.324,497.227,192.43,-174.737
43106550,1.494,1.879,1.624,476.42,21.84,-7.245
43106560,-0.121,-1.742,1.304,192.5,7.7,127.592
43106570,1.298,1.048,1.998,244.755,4.095,232.732
43106580,-1.327,1.532,1.933,142.432,19.425,284.917
43106590,-1.454,0.775,1.621,3.097,-9.432,202.002
43106600,-1.626,0.487,1.339,-59.255,-12.95,78.522
43106610,-0.862,-0.215,0.964,-127.907,-22.295,-43.977
43106620,0.172,-0.458,0.633,-126.7,-29.96,-99.505
43106630,0.591,-0.48,0.679,-80.395,-18.515,-94.692
43106640,0.648,-0.788,0.866,-51.8,-12.967,-60.2
43106650,0.768,-0.493,0.905,-49.402,-6.79,-9.957
43106660,0.152,-0.349,0.985,-37.905,0.402,28.752
43106670,-0.02,-0.354,1.024,-50.015,2.292,40.582
43106680,-0.053,-0.261,1.077,-55.142,7.647,36.627
43106690,-0.215,-0.119,1.159,-65.677,13.597,25.602
43106700,-0.018,-0.133,1.214,-85.82,16.572,8.242
43106710,0.014,-0.17,1.215,-106.96,22.33,-2.555
43106720,0.107,-0.198,1.256,-125.79,31.5,-7.875
43106730,0.191,-0.208,1.249,-148.05,46.83,-10.36
43106740,0.282,-0.247,1.218,-164.412,70.297,-12.967
43106750,0.344,-0.284,1.168,-174.107,98,-15.645
43106760,0.329,-0.401,1.047,-182.927,121.94,-23.205
43106760,0.252,-0.534,1.02,-184.327,140.927,-30.835
43106780,0.226,-0.632,1.057,-184.73,153.755,-38.867
43106780,0.104,-0.496,1.023,-188.632,152.075,-41.212
43106800,-0.344,-0.574,1.154,-184.607,133.542,-29.942
43106800,-0.059,-0.984,1.337,-181.597,107.835,-28.035
43106820,-0.398,-1.178,1.496,-157.325,68.67,-21.437
43106820,-0.585,-1.014,1.539,-106.995,-5.757,-55.842
43106830,1.137,-0.851,1.058,-50.032,-82.022,-92.977
43106840,0.644,0.058,0.529,56.35,-37.03,-108.552
43106850,-1.151,0.917,0.429,154.7,-3.377,-116.847
43106860,-1.949,1.205,0.26,154.77,-56.665,-123.882
43106870,-1.396,1.103,-0.09,119.157,-115.395,-64.802
43106880,-0.495,0.793,-0.137,110.005,-108.92,18.287
43106890,-0.193,0.403,0.03,104.597,-56.752,73.202
43106900,-0.186,0.28,-0.051,114.135,-22.067,91.332
43106910,0.115,0.382,-0.213,129.132,-8.295,85.89
43106920,0.436,0.348,-0.275,123.13,-0.875,61.442
43106930,0.526,0.096,-0.233,118.247,0.77,7.035
43106940,0.336,0.031,-0.278,122.15,-2.94,-48.842
43106950,-0.015,0.152,-0.269,136.745,-8.715,-83.16
43106960,-1.508,-1.188,1.195,124.075,-99.225,-121.572
43106970,0.684,-1.998,1.123,301.402,-290.57,-405.982
43106980,-0.207,-1.186,-0.977,482.755,105.787,-251.632
43106990,-0.933,1.997,-0.825,538.282,37.835,-40.075
43107000,1.998,-0.256,1.671,385.385,57.417,-69.282
43107010,-0.659,0.44,0.312,389.777,299.617,56.227
43107020,-0.377,1.007,0.719,262.692,108.85,169.995
43107030,0.025,-1.353,1.589,-247.8,-30.275,100.45
43107040,-0.562,0.307,1.027,-139.702,-78.522,50.872
43107050,0.858,-1.581,0.601,-185.78,-77.157,6.44
43107060,-0.159,-0.506,0.756,-69.527,-43.89,2.152
43107070,0.483,-0.75,0.799,-34.632,-24.657,0.42
43107080,0.122,-0.281,0.896,-0.157,-4.742,8.365
43107080,-0.102,-0.27,0.919,15.505,2.677,13.702
43107100,0.21,-0.241,1.011,24.237,2.257,3.202
43107100,0.084,-0.047,1.106,23.485,11.305,10.167
43107120,-0.183,0.052,1.065,7.892,10.552,17.517
43107120,-0.131,-0.117,1.047,-14.98,-0.402,11.27
43107140,0.046,0.041,1.133,-25.27,-8.942,7.227
43107140,0.088,-0.197,1.051,-52.955,-15.067,10.535
43107160,-0.012,-0.204,1.072,-62.09,-16.082,14.98
43107160,0.058,-0.148,1.136,-68.95,-17.027,15.977
43107170,0.119,-0.064,1.127,-74.637,-16.047,16.8
43107180,0.105,-0.271,1.085,-94.062,-17.115,19.582
43107190,0.114,-0.292,1.037,-101.447,-13.44,25.112
43107200,0.138,-0.322,0.969,-105.28,-7.052,25.112
43107210,0.12,-0.38,0.947,-106.907,0.052,27.86
43107220,0.124,-0.361,0.963,-103.722,6.177,31.167
43107230,0.141,-0.359,0.984,-103.005,11.445,35.332
43107240,0.161,-0.383,0.981,-101.885,17.832,41.055
43107250,0.164,-0.388,0.98,-97.545,23.45,45.885
43107260,0.248,-0.343,1.035,-98.875,31.255,48.772
43107270,0.217,-0.346,1.014,-103.74,38.517,46.777
43107280,0.033,-0.381,0.934,-105.14,35.647,48.317
43107290,0.121,-0.582,1.012,-109.76,31.78,52.71
43107300,-0.042,-0.543,1.023,-111.667,25.025,60.2
43107310,0.096,-0.896,0.806,-101.22,14.052,67.27
43107320,0.245,-1.133,0.804,-87.01,4.252,71.225
43107330,-0.323,-1.092,1.044,-57.96,-25.585,77.227
43107340,-1.212,-1.492,1.243,-39.112,-64.557,70.91
43107350,0.417,-1.35,0.048,-11.497,-141.085,-6.79
43107360,1.819,-0.847,0.089,16.292,-100.275,-34.422
43107370,-0.582,-0.475,-0.287,19.355,-73.762,-71.435
43107380,-1.631,0.214,-0.07,27.86,-76.02,-114.205
43107390,-1.432,0.348,-0.234,-18.795,-96.057,-77.245
43107400,-0.936,0.404,-0.516,-39.287,-103.057,-33.075
43107410,-0.781,0.642,-0.747,-14.455,-66.885,29.12
43107420,-0.74,0.889,-0.761,-5.635,-14.262,78.907
43107430,-0.551,0.762,-0.372,-12.337,11.095,82.617
43107440,-0.748,-1.098,1.244,-19.775,-78.365,-20.702
43107450,1.697,-1.961,0.002,324.117,-13.317,-241.202
43107460,-1.982,0.076,0.924,479.43,107.38,-97.527
43107470,1.479,1.598,1.615,342.457,11.62,-101.587
43107480,1.573,-0.11,1.639,289.625,14.735,25.06
43107490,0.922,0.418,1.998,235.462,87.57,70.472
43107500,-1.282,1.914,1.984,135.38,99.89,116.62
43107510,-1.028,0.776,1.638,-38.465,25.252,94.57
43107510,-0.81,0.02,1.161,-118.842,-15.977,37.082
43107530,-0.213,-0.708,0.693,-131.617,-24.797,-7.087
43107530,-0.072,-0.584,0.545,-72.887,-21.787,-30.782
43107540,0.328,-0.893,0.545,-55.475,-24.85,-37.327
43107550,0.452,-0.518,0.832,-13.93,-16.502,-18.13
43107560,0.374,-0.338,0.908,-7.752,-6.317,4.655
43107570,0.032,-0.372,0.979,-7.367,0.647,17.902
43107580,-0.046,-0.269,0.994,-5.11,4.375,19.862
43107590,-0.05,-0.226,1.027,-6.51,5.39,10.132
43107600,0.054,-0.221,1.163,-16.38,4.392,4.13
43107610,0.057,-0.097,1.318,-30.047,4.112,7.857
43107620,0.037,0.078,1.333,-62.737,1.61,6.947
43107630,0.002,-0.22,1.252,-108.342,-5.512,3.412
43107640,0.075,-0.293,1.152,-130.357,-8.82,7.315
43107650,0.053,-0.313,1.065,-144.077,-10.15,14.665
43107660,0.045,-0.322,1.008,-151.795,-11.147,19.442
43107670,0.056,-0.27,1.015,-155.697,-11.812,21.647
43107680,0.019,-0.301,1.063,-158.515,-13.002,25.952
43107690,-0.189,-0.318,1.136,-161.63,-22.662,32.217
43107700,-0.154,-0.69,1.23,-172.917,-32.305,36.277
43107710,-0.126,-1.246,1.327,-166.39,-48.632,36.925
43107720,0.022,-1.544,1.169,-111.387,-75.285,13.51
43107730,0.056,-1.998,0.891,-53.637,-68.145,-11.585
43107740,0.076,-1.913,0.32,86.59,-17.255,-19.25
43107750,-1.033,-0.152,-0.712,180.355,50.242,63.262
43107760,-0.982,-0.203,0.294,58.03,40.022,78.137
43107770,0.063,-1.606,0.246,-59.22,-16.607,14.577
43107780,0.46,-0.982,0.213,-14.367,29.032,28.385
43107790,-0.199,0.068,0.084,-7.665,79.957,47.302
43107800,-0.364,0.143,0.064,-68.232,79.397,21.997
43107810,0.043,-0.056,0.137,-91.822,62.37,-1.452
43107820,0.064,0.209,0.102,-81.217,55.947,-8.925
43107830,-0.047,0.446,0.067,-78.68,56.297,-16.537
43107830,-0.075,0.637,-0.049,-82.46,56.087,-21.035
43107850,-0.065,1.037,-0.348,-70.77,52.062,-16.047
43107850,0.051,1.472,-0.741,-49.542,49.297,0.84
43107870,-0.069,1.959,-1.219,-18.865,42.682,31.552
43107870,-0.159,1.897,-0.421,49.175,24.937,17.342
43107890,-1.727,-1.151,1.112,-97.387,-146.335,-119.28
43107890,1.819,-1.965,1.318,280.77,-169.872,-461.422
43107910,-1.655,1.45,-1.129,527.957,197.925,-11.445
43107910,1.361,1.682,1.912,432.967,-6.597,-42.857
43107920,1.256,-1.987,1.034,59.08,-24.727,-42.175
43107930,0.938,1.214,1.743,340.567,-4.042,119.665
43107940,0.246,1.158,1.997,148.75,11.777,197.435
43107950,-0.823,0.754,1.941,13.16,-4.707,170.537
43107960,-1.182,0.573,1.478,-74.655,-7.437,128.992
43107970,-1.341,-0.259,0.926,-150.115,-9.73,30.537
43107980,-0.632,-0.124,0.609,-139.492,-10.675,-46.34
43107990,-0.156,-0.76,0.345,-129.5,-20.65,-92.452
43108000,0.328,-0.869,0.551,-58.03,-19.565,-94.307
43108010,0.662,-0.916,0.688,-31.692,-23.677,-67.952
43108020,0.824,-0.556,0.769,-9.852,-25.147,-20.247
43108030,0.444,-0.617,0.842,4.34,-24.097,24.132
43108040,0.206,-0.493,0.846,14.927,-22.032,52.307
43108050,0.03,-0.423,0.909,21.507,-20.142,61.11
43108060,-0.09,-0.269,1.044,23.87,-15.697,57.522
43108070,-0.176,-0.098,1.135,13.702,-9.292,45.325
43108080,-0.166,-0.13,1.203,-5.46,-4.865,24.762
43108090,-0.061,-0.25,1.274,-27.825,-0.595,10.43
43108100,0.061,0.047,1.299,-54.687,3.202,3.867
43108110,0.111,-0.2,1.262,-100.345,-0.052,-1.26
43108120,0.106,-0.241,1.213,-128.135,-2.03,6.86
43108130,0.045,-0.197,1.122,-150.167,-7.56,12.372
43108140,0.009,-0.37,1.089,-176.592,-17.255,18.812
43108150,-0.033,-0.399,1.047,-195.37,-26.495,26.897
43108160,-0.155,-0.354,0.962,-196.017,-37.747,36.802
43108170,-0.112,-0.554,1.154,-202.965,-59.885,49.192
43108180,-0.215,-1.233,1.442,-212.012,-90.02,56.665
43108190,0.043,-1.719,1.243,-156.905,-117.512,39.935
43108190,0.198,-1.997,1.452,-63.035,-125.86,-2.187
43108210,0.508,-1.977,0.878,63.91,-105.42,-7.787
43108210,-0.149,-0.924,0.101,208.722,19.932,92.942
43108230,-0.805,-0.729,0.088,168.805,25.812,131.582
43108230,0.708,-1.204,-0.005,141.872,-27.317,71.837
43108250,0.663,-0.765,-0.338,136.237,7.84,72.31
43108250,0.15,-0.077,-0.653,124.127,39.935,59.517
43108260,-0.25,0.242,-0.602,60.2,47.95,33.39
43108270,-0.283,0.016,-0.339,-25.287,32.095,2.187
43108280,-0.109,-0.238,-0.129,-59.64,9.257,-31.99
43108290,-0.134,-0.049,-0.094,-59.43,7.98,-40.705
43108300,-0.41,0.23,-0.089,-56.017,6.72,-38.552
43108310,-0.491,0.437,-0.118,-61.67,-6.265,-36.732
43108320,-0.517,0.763,-0.196,-63.927,-23.992,-27.527
43108330,-0.596,1.354,-0.496,-43.872,-38.815,-10.622
43108340,-0.579,1.941,-0.935,-6.212,-42.56,8.557
43108350,-0.288,1.545,-1.161,16.45,-26.477,16.87
43108360,-1.419,0.904,0.75,6.772,-19.162,55.492
43108370,1.001,-1.998,0.683,190.295,-86.257,-330.242
43108380,-1.305,0.5,-1.046,551.617,141.365,-166.845
43108390,1.003,1.996,1.673,521.727,50.697,46.165
43108400,0.195,-1.616,0.949,76.545,-19.915,54.915
43108410,0.707,0.721,1.968,294.892,88.217,115.902
43108420,-1.436,1.844,1.832,187.512,105.647,173.652
43108430,-1.307,0.511,1.571,-65.082,-4.305,90.632
43108440,-0.575,0.153,1.198,-99.925,-42.822,35.437
43108450,-0.069,-0.539,0.81,-128.275,-44.975,-15.977
43108460,0.273,-0.747,0.559,-95.095,-31.535,-49.822
43108470,0.483,-0.978,0.464,-56.105,-18.83,-35.017
43108480,0.547,-0.665,0.693,-7.805,-9.327,-8.015
43108490,0.178,-0.414,0.889,16.1,2.187,20.335
43108500,-0.06,-0.211,1.066,24.22,7.752,29.942
43108510,0.004,-0.036,1.154,15.277,8.802,25.55
43108520,0,-0.202,1.055,0.192,8.837,18.585
43108530,-0.009,-0.116,1.13,-10.377,7.77,13.317
43108540,0.078,-0.081,1.265,-24.797,6.422,14.945
43108550,0.188,0.084,1.39,-52.92,8.645,18.812
43108560,0.165,-0.019,1.378,-99.47,9.257,18.252
43108570,0.172,-0.164,1.331,-143.605,10.815,23.852
43108580,0.109,-0.195,1.232,-174.79,12.67,31.395
43108580,0.13,-0.269,1.155,-197.522,16.765,37.59
43108600,0.036,-0.23,1.228,-207.97,26.022,47.145
43108600,0.201,-0.133,1.218,-217.385,42.577,48.23
43108620,0.129,-0.324,1.244,-228.2,55.79,55.02
43108620,0.309,-0.548,1.305,-246.61,61.845,63.612
43108640,0.148,-0.952,1.556,-253.33,60.497,87.36
43108640,-0.454,-1.685,1.41,-236.355,0.91,87.99
43108660,0.028,-1.95,1.034,-176.19,-77.192,58.712
43108660,0.7,-1.945,1.209,-128.327,-66.605,71.4
43108670,1.189,-1.852,0.788,-48.177,-32.357,60.41
43108680,1.303,-0.543,0.252,73.447,39.217,71.277
43108690,0.506,0.525,0.261,67.2,56.682,68.95
43108700,0.35,0.883,0.129,35.857,-14.962,-3.675
43108710,0.537,1.289,0.14,27.545,-73.22,-41.667
43108720,0.316,1.537,0.117,16.59,-114.712,-60.2
43108730,0.143,1.314,0.17,21.822,-133.7,-85.225
43108740,0.107,0.868,-0.02,39.795,-124.635,-96.32
43108750,-0.155,0.606,-0.185,77.752,-93.502,-102.305
43108760,-0.72,0.378,-0.276,88.095,-76.807,-114.205
43108770,-0.826,-0.026,-0.311,69.562,-80.92,-132.037
43108780,-0.583,-0.436,-0.346,43.452,-79.677,-147.56
43108790,-0.473,-0.838,-0.327,18.48,-59.22,-164.552
43108800,-0.639,-0.954,-0.502,13.422,-27.912,-180.302
43108810,-0.82,-0.934,-0.629,38.115,9.292,-177.677
43108820,-0.974,-0.848,-0.896,45.342,32.427,-168.98
43108830,-0.119,-1.808,1.726,10.71,130.34,-147.28
43108840,0.154,-1.972,-1.383,253.47,298.252,-183.452
43108850,-0.558,1.742,0.665,563.605,156.345,-139.562
43108860,0.919,1.809,1.621,427.945,80.447,-36.242
43108870,1.971,-1.861,1.998,162.697,118.685,40.302
43108880,-1.08,1.171,1.965,324.187,212.555,66.57
43108890,-1.52,1.706,1.741,132.965,104.685,91.682
43108900,-0.92,-0.062,1.408,-141.225,-28.402,28.49
43108910,-0.346,0.01,1.359,-127.96,-59.185,3.885
43108920,0.453,-0.98,0.595,-165.41,-50.907,-21.262
43108920,0.374,-0.949,0.417,-117.11,-25.357,-16.59
43108940,0.402,-0.7,0.434,-62.09,-16.87,7.262
43108940,0.255,-0.949,0.404,-22.925,-20.125,35.227
43108960,-0.091,-0.727,0.639,30.8,-20.702,54.932
43108960,-0.151,-0.255,0.928,62.51,-15.732,51.45
43108980,-0.102,-0.025,1.196,69.545,-12.757,38.325
43108980,0.044,-0.008,1.202,49.42,-11.952,25.532
43109000,0.124,-0.085,1.144,26.215,-9.695,20.387
43109000,0.036,0.011,1.248,7.385,-8.19,23.992
43109010,0.036,-0.039,1.234,-23.257,-12.827,24.045
43109020,0.139,-0.218,1.025,-51.905,-16.66,22.557
43109030,0.2,-0.309,1.015,-56.297,-9.1,20.685
43109040,0.214,-0.31,1.046,-60.9,-0.157,19.74
43109050,0.178,-0.3,1.091,-68.967,9.712,18.97
43109060,0.157,-0.289,1.149,-81.06,16.87,16.17
43109070,0.169,-0.269,1.138,-97.37,24.78,12.6
43109080,0.164,-0.31,1.14,-113.295,32.025,11.305
43109090,0.199,-0.273,1.231,-128.922,38.482,12.6
43109100,0.132,-0.24,1.295,-142.467,44.695,16.275
43109110,-0.013,-0.139,1.217,-166.39,46.165,21.21
43109120,-0.039,-0.11,1.208,-188.055,38.08,29.767
43109130,-0.075,-0.256,1.234,-210.91,22.47,39.182
43109140,-0.182,-0.716,1.449,-234.22,2.747,45.325
43109150,-1.036,-1.18,1.49,-229.53,-34.597,46.83
43109160,-1.446,-1.777,1.308,-191.835,-121.835,21.437
43109170,0.346,-1.998,0.584,-163.642,-162.085,-25.27
43109180,0.66,-1.929,0.275,-69.86,-66.045,23.59
43109190,-1.02,-0.677,0.001,56.507,18.445,85.522
43109200,-1.018,-0.037,0.194,52.92,11.62,93.345
43109210,0.025,-0.401,0.285,-17.605,-36.785,63.35
43109220,0.44,-0.514,0.214,-17.64,-19.932,47.932
43109230,0.28,0.01,0.072,34.545,24.115,26.547
43109240,0.065,0.491,-0.097,51.852,50.995,-3.797
43109250,0.052,0.728,-0.247,30.625,55.737,-35.367
43109260,-0.048,0.867,-0.258,15.715,51.1,-58.73
43109270,-0.116,0.869,-0.181,10.412,46.725,-74.445
43109280,-0.126,0.9,-0.244,5.162,48.44,-76.982
43109290,-0.116,1.062,-0.277,18.287,55.597,-75.075
43109300,-0.244,1.197,-0.276,38.412,57.732,-65.17
43109310,-0.286,1.103,-0.267,53.287,52.22,-47.407
43109320,-0.162,1.273,-0.253,78.435,46.112,-40.845
43109330,-0.226,0.767,-0.075,100.66,36.207,-51.275
43109330,-1.734,-1.133,1.817,71.225,-121.485,-92.925
43109350,0.77,-1.998,-0.772,274.505,-385.087,-450.555
43109350,0.649,0.836,-1.153,559.545,154.297,-222.81
43109370,-0.853,1.997,0.663,539.647,79.275,-41.072
43109370,1.998,-0.231,1.817,287.945,104.422,-104.475
43109390,-0.96,0.754,1.043,362.285,292.67,60.672
43109390,0.129,0.982,1.402,169.225,96.845,200.917
43109410,-0.813,-0.911,1.334,-258.597,-48.23,158.375
43109410,0.017,-0.553,0.951,-173.092,-79.152,75.652
43109420,-0.584,-1.812,0.3,-154.035,-53.882,4.2
43109430,-0.025,-0.146,0.517,-36.382,-34.44,-16.205
43109440,0.767,-0.851,0.707,-4.287,-34.107,-32.34
43109450,0.604,-0.454,0.948,21.665,-8.802,-1.12
43109460,-0.15,-0.087,1.047,43.312,12.022,19.652
43109470,-0.302,-0.214,0.983,23.73,6.877,14.542
43109480,-0.012,-0.06,1.099,22.26,-1.487,2.905
43109490,0.046,0.019,1.137,10.395,-4.147,1.68
43109500,-0.035,-0.114,1.048,-7.455,-6.562,2.432
43109510,-0.034,-0.093,1.098,-15.89,-9.887,1.172
43109520,0.053,-0.135,1.063,-28.962,-12.302,-2.03
43109530,0.078,-0.275,0.992,-37.205,-11.252,-4.357
43109540,0.117,-0.241,1.019,-36.61,-6.282,-5.302
43109550,0.161,-0.188,1.065,-38.465,0.052,-3.815
43109560,0.132,-0.187,1.154,-48.545,7.21,-1.802
43109570,0.105,-0.13,1.207,-65.187,9.1,-0.017
43109580,0.149,-0.229,1.189,-90.16,13.86,0.787
43109590,0.041,-0.269,1.156,-115.132,15.417,1.89
43109600,0.074,-0.278,1.135,-136.71,4.515,8.715
43109610,0.068,-0.241,1.164,-158.55,-10.815,21.857
43109620,0.064,-0.226,1.224,-172.252,-23.887,41.02
43109630,-0.17,-0.276,1.244,-185.447,-48.615,64.697
43109640,-0.051,-0.619,1.319,-204.68,-63.472,90.72
43109650,-0.343,-1.016,1.524,-216.72,-82.32,113.592
43109660,-1.021,-1.949,1.688,-177.345,-177.257,88.2
43109670,-0.4,-1.998,1.633,-30.52,-223.142,88.9
43109670,-0.301,-1.731,-0.569,222.407,-75.407,247.59
43109690,-1.7,-0.107,-1.138,257.285,30.87,433.545
43109690,-0.496,-0.53,-0.566,105.647,-91.647,347.13
43109710,1.649,-1.921,-0.203,-70.035,-98,243.687
43109710,1.737,-1.753,0.312,-17.955,3.815,189.192
43109730,0.469,-0.482,0.004,16.45,73.692,142.817
43109730,0.574,-0.249,0.035,-6.265,88.13,25.935
43109750,0.76,-0.515,0.095,-35.752,80.832,-105.157
43109750,0.344,-0.403,0.155,-42.577,76.107,-199.937
43109760,-0.004,-0.12,0.138,-51.975,69.335,-270.97
43109770,-0.291,0.055,0.102,-77.297,53.847,-329.052
43109780,-0.845,0.154,0.045,-109.917,24.57,-367.15
43109790,-1.364,0.294,-0.068,-136.08,-19.162,-373.992
43109800,-1.582,0.583,-0.012,-157.43,-64.575,-340.602
43109810,-1.659,0.852,-0.124,-178.027,-103.46,-282.24
43109820,-1.495,1.287,-0.438,-167.58,-118.265,-205.59
43109830,-1.192,1.255,-0.998,-141.61,-113.19,-130.76
43109840,-1.433,0.87,-0.269,55.58,-99.242,-68.32
43109850,1.781,-0.536,1.545,74.06,140.595,-73.972
43109860,0.878,-1.703,-0.998,336.98,433.842,-252.735
43109870,-1.204,1.943,1.425,572.407,232.365,-73.045
43109880,1.998,0.239,1.998,414.19,108.972,14.665
43109890,-1.344,-0.298,1.998,260.102,235.935,107.695
43109900,-1.148,1.991,1.756,283.482,144.882,192.955
43109910,-1.47,-0.206,1.331,-150.867,-35.805,122.027
43109920,-0.366,0.458,1.41,-135.8,-88.095,38.517
43109930,0.124,-0.874,0.74,-196.665,-81.13,-18.445
43109940,0.351,-0.717,0.47,-151.882,-57.995,-30.275
43109950,0.729,-1.003,0.468,-94.377,-37.502,-22.12
43109960,0.394,-0.571,0.566,-18.112,-13.947,9.047
43109970,0.119,-0.57,0.705,-5.705,-6.877,22.977
43109980,0.056,-0.301,0.919,21.332,-2.467,26.022
43109990,0.081,-0.45,0.903,19.092,4.007,17.815
43110000,0.146,-0.291,1,24.15,10.237,15.015
43110010,0.077,-0.064,1.223,21.367,11.13,20.16
43110020,-0.036,-0.018,1.298,-2.537,11.83,18.9
43110030,0.024,-0.053,1.229,-29.575,18.637,8.837
43110040,0.085,-0.19,1.156,-53.375,28.472,-2.817
43110050,0.055,-0.2,1.112,-72.1,35.227,-10.412
43110060,0.051,-0.173,1.122,-89.337,37.135,-14.385
43110070,0.048,-0.195,1.131,-111.597,33.81,-17.132
43110080,0.076,-0.244,1.099,-131.827,31.045,-15.995
43110080,0.028,-0.296,1.066,-145.88,28.542,-11.76
43110100,0.04,-0.31,1.058,-155.417,26.862,-7.297
43110100,-0.023,-0.321,1.005,-159.232,26.547,-1.557
43110120,-0.105,-0.369,1.023,-163.205,23.03,2.712
43110120,-0.156,-0.448,1.079,-172.235,13.615,5.792
43110140,-0.155,-0.526,1.08,-173.81,0.787,17.692
43110140,-0.165,-0.895,1.163,-169.732,-6.142,26.687
43110160,-0.18,-1.281,1.119,-143.272,-25.287,22.925
43110160,0.114,-1.619,0.978,-90.212,-33.81,16.362
43110170,-0.135,-1.914,0.79,-29.155,-30.975,-0.56
43110180,-0.146,-1.677,0.544,41.387,-26.635,-8.4
43110190,0.324,-0.64,0.041,112.402,4.375,21.175
43110200,-0.362,-0.069,0.07,103.705,11.48,36.592
43110210,-0.303,-0.024,0.076,56.805,-19.267,33.425
43110220,0.084,0.038,0.111,44.555,-26.775,55.737
43110230,-0.135,0.348,-0.027,60.97,-21.49,85.207
43110240,-0.192,0.74,-0.174,83.457,-12.932,106.54
43110250,0.026,0.916,-0.332,97.965,1.662,122.447
43110260,-0.011,0.984,-0.401,110.617,11.917,127.47
43110270,-0.028,0.992,-0.532,114.24,9.362,116.76
43110280,0.298,1.059,-1.022,113.26,9.607,96.355
43110290,0.31,1.444,-1.175,104.44,25.69,74.742
43110300,-1.22,0.214,1.188,30.047,-45.307,30.87
43110310,-0.522,-1.998,0.4,187.407,-389.077,-246.662
43110320,1.289,-0.085,0.139,542.605,-46.935,-259.49
43110330,0.265,1.997,1.789,507.36,9.135,-55.545
43110340,1.148,0.145,1.881,139.527,80.832,-49.315
43110350,-1.662,1.97,1.355,120.925,130.287,108.85
43110360,-0.451,0.625,1.402,-84.682,15.067,148.68
43110370,-1.101,-0.525,1.35,-171.027,-47.705,76.685
43110380,0.183,-0.317,1.005,-163.362,-41.825,28.787
43110390,-0.314,-0.478,0.652,-146.65,-20.737,-12.827
43110400,0.021,-0.758,0.388,-124.477,-19.355,-21.7
43110410,0.218,-0.914,0.405,-69.545,-22.592,-26.775
43110420,0.417,-0.836,0.452,-15.645,-20.825,-9.17
43110420,0.43,-0.833,0.578,33.477,-15.382,14.245
43110440,0.326,-0.423,0.902,76.317,-2.415,36.05
43110440,-0.025,-0.032,1.218,82.635,9.45,51.012
43110460,-0.04,0.114,1.218,55.055,11.147,52.482
43110460,-0.34,0.017,1.177,30.712,8.102,43.61
43110480,-0.402,0.172,1.303,8.47,1.855,25.13
43110480,-0.125,0.081,1.301,-27.912,-5.845,-0.14
43110500,0.102,-0.036,1.312,-64.662,-6.947,-15.295
43110500,0.34,-0.139,1.302,-95.2,6.615,-18.182
43110510,0.27,-0.146,1.278,-122.762,22.505,-11.112
43110520,0.225,-0.192,1.309,-155.067,29.925,-5.442
43110530,0.219,-0.18,1.302,-190.96,34.002,0.087
43110540,0.226,-0.199,1.261,-214.305,37.59,8.715
43110550,0.137,-0.297,1.261,-237.23,39.515,21.385
43110560,0.094,-0.312,1.332,-260.627,35.07,33.495
43110570,0.234,-0.432,1.25,-285.127,18.182,42.245
43110580,0.097,-0.722,1.768,-303.327,15.942,67.515
43110590,-0.651,-1.806,1.882,-311.92,-33.827,87.22
43110600,-0.948,-1.998,1.305,-232.627,-138.39,45.377
43110610,-0.314,-1.998,0.564,-122.36,-166.477,26.53
43110620,0.295,-1.413,-0.177,23.012,-117.652,46.532
43110630,-0.427,-0.119,-0.251,94.43,-12.04,81.847
43110640,-0.903,-0.122,0.353,-8.575,-0.56,50.382
43110650,-0.106,-0.62,0.499,-66.797,-42.332,28.647
43110660,0.623,-0.202,0.559,-30.625,-27.405,67.48
43110670,0.756,0.58,0.517,7.875,1.855,93.38
43110680,0.802,0.906,0.446,16.1,20.72,91.35
43110690,1.006,1.1,0.395,39.497,24.465,73.972
43110700,1.086,1.481,0.33,69.597,17.71,53.305
43110710,0.941,1.681,0.272,89.005,-1.435,18.34
43110720,0.931,1.402,0.181,89.46,-21.192,-31.045
43110730,0.92,0.89,-0.177,96.687,-17.412,-82.88
43110740,0.475,0.513,-0.41,109.865,10.062,-122.097
43110750,-0.599,0.17,-0.53,90.965,2.66,-149.012
43110760,-1.186,-0.116,-0.418,48.877,-65.94,-143.342
43110770,-0.807,-0.825,-0.361,-9.292,-126.612,-86.572
43110780,-0.557,-1.188,-0.254,-43.96,-140.367,1.802
43110790,-0.82,-1.484,-0.411,-1.802,-138.74,72.467
43110800,-1.001,-1.143,-0.552,53.042,-150.43,111.667
43110810,-0.69,-1.27,-0.619,52.447,-168.612,112.682
43110820,-1.139,-1.885,1.335,-3.57,-120.837,73.115
43110820,1.675,-1.831,-1.788,341.057,-9.292,-127.435
43110830,-1.795,1.899,0.891,573.177,166.197,33.46
43110840,0.513,1.819,0.19,480.725,20.3,-21.595
43110850,1.426,-1.681,1.568,289.94,20.23,10.605
43110860,0.268,1.603,1.803,340.077,77.962,-37.292
43110870,-1.016,0.606,1.712,45.132,39.742,4.392
43110880,-0.195,0.067,1.472,-157.5,5.337,51.695
43110890,-0.631,-0.258,1.109,-138.372,0.542,50.067
43110900,-0.244,-0.964,0.405,-155.225,3.675,-15.47
43110910,-0.414,-1.048,0.16,-97.947,4.602,-35.28
43110920,0.049,-1.012,0.39,-38.15,-10.097,-47.442
43110930,0.551,-0.611,0.726,7.28,-22.417,-29.47
43110940,0.229,-0.224,1.062,28.927,-15.732,-1.015
43110950,0.092,-0.016,1.244,24.377,-4.987,6.352
43110960,-0.041,-0.131,1.188,-3.99,-0.577,0.682
43110970,0.175,0.034,1.377,-22.732,1.487,-3.797
43110980,0.282,0.179,1.561,-58.607,9.047,-3.517
43110990,0.133,0.094,1.553,-123.2,20.492,-5.46
43111000,-0.099,-0.088,1.375,-180.495,19.985,-1.592
43111010,-0.251,-0.124,1.205,-214.585,8.435,-1.837
43111020,-0.295,-0.107,1.124,-223.947,-1.592,-7.735
43111030,-0.169,-0.257,1.112,-235.585,-9.257,-16.327
43111040,-0.092,-0.441,1.206,-241.552,-10.43,-21.525
43111050,0.051,-0.461,1.234,-243.512,-4.812,-26.075
43111060,0.087,-0.575,1.582,-233.415,11.147,-13.947
43111070,0.204,-1.372,1.599,-220.517,17.412,-7.787
43111080,0.153,-1.994,1.132,-162.365,46.742,-18.2
43111090,-0.579,-1.998,1.4,-71.347,107.38,-14.682
43111100,-0.749,-1.614,0.325,88.34,117.845,19.197
43111110,0.685,-0.211,-0.043,177.572,127.575,66.237
43111120,0.905,-0.288,-0.126,94.517,118.37,44.047
43111130,0.785,-0.411,-0.073,33.81,100.31,-13.842
43111140,0.647,0.076,0,29.54,77.962,-32.9
43111150,0.693,0.561,0.069,-3.955,46.375,-43.487
43111160,0.694,0.597,0.082,-43.575,6.457,-59.36
43111170,0.521,0.643,0.263,-34.982,-25.34,-65.082
43111170,0.293,0.715,0.379,-10.36,-57.785,-62.79
43111190,0.323,0.62,0.332,17.185,-81.655,-60.917
43111190,0.249,0.612,0.116,54.075,-87.097,-50.05
43111210,0.009,0.72,-0.086,85.435,-81.252,-33.495
43111210,-0.139,0.395,-0.168,91,-78.172,-20.405
43111230,-0.306,0.382,-0.485,70.385,-74.9,-0.945
43111230,-0.332,-0.062,-0.454,76.842,-65.94,4.9
43111250,-0.469,-0.278,-0.597,64.54,-60.795,4.077
43111250,-0.654,-0.097,-0.751,40.075,-54.442,15.295
43111260,-0.772,-0.477,-0.83,24.237,-48.37,45.587
43111270,-1.771,-1.953,1.095,6.562,-84.525,29.627
43111280,1.806,-1.615,-1.06,395.132,-70.175,-173.162
43111290,-1.349,1.964,0.675,545.405,115.377,32.112
43111300,0.051,1.982,1.23,374.552,6.23,4.55
43111310,1.555,-1.072,1.978,147.98,66.342,38.36
43111320,-1.785,1.328,1.515,185.78,131.407,63.595
43111330,0.117,0.809,1.571,13.142,34.055,116.165
43111340,-1.091,-0.765,1.12,-180.512,-45.045,76.195
43111350,-0.235,-0.579,0.832,-101.027,-60.585,70.507
43111360,-0.545,-1.047,0.553,-114.135,-62.825,20.09
43111370,-0.405,-0.23,0.926,-51.467,-58.555,-1.435
43111380,0.694,-0.255,1.07,-61.95,-65.31,-18.392
43111390,0.485,-0.369,1.075,-66.972,-46.48,-1.032
43111400,0.108,-0.224,1.206,-73.815,-41.475,18.515
43111410,0.176,-0.254,1.109,-93.467,-42.752,24.622
43111420,0.088,-0.209,1.293,-110.547,-50.592,30.17
43111430,0.048,-0.005,1.49,-141.68,-61.46,37.327
43111440,-0.064,0.083,1.514,-194.04,-71.575,41.44
43111450,-0.195,0.044,1.347,-250.005,-86.397,39.655
43111460,-0.108,-0.18,1.184,-287.665,-105.665,37.362
43111470,-0.186,-0.242,1.125,-298.27,-120.19,31.482
43111480,-0.344,-0.428,1.152,-308.332,-149.485,16.345
43111490,-0.173,-0.86,1.155,-320.425,-174.055,6.737
43111500,0.23,-0.928,1.013,-296.292,-173.757,0.805
43111510,0.345,-0.847,1.016,-266.857,-130.165,13.405
43111510,0.317,-0.706,1.45,-239.732,-79.275,33.075
43111530,0.176,-1.458,1.481,-214.13,-68.46,9.135
43111530,-0.375,-1.645,1.18,-135.957,-52.307,-30.765
43111550,-0.699,-1.034,0.904,20.02,-13.212,-19.565
43111550,-0.405,-0.728,0.963,102.182,37.205,24.482
43111570,0.366,-0.508,0.57,169.47,122.867,71.26
43111570,0.581,-0.207,0.354,220.377,179.987,57.242
43111580,0.21,0.328,0.109,242.602,219.642,31.22
43111590,0.333,0.805,-0.009,248.132,220.412,-7.052
43111600,0.359,1.085,-0.113,241.955,198.117,-40.425
43111610,0.481,1.116,-0.187,225.837,167.37,-69.702
43111620,0.661,0.969,-0.266,201.495,138.652,-90.667
43111630,0.732,0.643,-0.321,192.972,111.597,-114.975
43111640,0.843,0.31,-0.365,181.107,97.195,-141.627
43111650,0.745,-0.057,-0.447,161.472,94.762,-167.16
43111660,0.402,-0.331,-0.601,140.122,92.592,-187.162
43111670,0.065,-0.457,-0.758,112.56,83.615,-196.875
43111680,-0.303,-0.622,-0.821,66.395,62.125,-200.69
43111690,-0.666,-0.796,-0.851,13.09,19.88,-198.957
43111700,-0.729,-0.961,-0.854,-29.732,-19.845,-166.827
43111710,-0.87,-1.8,0.898,-48.16,-30.87,-152.145
43111720,1.114,-1.679,-1.159,355.355,202.247,-331.327
43111730,-0.578,1.997,1.744,555.152,195.842,-32.917
43111740,0.749,-0.151,1.443,205.397,169.242,-29.015
43111750,-1.655,1.731,1.013,129.517,138.547,83.842
43111760,-0.406,0.16,1.314,-65.887,2.257,128.835
43111770,-1.037,-0.735,1.024,-173.25,-74.287,24.71
43111780,0.553,-1.072,0.681,-146.72,-81.41,-10.36
43111790,0.361,-0.832,0.628,-80.01,-56.84,-24.08
43111800,0.608,-0.376,1.025,-4.357,-28.017,-9.397
43111810,0.172,-0.404,0.823,-18.165,-1.942,11.427
43111820,-0.275,-0.142,1.053,11.217,3.482,21.63
43111830,-0.138,-0.144,1.045,-6.965,-5.635,8.172
43111840,0.209,-0.076,1.141,-15.26,-9.94,0.35
43111850,0.171,-0.089,1.145,-31.272,-6.492,7.595
43111860,0.299,-0.026,1.219,-47.11,-2.38,20.317
43111870,-0.049,-0.085,1.328,-72.73,1.732,33.967
43111880,0.088,-0.048,1.316,-107.712,-1.96,34.982
43111890,-0.113,-0.059,1.25,-133.962,-7.017,28.07
43111900,-0.092,-0.154,1.2,-164.447,-17.622,15.382
43111910,-0.067,-0.179,1.122,-189.717,-23.31,8.75
43111920,-0.038,-0.193,1.119,-201.39,-26.04,7.21
43111920,-0.03,-0.286,1.019,-216.195,-29.207,9.24
43111940,-0.046,-0.369,0.944,-217.367,-33.267,11.602
43111940,-0.174,-0.425,0.916,-212.922,-45.885,15.172
43111960,-0.387,-0.453,0.999,-204.925,-74.935,26.075
43111960,-0.452,-0.773,1.251,-204.715,-112.91,33.162
43111980,-0.369,-1.29,1.098,-182.752,-158.182,22.837
43111980,-0.056,-1.51,0.948,-119.14,-165.287,3.395
43112000,0.301,-1.997,0.839,-61.547,-134.12,-21.245
43112000,0.117,-1.821,0.536,32.917,-50.68,-10.08
43112010,-0.826,-1.124,0.325,139.037,61.372,30.59
43112020,-0.904,-0.667,0.135,147.84,85.942,56.735
43112030,0.047,-0.736,-0.076,134.802,83.702,44.642
43112040,0.124,-0.601,-0.027,125.86,106.767,33.005
43112050,-0.329,-0.194,-0.078,125.177,114.327,13.492
43112060,-0.136,0.27,-0.107,101.027,126.385,-5.04
43112070,-0.23,0.552,-0.119,68.932,140.052,-17.937
43112080,-0.241,0.627,-0.099,51.485,149.485,-38.5
43112090,-0.153,0.693,-0.12,60.445,162.802,-51.66
43112100,-0.249,0.78,-0.117,78.365,165.27,-60.865
43112110,-0.289,0.754,-0.152,80.692,144.2,-73.482
43112120,-0.094,0.557,-0.241,69.195,116.97,-82.04
43112130,0.139,0.412,-0.694,57.54,99.417,-77.682
43112140,-0.348,1.011,0.227,79.782,76.405,-73.587
43112150,-1.34,-1.375,1.186,100.642,-308.21,-234.22
43112160,1.998,-1.998,1.757,458.552,-197.067,-399.07
43112170,-0.524,-0.049,1.464,534.24,-10.167,-130.357
43112180,1.904,1.996,1.952,321.51,43.855,-94.255
43112190,-1.758,1.749,1.367,149.152,128.222,56.35
43112200,-0.46,1.746,1.329,3.955,36.487,146.247
43112210,-1.422,-0.33,1.163,-159.582,-43.82,83.79
43112220,0.121,-1.249,0.705,-154.892,-62.422,9.782
43112230,-0.113,-1.104,0.572,-89.075,-44.957,-25.095
43112240,0.646,-0.593,0.617,-42.192,-36.732,-24.132
43112250,0.307,-0.728,0.658,1.715,-20.667,4.497
43112260,0.176,-0.316,1.051,49.35,-5.495,17.85
43112260,0.025,-0.034,1.136,40.757,6.09,24.29
43112280,0.108,-0.02,1.156,28.525,9.1,23.1
43112280,-0.134,0.122,1.142,3.622,8.627,30.485
43112300,-0.012,0.092,1.252,-25.637,-3.185,34.562
43112300,0.117,0.116,1.404,-62.265,-13.3,42.262
43112320,0.486,0.007,1.507,-106.155,-16.887,53.725
43112320,0.331,-0.264,1.444,-151.655,-7.647,63.315
43112330,0.166,-0.39,1.319,-189.997,1.102,78.12
43112340,0.13,-0.301,1.228,-213.027,11.515,93.327
43112350,0.229,-0.233,1.191,-208.775,28.98,103.88
43112360,0.091,-0.198,1.19,-198.712,34.125,97.177
43112370,0.355,-0.56,1.231,-212.712,54.635,108.202
43112380,0.887,-1.137,0.805,-221.882,101.115,135.502
43112390,0.349,-1.512,1,-180.25,126.21,160.282
43112400,-1.145,-1.74,1.512,-127.61,76.317,188.457
43112410,-1.998,-1.998,1.267,-47.74,-50.155,180.547
43112420,-0.772,-1.463,-0.149,101.605,-107.222,277.112
43112430,0.771,-0.752,-0.552,137.41,-71.837,351.277
43112440,0.397,-0.75,-0.374,41.055,-80.255,268.73
43112450,0.548,-1.163,-0.129,-30.73,-60.445,184.817
43112460,0.768,-1.096,0.044,-39.83,-47.092,118.86
43112470,0.595,-0.782,0.078,-45.955,-40.075,59.465
43112480,0.43,-0.683,0.134,-57.417,-30.467,9.03
43112490,0.131,-0.588,0.159,-72.502,-30.817,-33.18
43112500,-0.073,-0.395,0.189,-84.84,-38.325,-66.727
43112510,-0.238,-0.201,0.201,-100.467,-45.167,-91.525
43112520,-0.284,0.153,0.079,-114.572,-45.447,-113.942
43112530,0.006,0.955,-0.017,-108.36,-24.395,-130.585
43112540,-0.313,1.627,-0.163,-99.225,-4.847,-133.49
43112550,-0.417,1.994,-0.228,-95.462,-11.9,-151.13
43112560,-0.533,1.997,-0.332,-88.567,-31.045,-162.347
43112570,-0.226,1.172,-0.518,-73.465,-30.187,-152.04
43112580,-0.573,1.98,-0.767,25.76,21.105,-91.892
43112590,-1.865,-1.194,1.376,140.087,-50.435,-88.392
43112600,1.227,-1.758,0.886,355.897,-184.887,-397.915
43112610,-0.953,1.903,-0.936,561.242,125.055,-140.84
43112620,0.13,1.443,1.89,467.512,-53.655,-123.13
43112630,1.222,-1.53,1.705,106.312,-61.617,-45.062
43112640,0.41,1.997,1.961,365.872,94.622,47.775
43112650,-1.274,0.49,1.466,-4.427,76.142,38.395
43112660,-1.241,0.332,1.273,-71.627,32.375,51.992
43112670,-0.666,-0.71,0.523,-93.52,-9.52,13.685
43112670,-0.174,-0.773,0.659,-56.875,-31.482,-23.765
43112690,0.501,-0.483,0.872,-30.87,-35.7,-25.795
43112690,0.41,-0.338,0.964,-21.682,-25.13,-3.605
43112710,0.038,-0.198,1.044,-14.822,-13.685,18.725
43112710,-0.092,-0.157,1.056,-23.975,-13.982,20.352
43112730,-0.009,-0.268,1.013,-33.582,-17.325,13.02
43112730,0.023,-0.228,1.135,-39.83,-18.585,10.675
43112750,0.122,0.024,1.324,-47.757,-19.897,16.94
43112750,0.144,-0.087,1.303,-81.637,-20.37,21.49
43112760,0.13,-0.195,1.254,-113.907,-20.002,23.082
43112770,0.181,-0.228,1.156,-142.887,-22.067,27.615
43112780,0.176,-0.352,1.073,-166.215,-24.815,35.052
43112790,0.033,-0.313,1.16,-172.847,-26.74,44.835
43112800,-0.245,-0.358,1.2,-177.047,-42.28,54.687
43112810,0.028,-0.763,1.041,-183.68,-36.347,66.587
43112820,0.199,-0.895,0.985,-159.67,-18.287,76.405
43112830,-0.1,-1.558,1.008,-112.437,-31.22,48.895
43112840,0.071,-1.998,1.437,-73.045,-33.005,18.235
43112850,-0.044,-1.998,0.653,86.24,14.717,9.782
43112860,-0.693,-0.639,-0.932,198.45,89.932,82.862
43112870,-0.13,-0.618,-0.362,71.12,27.772,48.072
43112880,1.213,-1.918,-0.249,-84.227,-46.042,-90.79
43112890,0.497,-1.693,-0.022,-77.35,-11.917,-130.9
43112900,-0.877,-0.514,0.022,-64.575,-9.695,-140.052
43112910,-0.716,-0.27,0.13,-125.352,-37.625,-147.822
43112920,-0.271,-0.576,0.292,-155.645,-47.792,-114.8
43112930,-0.258,-0.187,0.351,-137.917,-38.237,-57.645
43112940,-0.269,0.644,0.13,-99.68,-23.082,5.162
43112950,-0.31,1.34,-0.132,-74.235,-20.72,56.875
43112960,-0.06,1.671,-0.399,-75.722,-14.7,95.077
43112970,0.158,1.941,-0.671,-68.495,6.282,124.477
43112980,-0.228,1.636,-0.811,-48.44,23.257,158.637
43112990,-0.399,1.44,0.796,83.107,19.267,132.3
43113000,0.28,-1.955,-0.003,68.74,-214.427,-142.257
43113010,0.357,-1.481,1.564,492.712,86.66,-219.065
43113010,-1.146,1.866,0.168,540.767,109.69,54.477
43113030,1.814,1.079,1.872,433.475,12.845,30.047
43113030,0.991,-1.489,1.998,145.81,-15.067,49.962
43113050,-0.684,1.984,1.979,288.995,53.777,102.812
43113050,-0.453,0.158,1.569,-18.375,15.137,11.06
43113070,-0.036,0.347,1.361,-76.142,7.577,21.805
43113070,-0.41,-0.733,0.609,-124.407,2.975,2.817
43113080,-0.007,-0.839,0.428,-83.09,-0.542,-13.93
43113090,0.115,-0.254,0.962,-6.842,-1.592,-25.305
43113100,0.317,-0.681,0.797,-35.42,-1.365,-17.01
43113110,0.168,-0.189,1.044,-6.02,8.067,-5.617
43113120,0.069,-0.263,1.002,-24.395,11.13,0.857
43113130,-0.001,-0.369,1.018,-34.195,10.255,-1.067
43113140,0.055,-0.253,1.128,-43.015,9.065,-0.315
43113150,0.097,-0.179,1.301,-62.16,3.99,4.515
43113160,-0.083,-0.134,1.39,-97.317,-4.882,10.745
43113170,-0.088,-0.088,1.358,-138.145,-17.167,13.93
43113180,-0.078,-0.072,1.322,-178.447,-30.905,17.71
43113190,-0.186,-0.126,1.301,-213.272,-47.6,17.045
43113200,-0.486,-0.164,1.375,-241.587,-74.69,13.195
43113210,-0.611,-0.442,1.41,-255.972,-120.137,9.765
43113220,-0.809,-1.141,1.4,-253.522,-187.897,7.105
43113230,-0.21,-1.317,1.208,-200.252,-243.25,-8.05
43113240,-0.055,-1.761,0.388,-136.167,-234.272,-33.617
43113250,1.15,-1.998,0.364,-86.502,-126.682,-99.085
43113260,-1.135,-1.609,-0.273,52.045,46.812,-21.84
43113270,-1.885,-0.751,0.02,52.465,104.037,4.55
43113280,-0.273,-1.174,0.019,12.6,73.307,-26.425
43113290,0.19,-0.586,0.396,3.447,107.1,-6.125
43113300,-0.26,0.277,0.487,10.5,138.057,15.085
43113310,0.02,0.911,0.436,23.31,149.87,13.527
43113320,0.342,1.302,0.317,48.072,163.59,18.112
43113330,-0.035,1.442,0.156,72.31,155.505,23.292
43113340,-0.026,1.289,-0.179,95.567,126.77,19.477
43113350,0.281,1.298,-0.75,117.197,112.63,29.855
43113360,0.264,1.608,-0.841,113.032,108.972,45.902
43113370,0.291,1.275,-0.713,54.145,76.125,33.705
43113380,0.561,0.546,-0.354,-10.412,30.975,-0.227
43113390,0.623,-0.174,-0.335,-22.942,-12.285,-26.705
43113400,0.445,-1.327,0.867,-7.087,-6.685,-60.97
43113410,-0.325,-1.941,1.661,141.4,-156.38,-234.36
43113420,0.434,-0.268,-0.488,548.537,88.637,-301.717
43113420,-0.062,1.997,0.525,565.635,87.045,90.317
43113440,1.87,-0.346,1.998,343.315,-11.952,49.84
43113440,0.325,-0.11,1.673,316.627,128.817,58.257
43113450,-1.891,1.989,1.087,291.987,160.545,158.427
43113460,-1.784,-0.185,1.228,-152.355,-30.975,26.477
43113470,0.32,-0.378,0.951,-185.22,-109.06,-12.092
43113480,0.151,-1.229,0.685,-144.865,-94.517,-33.635
43113490,0.542,-0.649,0.861,-69.177,-66.115,-28.332
43113500,0.932,-0.591,0.846,-51.222,-37.047,-10.727
43113510,0.008,-0.326,0.867,-23.467,-6.282,20.16
43113520,-0.167,-0.432,0.954,-12.477,0.175,16.94
43113530,0.254,-0.116,1.073,-8.68,2.625,-3.255
43113540,0.371,-0.203,1.277,-19.635,13.37,-1.172
43113550,0.263,0.102,1.309,-36.312,29.26,15.802
43113560,0.293,-0.008,1.376,-73.902,32.392,24.657
43113570,0.208,-0.169,1.331,-122.955,31.517,45.78
43113580,-0.042,-0.035,1.347,-148.487,23.362,61.092
43113590,-0.05,-0.032,1.301,-206.027,7.787,60.13
43113600,0.101,-0.26,1.364,-227.08,9.817,65.45
43113610,0.106,-0.4,1.401,-241.71,12.18,73.64
43113620,0.29,-0.871,1.246,-238.682,22.05,89.005
43113630,0.183,-1.564,0.982,-201.11,19.792,108.902
43113640,-0.255,-1.948,0.541,-111.195,-30.065,118.615
43113650,-0.349,-1.95,0.988,-48.895,-80.08,139.842
43113660,-0.436,-1.854,0.255,33.337,-100.485,187.32
43113670,-0.643,-1.24,0.121,63.542,-54.407,298.147
43113680,1.427,-1.751,0.119,21.945,-53.602,286.247
43113690,1.75,-1.724,0.234,2.607,-54.442,203.122
43113700,1.291,-1.271,0.179,-5.425,-19.425,140.105
43113710,0.918,-0.682,0.027,-19.827,-6.055,61.075
43113720,0.807,-0.237,-0.011,-42.035,-18.235,-18.2
43113730,0.742,0.213,-0.158,-56.717,-28.122,-74.095
43113740,0.424,0.847,-0.254,-56.612,-41.545,-101.587
43113750,-0.126,1.352,-0.162,-56.122,-81.077,-120.347
43113760,-0.269,1.404,-0.218,-67.322,-129.027,-140.735
43113760,-0.452,1.316,-0.368,-70.507,-152.88,-141.015
43113780,-1.012,1.382,-0.54,-51.66,-163.747,-124.6
43113780,-1.093,1.483,-0.854,-35.157,-157.535,-102.462
43113800,-1.089,1.651,-1.097,-31.202,-126.21,-76.387
43113800,-0.614,-0.191,0.058,-55.44,-56.052,-59.342
43113820,-0.726,-1.998,-0.467,98.105,101.552,-16.24
43113820,0.11,0.591,0.378,555.362,183.75,-70.735
43113830,-1.379,1.997,1.03,539.332,38.78,-32.305
43113840,1.735,-0.763,1.951,220.99,-6.597,-21.822
43113850,0.421,0.778,1.872,194.757,100.415,-12.6
43113860,-1.237,1.433,1.796,159.88,101.605,48.23
43113870,-0.945,-0.217,1.329,-131.25,8.05,11.165
43113880,-0.514,0.263,1.136,-92.085,-23.817,2.835
43113890,-0.08,-0.952,0.654,-134.54,-36.12,-33.005
43113900,0.018,-0.543,0.849,-81.042,-25.2,-41.86
43113910,-0.014,-0.331,0.964,-82.792,-16.152,-47.792
43113920,0.415,-0.337,1.026,-88.41,-7.822,-44.8
43113930,0.301,-0.319,1.129,-99.54,-8.82,-26.967
43113940,0.066,-0.354,0.924,-107.677,-12.372,-8.75
43113950,0.145,-0.09,1.165,-80.36,-19.67,-7.892
43113960,-0.056,-0.52,1.104,-137.147,-31.325,1.4
43113970,0.125,-0.053,1.18,-135.292,-36.207,1.89
43113980,0.162,-0.114,1.206,-160.842,-36.137,0.385
43113990,0.168,-0.368,1.102,-202.405,-31.482,-3.5
43114000,0.049,-0.423,1.086,-199.587,-32.742,-5.005
43114010,0.241,-0.45,1.095,-185.832,-34.545,-4.445
43114020,0.349,-0.689,1.191,-176.032,-20.072,-6.212
43114030,0.198,-1.077,1.316,-163.082,-0.297,-15.837
43114040,0.126,-1.379,1.328,-123.392,24.447,-34.842
43114050,-0.146,-1.895,1.364,-75.722,51.135,-81.322
43114060,1.648,-1.704,0.678,11.69,85.032,-174.772
43114070,1.141,-0.561,0.053,50.907,159.862,-214.532
43114080,-1.207,0.223,-0.046,40.95,147.945,-259.157
43114090,-1.998,0.932,0.579,18.217,54.04,-230.86
43114100,-1.805,1.087,0.4,8.54,-18.235,-66.692
43114100,-1.296,0.896,0.305,75.582,-4.55,138.092
43114120,-0.964,1.136,-0.089,166.145,30.485,279.265
43114120,-0.061,1.353,-0.661,244.317,48.405,335.86
43114140,0.642,1.534,-1.433,272.86,42.805,311.535
43114140,0.782,1.619,-1.566,246.96,25.2,227.64
43114160,0.723,1.072,-1.582,149.292,3.78,114.625
43114160,-0.471,-0.099,0.24,25.655,-39.55,0.962
43114170,-0.345,-1.998,1.438,130.095,-306.337,-260.802
43114180,0.046,0.158,0.612,554.977,21.735,-318.395
43114190,1.496,1.997,1.624,448.035,207.707,-113.715
43114200,-1.884,0.592,0.827,-9.397,146.912,25.462
43114210,-0.092,0.576,1.075,-28.63,1.067,146.475
43114220,-1.476,-0.377,1.035,-70.542,-66.815,78.347
43114230,0.531,-0.856,0.803,-110.092,-102.672,-7.962
43114240,0.903,-0.196,1.09,-58.205,-79.765,-20.492
43114250,0.575,-0.335,1.038,-51.66,-42.752,-0.437
43114260,0.528,-0.434,0.918,-45.867,-7.21,15.925
43114270,-0.185,-0.339,0.965,-32.567,10.307,17.57
43114280,0.139,-0.171,1.115,-36.522,6.807,0.105
43114290,0.349,-0.17,1.289,-53.235,9.17,-3.517
43114300,0.204,-0.191,1.268,-73.43,15.96,11.725
43114310,0.284,-0.145,1.411,-109.62,21.647,23.537
43114320,-0.092,-0.106,1.329,-160.807,22.102,38.465
43114330,-0.285,0.039,1.269,-189.577,5.127,51.835
43114340,-0.413,-0.036,1.328,-223.755,-21.577,54.285
43114350,-0.445,-0.251,1.213,-246.61,-30.187,44.047
43114360,-0.137,-0.336,1.223,-233.66,-17.307,17.342
43114370,0.001,-0.878,1.204,-245.21,9.835,1.452
43114380,0.044,-1.112,1.233,-192.99,35.192,-30.975
43114390,-0.023,-1.713,0.638,-117.95,65.8,-73.71
43114400,0.332,-1.998,0.545,-97.125,109.48,-162.837
43114410,0.317,-1.686,0.4,-52.482,169.225,-211.067
43114420,-1.52,-0.117,0.322,-12.372,179.287,-215.127
43114430,-1.241,1.021,0.326,-48.755,142.415,-220.622
43114440,-0.934,1.888,0.233,-20.51,118.772,-139.072
43114450,-0.568,1.997,0.211,42.787,101.132,-48.387
43114460,0.077,1.997,-0.299,87.097,88.27,18.445
43114470,0.716,1.997,-1.114,162.68,90.387,70.157
43114480,0.807,1.997,-1.647,229.722,77.122,89.565
43114490,0.768,1.843,-1.598,205.152,22.522,59.587
43114500,-0.212,0.068,0.723,89.967,-74.322,12.04
43114510,-0.335,-1.998,0.884,210.385,-373.8,-289.065
43114510,0.046,0.102,-0.794,524.317,-14.787,-246.452
43114530,0.707,1.982,1.736,534.012,31.832,80.465
43114530,0.275,-0.742,1.33,56.472,74.252,-41.387
43114550,-0.795,1.963,1.003,105.7,100.275,102.182
43114550,-1.439,0.355,1.045,-106.855,-18.392,93.8
43114570,0.332,-0.699,0.978,-156.555,-99.19,1.872
43114570,0.233,-1.156,0.672,-123.917,-88.742,-21.21
43114580,0.908,-0.578,0.918,-56.507,-55.335,-26.495
43114590,0.95,-0.453,0.871,-36.977,-15.19,-6.825
43114600,-0.044,-0.393,0.893,-18.2,22.085,19.267
43114610,-0.166,-0.187,1.016,-6.037,26.11,15.697
43114620,0.093,-0.108,1.117,-14.525,21.297,-4.025
43114630,0.201,0.03,1.296,-29.085,24.167,-5.39
43114640,0.088,0.054,1.378,-62.737,29.75,2.45
43114650,-0.054,0.035,1.502,-109.497,29.75,10.36
43114660,-0.274,0.263,1.414,-164.255,24.202,17.465
43114670,-0.167,-0.026,1.355,-203.035,7.875,2.817
43114680,-0.143,0.008,1.277,-237.86,-3.395,3.395
43114690,-0.072,-0.055,1.194,-259.997,-3.22,-2.975
43114700,-0.021,-0.19,1.134,-268.922,0.63,-7.402
43114710,0.101,-0.235,1.003,-269.36,5.985,-9.222
43114720,0.071,-0.348,0.99,-255.692,13.352,-0.857
43114730,0.02,-0.455,1.054,-245.805,19.652,11.34
43114740,-0.088,-1.044,0.965,-233.485,18.27,24.64
43114750,0.494,-1.398,1.701,-193.987,23.73,25.287
43114760,-0.021,-0.607,0.94,-82.442,25.882,28.875
43114770,-1.197,0.083,1.611,38.237,14.35,35.735
43114780,-0.567,0.34,0.266,130.987,-117.705,31.132
43114790,0.93,0.102,0.317,223.405,-50.172,107.117
43114800,0.483,-0.498,-0.281,212.59,-30.17,103.022
43114810,0.127,-0.442,-0.55,231.525,-37.905,54.092
43114820,0.184,-0.436,-0.673,202.597,-42.087,39.41
43114830,0.138,-0.711,-0.862,147.052,-53.515,2.1
43114830,-0.315,-0.799,-0.937,101.832,-58.747,-21.455
43114850,-0.603,-0.635,-1.297,74.06,-60.007,-23.117
43114850,-0.709,0.004,-1.559,54.197,-58.73,-10.902
43114870,-0.944,0.51,-1.327,0.787,-58.012,16.467
43114870,-0.969,0.277,-0.95,-82.075,-60.567,38.307
43114890,-1.62,-1.454,1.591,-136.045,-136.517,14.857
43114890,1.654,-1.998,-0.619,297.36,-155.207,-233.082
43114910,-0.998,1.145,0.287,570.57,111.737,-90.055
43114910,1.531,1.533,1.904,421.015,65.835,-86.362
43114920,-0.389,1.319,1.64,193.025,164.482,3.307
43114930,-0.772,1.738,1.358,108.325,87.132,99.155
43114940,-1.446,-0.446,1.079,-122.167,-32.375,70.105
43114950,0.093,-1.123,0.713,-131.302,-75.775,3.01
43114960,0.568,-1.31,0.651,-75.897,-57.295,-22.19
43114970,0.575,-0.357,0.93,-5.932,-17.955,-9.257
43114980,0.226,-0.339,1.008,7.087,7.98,8.82
43114990,-0.213,0.116,1.116,15.26,20.615,19.897
43115000,-0.377,-0.054,1.06,-11.217,4.882,11.76
43115010,0.128,-0.163,1.122,-33.687,-11.725,-2.782
43115020,0.196,0.095,1.308,-47.32,-13.475,2.24
43115030,0.351,-0.051,1.409,-82.425,-13.667,12.722
43115040,0.353,0.001,1.537,-117.232,-8.592,26.495
43115050,0.251,-0.352,1.389,-184.782,-5.407,43.662
43115060,0.252,-0.208,1.148,-213.255,-3.815,60.34
43115070,0.059,-0.134,1.138,-217.857,-7.227,77.087
43115080,-0.012,-0.181,1.036,-220.605,-6.825,80.902
43115090,-0.002,-0.364,1.161,-214.742,-8.575,81.2
43115100,0.149,-0.574,1.147,-217.28,10.115,82.162
43115110,0.149,-0.872,1.023,-202.702,31.447,82.6
43115120,-0.442,-1.237,1.052,-167.615,22.33,62.352
43115130,-0.408,-1.768,1.224,-117.775,-19.582,21.017
43115140,-0.192,-1.998,1.399,-60.847,-45.22,-1.33
43115150,0.561,-1.517,0.094,108.815,-38.535,-18.182
43115160,0.009,-0.032,-0.337,224.297,45.955,35.21
43115170,-0.396,-0.038,0.013,111.107,41.527,-7.717
43115180,-0.08,-0.776,0.007,37.152,-6.282,-91.192
43115190,0.262,-0.445,0.009,51.362,1.4,-102.62
43115200,-0.038,0.235,-0.027,41.737,16.397,-99.82
43115210,-0.444,0.244,0.062,4.515,13.562,-97.142
43115220,-0.381,0.071,0.294,-15.522,-5.25,-86.012
43115230,-0.097,-0.004,0.319,-17.115,-24.395,-67.235
43115240,0.131,0.087,0.14,0.21,-17.885,-42.665
43115250,0.039,0.35,-0.187,15.767,7.175,-15.837
43115260,-0.256,0.651,-0.535,18.672,21.42,2.555
43115260,-0.278,0.999,-0.901,5.67,18.445,9.747
43115280,-0.141,1.463,-1.104,-25.13,16.275,14
43115280,-0.243,1.919,-0.902,-56.91,9.992,17.29
43115300,-0.862,-0.274,0.731,-97.142,-34.3,10.745
43115300,0.275,-1.998,-0.924,132.527,-179.48,-199.22
43115320,-0.283,-0.054,-0.059,564.917,173.04,-239.942
43115320,0.187,1.997,1.405,532.56,23.572,4.76
43115330,1.384,-0.806,1.884,206.64,78.715,-12.215
43115340,-1.83,1.902,1.385,195.002,140.542,83.51
43115350,-0.637,0.74,1.285,-47.145,10.272,119.227
43115360,-0.856,-1.194,0.822,-180.127,-75.477,10.465
43115370,0.5,-1.296,0.549,-94.115,-73.78,-20.195
43115380,0.614,-0.632,0.851,-36.12,-42.962,-31.29
43115390,0.592,-0.346,0.921,-10.622,-13.247,-1.312
43115400,-0.085,-0.208,1.018,-1.855,7.385,20.877
43115410,-0.415,0.14,1.175,-6.387,0.805,19.355
43115420,-0.032,-0.133,1.053,-36.505,-16.362,-0.35
43115430,0.224,-0.177,1.25,-40.372,-19.652,-10.15
43115440,0.329,0.084,1.347,-64.295,-12.092,-0.105
43115450,0.282,-0.094,1.393,-104.422,-3.325,7.84
43115460,0.107,-0.169,1.35,-149.747,-3.43,24.097
43115470,0.122,-0.191,1.184,-182.315,-13.3,33.145
43115480,0.075,-0.216,1.032,-211.715,-28.192,43.54
43115490,-0.021,-0.164,1.054,-208.652,-33.652,48.982
43115500,-0.174,-0.188,1.113,-215.862,-32.06,43.207
43115510,-0.112,-0.272,1.032,-224.42,-23.607,25.427
43115520,0.039,-0.418,1.019,-220.412,-2.852,14.175
43115530,0.188,-0.538,0.939,-214.795,26.862,1.68
43115540,0.208,-0.662,1.006,-200.34,55.667,-8.522
43115550,0.141,-0.859,1.104,-179.602,71.19,-17.482
43115560,0.097,-1.302,1.02,-148.767,69.877,-28.962
43115570,0.091,-1.511,1.032,-97.912,70.91,-44.782
43115580,0.275,-1.988,1.011,-47.792,92.942,-73.64
43115580,0.225,-1.647,0.262,55.125,122.902,-104.422
43115600,-0.08,-0.346,-0.068,168.455,164.22,-93.24
43115600,-1.096,0.313,-0.165,169.75,139.965,-87.377
43115620,-1.623,0.42,0.374,91.892,55.282,-105
43115620,-0.987,0.001,0.324,63.21,-24.727,-80.762
