time[ms],accX[g],accY[g],accZ[g],Value 1,Value 2,Value 3
38982010,-0.048,-0.984,1.184,-52.097,39.445,-130.585
38982020,-0.172,-0.78,1.095,-61.442,38.36,-130.952
38982030,-0.202,-0.571,1.105,-77.927,37.712,-111.282
38982040,-0.077,-0.49,1.129,-93.432,35.175,-82.582
38982050,0.065,-0.392,1.098,-95.287,36.715,-59.237
38982060,0.098,-0.291,1.017,-91.927,40.11,-42.437
38982070,0.117,-0.218,0.984,-89.985,38.64,-30.555
38982080,0.176,-0.158,0.894,-86.082,31.587,-21.735
38982090,0.199,-0.121,0.825,-81.182,24.99,-11.69
38982100,0.211,-0.067,0.798,-80.5,18.917,-1.96
38982110,0.19,-0.026,0.797,-85.855,11.445,-4.76
38982120,0.122,-0.019,0.786,-92.54,4.095,-16.66
38982130,0.042,0,0.762,-90.492,-2.1,-30.485
38982140,0.013,0.022,0.716,-81.497,-4.847,-46.515
38982150,-0.049,0.053,0.642,-70.245,-3.885,-63.035
38982160,-0.134,0.125,0.531,-64.47,-2.59,-79.607
38982170,-0.17,0.149,0.441,-58.712,-4.06,-94.832
38982180,-0.17,0.149,0.305,-54.442,-5.617,-108.64
38982190,-0.178,0.148,0.108,-49.787,-3.342,-121.94
38982200,-0.322,0.241,-0.02,-53.112,1.627,-132.912
38982210,-0.571,0.318,-0.059,-64.33,-11.707,-141.872
38982220,-0.628,0.425,-0.13,-80.36,-36.102,-142.415
38982230,-0.569,0.737,0.031,-92.312,-41.3,-127.26
38982240,-0.517,1.824,1.118,-116.497,9.205,-91.892
38982250,-1.543,0.76,1.739,-129.675,18.235,-53.06
38982260,1.771,-1.998,0.31,413.927,6.93,6.335
38982260,-0.634,-0.193,0.843,540.417,3.08,-62.86
38982280,-0.086,0.983,1.071,373.485,8.347,-86.905
38982280,0.883,0.398,1.39,322.875,16.485,18.515
38982300,0.299,0.606,1.372,334.932,1.855,34.912
38982300,0.075,0.962,1.505,230.09,40.967,62.247
38982320,-0.513,1.033,1.374,138.005,63.63,65.625
38982320,-0.885,0.939,1.181,56.332,42.35,50.82
38982330,-0.768,0.581,1.127,-13.107,-0.525,29.155
38982340,-0.507,0.304,1.037,-52.167,-37.24,1.225
38982350,-0.103,-0.004,1.021,-68.775,-57.627,-12.425
38982360,0.178,-0.09,1.037,-66.657,-58.73,-14.437
38982370,0.299,0.039,1.037,-58.835,-41.265,-5.897
38982380,0.304,0.054,1.065,-61.232,-19.862,7.595
38982390,0.109,0.008,1.051,-69.265,-1.05,15.172
38982400,0.022,-0.035,1.071,-76.317,8.365,15.19
38982410,0.098,0.008,1.095,-85.54,15.872,14.665
38982420,0.104,0.06,1.116,-98.962,20.002,19.582
38982430,0.159,0.016,1.141,-123.06,20.685,33.897
38982440,0.123,0.038,1.142,-149.275,21.385,53.9
38982450,0.089,0.065,1.148,-170.642,17.937,73.255
38982460,-0.114,0.134,1.133,-190.417,15.417,88.217
38982470,-0.374,0.07,1.1,-208.495,2.957,93.397
38982480,-0.28,-0.031,1.167,-237.387,-4.567,93.135
38982490,-0.314,-0.253,1.264,-257.67,-7.56,90.93
38982500,-0.178,-0.695,1.381,-264.722,-10.027,71.155
38982510,-0.349,-0.944,1.058,-217.822,-24.955,67.095
38982520,-0.005,-1.07,0.951,-112.525,-31.342,65.292
38982530,-0.116,-0.677,0.537,-46.69,6.177,49.91
38982540,-0.111,-0.602,0.6,-34.23,55.807,41.965
38982550,0.087,-0.528,0.502,-6.177,75.145,11.095
38982560,0.461,-0.371,0.357,17.85,105.647,-18.06
38982570,0.444,0.139,-0.055,41.405,101.325,-77.525
38982580,0.161,0.789,-0.248,50.61,56.997,-178.5
38982580,-0.646,1.183,-0.262,23.485,-4.445,-247.52
38982600,-0.489,1.658,-0.381,-6.247,-22.172,-245.612
38982600,-0.54,1.672,-0.234,-8.19,-4.882,-209.965
38982620,-1.015,-0.301,1.383,-27.545,19.53,-195.597
38982620,-0.14,-1.998,1.196,-0.262,-88.375,-303.485
38982640,-0.89,0.124,1.421,360.167,-68.565,-335.597
38982640,1.533,1.976,-0.522,503.212,-22.47,-105.262
38982660,1.673,-0.057,0.863,347.672,19.635,-58.537
38982660,0.09,-1.048,1.553,281.977,30.275,-38.78
38982670,0.868,0.111,1.017,413.927,36.522,99.26
38982680,0.13,0.839,1.29,383.285,63.017,136.955
38982690,-0.971,0.724,1.688,286.527,106.172,131.862
38982700,-1.201,1.575,1.28,219.205,87.622,84.945
38982710,-0.814,1.622,0.941,106.33,20.877,23.782
38982720,-0.369,0.91,1.076,-18.97,-31.307,-7.122
38982730,-0.218,0.282,1.094,-78.522,-50.47,-19.67
38982740,-0.066,-0.043,1.054,-96.845,-53.602,-27.755
38982750,0.135,-0.049,1.086,-94.797,-47.617,-26.967
38982760,0.25,0.041,1.067,-90.842,-33.582,-21.647
38982770,0.331,0.015,1.091,-91.525,-11.112,-11.725
38982780,0.131,0.058,1.152,-95.042,11.392,-3.15
38982790,0.144,0.164,1.185,-108.22,24.85,14.385
38982800,-0.047,0.185,1.212,-136.885,18.62,34.895
38982810,0.156,0.073,1.202,-187.11,0.087,62.72
38982820,-0.009,0.214,1.167,-230.545,6.317,88.777
38982830,-0.315,0.04,1.057,-254.275,-2.765,98.945
38982840,-0.164,-0.144,1.178,-288.61,-14.297,102.305
38982850,-0.04,-0.011,1.092,-314.562,-7.262,99.19
38982860,-0.129,-0.2,1.195,-315.367,-2.87,83.212
38982870,-0.29,-0.651,1.412,-313.95,-2.695,62.177
38982880,-0.447,-0.874,1.082,-256.567,-15.767,67.13
38982890,0.198,-1.443,1.147,-103.547,-24.132,70.577
38982900,-0.435,-0.835,0.717,-34.107,18.252,42.77
38982910,-1.138,-0.58,1.019,0.42,75.792,37.555
38982920,-0.186,-0.721,0.555,72.257,91.42,61.81
38982930,0.52,-0.137,-0.281,147.385,130.62,92.855
38982940,0.293,0.612,-0.685,181.055,115.745,48.58
38982950,0.503,0.227,-0.173,93.747,70.77,-15.557
38982960,0.607,0.131,0.113,1.627,41.177,-98.017
38982970,-0.068,0.408,-0.146,14.735,17.535,-182.927
38982980,-0.653,0.559,-0.491,39.655,-4.06,-208.81
38982990,-0.889,0.701,-0.545,8.452,-7.35,-194.792
38983000,-0.878,0.489,-0.265,-30.8,-2.327,-164.727
38983010,-1.571,-0.604,1.982,-97.702,-75.53,-155.767
38983010,1.061,-1.998,0.892,73.78,-236.232,-226.152
38983020,-0.998,0.367,1.166,501.147,-112.087,-202.265
38983030,1.721,1.97,0.335,480.917,-53.865,-78.68
38983040,1.331,0.325,0.967,349.37,-16.695,-13.79
38983050,0.515,-0.879,1.601,326.637,-17.447,-8.662
38983060,1.013,0.603,1.392,361.76,44.275,94.5
38983070,-0.258,1.068,1.473,307.125,99.732,95.27
38983080,-1.388,1.303,1.387,173.302,95.515,60.847
38983090,-1.015,1.512,1.051,76.405,31.342,25.095
38983100,-0.385,1.098,1.256,-48.177,-26.88,-15.995
38983110,-0.006,0.621,1.216,-130.41,-43.172,-42.402
38983120,-0.051,-0.039,1.016,-162.82,-36.942,-60.095
38983130,0.111,-0.489,0.889,-151.147,-30.275,-58.8
38983140,0.14,-0.597,0.84,-107.642,-17.937,-46.322
38983150,0.145,-0.41,0.882,-75.897,-7.997,-28.892
38983160,0.204,-0.132,0.989,-53.427,0.472,-6.982
38983170,0.173,0.027,1.129,-50.312,7.735,10.517
38983180,0.058,0.146,1.216,-75.897,13.335,30.275
38983190,-0.019,0.225,1.215,-111.842,14.56,49.665
38983200,-0.104,0.326,1.258,-156.135,12.6,65.817
38983210,-0.177,0.308,1.239,-200.445,5.022,73.64
38983220,-0.331,0.186,1.166,-240.117,-7.542,74.707
38983230,-0.138,0.034,1.232,-281.435,-16.17,74.375
38983240,-0.19,-0.03,1.151,-312.34,-16.817,65.975
38983250,-0.229,-0.312,1.215,-332.71,-22.662,46.165
38983260,-0.496,-0.418,1.419,-352.765,-5.145,35
38983270,-0.124,-1.065,1.641,-282.275,-11.06,34.125
38983280,-0.01,-1.594,1.169,-187.162,-30.397,-0.752
38983290,-0.499,-1.162,0.856,-106.137,15.225,-9.24
38983300,-0.941,-0.956,0.783,-29.015,71.557,-1.767
38983310,-1.027,-0.71,1.37,-1.4,73.762,33.442
38983320,0.303,-0.463,0.584,98.735,63.472,87.797
38983330,0.658,0.66,-0.562,222.95,96.495,128.555
38983330,0.227,1.718,-1.02,239.89,96.915,126.297
38983350,0.421,1.478,-0.54,146.16,48.545,105.437
38983350,0.99,0.999,0.034,31.99,5.687,71.837
38983370,0.9,0.893,0.085,-9.782,4.287,30.537
38983370,0.208,0.815,-0.297,18.865,-8.89,-35.49
38983390,-0.445,0.455,-0.476,21.227,-45.832,-71.295
38983390,-0.548,-0.196,-0.312,-35.297,-75.425,-60.427
38983410,-0.698,-0.749,0.01,-63.472,-94.36,-52.727
38983410,-1.829,-1.842,1.429,-137.042,-218.435,-134.312
38983420,-0.397,-0.955,0.992,178.062,-217.122,-277.882
38983430,0.221,1.997,0.237,558.145,-72.485,-46.847
38983440,1.949,1.979,0.109,447.527,-53.025,-6.842
38983450,0.948,-0.667,1.505,230.79,-0.84,-65.502
38983460,0.025,-1.312,1.768,254.642,17.885,-47.775
38983470,1.117,0.991,1.028,361.305,52.57,77.892
38983480,-0.444,0.963,1.363,261.485,91.105,62.807
38983490,-1.368,0.916,1.565,123.777,77.315,22.4
38983500,-0.932,1.377,1.208,48.895,19.6,2.992
38983510,-0.494,0.636,1.163,-57.155,-29.715,-29.96
38983520,-0.054,-0.054,1.089,-112.105,-51.537,-64.295
38983530,0.077,-0.213,0.859,-92.575,-34.02,-81.095
38983540,0.062,-0.422,0.845,-67.55,-20.037,-84.175
38983550,0.231,-0.444,0.891,-35.98,-14.752,-63.105
38983560,0.275,-0.267,0.906,-7.105,-11.567,-36.137
38983570,0.224,-0.105,0.997,7.227,-4.112,-8.89
38983580,0.077,0.088,1.083,9.975,6.72,7.91
38983590,-0.071,0.21,1.165,-5.67,14.612,10.167
38983600,-0.031,0.307,1.237,-37.817,16.415,7.875
38983610,-0.001,0.365,1.278,-78.05,19.005,5.495
38983620,-0.022,0.332,1.264,-123.305,22.592,2.957
38983630,-0.037,0.24,1.234,-166.95,25.077,0.332
38983640,-0.021,0.15,1.194,-201.775,27.965,-0.21
38983650,0.038,0.022,1.163,-224.56,30.747,0.752
38983660,0.074,-0.132,1.139,-240.765,35.665,2.38
38983670,0.11,-0.243,1.185,-252.227,44.31,3.167
38983680,0.205,-0.322,1.245,-256.34,63.49,6.387
38983690,0.265,-0.642,1.283,-246.767,100.835,9.975
38983690,0.046,-0.902,1.11,-194.967,120.697,14.927
38983710,-0.112,-1.145,0.855,-84.542,88.007,18.952
38983710,-0.089,-1.276,0.392,-36.75,65.327,-3.447
38983730,0.907,-1.817,0.678,-47.145,82.057,-3.29
38983730,0.899,-1.339,0.853,-33.04,84.472,-36.662
38983750,-0.017,-0.525,0.34,36.505,93.047,-111.912
38983750,-0.591,0.083,0.022,78.82,90.65,-119.665
38983760,-0.614,0.437,-0.122,51.257,62.527,-83.422
38983770,-0.417,0.583,-0.198,26.897,22.767,-47.372
38983780,-0.167,0.772,-0.32,25.655,-7.735,-25.2
38983790,-0.011,1.062,-0.428,21.262,-18.672,-11.987
38983800,0.028,1.251,-0.537,13.072,-26.197,1.522
38983810,0.09,1.284,-0.911,8.785,-43.575,14.122
38983820,-1.117,0.462,1.553,-41.86,-72.205,13.72
38983830,-1.483,-1.998,0.906,-165.987,-365.26,-137.182
38983840,1.529,-0.808,1.294,320.477,-79.87,1.347
38983850,-1.207,1.76,-0.994,552.422,-85.067,123.48
38983860,1.029,1.653,0.216,506.572,-143.15,-50.522
38983870,1.146,-1.169,1.899,276.902,-71.435,-31.29
38983880,0.155,-0.284,1.891,361.917,-85.19,-36.452
38983890,1.75,1.85,1.437,366.117,-3.43,75.582
38983900,-0.482,1.803,1.529,176.802,85.225,55.02
38983910,-1.215,1.568,1.032,41.23,63.07,68.232
38983920,-0.971,0.393,1.063,-68.46,-3.832,39.567
38983930,-0.516,-0.26,0.988,-107.747,-48.16,-11.06
38983940,0.049,-0.373,0.947,-92.697,-67.48,-34.895
38983950,0.454,-0.233,0.932,-63.56,-59.657,-29.26
38983960,0.481,-0.21,0.881,-33.897,-32.97,-7.962
38983970,0.19,-0.216,0.938,-9.747,-6.877,15.452
38983980,-0.03,-0.08,0.994,13.685,7.035,26.337
38983990,-0.081,0.049,1.013,19.67,9.712,24.447
38984000,-0.024,0.109,1.056,12.757,9.905,17.815
38984010,0.029,0.252,1.097,1.977,12.39,11.532
38984020,0.067,0.274,1.147,-17.902,16.607,8.19
38984030,0.079,0.287,1.229,-43.102,22.26,5.915
38984040,0.061,0.273,1.231,-71.522,29.592,1.627
38984050,0.013,0.193,1.191,-104.772,37.432,0.612
38984060,-0.171,0.134,1.086,-136.902,40.18,-0.087
38984070,-0.16,0.084,1.027,-164.517,37.292,-4.41
38984080,-0.183,0.076,1.042,-178.185,34.632,-7.49
38984080,-0.118,-0.004,1.113,-184.362,30.555,-13.527
38984100,-0.087,-0.089,1.196,-194.915,31.342,-14.63
38984100,0.133,-0.424,1.149,-207.077,49.28,-13.545
38984120,0.285,-0.647,1.04,-205.502,83.142,5.25
38984120,0.044,-0.823,1.01,-171.762,90.107,26.442
38984140,-0.287,-1.113,1.21,-131.53,69.317,35.017
38984140,-0.503,-1.746,1.723,-71.435,32.707,42.402
38984160,0.181,-1.865,1.17,34.685,14.98,43.697
38984160,0.653,-1.261,0.422,159.442,36.137,46.777
38984170,0.462,-0.853,-0.065,181.247,28.752,-13.72
38984180,0.428,-0.858,-0.408,140.297,13.195,-84.437
38984190,0.294,-0.628,-0.594,98.122,-7.472,-166.32
38984200,-0.321,-0.24,-0.349,36.347,-36.662,-231.875
38984210,-0.731,0.009,0.001,-81.2,-66.99,-287.07
38984220,-1.043,-0.023,0.128,-176.05,-74.742,-273.332
38984230,-1.073,0.113,0.075,-173.022,-62.807,-216.352
38984240,-0.999,0.472,-0.01,-123.357,-62.65,-153.125
38984250,-0.074,1.383,0.611,-110.127,-45.027,-76.282
38984260,-1.641,1.608,1.291,-222.057,-27.282,47.757
38984270,1.604,-1.396,0.707,242.375,-63,98.087
38984280,0.014,-1.816,1.423,427.332,25.445,33.407
38984290,-1.393,0.637,0.839,349.475,4.69,-78.19
38984300,0.691,0.884,0.779,411.652,-8.837,34.93
38984310,0.137,0.576,1.376,310.45,-27.982,19.162
38984320,0.16,0.406,1.645,229.967,-16.922,23.012
38984330,0.16,1.244,1.461,189.227,16.205,56.227
38984340,-0.49,1.172,1.356,86.992,28.245,39.655
38984350,-0.633,0.796,1.29,-25.672,16.03,22.505
38984360,-0.547,0.376,1.148,-83.545,-6.93,-11.235
38984370,-0.198,0.151,1.072,-119.052,-21.787,-43.26
38984380,-0.053,0.036,1.059,-125.58,-14.927,-64.26
38984390,0.069,-0.006,1.08,-132.055,-5.652,-64.627
38984400,0.103,0.025,1.053,-146.51,-1.557,-46.445
38984410,0.105,-0.044,1.013,-160.51,-1.435,-25.077
38984420,0.029,-0.131,0.973,-172.847,-1.522,-7.857
38984420,0.006,-0.229,0.957,-176.96,-1.89,7.262
38984440,-0.013,-0.252,0.963,-178.202,0.227,17.657
38984440,0.011,-0.251,0.968,-178.01,4.34,23.485
38984460,0.07,-0.299,0.974,-174.79,12.617,28.367
38984460,0.154,-0.333,0.982,-168.822,23.275,30.275
38984480,0.165,-0.373,1.006,-162.12,37.205,32.9
38984480,0.127,-0.528,1.041,-152.705,46.182,35.087
38984500,0.037,-0.273,1.113,-121.59,55.335,41.16
38984500,-0.014,-0.39,1.138,-89.407,51.047,26.687
38984510,-0.036,-0.441,1.282,-126.175,57.522,25.322
38984520,-0.05,-0.752,1.371,-130.9,55.212,23.607
38984530,-0.076,-0.901,1.309,-82.337,31.937,14.315
38984540,-0.158,-0.78,0.997,-30.642,16.012,5.057
38984550,0.021,-0.731,1.129,10.657,43.75,9.31
38984560,-0.126,-1.105,1.021,70.14,44.38,5.25
38984570,0.399,-0.819,0.297,171.535,47.372,4.672
38984580,0.068,0.072,-0.895,256.882,63.49,10.325
38984590,-0.509,0.907,-1.3,264.792,47.687,5.425
38984600,-0.677,0.829,-0.911,160.387,-26.302,3.99
38984610,-0.153,0.255,-0.265,-13.597,-71.067,14.892
38984620,0.094,0.025,0.022,-119.42,-47.67,31.937
38984630,-0.198,-0.005,-0.161,-66.99,-39.112,11.462
38984640,-0.547,0.428,0.071,18.095,-77.49,-7.122
38984650,-1.805,-0.086,1.738,-111.142,-231.56,2.275
38984660,0.965,-1.998,1.124,11.375,-203.752,-60.305
38984670,-0.747,-0.113,1.008,451.097,-1.487,56.42
38984680,0.795,1.997,-0.009,488.407,-60.935,53.655
38984690,1.215,0.716,0.701,313.372,-42.017,57.05
38984700,-0.039,-1.302,1.998,159.477,-32.48,-24.92
38984710,0.058,0.747,1.491,274.75,-16.345,16.24
38984720,0.515,1.582,1.18,213.255,12.792,65.292
38984730,-0.487,0.889,1.579,22.732,30.835,41.405
38984740,-0.486,0.742,1.276,-37.362,18.795,36.015
38984750,-0.74,0.225,0.971,-89.232,2.275,2.17
38984760,-0.62,-0.301,0.8,-118.107,-16.047,-39.55
38984770,-0.274,-0.448,0.707,-75.092,-25.585,-71.872
38984780,0.188,-0.613,0.814,-27.002,-27.93,-86.205
38984790,0.497,-0.485,0.923,9.695,-21.07,-68.547
38984800,0.628,-0.179,0.969,39.987,-10.657,-26.215
38984810,0.376,-0.004,1.056,48.772,10.325,16.572
38984820,-0.012,0.083,1.132,45.482,26.232,31.955
38984830,-0.163,0.207,1.178,28.822,35.402,28.962
38984830,-0.155,0.401,1.275,4.357,41.65,11.69
38984850,-0.071,0.474,1.363,-35.612,51.695,-7.122
38984850,-0.006,0.454,1.394,-89.792,68.827,-21.332
38984870,0.057,0.32,1.325,-142.345,84.087,-26.705
38984870,0.033,0.178,1.231,-188.825,96.11,-31.027
38984890,-0.101,0.086,1.208,-219.31,98.822,-36.82
38984890,-0.168,-0.008,1.241,-240.292,96.197,-42.332
38984910,-0.174,0.001,1.312,-260.645,97.597,-42.962
38984910,-0.071,-0.212,1.389,-279.317,115.36,-45.885
38984920,-0.13,-0.818,1.774,-291.48,103.915,-58.59
38984930,-0.677,-1.26,1.69,-224.892,53.392,-52.202
38984940,-0.637,-1.388,1.465,-80.062,13.422,-40.915
38984950,0.485,-1.48,1.492,2.625,19.722,-12.53
38984960,0.307,-1.085,0.12,136.815,53.095,-22.645
38984970,-0.62,-0.049,-0.434,221.305,48.807,-48.527
38984980,-0.592,0.144,-0.5,154.28,-5.442,-25.777
38984990,-0.06,-0.257,-0.47,51.747,-52.255,19.495
38985000,0.387,-0.452,-0.449,2.135,-77.945,26.11
38985010,0.375,-0.452,-0.319,-17.43,-80.832,-6.23
38985020,0.194,-0.411,-0.157,-45.43,-78.715,-43.33
38985030,0.022,-0.343,-0.109,-69.562,-90.072,-64.575
38985040,-0.034,-0.286,-0.099,-76.72,-116.357,-71.19
38985050,-0.087,-0.2,-0.207,-77.647,-143.57,-63.56
38985060,-0.165,-0.013,-0.429,-81.497,-172.532,-47.442
38985070,-0.142,0.292,-0.633,-99.75,-198.345,-19.967
38985080,-0.095,0.87,-0.976,-134.242,-200.042,26.075
38985090,-0.932,1.714,1.739,-283.167,-89.775,73.71
38985100,-1.691,-1.998,0.811,-349.492,-28.63,71.627
38985110,1.131,-1.6,0.898,451.22,-45.99,127.575
38985120,0.574,1.853,-1.181,555.782,-55.002,51.73
38985130,0.981,1.368,0.148,415.082,33.46,24.307
38985140,-0.067,-1.828,1.955,209.352,78.925,23.222
38985150,-0.705,0.093,1.589,373.187,25.252,5.04
38985160,0.201,1.814,1.156,448.822,-10.027,61.862
38985170,-0.4,1.245,1.624,182.332,17.885,56
38985170,-0.5,0.951,1.617,45.08,26.862,49.455
38985190,-0.54,0.859,1.157,14.42,0.367,10.745
38985190,-0.39,0.247,1.145,-84.84,-15.085,-26.967
38985210,-0.032,-0.003,1.083,-107.922,-24.272,-53.97
38985210,0.108,0.043,0.979,-91.035,-13.947,-65.852
38985230,0.156,-0.101,1.036,-99.12,-1.12,-62.562
38985230,0.108,-0.133,1.04,-99.557,8.4,-49.315
38985250,0.152,-0.135,1.017,-94.062,14.14,-33.582
38985250,0.079,-0.123,1.027,-100.31,24.167,-23.117
38985260,0.041,-0.111,1.068,-105.927,32.165,-16.205
38985270,0.104,-0.08,1.105,-117.687,43.872,-8.382
38985280,0.139,-0.073,1.139,-134.522,59.587,-0.857
38985290,0.167,-0.108,1.172,-153.107,77.595,6.895
38985300,0.108,-0.153,1.163,-170.012,93.222,13.982
38985310,0.015,-0.186,1.136,-182.542,102.532,20.02
38985320,-0.073,-0.148,1.117,-194.95,98.56,23.712
38985330,-0.05,-0.1,1.157,-210.332,90.44,27.527
38985340,-0.012,-0.426,1.121,-226.555,99.557,24.622
38985350,-0.246,-0.32,1.235,-218.942,150.325,22.907
38985360,-0.798,-0.365,1.287,-133.052,152.705,28.332
38985370,-0.985,-0.461,1.565,-90.58,84.91,13.842
38985380,-1.277,-0.604,1.953,-68.862,-6.702,25.042
38985390,0.315,-1.16,0.306,140.98,-81.935,74.462
38985400,-0.146,-0.119,-1.102,360.185,-10.5,103.18
38985410,-1.145,0.744,-1.755,318.255,-46.095,50.172
38985420,-0.969,0.301,-1.172,147.77,-83.737,39.217
38985430,-0.383,-0.437,-0.129,-70.892,-50.05,67.2
38985440,-0.246,-0.789,0.391,-156.852,-5.355,55.877
38985450,-0.342,-0.717,0.072,-21.945,-2.765,21.227
38985460,-0.207,-0.078,-0.481,90.877,-19.95,21.28
38985470,0.028,0.012,-0.59,46.672,-18.305,30.712
38985480,0.126,-0.239,-0.408,-40.495,-15.855,22.05
38985490,-0.81,0.694,1.542,-111.877,-108.552,-5.897
38985500,-0.76,-1.58,1.224,-172.252,-467.547,-81.672
38985510,1.782,-1.998,1.911,263.707,-244.37,-93.8
38985520,0.17,0.011,0.845,480.182,-48.72,-72.87
38985530,1.211,1.902,0.555,472.465,-63.56,-53.777
38985540,1.146,-0.216,1.475,328.352,-32.427,29.172
38985550,0.33,0.134,1.789,239.89,2.485,55.702
38985560,0.335,1.217,1.442,271.092,42.367,115.342
38985570,-1.03,1.253,1.356,154.857,60.672,75.04
38985580,-0.977,0.962,1.164,29.837,29.925,43.75
38985580,-0.6,0.339,1.052,-40.005,-16.45,-9.712
38985600,-0.055,-0.081,1.018,-75.267,-38.535,-42.752
38985600,0.255,-0.196,1,-61.46,-38.92,-48.405
38985620,0.37,-0.122,1.051,-41.807,-17.657,-30.747
38985620,0.299,0.082,1.127,-38.237,7.997,-6.177
38985640,0.019,0.21,1.16,-49.122,24.99,8.417
38985640,-0.116,0.206,1.172,-75.355,26.11,15.015
38985660,-0.234,0.167,1.165,-106.522,18.62,16.222
38985660,-0.17,0.217,1.186,-143.937,9.555,22.417
38985670,-0.131,0.232,1.16,-185.71,5.092,30.24
38985680,-0.128,0.119,1.148,-224.945,-1.05,41.317
38985690,-0.393,-0.01,1.158,-261.66,-8.82,56.21
38985700,-0.371,-0.065,1.14,-289.152,-25.042,72.117
38985710,-0.24,-0.145,1.073,-305.06,-8.767,86.975
38985720,-0.382,-0.522,1.283,-310.502,20.597,81.602
38985730,-0.75,-1.058,1.408,-293.982,16.082,53.567
38985740,-1.494,-1.291,1.51,-182.892,0.962,48.055
38985750,-1.998,-1.664,1.845,33.372,80.867,95.375
38985760,-0.584,-1.142,0.964,115.85,145.705,240.642
38985770,0.969,-1.103,-0.032,186.27,141.75,288.977
38985780,1.136,-0.29,-0.383,210.56,127.295,237.58
38985790,1.12,0.067,-0.687,155.032,111.422,190.89
38985800,1.265,0.027,-0.674,95.707,70.98,143.92
38985810,1.205,0.192,-0.349,2.73,-3.535,35.822
38985820,0.749,-0.048,-0.169,-101.5,-84.35,-97.457
38985830,0.547,-0.055,-0.222,-147.28,-92.33,-157.815
38985840,-0.067,0.179,-0.501,-103.687,-97.545,-208.53
38985850,-0.57,0.464,-0.727,-72.327,-133.525,-237.912
38985860,-0.543,0.702,-0.716,-94.937,-166.757,-213.57
38985870,-1.372,0.667,1.913,-235.83,-216.755,-170.852
38985880,0.523,-1.998,0.468,-60.392,-208.897,-177.117
38985890,0.303,-0.26,0.798,508.672,61.67,-21
38985900,0.408,1.997,-0.406,536.375,-58.432,-133.42
38985910,1.228,-0.052,0.881,361.427,13.44,-20.597
38985920,-0.581,-1.296,1.987,235.515,21.63,16.082
38985920,0.615,0.994,1.396,396.287,16.415,86.03
38985940,-0.217,1.451,1.37,319.97,41.335,76.632
38985940,-0.914,1.265,1.414,132.282,52.097,41.037
38985960,-0.832,1.24,1.072,46.497,15.312,21.297
38985960,-0.505,0.624,1.071,-64.54,-23.73,-13.79
38985980,-0.171,-0.11,1.064,-107.712,-46.165,-41.457
38985980,0.183,-0.288,0.99,-82.267,-47.915,-46.497
38986000,0.335,-0.258,1.039,-57.172,-28.665,-36.295
38986000,0.377,-0.005,1.106,-47.95,-5.582,-13.842
38986010,0.239,0.144,1.135,-55.86,18.48,9.747
38986020,0.119,0.08,1.157,-78.015,28.682,25.742
38986030,-0.053,0.007,1.223,-108.045,31.64,39.707
38986040,-0.003,0.134,1.226,-146.842,22.802,56.192
38986050,0.023,0.166,1.172,-191.345,19.757,78.942
38986060,-0.273,0.142,1.166,-237.755,17.64,96.512
38986070,-0.15,0.198,1.216,-277.305,12.145,110.81
38986080,-0.16,-0.015,1.197,-305.865,10.307,111.212
38986090,-0.04,-0.289,1.442,-344.417,29.19,84.367
38986100,0.121,-0.706,1.555,-374.955,76.772,59.482
38986110,-0.128,-1.571,1.753,-328.037,89.495,45.43
38986120,-0.768,-1.255,1.317,-186.515,58.135,7.612
38986130,-0.916,-1.284,1.085,48.09,41.177,1.365
38986140,-0.609,-0.367,0.976,100.222,48.772,3.867
38986150,0.577,-0.434,0.609,105.28,77.542,27.807
38986160,0.239,0.002,0.144,153.58,77.14,-12.985
38986170,-0.093,0.519,-0.518,195.037,37.012,-70.227
38986180,-0.134,0.814,-0.959,191.992,12.687,-77.49
38986190,-0.257,0.915,-0.812,125.807,6.247,-75.722
38986200,-0.457,0.687,-0.27,27.3,-6.562,-111.44
38986210,-0.657,0.352,0.012,-44.975,-8.102,-141.365
38986220,-0.947,0.132,-0.114,-20.142,9.135,-130.445
38986230,-1.138,0.222,-0.28,47.915,11.13,-92.627
38986240,-0.9,0.02,-0.364,53.795,-1.33,-34.002
38986250,-0.437,-0.495,-0.269,20.037,-2.852,31.972
38986260,-0.106,-0.938,-0.199,9.73,-2.922,72.712
38986270,-0.463,-0.72,1.721,-29.435,-75.845,76.597
38986280,1.537,-1.998,1.243,-165.287,-391.23,-22.89
38986290,-0.994,0.035,1.622,358.75,-126.84,-155.102
38986300,0.734,1.86,-0.223,539.612,-44.677,-25.147
38986310,1.992,1.508,0.368,357.367,-33.967,107.135
38986320,0.762,-1.091,1.916,236.18,-8.4,-5.057
38986330,-0.176,0.536,1.84,284.357,31.85,39.462
38986330,0.274,1.771,1.329,248.972,78.662,113.382
38986350,-1.039,1.414,1.406,62.352,69.737,69.65
38986350,-0.627,1.033,1.232,-53.41,27.317,60.025
38986370,-0.704,0.303,1.024,-115.605,-9.905,5.232
38986370,-0.656,-0.208,0.841,-152.88,-16.73,-45.552
38986390,-0.208,-0.42,0.724,-127.54,-29.382,-71.54
38986390,0.006,-0.514,0.749,-73.325,-29.89,-78.47
38986400,0.272,-0.568,0.873,-33.302,-29.207,-63.98
38986410,0.372,-0.386,0.898,0.017,-22.225,-33.67
38986420,0.313,-0.215,0.931,27.702,-13.195,-0.262
38986430,0.088,-0.142,0.967,42.21,-1.785,19.88
38986440,-0.043,-0.053,1.035,46.217,2.782,31.815
38986450,-0.1,0.144,1.093,39.392,7.682,38.342
38986460,-0.173,0.325,1.149,21.315,10.657,34.352
38986470,-0.176,0.346,1.195,-4.042,12.897,23.817
38986480,-0.186,0.368,1.211,-36.557,15.365,9.572
38986490,-0.196,0.335,1.185,-72.222,19.197,0.315
38986500,-0.165,0.243,1.151,-108.57,20.685,-8.89
38986510,-0.132,0.161,1.13,-140.525,21.787,-16.502
38986520,-0.095,0.085,1.098,-164.902,21.7,-20.79
38986530,-0.013,-0.028,1.072,-184.292,25.742,-21.91
38986540,0.021,-0.142,1.066,-197.032,29.732,-22.015
38986550,0.023,-0.186,1.086,-201.88,34.615,-17.115
38986560,0.048,-0.187,1.071,-203.665,40.372,-10.727
38986570,0.009,-0.279,1.067,-206.78,48.93,-2.17
38986580,-0.077,-0.336,1.129,-213.29,53.27,0.822
38986590,0.03,-0.581,1.374,-215.775,66.99,-2.135
38986600,0.021,-0.738,1.577,-205.292,91.455,9.187
38986610,0.13,-1.05,1.761,-102.445,60.235,16.765
38986620,-0.163,-0.746,1.493,-27.737,37.24,12.635
38986630,-0.13,-0.719,1.144,43.872,28.192,19.285
38986640,-0.097,-0.678,0.868,126.77,37.572,43.802
38986650,-0.17,-0.366,0.336,200.795,-1.575,54.845
38986660,-0.037,-0.119,-0.321,232.855,-42.402,63.542
38986670,-0.007,-0.147,-0.756,207.427,-51.187,68.95
38986670,-0.037,-0.062,-0.748,160.16,-56.332,57.137
38986690,0.004,-0.143,-0.381,88.742,-53.445,22.837
38986690,0.011,-0.307,0.078,-9.66,-31.377,-14.735
38986710,-0.229,-0.394,0.184,-75.687,-23.765,-54.845
38986710,-0.369,-0.369,0.075,-53.305,-41.37,-86.327
38986730,-0.377,-0.31,-0.051,-12.057,-59.027,-95.76
38986730,-0.451,-0.183,-0.157,-13.912,-66.062,-103.915
38986750,-0.631,-0.023,-0.307,-25.27,-73.115,-117.232
38986750,-0.875,0.486,0.011,-20.457,-71.68,-112.752
38986760,-1.94,0.857,1.998,-141.26,-154.122,-91.577
38986770,0.781,-1.998,1.103,110.792,-232.382,-43.662
38986780,0.45,-0.532,0.844,548.852,15.592,5.81
38986790,-0.382,1.924,0.124,522.952,-60.182,-102.235
38986800,1.951,0.12,1.598,316.33,-30.625,44.975
38986810,0.502,0.4,1.986,260.05,67.987,59.412
38986820,-0.189,1.782,1.415,259.682,134.067,83.895
38986830,-1.253,1.656,0.983,110.25,105.962,86.642
38986840,-0.813,0.925,1.137,-57.732,37.012,81.672
38986850,-0.623,0.13,1.02,-111.125,-14.577,30.117
38986860,-0.324,-0.402,0.806,-116.13,-35.56,-5.372
38986870,0.04,-0.715,0.847,-77.07,-43.767,-22.837
38986880,0.388,-0.43,0.903,-23.17,-32.532,-10.692
38986890,0.345,-0.211,0.93,16.992,-6.317,12.95
38986900,-0.016,-0.037,1.024,36.767,13.422,30.555
38986910,-0.173,0.193,1.026,42.542,17.412,37.52
38986920,-0.201,0.165,1.02,30.152,12.845,30.222
38986930,-0.192,0.254,1.079,12.74,7.892,21.28
38986940,-0.136,0.371,1.092,-5.967,3.027,14.07
38986950,-0.011,0.323,1.153,-35.122,-0.035,5.302
38986960,-0.053,0.298,1.157,-62.247,0.77,0.542
38986970,-0.034,0.192,1.166,-88.287,2.642,1.312
38986980,-0.126,0.126,1.178,-115.797,6.667,-1.715
38986990,-0.118,0.057,1.137,-140.052,5.407,-3.85
38987000,-0.086,0.011,1.082,-161.315,3.85,-4.76
38987010,-0.088,-0.023,1.065,-178.22,5.197,-5.512
38987020,-0.099,-0.066,1.077,-191.8,7.63,-2.555
38987030,-0.105,-0.075,1.091,-200.847,9.31,4.795
38987040,-0.061,-0.086,1.129,-205.222,11.445,11.865
38987050,-0.234,-0.086,1.191,-214.795,11.725,13.86
38987060,-0.373,-0.421,1.214,-223.282,-6.79,22.12
38987070,-0.674,-0.719,1.518,-220.92,-70.875,38.08
38987070,-1.058,-1.117,1.481,-188.86,-177.625,58.152
38987080,-0.857,-1.07,1.437,-106.82,-221.725,95.83
38987090,-0.783,-1.157,1.509,21.682,-188.422,142.905
38987100,-0.397,-1.066,0.241,132.737,-108.762,162.68
38987110,0.221,-0.479,0.04,190.575,14.402,163.695
38987120,-0.198,-0.302,-0.479,182.735,59.185,129.412
38987130,-0.261,-0.185,-0.56,158.62,73.64,87.762
38987140,-0.2,-0.045,-0.311,86.625,63.262,73.237
38987150,0.171,-0.094,-0.014,-4.392,41.44,52.692
38987160,0.592,-0.199,0.139,-60.987,44.502,26.285
38987170,0.566,-0.059,0.056,-49.805,60.602,-20.23
38987180,0.258,0.193,-0.123,-23.992,61.215,-79.975
38987190,0.038,0.283,-0.26,-37.73,40.81,-137.76
38987200,-0.16,0.199,-0.067,-69.825,15.61,-178.692
38987210,-0.5,0.718,1.46,-113.435,26.652,-192.237
38987220,-0.2,-0.531,1.99,-149.082,-57.96,-207.305
38987230,1.744,-1.966,1.299,248.745,34.562,-172.672
38987240,-0.39,0.153,0.585,499.59,35.052,-160.842
38987250,0.537,1.047,0.815,324.712,4.602,-128.485
38987260,1.278,-0.255,1.402,217,44.922,44.012
38987270,0.325,-0.045,1.46,283.482,22.732,74.847
38987280,0.097,0.854,1.409,243.757,37.222,141.785
38987290,-0.709,1.136,1.24,156.712,52.92,149.87
38987300,-1.08,0.771,1.124,81.2,38.692,120.382
38987310,-1.156,0.532,1.063,12.74,12.915,62.09
38987320,-0.818,0.336,1.048,-34.247,-26.197,-5.512
38987330,-0.104,0.212,1.025,-57.732,-58.187,-41.23
38987340,0.273,-0.031,0.974,-58.642,-54.075,-53.025
38987350,0.326,-0.292,0.969,-48.597,-33.845,-42.245
38987360,0.321,-0.255,0.966,-30.607,-17.797,-14.227
38987370,0.082,-0.1,0.94,-11.935,-3.115,12.407
38987380,-0.126,-0.078,0.966,-4.725,1.732,22.942
38987390,-0.214,0,0.989,0.542,-1.382,22.085
38987400,-0.165,0.076,1.015,1.382,-5.215,15.96
38987410,-0.084,0.103,1.052,-5.652,-7.332,9.012
38987420,-0.012,0.133,1.09,-17.255,-5.022,4.655
38987420,0.019,0.16,1.126,-31.57,0.052,3.185
38987440,-0.021,0.205,1.155,-50.015,7.91,2.537
38987440,-0.078,0.221,1.168,-73.15,14.507,-0.42
38987460,-0.092,0.182,1.158,-98.945,19.827,-6.02
38987460,-0.076,0.149,1.137,-125.055,23.73,-14.577
38987480,-0.043,0.069,1.117,-151.025,29.102,-21.525
38987480,0.014,-0.014,1.114,-169.452,35.997,-25.742
38987500,0.033,-0.092,1.088,-179.13,45.43,-28.052
38987500,0.077,-0.145,1.091,-181.457,52.587,-29.26
38987510,0.087,-0.188,1.064,-181.177,59.325,-30.502
38987520,0.048,-0.231,1.045,-182.087,59.255,-34.037
38987530,0.02,-0.279,1.018,-188.282,53.935,-36.417
38987540,0.012,-0.384,0.936,-199.535,49.665,-31.902
38987550,-0.034,-0.39,0.862,-196.332,58.852,-27.247
38987560,-0.216,-0.31,1.057,-191.45,81.182,-24.29
38987570,0.037,-0.932,1.277,-155.855,93.17,-7.542
38987580,-0.353,-1.048,1.584,-99.732,80.22,-34.597
38987590,1.005,-1.831,1.177,-54.495,34.09,-71.785
38987600,0.348,-1.26,0.955,1.05,22.067,-81.165
38987610,-0.143,-0.483,0.2,90.335,-45.447,-177.8
38987620,-0.751,0.148,-0.191,103.845,-64.715,-157.762
38987630,-1.229,0.762,-0.466,52.482,-76.317,-108.045
38987640,-1.28,0.898,-0.257,8.995,-81.655,-42.227
38987650,-0.69,0.646,0.042,-17.902,-49.542,58.432
38987660,-0.207,0.488,0.084,-3.167,-4.217,141.995
38987670,0.094,0.63,-0.234,55.65,-3.237,154.157
38987680,0.363,0.695,-0.495,89.46,-14.787,148.155
38987690,0.563,0.424,-0.386,70.7,-21.402,139.44
38987700,-0.548,-1.054,1.865,-60.497,-55.842,67.112
38987710,-0.853,-1.916,0.785,-51.065,-184.187,-238.91
38987720,-1.81,1.482,0.812,478.467,-54.39,-74.55
38987730,1.687,1.982,-0.48,527.66,-103.635,31.43
38987740,1.458,0.715,1.023,228.497,-2.817,20.702
38987750,-0.281,-1.508,1.998,202.755,-42.21,-88.392
38987760,0.683,0.267,1.484,349.195,-31.552,28.542
38987760,0.797,1.531,1.161,293.93,14.49,98.472
38987780,-0.483,0.705,1.653,124.215,44.222,63.21
38987780,-0.703,1.002,1.406,46.865,41.002,68.53
38987800,-0.762,0.909,1.053,-17.71,11.777,28.035
38987800,-0.715,0.103,1.068,-111.562,-10.062,-23.87
38987820,-0.261,-0.197,0.968,-115.57,-34.527,-52.447
38987820,0.084,-0.154,0.84,-91.525,-35.822,-59.01
38987830,0.18,-0.33,0.907,-77.612,-21.665,-57.155
38987840,0.296,-0.333,0.941,-57.33,-12.32,-40.635
38987850,0.3,-0.229,0.923,-37.292,-2.292,-17.78
38987860,0.152,-0.21,0.944,-25.707,8.102,1.277
38987870,-0.025,-0.165,1.007,-18.042,14.84,12.232
38987880,-0.102,-0.005,1.078,-17.412,18.165,16.852
38987890,-0.15,0.129,1.121,-27.09,20.982,13.702
38987900,-0.152,0.183,1.179,-47.915,22.207,7.63
38987910,-0.151,0.253,1.23,-77.017,24.08,2.152
38987920,-0.17,0.27,1.215,-111.65,23.485,-2.03
38987930,-0.202,0.227,1.18,-150.657,21.472,-7.472
38987940,-0.217,0.14,1.151,-188.632,19.337,-12.862
38987950,-0.193,0.045,1.133,-218.785,18.69,-17.377
38987960,-0.18,-0.049,1.126,-238.997,17.202,-20.737
38987970,-0.145,-0.147,1.095,-251.282,16.502,-24.342
38987980,-0.069,-0.521,1.172,-259.63,19.635,-28.035
38987990,-0.271,-0.032,1.209,-254.152,26.95,-17.272
38988000,-0.134,-0.555,1.424,-217.717,2.432,-27.965
38988010,-0.236,-0.816,1.678,-212.835,-28.315,-30.485
38988020,-0.038,-0.746,1.737,-170.625,-48.3,-32.515
38988030,0.161,-0.767,0.711,-74.235,-28.875,-16.222
38988040,0.443,-0.622,1.089,-17.727,31.132,0.297
38988050,0.241,-0.702,1.465,-30.152,49.14,-14.087
38988060,0.281,-0.698,0.735,83.667,45.5,-28.192
38988070,0.159,0.127,-0.142,219.485,68.915,-1.12
38988080,-0.541,0.853,-0.667,223.755,71.26,14.647
38988090,-0.61,0.841,-0.508,127.067,58.957,33.197
38988100,-0.364,0.298,-0.026,33.197,60.165,73.727
38988110,-0.23,0.036,0.219,8.505,66.045,105.192
38988120,-0.128,0.035,0.008,41.597,61.215,117.95
38988130,0,0.117,-0.279,63,46.97,121.905
38988140,0.164,-0.061,-0.309,41.527,33.6,120.925
38988150,0.237,-0.412,-0.218,3.605,26.722,107.52
38988160,0.208,-0.479,-0.396,0.472,19.18,79.205
38988170,0.15,-0.244,-1.019,43.505,11.13,50.54
38988170,-1.163,-1.075,1.784,-5.512,-4.62,0.542
38988190,-1.001,-1.998,0.818,-147.752,-387.135,-237.597
38988190,-0.618,1.328,1.214,426.982,-200.13,-90.947
38988210,1.965,1.997,-0.866,563.972,-88.935,92.575
38988210,1.435,0.717,1.16,361.322,-77.91,-29.312
38988230,-0.48,-1.375,1.998,171.885,-41.527,-122.36
38988230,1.078,0.953,1.582,330.067,-21,61.407
38988250,0.556,1.788,1.354,257.442,13.842,108.71
38988250,-0.542,0.974,1.648,31.64,41.195,72.992
38988260,-0.766,0.708,1.262,-41.44,35.28,69.947
38988270,-0.976,0.293,0.963,-97.265,15.837,20.615
38988280,-0.763,-0.049,0.863,-149.1,-2.047,-37.1
38988290,-0.373,-0.191,0.767,-129.342,-18.392,-77.35
38988300,-0.056,-0.402,0.769,-89.11,-24.92,-90.177
38988310,0.262,-0.581,0.901,-59.36,-27.317,-81.83
38988320,0.466,-0.347,0.95,-27.912,-22.12,-51.467
38988330,0.487,-0.18,0.975,-7.315,-11.13,-12.267
38988340,0.247,-0.158,1.029,-5.18,1.75,16.257
38988350,0.001,-0.098,1.04,-5.967,10.377,31.675
38988360,-0.198,-0.002,1.059,-14.105,14.892,35.857
38988370,-0.254,0.088,1.089,-27.982,16.835,32.375
38988380,-0.261,0.138,1.112,-42.98,16.677,21.647
38988390,-0.23,0.128,1.128,-63.822,15.96,9.975
38988400,-0.214,0.116,1.126,-86.467,13.037,2.047
38988410,-0.169,0.085,1.102,-110.075,8.4,-1.365
38988420,-0.15,0.025,1.061,-133.682,4.41,-2.59
38988430,-0.129,-0.048,1.071,-156.712,0.455,-1.435
38988440,-0.066,-0.07,1.094,-175.297,-0.56,3.64
38988450,-0.036,-0.083,1.113,-187.337,-0.612,10.797
38988460,-0.03,-0.311,1.192,-201.897,-0.122,18.97
38988470,-0.19,0.03,1.015,-212.012,3.482,44.94
38988480,-0.013,-0.339,1.113,-215.547,-11.847,48.247
38988490,-0.25,-0.454,1.204,-248.867,-27.44,54.81
38988500,-0.409,-0.83,1.313,-247.205,-56.98,64.33
38988510,-0.318,-1.067,1.31,-189.28,-86.852,62.072
38988510,-0.333,-0.85,1.302,-110.11,-89.897,55.685
38988530,-0.238,-0.484,1.481,-48.79,-79.275,60.235
38988530,-0.443,-1.278,0.978,30.03,-33.11,70.262
38988550,-0.663,-0.199,0.403,115.465,35.385,0.122
38988550,-0.462,0.653,-0.073,185.57,98.647,-26.285
38988570,-0.636,0.338,-0.299,170.887,135.03,16.485
38988570,-0.639,0.891,-0.316,137.34,107.835,31.167
38988580,-0.269,0.961,-0.391,132.58,66.325,63.507
38988590,0.23,0.741,-0.341,101.342,63.98,95.095
38988600,0.386,0.805,-0.315,75.46,63.822,96.145
38988610,0.483,0.801,-0.297,58.712,39.392,69.282
38988620,0.543,0.648,-0.256,35.927,10.307,31.395
38988630,0.464,0.177,0.742,9.625,-0.98,-15.627
38988640,-0.474,-1.98,1.212,-175.14,-174.317,-199.062
38988650,-1.017,-1.155,1.742,182.735,-69.737,-411.442
38988660,-0.614,1.983,-0.708,558.67,-128.397,-158.27
38988670,1.998,1.053,0.146,423.57,-84.21,61.495
38988680,0.813,-0.434,1.756,104.545,0.052,-27.685
38988690,-0.48,-1.449,1.92,229.495,-58.747,-137.025
38988700,1.161,0.948,1.267,291.497,0.91,130.007
38988710,0.442,1.115,1.311,202.422,26.46,154.822
38988720,-0.671,0.833,1.552,70.157,45.482,132.177
38988730,-0.892,0.73,1.275,16.52,42.577,122.202
38988740,-0.879,0.602,1.016,-50.4,29.89,71.855
38988750,-0.617,0.019,0.895,-97.72,16.485,3.045
38988760,-0.407,-0.171,0.89,-97.492,3.832,-39.427
38988770,-0.094,-0.241,0.831,-73.36,-3.85,-48.807
38988780,0.039,-0.352,0.836,-50.575,-7.647,-48.16
38988790,0.153,-0.394,0.917,-24.99,-9.03,-34.877
38988800,0.232,-0.242,1.002,-1.365,-6.055,-9.047
38988810,0.16,-0.034,1.077,4.34,0.612,20.055
38988820,-0.054,0.107,1.097,-5.845,9.047,38.01
38988830,-0.27,0.202,1.098,-23.222,9.152,44.87
38988840,-0.377,0.215,1.138,-50.592,3.29,40.337
38988850,-0.386,0.266,1.167,-84.857,1.05,32.462
38988860,-0.252,0.267,1.146,-115.307,1.19,20.457
38988870,-0.192,0.157,1.112,-150.027,-1.225,12.215
38988880,-0.253,0.039,1.05,-180.565,-3.78,12.932
38988890,-0.239,-0.091,1.019,-197.277,-13.562,16.625
38988900,-0.125,-0.216,1.017,-208.127,-17.202,19.145
38988910,-0.075,-0.297,0.986,-207.2,-12.635,16.292
38988920,-0.026,-0.409,0.985,-202.195,-6.947,10.885
38988920,-0.128,-0.255,1.088,-196.612,4.077,21.56
38988940,0.233,-0.534,1.124,-154.262,10.955,14.542
38988940,0.074,-0.646,1.323,-139.317,16.94,12.075
38988960,0.045,-0.865,1.505,-128.922,16.38,3.622
38988960,0.311,-1.177,1.496,-77.752,20.93,-5.792
38988980,0.481,-1.309,1.244,-0.56,58.047,-8.277
38988980,0.526,-1.209,0.91,100.047,83.632,-16.887
38989000,0.65,-1.04,0.392,180.302,68.827,-38.64
38989000,0.99,-0.897,-0.345,202.58,47.092,-65.695
38989010,0.962,-0.677,-0.557,159.215,35.507,-103.635
38989020,0.352,-0.415,-0.471,85.627,-38.22,-191.327
38989030,0.065,0.018,-0.267,0.98,-116.69,-268.222
38989040,-0.343,0.179,-0.03,-109.06,-148.96,-280.91
38989050,-0.686,0.249,0.035,-169.662,-148.732,-240.66
38989060,-0.916,0.465,-0.055,-164.517,-145.442,-197.155
38989070,-1.208,0.709,-0.298,-130.182,-147.297,-135.572
38989080,-0.783,0.633,0.391,-94.745,-119.472,-43.977
38989090,-0.149,-0.956,1.944,-116.847,125.877,68.53
38989100,-1.165,-1.998,0.833,188.09,162.032,131.162
38989110,-0.531,-0.572,0.57,558.18,-26.442,38.045
38989120,0.408,1.997,-0.298,515.34,63.63,73.727
38989130,0.635,1.716,0.565,428.435,77.315,118.685
38989140,-0.517,-0.706,1.747,318.272,7.997,-3.552
38989150,-0.705,0.068,1.816,302.75,-9.8,-5.915
38989160,0.464,1.628,1.405,292.915,-1.347,53.13
38989170,-0.122,1.474,1.571,131.827,19.757,20.475
38989180,-0.296,1.05,1.428,7.052,25.532,9.782
38989190,-0.491,0.601,1.218,-59.885,10.517,-8.277
38989200,-0.38,0.106,1.048,-119.927,-6.317,-34.667
38989210,-0.123,-0.115,0.863,-130.83,-11.655,-57.68
38989220,-0.117,-0.371,0.779,-103.267,-4.095,-74.217
38989230,0.047,-0.516,0.837,-78.575,-4.112,-70.052
38989240,0.229,-0.404,0.909,-46.287,-4.462,-49.297
38989250,0.346,-0.176,0.954,-22.855,-0.752,-19.705
38989260,0.221,-0.094,1.034,-15.785,9.135,6.737
38989260,0.042,-0.054,1.091,-17.202,17.535,24.99
38989280,-0.007,0.025,1.117,-27.352,24.272,40.005
38989280,-0.068,0.165,1.203,-45.867,27.492,48.125
38989300,-0.082,0.361,1.288,-77.91,32.27,53.217
38989300,-0.154,0.44,1.31,-121.467,39.76,52.167
38989320,-0.24,0.333,1.293,-169.347,45.517,43.102
38989320,-0.075,0.082,1.35,-222.075,55.807,35.595
38989330,0.105,0.066,1.3,-263.62,85.242,36.067
38989340,0.34,-0.151,1.284,-276.902,103.25,32.515
38989350,0.283,-0.261,1.376,-296.45,122.167,35.087
38989360,-0.103,-0.504,1.553,-298.9,100.485,47.512
38989370,-0.278,-0.559,1.796,-283.552,36.522,71.942
38989380,0.042,-0.742,1.578,-206.517,-10.115,95.182
38989390,0.438,-0.401,1.101,-129.412,-42.927,96.95
38989400,0.704,0.065,1.624,-120.067,-19.162,124.582
38989410,0.791,-0.339,1.363,-92.75,-29.715,121.065
38989420,1.474,-0.658,0.771,50.242,1.365,93.87
38989430,1.166,0.208,0.317,142.555,23.082,39.917
38989440,0.455,0.587,-0.21,169.732,-11.725,-27.527
38989450,0.107,0.636,-0.645,141.12,-65.607,-84.892
38989460,-0.226,0.744,-0.615,81.532,-109.095,-114.485
38989470,-0.298,0.558,-0.278,12.985,-121.222,-124.53
38989480,-0.241,0.184,0.137,-40.145,-82.757,-119.752
38989490,-0.364,-0.1,0.361,-41.142,-30.607,-117.652
38989500,-0.539,-0.182,0.31,1.855,-14.157,-114.817
38989510,-0.464,-0.243,0.105,49.63,-38.29,-102.41
38989520,-0.189,-0.326,-0.166,74.76,-67.585,-86.432
38989530,-0.168,-0.412,-0.401,79.835,-91.647,-83.317
38989540,-0.401,-0.438,-0.551,73.972,-114.712,-82.565
38989550,-0.769,-1.177,0.524,48.352,-117.215,-66.272
38989560,-1.887,-1.998,1.163,-157.657,44.712,-90.545
38989570,0.216,-0.294,0.668,305.13,15.05,4.515
38989580,0.648,1.997,-0.981,571.882,-5.232,88.777
38989590,0.816,1.967,-0.621,467.512,48.3,113.505
38989600,0.648,-0.941,1.572,89.267,71.207,47.74
38989610,-1.739,-1.829,1.982,105.49,12.582,-64.382
38989620,0.307,1.184,1.041,403.095,-19.565,56.98
38989630,0.509,1.628,0.979,270.865,-4.952,77.052
38989640,-0.342,0.546,1.735,49.56,20.737,21.402
38989650,-0.418,0.899,1.307,38.657,19.075,22.242
38989660,-0.365,0.68,1.111,-25.34,3.85,-1.015
38989670,-0.365,0.131,1.113,-107.52,-5.67,-33.162
38989670,-0.113,-0.032,0.953,-109.462,-13.737,-47.46
38989690,-0.04,-0.2,0.856,-94.57,-7.105,-53.725
38989690,0.023,-0.315,0.909,-81.777,-1.365,-53.795
38989710,0.161,-0.281,0.935,-57.767,1.645,-37.555
38989710,0.205,-0.183,0.977,-41.86,5.547,-17.517
38989730,0.19,-0.075,1.023,-38.657,11.812,1.505
38989730,0.049,-0.041,1.057,-41.79,18.007,13.737
38989750,-0.073,-0.005,1.072,-50.645,21.77,20.475
38989750,-0.09,0.015,1.082,-62.142,22.855,23.047
38989760,-0.068,0.021,1.117,-78.802,22.295,25.987
38989770,-0.106,0.046,1.146,-99.032,20.79,31.5
38989780,-0.124,0.047,1.144,-120.82,19.18,41.877
38989790,-0.461,-0.045,1.071,-144.917,6.667,55.842
38989800,-0.25,-0.07,1.159,-178.115,-17.885,77.857
38989810,-0.208,-0.063,1.177,-205.625,-30.187,109.9
38989820,-0.219,-0.304,1.33,-213.955,-50.347,120.837
38989830,-0.514,-0.996,1.416,-223.02,-94.552,125.055
38989840,-0.55,-1.905,1.288,-172.462,-175.945,127.435
38989850,-0.531,-1.998,1.083,-80.762,-146.072,130.392
38989860,-1.289,-1.984,0.665,32.917,-56.105,159.985
38989870,-1.328,-1.77,0.202,133,-20.23,183.19
38989880,0.202,-1.917,-0.041,112.717,15.75,226.66
38989890,0.484,-1.908,-0.192,71.207,33.355,212.275
38989900,0.393,-1.498,0.063,23.642,38.517,140.752
38989910,0.821,-0.976,0.223,-80.132,55.44,82.862
38989920,0.791,-0.191,0.135,-160.475,67.69,17.867
38989930,0.283,0.714,-0.098,-173.25,33.687,-77.385
38989940,-0.356,1.325,-0.323,-165.375,-26.32,-167.09
38989950,-1.038,1.512,-0.355,-169.977,-69.125,-168.945
38989960,-0.96,1.813,-0.17,-171.5,-63.192,-97.65
38989970,-0.764,1.997,0.936,-150.272,-20.877,-12.565
38989980,1.028,1.997,1.703,-83.125,-23.957,63.192
38989990,1.994,-1.08,1.816,54.705,-9.642,71.96
38990000,-0.638,-1.783,1.644,452.637,93.415,-236.145
38990010,-1.077,1.781,0.016,551.022,-45.36,-206.797
38990010,1.871,0.708,0.632,383.932,69.335,178.937
38990030,-0.29,-0.089,1.949,185.29,31.5,78.89
38990030,-0.922,0.585,1.517,284.637,-4.34,61.232
38990050,-0.303,1.392,1.175,211.732,16.012,134.05
38990050,-0.973,0.742,1.409,65.975,3.01,49.385
38990070,-0.755,0.536,1.254,-2.047,-14.682,2.38
38990070,-0.382,0.414,1.051,-54.267,-31.377,-34.387
38990080,-0.119,0.021,1.004,-86.275,-32.532,-60.952
38990090,0.126,-0.327,0.959,-76.825,-29.277,-62.527
38990100,0.373,-0.419,0.935,-58.8,-25.865,-39.392
38990110,0.403,-0.35,0.951,-38.167,-20.475,-6.422
38990120,0.271,-0.193,0.991,-24.027,-11.217,23.992
38990130,0.12,-0.117,1.048,-19.232,-3.972,43.05
38990140,-0.019,-0.011,1.092,-29.592,0.962,55.3
38990150,-0.083,0.052,1.098,-45.237,3.815,59.71
38990160,-0.127,0.107,1.127,-66.482,4.882,57.837
38990170,-0.124,0.107,1.161,-93.292,1.732,54.6
38990180,-0.168,0.087,1.175,-126.49,-0.595,53.182
38990190,-0.178,-0.007,1.149,-161.315,-4.182,50.995
38990200,-0.063,-0.093,1.117,-192.797,-4.042,49.63
38990210,-0.052,-0.138,1.078,-207.777,-0.367,46.305
38990220,-0.066,-0.193,1.08,-214.41,2.082,37.852
38990230,0.042,-0.387,1.137,-216.93,15.907,34.37
38990240,0.006,-0.763,1.365,-215.39,40.407,33.617
38990250,0.101,-1.004,1.312,-163.87,35.332,35.367
38990260,-0.014,-1.184,1.137,-61.46,13.737,12.827
38990270,-0.429,-1.511,1.106,-23.747,20.02,-2.38
38990280,-0.617,-1.711,0.915,34.86,51.31,-1.12
38990290,-0.483,-1.518,0.152,164.5,74.165,42.175
38990300,0.425,-0.972,-0.112,208.792,92.645,70.437
38990310,0.508,-0.8,-0.316,156.065,69.3,45.272
38990320,0.338,-0.646,-0.48,114.66,25.077,-11.9
38990330,0.103,-0.244,-0.43,79.747,-34.492,-59.272
38990340,0.157,-0.024,-0.415,-4.392,-77.402,-111.79
38990350,-0.024,0.087,-0.321,-118.23,-88.252,-151.952
38990360,-0.451,0.153,-0.178,-185.08,-85.662,-175.717
38990370,-0.732,0.322,-0.12,-183.155,-83.86,-169.417
38990380,-0.86,1.594,0.691,-157.307,-47.81,-117.267
38990390,-1.964,1.864,1.998,-269.43,-96.915,-56.822
38990400,1.414,-1.665,1.092,45.237,-107.397,22.995
38990410,0.726,-1.892,1.135,503.212,59.85,53.497
38990420,-1.169,1.563,0.297,467.057,15.925,-130.812
38990420,1.178,0.967,0.719,381.762,54.267,36.155
38990430,0.448,-0.236,1.465,284.742,47.372,49
38990440,-0.308,0.229,1.524,292.775,17.342,39.375
38990450,-0.048,1.159,1.321,261.8,23.555,101.255
38990460,-0.771,1.002,1.377,134.452,24.675,70.735
38990470,-0.751,0.609,1.324,37.817,16.222,49.402
38990480,-0.71,0.422,1.111,-2.59,-5.267,9.94
38990490,-0.309,0.158,1.037,-46.147,-25.147,-24.062
38990500,0.073,-0.038,1.001,-53.235,-27.702,-44.117
38990510,0.25,-0.152,1,-45.01,-19.915,-39.112
38990520,0.33,-0.211,1.024,-45.08,-12.6,-15.925
38990530,0.212,-0.116,1.025,-42.717,-4.27,12.355
38990540,0.019,-0.05,1.041,-44.957,0.717,32.812
38990550,-0.059,0.04,1.077,-55.317,2.712,43.26
38990560,-0.138,0.122,1.088,-67.69,3.885,42.157
38990570,-0.145,0.055,1.101,-90.107,0.402,37.327
38990580,-0.069,-0.021,1.135,-115.972,0.455,37.205
38990590,-0.014,-0.034,1.135,-138.915,3.727,39.62
38990600,0.004,-0.062,1.113,-162.067,8.417,43.592
38990610,0.034,-0.134,1.089,-181.807,12.232,48.79
38990620,0.032,-0.199,1.074,-192.115,19.495,53.48
38990630,0.006,-0.228,1.079,-196.297,27.352,50.767
38990640,-0.034,-0.311,1.097,-200.34,41.93,44.87
38990650,-0.077,-0.404,1.175,-199.202,52.78,38.255
38990660,-0.08,-0.795,1.324,-197.12,58.695,44.205
38990670,-0.283,-0.987,1.297,-143.377,33.477,55.807
38990680,-0.52,-1.249,1.295,-42.367,-19.005,44.467
38990690,-0.46,-1.392,1.416,8.505,-17.71,56.35
38990700,-0.657,-1.366,0.681,141.295,16.397,95.672
38990710,0.117,-0.968,-0.208,268.975,63.63,125.037
38990720,0.472,-0.519,-0.535,253.557,88.27,123.48
38990730,0.283,-0.492,-0.69,189.332,52.465,61.18
38990740,0.275,-0.551,-0.559,126.84,-7.525,-11.777
38990750,0.269,-0.421,-0.255,44.52,-55.335,-91.385
38990760,0.073,-0.202,-0.172,-56.997,-86.695,-180.302
38990760,-0.365,-0.064,-0.146,-123.165,-103.18,-249.165
38990780,-0.925,0.089,-0.133,-133.245,-119.997,-274.942
38990780,-1.135,0.509,-0.258,-120.33,-139.527,-253.837
38990800,-1.103,1.845,1.286,-158.812,-81.007,-170.24
38990800,-0.649,-0.089,0.666,-277.007,-64.33,-81.62
38990820,1.932,-1.998,1.537,397.39,47.285,37.94
38990820,-1.196,0.049,0.769,476.525,39.287,-111.177
38990830,0.365,1.284,0.488,420.28,16.66,-64.47
38990840,1.158,0.072,1.145,307.23,40.057,90.492
38990850,-0.304,0.113,1.634,276.815,17.657,64.067
38990860,-0.128,1.056,1.459,270.042,30.817,128.24
38990870,-0.881,1.318,1.363,185.132,31.78,98.822
38990880,-0.99,1.066,1.309,59.15,17.167,57.435
38990890,-0.863,0.648,1.159,-28.63,-16.502,3.692
38990900,-0.26,0.205,1.033,-79.695,-49.507,-34.422
38990910,0.188,-0.21,0.982,-87.272,-56.332,-53.917
38990920,0.442,-0.262,0.987,-65.765,-37.695,-42.822
38990930,0.48,-0.192,1.017,-47.95,-16.257,-13.282
38990940,0.248,-0.081,1.038,-44.117,5.547,15.75
38990950,0.098,-0.035,1.095,-49.105,16.187,35.315
38990960,-0.063,0.167,1.125,-61.827,25.427,45.115
38990970,-0.228,0.172,1.145,-81.462,16.082,40.39
38990980,0.002,0.096,1.174,-120.942,4.83,44.17
38990990,-0.032,0.12,1.169,-153.702,8.417,48.72
38991000,-0.071,0.081,1.165,-183.102,10.85,55.3
38991010,-0.051,0.034,1.129,-215.337,14.105,64.697
38991020,-0.026,0.002,1.116,-235.707,13.212,65.152
38991030,-0.025,-0.141,1.077,-249.147,16.625,61.057
38991040,-0.061,-0.378,1.173,-265.37,24.57,53.672
38991050,-0.015,-0.434,1.372,-280.157,43.365,40.705
38991060,-0.04,-0.929,1.487,-264.232,61.792,40.985
38991070,-0.117,-1.199,1.425,-169.977,25.34,45.045
38991080,-0.322,-0.804,1.078,-59.517,-15.085,14.945
38991090,-0.275,-0.378,0.548,-4.777,9.922,28.49
38991100,-0.464,-0.454,0.747,31.797,18.13,42.315
38991110,-0.14,-0.403,0.222,72.38,-14.192,37.992
38991120,0.37,0.109,-0.175,135.485,-1.12,43.697
38991120,0.258,0.27,-0.088,100.222,22.417,25.987
38991140,0.204,0.05,0.181,25.2,19.792,-38.22
38991140,-0.108,0.076,0.221,5.32,23.012,-95.217
38991160,-0.484,0.341,0.102,22.295,23.362,-119.84
38991160,-0.656,0.532,-0.004,19.6,12.215,-113.382
38991170,-0.541,0.455,0.05,0.612,0.927,-91.262
38991180,-0.43,0.33,0.117,-11.847,-3.71,-65.922
38991190,-0.409,0.332,-0.163,1.277,0.35,-33.442
38991200,0.621,-0.331,0.841,23.222,22.715,-11.952
38991210,-0.881,-1.983,1.927,-38.465,-61.337,-43.627
38991220,-1.128,-1.786,1.732,122.867,-233.695,-265.037
38991230,1.463,0.788,-0.115,465.465,-41.37,-58.152
38991240,1.873,1.776,0.032,495.267,-6.895,13.37
38991250,0.593,-0.103,1.222,318.972,12.915,-42.227
38991260,0.155,-0.956,1.812,311.552,21.787,57.662
38991270,0.322,1.232,1.353,397.95,28.997,139.842
38991280,-0.845,1.271,1.471,308.892,50.102,124.215
38991290,-1.233,1.527,1.431,137.585,57.277,94.727
38991300,-0.98,1.187,1.078,47.215,-5.215,15.907
38991310,-0.215,0.427,1.107,-64.33,-49.542,-33.6
38991320,0.086,-0.065,1.068,-94.955,-59.902,-54.145
38991330,0.279,-0.164,0.97,-77.14,-45.57,-44.24
38991340,0.267,-0.099,1.032,-69.125,-24.36,-31.342
38991350,0.245,0.022,1.083,-64.82,-6.405,-13.702
38991360,0.042,0.094,1.095,-70.245,10.202,-1.522
38991370,-0.082,0.09,1.112,-87.885,16.677,5.232
38991380,-0.117,0.109,1.099,-109.427,17.867,8.19
38991390,-0.111,0.125,1.129,-134.925,15.19,9.432
38991400,-0.021,0.143,1.149,-170.082,7.507,12.285
38991410,0.099,0.129,1.138,-204.837,6.037,20.527
38991420,0.079,0.018,1.094,-233.835,11.042,28.927
38991430,-0.01,-0.189,1.059,-253.015,8.732,35.665
38991440,0.015,-0.246,1.151,-267.347,8.96,43.435
38991450,-0.115,-0.192,1.128,-273.49,11.847,46.602
38991460,-0.03,-0.415,1.22,-279.457,6.09,41.125
38991470,-0.004,-0.622,1.499,-276.132,14.052,48.912
38991480,0.203,-1.242,1.56,-201.267,24.692,56.63
38991490,-0.226,-1.21,1.251,-101.045,13.527,19.775
38991500,-0.24,-0.673,0.994,-50.015,29.242,-11.55
38991510,-0.39,-0.855,0.983,8.802,49.595,8.067
38991510,0.094,-0.763,0.583,89.197,45.85,16.957
38991530,-0.041,-0.26,-0.068,171.342,68.127,28.892
38991530,-0.289,0.103,-0.656,196.787,67.34,24.815
38991550,-0.44,0.323,-0.915,168.21,51.66,31.255
38991550,-0.289,0.315,-0.645,102.34,26.827,38.43
38991570,0.149,0.14,-0.209,4.445,11.445,32.375
38991570,0.322,0.22,-0.046,-60.917,13.247,15.645
38991580,0.077,0.514,-0.178,-34.055,5.057,-12.162
38991590,-0.222,0.85,-0.419,8.452,-21.035,-28.507
38991600,-0.294,0.922,-0.425,-11.48,-41.65,-20.93
38991610,-1.091,-0.394,1.944,-139.685,-36.767,-36.995
38991620,-0.991,-1.998,1.557,-240.73,-238.245,-175.017
38991630,0.36,-0.352,1.426,352.975,-2.59,-123.287
38991640,-0.461,1.997,-1.223,570.307,-106.785,-35.752
38991650,1.997,1.257,0.258,404.705,-75.162,-57.785
38991660,0.431,-1.687,1.853,124.372,19.635,-51.677
38991670,-0.259,-0.954,1.727,341.11,-35.542,-47.232
38991680,1.363,1.817,0.93,457.887,-14.35,119.21
38991690,-0.144,0.997,1.54,247.38,31.832,95.27
38991700,-0.862,0.968,1.685,96.6,62.982,91.402
38991710,-1.046,1.479,1.143,68.285,24.71,58.607
38991720,-0.614,0.835,1.193,-62.09,-15.592,-2.397
38991730,-0.242,0.177,1.24,-143.622,-37.152,-54.372
38991740,0.07,0.006,1.055,-140.997,-35.472,-74.55
38991750,0.091,-0.127,0.971,-137.9,-13.825,-74.865
38991760,0.148,-0.201,1.029,-147.892,-6.195,-57.032
38991770,0.174,-0.064,1.036,-152.162,-8.995,-27.615
38991780,0.072,-0.044,0.993,-159.407,-12.32,-0.77
38991790,-0.041,-0.178,0.988,-172.9,-16.362,20.51
38991800,-0.114,-0.26,1.014,-182.35,-19.547,35.49
38991810,-0.108,-0.23,1.024,-187.145,-23.957,47.652
38991820,-0.027,-0.212,1.017,-192.832,-26.687,58.152
38991830,0.094,-0.263,1.062,-199.237,-24.762,66.85
38991830,0.221,-0.388,1.174,-203.245,-17.447,73.622
38991850,0.302,-0.69,1.326,-200.235,2.765,79.31
38991850,0.231,-1.036,1.452,-174.772,17.22,86.887
38991870,-0.149,-0.938,1.536,-100.922,1.68,88.567
38991870,-0.202,-1.47,1.515,33.232,-25.777,73.5
38991890,-0.021,-1.371,1.06,116.602,-43.26,83.16
38991890,0.128,-1.175,0.029,226.537,-14.735,100.485
38991910,0.166,-0.581,-0.551,277.865,40.565,99.82
38991910,-0.325,-0.492,-0.565,221.322,71.82,79.975
38991920,-0.414,-0.583,-0.348,133.945,66.045,49.07
38991930,-0.18,-0.526,-0.198,72.695,55.195,37.012
38991940,-0.056,-0.415,-0.154,39.042,54.705,27.282
38991950,-0.149,-0.201,-0.184,14.367,45.43,9.992
38991960,-0.164,0.182,-0.168,-11.707,30.712,7.49
38991970,-0.054,0.421,-0.154,-50.382,17.097,24.692
38991980,0.26,1.177,0.447,-79.957,31.535,52.92
38991990,-0.745,1.988,1.947,-141.4,-31.045,88.375
38992000,-0.059,0.921,1.998,-28.385,-138.232,106.627
38992010,-0.039,-1.939,1.628,252.91,-83.23,90.037
38992020,-1.206,-1.069,1.499,392.525,-92.522,-16.432
38992030,0.374,1.704,0.591,426.632,-80.167,78.662
38992040,0.78,1.084,1.388,363.055,-73.115,120.4
38992050,-0.045,0.147,1.997,203.805,-18.795,49.14
38992060,0.127,1.715,1.345,172.567,36.68,65.117
38992070,-0.626,1.743,0.816,88.97,27.562,38.99
38992080,-0.51,0.777,1.225,-83.912,-0.945,13.79
38992090,-0.392,0.142,1.263,-133.647,-28.56,-18.742
38992100,-0.157,-0.005,1.067,-135.345,-39.585,-40.915
38992110,0.017,-0.064,0.964,-147.227,-33.582,-51.695
38992120,0.059,-0.153,0.979,-133.07,-15.242,-53.305
38992130,0.103,-0.183,0.922,-113.855,-1.382,-45.307
38992140,0.161,-0.264,0.902,-104.247,3.57,-28.437
38992150,0.137,-0.295,0.898,-92.47,5.53,-12.705
38992160,0.096,-0.315,0.904,-74.41,8.26,1.277
38992170,0.073,-0.254,0.915,-60.007,10.045,15.47
38992180,0.073,-0.223,0.916,-49.105,13.527,31.412
38992190,0.031,-0.218,0.91,-38.377,13.562,46.777
38992200,-0.024,-0.165,0.923,-30.817,12.705,63.315
38992210,-0.149,-0.142,0.911,-22.102,8.557,75.635
38992220,-0.217,-0.059,0.93,-16.327,-1.872,78.767
38992230,-0.301,0.022,0.917,-12.495,-11.585,78.557
38992240,-0.304,0.022,0.934,-4.795,-21.857,72.082
38992250,-0.288,0.001,0.95,-2.992,-27.65,61.845
38992260,-0.299,0.007,0.945,1.96,-31.552,46.882
38992260,-0.259,0.008,0.956,3.71,-34.195,30.625
38992280,-0.197,-0.056,0.953,4.655,-35.805,15.89
38992280,-0.124,-0.11,0.935,8.225,-38.937,0.105
38992300,-0.054,-0.045,0.996,12.862,-38.395,-8.627
38992300,-0.016,-0.043,0.956,19.197,-35.612,-13.842
38992320,-0.069,-0.07,0.983,22.382,-36.505,-20.562
38992320,-0.04,-0.091,1.009,23.747,-34.86,-21.542
38992330,-0.03,-0.057,1.019,28.245,-32.41,-23.502
38992340,0.048,-0.037,1.042,26.32,-29.015,-25.567
38992350,0.15,-0.012,1.094,18.97,-22.75,-21.385
38992360,0.163,0.058,1.107,8.19,-17.027,-13.107
38992370,0.212,0.106,1.154,-11.55,-9.117,-1.172
38992380,0.073,0.188,1.164,-35.017,0.875,9.205
38992390,-0.025,0.187,1.121,-58.817,5.897,18.27
38992400,-0.101,0.022,1.049,-81.97,7.735,22.312
38992410,-0.176,-0.114,0.958,-90.265,6.125,18.357
38992420,-0.187,-0.208,0.881,-83.86,2.397,12.985
38992430,-0.135,-0.311,0.864,-72.572,0,6.072
38992440,-0.105,-0.351,0.858,-56.875,0.14,-2.502
38992450,-0.054,-0.362,0.831,-35.017,-1.19,-7.28
38992460,0.041,-0.396,0.823,-12.845,-2.17,-5.985
38992470,0.1,-0.442,0.811,12.67,-1.89,-2.695
38992480,0.086,-0.389,0.824,43.645,-4.182,1.82
38992490,0.112,-0.331,0.843,72.1,-7.297,10.22
38992500,0.119,-0.269,0.885,94.255,-6.23,18.987
38992510,0.064,-0.162,0.912,114.485,-5.897,27.282
38992520,0.033,-0.093,0.892,131.775,-5.11,35.28
38992530,-0.101,-0.038,0.929,142.345,-5.25,41.195
38992540,0.038,-0.036,0.956,150.08,1.785,48.23
38992550,-0.163,0.012,0.954,165.27,2.957,38.342
38992560,-0.163,0.025,1.013,164.185,6.142,35.595
38992570,-0.047,0.122,1.101,158.077,9.555,32.147
38992580,0.14,0.193,1.217,145.092,21.805,28.717
38992580,-0.018,0.284,1.195,126.787,34.177,17.745
38992600,-0.169,0.489,1.07,101.972,40.547,17.027
38992600,-0.33,0.579,0.959,70.035,31.815,16.362
38992620,-0.343,0.498,0.923,34.947,11.427,10.255
38992620,-0.23,0.294,0.956,9.992,-11.567,2.922
38992640,-0.128,0.187,0.979,-2.52,-24.727,-0.875
38992640,-0.028,0.137,0.985,-7.017,-29.645,-2.222
38992660,0.04,0.101,0.997,-8.417,-27.37,-2.852
38992660,0.06,0.095,0.998,-5.337,-21.612,-2.957
38992670,0.053,0.098,0.999,-1.872,-13.877,-2.59
38992680,0.027,0.126,0.995,1.155,-7.437,-3.062
38992690,0.001,0.137,0.992,2.362,-1.907,-2.467
38992700,-0.026,0.15,0.988,3.307,1.347,-1.995
38992710,-0.059,0.153,0.983,3.99,2.922,-1.732
38992720,-0.087,0.147,0.984,4.095,2.1,-2.17
38992730,-0.118,0.161,0.98,4.987,-0.91,-3.535
38992740,-0.088,0.144,0.974,4.9,-4.987,-3.99
38992750,-0.051,0.159,0.973,3.972,-6.895,-3.937
38992760,0.022,0.205,0.946,5.04,-6.405,-2.572
38992770,0.013,0.208,0.944,3.447,-2.87,-0.752
38992780,0.049,0.169,0.96,2.782,2.012,1.452
38992790,0.039,0.162,0.961,4.322,7.63,1.977
38992800,0.006,0.186,0.959,5.74,12.827,3.202
38992810,-0.021,0.136,0.996,5.372,16.17,3.202
38992820,-0.029,0.062,1.024,6.632,19.442,0.577
38992830,-0.053,0.136,0.977,11.707,22.312,-3.045
38992840,0.019,0.315,0.88,14.472,22.085,-5.547
38992850,-0.03,0.378,0.875,11.567,18.83,-2.94
38992860,-0.181,0.311,0.967,-2.537,12.915,-4.13
38992870,-0.254,0.428,0.984,-10.57,1.837,-2.94
38992880,-0.174,0.508,1.031,-32.882,-9.275,-1.137
38992890,-0.183,0.4,1.157,-67.322,-13.002,-5.495
38992900,-0.094,0.419,1.241,-99.05,-11.427,-11.095
38992910,0.029,0.164,1.298,-135.555,1.225,-21.595
38992920,-0.096,0.339,1.109,-162.96,21.822,-41.545
38992930,-0.075,0.305,1.061,-182.962,26.967,-35.49
38992940,-0.187,0.193,0.995,-213.115,21.875,-22.995
38992950,-0.23,-0.067,1.062,-228.882,8.75,-17.395
38992960,-0.159,0.003,1.131,-246.242,7.98,-4.305
38992970,0.038,0.047,1.139,-253.207,4.987,15.33
38992980,0.146,0.025,1.181,-270.34,11.357,38.307
38992990,0.206,-0.205,1.197,-279.44,11.445,55.405
38993000,0.199,-0.558,1.39,-279.685,17.657,76.895
38993010,-0.006,-0.549,1.39,-253.05,9.922,86.817
38993010,0.042,-0.299,1.132,-221.27,-9.852,100.73
38993030,0.128,-0.285,0.831,-200.112,-23.835,114.415
38993030,-0.149,-0.033,0.914,-184.677,-20.037,128.59
38993050,-0.073,-0.419,0.942,-164.64,-33.057,97.002
38993050,-0.264,-0.259,0.906,-170.66,-26.81,95.06
38993070,-0.325,-0.227,0.888,-155.19,-30.555,82.757
38993070,-0.3,-0.332,0.912,-136.692,-31.307,65.817
38993080,-0.184,-0.466,0.986,-113.137,-19.127,43.207
38993090,-0.276,-0.347,1.006,-75.582,19.512,26.6
38993100,-0.793,0.053,1.271,-25.865,27.702,11.34
38993110,-0.219,-0.303,0.896,49.525,20.16,8.89
38993120,-0.028,-0.143,0.814,96.477,57.75,14.665
38993130,-0.097,0.001,0.486,128.485,74.952,-8.295
38993140,-0.3,-0.016,0.269,146.09,73.202,-36.417
38993150,-0.252,0.056,0.196,139.37,63.962,-52.36
38993160,-0.257,0.057,0.154,121.975,55.667,-60.69
38993170,-0.224,0.037,0.262,98.315,48.947,-76.545
38993180,-0.193,-0.081,0.409,81.06,44.52,-98.665
38993190,-0.264,-0.126,0.503,72.765,42.962,-120.662
38993200,-0.336,-0.151,0.466,80.605,40.04,-137.865
38993210,-0.385,-0.121,0.32,97.177,37.17,-146.195
38993220,-0.442,-0.072,0.126,111.037,35.14,-146.09
38993230,-0.436,-0.029,-0.069,120.365,29.855,-142.222
38993240,-0.369,0.02,-0.279,121.625,28.402,-135.625
38993250,-0.302,0.085,-0.498,125.44,30.782,-122.115
38993260,-0.236,0.292,-0.694,116.515,30.66,-111.492
38993270,-0.471,-0.86,1.545,30.082,-2.082,-133.175
38993280,0.462,-1.998,1.579,-181.09,-342.947,-341.652
38993290,-1.375,0.038,0.891,370.02,18.865,-332.482
38993300,0.813,1.997,-0.901,560.455,-81.305,-175.612
38993310,1.988,0.62,0.61,310.765,-31.01,-54.88
38993320,-0.619,-1.419,1.998,70.42,-25.41,-102.935
38993330,1.086,0.231,1.443,268.887,-9.1,78.96
38993330,0.177,1.297,0.975,288.085,16.922,160.755
38993350,-0.789,0.424,1.395,109.41,35.98,110.582
38993350,-0.985,0.515,1.259,73.465,28.507,77.857
38993370,-0.784,0.684,1.059,53.41,-5.81,23.135
38993370,-0.151,0.426,1.208,-30.73,-34.055,-22.942
38993390,0.12,0.261,1.229,-63.262,-36.032,-38.64
38993390,0.2,0.254,1.226,-81.27,-14.945,-30.695
38993410,0.095,0.305,1.219,-113.12,8.575,-20.737
38993410,-0.055,0.236,1.185,-150.027,23.905,-14.367
38993420,-0.181,0.204,1.17,-187.67,24.255,-8.032
38993430,-0.122,0.12,1.098,-222.372,14.192,2.905
38993440,-0.064,0.016,1.075,-251.667,12.372,14.962
38993450,-0.075,-0.08,1.055,-271.792,10.955,23.765
38993460,-0.073,-0.179,1.066,-286.265,6.23,32.812
38993470,-0.078,-0.2,1.039,-298.917,2.327,37.94
38993480,-0.235,-0.174,1.084,-314.632,-0.07,37.835
38993490,-0.425,-0.299,1.331,-336,-14.122,32.725
38993500,-0.49,-0.861,1.422,-307.65,-49.035,36.575
38993510,-0.136,-1.295,1.144,-157.745,-49.84,38.92
38993520,-0.474,-0.679,0.774,-50.312,-38.255,4.147
38993530,-0.289,-0.639,1.087,-54.617,5.005,27.002
38993540,-0.759,-0.501,1.24,-13.755,6.352,34.212
38993550,-0.213,-0.213,0.822,108.535,47.967,66.972
38993560,0.063,0.178,-0.04,196.07,76.895,118.685
38993570,0.35,0.536,-1.06,252.91,55.772,118.632
38993580,0.266,0.901,-1.012,223.142,53.882,113.907
38993590,0.525,0.272,-0.381,116.882,29.225,77
38993600,0.53,-0.022,0.006,34.772,8.82,13.807
38993610,0.052,0.106,-0.101,26.355,5.827,-44.852
38993620,-0.493,0.234,-0.343,47.057,-14.402,-81.06
38993630,-0.661,0.247,-0.437,28.21,-35.577,-78.4
38993640,-0.658,0.286,0.482,-9.87,-45.027,-64.627
38993650,-1.063,-1.424,1.294,-146.492,-209.93,-114.887
38993660,0.134,-1.093,1.503,202.72,-118.002,-305.952
38993670,-0.396,1.993,-0.586,560.332,-64.732,-97.265
38993680,1.998,1.579,0.082,483.367,-39.935,36.592
38993690,0.482,-1.091,1.692,218.19,-15.89,-11.987
38993700,0.186,-0.733,1.889,275.17,5.635,17.605
38993710,0.781,1.556,1.304,402.412,68.355,162.242
38993720,-1.249,1.395,1.364,239.505,90.947,84.735
38993730,-1.404,1.313,1.112,79.695,49.962,47.985
38993740,-0.675,0.797,0.999,-7.612,-22.837,-3.832
38993750,-0.018,0.133,1.072,-88.585,-56.227,-37.572
38993760,0.154,-0.22,1.059,-95.025,-53.375,-44.257
38993760,0.424,-0.172,1.067,-73.797,-32.357,-22.942
38993780,0.287,0.027,1.054,-55.282,-4.025,4.725
38993780,0.105,0.091,1.13,-57.89,10.815,29.855
38993800,-0.089,0.191,1.175,-74.62,10.01,47.74
38993800,-0.135,0.254,1.188,-108.605,0.525,59.85
38993810,-0.233,0.224,1.16,-145.425,-8.715,62.772
38993820,-0.151,0.114,1.174,-184.572,-16.712,66.692
38993830,-0.142,0.013,1.168,-227.29,-21,74.987
38993840,-0.131,-0.022,1.163,-259.647,-28.647,81.9
38993850,-0.182,0.005,1.157,-281.137,-38.255,84.105
38993860,-0.304,-0.045,1.148,-294.07,-52.237,78.855
38993870,-0.355,-0.824,1.304,-299.407,-76.352,69.772
38993880,-0.101,-1.659,1.363,-287.647,-92.417,64.347
38993890,-0.059,-1.858,1.101,-208.232,-56.28,57.557
38993900,-0.536,-1.781,0.615,-24.377,54.88,25.97
38993910,-1.313,-0.976,0.508,59.36,121.537,-2.065
38993920,-0.335,-0.749,0.678,25.882,130.445,6.352
38993930,0.459,-0.421,0.694,42.385,135.222,0.367
38993940,0.213,0.253,0.222,84.735,152.705,-20.615
38993950,-0.095,0.886,-0.154,96.582,148.365,-46.06
38993960,-0.068,1.144,-0.575,85.277,112,-62.737
38993970,-0.004,1.435,-0.838,80.167,75.11,-68.915
38993980,0.011,1.519,-0.899,61.022,46.2,-80.185
38993990,0.068,1.449,-0.87,20.947,25.83,-94.307
38994000,0.041,1.354,-0.928,-9.152,20.86,-94.85
38994010,-0.295,0.956,1.105,-50.4,13.702,-105.98
38994020,-0.643,-1.986,1.522,-246.347,-321.09,-265.142
38994030,-0.413,-0.604,1.474,290.815,-71.032,-304.517
38994040,0.644,1.992,-0.985,566.965,-63.875,-51.59
38994050,1.972,1.37,0.196,396.165,-25.987,16.905
38994060,-0.09,-1.617,1.945,119.385,0.437,-35.525
38994070,0.525,-0.096,1.766,269.622,3.307,76.125
38994080,0.367,1.832,1.055,355.792,35.857,191.467
38994080,-1.106,0.945,1.397,154.542,53.27,112.647
38994100,-1.2,0.846,1.319,34.37,38.587,69.58
38994100,-0.805,0.828,1.097,-6.877,-9.1,1.382
38994120,-0.161,0.515,1.215,-103.687,-36.995,-56.14
38994120,0.019,0.23,1.189,-136.29,-35.297,-85.19
38994140,0.193,0.152,1.163,-143.902,-10.5,-84.07
38994140,0.138,0.05,1.167,-163.362,10.902,-69.58
38994160,0.089,0.016,1.136,-188.65,16.222,-49.28
38994160,0.022,0.012,1.096,-210.052,14.297,-29.82
38994170,0.018,-0.051,1.081,-227.027,14.647,-15.452
38994180,0.012,-0.138,1.109,-243.635,18.48,-4.112
38994190,-0.012,-0.19,1.121,-258.632,20.912,2.012
38994200,-0.014,-0.225,1.184,-276.115,24.5,6.335
38994210,-0.098,-0.294,1.27,-302.732,33.495,7.682
38994220,-0.094,-0.548,1.538,-316.907,36.995,5.617
38994230,-0.298,-1.074,1.476,-296.905,25.322,6.93
38994240,-0.603,-1.181,1.23,-157.99,7.192,18.497
38994250,-0.408,-0.907,0.754,-9.537,5.845,-12.862
38994260,-0.368,-0.958,0.93,-25.06,38.202,-7.647
38994270,-0.227,-1.084,0.695,11.445,41.002,-27.44
38994280,0.007,-0.317,0.281,114.922,63.665,-32.637
38994290,-0.105,0.265,-0.367,163.94,60.182,-27.405
38994300,-0.077,0.668,-0.716,152.197,36.61,-31.99
38994310,-0.088,0.769,-0.676,104.3,12.477,-22.785
38994320,0.162,0.527,-0.449,54.057,-20.527,-24.097
38994330,0.383,0.292,-0.285,-0.315,-40.46,-36.575
38994340,0.382,0.177,-0.344,-26.425,-43.715,-56.525
38994350,0.181,0.215,-0.48,-22.312,-45.412,-75.652
38994360,-0.178,0.261,-0.641,-19.845,-68.652,-84.367
38994370,-0.141,-0.452,0.412,-59.675,-73.325,-103.582
38994380,-0.346,-1.932,1.865,-173.74,-10.465,-132.335
38994390,-1.174,-1.998,1.129,-40.32,-4.287,-183.872
38994400,-1.106,0.277,0.671,481.915,-46.34,-108.115
38994410,1.738,1.997,-0.903,543.55,-58.345,24.307
38994420,1.381,0.571,0.996,317.73,67.445,75.092
38994430,-0.524,-1.748,1.93,226.835,20.02,-58.152
38994440,0.325,0.173,1.235,395.29,16.607,73.342
38994450,0.295,1.33,1.069,404.53,25.112,126.507
38994460,-0.825,0.773,1.656,227.097,43.837,67.917
38994470,-0.835,1.182,1.493,133.84,47.512,49.927
38994480,-0.659,1.307,1.18,66.797,11.515,1.137
38994480,-0.347,0.784,1.329,-58.852,-12.897,-38.745
38994500,-0.15,0.431,1.182,-117.81,-18.585,-62.982
38994500,-0.065,0.137,1.022,-142.765,-12.39,-76.055
38994510,-0.073,-0.072,1.018,-154.35,-3.08,-80.622
38994520,-0.081,-0.116,1.069,-156.205,-0.332,-71.767
38994530,0.01,0.01,1.059,-163.362,-1.995,-52.132
38994540,0.029,0.04,1.03,-178.377,-6.212,-35.42
38994550,0.001,-0.045,1.043,-197.26,-7.577,-21.105
38994560,-0.019,-0.116,1.046,-211.697,-7.122,-5.932
38994570,0.001,-0.15,1.053,-222.477,-4.497,7.122
38994580,-0.004,-0.185,1.055,-235.392,-1.907,15.645
38994590,-0.048,-0.211,1.093,-249.182,0.63,20.877
38994600,-0.108,-0.224,1.172,-263.112,-0.98,23.625
38994610,-0.165,-0.565,1.266,-271.355,-5.425,28.227
38994620,-0.42,-0.451,1.495,-239.172,-2.152,47.04
38994630,0.029,-1.37,1.385,-123.235,11.865,22.47
38994640,-0.245,-0.859,1.157,-57.12,29.295,-22.697
38994650,-0.219,-0.535,1.017,-24.78,77.052,-18.97
38994660,-0.151,-0.395,0.964,29.505,70.437,-18.147
38994670,-0.152,0.118,0.601,86.695,51.205,-28.56
38994680,-0.143,0.898,-0.075,156.345,65.415,-5.425
38994690,-0.459,1.665,-0.506,182.525,77.245,39.182
38994700,-0.697,1.986,-0.794,159.355,62.93,74.06
38994710,-0.61,1.814,-0.926,136.395,43.715,118.86
38994720,-0.4,1.688,-0.928,132.072,38.64,181.737
38994730,-0.199,1.435,-0.664,106.715,31.237,229.985
38994740,0.098,0.612,0.093,55.23,4.357,242.707
38994750,-0.348,-1.134,1.998,-61.512,-179.497,185.57
38994760,0.488,-1.998,1.687,-34.3,-270.042,-243.897
38994770,-1.998,0.052,-0.175,506.17,-53.55,-235.27
38994780,1.323,1.997,-0.767,524.51,-120.872,40.897
38994790,1.701,1.102,0.832,249.13,-30.397,259.875
38994800,-0.749,-1.597,1.998,162.47,-139.982,-131.635
38994810,1.492,1.078,1.582,277.9,15.295,74.252
38994820,-0.148,1.488,1.238,297.272,89.652,87.307
38994830,-1.455,1.562,1.065,79.485,77.437,35.91
38994830,-0.821,0.824,1.015,-16.975,1.435,5.565
38994850,-0.194,0.313,1.082,-89.407,-45.902,-32.357
38994850,-0.003,-0.074,1.066,-103.722,-56.437,-52.78
38994870,0.244,-0.143,1.081,-102.375,-44.38,-55.405
38994870,0.364,-0.076,1.135,-90.142,-13.597,-41.055
38994890,0.144,0.156,1.139,-84.577,13.825,-23.922
38994890,-0.017,0.08,1.138,-98.192,28.927,-14.35
38994910,-0.145,0.046,1.133,-114.887,35.595,-5.407
38994910,-0.176,0.079,1.098,-134.505,37.222,6.195
38994920,-0.102,0.107,1.078,-162.347,34.16,16.835
38994930,-0.102,0.09,1.048,-190.102,32.62,24.902
38994940,-0.036,0.031,1.054,-208.092,28.087,26.897
38994950,-0.125,-0.079,1.047,-219.52,36.855,30.502
38994960,-0.151,-0.073,1.063,-224.682,37.1,26.092
38994970,-0.158,-0.176,1.101,-230.335,35.49,18.707
38994980,-0.213,-0.206,1.251,-236.827,36.522,16.047
38994990,-0.2,-0.562,1.349,-228.515,33.022,11.585
38995000,-0.21,-0.923,1.182,-192.675,31.867,15.767
38995010,-0.215,-0.835,1.498,-120.557,22.19,31.062
38995020,0.015,-0.764,1.353,-37.17,25.165,13.947
38995030,-0.1,-0.688,1.328,-8.75,34.352,11.655
38995040,0.141,-0.338,0.33,90.65,37.1,1.33
38995050,-0.062,0.676,-0.8,181.755,36.855,7.105
38995060,-0.352,1.458,-1.681,186.217,-2.415,11.882
38995070,-0.267,1.506,-1.677,142.275,-62.632,4.217
38995080,-0.06,1.236,-1.272,62.23,-86.205,-32.55
38995090,-0.331,1.254,-0.991,-7.42,-73.657,-64.89
38995100,-0.74,1.061,-0.087,-14.945,-59.815,-75.967
38995110,-1.305,-1.121,1.305,-141.47,-246.4,-138.162
38995120,0.255,-1.509,1.911,91.227,-163.38,-363.527
38995130,-0.308,1.939,-0.858,542.92,-31.482,-98.315
38995140,1.998,1.765,-0.281,536.795,-66.727,37.275
38995150,0.609,-1.23,1.938,214.462,-33.285,12.6
38995160,0.738,0.553,1.94,201.022,75.652,54.6
38995170,-0.991,1.965,1.061,340.987,111.23,105.875
38995170,-1.445,1.596,1.01,87.867,65.415,51.135
38995190,-0.776,0.639,1.242,-54.845,-13.317,-6.125
38995190,-0.088,0.327,1.104,-100.17,-49.822,-44.31
38995210,0.084,-0.044,1.072,-133.42,-48.86,-65.31
38995210,0.32,-0.138,1.092,-137.795,-30.205,-62.37
38995230,0.235,-0.075,1.082,-124.32,-1.995,-44.52
38995230,0.032,0.003,1.046,-123.077,13.142,-23.485
38995250,-0.122,-0.063,1.027,-124.25,13.545,-14.472
38995250,-0.047,-0.083,1.079,-126.945,11.672,-8.12
38995260,0.011,-0.001,1.066,-133.91,18.865,-2.485
38995270,0.093,-0.013,1.036,-145.915,28.595,1.942
38995280,0.171,-0.138,1.041,-164.5,41.387,9.677
38995290,0.17,-0.28,1.058,-178.062,54.67,17.92
38995300,0.14,-0.317,1.079,-181.93,62.037,25.41
38995310,0.037,-0.293,1.04,-181.807,64.627,35.98
38995320,-0.137,-0.311,1.023,-178.132,60.025,48.912
38995330,-0.271,-0.395,0.978,-168.14,52.307,54.757
38995340,-0.349,-0.665,1.037,-141.575,60.97,54.285
38995350,-0.637,-0.719,1.22,-97.37,63.14,46.567
38995360,-0.411,-1.265,1.16,-11.462,45.027,36.085
38995370,-1.417,-1.309,1.223,100.485,73.815,21.157
38995380,-0.914,-0.871,0.165,184.502,92.312,28.49
38995390,0.139,-0.719,-0.21,241.885,94.727,72.082
38995400,0.269,-0.547,-0.629,220.29,52.622,28.962
38995410,0.274,-0.413,-0.628,177.555,8.75,-22.085
38995420,0.249,-0.413,-0.635,114.975,-40.075,-69.09
38995430,0.219,-0.049,-0.771,32.34,-87.185,-134.54
38995440,-0.056,0.397,-0.764,-73.902,-111.44,-194.81
38995450,-0.234,1.627,0.798,-203.297,-117.582,-206.5
38995460,-1.412,1.176,1.081,-351.47,-298.707,-180.092
38995470,1.998,-1.715,1.791,302.207,-57.557,10.832
38995480,0.205,-0.94,1.17,373.975,-12.565,-25.707
38995490,-1.128,1.07,0.692,322.437,-56.262,-142.87
38995500,1.386,-0.1,1.116,259.752,-23.205,55.615
38995510,0.068,0.203,1.322,265.405,-31.99,46.515
38995520,0.329,0.552,1.441,227.062,3.762,75.652
38995530,-0.238,0.905,1.33,173.985,36.575,70.98
38995540,-0.575,0.979,1.163,93.607,34.405,40.39
38995550,-0.582,0.743,1.143,4.287,10.745,9.642
38995560,-0.337,0.484,1.172,-59.29,-12.915,-22.33
38995570,0.008,0.278,1.208,-98.437,-22.382,-44.992
38995580,0.202,0.188,1.192,-112.892,-6.335,-55.142
38995580,0.145,0.098,1.172,-123.095,24.307,-55.842
38995600,0.088,0.104,1.127,-141.242,45.43,-47.337
38995600,0.069,0.044,1.08,-160.72,53.515,-34.597
38995620,0.056,-0.046,1.068,-178.045,58.992,-24.64
38995620,-0.012,-0.117,1.065,-190.837,64.417,-13.982
38995640,-0.022,-0.167,1.103,-199.01,68.845,-0.962
38995640,-0.031,-0.202,1.078,-205.327,72.817,17.605
38995660,-0.058,-0.137,1.089,-210.227,59.482,44.502
38995660,-0.033,-0.112,1.17,-227.937,49.315,77.175
38995670,-0.159,-0.2,1.106,-246.627,57.26,108.902
38995680,-0.261,-0.753,1.234,-240.047,69.685,131.81
38995690,-0.359,-0.979,1.569,-221.9,23.292,142.905
38995700,-0.108,-0.988,1.385,-163.257,-35.367,161.735
38995710,-0.09,-0.654,1.376,-76.457,-58.94,200.462
38995720,0.601,-0.418,0.783,14.857,-65.415,237.37
38995730,1.649,0.024,0.725,47.057,-43.995,280.14
38995740,1.544,0.599,0.087,59.71,-84.385,254.065
38995750,1.135,1.044,-0.47,103.495,-145.407,175.56
38995760,0.666,1.283,-1.042,101.867,-196.297,93.922
38995770,-0.421,1.318,-1.099,46.095,-229.407,51.835
38995780,-0.691,1.186,-0.843,-36.522,-216.492,70.805
38995790,-0.81,0.845,-0.724,-78.207,-178.01,92.54
38995800,-0.983,0.73,0.314,-46.935,-129.29,90.667
38995810,-1.967,-1.725,1.089,-97.702,-136.132,13.772
38995820,1.182,-1.157,1.776,231.927,-23.73,-23.135
38995830,-0.325,1.991,-1.243,550.812,-16.677,102.847
38995840,0.368,1.611,-0.602,530.897,-83.265,1.89
38995850,0.058,-1.87,1.998,151.777,-54.635,-5.337
38995860,0.837,0.922,1.788,245.245,28.822,21.945
38995870,0.122,1.997,0.724,325.762,65.537,63.875
38995880,-0.99,1.355,0.974,28.525,59.097,26.582
38995890,-0.762,0.378,1.189,-73.255,4.427,-1.05
38995900,-0.296,-0.187,1.003,-88.515,-27.405,-26.67
38995910,0.071,-0.275,1.036,-97.3,-32.97,-46.287
38995920,0.264,0.056,0.993,-70.577,-13.055,-45.045
38995920,0.293,-0.051,1.15,-65.73,13.79,-39.252
38995940,0.242,0.126,1.18,-67.777,34.912,-14.857
38995940,0.201,0.104,1.141,-74.935,52.64,-1.295
38995960,0.042,0.007,1.118,-97.265,62.457,4.83
38995960,0.034,-0.019,1.156,-120.732,65.905,20.667
38995980,0.15,0.06,1.135,-144.2,72.152,35.385
38995980,-0.024,0.006,1.05,-163.957,69.807,45.255
38996000,0.191,-0.245,1.212,-193.077,62.895,54.915
38996000,0.053,-0.079,1.156,-213.202,70.735,69.93
38996010,0.087,-0.154,1.135,-204.662,65.905,78.435
38996020,0.14,-0.439,1.173,-210.245,79.642,71.242
38996030,-0.093,-0.437,1.134,-200.585,100.8,71.54
38996040,-0.304,-0.494,1.292,-168.192,80.85,76.09
38996050,-0.28,-1.418,0.726,-154.21,2.275,61.495
38996060,0.845,-1.547,0.853,-152.705,-23.572,68.67
38996070,1.285,-1.998,0.979,-84.105,12.722,2.87
38996080,0.368,-1.813,0.943,-112.98,-4.077,-105.525
38996090,-0.743,-0.889,0.042,-31.57,-55.597,-243.67
38996100,-1.477,-0.164,-0.31,-2.45,-66.71,-224.682
38996110,-1.273,0.995,-0.773,-56.017,-74.147,-135.555
38996120,-0.906,1.943,-1.319,-42.105,-96.005,-39.725
38996130,-0.156,1.997,-1.574,-6.387,-85.19,58.712
38996140,0.355,1.997,-1.76,1.26,-47.635,130.935
38996150,0.586,1.331,0.653,-2.957,8.785,118.055
38996160,-1.074,-1.998,1.47,-98.21,-204.12,-66.797
38996170,-0.813,0.501,0.542,458.955,-75.075,-107.45
38996180,0.971,1.997,-1.352,573.072,-86.047,126.945
38996190,1.319,0.639,1.012,406.262,-54.127,93.152
38996200,-0.706,-0.954,1.998,92.365,-62.562,-41.667
38996210,0.792,1.46,1.571,313.827,-7.682,99.067
38996220,-0.022,1.748,1.216,243.897,33.932,102.62
38996230,-0.653,1.004,1.455,-13.195,38.22,42.262
38996240,-0.553,0.466,1.179,-67.637,6.475,21.595
38996250,-0.449,0.116,1.029,-111.475,-12.635,-9.012
38996260,-0.107,-0.128,0.974,-128.24,-24.202,-35.192
38996270,0.182,-0.181,1.019,-121.59,-20.947,-39.042
38996280,0.267,-0.128,1.095,-114.73,-2.555,-26.46
38996290,0.237,-0.035,1.029,-115.587,12.355,-10.29
38996300,0.1,-0.133,1,-121.887,18.637,3.57
38996310,0.004,-0.19,1.032,-127.697,20.177,15.102
38996320,0.028,-0.087,1.06,-129.202,23.45,23.747
38996330,-0.035,-0.033,1.064,-134.697,27.755,32.585
38996330,-0.139,-0.17,1.11,-153.982,20.807,42.595
38996350,-0.023,-0.167,1.155,-184.45,23.73,59.815
38996350,-0.056,-0.105,1.137,-196.595,22.19,71.4
38996370,-0.004,-0.326,1.172,-206.675,33.11,71.47
38996370,0.25,-0.754,0.978,-207.042,79.38,72.537
38996390,-0.282,-0.852,1.049,-165.025,114.8,76.3
38996390,-0.941,-0.573,0.902,-97.212,101.902,70.42
38996410,-0.969,-0.913,1.181,-2.905,46.987,58.887
38996410,-1.299,-0.769,0.907,38.587,26.495,88.97
38996420,-0.918,-0.665,-0.026,152.11,30.73,125.422
38996430,0.234,-0.533,-0.511,191.222,59.045,167.93
38996440,0.407,-0.472,-0.751,170.24,37.327,129.99
38996450,0.657,-0.487,-0.342,123.305,19.32,68.477
38996460,0.732,-0.585,0.172,22.977,23.712,21.402
38996470,0.56,-0.259,0.174,-62.247,3.36,-58.712
38996480,0.537,1.11,0.903,-89.932,-5.512,-126.787
38996490,-1.964,1.852,1.766,-154.7,-145.267,-161.962
38996500,-1.185,0.384,0.357,98.962,-297.5,-159.495
38996510,1.667,-1.758,1.481,264.897,-175.385,53.375
38996520,0.501,-0.801,1.643,199.5,-68.6,-54.547
38996530,-0.526,0.594,0.887,340.795,-82.197,-115.29
38996540,1.078,0.201,1.061,304.272,-68.302,5.67
38996550,0.475,0.014,1.402,219.45,-52.447,32.375
38996560,0.627,0.544,1.365,200.305,-24.29,72.432
38996570,0.142,0.752,1.34,146.037,16.572,98.367
38996580,-0.44,0.838,1.329,67.777,35.332,86.03
38996590,-0.683,0.808,1.18,7.122,26.145,60.427
38996600,-0.665,0.516,1.184,-62.65,8.662,12.477
38996610,-0.521,0.321,1.176,-107.607,-6.667,-37.572
38996620,-0.015,0.248,1.104,-132.772,-11.375,-66.325
38996630,0.099,0.071,1.088,-145.407,7.157,-82.267
38996640,0.145,-0.09,1.127,-164.465,21.927,-74.847
38996650,0.244,-0.05,1.101,-178.097,28.455,-53.585
38996660,0.237,-0.079,1.077,-188.877,35.525,-32.655
38996670,0.126,-0.202,1.092,-200.077,44.117,-17.027
38996670,0,-0.247,1.107,-204.54,52.237,-4.655
38996690,-0.077,-0.244,1.09,-204.627,54.302,5.232
38996690,-0.156,-0.243,1.089,-210.577,53.445,13.195
38996710,-0.175,-0.279,1.142,-220.307,49.367,15.137
38996710,-0.325,-0.299,1.267,-224.14,42.455,12.425
38996730,-0.361,-0.52,1.416,-213.972,27.44,10.29
38996730,-0.523,-0.76,1.497,-156.117,6.79,24.762
38996750,0.54,-0.76,1.058,-99.05,-33.722,-22.767
38996750,-0.348,-0.258,0.844,-71.33,26.985,-16.082
38996760,-0.753,-0.313,0.783,-18.217,48.807,-47.635
38996770,0.219,-0.673,0.794,11.62,32.322,-52.692
38996780,0.71,-0.456,0.48,81.55,38.482,-56.507
38996790,-0.547,0.439,-0.92,206.57,36.855,-117.81
38996800,-0.974,1.27,-1.111,223.16,19.792,-141.907
38996810,-0.559,0.689,-0.688,96.792,30.415,-85.89
38996820,-0.176,0.313,-0.224,8.785,39.76,-55.072
38996830,-0.135,0.327,-0.244,39.952,38.657,-46.515
38996840,-0.068,0.48,-0.477,105.402,26.145,-19.95
38996850,0.051,0.55,-0.303,107.17,2.677,4.987
38996860,-1.207,-0.338,1.937,-27.002,-153.51,-9.765
38996870,0.158,-1.998,0.465,-21.315,-427.63,-209.737
38996880,-0.728,0.264,1.106,418.652,-144.847,-139.842
38996890,1.897,1.993,-0.22,560.752,-60.375,7.857
38996900,1.512,1.186,0.538,417.252,-47.215,9.012
38996910,0.46,-1.526,1.998,210.857,-23.485,-16.415
38996920,0.972,1.129,1.584,312.357,67.952,83.3
38996930,-0.722,1.635,1.222,275.205,107.52,79.117
38996940,-1.399,1.393,1.168,65.222,79.24,53.06
38996950,-0.755,0.796,1.058,-19.915,0.7,15.75
38996960,-0.361,0.219,1.106,-93.817,-39.375,-26.372
38996970,0.01,0.055,1.082,-113.487,-50.33,-45.92
38996980,0.284,-0.058,1.125,-113.715,-41.807,-42.122
38996990,0.357,0.074,1.107,-115.027,-18.952,-26.635
38997000,0.155,0.066,1.125,-122.01,3.99,-6.825
38997010,-0.075,0.016,1.1,-141.82,7.735,9.1
38997020,-0.078,-0.024,1.064,-158.76,0.122,25.812
38997030,-0.138,0.037,1.01,-173.162,-6.562,36.295
38997040,-0.145,0.012,0.995,-191.31,-13.09,40.495
38997050,-0.121,-0.082,1.004,-211.382,-18.672,43.435
38997060,-0.183,-0.19,0.995,-223.02,-26.53,46.042
38997070,-0.086,-0.347,1.013,-231.665,-38.08,50.102
38997080,0.021,-0.292,1.06,-242.935,-27.107,54.775
38997080,-0.038,-0.359,0.972,-232.47,-21.28,47.25
38997100,-0.278,-0.391,1.238,-211.33,-8.837,60.252
38997100,0.307,-1.017,1.273,-150.815,14.63,35.997
38997120,-0.06,-0.878,1.276,-109.235,18.182,8.242
38997120,-0.564,-1.219,1.222,-72.677,18.865,-21.91
38997140,-0.829,-1.273,1.166,-10.622,34.685,-20.352
38997140,-0.782,-0.648,0.497,77.315,42.367,18.602
38997160,-0.014,0,0.214,146.002,69.965,67.707
38997160,0.16,0.218,-0.278,136.132,83.702,84.385
38997170,0.14,0.582,-0.827,158.515,72.87,64.155
38997180,0.007,0.758,-1.119,171.675,64.26,50.627
38997190,0.05,0.976,-1.001,109.34,30.38,3.92
38997200,0.106,1.215,-0.878,-7.612,-7.665,-63.455
38997210,-0.036,1.17,-0.249,-80.745,-15.242,-108.85
38997220,-1.558,-0.371,1.906,-219.975,-108.64,-170.1
38997230,1.109,-1.975,1.392,-3.85,-170.555,-362.792
38997240,-1.23,1.283,-0.039,510.16,25.322,-171.605
38997250,1.998,1.886,-0.225,531.037,-25.34,-33.512
38997260,0.879,-0.318,1.442,251.3,22.662,8.225
38997270,0.154,-0.884,1.963,206.377,19.722,13.352
38997280,0.549,1.092,1.407,345.712,45.272,182.42
38997290,-0.926,1.44,1.221,257.355,67.952,149.905
38997300,-1.21,0.932,1.354,93.782,63.735,110.355
38997310,-1.103,1.036,1.059,36.382,18.235,44.677
38997320,-0.651,0.694,1.175,-52.132,-24.745,-27.72
38997330,-0.029,0.483,1.22,-122.465,-45.955,-67.9
38997340,0.193,0.151,1.186,-153.597,-35.087,-82.6
38997350,0.289,0.063,1.174,-174.072,-7.175,-67.952
38997360,0.192,-0.028,1.103,-184.24,12.197,-44.205
38997370,0.121,-0.109,1.05,-202.142,18.235,-18.83
38997380,0.119,-0.163,1.042,-213.465,21.612,7.122
38997390,0.134,-0.27,1.022,-212.205,21.35,27.002
38997400,0.129,-0.335,1.074,-213.01,27.177,43.12
38997410,0.006,-0.304,1.122,-220.412,35.367,55.037
38997420,-0.008,-0.315,1.177,-226.415,36.872,67.515
38997420,0.047,-0.581,1.35,-232.365,42.997,76.912
38997440,-0.081,-0.773,1.497,-213.167,26.705,70.367
38997440,-0.496,-0.953,1.423,-148.102,-1.12,62.842
38997460,-0.431,-1.505,1.784,-28.84,-13.772,48.895
38997460,0.116,-1.461,0.995,71.312,-26.092,18.83
38997480,-0.288,-0.872,-0.323,193.62,9.992,4.042
38997480,-1.074,-0.079,-1.068,236.967,0.962,-41.772
38997500,-1.416,0.09,-1.084,135.957,-26.04,-62.055
38997500,-0.925,-0.3,-0.431,-2.905,-25.497,-49.245
38997510,-0.643,-0.528,0.129,-97.86,11.55,-30.52
38997520,-0.509,-0.362,0.189,-80.657,30.415,-42.56
38997530,-0.357,0.029,-0.093,-14.56,27.405,-52.185
38997540,0.041,0.438,-0.494,12.285,22.837,-53.392
38997550,0.427,1.013,-0.833,-1.365,32.707,-57.015
38997560,0.493,1.802,-0.185,-37.432,40.985,-78.54
38997570,-1.46,1.239,1.998,-244.842,-122.867,-146.142
38997580,1.229,-1.998,1.339,-4.777,-173.442,-298.97
38997590,-1.485,0.527,0.459,516.635,20.86,-229.897
38997600,1.952,1.765,-0.381,544.565,-10.447,-13.86
38997610,0.886,0.052,1.496,260.33,18.55,38.71
38997620,0.19,-0.685,1.967,198.397,5.915,66.447
38997630,0.272,1.194,1.409,303.502,26.057,209.79
38997640,-0.841,1.382,1.247,208.162,37.712,176.312
38997650,-1.271,0.819,1.412,63.752,28.542,118.422
38997660,-0.992,0.844,1.216,6.037,-1.347,38.412
38997670,-0.586,0.709,1.272,-82.32,-29.82,-34.895
38997680,-0.081,0.49,1.294,-158.952,-42.402,-68.932
38997690,0.234,0.233,1.197,-193.48,-32.795,-71.89
38997700,0.168,0.015,1.083,-222.792,-19.512,-55.125
38997710,0.154,-0.133,1.018,-250.582,-21.7,-30.415
38997720,0.082,-0.226,0.978,-260.82,-28.49,-6.755
38997730,0.023,-0.292,0.951,-259.612,-37.922,12.39
38997740,-0.023,-0.315,0.94,-257.53,-44.432,30.992
38997750,0.009,-0.356,0.957,-253.592,-46.025,47.547
38997760,0.085,-0.586,1.141,-245.665,-35.122,61.162
38997770,0.112,-1.073,1.22,-223.142,-24.657,71.697
38997780,-0.259,-0.762,1.212,-137.095,-18.672,91.612
38997790,-0.059,-1.05,1.215,-10.325,-38.867,50.855
38997800,-0.512,-1.229,1.23,20.632,-14.332,50.872
38997810,-0.785,-1.316,0.556,125.44,3.832,60.97
38997820,-0.466,-1.174,-0.499,234.237,21.385,87.237
38997830,-0.089,-0.863,-0.73,220.64,68.897,108.342
38997830,-0.162,-1.134,-0.758,147.612,69.545,69.335
38997840,-0.437,-0.924,-0.49,82.932,28.595,22.54
38997850,0.128,-0.789,-0.343,9.415,3.097,1.785
38997860,0.384,-0.406,-0.472,-57.82,10.132,-13.405
38997870,-0.104,0.437,-0.786,-91.647,0.857,-63.49
38997880,-0.349,1.778,0.48,-122.01,-6.405,-105.56
38997890,-1.556,1.67,1.766,-296.957,-107.31,-104.107
38997900,1.966,-1.863,1.347,222.337,-20.177,-89.162
38997910,-1.199,-0.866,1.217,542.762,53.742,-173.635
38997920,0.279,1.877,0.239,489.667,-15.487,-110.932
38997930,1.312,0.317,1.077,354.235,31.622,99.645
38997940,-0.173,-0.003,1.719,277.27,0.332,36.435
38997950,0.099,0.8,1.588,265.02,29.155,131.092
38997960,-0.679,1.338,1.203,216.125,42.787,102.83
38997970,-0.963,0.922,1.249,87.202,33.95,55.562
38997980,-0.821,0.624,1.107,15.592,-2.065,6.475
38997990,-0.457,0.406,1.07,-37.1,-37.835,-28.962
38998000,0.035,0.216,1.151,-76.825,-54.512,-44.485
38998010,0.254,0.157,1.163,-91.245,-43.522,-42.385
38998020,0.2,0.189,1.149,-106.995,-21.735,-25.025
38998030,0.059,0.128,1.114,-128.502,-5.372,-8.032
38998040,-0.075,0.016,1.083,-149.327,-1.872,5.04
38998050,-0.166,-0.016,1.07,-166.407,-9.345,17.342
38998060,-0.1,-0.075,1.062,-185.447,-28.84,29.522
38998070,0.07,-0.089,1.068,-210.805,-35.962,45.325
38998080,0.022,-0.063,1.053,-227.395,-33.512,58.835
38998090,-0.092,-0.088,1.075,-237.37,-35.682,68.967
38998100,-0.082,-0.157,1.065,-251.895,-38.885,77.052
38998110,0.045,-0.497,1.133,-249.847,-36.68,84.14
38998120,0.278,-0.867,1.246,-233.66,-19.442,89.092
38998130,0.065,-0.99,1.158,-171.745,5.6,95.007
38998140,-0.691,-1.904,0.806,-27.527,18.742,58.047
38998150,-1.142,-1.998,1.181,-4.007,79.555,29.19
38998160,-0.733,-1.457,0.636,71.155,114.817,71.47
38998170,0.439,-0.715,0,161.875,118.125,82.81
38998170,0.983,-0.262,-0.501,133.245,140.647,53.602
38998190,0.338,0.505,-0.807,98.052,104.72,-17.22
38998190,0.499,1.137,-0.78,27.93,41.947,-97.107
38998210,0.768,1.738,-0.791,-90.772,19.495,-141.61
38998210,0.427,1.997,-1.02,-144.707,-0.49,-204.977
38998230,-1.45,1.997,1.341,-168.157,-17.237,-247.695
38998230,-1.482,-1.286,1.986,-202.877,-139.737,-305.917
38998250,0.388,-1.211,1.683,171.78,-49.175,-281.137
38998250,-0.09,1.996,-1.4,551.215,-12.407,-78.522
38998260,1.901,0.856,-0.056,482.72,-13.877,-47.635
38998270,-0.181,-0.885,1.857,160.177,21.665,-63.017
38998280,0.617,-0.578,1.678,346.272,-1.662,83.142
38998290,0.612,1.619,1.147,447.037,11.935,188.195
38998300,-0.649,1.167,1.601,256.165,58.38,142.572
38998310,-1.157,1.331,1.476,136.342,71.995,113.19
38998320,-0.876,1.525,1.052,69.947,24.342,52.325
38998330,-0.484,0.951,1.339,-81.882,-13.86,-18.217
38998340,-0.243,0.674,1.348,-164.08,-27.825,-59.465
38998350,-0.107,0.397,1.175,-207.06,-25.917,-70.962
38998360,-0.025,0.125,1.065,-248.64,-21.017,-64.4
38998370,-0.005,-0.113,0.98,-260.96,-23.38,-46.865
38998380,0.032,-0.212,0.91,-263.095,-26.197,-24.832
38998390,0.079,-0.303,0.897,-263.112,-31.64,-7
38998400,0.043,-0.369,0.867,-257.407,-38.062,12.127
38998410,0.015,-0.413,0.842,-250.057,-42.787,30.537
38998420,0.039,-0.441,0.862,-248.92,-39.672,42.437
38998430,0.069,-0.454,0.928,-246.067,-33.285,47.162
38998440,0.101,-0.429,1.065,-239.05,-22.505,50.067
38998450,0.053,-0.779,1.242,-219.257,-0.98,66.85
38998460,0.547,-0.858,1.084,-114.117,39.392,85.26
38998470,-0.073,-1.061,0.997,-52.325,80.99,49.367
38998480,-1.193,-1.046,1.288,-24.482,140.647,31.15
38998490,-1.465,-1.219,1.542,39.427,126.857,64.172
38998500,-0.882,-1.406,0.616,137.725,78.47,151.812
38998510,0.248,-0.895,-0.313,240.747,92.505,195.125
38998510,0.589,-0.834,-0.787,221.567,108.71,200.62
38998530,0.424,-0.617,-0.979,165.69,68.232,133.28
38998530,0.349,-0.173,-0.597,80.132,7.14,62.755
38998550,0.576,0.162,-0.334,-73.115,-12.74,3.745
38998550,0.124,0.808,-0.406,-174.86,-8.715,-61.565
38998570,-0.641,1.388,-0.63,-149.432,-31.937,-135.047
38998570,-1.233,1.954,0.491,-104.825,-58.345,-154.875
38998580,-1.995,0.013,1.731,-251.877,-257.582,-175.087
38998590,1.382,-1.998,1.306,92.505,-280.105,-223.352
38998600,-0.733,0.43,0.424,493.517,-51.975,-155.925
38998610,1.998,1.901,-0.241,558.337,-31.955,-69.352
38998620,0.93,0.213,1.314,357.735,6.72,-72.59
38998630,0.454,-0.489,1.923,241.867,1.155,-6.422
38998640,0.976,0.969,1.503,353.657,6.825,165.567
38998650,-0.443,1.71,1.384,250.792,34.002,160.475
38998660,-1.114,0.898,1.588,78.907,49.315,126.595
38998670,-1.051,0.926,1.259,15.225,30.012,64.032
38998680,-0.858,0.647,1.149,-59.307,1.995,-24.657
38998690,-0.339,0.327,1.176,-137.375,-14.577,-77.332
38998700,0.01,0.175,1.084,-140.857,-5.6,-98.297
38998710,0.149,-0.001,1.041,-145.792,6.195,-93.94
38998720,0.315,-0.161,1.068,-168.91,11.095,-69.65
38998730,0.267,-0.209,1.044,-171.937,16.31,-38.36
38998740,0.186,-0.246,1.001,-170.31,23.012,-10.115
38998750,0.155,-0.326,1.021,-175.752,33.215,13.58
38998760,0.131,-0.41,1.061,-176.61,43.225,33.495
38998770,0.121,-0.417,1.103,-175.28,55.702,50.26
38998780,-0.01,-0.311,1.098,-177.975,63.122,66.045
38998790,-0.044,-0.382,1.251,-188.492,62.632,83.545
38998800,-0.168,-0.753,1.426,-196.7,50.627,98.735
38998810,-0.374,-1.024,1.345,-146.79,15.89,96.88
38998820,-0.538,-1.447,1.11,-56.56,2.59,90.037
38998830,-0.832,-1.561,1.089,33.232,17.692,83.142
38998840,-0.041,-1.374,0.162,143.255,22.855,97.527
38998850,0.829,-1.011,-0.096,183.312,38.342,88.445
38998860,0.746,-0.883,-0.238,123.585,26.46,14.507
38998870,0.625,-0.73,-0.545,89.075,-14.595,-110.512
38998880,0.496,-0.302,-0.39,60.987,-31.92,-223.265
38998890,-0.275,0.13,-0.201,-26.18,-40.495,-332.762
38998900,-0.879,0.643,-0.234,-117.95,-70.822,-433.002
38998910,-1.416,1.138,-0.226,-127.4,-71.032,-442.452
38998920,-1.801,1.943,-0.243,-95.515,-58.117,-384.895
38998920,-1.435,1.997,0.291,-75.145,-37.835,-298.69
38998940,-1.273,0.162,1.355,-183.89,-16.975,-201.022
38998940,0.808,-1.871,1.252,163.572,20.282,-240.257
38998960,-1.224,1.814,-0.435,548.257,49.14,-190.627
38998960,1.998,1.292,-0.424,534.8,11.637,-6.982
38998980,0.149,-0.586,1.731,205.467,32.882,26.827
38998980,0.334,-0.36,1.915,247.117,36.995,106.032
38999000,-0.146,1.756,1.227,414.032,57.452,201.39
38999000,-0.947,1.621,1.364,220.045,72.45,147.577
38999010,-1.233,1.433,1.427,36.54,52.43,87.08
38999020,-0.741,1.191,1.216,-24.517,-7.07,7.21
38999030,-0.275,0.678,1.278,-136.237,-34.842,-43.627
38999040,0.013,0.18,1.254,-190.155,-35.42,-65.362
38999050,0.171,0.048,1.124,-200.305,-21.665,-55.492
38999060,0.185,0.002,1.032,-223.58,-8.207,-28.787
38999070,0.081,-0.068,0.98,-247.817,-4.34,-5.267
38999080,0.074,-0.147,0.968,-255.132,-12.897,15.015
38999090,-0.01,-0.187,0.999,-259.28,-19.215,30.94
38999100,-0.093,-0.17,1.003,-265.055,-22.207,40.985
38999110,-0.076,-0.13,0.996,-274.33,-17.167,47.565
38999120,-0.154,-0.142,1.125,-297.78,-10.815,48.37
38999130,0.099,-0.237,1.418,-326.007,2.012,47.075
38999140,0.232,-1.03,1.652,-324.152,20.265,44.572
38999150,-0.198,0.204,1.868,-262.815,44.765,40.757
38999160,0.076,-0.502,1.663,-46.445,37.922,26.18
38999170,-0.9,0.69,1.993,14.91,56.665,9.642
38999180,-0.541,1.132,0.845,171.01,26.635,43.365
38999190,0.736,0.882,0.24,323.592,56.332,142.047
38999200,0.645,0.817,-0.242,278.127,48.72,148.785
38999210,0.636,0.55,-0.882,251.09,-12.145,68.565
38999220,0.387,0.359,-0.798,226.887,-44.135,7.455
38999230,0.041,-0.094,-0.241,116.865,-56.227,-51.87
38999240,-0.301,-0.563,-0.042,22.75,-80.517,-118.667
38999250,-0.723,-0.847,-0.158,49.175,-83.23,-134.995
38999260,-0.905,-0.973,-0.375,79.905,-81.007,-128.117
38999260,-0.75,-1.186,-0.648,56.542,-61.862,-116.235
38999280,-1.327,-1.171,0.285,24.902,-59.062,-98.595
38999280,0.746,-1.841,1.497,-62.002,-86.642,-159.705
38999300,-0.855,-0.96,1.699,313.932,76.387,-222.635
38999300,-0.012,1.997,-0.692,569.765,-29.365,-141.61
38999320,1.998,1.288,0.017,441.63,19.722,137.777
38999320,0.335,-1.297,1.998,119.892,115.535,86.205
38999330,-0.925,0.583,1.687,237.93,161.017,53.217
38999340,-1.554,1.997,0.182,274.96,96.845,65.275
38999350,-1.129,1.184,0.863,-25.48,0.332,9.52
38999360,-0.241,-0.016,1.262,-121.555,-61.722,-23.257
38999370,0.072,-0.144,0.981,-71.505,-72.17,-33.39
38999380,0.242,-0.335,1.056,-82.32,-56.595,-30.135
38999390,0.506,-0.211,1.018,-56.052,-35.665,-19.197
38999400,0.286,0.025,1.003,-29.697,-4.655,2.502
38999410,0,0.08,1.102,-29.89,18.742,14.07
38999420,-0.023,0.197,1.125,-37.905,28.857,13.125
38999430,-0.026,0.269,1.196,-59.5,28.14,12.775
38999440,0.066,0.298,1.229,-96.53,34.352,18.287
38999450,-0.039,0.211,1.241,-137.147,34.195,20.405
38999460,0.06,0.137,1.235,-182.98,28.122,36.802
38999470,0.053,0.2,1.193,-219.625,39.847,50.225
38999480,-0.147,0.13,1.085,-231.7,51.432,53.655
38999490,-0.039,0.047,1.188,-245.087,57.487,52.062
38999500,-0.001,0.019,1.245,-266.332,72.765,47.565
38999510,0.162,-0.295,1.379,-278.652,80.36,43.05
38999520,0.067,-0.626,1.701,-286.387,89.32,38.062
38999530,-0.158,-1.204,1.654,-258.055,64.767,22.365
38999540,-0.023,-1.137,1.775,-197.575,61.442,26.687
38999550,0.164,-1.007,1.323,-117.145,66.325,43.452
38999560,0.239,-0.091,1.254,-45.255,40.495,41.755
38999570,0.431,0.766,0.341,20.265,8.015,37.66
38999580,0.118,1.707,-0.456,85.977,-7.857,50.82
38999590,-0.009,1.997,-0.948,87.08,-40.757,70.77
38999600,0.4,1.997,-1.169,42.595,-67.812,96.092
38999610,0.94,1.977,-0.959,1.155,-69.387,105.682
38999620,1.028,1.571,-0.756,-3.027,-67.742,62.93
38999630,0.596,1.126,-0.603,23.047,-72.625,-0.875
38999640,0.071,0.172,-0.714,47.827,-93.397,-49.927
38999650,-0.974,-1.42,1.251,6.79,-103.932,-123.725
38999660,-0.223,-1.998,0.413,33.127,-175.577,-353.08
38999670,-1.62,0.893,-1.144,531.107,-50.68,-33.897
38999670,1.725,1.997,-1.001,556.535,-160.545,-113.032
38999690,0.891,-0.143,1.221,338.485,-81.567,33.617
38999690,0.157,-0.931,1.998,96.215,-17.885,-1.312
38999710,0.884,1.755,1.257,351.54,78.295,112.945
38999710,-0.793,1.989,0.737,184.905,86.992,66.22
38999730,-1.288,1.104,1.247,-68.145,37.887,24.395
38999730,-0.514,0.588,1.072,-98.927,-30.712,-9.765
38999750,-0.116,-0.348,1.001,-137.095,-55.335,-51.345
38999750,0.255,-0.642,0.921,-117.197,-46.41,-55.842
38999760,0.24,-0.372,0.849,-57.575,-25.847,-44.957
38999770,0.274,-0.234,0.923,-38.972,-11.077,-20.965
38999780,0.215,-0.175,0.942,-9.485,0.105,0.962
38999790,0.061,-0.053,1.011,6.545,13.807,15.575
38999800,-0.052,0.084,1.084,9.345,19.32,20.702
38999810,-0.066,0.256,1.139,-3.447,23.712,24.71
38999820,-0.066,0.329,1.178,-32.847,26.652,22.487
38999830,-0.073,0.267,1.2,-67.812,29.47,18.445
38999840,-0.093,0.228,1.199,-103.53,35.07,16.292
38999850,-0.133,0.215,1.164,-133.227,36.68,16.887
38999860,-0.26,0.195,1.183,-159.232,29.47,20.265
38999870,-0.467,0.049,1.172,-189.21,11.462,23.415
38999880,-0.404,-0.141,1.263,-220.045,-0.21,26.495
38999890,-0.034,-0.273,1.19,-236.005,34.44,31.587
38999900,-0.215,-0.589,1.265,-209.352,55.44,28.682
38999910,-0.844,-1.525,1.384,-165.795,19.285,-5.46
38999920,-1.151,-1.998,1.748,-94.902,27.895,-27.562
38999930,-0.817,-1.65,0.596,47.792,60.515,7.507
38999940,-0.222,-0.554,0.061,155.925,60.847,68.477
38999950,0.084,-0.201,-0.035,85.575,25.777,61.145
38999960,0.508,-0.476,-0.237,4.725,28.892,42.21
38999970,0.321,0.11,-0.385,-5.985,50.102,34.352
38999980,0.142,0.936,-0.46,-23.625,39.41,8.942
38999990,0.341,1.355,-0.596,-106.26,12.67,-22.61
39000000,0.272,1.538,-0.529,-170.73,10.517,-42.752
39000010,0.183,1.9,-0.669,-151.515,7.91,-52.902
39000010,-0.497,1.944,1.205,-97.265,-10.885,-38.57
39000030,-0.594,-1.615,0.642,-68.81,-288.697,-138.705
39000030,-0.472,-1.278,1.509,372.365,-105.017,-255.29
39000050,0.14,1.862,-0.618,554.4,-76.527,-75.425
39000050,1.906,1.163,0.526,473.147,-91.875,39.025
39000070,0.311,-0.303,1.969,203.84,-44.502,22.277
39000070,0.871,0.961,1.846,284.2,44.992,113.155
39000080,-0.932,1.975,1.055,281.715,87.027,105.595
39000090,-1.115,1.587,0.962,50.942,57.33,76.002
39000100,-0.872,0.695,1.148,-68.18,-11.97,18.165
39000110,-0.269,0.225,1.016,-103.932,-48.527,-27.037
39000120,0.012,-0.26,0.967,-119.98,-55.79,-56.735
39000130,0.33,-0.413,1.03,-92.645,-45.937,-50.19
39000140,0.423,-0.141,0.982,-56.892,-20.177,-26.11
39000150,0.26,-0.1,0.993,-44.782,6.072,-1.102
39000160,0.019,-0.075,1.026,-41.422,20.842,12.775
39000170,-0.049,-0.071,1.034,-36.715,23.555,19.827
39000180,-0.097,-0.002,1.085,-43.347,25.182,22.662
39000190,-0.086,0.102,1.103,-60.392,26.88,24.885
39000200,-0.073,0.134,1.104,-82.25,25.55,28.507
39000210,-0.052,0.076,1.097,-104.982,18.497,36.085
39000220,-0.14,-0.085,1.117,-123.2,16.642,46.707
39000230,-0.149,-0.36,1.133,-134.26,14.245,60.357
39000240,0.026,-0.589,1.134,-136.29,14.105,80.22
39000250,-0.175,-0.621,1.375,-124.355,13.947,83.51
39000260,-0.801,-1.082,1.585,-103.74,-46.392,50.82
39000270,-0.853,-1.928,1.504,-75.075,-158.34,6.65
39000280,0.828,-1.998,0.534,3.85,-130.62,-26.512
39000290,-0.554,-1.44,0.155,78.872,-41.265,-33.757
39000300,-1.178,-0.77,-0.085,69.825,-49.84,-75.442
39000310,-0.34,-0.651,-0.14,-33.985,-14.105,-33.967
39000320,-0.103,0.046,-0.173,-102.707,46.287,16.205
39000330,-0.535,1.11,-0.322,-94.045,42.577,21.157
39000340,0.156,1.883,-1.002,-71.155,28.507,37.607
39000350,0.662,1.997,-0.707,-58.205,64.417,60.97
39000360,0.744,1.898,1.759,-154.122,55.037,19.74
39000370,1.383,-1.612,1.275,206.727,12.862,-106.732
39000380,-1.295,-1.343,1.907,533.942,-66.867,-266.752
39000390,0.427,1.979,0.394,489.58,-61.985,-52.482
39000400,1.592,0.786,1.415,348.95,5.302,92.54
39000410,-0.468,0.728,1.871,170.555,101.587,10.78
39000420,-1.258,1.964,0.701,193.9,100.73,53.112
39000420,-1.125,1.361,0.707,46.357,19.057,8.715
39000440,-0.298,0.441,1.207,-103.495,-31.22,-12.162
39000440,-0.135,-0.012,1.031,-86.975,-53.777,-31.762
39000460,0.048,-0.254,1.032,-94.412,-47.6,-28.91
39000460,0.194,-0.105,1.139,-85.452,-34.79,-25.112
39000480,0.341,0.168,1.061,-64.12,-12.88,-12.705
39000480,0.161,0.085,1.091,-83.037,10.832,-2.38
39000500,-0.071,0.046,1.091,-98.402,21.227,6.072
39000500,-0.168,0.004,1.109,-102.41,15.75,11.812
39000510,-0.121,0.093,1.116,-127.137,11.917,22.295
39000520,-0.03,0.106,1.09,-156.327,13.072,33.302
39000530,-0.044,0.054,1.053,-179.847,11.427,48.195
39000540,0.003,0.01,1.079,-196.612,7.542,63.245
39000550,0.008,0.06,1.138,-210.245,4.2,76.93
39000560,-0.158,0.117,1.122,-220.972,-0.455,87.377
39000570,-0.278,-0.021,1.089,-234.85,-2.537,90.055
39000580,-0.053,-0.371,1.101,-249.147,12.635,89.635
39000590,-0.019,-0.785,1.324,-250.372,40.39,91.42
39000600,-0.212,-1.03,1.357,-218.82,40.967,84.175
39000610,-0.309,-1.111,1.251,-135.31,24.237,84.927
39000620,-0.565,-0.85,1.293,-50.172,34.86,94.57
39000630,-0.639,-0.266,0.504,45.815,56.857,128.502
39000640,0.298,0.56,0.26,111.177,74.112,165.882
39000650,0.716,0.804,-0.347,97.895,76.79,158.165
39000660,0.571,0.908,-1.07,122.43,61.145,94.167
39000670,-0.021,1.426,-1.32,146.912,11.882,25.375
39000680,0.098,1.599,-1.313,83.755,-47.705,-34.545
39000690,0.144,1.545,-0.632,-31.447,-43.312,-61.775
39000700,-1.437,-0.971,1.368,-183.802,-127.242,-157.815
39000710,-0.034,-1.929,1.709,16.537,-178.115,-435.907
39000720,-1.377,1.173,-0.869,517.405,-74.585,-178.517
39000730,1.979,1.852,-0.456,555.17,-169.295,-118.02
39000740,0.789,-0.578,1.64,282.065,-100.45,-43.732
39000750,1.438,-0.368,1.998,192.027,-18.55,20.562
39000760,0.005,1.512,1.563,390.775,117.39,136.08
39000760,-1.71,1.997,0.666,225.015,111.405,75.582
39000780,-1.393,1.296,1,-22.995,27.737,30.922
39000780,-0.257,0.453,1.182,-94.412,-52.727,-23.712
39000800,0.21,-0.074,1.051,-123.27,-61.407,-48.23
39000800,0.139,-0.333,1.06,-129.482,-42.63,-53.462
39000820,0.52,-0.35,1.032,-100.117,-18.637,-36.715
39000820,0.285,-0.072,1.002,-73.08,13.702,-13.527
39000830,0.002,-0.062,1.055,-63.647,31.78,0.437
39000840,-0.152,-0.02,1.05,-63.98,36.61,5.967
39000850,-0.148,0.071,1.059,-68.232,34.65,8.662
39000860,-0.175,0.107,1.069,-89.04,33.635,7.717
39000870,-0.156,0.159,1.076,-112.175,30.187,7.857
39000880,-0.107,0.091,1.091,-133.157,22.96,11.41
39000890,-0.166,0.047,1.094,-155.47,12.057,17.412
39000900,-0.258,0.099,1.08,-168.892,7.91,28.542
39000910,-0.36,0.081,1.054,-173.092,-1.89,31.78
39000920,-0.386,-0.166,1.08,-186.252,-5.582,25.585
39000930,-0.204,-0.352,1.086,-196.612,10.132,14.892
39000940,-0.305,-0.508,1.084,-173.092,26.022,6.877
39000950,-0.503,-0.72,1.04,-126.297,12.092,-13.055
39000960,-0.463,-1.036,1.021,-73.01,5.792,-25.707
39000970,-0.804,-1.629,1.011,9.817,28.577,-35.542
39000980,-0.889,-1.064,0.363,98.735,27.405,-38.832
39000990,-0.488,-0.398,-0.167,161.525,16.205,-1.435
39001000,-0.332,-0.192,-0.372,130.13,-6.807,8.802
39001010,-0.198,-0.273,-0.448,78.242,-26.337,8.715
39001020,-0.168,-0.239,-0.482,40.722,-32.952,19.477
39001030,-0.053,-0.011,-0.514,0.07,-45.395,24.972
39001040,0.181,1.08,0.712,-63.297,-63.297,29.26
39001050,1.384,1.783,1.905,-208.215,-148.82,49.735
39001060,1.653,-0.755,1.416,77.91,-32.62,26.705
39001070,-1.103,-1.96,1.248,416.255,-37.94,-177.222
39001080,-0.654,-0.583,1.456,341.232,-71.925,-127.19
39001090,1.627,1.206,0.643,347.445,-35.787,89.022
39001100,0.78,0.416,1.346,321.335,-24.482,66.552
39001110,0.084,0.441,1.926,198.485,61.46,89.477
39001120,-0.851,1.439,1.202,198.467,76.492,78.575
39001130,-1.069,1.444,0.871,95.48,32.462,36.417
39001140,-0.496,0.749,1.131,-38.132,-21.122,-6.685
39001150,-0.077,0.325,1.084,-78.68,-47.057,-30.047
39001160,0.127,-0.113,1.052,-97.527,-43.802,-39.795
39001170,0.222,-0.159,1.088,-91.105,-27.282,-36.067
39001170,0.288,0.036,1.107,-74.497,-5.705,-20.142
39001190,0.204,0.192,1.128,-87.465,13.195,-3.29
39001190,-0.04,0.145,1.123,-106.522,22.925,10.36
39001200,-0.157,0,1.088,-127.89,19.547,20.965
39001210,-0.209,-0.008,1.072,-147.42,12.512,25.76
39001220,-0.13,0.03,1.056,-167.3,8.452,32.62
39001230,-0.076,0.01,1.038,-184.082,9.625,39.34
39001240,-0.101,-0.039,1.038,-193.795,7.49,42.56
39001250,-0.055,-0.14,1.085,-201.18,3.71,47.547
39001260,-0.042,-0.189,1.146,-206.342,0.42,56.507
39001270,0.025,-0.348,1.247,-204.995,4.637,59.08
39001280,-0.032,-0.608,1.438,-203.42,12.442,58.362
39001290,-0.011,-0.946,1.506,-170.625,4.497,46.2
39001300,-0.124,-1.3,1.577,-77.647,0.07,27.632
39001310,0.001,-1.915,1.042,62.387,4.97,-13.492
39001320,-0.111,-1.064,-0.07,204.907,33.232,-39.497
39001330,-0.477,-0.306,-0.503,236.04,45.885,-54.267
39001340,-0.401,-0.253,-0.506,127.96,32.55,-76.545
39001350,-0.251,-0.531,-0.452,26.442,11.235,-99.995
39001360,-0.253,-0.428,-0.439,-7.35,-1.767,-131.39
39001370,-0.46,-0.159,-0.401,-19.582,-10.412,-148.312
39001380,-0.491,-0.014,-0.37,-64.82,-19.022,-147.77
39001390,-0.354,0.122,-0.367,-113.33,-19.022,-130.987
39001400,-0.411,1.627,1.104,-144.445,6.195,-95.007
39001410,-0.953,1.367,0.979,-212.712,-127.225,-62.93
39001420,1.849,-1.774,1.497,340.305,4.935,2.047
39001430,-1.109,-1.6,1.165,407.54,13.965,-124.197
39001440,-0.365,1.099,0.774,376.04,-37.292,-97.86
39001450,1.62,0.881,0.786,366.8,-14.525,87.185
39001460,0.112,0.225,1.576,252.682,-9.992,45.99
39001470,0.144,0.556,1.675,202.177,34.895,104.912
39001480,-0.537,1.293,1.273,180.95,49.455,96.915
39001490,-0.918,1.217,1.104,66.867,35.752,62.72
39001500,-0.862,0.654,1.125,-28.962,-4.007,16.467
39001510,-0.457,0.253,1.051,-67.812,-43.645,-27.895
39001510,0.059,0.018,1.096,-89.32,-61.075,-55.86
39001530,0.473,-0.022,1.136,-86.047,-45.307,-59.727
39001530,0.43,0.148,1.154,-87.43,-8.312,-43.837
39001550,0.225,0.18,1.142,-111.3,20.44,-20.58
39001550,0.003,0.11,1.1,-140.63,34.912,-5.337
39001570,-0.099,0.035,1.112,-167.387,31.447,0.245
39001570,-0.031,0.069,1.132,-192.727,28.437,6.352
39001580,-0.01,-0.005,1.106,-209.37,21.665,14.297
39001590,-0.037,-0.098,1.134,-227.937,19.39,26.95
39001600,-0.15,-0.086,1.182,-243.11,19.25,40.687
39001610,-0.109,-0.136,1.193,-252.157,17.027,48.527
39001620,-0.016,-0.323,1.319,-259.857,29.067,50.575
39001630,-0.091,-0.559,1.444,-244.842,35.752,41.475
39001640,-0.004,-0.721,1.293,-187.687,27.895,27.352
39001650,0.026,-0.965,1.014,-112.28,41.58,27.492
39001660,0.019,-0.393,0.887,-41.142,60.987,31.115
39001670,0.119,-0.432,0.881,17.815,58.59,29.96
39001680,0.231,-0.253,0.644,39.515,50.365,34.422
39001690,0.461,0.128,0.17,91.735,56.892,37.222
39001700,0.373,0.548,-0.143,116.55,66.22,37.502
39001710,0.204,0.7,-0.495,105.472,53.952,14.822
39001720,0.077,0.787,-0.754,104.562,34.772,-6.3
39001730,-0.073,0.985,-0.932,99.557,15.365,-13.405
39001740,-0.061,1.102,-1.065,80.78,-5.757,-20.02
39001750,-0.061,0.537,-0.701,51.38,2.59,-29.907
39001760,-1.604,-1.709,1.819,-112.927,-31.692,-108.255
39001770,-0.032,-1.998,1.605,-72.607,-275.642,-296.695
39001780,-0.25,0.86,0.117,477.942,-28.385,-32.76
39001790,0.871,1.997,-0.954,570.955,-191.642,-64.557
39001800,1.355,0.6,0.794,387.537,-139.387,-82.81
39001810,0.234,-1.58,1.998,34.335,-72.222,-26.425
39001820,1.626,1.159,1.582,287.717,0.857,76.195
39001830,0.169,1.915,0.931,302.82,85.977,99.277
39001840,-1.304,1.371,1.166,-5.757,93.8,66.797
39001850,-0.925,0.429,1.224,-69.107,17.937,43.277
39001860,-0.377,0.15,0.968,-77.752,-29.627,1.172
39001870,-0.16,-0.15,1.05,-110.792,-40.985,-28.77
39001870,0.214,-0.192,1.098,-90.125,-40.74,-34.23
39001890,0.439,0.074,1.041,-74.725,-20.457,-20.667
39001890,0.28,0.061,1.114,-85.365,9.625,-1.592
39001910,-0.057,0.005,1.113,-102.147,22.26,14.735
39001910,-0.087,-0.027,1.076,-118.3,17.902,31.955
39001920,-0.059,0.017,1.055,-134.855,17.867,43.295
39001930,-0.07,0.056,1.061,-154,22.575,44.8
39001940,-0.006,-0.039,1.062,-169.54,25.375,45.955
39001950,-0.12,-0.249,1.059,-178.482,30.31,56.49
39001960,0.14,-0.279,1.128,-186.305,30.817,74.042
39001970,-0.025,-0.21,1.076,-187.32,32.725,92.522
39001980,0.045,-0.482,1.161,-193.497,36.855,101.675
39001990,-0.043,-0.808,1.073,-188.37,42.997,107.712
39002000,-0.319,-1.072,1.213,-141.872,23.887,101.027
39002010,-0.201,-1.176,1.107,-88.252,17.71,94.692
39002020,-0.306,-1.297,0.528,-20.597,27.825,83.562
39002030,-0.446,-1.407,0.369,28.49,52.535,73.465
39002040,-0.375,-1.251,-0.05,57.522,57.47,57.855
39002050,0.341,-1.11,-0.107,47.915,57.347,43.4
39002060,0.323,-0.944,-0.067,-12.215,44.222,-10.202
39002070,0.17,-0.395,-0.118,-67.62,-5.6,-113.487
39002080,-0.055,0.681,0.2,-111.965,-34.807,-186.882
39002090,-1.821,1.995,0.983,-159.757,-99.015,-211.627
39002100,-1.949,1.997,0.463,-92.12,-141.4,-163.327
39002110,1.055,1.645,0.937,47.862,-16.59,47.372
39002120,0.968,-1.679,1.389,67.865,11.217,92.837
39002130,-1.124,-1.566,1.732,260.82,-88.882,-268.747
39002140,-0.083,1.586,-0.058,523.477,-99.802,-109.532
39002150,1.947,1.277,0.421,442.277,-29.085,94.535
39002160,0.054,0.075,1.682,197.12,-33.687,-18.427
39002170,0.462,-0.268,1.835,215.95,-23.8,63.28
39002180,0.509,1.475,1.305,245.927,8.907,158.97
39002190,-0.636,1.068,1.447,118.51,22.645,129.447
39002200,-0.739,0.783,1.5,-4.515,26.407,134.225
39002210,-0.68,0.739,1.212,-43.977,5.582,92.015
39002220,-0.535,0.452,1.164,-122.15,-4.48,38.972
39002230,-0.282,0.141,1.183,-170.502,-8.89,1.365
39002240,0.091,0.025,1.082,-181.142,-5.355,-8.382
39002250,0.287,-0.114,1.051,-199.36,6.475,-1.05
39002260,0.316,-0.261,1.059,-217.14,18.48,14.402
39002260,0.322,-0.442,1.025,-223.352,30.922,37.817
39002280,0.404,-0.526,1.084,-224.77,47.337,66.307
39002280,0.44,-0.509,1.034,-222.425,64.907,93.73
39002300,0.295,-0.547,1.028,-213.832,62.685,112.735
39002300,0.15,-0.557,1.24,-224.49,56,132.195
39002320,-0.06,-0.68,1.413,-218.505,27.685,147.84
39002320,-0.109,-1.012,1.318,-176.47,-25.602,158.375
39002330,-0.208,-1.055,1.019,-115.762,-67.69,157.99
39002340,0.394,-0.76,0.64,-44.467,-72.905,159.005
39002350,-0.314,-0.97,0.571,7.385,-26.232,156.187
39002360,0.019,-1.284,0.476,3.692,-6.562,96.705
39002370,0.462,-1.327,0.579,26.547,27.282,58.485
39002380,0.099,-0.752,-0.042,78.277,26.477,-13.965
39002390,-0.176,0.189,-0.513,114.66,13.965,-80.255
39002400,-0.341,0.965,-0.709,93.852,-8.155,-104.755
39002410,-0.319,1.361,-0.745,40.897,-42.647,-115.99
39002420,-0.061,1.474,-0.675,-16.747,-42.735,-109.217
39002430,-0.009,1.692,-0.726,-30.8,-15.347,-91.997
39002440,0.053,1.784,-0.841,8.085,6.667,-85.19
39002450,-1.644,-0.178,1.998,-74.76,10.675,-116.847
39002460,0.066,-1.919,1.556,-77.717,-263.725,-256.427
39002470,0.705,1.595,-0.361,500.885,17.885,86.275
39002480,1.97,1.997,-0.919,567.927,-108.605,52.412
39002490,0.184,0.558,1.171,327.267,-62.912,-106.505
39002500,-0.413,-1.295,1.998,96.53,-7.7,-19.075
39002510,0.694,1.143,1.557,407.452,-6.3,127.505
39002520,0.052,1.996,1.246,348.757,31.78,119.227
39002530,-0.918,1.627,1.474,23.712,57.925,48.265
39002540,-0.69,0.946,1.546,-81.707,23.537,6.055
39002550,-0.399,0.763,1.233,-126.262,0.35,-33.775
39002560,-0.282,0.378,1.205,-222.775,1.33,-74.725
39002570,-0.138,0.198,1.194,-265.615,5.442,-95.357
39002580,0.079,0.265,1.03,-277.392,11.427,-89.547
39002580,0.146,0.061,0.872,-286.317,15.855,-80.517
39002600,0.003,-0.294,0.861,-289.975,20.195,-87.412
39002600,-0.097,-0.417,0.945,-276.885,26.915,-92.68
39002620,-0.091,-0.351,0.922,-252.84,35.192,-89.635
39002620,-0.02,-0.31,1.032,-241.255,45.01,-92.12
39002640,-0.025,-0.405,1.166,-242.672,68.617,-91.332
39002640,0.073,-0.738,1.143,-235.305,108.587,-89.46
39002660,-0.085,-0.861,1.521,-205.502,138.687,-91.595
39002660,-1.679,0.978,1.277,-118.072,164.937,-81.532
39002670,-0.299,-0.519,0.987,57.592,94.08,-32.987
39002680,0.162,-0.439,0.913,59.78,40.67,-5.512
39002690,-0.925,0.598,0.953,90.65,-42.455,-62.142
39002700,-0.208,0.407,-0.423,257.302,-50.102,-40.95
39002710,-1.094,0.993,-1.178,310.187,-11.305,51.835
39002720,-1.014,0.981,-0.976,213.097,-14.805,92.435
39002730,-0.686,0.073,-0.142,48.265,-0.822,163.992
39002740,-0.123,-0.813,0.213,-14.595,8.067,211.487
39002750,-0.066,-0.96,-0.134,80.395,-16.03,187.092
39002760,-0.333,-0.429,-0.517,148.172,-52.097,135.642
39002770,-0.235,-1.219,1.389,45.92,-131.74,78.732
39002780,1.457,-1.998,1.726,-238.945,-341.565,-158.445
39002790,-1.691,0.291,1.089,133.717,-152.985,-331.205
39002800,1.936,1.997,-0.085,500.832,-75.232,-84.402
39002810,1.701,0.573,0.517,272.352,-0.63,-12.495
39002820,-0.192,-1.759,1.946,81.287,-10.64,-116.34
39002830,1.071,0.116,1.142,259.087,18.515,106.68
39002840,0.28,0.904,0.983,292.057,29.487,138.565
39002850,-0.813,0.542,1.518,137.55,57.627,110.372
39002860,-0.922,0.842,1.298,122.377,44.625,71.592
39002870,-0.838,0.907,1.112,60.095,10.797,1.4
39002880,-0.196,0.438,1.288,-46.987,-13.142,-40.267
39002890,0.071,0.362,1.212,-80.57,-14.07,-60.13
39002900,0.127,0.275,1.148,-107.047,3.622,-66.605
39002910,0.108,0.154,1.151,-141.75,22.382,-60.252
39002920,0.017,0.067,1.118,-162.732,25.182,-42.857
39002930,-0.053,0.012,1.06,-186.025,20.37,-21.14
39002940,-0.108,-0.079,1.017,-205.362,13.562,-3.5
39002950,-0.101,-0.196,1.017,-219.887,11.2,12.827
39002960,-0.086,-0.239,1.005,-229.547,13.002,29.312
39002970,-0.006,-0.257,1.001,-230.51,12.442,42.28
39002980,-0.09,-0.322,0.962,-229.32,19.197,54.53
39002990,-0.077,-0.336,1.029,-228.655,19.985,65.905
39003000,0.172,-0.55,1.088,-229.372,35.962,81.83
39003010,0.317,-0.924,1.207,-211.645,59.482,97.02
39003010,-0.107,-0.691,1.184,-142.292,64.645,105.367
39003030,0.015,-0.95,1.053,-19.495,48.265,86.152
39003030,-0.394,-0.702,1.068,3.01,53.725,92.942
39003050,0.076,-0.753,1.029,28.822,44.485,111.09
39003050,0.192,-0.506,0.385,96.792,41.632,123.462
39003070,0.921,-0.036,0.184,117.46,58.555,124.285
39003070,0.927,0.231,-0.216,82.897,50.872,95.812
39003080,0.804,0.555,-0.448,83.58,11.532,18.707
39003090,0.455,1.016,-0.728,68.477,-36.312,-57.417
39003100,0.155,1.749,-1.055,32.217,-74.165,-116.13
39003110,-0.221,1.997,-1.471,11.777,-81.707,-116.375
39003120,-1.28,0.002,1.374,-75.162,-42.122,-105.21
39003130,-0.064,-1.998,1.542,-155.802,-217.542,-339.097
39003140,-1.03,1.202,-0.08,410.882,40.635,47.197
39003150,0.904,1.997,-1.165,569.94,-191.38,32.655
39003160,1.232,0.202,1.006,349.702,-158.007,-87.36
39003170,-0.883,-1.071,1.998,37.257,-90.212,-74.812
39003180,1.483,0.599,1.631,336.07,-58.747,93.397
39003190,0.634,1.922,1.084,348.005,15.032,146.37
39003200,-0.51,1.09,1.564,38.517,52.185,96.757
39003210,-0.726,0.753,1.37,-42.315,25.025,81.935
39003220,-0.414,0.567,1.059,-82.18,-2.03,43.802
39003230,-0.423,0.057,1.147,-164.01,-5.862,-11.777
39003240,-0.173,-0.111,1.12,-171.15,-9.362,-34.125
39003250,0.154,-0.075,1.057,-163.922,-5.582,-26.845
39003260,0.25,-0.04,1.047,-168.927,7.577,-13.125
39003270,0.212,-0.085,1.039,-177.642,16.765,-0.735
39003280,0.142,-0.181,1.035,-181.002,24.675,15.032
39003290,0.056,-0.256,1.037,-179.567,36.68,29.4
39003300,-0.025,-0.329,1.024,-179.655,41.895,40.425
39003310,0.105,-0.329,1.011,-190.505,53.235,55.177
39003320,0.058,-0.295,1.045,-198.012,55.982,66.745
39003330,0.073,-0.238,1.059,-208.425,60.252,68.46
39003330,-0.064,-0.344,1.049,-201.705,57.382,68.897
39003350,-0.269,-0.705,1.186,-185.08,41.79,64.907
39003350,-0.261,-0.915,1.146,-156.187,25.865,60.077
39003370,-0.408,-0.566,1.047,-75.6,21.297,76.247
39003370,-0.248,-0.662,0.723,5.46,14.122,67.357
39003390,-0.127,-0.504,0.783,-4.095,37.38,66.202
39003390,-0.321,-0.564,0.453,34.23,36.33,44.887
39003410,-0.295,0.028,-0.023,99.995,32.515,38.167
39003410,0.056,0.822,-0.706,125.947,13.65,47.705
39003420,0.318,1.542,-1.09,114.257,-0.752,50.12
39003430,0.501,1.634,-1.008,87.517,1.015,26.32
39003440,0.035,1.098,-0.282,31.622,10.272,-37.8
39003450,-1.693,-1.615,1.723,-81.935,-23.275,-151.637
39003460,-1.124,-1.991,1.594,-21.157,-261.082,-307.44
39003470,-0.765,1.177,0.58,432.67,-159.705,-114.467
39003480,1.931,1.913,-0.209,563.377,-163.38,-13.965
39003490,0.962,0.269,1.075,368.34,-103.372,-83.79
39003500,0.219,-1.304,1.997,233.31,-86.625,-94.36
39003510,1.822,1.097,1.619,391.125,-16.835,101.552
39003520,0.078,1.569,1.422,340.637,82.967,88.427
39003530,-1.301,1.497,1.253,120.767,103.775,54.792
39003540,-0.972,1.274,1.051,25.637,39.445,41.037
39003550,-0.279,0.802,1.247,-81.322,-15.102,-1.61
39003560,-0.045,0.428,1.306,-155.925,-25.602,-34.352
39003570,-0.068,0.116,1.141,-173.635,-15.872,-46.392
39003580,-0.058,-0.105,1.121,-194.477,1.487,-52.307
39003590,-0.063,-0.059,1.009,-198.957,12.337,-42.56
39003600,-0.049,-0.103,0.937,-195.44,11.025,-28.875
39003610,-0.09,-0.175,0.954,-200.795,11.252,-21.157
39003620,-0.066,-0.249,1.009,-200.515,15.137,-15.19
39003630,-0.019,-0.224,1.009,-195.877,23.31,-8.505
39003640,-0.035,-0.215,0.99,-191.905,34.475,-6.37
39003650,-0.037,-0.324,0.981,-196.385,54.512,-14.595
39003660,-0.029,-0.411,0.994,-198.17,79.047,-17.15
39003670,-0.07,-0.505,0.889,-174.632,87.692,-11.41
39003680,-0.296,-0.461,0.848,-130.532,79.765,-3.92
39003690,-0.375,-0.544,0.801,-86.572,66.167,0.227
39003700,-0.471,-0.747,0.518,-31.342,56.717,5.127
39003710,-1.392,-0.543,0.57,49.332,83.142,0.35
39003720,-0.691,-0.473,0.353,54.495,67.935,33.652
39003730,0.153,-0.61,-0.136,71.715,29.295,80.08
39003740,0.422,-0.195,-0.206,81.007,4.725,49.157
39003750,0.341,0.459,0.348,37.52,-13.685,23.03
39003760,0.588,0.635,0.962,-19.845,-66.815,24.237
39003760,-0.317,0.422,1.242,-2.887,-119.297,-8.102
39003780,-1.335,-1.012,0.887,97.93,-171.237,-72.047
39003780,-0.344,-1.98,1.357,175.052,-161.315,-73.097
39003800,0.262,-0.589,1.087,220.325,-116.375,-77.507
39003800,0.72,0.153,0.77,312.707,-97.265,-63.577
39003820,0.698,-0.045,1.115,281.732,-75.04,-27.912
39003820,0.689,0.044,1.295,244.755,-50.242,26.722
39003830,0.504,0.396,1.321,244.615,-18.252,79.537
39003840,-0.017,0.628,1.37,193.34,18.392,101.78
39003850,-0.446,0.68,1.326,127.732,37.905,100.292
39003860,-0.627,0.807,1.157,64.802,28.262,76.562
39003870,-0.482,0.567,1.123,-3.29,6.37,42.945
39003880,-0.228,0.317,1.136,-55.107,-10.657,11.462
39003890,-0.058,0.158,1.103,-84.332,-14.63,-0.542
39003900,-0.047,0.069,1.052,-103.022,-13.51,1.96
39003910,-0.061,-0.036,1.019,-114.275,-14.665,12.232
39003920,-0.062,-0.138,0.98,-118.685,-19.075,24.745
39003930,0,-0.169,0.928,-112.945,-21.962,33.687
39003940,0.011,-0.191,0.89,-100.415,-19.88,40.32
39003950,0.019,-0.24,0.872,-86.082,-17.412,46.917
39003960,-0.004,-0.266,0.872,-71.085,-17.272,52.587
39003970,-0.003,-0.274,0.85,-54.057,-18.987,57.26
39003980,0,-0.252,0.85,-35.735,-19.722,62.387
39003990,-0.039,-0.211,0.859,-15.26,-19.985,63.017
39004000,-0.064,-0.173,0.858,10.132,-20.247,56.892
39004010,-0.121,-0.137,0.894,32.83,-19.285,45.412
39004020,-0.157,-0.176,0.87,51.94,-17.727,30.17
39004030,-0.111,-0.177,0.902,73.815,-19.232,13.405
39004040,-0.087,-0.158,0.906,94.605,-21.56,-1.452
39004050,-0.037,-0.114,0.933,112.42,-27.177,-11.445
39004060,0.112,0.007,1.054,122.097,-25.97,-10.045
39004070,0.107,0.207,1.18,118.72,-18.812,-6.772
39004080,0.06,0.43,1.225,92.19,-6.825,-3.57
39004080,-0.021,0.446,1.176,46.882,0.805,-5.232
39004100,0.002,0.365,1.204,-3.972,5.652,-9.012
39004100,-0.025,0.361,1.244,-47.845,10.377,-12.88
39004120,-0.078,0.348,1.225,-90.562,17.622,-17.552
39004120,-0.121,0.288,1.175,-135.887,21.35,-21.07
39004140,-0.189,0.201,1.145,-174.405,20.352,-16.8
39004140,-0.211,0.141,1.122,-201.565,10.465,-11.62
39004160,-0.276,0.094,1.083,-221.655,-3.412,-9.047
39004160,-0.265,0.003,1.064,-236.407,-22.767,-7.472
39004170,-0.276,-0.12,1.04,-247.852,-40.88,-4.935
39004180,-0.126,-0.324,1.017,-250.372,-50.47,-1.085
39004190,-0.144,-0.435,1.146,-238.927,-53.725,5.775
39004200,-0.222,-0.567,0.926,-201.565,-79.152,0.122
39004210,-0.155,-0.72,1.009,-140.28,-79.45,2.047
39004220,-0.334,-0.265,1.266,-40.442,-78.61,19.145
39004230,-1.025,-0.23,0.827,52.552,-90.44,6.632
39004240,-0.75,0.213,0.587,92.05,-15.54,81.935
39004250,-0.97,0.208,0.771,105.822,42.927,163.835
39004260,-0.77,-0.027,0.554,115.185,-5.302,174.44
39004270,0.019,-0.225,0.467,138.775,-18.795,184.555
39004280,0.179,-0.152,0.556,143.01,20.825,204.942
39004290,-0.111,-0.024,0.606,136.5,37.555,189
39004300,-0.184,-0.025,0.648,118.562,32.392,167.282
39004310,-0.045,-0.055,0.683,97.912,23.642,153.93
39004320,0.076,-0.063,0.73,81.69,26.827,134.732
39004330,0.132,-0.113,0.812,67.602,38.027,106.225
39004340,0.134,-0.114,0.858,60.357,49.84,69.93
39004350,0.122,-0.101,0.886,58.52,54.67,28.542
39004360,0.137,-0.108,0.894,56.752,53.97,-13.09
39004370,0.123,-0.115,0.913,56,50.487,-55.02
39004380,0.087,-0.147,0.956,54.495,49.77,-95.042
39004390,-0.147,-0.214,1.162,48.317,42.91,-131.74
39004400,-0.094,-0.423,1.606,24.815,-24.027,-167.615
39004410,1.242,-1.73,0.929,32.637,-131.967,-206.307
39004420,1.135,-1.882,1.101,90.86,-60.76,-277.76
39004430,-0.73,-1.063,1.085,133.595,-4.165,-305.322
39004440,-0.784,-0.616,0.936,166.337,-28.91,-260.155
39004450,0.955,-0.233,0.848,146.51,-51.152,-144.34
39004460,1.301,0.6,1.089,158.515,-41.895,-76.842
39004470,0.614,1.057,0.952,204.032,-14.542,-44.957
39004480,0.617,0.253,1.249,189.542,20.23,26.39
39004490,0.309,-0.378,1.478,133.367,87.307,57.102
39004500,-1.482,0.529,1.125,139.86,98.017,21.595
39004510,-0.893,0.984,0.749,111.387,30.782,9.415
39004510,0.171,0.279,0.962,28.315,-6.335,20.51
39004530,-0.088,0.115,1.031,-7.122,-3.517,15.33
39004530,-0.317,0.352,0.85,19.337,-18.795,4.27
39004550,-0.077,0.167,0.96,-3.832,-32.34,4.077
39004550,-0.074,0.086,1.013,-10.132,-34.475,3.517
39004570,-0.001,0.177,0.966,0.735,-34.09,6.982
39004570,0.039,0.162,0.974,-1.12,-30.135,6.265
39004580,0.049,0.137,0.986,-4.48,-24.482,4.217
39004590,0.057,0.1,0.998,-5.04,-16.887,5.057
39004600,0.063,0.133,0.979,-1.627,-10.08,3.955
39004610,0,0.163,0.966,0.087,-4.83,2.362
39004620,-0.044,0.147,0.972,1.575,-3.465,1.277
39004630,-0.037,0.156,0.974,3.307,-4.077,0.105
39004640,-0.053,0.158,0.976,4.532,-5.267,-2.327
39004650,-0.052,0.158,0.98,4.585,-6.125,-4.48
39004660,-0.048,0.162,0.978,4.707,-6.615,-5.722
39004670,-0.046,0.161,0.982,3.78,-6.177,-5.512
39004680,-0.056,0.155,0.985,2.695,-5.355,-4.76
39004690,-0.042,0.159,0.981,2.485,-4.9,-3.745
39004700,-0.034,0.154,0.981,1.75,-3.902,-3.202
39004710,-0.026,0.155,0.979,1.085,-2.607,-2.992
39004720,-0.021,0.16,0.975,0.507,-0.857,-2.677
39004730,-0.01,0.163,0.973,-0.367,0.717,-2.765
39004740,-0.021,0.163,0.975,-0.507,2.502,-3.815
39004750,-0.039,0.169,0.978,-0.157,3.272,-5.407
39004760,-0.059,0.169,0.979,0.035,4.55,-5.407
39004770,-0.111,0.159,0.986,0.052,4.497,-4.025
39004780,-0.114,0.162,0.983,0.385,3.045,-2.59
39004790,-0.097,0.154,0.981,0.595,0.28,-2.152
39004800,-0.066,0.155,0.978,0.297,-0.542,-1.032
39004810,-0.055,0.157,0.973,0.647,-0.962,0.385
39004820,-0.059,0.149,0.978,0.07,-0.297,1.155
39004830,-0.059,0.149,0.977,0.525,-0.28,2.065
39004830,-0.065,0.149,0.98,0.192,0.42,2.467
39004850,-0.066,0.155,0.979,0.227,0.122,2.642
39004850,-0.066,0.162,0.976,0.017,0.402,2.782
39004870,-0.063,0.172,0.975,-0.14,-0.297,2.905
39004870,-0.066,0.185,0.976,-0.77,-0.402,3.272
39004890,-0.058,0.206,0.969,-2.117,-1.277,4.165
39004890,-0.07,0.235,0.968,-4.777,-1.592,5.162
39004910,-0.079,0.216,0.972,-9.485,-3.937,5.11
39004910,-0.072,0.238,0.983,-16.502,-5.46,5.127
39004920,-0.031,0.231,0.999,-24.78,-6.842,5.547
39004930,-0.047,0.359,0.992,-36.312,-5.162,6.387
39004940,-0.012,0.263,1.059,-51.065,-5.162,5.145
39004950,0.08,0.243,1.152,-69.335,-1.26,4.042
39004960,0.107,0.237,1.21,-90.772,8.732,5.32
39004970,0.191,0.336,1.384,-127.592,15.19,11.322
39004980,0.237,0.622,1.287,-171.71,29.575,35.455
39004990,-0.124,0.417,1.395,-232.33,43.522,35.42
39005000,-0.158,0.635,1.368,-308.665,59.972,36.365
39005010,-0.156,0.657,1.224,-345.572,60.515,49.017
39005020,-0.198,0.417,1.132,-398.632,62.335,41.422
39005030,-0.255,0.177,1.148,-465.535,63.647,29.295
39005040,-0.324,-0.096,1.087,-499.677,64.12,23.975
39005050,-0.231,-0.676,0.987,-496.982,68.6,25.672
39005060,-0.738,-0.532,1.293,-468.3,90.562,85.33
39005070,0.362,-0.624,1.712,-302.645,68.792,82.915
39005080,0.146,-0.591,1.18,-189.385,26.95,12.46
39005090,0.153,-0.465,0.982,-121.73,97.405,-2.87
39005100,-0.769,0.17,1.41,-73.272,83.527,-25.445
39005110,0.182,-0.274,0.062,16.467,30.957,-76.632
39005120,0.543,-0.62,-0.096,144.847,81.06,-89.075
39005130,0.077,-0.38,-0.245,133.297,122.92,-148.19
39005140,-0.333,-0.221,-0.123,116.585,124.88,-201.845
39005150,-0.506,-0.302,-0.292,137.252,80.202,-220.045
39005160,-0.454,-0.091,-0.362,150.762,44.135,-208.442
39005170,-0.401,0,-0.026,110.04,34.09,-193.27
39005180,-0.416,-0.296,0.481,66.237,32.095,-188.02
39005190,-0.292,-0.598,0.822,77.892,41.93,-177.257
39005200,-0.244,-0.682,0.85,121.94,66.517,-146.212
39005210,-0.262,-0.682,0.757,160.072,77.245,-120.277
39005220,-0.215,-0.749,0.694,173.845,72.205,-106.487
39005230,-0.128,-0.88,0.686,171.955,58.625,-101.482
39005240,-0.064,-0.984,0.652,168,46.777,-98.507
39005250,-0.01,-0.98,0.477,166.95,38.692,-93.957
39005250,-0.001,-0.884,0.214,156.8,37.327,-89.81
39005260,-0.04,-0.746,0.059,126.122,35.91,-90.772
39005270,-0.098,-0.662,0.086,69.93,34.3,-97.142
39005280,-0.376,-0.2,1.466,-15.767,9.695,-106.33
39005290,-1.487,-0.883,1.671,-124.145,-187.04,-130.322
39005300,0.815,-1.582,1.422,143.255,-181.405,-89.372
39005310,0.063,0.09,0.918,256.9,-42.245,-13.44
39005320,0.827,0.337,0.845,243.162,-38.972,-33.425
39005330,0.561,-0.349,1.134,197.732,-23.047,-29.557
39005340,-0.302,-0.627,1.088,229.11,-12.512,-31.5
39005350,-0.034,-0.221,0.968,264.495,-29.47,1.172
39005360,0.249,0.111,0.966,233.992,-20.527,47.792
39005370,-0.105,0.138,1.101,213.955,-30.047,48.632
