time[ms],accX[g],accY[g],accZ[g],Value 1,Value 2,Value 3
47212370,-0.667,0.301,0.676,-24.972,-16.45,16.712
47212380,-0.675,0.236,0.704,-21.455,-16.555,12.355
47212390,-0.624,0.238,0.7,-12.18,-19.285,7.087
47212400,-0.552,0.264,0.693,-2.012,-15.102,2.765
47212410,-0.622,0.29,0.678,4.917,-8.365,1.032
47212420,-0.676,0.307,0.666,9.275,-4.13,-0.262
47212420,-0.73,0.311,0.649,12.74,-4.112,-1.557
47212440,-0.763,0.327,0.644,15.575,-7.787,-3.15
47212440,-0.747,0.31,0.644,16.45,-13.23,-5.25
47212460,-0.763,0.232,0.653,18.795,-19.95,-7.122
47212460,-0.679,0.213,0.66,30.135,-31.15,-11.2
47212480,-0.556,0.281,0.696,43.032,-31.342,-17.115
47212480,-0.586,0.321,0.693,46.847,-23.03,-20.352
47212500,-0.671,0.296,0.691,46.532,-16.817,-20.177
47212500,-0.674,0.318,0.667,47.547,-17.675,-19.862
47212510,-0.676,0.365,0.641,47.425,-16.66,-20.125
47212520,-0.675,0.369,0.623,44.555,-16.222,-20.405
47212530,-0.66,0.427,0.632,38.64,-14.07,-17.85
47212540,-0.658,0.457,0.628,27.055,-10.36,-14.14
47212550,-0.675,0.456,0.625,13.772,-4.935,-8.225
47212560,-0.725,0.418,0.633,-1.12,-3.29,0.175
47212570,-0.73,0.366,0.649,-11.462,-9.765,6.265
47212580,-0.66,0.344,0.655,-14.175,-15.452,8.172
47212590,-0.613,0.323,0.674,-14.455,-14.63,8.312
47212600,-0.597,0.344,0.669,-13.37,-10.29,8.995
47212610,-0.614,0.367,0.673,-13.405,-5.11,9.625
47212620,-0.636,0.362,0.659,-16.45,-1.487,10.062
47212630,-0.649,0.391,0.658,-19.337,2.345,12.617
47212640,-0.68,0.378,0.66,-24.762,3.517,15.365
47212650,-0.697,0.319,0.664,-28.98,1.172,17.71
47212660,-0.621,0.363,0.665,-28.262,1.855,20.055
47212670,-0.68,0.351,0.672,-31.832,5.32,23.625
47212680,-0.71,0.278,0.676,-34.352,3.167,23.432
47212690,-0.642,0.266,0.691,-27.615,-0.105,21.052
47212700,-0.586,0.298,0.696,-20.405,2.572,17.867
47212710,-0.675,0.27,0.702,-17.57,5.792,14.857
47212720,-0.678,0.228,0.688,-10.395,0.857,10.202
47212730,-0.62,0.31,0.685,2.38,-2.87,4.462
47212740,-0.663,0.344,0.685,7.805,-0.91,-0.227
47212750,-0.716,0.338,0.662,8.102,-2.03,-2.415
47212760,-0.719,0.348,0.659,9.362,-4.865,-4.34
47212770,-0.742,0.28,0.662,10.517,-10.85,-7.717
47212780,-0.657,0.272,0.671,18.06,-18.532,-13.597
47212780,-0.611,0.319,0.668,26.775,-22.995,-18.9
47212800,-0.664,0.347,0.661,28.962,-20.177,-22.627
47212800,-0.778,0.303,0.681,30.152,-23.415,-24.237
47212820,-0.745,0.28,0.673,35.63,-34.912,-27.825
47212820,-0.618,0.325,0.687,42.157,-43.33,-31.78
47212830,-0.544,0.349,0.702,40.215,-43.61,-29.417
47212840,-0.52,0.434,0.683,30.152,-32.427,-19.302
47212850,-0.606,0.424,0.645,16.327,-17.307,-7.752
47212860,-0.655,0.443,0.636,5.565,-7.507,0.105
47212870,-0.724,0.416,0.653,-3.867,-5.95,5.11
47212880,-0.67,0.372,0.67,-9.52,-11.462,6.702
47212890,-0.607,0.361,0.693,-10.027,-14.052,6.93
47212900,-0.564,0.345,0.719,-10.115,-11.9,6.457
47212910,-0.536,0.326,0.717,-10.832,-7.07,7.07
47212920,-0.543,0.317,0.708,-10.657,-0.227,8.557
47212930,-0.551,0.336,0.705,-10.272,6.965,10.062
47212940,-0.542,0.428,0.671,-13.142,16.257,13.247
47212950,-0.741,0.437,0.665,-26.827,29.907,21.717
47212960,-0.776,0.316,0.634,-35.927,22.452,24.29
47212970,-0.694,0.405,0.649,-34.877,15.697,26.302
47212980,-0.69,0.326,0.683,-36.977,8.592,23.257
47212990,-0.656,0.328,0.684,-37.135,4.672,21.262
47213000,-0.672,0.223,0.718,-32.252,0.035,16.1
47213010,-0.554,0.268,0.738,-18.83,-5.39,10.045
47213020,-0.528,0.309,0.729,-9.397,-0.63,5.495
47213030,-0.649,0.279,0.7,-5.442,4.795,2.31
47213040,-0.657,0.283,0.68,4.007,2.24,-2.467
47213050,-0.654,0.361,0.677,12.145,0.122,-5.932
47213060,-0.72,0.336,0.654,11.97,-0.735,-7.84
47213070,-0.745,0.309,0.663,14.402,-7,-9.555
47213080,-0.731,0.263,0.7,21.63,-14.105,-12.862
47213090,-0.6,0.255,0.682,32.725,-25.445,-21.77
47213100,-0.499,0.35,0.721,40.67,-25.97,-28.052
47213110,-0.609,0.379,0.719,37.415,-15.627,-26.005
47213120,-0.733,0.302,0.678,31.202,-13.3,-23.975
47213130,-0.703,0.331,0.659,31.78,-21.087,-25.707
47213140,-0.602,0.35,0.669,33.215,-28.525,-27.545
47213150,-0.533,0.44,0.676,30.082,-22.522,-24.237
47213160,-0.667,0.463,0.644,17.412,-9.922,-13.772
47213170,-0.751,0.419,0.633,2.765,-9.187,-5.11
47213170,-0.735,0.409,0.658,-8.225,-14.245,0.682
47213190,-0.695,0.367,0.687,-16.625,-19.687,5.092
47213190,-0.591,0.344,0.701,-22.452,-23.905,9.835
47213210,-0.535,0.319,0.72,-25.392,-22.592,14.927
47213210,-0.507,0.307,0.736,-25.83,-16.135,17.78
47213230,-0.512,0.314,0.737,-24.255,-7.542,19.162
47213230,-0.509,0.359,0.689,-23.117,1.417,21.035
47213250,-0.538,0.49,0.681,-28.98,17.552,28.175
47213250,-0.769,0.365,0.679,-42.717,24.395,36.96
47213260,-0.679,0.32,0.669,-45.01,15.837,38.78
47213270,-0.566,0.378,0.681,-40.775,15.575,38.167
47213280,-0.696,0.305,0.717,-42.017,18.322,35.35
47213290,-0.691,0.225,0.738,-38.43,10.185,26.967
47213300,-0.599,0.218,0.767,-24.167,0.787,15.382
47213310,-0.491,0.246,0.751,-9.87,-2.957,5.302
47213320,-0.551,0.268,0.715,0.805,2.047,0.157
47213330,-0.625,0.313,0.712,9.975,5.057,-4.305
47213340,-0.711,0.34,0.688,14.962,4.707,-8.487
47213350,-0.742,0.329,0.641,16.817,-1.032,-12.39
47213360,-0.768,0.321,0.662,20.58,-8.645,-15.067
47213370,-0.796,0.248,0.687,27.335,-24.027,-20.475
47213380,-0.512,0.293,0.725,39.55,-38.395,-29.715
47213390,-0.47,0.391,0.756,42.595,-31.01,-31.29
47213400,-0.594,0.327,0.712,34.002,-19.18,-27.02
47213410,-0.601,0.36,0.695,29.855,-13.387,-23.135
47213420,-0.7,0.337,0.664,26.827,-11.41,-19.687
47213430,-0.624,0.392,0.647,23.922,-13.055,-19.267
47213440,-0.627,0.479,0.66,14.682,-9.03,-13.86
47213450,-0.752,0.442,0.66,-3.78,-7,-2.87
47213460,-0.693,0.414,0.702,-21.192,-15.102,6.475
47213470,-0.61,0.313,0.705,-29.785,-22.68,14.962
47213480,-0.522,0.302,0.724,-29.347,-22.032,17.01
47213490,-0.502,0.302,0.762,-27.195,-17.045,15.067
47213500,-0.506,0.299,0.746,-25.34,-9.747,13.93
47213510,-0.496,0.358,0.722,-22.522,0.84,14.892
47213510,-0.541,0.391,0.708,-25.427,13.335,18.707
47213530,-0.681,0.362,0.719,-32.077,19.495,23.712
47213530,-0.672,0.311,0.691,-33.985,14.017,24.78
47213550,-0.564,0.36,0.699,-31.272,12.232,23.817
47213550,-0.637,0.262,0.667,-31.692,17.36,23.31
47213570,-0.683,0.354,0.723,-26.862,15.802,20.79
47213570,-0.618,0.321,0.733,-25.83,12.967,21.087
47213580,-0.671,0.33,0.742,-27.44,5.057,20.23
47213590,-0.59,0.26,0.738,-28.262,-2.082,17.202
47213600,-0.606,0.258,0.757,-20.895,-3.552,11.165
47213610,-0.598,0.227,0.757,-12.897,-6.93,3.867
47213620,-0.501,0.264,0.762,-3.132,-5.827,-3.08
47213630,-0.559,0.286,0.752,5.11,2.397,-5.407
47213640,-0.614,0.289,0.733,9.065,6.247,-8.417
47213650,-0.663,0.295,0.708,13.3,5.495,-11.742
47213660,-0.689,0.319,0.688,16.975,2.625,-15.225
47213670,-0.683,0.279,0.638,18.13,-1.172,-16.695
47213680,-0.691,0.298,0.654,21.717,0.962,-19.985
47213690,-0.707,0.329,0.694,24.955,-1.785,-18.007
47213700,-0.66,0.317,0.706,22.802,-7.035,-13.947
47213710,-0.547,0.29,0.75,23.24,-12.092,-13.02
47213720,-0.423,0.356,0.784,25.217,-10.08,-9.677
47213730,-0.466,0.337,0.759,19.95,3.272,-5.862
47213740,-0.573,0.294,0.757,17.727,12.6,-4.812
47213750,-0.587,0.322,0.71,22.015,13.037,-8.907
47213760,-0.606,0.385,0.675,23.135,15.207,-10.92
47213770,-0.738,0.387,0.644,18.06,13.702,-8.977
47213780,-0.747,0.398,0.648,12.792,6.947,-7.087
47213790,-0.698,0.368,0.65,7.245,-2.117,-6.072
47213800,-0.66,0.362,0.68,3.307,-4.777,-4.69
47213810,-0.635,0.316,0.703,-0.7,-7,-3.675
47213820,-0.577,0.319,0.725,-1.085,-6.177,-3.045
47213830,-0.564,0.308,0.727,-1.662,-2.31,-3.377
47213840,-0.584,0.311,0.717,-3.01,3.01,-3.045
47213850,-0.622,0.328,0.714,-4.707,6.457,-1.575
47213860,-0.641,0.34,0.705,-8.645,7.437,0.805
47213870,-0.651,0.337,0.684,-12.197,6.597,2.572
47213880,-0.654,0.384,0.633,-13.527,6.352,3.377
47213890,-0.711,0.424,0.657,-18.462,6.37,4.41
47213900,-0.778,0.29,0.675,-23.73,0.77,4.725
47213910,-0.632,0.324,0.674,-17.972,-5.53,3.832
47213920,-0.63,0.345,0.694,-17.395,-4.235,3.867
47213920,-0.639,0.238,0.707,-19.862,-6.352,4.76
47213940,-0.583,0.319,0.73,-12.757,-4.077,4.497
47213940,-0.617,0.25,0.73,-10.045,-0.245,3.64
47213960,-0.598,0.292,0.711,-5.18,1.522,2.012
47213960,-0.6,0.306,0.695,-0.77,3.657,1.592
47213980,-0.679,0.305,0.694,-0.367,5.232,1.767
47213980,-0.673,0.27,0.675,2.117,2.887,-0.052
47214000,-0.628,0.291,0.645,7.245,6.667,-4.76
47214000,-0.755,0.335,0.722,9.677,4.025,-5.022
47214010,-0.615,0.307,0.687,5.827,-9.222,-1.925
47214020,-0.596,0.339,0.691,6.16,-9.24,-0.77
47214030,-0.624,0.332,0.709,6.685,-5.862,-1.295
47214040,-0.62,0.325,0.705,5.932,-4.742,-1.942
47214050,-0.626,0.328,0.715,5.442,-2.187,-1.242
47214060,-0.673,0.257,0.717,4.13,-1.715,-0.525
47214070,-0.594,0.289,0.71,9.642,-3.255,-2.1
47214080,-0.632,0.294,0.706,13.335,-1.312,-2.852
47214090,-0.655,0.324,0.676,14.017,-1.505,-3.29
47214100,-0.677,0.357,0.693,13.527,-0.42,-2.66
47214110,-0.75,0.277,0.671,10.237,-6.282,-2.205
47214120,-0.56,0.386,0.661,14.595,-10.955,-4.9
47214130,-0.659,0.374,0.683,10.395,-5.687,-3.115
47214140,-0.679,0.342,0.685,3.885,-5.635,-0.962
47214150,-0.569,0.35,0.63,3.64,-5.775,-0.717
47214160,-0.627,0.323,0.636,3.605,7.122,-1.505
47214170,-0.757,0.414,0.754,3.045,4.637,-1.26
47214180,-0.576,0.323,0.709,-6.632,-8.067,1.75
47214190,-0.59,0.283,0.682,-9.765,-6.107,5.722
47214200,-0.569,0.294,0.722,-6.72,-3.517,6.195
47214210,-0.583,0.285,0.721,-7.595,-1.382,7.927
47214220,-0.604,0.316,0.713,-7.91,2.012,10.92
47214230,-0.602,0.388,0.667,-11.375,4.252,13.02
47214240,-0.622,0.531,0.633,-23.205,9.607,19.162
47214250,-0.851,0.373,0.665,-40.127,8.05,23.432
47214260,-0.706,0.345,0.68,-38.22,-1.225,18.305
47214260,-0.59,0.291,0.688,-31.43,-7.21,14.647
47214280,-0.586,0.247,0.721,-25.305,-7.997,8.977
47214280,-0.567,0.231,0.74,-13.055,-6.44,4.97
47214300,-0.59,0.277,0.739,-3.22,-3.43,1.75
47214300,-0.595,0.273,0.716,1.89,-0.157,0.28
47214320,-0.64,0.293,0.714,4.882,4.41,0.472
47214320,-0.687,0.27,0.697,4.34,7.175,1.47
47214330,-0.689,0.305,0.689,5.53,7.14,2.362
47214340,-0.699,0.307,0.664,5.425,5.057,1.452
47214350,-0.719,0.324,0.653,6.492,1.067,1.085
47214360,-0.703,0.349,0.664,7.42,-3.325,0.787
47214370,-0.68,0.294,0.696,7.052,-7.35,0.157
47214380,-0.625,0.252,0.707,12.057,-9.555,-0.647
47214390,-0.551,0.329,0.716,19.127,-6.597,-1.732
47214400,-0.612,0.272,0.729,19.197,-2.467,-3.272
47214410,-0.578,0.324,0.713,24.552,0.262,-4.252
47214420,-0.643,0.33,0.683,25.567,3.937,-4.655
47214430,-0.612,0.379,0.649,24.29,0.525,-6.247
47214440,-0.706,0.425,0.66,19.495,2.397,-3.342
47214450,-0.713,0.389,0.642,10.867,-2.082,-1.487
47214460,-0.672,0.41,0.653,4.2,-5.477,0.805
47214470,-0.676,0.322,0.692,-2.712,-9.712,1.662
47214480,-0.584,0.306,0.717,-2.887,-11.987,1.312
47214490,-0.568,0.329,0.707,-2.485,-7.49,0.857
47214500,-0.587,0.372,0.672,-6.247,-2.782,0.42
47214510,-0.644,0.431,0.679,-11.497,-1.33,-0.28
47214520,-0.705,0.397,0.698,-19.267,-0.997,-2.975
47214530,-0.665,0.364,0.671,-23.012,-3.482,-7.017
47214540,-0.612,0.405,0.682,-26.757,-3.745,-8.19
47214550,-0.643,0.308,0.704,-33.407,-3.01,-5.932
47214560,-0.616,0.304,0.683,-32.2,-1.33,-2.817
47214570,-0.611,0.301,0.68,-31.71,2.415,0.577
47214580,-0.633,0.283,0.68,-31.902,6.107,4.077
47214590,-0.689,0.296,0.698,-30.66,7.962,9.17
47214600,-0.653,0.289,0.703,-31.465,7.577,11.112
47214610,-0.724,0.197,0.708,-29.662,7.455,13.685
47214620,-0.635,0.201,0.709,-18.41,1.715,9.24
47214630,-0.594,0.266,0.703,-6.492,-1.995,7.262
47214640,-0.622,0.264,0.682,-0.402,-2.502,5.092
47214650,-0.668,0.304,0.678,7.017,-3.272,2.625
47214660,-0.698,0.324,0.685,11.48,-4.777,0.262
47214670,-0.677,0.345,0.685,12.635,-7.665,-1.89
47214670,-0.645,0.339,0.69,11.077,-9.52,-1.68
47214690,-0.626,0.326,0.716,10.167,-8.75,-1.365
47214690,-0.614,0.286,0.741,9.887,-7.087,-1.277
47214710,-0.556,0.224,0.723,13.335,-6.23,-3.307
47214710,-0.548,0.334,0.718,19.827,0.525,-4.06
47214730,-0.698,0.293,0.707,17.01,6.58,-2.555
47214730,-0.707,0.292,0.676,18.462,2.362,-3.272
47214750,-0.663,0.362,0.669,20.72,-2.065,-5.285
47214750,-0.682,0.337,0.664,15.82,-5.197,-4.865
47214760,-0.694,0.309,0.678,13.352,-7.665,-2.957
47214770,-0.613,0.344,0.699,13.58,-9.152,-3.08
47214780,-0.621,0.311,0.7,11.952,-6.51,-2.257
47214790,-0.628,0.285,0.712,12.88,-5.862,-3.027
47214800,-0.591,0.33,0.692,16.117,-3.045,-3.902
47214810,-0.663,0.331,0.688,13.825,1.61,-1.942
47214820,-0.655,0.339,0.659,12.162,-0.577,-3.15
47214830,-0.644,0.381,0.674,11.147,-0.892,-2.065
47214840,-0.662,0.366,0.667,6.177,-1.05,-2.485
47214850,-0.663,0.379,0.664,2.222,-0.49,-0.507
47214860,-0.672,0.354,0.681,-2.765,-2.432,0.385
47214870,-0.649,0.348,0.688,-6.947,-5.845,2.485
47214880,-0.631,0.3,0.696,-10.43,-8.207,3.552
47214890,-0.596,0.294,0.699,-10.202,-8.295,3.657
47214900,-0.593,0.328,0.69,-10.727,-4.9,3.99
47214910,-0.622,0.393,0.663,-14.7,-1.067,4.952
47214920,-0.688,0.448,0.638,-23.327,2.03,7.21
47214930,-0.786,0.399,0.643,-34.545,-4.567,7.787
47214940,-0.785,0.322,0.663,-37.502,-16.73,5.477
47214950,-0.635,0.355,0.704,-34.16,-25.06,4.62
47214960,-0.602,0.256,0.731,-35.525,-24.29,6.3
47214970,-0.561,0.2,0.729,-30.642,-22.417,5.46
47214980,-0.518,0.249,0.742,-20.405,-17.727,4.007
47214990,-0.549,0.288,0.735,-14.875,-10.167,3.08
47215000,-0.637,0.255,0.743,-12.862,-4.55,3.22
47215010,-0.633,0.225,0.74,-7.035,-3.955,1.662
47215010,-0.599,0.289,0.718,2.555,-2.135,-0.56
47215030,-0.618,0.304,0.69,6.212,-0.017,-1.54
47215030,-0.664,0.313,0.69,8.225,0.245,-2.31
47215050,-0.685,0.335,0.698,9.607,-0.735,-2.117
47215050,-0.679,0.309,0.697,8.067,-3.5,-1.995
47215070,-0.671,0.241,0.726,9.24,-7.262,-2.677
47215070,-0.595,0.209,0.743,18.427,-9.187,-6.475
47215080,-0.493,0.279,0.748,30.45,-6.002,-11.795
47215090,-0.569,0.291,0.762,34.177,2.817,-13.755
47215100,-0.586,0.275,0.723,36.4,6.055,-15.925
47215110,-0.544,0.396,0.684,38.797,11.777,-15.19
47215120,-0.739,0.357,0.675,29.05,17.692,-9.152
47215130,-0.737,0.334,0.663,23.397,9.152,-6.912
47215140,-0.631,0.41,0.641,21.192,3.15,-5.057
47215150,-0.71,0.393,0.679,9.275,3.447,0.14
47215160,-0.657,0.293,0.669,2.415,-3.867,1.207
47215170,-0.55,0.381,0.676,3.867,-2.135,2.432
47215180,-0.653,0.321,0.688,-4.637,2.362,4.777
47215190,-0.636,0.295,0.697,-5.46,0.997,5.67
47215200,-0.616,0.325,0.709,-3.622,1.802,4.62
47215210,-0.636,0.32,0.692,-6.107,2.012,4.952
47215220,-0.637,0.322,0.691,-6.055,1.942,5.267
47215230,-0.63,0.344,0.692,-6.44,1.732,6.02
47215240,-0.638,0.351,0.675,-8.96,3.062,7.175
47215250,-0.64,0.385,0.65,-12.39,4.392,8.855
47215260,-0.718,0.431,0.646,-19.932,6.685,11.97
47215270,-0.769,0.318,0.666,-27.457,-0.665,11.497
47215280,-0.682,0.339,0.684,-25.095,-6.807,9.87
47215290,-0.642,0.298,0.693,-24.307,-10.64,8.067
47215300,-0.633,0.27,0.715,-22.242,-12.04,7
47215310,-0.571,0.282,0.721,-16.975,-10.622,6.667
47215320,-0.595,0.311,0.705,-14.875,-4.13,7.927
47215330,-0.645,0.288,0.704,-15.54,-1.627,7.997
47215340,-0.65,0.254,0.71,-12.302,-3.29,7.035
47215350,-0.581,0.323,0.71,-5.775,-3.115,5.057
47215360,-0.638,0.331,0.705,-6.037,0.647,6.072
47215370,-0.686,0.302,0.703,-6.93,0.105,6.09
47215380,-0.628,0.274,0.69,-2.257,-4.305,3.36
47215390,-0.597,0.328,0.699,3.955,-5.6,-0.07
47215400,-0.647,0.31,0.698,4.707,-4.462,-1.277
47215410,-0.654,0.322,0.698,5.722,-5.862,-1.61
47215420,-0.658,0.326,0.694,5.617,-7.507,-1.61
47215420,-0.659,0.297,0.707,5.792,-9.17,-2.852
47215440,-0.634,0.259,0.717,9.747,-11.007,-5.11
47215440,-0.61,0.251,0.707,16.012,-12.022,-7.927
47215460,-0.653,0.225,0.712,22.96,-15.855,-13.072
47215460,-0.542,0.337,0.721,33.005,-16.835,-20.212
47215480,-0.658,0.369,0.713,34.072,-7.612,-19.775
47215480,-0.702,0.287,0.695,29.067,-11.952,-20.177
47215500,-0.589,0.366,0.681,30.642,-17.447,-17.815
47215500,-0.615,0.422,0.667,23.94,-11.48,-12.705
47215510,-0.696,0.402,0.665,10.36,-5.39,-4.812
47215520,-0.713,0.352,0.672,1.837,-7.665,-0.717
47215530,-0.593,0.346,0.69,-0.14,-11.83,-0.297
47215540,-0.586,0.345,0.708,-3.815,-9.467,2.17
47215550,-0.597,0.316,0.73,-7.122,-8.12,3.885
47215560,-0.568,0.285,0.735,-6.422,-7.262,4.217
47215570,-0.557,0.285,0.719,-4.252,-4.322,3.727
47215580,-0.588,0.317,0.708,-3.5,1.067,4.165
47215590,-0.644,0.349,0.685,-5.425,3.535,5.442
47215600,-0.645,0.446,0.66,-10.622,5.88,7.875
47215610,-0.743,0.424,0.657,-22.435,5.985,12.337
47215620,-0.734,0.366,0.667,-31.01,-0.892,14.945
47215630,-0.64,0.385,0.683,-33.442,-5.512,17.85
47215640,-0.647,0.307,0.697,-38.307,-7.577,19.46
47215650,-0.607,0.273,0.733,-37.467,-11.182,18.235
47215660,-0.53,0.232,0.748,-30.66,-10.902,15.61
47215670,-0.523,0.313,0.75,-23.152,-2.117,12.46
47215680,-0.582,0.224,0.748,-21.332,2.905,11.252
47215690,-0.598,0.219,0.746,-12.18,2.66,7.805
47215700,-0.581,0.286,0.727,-0.385,4.97,3.71
47215710,-0.655,0.284,0.698,4.235,5.232,0.927
47215720,-0.666,0.332,0.698,7.875,1.96,-0.577
47215730,-0.676,0.342,0.701,8.347,-1.015,-1.4
47215740,-0.666,0.321,0.689,7.21,-3.832,-2.502
47215750,-0.686,0.284,0.713,9.362,-7.56,-3.605
47215760,-0.649,0.21,0.732,17.43,-14.945,-10.01
47215760,-0.489,0.271,0.739,32.235,-19.827,-19.145
47215780,-0.535,0.369,0.75,36.47,-10.657,-21.892
47215780,-0.668,0.312,0.707,30.362,-6.335,-18.987
47215800,-0.664,0.331,0.696,29.137,-11.147,-17.622
47215800,-0.651,0.324,0.69,29.417,-14.017,-18.847
47215820,-0.577,0.366,0.685,28.262,-15.925,-18.217
47215820,-0.631,0.417,0.678,20.265,-9.24,-11.865
47215830,-0.703,0.382,0.679,7.385,-5.915,-5.862
47215840,-0.663,0.351,0.686,-0.507,-8.872,-2.03
47215850,-0.624,0.324,0.711,-3.185,-11.095,-0.98
47215860,-0.575,0.304,0.721,-4.025,-11.987,-0.472
47215870,-0.543,0.318,0.741,-3.535,-9.887,0.175
47215880,-0.556,0.319,0.737,-6.055,-5.775,2.397
47215890,-0.569,0.325,0.728,-8.172,-2.397,4.515
47215900,-0.59,0.339,0.73,-9.992,1.4,6.317
47215910,-0.596,0.346,0.696,-12.687,2.52,7.63
47215920,-0.567,0.45,0.681,-17.675,9.765,11.497
47215930,-0.71,0.408,0.675,-31.01,17.255,18.445
47215940,-0.705,0.363,0.666,-39.007,12.635,22.995
47215950,-0.645,0.338,0.688,-40.512,6.65,24.99
47215960,-0.602,0.312,0.724,-41.545,5.057,22.89
47215970,-0.604,0.207,0.752,-39.48,4.235,21.595
47215980,-0.574,0.227,0.76,-28.7,5.46,16.957
47215990,-0.503,0.265,0.754,-18.112,5.635,11.497
47216000,-0.57,0.267,0.745,-13.37,11.287,9.205
47216010,-0.634,0.292,0.716,-9.695,13.667,7.892
47216020,-0.701,0.333,0.69,-7.647,12.512,7.175
47216030,-0.725,0.287,0.69,-8.225,4.497,4.812
47216040,-0.688,0.321,0.696,-6.16,-4.095,2.117
47216050,-0.611,0.316,0.701,-4.97,-8.68,0.192
47216060,-0.612,0.345,0.72,-5.88,-8.032,0.665
47216070,-0.605,0.284,0.724,-8.487,-8.12,2.275
47216080,-0.565,0.262,0.742,-5.057,-6.142,1.942
47216090,-0.551,0.276,0.737,0.542,-0.647,1.435
47216100,-0.596,0.278,0.723,3.325,4.41,1.837
47216110,-0.639,0.308,0.711,5.722,5.862,1.487
47216120,-0.669,0.329,0.704,4.532,4.41,1.61
47216130,-0.67,0.319,0.696,1.785,1.155,1.96
47216140,-0.643,0.313,0.706,0.542,-2.1,1.61
47216150,-0.621,0.295,0.711,0.07,-3.85,1.242
47216160,-0.619,0.315,0.702,1.75,-4.34,0.017
47216170,-0.609,0.344,0.723,2.485,-5.495,-2.275
47216170,-0.615,0.336,0.733,0.49,-5.652,-3.587
47216180,-0.624,0.319,0.714,-0.63,-4.287,-4.497
47216190,-0.608,0.321,0.715,-1.277,-4.445,-5.25
47216200,-0.644,0.289,0.719,-3.587,-3.377,-3.99
47216210,-0.661,0.276,0.7,-2.38,-3.71,-3.5
47216220,-0.638,0.304,0.703,-0.105,-5.95,-4.165
47216230,-0.667,0.288,0.715,-0.84,-8.085,-3.675
47216240,-0.64,0.282,0.713,0.017,-9.432,-3.255
47216250,-0.604,0.28,0.716,1.855,-10.045,-3.745
47216260,-0.587,0.283,0.725,2.607,-8.54,-3.675
47216270,-0.594,0.297,0.731,3.255,-5.88,-3.027
47216280,-0.61,0.304,0.725,2.695,-2.782,-2.52
47216290,-0.61,0.305,0.717,0.892,-1.872,-1.487
47216300,-0.634,0.299,0.715,-0.857,0.245,0.542
47216310,-0.637,0.292,0.71,-1.085,0.315,1.155
47216320,-0.63,0.299,0.704,-0.98,0.577,1.872
47216330,-0.643,0.305,0.696,-0.997,0.332,2.537
47216340,-0.649,0.324,0.71,-1.575,0.122,3.675
47216350,-0.628,0.303,0.737,-3.307,0.525,4.76
47216360,-0.56,0.255,0.736,-2.17,2.45,5.477
47216370,-0.494,0.296,0.74,3.447,8.645,5.092
47216380,-0.549,0.28,0.761,5.092,17.692,5.32
47216390,-0.543,0.312,0.75,7.7,24.552,5.88
47216400,-0.622,0.29,0.702,8.837,29.05,6.107
47216410,-0.619,0.343,0.666,10.01,28.21,5.372
47216420,-0.721,0.38,0.675,7.735,24.622,5.407
47216430,-0.742,0.339,0.665,3.237,17.097,4.76
47216440,-0.687,0.361,0.651,3.465,8.522,2.607
47216450,-0.686,0.317,0.693,0.017,-0.35,0.56
47216460,-0.641,0.293,0.723,-0.577,-3.657,-1.312
47216470,-0.615,0.291,0.719,-0.367,-2.922,-2.467
47216480,-0.637,0.303,0.664,-1.207,-2.012,-4.2
47216490,-0.716,0.404,0.632,-1.977,-5.407,-7.227
47216500,-0.786,0.412,0.647,-9.275,-16.835,-11.55
47216510,-0.798,0.37,0.638,-13.195,-27.772,-15.417
47216510,-0.646,0.291,0.73,-15.155,-35.017,-14.612
47216530,-0.645,0.23,0.728,-13.667,-31.395,-9.73
47216530,-0.518,0.248,0.739,-6.212,-28.297,-9.187
47216550,-0.52,0.225,0.769,-5.057,-20.982,-6.282
47216550,-0.55,0.214,0.749,0.42,-9.45,-4.375
47216570,-0.557,0.275,0.718,5.092,-1.225,-3.36
47216570,-0.649,0.295,0.698,4.305,2.87,-1.522
47216580,-0.691,0.322,0.698,4.795,2.712,-0.63
47216590,-0.691,0.34,0.699,2.87,-0.735,0.052
47216600,-0.656,0.322,0.691,0.035,-3.57,0.402
47216610,-0.607,0.309,0.701,-0.42,-4.427,1.19
47216620,-0.588,0.325,0.712,-0.052,-1.732,2.992
47216630,-0.552,0.327,0.764,-1.382,2.922,4.287
47216640,-0.602,0.166,0.801,-1.54,10.885,6.877
47216650,-0.411,0.265,0.734,11.41,21.28,4.585
47216660,-0.595,0.268,0.731,12.74,30.642,4.567
47216670,-0.606,0.297,0.699,13.072,31.955,3.517
47216680,-0.713,0.362,0.686,13.335,31.185,2.765
47216690,-0.717,0.374,0.613,5.932,25.06,3.01
47216700,-0.759,0.387,0.632,1.277,18.077,2.922
47216710,-0.791,0.334,0.657,-3.815,6.93,2.852
47216720,-0.687,0.327,0.67,-3.132,-4.357,0.332
47216730,-0.647,0.287,0.703,-4.497,-9.59,-1.487
47216740,-0.614,0.269,0.708,-4.392,-8.802,-1.33
47216750,-0.613,0.301,0.678,-3.797,-7.577,-0.647
47216760,-0.664,0.31,0.664,-6.475,-7.42,-0.595
47216770,-0.7,0.402,0.631,-8.925,-10.57,-1.295
47216780,-0.802,0.373,0.658,-15.732,-19.267,-3.5
47216790,-0.742,0.292,0.684,-16.24,-27.072,-7.297
47216800,-0.629,0.278,0.768,-10.482,-27.247,-6.16
47216810,-0.561,0.195,0.744,-9.415,-22.487,-2.992
47216820,-0.466,0.216,0.728,-0.7,-12.145,-3.465
47216830,-0.561,0.219,0.727,2.87,-3.045,-1.382
47216840,-0.626,0.294,0.711,8.295,4.515,0.98
47216850,-0.681,0.327,0.671,7.665,6.65,0.875
47216860,-0.717,0.334,0.659,4.9,4.655,2.257
47216870,-0.705,0.356,0.686,2.887,0.402,3.447
47216870,-0.635,0.293,0.745,-0.42,-0.927,4.2
47216890,-0.606,0.245,0.744,0.892,6.177,6.055
47216890,-0.534,0.237,0.725,4.235,13.317,5.67
47216910,-0.512,0.237,0.702,7.087,19.915,5.932
47216910,-0.598,0.271,0.7,11.882,26.267,6.737
47216920,-0.63,0.305,0.684,15.995,29.435,6.002
47216930,-0.69,0.315,0.66,18.567,28.717,4.182
47216940,-0.715,0.362,0.66,20.457,24.955,2.852
47216950,-0.772,0.372,0.658,17.517,18.2,2.625
47216960,-0.743,0.363,0.648,13.177,9.1,2.572
47216970,-0.702,0.362,0.628,10.342,1.155,2.362
47216980,-0.699,0.353,0.643,5.617,-3.342,2.905
47216990,-0.692,0.323,0.666,1.242,-6.982,3.237
47217000,-0.656,0.31,0.681,0.087,-8.067,2.73
47217010,-0.613,0.306,0.683,0.227,-7.56,1.365
47217020,-0.619,0.303,0.692,0.752,-4.357,0.91
47217030,-0.634,0.319,0.689,0.735,-1.82,1.47
47217040,-0.649,0.326,0.675,-0.91,1.242,3.08
47217050,-0.673,0.322,0.666,-2.835,2.835,4.567
47217060,-0.67,0.319,0.658,-4.672,2.922,6.037
47217070,-0.672,0.317,0.655,-4.935,1.697,6.702
47217080,-0.661,0.342,0.671,-4.515,1.47,7.612
47217090,-0.654,0.346,0.674,-6.475,1.452,8.96
47217100,-0.598,0.415,0.651,-8.89,5.075,11.182
47217110,-0.687,0.428,0.664,-18.112,14.455,17.08
47217120,-0.781,0.283,0.658,-26.95,14.49,19.635
47217130,-0.64,0.282,0.665,-21.297,8.487,17.447
47217140,-0.62,0.28,0.686,-14.63,9.275,14.122
47217150,-0.649,0.281,0.694,-11.532,10.85,12.372
47217160,-0.673,0.253,0.688,-7.07,9.87,9.817
47217170,-0.695,0.276,0.653,1.732,6.44,5.145
47217180,-0.725,0.363,0.663,9.117,2.59,-0.052
47217190,-0.83,0.345,0.648,8.4,-2.362,-4.462
47217200,-0.851,0.309,0.619,9.275,-13.405,-12.092
47217210,-0.819,0.219,0.62,19.355,-33.425,-22.977
47217220,-0.625,0.287,0.656,39.41,-55.527,-37.257
47217230,-0.534,0.357,0.724,53.917,-59.85,-48.632
47217240,-0.531,0.382,0.729,50.942,-51.24,-48.58
47217250,-0.586,0.374,0.673,37.765,-37.922,-34.335
47217260,-0.706,0.355,0.638,26.092,-28.28,-21.735
47217260,-0.692,0.341,0.649,18.287,-28.192,-16.957
47217280,-0.647,0.382,0.668,9.922,-26.285,-9.94
47217280,-0.711,0.355,0.685,-3.797,-20.527,-0.315
47217300,-0.624,0.286,0.694,-13.02,-22.662,6.16
47217300,-0.487,0.313,0.724,-14.087,-19.687,12.477
47217320,-0.457,0.323,0.725,-17.15,-7.35,18.707
47217320,-0.428,0.426,0.696,-22.557,12.88,25.025
47217330,-0.597,0.449,0.693,-35.35,36.995,33.092
47217340,-0.719,0.369,0.666,-45.517,45.815,36.697
47217350,-0.714,0.305,0.66,-44.817,39.392,35.98
47217360,-0.66,0.3,0.69,-38.22,32.042,31.027
47217370,-0.669,0.267,0.697,-31.115,28.35,26.302
47217380,-0.639,0.255,0.687,-22.295,22.767,21.087
47217390,-0.655,0.302,0.699,-14.542,20.965,16.31
47217400,-0.781,0.223,0.66,-8.995,16.975,10.745
47217410,-0.71,0.288,0.64,4.83,4.952,2.922
47217420,-0.747,0.361,0.658,13.737,-0.735,-4.795
47217430,-0.808,0.315,0.636,13.632,-7.385,-10.08
47217440,-0.805,0.284,0.645,17.797,-17.517,-14.875
47217450,-0.795,0.166,0.634,28.507,-36.067,-23.8
47217460,-0.543,0.284,0.695,47.985,-52.85,-35.892
47217470,-0.528,0.395,0.739,52.027,-50.417,-40.285
47217480,-0.592,0.383,0.697,39.112,-40.897,-34.755
47217490,-0.615,0.409,0.671,26.827,-30.975,-24.482
47217500,-0.719,0.396,0.661,13.947,-20.457,-14.595
47217510,-0.697,0.359,0.652,2.677,-22.172,-9.747
47217520,-0.592,0.396,0.683,-4.707,-20.982,-5.915
47217530,-0.628,0.351,0.711,-15.96,-13.422,-0.07
47217540,-0.505,0.302,0.742,-23.327,-10.202,4.725
47217550,-0.409,0.299,0.769,-24.132,0.542,11.322
47217560,-0.379,0.382,0.732,-27.422,20.51,18.585
47217570,-0.425,0.472,0.722,-38.045,51.082,27.545
47217580,-0.699,0.365,0.691,-52.587,73.92,36.785
47217580,-0.782,0.281,0.664,-55.335,74.322,38.675
47217600,-0.767,0.17,0.632,-44.59,60.987,30.467
47217600,-0.69,0.209,0.658,-26.46,46.812,22.277
47217620,-0.743,0.24,0.652,-12.565,37.59,14.507
47217620,-0.749,0.242,0.631,-1.085,24.92,6.58
47217640,-0.71,0.293,0.606,11.2,13.527,-0.595
47217640,-0.787,0.311,0.611,20.615,8.102,-8.207
47217660,-0.847,0.3,0.631,26.635,0.927,-14.052
47217660,-0.957,0.214,0.609,32.41,-17.36,-20.282
47217670,-0.727,0.257,0.627,49.77,-48.195,-35.14
47217680,-0.623,0.341,0.713,64.015,-58.572,-47.425
47217690,-0.6,0.316,0.714,65.152,-60.112,-52.762
47217700,-0.559,0.352,0.705,63.087,-53.865,-48.3
47217710,-0.615,0.376,0.68,54.197,-41.545,-41.475
47217720,-0.643,0.382,0.648,41.212,-33.25,-32.62
47217730,-0.652,0.423,0.631,26.39,-26.652,-21.437
47217740,-0.699,0.448,0.633,9.065,-17.92,-7.28
47217750,-0.831,0.369,0.645,-8.61,-16.782,5.477
47217760,-0.707,0.309,0.661,-17.412,-28.98,11.83
47217770,-0.597,0.315,0.693,-16.817,-34.317,17.955
47217780,-0.478,0.333,0.735,-18.007,-27.282,22.96
47217790,-0.371,0.383,0.749,-23.835,-9.065,31.342
47217800,-0.474,0.393,0.714,-34.965,25.847,41.615
47217810,-0.542,0.35,0.675,-44.66,48.772,47.477
47217820,-0.71,0.284,0.643,-47.197,59.517,49.122
47217830,-0.808,0.216,0.649,-37.24,49.577,41.352
47217840,-0.8,0.227,0.648,-19.565,27.387,29.242
47217850,-0.652,0.363,0.663,-3.132,8.102,14.98
47217860,-0.704,0.368,0.677,1.4,4.322,7.21
47217870,-0.746,0.315,0.638,3.185,-2.292,1.575
47217880,-0.69,0.343,0.64,9.537,-9.397,-3.937
47217890,-0.748,0.326,0.658,13.317,-11.882,-9.082
47217900,-0.838,0.226,0.644,18.182,-23.555,-15.54
47217910,-0.671,0.255,0.653,34.037,-45.535,-27.527
47217920,-0.623,0.34,0.71,47.425,-49.787,-35.175
47217930,-0.681,0.327,0.711,49.385,-53.585,-39.392
47217940,-0.584,0.373,0.715,45.955,-56.752,-39.427
47217950,-0.613,0.35,0.681,37.957,-52.622,-33.932
47217960,-0.51,0.393,0.668,29.995,-43.925,-27.265
47217970,-0.589,0.431,0.678,18.445,-27.002,-15.925
47217980,-0.598,0.43,0.686,3.902,-13.737,-5.407
47217990,-0.678,0.401,0.707,-11.935,-7.14,5.6
47218000,-0.588,0.341,0.719,-22.557,-9.922,13.51
47218010,-0.52,0.355,0.724,-25.567,-6.702,22.172
47218010,-0.389,0.43,0.712,-29.26,8.557,28.385
47218030,-0.494,0.451,0.692,-41.65,38.377,39.392
47218030,-0.638,0.328,0.67,-52.325,56.857,44.817
47218050,-0.623,0.321,0.672,-51.607,62.072,46.182
47218050,-0.68,0.329,0.69,-48.912,60.742,43.452
47218070,-0.74,0.221,0.696,-45.85,51.345,37.695
47218070,-0.682,0.284,0.701,-31.237,39.357,25.812
47218080,-0.748,0.261,0.669,-19.67,28.892,15.977
47218090,-0.71,0.279,0.641,-10.027,14.14,7.962
47218100,-0.753,0.311,0.628,0.332,5.495,2.135
47218110,-0.751,0.315,0.631,9.222,-4.217,-7.087
47218120,-0.751,0.312,0.629,16.415,-11.812,-15.942
47218130,-0.771,0.286,0.65,23.94,-19.162,-23.782
47218140,-0.866,0.183,0.638,33.652,-34.772,-31.71
47218150,-0.724,0.227,0.67,53.375,-64.47,-44.502
47218160,-0.508,0.387,0.713,66.92,-75.197,-54.092
47218170,-0.55,0.4,0.728,61.635,-62.527,-53.585
47218180,-0.627,0.367,0.714,50.085,-52.08,-46.69
47218190,-0.502,0.382,0.672,39.025,-45.22,-39.567
47218200,-0.542,0.431,0.673,28.927,-26.18,-27.877
47218210,-0.676,0.405,0.682,16.397,-14.595,-17.342
47218220,-0.614,0.432,0.685,2.87,-10.027,-7.84
47218230,-0.679,0.374,0.691,-10.937,-7.385,3.692
47218240,-0.562,0.353,0.716,-20.405,-10.36,13.212
47218250,-0.518,0.357,0.728,-28.455,-8.522,27.247
47218260,-0.459,0.398,0.692,-35.595,2.222,38.447
47218270,-0.426,0.502,0.695,-46.007,28.84,47.88
47218280,-0.645,0.323,0.67,-59.535,49.087,53.865
47218290,-0.685,0.313,0.657,-57.522,53.812,53.69
47218300,-0.707,0.307,0.673,-48.912,50.295,47.162
47218310,-0.792,0.23,0.695,-41.352,38.92,37.38
47218320,-0.746,0.188,0.7,-27.142,19.477,24.08
47218330,-0.62,0.316,0.713,-7.822,8.155,10.115
47218330,-0.697,0.263,0.682,-1.802,4.235,1.907
47218350,-0.729,0.256,0.639,7.07,-4.9,-4.9
47218350,-0.722,0.325,0.653,20.947,-11.27,-14.262
47218370,-0.823,0.286,0.647,26.67,-18.305,-23.38
47218370,-0.872,0.223,0.636,37.782,-39.812,-33.652
47218390,-0.645,0.299,0.69,55.177,-64.925,-45.92
47218390,-0.602,0.357,0.727,63.63,-69.072,-51.8
47218410,-0.572,0.335,0.717,63.455,-70.91,-53.2
47218410,-0.511,0.398,0.734,58.415,-66.5,-48.58
47218420,-0.556,0.375,0.713,45.395,-58.38,-39.707
47218430,-0.616,0.342,0.704,37.957,-55.282,-28.42
47218440,-0.635,0.402,0.692,29.207,-53.147,-17.307
47218450,-0.67,0.391,0.684,19.722,-55.44,-9.187
47218460,-0.633,0.413,0.674,10.85,-57.785,-1.522
47218470,-0.539,0.486,0.681,-1.067,-53.112,9.292
47218480,-0.591,0.508,0.717,-20.86,-37.852,26.74
47218490,-0.669,0.371,0.727,-42.84,-36.96,43.067
47218500,-0.472,0.307,0.743,-51.607,-40.985,51.17
47218510,-0.333,0.343,0.738,-46.9,-27.965,54.18
47218520,-0.186,0.504,0.729,-50.54,6.125,55.51
47218530,-0.39,0.432,0.742,-64.155,48.3,61.302
47218540,-0.603,0.282,0.749,-65.537,72.065,62.195
47218550,-0.639,0.265,0.742,-52.535,73.377,59.395
47218560,-0.709,0.25,0.734,-38.92,63.087,48.51
47218570,-0.725,0.255,0.764,-28.42,41.545,34.58
47218580,-0.705,0.196,0.791,-18.637,13.02,19.127
47218590,-0.478,0.249,0.759,-0.857,-7.42,4.585
47218600,-0.445,0.346,0.743,11.637,-4.042,-4.13
47218610,-0.654,0.315,0.719,13.09,3.605,-9.065
47218620,-0.69,0.329,0.704,17.412,-0.07,-15.855
47218630,-0.758,0.335,0.708,22.207,-7.402,-21.035
47218640,-0.829,0.226,0.696,26.757,-29.277,-30.257
47218650,-0.59,0.284,0.741,41.352,-53.882,-42.35
47218660,-0.571,0.308,0.771,50.697,-64.452,-51.205
47218670,-0.459,0.305,0.745,51.642,-67.847,-56.052
47218680,-0.506,0.359,0.754,52.36,-57.925,-55.125
47218690,-0.609,0.373,0.756,50.907,-53.095,-53.55
47218700,-0.491,0.407,0.725,43.085,-52.745,-48.947
47218710,-0.499,0.474,0.7,31.867,-44.152,-35.367
47218720,-0.546,0.525,0.679,10.762,-27.72,-18.445
47218730,-0.752,0.469,0.691,-10.797,-15.96,0.402
47218740,-0.748,0.35,0.708,-23.52,-28.507,9.677
47218750,-0.498,0.358,0.75,-25.41,-43.4,16.712
47218760,-0.456,0.323,0.785,-30.205,-43.365,25.952
47218760,-0.342,0.277,0.812,-32.567,-35.21,28.84
47218780,-0.271,0.286,0.848,-28.262,-17.815,28.997
47218780,-0.176,0.404,0.756,-27.177,6.37,29.312
47218800,-0.23,0.507,0.766,-34.93,52.64,41.055
47218800,-0.597,0.375,0.774,-48.405,83.492,47.32
47218820,-0.629,0.307,0.719,-47.075,88.917,51.817
47218820,-0.814,0.297,0.72,-38.745,81.007,44.905
47218830,-0.877,0.206,0.765,-29.015,51.257,27.597
47218840,-0.679,0.221,0.778,-12.827,11.007,7.595
47218850,-0.464,0.281,0.761,3.202,-10.08,-4.917
47218860,-0.487,0.317,0.752,11.305,-7.787,-10.255
47218870,-0.576,0.307,0.744,15.837,-2.992,-15.435
47218880,-0.673,0.319,0.739,20.492,-4.147,-19.232
47218890,-0.763,0.247,0.726,27.09,-21.175,-26.337
47218900,-0.617,0.278,0.74,41.142,-44.852,-38.412
47218910,-0.477,0.37,0.785,49.752,-51.432,-44.852
47218920,-0.612,0.354,0.761,45.535,-47.442,-43.452
47218930,-0.511,0.348,0.74,37.8,-52.78,-41.545
47218940,-0.436,0.399,0.747,32.147,-44.852,-33.985
47218950,-0.544,0.399,0.722,22.767,-28.665,-22.067
47218960,-0.564,0.443,0.705,9.537,-18.935,-11.707
47218970,-0.655,0.438,0.75,-5.232,-13.965,2.257
47218980,-0.629,0.4,0.748,-23.012,-22.89,16.1
47218990,-0.467,0.379,0.748,-30.905,-29.715,27.912
47219000,-0.386,0.377,0.76,-37.712,-20.895,34.177
47219010,-0.197,0.517,0.705,-46.707,3.307,40.687
47219020,-0.447,0.485,0.735,-61.6,45.552,53.76
47219030,-0.66,0.316,0.769,-71.662,57.575,57.68
47219040,-0.452,0.321,0.778,-64.47,55.317,59.342
47219050,-0.657,0.215,0.813,-56.665,62.002,53.777
47219060,-0.643,0.158,0.801,-44.642,50.505,36.102
47219070,-0.582,0.2,0.839,-27.107,27.23,18.9
47219080,-0.465,0.096,0.829,-12.075,5.687,5.092
47219080,-0.303,0.246,0.782,8.295,6.545,-3.15
47219100,-0.583,0.291,0.783,17.71,21.822,-7.35
47219100,-0.7,0.297,0.729,20.072,20.195,-13.212
47219120,-0.764,0.355,0.727,26.162,11.182,-16.642
47219120,-0.87,0.231,0.737,28.455,-9.852,-21.77
47219140,-0.574,0.235,0.715,40.477,-39.865,-33.04
47219140,-0.481,0.348,0.759,49.035,-46.322,-38.185
47219160,-0.537,0.335,0.785,42.98,-41.895,-38.202
47219160,-0.605,0.343,0.763,37.537,-37.905,-33.722
47219170,-0.614,0.345,0.723,34.037,-44.502,-32.427
47219180,-0.429,0.384,0.729,30.695,-46.2,-31.01
47219190,-0.529,0.427,0.729,24.535,-31.237,-22.33
47219200,-0.572,0.455,0.738,12.425,-20.195,-13.212
47219210,-0.612,0.398,0.742,-0.402,-17.272,-4.322
47219220,-0.595,0.346,0.752,-8.067,-20.405,1.47
47219230,-0.468,0.346,0.797,-11.042,-24.552,5.022
47219240,-0.414,0.325,0.804,-15.4,-21.227,11.882
47219250,-0.368,0.304,0.804,-18.06,-14.052,18.865
47219260,-0.319,0.319,0.82,-17.937,-0.77,23.59
47219270,-0.36,0.332,0.807,-19.057,12.827,28.227
47219280,-0.191,0.499,0.756,-23.695,35.91,36.277
47219290,-0.492,0.545,0.742,-42.192,80.01,56.63
47219300,-0.768,0.361,0.695,-60.83,97.93,67.725
47219310,-0.772,0.21,0.681,-57.96,85.592,67.322
47219320,-0.784,0.3,0.731,-44.502,67.34,53.935
47219330,-0.735,0.17,0.753,-35.857,41.002,33.495
47219340,-0.568,0.214,0.811,-17.552,14.28,16.905
47219350,-0.463,0.242,0.801,-1.365,-1.89,6.615
47219360,-0.505,0.28,0.742,9.047,-2.17,-4.357
47219370,-0.649,0.351,0.739,22.015,1.295,-15.645
47219380,-0.709,0.362,0.726,26.232,-3.272,-24.167
47219390,-0.919,0.192,0.69,32.602,-26.425,-31.797
47219400,-0.654,0.229,0.716,55.23,-66.885,-51.152
47219410,-0.546,0.366,0.802,71.015,-82.81,-64.54
47219420,-0.527,0.319,0.789,68.215,-89.687,-70.402
47219430,-0.176,0.404,0.782,58.677,-77.945,-64.417
47219440,-0.531,0.386,0.729,46.69,-44.87,-47.39
47219450,-0.51,0.377,0.738,34.877,-33.547,-38.325
47219460,-0.484,0.477,0.722,23.24,-17.692,-24.045
47219470,-0.718,0.492,0.712,1.452,-5.617,-3.972
47219480,-0.751,0.428,0.735,-22.067,-16.187,14
47219490,-0.548,0.399,0.769,-37.135,-31.535,28.245
47219500,-0.414,0.308,0.759,-45.045,-30.992,40.39
47219510,-0.058,0.45,0.735,-44.012,-6.545,44.257
47219510,-0.299,0.46,0.769,-54.32,46.2,58.607
47219530,-0.498,0.287,0.787,-62.79,74.532,61.915
47219530,-0.538,0.257,0.777,-53.217,82.127,64.067
47219550,-0.533,0.251,0.775,-43.645,75.687,55.037
47219550,-0.602,0.291,0.79,-36.26,70.875,46.392
47219570,-0.753,0.175,0.778,-28.332,56.735,30.467
47219570,-0.697,0.242,0.802,-8.155,29.732,10.937
47219580,-0.526,0.263,0.733,8.645,6.825,-3.762
47219590,-0.562,0.327,0.747,20.037,0.927,-15.767
47219600,-0.673,0.341,0.742,26.075,-0.7,-23.66
47219610,-0.774,0.286,0.759,31.447,-12.215,-31.412
47219620,-0.753,0.146,0.721,45.762,-42.14,-44.94
47219630,-0.485,0.311,0.762,66.745,-66.395,-60.235
47219640,-0.59,0.364,0.807,68.775,-73.552,-66.027
47219650,-0.431,0.374,0.755,57.505,-79.957,-65.152
47219660,-0.427,0.402,0.736,46.602,-62.072,-52.955
47219670,-0.624,0.416,0.732,39.515,-41.965,-39.812
47219680,-0.588,0.384,0.702,26.67,-37.572,-32.742
47219690,-0.585,0.409,0.705,20.282,-32.445,-23.747
47219700,-0.6,0.438,0.729,10.832,-28.717,-14.017
47219710,-0.539,0.448,0.73,-4.795,-27.247,-2.205
47219720,-0.549,0.397,0.773,-17.797,-25.2,10.885
47219730,-0.4,0.37,0.793,-26.46,-27.02,21.542
47219740,-0.326,0.335,0.801,-31.272,-18.13,31.045
47219750,-0.233,0.371,0.79,-33.495,-0.07,37.047
47219760,-0.107,0.475,0.768,-40.967,39.672,48.09
47219770,-0.404,0.42,0.762,-55.16,90.265,65.59
47219780,-0.593,0.368,0.733,-65.345,113.242,76.597
47219790,-0.723,0.261,0.705,-66.78,113.732,80.605
47219800,-0.811,0.233,0.733,-57.05,95.865,66.832
47219810,-0.864,0.143,0.741,-42.542,62.457,43.645
47219820,-0.75,0.127,0.81,-13.492,19.705,11.585
47219830,-0.392,0.308,0.763,12.582,-12.635,-9.45
47219830,-0.488,0.337,0.764,22.435,-6.422,-19.092
47219850,-0.73,0.311,0.748,25.55,-1.907,-24.622
47219850,-0.778,0.215,0.708,34.702,-25.847,-38.99
47219870,-0.643,0.253,0.717,56.997,-55.527,-58.222
47219870,-0.546,0.342,0.808,77.332,-72.257,-74.252
47219890,-0.571,0.317,0.777,81.497,-84.14,-81.392
47219890,-0.336,0.428,0.791,76.597,-85.645,-80.01
47219910,-0.503,0.446,0.763,61.862,-65.012,-65.327
47219910,-0.528,0.415,0.692,43.732,-47.792,-48.877
47219920,-0.523,0.456,0.64,28.087,-21.682,-32.655
47219930,-0.828,0.422,0.709,12.495,-8.89,-15.365
47219940,-0.657,0.394,0.721,-4.392,-21.262,-2.712
47219950,-0.584,0.386,0.768,-13.195,-29.067,8.645
47219960,-0.413,0.366,0.821,-22.312,-31.342,20.667
47219970,-0.334,0.309,0.808,-30.975,-24.465,30.852
47219980,-0.222,0.297,0.83,-29.645,-6.475,33.302
47219990,-0.202,0.283,0.813,-24.605,17.972,32.795
47220000,0.03,0.486,0.699,-22.4,54.075,34.072
47220010,-0.263,0.665,0.722,-38.832,126.42,56.752
47220020,-1.023,0.367,0.705,-66.745,153.93,77
47220030,-1.048,0.232,0.639,-68.81,117.617,82.46
47220040,-0.878,0.25,0.673,-49.105,75.162,59.307
47220050,-0.735,0.265,0.784,-29.417,43.54,29.12
47220060,-0.603,0.158,0.806,-14.542,11.462,7.612
47220070,-0.281,0.233,0.785,8.26,-3.832,-7.28
47220080,-0.424,0.318,0.782,25.97,9.817,-17.5
47220090,-0.624,0.345,0.741,33.162,20.562,-28.385
47220100,-0.861,0.275,0.704,37.992,13.195,-35.717
47220110,-0.885,0.159,0.648,53.952,-22.995,-48.16
47220120,-0.579,0.369,0.688,78.435,-54.25,-64.75
47220130,-0.59,0.422,0.726,77.647,-62.86,-69.877
47220140,-0.623,0.464,0.71,59.885,-56.192,-59.692
47220150,-0.647,0.408,0.665,39.83,-50.575,-43.4
47220160,-0.737,0.367,0.667,27.737,-48.755,-28.787
47220170,-0.607,0.376,0.692,20.44,-54.495,-22.382
47220180,-0.557,0.389,0.711,13.492,-52.447,-14.332
47220190,-0.576,0.377,0.73,6.3,-52.045,-5.127
47220200,-0.451,0.434,0.749,-1.05,-49.28,1.435
47220210,-0.454,0.412,0.778,-10.57,-38.202,9.765
47220220,-0.432,0.382,0.781,-20.247,-29.505,18.865
47220230,-0.427,0.37,0.773,-27.107,-22.487,26.425
47220240,-0.419,0.349,0.797,-29.225,-13.02,32.375
47220250,-0.389,0.366,0.813,-26.477,-0.875,38.622
47220260,-0.336,0.414,0.769,-27.58,13.177,42.77
47220260,-0.389,0.481,0.774,-36.75,39.147,49.945
47220270,-0.614,0.362,0.763,-47.652,58.222,57.277
47220280,-0.63,0.288,0.71,-47.285,53.987,58.327
47220290,-0.574,0.304,0.717,-36.907,47.985,50.575
47220300,-0.586,0.337,0.754,-29.452,46.497,39.48
47220310,-0.612,0.26,0.775,-25.445,38.29,30.292
47220320,-0.582,0.277,0.757,-16.31,27.615,21.7
47220330,-0.581,0.275,0.755,-5.425,19.425,10.377
47220340,-0.575,0.303,0.741,5.6,12.25,-0.367
47220350,-0.613,0.357,0.723,14.227,7.122,-9.012
47220360,-0.682,0.345,0.69,17.622,2.012,-17.797
47220370,-0.686,0.353,0.692,21.49,-7.822,-24.482
47220380,-0.766,0.32,0.702,25.06,-18.742,-27.947
47220390,-0.728,0.274,0.703,33.407,-42.402,-38.185
47220400,-0.463,0.367,0.746,46.217,-57.96,-50.242
47220410,-0.46,0.383,0.783,49.84,-50.102,-55.037
47220420,-0.502,0.354,0.781,45.045,-39.865,-54.337
47220430,-0.571,0.354,0.771,38.622,-37.222,-48.65
47220440,-0.488,0.351,0.746,34.545,-40.442,-43.627
47220450,-0.511,0.389,0.73,30.94,-30.555,-35.315
47220460,-0.663,0.362,0.722,26.18,-24.237,-29.522
47220470,-0.6,0.396,0.705,22.977,-28.07,-24.342
47220480,-0.635,0.403,0.714,17.64,-31.85,-18.252
47220490,-0.505,0.443,0.708,9.975,-33.11,-11.182
47220500,-0.583,0.426,0.74,-0.087,-24.815,-1.715
47220510,-0.554,0.359,0.756,-7.577,-25.48,5.18
47220520,-0.413,0.372,0.785,-7.472,-25.725,9.625
47220530,-0.379,0.352,0.808,-7.91,-18.55,13.16
47220540,-0.348,0.334,0.82,-7.49,-8.505,14.7
47220550,-0.328,0.387,0.825,-7.052,4.13,17.412
47220560,-0.407,0.38,0.793,-13.02,16.677,24.727
47220570,-0.45,0.37,0.768,-17.517,25.112,30.17
47220580,-0.351,0.506,0.705,-23.572,42.28,36.802
47220580,-0.767,0.453,0.687,-39.427,66.587,50.05
47220600,-0.912,0.316,0.678,-47.635,52.955,48.317
47220600,-0.681,0.318,0.681,-38.727,24.482,38.85
47220620,-0.569,0.348,0.751,-29.382,12.25,26.915
47220620,-0.529,0.26,0.797,-25.567,5.757,16.222
47220640,-0.468,0.237,0.8,-14.962,-0.28,7.577
47220640,-0.397,0.243,0.801,0.997,-0.56,-3.64
47220660,-0.451,0.31,0.775,14.7,8.207,-12.67
47220660,-0.629,0.331,0.726,21.507,13.965,-21.717
47220670,-0.725,0.367,0.694,27.405,8.295,-30.642
47220680,-0.907,0.292,0.688,33.197,-10.395,-37.17
47220690,-0.664,0.328,0.701,47.197,-46.585,-52.185
47220700,-0.443,0.412,0.765,57.05,-55.527,-61.792
47220710,-0.436,0.416,0.808,51.38,-46.62,-62.562
47220720,-0.245,0.467,0.736,37.257,-27.912,-47.967
47220730,-0.577,0.403,0.716,22.225,0.35,-27.667
47220740,-0.586,0.402,0.728,12.18,8.365,-18.322
47220750,-0.59,0.433,0.739,1.855,11.147,-9.292
47220760,-0.613,0.396,0.734,-10.465,11.375,2.187
47220770,-0.506,0.398,0.767,-18.025,7.962,11.007
47220780,-0.504,0.349,0.778,-25.742,10.552,20.265
47220790,-0.444,0.293,0.771,-26.722,14.857,19.792
47220800,-0.373,0.314,0.769,-19.407,25.165,14.682
47220810,-0.305,0.449,0.739,-18.375,46.077,16.415
47220820,-0.744,0.359,0.714,-30.117,70.962,22.82
47220830,-0.743,0.287,0.699,-30.87,58.642,18.462
47220840,-0.57,0.358,0.713,-21.122,42.735,14.63
47220850,-0.506,0.377,0.73,-18.27,41.142,11.777
47220860,-0.692,0.265,0.698,-16.712,41.772,7.962
47220870,-0.654,0.276,0.675,-2.52,29.067,-0.595
47220880,-0.691,0.341,0.67,11.13,18.445,-7.612
47220890,-0.741,0.354,0.661,14.822,8.347,-14.455
47220900,-0.81,0.337,0.644,17.307,-2.59,-17.552
47220910,-0.812,0.327,0.65,21.052,-16.87,-20.965
47220920,-0.822,0.228,0.651,29.032,-40.617,-28.822
47220930,-0.481,0.356,0.728,44.38,-63.682,-39.235
47220940,-0.428,0.426,0.801,46.375,-53.865,-42.595
47220940,-0.48,0.402,0.776,34.265,-35.875,-37.73
47220960,-0.535,0.374,0.706,20.965,-22.522,-26.95
47220960,-0.609,0.397,0.683,11.235,-14.682,-14.857
47220980,-0.669,0.414,0.699,0.682,-12.67,-4.672
47220980,-0.665,0.384,0.693,-9.59,-15.96,4.235
47221000,-0.56,0.377,0.724,-15.417,-20.475,11.322
47221000,-0.483,0.362,0.764,-21.07,-19.6,18.882
47221010,-0.456,0.345,0.774,-25.865,-13.405,26.337
47221020,-0.389,0.356,0.79,-27.265,-1.872,31.062
47221030,-0.31,0.371,0.733,-27.825,14.315,34.895
47221040,-0.302,0.605,0.729,-37.362,49.49,45.167
47221050,-0.7,0.377,0.714,-58.205,74.9,55.947
47221060,-0.804,0.269,0.66,-62.702,71.697,61.145
47221070,-0.883,0.193,0.653,-50.26,46.97,47.845
47221080,-0.728,0.257,0.729,-28.175,19.67,25.252
47221090,-0.688,0.27,0.721,-13.457,0.437,6.842
47221100,-0.583,0.288,0.704,1.172,-10.78,-6.317
47221110,-0.627,0.331,0.699,12.355,-11.025,-15.102
47221120,-0.692,0.303,0.691,17.132,-13.002,-23.187
47221130,-0.821,0.271,0.676,25.41,-20.965,-29.19
47221140,-0.764,0.208,0.685,41.877,-46.637,-45.412
47221150,-0.427,0.382,0.76,61.687,-65.17,-61.827
47221160,-0.425,0.442,0.787,62.002,-54.705,-65.362
47221170,-0.481,0.444,0.74,47.407,-38.43,-55.72
47221180,-0.634,0.408,0.684,28.91,-24.675,-38.657
47221190,-0.688,0.38,0.669,16.8,-21.91,-25.672
47221200,-0.627,0.358,0.666,9.555,-24.43,-15.225
47221210,-0.61,0.403,0.726,2.59,-24.517,-4.392
47221220,-0.564,0.334,0.767,-7.07,-23.94,3.57
47221230,-0.413,0.337,0.788,-11.602,-21.525,13.317
47221240,-0.396,0.321,0.79,-16.537,-11.62,24.272
47221250,-0.387,0.318,0.777,-18.952,0.14,27.947
47221260,-0.386,0.388,0.785,-17.657,15.837,30.905
47221270,-0.29,0.475,0.718,-22.872,33.932,38.167
47221280,-0.473,0.585,0.71,-42.542,73.325,57.102
47221290,-0.799,0.406,0.66,-67.27,90.125,75.25
47221300,-0.914,0.275,0.636,-76.317,74.095,85.522
47221310,-0.916,0.176,0.65,-67.83,43.015,73.395
47221320,-0.736,0.265,0.727,-43.557,16.765,46.042
47221330,-0.617,0.219,0.769,-22.837,-3.202,19.617
47221330,-0.451,0.285,0.764,-4.007,-14.84,4.795
47221350,-0.495,0.334,0.75,8.767,-9.712,-4.252
47221350,-0.633,0.336,0.726,15.4,-2.905,-12.057
47221370,-0.679,0.369,0.689,19.687,-4.305,-18.287
47221370,-0.813,0.298,0.657,21.56,-13.037,-22.26
47221390,-0.68,0.257,0.668,32.252,-37.8,-32.252
47221390,-0.582,0.334,0.736,46.952,-50.575,-41.212
47221410,-0.611,0.295,0.761,52.342,-57.032,-48.685
47221410,-0.56,0.324,0.757,57.54,-62.195,-52.815
47221420,-0.663,0.315,0.73,59.132,-62.807,-55.107
47221430,-0.552,0.352,0.702,58.642,-69.65,-54.53
47221440,-0.492,0.453,0.725,52.64,-70.997,-47.372
47221450,-0.392,0.507,0.702,36.47,-53.34,-35.175
47221460,-0.602,0.461,0.695,15.96,-27.895,-20.457
47221470,-0.592,0.465,0.751,-1.487,-19.862,-7.822
47221480,-0.565,0.398,0.757,-15.837,-19.967,5.67
47221490,-0.368,0.41,0.79,-21.84,-20.09,15.05
47221500,-0.335,0.334,0.784,-27.562,-8.907,24.937
47221510,-0.384,0.311,0.776,-27.772,3.412,28.892
47221520,-0.368,0.363,0.792,-23.397,17.202,28
47221530,-0.261,0.563,0.725,-28.927,38.64,36.067
47221540,-0.662,0.504,0.712,-55.51,73.43,60.515
47221550,-0.813,0.318,0.643,-76.02,70.577,76.107
47221560,-0.66,0.382,0.62,-74.602,62.982,84.437
47221570,-0.767,0.359,0.695,-73.272,59.517,79.117
47221580,-0.801,0.235,0.739,-69.86,43.19,66.482
47221590,-0.712,0.177,0.784,-53.112,17.815,45.36
47221600,-0.455,0.259,0.831,-28.892,-0.665,23.047
47221610,-0.446,0.23,0.838,-15.347,-4.06,9.362
47221620,-0.482,0.212,0.769,-2.555,-5.18,-3.377
47221630,-0.5,0.349,0.737,14.56,-0.07,-13.772
47221640,-0.683,0.34,0.707,17.447,4.077,-19.39
47221650,-0.777,0.331,0.701,17.92,-4.97,-21.49
47221660,-0.71,0.3,0.704,24.29,-24.92,-27.545
47221670,-0.507,0.355,0.755,32.515,-38.15,-34.86
47221670,-0.435,0.363,0.801,34.3,-34.09,-38.955
47221690,-0.484,0.332,0.787,31.202,-22.75,-34.16
47221690,-0.444,0.358,0.745,27.125,-17.482,-29.82
47221710,-0.438,0.382,0.753,22.12,-7.227,-23.782
47221710,-0.568,0.375,0.738,14.035,5.32,-15.137
47221730,-0.564,0.391,0.725,7.402,12.005,-9.415
47221730,-0.578,0.371,0.741,1.452,16.782,-5.285
47221750,-0.531,0.357,0.757,-3.255,18.147,-0.892
47221750,-0.494,0.35,0.761,-5.985,21.63,1.872
47221760,-0.431,0.355,0.781,-7.507,29.26,1.942
47221770,-0.418,0.367,0.789,-10.185,40.757,2.835
47221780,-0.417,0.385,0.794,-14.595,54.897,4.812
47221790,-0.429,0.374,0.776,-19.092,69.615,5.862
47221800,-0.377,0.401,0.764,-20.562,88.497,5.407
47221810,-0.483,0.423,0.763,-24.22,113.732,7.945
47221820,-0.671,0.542,0.796,-31.027,123.532,14.455
47221830,-0.599,0.355,0.754,-40.005,107.66,27.895
47221840,-0.6,0.383,0.746,-39.97,105.122,20.352
47221850,-0.642,0.36,0.738,-36.837,106.715,11.725
47221860,-0.636,0.345,0.702,-33.04,110.075,4.69
47221870,-0.66,0.349,0.675,-31.15,118.107,0.07
47221880,-0.643,0.346,0.662,-32.287,129.587,-1.75
47221890,-0.72,0.314,0.609,-34.632,144.287,-2.45
47221900,-0.801,0.278,0.559,-34.405,156.205,-6.422
47221910,-0.851,0.314,0.565,-33.075,156.327,-9.467
47221920,-0.937,0.335,0.568,-35.56,148.872,-10.972
47221930,-0.913,0.445,0.537,-37.065,127.522,-18.532
47221940,-1.148,0.383,0.413,-60.13,105.49,-2.975
47221950,-0.84,0.074,0.331,-68.792,83.44,0.63
47221960,-0.906,0.299,0.401,-51.782,64.155,-10.307
47221970,-0.91,0.345,0.426,-52.255,47.652,-8.417
47221980,-0.848,0.318,0.436,-61.495,34.895,-11.882
47221990,-0.857,0.312,0.461,-67.987,26.687,-7.472
47222000,-0.903,0.308,0.472,-75.635,23.152,-4.917
47222010,-0.887,0.347,0.492,-87.097,17.867,-4.007
47222020,-0.869,0.306,0.465,-101.395,10.045,-4.06
47222030,-0.931,0.228,0.442,-111.072,5.267,-3.99
47222040,-0.893,0.185,0.43,-109.287,1.207,0.595
47222050,-0.836,0.159,0.433,-100.8,-1.54,6.212
47222060,-0.822,0.138,0.425,-91.245,-0.787,14.717
47222070,-0.734,0.217,0.461,-80.727,1.26,19.897
47222080,-0.721,0.2,0.476,-79.415,5.705,24.447
47222080,-0.724,0.194,0.485,-82.88,10.43,29.575
47222100,-0.733,0.149,0.484,-85.05,12.985,35.892
47222100,-0.68,0.107,0.481,-85.96,18.532,42.507
47222120,-0.803,0.178,0.493,-87.727,27.877,49.42
47222120,-0.756,0.091,0.485,-85.452,29.802,43.715
47222140,-0.838,0.096,0.493,-71.225,30.24,40.845
47222140,-0.831,0.177,0.51,-63.087,28.21,42.595
47222160,-0.855,0.151,0.482,-62.842,26.792,39.392
47222160,-0.869,0.159,0.499,-62.912,24.167,37.17
47222170,-0.793,0.107,0.497,-63.91,22.855,37.03
47222180,-0.759,0.072,0.472,-58.047,30.17,39.182
47222190,-0.812,0.089,0.434,-44.957,33.88,47.355
47222200,-0.784,0.053,0.371,-24.815,28.822,54.862
47222210,-0.719,0.042,0.326,-1.715,25.935,59.097
47222220,-0.848,0.161,0.353,21.647,27.177,56.07
47222230,-0.912,0.13,0.295,41.142,12.985,44.817
47222240,-0.808,0.109,0.262,60.917,-4.917,35.56
47222250,-0.83,0.242,0.366,68.442,-3.062,28.91
47222260,-1.131,0.327,0.507,56.595,12.967,20.93
47222270,-1.311,0.295,0.549,38.867,11.62,21.367
47222280,-1.202,0.315,0.532,27.247,3.99,22.82
47222290,-1.101,0.262,0.488,17.937,3.675,20.212
47222300,-1.001,0.252,0.44,14.577,-0.07,14.822
47222310,-0.86,0.244,0.389,15.277,-11.06,9.66
47222320,-0.784,0.22,0.361,16.502,-19.425,7.35
47222330,-0.754,0.208,0.374,18.375,-23.397,9.59
47222340,-0.788,0.243,0.43,19.88,-20.195,14.42
47222350,-0.9,0.296,0.494,17.815,-15.592,18.48
47222360,-0.921,0.307,0.539,14.157,-13.842,19.67
47222370,-0.886,0.311,0.56,12.652,-13.072,17.377
47222380,-0.824,0.307,0.544,10.115,-10.15,15.977
47222390,-0.763,0.291,0.517,6.737,-7.385,18.095
47222400,-0.666,0.236,0.469,4.602,-2.905,22.767
47222410,-0.653,0.2,0.431,8.732,5.04,26.775
47222420,-0.676,0.192,0.421,17.902,10.342,31.36
47222420,-0.829,0.277,0.461,27.282,10.815,34.09
47222440,-1.1,0.443,0.5,26.897,4.235,32.847
47222440,-1.291,0.537,0.433,10.797,-13.195,25.655
47222460,-1.243,0.486,0.316,-10.045,-39.2,16.852
47222460,-1.037,0.413,0.32,-23.52,-63.437,12.477
47222480,-0.821,0.381,0.401,-29.242,-74.13,11.357
47222480,-0.73,0.315,0.513,-31.307,-71.575,9.905
47222500,-0.625,0.256,0.603,-30.187,-64.207,6.002
47222500,-0.576,0.228,0.664,-22.05,-51.432,2.275
47222510,-0.551,0.24,0.673,-12.162,-36.33,-1.435
47222520,-0.593,0.264,0.636,-2.117,-18.9,-3.08
47222530,-0.705,0.3,0.589,5.827,-2.38,-2.52
47222540,-0.791,0.329,0.53,8.697,7.91,-1.855
47222550,-0.863,0.35,0.482,7.822,9.1,-1.365
47222560,-0.893,0.371,0.457,2.782,4.217,-0.822
47222570,-0.915,0.37,0.457,-4.147,-6.457,-1.82
47222580,-0.92,0.374,0.476,-12.11,-19.442,-2.992
47222590,-0.921,0.349,0.49,-20.072,-33.215,-4.375
47222600,-0.869,0.304,0.505,-23.905,-44.52,-5.32
47222610,-0.781,0.272,0.532,-22.137,-50.242,-5.635
47222620,-0.69,0.253,0.557,-17.412,-46.865,-5.18
47222630,-0.736,0.237,0.589,-12.425,-39.76,-4.69
47222640,-0.685,0.248,0.609,-8.592,-35.157,-5.722
47222650,-0.678,0.265,0.617,-4.777,-28.35,-5.652
47222660,-0.718,0.268,0.607,-2.187,-17.85,-3.692
47222670,-0.735,0.29,0.576,1.26,-11.952,-3.325
47222680,-0.766,0.301,0.554,2.94,-9.677,-3.727
47222690,-0.815,0.309,0.532,3.605,-13.3,-4.707
47222700,-0.81,0.343,0.557,3.202,-17.955,-6.037
47222710,-0.847,0.322,0.563,-2.257,-22.295,-5.775
47222720,-0.811,0.297,0.561,-6.667,-28.857,-5.372
47222730,-0.793,0.29,0.583,-8.575,-32.62,-3.902
47222740,-0.743,0.258,0.582,-10.342,-31.972,-1.837
47222750,-0.705,0.238,0.609,-8.767,-27.65,-0.21
47222760,-0.679,0.236,0.614,-7.542,-20.352,0.192
47222770,-0.654,0.248,0.634,-4.375,-11.2,0.752
47222780,-0.644,0.269,0.634,-2.117,-0.91,1.47
47222790,-0.672,0.286,0.623,-2.152,8.592,4.13
47222800,-0.715,0.306,0.599,-2.8,16.047,6.982
47222810,-0.735,0.339,0.594,-4.042,19.845,7.822
47222820,-0.801,0.368,0.587,-9.467,24.885,9.887
47222830,-0.895,0.26,0.546,-17.43,23.31,10.22
47222830,-0.774,0.271,0.539,-13.142,11.392,6.545
47222850,-0.755,0.309,0.581,-6.562,8.207,3.675
47222850,-0.776,0.301,0.595,-5.005,7.857,0.647
47222870,-0.711,0.298,0.603,-3.657,6.212,-1.855
47222870,-0.655,0.254,0.533,-1.802,13.93,-5.32
47222890,-0.807,0.296,0.591,8.242,28.14,-8.61
47222890,-0.903,0.361,0.569,7.962,18.287,-10.71
47222910,-0.821,0.217,0.474,4.602,18.97,-16.572
47222910,-0.998,0.287,0.483,16.257,10.535,-18.392
47222920,-0.82,0.369,0.545,15.365,-14.402,-20.597
47222930,-0.69,0.333,0.542,6.58,-17.08,-16.642
47222940,-0.843,0.254,0.583,-1.155,-4.252,-10.307
47222950,-0.742,0.238,0.615,-4.34,-6.51,-7.822
47222960,-0.665,0.228,0.621,-6.982,-6.335,-4.935
47222970,-0.707,0.219,0.665,-9.66,-0.805,-1.05
47222980,-0.623,0.225,0.641,-11.97,6.195,1.872
47222990,-0.691,0.231,0.589,-11.532,19.32,5.722
47223000,-0.729,0.273,0.549,-8.977,27.457,7.507
47223010,-0.739,0.377,0.532,-8.732,33.18,8.662
47223020,-0.964,0.327,0.534,-19.25,37.222,11.445
47223030,-0.936,0.239,0.512,-22.89,26.355,8.662
47223040,-0.832,0.257,0.513,-15.96,15.295,4.917
47223050,-0.792,0.243,0.513,-12.057,7.472,1.942
47223060,-0.795,0.234,0.506,-5.757,1.732,0.577
47223070,-0.779,0.251,0.509,1.837,-3.43,-1.68
47223080,-0.826,0.25,0.51,7.892,-5.407,-2.922
47223090,-0.842,0.264,0.5,11.095,-9.765,-3.535
47223100,-0.895,0.238,0.513,12.845,-14.42,-4.515
47223110,-0.891,0.208,0.473,17.675,-23.677,-8.68
47223120,-0.717,0.255,0.504,29.452,-34.44,-15.277
47223130,-0.746,0.34,0.594,35.98,-29.767,-15.96
47223140,-0.811,0.344,0.65,25.305,-22.295,-11.76
47223150,-0.817,0.302,0.633,8.067,-19.355,-6.265
47223160,-0.716,0.196,0.561,-2.047,-13.72,-3.57
47223170,-0.792,0.243,0.584,0.787,-7.682,-0.56
47223170,-0.747,0.248,0.571,-2.327,-6.947,0.595
47223190,-0.787,0.269,0.56,-3.115,-3.517,2.205
47223190,-0.797,0.299,0.552,-5.897,-2.467,3.465
47223210,-0.789,0.287,0.56,-8.89,-2.642,3.657
47223210,-0.764,0.292,0.576,-11.042,-2.677,4.655
47223230,-0.72,0.29,0.609,-13.492,2.362,7.105
47223230,-0.806,0.235,0.589,-17.552,12.547,9.905
47223250,-0.758,0.232,0.542,-16.135,10.92,8.225
47223250,-0.726,0.266,0.552,-9.975,10.99,7.297
47223260,-0.773,0.271,0.542,-5.6,12.197,5.495
47223270,-0.744,0.313,0.56,-1.47,11.322,4.445
47223280,-0.809,0.275,0.55,-0.822,13.09,3.307
47223290,-0.824,0.271,0.536,2.275,10.395,0.962
47223300,-0.828,0.274,0.523,5.197,5.302,-1.61
47223310,-0.836,0.264,0.527,7.245,0.332,-3.43
47223320,-0.836,0.265,0.521,8.137,-3.185,-4.095
47223330,-0.861,0.238,0.501,8.925,-7.28,-4.865
47223340,-0.868,0.213,0.492,13.02,-13.265,-6.51
47223350,-0.732,0.183,0.448,22.505,-22.47,-11.182
47223360,-0.836,0.27,0.509,39.62,-20.247,-14.49
47223370,-0.8,0.379,0.628,40.967,-19.775,-16.485
47223380,-0.927,0.308,0.579,23.572,-19.197,-12.512
47223390,-0.776,0.305,0.535,9.922,-24.202,-8.505
47223400,-0.84,0.196,0.543,2.415,-19.022,-4.742
47223410,-0.739,0.236,0.561,3.185,-25.812,-1.155
47223420,-0.768,0.267,0.604,0.945,-24.36,0.892
47223430,-0.71,0.254,0.592,-4.077,-20.072,3.99
47223440,-0.717,0.274,0.604,-6.002,-11.952,6.86
47223450,-0.702,0.297,0.61,-7.612,-5.652,9.31
47223460,-0.696,0.326,0.606,-9.905,0.91,11.76
47223470,-0.717,0.321,0.604,-11.97,6.895,12.407
47223480,-0.668,0.353,0.594,-10.99,13.055,10.937
47223490,-0.752,0.431,0.606,-14.455,26.67,12.337
47223500,-0.937,0.221,0.538,-25.13,31.657,12.845
47223510,-0.716,0.235,0.514,-16.187,18.252,8.19
47223520,-0.699,0.287,0.555,-7.21,16.607,6.492
47223530,-0.777,0.224,0.547,-4.357,17.727,5.39
47223540,-0.763,0.268,0.544,4.165,15.627,4.042
47223550,-0.842,0.272,0.514,8.82,12.337,1.697
47223560,-0.879,0.279,0.495,13.597,6.702,-1.61
47223570,-0.986,0.249,0.477,16.922,-1.592,-5.582
47223580,-0.888,0.244,0.45,24.36,-19.967,-12.355
47223580,-0.856,0.278,0.499,33.915,-31.867,-18.882
47223600,-0.867,0.312,0.568,35.875,-33.39,-24.15
47223600,-0.831,0.361,0.613,26.145,-30.485,-23.397
47223620,-0.79,0.267,0.561,5.897,-27.51,-12.635
47223620,-0.783,0.208,0.568,-6.44,-23.292,-3.132
47223640,-0.71,0.198,0.58,-8.872,-20.072,0.962
47223640,-0.667,0.256,0.605,-9.135,-12.547,5.162
47223660,-0.706,0.289,0.601,-13.737,-3.692,10.465
47223660,-0.699,0.292,0.594,-16.607,3.185,12.845
47223670,-0.679,0.383,0.648,-18.235,15.732,15.4
47223680,-0.865,0.269,0.597,-29.522,28.927,19.88
47223690,-0.764,0.246,0.523,-28.315,24.99,17.185
47223700,-0.749,0.282,0.534,-19.512,23.957,12.81
47223710,-0.761,0.301,0.534,-12.705,22.26,9.957
47223720,-0.791,0.301,0.517,-7.875,18.935,7.612
47223730,-0.785,0.3,0.489,-1.942,12.985,4.515
47223740,-0.854,0.281,0.475,4.76,5.81,2.502
47223750,-0.862,0.274,0.495,10.552,-4.515,0.98
47223760,-0.892,0.274,0.543,12.162,-11.165,0.542
47223770,-0.847,0.185,0.518,12.057,-19.162,-1.505
47223780,-0.641,0.253,0.524,21.612,-24.36,-4.462
47223790,-0.822,0.294,0.597,23.537,-14.42,-3.867
47223800,-0.896,0.261,0.558,17.71,-12.372,-3.395
47223810,-0.84,0.331,0.545,15.767,-16.782,-4.515
47223820,-0.902,0.288,0.536,8.75,-18.462,-4.585
47223830,-0.841,0.254,0.514,6.282,-25.497,-5.792
47223840,-0.762,0.306,0.543,8.242,-28.595,-6.842
47223850,-0.78,0.283,0.562,4.69,-24.587,-5.18
47223860,-0.712,0.287,0.569,1.855,-21.542,-2.52
47223870,-0.747,0.302,0.595,-0.525,-16.31,0.262
47223880,-0.722,0.294,0.603,-3.5,-11.917,1.207
47223890,-0.715,0.309,0.614,-5.915,-6.965,2.572
47223900,-0.729,0.32,0.596,-11.025,-1.645,4.847
47223910,-0.75,0.295,0.582,-15.452,1.96,7.385
47223920,-0.653,0.332,0.564,-15.557,5.39,8.732
47223920,-0.808,0.403,0.594,-21.542,19.722,12.565
47223940,-0.954,0.209,0.559,-33.495,19.495,12.705
47223940,-0.717,0.198,0.546,-23.52,7.087,8.155
47223960,-0.631,0.282,0.575,-9.502,7.437,2.905
47223960,-0.734,0.282,0.584,-5.495,16.03,3.045
47223980,-0.778,0.263,0.557,-2.642,18.935,3.377
47223980,-0.846,0.272,0.529,4.392,18.305,-0.087
47224000,-0.871,0.29,0.48,12.022,9.835,-5.88
47224000,-0.914,0.333,0.518,16.012,-1.662,-9.922
47224010,-0.964,0.21,0.5,14.507,-16.922,-12.652
47224020,-0.812,0.182,0.448,25.235,-36.19,-18.287
47224030,-0.738,0.273,0.515,40.495,-44.782,-25.025
47224040,-0.81,0.276,0.531,43.05,-43.995,-27.65
47224050,-0.788,0.395,0.618,40.897,-32.445,-25.445
47224060,-0.848,0.331,0.618,19.232,-24.692,-14.402
47224070,-0.755,0.256,0.583,-0.822,-30.765,-5.652
47224080,-0.642,0.177,0.559,-3.097,-17.85,-3.972
47224090,-0.781,0.345,0.663,-0.84,-11.637,1.435
47224100,-0.641,0.257,0.601,-12.127,-10.92,4.147
47224110,-0.659,0.29,0.611,-12.845,-1.54,8.4
47224120,-0.701,0.305,0.615,-17.01,6.16,12.845
47224130,-0.68,0.36,0.585,-20.772,14.997,16.467
47224140,-0.889,0.277,0.549,-29.89,24.115,21.175
47224150,-0.768,0.261,0.527,-29.802,17.92,20.93
47224160,-0.863,0.221,0.538,-24.727,13.615,19.565
47224170,-0.705,0.235,0.539,-14.945,2.1,14.805
47224180,-0.752,0.292,0.577,-4.095,0.49,11.917
47224190,-0.801,0.26,0.542,1.312,-1.19,8.697
47224200,-0.831,0.307,0.543,9.957,-5.022,5.652
47224210,-0.858,0.317,0.566,12.057,-9.502,1.645
47224220,-0.81,0.3,0.566,11.112,-10.972,-1.505
47224230,-0.793,0.234,0.557,10.727,-13.037,-3.097
47224240,-0.773,0.181,0.584,17.272,-19.162,-6.335
47224250,-0.602,0.359,0.611,26.53,-21.192,-9.275
47224260,-0.81,0.408,0.625,15.452,-7.385,-4.252
47224270,-0.873,0.272,0.538,-1.067,-5.652,0.805
47224280,-0.786,0.322,0.559,-1.225,-9.572,0.455
47224290,-0.762,0.274,0.573,-5.46,-10.5,0.437
47224300,-0.72,0.272,0.591,-6.912,-9.555,2.45
47224310,-0.703,0.289,0.604,-7.77,-5.53,3.552
47224320,-0.717,0.294,0.61,-9.432,0.297,5.11
47224330,-0.711,0.306,0.595,-10.832,5.127,6.755
47224330,-0.731,0.368,0.592,-13.23,11.585,8.592
47224340,-0.813,0.314,0.564,-21.017,15.26,10.517
47224350,-0.747,0.297,0.552,-21.822,13.685,9.957
47224360,-0.78,0.292,0.558,-20.37,13.772,9.572
47224370,-0.829,0.244,0.579,-19.985,11.742,8.855
47224380,-0.713,0.196,0.572,-12.547,5.53,5.267
47224390,-0.722,0.287,0.593,-0.752,6.545,2.957
47224400,-0.819,0.242,0.543,2.17,7,0.752
47224410,-0.857,0.273,0.513,9.66,2.397,-2.082
47224420,-0.874,0.303,0.5,12.18,-5.705,-3.727
47224430,-0.952,0.276,0.528,9.957,-14.98,-4.095
47224440,-0.86,0.152,0.486,14.122,-30.73,-9.432
47224450,-0.55,0.358,0.627,33.04,-36.277,-16.607
47224460,-0.818,0.367,0.656,26.512,-19.757,-13.685
47224470,-0.812,0.282,0.573,10.78,-16.642,-8.785
47224480,-0.745,0.285,0.561,7.98,-17.92,-6.79
47224490,-0.731,0.326,0.58,4.812,-15.347,-4.987
47224500,-0.806,0.289,0.58,-4.48,-12.215,0.07
47224510,-0.68,0.282,0.6,-10.097,-13.632,4.042
47224520,-0.643,0.283,0.629,-16.152,-8.365,10.465
47224530,-0.691,0.268,0.593,-22.312,0.175,17.255
47224540,-0.766,0.402,0.598,-24.307,13.965,19.6
47224550,-1.045,0.189,0.548,-32.655,14.787,17.955
47224560,-0.693,0.206,0.53,-19.722,-3.272,12.67
47224570,-0.665,0.321,0.604,-6.597,-6.527,8.417
47224580,-0.733,0.274,0.602,-4.27,-3.885,5.705
47224590,-0.737,0.298,0.572,4.235,-3.097,1.785
47224600,-0.78,0.315,0.572,9.94,-3.22,-1.942
47224610,-0.81,0.328,0.576,11.095,-6.527,-4.06
47224620,-0.85,0.322,0.571,8.312,-9.345,-4.55
47224630,-0.814,0.256,0.565,6.965,-14.315,-7.14
47224640,-0.77,0.119,0.576,14.595,-21.157,-10.937
47224650,-0.493,0.277,0.614,32.9,-21.822,-13.685
47224660,-0.778,0.304,0.648,32.567,-8.067,-9.467
47224670,-0.79,0.2,0.571,28.595,-9.135,-8.627
47224670,-0.695,0.402,0.6,35.315,-7.472,-9.012
47224690,-0.862,0.362,0.562,20.247,-3.937,-4.602
47224690,-0.843,0.286,0.542,10.465,-8.89,-2.45
47224710,-0.713,0.328,0.581,11.795,-12.162,-3.675
47224710,-0.726,0.294,0.595,7.665,-8.925,-2.94
47224730,-0.706,0.307,0.618,5.337,-4.812,-1.89
47224730,-0.723,0.329,0.615,1.575,0.07,0.087
47224750,-0.768,0.323,0.602,-4.707,4.13,1.435
47224750,-0.748,0.301,0.585,-8.522,4.497,2.117
47224760,-0.737,0.305,0.579,-10.535,5.46,3.132
47224770,-0.719,0.295,0.577,-11.602,7.402,4.182
47224780,-0.726,0.287,0.588,-11.585,10.552,5.985
47224790,-0.703,0.304,0.571,-10.342,12.285,7.07
47224800,-0.745,0.425,0.578,-13.475,19.967,10.22
47224810,-0.928,0.316,0.538,-26.932,20.265,13.16
47224820,-0.818,0.288,0.54,-28.175,11.427,11.97
47224830,-0.742,0.267,0.547,-25.462,5.652,9.887
47224840,-0.75,0.271,0.577,-21.997,7.49,9.695
47224850,-0.818,0.256,0.598,-19.022,5.11,8.697
47224860,-0.731,0.241,0.595,-13.825,-0.507,5.967
47224870,-0.715,0.267,0.59,-6.142,-0.245,3.78
47224880,-0.751,0.253,0.564,-0.665,1.452,2.257
47224890,-0.778,0.298,0.562,5.81,0.297,1.207
47224900,-0.829,0.316,0.55,6.772,-3.097,0.472
47224910,-0.851,0.31,0.554,6.142,-9.485,-0.595
47224920,-0.817,0.261,0.562,5.985,-16.292,-2.03
47224930,-0.769,0.214,0.59,11.567,-21.402,-4.9
47224940,-0.674,0.22,0.604,22.242,-22.995,-9.362
47224950,-0.649,0.351,0.622,30.047,-15.89,-11.952
47224960,-0.776,0.373,0.599,21.595,-4.287,-8.872
47224970,-0.863,0.303,0.558,9.94,-2.607,-4.427
47224980,-0.754,0.279,0.546,9.205,-8.592,-5.74
47224990,-0.748,0.327,0.573,10.377,-9.205,-6.632
47225000,-0.818,0.333,0.575,3.745,-7.052,-4.375
47225010,-0.814,0.326,0.566,-3.797,-8.732,-2.45
47225020,-0.777,0.299,0.58,-9.66,-9.59,-0.98
47225030,-0.721,0.256,0.588,-12.145,-9.8,-0.052
47225030,-0.662,0.283,0.613,-9.52,-6.37,0.437
47225050,-0.658,0.305,0.619,-8.855,0.35,2.59
47225050,-0.683,0.313,0.611,-9.992,7.087,5.372
47225070,-0.664,0.373,0.589,-11.742,13.72,7.892
47225070,-0.802,0.411,0.595,-21.017,25.182,11.97
47225080,-0.895,0.27,0.55,-32.917,23.432,13.282
47225090,-0.723,0.286,0.542,-29.82,15.942,11.34
47225100,-0.808,0.218,0.544,-25.9,16.712,10.22
47225110,-0.827,0.214,0.587,-20.212,9.555,8.715
47225120,-0.692,0.201,0.584,-12.337,-0.367,5.95
47225130,-0.689,0.262,0.58,-2.52,2.1,4.217
47225140,-0.806,0.274,0.558,2.835,5.477,3.045
47225150,-0.85,0.313,0.554,5.635,2.485,2.432
47225160,-0.873,0.318,0.543,4.812,-3.185,0.49
47225170,-0.874,0.305,0.538,3.482,-10.237,-1.995
47225180,-0.842,0.216,0.558,5.11,-19.512,-5.652
47225190,-0.645,0.242,0.574,14.542,-25.69,-8.452
47225200,-0.714,0.261,0.582,20.125,-22.557,-7.857
47225210,-0.755,0.28,0.599,22.137,-18.795,-6.877
47225220,-0.824,0.294,0.568,20.597,-17.517,-5.862
47225230,-0.796,0.304,0.563,16.625,-20.072,-5.092
47225240,-0.767,0.314,0.585,13.23,-20.877,-4.707
47225250,-0.704,0.324,0.592,8.295,-19.302,-3.692
47225260,-0.747,0.329,0.61,2.66,-11.707,-1.295
47225270,-0.748,0.314,0.617,-3.325,-6.825,-0.157
47225280,-0.722,0.301,0.619,-6.247,-2.73,-0.577
47225290,-0.705,0.306,0.608,-6.667,0.77,-1.015
47225300,-0.718,0.322,0.604,-7.63,4.392,-0.192
47225310,-0.738,0.311,0.589,-9.642,5.652,1.54
47225320,-0.673,0.331,0.571,-10.517,8.225,2.905
47225330,-0.754,0.397,0.597,-16.94,18.672,7.385
47225340,-0.886,0.27,0.572,-29.907,20.195,10.797
47225350,-0.712,0.277,0.581,-28.507,14.91,9.8
47225360,-0.755,0.287,0.6,-28.087,18.62,9.467
47225370,-0.789,0.172,0.555,-30.555,21.315,8.61
47225380,-0.82,0.242,0.584,-22.05,19.6,5.74
47225390,-0.752,0.252,0.57,-16.94,10.622,7.175
47225400,-0.8,0.24,0.546,-14.192,6.667,4.672
47225410,-0.783,0.27,0.522,-4.777,0.98,1.96
47225420,-0.8,0.304,0.527,2.205,-3.762,-1.26
47225420,-0.805,0.288,0.541,4.06,-7.98,-1.662
47225440,-0.8,0.268,0.56,4.707,-11.322,-1.032
47225440,-0.795,0.232,0.577,5.88,-14.63,-0.91
47225460,-0.67,0.225,0.575,11.165,-20.09,-1.365
47225460,-0.696,0.311,0.624,17.01,-15.925,-0.455
47225480,-0.8,0.325,0.636,14.56,-9.712,-0.49
47225480,-0.777,0.337,0.602,11.147,-7.56,-1.68
47225500,-0.811,0.319,0.571,7.682,-6.685,-2.257
47225500,-0.774,0.288,0.552,4.812,-8.96,-2.24
47225510,-0.774,0.276,0.561,3.815,-9.975,-0.98
47225520,-0.792,0.259,0.565,1.925,-8.767,0.245
47225530,-0.782,0.265,0.578,0.42,-8.487,0.892
47225540,-0.753,0.257,0.577,-2.467,-7.297,1.837
47225550,-0.738,0.244,0.624,-3.045,-4.672,3.167
47225560,-0.718,0.247,0.604,-2.432,2.555,5.162
47225570,-0.761,0.258,0.59,-2.817,9.24,6.685
47225580,-0.753,0.238,0.555,-2.642,9.397,7.262
47225590,-0.734,0.227,0.532,1.172,9.782,6.387
47225600,-0.864,0.317,0.581,3.815,12.092,5.18
47225610,-0.766,0.332,0.566,2.397,3.01,6.282
47225620,-0.755,0.324,0.572,0.595,-2.31,6.807
47225630,-0.733,0.338,0.57,2.94,-6.545,5.915
47225640,-0.687,0.341,0.562,5.302,-9.415,4.847
47225650,-0.747,0.342,0.613,6.457,-7.437,2.345
47225660,-0.775,0.339,0.616,4.532,-4.235,0.542
47225670,-0.77,0.292,0.581,2.187,-3.78,-0.717
47225680,-0.763,0.259,0.562,3.202,-4.777,-1.295
47225690,-0.753,0.284,0.49,6.09,-9.852,-1.627
47225700,-0.78,0.324,0.54,7.332,-19.582,-0.945
47225710,-0.817,0.345,0.6,7,-20.142,-2.642
47225720,-0.896,0.301,0.661,2.135,-14.49,-3.762
47225730,-0.77,0.262,0.582,-3.045,-12.897,-4.042
47225740,-0.739,0.215,0.573,-4.55,-13.685,-2.625
47225750,-0.736,0.24,0.601,-2.975,-12.88,0.84
47225760,-0.735,0.273,0.59,-1.242,-9.537,1.995
47225760,-0.757,0.293,0.561,-1.242,-6.457,2.222
47225780,-0.779,0.301,0.576,-0.647,-5.757,2.082
47225780,-0.783,0.273,0.613,-0.297,-6.055,2.205
47225800,-0.714,0.309,0.612,1.12,-1.575,2.257
47225800,-0.743,0.282,0.612,-2.1,2.362,3.132
47225820,-0.618,0.23,0.575,-1.68,9.782,0.087
47225820,-0.722,0.327,0.615,1.837,17.57,0.822
47225830,-0.715,0.315,0.574,-1.225,13.422,5.985
47225840,-0.715,0.338,0.579,0.332,12.547,6.352
47225850,-0.764,0.343,0.57,2.782,11.182,4.742
47225860,-0.755,0.357,0.571,3.447,6.825,2.922
47225870,-0.78,0.337,0.609,1.662,4.252,1.435
47225880,-0.766,0.324,0.605,0.385,4.83,-0.35
47225890,-0.761,0.298,0.569,-1.155,5.512,-1.645
47225900,-0.781,0.264,0.548,-1.12,4.9,-1.61
47225910,-0.799,0.271,0.539,1.68,2.52,-1.68
47225920,-0.797,0.322,0.462,2.03,-0.665,-1.75
47225930,-0.914,0.312,0.509,-0.105,-13.475,-1.995
47225940,-0.84,0.345,0.626,1.015,-19.11,-3.675
47225950,-0.828,0.301,0.636,-3.29,-17.535,-6.335
47225960,-0.713,0.206,0.592,-7.735,-14.385,-5.862
47225970,-0.684,0.208,0.58,-3.167,-10.937,-4.182
47225980,-0.728,0.256,0.596,-0.752,-6.615,-0.577
47225990,-0.771,0.3,0.591,-0.805,-2.73,0.63
47226000,-0.79,0.325,0.558,-2.852,-0.822,0.35
47226010,-0.771,0.322,0.577,-4.935,-1.47,0.087
47226020,-0.749,0.302,0.62,-6.545,1.645,0.14
47226030,-0.712,0.288,0.618,-8.347,7.227,-0.192
47226040,-0.677,0.202,0.585,-12.232,14.42,-0.227
47226050,-0.743,0.264,0.592,-11.147,23.38,-0.805
47226060,-0.741,0.264,0.548,-8.837,19.687,4.182
47226070,-0.743,0.325,0.564,-4.9,16.45,4.795
47226080,-0.762,0.324,0.583,-2.485,16.625,4.917
47226090,-0.81,0.328,0.57,-3.57,16.957,2.275
47226100,-0.786,0.31,0.538,-1.75,12.32,1.96
47226110,-0.778,0.314,0.544,0.192,7.105,0.192
47226120,-0.789,0.313,0.554,2.135,4.41,-1.347
47226130,-0.802,0.296,0.527,2.992,2.082,-2.642
47226140,-0.81,0.295,0.519,4.655,-0.682,-4.095
47226150,-0.845,0.276,0.532,5.547,-4.445,-5.25
47226160,-0.855,0.244,0.512,7.437,-11.865,-7.07
47226170,-0.757,0.296,0.552,11.83,-21.962,-9.8
47226170,-0.822,0.286,0.601,12.705,-19.565,-11.217
47226190,-0.781,0.313,0.623,9.887,-14.49,-11.69
47226190,-0.819,0.24,0.567,1.015,-9.852,-7.752
47226210,-0.761,0.235,0.55,-2.152,-10.412,-4.777
47226210,-0.78,0.241,0.571,-2.782,-9.24,-2.817
47226230,-0.769,0.248,0.576,-3.15,-7.77,-2.205
47226230,-0.725,0.209,0.542,-3.64,-4.13,-2.607
47226250,-0.777,0.321,0.588,-2.625,4.042,-3.867
47226250,-0.73,0.337,0.597,-5.617,1.61,1.802
47226260,-0.699,0.339,0.612,-12.267,3.062,5.32
47226270,-0.69,0.353,0.657,-18.06,16.502,8.452
47226280,-0.849,0.237,0.553,-26.46,27.982,8.785
47226290,-0.726,0.323,0.532,-25.357,21.472,11.147
47226300,-0.882,0.208,0.506,-26.88,20.475,10.92
47226310,-0.724,0.251,0.524,-16.397,9.222,9.765
47226320,-0.762,0.28,0.539,-5.705,6.317,6.79
47226330,-0.756,0.248,0.502,1.347,-0.717,3.867
47226340,-0.811,0.302,0.549,10.57,-3.622,1.54
47226350,-0.891,0.297,0.566,10.132,-5.95,0.227
47226360,-0.861,0.269,0.539,9.537,-12.232,-2.292
47226370,-0.769,0.274,0.523,13.142,-19.582,-5.582
47226380,-0.752,0.275,0.535,18.445,-20.002,-8.225
47226390,-0.803,0.289,0.576,20.125,-17.92,-8.242
47226400,-0.788,0.304,0.575,16.52,-18.795,-7.21
47226410,-0.784,0.316,0.603,10.745,-16.03,-5.005
47226420,-0.833,0.236,0.567,2.485,-14.385,-2.117
47226430,-0.746,0.267,0.568,2.047,-16.502,-0.612
47226440,-0.78,0.281,0.595,-0.525,-12.862,0.892
47226450,-0.774,0.266,0.581,-5.057,-10.675,1.977
47226460,-0.75,0.277,0.573,-6.79,-8.347,2.467
47226470,-0.757,0.264,0.572,-7.805,-5.652,1.767
47226480,-0.735,0.3,0.599,-6.405,0.07,-0.56
47226490,-0.774,0.338,0.609,-5.53,1.557,-0.175
47226500,-0.724,0.331,0.567,-7.98,1.925,0.752
47226510,-0.779,0.371,0.571,-11.515,7.77,-0.91
47226510,-0.74,0.308,0.553,-13.825,11.847,1.767
47226530,-0.867,0.239,0.558,-16.257,13.93,2.012
47226530,-0.714,0.222,0.564,-10.202,4.34,2.887
47226550,-0.584,0.236,0.578,-1.767,6.492,2.38
47226550,-0.759,0.253,0.621,2.782,18.585,3.412
47226570,-0.747,0.274,0.602,3.57,19.862,3.92
47226570,-0.823,0.246,0.531,3.92,20.737,1.032
47226580,-0.833,0.302,0.511,7.595,17.115,-1.33
47226590,-0.899,0.301,0.508,7.052,10.377,-3.465
47226600,-0.908,0.288,0.516,5.407,1.592,-4.952
47226610,-0.888,0.221,0.505,4.69,-8.26,-7.455
47226620,-0.782,0.212,0.482,10.92,-18.515,-10.797
47226630,-0.752,0.266,0.499,19.442,-23.625,-12.897
47226640,-0.808,0.259,0.525,23.012,-23.66,-14.052
47226650,-0.801,0.269,0.546,26.477,-26.075,-16.117
47226660,-0.765,0.376,0.63,24.815,-23.065,-16.24
47226670,-0.855,0.356,0.636,9.765,-17.867,-9.66
47226680,-0.738,0.241,0.571,-3.377,-16.187,-4.83
47226690,-0.757,0.229,0.588,-2.502,-6.072,-5.145
47226700,-0.725,0.279,0.609,-2.677,-4.095,-1.82
47226710,-0.693,0.216,0.565,-7.735,-2.712,2.275
47226720,-0.732,0.265,0.579,-6.405,2.782,5.687
47226730,-0.744,0.321,0.59,-8.697,6.002,8.837
47226740,-0.754,0.314,0.582,-10.99,7.525,11.165
47226750,-0.734,0.373,0.613,-11.812,12.162,10.587
47226760,-0.834,0.336,0.596,-18.655,20.09,12.075
47226770,-0.763,0.279,0.557,-24.342,19.652,12.145
47226780,-0.742,0.281,0.559,-23.24,23.45,11.567
47226790,-0.822,0.203,0.514,-22.015,23.03,10.902
47226800,-0.736,0.256,0.514,-12.827,16.975,8.89
47226810,-0.834,0.244,0.497,-5.565,15.557,6.09
47226820,-0.841,0.262,0.476,0.805,8.907,3.552
47226830,-0.87,0.297,0.503,6.86,1.662,0.385
47226840,-0.915,0.253,0.516,7.77,-4.83,-2.94
47226850,-0.867,0.215,0.485,11.357,-15.872,-7.087
47226860,-0.792,0.266,0.494,19.11,-25.392,-10.972
47226870,-0.819,0.264,0.524,23.765,-28.227,-14.332
47226880,-0.846,0.26,0.539,26.407,-30.59,-16.94
47226890,-0.762,0.337,0.596,26.74,-32.532,-19.057
47226900,-0.798,0.341,0.63,15.872,-26.32,-14.455
47226910,-0.802,0.295,0.616,0.367,-18.532,-6.807
47226920,-0.749,0.181,0.571,-4.515,-6.685,-4.515
47226920,-0.721,0.264,0.576,-1.837,-4.025,-2.292
47226940,-0.716,0.26,0.559,-4.9,-3.622,0.577
47226940,-0.703,0.313,0.62,-4.427,2.922,3.43
47226960,-0.739,0.3,0.612,-10.447,15.592,8.067
47226960,-0.811,0.261,0.569,-16.537,26.477,10.202
47226980,-0.772,0.241,0.557,-17.85,20.02,10.5
47226980,-0.694,0.25,0.558,-14.297,20.177,9.957
47227000,-0.84,0.277,0.551,-12.757,25.077,9.782
47227000,-0.834,0.232,0.49,-12.46,16.135,9.73
47227010,-0.729,0.279,0.474,-3.692,5.005,7.822
47227020,-0.809,0.29,0.494,4.305,1.627,4.287
47227030,-0.85,0.314,0.548,8.995,-1.312,2.047
47227040,-0.924,0.273,0.534,7.262,-5.057,-0.525
47227050,-0.774,0.281,0.512,8.12,-14.682,-4.165
47227060,-0.872,0.249,0.52,10.412,-15.75,-5.565
47227070,-0.776,0.265,0.513,13.755,-22.802,-7.91
47227080,-0.81,0.3,0.556,17.43,-23.817,-9.625
47227090,-0.801,0.284,0.552,15.715,-25.812,-11.515
47227100,-0.753,0.323,0.589,14.122,-24.78,-11.637
47227110,-0.771,0.323,0.635,5.285,-19.005,-7.647
47227120,-0.822,0.247,0.615,-5.442,-10.22,-1.68
47227130,-0.713,0.216,0.571,-7.42,-6.737,-0.787
47227140,-0.728,0.235,0.564,-6.195,-1.977,1.137
47227150,-0.758,0.265,0.563,-6.632,0.735,4.462
47227160,-0.776,0.294,0.574,-8.417,2.642,6.335
47227170,-0.756,0.302,0.58,-11.252,4.305,7.315
47227180,-0.702,0.362,0.614,-16.835,10.255,11.445
47227190,-0.884,0.316,0.614,-28.892,20.492,17.465
47227200,-0.772,0.24,0.562,-33.477,17.29,15.365
47227210,-0.736,0.315,0.589,-26.617,19.81,12.232
47227220,-0.777,0.286,0.55,-28.175,21.105,10.15
47227230,-0.836,0.203,0.482,-26.757,18.427,9.555
47227240,-0.779,0.225,0.459,-15.575,12.88,6.737
47227250,-0.798,0.265,0.483,-3.745,9.24,3.132
47227260,-0.887,0.282,0.491,3.237,5.145,0.717
47227260,-0.837,0.286,0.494,6.527,-3.815,-2.8
47227280,-0.904,0.231,0.52,7.91,-8.96,-5.075
47227280,-0.842,0.166,0.475,12.407,-20.02,-7.997
47227300,-0.705,0.239,0.486,24.675,-28.175,-12.25
47227300,-0.83,0.27,0.561,30.257,-25.97,-14.035
47227320,-0.86,0.29,0.564,28.035,-29.26,-14.122
47227320,-0.777,0.33,0.624,21.63,-31.027,-13.86
47227330,-0.818,0.273,0.6,9.187,-24.535,-9.082
47227340,-0.745,0.263,0.589,2.502,-21.245,-5.792
47227350,-0.774,0.246,0.599,-0.542,-14.14,-2.625
47227360,-0.748,0.239,0.579,-2.712,-9.975,-0.787
47227370,-0.755,0.264,0.579,-2.852,-6.177,0.472
47227380,-0.754,0.287,0.575,-3.937,-3.045,1.417
47227390,-0.765,0.309,0.582,-6.265,-1.697,2.257
47227400,-0.736,0.315,0.593,-9.31,0.84,3.272
47227410,-0.725,0.318,0.624,-13.457,7.175,5.967
47227420,-0.787,0.292,0.619,-20.842,16.677,9.905
47227430,-0.766,0.27,0.585,-25.935,18.83,10.972
47227440,-0.753,0.274,0.573,-25.76,22.837,10.43
47227450,-0.794,0.257,0.538,-25.095,24.745,10.01
47227460,-0.827,0.185,0.463,-22.452,20.195,9.24
47227470,-0.761,0.223,0.46,-11.235,11.532,7.122
47227480,-0.807,0.247,0.488,-0.805,6.79,5.197
47227490,-0.851,0.255,0.494,6.492,-0.175,2.817
47227500,-0.85,0.256,0.526,11.935,-5.407,-0.28
47227510,-0.938,0.194,0.495,14.122,-12.985,-3.85
47227520,-0.779,0.239,0.485,21.77,-26.775,-8.697
47227530,-0.834,0.239,0.523,29.767,-30.362,-12.862
47227540,-0.831,0.261,0.516,35.647,-36.365,-18.077
47227550,-0.773,0.344,0.607,37.94,-39.2,-21.997
47227560,-0.794,0.405,0.702,27.055,-28.525,-19.25
47227570,-0.834,0.277,0.621,6.3,-15.54,-9.887
47227580,-0.716,0.214,0.569,-4.55,-15.627,-5.32
47227590,-0.703,0.203,0.59,-4.235,-8.102,-2.747
47227600,-0.721,0.28,0.605,-2.642,-5.547,1.102
47227610,-0.72,0.287,0.583,-6.37,-2.24,2.66
47227620,-0.712,0.343,0.617,-9.345,3.815,5.407
47227630,-0.797,0.323,0.646,-19.915,13.72,10.692
47227640,-0.765,0.279,0.618,-29.61,19.757,14.087
47227650,-0.775,0.263,0.583,-33.635,23.712,15.54
47227660,-0.76,0.237,0.547,-31.902,23.467,13.965
47227670,-0.792,0.236,0.514,-26.302,22.715,12.705
47227670,-0.807,0.193,0.47,-19.267,16.922,9.152
47227690,-0.773,0.239,0.465,-7.105,9.817,5.932
47227690,-0.824,0.247,0.472,2.345,3.517,3.43
47227710,-0.85,0.226,0.492,9.975,-2.835,1.26
47227710,-0.931,0.198,0.525,15.382,-9.835,-1.172
47227730,-0.785,0.233,0.512,20.685,-24.185,-5.775
47227730,-0.8,0.252,0.555,26.985,-27.755,-9.502
47227740,-0.797,0.247,0.519,31.045,-30.607,-14.525
47227750,-0.753,0.319,0.624,36.26,-30.24,-17.832
47227760,-0.785,0.404,0.684,30.59,-19.582,-16.992
47227770,-0.895,0.321,0.62,9.975,-8.89,-8.925
47227780,-0.729,0.217,0.538,-4.497,-9.292,-4.375
47227790,-0.77,0.226,0.559,-3.167,-4.462,-2.485
47227800,-0.697,0.274,0.585,-2.205,-3.43,-0.297
47227810,-0.688,0.28,0.595,-3.71,-0.787,2.135
47227820,-0.641,0.296,0.673,-7.752,8.242,6.597
47227830,-0.706,0.312,0.685,-15.592,24.097,13.615
47227840,-0.786,0.329,0.663,-27.212,37.572,18.34
47227850,-0.82,0.287,0.604,-37.047,38.57,18.655
47227860,-0.818,0.314,0.557,-39.217,32.13,17.43
47227870,-0.829,0.219,0.453,-38.815,23.8,12.862
47227880,-0.743,0.272,0.439,-26.477,17.64,9.205
47227890,-0.866,0.28,0.454,-14.105,15.295,4.742
47227900,-0.845,0.279,0.444,-5.862,2.73,1.645
47227910,-0.905,0.209,0.45,3.727,-5.915,-2.082
47227920,-0.935,0.17,0.421,14.367,-18.287,-8.015
47227930,-0.79,0.229,0.438,28.315,-35.805,-12.355
47227940,-0.853,0.204,0.479,35.14,-39.007,-15.102
47227950,-0.788,0.283,0.602,39.672,-42.087,-18.497
47227960,-0.827,0.341,0.71,29.487,-33.075,-14.315
47227970,-0.831,0.249,0.687,4.427,-23.222,-5.547
47227980,-0.749,0.13,0.6,-7.945,-16.765,-1.05
47227990,-0.665,0.205,0.595,-5.74,-10.062,1.575
47228000,-0.716,0.249,0.576,-6.947,-1.785,5.652
47228010,-0.737,0.314,0.581,-8.925,2.992,8.295
47228010,-0.733,0.333,0.63,-12.6,8.627,8.872
47228030,-0.773,0.326,0.65,-18.707,20.93,11.165
47228030,-0.817,0.3,0.633,-28.21,30.607,10.342
47228050,-0.777,0.257,0.589,-32.55,29.26,9.905
47228050,-0.744,0.241,0.52,-29.75,28.472,9.345
47228070,-0.759,0.197,0.454,-24.097,21.927,8.68
47228070,-0.703,0.274,0.456,-12.127,15.54,9.572
47228080,-0.848,0.264,0.477,-3.99,15.715,7.875
47228090,-0.859,0.277,0.46,3.185,7.192,5.267
47228100,-0.894,0.234,0.493,8.82,-0.437,1.54
47228110,-0.921,0.207,0.524,13.125,-6.632,-1.802
47228120,-0.828,0.219,0.494,17.64,-19.232,-5.39
47228130,-0.741,0.263,0.512,25.06,-24.675,-8.645
47228140,-0.864,0.272,0.563,27.177,-20.055,-11.55
47228150,-0.81,0.398,0.653,20.912,-18.777,-11.515
47228160,-0.929,0.287,0.62,1.382,-9.467,-6.142
47228170,-0.797,0.22,0.562,-8.172,-9.397,-5.005
47228180,-0.776,0.228,0.553,-7.735,-6.51,-4.725
47228190,-0.739,0.252,0.557,-7.927,-6.142,-2.905
47228200,-0.718,0.26,0.558,-8.225,-2.887,-0.945
47228210,-0.722,0.285,0.581,-7.297,2.065,-0.402
47228220,-0.738,0.271,0.618,-8.627,11.305,0.665
47228230,-0.804,0.23,0.596,-11.9,20.422,2.17
47228240,-0.797,0.185,0.528,-13.545,19.652,2.485
47228250,-0.806,0.189,0.49,-8.715,15.68,2.135
47228260,-0.782,0.229,0.515,-1.75,13.475,0.805
47228270,-0.856,0.237,0.53,2.992,13.615,-1.277
47228280,-0.841,0.239,0.519,5.425,10.745,-5.11
47228290,-0.834,0.211,0.52,9.292,10.587,-9.362
47228300,-0.878,0.189,0.536,15.435,13.79,-12.827
47228310,-0.956,0.123,0.528,21.577,11.742,-16.817
47228320,-0.841,0.132,0.481,30.642,5.95,-23.677
47228330,-0.808,0.104,0.422,41.72,9.135,-27.282
47228340,-0.865,0.108,0.394,56.787,21.105,-28.665
47228350,-0.968,0.132,0.39,72.485,26.46,-31.71
47228360,-1.003,0.126,0.369,81.375,21.857,-40.477
47228370,-1.06,0.138,0.372,88.865,14.525,-51.082
47228380,-1.098,0.15,0.366,93.8,6.475,-59.92
47228390,-1.084,0.147,0.351,97.37,-1.102,-69.195
47228400,-1.064,0.139,0.328,101.237,-6.195,-78.26
47228410,-1.034,0.125,0.301,105.805,-9.222,-86.537
47228420,-1.019,0.131,0.284,110.932,-10.867,-93.607
47228420,-1.003,0.124,0.257,115.272,-10.815,-99.96
47228430,-0.998,0.113,0.227,121.852,-9.66,-106.015
47228440,-0.992,0.148,0.242,131.127,-9.03,-110.005
47228450,-0.954,0.185,0.222,138.565,-11.252,-110.11
47228460,-0.853,0.214,0.189,143.657,-11.917,-105.612
47228470,-0.747,0.275,0.205,144.2,-9.817,-96.197
47228480,-0.674,0.345,0.23,136.272,-5.267,-82.267
47228490,-0.712,0.416,0.297,119.7,-0.437,-65.712
47228500,-0.859,0.451,0.365,93.695,-2.66,-53.672
47228510,-0.934,0.398,0.412,68.792,-19.337,-47.127
47228520,-0.98,0.337,0.487,57.557,-44.8,-39.41
47228530,-0.951,0.289,0.516,59.36,-72.03,-31.307
47228540,-0.865,0.256,0.548,75.775,-92.47,-25.567
47228550,-0.691,0.281,0.571,97.58,-104.37,-21.84
47228560,-0.543,0.379,0.599,115.272,-102.042,-15.12
47228570,-0.443,0.433,0.603,116.235,-88.305,-12.127
47228580,-0.611,0.471,0.67,113.435,-65.835,-10.342
47228590,-0.814,0.505,0.72,105.752,-55.037,-11.497
47228600,-0.849,0.495,0.708,94.465,-57.12,-13.23
47228610,-0.804,0.44,0.656,85.942,-57.645,-12.442
47228620,-0.772,0.418,0.609,78.75,-47.547,-16.38
47228630,-0.767,0.389,0.569,72.555,-34.545,-23.52
47228640,-0.758,0.389,0.551,67.48,-24.535,-26.565
47228650,-0.757,0.411,0.546,61.232,-21.35,-23.397
47228660,-0.775,0.427,0.56,51.047,-24.22,-17.885
47228670,-0.784,0.406,0.565,37.222,-33.372,-13.457
47228680,-0.813,0.366,0.583,23.852,-45.482,-7.227
47228690,-0.786,0.276,0.546,13.545,-55.475,-0.367
47228700,-0.83,0.275,0.529,9.905,-58.275,3.815
47228710,-0.832,0.278,0.539,7.98,-59.132,6.527
47228720,-0.824,0.313,0.574,5.53,-57.207,6.807
47228730,-0.821,0.27,0.583,-1.732,-57.435,4.112
47228740,-0.654,0.291,0.577,-5.95,-55.02,-0.945
47228750,-0.656,0.237,0.573,-7.14,-41.352,4.987
47228760,-0.642,0.147,0.576,-1.312,-23.275,14.017
47228760,-0.603,0.124,0.639,14.455,-3.57,21.35
47228780,-0.542,0.194,0.609,28.63,15.33,22.417
47228780,-0.636,0.202,0.628,40.652,34.387,24.605
47228800,-0.783,0.275,0.595,47.302,43.837,25.917
47228800,-0.988,0.306,0.533,50.137,38.342,22.172
47228820,-1.012,0.359,0.482,48.58,18.392,12.145
47228820,-0.985,0.432,0.448,41.387,-5.092,3.867
47228830,-0.907,0.477,0.435,28.052,-22.067,0.14
47228840,-0.843,0.466,0.44,13.545,-30.065,1.295
47228850,-0.794,0.461,0.47,3.447,-34.212,3.745
47228860,-0.824,0.43,0.528,-2.135,-36.75,4.357
47228870,-0.747,0.4,0.554,-5.897,-40.687,-1.925
47228880,-0.685,0.363,0.573,-5.617,-38.727,-8.417
47228890,-0.694,0.317,0.577,-3.097,-32.34,-13.212
47228900,-0.691,0.287,0.573,2.485,-24.237,-16.17
47228910,-0.706,0.298,0.571,8.382,-17.657,-17.745
47228920,-0.754,0.317,0.568,9.94,-13.317,-18.025
47228930,-0.825,0.331,0.554,6.912,-14.472,-16.397
47228940,-0.917,0.306,0.549,1.715,-20.79,-13.037
47228950,-0.84,0.319,0.504,-1.82,-33.145,-10.64
47228960,-0.844,0.317,0.534,-4.042,-40.792,-6.685
47228970,-0.815,0.292,0.549,-7.437,-45.01,-5.022
47228980,-0.741,0.276,0.581,-7.875,-47.407,-5.197
47228990,-0.673,0.275,0.633,-4.427,-44.327,-4.445
47229000,-0.65,0.3,0.635,0.927,-34.632,-4.427
47229010,-0.642,0.303,0.628,5.162,-26.425,-6.632
47229020,-0.674,0.318,0.62,8.732,-19.232,-8.26
47229030,-0.662,0.356,0.614,9.765,-13.842,-9.537
47229040,-0.732,0.355,0.569,6.195,-8.89,-10.132
47229050,-0.806,0.322,0.56,2.292,-9.572,-9.712
47229060,-0.832,0.324,0.56,0.105,-15.312,-7.77
47229070,-0.856,0.317,0.564,-2.747,-24.132,-3.762
47229080,-0.824,0.302,0.585,-5.407,-32.41,-0.105
47229090,-0.783,0.296,0.606,-8.242,-38.832,3.22
47229100,-0.729,0.282,0.615,-11.62,-42.612,5.32
47229100,-0.667,0.278,0.636,-12.757,-42.157,7.595
47229120,-0.652,0.283,0.667,-12.792,-37.205,9.257
47229120,-0.63,0.292,0.67,-12.687,-31.465,10.202
47229140,-0.602,0.32,0.683,-13.807,-24.272,12.25
47229140,-0.586,0.316,0.667,-17.465,-14.507,15.855
47229160,-0.53,0.356,0.661,-21.875,-0.122,19.512
47229160,-0.619,0.345,0.654,-31.342,16.065,24.92
47229170,-0.637,0.293,0.632,-37.52,26.162,27.545
47229180,-0.714,0.285,0.628,-37.695,36.015,30.1
47229190,-0.775,0.213,0.608,-33.162,35.91,26.512
47229200,-0.741,0.29,0.597,-23.817,29.645,19.932
47229210,-0.848,0.315,0.627,-17.185,24.342,18.515
47229220,-0.864,0.24,0.574,-10.43,7.437,11.62
47229230,-0.722,0.332,0.596,3.92,-6.387,0.577
47229240,-0.795,0.369,0.617,9.642,-9.292,-4.725
47229250,-0.784,0.316,0.607,8.575,-14.56,-7.91
47229260,-0.762,0.311,0.605,9.712,-18.655,-9.065
47229270,-0.76,0.268,0.621,12.04,-23.24,-11.287
47229280,-0.678,0.244,0.628,18.077,-26.425,-15.662
47229290,-0.629,0.261,0.655,26.95,-25.83,-20.002
47229300,-0.658,0.29,0.674,30.957,-20.072,-21.752
47229310,-0.698,0.273,0.642,30.275,-19.075,-20.877
47229320,-0.631,0.354,0.664,29.837,-14.437,-18.462
47229330,-0.781,0.333,0.627,23.502,-11.252,-13.335
47229340,-0.708,0.335,0.594,17.57,-15.417,-11.34
47229350,-0.745,0.366,0.585,12.267,-13.527,-6.825
47229360,-0.799,0.336,0.618,3.937,-13.825,-5.11
47229370,-0.717,0.309,0.63,1.155,-19.512,-3.325
47229380,-0.691,0.314,0.65,-0.315,-19.985,-0.455
47229390,-0.661,0.324,0.686,-2.572,-19.985,1.137
47229400,-0.609,0.302,0.672,-7.577,-17.71,5.74
47229410,-0.576,0.307,0.672,-12.372,-11.69,9.047
47229420,-0.643,0.271,0.659,-16.292,-5.215,12.232
47229430,-0.613,0.297,0.648,-13.58,-0.28,12.845
47229440,-0.64,0.376,0.662,-13.037,9.117,14.157
47229450,-0.675,0.399,0.642,-20.737,17.745,17.5
47229460,-0.786,0.362,0.642,-31.062,22.312,21.875
47229470,-0.752,0.194,0.625,-31.605,12.915,18.2
47229480,-0.565,0.307,0.662,-16.485,11.917,11.532
47229490,-0.696,0.333,0.673,-12.582,20.79,9.222
47229500,-0.706,0.291,0.626,-15.925,22.032,6.282
47229510,-0.809,0.263,0.627,-12.302,19.845,6.02
47229510,-0.748,0.209,0.591,-2.852,9.415,0.612
47229530,-0.709,0.332,0.621,9.152,6.09,-4.095
47229530,-0.805,0.319,0.613,9.397,3.605,-6.317
47229550,-0.782,0.284,0.596,7.91,-2.747,-7.63
47229550,-0.764,0.317,0.611,11.13,-9.03,-6.667
47229570,-0.775,0.305,0.635,10.762,-12.092,-6.755
47229570,-0.732,0.232,0.625,14.035,-16.642,-9.345
47229580,-0.685,0.272,0.654,23.817,-16.572,-13.142
47229590,-0.632,0.275,0.669,29.96,-17.237,-18.287
47229600,-0.625,0.333,0.644,29.487,-12.127,-17.43
47229610,-0.67,0.378,0.62,22.715,-4.952,-11.602
47229620,-0.817,0.318,0.61,13.195,-3.797,-5.985
47229630,-0.744,0.307,0.605,11.427,-10.395,-4.882
47229640,-0.714,0.361,0.624,11.987,-12.162,-3.815
47229650,-0.719,0.358,0.623,5.985,-12.915,-3.08
47229660,-0.728,0.351,0.638,-1.627,-13.457,-0.49
47229670,-0.714,0.323,0.643,-9.1,-16.502,2.31
47229680,-0.654,0.295,0.648,-13.055,-18.182,4.217
47229690,-0.653,0.301,0.65,-14.455,-16.94,6.702
47229700,-0.69,0.329,0.635,-16.275,-14.945,8.855
47229710,-0.752,0.348,0.63,-21.7,-17.797,10.675
47229720,-0.749,0.372,0.6,-26.915,-21.49,11.532
47229730,-0.752,0.308,0.667,-32.2,-26.022,13.632
47229740,-0.675,0.298,0.643,-30.922,-26.25,16.835
47229750,-0.622,0.335,0.657,-32.322,-24.272,19.88
47229760,-0.635,0.295,0.667,-35.647,-19.39,21.997
47229770,-0.619,0.32,0.687,-37.87,-12.495,25.655
47229780,-0.655,0.243,0.688,-37.555,-7.21,26.022
47229790,-0.618,0.221,0.677,-31.447,-5.092,23.87
47229800,-0.653,0.269,0.715,-22.837,-0.42,18.935
47229810,-0.703,0.204,0.7,-15.977,-1.242,13.335
47229820,-0.616,0.267,0.688,-5.425,-1.522,8.907
47229830,-0.669,0.262,0.681,1.522,0,5.127
47229830,-0.653,0.307,0.674,6.002,0.665,2.537
47229850,-0.714,0.321,0.68,6.492,1.155,1.907
47229850,-0.711,0.274,0.671,6.072,0,0.84
47229870,-0.692,0.263,0.658,10.85,-1.855,-1.12
47229870,-0.701,0.278,0.664,16.012,-4.62,-2.555
47229890,-0.759,0.265,0.675,18.76,-8.487,-3.5
47229890,-0.719,0.219,0.663,24.412,-17.71,-7.472
47229910,-0.581,0.338,0.674,32.952,-18.83,-11.41
47229910,-0.697,0.305,0.687,29.015,-16.52,-12.635
47229920,-0.594,0.346,0.666,25.9,-15.995,-11.427
47229930,-0.698,0.397,0.674,18.2,-10.255,-5.372
47229940,-0.735,0.31,0.651,8.557,-12.25,-3.01
47229950,-0.664,0.345,0.663,7.997,-15.05,-0.945
47229960,-0.666,0.339,0.669,5.67,-14.98,0.087
47229970,-0.642,0.323,0.672,4.742,-13.93,-0.175
47229980,-0.609,0.34,0.683,4.83,-10.937,-0.665
47229990,-0.601,0.341,0.693,3.062,-6.632,-0.612
47230000,-0.616,0.323,0.691,-0.035,-1.942,1.085
47230010,-0.622,0.311,0.69,-1.487,0.77,2.1
47230020,-0.62,0.308,0.689,-2.327,3.955,2.17
47230030,-0.635,0.315,0.684,-4.165,6.685,3.447
47230040,-0.669,0.322,0.679,-8.172,8.662,5.722
47230050,-0.693,0.307,0.672,-11.83,8.085,7.332
47230060,-0.673,0.317,0.658,-13.002,6.72,7.735
47230070,-0.654,0.362,0.662,-13.842,7.752,7.822
47230080,-0.67,0.388,0.663,-19.81,11.532,9.94
47230090,-0.722,0.335,0.668,-28.017,11.69,12.705
47230100,-0.669,0.292,0.663,-30.38,8.627,14.105
47230110,-0.631,0.328,0.672,-28.052,10.202,15.312
47230120,-0.679,0.279,0.687,-28.525,11.882,14.577
47230130,-0.659,0.266,0.677,-26.215,11.165,13.965
47230140,-0.689,0.262,0.67,-21.262,10.797,12.477
47230150,-0.682,0.224,0.68,-14.927,6.142,9.1
47230160,-0.688,0.25,0.661,-6.265,2.835,7.402
47230170,-0.653,0.299,0.681,2.38,0.455,3.01
47230180,-0.71,0.306,0.667,5.145,0.822,1.347
47230190,-0.724,0.308,0.654,6.615,-2.345,-0.472
47230200,-0.716,0.318,0.66,9.065,-4.462,-1.925
47230210,-0.745,0.295,0.645,10.22,-8.68,-2.94
47230220,-0.707,0.312,0.668,12.67,-13.072,-4.34
47230230,-0.71,0.261,0.681,14.805,-14.962,-5.145
47230240,-0.671,0.222,0.68,20.72,-18.392,-6.16
47230250,-0.582,0.257,0.7,29.242,-20.79,-7.927
47230260,-0.57,0.318,0.69,33.092,-14.507,-6.475
47230260,-0.672,0.309,0.67,30.187,-8.837,-3.902
47230280,-0.655,0.329,0.66,28.822,-7.035,-4.462
47230280,-0.67,0.379,0.642,25.882,-4.112,-3.482
47230300,-0.75,0.388,0.643,18.095,-3.342,-1.715
47230300,-0.763,0.346,0.633,12.04,-9.467,-1.05
47230320,-0.706,0.365,0.645,11.025,-16.572,-1.54
47230320,-0.666,0.377,0.665,7.595,-19.425,-1.312
47230330,-0.639,0.358,0.675,2.782,-19.617,-0.682
47230340,-0.602,0.351,0.688,0.472,-17.307,-0.84
47230350,-0.569,0.351,0.706,-0.595,-12.792,-1.89
47230360,-0.576,0.351,0.708,-2.327,-5.81,-1.522
47230370,-0.61,0.347,0.7,-5.652,-0.35,-0.035
47230380,-0.638,0.342,0.685,-8.96,3.832,1.155
47230390,-0.65,0.331,0.671,-12.022,4.567,2.607
47230400,-0.674,0.317,0.664,-13.737,5.11,4.252
47230410,-0.654,0.342,0.65,-14.77,5.32,6.212
47230420,-0.674,0.38,0.642,-19.547,7.157,9.31
47230430,-0.743,0.35,0.665,-27.93,7.052,13.055
47230440,-0.72,0.282,0.653,-31.307,1.452,15.067
47230450,-0.664,0.335,0.669,-27.527,-0.472,15.872
47230460,-0.66,0.329,0.664,-28.227,-1.067,13.772
47230470,-0.687,0.325,0.694,-29.242,-0.787,13.685
47230480,-0.682,0.231,0.683,-28.192,-6.282,11.777
47230490,-0.529,0.341,0.69,-20.195,-6.02,9.432
47230500,-0.672,0.294,0.716,-21.507,-0.945,9.73
47230510,-0.628,0.218,0.715,-16.8,-2.03,6.02
47230520,-0.559,0.286,0.698,-5.32,1.977,4.06
47230530,-0.642,0.296,0.695,-0.63,6.527,1.732
47230540,-0.684,0.301,0.678,0.402,8.295,0.192
47230550,-0.722,0.32,0.66,3.517,6.667,-0.14
47230560,-0.722,0.336,0.656,3.465,2.1,-0.455
47230570,-0.716,0.315,0.665,2.45,-2.835,-0.542
47230580,-0.726,0.29,0.681,2.94,-6.615,-0.017
47230580,-0.695,0.247,0.679,8.242,-11.27,-2.642
47230600,-0.656,0.216,0.698,18.585,-14.98,-6.51
47230600,-0.585,0.245,0.697,30.852,-17.412,-11.602
47230620,-0.604,0.306,0.711,37.66,-13.737,-14.577
47230620,-0.594,0.328,0.688,37.502,-12.565,-15.995
47230640,-0.589,0.416,0.667,31.92,-5.722,-12.127
47230640,-0.773,0.372,0.648,18.322,0.122,-6.405
47230660,-0.709,0.327,0.643,13.247,-6.37,-6.457
47230660,-0.69,0.368,0.659,12.565,-7.84,-4.375
47230670,-0.661,0.343,0.666,6.912,-10.167,-2.94
47230680,-0.655,0.356,0.674,1.61,-9.8,1.05
47230690,-0.655,0.328,0.678,-4.55,-9.135,2.59
47230700,-0.602,0.303,0.688,-6.282,-8.627,2.695
47230710,-0.589,0.322,0.698,-6.3,-5.757,4.252
47230720,-0.614,0.325,0.695,-7.577,-1.435,5.932
47230730,-0.644,0.333,0.694,-9.502,0.857,6.877
47230740,-0.641,0.346,0.674,-11.672,2.31,6.457
47230750,-0.664,0.372,0.658,-14.542,4.532,6.58
47230760,-0.683,0.382,0.658,-19.897,5.897,7.735
47230770,-0.709,0.351,0.667,-26.197,4.025,10.85
47230780,-0.682,0.299,0.679,-29.627,0.332,12.95
47230790,-0.571,0.342,0.67,-28.437,-0.087,13.667
47230800,-0.649,0.346,0.681,-32.637,5.285,15.172
47230810,-0.746,0.246,0.698,-34.492,2.415,13.457
47230820,-0.638,0.245,0.693,-24.797,-3.482,8.837
47230830,-0.584,0.351,0.691,-15.067,-2.222,4.322
47230840,-0.714,0.299,0.719,-16.73,-0.28,2.87
47230850,-0.688,0.223,0.693,-13.58,-4.2,1.155
47230860,-0.583,0.303,0.688,-2.362,-2.59,-0.122
47230870,-0.643,0.286,0.707,-1.33,-0.612,-1.12
47230880,-0.647,0.283,0.683,-2.555,1.137,0.507
47230890,-0.67,0.29,0.676,-0.28,0.84,2.047
47230900,-0.676,0.298,0.675,-0.455,0.07,2.152
47230910,-0.689,0.297,0.678,-0.227,-2.012,1.907
47230920,-0.681,0.312,0.689,0.437,-4.147,2.17
47230930,-0.655,0.305,0.685,-0.525,-5.775,2.17
47230940,-0.647,0.305,0.688,-0.087,-5.407,2.03
47230950,-0.65,0.314,0.687,0.945,-5.005,1.435
47230960,-0.655,0.318,0.684,1.557,-4.462,0.875
47230970,-0.665,0.322,0.677,1.977,-4.357,0.805
47230980,-0.671,0.33,0.682,2.17,-5.092,0.175
47230990,-0.657,0.342,0.695,0.385,-5.582,-0.28
47231000,-0.656,0.31,0.688,-3.115,-5.722,0.332
47231010,-0.627,0.298,0.693,-4.252,-5.582,0.472
47231010,-0.618,0.289,0.704,-3.955,-4.06,-0.017
47231030,-0.61,0.284,0.705,-4.147,-1.47,-0.752
47231030,-0.612,0.273,0.703,-3.15,1.085,-1.05
47231050,-0.616,0.287,0.703,-2.817,4.235,-1.435
47231050,-0.632,0.294,0.696,-2.537,7.35,-2.257
47231070,-0.655,0.297,0.689,-3.325,9.555,-2.467
47231070,-0.667,0.294,0.683,-3.867,9.642,-2.152
47231080,-0.693,0.315,0.638,-4.217,8.627,-0.962
47231090,-0.68,0.344,0.663,-5.53,2.31,-2.082
47231100,-0.736,0.294,0.698,-8.802,-0.28,-2.117
47231110,-0.613,0.283,0.697,-5.845,-0.052,-0.07
47231120,-0.603,0.3,0.703,-4.795,3.675,0.717
47231130,-0.622,0.29,0.7,-4.322,7.857,-0.962
47231140,-0.672,0.287,0.695,-2.135,10.36,-2.292
47231150,-0.688,0.299,0.68,0.507,10.587,-2.957
47231160,-0.708,0.3,0.664,0.91,8.855,-3.202
47231170,-0.712,0.305,0.659,0.892,4.112,-3.64
47231180,-0.714,0.299,0.667,0.857,0.017,-3.99
47231190,-0.691,0.293,0.671,1.19,-3.377,-3.972
47231200,-0.662,0.288,0.686,0.647,-4.69,-3.132
47231210,-0.653,0.267,0.683,-0.28,-4.672,-1.365
47231220,-0.634,0.271,0.685,0.945,-2.765,-0.402
47231230,-0.649,0.281,0.689,2.187,0,0.525
47231240,-0.672,0.293,0.674,1.68,2.537,1.942
47231250,-0.689,0.302,0.663,1.26,1.872,2.59
47231260,-0.709,0.317,0.664,0.7,0.192,2.905
47231270,-0.704,0.321,0.676,-0.647,-2.747,3.185
47231280,-0.691,0.29,0.691,-2.415,-4.147,3.832
47231290,-0.628,0.288,0.688,-1.26,-3.395,4.357
47231300,-0.621,0.271,0.699,0.035,0.472,5.022
47231310,-0.601,0.283,0.684,2.502,4.97,4.795
47231320,-0.622,0.302,0.702,3.85,9.957,4.27
47231330,-0.644,0.291,0.697,2.467,14.595,4.76
47231330,-0.649,0.323,0.649,2.345,18.97,4.865
47231350,-0.681,0.334,0.678,0.087,19.845,3.727
47231350,-0.693,0.298,0.665,-2.782,20.702,3.027
47231370,-0.665,0.308,0.64,-1.085,21.542,2.205
47231370,-0.705,0.321,0.644,-0.962,19.18,0.28
47231390,-0.752,0.327,0.648,-0.7,14.787,-2.152
47231390,-0.736,0.33,0.636,0.122,9.765,-4.865
47231410,-0.737,0.321,0.649,-1.592,5.145,-8.365
47231410,-0.736,0.251,0.645,-0.21,1.382,-9.782
47231420,-0.73,0.305,0.626,1.942,-2.362,-8.785
47231430,-0.752,0.299,0.607,2.485,-8.75,-11.41
47231440,-0.738,0.304,0.623,2.31,-17.062,-14.105
47231450,-0.758,0.297,0.657,0.84,-22.505,-15.452
47231460,-0.674,0.304,0.675,-0.77,-24.832,-15.522
47231470,-0.714,0.277,0.714,-4.077,-22.487,-9.712
47231480,-0.637,0.244,0.656,-4.935,-18.952,-5.215
47231490,-0.627,0.269,0.666,-0.735,-16.975,-4.847
47231500,-0.644,0.284,0.688,-0.612,-13.125,-3.57
47231510,-0.663,0.272,0.671,-2.065,-8.715,-1.435
47231520,-0.648,0.289,0.683,-2.292,-4.76,0.245
47231530,-0.685,0.292,0.67,-3.57,-3.115,1.785
47231540,-0.675,0.308,0.676,-3.57,-2.852,2.852
47231550,-0.669,0.322,0.681,-4.41,-2.712,3.535
47231560,-0.648,0.308,0.681,-5.95,-0.157,3.552
47231570,-0.629,0.301,0.681,-5.705,3.692,3.255
47231580,-0.617,0.251,0.74,-5.53,10.272,4.095
47231590,-0.635,0.23,0.676,-2.537,19.862,6.79
47231600,-0.613,0.26,0.668,0.997,24.727,7.035
47231610,-0.693,0.279,0.645,1.417,26.022,7.84
47231620,-0.732,0.305,0.665,0.822,25.952,8.697
47231630,-0.742,0.274,0.627,-1.067,26.285,9.152
47231640,-0.711,0.26,0.619,-0.63,24.027,7.63
47231650,-0.766,0.302,0.616,1.137,19.442,7.875
47231660,-0.771,0.319,0.623,0.717,12.355,7.315
47231670,-0.737,0.322,0.642,0.77,5.845,5.075
47231680,-0.721,0.291,0.621,0.752,2.537,3.15
47231690,-0.701,0.3,0.614,1.977,-1.505,0.98
47231700,-0.725,0.302,0.647,2.1,-4.042,0.455
47231710,-0.714,0.293,0.651,1.067,-4.69,0.98
47231720,-0.696,0.278,0.655,0.402,-4.445,1.435
47231730,-0.675,0.266,0.659,0.14,-3.797,2.205
47231740,-0.666,0.265,0.652,0.542,-1.872,3.5
47231750,-0.679,0.301,0.622,1.365,0.7,4.515
47231760,-0.761,0.325,0.615,-0.332,0.577,5.145
47231760,-0.794,0.339,0.599,-2.082,-3.902,4.06
47231780,-0.823,0.347,0.626,-3.22,-11.777,2.607
47231780,-0.775,0.316,0.635,-5.53,-20.16,0.507
47231800,-0.658,0.344,0.628,-4.935,-23.852,-1.75
47231800,-0.712,0.281,0.674,-9.082,-24.22,-1.942
47231820,-0.64,0.253,0.668,-9.52,-21.665,-0.192
47231820,-0.637,0.222,0.694,-6.58,-16.17,1.085
47231830,-0.638,0.239,0.68,-3.062,-10.43,1.767
47231840,-0.698,0.274,0.672,1.277,-6.65,1.557
47231850,-0.718,0.315,0.655,3.447,-6.422,0.98
47231860,-0.721,0.326,0.64,2.992,-7.892,-0.21
47231870,-0.712,0.329,0.646,2.555,-10.447,-1.627
47231880,-0.688,0.322,0.656,1.277,-11.637,-1.977
47231890,-0.671,0.309,0.671,0.507,-12.267,-1.802
47231900,-0.661,0.298,0.678,0.402,-10.867,-1.085
47231910,-0.666,0.284,0.677,1.26,-9.747,-0.84
47231920,-0.675,0.272,0.674,3.115,-7.805,-0.595
47231930,-0.685,0.265,0.672,6.562,-6.195,-0.525
47231940,-0.69,0.211,0.67,11.322,-5.075,-1.015
47231950,-0.619,0.227,0.667,20.405,-4.637,-3.29
47231960,-0.604,0.304,0.678,26.845,-0.787,-5.46
47231970,-0.747,0.295,0.663,24.307,2.957,-4.445
47231980,-0.734,0.26,0.637,25.182,-1.505,-5.372
47231990,-0.77,0.275,0.654,30.205,-7.857,-7.455
47232000,-0.663,0.311,0.635,33.915,-13.772,-10.062
47232010,-0.7,0.359,0.637,33.162,-14.682,-9.345
47232020,-0.691,0.379,0.655,25.655,-13.002,-6.807
47232030,-0.684,0.351,0.634,17.29,-14.035,-3.115
47232040,-0.655,0.379,0.648,11.585,-12.232,-0.437
47232050,-0.675,0.362,0.651,3.85,-10.762,1.05
47232060,-0.688,0.333,0.659,-0.367,-9.677,1.802
47232070,-0.656,0.328,0.672,-1.82,-9.222,1.68
47232080,-0.652,0.317,0.674,-3.535,-7.455,2.152
47232080,-0.62,0.319,0.664,-5.162,-5.617,2.572
47232100,-0.624,0.333,0.677,-8.137,-1.837,3.675
47232100,-0.643,0.317,0.66,-11.655,1.96,4.97
47232120,-0.648,0.373,0.637,-13.807,5.477,5.722
47232120,-0.739,0.367,0.658,-20.475,6.282,7.367
47232140,-0.723,0.348,0.647,-24.08,3.762,7.455
47232140,-0.719,0.332,0.649,-26.075,1.907,8.75
47232160,-0.661,0.314,0.668,-27.597,-0.175,8.4
47232160,-0.699,0.282,0.669,-28.525,1.627,10.342
47232170,-0.686,0.252,0.667,-24.307,1.75,9.152
47232180,-0.662,0.234,0.677,-17.482,-0.21,6.072
47232190,-0.621,0.308,0.676,-10.937,2.502,5.337
47232200,-0.712,0.314,0.658,-11.935,6.405,5.757
47232210,-0.76,0.261,0.657,-12.6,3.78,5.407
47232220,-0.693,0.235,0.656,-5.617,-2.607,2.24
47232230,-0.674,0.309,0.659,4.497,-5.162,-0.892
47232240,-0.72,0.316,0.656,5.915,-5.95,-2.24
47232250,-0.729,0.305,0.645,5.057,-10.027,-1.925
47232260,-0.724,0.297,0.648,6.475,-13.352,-1.732
47232270,-0.723,0.244,0.667,9.677,-16.222,-3.202
47232280,-0.677,0.243,0.676,18.41,-16.905,-5.565
47232290,-0.67,0.172,0.693,29.715,-20.527,-10.272
47232300,-0.508,0.267,0.705,44.327,-17.465,-16.38
47232310,-0.595,0.284,0.693,47.687,-10.815,-17.832
47232320,-0.618,0.349,0.671,44.852,-5.372,-18.987
47232330,-0.79,0.353,0.62,40.337,-6.265,-15.995
47232340,-0.773,0.398,0.625,35.437,-14.105,-17.097
47232350,-0.775,0.387,0.635,29.872,-23.607,-17.08
47232360,-0.695,0.4,0.64,24.5,-27.632,-16.24
47232370,-0.646,0.39,0.668,16.992,-25.97,-13.195
47232380,-0.62,0.336,0.673,9.677,-21.227,-9.555
47232390,-0.57,0.347,0.682,5.95,-14.332,-7.227
47232400,-0.606,0.34,0.686,0.595,-4.83,-4.497
47232410,-0.634,0.311,0.681,-3.097,0.227,-1.82
47232420,-0.636,0.323,0.685,-3.412,3.272,0.367
47232430,-0.647,0.323,0.676,-4.637,5.337,2.24
47232440,-0.647,0.328,0.673,-6.842,6.982,4.69
47232450,-0.662,0.319,0.662,-10.202,7.682,7.525
47232460,-0.657,0.302,0.662,-11.462,7.927,8.47
47232470,-0.626,0.321,0.656,-10.57,9.835,9.1
47232480,-0.612,0.412,0.662,-13.142,17.885,12.04
47232490,-0.725,0.366,0.651,-24.657,24.36,17.377
47232500,-0.682,0.34,0.645,-30.31,25.532,20.527
47232500,-0.714,0.314,0.639,-31.955,26.127,22.312
47232510,-0.655,0.307,0.643,-29.977,22.82,19.792
47232520,-0.688,0.353,0.667,-30.922,28.07,20.142
47232530,-0.86,0.196,0.64,-31.57,24.097,17.902
47232540,-0.696,0.201,0.652,-16.992,5.53,10.657
47232550,-0.617,0.333,0.672,-1.312,0.245,4.742
47232560,-0.665,0.306,0.651,1.96,3.255,0.262
47232570,-0.711,0.324,0.639,4.69,3.675,-1.995
47232580,-0.755,0.333,0.639,6.895,1.855,-3.307
47232590,-0.784,0.317,0.624,7.105,-4.165,-5.652
47232600,-0.777,0.312,0.627,9.992,-11.252,-8.015
47232610,-0.772,0.258,0.634,15.05,-20.177,-11.865
47232620,-0.753,0.209,0.648,26.197,-30.572,-19.792
47232630,-0.672,0.255,0.656,42.105,-42.945,-30.87
47232640,-0.528,0.374,0.715,51.135,-41.44,-36.872
47232650,-0.687,0.322,0.642,46.672,-32.532,-35.262
47232660,-0.586,0.411,0.65,39.637,-26.985,-30.922
47232670,-0.743,0.43,0.636,24.43,-17.325,-18.55
47232680,-0.782,0.364,0.618,6.545,-13.265,-7.542
47232690,-0.74,0.3,0.64,-1.82,-20.16,-2.1
47232700,-0.611,0.323,0.678,-2.765,-22.172,0.56
47232710,-0.549,0.314,0.7,-5.792,-17.815,3.535
47232720,-0.514,0.308,0.71,-8.907,-9.135,7.63
47232730,-0.527,0.315,0.706,-11.725,2.45,12.582
47232740,-0.566,0.309,0.699,-13.335,12.95,15.347
47232750,-0.538,0.363,0.68,-12.845,23.205,15.61
47232760,-0.542,0.493,0.712,-20.492,46.812,21.525
47232770,-0.727,0.324,0.647,-38.465,62.3,30.187
47232780,-0.635,0.296,0.637,-40.617,63.577,31.675
47232790,-0.694,0.337,0.658,-35.735,68.775,26.477
47232800,-0.669,0.23,0.663,-29.977,67.217,15.592
47232810,-0.691,0.226,0.596,-14.962,63.7,7.14
47232820,-0.793,0.315,0.604,1.4,55.212,-0.822
47232830,-0.896,0.374,0.558,6.807,41.212,-8.137
47232830,-0.967,0.367,0.536,7.98,23.817,-13.877
47232850,-0.941,0.354,0.539,6.335,5.355,-15.557
47232850,-0.875,0.281,0.551,4.077,-12.25,-15.522
47232870,-0.806,0.185,0.564,8.925,-28.857,-17.64
47232870,-0.638,0.257,0.623,21.805,-38.727,-22.732
47232890,-0.625,0.288,0.672,28.612,-33.425,-26.652
47232890,-0.686,0.272,0.654,28.962,-22.05,-26.355
47232910,-0.748,0.288,0.621,29.347,-18.76,-26.04
47232910,-0.623,0.369,0.617,28.787,-16.292,-22.435
47232920,-0.832,0.428,0.61,12.915,-8.277,-9.205
47232930,-0.825,0.319,0.567,-4.935,-13.265,-1.837
47232940,-0.714,0.31,0.611,-9.292,-19.442,2.765
47232950,-0.611,0.322,0.663,-13.72,-19.757,6.632
47232960,-0.582,0.305,0.688,-20.51,-12.635,12.495
47232970,-0.512,0.286,0.685,-22.33,-1.977,18.217
47232980,-0.449,0.355,0.72,-22.785,20.387,22.102
47232990,-0.626,0.304,0.673,-28.28,45.045,24.85
47233000,-0.644,0.315,0.637,-29.05,57.032,23.52
47233010,-0.721,0.32,0.607,-26.775,62.177,21.105
47233020,-0.748,0.341,0.606,-24.43,65.712,17.465
47233030,-0.789,0.274,0.555,-22.33,63.402,13.527
47233040,-0.826,0.29,0.533,-15.085,56.14,10.692
47233050,-0.924,0.24,0.491,-7,38.57,6.877
47233060,-0.872,0.329,0.51,3.972,17.885,2.817
47233070,-0.909,0.336,0.542,7.997,2.59,-1.347
47233080,-0.877,0.286,0.535,6.86,-9.205,-3.377
47233090,-0.849,0.249,0.54,8.452,-19.512,-3.062
47233100,-0.843,0.193,0.55,15.347,-32.025,-6.825
47233110,-0.673,0.319,0.608,28.542,-41.212,-13.965
47233120,-0.68,0.387,0.661,28.892,-31.115,-17.185
47233130,-0.737,0.339,0.611,15.61,-19.022,-12.722
47233140,-0.728,0.312,0.57,5.985,-15.452,-6.02
47233150,-0.696,0.34,0.612,3.027,-10.097,-3.132
47233160,-0.683,0.297,0.619,0.875,-1.435,-4.252
47233170,-0.589,0.283,0.635,4.147,9.905,-8.837
47233180,-0.589,0.302,0.666,8.417,26.827,-13.02
47233190,-0.616,0.306,0.661,9.87,42.927,-15.61
47233190,-0.679,0.336,0.653,8.137,60.742,-13.807
47233210,-0.75,0.309,0.609,2.047,74.83,-9.887
47233210,-0.738,0.285,0.603,-1.627,81.375,-8.242
47233230,-0.683,0.306,0.61,-0.595,90.947,-7.647
47233230,-0.682,0.347,0.6,-1.75,100.625,-7.91
47233250,-0.742,0.34,0.578,-9.17,106.925,-6.37
47233250,-0.814,0.31,0.553,-18.567,108.955,-7.227
47233260,-0.9,0.36,0.595,-24.902,107.047,-7.297
47233270,-0.898,0.363,0.596,-35.105,98.577,-2.66
47233280,-0.93,0.397,0.632,-48.055,84.945,-1.435
47233290,-0.952,0.369,0.608,-61.827,62.265,-0.927
47233300,-0.92,0.326,0.516,-70.052,37.747,-0.227
47233310,-1.087,0.274,0.467,-72.24,16.275,-1.207
47233320,-1.094,0.185,0.443,-70.665,-14.21,-3.902
47233330,-0.988,0.196,0.403,-60.567,-47.687,-8.925
47233340,-0.908,0.217,0.396,-52.832,-73.15,-6.615
47233350,-0.765,0.211,0.346,-49,-90.037,0.297
47233360,-0.668,0.213,0.329,-45.255,-88.952,6.562
47233370,-0.698,0.188,0.297,-39.742,-80.272,14.682
47233380,-0.724,0.185,0.249,-30.292,-68.337,21.21
47233390,-0.761,0.18,0.222,-16.222,-56.962,26.565
47233400,-0.764,0.218,0.208,0.052,-48.422,35.07
47233410,-0.827,0.24,0.238,14.157,-41.195,43.207
47233420,-0.886,0.323,0.38,21.175,-42.07,46.025
47233430,-0.874,0.411,0.519,19.495,-53.935,44.117
47233440,-0.849,0.422,0.643,10.29,-61.547,40.11
47233450,-0.879,0.406,0.743,-1.995,-60.375,38.255
47233460,-0.865,0.315,0.748,-11.077,-51.975,35.385
47233470,-0.733,0.192,0.718,-11.165,-42.437,31.22
47233480,-0.603,0.167,0.707,-7.875,-30.065,24.815
47233490,-0.532,0.127,0.665,-3.535,-17.062,17.395
47233500,-0.535,0.168,0.654,3.132,-1.575,13.265
47233510,-0.636,0.253,0.646,8.82,15.767,14.77
47233520,-0.754,0.31,0.629,8.592,28.717,16.485
47233530,-0.852,0.337,0.583,5.792,30.835,17.605
47233540,-0.897,0.366,0.538,3.29,22.05,16.485
47233550,-0.886,0.393,0.525,-0.07,9.467,14.455
47233560,-0.864,0.41,0.53,-6.475,-0.472,12.372
47233570,-0.831,0.377,0.531,-13.317,-9.012,10.85
47233580,-0.815,0.351,0.535,-17.622,-19.11,8.155
47233580,-0.804,0.346,0.574,-18.27,-29.312,3.412
47233600,-0.762,0.338,0.608,-17.587,-35.735,-1.085
47233600,-0.72,0.315,0.622,-16.52,-36.295,-4.742
47233620,-0.698,0.284,0.608,-12.25,-33.635,-9.1
47233620,-0.677,0.27,0.619,-5.11,-28.595,-13.37
47233640,-0.691,0.267,0.622,2.117,-20.492,-16.03
47233640,-0.689,0.303,0.614,9.117,-16.8,-21.63
47233660,-0.724,0.311,0.63,10.377,-15.015,-24.395
47233660,-0.775,0.307,0.618,7.087,-14.997,-22.785
47233670,-0.759,0.281,0.607,3.902,-17.027,-20.265
47233680,-0.801,0.242,0.587,2.555,-19.582,-17.85
47233690,-0.792,0.261,0.583,5.337,-25.812,-16.485
47233700,-0.814,0.266,0.592,6.492,-30.905,-15.085
47233710,-0.758,0.282,0.609,4.707,-36.382,-12.547
47233720,-0.732,0.298,0.643,-0.157,-35.997,-7
47233730,-0.677,0.275,0.667,-7.647,-33.25,-0.857
47233740,-0.614,0.252,0.666,-12.862,-26.67,5.092
47233750,-0.531,0.271,0.688,-13.457,-16.677,7.227
47233760,-0.561,0.262,0.696,-14.787,-1.995,9.222
47233770,-0.56,0.263,0.692,-14.63,11.025,10.692
47233780,-0.528,0.333,0.67,-13.125,26.862,12.512
47233790,-0.73,0.377,0.683,-21.315,48.23,20.177
47233800,-0.83,0.209,0.571,-29.015,50.767,21.63
47233810,-0.785,0.225,0.554,-18.812,39.532,17.745
47233820,-0.781,0.307,0.602,-8.015,31.657,11.445
47233830,-0.86,0.289,0.572,-6.405,25.497,6.807
47233840,-0.789,0.274,0.558,-2.957,15.19,1.417
47233850,-0.797,0.287,0.579,2.957,6.37,-2.012
47233860,-0.788,0.286,0.606,5.25,0.315,-4.217
47233870,-0.816,0.244,0.583,6.335,-4.322,-5.547
47233880,-0.806,0.244,0.557,10.045,-10.587,-7.14
47233890,-0.924,0.216,0.536,14.542,-19.005,-9.24
47233900,-0.78,0.207,0.515,24.132,-42.105,-17.237
47233910,-0.765,0.338,0.647,31.972,-50.452,-19.81
47233920,-0.745,0.346,0.685,21.735,-47.04,-14.262
47233920,-0.809,0.306,0.628,2.047,-42.122,1.522
47233940,-0.749,0.191,0.59,-6.772,-43.82,8.592
47233940,-0.606,0.247,0.636,-2.397,-45.15,11.182
47233960,-0.646,0.31,0.693,-3.745,-37.975,14.315
47233960,-0.602,0.311,0.692,-10.062,-29.522,16.222
47233980,-0.591,0.339,0.699,-15.732,-19.442,20.825
47233980,-0.605,0.298,0.696,-19.862,-10.325,22.82
47234000,-0.55,0.314,0.692,-17.412,-1.907,20.947
47234000,-0.519,0.399,0.739,-17.692,19.705,22.452
47234010,-0.667,0.284,0.651,-25.567,42.385,25.935
47234020,-0.582,0.226,0.624,-23.835,43.837,25.13
47234030,-0.656,0.281,0.656,-16.292,46.655,25.55
47234040,-0.697,0.284,0.632,-10.745,48.387,19.687
47234050,-0.809,0.31,0.611,-6.44,45.797,13.947
47234060,-0.872,0.295,0.573,-2.94,36.872,7.77
47234070,-0.895,0.31,0.541,3.01,21.56,1.137
47234080,-0.884,0.334,0.572,8.085,5.547,-6.352
47234090,-0.843,0.297,0.586,10.552,-5.985,-12.722
47234100,-0.78,0.259,0.569,13.02,-13.405,-15.26
47234110,-0.862,0.24,0.547,18.13,-21.42,-18.252
47234120,-0.822,0.211,0.536,30.135,-40.792,-28.857
47234130,-0.744,0.325,0.616,45.885,-56.542,-40.547
47234140,-0.723,0.38,0.691,46.97,-55.335,-46.165
47234150,-0.645,0.346,0.68,34.527,-48.825,-40.25
47234160,-0.693,0.32,0.657,17.08,-33.95,-22.102
47234170,-0.692,0.218,0.627,3.22,-30.765,-9.012
47234180,-0.577,0.251,0.69,0.472,-25.322,-2.397
47234190,-0.571,0.244,0.677,-1.155,-13.125,1.995
47234200,-0.528,0.292,0.69,-3.99,-2.03,7.437
47234210,-0.64,0.306,0.694,-10.552,8.19,14.525
47234220,-0.594,0.315,0.666,-14.122,15.47,18.27
47234230,-0.595,0.435,0.732,-19.407,35.56,24.64
47234240,-0.74,0.319,0.626,-35.997,53.375,34.3
47234250,-0.663,0.224,0.58,-40.792,51.012,37.205
47234260,-0.67,0.282,0.638,-32.725,50.732,34.93
47234270,-0.72,0.263,0.632,-25.497,54.022,27.405
47234280,-0.823,0.257,0.571,-15.75,51.835,17.622
47234290,-0.846,0.29,0.561,-4.41,39.707,8.942
47234300,-0.875,0.346,0.567,2.432,26.67,3.202
47234310,-0.873,0.33,0.554,5.967,15.837,-4.637
47234320,-0.876,0.286,0.535,9.257,5.775,-11.217
47234330,-0.858,0.279,0.534,13.597,-5.53,-16.047
47234330,-0.997,0.175,0.488,20.02,-20.772,-21.122
47234350,-0.73,0.237,0.542,41.335,-48.965,-36.802
47234350,-0.742,0.39,0.695,55.475,-52.325,-45.675
47234370,-0.733,0.379,0.671,46.095,-45.465,-47.302
47234370,-0.629,0.374,0.655,26.6,-37.572,-36.75
47234390,-0.686,0.297,0.644,3.552,-22.207,-18.427
47234390,-0.677,0.229,0.628,-11.305,-11.497,-3.972
47234410,-0.53,0.242,0.675,-14.017,-3.307,-0.157
47234410,-0.578,0.255,0.669,-17.535,8.4,6.317
47234420,-0.618,0.276,0.663,-19.635,19.407,9.782
47234430,-0.578,0.407,0.677,-20.475,31.745,11.742
47234440,-0.712,0.459,0.663,-38.727,52.71,23.992
47234450,-0.771,0.31,0.578,-60.48,61.162,33.53
47234460,-0.709,0.245,0.559,-61.705,62.02,35.595
47234470,-0.743,0.232,0.568,-52.745,60.917,33.25
47234480,-0.86,0.185,0.536,-43.155,55.895,28.245
47234490,-0.861,0.182,0.515,-26.652,42.542,17.237
47234500,-0.887,0.258,0.504,-7.805,27.93,7.49
47234510,-0.894,0.281,0.487,4.06,12.057,-0.647
47234520,-0.934,0.299,0.521,11.182,-2.432,-8.54
47234530,-0.913,0.261,0.527,14.122,-15.435,-12.792
47234540,-0.897,0.195,0.496,16.572,-25.182,-14.017
47234550,-0.799,0.107,0.47,30.625,-45.535,-22.977
47234560,-0.709,0.253,0.601,52.797,-58.082,-31.132
47234570,-0.767,0.301,0.638,57.715,-57.417,-35.892
47234580,-0.748,0.363,0.642,47.46,-54.757,-32.812
47234590,-0.803,0.321,0.586,31.272,-52.517,-25.06
47234600,-0.805,0.285,0.589,20.387,-53.112,-18.882
47234610,-0.745,0.327,0.632,13.09,-54.005,-13.51
47234620,-0.713,0.352,0.66,-0.017,-49.98,-4.935
47234630,-0.7,0.327,0.659,-16.992,-42.315,3.972
47234640,-0.619,0.236,0.644,-28.875,-32.235,14.49
47234650,-0.566,0.256,0.681,-32.007,-26.25,22.802
47234660,-0.426,0.307,0.729,-31.15,-10.43,26.092
47234670,-0.458,0.392,0.772,-38.5,28.84,37.362
47234670,-0.684,0.261,0.657,-51.695,60.077,49.56
47234690,-0.718,0.154,0.586,-47.057,66.71,46.637
47234690,-0.832,0.175,0.547,-27.02,58.8,35.507
47234710,-0.829,0.298,0.548,-8.435,44.275,25.322
47234710,-0.966,0.303,0.512,-1.627,29.435,15.627
47234730,-0.853,0.328,0.522,5.355,8.592,3.57
47234730,-0.867,0.332,0.565,8.697,-6.562,-3.43
47234750,-0.812,0.283,0.584,8.172,-16.31,-7.437
47234750,-0.761,0.229,0.593,9.992,-20.86,-8.89
47234760,-0.728,0.22,0.592,14.105,-21.945,-10.185
47234770,-0.796,0.223,0.613,18.375,-20.86,-10.972
47234780,-0.852,0.103,0.519,26.005,-34.895,-17.15
47234790,-0.639,0.292,0.624,45.115,-49.367,-27.072
47234800,-0.757,0.366,0.656,47.81,-44.03,-29.067
47234810,-0.803,0.364,0.629,36.557,-42.402,-25.025
47234820,-0.743,0.36,0.635,24.78,-45.71,-21.577
47234830,-0.699,0.357,0.66,13.912,-42.07,-15.33
47234840,-0.708,0.276,0.629,4.112,-36.347,-10.097
47234850,-0.591,0.295,0.654,2.222,-33.162,-8.977
47234860,-0.624,0.32,0.713,-2.187,-18.83,-4.235
47234870,-0.625,0.261,0.668,-9.45,-8.785,1.05
47234880,-0.614,0.286,0.681,-11.007,-1.942,5.127
47234890,-0.615,0.298,0.691,-14.052,6.212,8.295
47234900,-0.651,0.266,0.65,-17.447,13.265,11.357
47234910,-0.569,0.312,0.652,-15.4,19.355,11.865
47234920,-0.575,0.432,0.714,-22.505,39.602,19.372
47234930,-0.768,0.312,0.637,-41.615,58.012,31.99
47234940,-0.739,0.165,0.558,-43.995,58.695,32.62
47234950,-0.787,0.184,0.56,-29.172,53.165,26.355
47234960,-0.834,0.193,0.551,-13.562,41.3,17.132
47234970,-0.789,0.284,0.561,-0.42,29.977,9.1
47234980,-0.889,0.27,0.554,4.672,22.067,4.655
47234990,-0.892,0.252,0.521,9.747,8.172,-0.717
47235000,-0.869,0.306,0.561,17.762,-6.702,-6.44
47235010,-0.929,0.285,0.593,20.195,-18.042,-11.357
47235020,-0.852,0.157,0.524,26.005,-33.53,-19.915
47235030,-0.655,0.277,0.594,45.08,-47.775,-33.582
47235040,-0.711,0.38,0.659,50.872,-47.635,-40.057
47235050,-0.69,0.393,0.669,38.657,-42.542,-38.185
47235060,-0.722,0.37,0.651,21.105,-33.11,-26.53
47235070,-0.695,0.302,0.647,5.792,-24.955,-15.032
47235080,-0.706,0.248,0.631,-2.852,-19.722,-6.93
47235080,-0.589,0.296,0.676,-5.337,-14.245,-3.377
47235100,-0.609,0.289,0.676,-10.605,-3.517,1.452
47235100,-0.565,0.272,0.667,-15.295,8.102,5.897
47235120,-0.632,0.263,0.676,-15.662,18.025,8.767
47235120,-0.564,0.348,0.669,-13.79,28.63,10.5
47235140,-0.707,0.468,0.732,-24.972,53.742,19.215
47235140,-0.887,0.222,0.554,-43.575,62.177,25.742
47235160,-0.785,0.187,0.527,-34.912,51.502,18.445
47235160,-0.808,0.241,0.546,-17.08,42.192,8.505
47235170,-0.866,0.205,0.466,-5.722,28.805,-0.052
47235180,-0.92,0.26,0.506,6.615,9.992,-5.582
47235190,-0.906,0.328,0.522,13.895,-8.802,-9.047
47235200,-0.846,0.272,0.594,11.97,-18.847,-10.517
47235210,-0.73,0.177,0.551,15.277,-22.4,-14.192
47235220,-0.643,0.092,0.526,29.12,-9.187,-14.052
47235230,-0.942,0.364,0.666,42.017,-22.277,-19.232
47235240,-0.561,0.33,0.679,32.427,-32.165,-26.915
47235250,-0.852,0.244,0.569,23.17,-20.86,-23.345
47235260,-0.791,0.282,0.558,23.94,-28.612,-23.555
47235270,-0.85,0.33,0.603,24.115,-36.592,-22.732
47235280,-0.806,0.381,0.629,15.295,-35.14,-15.855
47235290,-0.715,0.25,0.5,-0.332,-31.202,-8.627
47235300,-0.73,0.282,0.671,-0.612,-20.772,-7.157
47235310,-0.644,0.316,0.72,-4.112,-29.242,-0.105
47235320,-0.565,0.218,0.655,-12.337,-20.807,1.75
47235330,-0.548,0.266,0.678,-11.55,-6.457,7.997
47235340,-0.638,0.254,0.661,-14.192,4.725,14.122
47235350,-0.583,0.299,0.633,-16.415,13.65,18.025
47235360,-0.71,0.462,0.722,-26.057,40.687,27.492
47235370,-0.925,0.231,0.566,-48.545,54.355,35.507
47235380,-0.736,0.104,0.496,-45.902,39.97,32.917
47235390,-0.774,0.201,0.546,-26.197,29.33,29.487
47235400,-0.782,0.244,0.595,-13.947,20.142,22.067
47235410,-0.768,0.261,0.579,-8.015,14.402,16.187
47235420,-0.751,0.261,0.582,-2.625,10.045,11.252
47235420,-0.794,0.274,0.578,2.747,7.21,7.157
47235440,-0.828,0.323,0.598,8.767,4.042,1.942
47235440,-0.875,0.322,0.59,10.325,0.857,-2.677
47235460,-0.864,0.276,0.541,10.482,-7.507,-7.42
47235460,-0.915,0.226,0.51,16.887,-18.76,-13.842
47235480,-0.843,0.207,0.49,33.145,-44.065,-27.877
47235480,-0.742,0.371,0.623,50.242,-57.242,-38.745
47235500,-0.727,0.356,0.644,48.755,-56.49,-43.802
47235500,-0.522,0.317,0.555,36.767,-39.182,-36.995
47235510,-0.96,0.383,0.683,24.78,-16.45,-21.7
47235520,-0.755,0.299,0.676,2.852,-34.195,-10.78
47235530,-0.516,0.107,0.579,-4.62,-26.162,-6.352
47235540,-0.719,0.341,0.741,0.875,-17.132,-0.21
47235550,-0.514,0.232,0.694,-13.3,-12.547,3.062
47235560,-0.567,0.248,0.676,-21.455,2.135,16.17
47235570,-0.628,0.223,0.666,-24.535,9.257,23.8
47235580,-0.571,0.312,0.623,-22.242,18.935,25.182
47235590,-0.639,0.509,0.684,-30.1,43.19,32.532
47235600,-0.948,0.252,0.58,-54.022,55.125,42
47235610,-0.704,0.218,0.542,-52.57,45.867,41.562
47235620,-0.81,0.213,0.575,-40.897,40.932,37.677
47235630,-0.834,0.228,0.578,-29.085,32.392,28.35
47235640,-0.746,0.289,0.597,-17.167,26.302,18.917
47235650,-0.823,0.261,0.57,-9.747,23.852,12.775
47235660,-0.787,0.243,0.526,0.332,16.31,3.657
47235670,-0.858,0.326,0.541,13.807,8.837,-4.935
47235680,-0.954,0.31,0.546,17.132,-1.19,-12.18
47235690,-0.937,0.231,0.526,18.812,-15.242,-16.642
47235700,-0.875,0.142,0.489,30.275,-35.682,-24.22
47235710,-0.709,0.341,0.61,46.725,-50.382,-33.442
47235720,-0.86,0.301,0.615,42.245,-50.47,-35.682
47235730,-0.711,0.275,0.585,35.017,-55.492,-35.017
47235740,-0.714,0.314,0.617,29.435,-53.987,-27.142
47235750,-0.747,0.269,0.634,19.267,-49.507,-18.515
47235760,-0.657,0.281,0.648,11.987,-47.845,-13.002
47235770,-0.64,0.308,0.683,4.48,-35.997,-4.515
47235780,-0.685,0.254,0.639,-4.707,-24.57,2.852
47235790,-0.593,0.273,0.664,-6.86,-18.2,6.142
47235800,-0.608,0.3,0.686,-9.642,-9.887,10.36
47235810,-0.623,0.292,0.677,-14.682,-1.155,13.86
47235820,-0.611,0.303,0.685,-16.467,6.965,14.805
47235830,-0.527,0.341,0.666,-18.882,17.202,17.832
47235830,-0.526,0.504,0.742,-30.992,46.427,28.227
47235850,-0.883,0.201,0.616,-52.797,67.9,37.117
47235850,-0.733,0.109,0.528,-41.037,57.505,27.125
47235870,-0.775,0.262,0.573,-15.242,50.855,16.047
47235870,-0.848,0.301,0.58,-8.242,43.137,8.697
47235890,-0.945,0.24,0.526,-9.45,33.145,5.565
47235890,-0.812,0.235,0.503,-0.455,15.785,-1.295
47235900,-0.873,0.293,0.545,8.435,4.847,-6.527
47235910,-0.908,0.252,0.561,11.602,-5.057,-12.407
47235920,-0.914,0.227,0.55,16.502,-15.225,-15.19
47235930,-0.85,0.126,0.504,27.93,-35.577,-23.922
47235940,-0.651,0.294,0.57,48.405,-51.59,-36.12
47235950,-0.735,0.403,0.639,49.647,-51.835,-39.987
47235960,-0.74,0.38,0.652,28.595,-47.652,-31.15
47235970,-0.775,0.324,0.685,5.25,-37.275,-12.565
47235980,-0.754,0.202,0.621,-8.207,-27.597,0.035
47235990,-0.584,0.224,0.635,-6.545,-25.672,0.647
47236000,-0.655,0.284,0.67,-4.987,-16.835,3.657
47236010,-0.613,0.286,0.65,-6.685,-8.872,5.092
47236020,-0.627,0.288,0.645,-7.017,0.49,5.547
47236030,-0.656,0.295,0.649,-6.44,7.857,5.652
47236040,-0.678,0.323,0.667,-5.46,13.562,5.075
47236050,-0.706,0.319,0.717,-7.787,26.39,6.475
47236060,-0.746,0.267,0.599,-11.97,37.065,8.347
47236070,-0.713,0.204,0.546,-10.185,30.695,5.845
47236080,-0.784,0.249,0.585,-3.202,28.385,6.247
47236090,-0.794,0.244,0.546,-1.645,24.885,7.525
47236100,-0.833,0.217,0.546,-2.45,16.765,9.782
47236110,-0.83,0.217,0.565,0.63,8.645,11.392
47236120,-0.804,0.213,0.558,5.267,0.507,10.517
47236130,-0.789,0.244,0.573,10.447,-6.02,8.225
47236140,-0.801,0.299,0.615,13.475,-7.997,5.95
47236150,-0.736,0.322,0.608,12.092,-6.44,4.27
47236160,-0.726,0.319,0.606,9.065,-4.375,2.292
47236170,-0.738,0.333,0.621,6.335,-2.012,2.87
47236170,-0.751,0.316,0.605,2.257,-1.47,3.43
47236190,-0.745,0.298,0.6,2.012,-1.365,3.097
47236190,-0.732,0.287,0.59,1.137,-2.012,2.257
47236210,-0.744,0.265,0.58,0.787,-1.575,1.137
47236210,-0.802,0.232,0.558,3.272,-5.407,-0.997
47236230,-0.725,0.309,0.581,10.08,-14.455,-5.792
47236230,-0.825,0.34,0.623,9.957,-13.562,-7.612
47236250,-0.803,0.296,0.589,5.302,-13.982,-7.735
47236250,-0.762,0.307,0.604,3.745,-16.765,-6.58
47236260,-0.729,0.281,0.606,1.382,-14.612,-5.057
47236270,-0.712,0.265,0.6,-0.735,-12.075,-2.607
47236280,-0.711,0.262,0.609,-1.067,-9.047,-1.015
47236290,-0.714,0.265,0.612,-0.962,-7.21,0.437
47236300,-0.735,0.279,0.61,-0.087,-5.442,1.855
47236310,-0.766,0.297,0.601,0.175,-5.915,3.342
47236320,-0.779,0.305,0.591,-1.487,-8.19,4.725
47236330,-0.779,0.305,0.594,-3.99,-11.742,5.897
47236340,-0.77,0.296,0.614,-7.805,-15.102,7.98
47236350,-0.683,0.279,0.651,-12.915,-15.452,12.092
47236360,-0.599,0.289,0.647,-18.83,-6.055,21.192
47236370,-0.592,0.34,0.657,-27.772,10.552,33.652
47236380,-0.683,0.291,0.65,-38.675,26.092,42.507
47236390,-0.591,0.251,0.64,-39.445,35.717,40.897
47236400,-0.692,0.197,0.617,-31.885,45.5,35.017
47236410,-0.761,0.213,0.574,-18.217,45.902,25.41
47236420,-0.895,0.282,0.511,-3.045,35.507,16.065
47236430,-0.845,0.458,0.577,5.897,19.74,7.665
47236440,-0.985,0.341,0.507,0.332,8.4,1.785
47236450,-0.889,0.316,0.515,3.622,-7.892,-6.177
47236460,-0.84,0.299,0.563,8.662,-19.88,-11.252
47236470,-0.85,0.221,0.575,7.7,-26.355,-12.25
47236480,-0.708,0.165,0.513,17.675,-43.137,-18.917
47236490,-0.669,0.346,0.648,33.46,-42.857,-25.287
47236500,-0.787,0.215,0.616,32.865,-37.992,-30.835
47236510,-0.719,0.271,0.59,38.57,-40.88,-32.077
47236520,-0.724,0.323,0.645,42.105,-42.087,-32.812
47236530,-0.722,0.392,0.65,33.74,-34.037,-26.827
47236540,-0.801,0.315,0.587,16.117,-29.54,-15.277
47236550,-0.715,0.286,0.603,5.372,-30.695,-7.735
47236560,-0.674,0.275,0.626,1.627,-29.312,-3.045
47236570,-0.656,0.296,0.66,-1.96,-23.012,2.1
47236580,-0.634,0.3,0.665,-5.967,-18.742,6.387
47236580,-0.585,0.321,0.681,-8.785,-10.867,9.87
47236590,-0.611,0.311,0.687,-12.792,-0.997,13.58
47236600,-0.541,0.335,0.675,-14.98,9.905,15.872
47236610,-0.674,0.344,0.684,-20.877,35.735,21.017
47236620,-0.683,0.213,0.577,-25.55,42.542,23.135
47236630,-0.682,0.267,0.607,-17.657,39.795,22.155
