time[ms],accX[g],accY[g],accZ[g],Value 1,Value 2,Value 3
47439070,-0.639,0.238,0.67,19.74,-27.79,-7.192
47439080,-0.534,0.319,0.678,31.867,-24.132,-11.112
47439090,-0.596,0.355,0.665,34.44,-13.685,-12.285
47439100,-0.688,0.338,0.652,33.722,-7.875,-13.212
47439110,-0.719,0.353,0.637,34.527,-8.942,-14.052
47439120,-0.743,0.357,0.621,33.827,-13.667,-12.512
47439130,-0.723,0.363,0.596,32.795,-19.162,-10.867
47439140,-0.726,0.378,0.595,32.55,-22.365,-8.487
47439150,-0.672,0.43,0.618,28.595,-23.607,-6.02
47439160,-0.621,0.47,0.609,18.777,-19.722,-0.577
47439170,-0.623,0.504,0.599,5.057,-12.11,6.527
47439180,-0.69,0.453,0.641,-9.292,-7.63,10.132
47439190,-0.612,0.406,0.655,-17.395,-7.857,9.047
47439200,-0.569,0.379,0.658,-16.94,-3.762,8.05
47439210,-0.556,0.37,0.665,-14.367,3.115,5.845
47439220,-0.58,0.363,0.655,-11.165,10.552,4.182
47439230,-0.592,0.375,0.649,-9.642,17.85,3.815
47439240,-0.648,0.376,0.633,-12.285,23.03,4.55
47439250,-0.64,0.43,0.568,-16.275,27.387,6.265
47439260,-0.748,0.531,0.573,-27.317,35.787,13.772
47439260,-0.97,0.362,0.59,-44.94,25.392,16.03
47439280,-0.821,0.306,0.573,-42.525,7.577,15.505
47439280,-0.735,0.399,0.595,-35.805,-1.225,18.655
47439300,-0.752,0.34,0.61,-41.317,-8.872,17.36
47439300,-0.7,0.312,0.632,-40.04,-12.495,16.572
47439320,-0.696,0.278,0.656,-35.472,-16.205,15.925
47439320,-0.611,0.304,0.68,-27.527,-16.327,12.075
47439330,-0.63,0.285,0.693,-20.265,-11.97,10.132
47439340,-0.624,0.299,0.686,-12.425,-8.54,7.227
47439350,-0.637,0.301,0.667,-3.29,-4.742,4.97
47439360,-0.665,0.338,0.651,4.62,-2.17,1.54
47439370,-0.705,0.364,0.637,8.75,-0.892,-1.102
47439380,-0.749,0.372,0.629,10.43,-2.817,-1.435
47439390,-0.755,0.364,0.621,10.797,-7.63,-0.735
47439400,-0.719,0.36,0.623,13.125,-12.355,-0.402
47439410,-0.674,0.349,0.633,15.575,-14.455,-2.17
47439420,-0.635,0.343,0.635,17.5,-14.315,-5.057
47439430,-0.686,0.346,0.688,19.127,-11.55,-6.58
47439440,-0.732,0.175,0.697,22.785,-18.655,-10.167
47439450,-0.568,0.221,0.658,41.072,-23.8,-13.772
47439460,-0.639,0.341,0.669,52.29,-25.392,-15.102
47439470,-0.636,0.367,0.645,52.867,-24.15,-20.09
47439480,-0.652,0.415,0.647,50.347,-20.195,-19.775
47439490,-0.635,0.45,0.619,40.862,-16.38,-15.627
47439500,-0.653,0.489,0.599,29.942,-9.257,-10.78
47439510,-0.745,0.477,0.608,18.917,-5.372,-5.757
47439520,-0.688,0.46,0.604,11.007,-9.047,-4.095
47439530,-0.667,0.466,0.619,5.425,-9.397,-1.242
47439540,-0.657,0.432,0.629,-1.75,-10.01,1.242
47439550,-0.635,0.395,0.651,-6.422,-9.73,3.29
47439560,-0.594,0.386,0.666,-9.467,-7.752,4.952
47439570,-0.596,0.375,0.662,-13.247,-2.992,6.947
47439580,-0.6,0.365,0.659,-16.082,1.662,8.557
47439580,-0.611,0.376,0.656,-17.605,6.195,9.415
47439600,-0.62,0.392,0.633,-19.652,10.185,10.097
47439600,-0.599,0.52,0.598,-24.36,17.465,12.477
47439620,-0.745,0.487,0.616,-39.952,23.852,17.745
47439620,-0.782,0.342,0.62,-49.56,17.447,15.732
47439640,-0.696,0.352,0.631,-41.475,11.987,14.665
47439640,-0.68,0.352,0.635,-36.697,8.977,13.79
47439660,-0.672,0.333,0.648,-32.847,7.455,10.535
47439660,-0.693,0.273,0.678,-26.425,4.462,9.03
47439670,-0.599,0.338,0.67,-17.99,4.235,6.002
47439680,-0.647,0.334,0.662,-15.575,7.63,6.142
47439690,-0.682,0.353,0.67,-15.54,9.415,5.11
47439700,-0.662,0.323,0.657,-13.58,8.995,4.952
47439710,-0.632,0.376,0.635,-10.762,12.267,5.145
47439720,-0.696,0.381,0.633,-13.177,13.597,5.722
47439730,-0.725,0.346,0.641,-15.872,10.92,5.32
47439740,-0.719,0.355,0.636,-14.875,6.86,5.722
47439750,-0.712,0.343,0.637,-14.087,2.24,5.267
47439760,-0.691,0.364,0.633,-12.46,-0.98,3.797
47439770,-0.724,0.349,0.633,-11.847,-3.745,3.237
47439780,-0.692,0.338,0.637,-10.412,-7.717,0.962
47439790,-0.679,0.334,0.658,-7.805,-9.572,-0.245
47439800,-0.654,0.333,0.659,-5.407,-9.1,-1.067
47439810,-0.647,0.332,0.655,-4.165,-7.28,-0.63
47439820,-0.671,0.32,0.653,-2.642,-5.705,-0.245
47439830,-0.658,0.317,0.658,0.665,-4.217,-1.05
47439840,-0.659,0.331,0.661,3.78,-2.712,-1.767
47439850,-0.654,0.34,0.649,4.585,-0.717,-1.837
47439860,-0.67,0.353,0.641,4.567,0.787,-0.857
47439870,-0.712,0.359,0.643,3.097,0.98,1.155
47439880,-0.7,0.366,0.642,2.852,-1.207,1.61
47439890,-0.686,0.349,0.645,2.03,-2.8,1.242
47439900,-0.68,0.35,0.639,2.537,-3.465,1.347
47439910,-0.673,0.372,0.632,3.832,-1.592,2.677
47439920,-0.696,0.366,0.654,3.08,-0.192,3.115
47439930,-0.657,0.244,0.686,4.077,-1.277,1.277
47439940,-0.532,0.29,0.674,14.665,3.867,0.105
47439950,-0.614,0.345,0.67,18.252,13.02,1.4
47439960,-0.666,0.333,0.662,17.832,18.69,-0.052
47439970,-0.686,0.346,0.635,19.687,21.56,0.472
47439980,-0.715,0.317,0.622,20.492,19.74,-0.017
47439990,-0.631,0.423,0.6,23.31,18.06,-2.66
47440000,-0.76,0.447,0.604,16.782,18.585,-0.07
47440010,-0.745,0.435,0.581,7.875,15.26,0.665
47440010,-0.76,0.429,0.583,1.05,9.397,2.87
47440020,-0.738,0.38,0.611,-5.687,2.292,3.22
47440030,-0.658,0.337,0.636,-7.665,-0.927,3.132
47440040,-0.612,0.346,0.654,-7.297,1.207,4.585
47440050,-0.606,0.335,0.653,-8.015,5.95,4.077
47440060,-0.599,0.397,0.598,-6.965,13.3,2.66
47440070,-0.675,0.569,0.556,-13.702,19.075,1.96
47440080,-0.856,0.419,0.625,-30.8,15.89,-1.505
47440090,-0.746,0.347,0.564,-29.242,11.41,-5.18
47440100,-0.733,0.437,0.593,-26.267,5.88,-1.172
47440110,-0.784,0.345,0.612,-33.005,0.91,-1.417
47440120,-0.743,0.275,0.611,-29.662,-3.447,-0.647
47440130,-0.677,0.308,0.618,-22.995,-5.687,1.365
47440140,-0.706,0.304,0.643,-21.787,-4.76,1.75
47440150,-0.723,0.25,0.63,-20.37,-5.302,0.665
47440160,-0.678,0.291,0.625,-11.41,-4.322,2.537
47440170,-0.738,0.298,0.631,-7.735,-3.202,4.725
47440180,-0.698,0.287,0.636,-3.027,-5.88,3.027
47440190,-0.671,0.331,0.634,3.587,-4.777,2.87
47440200,-0.711,0.353,0.612,4.375,-3.797,1.19
47440210,-0.735,0.35,0.602,4.917,-3.762,0.682
47440220,-0.76,0.382,0.606,5.652,-6.632,0.28
47440230,-0.754,0.361,0.606,4.952,-10.447,-1.225
47440240,-0.73,0.352,0.615,6.055,-14.385,-3.08
47440250,-0.697,0.315,0.675,8.522,-14.665,-4.917
47440260,-0.618,0.208,0.672,15.575,-11.707,-7.507
47440270,-0.529,0.262,0.658,30.205,-3.832,-8.26
47440280,-0.597,0.336,0.67,35.507,4.62,-8.067
47440290,-0.683,0.331,0.66,35.105,12.075,-8.505
47440300,-0.703,0.347,0.618,35.157,14.192,-8.47
47440310,-0.766,0.353,0.59,33.88,12.967,-8.295
47440320,-0.729,0.414,0.563,31.115,9.362,-7
47440330,-0.82,0.401,0.576,24.832,6.562,-1.96
47440330,-0.724,0.408,0.562,19.057,1.347,0.245
47440350,-0.692,0.418,0.585,14.35,1.225,2.397
47440350,-0.679,0.425,0.586,6.597,3.71,4.042
47440370,-0.729,0.359,0.611,-0.017,3.657,4.392
47440370,-0.678,0.382,0.586,0.945,2.52,3.115
47440390,-0.755,0.401,0.593,-0.647,0.787,3.657
47440390,-0.753,0.371,0.594,-3.01,-3.255,2.8
47440410,-0.728,0.355,0.595,-4.112,-6.475,3.552
47440410,-0.696,0.342,0.62,-5.495,-7.84,3.99
47440420,-0.663,0.337,0.622,-5.407,-6.002,3.902
47440430,-0.663,0.347,0.623,-3.71,-2.17,3.727
47440440,-0.679,0.429,0.526,-2.712,1.172,2.957
47440450,-0.772,0.539,0.586,-9.082,-2.135,2.03
47440460,-0.834,0.42,0.609,-21.035,-7.332,-2.362
47440470,-0.679,0.378,0.577,-20.912,-9.607,-2.222
47440480,-0.686,0.394,0.617,-23.485,-10.832,-0.28
47440490,-0.677,0.341,0.61,-25.742,-7.7,-0.542
47440500,-0.709,0.342,0.607,-24.797,-5.092,2.747
47440510,-0.75,0.305,0.614,-25.987,-5.722,3.692
47440520,-0.715,0.295,0.613,-22.435,-8.207,3.202
47440530,-0.736,0.317,0.625,-18.777,-8.767,6.02
47440540,-0.756,0.272,0.628,-16.275,-12.337,5.95
47440550,-0.697,0.299,0.618,-6.825,-14.472,3.885
47440560,-0.697,0.308,0.628,1.732,-16.362,0.49
47440570,-0.686,0.313,0.634,9.327,-16.397,-5.302
47440580,-0.659,0.345,0.642,14.35,-14.787,-8.102
47440590,-0.683,0.341,0.628,15.015,-11.917,-9.607
47440600,-0.684,0.327,0.628,17.43,-11.077,-12.057
47440610,-0.708,0.328,0.612,22.417,-11.917,-13.492
47440620,-0.732,0.308,0.669,28.367,-15.4,-16.345
47440630,-0.711,0.188,0.68,39.025,-18.462,-21.945
47440640,-0.594,0.275,0.678,54.39,-20.965,-26.967
47440650,-0.648,0.289,0.645,60.935,-21.035,-29.435
47440660,-0.723,0.334,0.645,64.907,-18.2,-34.65
47440670,-0.745,0.319,0.636,65.852,-24.097,-38.815
47440680,-0.654,0.377,0.613,67.602,-28.822,-38.237
47440690,-0.681,0.439,0.587,64.802,-23.52,-32.69
47440690,-0.721,0.462,0.533,54.46,-19.442,-26.635
47440710,-0.755,0.478,0.514,44.065,-15.015,-22.89
47440710,-0.776,0.493,0.526,35.07,-14.91,-20.055
47440730,-0.759,0.488,0.56,25.217,-16.922,-16.135
47440730,-0.798,0.413,0.577,17.255,-22.067,-13.405
47440750,-0.706,0.395,0.599,14.77,-29.522,-14.84
47440750,-0.678,0.378,0.645,16.03,-32.305,-17.255
47440760,-0.565,0.394,0.616,15.732,-31.062,-19.022
47440770,-0.68,0.36,0.639,17.272,-24.01,-19.145
47440780,-0.595,0.38,0.638,16.712,-21.787,-22.522
47440790,-0.592,0.387,0.631,15.96,-11.742,-19.932
47440800,-0.728,0.381,0.62,12.32,-4.427,-14.49
47440810,-0.675,0.376,0.622,8.942,-4.287,-11.427
47440820,-0.691,0.388,0.614,7.122,-1.872,-6.597
47440830,-0.691,0.389,0.621,3.08,0.122,-1.067
47440840,-0.684,0.363,0.62,-0.122,1.645,2.345
47440850,-0.67,0.37,0.622,-0.595,2.537,5.67
47440860,-0.659,0.386,0.631,0.105,4.742,7.542
47440870,-0.675,0.396,0.616,-1.015,7.857,8.837
47440880,-0.748,0.373,0.603,-2.502,6.405,8.802
47440890,-0.739,0.393,0.596,-0.682,2.205,5.39
47440900,-0.739,0.399,0.593,0.367,-2.187,3.395
47440910,-0.743,0.382,0.589,-0.472,-6.807,3.36
47440920,-0.739,0.378,0.596,-1.155,-12.232,4.725
47440930,-0.746,0.375,0.605,-3.447,-17.062,8.522
47440940,-0.73,0.37,0.62,-6.09,-22.47,13.947
47440950,-0.614,0.403,0.634,-9.047,-22.977,19.127
47440960,-0.581,0.458,0.635,-17.412,-7.122,25.042
47440970,-0.76,0.269,0.62,-26.25,-1.522,28.21
47440980,-0.656,0.324,0.634,-18.077,-9.52,25.165
47440990,-0.618,0.4,0.652,-7.945,-8.487,19.687
47441000,-0.626,0.375,0.639,-5.827,-6.317,13.247
47441010,-0.669,0.39,0.631,-1.102,-4.287,9.905
47441020,-0.663,0.422,0.63,2.677,-4.917,6.177
47441030,-0.656,0.415,0.618,2.642,-4.112,2.677
47441040,-0.667,0.406,0.624,2.415,-4.025,-0.105
47441050,-0.671,0.395,0.627,2.397,-3.57,-2.327
47441060,-0.687,0.376,0.623,3.412,-3.937,-4.252
47441070,-0.693,0.375,0.619,5.74,-4.725,-6.16
47441080,-0.69,0.381,0.626,7.665,-5.74,-8.032
47441080,-0.68,0.377,0.625,8.207,-5.652,-9.327
47441100,-0.716,0.354,0.62,8.715,-7.525,-10.15
47441100,-0.719,0.305,0.643,11.76,-17.185,-13.597
47441120,-0.609,0.368,0.663,17.132,-25.095,-17.552
47441120,-0.525,0.396,0.664,18.987,-19.915,-15.662
47441140,-0.613,0.392,0.655,16.8,-4.952,-10.605
47441140,-0.587,0.402,0.65,15.75,7.122,-9.362
47441160,-0.484,0.439,0.649,13.982,21.892,-10.097
47441160,-0.465,0.509,0.67,5.6,46.2,-7.717
47441170,-0.51,0.476,0.643,-10.99,72.117,-1.995
47441180,-0.641,0.42,0.607,-22.802,89.25,1.61
47441190,-0.662,0.398,0.595,-26.53,97.527,0.262
47441200,-0.773,0.331,0.592,-26.915,97.72,-4.795
47441210,-0.809,0.384,0.555,-23.922,92.33,-15.645
47441220,-0.902,0.197,0.528,-14,85.715,-18.112
47441230,-0.879,0.271,0.577,0.945,69.807,-20.212
47441240,-0.832,0.339,0.621,9.782,60.112,-15.12
47441250,-0.759,0.322,0.603,3.657,60.777,-14.49
47441260,-0.818,0.305,0.558,-7.7,62.072,-15.19
47441270,-0.925,0.285,0.507,-15.452,57.225,-12.337
47441280,-0.868,0.284,0.466,-17.377,46.987,-11.987
47441290,-0.919,0.288,0.455,-14.98,35.612,-13.212
47441300,-0.927,0.339,0.462,-13.877,20.79,-14.437
47441310,-0.938,0.36,0.482,-16.747,6.352,-15.312
47441320,-0.879,0.399,0.519,-24.482,-7.98,-18.042
47441330,-0.794,0.408,0.506,-37.17,-16.17,-20.457
47441340,-0.718,0.371,0.489,-49.98,-16.327,-21.42
47441350,-0.698,0.287,0.477,-54.407,-8.33,-21.437
47441360,-0.704,0.229,0.483,-45.167,4.235,-19.635
47441370,-0.787,0.276,0.524,-29.19,11.62,-14.752
47441380,-0.779,0.296,0.541,-11.865,17.062,-10.062
47441390,-0.812,0.292,0.525,4.13,16.485,-5.32
47441400,-0.825,0.333,0.521,16.17,7.91,-1.12
47441410,-0.895,0.342,0.507,22.067,-7.77,0.28
47441420,-0.916,0.326,0.514,21.927,-30.152,-2.52
47441420,-0.902,0.306,0.468,14.962,-53.69,-9.432
47441440,-0.952,0.238,0.413,5.337,-71.977,-15.172
47441440,-0.919,0.235,0.41,-1.417,-82.495,-14.28
47441460,-0.874,0.262,0.414,-6.527,-81.217,-9.415
47441460,-0.84,0.266,0.453,-7.192,-73.972,-3.727
47441480,-0.723,0.366,0.531,-2.817,-63.717,-0.647
47441480,-0.608,0.268,0.536,-3.307,-46.462,5.722
47441500,-0.664,0.332,0.589,4.76,-30.432,8.907
47441500,-0.627,0.356,0.573,15.942,-24.062,14.017
47441510,-0.663,0.37,0.577,26.442,-21.927,14.105
47441520,-0.678,0.439,0.622,33.827,-22.942,5.355
47441530,-0.7,0.486,0.646,34.317,-29.977,-0.437
47441540,-0.648,0.46,0.619,30.87,-38.78,3.815
47441550,-0.68,0.539,0.616,27.09,-39.182,8.4
47441560,-0.685,0.498,0.598,22.505,-36.102,9.257
47441570,-0.689,0.526,0.588,19.302,-34.002,12.495
47441580,-0.675,0.501,0.589,15.505,-31.85,14.56
47441590,-0.66,0.468,0.596,9.922,-27.685,14.087
47441600,-0.678,0.444,0.604,4.27,-22.68,13.877
47441610,-0.692,0.405,0.618,-1.522,-19.092,13.737
47441620,-0.689,0.381,0.625,-5.267,-17.71,11.795
47441630,-0.626,0.362,0.602,-6.807,-14.542,9.94
47441640,-0.673,0.305,0.588,-4.462,-7.682,11.497
47441650,-0.74,0.358,0.61,0.385,-6.23,17.01
47441660,-0.729,0.394,0.642,-1.435,-12.442,16.135
47441670,-0.679,0.39,0.619,-8.662,-18.095,8.662
47441680,-0.676,0.355,0.599,-14.017,-20.02,7.052
47441690,-0.701,0.369,0.602,-16.59,-18.97,10.132
47441700,-0.724,0.381,0.62,-20.16,-18.427,9.45
47441710,-0.74,0.339,0.614,-24.867,-18.777,5.442
47441720,-0.739,0.272,0.591,-24.692,-20.737,1.4
47441730,-0.711,0.229,0.597,-19.092,-20.947,-1.015
47441740,-0.632,0.203,0.653,-11.025,-13.755,-0.402
47441750,-0.706,0.29,0.671,-0.42,-0.28,2.275
47441760,-0.682,0.284,0.684,0.63,1.802,0.07
47441770,-0.67,0.211,0.667,-3.727,3.92,-4.567
47441780,-0.697,0.181,0.685,-1.872,6.457,-6.247
47441790,-0.69,0.208,0.675,0.367,8.505,-7.437
47441800,-0.703,0.213,0.643,3.272,10.64,-5.197
47441810,-0.704,0.276,0.628,8.855,10.64,-1.575
47441820,-0.719,0.344,0.62,11.217,10.675,1.33
47441830,-0.734,0.37,0.616,9.73,10.535,3.307
47441830,-0.738,0.399,0.612,6.86,9.712,4.69
47441850,-0.732,0.421,0.611,2.8,8.365,4.69
47441850,-0.738,0.412,0.601,-0.752,6.335,2.905
47441870,-0.752,0.39,0.59,-1.872,1.54,0.105
47441870,-0.748,0.382,0.592,0.07,-5.6,-3.115
47441890,-0.74,0.38,0.598,1.242,-12.582,-6.685
47441890,-0.747,0.367,0.61,0.577,-17.972,-9.397
47441910,-0.737,0.352,0.619,-0.122,-21.472,-9.345
47441910,-0.71,0.332,0.626,-1.225,-22.435,-8.172
47441920,-0.699,0.304,0.631,-2.52,-21.822,-6.23
47441930,-0.694,0.287,0.632,-1.89,-19.39,-4.095
47441940,-0.672,0.305,0.629,-0.227,-18.287,-2.467
47441950,-0.698,0.313,0.626,-0.49,-17.115,0.105
47441960,-0.742,0.333,0.622,-0.875,-19.897,1.925
47441970,-0.751,0.354,0.63,-1.33,-24.57,3.727
47441980,-0.753,0.355,0.622,-2.922,-30.222,5.197
47441990,-0.729,0.34,0.623,-4.252,-34.877,6.912
47442000,-0.65,0.341,0.652,-4.742,-37.152,9.362
47442010,-0.612,0.352,0.675,-6.825,-34.65,12.722
47442020,-0.574,0.361,0.687,-10.465,-30.485,15.47
47442030,-0.574,0.376,0.713,-14.262,-23.24,17.237
47442040,-0.585,0.384,0.701,-18.305,-17.552,17.64
47442050,-0.609,0.354,0.676,-19.687,-10.92,16.485
47442060,-0.678,0.351,0.667,-17.815,-7.997,14.682
47442070,-0.685,0.347,0.658,-16.45,-8.365,14.07
47442080,-0.666,0.337,0.657,-15.925,-9.485,14.647
47442090,-0.635,0.333,0.673,-15.925,-9.117,15.225
47442100,-0.514,0.396,0.673,-17.552,-1.47,17.832
47442110,-0.633,0.409,0.663,-27.09,18.025,26.057
47442120,-0.779,0.277,0.671,-36.312,17.692,27.807
47442130,-0.661,0.292,0.672,-31.29,9.187,27.72
47442140,-0.66,0.307,0.673,-23.485,5.565,26.162
47442150,-0.699,0.299,0.67,-19.477,0.402,21.525
47442160,-0.705,0.303,0.67,-12.197,-8.61,15.505
47442170,-0.658,0.331,0.682,-2.31,-14.472,10.552
47442170,-0.661,0.345,0.671,4.007,-18.882,4.672
47442190,-0.65,0.379,0.678,8.75,-19.6,-0.017
47442190,-0.653,0.371,0.68,9.03,-18.655,-1.172
47442210,-0.636,0.341,0.671,8.207,-17.937,-1.452
47442210,-0.609,0.337,0.68,9.73,-16.415,-2.94
47442230,-0.593,0.332,0.695,11.812,-12.022,-4.882
47442230,-0.682,0.288,0.709,14.315,-10.097,-6.79
47442250,-0.628,0.252,0.711,22.61,-18.935,-11.602
47442250,-0.587,0.331,0.698,34.93,-21.21,-17.08
47442260,-0.613,0.378,0.688,37.66,-18.165,-20.807
47442270,-0.685,0.367,0.654,34.825,-17.867,-20.527
47442280,-0.658,0.41,0.654,30.59,-18.322,-17.15
47442290,-0.639,0.382,0.575,19.6,-17.062,-10.78
47442300,-0.621,0.351,0.618,7.927,-14.665,-5.162
47442310,-0.813,0.435,0.815,-3.482,-12.565,2.135
47442320,-0.84,0.417,0.725,-9.87,-16.887,11.147
47442330,-0.503,0.407,0.601,-9.257,-25.252,14.49
47442340,-0.488,0.406,0.708,-15.89,-24.937,13.877
47442350,-0.486,0.31,0.76,-23.712,-19.092,13.58
47442360,-0.394,0.295,0.756,-22.295,-8.085,13.492
47442370,-0.422,0.344,0.725,-21.14,10.377,12.145
47442380,-0.539,0.344,0.723,-17.99,25.287,10.92
47442390,-0.512,0.494,0.681,-15.382,37.38,12.512
47442400,-0.671,0.515,0.687,-26.95,53.637,20.195
47442410,-0.847,0.355,0.663,-41.177,51.642,22.522
47442420,-0.729,0.274,0.635,-36.995,34.282,22.085
47442430,-0.611,0.321,0.674,-27.44,22.662,18.532
47442440,-0.587,0.303,0.68,-23.712,20.685,13.562
47442450,-0.589,0.283,0.683,-17.43,24.15,9.362
47442460,-0.682,0.285,0.707,-8.557,24.202,5.757
47442470,-0.719,0.283,0.686,-0.542,16.8,0.035
47442480,-0.707,0.331,0.642,9.205,10.57,-5.88
47442490,-0.83,0.358,0.62,15.295,4.707,-10.99
47442500,-0.844,0.33,0.623,18.83,-7.612,-14.787
47442510,-0.863,0.213,0.613,25.97,-28.805,-19.81
47442520,-0.561,0.292,0.666,42.122,-48.405,-30.555
47442530,-0.557,0.368,0.726,51.59,-45.99,-38.745
47442540,-0.578,0.372,0.701,49.7,-36.382,-41.475
47442550,-0.658,0.37,0.667,46.41,-30.31,-37.747
47442560,-0.625,0.436,0.674,39.69,-23.275,-29.977
47442570,-0.793,0.334,0.659,30.292,-25.305,-25.165
47442580,-0.501,0.386,0.639,25.287,-33.495,-26.67
47442580,-0.52,0.492,0.711,17.815,-19.81,-18.462
47442600,-0.721,0.42,0.691,-1.785,-5.355,-6.247
47442600,-0.618,0.335,0.697,-14.297,-6.877,3.045
47442620,-0.552,0.352,0.715,-18.865,-6.685,12.232
47442620,-0.464,0.33,0.716,-23.502,0.175,16.24
47442640,-0.483,0.336,0.705,-23.292,13.265,17.062
47442640,-0.441,0.452,0.693,-23.905,30.835,19.075
47442660,-0.607,0.434,0.697,-34.09,53.532,24.587
47442660,-0.658,0.361,0.64,-42.997,63.612,27.755
47442670,-0.729,0.316,0.637,-43.365,63.402,27.807
47442680,-0.768,0.325,0.621,-38.115,55.212,24.552
47442690,-0.813,0.322,0.628,-32.252,41.947,19.652
47442700,-0.766,0.28,0.656,-24.36,23.957,13.02
47442710,-0.628,0.281,0.605,-13.842,13.79,6.195
47442720,-0.645,0.326,0.717,-5.022,11.025,0.525
47442730,-0.843,0.343,0.705,-0.175,8.242,-0.98
47442740,-0.618,0.334,0.601,8.172,1.645,-8.137
47442750,-0.738,0.352,0.631,13.02,-0.542,-13.562
47442760,-0.779,0.32,0.611,15.977,-4.042,-17.43
47442770,-0.833,0.238,0.611,20.615,-14.735,-21.385
47442780,-0.736,0.209,0.63,34.37,-37.45,-31.412
47442790,-0.622,0.367,0.713,51.922,-45.062,-39.41
47442800,-0.638,0.375,0.681,52.937,-39.34,-40.67
47442810,-0.595,0.368,0.673,47.232,-34.545,-37.345
47442820,-0.698,0.397,0.63,39.672,-26.897,-29.855
47442830,-0.582,0.401,0.639,27.177,-22.54,-23.52
47442840,-0.68,0.407,0.645,11.62,-12.302,-13.195
47442850,-0.744,0.346,0.646,-2.992,-9.275,-4.795
47442860,-0.668,0.331,0.663,-8.225,-13.72,-2.555
47442870,-0.595,0.363,0.693,-9.292,-11.48,-0.84
47442880,-0.616,0.336,0.7,-14.227,-4.445,2.8
47442890,-0.561,0.309,0.69,-15.47,2.135,3.552
47442900,-0.536,0.328,0.686,-15.207,10.412,3.815
47442910,-0.583,0.349,0.694,-15.172,19.775,5.18
47442920,-0.584,0.359,0.661,-15.4,27.23,6.107
47442920,-0.539,0.42,0.673,-16.012,35.752,7.822
47442940,-0.684,0.477,0.669,-26.722,55.475,16.572
47442940,-0.85,0.279,0.631,-38.85,55.562,19.775
47442960,-0.764,0.258,0.619,-31.552,40.057,16.222
47442960,-0.728,0.302,0.617,-18.445,28.787,8.592
47442980,-0.764,0.256,0.601,-9.467,18.847,0.192
47442980,-0.764,0.3,0.607,3.29,8.347,-6.615
47443000,-0.783,0.3,0.575,10.465,1.277,-12.022
47443000,-0.814,0.263,0.568,13.825,-8.277,-16.432
47443010,-0.981,0.262,0.585,19.897,-25.672,-16.397
47443020,-0.797,0.308,0.669,32.427,-57.032,-24.395
47443030,-0.572,0.414,0.731,44.572,-58.87,-31.5
47443040,-0.537,0.432,0.686,39.322,-41.667,-30.205
47443050,-0.557,0.388,0.625,20.86,-25.515,-17.832
47443060,-0.705,0.298,0.619,6.02,-15.96,-8.767
47443070,-0.692,0.275,0.636,-0.647,-15.522,-4.357
47443080,-0.672,0.305,0.656,-0.525,-15.96,-2.607
47443090,-0.722,0.341,0.683,-1.032,-13.317,0.507
47443100,-0.696,0.32,0.663,-1.855,-13.387,3.202
47443110,-0.624,0.344,0.662,-0.647,-10.92,2.87
47443120,-0.576,0.353,0.676,-3.535,-3.885,1.365
47443130,-0.572,0.338,0.682,-9.345,4.252,2.17
47443140,-0.568,0.335,0.687,-13.422,11.725,5.582
47443150,-0.544,0.341,0.711,-15.54,21.105,8.802
47443160,-0.556,0.404,0.717,-19.565,41.895,16.695
47443170,-0.762,0.301,0.612,-28.175,58.765,24.745
47443180,-0.788,0.272,0.572,-29.575,49.245,23.905
47443190,-0.866,0.252,0.572,-20.492,30.397,18.427
47443200,-0.704,0.329,0.588,-7.63,11.655,10.01
47443210,-0.78,0.375,0.627,-1.802,6.02,4.515
47443220,-0.811,0.296,0.612,0.595,-2.8,0.052
47443230,-0.735,0.342,0.64,8.995,-12.267,-4.025
47443240,-0.728,0.334,0.631,12.39,-16.362,-7.21
47443250,-0.737,0.294,0.603,14.542,-18.707,-9.887
47443260,-0.791,0.258,0.581,20.86,-21.892,-11.462
47443270,-0.937,0.209,0.54,34.02,-41.615,-19.985
47443280,-0.619,0.376,0.691,52.115,-67.777,-35.28
47443290,-0.602,0.442,0.724,57.137,-56.297,-40.897
47443300,-0.645,0.401,0.68,45.255,-40.582,-39.2
47443310,-0.625,0.344,0.661,32.165,-34.177,-29.225
47443320,-0.608,0.358,0.652,21.962,-28.665,-16.275
47443330,-0.587,0.348,0.665,10.08,-17.692,-5.81
47443330,-0.63,0.298,0.675,0.14,-7.77,-0.245
47443350,-0.563,0.303,0.683,-3.535,-3.605,3.797
47443350,-0.59,0.342,0.694,-4.69,2.87,8.505
47443370,-0.614,0.378,0.69,-6.09,8.82,9.345
47443370,-0.625,0.403,0.686,-8.977,15.837,7.56
47443390,-0.527,0.414,0.684,-15.872,25.777,7.612
47443390,-0.678,0.36,0.638,-27.947,45.622,13.65
47443410,-0.618,0.308,0.609,-33.302,46.55,14.752
47443410,-0.76,0.329,0.637,-32.987,49.14,17.132
47443420,-0.808,0.294,0.62,-30.205,43.47,13.65
47443430,-0.774,0.306,0.615,-22.067,35.245,9.765
47443440,-0.808,0.274,0.592,-14.735,26.267,5.495
47443450,-0.762,0.271,0.557,-3.745,13.755,-2.117
47443460,-0.784,0.34,0.598,7.402,5.092,-8.067
47443470,-0.858,0.3,0.591,9.415,-2.012,-10.797
47443480,-0.917,0.261,0.554,13.982,-13.895,-10.342
47443490,-0.914,0.206,0.521,26.25,-40.285,-16.24
47443500,-0.693,0.365,0.62,44.712,-64.785,-30.31
47443510,-0.643,0.434,0.698,45.64,-62.702,-37.59
47443520,-0.586,0.39,0.671,33.32,-53.182,-36.26
47443530,-0.615,0.369,0.679,20.055,-39.515,-22.067
47443540,-0.683,0.331,0.677,6.685,-28.017,-6.807
47443550,-0.626,0.292,0.65,-1.05,-21.857,-0.752
47443560,-0.588,0.334,0.682,-2.8,-15.4,1.995
47443570,-0.55,0.336,0.697,-5.04,-6.895,3.692
47443580,-0.515,0.344,0.696,-7.35,1.855,6.387
47443590,-0.564,0.365,0.703,-10.972,13.02,8.785
47443600,-0.441,0.378,0.749,-15.295,26.705,9.677
47443610,-0.629,0.418,0.723,-25.952,61.88,17.727
47443620,-0.742,0.278,0.57,-38.185,71.4,22.365
47443630,-0.756,0.24,0.541,-34.475,57.592,18.462
47443640,-0.883,0.264,0.574,-19.127,45.01,11.007
47443650,-0.856,0.318,0.553,-6.352,26.792,0.35
47443660,-0.903,0.325,0.533,3.22,9.992,-5.827
47443670,-0.921,0.305,0.56,10.657,-5.582,-9.607
47443670,-0.913,0.28,0.561,15.417,-20.212,-9.87
47443690,-0.995,0.231,0.521,19.67,-39.76,-10.43
47443690,-0.761,0.249,0.527,32.917,-74.497,-21.735
47443710,-0.552,0.405,0.666,44.082,-83.177,-33.652
47443710,-0.554,0.403,0.742,37.31,-65.73,-35.472
47443730,-0.62,0.37,0.739,21.157,-43.557,-22.015
47443730,-0.65,0.295,0.67,8.575,-29.942,-7.7
47443750,-0.559,0.323,0.671,4.585,-23.065,-3.605
47443750,-0.593,0.377,0.706,-0.682,-10.762,-0.735
47443760,-0.588,0.36,0.685,-9.59,-5.267,4.235
47443770,-0.526,0.35,0.686,-15.715,0.717,7.98
47443780,-0.535,0.371,0.714,-20.247,9.537,10.395
47443790,-0.417,0.379,0.784,-24.535,25.952,12.687
47443800,-0.561,0.359,0.739,-32.602,61.32,20.457
47443810,-0.658,0.276,0.58,-39.427,76.667,23.047
47443820,-0.876,0.154,0.514,-33.302,67.882,17.167
47443830,-0.809,0.244,0.527,-10.657,41.702,7.455
47443840,-0.888,0.351,0.539,3.727,26.197,0.595
47443850,-0.915,0.308,0.554,6.912,12.302,-5.652
47443860,-0.891,0.29,0.589,13.212,-1.68,-6.807
47443870,-0.895,0.297,0.576,18.567,-14.087,-7.052
47443880,-0.756,0.297,0.589,25.76,-38.465,-15.96
47443890,-0.59,0.367,0.629,33.88,-47.565,-28.56
47443900,-0.547,0.376,0.694,33.057,-31.307,-36.907
47443910,-0.662,0.358,0.704,22.785,-13.65,-32.165
47443920,-0.755,0.324,0.631,12.582,-6.965,-21.35
47443930,-0.714,0.307,0.648,13.212,-14.56,-21.087
47443940,-0.701,0.346,0.618,16.38,-17.115,-22.785
47443950,-0.762,0.355,0.63,14.035,-14.402,-21.315
47443960,-0.701,0.342,0.621,6.352,-13.23,-16.082
47443970,-0.763,0.335,0.639,-5.075,-7.227,-8.942
47443980,-0.723,0.306,0.636,-14.297,-8.085,-2.275
47443990,-0.639,0.293,0.654,-16.87,-8.592,3.202
47444000,-0.532,0.297,0.728,-17.99,0.105,3.692
47444010,-0.624,0.245,0.691,-18.2,22.802,4.69
47444020,-0.561,0.252,0.623,-11.9,32.112,1.82
47444030,-0.698,0.283,0.619,-8.207,37.572,-1.435
47444040,-0.752,0.304,0.607,-4.182,37.117,-1.015
47444050,-0.887,0.27,0.532,-9.905,33.355,-3.395
47444060,-0.843,0.218,0.519,-4.427,18.357,-0.21
47444070,-0.868,0.318,0.575,2.03,4.515,4.795
47444080,-0.794,0.285,0.603,-1.54,-5.74,4.392
47444080,-0.734,0.266,0.62,-1.802,-9.59,5.32
47444100,-0.698,0.251,0.609,1.382,-9.275,4.935
47444100,-0.734,0.27,0.593,7.49,-7.91,1.802
47444110,-0.722,0.346,0.574,15.575,-16.187,-5.197
47444120,-0.783,0.424,0.661,17.395,-21.49,-14.07
47444130,-0.793,0.384,0.64,11.235,-17.815,-16.485
47444140,-0.761,0.343,0.642,5.88,-17.885,-16.275
47444150,-0.702,0.333,0.625,0.84,-18.48,-13.842
47444160,-0.703,0.296,0.643,-4.182,-14.507,-10.237
47444170,-0.708,0.236,0.605,-7.665,-12.005,-6.195
47444180,-0.684,0.254,0.619,-4.217,-12.092,-4.742
47444190,-0.715,0.3,0.657,-5.565,-9.835,-1.26
47444200,-0.728,0.312,0.663,-12.075,-9.135,2.292
47444210,-0.696,0.32,0.658,-19.477,-8.295,6.965
47444220,-0.566,0.298,0.696,-26.845,-3.78,13.16
47444230,-0.668,0.277,0.689,-34.545,17.99,24.15
47444240,-0.683,0.234,0.627,-38.78,29.907,30.362
47444250,-0.674,0.207,0.586,-35.472,30.59,28.857
47444260,-0.657,0.23,0.554,-23.94,26.862,23.397
47444270,-0.742,0.257,0.592,-12.617,24.255,18.217
47444280,-0.802,0.27,0.579,-2.327,15.977,12.53
47444290,-0.839,0.301,0.571,8.4,5.985,6.807
47444300,-0.852,0.29,0.56,16.397,-4.987,0.892
47444310,-0.861,0.276,0.584,22.645,-12.547,-3.395
47444320,-0.903,0.256,0.543,26.845,-26.005,-6.265
47444330,-0.693,0.302,0.544,35.315,-50.697,-13.352
47444340,-0.739,0.34,0.649,42.017,-52.552,-21.892
47444350,-0.693,0.392,0.687,43.067,-52.027,-29.26
47444360,-0.646,0.423,0.74,31.097,-45.15,-23.17
47444370,-0.702,0.328,0.671,11.217,-34.65,-10.465
47444380,-0.66,0.294,0.668,2.03,-27.895,-4.41
47444390,-0.607,0.333,0.688,-3.972,-19.547,-0.84
47444400,-0.602,0.314,0.675,-12.757,-10.15,2.922
47444410,-0.565,0.31,0.678,-17.132,-2.03,4.025
47444420,-0.59,0.307,0.695,-19.757,8.417,5.81
47444420,-0.584,0.348,0.726,-22.837,24.85,8.942
47444440,-0.699,0.335,0.713,-31.622,45.062,14.752
47444440,-0.591,0.315,0.653,-38.027,52.71,16.17
47444460,-0.727,0.229,0.552,-41.16,62.457,19.005
47444460,-0.754,0.184,0.523,-32.007,57.172,17.307
47444480,-0.843,0.251,0.534,-19.617,46.462,16.747
47444480,-0.926,0.208,0.538,-12.285,28.122,14.157
47444500,-0.837,0.251,0.542,-0.455,8.19,11.042
47444500,-0.831,0.283,0.587,7.472,-4.2,8.172
47444510,-0.828,0.26,0.601,9.817,-9.642,5.6
47444520,-0.847,0.273,0.596,12.232,-13.895,5.407
47444530,-0.774,0.253,0.531,17.36,-31.657,-1.575
47444540,-0.672,0.347,0.61,27.737,-44.555,-11.427
47444550,-0.707,0.409,0.705,29.82,-40.635,-18.935
47444560,-0.771,0.404,0.693,20.982,-31.167,-15.767
47444570,-0.76,0.363,0.621,8.645,-28.28,-8.697
47444580,-0.679,0.336,0.637,-0.472,-28.647,-6.58
47444590,-0.691,0.332,0.678,-8.505,-21.735,-2.905
47444600,-0.644,0.309,0.675,-15.54,-16.852,-1.715
47444610,-0.597,0.289,0.678,-19.915,-10.972,-0.437
47444620,-0.615,0.282,0.678,-22.837,-3.202,2.94
47444630,-0.662,0.291,0.685,-25.095,3.92,6.177
47444640,-0.52,0.348,0.685,-28.787,13.755,10.517
47444650,-0.646,0.343,0.657,-42.49,42.14,22.995
47444660,-0.624,0.251,0.616,-54.092,54.862,31.78
47444670,-0.603,0.233,0.55,-54.932,66.15,41.072
47444680,-0.807,0.137,0.543,-49.665,66.272,43.435
47444690,-0.82,0.189,0.553,-37.135,50.662,41.755
47444700,-0.924,0.189,0.565,-21.35,32.287,37.397
47444710,-0.872,0.293,0.593,-7.682,14.875,27.737
47444720,-0.83,0.302,0.592,-0.262,1.802,18.025
47444730,-0.793,0.294,0.571,7.21,-8.277,9.012
47444740,-0.784,0.332,0.599,14.892,-14.175,-1.575
47444750,-0.814,0.329,0.602,16.782,-16.922,-7.367
47444760,-0.927,0.282,0.567,18.13,-23.957,-10.762
47444770,-0.712,0.285,0.578,28.595,-48.405,-19.95
47444780,-0.603,0.392,0.672,37.712,-49.91,-28.245
47444790,-0.74,0.335,0.665,32.55,-38.045,-27.947
47444800,-0.745,0.285,0.614,27.72,-38.115,-24.15
47444800,-0.714,0.314,0.612,27.16,-40.6,-22.75
47444820,-0.767,0.327,0.658,21.49,-38.395,-19.967
47444820,-0.648,0.372,0.664,10.5,-38.08,-14.35
47444830,-0.66,0.297,0.688,-4.777,-29.995,-3.5
47444840,-0.556,0.255,0.697,-16.59,-21.717,5.512
47444850,-0.486,0.266,0.71,-22.19,-9.52,14.385
47444860,-0.454,0.301,0.699,-26.04,7.525,20.72
47444870,-0.578,0.294,0.715,-30.712,33.32,25.76
47444880,-0.692,0.294,0.667,-32.375,49.35,27.947
47444890,-0.67,0.348,0.632,-32.427,57.19,28.332
47444900,-0.79,0.332,0.6,-37.555,61.932,30.135
47444910,-0.863,0.251,0.556,-39.532,54.775,28.682
47444920,-0.863,0.235,0.545,-30.835,38.71,21.192
47444930,-0.826,0.297,0.568,-20.475,24.307,13.947
47444940,-0.868,0.264,0.545,-11.952,9.082,10.64
47444950,-0.849,0.256,0.552,-0.63,-6.09,3.115
47444960,-0.766,0.275,0.575,12.32,-18.287,-4.725
47444970,-0.795,0.275,0.602,19.425,-23.012,-7.245
47444980,-0.829,0.271,0.611,21.787,-26.635,-9.205
47444990,-0.819,0.176,0.585,29.855,-42.42,-16.537
47445000,-0.502,0.307,0.661,47.232,-53.532,-29.137
47445010,-0.642,0.365,0.701,52.815,-35.665,-32.602
47445020,-0.671,0.351,0.671,47.005,-27.23,-30.887
47445030,-0.74,0.35,0.641,39.182,-20.667,-24.36
47445040,-0.752,0.373,0.622,26.81,-18.217,-16.485
47445050,-0.77,0.332,0.606,10.675,-18.375,-8.26
47445060,-0.75,0.311,0.616,-1.907,-17.482,-1.312
47445070,-0.692,0.292,0.649,-11.165,-20.037,4.322
47445080,-0.607,0.276,0.674,-17.01,-19.46,10.815
47445090,-0.563,0.285,0.691,-21.385,-13.037,16.782
47445100,-0.627,0.285,0.699,-25.165,-2.397,20.755
47445110,-0.556,0.307,0.667,-24.972,4.007,20.282
47445120,-0.505,0.454,0.658,-28.787,25.305,24.78
47445130,-0.669,0.398,0.649,-47.547,48.282,35.997
47445140,-0.769,0.319,0.616,-61.67,57.697,47.005
47445150,-0.775,0.269,0.621,-65.467,55.212,49.875
47445160,-0.763,0.218,0.605,-59.64,49.245,43.33
47445170,-0.82,0.23,0.595,-46.112,40.232,32.83
47445170,-0.809,0.209,0.584,-30.66,27.02,21.542
47445190,-0.767,0.276,0.59,-13.562,15.47,13.86
47445190,-0.777,0.285,0.584,-3.08,7.175,7.087
47445210,-0.762,0.287,0.588,6.107,0.91,-0.49
47445210,-0.818,0.292,0.597,13.055,-2.607,-7.28
47445230,-0.833,0.263,0.577,17.92,-10.22,-12.74
47445230,-0.808,0.26,0.568,25.34,-16.677,-16.607
47445250,-0.91,0.148,0.537,35.735,-31.85,-23.607
47445250,-0.66,0.203,0.576,57.75,-53.865,-38.902
47445260,-0.68,0.337,0.676,75.092,-52.762,-48.825
47445270,-0.724,0.339,0.688,76.142,-53.567,-54.25
47445280,-0.577,0.423,0.676,70.98,-55.51,-52.972
47445290,-0.726,0.426,0.663,56.157,-42.892,-46.095
47445300,-0.727,0.359,0.618,34.72,-35.332,-38.745
47445310,-0.764,0.355,0.596,21.21,-29.942,-26.74
47445320,-0.779,0.305,0.601,9.957,-29.855,-17.22
47445330,-0.767,0.268,0.636,3.255,-32.567,-10.15
47445340,-0.777,0.199,0.685,1.697,-36.662,-8.557
47445350,-0.494,0.343,0.688,1.75,-39.13,-8.067
47445360,-0.489,0.376,0.713,-2.467,-24.08,-4.322
47445370,-0.619,0.324,0.697,-15.487,-4.182,1.33
47445380,-0.638,0.325,0.684,-23.52,3.745,4.865
47445390,-0.603,0.317,0.689,-27.44,8.487,7.665
47445400,-0.588,0.363,0.73,-31.185,29.032,12.6
47445410,-0.764,0.269,0.637,-38.902,49.507,24.71
47445420,-0.761,0.21,0.552,-36.505,43.785,26.495
47445430,-0.768,0.195,0.584,-25.077,32.987,25.13
47445440,-0.741,0.255,0.626,-11.795,20.37,17.255
47445450,-0.755,0.292,0.611,-3.325,13.265,8.522
47445460,-0.762,0.271,0.603,1.96,4.935,0.612
47445470,-0.759,0.29,0.631,8.435,-0.77,-3.325
47445480,-0.821,0.271,0.619,12.11,-4.76,-6.335
47445490,-0.835,0.266,0.597,16.677,-12.582,-9.52
47445500,-0.737,0.252,0.555,25.987,-32.025,-18.34
47445510,-0.613,0.378,0.66,37.065,-36.96,-29.4
47445510,-0.739,0.366,0.663,33.897,-31.202,-34.282
47445530,-0.745,0.356,0.655,24.797,-36.015,-36.925
47445530,-0.742,0.339,0.682,14.577,-35.297,-30.94
47445550,-0.75,0.292,0.635,4.392,-32.357,-20.912
47445550,-0.685,0.274,0.631,-1.015,-33.6,-14.875
47445570,-0.634,0.258,0.661,-2.817,-31.237,-12.372
47445570,-0.628,0.276,0.705,-3.762,-23.607,-8.505
47445580,-0.567,0.278,0.731,-6.387,-14.647,-4.655
47445590,-0.607,0.258,0.718,-9.73,-0.91,-0.542
47445600,-0.595,0.28,0.691,-8.452,5.18,0.805
47445610,-0.662,0.308,0.696,-6.947,10.867,0.192
47445620,-0.643,0.316,0.655,-6.247,14.192,-1.977
47445630,-0.628,0.315,0.664,-7.49,20.195,-2.292
47445640,-0.742,0.293,0.68,-13.702,33.932,2.082
47445650,-0.682,0.282,0.652,-17.937,35.682,5.127
47445660,-0.672,0.275,0.669,-21.42,36.172,7.192
47445670,-0.667,0.263,0.678,-22.242,40.407,7.087
47445680,-0.667,0.25,0.65,-20.09,45.587,4.97
47445690,-0.687,0.214,0.59,-15.96,49,2.975
47445700,-0.766,0.158,0.513,-7.14,47.092,0.542
47445710,-0.86,0.187,0.491,6.615,36.19,-1.33
47445720,-0.963,0.247,0.547,14.752,23.187,-1.715
47445730,-0.996,0.215,0.557,17.342,5.477,0.402
47445740,-0.986,0.239,0.565,20.737,-14.49,0.385
47445750,-0.713,0.276,0.562,27.685,-41.685,-9.572
47445760,-0.624,0.366,0.66,32.112,-42.087,-18.322
47445770,-0.629,0.359,0.707,26.932,-31.062,-23.222
47445780,-0.651,0.353,0.706,16.362,-18.97,-20.58
47445790,-0.709,0.304,0.68,6.247,-6.09,-13.247
47445800,-0.668,0.298,0.653,0.035,1.662,-9.712
47445810,-0.669,0.296,0.655,-5.687,7.77,-7.612
47445820,-0.662,0.268,0.632,-10.325,13.072,-6.317
47445830,-0.646,0.269,0.614,-10.832,16.957,-5.355
47445840,-0.702,0.32,0.638,-10.5,19.652,-3.832
47445850,-0.709,0.332,0.67,-10.377,16.782,1.102
47445860,-0.659,0.378,0.677,-15.242,19.285,2.66
47445870,-0.691,0.347,0.69,-27.51,40.337,5.407
47445880,-0.872,0.258,0.6,-37.345,50.837,7.332
47445890,-0.709,0.149,0.505,-32.042,33.81,6.825
47445900,-0.731,0.156,0.496,-17.29,27.877,2.275
47445910,-0.87,0.213,0.531,-3.867,27.527,-5.792
47445920,-0.923,0.208,0.533,3.272,20.632,-7.735
47445920,-0.937,0.138,0.496,5.39,9.66,-5.88
47445940,-0.956,0.146,0.504,11.34,-1.33,-9.905
47445940,-0.927,0.16,0.485,19.005,-21.105,-10.535
47445960,-0.798,0.243,0.543,26.827,-40.285,-12.775
47445960,-0.786,0.272,0.626,26.897,-43.645,-13.3
47445980,-0.718,0.305,0.672,19.74,-39.112,-9.765
47445980,-0.725,0.276,0.663,7.227,-30.747,-0.63
47446000,-0.658,0.279,0.658,-0.28,-22.75,4.095
47446000,-0.651,0.304,0.65,-3.92,-13.562,5.582
47446010,-0.623,0.331,0.651,-6.177,-6.177,4.672
47446020,-0.648,0.344,0.666,-10.342,2.205,4.165
47446030,-0.635,0.33,0.666,-16.59,9.45,4.812
47446040,-0.633,0.343,0.722,-24.972,25.637,9.03
47446050,-0.782,0.351,0.679,-35.997,45.587,18.375
47446060,-0.716,0.28,0.585,-41.457,38.57,26.337
47446070,-0.72,0.162,0.494,-38.43,29.802,19.915
47446080,-0.771,0.169,0.48,-18.112,25.952,8.855
47446090,-0.964,0.242,0.496,-1.085,17.902,2.397
47446100,-0.929,0.251,0.534,5.862,4.112,-0.052
47446110,-0.984,0.201,0.531,6.965,-4.497,-2.485
47446120,-0.978,0.182,0.508,9.782,-20.3,-6.44
47446130,-0.723,0.211,0.504,20.335,-44.362,-8.995
47446140,-0.74,0.232,0.555,25.655,-46.357,-14.507
47446150,-0.768,0.189,0.611,29.19,-40.635,-24.08
47446160,-0.706,0.233,0.621,35.35,-39.532,-30.677
47446170,-0.715,0.304,0.689,33.652,-33.285,-25.217
47446180,-0.818,0.297,0.696,19.74,-23.572,-16.012
47446190,-0.689,0.271,0.638,5.145,-19.46,-7.157
47446200,-0.761,0.269,0.637,-3.342,-12.932,0.087
47446210,-0.593,0.202,0.603,-7.42,-14.35,5.862
47446220,-0.682,0.272,0.641,-7.157,-5.88,3.167
47446230,-0.693,0.258,0.644,-5.827,0.07,8.645
47446240,-0.679,0.338,0.65,-6.825,2.17,15.47
47446250,-0.636,0.261,0.718,-11.55,10.535,22.767
47446260,-0.694,0.223,0.595,-20.72,26.425,29.085
47446260,-0.617,0.154,0.527,-19.302,26.355,36.592
47446280,-0.688,0.202,0.574,-17.902,31.237,40.495
47446280,-0.821,0.22,0.617,-18.655,33.617,33.705
47446300,-0.861,0.254,0.61,-15.995,33.442,23.957
47446300,-0.929,0.276,0.558,-12.127,23.1,21.315
47446320,-0.882,0.225,0.501,-7.315,8.155,17.482
47446320,-0.862,0.266,0.522,3.57,-6.527,11.585
47446330,-0.835,0.285,0.559,9.152,-16.782,9.485
47446340,-0.829,0.26,0.555,9.065,-24.5,10.167
47446350,-0.857,0.239,0.552,10.01,-31.412,12.512
47446360,-0.837,0.217,0.504,14,-44.607,17.447
47446370,-0.753,0.386,0.622,23.047,-69.282,16.485
47446380,-0.778,0.439,0.752,24.325,-70.787,5.425
47446390,-0.731,0.322,0.655,18.707,-68.005,0.42
47446400,-0.593,0.446,0.686,12.477,-59.745,-1.75
47446410,-0.545,0.414,0.654,1.802,-43.82,1.312
47446420,-0.624,0.279,0.695,-6.317,-27.335,5.565
47446430,-0.666,0.234,0.683,-6.51,-19.582,7.63
47446440,-0.614,0.265,0.706,-6.317,-15.12,7.735
47446450,-0.612,0.296,0.7,-6.877,-4.2,6.37
47446460,-0.626,0.336,0.713,-9.677,6.23,6.422
47446470,-0.643,0.35,0.68,-13.982,10.727,12.267
47446480,-0.612,0.314,0.687,-18.462,11.882,16.835
47446490,-0.628,0.313,0.694,-21.735,17.36,15.207
47446500,-0.609,0.296,0.684,-22.697,23.397,12.617
47446510,-0.662,0.276,0.679,-24.447,40.127,13.02
47446520,-0.753,0.257,0.622,-25.637,53.69,10.587
47446530,-0.819,0.241,0.579,-26.32,49.927,12.495
47446540,-0.76,0.209,0.536,-23.642,36.61,13.125
47446550,-0.768,0.184,0.519,-16.765,32.392,9.747
47446560,-0.877,0.205,0.516,-8.505,30.047,4.41
47446570,-0.879,0.167,0.47,0.77,17.762,3.43
47446580,-0.941,0.24,0.534,10.325,6.3,2.537
47446590,-0.92,0.235,0.576,13.562,-10.622,6.265
47446600,-0.896,0.261,0.572,13.142,-27.282,7.63
47446610,-0.711,0.285,0.57,15.4,-46.585,0.507
47446620,-0.651,0.338,0.648,19.565,-46.847,-7.945
47446630,-0.661,0.352,0.708,20.632,-39.742,-14.98
47446640,-0.583,0.401,0.735,15.697,-27.422,-11.182
47446650,-0.749,0.348,0.664,5.985,-10.115,-4.865
47446660,-0.675,0.291,0.613,-1.802,-8.242,-3.15
47446670,-0.733,0.315,0.642,-4.935,-5.705,0.157
47446670,-0.719,0.313,0.629,-9.1,-4.602,1.05
47446690,-0.699,0.343,0.664,-12.827,-3.342,-0.77
47446690,-0.718,0.361,0.685,-18.532,-0.385,-0.647
47446710,-0.605,0.336,0.72,-23.677,1.102,-0.402
47446710,-0.679,0.317,0.728,-27.055,19.005,3.5
47446730,-0.67,0.33,0.643,-26.862,25.042,13.02
47446730,-0.617,0.248,0.569,-27.65,18.165,15.172
47446750,-0.652,0.23,0.591,-20.265,20.055,8.435
47446750,-0.749,0.271,0.608,-11.375,24.342,0.805
47446760,-0.786,0.273,0.581,-6.79,19.897,-2.31
47446770,-0.808,0.212,0.555,-3.29,16.047,-4.007
47446780,-0.834,0.16,0.565,3.377,11.672,-6.492
47446790,-0.84,0.183,0.521,10.745,3.797,-12.005
47446800,-0.75,0.247,0.518,18.27,-15.82,-18.217
47446810,-0.8,0.266,0.587,21.542,-24.657,-25.077
47446820,-0.783,0.328,0.692,20.982,-27.86,-27.107
47446830,-0.832,0.324,0.726,8.19,-22.54,-16.852
47446840,-0.728,0.258,0.649,-6.142,-17.815,-2.957
47446850,-0.637,0.243,0.624,-11.042,-14.63,5.74
47446860,-0.61,0.284,0.632,-14.122,-9.817,6.842
47446870,-0.617,0.307,0.685,-12.232,-0.962,6.825
47446880,-0.645,0.377,0.675,-13.195,2.887,13.317
47446890,-0.531,0.299,0.737,-20.02,12.477,20.335
47446900,-0.659,0.29,0.718,-27.107,37.52,27.23
47446910,-0.587,0.306,0.696,-34.037,48.335,29.4
47446920,-0.615,0.254,0.652,-41.86,58.52,28.07
47446930,-0.674,0.116,0.536,-40.635,63.577,26.092
47446940,-0.812,0.113,0.434,-24.36,60.865,19.092
47446950,-1.011,0.156,0.385,-3.045,47.407,9.397
47446960,-1.142,0.345,0.509,15.225,28.665,-1.557
47446970,-1.153,0.327,0.55,18.06,2.415,-6.825
47446980,-0.962,0.298,0.499,15.417,-26.302,-11.252
47446990,-0.731,0.301,0.524,16.782,-48.947,-19.127
47447000,-0.649,0.286,0.6,18.217,-52.027,-27.107
47447010,-0.67,0.269,0.653,17.622,-43.452,-28.822
47447010,-0.697,0.27,0.701,12.075,-32.147,-20.895
47447030,-0.738,0.241,0.671,2.712,-19.74,-8.575
47447030,-0.651,0.242,0.642,-2.275,-12.285,-1.277
47447050,-0.649,0.259,0.629,-4.62,-5.67,1.977
47447050,-0.68,0.263,0.619,-5.88,1.47,2.135
47447070,-0.72,0.279,0.613,-4.882,6.737,1.12
47447070,-0.763,0.301,0.613,-5.337,10.377,1.277
47447080,-0.787,0.307,0.615,-8.592,9.677,2.52
47447090,-0.726,0.288,0.67,-11.847,8.802,4.182
47447100,-0.777,0.239,0.653,-14.735,18.847,7.857
47447110,-0.641,0.223,0.569,-14.227,23.835,9.765
47447120,-0.721,0.195,0.554,-11.707,25.182,9.432
47447130,-0.735,0.214,0.58,-5.652,24.815,8.347
47447140,-0.83,0.231,0.572,-1.61,23.957,7.21
47447150,-0.85,0.252,0.573,-0.227,17.377,6.58
47447160,-0.904,0.261,0.557,1.89,8.697,7.122
47447170,-0.849,0.284,0.549,3.727,-2.52,5.81
47447180,-0.82,0.248,0.553,5.32,-10.43,2.712
47447190,-0.797,0.203,0.55,9.747,-14.542,0.892
47447200,-0.825,0.208,0.537,17.027,-20.317,1.155
47447210,-0.77,0.26,0.547,24.85,-33.687,-1.312
47447220,-0.777,0.346,0.622,30.222,-41.965,-8.75
47447230,-0.751,0.38,0.636,27.44,-41.79,-15.4
47447240,-0.758,0.379,0.685,16.205,-36.627,-14.787
47447250,-0.772,0.301,0.669,-0.122,-25.252,-4.217
47447260,-0.675,0.26,0.603,-9.03,-18.357,4.06
47447270,-0.632,0.282,0.631,-10.657,-15.05,3.64
47447280,-0.667,0.279,0.646,-10.85,-7.507,1.96
47447290,-0.662,0.272,0.63,-8.75,0.175,0.192
47447300,-0.638,0.256,0.653,-7.525,7.682,-1.54
47447310,-0.764,0.19,0.648,-7.437,19.88,1.382
47447320,-0.711,0.244,0.567,-4.637,24.202,5.915
47447330,-0.778,0.258,0.579,-5.565,21.315,6.562
47447340,-0.769,0.237,0.57,-4.76,17.325,6.352
47447350,-0.785,0.267,0.57,-1.155,12.862,4.97
47447360,-0.791,0.265,0.56,-0.472,6.965,3.255
47447370,-0.805,0.27,0.595,2.17,0.612,2.275
47447380,-0.811,0.249,0.595,4.585,-2.887,1.172
47447390,-0.807,0.236,0.584,7.997,-7.402,-1.382
47447400,-0.807,0.275,0.536,11.882,-15.155,-4.165
47447410,-0.77,0.322,0.583,15.522,-27.405,-11.707
47447420,-0.809,0.335,0.595,15.137,-30.835,-17.552
47447420,-0.837,0.343,0.655,9.537,-31.99,-18.042
47447440,-0.804,0.294,0.644,-1.54,-29.33,-9.8
47447440,-0.7,0.259,0.645,-7.805,-27.632,-1.172
47447460,-0.598,0.259,0.64,-9.852,-21.927,1.802
47447460,-0.576,0.262,0.648,-9.24,-12.705,0.91
47447480,-0.62,0.269,0.626,-7.035,-0.262,1.82
47447480,-0.604,0.251,0.68,-5.18,11.76,2.607
47447500,-0.781,0.186,0.656,-4.9,30.712,7.245
47447500,-0.734,0.221,0.568,-2.415,33.057,11.48
47447510,-0.821,0.23,0.556,-3.22,25.532,13.947
47447520,-0.798,0.256,0.565,-1.732,14.962,14.647
47447530,-0.817,0.277,0.581,-1.26,8.715,12.565
47447540,-0.785,0.261,0.574,-0.525,3.115,8.505
47447550,-0.774,0.259,0.589,4.952,-1.907,4.9
47447560,-0.773,0.259,0.617,10.5,-5.075,1.662
47447570,-0.798,0.277,0.609,14.227,-6.457,0.805
47447580,-0.753,0.343,0.516,15.627,-12.442,-1.312
47447590,-0.818,0.353,0.58,14.91,-22.032,-9.45
47447600,-0.727,0.366,0.613,14.122,-25.83,-17.167
47447610,-0.8,0.369,0.677,7.962,-20.93,-16.905
47447620,-0.771,0.301,0.646,-3.535,-17.71,-9.782
47447630,-0.7,0.248,0.634,-6.912,-16.415,-6.667
47447640,-0.648,0.24,0.618,-6.02,-12.652,-6.037
47447650,-0.667,0.247,0.6,-4.252,-5.862,-5.495
47447660,-0.728,0.217,0.59,-2.677,-0.07,-1.855
47447670,-0.772,0.259,0.587,-4.095,1.207,0.122
47447680,-0.805,0.325,0.615,-8.102,-1.785,4.917
47447690,-0.804,0.292,0.627,-13.457,-6.632,8.067
47447700,-0.74,0.206,0.686,-14.35,-7.98,9.135
47447710,-0.594,0.246,0.649,-7.315,-0.262,10.657
47447720,-0.677,0.233,0.627,-9.642,10.745,13.65
47447730,-0.651,0.216,0.627,-14.875,17.867,12.705
47447740,-0.678,0.231,0.615,-14.595,24.395,12.495
47447750,-0.721,0.257,0.611,-15.032,26.6,11.76
47447760,-0.789,0.253,0.587,-13.58,26.967,11.007
47447760,-0.831,0.23,0.539,-7.787,20.405,9.485
47447780,-0.824,0.209,0.489,2.555,9.065,5.512
47447780,-0.842,0.246,0.539,12.95,-2.66,1.627
47447800,-0.917,0.263,0.56,14.717,-10.937,1.75
47447800,-0.881,0.322,0.496,13.16,-25.515,2.572
47447820,-0.88,0.33,0.568,10.92,-45.237,-2.397
47447820,-0.782,0.332,0.622,12.057,-58.03,-11.375
47447830,-0.702,0.362,0.666,12.757,-59.412,-16.24
47447840,-0.661,0.329,0.704,5.792,-52.08,-13.615
47447850,-0.648,0.262,0.699,-0.595,-36.4,-4.812
47447860,-0.623,0.264,0.646,-2.642,-23.327,2.065
47447870,-0.59,0.275,0.665,-4.217,-15.505,3.465
47447880,-0.642,0.262,0.665,-5.11,-6.562,1.12
47447890,-0.768,0.27,0.643,-3.675,1.12,2.607
47447900,-0.76,0.317,0.606,-4.095,-0.035,6.93
47447910,-0.781,0.332,0.63,-8.837,-4.112,9.555
47447920,-0.754,0.231,0.701,-13.23,-8.347,11.147
47447930,-0.632,0.251,0.653,-8.75,-4.2,9.625
47447940,-0.627,0.262,0.649,-7.42,2.292,9.397
47447950,-0.684,0.234,0.642,-8.155,9.152,7.56
47447960,-0.686,0.247,0.62,-4.27,13.02,6.615
47447970,-0.733,0.28,0.629,-3.622,14.945,5.775
47447980,-0.798,0.258,0.603,-4.935,13.685,6.212
47447990,-0.784,0.273,0.585,-2.625,6.195,5.967
47448000,-0.791,0.268,0.593,-0.157,-2.257,4.655
47448010,-0.747,0.269,0.623,2.432,-8.715,2.835
47448020,-0.716,0.276,0.645,2.747,-10.062,3.22
47448030,-0.677,0.27,0.646,1.802,-9.275,4.077
47448040,-0.697,0.281,0.607,2.45,-5.932,4.847
47448050,-0.581,0.358,0.614,4.2,-6.09,7.035
47448060,-0.695,0.361,0.685,2.485,-1.435,2.852
47448070,-0.743,0.343,0.697,0.472,6.282,0.63
47448080,-0.666,0.375,0.621,3.902,3.132,13.37
47448090,-0.649,0.403,0.62,2.065,3.272,21.087
47448100,-0.712,0.379,0.627,-1.505,7.332,23.485
47448110,-0.721,0.356,0.624,-3.395,8.837,28.49
47448120,-0.694,0.384,0.631,-4.795,13.51,32.62
47448130,-0.661,0.358,0.62,-5.477,21.962,38.675
47448140,-0.637,0.368,0.598,-4.497,33.127,42.017
47448150,-0.648,0.376,0.594,-5.18,42.35,40.197
47448160,-0.695,0.378,0.583,-10.045,48.895,36.977
47448170,-0.758,0.355,0.579,-14.735,49.945,33.635
47448170,-0.78,0.346,0.58,-17.972,47.915,30.572
47448190,-0.812,0.329,0.57,-20.895,42.805,29.172
47448190,-0.809,0.311,0.563,-22.802,36.732,28.315
47448200,-0.793,0.285,0.561,-23.222,30.782,26.285
47448210,-0.776,0.283,0.555,-23.835,27.842,24.115
47448220,-0.784,0.27,0.552,-24.902,26.18,23.222
47448230,-0.823,0.272,0.563,-26.32,24.412,22.61
47448240,-0.842,0.257,0.564,-28.262,18.777,20.93
47448250,-0.868,0.232,0.569,-29.33,9.257,17.062
47448260,-0.858,0.219,0.582,-28.245,-3.185,11.427
47448270,-0.822,0.213,0.585,-24.937,-14.367,6.842
47448280,-0.801,0.216,0.592,-20.177,-22.837,3.465
47448290,-0.746,0.236,0.599,-14.752,-26.005,0.332
47448300,-0.718,0.219,0.616,-11.13,-21.98,-2.887
47448310,-0.701,0.257,0.635,-8.662,-13.72,-6.912
47448320,-0.704,0.227,0.616,-5.67,-6.317,-5.53
47448330,-0.737,0.246,0.6,-0.35,-0.455,-3.01
47448340,-0.758,0.266,0.592,4.917,1.96,-1.907
47448350,-0.76,0.293,0.58,8.12,1.627,-1.977
47448360,-0.777,0.311,0.567,8.172,-0.385,-1.4
47448370,-0.796,0.326,0.566,6.072,-4.27,-0.297
47448380,-0.79,0.344,0.575,2.712,-9.205,0.14
47448390,-0.784,0.352,0.576,-2.38,-13.667,0.735
47448400,-0.768,0.341,0.58,-7.385,-17.062,1.172
47448410,-0.749,0.328,0.596,-10.797,-19.477,1.242
47448420,-0.714,0.318,0.608,-13.387,-19.74,1.19
47448430,-0.687,0.293,0.619,-14.927,-17.622,1.207
47448440,-0.662,0.274,0.634,-13.51,-11.865,0.787
47448450,-0.646,0.26,0.641,-9.887,-3.552,0.56
47448460,-0.637,0.258,0.643,-4.76,6.125,-0.21
47448470,-0.672,0.271,0.63,0.84,15.277,-0.857
47448480,-0.752,0.296,0.6,5.162,21.105,-2.222
47448490,-0.789,0.327,0.577,7.542,19.722,-5.355
47448500,-0.833,0.349,0.557,6.825,14.35,-7.665
47448510,-0.867,0.359,0.552,3.622,5.075,-9.135
47448510,-0.858,0.343,0.552,-0.927,-5.372,-9.992
47448530,-0.825,0.327,0.562,-4.812,-16.012,-10.062
47448530,-0.777,0.323,0.582,-7.805,-22.977,-9.852
47448550,-0.744,0.308,0.602,-11.812,-25.882,-8.592
47448550,-0.718,0.274,0.637,-16.012,-23.17,-4.812
47448570,-0.661,0.25,0.629,-15.172,-17.937,-1.855
47448570,-0.667,0.27,0.634,-12.565,-11.532,-1.907
47448580,-0.711,0.245,0.625,-11.637,-6.125,-2.38
47448590,-0.726,0.246,0.613,-7.122,-2.712,-2.082
47448600,-0.749,0.276,0.604,-2.327,-1.872,-1.487
47448610,-0.762,0.285,0.6,-1.155,-2.905,-1.995
47448620,-0.784,0.293,0.595,-1.05,-6.405,-2.467
47448630,-0.784,0.296,0.594,-1.557,-10.727,-2.625
47448640,-0.795,0.294,0.588,-3.08,-16.432,-2.45
47448650,-0.796,0.294,0.588,-4.095,-23.1,-1.872
47448660,-0.784,0.285,0.6,-4.27,-30.852,-1.365
47448670,-0.741,0.288,0.629,-3.517,-36.137,-0.595
47448680,-0.69,0.284,0.646,-2.502,-35.542,-0.122
47448690,-0.645,0.267,0.668,-1.382,-28.997,0.07
47448700,-0.629,0.263,0.663,1.54,-19.145,-0.49
47448710,-0.632,0.274,0.658,3.902,-9.415,-0.717
47448720,-0.686,0.288,0.65,4.025,-0.787,-1.242
47448730,-0.733,0.288,0.635,3.465,2.94,-1.032
47448740,-0.764,0.23,0.675,3.027,2.677,-0.49
47448750,-0.667,0.215,0.62,8.785,3.062,-1.872
47448760,-0.658,0.257,0.622,16.24,5.932,-2.467
47448770,-0.737,0.293,0.634,16.397,7.787,-3.342
47448780,-0.757,0.287,0.625,14.28,8.33,-2.695
47448790,-0.778,0.298,0.61,10.657,6.072,-0.647
47448800,-0.768,0.297,0.597,6.702,1.557,0.14
47448810,-0.773,0.293,0.612,5.827,-3.255,1.19
47448820,-0.745,0.308,0.609,5.915,-6.527,2.397
47448830,-0.708,0.314,0.62,5.005,-7.455,2.94
47448840,-0.713,0.313,0.629,1.085,-6.37,3.902
47448850,-0.681,0.286,0.638,-2.345,-5.547,3.815
47448860,-0.683,0.284,0.641,-4.042,-2.52,3.115
47448870,-0.683,0.289,0.641,-4.41,0.35,2.572
47448880,-0.702,0.297,0.648,-4.62,3.29,3.045
47448890,-0.696,0.293,0.642,-5.005,4.76,2.31
47448890,-0.691,0.29,0.637,-5.302,7.105,0.7
47448910,-0.733,0.4,0.53,-5.95,9.397,-0.7
47448910,-0.854,0.356,0.61,-13.335,4.182,-2.135
47448920,-0.863,0.305,0.625,-17.115,-3.867,-6.457
47448930,-0.709,0.253,0.612,-12.25,-7.42,-4.305
47448940,-0.706,0.271,0.638,-9.607,-9.432,-4.952
47448950,-0.677,0.213,0.644,-7.682,-6.947,-4.9
47448960,-0.666,0.236,0.65,-0.315,-2.222,-4.27
47448970,-0.689,0.253,0.622,3.5,3.552,-5.285
47448980,-0.733,0.266,0.609,5.705,7.017,-5.757
47448990,-0.805,0.284,0.603,6.072,6.842,-3.045
47449000,-0.823,0.301,0.594,4.917,2.52,0.14
47449010,-0.817,0.303,0.615,2.695,-2.677,2.537
47449020,-0.79,0.19,0.667,1.54,-7.805,3.325
47449030,-0.607,0.207,0.608,10.185,-6.352,1.785
47449040,-0.636,0.263,0.613,16.992,-1.417,1.627
47449050,-0.742,0.289,0.629,14.63,2.152,2.555
47449060,-0.753,0.327,0.61,13.562,2.485,3.64
47449070,-0.782,0.345,0.617,8.505,0,5.442
47449080,-0.743,0.33,0.606,1.855,-3.22,5.215
47449090,-0.722,0.32,0.616,-0.315,-4.392,5.285
47449100,-0.686,0.315,0.612,-1.82,-3.78,4.55
47449110,-0.675,0.295,0.621,-3.132,-1.487,2.572
47449120,-0.71,0.263,0.639,-4.69,1.05,2.24
47449130,-0.684,0.263,0.639,-3.92,3.5,2.765
47449140,-0.711,0.3,0.643,-4.165,6.597,3.622
47449150,-0.728,0.307,0.626,-6.405,7.735,2.45
47449160,-0.752,0.42,0.522,-7.77,8.155,-0.647
47449170,-0.879,0.367,0.605,-14.367,1.295,-5.512
47449180,-0.881,0.303,0.624,-16.117,-6.317,-8.872
47449190,-0.727,0.247,0.613,-10.43,-11.41,-6.667
47449200,-0.693,0.236,0.625,-6.86,-11.2,-6.352
47449210,-0.667,0.198,0.62,-2.03,-7.437,-5.04
47449220,-0.691,0.263,0.621,4.48,-1.592,-2.835
47449230,-0.724,0.279,0.604,3.395,1.995,-1.942
47449240,-0.767,0.284,0.597,1.697,3.237,-0.665
47449250,-0.795,0.258,0.657,0.35,0.717,1.61
47449260,-0.706,0.242,0.64,0.805,0.717,2.66
47449260,-0.703,0.267,0.625,2.555,4.13,5.512
47449280,-0.723,0.27,0.606,0.525,6.37,6.667
47449280,-0.731,0.267,0.6,0.752,6.527,6.632
47449300,-0.753,0.297,0.606,0.98,6.912,7.822
47449300,-0.763,0.296,0.593,-1.382,5.46,8.242
47449320,-0.756,0.303,0.603,-1.54,3.255,8.312
47449320,-0.758,0.307,0.614,-0.665,0.385,7.455
47449330,-0.706,0.292,0.603,0.315,-1.645,5.232
47449340,-0.706,0.277,0.597,2.432,-3.097,3.045
47449350,-0.713,0.284,0.613,6.3,-2.572,0.157
47449360,-0.756,0.286,0.61,9.135,-1.12,-1.855
47449370,-0.782,0.302,0.571,10.447,-1.995,-2.957
47449380,-0.8,0.353,0.538,9.625,-8.207,-4.165
47449390,-0.862,0.371,0.583,6.842,-19.18,-8.365
47449400,-0.763,0.35,0.677,5.705,-24.062,-12.145
47449410,-0.753,0.294,0.657,2.205,-16.52,-8.68
47449420,-0.63,0.242,0.613,-1.767,-11.427,-4.007
47449430,-0.649,0.258,0.642,-2.94,-4.515,-0.56
47449440,-0.673,0.27,0.628,-5.967,1.82,2.87
47449450,-0.703,0.279,0.614,-8.627,6.16,2.572
47449460,-0.734,0.279,0.602,-10.08,8.575,3.29
47449470,-0.772,0.26,0.668,-8.767,8.225,3.762
47449480,-0.697,0.252,0.654,-5.075,8.96,2.712
47449490,-0.683,0.288,0.606,-2.537,15.837,5.25
47449500,-0.729,0.299,0.608,-6.212,18.532,6.125
47449510,-0.772,0.271,0.588,-8.137,19.425,6.265
47449520,-0.785,0.285,0.559,-7.735,16.817,7.735
47449530,-0.771,0.284,0.551,-6.93,11.182,7.157
47449540,-0.756,0.292,0.58,-3.307,7.105,6.212
47449550,-0.765,0.276,0.565,1.102,3.517,3.885
47449560,-0.763,0.294,0.608,5.565,0.35,0.63
47449570,-0.774,0.282,0.612,6.562,-0.49,-0.525
47449580,-0.761,0.272,0.585,6.79,-0.805,-0.262
47449580,-0.759,0.304,0.522,7.997,-3.185,-0.665
47449600,-0.793,0.365,0.594,8.295,-8.522,-2.87
47449600,-0.818,0.359,0.626,4.742,-11.13,-5.985
47449620,-0.759,0.326,0.625,0.822,-12.127,-7.21
47449620,-0.732,0.278,0.611,-2.852,-10.85,-4.777
47449640,-0.685,0.268,0.621,-4.165,-8.33,-2.8
47449640,-0.714,0.267,0.609,-5.512,-3.972,-0.105
47449660,-0.722,0.282,0.598,-7,-0.332,1.032
47449660,-0.748,0.29,0.601,-8.977,1.295,2.397
47449670,-0.762,0.302,0.634,-11.637,2.17,5.197
47449680,-0.747,0.281,0.683,-15.697,5.81,8.75
47449690,-0.697,0.24,0.615,-21.052,13.807,14.455
47449700,-0.692,0.203,0.561,-22.435,16.03,19.215
47449710,-0.689,0.212,0.542,-15.557,17.885,19.092
47449720,-0.739,0.234,0.543,-5.967,18.165,16.31
47449730,-0.735,0.23,0.545,3.832,17.657,15.487
47449740,-0.759,0.25,0.55,16.187,13.772,13.702
47449750,-0.791,0.306,0.585,26.477,11.445,11.515
47449760,-0.847,0.3,0.569,31.85,10.272,10.325
47449770,-0.82,0.317,0.62,37.275,-0.332,10.552
47449780,-0.684,0.304,0.692,42.14,1.067,11.06
47449790,-0.647,0.265,0.664,47.11,14.367,11.235
47449800,-0.717,0.254,0.625,52.85,23.625,9.992
47449810,-0.669,0.308,0.591,58.24,27.09,5.862
47449820,-0.85,0.324,0.603,61.915,28.525,2.52
47449830,-0.85,0.441,0.612,61.355,10.045,3.85
47449840,-0.753,0.433,0.57,55.265,-15.382,8.172
47449850,-0.739,0.53,0.578,44.485,-26.6,3.955
47449860,-0.767,0.49,0.549,25.69,-29.067,1.61
47449870,-0.762,0.461,0.509,9.537,-27.107,0.612
47449880,-0.743,0.44,0.473,-3.465,-21.56,0.367
47449890,-0.736,0.423,0.438,-15.837,-11.9,0.717
47449900,-0.806,0.367,0.416,-27.842,1.05,1.382
47449910,-0.879,0.324,0.457,-37.047,9.59,0.997
47449920,-0.888,0.399,0.538,-43.47,3.272,2.852
47449930,-0.728,0.256,0.515,-47.32,-7.91,7.7
47449940,-0.695,0.345,0.584,-44.135,-5.285,9.03
47449950,-0.623,0.223,0.588,-39.585,1.277,10.167
47449960,-0.657,0.327,0.645,-27.947,12.827,8.802
47449970,-0.654,0.218,0.582,-20.247,20.545,11.602
47449980,-0.764,0.402,0.654,-13.177,28.647,11.06
47449990,-0.715,0.331,0.596,-16.87,28.157,14.647
47450000,-0.767,0.346,0.54,-18.2,28.402,15.505
47450010,-0.781,0.352,0.521,-17.692,26.075,15.662
47450010,-0.822,0.383,0.519,-16.712,21.735,14.42
47450030,-0.843,0.381,0.522,-16.905,13.09,11.515
47450030,-0.853,0.382,0.521,-18.217,2.17,9.362
47450050,-0.824,0.375,0.512,-20.457,-7.98,7.42
47450050,-0.798,0.376,0.526,-23.712,-11.252,6.615
47450070,-0.796,0.341,0.532,-27.422,-11.252,6.51
47450070,-0.785,0.299,0.533,-27.912,-11.252,5.862
47450080,-0.757,0.286,0.554,-23.467,-11.655,4.567
47450090,-0.741,0.295,0.576,-18.112,-10.202,4.34
47450100,-0.752,0.296,0.584,-13.895,-9.1,3.395
47450110,-0.746,0.317,0.593,-10.062,-8.207,1.802
47450120,-0.74,0.32,0.583,-8.68,-6.37,1.172
47450130,-0.747,0.313,0.565,-9.362,-2.152,0.21
47450140,-0.755,0.284,0.548,-9.905,1.785,-0.682
47450150,-0.79,0.269,0.534,-9.24,5.565,-0.787
47450160,-0.825,0.286,0.537,-7.7,9.135,-2.992
47450170,-0.833,0.278,0.544,-4.812,5.302,-2.432
47450180,-0.816,0.308,0.535,-2.275,-2.012,-1.26
47450190,-0.812,0.325,0.542,-1.032,-8.557,-2.66
47450200,-0.805,0.34,0.551,-2.24,-14.262,-4.497
47450210,-0.781,0.345,0.575,-4.777,-17.307,-5.495
47450220,-0.761,0.334,0.585,-8.662,-16.992,-4.48
47450230,-0.734,0.31,0.582,-11.007,-15.172,-3.08
47450240,-0.715,0.298,0.58,-9.695,-12.355,-3.132
47450250,-0.715,0.302,0.581,-6.387,-9.012,-4.305
47450260,-0.728,0.304,0.576,-3.027,-5.635,-5.792
47450270,-0.744,0.314,0.572,-0.927,-3.71,-6.65
47450280,-0.762,0.321,0.573,-1.295,-2.852,-6.667
47450290,-0.785,0.316,0.568,-3.605,-4.042,-6.002
47450300,-0.788,0.314,0.563,-6.055,-6.405,-5.302
47450310,-0.779,0.305,0.562,-7.962,-10.01,-4.847
47450320,-0.776,0.309,0.577,-9.31,-12.512,-5.215
47450330,-0.761,0.278,0.572,-9.66,-15.032,-4.48
47450330,-0.748,0.289,0.589,-8.225,-14.472,-4.515
47450350,-0.736,0.274,0.594,-7.017,-12.985,-3.797
47450350,-0.722,0.256,0.602,-5.092,-10.01,-2.222
47450370,-0.705,0.257,0.608,-1.33,-6.037,-1.172
47450370,-0.713,0.275,0.606,1.505,-0.962,-0.525
47450390,-0.734,0.28,0.591,2.415,2.747,-0.717
47450390,-0.773,0.297,0.585,2.555,4.97,-0.507
47450410,-0.791,0.313,0.581,1.837,3.972,-0.315
47450410,-0.794,0.307,0.562,-0.175,1.697,0.122
47450420,-0.796,0.306,0.571,-1.12,-2.397,0.665
47450430,-0.784,0.317,0.581,-1.627,-5.74,0.717
47450440,-0.763,0.306,0.582,-2.975,-8.522,-0.315
47450450,-0.756,0.292,0.586,-3.605,-9.555,-0.7
47450460,-0.747,0.294,0.601,-2.397,-9.502,-0.997
47450470,-0.737,0.284,0.6,-1.347,-7.367,-1.26
47450480,-0.744,0.283,0.59,-0.017,-6.02,-1.26
47450490,-0.757,0.299,0.59,1.26,-5.197,-1.417
47450500,-0.796,0.309,0.581,0.542,-6.072,-0.962
47450510,-0.799,0.305,0.571,-1.452,-8.767,0.122
47450520,-0.811,0.303,0.567,-3.115,-12.862,0.962
47450530,-0.786,0.303,0.581,-4.41,-16.555,2.17
47450540,-0.736,0.294,0.606,-5.547,-18.007,2.94
47450550,-0.693,0.27,0.619,-6.387,-15.137,3.885
47450560,-0.667,0.262,0.623,-4.725,-9.52,3.745
47450570,-0.669,0.27,0.624,-1.89,-2.8,2.922
47450580,-0.701,0.282,0.615,0.035,3.395,2.467
47450590,-0.743,0.299,0.597,1.207,6.72,1.977
47450600,-0.768,0.318,0.59,0.822,7.105,1.645
47450610,-0.78,0.313,0.58,-0.962,5.285,1.225
47450620,-0.768,0.302,0.576,-1.855,2.765,0.892
47450630,-0.753,0.302,0.584,-1.592,0.105,0.91
47450640,-0.743,0.296,0.588,-1.627,-1.137,0.297
47450650,-0.742,0.296,0.592,-1.19,-1.522,-0.962
47450660,-0.748,0.302,0.602,-1.47,-1.172,-1.732
47450670,-0.766,0.286,0.59,-2.537,-1.575,-2.52
47450680,-0.754,0.269,0.58,-1.942,-2.765,-2.502
47450690,-0.77,0.276,0.584,-0.28,-5.022,-0.875
47450700,-0.78,0.274,0.588,0.525,-6.877,0.087
47450710,-0.774,0.281,0.546,1.89,-8.872,0.63
47450720,-0.758,0.358,0.545,3.482,-13.282,0.805
47450730,-0.837,0.37,0.618,-0.262,-19.197,-1.96
47450740,-0.756,0.315,0.65,-4.567,-19.197,-3.657
47450750,-0.695,0.278,0.633,-6.265,-16.537,-2.38
47450760,-0.645,0.244,0.625,-5.775,-11.13,-1.47
47450760,-0.671,0.245,0.624,-1.75,-4.427,-1.12
47450780,-0.717,0.262,0.603,1.89,2.135,-0.07
47450780,-0.755,0.277,0.586,2.87,4.672,0.122
47450800,-0.779,0.285,0.58,1.645,4.48,1.75
47450800,-0.79,0.307,0.593,0.542,1.627,3.85
47450820,-0.781,0.321,0.603,-1.295,-0.752,4.76
47450820,-0.749,0.277,0.662,-2.975,-1.767,4.287
47450830,-0.701,0.249,0.615,-1.225,3.377,4.147
47450840,-0.705,0.276,0.596,1.645,7.332,4.672
47450850,-0.751,0.294,0.583,1.522,9.24,4.725
47450860,-0.774,0.315,0.591,1.382,8.137,4.48
47450870,-0.772,0.336,0.601,-1.085,6.807,4.532
47450880,-0.736,0.309,0.584,-4.357,5.53,3.097
47450890,-0.707,0.29,0.58,-4.392,5.092,2.782
47450900,-0.704,0.285,0.585,-2.345,4.9,2.87
47450910,-0.721,0.276,0.565,0.595,4.9,1.627
47450920,-0.751,0.304,0.59,3.482,4.165,0.245
47450930,-0.802,0.304,0.598,2.397,3.867,0.052
47450940,-0.788,0.284,0.58,0.612,1.522,-0.122
47450950,-0.771,0.276,0.58,1.417,-1.277,-0.402
47450960,-0.774,0.279,0.534,3.745,-2.87,-1.715
47450970,-0.779,0.362,0.47,6.772,-9.17,-3.412
47450980,-0.92,0.385,0.582,4.13,-21.98,-7.805
47450990,-0.86,0.35,0.614,0.227,-28.945,-12.582
47451000,-0.757,0.304,0.655,-2.747,-30.17,-13.107
47451010,-0.66,0.228,0.639,-4.812,-24.57,-9.415
47451020,-0.605,0.192,0.654,-1.61,-14.385,-4.917
47451030,-0.656,0.214,0.619,2.922,-2.415,-1.242
47451040,-0.707,0.256,0.584,5.512,5.582,-0.245
47451050,-0.799,0.296,0.568,4.62,8.207,1.277
47451060,-0.838,0.282,0.634,1.522,5.197,3.465
47451070,-0.733,0.267,0.641,0.805,4.62,4.672
47451080,-0.725,0.275,0.619,0.105,10.902,6.195
47451080,-0.706,0.279,0.621,-2.257,15.487,6.265
47451100,-0.729,0.247,0.607,-4.322,20.335,4.707
47451100,-0.666,0.324,0.591,-6.335,23.835,1.82
47451120,-0.729,0.285,0.55,-7.332,24.517,6.72
47451120,-0.759,0.339,0.546,-4.97,21.822,8.68
47451140,-0.826,0.313,0.525,-2.135,15.26,8.417
47451140,-0.794,0.383,0.557,1.47,6.282,3.85
47451160,-0.818,0.378,0.588,1.785,1.487,1.785
47451160,-0.788,0.337,0.587,-1.4,-1.557,-3.097
47451170,-0.751,0.282,0.564,-3.692,-2.957,-5.197
47451180,-0.765,0.282,0.513,-1.977,-4.497,-5.215
47451190,-0.791,0.344,0.528,-0.07,-10.01,-6.65
47451200,-0.859,0.354,0.606,-1.312,-17.605,-11.305
47451210,-0.795,0.308,0.583,-2.817,-20.755,-14.77
47451220,-0.748,0.3,0.589,-2.712,-23.94,-15.032
47451230,-0.744,0.257,0.605,-2.905,-21.245,-14.175
47451240,-0.714,0.225,0.612,-1.47,-16.695,-10.832
47451250,-0.726,0.21,0.589,0.157,-11.34,-6.79
47451260,-0.724,0.228,0.594,1.68,-9.047,-4.76
47451270,-0.769,0.246,0.608,1.627,-6.195,-1.522
47451280,-0.767,0.255,0.578,1.137,-5.057,2.187
47451290,-0.769,0.284,0.577,1.242,-6.072,4.427
47451300,-0.783,0.308,0.597,0.63,-7.525,5.267
47451310,-0.777,0.32,0.597,-1.102,-8.592,5.267
47451320,-0.746,0.329,0.593,-3.237,-9.467,4.462
47451330,-0.736,0.345,0.608,-6.055,-8.89,3.36
47451340,-0.734,0.308,0.694,-9.957,-5.285,2.765
47451350,-0.665,0.255,0.667,-11.252,4.917,3.885
47451360,-0.668,0.235,0.607,-9.537,15.89,6.09
47451370,-0.709,0.227,0.561,-7.717,19.985,7.402
47451380,-0.78,0.241,0.548,-3.587,18.462,8.242
47451390,-0.809,0.289,0.545,-0.315,12.442,8.225
47451400,-0.819,0.288,0.521,-0.28,5.39,5.845
47451410,-0.776,0.296,0.55,1.417,-2.87,2.905
47451420,-0.8,0.322,0.622,1.767,-5.11,2.642
47451430,-0.748,0.306,0.618,-0.787,-4.462,2.082
47451440,-0.711,0.276,0.593,-2.292,-2.135,0.647
47451450,-0.709,0.263,0.585,-1.732,0.07,-0.63
47451460,-0.748,0.279,0.519,-0.122,3.132,-1.19
47451470,-0.8,0.327,0.518,0.63,-0.682,-1.61
47451480,-0.898,0.33,0.564,0,-10.867,-5.827
47451490,-0.822,0.319,0.576,2.1,-20.72,-10.272
47451500,-0.803,0.339,0.621,1.837,-26.285,-11.707
47451510,-0.746,0.276,0.643,-1.89,-25.55,-10.657
47451510,-0.706,0.224,0.627,-2.292,-18.427,-7.157
47451530,-0.683,0.209,0.606,-1.225,-11.357,-3.15
47451530,-0.722,0.234,0.609,-0.122,-4.392,-0.927
47451550,-0.75,0.253,0.594,0.017,-1.242,2.467
47451550,-0.787,0.287,0.593,-0.122,-0.77,5.407
47451570,-0.762,0.29,0.622,-1.907,-2.625,6.475
47451570,-0.75,0.257,0.632,-3.675,-0.49,7.49
47451580,-0.695,0.274,0.617,-3.5,4.392,10.062
47451590,-0.722,0.303,0.622,-5.985,10.29,12.005
47451600,-0.735,0.298,0.604,-9.957,14.577,11.007
47451610,-0.737,0.315,0.608,-11.76,16.695,9.52
47451620,-0.772,0.32,0.612,-14.472,16.782,8.662
47451630,-0.719,0.313,0.614,-18.917,13.457,5.775
47451640,-0.727,0.248,0.577,-18.55,15.75,4.515
47451650,-0.725,0.239,0.528,-13.107,14.472,5.127
47451660,-0.742,0.238,0.486,-4.34,11.882,2.957
47451670,-0.827,0.28,0.539,5.18,7.507,-0.875
47451680,-0.859,0.288,0.582,7.525,1.925,-1.575
47451690,-0.807,0.281,0.589,5.442,-2.275,-1.505
47451700,-0.782,0.256,0.522,4.112,-4.917,-1.697
47451710,-0.765,0.298,0.521,7.35,-12.81,-4.165
47451720,-0.832,0.322,0.585,10.832,-19.495,-9.572
47451730,-0.829,0.337,0.578,13.055,-22.452,-15.785
47451740,-0.816,0.33,0.658,9.975,-23.065,-16.03
47451750,-0.77,0.231,0.579,3.552,-20.037,-9.362
47451760,-0.714,0.228,0.582,6.195,-19.985,-5.757
47451770,-0.736,0.268,0.612,9.012,-17.972,-4.147
47451780,-0.73,0.285,0.62,6.965,-13.352,-2.59
47451790,-0.762,0.258,0.586,2.432,-9.152,0.07
47451800,-0.741,0.271,0.587,-0.227,-8.767,2.747
47451810,-0.753,0.296,0.632,-1.837,-8.19,4.567
47451820,-0.74,0.267,0.662,-4.41,-4.55,5.862
47451830,-0.666,0.268,0.636,-4.217,2.922,8.085
47451830,-0.696,0.294,0.625,-6.177,10.937,10.815
47451850,-0.71,0.271,0.596,-10.762,16.275,11.462
47451850,-0.743,0.271,0.569,-11.69,17.22,11.147
47451870,-0.773,0.295,0.56,-9.415,14.927,9.765
47451870,-0.811,0.309,0.562,-6.265,11.375,6.58
47451890,-0.818,0.295,0.548,-3.202,4.795,3.412
47451890,-0.774,0.296,0.567,0.735,-1.995,0.122
47451910,-0.769,0.28,0.594,1.89,-4.392,-2.257
47451910,-0.753,0.26,0.588,0.735,-3.692,-2.817
47451920,-0.751,0.255,0.576,1.312,-2.992,-2.66
47451930,-0.776,0.259,0.522,3.92,-4.567,-3.255
47451940,-0.81,0.3,0.561,8.382,-12.022,-5.565
47451950,-0.812,0.305,0.577,11.13,-18.305,-9.555
47451960,-0.785,0.31,0.562,12.932,-24.185,-13.545
47451970,-0.799,0.331,0.606,12.67,-28.07,-16.695
47451980,-0.784,0.316,0.643,8.575,-27.142,-16.922
47451990,-0.761,0.245,0.608,2.03,-22.557,-11.06
47452000,-0.706,0.216,0.621,-0.91,-21.63,-5.705
47452010,-0.703,0.212,0.641,-0.875,-16.45,-1.522
47452020,-0.685,0.225,0.616,-0.017,-10.342,3.237
47452030,-0.729,0.261,0.598,0.857,-5.04,5.985
47452040,-0.766,0.294,0.593,0.402,-2.695,7.315
47452050,-0.8,0.347,0.59,-2.345,-3.657,7.525
47452060,-0.791,0.359,0.623,-7.49,-6.597,6.947
47452070,-0.753,0.294,0.706,-12.81,-6.265,6.195
47452080,-0.657,0.246,0.634,-13.142,1.802,7.07
47452090,-0.662,0.252,0.602,-11.34,6.912,7.945
47452100,-0.673,0.25,0.584,-9.765,9.905,8.33
47452110,-0.732,0.271,0.59,-6.055,11.305,8.12
47452120,-0.78,0.291,0.572,-4.532,10.552,6.807
47452130,-0.793,0.288,0.557,-3.517,5.337,3.762
47452140,-0.772,0.284,0.572,-0.332,-1.032,1.277
47452150,-0.779,0.281,0.609,2.712,-4.62,-0.07
47452160,-0.756,0.28,0.61,3.815,-5.792,-0.752
47452170,-0.749,0.28,0.566,3.535,-6.492,-1.155
47452180,-0.741,0.311,0.541,2.835,-9.502,-2.257
47452190,-0.815,0.317,0.59,2.677,-16.275,-6.685
47452200,-0.797,0.315,0.594,4.217,-21.945,-12.075
47452210,-0.795,0.339,0.605,5.512,-27.79,-16.24
47452220,-0.787,0.32,0.652,2.135,-30.117,-16.957
47452230,-0.756,0.254,0.657,-1.557,-27.877,-13.772
47452240,-0.673,0.214,0.613,-1.785,-22.417,-9.362
47452250,-0.674,0.205,0.622,-0.997,-18.077,-6.265
47452260,-0.686,0.199,0.639,-0.227,-11.69,-3.307
47452260,-0.715,0.21,0.642,1.575,-5.932,0.315
47452280,-0.729,0.25,0.618,2.362,-1.907,4.235
47452280,-0.747,0.288,0.61,0.822,-1.4,5.95
47452290,-0.754,0.307,0.621,-2.782,-0.577,6.37
47452300,-0.737,0.312,0.639,-5.845,1.032,6.142
47452310,-0.691,0.245,0.699,-7.035,4.235,4.55
47452320,-0.599,0.251,0.639,-3.78,13.125,2.415
47452330,-0.692,0.28,0.649,-2.38,21.105,1.54
47452340,-0.72,0.279,0.641,-4.27,26.775,1.557
47452350,-0.764,0.293,0.601,-5.425,28.612,0.962
47452360,-0.788,0.287,0.569,-8.82,23.205,1.015
47452370,-0.808,0.283,0.56,-8.575,15.995,1.067
47452380,-0.811,0.288,0.551,-6.475,8.785,1.277
47452390,-0.782,0.281,0.576,-5.092,0.735,0.105
47452400,-0.763,0.269,0.621,-4.042,-3.377,-0.805
47452410,-0.739,0.265,0.623,-3.972,-3.465,-0.892
47452420,-0.727,0.258,0.607,-3.465,-2.24,-1.68
47452430,-0.717,0.281,0.558,-1.347,-0.437,-3.412
47452440,-0.779,0.347,0.536,-2.31,1.942,-3.745
47452450,-0.874,0.279,0.588,-6.597,-7.595,-7.42
47452460,-0.784,0.303,0.571,-4.48,-16.467,-12.04
47452470,-0.812,0.295,0.626,-6.527,-20.16,-12.932
47452480,-0.789,0.241,0.651,-10.78,-21.665,-10.85
47452490,-0.698,0.198,0.62,-8.435,-19.722,-7.42
47452500,-0.708,0.218,0.617,-4.742,-16.572,-5.337
47452510,-0.672,0.149,0.607,-3.57,-12.092,-3.797
47452520,-0.761,0.202,0.621,1.277,-6.055,-3.132
47452530,-0.758,0.205,0.607,3.447,-5.775,0.875
47452540,-0.772,0.229,0.597,4.83,-5.845,3.447
47452550,-0.783,0.25,0.597,5.092,-7.157,6.387
47452560,-0.781,0.271,0.592,4.9,-7.857,8.627
47452570,-0.766,0.292,0.599,4.27,-9.292,9.992
47452580,-0.747,0.311,0.625,2.8,-8.61,9.957
47452580,-0.729,0.216,0.738,1.61,-7.735,9.432
47452600,-0.57,0.203,0.642,7.385,-1.085,7.945
47452600,-0.646,0.275,0.636,12.075,6.632,7.42
47452620,-0.725,0.282,0.627,8.942,9.555,7.437
47452620,-0.753,0.315,0.591,8.05,11.305,5.372
47452640,-0.815,0.335,0.597,3.902,8.68,4.935
47452640,-0.787,0.309,0.583,-1.172,3.08,1.89
47452660,-0.759,0.294,0.592,-1.767,-1.295,0.822
47452660,-0.745,0.271,0.629,-1.96,-4.742,-0.14
47452670,-0.704,0.248,0.642,-1.102,-3.57,-1.995
47452680,-0.703,0.259,0.636,-1.47,-0.332,-2.975
47452690,-0.71,0.269,0.56,-3.675,2.222,-3.657
47452700,-0.787,0.293,0.558,-5.18,-0.525,-3.535
47452710,-0.846,0.321,0.567,-6.072,-7.7,-6.597
47452720,-0.883,0.333,0.603,-7.315,-16.52,-10.78
47452730,-0.853,0.315,0.619,-9.8,-22.592,-11.095
47452740,-0.76,0.249,0.656,-12.267,-26.127,-7.297
47452750,-0.661,0.175,0.66,-10.745,-22.925,-5.25
47452760,-0.595,0.161,0.629,-4.55,-14.787,-4.427
47452770,-0.65,0.182,0.63,1.837,-5.425,-2.572
47452780,-0.73,0.215,0.622,7.087,1.435,-0.297
47452790,-0.792,0.266,0.599,9.572,2.887,2.852
47452800,-0.817,0.284,0.587,6.545,-0.595,5.425
47452810,-0.801,0.274,0.574,2.695,-5.862,7.56
47452820,-0.77,0.277,0.653,0.892,-9.1,10.885
47452830,-0.744,0.157,0.698,1.33,-7.28,11.847
47452840,-0.593,0.188,0.608,8.592,1.067,12.705
47452850,-0.657,0.234,0.611,12.127,2.1,13.912
47452860,-0.698,0.293,0.651,10.202,6.37,12.355
47452870,-0.751,0.327,0.619,7.192,9.765,9.537
47452880,-0.787,0.345,0.61,0.962,10.307,8.96
47452890,-0.775,0.33,0.594,-4.48,6.335,6.65
47452900,-0.773,0.34,0.61,-8.137,2.327,5.18
47452910,-0.764,0.321,0.634,-11.077,-1.907,3.552
47452920,-0.683,0.282,0.629,-9.047,-2.887,1.33
47452930,-0.641,0.248,0.626,-4.9,-1.347,-1.4
47452940,-0.672,0.225,0.635,-2.94,3.097,-2.572
47452950,-0.718,0.235,0.639,0.175,6.982,-1.925
47452960,-0.761,0.283,0.619,0.787,8.785,-0.455
47452970,-0.791,0.352,0.509,-2.537,6.09,-0.857
47452980,-0.893,0.37,0.559,-9.467,-5.985,-3.727
47452980,-0.878,0.339,0.586,-14.98,-18.445,-8.995
47453000,-0.813,0.308,0.634,-18.025,-24.517,-9.52
47453000,-0.756,0.26,0.631,-21.455,-26.39,-5.67
47453010,-0.676,0.206,0.644,-20.947,-24.937,-3.552
47453020,-0.654,0.184,0.673,-16.432,-20.23,-2.117
47453030,-0.619,0.162,0.665,-11.445,-12.775,-0.805
47453040,-0.639,0.186,0.631,-6.44,-3.01,0.455
47453050,-0.731,0.213,0.631,-3.64,3.762,3.22
47453060,-0.773,0.237,0.616,-2.1,5.407,5.722
47453070,-0.798,0.27,0.613,-1.207,3.272,6.965
47453080,-0.8,0.269,0.617,-2.537,-1.662,7.157
47453090,-0.756,0.261,0.62,-2.38,-5.862,6.86
47453100,-0.719,0.269,0.62,-0.752,-6.772,6.37
47453110,-0.717,0.274,0.618,0.262,-5.582,5.232
47453120,-0.736,0.284,0.627,1.137,-3.727,4.69
47453130,-0.758,0.291,0.626,1.102,-2.887,4.69
47453140,-0.74,0.278,0.626,0.017,-2.52,4.147
47453150,-0.711,0.189,0.699,0.105,-0.56,3.36
47453160,-0.647,0.135,0.63,6.457,5.285,2.957
47453170,-0.614,0.202,0.588,16.362,8.872,4.077
47453180,-0.746,0.263,0.645,18.55,10.272,7.472
47453190,-0.762,0.323,0.629,16.362,7.752,8.067
47453200,-0.797,0.338,0.633,9.887,7.472,8.575
47453210,-0.78,0.332,0.604,2.327,2.625,5.705
47453220,-0.758,0.308,0.606,0.752,-0.542,3.832
47453230,-0.744,0.32,0.608,1.102,-2.59,3.027
47453240,-0.736,0.292,0.609,0.665,-3.22,0.822
47453250,-0.731,0.276,0.62,0.472,-3.78,-0.84
47453260,-0.73,0.252,0.627,-1.102,-4.007,-0.665
47453270,-0.731,0.234,0.62,-1.697,-4.55,0.052
47453280,-0.75,0.245,0.618,-0.455,-4.375,1.33
47453290,-0.769,0.265,0.619,0.157,-5.53,2.292
47453300,-0.767,0.272,0.618,-0.752,-7.35,2.467
47453310,-0.758,0.275,0.596,-2.94,-10.43,2.52
47453320,-0.767,0.317,0.579,-5.565,-13.177,3.132
47453330,-0.813,0.336,0.611,-10.15,-18.917,2.94
47453330,-0.797,0.303,0.632,-14.175,-24.027,1.435
47453350,-0.738,0.299,0.635,-14.525,-26.302,0.77
47453350,-0.706,0.267,0.656,-14.577,-26.67,0.647
47453370,-0.652,0.228,0.665,-12.215,-24.01,-0.857
47453370,-0.64,0.232,0.66,-7.122,-17.377,-1.54
47453390,-0.669,0.245,0.656,-4.025,-11.655,-1.96
47453390,-0.704,0.253,0.644,-2.992,-7.297,-2.275
47453410,-0.746,0.262,0.64,-2.695,-6.072,-1.277
47453410,-0.773,0.264,0.653,-2.922,-6.947,-0.735
47453420,-0.748,0.258,0.65,-2.327,-8.872,-1.575
47453430,-0.726,0.253,0.633,-0.315,-10.185,-2.275
47453440,-0.715,0.243,0.615,1.942,-10.342,-3.342
47453450,-0.673,0.197,0.556,5.967,-3.255,-6.825
47453460,-0.844,0.292,0.639,12.565,-0.332,-8.802
47453470,-0.728,0.26,0.632,10.64,-9.362,-4.41
47453480,-0.696,0.257,0.646,9.152,-8.767,-1.662
47453490,-0.672,0.24,0.644,9.555,-5.792,-0.577
47453500,-0.623,0.243,0.648,12.442,-0.787,-2.485
47453510,-0.638,0.255,0.669,16.642,6.877,-3.57
47453520,-0.684,0.268,0.683,19.215,11.217,-2.835
47453530,-0.702,0.275,0.681,19.862,10.622,-2.502
47453540,-0.694,0.277,0.657,19.04,10.482,-1.89
47453550,-0.72,0.284,0.646,17.307,14.595,-0.297
47453560,-0.745,0.24,0.628,17.482,16.782,0.927
47453570,-0.703,0.25,0.617,23.537,18.182,1.085
47453580,-0.709,0.283,0.618,29.295,22.75,0.875
47453590,-0.752,0.295,0.608,30.257,25.06,0.14
47453600,-0.802,0.289,0.595,29.277,21.945,0.28
47453610,-0.856,0.299,0.578,27.895,12.32,-0.7
47453620,-0.859,0.301,0.551,25.445,0.105,-4.55
47453630,-0.854,0.287,0.52,23.922,-11.742,-9.555
47453640,-0.859,0.273,0.503,24.36,-20.37,-14
47453650,-0.847,0.269,0.506,26.53,-26.39,-19.617
47453660,-0.839,0.27,0.504,28.665,-27.685,-23.975
47453670,-0.769,0.29,0.493,31.08,-22.715,-25.847
47453670,-0.753,0.279,0.5,32.41,-6.16,-27.685
47453690,-0.739,0.264,0.501,33.81,14.577,-29.347
47453690,-0.713,0.293,0.52,38.447,38.797,-31.22
47453710,-0.704,0.321,0.563,42.525,60.97,-29.242
47453710,-0.757,0.327,0.603,43.557,76.177,-28.07
47453730,-0.802,0.322,0.612,44.677,76.212,-30.922
47453730,-0.81,0.307,0.608,45.955,60.812,-31.57
47453750,-0.831,0.306,0.614,47.687,34.282,-31.377
47453750,-0.821,0.306,0.639,47.495,2.467,-33.442
47453760,-0.8,0.309,0.658,44.485,-30.94,-35.07
47453770,-0.69,0.323,0.656,39.97,-58.467,-32.777
47453780,-0.6,0.309,0.639,33.722,-68.215,-26.355
47453790,-0.606,0.292,0.628,27.457,-60.76,-17.325
47453800,-0.626,0.286,0.619,24.307,-45.43,-9.87
47453810,-0.677,0.302,0.609,23.38,-30.502,-4.13
47453820,-0.725,0.307,0.597,23.082,-21.962,-0.052
47453830,-0.753,0.291,0.567,23.677,-21.122,2.082
47453840,-0.78,0.298,0.545,25.655,-25.235,3.36
47453850,-0.82,0.323,0.564,26.81,-31.377,5.407
47453860,-0.8,0.367,0.575,23.695,-38.15,7.875
47453870,-0.78,0.385,0.579,17.36,-41.737,10.692
47453880,-0.758,0.392,0.584,9.852,-40.425,13.772
47453890,-0.755,0.387,0.606,3.202,-36.085,16.555
47453900,-0.741,0.372,0.621,-2.432,-32.007,17.675
47453910,-0.682,0.353,0.615,-5.267,-30.117,16.59
47453920,-0.645,0.343,0.624,-5.617,-25.217,15.015
47453930,-0.655,0.349,0.643,-5.057,-18.007,12.985
47453940,-0.67,0.343,0.643,-4.83,-9.905,9.625
47453950,-0.666,0.328,0.632,-4.41,-3.797,5.495
47453960,-0.673,0.313,0.62,-2.922,2.03,2.572
47453970,-0.7,0.311,0.61,-0.017,5.985,0.98
47453980,-0.717,0.321,0.605,2.607,8.68,0.35
47453990,-0.748,0.332,0.592,3.115,9.117,0.63
47454000,-0.773,0.327,0.592,2.03,7.227,1.522
47454010,-0.775,0.332,0.587,1.067,2.625,1.802
47454020,-0.776,0.338,0.589,-0.035,-1.137,2.065
47454030,-0.776,0.336,0.589,-0.875,-5.057,2.03
47454040,-0.768,0.331,0.586,-1.4,-8.61,2.31
47454050,-0.75,0.335,0.585,-2.047,-12.512,2.555
47454060,-0.74,0.334,0.587,-2.975,-14.612,2.537
47454070,-0.74,0.327,0.594,-3.237,-16.327,2.87
47454080,-0.712,0.337,0.602,-2.52,-16.695,2.695
47454080,-0.699,0.339,0.614,-2.432,-15.242,2.397
47454100,-0.711,0.323,0.608,-2.712,-13.23,1.872
47454100,-0.723,0.323,0.609,-1.435,-13.632,0.665
47454120,-0.722,0.337,0.612,-0.017,-14.14,-0.595
47454120,-0.729,0.333,0.613,0.227,-14.42,-1.592
47454140,-0.737,0.322,0.612,0.297,-15.312,-1.802
47454140,-0.723,0.328,0.618,1.085,-16.765,-1.295
47454160,-0.701,0.341,0.624,1.12,-16.275,-0.595
47454160,-0.692,0.34,0.619,-0.227,-14.157,0.175
47454170,-0.685,0.338,0.624,-1.382,-12.302,1.032
47454180,-0.671,0.339,0.626,-2.065,-10.097,1.102
47454190,-0.654,0.326,0.634,-2.59,-6.107,0.752
47454200,-0.668,0.298,0.639,-0.892,-0.052,0.945
47454210,-0.675,0.308,0.632,3.57,3.622,-0.595
47454220,-0.699,0.308,0.629,7.577,5.652,-2.292
47454230,-0.706,0.321,0.629,10.955,7.245,-2.642
47454240,-0.729,0.322,0.617,12.53,9.065,-2.66
47454250,-0.721,0.328,0.608,13.265,7.787,-3.237
47454260,-0.728,0.361,0.601,12.652,6.545,-2.52
47454270,-0.758,0.369,0.599,9.415,3.955,-2.082
47454280,-0.764,0.38,0.596,4.97,0.472,-1.68
47454290,-0.761,0.381,0.592,-0.262,-4.025,-0.787
47454300,-0.777,0.358,0.581,-5.547,-8.907,-0.752
47454310,-0.776,0.328,0.576,-7.14,-16.45,-1.067
47454320,-0.76,0.335,0.592,-5.827,-22.487,-0.42
47454330,-0.722,0.329,0.619,-5.267,-25.322,0.367
47454340,-0.712,0.309,0.63,-4.41,-23.152,1.872
47454350,-0.66,0.33,0.632,-1.96,-24.01,0.665
47454360,-0.659,0.341,0.642,-2.45,-20.755,0.525
47454370,-0.687,0.329,0.64,-3.08,-16.782,0.542
47454380,-0.664,0.334,0.635,-2.66,-13.895,0.122
47454390,-0.681,0.342,0.635,-2.765,-11.252,0.28
47454400,-0.694,0.336,0.635,-4.13,-9.222,1.207
47454410,-0.7,0.33,0.632,-4.69,-8.662,2.345
47454420,-0.707,0.329,0.631,-5.005,-8.61,3.15
47454420,-0.704,0.324,0.628,-4.742,-9.502,2.905
47454440,-0.695,0.33,0.632,-3.622,-9.625,2.467
47454440,-0.697,0.34,0.637,-3.255,-9.905,2.205
47454460,-0.682,0.339,0.641,-3.867,-9.66,2.73
47454460,-0.67,0.338,0.647,-4.62,-9.03,3.272
47454480,-0.675,0.335,0.652,-5.74,-7.647,3.36
47454480,-0.664,0.318,0.648,-5.95,-6.002,2.607
47454500,-0.651,0.316,0.647,-4.13,-3.202,1.137
47454500,-0.648,0.328,0.628,-2.012,0.227,-0.77
47454510,-0.633,0.376,0.612,-2.065,3.902,-1.33
47454520,-0.733,0.348,0.645,-5.197,3.325,-1.732
47454530,-0.719,0.355,0.648,-5.652,2.52,-3.132
47454540,-0.741,0.36,0.659,-6.912,2.24,-3.675
47454550,-0.702,0.322,0.627,-8.575,1.855,-3.745
47454560,-0.693,0.316,0.634,-8.277,1.522,-2.275
47454570,-0.691,0.308,0.638,-8.855,1.33,-0.297
47454580,-0.683,0.295,0.638,-9.607,2.362,1.365
47454590,-0.69,0.277,0.634,-9.222,3.465,3.115
47454600,-0.718,0.27,0.637,-7.262,3.657,4.112
47454610,-0.722,0.285,0.64,-3.202,1.4,3.99
47454620,-0.714,0.318,0.633,-0.035,0.332,4.48
47454630,-0.726,0.32,0.625,1.207,-1.68,4.987
47454640,-0.723,0.333,0.623,2.1,-3.64,5.88
47454650,-0.728,0.339,0.622,2.345,-5.477,5.74
47454660,-0.733,0.332,0.623,2.502,-7.035,5.827
47454670,-0.751,0.301,0.65,3.377,-9.94,6.44
47454680,-0.727,0.287,0.635,6.125,-12.215,4.69
47454690,-0.687,0.327,0.636,8.925,-14.035,2.222
47454700,-0.71,0.324,0.636,8.067,-14.315,0.455
47454710,-0.679,0.333,0.645,8.225,-15.12,-1.452
47454720,-0.671,0.344,0.63,7.42,-13.912,-1.33
47454730,-0.681,0.341,0.635,5.95,-12.932,-1.557
47454740,-0.685,0.366,0.651,5.372,-11.847,-2.065
47454750,-0.675,0.377,0.644,2.992,-10.692,-1.575
47454760,-0.682,0.366,0.643,-1.12,-9.327,-1.26
47454770,-0.672,0.35,0.645,-4.13,-9.327,0.14
47454780,-0.644,0.343,0.652,-6.195,-7.21,1.4
47454790,-0.642,0.325,0.657,-7.192,-4.567,1.592
47454800,-0.642,0.313,0.657,-6.16,-1.697,1.68
47454810,-0.655,0.305,0.652,-4.077,0.437,1.575
47454820,-0.66,0.311,0.652,-2.012,2.012,0.98
47454830,-0.671,0.319,0.645,-1.032,2.835,0.857
47454830,-0.678,0.32,0.641,-1.225,3.517,1.12
47454850,-0.673,0.333,0.645,-1.785,3.552,1.802
47454850,-0.66,0.365,0.62,-3.99,5.215,2.607
47454870,-0.669,0.392,0.621,-9.8,7.63,3.885
47454870,-0.696,0.379,0.638,-16.432,7.577,4.55
47454890,-0.667,0.364,0.645,-20.947,7.927,4.392
47454890,-0.648,0.345,0.661,-23.572,10.255,4.637
47454910,-0.665,0.296,0.691,-24.202,14.525,4.672
47454910,-0.608,0.312,0.645,-20.405,19.932,3.85
47454920,-0.694,0.307,0.665,-20.107,27.597,4.06
47454930,-0.771,0.244,0.643,-18.497,25.235,0.175
47454940,-0.712,0.31,0.617,-11.637,23.66,-1.382
47454950,-0.801,0.302,0.626,-10.517,20.527,-0.262
47454960,-0.814,0.274,0.611,-10.132,13.177,0.315
47454970,-0.802,0.283,0.6,-3.885,4.077,1.067
47454980,-0.77,0.318,0.594,-0.157,-2.66,1.575
47454990,-0.771,0.305,0.605,1.05,-8.382,1.4
47455000,-0.743,0.314,0.622,2.222,-12.46,2.537
47455010,-0.704,0.329,0.637,2.415,-13.65,1.68
47455020,-0.694,0.313,0.637,1.715,-11.427,1.102
47455030,-0.718,0.283,0.668,2.73,-9.957,1.015
47455040,-0.668,0.238,0.654,8.015,-10.797,-2.205
47455050,-0.607,0.312,0.626,13.93,-5.705,-3.342
47455060,-0.729,0.316,0.633,11.602,-2.887,-2.555
47455070,-0.726,0.341,0.59,9.362,-4.515,-1.627
47455080,-0.788,0.382,0.598,4.777,-7.315,1.785
47455090,-0.813,0.345,0.612,-3.937,-15.54,4.777
47455100,-0.754,0.337,0.629,-7.56,-24.132,7.245
47455110,-0.702,0.343,0.652,-11.235,-29.907,9.345
47455120,-0.678,0.329,0.66,-16.572,-32.147,11.34
47455130,-0.66,0.376,0.599,-22.207,-33.407,14.262
47455140,-0.698,0.343,0.67,-30.485,-33.74,16.642
47455150,-0.618,0.289,0.668,-31.5,-30.24,17.22
47455160,-0.525,0.316,0.697,-26.845,-19.775,19.372
47455170,-0.475,0.317,0.71,-25.497,-5.932,18.777
47455170,-0.473,0.35,0.7,-26.005,15.067,20.265
47455190,-0.655,0.266,0.7,-27.562,30.275,21.595
47455190,-0.588,0.301,0.669,-24.062,39.2,19.057
47455210,-0.738,0.283,0.663,-23.205,44.852,18.952
47455210,-0.799,0.254,0.626,-22.68,39.847,17.237
47455230,-0.849,0.267,0.621,-16.012,28.542,13.825
47455230,-0.818,0.295,0.62,-8.855,14.122,9.572
47455250,-0.78,0.295,0.614,-2.975,1.907,4.672
47455250,-0.725,0.31,0.631,3.377,-6.387,-0.735
47455260,-0.764,0.308,0.626,7.192,-10.29,-4.515
47455270,-0.754,0.315,0.626,10.692,-15.312,-7.402
47455280,-0.745,0.307,0.623,14.052,-19.162,-7.297
47455290,-0.767,0.274,0.66,16.922,-23.607,-7.192
47455300,-0.709,0.228,0.661,23.572,-34.632,-11.655
47455310,-0.54,0.381,0.671,27.965,-32.48,-11.917
47455320,-0.651,0.362,0.652,17.552,-23.31,-7.577
47455330,-0.779,0.287,0.633,7.105,-18.672,-1.715
47455340,-0.736,0.306,0.64,5.495,-25.392,2.415
47455350,-0.658,0.365,0.651,2.275,-29.627,5.95
47455360,-0.67,0.345,0.679,-4.252,-28,10.132
47455370,-0.616,0.323,0.693,-8.662,-27.51,13.667
47455380,-0.553,0.335,0.705,-10.727,-22.522,14.997
47455390,-0.536,0.323,0.707,-13.632,-14.21,14.84
47455400,-0.553,0.317,0.704,-14.157,-4.322,14.647
47455410,-0.552,0.333,0.699,-12.792,5.075,13.86
47455420,-0.442,0.449,0.656,-14.752,19.6,14.997
47455430,-0.635,0.45,0.686,-29.4,42.227,25.165
47455440,-0.879,0.215,0.663,-42.612,43.505,30.117
47455450,-0.698,0.215,0.639,-30.38,28,20.825
47455460,-0.614,0.349,0.691,-15.347,25.077,10.972
47455470,-0.719,0.293,0.675,-15.312,26.075,6.177
47455480,-0.731,0.239,0.639,-9.502,22.435,1.435
47455490,-0.73,0.289,0.634,1.645,17.062,-2.59
47455500,-0.779,0.307,0.618,5.775,11.55,-6.842
47455510,-0.824,0.299,0.61,8.417,3.465,-9.397
47455520,-0.822,0.316,0.609,10.902,-6.842,-8.855
47455530,-0.787,0.299,0.617,12.722,-17.412,-9.082
47455540,-0.71,0.316,0.648,15.015,-23.8,-10.43
47455550,-0.755,0.285,0.69,13.93,-27.44,-10.29
47455560,-0.57,0.28,0.664,15.435,-36.365,-13.265
47455570,-0.55,0.394,0.687,15.295,-25.375,-9.467
47455580,-0.65,0.354,0.685,3.062,-15.172,-3.657
47455580,-0.644,0.33,0.676,-5.792,-10.587,3.15
47455600,-0.587,0.342,0.695,-11.515,-7,10.395
47455600,-0.525,0.315,0.706,-18.532,-0.35,16.222
47455620,-0.591,0.293,0.695,-20.685,9.187,21.682
47455620,-0.516,0.352,0.668,-20.107,18.532,22.347
47455640,-0.614,0.428,0.692,-25.182,38.15,25.515
47455640,-0.782,0.267,0.668,-35.682,45.097,29.627
47455660,-0.617,0.294,0.629,-32.235,39.952,27.912
47455660,-0.744,0.299,0.635,-26.197,41.352,23.537
47455670,-0.782,0.292,0.631,-22.522,35.21,15.96
47455680,-0.784,0.274,0.611,-15.697,24.867,11.077
47455690,-0.764,0.307,0.61,-6.65,15.89,5.46
47455700,-0.785,0.29,0.6,-0.07,7.84,-0.735
47455710,-0.786,0.296,0.603,7.07,-0.192,-5.967
47455720,-0.785,0.318,0.615,12.46,-7.087,-9.397
47455730,-0.762,0.305,0.614,14.857,-13.247,-11.777
47455740,-0.823,0.242,0.62,19.53,-18.69,-14.892
47455750,-0.711,0.227,0.613,33.582,-37.38,-27.055
47455760,-0.523,0.438,0.714,45.255,-38.605,-36.645
47455770,-0.675,0.38,0.693,35.56,-25.147,-35.315
47455780,-0.625,0.354,0.654,21.7,-19.407,-28.595
47455790,-0.695,0.36,0.667,10.745,-13.09,-17.097
47455800,-0.661,0.332,0.667,-4.025,-8.085,-6.545
47455810,-0.66,0.261,0.659,-13.545,-5.687,0.962
47455820,-0.586,0.295,0.681,-14.052,-1.54,3.92
47455830,-0.607,0.29,0.682,-13.3,6.125,5.39
47455840,-0.592,0.31,0.681,-11.357,14.682,5.197
47455850,-0.521,0.425,0.675,-13.335,27.51,7.875
47455860,-0.78,0.328,0.658,-27.825,45.412,18.917
47455870,-0.669,0.28,0.619,-35.91,44.59,25.007
47455880,-0.696,0.302,0.631,-36.137,46.392,30.502
47455890,-0.791,0.282,0.628,-37.712,45.535,30.992
47455900,-0.841,0.206,0.622,-33.372,32.48,24.622
47455910,-0.696,0.239,0.577,-20.737,17.657,15.417
47455920,-0.788,0.317,0.577,-6.23,17.657,6.107
47455920,-0.859,0.325,0.57,1.837,9.887,0.647
47455940,-0.82,0.353,0.584,6.562,-2.047,-6.177
47455940,-0.84,0.325,0.592,7.735,-10.955,-10.675
47455960,-0.808,0.3,0.588,7.945,-18.935,-12.967
47455960,-0.804,0.25,0.585,10.657,-25.952,-13.352
47455980,-0.848,0.173,0.534,21.087,-40.495,-19.022
47455980,-0.557,0.368,0.661,37.625,-52.377,-29.137
47456000,-0.718,0.389,0.722,34.912,-40.81,-28.472
47456000,-0.629,0.346,0.664,18.655,-33.617,-22.995
47456010,-0.658,0.275,0.665,8.137,-26.81,-12.845
47456020,-0.691,0.27,0.666,3.815,-21.017,-5.932
47456030,-0.647,0.305,0.659,1.767,-19.267,-3.955
47456040,-0.634,0.341,0.674,-1.26,-13.352,-0.945
47456050,-0.654,0.306,0.664,-6.877,-8.61,3.342
47456060,-0.608,0.317,0.687,-11.025,-5.197,7.682
47456070,-0.63,0.323,0.691,-16.24,-0.105,12.582
47456080,-0.588,0.305,0.674,-19.477,5.827,15.417
47456090,-0.477,0.384,0.709,-20.457,21,19.11
47456100,-0.731,0.31,0.673,-29.19,42.752,26.057
47456110,-0.744,0.212,0.624,-33.32,41.895,24.342
47456120,-0.731,0.242,0.609,-23.59,36.137,17.43
47456130,-0.72,0.327,0.62,-12.722,32.41,9.082
47456140,-0.83,0.288,0.589,-9.835,28.525,4.707
47456150,-0.807,0.277,0.558,-3.377,16.992,0.525
47456160,-0.828,0.322,0.574,4.27,6.912,-2.905
47456170,-0.813,0.302,0.585,5.442,-3.202,-6.737
47456180,-0.797,0.258,0.589,7.122,-10.482,-8.067
47456190,-0.75,0.256,0.603,11.41,-16.012,-7.682
47456200,-0.78,0.244,0.627,15.015,-19.285,-8.942
47456210,-0.655,0.282,0.634,20.562,-29.82,-14.367
47456220,-0.6,0.399,0.715,21.402,-23.677,-14
47456230,-0.714,0.295,0.658,12.337,-12.722,-9.415
47456240,-0.625,0.317,0.67,8.75,-7.56,-5.565
47456250,-0.688,0.304,0.665,4.987,0.49,-0.28
47456260,-0.645,0.282,0.635,0.63,4.095,1.225
47456270,-0.687,0.295,0.64,0.63,7.682,2.625
47456280,-0.713,0.296,0.616,0.14,10.185,3.115
47456290,-0.716,0.32,0.614,0.105,10.167,3.675
47456300,-0.788,0.319,0.649,-2.852,12.512,7.157
47456310,-0.764,0.272,0.595,-6.44,10.535,9.835
47456320,-0.658,0.307,0.623,-5.775,6.09,10.727
47456330,-0.654,0.311,0.664,-6.615,10.29,12.075
47456330,-0.637,0.285,0.65,-8.435,17.762,13.09
47456350,-0.668,0.277,0.626,-7.367,24.377,12.267
47456350,-0.738,0.3,0.602,-4.2,27.667,9.625
47456370,-0.819,0.332,0.588,-1.697,24.972,7.367
47456370,-0.829,0.331,0.558,-1.155,15.767,4.515
47456380,-0.836,0.341,0.547,0.367,4.742,0.805
47456390,-0.802,0.341,0.586,1.645,-6.002,-3.15
47456400,-0.772,0.3,0.603,1.557,-11.952,-6.212
47456410,-0.73,0.278,0.605,3.727,-14.63,-7.017
47456420,-0.754,0.282,0.59,6.352,-15.645,-7.175
47456430,-0.749,0.332,0.535,9.695,-25.287,-11.427
47456440,-0.794,0.383,0.652,11.62,-31.955,-16.625
47456450,-0.712,0.332,0.65,8.225,-28.402,-16.52
47456460,-0.706,0.282,0.649,3.57,-24.01,-11.13
47456470,-0.685,0.247,0.648,1.172,-19.897,-5.81
47456480,-0.67,0.263,0.642,2.485,-14.752,-1.907
47456490,-0.706,0.291,0.63,2.17,-11.48,0.787
47456500,-0.718,0.297,0.615,0.997,-10.15,1.137
47456510,-0.727,0.329,0.624,-0.28,-10.237,2.222
47456520,-0.728,0.338,0.665,-4.375,-9.415,4.567
47456530,-0.697,0.266,0.697,-7.35,-6.51,5.232
47456540,-0.553,0.3,0.68,-5.652,3.097,5.582
47456550,-0.645,0.286,0.676,-8.225,13.002,8.732
47456560,-0.631,0.265,0.63,-8.54,20.212,7.98
47456570,-0.669,0.314,0.628,-6.475,25.497,7.017
47456580,-0.77,0.315,0.585,-8.942,27.317,7.77
47456590,-0.787,0.319,0.57,-7.017,22.487,5.897
47456600,-0.8,0.338,0.575,-3.885,15.505,4.41
47456610,-0.768,0.329,0.569,-2.625,5.267,1.575
47456620,-0.758,0.324,0.619,-1.225,-1.102,-2.502
47456630,-0.726,0.299,0.613,-0.927,-2.695,-6.37
47456640,-0.717,0.277,0.596,-0.945,-1.907,-7.035
47456650,-0.735,0.267,0.603,0.735,-1.715,-6.475
47456660,-0.747,0.271,0.612,2.887,-2.1,-5.74
47456670,-0.743,0.272,0.62,3.762,-3.727,-4.742
47456670,-0.752,0.288,0.514,4.41,-7.49,-4.392
47456690,-0.758,0.378,0.628,5.355,-16.485,-6.072
47456690,-0.82,0.313,0.634,1.855,-16.205,-7.49
47456710,-0.737,0.301,0.619,1.697,-17.43,-8.277
47456710,-0.745,0.279,0.616,1.312,-17.85,-5.792
47456730,-0.713,0.282,0.621,2.922,-19.74,-5.757
47456730,-0.707,0.297,0.663,3.71,-18.27,-5.355
47456750,-0.678,0.268,0.634,1.627,-14.332,-4.62
47456750,-0.671,0.262,0.637,0.84,-10.15,-2.695
47456760,-0.707,0.263,0.634,0.91,-5.635,0.857
47456770,-0.721,0.267,0.635,1.505,-3.605,3.85
47456780,-0.734,0.268,0.631,2.135,-2.87,6.405
47456790,-0.727,0.297,0.629,2.695,-3.78,8.19
47456800,-0.695,0.32,0.635,0.682,-3.395,9.275
47456810,-0.694,0.331,0.633,-1.942,-0.577,9.975
47456820,-0.716,0.346,0.641,-4.287,1.785,9.222
47456830,-0.665,0.347,0.675,-7.332,6.562,9.432
47456840,-0.745,0.272,0.629,-10.517,14.052,13.527
47456850,-0.7,0.291,0.619,-9.52,13.457,14.682
47456860,-0.687,0.282,0.615,-8.68,13.685,16.292
47456870,-0.668,0.295,0.595,-5.967,13.107,14.945
47456880,-0.712,0.324,0.592,-1.96,13.825,10.01
47456890,-0.77,0.345,0.592,0.7,11.217,5.407
47456900,-0.813,0.338,0.601,1.995,6.195,2.257
47456910,-0.795,0.321,0.613,1.942,-1.05,-0.42
47456920,-0.75,0.295,0.61,-0.017,-5.757,-1.61
47456930,-0.729,0.272,0.598,-0.91,-8.207,-1.575
47456940,-0.743,0.268,0.564,0.875,-9.887,-1.522
47456950,-0.707,0.35,0.596,4.235,-16.117,-3.132
47456960,-0.782,0.347,0.662,2.73,-15.627,-4.007
47456970,-0.714,0.317,0.627,0.122,-15.12,-5.18
47456980,-0.704,0.312,0.634,-0.315,-14.91,-4.48
47456990,-0.703,0.298,0.628,0,-13.615,-5.127
47457000,-0.704,0.297,0.616,1.802,-11.182,-5.88
47457010,-0.719,0.3,0.626,2.082,-10.08,-6.457
47457020,-0.726,0.286,0.632,0.42,-8.82,-6.212
47457030,-0.741,0.285,0.626,-0.42,-8.96,-4.76
47457040,-0.733,0.317,0.644,-0.63,-9.677,-3.78
47457050,-0.732,0.3,0.637,-2.222,-9.152,-3.08
47457060,-0.711,0.288,0.613,-1.592,-8.995,-3.867
47457070,-0.716,0.296,0.62,1.645,-9.502,-6.405
47457070,-0.752,0.271,0.626,4.62,-11.095,-9.292
47457080,-0.648,0.305,0.635,8.855,-12.915,-12.267
47457090,-0.727,0.302,0.636,11.112,-9.432,-12.267
47457100,-0.748,0.266,0.627,10.762,-10.272,-11.69
47457110,-0.665,0.325,0.631,12.495,-9.922,-11.602
47457120,-0.755,0.282,0.631,9.397,-7.227,-9.362
47457130,-0.733,0.273,0.616,7.105,-9.362,-7.332
47457140,-0.731,0.293,0.632,7.892,-11.515,-5.827
47457150,-0.728,0.3,0.632,6.317,-13.195,-4.515
47457160,-0.686,0.328,0.642,4.462,-12.775,-3.272
47457170,-0.692,0.321,0.644,2.082,-10.675,-2.275
47457180,-0.688,0.298,0.638,1.015,-10.045,-2.782
47457190,-0.666,0.308,0.64,2.502,-9.292,-3.78
47457200,-0.698,0.303,0.635,2.502,-5.775,-4.077
47457210,-0.736,0.279,0.633,2.747,-5.985,-3.972
47457220,-0.735,0.296,0.628,4.445,-8.977,-3.78
47457230,-0.734,0.297,0.633,5.075,-11.69,-3.272
47457240,-0.697,0.306,0.647,4.777,-12.25,-2.59
47457250,-0.734,0.277,0.634,4.095,-11.287,-1.522
47457260,-0.723,0.267,0.628,6.072,-13.09,-2.73
47457270,-0.732,0.276,0.643,10.832,-16.415,-4.042
47457280,-0.757,0.259,0.64,15.627,-21.035,-5.687
47457290,-0.697,0.277,0.635,22.995,-28.805,-8.155
47457300,-0.687,0.314,0.639,26.04,-28,-6.335
47457310,-0.725,0.291,0.642,22.802,-28.245,-4.112
47457320,-0.68,0.34,0.653,19.092,-26.127,-2.415
47457330,-0.694,0.332,0.651,13.142,-21.735,-0.402
47457340,-0.681,0.336,0.662,8.19,-19.617,0.542
47457350,-0.655,0.353,0.67,5.582,-16.8,1.295
47457360,-0.661,0.332,0.659,3.132,-13.352,1.907
47457370,-0.651,0.33,0.657,3.43,-11.427,0.56
47457380,-0.655,0.332,0.666,3.815,-8.4,-0.297
47457390,-0.672,0.314,0.658,2.94,-6.842,-1.12
47457400,-0.668,0.31,0.653,3.745,-5.81,-2.712
47457410,-0.684,0.315,0.666,4.952,-5.792,-3.92
47457420,-0.681,0.31,0.657,4.445,-5.46,-3.132
47457420,-0.692,0.296,0.654,3.36,-5.495,-1.96
47457440,-0.693,0.285,0.654,3.43,-6.352,-0.035
47457440,-0.669,0.295,0.653,3.885,-6.527,1.417
47457460,-0.68,0.282,0.659,3.377,-5.95,2.502
47457460,-0.669,0.297,0.654,4.147,-5.337,3.045
47457480,-0.686,0.325,0.663,4.515,-4.305,3.08
47457480,-0.703,0.328,0.668,3.727,-4.462,2.24
47457500,-0.687,0.341,0.667,3.972,-5.075,0.752
47457500,-0.671,0.345,0.663,3.587,-4.725,0.087
47457510,-0.668,0.335,0.663,2.8,-4.182,-0.35
47457520,-0.659,0.327,0.661,2.677,-2.52,-0.682
47457530,-0.648,0.317,0.656,2.677,-0.612,-0.647
47457540,-0.656,0.309,0.655,2.397,1.365,0.332
47457550,-0.662,0.312,0.653,2.52,2.345,1.61
47457560,-0.687,0.307,0.652,2.257,3.027,2.852
47457570,-0.699,0.299,0.652,2.817,2.03,3.167
47457580,-0.704,0.309,0.65,3.657,1.435,3.552
47457590,-0.711,0.303,0.65,3.832,-0.262,4.2
47457600,-0.696,0.297,0.637,4.9,-2.065,4.935
47457610,-0.676,0.303,0.645,7.07,-3.237,5.232
47457620,-0.653,0.309,0.649,8.68,-2.695,5.057
47457630,-0.629,0.34,0.656,10.22,-0.717,4.34
47457640,-0.683,0.356,0.671,9.66,3.255,3.062
47457650,-0.712,0.35,0.662,8.05,4.357,1.207
47457660,-0.646,0.366,0.635,6.755,3.517,-0.84
47457670,-0.715,0.364,0.632,6.055,5.005,-1.47
47457680,-0.72,0.356,0.627,3.745,3.535,-1.435
47457690,-0.727,0.346,0.629,2.485,0.157,-1.067
47457700,-0.706,0.333,0.636,0.665,-2.695,0.227
47457710,-0.692,0.318,0.64,-1.277,-5.792,2.327
47457720,-0.677,0.316,0.642,-1.575,-6.93,4.48
47457730,-0.653,0.32,0.649,-0.035,-6.772,4.287
47457740,-0.648,0.331,0.654,2.415,-3.937,2.485
47457750,-0.642,0.36,0.619,4.41,0.297,0.262
47457760,-0.619,0.416,0.658,2.222,5.18,-1.715
47457760,-0.698,0.369,0.702,-2.747,9.065,-5.162
47457780,-0.619,0.341,0.665,-3.132,14.822,-5.25
47457780,-0.634,0.339,0.657,-4.147,19.32,-5.197
47457800,-0.678,0.293,0.651,-5.407,22.89,-5.897
47457800,-0.729,0.286,0.625,-2.59,23.765,-5.827
47457820,-0.778,0.289,0.597,0.262,20.317,-5.355
47457820,-0.842,0.282,0.588,2.38,11.41,-1.802
47457830,-0.849,0.309,0.59,3.36,-0.577,2.835
47457840,-0.797,0.331,0.602,2.38,-11.567,6.37
47457850,-0.759,0.341,0.616,0.612,-20.807,8.732
47457860,-0.707,0.345,0.633,-1.12,-25.812,9.572
47457870,-0.644,0.341,0.65,-2.625,-25.76,8.855
47457880,-0.613,0.326,0.661,-3.062,-20.877,6.72
47457890,-0.59,0.318,0.668,-1.207,-13.125,3.57
47457900,-0.597,0.322,0.678,1.61,-3.307,-0.087
47457910,-0.647,0.287,0.69,4.217,5.792,-3.325
47457920,-0.542,0.302,0.66,7.262,12.022,-7.7
47457930,-0.579,0.304,0.677,12.582,23.677,-10.465
47457940,-0.626,0.318,0.675,15.242,35.017,-11.392
47457950,-0.61,0.332,0.666,16.292,43.225,-11.445
47457960,-0.603,0.349,0.668,16.625,57.347,-8.61
47457970,-0.699,0.352,0.694,15.33,72.345,-6.597
47457980,-0.788,0.371,0.769,11.637,74.095,-9.415
47457990,-0.763,0.325,0.77,6.072,53.9,-8.54
47458000,-0.671,0.249,0.735,0.77,35.367,-6.93
47458010,-0.581,0.256,0.698,1.96,30.415,-5.967
47458020,-0.558,0.265,0.64,2.485,41.177,-4.935
47458030,-0.637,0.269,0.585,1.085,58.502,-4.27
47458040,-0.735,0.308,0.54,-1.54,73.552,-1.837
47458050,-0.823,0.382,0.511,-9.485,78.82,5.372
47458060,-0.862,0.409,0.447,-26.827,75.337,17.22
47458070,-0.869,0.376,0.372,-46.777,68.162,26.95
47458080,-0.916,0.339,0.319,-60.9,61.792,32.095
47458090,-0.982,0.306,0.282,-65.922,51.467,34.352
47458100,-0.931,0.334,0.264,-61.74,38.027,35.892
47458110,-0.967,0.382,0.331,-53.917,27.352,41.09
47458120,-1.014,0.427,0.414,-50.942,14.245,43.925
47458130,-0.972,0.428,0.463,-51.677,-2.66,41.142
47458140,-0.902,0.398,0.487,-52.517,-15.767,36.942
47458150,-0.845,0.345,0.506,-51.152,-23.817,33.285
47458160,-0.792,0.313,0.515,-46.952,-25.532,29.47
47458170,-0.746,0.278,0.525,-40.495,-22.557,25.27
47458170,-0.759,0.249,0.526,-34.737,-14.787,19.88
47458190,-0.779,0.229,0.526,-29.995,-6.352,17.132
47458190,-0.833,0.217,0.507,-26.197,1.347,16.712
47458210,-0.884,0.203,0.48,-24.15,6.457,16.485
47458210,-0.899,0.207,0.448,-21.577,7.98,12.862
47458230,-0.876,0.237,0.446,-17.867,5.88,9.957
47458230,-0.859,0.283,0.47,-15.627,0.717,10.115
47458250,-0.838,0.322,0.518,-16.397,-7.682,11.97
47458250,-0.848,0.329,0.553,-18.777,-19.652,12.547
47458260,-0.795,0.339,0.587,-18.882,-32.777,9.887
47458270,-0.697,0.354,0.616,-16.712,-43.015,8.75
47458280,-0.649,0.348,0.619,-13.457,-45.867,9.66
47458290,-0.65,0.302,0.633,-7.665,-44.502,9.362
47458300,-0.657,0.306,0.649,0.262,-41.3,5.617
47458310,-0.659,0.34,0.654,7.945,-37.485,0.647
47458320,-0.669,0.339,0.628,12.81,-31.29,-3.745
47458330,-0.691,0.344,0.599,16.555,-24.552,-6.912
47458340,-0.733,0.358,0.583,19.337,-19.145,-7.49
47458350,-0.775,0.362,0.571,20.545,-18.375,-8.172
47458360,-0.807,0.356,0.548,20.912,-20.702,-10.657
47458370,-0.827,0.344,0.534,22.767,-27.002,-13.877
47458380,-0.833,0.34,0.525,25.952,-34.632,-17.885
47458390,-0.809,0.342,0.529,28.98,-42.07,-22.697
47458400,-0.788,0.337,0.543,31.22,-46.06,-26.355
47458410,-0.755,0.34,0.56,34.002,-47.862,-29.627
47458420,-0.616,0.374,0.594,35.35,-43.067,-30.24
47458430,-0.591,0.393,0.622,32.27,-31.325,-22.557
47458440,-0.592,0.401,0.66,27.475,-16.345,-15.522
47458450,-0.587,0.423,0.694,21.7,-4.707,-12.39
47458460,-0.619,0.405,0.698,14.437,1.715,-9.1
47458470,-0.638,0.382,0.704,10.57,1.452,-7.927
47458480,-0.643,0.389,0.708,10.08,-2.642,-8.487
47458490,-0.649,0.394,0.69,10.762,-9.887,-8.155
47458500,-0.588,0.333,0.637,12.425,-14.647,-7.577
47458510,-0.609,0.364,0.615,15.872,-8.68,-11.655
47458510,-0.689,0.358,0.613,16.975,1.242,-14.35
47458530,-0.764,0.348,0.603,15.645,5.565,-14.315
47458530,-0.781,0.349,0.582,13.142,3.517,-11.322
47458550,-0.783,0.356,0.562,8.172,-1.505,-7.595
47458550,-0.816,0.344,0.563,1.505,-7.227,-3.272
47458570,-0.831,0.328,0.57,-3.85,-15.75,0
47458570,-0.813,0.317,0.565,-6.247,-26.25,0.962
47458580,-0.768,0.328,0.571,-6.16,-36.47,1.61
47458590,-0.738,0.333,0.587,-5.022,-43.907,3.22
47458600,-0.708,0.332,0.598,-3.465,-49.717,4.305
47458610,-0.671,0.322,0.646,-0.805,-52.15,4.427
47458620,-0.631,0.339,0.67,2.852,-46.812,3.832
47458630,-0.572,0.347,0.672,5.18,-39.497,1.26
47458640,-0.595,0.34,0.677,5.407,-30.695,-0.227
47458650,-0.662,0.344,0.672,5.197,-24.5,0.245
47458660,-0.706,0.375,0.656,1.767,-22.837,2.94
47458670,-0.762,0.374,0.631,-5.635,-22.995,7.017
47458680,-0.807,0.329,0.608,-12.372,-27.527,11.322
47458690,-0.761,0.325,0.629,-15.015,-35.49,14.822
47458700,-0.695,0.336,0.655,-17.132,-39.445,19.022
47458710,-0.641,0.326,0.677,-19.442,-40.04,22.715
47458720,-0.566,0.324,0.694,-20.667,-35.875,24.15
47458730,-0.519,0.33,0.712,-21.227,-27.965,23.782
47458740,-0.492,0.343,0.719,-22.19,-16.397,23.17
47458750,-0.455,0.388,0.705,-25.007,-0.612,24.762
47458760,-0.491,0.413,0.698,-31.955,21.892,30.38
47458770,-0.58,0.371,0.671,-40.792,38.167,37.467
47458780,-0.641,0.355,0.66,-47.145,47.057,44.572
47458790,-0.724,0.317,0.638,-48.685,46.427,46.567
47458800,-0.752,0.319,0.632,-44.345,42.367,40.687
47458810,-0.818,0.302,0.653,-38.622,33.74,31.272
47458820,-0.8,0.282,0.65,-29.785,17.342,21.577
47458830,-0.712,0.301,0.666,-18.392,2.065,12.915
47458840,-0.649,0.308,0.684,-8.925,-4.392,4.655
47458850,-0.628,0.292,0.68,-1.4,-5.162,-2.117
47458860,-0.604,0.297,0.681,5.862,-2.537,-7.612
47458870,-0.65,0.323,0.68,10.832,0.857,-9.852
47458880,-0.697,0.324,0.659,11.917,2.17,-9.992
47458890,-0.737,0.314,0.648,13.912,-0.017,-11.725
47458900,-0.759,0.324,0.652,17.5,-3.71,-14.192
47458910,-0.799,0.282,0.654,21.717,-10.867,-18.305
47458920,-0.714,0.266,0.653,30.817,-21.665,-26.215
47458920,-0.664,0.304,0.667,42.122,-26.845,-33.197
47458940,-0.601,0.363,0.664,47.162,-27.475,-36.697
47458940,-0.67,0.38,0.654,43.015,-23.415,-34.877
47458960,-0.611,0.412,0.647,33.46,-20.37,-28.77
47458960,-0.737,0.378,0.638,20.895,-17.605,-18.865
47458980,-0.671,0.384,0.637,9.152,-17.972,-10.062
47458980,-0.727,0.353,0.655,-1.452,-18.637,-2.065
47459000,-0.651,0.331,0.671,-8.697,-22.47,3.867
47459000,-0.574,0.338,0.692,-12.6,-22.225,10.447
47459010,-0.542,0.321,0.706,-16.625,-17.885,16.24
47459020,-0.519,0.315,0.717,-17.867,-10.57,18.952
47459030,-0.528,0.345,0.717,-17.552,-1.4,18.777
47459040,-0.482,0.424,0.665,-20.177,11.077,19.355
47459050,-0.59,0.499,0.658,-31.57,31.22,25.165
47459060,-0.765,0.362,0.654,-45.797,38.692,30.24
47459070,-0.748,0.323,0.663,-47.67,36.12,30.94
47459080,-0.742,0.302,0.666,-42.665,28.245,25.217
47459090,-0.701,0.284,0.671,-35.49,21.787,17.797
47459100,-0.677,0.306,0.676,-27.387,17.517,12.705
47459110,-0.636,0.326,0.702,-21.857,15.295,10.15
47459120,-0.616,0.293,0.709,-20.265,15.225,10.202
47459130,-0.621,0.263,0.699,-16.572,15.662,8.522
47459140,-0.615,0.292,0.681,-9.152,17.237,3.43
47459150,-0.734,0.284,0.623,-1.96,16.975,-1.995
47459160,-0.816,0.306,0.588,6.912,12.407,-7.227
47459170,-0.885,0.316,0.59,13.632,3.167,-10.622
47459180,-0.94,0.227,0.618,18.427,-12.302,-12.302
47459190,-0.778,0.209,0.616,30.187,-32.095,-14.385
47459200,-0.642,0.289,0.64,42.735,-44.135,-18.725
47459210,-0.539,0.352,0.693,47.302,-45.517,-24.745
47459220,-0.567,0.404,0.724,43.102,-35.297,-24.815
47459230,-0.526,0.426,0.7,30.975,-25.427,-18.462
47459240,-0.669,0.374,0.653,16.712,-16.17,-9.275
47459250,-0.599,0.415,0.651,6.947,-10.99,-4.865
47459260,-0.73,0.412,0.668,-4.217,-5.355,1.12
47459260,-0.698,0.34,0.663,-13.877,-7.612,6.107
47459280,-0.644,0.327,0.681,-16.607,-11.48,10.885
47459280,-0.585,0.312,0.696,-20.265,-12.477,14.945
47459300,-0.571,0.303,0.695,-23.03,-8.312,18.287
47459300,-0.477,0.374,0.656,-26.04,2.257,21.875
47459320,-0.508,0.456,0.646,-35.7,22.732,27.737
47459320,-0.724,0.359,0.68,-50.767,37.73,34.615
47459330,-0.737,0.271,0.672,-53.9,37.205,36.54
47459340,-0.77,0.247,0.673,-44.572,31.22,32.007
47459350,-0.742,0.271,0.67,-33.197,21.857,23.38
47459360,-0.745,0.216,0.672,-21.227,8.82,15.19
47459370,-0.627,0.257,0.655,-4.322,-1.54,7.735
47459380,-0.597,0.335,0.669,7.525,-0.892,1.155
47459390,-0.704,0.33,0.674,9.065,2.135,-3.307
47459400,-0.752,0.346,0.668,9.187,0.315,-6.212
47459410,-0.768,0.341,0.644,8.767,-5.075,-9.677
47459420,-0.742,0.316,0.624,10.272,-11.112,-13.44
47459430,-0.773,0.269,0.648,16.24,-19.18,-16.852
47459440,-0.66,0.256,0.661,25.795,-30.957,-22.137
47459450,-0.587,0.315,0.668,34.475,-32.795,-24.797
47459460,-0.631,0.338,0.684,35.175,-30.852,-24.465
47459470,-0.627,0.401,0.698,28.35,-26.53,-18.777
47459480,-0.695,0.392,0.67,14.245,-21.665,-7.927
47459490,-0.672,0.403,0.677,-1.172,-19.302,1.05
47459500,-0.677,0.392,0.713,-17.815,-16.922,12.705
47459510,-0.634,0.313,0.714,-32.917,-20.982,28.437
47459520,-0.581,0.289,0.712,-39.655,-21.787,40.127
47459530,-0.385,0.368,0.653,-40.967,-11.917,43.872
47459540,-0.451,0.47,0.689,-49.647,19.005,52.517
47459550,-0.642,0.375,0.681,-62.457,37.887,57.05
47459560,-0.806,0.288,0.697,-63.787,47.25,54.46
47459570,-0.818,0.281,0.681,-56.052,36.557,36.942
47459580,-0.785,0.211,0.707,-41.475,17.307,19.845
47459590,-0.61,0.248,0.703,-22.627,-3.955,8.522
47459600,-0.513,0.264,0.691,-6.86,-11.165,0.962
47459610,-0.542,0.291,0.676,5.512,-2.1,-7.525
47459620,-0.665,0.289,0.664,14.507,6.142,-14.612
47459630,-0.707,0.304,0.641,19.74,6.737,-18.165
47459640,-0.77,0.3,0.651,23.152,4.182,-19.285
47459650,-0.88,0.207,0.694,28.245,-9.222,-23.975
47459660,-0.508,0.248,0.681,40.915,-26.18,-31.815
47459670,-0.547,0.329,0.72,47.792,-19.827,-30.52
47459670,-0.549,0.33,0.713,41.125,-13.23,-27.002
47459690,-0.604,0.322,0.699,34.142,-3.255,-19.145
47459690,-0.683,0.309,0.666,28.507,0.35,-12.495
47459710,-0.586,0.331,0.662,25.13,2.222,-8.837
47459710,-0.614,0.367,0.674,21.822,9.432,-3.64
47459730,-0.654,0.373,0.683,16.1,16.432,2.66
47459730,-0.685,0.361,0.678,11.427,19.582,6.912
47459750,-0.683,0.341,0.671,8.785,19.32,7.77
47459750,-0.634,0.352,0.664,8.435,19.862,6.702
47459760,-0.634,0.368,0.661,6.562,24.29,7.682
47459770,-0.65,0.365,0.669,3.307,28.997,10.15
47459780,-0.642,0.365,0.666,0.857,33.635,12.652
47459790,-0.635,0.368,0.658,-1.347,38.955,13.807
47459800,-0.656,0.355,0.649,-3.57,44.765,13.667
47459810,-0.693,0.349,0.643,-3.955,48.247,12.775
47459820,-0.724,0.347,0.636,-2.94,48.965,11.34
47459830,-0.742,0.349,0.614,-0.262,45.937,9.415
47459840,-0.734,0.375,0.587,2.922,42.052,7.087
47459850,-0.768,0.387,0.587,4.987,39.06,4.917
47459860,-0.793,0.397,0.575,4.69,32.812,2.24
47459870,-0.824,0.379,0.568,4.532,22.505,0.437
47459880,-0.802,0.384,0.559,3.727,10.675,-2.695
47459890,-0.763,0.378,0.561,3.692,-0.175,-4.637
47459900,-0.751,0.375,0.565,3.22,-7.315,-4.007
47459910,-0.744,0.37,0.575,2.66,-12.635,-3.447
47459920,-0.729,0.36,0.585,2.275,-15.137,-3.71
47459930,-0.712,0.345,0.597,2.345,-15.82,-4.795
47459940,-0.687,0.335,0.614,3.815,-13.037,-6.772
47459950,-0.658,0.33,0.629,6.492,-8.102,-8.872
47459960,-0.633,0.339,0.646,8.995,0,-8.33
47459970,-0.648,0.346,0.652,9.152,9.1,-4.76
47459980,-0.678,0.323,0.635,7.157,17.955,-0.665
47459990,-0.697,0.306,0.622,7.052,24.657,1.96
47460000,-0.715,0.313,0.612,9.677,29.417,3.57
47460010,-0.706,0.329,0.599,11.532,32.532,3.132
47460010,-0.745,0.343,0.591,12.197,33.617,2.975
47460030,-0.77,0.347,0.581,10.832,31.062,3.692
47460030,-0.77,0.35,0.568,9.432,26.617,3.605
47460050,-0.769,0.35,0.562,8.89,21.787,4.007
47460050,-0.783,0.349,0.56,9.345,16.432,5.022
47460070,-0.76,0.373,0.585,11.042,10.36,6.195
47460070,-0.755,0.407,0.618,11.515,4.707,8.592
47460080,-0.742,0.418,0.634,9.415,-0.14,11.025
47460090,-0.728,0.455,0.645,3.832,-1.68,13.702
47460100,-0.668,0.458,0.65,1.085,2.642,9.1
47460110,-0.727,0.392,0.617,-3.377,7.385,6.877
47460120,-0.77,0.375,0.613,-6.93,11.987,8.452
47460130,-0.744,0.391,0.616,-8.207,17.447,6.755
47460140,-0.806,0.357,0.558,-9.327,21.367,6.317
47460150,-0.793,0.296,0.519,-12.39,28.07,7.455
47460160,-0.841,0.336,0.524,-11.287,38.43,8.207
47460170,-0.807,0.37,0.542,-12.197,47.862,10.955
47460180,-0.94,0.29,0.49,-14.157,46.602,17.622
47460190,-0.822,0.28,0.454,-12.25,38.797,27.72
47460200,-0.845,0.265,0.434,-5.04,39.935,36.925
47460210,-0.775,0.316,0.468,3.395,40.845,39.112
47460220,-0.762,0.338,0.48,7.63,41.475,46.445
47460230,-0.744,0.384,0.494,11.777,40.302,54.617
47460240,-0.747,0.41,0.498,14.98,38.955,58.835
47460250,-0.78,0.445,0.526,15.085,33.197,58.555
47460260,-0.776,0.469,0.51,13.667,24.552,58.957
47460270,-0.845,0.477,0.493,4.515,11.025,60.077
47460280,-0.736,0.464,0.481,0.122,-3.902,54.985
47460290,-0.69,0.417,0.426,-3.657,-9.52,48.51
47460300,-0.756,0.452,0.434,-9.817,-11.83,41.912
47460310,-0.831,0.463,0.432,-20.755,-22.435,36.417
47460320,-0.846,0.46,0.411,-35.122,-38.797,33.285
47460330,-0.856,0.466,0.418,-46.585,-56.192,35.7
47460340,-0.883,0.499,0.43,-57.102,-75.337,43.505
47460350,-0.901,0.518,0.46,-68.617,-97.562,55.282
47460360,-0.903,0.525,0.495,-80.08,-120.785,69.16
47460370,-0.901,0.495,0.513,-88.655,-142.712,80.36
47460380,-0.825,0.462,0.537,-97.632,-161.717,88.2
47460390,-0.636,0.451,0.538,-107.572,-169.575,93.852
47460400,-0.557,0.449,0.571,-112.455,-159.88,98.945
47460410,-0.507,0.439,0.595,-112.507,-139.212,99.05
47460420,-0.437,0.408,0.62,-105.665,-106.295,95.987
47460420,-0.449,0.39,0.655,-92.785,-65.467,92.19
47460440,-0.539,0.391,0.699,-77.437,-28.56,89.652
47460440,-0.628,0.369,0.733,-62.072,-6.86,92.592
47460460,-0.64,0.379,0.753,-46.812,-0.927,93.852
47460460,-0.66,0.356,0.769,-31.797,-3.43,93.1
47460470,-0.56,0.362,0.753,-18.287,-11.042,98.56
47460480,-0.515,0.358,0.761,-4.392,-17.08,97.16
47460490,-0.491,0.403,0.776,1.47,-23.31,97.825
47460500,-0.464,0.385,0.766,1.61,-30.712,95.515
47460510,-0.459,0.375,0.77,4.742,-39.235,89.232
47460520,-0.435,0.37,0.763,7.945,-49.647,82.512
47460530,-0.374,0.347,0.732,12.67,-60.445,73.71
47460540,-0.284,0.332,0.701,22.295,-67.532,64.05
47460550,-0.23,0.366,0.721,29.557,-70.175,57.61
47460560,-0.257,0.443,0.764,33.267,-67.165,50.767
47460570,-0.294,0.497,0.787,29.785,-66.08,41.422
47460580,-0.276,0.498,0.751,20.457,-66.762,34.317
47460590,-0.213,0.501,0.732,15.12,-63.7,29.82
47460600,-0.237,0.539,0.731,11.9,-54.6,28.472
47460610,-0.214,0.516,0.723,8.032,-44.905,27.527
47460620,-0.185,0.486,0.738,9.292,-32.812,24.237
47460630,-0.169,0.48,0.784,15.785,-18.865,19.372
47460640,-0.141,0.513,0.829,23.31,-3.64,14.84
47460650,-0.116,0.541,0.87,28.63,13.125,8.61
47460660,-0.1,0.54,0.897,31.867,32.725,0.997
47460670,-0.1,0.522,0.904,33.74,52.727,-7.245
47460680,-0.134,0.494,0.885,35.612,68.915,-16.887
47460690,-0.178,0.476,0.866,39.795,77.175,-28.122
47460700,-0.289,0.451,0.83,46.217,74.515,-36.802
47460710,-0.392,0.467,0.803,51.625,56.805,-42.42
47460720,-0.42,0.506,0.791,55.457,30.555,-45.412
47460730,-0.393,0.564,0.804,52.605,6.527,-44.31
47460740,-0.342,0.523,0.73,40.267,-6.772,-36.242
47460750,-0.349,0.542,0.718,33.162,-3.412,-23.432
47460760,-0.372,0.577,0.698,36.295,12.425,-20.597
47460760,-0.382,0.59,0.678,34.65,27.247,-19.127
47460780,-0.385,0.587,0.676,33.547,38.482,-17.097
47460780,-0.403,0.556,0.65,34.055,40.407,-13.125
47460800,-0.338,0.572,0.616,31.552,39.27,-6.947
47460800,-0.36,0.668,0.683,35.875,36.75,-10.447
47460820,-0.188,0.7,0.73,31.85,37.292,-27.982
47460820,-0.185,0.71,0.746,21.262,42.875,-39.13
47460830,-0.147,0.701,0.717,15.242,56.91,-48.422
47460840,-0.14,0.668,0.708,16.8,78.19,-60.322
47460850,-0.151,0.623,0.695,22.872,102.305,-73.412
47460860,-0.283,0.556,0.659,36.942,124.215,-87.885
47460870,-0.567,0.573,0.657,60.987,133.087,-103.25
47460880,-0.658,0.641,0.652,81.445,125.09,-115.587
47460890,-0.589,0.635,0.593,88.777,107.082,-120.4
47460900,-0.57,0.62,0.558,89.512,96.582,-113.137
47460910,-0.629,0.667,0.507,84.822,97.002,-101.762
47460920,-0.571,0.658,0.445,73.43,105.875,-92.067
47460930,-0.626,0.616,0.414,58.625,123.672,-89.81
47460940,-0.745,0.587,0.366,49.98,143.15,-92.295
47460950,-0.902,0.555,0.329,41.002,149.187,-97.65
47460960,-0.91,0.513,0.303,32.725,134.942,-96.512
47460970,-0.878,0.497,0.285,23.45,109.76,-90.877
47460980,-0.855,0.428,0.294,26.092,84.805,-84.437
47460990,-0.867,0.556,0.276,19.705,63.297,-82.11
47461000,-0.749,0.47,0.256,16.572,45.867,-84.192
47461010,-0.658,0.493,0.244,13.02,36.505,-75.845
47461020,-0.663,0.563,0.247,1.977,39.41,-66.377
47461030,-0.722,0.52,0.215,-12.635,51.397,-62.16
47461040,-0.784,0.437,0.198,-21.735,65.24,-57.102
47461050,-0.938,0.457,0.197,-21.542,71.837,-48.16
47461060,-1.326,0.571,0.199,-25.917,53.165,-34.37
47461070,-1.104,0.494,0.138,-37.957,18.445,-21.612
47461080,-0.625,0.446,0.097,-42.28,21.577,-19.74
47461090,-0.72,0.449,0.112,-41.037,50.75,-13.912
47461100,-0.909,0.483,0.129,-47.46,73.78,-8.435
47461110,-0.998,0.497,0.136,-58.52,80.605,-0.7
47461120,-1.018,0.451,0.142,-66.57,78.4,6.09
47461130,-1.027,0.402,0.16,-71.435,70.507,9.117
47461140,-1.061,0.414,0.199,-74.882,56.262,9.152
47461150,-1.039,0.422,0.219,-79.73,36.697,8.522
47461160,-0.951,0.442,0.216,-87.062,18.235,9.905
47461160,-0.855,0.43,0.22,-92.277,8.54,14.595
47461170,-0.79,0.384,0.235,-94.272,9.222,14.665
47461180,-0.803,0.415,0.236,-92.33,8.225,12.162
47461190,-0.731,0.418,0.242,-91.315,14.56,8.627
47461200,-0.739,0.403,0.238,-86.415,22.872,5.512
47461210,-0.796,0.378,0.233,-79.922,27.335,4.077
47461220,-0.834,0.362,0.23,-72.275,24.307,4.182
47461230,-0.798,0.332,0.244,-63.472,17.377,5.652
47461240,-0.754,0.313,0.257,-54.582,16.012,6.72
47461250,-0.767,0.351,0.28,-47.39,20.72,4.847
47461260,-0.798,0.388,0.298,-48.562,27.58,1.12
47461270,-0.851,0.384,0.306,-55.265,31.692,-5.512
47461280,-0.914,0.383,0.308,-63.035,29.767,-13.16
47461290,-0.968,0.378,0.295,-71.452,21.647,-17.482
47461300,-0.995,0.355,0.274,-78.225,10.552,-20.755
47461310,-1.015,0.327,0.253,-81.97,-1.872,-23.817
47461320,-1.013,0.302,0.227,-81.935,-12.372,-26.232
47461330,-0.984,0.269,0.211,-77.105,-19.635,-26.985
47461340,-0.954,0.251,0.216,-68.652,-20.195,-25.655
47461350,-0.906,0.255,0.247,-58.275,-14.945,-22.4
47461360,-0.869,0.272,0.287,-49.21,-5.425,-18.357
47461370,-0.805,0.287,0.342,-42.367,8.242,-14.087
47461380,-0.88,0.213,0.357,-28.98,23.38,-5.845
47461390,-0.926,0.168,0.394,-16.537,30.362,5.74
47461400,-1.036,0.172,0.41,-2.8,34.492,15.557
47461410,-1.091,0.194,0.421,15.382,31.29,16.835
47461420,-1.008,0.218,0.416,27.352,26.25,10.29
47461430,-0.995,0.269,0.404,37.135,24.972,8.645
47461440,-0.93,0.334,0.395,44.397,25.602,7.647
47461450,-0.837,0.391,0.375,43.452,30.572,9.642
47461460,-0.87,0.416,0.358,35.315,40.617,15.977
47461470,-0.907,0.459,0.337,22.452,42.945,16.835
47461480,-0.918,0.457,0.315,5.565,36.855,13.807
47461490,-0.906,0.402,0.283,-6.895,25.725,9.537
47461500,-0.888,0.373,0.27,-11.515,14.035,5.18
47461510,-0.932,0.389,0.257,-11.515,0.997,3.22
47461510,-0.983,0.376,0.244,-8.12,-14.91,3.325
47461530,-0.997,0.425,0.242,-5.862,-32.865,2.345
47461530,-0.979,0.424,0.197,-13.65,-47.757,0.857
47461550,-0.681,0.186,0.202,-17.255,-50.575,3.325
47461550,-1.183,0.613,0.237,-15.837,-46.742,10.447
47461570,-0.993,0.459,0.279,-25.48,-55.895,-2.922
47461570,-0.722,0.275,0.224,-27.825,-48.422,-5.022
47461580,-1,0.409,0.228,-25.742,-32.532,4.707
47461590,-1.003,0.384,0.25,-23.66,-30.45,6.02
47461600,-0.935,0.321,0.287,-24.57,-35.577,8.155
47461610,-0.895,0.368,0.31,-28.07,-35.752,11.97
47461620,-0.88,0.33,0.343,-34.632,-33.337,11.707
47461630,-0.866,0.291,0.387,-41.877,-30.03,14.682
47461640,-0.838,0.286,0.437,-44.747,-23.625,19.512
47461650,-0.807,0.289,0.458,-46.952,-14.507,19.827
47461660,-0.827,0.279,0.473,-47.46,-3.08,19.565
47461670,-0.867,0.218,0.462,-42.595,4.375,17.482
47461680,-0.868,0.213,0.449,-33.95,7.385,15.26
47461690,-0.924,0.243,0.454,-24.972,5.022,11.06
47461700,-0.897,0.229,0.416,-18.655,-1.277,5.057
47461710,-0.867,0.283,0.41,-16.765,-4.095,5.355
47461720,-0.909,0.304,0.384,-18.76,-3.027,4.182
47461730,-0.922,0.369,0.371,-21.962,-2.31,2.502
47461740,-0.967,0.432,0.378,-30.205,-2.975,2.852
47461750,-0.95,0.364,0.366,-41.877,-7.63,0.647
47461760,-0.911,0.369,0.368,-48.09,-13.282,0.14
47461770,-0.897,0.347,0.36,-47.6,-21.122,-5.915
47461780,-0.783,0.324,0.367,-41.562,-28.14,-9.012
47461790,-0.738,0.337,0.397,-31.955,-26.04,-9.712
47461800,-0.781,0.347,0.443,-25.69,-15.89,-10.132
47461810,-0.79,0.312,0.45,-22.995,-7.595,-10.307
47461820,-0.791,0.287,0.446,-21.297,-0.7,-9.152
47461830,-0.782,0.238,0.443,-17.29,7.28,-8.452
47461830,-0.85,0.252,0.426,-13.457,13.772,-5.267
47461850,-0.813,0.209,0.422,-9.292,15.102,-4.655
47461850,-0.871,0.211,0.377,-6.58,18.357,-4.06
47461870,-0.872,0.164,0.332,-3.15,18.077,-0.577
47461870,-0.89,0.143,0.307,3.71,16.765,2.485
47461890,-0.917,0.158,0.289,14.262,12.302,5.67
47461890,-0.978,0.235,0.333,22.4,6.632,5.722
47461910,-1.015,0.313,0.379,21.017,-1.19,5.442
47461910,-1.036,0.418,0.389,7.56,-10.587,7.245
47461920,-0.997,0.298,0.362,-13.405,-25.06,3.605
47461930,-0.918,0.199,0.359,-10.71,-30.047,-3.727
47461940,-0.827,0.329,0.318,2.397,-27.02,9.24
47461950,-0.863,0.29,0.326,-3.202,-21.175,5.355
47461960,-0.892,0.323,0.327,-1.855,-17.797,6.247
47461970,-0.864,0.365,0.365,4.9,-17.815,6.685
47461980,-0.884,0.333,0.339,-0.262,-18.55,9.537
47461990,-0.92,0.325,0.333,-5.162,-18.987,11.9
47462000,-0.985,0.351,0.372,-4.882,-22.697,8.715
47462010,-0.945,0.38,0.401,-9.345,-30.817,6.195
47462020,-0.948,0.37,0.415,-16.432,-35.857,3.955
47462030,-0.957,0.325,0.414,-21.21,-41.615,0.56
47462040,-0.934,0.305,0.418,-21.245,-49.175,-3.517
47462050,-0.909,0.29,0.444,-18.83,-54.88,-11.112
47462060,-0.908,0.24,0.456,-13.965,-59.132,-21.14
47462070,-0.815,0.278,0.484,-5.04,-59.622,-30.047
47462080,-0.746,0.323,0.509,3.395,-50.592,-33.547
47462090,-0.707,0.317,0.552,3.552,-41.37,-35.42
47462100,-0.791,0.301,0.563,-5.862,-36.925,-28.122
47462110,-0.772,0.225,0.571,-6.562,-36.085,-28.752
47462120,-0.707,0.237,0.579,2.922,-31.01,-32.13
47462130,-0.635,0.238,0.572,8.12,-22.54,-32.007
47462140,-0.738,0.242,0.556,10.377,-9.327,-29.312
47462150,-0.836,0.256,0.536,14.14,-1.802,-26.705
47462160,-0.843,0.256,0.515,16.45,0.35,-27.317
47462170,-0.823,0.25,0.484,14.122,0.472,-24.692
47462180,-0.866,0.253,0.454,8.872,0.087,-16.852
47462190,-0.922,0.259,0.436,2.52,-3.692,-11.287
47462200,-0.922,0.232,0.403,-2.502,-10.64,-10.78
47462210,-0.889,0.219,0.391,-3.71,-18.305,-10.132
47462220,-0.863,0.227,0.402,-2.327,-22.68,-7.542
47462230,-0.86,0.236,0.428,-0.77,-25.217,-5.285
47462240,-0.852,0.244,0.456,-0.805,-27.23,-3.15
47462250,-0.865,0.241,0.467,0.087,-30.012,-4.515
47462260,-0.809,0.187,0.53,2.292,-35.63,-7.717
47462260,-0.716,0.237,0.552,6.755,-33.18,-3.045
47462280,-0.71,0.214,0.559,9.52,-23.467,-1.645
47462280,-0.802,0.19,0.569,14.752,-17.115,-1.172
47462300,-0.741,0.191,0.547,23.555,-17.797,0.577
47462300,-0.729,0.251,0.544,31.325,-15.627,2.59
47462320,-0.776,0.276,0.558,35.367,-14.63,2.1
47462320,-0.875,0.309,0.548,33.932,-22.995,4.427
47462330,-0.916,0.282,0.509,28.735,-36.645,4.847
47462340,-0.892,0.289,0.464,26.617,-48.597,2.957
47462350,-0.826,0.284,0.473,27.527,-54.652,5.127
47462360,-0.823,0.263,0.505,27.912,-55.352,9.275
47462370,-0.831,0.249,0.598,29.732,-53.515,13.387
47462380,-0.706,0.282,0.599,30.275,-52.71,11.357
47462390,-0.703,0.238,0.618,32.847,-45.727,12.617
47462400,-0.71,0.26,0.624,35.21,-37.677,13.352
47462410,-0.702,0.312,0.636,37.415,-27.982,13.492
47462420,-0.684,0.336,0.623,35.28,-15.242,12.53
47462430,-0.715,0.336,0.597,31.535,-4.235,12.145
47462440,-0.738,0.345,0.566,29.12,2.485,10.762
47462450,-0.77,0.368,0.556,27.02,4.025,8.312
47462460,-0.796,0.376,0.549,22.662,3.377,6.965
47462470,-0.802,0.379,0.538,18.76,1.627,6.23
47462480,-0.82,0.368,0.525,14.647,-0.07,5.565
47462490,-0.781,0.376,0.537,11.392,-3.342,3.325
47462500,-0.792,0.357,0.55,8.382,-4.725,1.925
47462510,-0.735,0.362,0.543,4.55,-5.897,0.105
47462520,-0.768,0.35,0.552,1.155,-3.552,0.682
47462530,-0.758,0.339,0.557,-1.102,-1.89,0.122
47462540,-0.747,0.325,0.561,-1.61,0.297,-0.507
47462550,-0.744,0.316,0.549,-1.12,2.695,-1.172
47462560,-0.755,0.327,0.553,-0.735,5.582,-2.1
47462570,-0.767,0.33,0.54,-1.277,5.897,-3.342
47462580,-0.793,0.328,0.531,-2.257,5.075,-4.462
47462580,-0.834,0.314,0.519,-2.8,1.96,-4.287
47462600,-0.836,0.347,0.522,-2.257,-3.272,-4.305
47462600,-0.833,0.346,0.517,-3.832,-9.607,-6.492
47462620,-0.84,0.337,0.516,-5.74,-16.187,-8.592
47462620,-0.822,0.347,0.524,-6.387,-23.257,-10.535
47462640,-0.792,0.346,0.561,-7.84,-25.847,-12.197
47462640,-0.78,0.307,0.563,-9.03,-24.325,-12.46
47462660,-0.751,0.295,0.557,-7.577,-23.782,-13.387
47462660,-0.763,0.281,0.559,-5.162,-23.03,-14.175
47462670,-0.775,0.29,0.565,-2.257,-23.03,-14.507
47462680,-0.787,0.296,0.567,-0.735,-23.152,-14.332
47462690,-0.749,0.299,0.584,-1.242,-23.03,-13.23
47462700,-0.757,0.292,0.59,-5.477,-20.335,-7.805
47462710,-0.742,0.282,0.592,-10.43,-18.27,-1.89
47462720,-0.695,0.264,0.6,-13.02,-14.717,1.697
47462730,-0.674,0.277,0.609,-12.88,-8.435,4.515
47462740,-0.673,0.267,0.608,-12.425,-1.207,5.775
47462750,-0.686,0.297,0.602,-10.675,5.635,6.335
47462760,-0.692,0.332,0.606,-9.905,12.232,5.67
47462770,-0.709,0.411,0.627,-14.7,22.242,7.35
47462780,-0.845,0.313,0.567,-24.552,30.87,8.522
47462790,-0.831,0.19,0.493,-21.91,21.98,3.237
47462800,-0.818,0.267,0.505,-6.16,11.707,-0.385
47462810,-0.874,0.315,0.533,4.182,2.922,-5.67
47462820,-0.886,0.303,0.538,5.81,-6.09,-9.73
47462830,-0.885,0.267,0.523,7.385,-16.607,-12.67
47462840,-0.849,0.283,0.529,11.865,-26.635,-14.157
47462850,-0.895,0.273,0.528,12.95,-35.91,-15.54
47462860,-0.779,0.246,0.532,18.497,-50.54,-23.782
47462870,-0.625,0.361,0.617,27.282,-48.527,-28.612
47462880,-0.761,0.326,0.629,19.46,-29.837,-25.077
47462890,-0.747,0.249,0.608,8.557,-26.04,-20.055
47462900,-0.663,0.302,0.65,3.692,-22.907,-11.9
47462910,-0.718,0.263,0.646,-4.34,-15.155,-4.515
47462920,-0.668,0.242,0.625,-10.027,-9.31,-0.297
47462930,-0.625,0.278,0.63,-12.827,-3.307,6.16
47462940,-0.628,0.26,0.648,-18.252,4.917,13.02
47462950,-0.668,0.287,0.643,-21.997,12.477,18.795
47462960,-0.599,0.402,0.641,-21.682,24.92,18.585
47462970,-0.798,0.434,0.648,-33.652,48.93,23.607
47462980,-0.92,0.21,0.541,-47.845,50.19,22.26
47462990,-0.743,0.082,0.483,-37.905,32.987,18.025
47463000,-0.65,0.267,0.551,-12.862,26.197,12.477
47463010,-0.852,0.278,0.571,-4.672,27.282,8.592
47463010,-0.91,0.248,0.516,-3.307,18.305,3.815
47463030,-0.907,0.295,0.489,5.18,6.212,-0.665
47463030,-0.982,0.273,0.494,11.952,-6.947,-6.702
47463050,-0.915,0.306,0.52,13.23,-22.487,-9.24
47463050,-0.921,0.239,0.52,10.92,-32.41,-10.36
47463070,-0.75,0.139,0.511,20.09,-51.467,-20.335
47463070,-0.492,0.323,0.678,38.867,-53.532,-26.985
47463080,-0.658,0.374,0.735,36.837,-30.345,-25.322
47463090,-0.723,0.328,0.643,18.48,-15.592,-16.047
47463100,-0.718,0.331,0.621,2.1,-4.917,-3.85
47463110,-0.814,0.267,0.593,-8.872,0.542,2.73
47463120,-0.699,0.276,0.594,-12.6,0.087,4.34
47463130,-0.68,0.272,0.601,-15.05,5.145,6.212
47463140,-0.694,0.246,0.608,-15.89,10.255,8.82
47463150,-0.688,0.292,0.623,-13.597,15.802,10.762
47463160,-0.594,0.382,0.633,-14.42,27.982,12.862
47463170,-0.848,0.395,0.607,-28.21,51.012,22.015
47463180,-0.903,0.217,0.505,-41.352,49.437,23.187
47463190,-0.755,0.103,0.46,-33.932,36.207,20.702
47463200,-0.791,0.177,0.507,-13.632,27.545,16.31
47463210,-0.822,0.267,0.555,0.752,18.445,9.31
47463220,-0.912,0.287,0.532,4.445,11.917,5.162
47463230,-0.926,0.28,0.493,7.682,-0.017,-0.56
47463240,-0.93,0.283,0.515,13.037,-12.442,-5.267
47463250,-0.899,0.289,0.53,13.79,-23.677,-7.997
47463260,-0.867,0.168,0.463,16.642,-39.69,-14.7
47463270,-0.596,0.3,0.587,35.455,-54.477,-26.6
47463280,-0.7,0.413,0.719,40.092,-38.78,-29.4
47463290,-0.769,0.344,0.651,22.715,-25.182,-23.782
47463300,-0.723,0.294,0.598,6.457,-17.797,-12.705
47463310,-0.713,0.294,0.626,-1.995,-9.152,-4.27
47463320,-0.701,0.235,0.602,-8.54,-1.592,1.4
47463330,-0.607,0.24,0.593,-12.005,3.36,6.842
47463330,-0.669,0.253,0.614,-12.967,11.777,12.11
47463350,-0.676,0.3,0.624,-13.527,18.69,14.437
47463350,-0.728,0.412,0.629,-19.232,33.512,18.305
47463370,-0.972,0.307,0.554,-31.15,42.7,21.577
47463370,-0.788,0.207,0.515,-33.39,29.697,17.447
47463390,-0.747,0.198,0.521,-22.82,23.065,14.42
47463390,-0.761,0.221,0.53,-10.937,21.577,8.907
47463410,-0.853,0.233,0.504,-2.747,18.48,4.567
47463410,-0.893,0.268,0.493,3.867,11.392,1.242
47463420,-0.975,0.291,0.504,7.98,2.31,-1.785
47463430,-0.946,0.3,0.497,8.522,-10.867,-4.165
47463440,-0.93,0.235,0.483,8.575,-24.815,-7.647
47463450,-0.701,0.219,0.518,17.622,-39.025,-15.505
