time[ms],accX[g],accY[g],accZ[g],Value 1,Value 2,Value 3
48017280,-0.997,0.177,0.448,-60.235,62.107,28.297
48017290,-0.911,0.168,0.457,-42,35.805,20.352
48017300,-0.85,0.176,0.481,-21.892,18.06,12.757
48017310,-0.778,0.263,0.464,1.61,7.752,7.052
48017320,-0.837,0.285,0.403,18.952,0.962,1.75
48017330,-0.895,0.28,0.407,27.685,-6.667,-3.622
48017340,-1.037,0.248,0.414,38.255,-15.172,-7.175
48017350,-1.063,0.236,0.46,49.857,-38.622,-17.185
48017360,-0.759,0.313,0.499,61.495,-64.54,-28.892
48017370,-0.654,0.432,0.595,66.762,-66.972,-34.51
48017380,-0.781,0.458,0.629,53.375,-62.982,-37.87
48017390,-0.637,0.418,0.609,29.942,-55.685,-37.135
48017400,-0.734,0.357,0.585,9.975,-31.255,-22.907
48017410,-0.893,0.297,0.541,-4.795,-16.677,-9.642
48017420,-0.762,0.294,0.559,-16.73,-15.102,-2.257
48017430,-0.733,0.273,0.59,-26.215,-10.5,3.71
48017440,-0.649,0.259,0.6,-30.975,-5.11,9.59
48017450,-0.553,0.379,0.59,-33.81,10.115,17.395
48017460,-0.623,0.488,0.584,-48.982,37.135,29.802
48017470,-0.789,0.322,0.559,-69.912,59.587,39.742
48017480,-0.8,0.275,0.518,-72.362,69.335,43.155
48017490,-0.997,0.199,0.489,-66.727,65.24,41.615
48017500,-0.999,0.046,0.44,-52.517,41.317,28.262
48017510,-0.782,0.109,0.46,-22.715,19.39,17.762
48017510,-0.793,0.258,0.491,4.69,9.975,9.45
48017530,-0.866,0.271,0.444,16.502,2.17,-0.56
48017530,-0.892,0.283,0.44,26.46,-3.395,-7.647
48017550,-0.991,0.277,0.423,31.902,-10.517,-10.202
48017550,-1.04,0.21,0.397,36.33,-26.372,-14.787
48017570,-0.949,0.164,0.446,52.29,-57.277,-27.055
48017570,-0.666,0.344,0.537,71.417,-76.772,-36.522
48017580,-0.655,0.478,0.687,72.502,-73.78,-41.842
48017590,-0.698,0.482,0.699,47.862,-55.475,-40.267
48017600,-0.752,0.407,0.587,18.287,-32.532,-29.4
48017610,-0.81,0.273,0.492,-4.725,-20.667,-15.015
48017620,-0.76,0.276,0.543,-16.012,-16.992,-3.92
48017630,-0.808,0.337,0.612,-29.015,-13.317,7.385
48017640,-0.751,0.276,0.607,-45.062,-11.637,15.312
48017650,-0.603,0.359,0.562,-52.99,-2.222,23.555
48017660,-0.578,0.438,0.608,-66.71,22.242,35.087
48017670,-0.781,0.287,0.606,-84.087,46.917,44.765
48017680,-0.83,0.219,0.568,-81.62,58.187,52.342
48017690,-0.757,0.172,0.503,-72.607,57.225,49.385
48017700,-0.833,0.05,0.487,-52.57,52.202,37.887
48017710,-0.8,0.116,0.524,-22.925,40.617,22.295
48017720,-0.737,0.241,0.523,4.27,28.647,13.23
48017730,-0.767,0.342,0.48,17.342,26.862,6.702
48017740,-0.925,0.301,0.429,21.857,24.132,-2.502
48017750,-1.019,0.261,0.426,27.107,14.49,-8.54
48017760,-1.048,0.242,0.437,34.23,-2.537,-12.635
48017770,-0.943,0.19,0.439,44.362,-29.172,-22.837
48017780,-0.77,0.302,0.488,59.762,-49.21,-33.267
48017790,-0.798,0.38,0.561,63.962,-57.207,-42.122
48017800,-0.679,0.407,0.649,52.622,-54.407,-44.695
48017810,-0.769,0.475,0.631,32.287,-29.96,-31.745
48017820,-0.848,0.331,0.545,3.972,-13.37,-17.412
48017830,-0.755,0.222,0.493,-9.677,-10.885,-7.77
48017840,-0.798,0.261,0.552,-11.847,-7.472,-0.28
48017850,-0.743,0.237,0.58,-18.69,-6.422,1.417
48017860,-0.661,0.284,0.608,-20.37,-0.857,5.74
48017870,-0.564,0.375,0.636,-28.577,13.685,16.415
48017880,-0.716,0.403,0.573,-47.845,42.805,33.827
48017890,-0.865,0.302,0.529,-62.982,63.665,39.252
48017900,-0.87,0.147,0.462,-66.307,62.632,37.765
48017910,-0.962,0.017,0.408,-50.522,47.18,32.34
48017910,-0.818,0.113,0.428,-20.86,28.157,22.925
48017920,-0.78,0.246,0.461,2.485,16.975,14.157
48017930,-0.828,0.315,0.431,12.127,9.817,8.68
48017940,-0.934,0.278,0.4,18.655,0.7,3.99
48017950,-0.968,0.265,0.425,26.092,-11.847,-0.122
48017960,-0.993,0.291,0.485,34.212,-23.38,-6.09
48017970,-1.055,0.19,0.475,41.09,-48.737,-20.212
48017980,-0.705,0.287,0.496,58.327,-72.975,-36.155
48017990,-0.72,0.468,0.594,66.657,-71.085,-40.092
48018000,-0.714,0.422,0.632,47.425,-62.65,-38.57
48018010,-0.742,0.435,0.591,17.64,-35.437,-18.13
48018020,-0.902,0.302,0.52,-7.087,-15.907,-1.487
48018030,-0.772,0.23,0.549,-20.247,-17.22,2.905
48018040,-0.657,0.235,0.592,-23.502,-16.467,10.062
48018050,-0.656,0.294,0.61,-25.76,-5.407,19.075
48018060,-0.651,0.376,0.587,-34.055,13.72,25.847
48018070,-0.785,0.366,0.567,-45.36,35.472,32.007
48018080,-0.783,0.27,0.532,-51.537,46.392,35.28
48018090,-0.835,0.152,0.513,-48.177,46.34,35.07
48018100,-0.811,0.134,0.497,-31.377,34.142,25.305
48018110,-0.84,0.2,0.499,-10.745,22.277,16.432
48018120,-0.826,0.296,0.484,2.047,10.36,6.842
48018130,-0.864,0.326,0.454,11.007,2.765,-0.542
48018140,-0.947,0.323,0.468,16.362,-4.462,-8.47
48018150,-0.974,0.298,0.471,18.69,-14.192,-13.527
48018160,-0.934,0.255,0.452,22.435,-26.215,-18.532
48018170,-0.953,0.201,0.448,32.06,-42.84,-29.015
48018180,-0.683,0.245,0.5,46.585,-62.09,-39.917
48018190,-0.619,0.44,0.624,55.965,-52.902,-38.92
48018200,-0.75,0.463,0.661,40.302,-35.437,-33.442
48018210,-0.792,0.341,0.581,13.562,-19.512,-24.272
48018220,-0.839,0.239,0.539,-1.487,-11.165,-10.29
48018230,-0.822,0.251,0.543,-9.905,-11.287,-4.34
48018240,-0.785,0.247,0.584,-16.87,-12.39,-0.56
48018250,-0.688,0.227,0.587,-23.992,-11.497,4.987
48018260,-0.655,0.25,0.591,-26.565,-5.162,14.192
48018260,-0.586,0.33,0.572,-31.64,10.22,23.222
48018280,-0.721,0.364,0.581,-42.507,35.962,31.692
48018280,-0.814,0.305,0.585,-52.447,53.095,36.732
48018300,-0.815,0.228,0.58,-57.015,55.685,39.165
48018300,-0.859,0.154,0.533,-55.597,47.022,32.305
48018320,-0.827,0.085,0.47,-38.832,28.192,21.63
48018320,-0.656,0.232,0.475,-13.72,20.527,18.34
48018330,-0.916,0.248,0.434,0.84,22.032,13.3
48018340,-0.93,0.221,0.349,13.58,7.42,4.252
48018350,-0.888,0.299,0.389,32.882,-6.807,-0.927
48018360,-0.98,0.334,0.454,37.135,-17.762,-3.622
48018370,-1.072,0.264,0.477,37.975,-34.457,-10.167
48018380,-0.917,0.227,0.48,48.58,-64.715,-24.237
48018390,-0.643,0.332,0.557,61.985,-76.16,-32.217
48018400,-0.682,0.415,0.657,64.837,-64.312,-33.372
48018410,-0.766,0.476,0.66,48.877,-45.64,-27.422
48018420,-0.759,0.393,0.581,23.31,-29.505,-17.517
48018430,-0.775,0.296,0.523,3.762,-15.085,-9.905
48018440,-0.832,0.266,0.554,-7.227,-10.36,-2.992
48018450,-0.781,0.246,0.58,-18.48,-12.145,2.87
48018460,-0.693,0.221,0.596,-23.397,-11.025,11.095
48018470,-0.643,0.266,0.595,-26.162,-3.027,19.407
48018480,-0.571,0.401,0.587,-32.602,15.26,26.46
48018490,-0.766,0.364,0.583,-48.667,37.03,35.857
48018500,-0.767,0.268,0.557,-58.852,48.352,40.057
48018510,-0.795,0.238,0.538,-55.755,53.41,43.067
48018520,-0.806,0.224,0.54,-49.28,48.685,37.607
48018530,-0.905,0.135,0.534,-38.972,39.707,31.482
48018540,-0.89,0.133,0.52,-18.042,26.495,20.912
48018550,-0.632,0.317,0.49,6.23,17.57,10.657
48018560,-0.846,0.345,0.483,16.292,19.67,7.507
48018570,-0.948,0.293,0.453,18.2,11.375,-1.347
48018580,-0.87,0.333,0.493,26.565,2.292,-7.385
48018580,-0.938,0.337,0.493,28.087,-2.992,-11.935
48018600,-0.973,0.146,0.441,30.082,-17.762,-20.93
48018600,-0.71,0.25,0.484,54.46,-33.372,-30.152
48018620,-0.697,0.399,0.575,68.897,-30.082,-35.927
48018620,-0.815,0.368,0.601,62.51,-24.57,-42.525
48018640,-0.826,0.455,0.555,48.177,-22.4,-32.112
48018640,-0.845,0.348,0.481,23.817,-19.67,-20.685
48018660,-0.876,0.306,0.461,7.98,-15.557,-14.297
48018660,-0.869,0.277,0.512,-2.327,-16.082,-9.52
48018670,-0.828,0.295,0.565,-11.952,-15.067,-4.655
48018680,-0.749,0.247,0.561,-21.91,-16.257,0.945
48018690,-0.626,0.241,0.556,-26.197,-11.252,8.802
48018700,-0.545,0.345,0.554,-29.627,4.462,16.66
48018710,-0.685,0.371,0.559,-43.767,28.682,26.04
48018720,-0.867,0.375,0.552,-56.542,49.017,33.495
48018730,-0.799,0.233,0.528,-64.505,53.48,32.515
48018740,-0.775,0.225,0.522,-60.217,54.722,32.41
48018750,-0.857,0.22,0.513,-51.817,50.347,29.102
48018760,-0.891,0.088,0.506,-39.62,38.132,16.59
48018770,-0.821,0.204,0.478,-14.367,24.377,9.012
48018780,-0.823,0.283,0.387,3.167,11.2,2.45
48018790,-0.918,0.272,0.387,14.315,4.585,-6.317
48018800,-1.045,0.282,0.402,24.797,-6.615,-10.78
48018810,-0.99,0.268,0.39,29.487,-17.605,-15.575
48018820,-1.012,0.187,0.409,37.957,-31.325,-27.247
48018830,-0.72,0.233,0.455,57.662,-59.132,-40.39
48018840,-0.451,0.388,0.593,75.985,-57.435,-41.02
48018850,-0.772,0.538,0.716,68.46,-30.747,-35.647
48018860,-0.96,0.492,0.62,31.412,-18.935,-27.685
48018870,-0.824,0.252,0.503,2.992,-15.452,-17.01
48018880,-0.782,0.291,0.497,-6.457,-7.28,-5.057
48018890,-0.86,0.281,0.563,-14.402,-1.487,2.415
48018900,-0.678,0.2,0.545,-24.57,-4.585,5.687
48018910,-0.547,0.313,0.554,-22.977,9.485,12.565
48018920,-0.751,0.419,0.567,-34.667,34.195,19.897
48018930,-0.898,0.246,0.55,-50.417,45.78,22.522
48018940,-0.8,0.27,0.54,-48.072,49.07,24.832
48018950,-0.874,0.265,0.517,-46.375,49.927,22.487
48018960,-0.866,0.228,0.486,-45.097,41.317,15.522
48018970,-0.915,0.152,0.458,-37.38,27.947,11.182
48018980,-0.766,0.184,0.421,-22.26,15.522,7.157
48018990,-0.822,0.21,0.375,-5.127,11.532,3.15
48019000,-0.842,0.215,0.372,7.84,6.527,-2.625
48019010,-0.951,0.281,0.431,20.93,2.467,-4.13
48019010,-1.02,0.261,0.432,23.222,-7.122,-5.477
48019030,-0.926,0.18,0.407,27.037,-25.41,-12.775
48019030,-0.738,0.262,0.461,42.822,-39.322,-18.427
48019050,-0.744,0.41,0.596,47.39,-40.057,-21.28
48019050,-0.839,0.46,0.622,28.525,-30.905,-19.425
48019070,-0.826,0.34,0.55,4.375,-18.497,-15.225
48019070,-0.909,0.239,0.469,-5.565,-11.322,-6.3
48019080,-0.755,0.224,0.469,-5.267,-16.835,-1.487
48019090,-0.725,0.323,0.513,-8.085,-9.222,3.762
48019100,-0.912,0.339,0.554,-21.017,-1.767,7.472
48019110,-0.862,0.264,0.555,-34.93,-5.267,12.005
48019120,-0.645,0.229,0.553,-38.552,1.75,22.802
48019130,-0.753,0.322,0.53,-40.302,29.067,34.037
48019140,-0.922,0.258,0.504,-50.645,37.467,35.962
48019150,-0.781,0.117,0.487,-54.512,31.657,33.862
48019160,-0.682,0.17,0.515,-39.76,29.05,32.217
48019170,-0.688,0.291,0.562,-29.575,37.205,32.147
48019180,-0.864,0.262,0.554,-31.465,40.337,25.865
48019190,-0.872,0.19,0.5,-27.632,37.537,21.63
48019200,-0.903,0.203,0.413,-13.282,29.137,16.555
48019210,-0.766,0.283,0.336,1.977,14,11.392
48019220,-0.843,0.281,0.325,14.84,9.485,7.77
48019230,-1.136,0.333,0.373,25.322,6.58,2.957
48019240,-1.148,0.33,0.366,29.365,-17.22,-6.72
48019250,-0.914,0.339,0.397,33.635,-48.44,-19.425
48019260,-0.758,0.376,0.454,41.755,-62.055,-24.237
48019270,-0.829,0.403,0.525,44.625,-56.21,-25.34
48019280,-0.775,0.368,0.567,36.61,-49.49,-24.377
48019290,-0.705,0.327,0.552,24.605,-33.232,-16.66
48019300,-0.76,0.295,0.534,12.757,-17.867,-8.417
48019310,-0.817,0.256,0.569,2.257,-8.627,-0.052
48019320,-0.817,0.271,0.567,-10.535,-4.287,6.405
48019330,-0.841,0.239,0.557,-17.062,-3.867,9.415
48019330,-0.699,0.258,0.545,-22.05,-2.555,12.565
48019350,-0.755,0.285,0.539,-29.715,16.782,19.337
48019350,-0.813,0.254,0.545,-39.305,32.042,23.292
48019370,-0.726,0.25,0.555,-45.64,38.832,26.022
48019370,-0.719,0.261,0.551,-50.365,46.532,28.385
48019390,-0.752,0.241,0.524,-53.76,52.412,27.755
48019390,-0.783,0.205,0.483,-52.255,55.352,25.34
48019410,-0.877,0.213,0.443,-44.1,57.295,24.832
48019410,-0.998,0.215,0.387,-34.387,51.345,21.122
48019420,-1.011,0.213,0.293,-23.065,34.912,14.245
48019430,-0.912,0.268,0.241,-8.697,13.93,7
48019440,-0.895,0.299,0.274,6.16,0.787,4.69
48019450,-1.045,0.334,0.375,15.837,-9.24,4.392
48019460,-1.004,0.28,0.412,15.697,-23.257,0.437
48019470,-0.907,0.185,0.394,19.25,-38.342,-8.942
48019480,-0.717,0.25,0.434,35.07,-50.277,-16.8
48019490,-0.813,0.385,0.55,46.2,-51.957,-21.245
48019500,-0.857,0.493,0.607,35.21,-49.997,-24.64
48019510,-0.926,0.361,0.539,10.465,-37.817,-22.347
48019520,-0.833,0.198,0.474,-4.427,-33.547,-17.727
48019530,-0.82,0.176,0.468,-2.625,-31.587,-10.762
48019540,-0.712,0.229,0.511,0.507,-30.625,-4.34
48019550,-0.746,0.302,0.559,-3.92,-19.582,3.29
48019560,-0.87,0.275,0.555,-15.435,-10.955,9.467
48019570,-0.731,0.286,0.568,-24.272,-7.315,11.515
48019580,-0.589,0.344,0.603,-29.837,11.182,21.56
48019590,-0.879,0.348,0.584,-42.262,43.225,31.955
48019600,-0.918,0.27,0.561,-53.025,48.475,27.422
48019610,-0.704,0.303,0.565,-52.22,46.462,30.17
48019620,-0.79,0.325,0.553,-55.247,53.795,33.565
48019630,-0.847,0.183,0.483,-60.322,52.447,20.125
48019640,-0.827,0.072,0.376,-46.987,41.3,14.91
48019650,-0.849,0.174,0.306,-20.037,30.817,12.67
48019660,-0.942,0.248,0.225,0.315,13.422,9.45
48019670,-0.863,0.251,0.194,15.505,-6.755,3.867
48019680,-1.05,0.251,0.321,32.077,-16.397,5.04
48019690,-1.124,0.311,0.431,35.892,-26.127,-1.995
48019700,-0.895,0.31,0.438,36.977,-51.677,-18.077
48019710,-0.626,0.324,0.525,42.997,-55.387,-23.135
48019720,-0.808,0.442,0.645,44.275,-48.037,-24.185
48019730,-0.781,0.488,0.662,27.002,-39.69,-21.7
48019740,-0.89,0.31,0.541,3.482,-26.565,-18.935
48019750,-0.823,0.228,0.46,-5.985,-22.382,-14.385
48019760,-0.802,0.263,0.499,-6.125,-21.612,-9.555
48019760,-0.738,0.278,0.571,-12.11,-14.7,-4.795
48019780,-0.887,0.249,0.566,-18.252,-5.792,0.052
48019780,-0.839,0.237,0.545,-23.432,-7.507,-2.03
48019800,-0.795,0.283,0.549,-22.995,-5.652,-4.025
48019800,-0.736,0.366,0.551,-25.27,-0.035,-3.027
48019820,-0.676,0.364,0.564,-35.105,23.677,4.865
48019820,-0.814,0.25,0.521,-42.997,44.782,11.182
48019830,-0.797,0.254,0.471,-42.56,47.075,16.59
48019840,-0.769,0.231,0.449,-39.847,40.075,17.517
48019850,-0.819,0.211,0.414,-34.772,32.252,17.92
48019860,-0.881,0.185,0.413,-26.005,23.642,15.452
48019870,-0.835,0.163,0.405,-14.437,14.105,9.817
48019880,-0.852,0.206,0.398,1.662,5.635,6.142
48019890,-0.857,0.256,0.43,8.452,-2.117,3.955
48019900,-0.925,0.174,0.424,10.22,-2.87,2.117
48019910,-1.007,0.164,0.405,16.327,-4.235,0.402
48019920,-0.994,0.275,0.369,21.997,-22.697,-7.472
48019930,-0.881,0.314,0.391,21.402,-44.94,-15.715
48019940,-0.905,0.329,0.447,23.117,-54.565,-22.207
48019950,-0.874,0.371,0.564,21.385,-58.257,-24.972
48019960,-0.832,0.356,0.633,10.115,-46.952,-21.437
48019970,-0.828,0.24,0.587,-3.657,-31.85,-15.697
48019980,-0.701,0.162,0.564,-7.455,-17.57,-9.94
48019990,-0.727,0.21,0.564,-4.287,-3.43,-3.377
48020000,-0.731,0.259,0.551,-5.512,3.325,1.54
48020010,-0.737,0.276,0.563,-9.852,9.607,5.477
48020020,-0.641,0.228,0.626,-14.997,22.54,12.372
48020030,-0.812,0.271,0.606,-17.657,54.337,26.092
48020040,-1.029,0.341,0.566,-25.375,62.317,25.007
48020050,-0.742,0.173,0.463,-44.38,44.887,19.967
48020060,-0.687,0.103,0.376,-41.3,44.765,22.102
48020070,-0.878,0.141,0.398,-28.91,47.547,24.132
48020080,-0.899,0.17,0.42,-17.692,32.935,23.135
48020080,-0.825,0.223,0.354,-4.585,12.757,19.827
48020100,-0.781,0.285,0.326,9.38,4.007,17.062
48020100,-1.017,0.325,0.378,18.917,4.392,16.66
48020120,-1.124,0.377,0.44,19.337,-4.515,10.377
48020120,-1.041,0.285,0.435,14.49,-16.012,0.595
48020140,-0.996,0.232,0.333,16.957,-39.83,-14.805
48020140,-0.592,0.352,0.366,29.47,-69.037,-27.58
48020160,-0.83,0.383,0.509,35.385,-61.81,-24.15
48020160,-1.029,0.414,0.575,23.275,-57.47,-23.66
48020170,-0.887,0.314,0.552,9.992,-54.88,-22.68
48020180,-0.844,0.232,0.508,2.257,-47.6,-21.525
48020190,-0.781,0.185,0.497,-1.872,-42.542,-17.92
48020200,-0.717,0.169,0.55,-1.12,-35.49,-11.497
48020210,-0.743,0.175,0.594,-2.45,-21.087,-3.465
48020220,-0.772,0.214,0.587,-4.322,-10.867,1.102
48020230,-0.724,0.22,0.577,-8.382,-5.6,6.282
48020240,-0.585,0.307,0.601,-15.05,9.747,15.435
48020250,-0.859,0.315,0.625,-24.587,39.112,25.007
48020260,-0.954,0.288,0.576,-34.72,43.312,25.532
48020270,-0.795,0.201,0.499,-37.572,33.337,22.382
48020280,-0.612,0.227,0.477,-26.862,30.397,19.005
48020290,-0.772,0.247,0.462,-12.547,37.012,20.02
48020300,-0.838,0.274,0.445,-6.545,30.765,16.66
48020310,-0.884,0.221,0.349,0.21,19.88,11.742
48020320,-0.905,0.261,0.299,13.387,4.41,7.875
48020330,-0.974,0.208,0.338,22.627,-7.297,5.67
48020340,-1.147,0.143,0.368,30.66,-18.777,2.537
48020350,-1.037,0.236,0.354,44.695,-52.15,-12.39
48020360,-0.693,0.423,0.485,58.012,-78.75,-27.58
48020370,-0.875,0.489,0.612,49.157,-78.417,-35.752
48020380,-0.899,0.457,0.672,21.56,-69.562,-35.087
48020390,-0.779,0.278,0.639,-2.1,-46.287,-23.362
48020400,-0.796,0.144,0.552,-11.042,-21.7,-11.9
48020410,-0.642,0.179,0.58,-9.135,-15.05,-6.772
48020420,-0.649,0.201,0.606,-10.482,-7.332,-1.33
48020430,-0.699,0.238,0.595,-12.827,-0.157,3.237
48020440,-0.679,0.283,0.617,-14.647,9.52,7.227
48020450,-0.718,0.34,0.661,-22.942,30.852,16.24
48020460,-0.923,0.316,0.616,-35.577,56.91,25.34
48020470,-0.904,0.257,0.55,-47.932,55.002,22.365
48020480,-0.709,0.214,0.464,-50.032,46.602,22.295
48020490,-0.813,0.174,0.459,-41.825,44.975,27.405
48020500,-0.745,0.206,0.447,-31.815,42.052,21.052
48020510,-0.885,0.212,0.407,-19.757,39.532,13.755
48020510,-0.936,0.247,0.333,-13.265,21.927,9.87
48020530,-0.835,0.266,0.318,2.135,3.657,7.262
48020530,-0.956,0.302,0.408,10.692,-0.857,1.855
48020550,-1.015,0.289,0.48,11.602,-6.527,-3.605
48020550,-0.9,0.252,0.498,11.41,-13.002,-7.472
48020570,-0.826,0.173,0.482,10.675,-14.857,-11.375
48020570,-0.833,0.168,0.4,18.357,-27.895,-16.327
48020580,-0.639,0.272,0.439,34.702,-43.68,-17.587
48020590,-0.813,0.316,0.519,43.575,-36.085,-17.045
48020600,-0.947,0.443,0.605,38.342,-30.205,-16.922
48020610,-1,0.44,0.619,19.74,-25.83,-13.772
48020620,-0.869,0.361,0.555,-1.61,-30.362,-16.24
48020630,-0.762,0.215,0.508,-11.217,-27.93,-15.47
48020640,-0.766,0.191,0.509,-9.012,-23.345,-11.13
48020650,-0.772,0.179,0.51,-6.352,-14.455,-6.58
48020660,-0.8,0.16,0.499,-6.3,-7.49,-4.62
48020670,-0.789,0.174,0.501,-7.105,-5.127,-0.822
48020680,-0.795,0.19,0.538,-7.087,-3.447,2.87
48020690,-0.747,0.248,0.586,-7.822,0.7,5.582
48020700,-0.741,0.292,0.631,-11.655,16.047,10.657
48020710,-0.84,0.269,0.613,-21.507,30.415,11.865
48020720,-0.801,0.221,0.544,-26.547,30.835,12.495
48020730,-0.718,0.228,0.519,-23.677,32.34,13.3
48020740,-0.792,0.224,0.484,-21.437,34.79,13.125
48020750,-0.803,0.243,0.463,-17.377,32.147,12.495
48020760,-0.861,0.247,0.437,-12.267,26.582,11.322
48020770,-0.871,0.259,0.414,-8.015,19.232,9.205
48020780,-0.917,0.26,0.373,-1.575,9.747,6.072
48020790,-0.931,0.242,0.369,4.795,-0.192,2.467
48020800,-0.996,0.198,0.398,11.042,-5.95,-2.257
48020810,-1.061,0.201,0.374,19.022,-24.185,-8.942
48020820,-0.904,0.279,0.371,30.817,-54.355,-16.835
48020830,-0.793,0.313,0.442,39.55,-70.752,-25.69
48020830,-0.783,0.381,0.573,38.342,-73.99,-31.15
48020850,-0.808,0.444,0.731,22.4,-55.44,-21.49
48020850,-0.89,0.347,0.702,-7.332,-29.522,-8.977
48020870,-0.766,0.131,0.612,-25.602,-13.055,-4.812
48020870,-0.65,0.107,0.551,-22.19,-5.022,-1.032
48020890,-0.631,0.182,0.542,-16.327,-0.595,5.95
48020890,-0.66,0.223,0.575,-16.065,5.827,11.042
48020910,-0.693,0.251,0.61,-19.022,19.162,17.325
48020910,-0.832,0.261,0.615,-23.345,43.837,21.682
48020920,-0.935,0.273,0.567,-32.305,53.13,19.11
48020930,-0.819,0.201,0.482,-41.422,45.027,17.937
48020940,-0.788,0.166,0.418,-37.8,42,19.897
48020950,-0.852,0.197,0.434,-29.592,41.527,18.375
48020960,-0.886,0.2,0.423,-21.7,34.51,14.21
48020970,-0.832,0.229,0.425,-13.107,27.09,12.075
48020980,-0.901,0.218,0.381,-6.562,20.93,9.747
48020990,-0.849,0.224,0.369,0.42,9.922,6.615
48021000,-0.907,0.208,0.425,9.345,6.387,5.005
48021010,-0.996,0.228,0.457,13.492,3.045,3.5
48021020,-0.947,0.21,0.442,14.63,-2.975,0.875
48021030,-0.991,0.196,0.386,14.28,-9.467,-2.625
48021040,-0.876,0.282,0.345,16.047,-34.72,-8.802
48021050,-0.827,0.323,0.426,16.572,-52.71,-11.042
48021060,-0.878,0.321,0.57,13.825,-52.605,-12.74
48021070,-0.907,0.354,0.643,8.172,-41.037,-12.04
48021080,-0.808,0.301,0.628,-1.54,-29.417,-12.792
48021090,-0.705,0.226,0.596,-9.695,-17.5,-10.657
48021100,-0.707,0.234,0.588,-11.987,-7.997,-5.775
48021110,-0.718,0.256,0.589,-15.54,-0.297,-1.907
48021120,-0.81,0.303,0.599,-21.367,6.545,0.052
48021130,-0.858,0.317,0.572,-29.365,8.19,1.365
48021140,-0.802,0.33,0.585,-34.877,9.275,1.207
48021150,-0.888,0.299,0.593,-39.707,23.677,3.692
48021160,-1.041,0.311,0.542,-44.012,23.31,2.467
48021170,-0.759,0.234,0.457,-51.205,4.707,2.345
48021180,-0.715,0.151,0.408,-49.892,2.327,5.53
48021190,-0.659,0.16,0.449,-41.37,6.807,10.027
48021200,-0.787,0.12,0.459,-33.477,13.947,12.267
48021210,-0.834,0.162,0.465,-26.215,10.097,9.957
48021220,-0.831,0.182,0.478,-17.325,6.44,11.025
48021230,-0.871,0.25,0.503,-13.195,4.48,10.64
48021240,-0.927,0.25,0.498,-13.877,2.73,9.572
48021250,-0.916,0.253,0.478,-14.105,-1.627,7.367
48021260,-0.873,0.228,0.457,-14.63,-4.97,4.795
48021260,-0.856,0.195,0.455,-14.42,-7.245,4.27
48021280,-0.848,0.156,0.457,-12.25,-8.382,4.585
48021280,-0.866,0.124,0.453,-8.19,-9.66,4.707
48021300,-0.88,0.103,0.439,-2.187,-11.742,4.97
48021300,-0.878,0.098,0.44,4.287,-13.825,5.162
48021310,-0.93,0.094,0.463,8.715,-18.217,4.095
48021320,-0.872,0.131,0.476,13.475,-35.892,1.417
48021330,-0.652,0.215,0.494,17.92,-47.04,1.977
48021340,-0.655,0.243,0.614,13.912,-25.935,6.125
48021350,-0.985,0.249,0.642,1.96,-3.71,7.875
48021360,-0.906,0.242,0.608,-3.43,-3.08,6.65
48021370,-0.843,0.271,0.557,-7.035,-2.8,4.13
48021380,-0.812,0.261,0.52,-12.705,-4.375,2.065
48021390,-0.793,0.248,0.521,-12.897,-5.11,1.662
48021400,-0.805,0.275,0.54,-11.83,-4.707,2.327
48021410,-0.812,0.296,0.567,-14.332,-3.15,2.852
48021420,-0.784,0.287,0.599,-18.41,-1.19,3.15
48021430,-0.763,0.234,0.622,-20.702,8.435,4.847
48021440,-0.811,0.256,0.615,-21.962,18.48,5.145
48021450,-0.741,0.254,0.593,-27.895,21.63,4.077
48021460,-0.814,0.184,0.537,-31.902,27.387,3.832
48021470,-0.808,0.188,0.48,-30.905,21.962,4.007
48021480,-0.757,0.18,0.442,-24.272,15.155,6.247
48021490,-0.809,0.192,0.422,-18.935,12.145,6.807
48021500,-0.83,0.164,0.404,-14.28,6.335,6.895
48021510,-0.838,0.142,0.418,-6.195,3.605,7.577
48021520,-0.881,0.119,0.443,1.347,5.337,7.56
48021530,-0.909,0.114,0.464,5.722,6.825,7.315
48021540,-0.894,0.087,0.447,8.767,6.072,6.44
48021550,-0.886,0.068,0.401,13.142,4.987,5.39
48021560,-0.932,0.099,0.314,22.61,-9.1,1.872
48021570,-0.704,0.175,0.289,37.275,-34.632,-1.697
48021580,-0.747,0.251,0.492,49.84,-23.782,0.63
48021580,-1.14,0.381,0.687,44.747,-5.022,1.75
48021600,-1.085,0.419,0.675,19.267,-5.845,3.465
48021600,-0.933,0.244,0.577,-5.005,-3.377,-2.38
48021620,-0.81,0.166,0.537,-11.41,-1.785,-9.047
48021620,-0.688,0.202,0.57,-5.092,-1.347,-6.79
48021640,-0.676,0.247,0.581,-3.447,1.05,-1.365
48021640,-0.668,0.241,0.586,-5.075,4.515,2.957
48021660,-0.674,0.258,0.567,-3.517,11.007,6.702
48021660,-0.75,0.291,0.579,-4.97,22.645,11.27
48021670,-0.901,0.253,0.553,-10.5,32.34,12.81
48021680,-0.943,0.236,0.521,-14.192,28.105,10.29
48021690,-0.877,0.22,0.493,-15.19,20.65,6.965
48021700,-0.855,0.25,0.506,-15.277,19.967,5.512
48021710,-0.917,0.203,0.463,-20.125,18.497,2.38
48021720,-0.803,0.18,0.438,-18.34,12.862,-0.42
48021730,-0.858,0.201,0.432,-11.007,12.81,-0.332
48021740,-0.866,0.221,0.426,-6.65,6.685,-1.837
48021750,-0.865,0.198,0.439,-1.855,3.167,-3.132
48021760,-0.916,0.193,0.438,1.925,3.202,-4.445
48021770,-0.929,0.189,0.418,4.025,0.805,-5.617
48021780,-0.969,0.182,0.392,4.952,-3.762,-8.172
48021790,-0.978,0.23,0.349,6.02,-22.12,-15.19
48021800,-0.849,0.268,0.424,9.677,-41.632,-22.085
48021810,-0.901,0.304,0.61,8.732,-36.522,-24.325
48021820,-0.927,0.302,0.653,-2.187,-24.902,-23.362
48021830,-0.771,0.227,0.623,-15.382,-11.445,-19.985
48021840,-0.767,0.148,0.545,-22.365,-0.787,-14.402
48021850,-0.64,0.143,0.513,-19.057,0.087,-7.98
48021860,-0.635,0.152,0.525,-13.212,5.757,0.437
48021870,-0.727,0.171,0.522,-10.202,12.635,8.785
48021880,-0.77,0.204,0.527,-7.035,15.977,15.802
48021890,-0.789,0.193,0.573,-8.417,20.72,21.21
48021900,-0.829,0.178,0.566,-9.345,35.07,24.01
48021910,-0.903,0.247,0.517,-12.495,42.21,24.692
48021920,-0.871,0.154,0.414,-22.855,33.057,22.487
48021930,-0.888,0.111,0.359,-19.302,28.91,22.96
48021940,-0.989,0.15,0.365,-10.5,24.832,20.387
48021950,-0.975,0.181,0.358,-4.2,14.175,14.507
48021960,-0.987,0.22,0.376,1.295,3.937,10.307
48021970,-0.978,0.203,0.405,2.1,-4.34,5.845
48021980,-0.935,0.18,0.442,4.042,-9.047,2.607
48021980,-0.909,0.158,0.438,7.385,-10.605,0.297
48022000,-0.893,0.145,0.416,10.045,-12.46,-1.907
48022000,-0.919,0.129,0.376,13.842,-14.052,-3.727
48022010,-1.046,0.17,0.288,21.525,-26.022,-8.137
48022020,-0.933,0.178,0.301,31.57,-56.822,-17.115
48022030,-0.888,0.159,0.386,48.457,-67.812,-20.912
48022040,-0.919,0.252,0.5,60.27,-62.947,-23.012
48022050,-0.828,0.348,0.59,56.192,-51.765,-21.14
48022060,-0.855,0.316,0.6,38.5,-39.375,-17.167
48022070,-0.759,0.247,0.601,21.455,-30.87,-13.247
48022080,-0.73,0.165,0.594,13.58,-24.832,-9.415
48022090,-0.632,0.195,0.613,14.315,-17.972,-4.637
48022100,-0.692,0.252,0.611,13.335,-7.332,0.945
48022110,-0.742,0.276,0.608,6.772,0.262,4.917
48022120,-0.702,0.281,0.623,-1.872,11.287,11.025
48022130,-0.836,0.286,0.58,-13.65,31.64,17.675
48022140,-0.857,0.249,0.517,-25.427,37.065,17.377
48022150,-0.896,0.163,0.455,-30.135,38.08,17.062
48022160,-0.88,0.156,0.432,-24.64,33.897,15.242
48022170,-0.909,0.185,0.427,-16.992,30.117,14.42
48022180,-0.888,0.193,0.408,-12.372,19.215,9.94
48022190,-0.809,0.22,0.396,-3.132,7.875,8.347
48022200,-0.863,0.262,0.39,7.455,-1.067,7.472
48022210,-0.904,0.287,0.423,14.822,-9.555,5.407
48022220,-1.004,0.292,0.44,16.572,-16.642,1.417
48022230,-0.995,0.276,0.436,15.47,-23.555,-4.917
48022240,-1.004,0.188,0.401,15.82,-28.332,-12.74
48022250,-0.992,0.164,0.33,24.745,-50.417,-23.905
48022260,-0.674,0.241,0.415,41.142,-68.705,-28.542
48022270,-0.82,0.267,0.512,47.372,-58.415,-26.6
48022280,-0.91,0.286,0.582,42.07,-50.47,-23.485
48022290,-0.745,0.272,0.6,34.772,-44.957,-21.07
48022300,-0.772,0.232,0.61,24.307,-30.52,-15.75
48022310,-0.765,0.231,0.635,14.35,-23.327,-11.987
48022320,-0.713,0.198,0.649,6.405,-16.957,-6.772
48022330,-0.719,0.198,0.615,1.645,-9.362,-1.82
48022330,-0.691,0.23,0.594,-0.385,-1.61,1.522
48022350,-0.719,0.262,0.589,-4.147,7.227,4.182
48022350,-0.717,0.276,0.618,-10.622,21.402,10.92
48022370,-0.851,0.287,0.609,-18.2,34.825,17.605
48022370,-0.806,0.26,0.561,-28.105,36.172,20.37
48022390,-0.799,0.187,0.497,-32.287,33.022,19.722
48022390,-0.831,0.182,0.461,-26.88,33.32,20.545
48022410,-0.88,0.202,0.444,-19.635,27.58,17.727
48022410,-0.829,0.229,0.418,-11.567,17.43,13.195
48022420,-0.854,0.267,0.426,-2.52,13.107,10.255
48022430,-0.958,0.277,0.396,0.175,8.802,5.53
48022440,-0.894,0.24,0.408,2.782,-0.35,0.91
48022450,-0.899,0.192,0.428,5.915,-1.452,-1.085
48022460,-0.912,0.191,0.436,10.22,-1.575,-2.275
48022470,-0.909,0.175,0.458,12.267,-1.732,-4.462
48022480,-0.943,0.145,0.407,15.277,-14.77,-10.447
48022490,-0.721,0.207,0.45,25.795,-29.26,-14.437
48022500,-0.815,0.28,0.538,32.725,-22.505,-14.42
48022510,-0.947,0.301,0.546,25.235,-16.345,-10.097
48022520,-0.952,0.266,0.523,15.12,-15.4,-6.16
48022530,-0.857,0.256,0.517,7.385,-17.832,-7.437
48022540,-0.813,0.227,0.522,1.697,-15.557,-7.735
48022550,-0.825,0.218,0.538,-1.89,-9.765,-6.335
48022560,-0.793,0.231,0.543,-2.555,-7.385,-5.162
48022570,-0.765,0.262,0.553,-3.622,-4.375,-3.727
48022580,-0.787,0.275,0.559,-7.525,-0.665,-2.45
48022590,-0.74,0.29,0.572,-11.13,4.777,-1.155
48022600,-0.761,0.329,0.611,-18.305,18.165,3.412
48022610,-0.956,0.265,0.554,-31.675,27.142,6.265
48022620,-0.796,0.194,0.497,-37.572,20.702,4.777
48022630,-0.819,0.144,0.451,-32.917,21.472,5.022
48022640,-0.871,0.157,0.408,-25.165,18.725,4.777
48022650,-0.864,0.173,0.4,-15.452,10.185,4.2
48022660,-0.808,0.19,0.404,-8.435,2.485,2.607
48022670,-0.828,0.199,0.43,-0.297,1.365,3.167
48022670,-0.901,0.202,0.45,4.077,1.435,3.01
48022690,-0.889,0.175,0.441,5.617,-1.347,2.975
48022690,-0.911,0.168,0.441,8.802,-3.01,3.255
48022710,-1.026,0.183,0.394,13.09,-15.785,-1.54
48022710,-0.779,0.234,0.414,20.037,-39.06,-8.505
48022730,-0.83,0.277,0.511,24.447,-37.012,-11.55
48022730,-0.952,0.322,0.563,16.8,-31.57,-12.477
48022750,-0.933,0.297,0.552,4.987,-30.73,-10.797
48022750,-0.785,0.224,0.543,-5.267,-25.497,-9.415
48022760,-0.838,0.186,0.543,-7.945,-17.132,-4.795
48022770,-0.757,0.203,0.552,-7.822,-17.342,-1.767
48022780,-0.689,0.2,0.568,-5.967,-12.425,1.417
48022790,-0.711,0.258,0.599,-5.337,-2.747,5.652
48022800,-0.707,0.287,0.644,-10.08,10.815,13.265
48022810,-0.841,0.252,0.613,-18.9,30.66,18.48
48022820,-0.881,0.225,0.541,-27.002,33.04,17.08
48022830,-0.796,0.177,0.491,-29.067,31.955,15.4
48022840,-0.886,0.174,0.457,-24.64,31.115,14.21
48022850,-0.851,0.19,0.437,-19.6,23.677,13.65
48022860,-0.801,0.185,0.408,-14.56,15.4,12.337
48022870,-0.801,0.164,0.385,-7.157,15.015,12.792
48022880,-0.891,0.188,0.349,3.71,11.34,13.212
48022890,-0.915,0.194,0.352,12.477,3.832,9.625
48022900,-0.978,0.196,0.386,19.845,-0.192,5.215
48022910,-1.049,0.235,0.413,25.077,-3.307,0.787
48022920,-0.963,0.226,0.415,24.867,-11.392,-3.237
48022930,-0.968,0.203,0.379,25.217,-19.95,-7.665
48022940,-0.851,0.24,0.396,30.31,-39.69,-11.847
48022950,-0.761,0.263,0.504,35.525,-38.972,-13.02
48022960,-0.926,0.297,0.532,34.807,-34.16,-14.227
48022970,-0.802,0.292,0.555,28.752,-36.26,-11.55
48022980,-0.798,0.263,0.558,21.91,-34.755,-9.1
48022990,-0.775,0.236,0.575,14.35,-31.885,-4.637
48023000,-0.754,0.215,0.575,11.13,-24.815,0.612
48023010,-0.777,0.2,0.538,10.657,-17.85,4.375
48023020,-0.754,0.221,0.516,11.007,-15.575,6.457
48023030,-0.785,0.226,0.508,11.025,-14.455,8.802
48023040,-0.821,0.249,0.533,9.922,-15.522,12.005
48023050,-0.855,0.287,0.577,7,-14.962,13.93
48023060,-0.858,0.309,0.605,1.697,-12.775,12.967
48023070,-0.767,0.31,0.613,-4.235,-7.962,10.885
48023080,-0.721,0.345,0.618,-11.165,6.702,11.025
48023080,-0.869,0.287,0.565,-21.822,18.725,10.22
48023100,-0.772,0.22,0.532,-26.355,18.707,8.715
48023100,-0.756,0.215,0.515,-21.385,20.125,8.645
48023120,-0.783,0.218,0.499,-17.062,20.545,8.277
48023120,-0.812,0.217,0.479,-12.565,18.445,7.42
48023140,-0.884,0.225,0.458,-8.137,15.05,6.107
48023140,-0.915,0.242,0.443,-4.252,9.152,3.885
48023160,-0.95,0.232,0.423,-1.715,2.572,-0.035
48023160,-0.932,0.212,0.428,0.63,-4.952,-3.605
48023170,-0.902,0.206,0.444,4.13,-11.2,-5.18
48023180,-0.868,0.184,0.441,6.44,-15.697,-5.862
48023190,-0.85,0.158,0.432,9.712,-15.645,-5.775
48023200,-0.964,0.176,0.429,16.817,-21.175,-7.42
48023210,-0.852,0.235,0.43,23.695,-42.315,-13.247
48023220,-0.735,0.299,0.514,31.465,-50.102,-16.835
48023230,-0.75,0.393,0.636,26.932,-44.31,-16.1
48023240,-0.792,0.384,0.68,9.502,-31.255,-8.47
48023250,-0.817,0.284,0.646,-5.005,-15.085,-3.15
48023260,-0.73,0.224,0.597,-11.602,-7.595,-2.047
48023270,-0.653,0.224,0.57,-11.305,-2.03,1.015
48023280,-0.723,0.246,0.563,-9.887,4.725,4.655
48023290,-0.716,0.274,0.577,-11.69,8.89,8.382
48023300,-0.695,0.318,0.599,-17.867,20.877,16.065
48023310,-0.94,0.314,0.591,-28.332,35.577,20.282
48023320,-0.875,0.241,0.555,-36.347,35.525,17.5
48023330,-0.852,0.172,0.487,-35.245,32.742,15.417
48023340,-0.823,0.161,0.408,-26.897,24.815,13.002
48023350,-0.786,0.184,0.387,-16.135,15.557,11.637
48023360,-0.864,0.182,0.381,-7.087,9.205,10.815
48023370,-0.855,0.191,0.399,4.042,5.11,9.012
48023380,-0.903,0.23,0.409,14.227,-1.592,5.46
48023390,-0.931,0.219,0.457,18.812,-7.35,1.382
48023400,-0.923,0.209,0.481,21.875,-11.112,-1.347
48023410,-0.921,0.192,0.476,24.447,-12.11,-3.377
48023420,-0.995,0.205,0.42,29.172,-18.865,-8.33
48023420,-0.847,0.293,0.418,37.73,-45.115,-17.832
48023440,-0.765,0.348,0.517,41.615,-52.237,-23.012
48023440,-0.84,0.4,0.601,34.002,-46.987,-24.43
48023460,-0.831,0.381,0.635,18.322,-39.025,-17.692
48023460,-0.776,0.284,0.625,3.937,-28.665,-13.755
48023480,-0.689,0.223,0.618,-2.52,-19.81,-10.045
48023480,-0.691,0.235,0.623,-2.642,-8.225,-4.287
48023500,-0.667,0.261,0.593,-5.687,-1.137,-1.137
48023500,-0.686,0.251,0.584,-10.5,6.72,1.995
48023510,-0.732,0.28,0.582,-13.667,14.105,7.245
48023520,-0.765,0.306,0.616,-18.585,27.457,14.472
48023530,-0.903,0.265,0.576,-25.935,38.027,17.465
48023540,-0.834,0.207,0.527,-29.802,31.377,15.645
48023550,-0.756,0.195,0.485,-26.057,27.597,14.892
48023560,-0.844,0.233,0.462,-21.105,27.51,16.135
48023570,-0.877,0.208,0.444,-18.725,24.622,13.527
48023580,-0.887,0.185,0.42,-12.267,19.18,9.38
48023590,-0.864,0.243,0.415,-2.87,12.407,6.44
48023600,-0.91,0.248,0.421,2.555,4.987,3.325
48023610,-0.929,0.222,0.45,5.81,-2.345,-0.367
48023620,-0.909,0.214,0.482,9.31,-7.682,-2.117
48023630,-0.882,0.214,0.495,10.727,-8.33,-3.29
48023640,-0.913,0.161,0.462,10.185,-9.117,-4.287
48023650,-0.944,0.18,0.338,16.205,-29.645,-10.465
48023660,-0.686,0.316,0.442,26.705,-53.812,-17.027
48023670,-0.861,0.362,0.582,27.422,-52.08,-19.162
48023680,-0.873,0.378,0.671,14.997,-43.382,-15.767
48023690,-0.836,0.314,0.647,0.752,-25.69,-8.89
48023700,-0.723,0.198,0.565,-9.222,-11.445,-7.402
48023710,-0.658,0.181,0.56,-8.382,-2.205,-5.267
48023720,-0.642,0.215,0.57,-3.71,5.6,-0.122
48023730,-0.706,0.271,0.577,-3.15,13.79,5.81
48023740,-0.673,0.274,0.607,-7.367,24.185,10.797
48023750,-0.817,0.284,0.608,-13.422,44.047,17.675
48023760,-0.927,0.325,0.579,-20.265,55.3,19.32
48023770,-0.87,0.257,0.516,-29.715,53.182,14.892
48023780,-0.872,0.217,0.44,-31.43,46.445,13.037
48023790,-0.875,0.17,0.38,-26.985,35,12.215
48023800,-0.836,0.142,0.348,-17.027,20.545,9.345
48023810,-0.848,0.225,0.374,-0.892,12.442,9.52
48023820,-0.926,0.254,0.372,6.877,2.17,5.67
48023830,-0.923,0.227,0.433,11.672,-8.277,1.627
48023830,-0.982,0.244,0.482,15.312,-13.16,-0.525
48023850,-0.971,0.194,0.433,15.47,-18.217,-3.902
48023850,-0.937,0.22,0.33,21.315,-35.647,-11.935
48023870,-0.787,0.258,0.389,30.082,-57.75,-19.635
48023870,-0.895,0.282,0.467,40.46,-61.74,-25.83
48023890,-0.894,0.404,0.563,42.892,-71.172,-31.675
48023890,-0.781,0.398,0.647,29.925,-68.652,-34.16
48023910,-0.805,0.291,0.637,9.1,-47.775,-29.452
48023910,-0.769,0.195,0.588,-0.892,-31.657,-20.947
48023920,-0.665,0.153,0.576,-2.537,-22.942,-12.792
48023930,-0.709,0.144,0.56,-2.415,-12.39,-5.197
48023940,-0.744,0.208,0.576,-1.925,-5.967,1.417
48023950,-0.781,0.282,0.58,-6.492,-2.327,6.37
48023960,-0.74,0.298,0.626,-15.522,3.115,8.382
48023970,-0.73,0.233,0.652,-23.537,20.475,12.95
48023980,-0.759,0.265,0.62,-24.29,45.797,18.147
48023990,-0.845,0.236,0.54,-27.3,56.892,21.385
48024000,-0.776,0.18,0.457,-24.57,50.102,20.755
48024010,-0.826,0.229,0.427,-13.755,42.402,21.07
48024020,-0.902,0.207,0.399,-8.995,29.487,16.957
48024030,-0.851,0.242,0.434,-0.875,16.31,11.095
48024040,-0.92,0.285,0.423,7.98,7.315,7.332
48024050,-0.91,0.26,0.431,10.622,-5.705,0.052
48024060,-0.928,0.246,0.5,14.857,-12.425,-3.815
48024070,-0.988,0.248,0.466,15.96,-16.38,-7.262
48024080,-0.901,0.232,0.398,16.817,-32.025,-14.577
48024090,-0.793,0.242,0.424,21.385,-46.445,-21.105
48024100,-0.856,0.274,0.473,26.967,-52.08,-24.64
48024110,-0.841,0.35,0.575,25.655,-57.977,-27.527
48024120,-0.835,0.33,0.636,13.982,-51.887,-26.442
48024130,-0.793,0.247,0.61,2.782,-38.815,-21.402
48024140,-0.753,0.184,0.569,-1.732,-27.055,-14.192
48024150,-0.71,0.182,0.57,-3.097,-19.81,-8.102
48024160,-0.668,0.194,0.602,-5.005,-10.202,-3.22
48024170,-0.723,0.214,0.6,-8.487,1.33,2.415
48024170,-0.65,0.242,0.621,-12.075,10.622,8.557
48024190,-0.692,0.23,0.629,-17.36,30.38,19.74
48024190,-0.785,0.248,0.607,-20.51,49.297,28.875
48024210,-0.746,0.257,0.582,-26.582,56.945,32.602
48024210,-0.784,0.237,0.532,-30.065,61.145,33.407
48024230,-0.955,0.206,0.436,-28.437,58.87,31.132
48024230,-0.931,0.142,0.373,-21.805,44.467,20.982
48024250,-0.796,0.269,0.385,-6.317,28.927,13.632
48024250,-0.952,0.267,0.393,0.087,24.64,9.87
48024260,-0.982,0.247,0.375,5.337,11.217,2.66
48024270,-0.942,0.241,0.437,13.842,-1.242,-2.695
48024280,-0.972,0.217,0.442,14.367,-7.542,-6.93
48024290,-0.958,0.208,0.348,18.077,-22.995,-12.32
48024300,-0.828,0.279,0.397,29.085,-49.665,-21.227
48024310,-0.83,0.333,0.511,37.905,-59.202,-27.387
48024320,-0.842,0.437,0.636,37.152,-60.06,-33.302
48024330,-0.808,0.402,0.66,15.767,-47.302,-30.45
48024340,-0.788,0.23,0.566,-2.205,-29.207,-18.217
48024350,-0.678,0.189,0.58,-6.387,-17.815,-8.487
48024360,-0.689,0.157,0.616,-11.83,-3.902,-2.625
48024370,-0.73,0.157,0.598,-12.985,9.065,3.272
48024380,-0.691,0.212,0.574,-13.142,16.047,7.752
48024390,-0.751,0.243,0.571,-18.795,29.995,14.087
48024400,-0.949,0.233,0.55,-25.007,44.327,18.077
48024410,-0.888,0.245,0.529,-27.475,43.522,16.94
48024420,-0.871,0.223,0.458,-27.982,38.465,14.455
48024430,-0.93,0.187,0.386,-26.005,31.097,12.39
48024440,-0.883,0.146,0.372,-19.442,16.555,8.715
48024450,-0.858,0.207,0.409,-6.772,9.975,6.947
48024460,-0.95,0.221,0.409,1.522,3.867,3.115
48024470,-0.902,0.211,0.404,8.12,-8.067,-2.73
48024480,-0.882,0.22,0.46,13.492,-14.682,-5.18
48024490,-0.908,0.169,0.456,13.825,-17.29,-5.88
48024500,-1.007,0.159,0.392,19.582,-27.177,-7.28
48024510,-0.864,0.265,0.386,28.892,-58.957,-15.767
48024520,-0.712,0.355,0.492,34.247,-74.515,-22.015
48024530,-0.804,0.407,0.661,28.35,-67.515,-25.322
48024540,-0.786,0.324,0.735,10.937,-46.13,-21.49
48024550,-0.823,0.239,0.638,-1.312,-21.665,-9.94
48024560,-0.676,0.204,0.6,-9.782,-7.787,-2.975
48024570,-0.639,0.162,0.58,-14.105,0.98,0.052
48024580,-0.595,0.212,0.609,-12.425,10.185,7.035
48024580,-0.661,0.241,0.634,-15.155,27.422,16.677
48024600,-0.834,0.259,0.597,-20.947,46.602,23.73
48024600,-0.849,0.262,0.558,-28.857,49.14,23.152
48024620,-0.87,0.253,0.488,-34.387,47.407,19.547
48024620,-0.985,0.251,0.409,-34.632,40.162,15.26
48024640,-0.937,0.176,0.353,-31.185,25.725,9.94
48024640,-0.84,0.176,0.369,-17.517,16.73,7.105
48024660,-0.936,0.219,0.362,-5.477,11.182,4.2
48024660,-0.863,0.203,0.37,1.102,-1.995,-0.175
48024670,-0.897,0.177,0.411,8.19,-7.42,-1.925
48024680,-0.922,0.161,0.444,13.895,-9.642,-2.082
48024690,-0.954,0.152,0.437,19.582,-12.985,-2.187
48024700,-0.961,0.176,0.35,27.247,-35.647,-9.275
48024710,-0.721,0.289,0.439,39.025,-58.59,-15.155
48024720,-0.913,0.381,0.546,38.99,-64.172,-19.635
48024730,-0.808,0.382,0.687,26.127,-61.897,-22.872
48024740,-0.92,0.315,0.686,7.77,-39.585,-14.577
48024750,-0.755,0.216,0.595,-6.09,-22.505,-9.817
48024760,-0.647,0.183,0.616,-8.75,-9.817,-6.405
48024770,-0.623,0.241,0.638,-14.332,-0.84,1.96
48024780,-0.554,0.226,0.668,-20.107,12.442,10.745
48024790,-0.773,0.218,0.619,-25.287,38.062,20.825
48024800,-0.837,0.206,0.549,-30.502,48.457,21.455
48024810,-0.834,0.161,0.435,-29.925,47.337,21.052
48024820,-0.892,0.158,0.358,-22.592,35.717,21.385
48024830,-0.853,0.178,0.358,-11.9,19.757,18.725
48024840,-0.889,0.226,0.442,0.63,13.562,14.227
48024850,-0.94,0.245,0.444,6.877,6.667,8.767
48024860,-0.84,0.249,0.464,11.847,-0.595,2.327
48024870,-0.909,0.227,0.485,12.88,0.857,-2.03
48024880,-0.97,0.193,0.424,13.93,-2.485,-3.43
48024890,-0.933,0.237,0.354,22.137,-21.56,-9.345
48024900,-0.879,0.259,0.417,30.222,-45.482,-18.952
48024910,-0.959,0.291,0.491,42,-55.002,-26.565
48024920,-0.915,0.448,0.582,43.837,-64.785,-35.21
48024920,-0.739,0.367,0.649,23.082,-56.927,-37.817
48024940,-0.806,0.237,0.623,3.01,-31.097,-21.682
48024940,-0.764,0.202,0.616,-5.565,-18.847,-9.695
48024960,-0.637,0.159,0.652,-9.572,-9.765,-7.49
48024960,-0.674,0.169,0.617,-12.617,2.327,-1.137
48024980,-0.604,0.193,0.584,-12.302,13.895,5.967
48024980,-0.808,0.274,0.58,-17.377,34.667,14.21
48025000,-1.032,0.221,0.537,-26.11,40.845,14.28
48025000,-0.882,0.233,0.486,-22.207,35.595,10.57
48025010,-0.859,0.253,0.446,-20.562,32.917,7.577
48025020,-0.824,0.188,0.412,-20.02,23.45,4.83
48025030,-0.777,0.16,0.412,-13.37,13.79,3.465
48025040,-0.82,0.187,0.449,-1.627,7.647,3.377
48025050,-0.845,0.21,0.467,6.807,0.665,-0.507
48025060,-0.778,0.206,0.507,12.04,-2.205,-3.78
48025070,-0.831,0.158,0.483,14.07,0.717,-3.325
48025080,-0.865,0.115,0.443,20.195,0.577,-2.905
48025090,-0.985,0.18,0.378,31.185,-9.432,-8.032
48025100,-0.858,0.27,0.462,40.407,-30.887,-18.55
48025110,-0.915,0.368,0.612,39.952,-31.237,-23.922
48025120,-1.017,0.362,0.586,20.632,-22.855,-18.602
48025130,-0.852,0.213,0.498,0.56,-19.705,-13.282
48025140,-0.762,0.133,0.513,-3.955,-16.187,-9.975
48025150,-0.73,0.159,0.54,-3.342,-11.795,-3.43
48025160,-0.72,0.191,0.57,-3.447,-6.93,0.822
48025170,-0.762,0.225,0.571,-6.142,0.192,4.2
48025180,-0.786,0.248,0.564,-10.762,4.462,7.577
48025190,-0.738,0.278,0.576,-16.135,9.66,12.022
48025200,-0.882,0.305,0.585,-25.13,25.375,18.182
48025210,-0.955,0.243,0.557,-34.002,29.837,13.86
48025220,-0.798,0.199,0.51,-32.567,25.567,8.505
48025230,-0.847,0.177,0.44,-26.652,22.085,5.022
48025240,-0.801,0.151,0.4,-16.555,11.427,4.34
48025250,-0.777,0.199,0.41,-2.992,4.322,3.622
48025260,-0.925,0.188,0.407,5.582,3.01,1.207
48025270,-0.975,0.147,0.375,11.357,-2.555,-2.187
48025280,-0.949,0.156,0.395,19.32,-11.252,-1.207
48025290,-0.917,0.13,0.401,23.572,-18.077,-1.907
48025300,-1.018,0.095,0.378,32.462,-31.132,-6.912
48025310,-0.744,0.19,0.441,52.097,-57.365,-16.345
48025320,-0.76,0.389,0.615,64.557,-57.312,-23.292
48025330,-0.912,0.45,0.694,48.037,-48.125,-27.142
48025330,-0.871,0.346,0.636,22.75,-34.125,-22.925
48025350,-0.795,0.263,0.552,6.247,-18.34,-16.817
48025350,-0.782,0.256,0.558,-2.572,-8.872,-12.845
48025370,-0.74,0.197,0.576,-8.47,-6.615,-11.287
48025370,-0.665,0.23,0.589,-8.627,-2.292,-5.915
48025380,-0.643,0.26,0.614,-12.145,7.262,-0.805
48025390,-0.709,0.247,0.663,-20.475,26.81,8.907
48025400,-0.888,0.271,0.626,-28.157,45.885,15.715
48025410,-0.87,0.234,0.579,-39.375,43.855,12.845
48025420,-0.808,0.138,0.477,-42.717,38.64,10.342
48025430,-0.834,0.135,0.41,-34.807,37.205,9.695
48025440,-0.899,0.138,0.369,-25.497,31.92,7.245
48025450,-0.919,0.137,0.351,-15.47,22.942,4.777
48025460,-0.962,0.156,0.345,-3.185,11.882,2.66
48025470,-0.867,0.172,0.372,6.737,-1.907,-0.577
48025480,-0.879,0.156,0.44,13.842,-7.49,-0.91
48025490,-0.897,0.157,0.48,18.532,-8.505,0.49
48025500,-0.955,0.161,0.436,23.975,-12.985,-1.54
48025510,-0.829,0.222,0.451,31.36,-28.157,-8.225
48025520,-0.824,0.329,0.539,34.265,-32.305,-11.69
48025530,-0.889,0.376,0.602,22.225,-27.265,-13.527
48025540,-0.898,0.302,0.597,3.272,-18.095,-11.935
48025550,-0.854,0.217,0.542,-7.647,-10.587,-9.975
48025560,-0.724,0.216,0.553,-11.165,-6.3,-7.017
48025570,-0.76,0.229,0.57,-14.735,-0.017,-2.782
48025580,-0.724,0.278,0.621,-18.62,3.745,2.047
48025590,-0.669,0.311,0.673,-27.107,12.897,11.217
48025600,-0.813,0.291,0.632,-39.707,34.195,23.012
48025610,-0.807,0.301,0.605,-52.22,44.852,22.505
48025620,-0.791,0.217,0.525,-63.542,50.015,19.145
48025630,-0.892,0.101,0.403,-64.225,46.322,17.412
48025640,-0.798,0.079,0.33,-49.402,33.215,16.327
48025650,-0.908,0.13,0.333,-30.642,23.222,15.19
48025660,-0.885,0.158,0.303,-16.135,8.802,11.672
48025670,-0.879,0.12,0.304,-0.105,3.36,11.182
48025670,-1.011,0.108,0.32,14.42,1.697,13.142
48025690,-1.176,0.134,0.358,24.552,-11.707,9.677
48025690,-0.995,0.232,0.407,32.515,-46.497,-0.682
48025710,-0.818,0.301,0.479,35.77,-59.64,-7.192
48025710,-0.989,0.285,0.526,28.84,-57.487,-12.512
48025730,-0.826,0.296,0.561,22.96,-67.34,-11.2
48025730,-0.806,0.298,0.584,14.875,-59.22,-3.552
48025750,-0.753,0.282,0.567,1.645,-46.532,-0.14
48025750,-0.781,0.245,0.605,-3.902,-30.415,5.005
48025760,-0.782,0.249,0.599,-16.24,-22.592,11.392
48025770,-0.728,0.211,0.586,-20.335,-19.022,10.71
48025780,-0.679,0.279,0.624,-18.112,-11.777,14.472
48025790,-0.712,0.251,0.639,-25.497,8.33,22.697
48025800,-0.813,0.272,0.605,-33.25,26.81,27.387
48025810,-0.731,0.202,0.559,-44.677,29.995,23.397
48025820,-0.703,0.136,0.503,-47.425,35.122,19.722
48025830,-0.791,0.143,0.453,-43.47,38.5,22.977
48025840,-0.814,0.108,0.428,-37.047,33.04,24.377
48025850,-0.908,0.115,0.442,-24.675,27.685,22.47
48025860,-0.949,0.158,0.425,-14,18.13,18.515
48025870,-0.867,0.169,0.391,-6.142,6.79,16.415
48025880,-0.812,0.153,0.414,2.782,6.545,15.33
48025890,-0.929,0.163,0.435,6.265,14.367,12.722
48025900,-0.982,0.13,0.433,10.307,14.875,9.345
48025910,-1.068,0.181,0.386,17.412,0.822,5.32
48025920,-0.917,0.238,0.357,23.502,-27.562,0.332
48025930,-0.841,0.27,0.444,26.005,-36.505,-3.57
48025940,-0.974,0.352,0.58,23.415,-35.455,-7.35
48025950,-0.933,0.287,0.586,7.437,-30.8,-8.26
48025960,-0.889,0.191,0.535,1.417,-24.307,-6.965
48025970,-0.684,0.156,0.513,0.245,-20.055,-2.485
48025980,-0.651,0.138,0.514,3.71,-13.65,0.875
48025990,-0.706,0.202,0.569,8.102,-5.88,5.302
48026000,-0.755,0.261,0.605,4.69,1.872,6.912
48026010,-0.799,0.283,0.627,-4.987,10.412,7.017
48026020,-0.84,0.298,0.629,-15.68,23.957,8.085
48026030,-0.917,0.233,0.53,-28.052,35.98,9.082
48026040,-0.893,0.175,0.455,-34.545,31.412,7.262
48026050,-0.839,0.182,0.469,-29.89,24.412,7.28
48026050,-0.811,0.223,0.501,-25.532,21.735,6.772
48026070,-0.837,0.204,0.489,-23.275,21.315,5.775
48026070,-0.834,0.159,0.446,-17.57,16.642,4.235
48026080,-0.757,0.207,0.402,-4.217,8.225,3.937
48026090,-0.848,0.258,0.447,5.547,7.105,5.512
48026100,-0.999,0.235,0.455,6.37,4.41,3.92
48026110,-0.975,0.226,0.441,8.942,-2.187,1.452
48026120,-0.956,0.206,0.409,9.537,-8.837,-2.765
48026130,-0.997,0.175,0.307,11.532,-24.885,-9.642
48026140,-0.802,0.287,0.417,22.26,-50.26,-18.077
48026150,-0.889,0.331,0.563,24.727,-50.592,-22.172
48026160,-0.869,0.326,0.623,11.515,-45.29,-23.257
48026170,-0.818,0.194,0.58,0.07,-34.23,-20.335
48026180,-0.704,0.157,0.568,-2.222,-20.807,-14.42
48026190,-0.673,0.179,0.6,-3.01,-7.717,-7.735
48026200,-0.74,0.21,0.616,-6.282,3.797,-2.257
48026210,-0.702,0.23,0.614,-11.13,12.39,1.645
48026220,-0.689,0.243,0.605,-15.89,22.225,6.37
48026230,-0.718,0.266,0.612,-23.992,41.807,17.535
48026240,-0.907,0.264,0.571,-36.785,58.38,26.057
48026250,-0.818,0.193,0.525,-48.895,58.52,25.83
48026260,-0.881,0.183,0.458,-50.487,59.062,26.635
48026270,-0.974,0.164,0.388,-48.807,48.02,23.73
48026280,-0.986,0.031,0.301,-40.39,30.765,16.87
48026290,-0.933,0.094,0.263,-14.612,12.827,12.11
48026300,-0.91,0.23,0.269,11.462,-0.262,9.292
48026310,-0.988,0.232,0.319,22.627,-14.35,5.057
48026320,-0.993,0.195,0.411,25.322,-23.205,0.052
48026330,-1.022,0.115,0.408,27.422,-27.702,-5.162
48026340,-0.85,0.188,0.427,38.85,-48.3,-12.232
48026350,-0.67,0.367,0.54,48.055,-62.02,-15.75
48026360,-0.905,0.389,0.632,38.29,-53.27,-22.452
48026370,-0.899,0.335,0.617,22.785,-48.807,-27.002
48026380,-0.809,0.237,0.55,11.112,-35.017,-24.43
48026390,-0.805,0.192,0.509,4.672,-20.265,-17.815
48026400,-0.721,0.205,0.566,0,-14.35,-11.76
48026410,-0.775,0.195,0.613,-7.052,-2.38,-6.685
48026420,-0.732,0.207,0.599,-13.107,3.92,-2.397
48026420,-0.715,0.23,0.574,-16.38,11.637,1.837
48026440,-0.663,0.261,0.609,-20.492,24.202,6.632
48026440,-0.871,0.299,0.645,-28.052,49.227,16.887
48026460,-0.864,0.27,0.595,-38.85,62.405,17.097
48026460,-0.836,0.188,0.477,-45.43,61.232,13.51
48026480,-0.884,0.12,0.367,-44.712,48.072,10.605
48026480,-0.827,0.153,0.347,-32.427,29.872,10.587
48026500,-0.908,0.191,0.39,-21.245,25.252,10.045
48026500,-0.98,0.182,0.363,-13.877,19.075,5.495
48026510,-0.944,0.182,0.334,-2.292,10.01,1.067
48026520,-0.905,0.226,0.373,5.39,-0.332,-2.082
48026530,-0.964,0.181,0.439,6.02,-2.677,-5.11
48026540,-0.948,0.134,0.445,6.125,-2.765,-7.857
48026550,-0.899,0.09,0.418,8.417,-2.415,-8.505
48026560,-0.941,0.05,0.358,14.017,-12.582,-8.225
48026570,-0.729,0.178,0.41,27.965,-32.445,-8.225
48026580,-0.838,0.274,0.485,33.565,-33.88,-6.79
48026590,-0.882,0.282,0.529,24.325,-35.962,-7.945
48026600,-0.889,0.28,0.594,13.877,-26.635,-5.11
48026610,-0.943,0.23,0.539,1.505,-9.187,-1.347
48026620,-0.802,0.207,0.513,-5.477,-5.092,-3.43
48026630,-0.767,0.205,0.536,-8.977,-2.415,-2.642
48026640,-0.719,0.259,0.602,-9.712,3.045,1.277
48026650,-0.77,0.297,0.645,-14.577,18.217,7
48026660,-0.811,0.342,0.636,-23.362,37.905,12.232
48026670,-0.831,0.348,0.578,-41.282,44.922,9.957
48026680,-0.858,0.25,0.461,-54.215,44.135,7.192
48026690,-0.956,0.095,0.279,-54.722,29.855,6.37
48026700,-0.852,0.08,0.245,-35.21,7.735,5.53
48026710,-0.945,0.111,0.265,-12.95,-1.12,5.775
48026720,-0.881,0.145,0.305,3.272,-9.327,3.64
48026730,-0.885,0.079,0.355,12.67,-10.885,4.357
48026740,-1.024,0.017,0.377,16.572,-6.002,3.71
48026750,-0.941,0.06,0.368,26.705,-16.555,0
48026760,-0.865,0.198,0.445,40.81,-30.24,-1.732
48026760,-0.954,0.263,0.523,42.437,-29.575,-7.595
48026780,-0.946,0.338,0.562,33.355,-32.76,-14.227
48026780,-0.922,0.287,0.531,14.822,-30.52,-17.097
48026800,-0.876,0.17,0.485,-0.315,-22.925,-13.86
48026800,-0.799,0.159,0.495,-3.99,-16.555,-8.067
48026820,-0.796,0.214,0.576,-8.767,-8.75,-3.115
48026820,-0.749,0.209,0.592,-16.24,-3.01,-0.892
48026830,-0.655,0.278,0.607,-20.475,12.057,6.702
48026840,-0.875,0.252,0.578,-31.972,37.135,15.347
48026850,-0.854,0.244,0.572,-41.912,48.562,14.525
48026860,-0.895,0.198,0.466,-49.525,47.722,11.55
48026870,-0.91,0.105,0.347,-50.872,33.547,10.08
48026880,-0.827,0.109,0.334,-37.31,15.33,9.905
48026890,-0.866,0.135,0.381,-21.945,11.707,9.712
48026900,-0.916,0.14,0.33,-9.047,3.902,7.385
48026910,-0.845,0.139,0.364,5.075,-1.032,6.23
48026920,-0.989,0.118,0.4,8.137,0.105,5.617
48026930,-1.065,0.068,0.358,11.567,-2.537,4.987
48026940,-0.917,0.075,0.299,20.947,-25.095,1.085
48026950,-0.849,0.173,0.363,40.39,-43.89,-0.507
48026960,-0.968,0.221,0.439,49.507,-48.877,-4.725
48026970,-0.836,0.407,0.637,45.797,-54.862,-10.815
48026980,-0.949,0.401,0.641,15.19,-38.045,-9.31
48026990,-0.853,0.15,0.537,-13.72,-16.957,-5.635
48027000,-0.739,0.124,0.523,-15.365,-6.947,0.35
48027010,-0.61,0.222,0.597,-14.7,-0.35,4.095
48027020,-0.647,0.215,0.636,-19.39,22.12,11.672
48027030,-0.876,0.221,0.579,-26.897,47.862,22.61
48027040,-0.812,0.255,0.553,-34.702,48.072,20.335
48027050,-0.783,0.272,0.545,-43.12,47.215,19.985
48027060,-0.883,0.307,0.51,-52.027,46.76,22.26
48027070,-0.879,0.221,0.431,-59.342,40.25,18.69
48027080,-0.887,0.124,0.354,-55.405,31.307,15.872
48027090,-0.946,0.103,0.296,-41.335,22.347,16.03
48027100,-0.913,0.136,0.281,-23.502,8.365,14.752
48027110,-0.977,0.15,0.333,-10.587,1.067,12.88
48027120,-1.034,0.086,0.316,-2.38,-2.712,8.575
48027130,-1.064,0.065,0.259,9.975,-12.722,4.76
48027140,-0.915,0.197,0.321,23.432,-36.907,0.507
48027150,-0.936,0.22,0.412,27.79,-45.22,-3.307
48027160,-0.96,0.239,0.518,26.897,-41.282,-10.097
48027170,-0.941,0.272,0.562,19.897,-33.53,-12.32
48027170,-0.861,0.199,0.492,7.682,-24.307,-12.845
48027190,-0.737,0.176,0.476,2.695,-22.522,-11.095
48027190,-0.8,0.188,0.52,-1.855,-16.555,-4.182
48027210,-0.801,0.204,0.556,-7.752,-7.017,0.157
48027210,-0.823,0.205,0.529,-13.807,3.342,2.555
48027230,-0.769,0.228,0.529,-16.555,7.927,4.095
48027230,-0.81,0.259,0.543,-21.892,17.027,10.622
48027250,-0.872,0.243,0.528,-29.872,30.695,15.4
48027250,-0.829,0.184,0.476,-35.577,34.09,15.925
48027260,-0.83,0.146,0.414,-35.49,32.602,17.447
48027270,-0.875,0.164,0.4,-30.03,28.822,19.162
48027280,-0.926,0.167,0.41,-24.15,22.75,18.55
48027290,-0.935,0.159,0.39,-18.672,18.13,16.38
48027300,-0.942,0.127,0.366,-11.69,11.34,12.582
48027310,-0.877,0.096,0.322,0.28,4.357,9.8
48027320,-0.958,0.094,0.325,13.212,-1.872,9.782
48027330,-1.08,0.12,0.345,20.895,-11.182,7.682
48027340,-0.961,0.15,0.369,30.432,-30.8,1.26
48027350,-0.967,0.201,0.396,41.247,-44.817,-4.655
48027360,-0.96,0.214,0.414,50.015,-56.087,-12.792
48027370,-0.861,0.341,0.545,55.125,-61.862,-22.242
48027380,-0.822,0.411,0.626,36.855,-50.05,-24.377
48027390,-0.92,0.3,0.529,5.145,-27.597,-15.505
48027400,-0.69,0.189,0.515,-12.547,-16.31,-10.36
48027410,-0.67,0.192,0.588,-17.937,-2.712,-6.177
48027420,-0.654,0.201,0.599,-20.16,13.667,-0.91
48027430,-0.724,0.322,0.62,-26.442,36.942,7.332
48027440,-0.923,0.347,0.589,-46.725,56.21,14.56
48027450,-0.903,0.302,0.548,-65.502,64.33,15.137
48027460,-0.92,0.187,0.463,-76.282,65.135,11.27
48027470,-0.891,0.076,0.357,-70.455,55.23,8.172
48027480,-0.85,0.118,0.323,-52.255,37.012,7.805
48027490,-0.912,0.147,0.315,-36.54,21.98,7.315
48027500,-0.961,0.158,0.314,-23.992,11.305,4.882
48027510,-0.965,0.167,0.279,-10.797,1.907,2.537
48027510,-0.933,0.072,0.258,-0.035,-4.672,0.052
48027530,-1.045,0.014,0.291,13.16,-13.667,0.262
48027530,-0.932,0.106,0.35,28.542,-34.545,-0.98
48027550,-0.965,0.229,0.411,32.445,-48.352,-3.395
48027550,-1.014,0.171,0.445,23.607,-51.695,-12.057
48027570,-0.981,0.221,0.467,18.217,-56.017,-19.6
48027570,-0.79,0.23,0.536,5.88,-56.472,-22.137
48027580,-0.89,0.137,0.522,-10.605,-42.49,-15.68
48027590,-0.844,0.174,0.519,-15.575,-26.897,-7.052
48027600,-0.834,0.195,0.506,-25.69,-17.675,-2.345
48027610,-0.74,0.119,0.551,-30.31,-11.445,-2.59
48027620,-0.72,0.132,0.557,-22.26,0.56,4.06
48027630,-0.66,0.176,0.656,-17.045,17.01,12.057
48027640,-0.684,0.158,0.603,-18.252,44.222,18.672
48027650,-0.728,0.265,0.565,-21.227,64.015,26.705
48027660,-0.869,0.201,0.472,-33.565,70.927,30.642
48027670,-0.943,0.198,0.36,-32.637,63.665,31.377
48027680,-1.025,0.206,0.31,-28.56,47.617,27.58
48027690,-1.1,0.224,0.308,-23.835,28.735,19.145
48027700,-1.043,0.172,0.312,-20.457,9.012,9.17
48027710,-0.982,0.18,0.312,-12.495,-6.772,1.925
48027720,-0.822,0.066,0.362,-5.267,-22.855,-1.19
48027730,-0.806,0.076,0.431,5.722,-16.362,3.027
48027740,-0.929,0.155,0.472,6.825,-8.47,5.197
48027750,-0.924,0.077,0.438,0.052,-3.762,3.167
48027760,-0.971,0.119,0.361,3.272,-6.615,3.885
48027770,-0.872,0.185,0.38,8.837,-23.782,0.105
48027780,-0.95,0.236,0.45,12.722,-33.88,-3.15
48027790,-0.996,0.282,0.493,9.747,-38.412,-9.257
48027800,-0.946,0.252,0.479,-1.435,-38.08,-16.397
48027810,-0.909,0.158,0.455,-9.432,-30.765,-18.882
48027820,-0.826,0.148,0.466,-10.552,-27.212,-15.312
48027830,-0.784,0.144,0.527,-11.602,-19.897,-9.87
48027840,-0.812,0.161,0.561,-13.72,-9.187,-4.392
48027850,-0.768,0.183,0.561,-14.98,-0.84,-2.38
48027860,-0.719,0.179,0.591,-16.555,10.727,3.552
48027870,-0.85,0.224,0.549,-22.907,28.665,13.16
48027880,-0.791,0.243,0.553,-31.045,39.637,15.61
48027890,-0.833,0.225,0.491,-40.81,46.55,16.607
48027900,-0.92,0.173,0.41,-44.59,45.57,17.745
48027910,-0.907,0.091,0.326,-40.792,33.022,16.117
48027920,-0.924,0.13,0.318,-26.302,20.352,14.997
48027920,-0.944,0.124,0.305,-16.222,8.365,13.002
48027940,-0.911,0.091,0.297,-3.692,-1.61,12.11
48027940,-0.919,0.096,0.326,7.157,-8.855,13.125
48027960,-0.973,0.053,0.363,10.99,-11.952,13.02
48027960,-0.994,-0.013,0.35,15.82,-14.91,12.897
48027980,-1.014,0.011,0.336,26.722,-28.542,10.885
48027980,-0.83,0.094,0.36,47.845,-57.102,9.502
48028000,-0.812,0.375,0.552,53.532,-60.077,10.727
48028000,-1.098,0.393,0.602,25.042,-49.63,1.435
48028010,-1.043,0.205,0.504,-5.845,-39.987,-7.612
48028020,-0.86,0.105,0.435,-16.397,-32.847,-7.63
48028030,-0.777,0.154,0.48,-15.837,-24.045,-1.802
48028040,-0.784,0.19,0.553,-16.152,-14.647,1.225
48028050,-0.639,0.19,0.656,-14.647,1.557,4.375
48028060,-0.754,0.236,0.625,-19.635,34.72,15.417
48028070,-0.777,0.273,0.574,-29.382,58.712,22.627
48028080,-0.912,0.174,0.427,-43.032,61.39,26.04
48028090,-0.911,0.086,0.329,-41.037,45.64,26.407
48028100,-0.875,0.183,0.35,-25.585,25.55,29.242
48028110,-0.992,0.172,0.347,-18.322,12.442,21.682
48028120,-0.954,0.134,0.356,-8.715,0.052,10.5
48028130,-0.887,0.149,0.351,3.587,-12.425,5.53
48028140,-0.845,0.137,0.423,10.832,-19.145,6.51
48028150,-0.933,0.083,0.424,11.83,-18.375,8.4
48028160,-0.939,0.094,0.359,16.537,-22.242,9.537
48028170,-0.859,0.158,0.362,21.945,-36.767,7.962
48028180,-0.961,0.22,0.437,31.272,-45.237,7.735
48028190,-0.989,0.294,0.474,33.46,-52.465,1.907
48028200,-0.967,0.316,0.51,24.92,-55.177,-6.51
48028210,-0.976,0.283,0.495,13.685,-51.695,-13.247
48028220,-0.856,0.221,0.505,5.442,-51.362,-17.395
48028230,-0.764,0.197,0.531,3.412,-44.187,-14.735
48028240,-0.722,0.15,0.556,1.557,-31.552,-9.38
48028250,-0.75,0.169,0.585,0.752,-15.89,-3.237
48028260,-0.719,0.209,0.615,-0.98,-6.282,1.347
48028260,-0.678,0.261,0.615,-5.46,5.757,5.022
48028280,-0.698,0.261,0.606,-14.07,27.02,11.252
48028280,-0.866,0.163,0.511,-24.045,49.595,16.52
48028300,-0.858,0.155,0.472,-23.24,51.327,19.477
48028300,-0.916,0.16,0.401,-18.375,43.05,22.96
48028320,-0.945,0.157,0.348,-13.755,27.055,23.677
48028320,-0.893,0.127,0.34,-6.002,5.967,23.887
48028330,-0.876,0.175,0.391,6.527,-6.615,25.882
48028340,-0.943,0.246,0.453,11.427,-11.235,24.342
48028350,-0.916,0.245,0.468,12.267,-14.962,14.122
48028360,-0.917,0.254,0.502,17.955,-17.71,4.795
48028370,-0.903,0.217,0.474,16.94,-17.412,0.157
48028380,-0.927,0.184,0.45,19.67,-18.2,-2.52
48028390,-0.951,0.179,0.362,26.005,-26.32,-8.505
48028400,-0.841,0.273,0.393,38.132,-51.467,-16.152
48028410,-0.945,0.316,0.464,43.767,-62.3,-21.857
48028420,-0.854,0.343,0.586,36.82,-67.287,-30.275
48028430,-0.868,0.319,0.613,14.997,-56,-28.192
48028440,-0.838,0.146,0.563,-3.85,-38.657,-21.402
48028450,-0.702,0.118,0.556,-5.46,-26.442,-12.827
48028460,-0.677,0.164,0.594,-3.972,-13.737,-5.967
48028470,-0.711,0.194,0.592,-5.67,-1.505,-3.272
48028480,-0.704,0.249,0.589,-6.457,4.812,2.992
48028490,-0.643,0.285,0.625,-10.85,18.025,10.43
48028500,-0.813,0.282,0.616,-20.195,43.19,16.257
48028510,-0.857,0.279,0.595,-26.512,58.03,15.365
48028520,-0.859,0.289,0.533,-30.695,56.717,14.297
48028530,-0.938,0.259,0.423,-36.032,45.255,11.69
48028540,-0.888,0.153,0.357,-33.407,26.197,9.275
48028550,-0.875,0.122,0.334,-21.28,13.912,8.085
48028560,-0.865,0.155,0.386,-8.505,4.83,7.49
48028570,-0.878,0.127,0.384,0.332,-1.435,6.965
48028580,-0.848,0.123,0.414,12.215,-6.93,4.777
48028590,-0.955,0.122,0.45,18.305,-9.082,3.517
48028600,-1.015,0.104,0.437,21.472,-13.037,3.692
48028610,-0.942,0.139,0.371,27.912,-24.272,-0.402
48028620,-0.918,0.256,0.439,39.462,-44.362,-7.227
48028630,-0.913,0.327,0.524,45.587,-51.642,-14.087
48028640,-0.896,0.39,0.569,42.105,-53.952,-23.537
48028650,-0.761,0.363,0.631,23.73,-48.982,-28.297
48028660,-0.827,0.211,0.581,0.98,-27.352,-20.79
48028670,-0.768,0.173,0.561,-6.09,-15.487,-12.652
48028670,-0.655,0.191,0.603,-7.07,-6.772,-6.44
48028690,-0.71,0.19,0.588,-6.912,7.21,-3.272
48028690,-0.666,0.263,0.592,-5.652,16.572,1.47
48028710,-0.636,0.306,0.646,-11.585,36.312,8.277
48028710,-0.874,0.332,0.627,-23.467,64.977,15.907
48028730,-0.9,0.295,0.565,-36.785,76.965,13.615
48028730,-0.921,0.249,0.45,-44.52,77.787,9.747
48028750,-0.995,0.188,0.312,-45.937,65.712,6.965
48028750,-0.919,0.053,0.247,-38.36,44.765,1.82
48028760,-0.853,0.057,0.292,-15.522,28.595,1.732
48028770,-0.885,0.054,0.298,0.14,13.51,4.427
48028780,-0.785,0.073,0.308,17.675,-0.805,7.647
48028790,-0.929,0.07,0.38,25.882,-3.272,11.13
48028800,-1.11,0.082,0.403,27.842,-8.89,11.602
48028810,-1.021,0.126,0.413,33.285,-26.74,7.787
48028820,-0.902,0.23,0.435,42.385,-47.547,3.272
48028830,-0.854,0.33,0.503,44.362,-54.88,-3.587
48028840,-0.885,0.388,0.515,33.005,-60.935,-8.75
48028850,-0.825,0.368,0.566,19.722,-59.097,-14.122
48028860,-0.865,0.288,0.56,6.422,-43.732,-12.565
48028870,-0.796,0.262,0.552,0.332,-30.31,-9.24
48028880,-0.728,0.224,0.587,-4.69,-16.555,-8.085
48028890,-0.773,0.216,0.594,-8.085,-2.1,-5.915
48028900,-0.725,0.246,0.57,-9.52,5.075,-2.415
48028910,-0.735,0.269,0.575,-13.895,15.102,-0.105
48028920,-0.789,0.268,0.59,-21.262,31.202,4.2
48028930,-0.849,0.25,0.558,-27.335,49.612,6.79
48028940,-0.868,0.262,0.51,-36.295,54.862,6.352
48028950,-0.94,0.194,0.391,-42.35,51.765,7.157
48028960,-0.988,0.1,0.319,-39.34,39.602,7.157
48028970,-0.895,0.056,0.292,-25.9,22.592,6.772
48028980,-0.886,0.112,0.326,-7.122,8.977,7.91
48028990,-0.844,0.081,0.293,3.902,-7.21,7.892
48029000,-0.823,0.101,0.362,17.237,-17.237,11.672
48029010,-1.065,0.104,0.36,22.207,-24.57,14.07
48029010,-0.894,0.175,0.411,28.84,-45.237,11.48
48029030,-0.84,0.346,0.542,31.08,-56.175,11.48
48029030,-0.988,0.379,0.574,16.66,-53.97,4.935
48029050,-0.909,0.345,0.589,0.805,-50.942,-4.917
48029050,-0.864,0.225,0.569,-8.995,-37.695,-8.452
48029070,-0.809,0.198,0.511,-7.805,-25.69,-3.797
48029070,-0.735,0.237,0.526,-5.46,-19.985,0.052
48029080,-0.78,0.23,0.539,-8.137,-13.177,0.332
48029090,-0.762,0.21,0.525,-9.415,-5.477,0.682
48029100,-0.816,0.278,0.54,-7.507,1.855,2.292
48029110,-0.814,0.302,0.619,-11.007,10.517,1.715
48029120,-0.818,0.218,0.596,-16.572,29.487,1.05
48029130,-0.773,0.236,0.535,-23.222,39.2,4.235
48029140,-0.865,0.199,0.477,-30.992,35.017,9.397
48029150,-0.86,0.105,0.38,-32.217,25.917,13.422
48029160,-0.882,0.124,0.344,-21.612,15.207,18.095
48029170,-0.9,0.131,0.331,-10.325,0.122,16.082
48029180,-0.867,0.109,0.315,4.76,-12.915,11.882
48029190,-0.925,0.2,0.425,18.427,-17.552,10.85
48029200,-1.011,0.164,0.47,17.307,-23.222,8.295
48029210,-0.976,0.092,0.394,19.39,-32.69,6.65
48029220,-0.831,0.202,0.433,29.26,-50.417,4.952
48029230,-0.886,0.321,0.535,34.65,-58.31,1.067
48029240,-0.915,0.35,0.565,28.525,-60.9,-6.65
48029250,-0.859,0.361,0.554,19.32,-62.86,-13.702
48029260,-0.77,0.346,0.624,5.652,-57.26,-17.552
48029270,-0.829,0.232,0.593,-7.525,-42.192,-16.222
48029280,-0.706,0.18,0.589,-8.137,-31.552,-10.465
48029290,-0.663,0.247,0.63,-7.07,-16.852,-4.147
48029300,-0.706,0.171,0.591,-13.405,-0.77,-3.29
48029310,-0.7,0.197,0.564,-9.502,11.41,0.28
48029320,-0.745,0.287,0.59,-7.21,21.367,4.217
48029330,-0.833,0.268,0.607,-13.615,35.105,4.795
48029340,-0.831,0.226,0.558,-17.85,44.38,5.11
48029350,-0.796,0.285,0.538,-21.805,46.952,8.242
48029360,-0.908,0.223,0.469,-29.47,44.695,8.592
48029370,-0.902,0.184,0.433,-29.102,34.02,8.085
48029380,-0.824,0.115,0.398,-21.717,24.08,6.877
48029390,-0.864,0.168,0.416,-9.555,18.27,6.86
48029400,-0.908,0.153,0.397,-2.835,10.045,6.527
48029410,-0.891,0.127,0.399,5.092,-1.067,5.145
48029420,-0.919,0.145,0.453,13.597,-9.467,4.795
48029420,-0.965,0.154,0.491,15.365,-14.945,3.587
48029430,-1.005,0.121,0.424,17.815,-19.635,1.61
48029440,-0.887,0.157,0.386,25.83,-38.447,-4.095
48029450,-0.901,0.287,0.47,38.797,-55.755,-7.77
48029460,-0.929,0.324,0.516,41.405,-65.59,-17.15
48029470,-0.794,0.4,0.61,35.367,-71.102,-26.652
48029480,-0.815,0.363,0.666,13.142,-57.68,-28.245
48029490,-0.741,0.172,0.571,-7.07,-38.535,-22.452
48029500,-0.678,0.173,0.598,-7.455,-22.75,-14.122
48029510,-0.637,0.211,0.645,-7.437,-7.63,-9.765
48029520,-0.733,0.211,0.628,-10.727,7.612,-5.827
48029530,-0.728,0.257,0.593,-12.897,16.327,-1.295
48029540,-0.683,0.282,0.639,-16.8,26.967,0.367
48029550,-0.778,0.272,0.619,-25.41,47.11,5.267
48029560,-0.75,0.247,0.61,-31.85,63.857,9.327
48029570,-0.829,0.237,0.547,-38.395,69.177,10.85
48029580,-0.929,0.199,0.433,-41.247,60.62,9.975
48029590,-0.897,0.133,0.344,-35.647,42.227,8.382
48029600,-0.884,0.125,0.343,-22.015,28.052,6.457
48029610,-0.911,0.139,0.358,-8.452,18.952,3.902
48029620,-0.962,0.091,0.326,2.765,6.615,1.977
48029630,-0.926,0.057,0.322,15.295,-8.382,1.225
48029640,-1.037,0.018,0.323,27.632,-19.092,2.695
48029650,-1.033,0.117,0.362,41.37,-37.712,1.837
48029660,-1.022,0.244,0.427,51.38,-61.32,-5.04
48029670,-0.999,0.295,0.504,53.9,-74.2,-18.2
48029680,-0.878,0.394,0.612,46.287,-84.035,-31.027
48029690,-0.778,0.328,0.624,25.41,-81.392,-36.855
48029700,-0.615,0.228,0.651,7.962,-64.172,-32.13
48029710,-0.667,0.172,0.622,-3.15,-40.425,-19.95
48029720,-0.673,0.159,0.647,-2.992,-18.655,-11.602
48029730,-0.683,0.222,0.664,-4.042,-3.29,-4.602
48029740,-0.721,0.217,0.63,-11.182,4.9,-0.315
48029750,-0.646,0.218,0.622,-14.752,10.185,4.007
48029760,-0.663,0.234,0.67,-18.287,26.565,10.867
48029760,-0.778,0.232,0.653,-24.57,52.15,20.37
48029780,-0.8,0.246,0.617,-30.467,69.072,23.992
48029780,-0.899,0.18,0.475,-35.822,70.91,22.155
48029800,-0.956,0.134,0.362,-30.31,53.427,20.282
48029800,-0.883,0.166,0.342,-19.32,27.737,18.13
48029820,-0.871,0.168,0.384,-9.8,16.537,15.137
48029820,-0.919,0.168,0.402,-1.032,8.995,11.27
48029830,-0.879,0.145,0.399,7.175,-1.365,7.507
48029840,-0.912,0.161,0.471,13.632,-7.262,6.09
48029850,-0.966,0.164,0.499,13.545,-10.15,4.375
48029860,-1.001,0.147,0.422,14.262,-14.91,2.345
48029870,-0.927,0.205,0.392,19.145,-33.302,-3.727
48029880,-0.953,0.253,0.451,26.057,-54.162,-11.34
48029890,-0.956,0.237,0.484,31.885,-63.35,-21.437
48029900,-0.859,0.333,0.564,34.405,-70.857,-30.17
48029910,-0.776,0.336,0.644,19.635,-63.892,-34.615
48029920,-0.733,0.229,0.643,-1.015,-42.385,-30.45
48029930,-0.718,0.191,0.644,-12.757,-18.357,-16.992
48029940,-0.686,0.188,0.669,-18.375,-5.46,-10.36
48029950,-0.539,0.186,0.705,-19.302,7.385,-6.44
48029960,-0.591,0.238,0.714,-21.402,34.16,3.692
48029970,-0.761,0.272,0.709,-30.38,63.49,14.525
48029980,-0.773,0.251,0.618,-44.992,73.797,14.997
48029990,-0.837,0.13,0.465,-51.047,73.587,15.05
48030000,-0.862,0.071,0.345,-43.4,61.162,15.33
48030010,-0.852,0.087,0.29,-26.407,43.05,16.66
48030020,-0.971,0.166,0.315,-8.662,26.985,17.99
48030030,-0.977,0.156,0.32,1.295,8.417,12.32
48030040,-0.92,0.104,0.354,11.077,-4.882,7.682
48030050,-0.99,0.114,0.435,18.532,-8.645,5.775
48030060,-1.035,0.11,0.438,20.195,-13.895,2.817
48030070,-0.975,0.099,0.349,25.655,-31.745,-3.622
48030080,-0.816,0.235,0.462,39.935,-53.095,-8.802
48030090,-0.946,0.294,0.567,40.967,-55.65,-13.825
48030100,-0.918,0.322,0.586,29.015,-63.175,-20.107
48030110,-0.774,0.273,0.611,14.49,-58.467,-23.292
48030120,-0.738,0.181,0.59,2.292,-40.775,-21.262
48030120,-0.742,0.174,0.608,-0.105,-24.097,-13.002
48030140,-0.745,0.173,0.626,-3.57,-12.81,-6.825
48030140,-0.743,0.187,0.628,-6.86,-5.6,-2.17
48030160,-0.722,0.203,0.612,-10.08,0.507,0.962
48030160,-0.74,0.213,0.588,-12.67,8.33,3.202
48030170,-0.702,0.235,0.614,-14.962,17.325,6.247
48030180,-0.82,0.239,0.635,-21.245,36.872,13.282
48030190,-0.897,0.181,0.569,-28.717,47.145,16.537
48030200,-0.763,0.196,0.512,-29.977,42.227,17.22
48030210,-0.938,0.154,0.401,-30.695,37.607,16.905
48030220,-0.974,0.081,0.3,-24.045,18.672,15.172
48030230,-0.887,0.101,0.307,-6.212,-3.167,12.092
48030240,-0.854,0.145,0.375,9.572,-13.772,9.975
48030250,-0.953,0.101,0.392,20.072,-19.127,8.575
48030260,-0.894,0.158,0.458,29.89,-27.44,5.88
48030270,-0.946,0.097,0.46,34.352,-27.352,2.467
48030280,-0.992,0.143,0.446,43.995,-36.085,-1.435
48030290,-0.839,0.298,0.544,55.282,-58.187,-10.167
48030300,-0.796,0.432,0.665,48.737,-65.747,-14.822
48030310,-0.896,0.345,0.649,25.252,-57.732,-18.9
48030320,-0.776,0.226,0.609,7.105,-50.365,-20.65
48030330,-0.699,0.166,0.582,2.152,-35.525,-17.062
48030340,-0.733,0.167,0.595,2.065,-20.65,-12.407
48030350,-0.744,0.222,0.646,-0.525,-9.415,-4.217
48030360,-0.782,0.2,0.633,-9.835,-2.52,-1.68
48030370,-0.693,0.164,0.601,-14.63,2.082,-0.787
48030380,-0.72,0.224,0.572,-15.767,9.275,2.52
48030390,-0.721,0.241,0.631,-17.99,17.5,5.337
48030400,-0.805,0.222,0.649,-24.325,35.63,10.132
48030410,-0.818,0.218,0.622,-28.892,50.295,10.587
48030420,-0.789,0.225,0.558,-37.467,51.45,10.517
48030430,-0.898,0.182,0.475,-42.437,45.745,12.6
48030440,-0.873,0.114,0.401,-41.002,33.565,14.14
48030450,-0.876,0.107,0.432,-30.187,25.865,16.467
48030460,-0.812,0.151,0.432,-21.052,20.037,17.185
48030470,-0.895,0.115,0.398,-10.867,14.822,14.42
48030480,-0.9,0.1,0.348,3.902,3.482,8.085
48030490,-0.888,0.165,0.422,18.235,-6.527,5.775
48030500,-0.971,0.142,0.482,20.947,-8.977,3.535
48030510,-1.012,0.108,0.486,24.972,-12.057,1.995
48030510,-0.918,0.114,0.412,32.795,-30.537,-6.58
48030530,-0.713,0.285,0.494,47.775,-48.807,-10.64
48030530,-0.841,0.395,0.603,43.4,-54.005,-15.085
48030550,-0.867,0.354,0.677,23.415,-53.427,-17.517
48030550,-0.848,0.28,0.678,5.53,-38.832,-16.432
48030570,-0.79,0.152,0.582,-5.197,-23.52,-14.332
48030570,-0.702,0.182,0.584,-3.85,-9.992,-8.155
48030580,-0.722,0.219,0.594,-6.037,3.15,-3.937
48030590,-0.766,0.197,0.607,-9.8,4.987,-2.17
48030600,-0.562,0.231,0.664,-9.537,8.452,4.952
48030610,-0.756,0.283,0.684,-17.587,36.522,14.805
48030620,-0.768,0.27,0.662,-31.132,57.925,16.537
48030630,-0.837,0.251,0.584,-42.542,68.862,16.152
48030640,-0.944,0.215,0.477,-50.015,65.415,13.615
48030650,-0.92,0.098,0.374,-47.565,52.272,10.412
48030660,-0.896,0.059,0.314,-32.497,37.905,9.275
48030670,-0.909,0.088,0.273,-13.755,19.81,7.857
48030680,-0.826,0.088,0.244,3.5,1.067,7.035
48030690,-0.898,0.096,0.302,20.755,-7.945,6.615
48030700,-0.992,0.079,0.465,28.647,-11.742,4.83
48030710,-1.064,0.076,0.48,33.617,-21.315,2.625
48030720,-0.786,0.203,0.522,41.667,-39.76,-1.977
48030730,-0.829,0.197,0.56,42.367,-38.395,-7.035
48030740,-0.754,0.288,0.579,38.727,-43.977,-6.107
48030750,-0.789,0.369,0.627,28.42,-40.477,-2.957
48030760,-0.905,0.323,0.636,6.965,-28.787,-6.387
48030770,-0.926,0.231,0.575,-2.275,-15.802,-7.805
48030780,-0.807,0.244,0.516,-6.09,-15.522,-9.625
48030790,-0.744,0.197,0.552,-10.657,-11.952,-8.47
48030800,-0.789,0.172,0.555,-12.285,-8.015,-4.917
48030810,-0.743,0.228,0.584,-9.87,-4.34,-0.752
48030820,-0.759,0.273,0.629,-13.195,4.427,0.875
48030830,-0.87,0.236,0.608,-22.015,20.58,1.96
48030830,-0.783,0.244,0.595,-29.277,32.2,0.752
48030850,-0.829,0.223,0.546,-36.925,42.087,1.032
48030850,-0.92,0.178,0.484,-42.962,43.172,2.082
48030870,-0.91,0.113,0.413,-40.32,35.822,1.085
48030870,-0.869,0.086,0.376,-30.537,27.72,0.28
48030890,-0.888,0.044,0.348,-19.022,17.937,1.785
48030890,-0.855,0.057,0.314,-5.25,5.495,5.6
48030910,-0.813,-0.003,0.239,11.042,-8.715,7.49
48030910,-0.76,-0.039,0.26,34.597,-14.682,9.957
48030920,-0.911,0.01,0.373,53.322,-10.902,18.025
48030930,-1.167,-0.03,0.405,62.877,-15.575,17.657
48030940,-0.84,0.188,0.466,81.217,-46.077,7.49
48030950,-0.741,0.364,0.62,93.87,-51.502,0.927
48030960,-0.875,0.519,0.775,75.25,-44.1,-8.067
48030970,-0.937,0.521,0.799,38.745,-31.972,-8.907
48030980,-0.954,0.284,0.625,1.785,-18.182,-14.07
48030990,-0.849,0.183,0.548,-9.712,-11.725,-14.7
48031000,-0.743,0.231,0.567,-10.5,-8.732,-12.302
48031010,-0.737,0.225,0.571,-12.985,-5.775,-8.592
48031020,-0.663,0.254,0.572,-15.54,-3.465,-2.817
48031030,-0.577,0.292,0.584,-21.805,10.937,3.727
48031040,-0.839,0.265,0.572,-31.902,39.41,9.415
48031050,-0.928,0.258,0.546,-39.83,47.652,7.822
48031060,-0.978,0.22,0.504,-43.26,40.967,7.595
48031070,-0.977,0.223,0.458,-43.295,28.542,6.492
48031080,-0.939,0.168,0.436,-40.862,16.677,4.532
48031090,-0.879,0.064,0.377,-36.715,8.155,2.397
48031100,-0.73,0.094,0.343,-18.305,-2.45,-0.35
48031110,-0.716,0.108,0.341,0.63,-5.88,1.137
48031120,-0.758,0.069,0.315,16.047,-11.27,2.922
48031130,-0.78,0.112,0.37,33.075,-16.292,13.195
48031140,-1.008,0.17,0.446,39.672,-21.647,19.67
48031150,-1.083,0.198,0.504,41.772,-32.602,18.357
48031160,-1.21,0.099,0.496,41.125,-53.025,6.965
48031170,-0.752,0.261,0.507,50.47,-83.755,-4.287
48031180,-0.656,0.437,0.623,48.475,-74.83,-3.482
48031190,-0.901,0.387,0.642,17.395,-54.67,-5.687
48031200,-0.921,0.252,0.634,-2.275,-45.01,-5.81
48031210,-0.832,0.213,0.569,-13.685,-43.417,-4.672
48031220,-0.7,0.174,0.55,-15.942,-40.652,-3.482
48031230,-0.699,0.174,0.579,-14.455,-31.377,-0.21
48031240,-0.706,0.195,0.628,-12.915,-22.137,2.695
48031250,-0.708,0.253,0.661,-12.547,-12.985,3.36
48031260,-0.737,0.289,0.671,-16.222,-2.187,1.137
48031260,-0.681,0.304,0.636,-20.877,5.915,-0.84
48031280,-0.683,0.282,0.602,-24.692,26.355,3.92
48031280,-0.863,0.206,0.52,-30.292,40.04,4.112
48031300,-0.782,0.191,0.521,-24.272,37.905,6.055
48031300,-0.784,0.276,0.534,-17.15,38.132,10.027
48031320,-0.881,0.223,0.518,-20.86,34.825,7.21
48031320,-0.848,0.156,0.48,-20.02,23.327,3.29
48031330,-0.828,0.137,0.455,-11.795,13.23,3.64
48031340,-0.851,0.119,0.427,-2.187,5.127,3.132
48031350,-0.823,0.157,0.424,12.075,-3.885,2.257
48031360,-0.861,0.17,0.442,21.84,-9.572,2.817
48031370,-0.94,0.136,0.46,24.92,-12.11,2.047
48031380,-0.92,0.136,0.48,30.012,-15.75,0.577
48031390,-0.922,0.106,0.461,33.232,-18.007,-2.625
48031400,-1.08,-0.013,0.456,38.517,-32.725,-7.717
48031410,-0.668,0.161,0.461,59.675,-64.137,-11.725
48031420,-0.576,0.376,0.597,69.142,-58.135,-10.535
48031430,-0.867,0.435,0.709,39.865,-35.91,-11.62
48031440,-1.072,0.354,0.68,12.827,-24.447,-8.855
48031450,-0.88,0.299,0.646,-4.322,-21.245,-12.985
48031460,-0.804,0.241,0.628,-15.925,-16.94,-16.607
48031470,-0.752,0.215,0.611,-19.092,-16.887,-16.17
48031480,-0.646,0.24,0.625,-16.135,-15.925,-8.977
48031490,-0.56,0.302,0.623,-14.875,-10.36,-4.462
48031500,-0.498,0.353,0.633,-17.237,12.145,3.71
48031510,-0.698,0.271,0.6,-29.697,44.275,7.472
48031520,-0.746,0.221,0.58,-31.745,59.587,9.222
48031530,-0.845,0.244,0.562,-29.12,64.557,12.407
48031540,-0.976,0.119,0.475,-29.697,52.78,6.877
48031550,-0.818,0.139,0.455,-15.592,35.192,4.165
48031560,-0.933,0.124,0.41,-2.1,22.557,4.392
48031570,-0.887,0.053,0.308,6.58,0.962,0.542
48031580,-0.764,0.082,0.345,27.352,-10.605,4.217
48031580,-0.949,0.114,0.416,37.432,-10.902,7.017
48031600,-1.045,0.053,0.459,44.397,-18.427,5.355
48031600,-1.006,0.119,0.397,55.72,-46.007,-2.765
48031620,-0.644,0.23,0.508,72.677,-63.612,-7.98
48031620,-0.902,0.347,0.633,75.897,-48.37,-13.86
48031640,-0.97,0.455,0.689,56.402,-45.237,-19.267
48031640,-0.957,0.325,0.623,29.662,-40.267,-23.537
48031660,-0.822,0.245,0.547,13.492,-38.727,-24.762
48031660,-0.68,0.214,0.569,8.802,-32.795,-18.69
48031670,-0.731,0.199,0.607,5.915,-20.877,-13.51
48031680,-0.678,0.256,0.676,3.71,-15.382,-10.657
48031690,-0.648,0.302,0.707,-3.832,-9.362,-5.18
48031700,-0.542,0.333,0.68,-13.352,0.157,2.205
48031710,-0.52,0.382,0.674,-24.605,31.5,15.942
48031720,-0.806,0.244,0.567,-42.192,58.782,19.337
48031730,-0.786,0.193,0.502,-37.047,64.19,18.76
48031740,-0.917,0.244,0.453,-25.672,57.12,20.387
48031750,-0.897,0.143,0.386,-19.757,39.847,16.782
48031760,-0.768,0.112,0.375,-2.03,24.202,15.557
48031770,-0.84,0.088,0.364,16.957,14.28,18.217
48031780,-0.785,0.17,0.409,33.985,0.91,18.41
48031790,-0.971,0.25,0.536,43.365,-3.517,16.502
48031800,-1.066,0.245,0.553,38.71,-11.917,9.922
48031810,-1.097,0.087,0.507,37.135,-25.41,0.402
48031820,-0.655,0.297,0.543,49.997,-48.352,-10.29
48031830,-0.897,0.439,0.627,48.09,-39.147,-10.465
48031840,-0.956,0.375,0.571,22.942,-37.117,-15.96
48031850,-0.811,0.233,0.502,10.517,-32.375,-16.362
48031860,-0.802,0.214,0.485,6.65,-26.25,-16.082
48031870,-0.686,0.275,0.579,5.565,-19.897,-12.18
48031880,-0.806,0.248,0.634,-1.872,-7.63,-8.347
48031890,-0.716,0.247,0.641,-6.125,-6.265,-6.545
48031900,-0.611,0.328,0.623,-6.055,-1.54,-1.942
48031910,-0.647,0.427,0.629,-14.07,17.92,4.847
48031920,-0.889,0.281,0.564,-29.907,33.81,6.002
48031930,-0.765,0.238,0.541,-29.557,38.57,7.647
48031940,-0.837,0.268,0.503,-26.775,38.657,9.765
48031950,-0.861,0.14,0.421,-26.757,30.31,9.327
48031960,-0.853,0.135,0.464,-12.897,20.947,9.065
48031970,-0.789,0.17,0.466,-0.297,8.662,5.845
48031980,-0.799,0.157,0.436,11.83,2.345,5.88
48031990,-0.914,0.19,0.42,20.23,-4.707,5.862
48032000,-0.983,0.173,0.429,26.407,-13.405,4.637
48032010,-0.971,0.136,0.416,32.462,-22.05,1.505
48032010,-1.123,0.013,0.371,43.697,-38.955,-5.477
48032030,-0.696,0.22,0.479,70,-74.41,-14.787
48032030,-0.839,0.458,0.651,80.517,-74.042,-16.765
48032050,-0.945,0.537,0.658,50.75,-72.117,-23.8
48032050,-0.74,0.392,0.595,14.07,-60.497,-23.205
48032070,-0.679,0.246,0.512,-8.627,-32.987,-18.095
48032070,-0.718,0.269,0.603,-14.402,-12.967,-14.402
48032080,-0.732,0.272,0.7,-17.01,-3.815,-9.292
48032090,-0.649,0.308,0.712,-20.72,-0.84,-2.572
48032100,-0.432,0.387,0.701,-23.24,15.732,3.132
48032110,-0.704,0.352,0.665,-32.83,51.625,9.415
48032120,-0.845,0.277,0.572,-41.247,64.89,10.29
48032130,-0.816,0.29,0.524,-41.177,63.21,12.425
48032140,-0.927,0.221,0.435,-42.175,53.497,11.497
48032150,-0.888,0.141,0.403,-35.07,38.202,7.455
48032160,-0.947,0.106,0.394,-19.355,18.252,5.04
48032170,-0.786,0.132,0.388,-1.82,-2.677,0.945
48032180,-0.776,0.189,0.424,17.062,-12.04,0.42
48032190,-0.909,0.18,0.475,22.365,-13.825,0.35
48032200,-0.97,0.154,0.48,25.147,-18.287,0.122
48032210,-0.994,0.082,0.417,30.24,-24.482,-2.117
48032220,-0.836,0.154,0.362,42.472,-48.86,-10.972
48032230,-0.672,0.345,0.551,57.715,-61.145,-12.565
48032240,-1.026,0.396,0.617,46.112,-57.207,-15.172
48032250,-0.883,0.417,0.652,27.79,-66.08,-18.9
48032260,-0.857,0.272,0.593,11.602,-56.857,-22.102
48032270,-0.68,0.212,0.548,3.027,-42.087,-24.535
48032280,-0.718,0.225,0.583,5.022,-27.842,-16.677
48032290,-0.721,0.241,0.64,1.68,-18.322,-8.872
48032300,-0.709,0.24,0.647,-3.482,-11.025,-2.677
48032310,-0.645,0.279,0.653,-5.267,-3.867,-2.362
48032320,-0.62,0.336,0.649,-8.802,5.39,1.75
48032330,-0.664,0.379,0.676,-18.235,26.705,11.305
48032330,-0.803,0.31,0.646,-29.785,49.7,13.16
48032350,-0.708,0.316,0.619,-32.742,59.097,11.025
48032350,-0.785,0.254,0.538,-35.14,63.122,15.067
48032370,-0.846,0.132,0.407,-34.562,52.325,16.975
48032370,-0.752,0.073,0.388,-19.197,35.7,16.345
48032390,-0.9,0.147,0.412,2.957,24.43,15.837
48032390,-0.94,0.21,0.392,14.875,6.125,8.697
48032410,-0.929,0.299,0.535,25.095,-5.092,3.307
48032410,-1.045,0.261,0.544,19.197,-9.782,-4.095
48032420,-0.958,0.111,0.471,18.952,-17.692,-9.87
48032430,-0.757,0.15,0.405,32.007,-35.997,-16.555
48032440,-0.657,0.237,0.493,50.137,-46.165,-18.917
48032450,-0.864,0.308,0.564,54.477,-44.975,-21.822
48032460,-0.9,0.453,0.624,45.535,-47.32,-22.942
48032470,-0.945,0.375,0.602,22.137,-40.25,-22.715
48032480,-0.791,0.242,0.532,2.782,-36.837,-19.757
48032490,-0.712,0.179,0.523,-2.17,-28.875,-11.322
48032500,-0.724,0.209,0.597,-2.467,-18.357,-5.25
48032510,-0.731,0.231,0.641,-3.202,-9.135,-1.4
48032520,-0.71,0.29,0.646,-7.42,-3.587,1.12
48032530,-0.693,0.316,0.636,-14.507,2.8,3.185
48032540,-0.583,0.395,0.665,-23.345,19.6,8.645
48032550,-0.802,0.338,0.631,-38.832,48.912,16.59
48032560,-0.77,0.273,0.587,-48.422,61.18,17.185
48032570,-0.777,0.23,0.537,-47.267,64.085,17.885
48032580,-0.808,0.216,0.503,-44.187,59.185,18.9
48032590,-0.794,0.189,0.507,-40.705,49.647,16.887
48032600,-0.876,0.142,0.476,-33.425,39.077,14.14
48032610,-0.893,0.126,0.423,-23.275,25.69,9.065
48032620,-1.018,0.063,0.311,-7.805,6.037,5.775
48032630,-0.929,0.157,0.308,12.827,-13.667,-0.455
48032640,-1.029,0.16,0.409,28.332,-23.415,-5.67
48032650,-1.027,0.04,0.376,34.16,-30.887,-11.445
48032660,-0.942,0.16,0.402,54.232,-47.792,-20.755
48032670,-0.722,0.243,0.441,69.51,-65.747,-28.472
48032680,-0.629,0.325,0.617,75.757,-57.89,-30.065
48032690,-0.796,0.46,0.75,63.367,-40.705,-21.63
48032700,-0.927,0.413,0.655,29.137,-29.225,-9.362
48032710,-0.853,0.178,0.536,5.495,-20.58,-11.217
48032720,-0.743,0.189,0.545,3.832,-10.692,-11.252
48032730,-0.769,0.253,0.574,2.537,-5.215,-6.44
48032740,-0.692,0.248,0.591,-3.517,-7.805,-1.837
48032750,-0.673,0.31,0.625,-7.892,-6.475,7.56
48032760,-0.622,0.397,0.669,-16.852,9.782,16.975
48032760,-0.838,0.333,0.64,-30.8,34.912,21.7
48032780,-0.755,0.295,0.603,-38.237,43.54,18.777
48032780,-0.831,0.228,0.55,-38.22,41.422,24.85
48032800,-0.762,0.203,0.501,-37.537,31.185,20.912
48032800,-0.787,0.132,0.471,-25.235,23.922,18.777
48032820,-0.779,0.208,0.484,-12.862,23.922,17.255
48032820,-0.984,0.167,0.36,-0.472,20.142,11.672
48032830,-0.931,0.175,0.268,13.965,6.02,3.99
48032840,-1.046,0.121,0.284,31.395,-7.98,1.627
48032850,-1.106,0.04,0.368,41.755,-24.92,2.765
48032860,-1.008,0.136,0.478,59.745,-57.137,-6.072
48032870,-0.702,0.293,0.603,77.525,-80.045,-10.587
48032880,-0.718,0.475,0.678,74.987,-86.432,-18.077
48032890,-0.781,0.505,0.704,49.332,-75.18,-19.617
48032900,-0.773,0.392,0.648,20.352,-56.245,-17.202
48032910,-0.689,0.251,0.55,2.537,-35.385,-7.63
48032920,-0.639,0.315,0.578,-2.327,-16.415,2.082
48032930,-0.64,0.31,0.623,-14.087,2.415,1.767
48032940,-0.662,0.276,0.667,-17.587,13.405,-1.365
48032950,-0.531,0.345,0.686,-18.112,27.807,6.772
48032960,-0.748,0.336,0.622,-29.365,56.245,12.985
48032970,-0.844,0.291,0.568,-41.16,69.212,10.342
48032980,-0.93,0.225,0.459,-44.082,65.642,9.205
48032990,-0.9,0.189,0.395,-36.382,49.402,9.537
48033000,-0.836,0.223,0.401,-22.102,32.112,9.975
48033010,-0.892,0.234,0.417,-10.745,18.2,8.33
48033020,-0.908,0.192,0.411,0.962,3.955,2.537
48033030,-0.898,0.225,0.413,15.68,-9.887,-2.327
48033040,-0.99,0.211,0.434,22.417,-18.987,-6.02
48033050,-1.027,0.143,0.402,25.287,-25.077,-11.462
48033060,-1.148,0.031,0.363,35.577,-30.117,-21.472
48033070,-0.987,0.096,0.367,56.997,-64.802,-37.572
48033080,-0.543,0.286,0.499,79.327,-82.827,-43.26
48033080,-0.745,0.355,0.66,74.585,-71.26,-43.347
48033100,-0.734,0.508,0.76,50.295,-54.32,-40.915
48033100,-0.83,0.348,0.644,13.825,-20.877,-33.215
48033120,-0.888,0.193,0.565,-8.172,-0.927,-32.497
48033120,-0.736,0.228,0.631,-10.097,-2.135,-34.702
48033140,-0.662,0.287,0.642,-12.582,-0.892,-28.647
48033140,-0.569,0.282,0.629,-16.73,2.905,-19.67
48033160,-0.572,0.353,0.67,-23.1,33.215,-9.572
48033160,-0.992,0.355,0.657,-37.922,57.645,-9.38
48033170,-0.913,0.223,0.53,-48.457,43.68,-11.777
48033180,-0.695,0.191,0.486,-42.017,27.107,-9.17
48033190,-0.721,0.195,0.476,-32.06,20.562,-2.992
48033200,-0.655,0.165,0.466,-19.915,12.215,0.227
48033210,-0.826,0.133,0.41,-0.525,9.817,5.372
48033220,-0.794,0.166,0.294,19.582,-4.812,6.09
48033230,-0.881,0.184,0.34,38.57,-11.13,11.357
48033240,-1.113,0.215,0.43,42.472,-16.415,8.837
48033250,-1.197,0.114,0.438,46.707,-32.777,0.332
48033260,-0.863,0.2,0.442,60.497,-66.08,-12.81
48033270,-0.671,0.289,0.551,70.437,-70.017,-18.095
48033280,-0.738,0.413,0.703,61.635,-59.377,-25.287
48033290,-0.857,0.41,0.75,36.242,-45.377,-20.702
48033300,-0.839,0.267,0.657,11.375,-34.982,-18.41
48033310,-0.641,0.191,0.575,-0.822,-22.207,-14.945
48033320,-0.704,0.191,0.599,-3.045,-4.777,-9.835
48033330,-0.749,0.227,0.619,-4.917,1.995,-6.02
48033340,-0.704,0.277,0.643,-6.16,2.59,-1.54
48033350,-0.709,0.329,0.601,-11.742,6.16,2.52
48033360,-0.602,0.335,0.68,-15.54,16.572,7.122
48033370,-0.844,0.34,0.675,-22.89,42.805,15.925
48033380,-0.825,0.327,0.621,-32.725,50.435,14.752
48033390,-0.765,0.234,0.516,-39.777,47.775,11.13
48033400,-0.819,0.132,0.411,-35.542,38.395,9.52
48033410,-0.814,0.119,0.345,-18.812,22.312,10.465
48033420,-0.894,0.177,0.356,-0.682,9.66,8.75
48033430,-0.903,0.159,0.344,11.62,-2.292,3.622
48033440,-0.86,0.116,0.384,25.427,-8.295,0.472
48033450,-0.936,0.118,0.442,35.122,-7.595,1.662
48033460,-0.955,0.117,0.485,39.13,-11.602,3.517
48033470,-0.943,0.103,0.436,43.995,-23.66,-0.77
48033480,-0.688,0.278,0.529,54.302,-42.595,-3.08
48033490,-0.817,0.378,0.622,51.52,-42.402,0.07
48033500,-0.866,0.427,0.657,35.28,-42.542,-2.03
48033500,-0.854,0.345,0.637,14.98,-33.845,3.115
48033510,-0.84,0.243,0.56,-0.385,-18.9,3.972
48033520,-0.807,0.262,0.557,-6.107,-14.77,4.287
48033530,-0.742,0.283,0.585,-12.162,-16.87,8.47
48033540,-0.65,0.351,0.643,-16.187,-15.12,11.935
48033550,-0.538,0.352,0.669,-19.897,-3.167,18.672
48033560,-0.518,0.425,0.7,-28.49,26.127,21.997
48033570,-0.776,0.336,0.668,-39.182,56.682,23.415
48033580,-0.898,0.239,0.554,-41.212,62.72,19.337
48033590,-0.879,0.141,0.416,-29.54,47.32,13.457
48033600,-0.876,0.203,0.355,-11.252,26.355,10.955
48033610,-0.961,0.225,0.353,0.227,10.132,6.685
48033620,-0.972,0.197,0.37,8.837,-5.687,-1.417
48033630,-0.963,0.227,0.459,17.22,-16.467,-6.72
48033640,-0.957,0.178,0.479,18.445,-24.885,-8.697
48033650,-0.951,0.077,0.404,24.272,-37.677,-9.677
48033660,-0.75,0.208,0.475,42.42,-58.782,-14.42
48033670,-0.846,0.342,0.588,51.502,-61.967,-17.517
48033680,-0.797,0.38,0.594,45.85,-62.965,-25.567
48033690,-0.788,0.357,0.588,33.705,-58.992,-26.652
48033700,-0.767,0.332,0.628,18.707,-51.852,-20.072
48033710,-0.755,0.274,0.631,2.012,-39.025,-7.332
48033720,-0.686,0.279,0.638,-8.995,-22.032,4.357
48033730,-0.672,0.267,0.622,-16.187,-10.115,9.415
48033740,-0.488,0.273,0.672,-17.832,-0.682,8.89
48033750,-0.597,0.311,0.702,-17.5,30.537,16.817
48033760,-0.649,0.352,0.653,-23.275,62.632,23.135
48033770,-0.725,0.327,0.583,-34.107,78.575,25.025
48033780,-0.805,0.195,0.487,-39.952,76.912,24.412
48033790,-0.873,0.159,0.417,-29.89,64.452,21.805
48033800,-0.936,0.167,0.387,-14.63,43.557,18.287
48033810,-1.046,0.184,0.37,0.07,20.965,11.865
48033820,-0.989,0.239,0.392,14.525,-1.225,3.657
48033830,-0.988,0.289,0.503,21.035,-14.91,-0.56
48033830,-0.89,0.214,0.51,18.725,-22.627,-4.165
48033850,-0.851,0.141,0.447,23.345,-27.23,-6.947
48033850,-0.712,0.244,0.499,36.977,-38.622,-13.282
48033870,-0.851,0.311,0.562,47.39,-39.567,-17.692
48033870,-0.866,0.347,0.532,50.802,-43.452,-25.69
48033890,-0.885,0.389,0.552,45.43,-49.612,-30.817
48033890,-0.909,0.364,0.58,26.372,-50.12,-26.88
48033910,-0.784,0.299,0.521,5.845,-48.422,-18.567
48033910,-0.685,0.241,0.513,-5.18,-39.165,-8.102
48033920,-0.67,0.234,0.573,-10.097,-24.447,-4.182
48033930,-0.669,0.299,0.661,-12.075,-16.94,-0.437
48033940,-0.595,0.349,0.715,-16.555,-11.865,10.482
48033950,-0.573,0.356,0.691,-29.942,13.072,21.857
48033960,-0.63,0.298,0.615,-34.51,52.062,24.885
48033970,-0.758,0.328,0.603,-35.7,72.012,24.955
48033980,-0.828,0.283,0.517,-41.16,62.947,25.217
48033990,-0.897,0.178,0.469,-39.952,50.68,18.795
48034000,-0.992,0.09,0.4,-25.83,36.767,12.355
48034010,-0.976,0.19,0.363,-1.172,11.112,6.335
48034020,-0.952,0.263,0.402,15.977,-11.812,-2.712
48034030,-0.991,0.293,0.516,21.472,-22.365,-9.082
48034040,-0.906,0.199,0.486,21.14,-27.79,-13.195
48034050,-0.866,0.104,0.393,26.88,-26.215,-19.32
48034060,-0.773,0.243,0.399,39.497,-39.41,-29.032
48034070,-0.823,0.257,0.491,49.437,-48.265,-29.942
48034080,-0.873,0.342,0.573,53.06,-50.697,-29.855
48034090,-0.829,0.415,0.634,40.25,-51.345,-26.18
48034100,-0.795,0.254,0.581,20.177,-40.74,-22.382
48034110,-0.722,0.168,0.55,14.735,-30.047,-17.412
48034120,-0.684,0.212,0.594,16.52,-25.69,-8.662
48034130,-0.705,0.243,0.615,13.685,-23.152,-3.255
48034140,-0.7,0.268,0.622,11.147,-22.802,3.43
48034150,-0.654,0.298,0.621,7.315,-18.882,7.525
48034160,-0.678,0.335,0.636,3.64,-10.622,10.045
48034170,-0.629,0.39,0.649,-2.257,-2.31,15.067
48034180,-0.755,0.338,0.613,-12.827,13.09,19.6
48034190,-0.831,0.301,0.597,-18.165,18.567,11.9
48034190,-0.811,0.275,0.569,-16.642,18.27,6.982
48034210,-0.801,0.309,0.542,-12.005,15.295,3.972
48034210,-0.822,0.272,0.517,-6.86,9.135,3.325
48034230,-0.823,0.262,0.493,-3.71,0.14,-0.367
48034230,-0.837,0.275,0.519,2.852,-6.86,-4.2
48034250,-0.883,0.283,0.538,5.915,-12.407,-5.967
48034250,-0.879,0.258,0.529,5.967,-17.15,-7.7
48034260,-0.813,0.203,0.499,7.752,-20.212,-9.327
48034270,-0.783,0.224,0.525,12.337,-15.592,-11.847
48034280,-0.861,0.278,0.563,13.317,-14.472,-12.827
48034290,-0.759,0.187,0.514,13.825,-13.982,-12.18
48034300,-0.758,0.276,0.558,17.412,-13.947,-9.415
48034310,-0.788,0.295,0.596,12.967,-15.12,-6.65
48034320,-0.787,0.237,0.587,7.63,-16.292,-4.97
48034330,-0.744,0.248,0.589,9.922,-14.245,-4.707
48034340,-0.753,0.264,0.586,12.075,-11.042,-5.792
48034350,-0.77,0.266,0.583,12.915,-8.067,-7.14
48034360,-0.785,0.262,0.573,13.72,-7.735,-7.122
48034370,-0.799,0.253,0.553,15.4,-7.84,-7.612
48034380,-0.791,0.248,0.545,17.727,-8.085,-10.325
48034390,-0.793,0.262,0.566,19.267,-6.667,-12.425
48034400,-0.817,0.25,0.57,18.882,-7.157,-11.935
48034410,-0.823,0.222,0.58,20.142,-7.735,-11.882
48034420,-0.791,0.239,0.568,24.255,-6.842,-13.072
48034430,-0.791,0.232,0.547,26.302,-5.705,-15.505
48034440,-0.8,0.211,0.523,28.49,-5.25,-18.27
48034450,-0.817,0.216,0.516,31.517,-5.495,-20.877
48034460,-0.842,0.219,0.511,34.405,-7.595,-23.747
48034470,-0.866,0.23,0.529,37.887,-9.1,-26.897
48034480,-0.907,0.25,0.523,40.285,-10.797,-32.007
48034490,-0.895,0.284,0.515,41.667,-12.985,-39.147
48034500,-0.869,0.283,0.485,42.402,-15.645,-44.415
48034510,-0.841,0.274,0.462,44.45,-18.795,-44.572
48034520,-0.819,0.276,0.463,47.302,-23.012,-41.51
48034530,-0.808,0.277,0.499,48.58,-27.037,-37.66
48034540,-0.808,0.261,0.531,48.09,-30.152,-34.335
48034550,-0.806,0.246,0.566,47.092,-32.987,-32.007
48034560,-0.766,0.238,0.563,46.777,-34.195,-33.372
48034570,-0.746,0.232,0.555,49.56,-34.737,-31.622
48034580,-0.748,0.251,0.556,52.325,-35.245,-27.37
48034580,-0.751,0.26,0.561,53.147,-36.732,-24.325
48034600,-0.764,0.257,0.551,52.71,-37.415,-23.117
48034600,-0.749,0.275,0.555,53.83,-36.417,-25.427
48034620,-0.747,0.282,0.547,55.825,-33.425,-27.65
48034620,-0.738,0.295,0.539,58.275,-31.605,-27.405
48034640,-0.74,0.3,0.526,60.445,-30.957,-24.43
48034640,-0.729,0.303,0.538,62.72,-32.112,-21.437
48034660,-0.731,0.321,0.558,64.365,-32.392,-17.517
48034660,-0.732,0.329,0.57,63.7,-34.317,-13.002
48034670,-0.716,0.337,0.583,61.442,-34.72,-10.675
48034680,-0.709,0.329,0.592,59.552,-33.932,-9.152
48034690,-0.721,0.346,0.624,58.607,-32.655,-7.227
48034700,-0.747,0.35,0.618,56.927,-34.387,-4.55
48034710,-0.766,0.33,0.597,54.565,-35.227,-3.255
48034720,-0.757,0.334,0.581,53.9,-35.735,-5.267
48034730,-0.755,0.336,0.563,53.865,-34.247,-8.19
48034740,-0.758,0.362,0.567,53.375,-33.845,-10.115
48034750,-0.774,0.357,0.576,51.467,-34.667,-8.75
48034760,-0.78,0.337,0.576,47.985,-36.452,-7.927
48034770,-0.801,0.322,0.576,45.272,-36.645,-8.785
48034780,-0.824,0.3,0.559,43.015,-36.802,-13.002
48034790,-0.785,0.323,0.562,42.367,-35.385,-20.002
48034800,-0.741,0.312,0.541,40.092,-31.167,-28.245
48034810,-0.786,0.376,0.572,41.02,-34.912,-29.365
48034820,-0.787,0.38,0.593,43.085,-44.817,-24.307
48034830,-0.804,0.382,0.593,42.63,-54.862,-21.7
48034840,-0.821,0.384,0.573,42.542,-62.72,-24.045
48034850,-0.749,0.397,0.571,44.187,-64.89,-31.587
48034860,-0.732,0.388,0.573,47.6,-62.335,-39.112
48034870,-0.703,0.414,0.586,52.64,-59.062,-45.01
48034880,-0.65,0.439,0.606,55.387,-54.915,-47.617
48034890,-0.649,0.444,0.641,54.967,-50.067,-46.935
48034900,-0.63,0.449,0.649,51.66,-46.305,-44.957
48034910,-0.581,0.43,0.645,46.987,-43.102,-41.247
48034920,-0.548,0.397,0.639,43.645,-38.727,-35.91
48034920,-0.527,0.378,0.637,43.207,-33.442,-30.327
48034940,-0.509,0.367,0.622,45.01,-28.262,-24.027
48034940,-0.509,0.361,0.616,48.51,-23.52,-16.485
48034960,-0.526,0.379,0.624,51.712,-18.69,-9.397
48034960,-0.505,0.404,0.658,52.202,-13.405,-3.045
48034980,-0.51,0.44,0.713,48.597,-3.762,4.182
48034980,-0.575,0.468,0.764,39.882,2.835,10.517
48035000,-0.583,0.466,0.77,28.052,7.262,15.155
48035000,-0.597,0.458,0.738,19.127,13.44,16.152
48035010,-0.587,0.474,0.738,12.95,24.22,13.545
48035020,-0.662,0.462,0.707,6.772,37.1,10.972
48035030,-0.657,0.494,0.681,-0.087,45.15,11.2
48035040,-0.664,0.49,0.632,-10.885,44.765,18.287
48035050,-0.629,0.46,0.613,-22.767,42.105,27.737
48035060,-0.584,0.454,0.583,-34.405,40.46,42.052
48035070,-0.627,0.402,0.557,-44.992,38.832,57.172
48035080,-0.709,0.274,0.515,-49.227,34.947,61.425
48035090,-0.849,0.214,0.5,-36.05,28.437,50.172
48035100,-0.812,0.276,0.449,-10.64,17.15,29.837
48035110,-0.895,0.321,0.437,12.425,16.642,15.207
48035120,-1.104,0.412,0.454,31.377,7.017,7.892
48035130,-1.157,0.49,0.447,35.98,-36.26,4.987
48035140,-0.865,0.529,0.426,28.262,-88.777,2.082
48035150,-0.678,0.519,0.505,14.402,-106.802,9.082
48035160,-0.621,0.547,0.633,-1.732,-93.887,19.687
48035170,-0.732,0.45,0.723,-18.812,-71.207,28.017
48035180,-0.554,0.364,0.717,-24.622,-59.64,29.417
48035190,-0.324,0.478,0.74,-21.98,-46.252,30.625
48035200,-0.299,0.509,0.785,-27.772,-24.202,34.387
48035210,-0.258,0.47,0.846,-37.957,1.505,37.362
48035220,-0.367,0.367,0.793,-41.335,39.602,42.245
48035230,-0.486,0.455,0.78,-30.922,74.637,36.242
48035240,-0.541,0.477,0.714,-30.082,94.692,21.525
48035250,-0.618,0.427,0.602,-29.032,102.76,12.547
48035260,-0.71,0.434,0.509,-23.467,101.132,11.165
48035270,-0.837,0.403,0.414,-16.73,88.13,9.24
48035280,-0.899,0.352,0.284,-4.952,63.63,6.527
48035290,-0.858,0.364,0.22,16.38,38.01,2.047
48035300,-0.923,0.412,0.28,36.085,12.477,-2.117
48035310,-0.954,0.344,0.353,47.267,-13.317,-2.782
48035320,-0.96,0.305,0.397,58.187,-31.517,-1.855
48035330,-0.965,0.39,0.42,71.837,-54.127,-2.695
48035330,-0.844,0.484,0.462,77.805,-88.83,-9.397
48035350,-0.682,0.497,0.556,70.805,-108.535,-12.092
48035350,-0.65,0.546,0.659,59.272,-105.77,-11.602
48035370,-0.642,0.576,0.706,41.37,-94.202,-6.667
48035370,-0.564,0.503,0.675,20.072,-79.187,-2.152
48035390,-0.494,0.431,0.671,11.987,-59.517,-0.227
48035390,-0.476,0.472,0.71,14.91,-41.842,2.047
48035410,-0.424,0.56,0.76,13.597,-27.335,4.69
48035410,-0.468,0.619,0.769,4.76,-16.642,6.65
48035420,-0.441,0.628,0.748,-7.087,-11.62,10.22
48035430,-0.407,0.569,0.731,-14.997,2.292,15.032
48035440,-0.445,0.58,0.732,-16.432,29.767,16.73
48035450,-0.531,0.605,0.727,-19.162,55.79,15.155
48035460,-0.579,0.587,0.672,-27.807,68.967,8.487
48035470,-0.642,0.503,0.603,-35.56,73.657,2.59
48035480,-0.692,0.42,0.542,-34.282,70.577,1.05
48035490,-0.752,0.407,0.477,-28.385,54.477,-2.17
48035500,-0.752,0.287,0.365,-18.567,37.502,-8.732
48035510,-0.789,0.263,0.323,1.26,22.19,-14.647
48035520,-0.921,0.274,0.39,23.555,9.485,-11.637
48035530,-1.067,0.229,0.366,40.285,-14.087,-1.837
48035540,-0.986,0.397,0.382,61.845,-59.99,-2.362
48035550,-0.745,0.592,0.494,61.862,-104.387,-6.702
48035560,-0.42,0.624,0.733,36.977,-108.64,-3.325
48035570,-0.425,0.572,0.849,4.077,-72.8,9.117
48035580,-0.624,0.328,0.726,-18.515,-31.71,16.257
48035590,-0.634,0.244,0.588,-8.435,-9.502,6.72
48035600,-0.553,0.505,0.568,11.795,-7.717,-3.78
48035610,-0.654,0.537,0.546,13.597,-16.485,-2.59
48035620,-0.724,0.469,0.518,14.105,-25.795,1.697
48035630,-0.68,0.564,0.526,21.63,-33.407,7.052
48035640,-0.646,0.616,0.555,19.442,-41.895,10.622
48035650,-0.651,0.578,0.567,11.515,-52.132,10.412
48035660,-0.644,0.547,0.608,9.957,-58.73,9.835
48035670,-0.608,0.562,0.641,13.002,-60.287,7.84
48035670,-0.528,0.559,0.648,14.84,-55.51,2.362
48035690,-0.458,0.547,0.63,18.042,-47.215,-0.647
48035690,-0.4,0.544,0.627,21.945,-37.362,0.175
48035710,-0.42,0.523,0.63,22.925,-27.965,0.192
48035710,-0.484,0.454,0.607,24.99,-21.42,0.682
48035730,-0.524,0.428,0.599,33.11,-17.395,0.91
48035730,-0.618,0.457,0.603,43.295,-14.035,1.645
48035750,-0.644,0.455,0.578,48.282,-13.825,1.277
48035750,-0.663,0.46,0.568,52.482,-13.597,1.487
48035760,-0.697,0.553,0.584,56.157,-16.957,0.77
48035770,-0.69,0.634,0.596,47.267,-26.022,-1.382
48035780,-0.637,0.578,0.576,32.742,-34.405,-6.737
48035790,-0.58,0.594,0.659,25.9,-33.95,-12.197
48035800,-0.566,0.643,0.748,20.842,-29.382,-15.312
48035810,-0.521,0.671,0.816,12.25,-17.745,-19.617
48035820,-0.424,0.686,0.802,0.28,-0.91,-23.327
48035830,-0.355,0.731,0.781,-12.932,12.617,-22.12
48035840,-0.222,0.701,0.758,-29.995,20.44,-14.525
48035850,-0.181,0.697,0.759,-44.362,42.892,-4.357
48035860,-0.265,0.657,0.767,-55.685,70.77,8.942
48035870,-0.386,0.571,0.691,-64.19,94.85,15.172
48035880,-0.417,0.456,0.594,-61.267,112.122,11.235
48035890,-0.598,0.422,0.525,-45.99,119.14,1.855
48035900,-0.795,0.432,0.48,-29.347,103.705,-10.727
48035910,-0.849,0.517,0.454,-18.322,80.517,-24.272
48035920,-0.908,0.532,0.453,-19.092,62.16,-29.47
48035930,-0.972,0.49,0.488,-27.125,49.385,-31.395
48035940,-0.929,0.422,0.505,-33.25,34.3,-28.175
48035950,-0.788,0.369,0.5,-32.182,17.657,-26.425
48035960,-0.595,0.337,0.479,-28.192,5.267,-23.8
48035970,-0.596,0.369,0.512,-20.982,3.727,-21.35
48035980,-0.599,0.392,0.527,-17.78,2.397,-19.775
48035990,-0.617,0.424,0.552,-15.627,4.305,-18.077
48036000,-0.639,0.493,0.579,-17.465,8.645,-15.102
48036010,-0.711,0.482,0.579,-25.9,17.692,-8.96
48036020,-0.836,0.468,0.562,-31.482,22.207,-3.115
48036030,-0.79,0.487,0.527,-33.425,12.477,0.84
48036040,-0.667,0.49,0.498,-34.737,4.847,3.85
48036050,-0.613,0.503,0.528,-35.087,4.655,7.07
48036060,-0.543,0.514,0.588,-38.307,16.082,13.16
48036070,-0.561,0.503,0.641,-45.237,37.45,20.09
48036080,-0.616,0.455,0.637,-53.882,54.39,25.602
48036080,-0.678,0.293,0.527,-57.19,59.71,26.547
48036100,-0.778,0.228,0.452,-41.125,50.155,22.89
48036100,-0.799,0.291,0.433,-15.785,27.912,16.765
48036120,-0.761,0.35,0.421,2.52,7.962,11.62
48036120,-0.866,0.403,0.472,13.93,-2.782,9.992
48036140,-0.842,0.421,0.504,16.047,-12.302,9.257
48036140,-0.793,0.456,0.547,15.89,-16.975,7.122
48036160,-0.737,0.447,0.58,13.597,-14.752,1.995
48036160,-0.676,0.478,0.608,12.162,-9.205,-3.937
48036170,-0.648,0.474,0.605,9.572,-3.132,-6.825
48036180,-0.664,0.46,0.588,8.645,1.557,-9.905
48036190,-0.723,0.458,0.561,9.59,4.025,-12.022
48036200,-0.766,0.453,0.483,11.812,-7.087,-16.765
48036210,-0.65,0.537,0.509,16.415,-23.59,-21.262
48036220,-0.676,0.551,0.594,11.462,-22.592,-21.28
48036230,-0.812,0.477,0.597,-1.067,-13.72,-15.505
48036240,-0.746,0.459,0.581,-10.15,-11.497,-9.117
48036250,-0.691,0.429,0.57,-15.872,-11.515,-4.865
48036260,-0.662,0.431,0.571,-20.51,-13.982,0.875
48036270,-0.67,0.427,0.573,-26.005,-14.91,7.507
48036280,-0.677,0.429,0.602,-31.482,-15.505,13.65
48036290,-0.634,0.444,0.616,-36.26,-14.245,20.37
48036300,-0.572,0.419,0.641,-40.075,3.552,27.177
48036310,-0.743,0.376,0.625,-39.27,25.375,28.105
48036320,-0.733,0.322,0.575,-34.51,29.05,22.96
48036330,-0.558,0.304,0.519,-22.085,23.817,15.575
48036340,-0.622,0.289,0.499,-3.832,28.56,11.97
48036350,-0.733,0.268,0.424,15.732,27.895,1.89
48036360,-0.741,0.357,0.392,39.182,17.675,-6.3
48036370,-0.842,0.46,0.465,56,10.657,-11.76
48036380,-0.886,0.497,0.475,60.322,2.24,-13.422
48036390,-0.966,0.445,0.5,61.267,-12.582,-19.442
48036400,-0.683,0.594,0.53,67.13,-44.52,-34.142
48036410,-0.497,0.721,0.588,58.765,-52.08,-38.22
48036420,-0.702,0.622,0.627,31.342,-36.015,-34.3
48036420,-0.775,0.485,0.593,12.582,-21.437,-28.245
48036440,-0.721,0.482,0.586,9.03,-13.142,-24.237
48036440,-0.73,0.495,0.59,4.742,-9.257,-23.275
48036460,-0.693,0.459,0.602,-4.27,-8.715,-22.82
48036460,-0.659,0.41,0.615,-11.235,-8.977,-20.282
48036480,-0.632,0.395,0.622,-15.557,-5.862,-15.82
48036480,-0.637,0.399,0.616,-19.127,-2.38,-10.937
48036500,-0.636,0.399,0.606,-22.767,2.17,-7.437
48036500,-0.619,0.4,0.571,-25.637,7.822,-4.55
48036510,-0.627,0.435,0.586,-29.785,25.795,0.787
48036520,-0.861,0.35,0.571,-35.647,36.137,4.305
48036530,-0.7,0.303,0.511,-33.845,32.182,6.3
48036540,-0.817,0.341,0.497,-23.922,32.497,3.29
48036550,-0.837,0.322,0.449,-16.52,24.377,-1.855
48036560,-0.784,0.347,0.421,-4.742,11.06,-7.525
48036570,-0.782,0.38,0.444,8.085,1.592,-12.215
48036580,-0.771,0.396,0.472,17.045,-3.885,-14.28
48036590,-0.782,0.411,0.514,22.277,-5.932,-14.385
48036600,-0.768,0.393,0.531,25.427,-8.26,-14.805
48036610,-0.831,0.398,0.491,30.135,-14.437,-18.532
48036620,-0.693,0.484,0.497,34.667,-37.87,-25.27
48036630,-0.627,0.533,0.596,30.572,-43.61,-25.952
48036640,-0.814,0.428,0.579,18.935,-31.062,-19.39
48036650,-0.728,0.445,0.566,15.435,-30.957,-14.7
48036660,-0.635,0.478,0.594,8.452,-26.11,-9.467
48036670,-0.78,0.405,0.605,-0.892,-16.012,-2.712
48036680,-0.652,0.418,0.596,-7.507,-17.57,4.445
48036690,-0.61,0.397,0.588,-13.002,-16.17,8.907
48036700,-0.583,0.371,0.579,-14.192,-10.062,10.867
48036710,-0.588,0.412,0.597,-11.707,-0.647,13.93
48036720,-0.57,0.408,0.602,-14.035,8.995,19.232
48036730,-0.764,0.398,0.6,-17.57,28.84,25.672
48036740,-0.884,0.405,0.55,-20.247,28.77,27.055
48036750,-0.751,0.364,0.534,-23.03,19.687,24.867
48036760,-0.754,0.358,0.52,-18.2,18.445,20.877
48036770,-0.743,0.345,0.506,-11.392,16.047,14.945
48036780,-0.754,0.337,0.487,-2.642,11.375,9.222
48036790,-0.801,0.352,0.457,8.627,4.917,4.2
48036800,-0.76,0.409,0.487,19.39,-2.485,0.017
48036810,-0.816,0.432,0.511,23.94,-4.322,-2.152
48036820,-0.803,0.42,0.502,24.972,-5.862,-4.2
48036830,-0.815,0.417,0.512,28.857,-6.265,-8.627
48036830,-0.826,0.459,0.502,33.827,-16.432,-17.71
48036850,-0.683,0.487,0.522,35.717,-31.867,-26.547
48036850,-0.709,0.503,0.557,37.047,-32.83,-31.01
48036870,-0.718,0.528,0.56,32.392,-35.192,-27.632
48036870,-0.744,0.48,0.546,19.757,-31.622,-19.18
48036890,-0.722,0.435,0.559,11.322,-28.525,-13.055
48036890,-0.718,0.434,0.594,5.74,-20.23,-8.837
48036900,-0.694,0.427,0.605,-0.892,-14.665,-4.62
48036910,-0.651,0.408,0.605,-7.402,-10.815,0.77
48036920,-0.613,0.407,0.609,-12.775,-8.365,8.732
48036930,-0.515,0.393,0.63,-20.3,-1.242,19.687
48036940,-0.634,0.396,0.661,-29.802,26.582,33.302
48036950,-0.674,0.44,0.554,-40.25,50.137,45.255
48036960,-0.83,0.4,0.587,-60.532,53.97,53.812
48036970,-0.796,0.26,0.498,-75.145,46.007,53.077
48036980,-0.877,0.316,0.51,-59.517,40.985,37.012
48036990,-0.834,0.397,0.486,-39.567,24.202,23.327
48037000,-0.742,0.393,0.449,-22.592,2.485,10.727
48037010,-0.607,0.48,0.454,-0.385,-11.147,1.05
48037020,-0.696,0.549,0.492,13.072,-7.962,-6.16
48037030,-0.811,0.502,0.461,14.507,-8.785,-6.772
48037040,-0.759,0.455,0.466,16.87,-13.72,-5.967
48037050,-0.817,0.426,0.52,23.362,-15.12,-9.205
48037060,-0.842,0.416,0.454,30.59,-36.032,-16.485
48037070,-0.502,0.431,0.53,39.27,-56.332,-22.522
48037080,-0.709,0.423,0.587,47.197,-44.747,-24.972
48037090,-0.755,0.398,0.564,45.972,-41.055,-23.362
48037100,-0.767,0.391,0.561,42.315,-42.052,-19.722
48037110,-0.73,0.42,0.58,36.627,-44.012,-14.07
48037120,-0.662,0.424,0.615,27.457,-36.435,-11.2
48037130,-0.752,0.42,0.621,18.777,-21.595,-9.257
48037140,-0.727,0.441,0.635,13.86,-13.58,-9.467
48037150,-0.701,0.447,0.614,6.457,-15.505,-9.012
48037160,-0.626,0.447,0.582,0.035,-13.685,-6.002
48037170,-0.672,0.454,0.631,-3.902,-8.82,-3.867
48037170,-0.57,0.448,0.603,-10.395,-7.77,-0.297
48037190,-0.572,0.439,0.603,-14.665,-1.487,5.46
48037190,-0.59,0.359,0.633,-19.425,14.035,10.377
48037210,-0.743,0.376,0.623,-19.635,29.435,10.92
48037210,-0.739,0.362,0.586,-22.505,27.387,8.68
48037230,-0.716,0.349,0.554,-21.227,25.287,6.58
48037230,-0.751,0.371,0.533,-15.995,28.682,5.022
48037250,-0.792,0.324,0.492,-12.267,27.912,1.872
48037250,-0.786,0.304,0.46,-3.22,20.492,-0.752
48037260,-0.737,0.35,0.473,11.41,16.327,-3.15
48037270,-0.722,0.328,0.443,23.31,15.382,-2.012
48037280,-0.716,0.368,0.469,36.4,16.187,1.802
48037290,-0.777,0.42,0.525,44.03,16.45,5.372
48037300,-0.788,0.417,0.535,44.87,6.125,1.54
48037310,-0.746,0.484,0.582,42.805,1.365,-3.15
48037320,-0.764,0.48,0.568,35.28,-0.962,-7.28
48037330,-0.708,0.461,0.553,28.875,-0.822,-8.627
48037340,-0.663,0.474,0.555,26.407,4.585,-7.175
48037350,-0.612,0.475,0.546,25.06,13.125,-3.832
48037360,-0.584,0.515,0.547,25.2,23.187,0.612
48037370,-0.537,0.499,0.511,24.99,33.985,7.612
48037380,-0.482,0.468,0.506,26.477,50.242,15.505
48037390,-0.513,0.451,0.512,32.9,68.827,23.957
48037400,-0.533,0.461,0.505,41.09,81.532,29.802
48037410,-0.53,0.476,0.485,50.47,91.105,33.53
48037420,-0.578,0.493,0.474,58.082,98.052,39.13
48037430,-0.759,0.47,0.479,61.39,95.392,44.275
48037440,-0.965,0.472,0.44,64.732,77.437,35.07
48037450,-0.976,0.509,0.336,69.72,49.245,22.907
48037460,-1.009,0.592,0.231,70.402,29.732,16.572
48037470,-1.091,0.681,0.178,56.542,22.697,16.642
48037480,-1.154,0.725,0.18,31.64,20.055,16.257
48037490,-1.083,0.722,0.202,0.175,6.422,16.24
48037500,-0.913,0.652,0.202,-30.415,-15.505,20.72
48037510,-0.779,0.632,0.264,-52.797,-29.715,21.052
48037520,-0.741,0.624,0.345,-70.227,-36.4,17.99
48037530,-0.785,0.546,0.422,-84.542,-44.467,13.79
48037540,-0.828,0.458,0.459,-88.935,-56.91,7.052
48037550,-0.796,0.429,0.492,-77.017,-68.582,0.297
48037560,-0.702,0.425,0.509,-59.885,-70.595,-4.27
48037570,-0.62,0.4,0.511,-44.1,-58.975,-6.93
48037570,-0.639,0.403,0.509,-29.645,-39.935,-6.982
48037580,-0.66,0.433,0.512,-17.832,-24.622,-5.355
48037590,-0.679,0.461,0.51,-12.792,-16.152,-4.322
48037600,-0.706,0.465,0.489,-13.247,-15.872,-3.412
48037610,-0.748,0.461,0.479,-14.857,-20.16,-1.75
48037620,-0.753,0.45,0.473,-14.297,-27.895,-2.415
48037630,-0.741,0.442,0.472,-9.362,-31.885,-4.882
48037640,-0.695,0.455,0.464,0.997,-30.712,-8.837
48037650,-0.68,0.508,0.456,14.087,-22.207,-11.812
48037660,-0.713,0.587,0.447,21.805,-13.947,-12.792
48037670,-0.772,0.627,0.424,19.355,-13.457,-14.297
48037680,-0.807,0.645,0.398,10.57,-22.277,-19.057
48037690,-0.886,0.62,0.37,-0.122,-38.185,-23.817
48037700,-0.795,0.571,0.403,-11.76,-50.89,-25.287
48037710,-0.802,0.492,0.451,-16.87,-44.765,-21.21
48037720,-0.797,0.499,0.486,-12.6,-44.345,-16.607
48037730,-0.787,0.519,0.503,-14.227,-52.535,-15.54
48037740,-0.716,0.475,0.53,-24.08,-66.395,-18.077
48037750,-0.662,0.364,0.565,-33.145,-62.615,-14.56
48037760,-0.65,0.351,0.595,-27.265,-52.062,-7.49
48037770,-0.555,0.393,0.614,-21.245,-44.397,-3.885
48037780,-0.521,0.378,0.626,-19.95,-32.62,-0.822
48037790,-0.551,0.379,0.634,-21.315,-15.715,0.682
48037800,-0.538,0.4,0.629,-20.475,1.155,2.992
48037810,-0.673,0.374,0.621,-19.425,15.522,6.72
48037820,-0.673,0.387,0.587,-16.152,19.022,4.06
48037830,-0.696,0.413,0.551,-11.882,21.717,1.592
48037840,-0.734,0.41,0.516,-7.385,19.18,-1.872
48037850,-0.729,0.421,0.487,-1.417,13.702,-4.41
48037860,-0.74,0.417,0.476,6.387,8.925,-8.067
48037870,-0.729,0.444,0.49,15.732,6.037,-11.497
48037880,-0.76,0.453,0.491,21.997,5.687,-13.492
48037890,-0.743,0.46,0.51,26.092,4.97,-14.507
48037900,-0.796,0.437,0.56,29.96,2.537,-15.417
48037910,-0.679,0.483,0.567,33.6,-9.24,-16.835
48037920,-0.643,0.536,0.566,27.177,-10.972,-14.927
48037920,-0.714,0.487,0.572,11.76,-9.87,-13.422
48037940,-0.718,0.452,0.56,-0.122,-9.38,-8.417
48037940,-0.681,0.468,0.556,-5.897,-7.84,-1.417
48037960,-0.675,0.454,0.576,-13.37,-0.455,5.267
48037960,-0.739,0.41,0.57,-19.337,1.995,9.345
48037980,-0.653,0.417,0.553,-20.247,-0.472,10.902
48037980,-0.679,0.441,0.552,-18.357,2.24,9.992
48038000,-0.692,0.466,0.54,-19.127,3.692,11.007
48038000,-0.678,0.483,0.534,-23.765,8.067,13.685
48038010,-0.831,0.479,0.541,-30.362,20.842,18.007
48038020,-0.857,0.462,0.521,-35.91,15.907,19.127
48038030,-0.795,0.429,0.503,-36.732,6.72,14.805
48038040,-0.777,0.413,0.504,-28.77,0.402,7.647
48038050,-0.719,0.435,0.482,-18.077,-4.462,0.7
48038060,-0.681,0.439,0.482,-7.91,-11.672,-5.127
48038070,-0.648,0.419,0.495,2.415,-13.807,-9.677
48038080,-0.646,0.39,0.5,12.512,-10.762,-13.457
48038090,-0.744,0.391,0.518,22.592,-5.355,-13.877
48038100,-0.775,0.394,0.526,29.662,-7.84,-14.35
48038110,-0.792,0.408,0.528,34.527,-10.237,-15.872
48038120,-0.848,0.441,0.483,38.482,-20.037,-20.02
48038130,-0.714,0.484,0.496,42.91,-43.207,-23.712
48038140,-0.554,0.482,0.523,43.207,-47.337,-25.06
48038150,-0.657,0.57,0.595,38.377,-37.52,-23.152
48038160,-0.784,0.516,0.568,18.97,-34.335,-11.83
48038170,-0.77,0.448,0.585,3.272,-33.267,-1.645
48038180,-0.787,0.46,0.613,-3.745,-32.812,0.927
48038190,-0.721,0.415,0.604,-10.08,-33.547,2.03
48038200,-0.707,0.398,0.607,-12.687,-31.412,3.272
48038210,-0.659,0.422,0.61,-13.877,-30.362,2.152
48038220,-0.627,0.428,0.607,-17.167,-29.505,1.697
48038230,-0.613,0.411,0.597,-19.442,-29.295,4.462
48038240,-0.565,0.403,0.59,-17.64,-27.982,6.335
48038250,-0.526,0.395,0.587,-14.297,-16.8,5.757
48038260,-0.625,0.392,0.589,-9.677,-1.627,3.027
48038260,-0.673,0.39,0.564,-4.06,4.042,1.645
48038280,-0.7,0.404,0.558,1.802,4.462,3.202
48038280,-0.671,0.383,0.521,7.927,2.135,5.915
48038300,-0.629,0.352,0.495,18.357,3.447,8.977
48038300,-0.623,0.328,0.491,34.51,7.927,14.84
48038320,-0.569,0.291,0.497,55.492,12.687,28.367
48038320,-0.601,0.286,0.554,81.48,21.28,46.567
48038330,-0.608,0.372,0.612,104.09,27.44,52.675
48038340,-0.489,0.451,0.641,112.682,33.775,49.087
48038350,-0.47,0.424,0.651,112.542,61.565,48.23
48038360,-0.692,0.486,0.646,114.73,92.82,47.512
48038370,-0.829,0.561,0.596,110.197,100.082,40.232
48038380,-0.84,0.594,0.505,97.737,83.807,34.982
48038390,-0.782,0.613,0.441,81.2,62.737,36.96
48038400,-0.756,0.624,0.414,65.957,45.255,39.55
48038410,-0.714,0.636,0.396,51.502,33.687,37.905
48038420,-0.69,0.656,0.39,38.447,27.58,35.297
48038430,-0.677,0.644,0.402,25.252,24.342,35.98
48038440,-0.62,0.645,0.398,16.205,20.807,37.485
48038450,-0.62,0.673,0.388,8.995,23.432,38.57
48038460,-0.643,0.677,0.366,-0.752,28,38.412
48038470,-0.691,0.689,0.349,-11.76,31.465,37.782
48038480,-0.736,0.713,0.323,-25.182,29.697,35.35
48038490,-0.788,0.706,0.314,-42.14,23.572,30.362
48038500,-0.84,0.661,0.305,-57.032,10.727,21.07
48038510,-0.835,0.677,0.344,-60.795,-4.427,8.47
48038520,-0.784,0.67,0.337,-59.167,-18.025,-3.272
48038530,-0.752,0.673,0.339,-56.56,-24.132,-10.535
48038540,-0.745,0.656,0.362,-52.955,-25.532,-9.467
48038550,-0.712,0.633,0.381,-47.285,-24.972,-3.745
48038560,-0.67,0.624,0.398,-42.07,-25.235,1.295
48038570,-0.629,0.613,0.416,-39.182,-25.13,1.802
48038580,-0.623,0.595,0.437,-37.712,-24.29,0.227
48038590,-0.651,0.592,0.449,-36.96,-22.977,-0.647
48038600,-0.683,0.587,0.461,-38.062,-22.54,-1.417
48038610,-0.708,0.571,0.469,-40.162,-23.642,-2.712
48038620,-0.72,0.558,0.475,-41.912,-25.847,-3.115
48038630,-0.712,0.534,0.492,-42.507,-28,-2.205
48038640,-0.703,0.506,0.506,-41.195,-29.067,-2.047
48038650,-0.693,0.475,0.514,-36.347,-30.712,-4.637
48038660,-0.661,0.475,0.516,-26.652,-32.445,-10.57
48038670,-0.662,0.508,0.531,-15.557,-33.425,-19.057
48038670,-0.679,0.528,0.526,-9.292,-35.42,-28.262
48038690,-0.727,0.541,0.514,-5.512,-38.867,-33.267
48038690,-0.753,0.535,0.499,-3.185,-44.782,-34.212
48038710,-0.698,0.562,0.513,-0.437,-51.642,-34.79
48038710,-0.666,0.531,0.548,-2.555,-43.382,-31.587
48038730,-0.784,0.546,0.516,-0.402,-39.532,-28.892
48038730,-0.743,0.62,0.516,-4.305,-43.172,-28.525
48038750,-0.835,0.6,0.5,-18.427,-51.31,-29.242
48038750,-0.754,0.575,0.552,-30.66,-66.832,-29.697
48038760,-0.586,0.474,0.629,-39.112,-65.66,-23.94
48038770,-0.581,0.482,0.637,-33.74,-52.762,-16.03
48038780,-0.473,0.541,0.653,-33.425,-46.182,-15.925
48038790,-0.403,0.482,0.631,-40.32,-33.932,-15.54
48038800,-0.301,0.44,0.601,-41.317,-14.385,-9.782
48038810,-0.322,0.438,0.629,-41.212,26.915,-1.54
48038820,-0.645,0.431,0.651,-43.242,53.62,-0.017
48038830,-0.758,0.357,0.648,-42.455,50.382,-5.897
48038840,-0.658,0.384,0.593,-30.782,33.74,-10.587
48038850,-0.575,0.381,0.533,-19.897,35.017,-8.89
48038860,-0.782,0.339,0.491,-6.16,34.545,-10.832
48038870,-0.636,0.427,0.483,12.267,20.107,-14.875
48038880,-0.648,0.433,0.481,24.29,18.217,-18.13
48038890,-0.742,0.465,0.515,34.475,20.195,-17.692
48038900,-0.864,0.496,0.575,40.635,8.697,-18.322
48038910,-0.685,0.556,0.545,43.645,-18.322,-25.83
48038920,-0.609,0.625,0.571,36.592,-25.06,-32.865
48038930,-0.77,0.586,0.602,19.197,-19.757,-35.472
48038940,-0.765,0.546,0.576,0.7,-13.3,-25.235
48038950,-0.743,0.552,0.622,-14.927,-7.945,-15.54
48038960,-0.732,0.519,0.66,-32.585,-2.555,-12.967
48038970,-0.651,0.432,0.664,-47.057,-2.17,-10.447
48038980,-0.564,0.424,0.654,-53.847,-0.455,-5.337
48038990,-0.513,0.407,0.647,-58.397,5.617,-2.31
48039000,-0.416,0.394,0.591,-61.285,24.395,-0.122
48039010,-0.579,0.42,0.612,-65.485,52.692,4.2
48039010,-0.839,0.317,0.572,-70.822,61.302,6.02
48039030,-0.923,0.249,0.471,-58.625,45.902,2.695
48039030,-0.89,0.358,0.423,-34.825,25.27,0.945
48039050,-0.888,0.38,0.417,-20.107,7.052,-2.765
48039050,-0.784,0.402,0.418,-14.892,-4.34,-12.897
48039070,-0.849,0.418,0.495,-6.16,-12.862,-16.327
48039070,-0.651,0.45,0.518,1.575,-24.325,-13.58
48039080,-0.644,0.468,0.58,4.882,-19.74,-12.39
48039090,-0.663,0.429,0.599,3.395,-13.055,-18.112
48039100,-0.666,0.415,0.615,4.795,-7.542,-23.537
48039110,-0.721,0.428,0.62,6.597,-3.92,-26.512
48039120,-0.817,0.425,0.583,5.005,-8.47,-28.14
48039130,-0.687,0.434,0.565,2.397,-23.047,-27.895
48039140,-0.615,0.397,0.581,-0.612,-22.75,-24.272
48039150,-0.693,0.369,0.589,-3.167,-11.847,-19.67
48039160,-0.712,0.348,0.595,-5.775,-9.502,-14.98
48039170,-0.665,0.32,0.6,-7.35,-10.29,-11.55
48039180,-0.658,0.312,0.606,-6.475,-7.665,-8.155
48039190,-0.659,0.308,0.612,-5.145,-3.132,-4.637
48039200,-0.638,0.331,0.616,-3.482,-0.052,-0.56
48039210,-0.594,0.344,0.616,-2.695,5.32,3.937
48039220,-0.575,0.37,0.624,-1.855,13.282,9.362
48039230,-0.524,0.406,0.567,-1.872,25.375,16.695
48039240,-0.561,0.435,0.516,-3.64,48.405,24.5
48039250,-0.691,0.471,0.489,-3.797,68.18,31.885
48039260,-0.747,0.525,0.444,-1.715,74.462,40.827
48039270,-0.726,0.578,0.421,0.07,79.24,46.847
48039280,-0.778,0.603,0.45,-0.682,83.965,48.457
48039290,-0.836,0.606,0.479,-1.365,87.412,48.545
48039300,-0.885,0.639,0.488,0.455,85.242,45.412
48039310,-0.902,0.678,0.475,-1.207,75.6,37.292
48039320,-0.872,0.691,0.436,-7.735,59.045,25.83
48039330,-0.828,0.677,0.411,-20.387,39.217,15.225
48039340,-0.813,0.635,0.396,-36.732,20.457,3.5
48039350,-0.811,0.589,0.358,-54.162,-0.472,-11.095
48039360,-0.778,0.519,0.335,-64.627,-20.737,-22.365
48039370,-0.61,0.504,0.286,-62.212,-31.307,-17.587
48039380,-0.751,0.189,0.415,-52.202,-26.337,-2.31
48039390,-0.735,0.278,0.499,-35.892,-21.035,-5.792
48039400,-0.726,0.28,0.521,-14.385,-15.155,-3.972
48039410,-0.79,0.148,0.609,3.167,-7.192,2.537
48039420,-0.795,0.177,0.634,10.307,0.245,-3.412
48039420,-0.948,0.049,0.762,14.437,1.662,-11.55
48039440,-0.958,0.018,0.703,21.122,-17.237,-20.545
48039440,-0.752,0.04,0.694,26.302,-27.72,-14.98
48039460,-0.69,0.065,0.681,29.277,-24.395,-8.785
48039460,-0.702,0.093,0.694,31.185,-15.102,-7.052
48039480,-0.718,0.129,0.675,32.637,-7.315,-5.53
48039480,-0.683,0.182,0.662,36.697,0.577,-3.237
48039500,-0.709,0.219,0.658,40.285,14.192,-1.697
48039500,-0.757,0.228,0.629,44.765,26.11,-2.31
48039510,-0.761,0.259,0.625,49.822,34.51,-3.447
48039520,-0.79,0.273,0.609,54.215,36.942,-2.992
48039530,-0.857,0.287,0.601,60.077,31.447,-5.617
48039540,-0.893,0.344,0.593,63.77,15.015,-9.38
48039550,-0.874,0.361,0.562,61.145,-4.217,-12.39
48039560,-0.866,0.377,0.533,56.192,-23.537,-14.63
48039570,-0.838,0.401,0.5,50.032,-39.76,-16.187
48039580,-0.755,0.416,0.476,44.17,-50.417,-16.152
48039590,-0.7,0.429,0.443,37.642,-48.65,-12.267
48039600,-0.715,0.417,0.432,32.847,-39.077,-8.645
48039610,-0.705,0.443,0.428,31.447,-26.39,-6.965
48039620,-0.728,0.466,0.427,28.717,-14.7,-6.422
48039630,-0.783,0.473,0.408,23.625,-8.68,-6.107
48039640,-0.793,0.51,0.391,17.115,-10.377,-6.597
48039650,-0.784,0.552,0.378,6.02,-14.28,-7.262
48039660,-0.784,0.575,0.361,-10.465,-18.532,-8.995
48039670,-0.785,0.569,0.359,-27.755,-22.767,-13.09
48039680,-0.765,0.57,0.37,-41.527,-26.477,-19.442
48039690,-0.767,0.556,0.379,-50.75,-28.122,-24.57
48039700,-0.763,0.513,0.399,-54.092,-29.33,-25.06
48039710,-0.742,0.485,0.427,-47.635,-28.402,-15.977
48039720,-0.7,0.504,0.469,-35.14,-22.61,-3.15
48039730,-0.661,0.514,0.496,-24.587,-14.315,8.277
48039740,-0.603,0.522,0.506,-18.585,-7.385,12.74
48039750,-0.581,0.513,0.513,-14.35,-1.942,10.955
48039760,-0.612,0.494,0.515,-8.82,-0.105,10.657
48039760,-0.588,0.51,0.502,-2.415,-2.887,9.87
48039780,-0.598,0.507,0.498,2.082,-4.165,8.575
48039780,-0.622,0.535,0.492,1.102,-3.675,6.247
48039800,-0.732,0.476,0.503,-3.22,-4.182,3.097
48039800,-0.898,0.419,0.529,-8.155,-12.46,-0.91
48039820,-1.018,0.366,0.557,-10.412,-28.927,-6.807
48039820,-1.002,0.276,0.553,-8.33,-45.587,-13.877
48039830,-0.935,0.208,0.578,1.872,-39.2,-16.31
48039840,-0.983,0.291,0.576,19.95,-23.117,-14.507
48039850,-0.948,0.344,0.543,21.612,-20.685,-14.84
48039860,-0.887,0.346,0.509,12.967,-27.755,-16.1
48039870,-0.842,0.302,0.508,-0.262,-32.112,-13.527
48039880,-0.746,0.275,0.543,-6.247,-35.175,-8.487
48039890,-0.662,0.277,0.581,-7.42,-32.62,-1.732
48039900,-0.621,0.287,0.607,-6.335,-26.547,0.402
48039910,-0.535,0.29,0.632,-2.87,-17.587,-0.735
48039920,-0.573,0.306,0.639,2.222,-2.712,0.175
48039930,-0.66,0.328,0.629,5.477,11.9,0.437
48039940,-0.661,0.358,0.586,6.877,15.645,0.175
48039950,-0.653,0.376,0.566,5.635,21.017,1.015
48039960,-0.698,0.394,0.561,3.202,26.04,2.607
48039970,-0.73,0.401,0.551,0.087,26.775,3.045
48039980,-0.75,0.4,0.545,-1.855,23.45,2.852
48039990,-0.76,0.396,0.533,-1.855,19.127,3.29
48040000,-0.791,0.394,0.52,0.49,13.212,3.675
48040010,-0.817,0.404,0.511,3.99,6.195,3.15
48040020,-0.822,0.416,0.516,6.02,-2.257,1.837
48040030,-0.853,0.371,0.505,6.247,-11.497,-0.052
48040040,-0.924,0.335,0.534,10.867,-26.88,-5.337
48040050,-0.895,0.341,0.567,18.935,-45.36,-12.477
48040060,-0.797,0.339,0.583,26.46,-55.982,-16.887
48040070,-0.79,0.374,0.593,29.925,-57.61,-19.95
48040080,-0.793,0.406,0.574,23.695,-57.767,-20.265
48040090,-0.812,0.459,0.544,8.75,-56.875,-19.022
48040100,-0.828,0.46,0.506,-14.035,-55.895,-16.03
48040110,-0.853,0.493,0.489,-35.997,-60.165,-9.24
48040120,-0.685,0.425,0.535,-58.712,-51.957,1.802
48040130,-0.658,0.314,0.596,-66.15,-39.305,7.367
48040140,-0.525,0.331,0.616,-60.637,-22.802,7.332
48040150,-0.502,0.362,0.613,-55.282,5.197,7.49
48040160,-0.601,0.396,0.604,-54.862,29.382,8.54
48040170,-0.592,0.366,0.581,-58.415,38.972,10.657
48040170,-0.549,0.346,0.571,-57.645,45.71,17.115
48040190,-0.514,0.338,0.608,-52.045,50.75,23.782
48040190,-0.519,0.284,0.66,-45.92,57.382,27.247
48040210,-0.685,0.199,0.669,-33.95,57.855,19.232
48040210,-0.8,0.227,0.661,-9.73,39.917,6.475
48040230,-0.692,0.326,0.566,18.935,15.54,-2.012
48040230,-0.638,0.45,0.514,38.062,13.107,-6.912
48040250,-0.869,0.482,0.496,43.54,21.087,-14.35
48040250,-1.04,0.494,0.525,44.082,14.175,-19.267
48040260,-1.037,0.47,0.527,47.39,-19.145,-25.2
48040270,-0.722,0.525,0.486,53.235,-48.615,-25.357
48040280,-0.573,0.558,0.497,48.685,-49.245,-26.652
48040290,-0.648,0.504,0.512,35.997,-34.72,-28.192
48040300,-0.704,0.469,0.536,21.577,-25.83,-22.067
48040310,-0.737,0.45,0.577,6.387,-19.285,-13.265
48040320,-0.794,0.367,0.604,-9.292,-15.137,-6.195
48040330,-0.779,0.32,0.596,-20.125,-14.735,0.735
48040340,-0.764,0.27,0.635,-27.755,-14.192,8.19
48040350,-0.762,0.213,0.635,-32.252,-12.267,11.41
48040360,-0.682,0.208,0.636,-32.567,-5.092,14
48040370,-0.739,0.177,0.677,-32.707,4.2,15.645
48040380,-0.684,0.155,0.657,-30.047,7.122,14.437
48040390,-0.606,0.209,0.622,-27.737,21.472,14.525
48040400,-0.833,0.196,0.641,-26.565,36.365,8.89
48040410,-0.931,0.189,0.595,-21.21,28.822,5.005
48040420,-0.802,0.219,0.568,-9.047,14.647,2.975
48040430,-0.796,0.233,0.541,5.32,6.685,1.417
48040440,-0.72,0.234,0.524,21.122,-2.712,3.062
48040450,-0.666,0.3,0.51,38.867,-6.842,3.132
48040460,-0.664,0.374,0.545,55.195,-11.707,0.787
48040470,-0.637,0.452,0.598,67.182,-13.702,-4.777
48040480,-0.688,0.475,0.619,71.715,-17.657,-11.077
48040490,-0.669,0.507,0.603,71.89,-28.455,-15.26
48040500,-0.634,0.522,0.591,68.67,-38.85,-19.005
48040510,-0.567,0.521,0.541,62.177,-41.492,-19.6
48040510,-0.661,0.512,0.521,53.725,-30.957,-18.917
48040530,-0.833,0.526,0.523,42.77,-23.835,-14.087
48040530,-0.855,0.534,0.504,24.71,-22.925,-6.597
48040550,-0.902,0.482,0.531,0.857,-17.185,1.207
48040550,-0.979,0.37,0.587,-20.965,-16.607,7.577
48040570,-0.826,0.282,0.594,-32.935,-24.57,12.337
48040570,-0.665,0.287,0.593,-36.015,-19.687,14.84
48040580,-0.536,0.331,0.574,-38.447,-1.19,17.255
48040590,-0.535,0.339,0.586,-47.46,28.525,20.58
48040600,-0.714,0.266,0.644,-55.317,48.755,23.047
48040610,-0.805,0.193,0.678,-54.285,46.252,26.355
48040620,-0.705,0.202,0.655,-41.125,33.6,26.022
48040630,-0.615,0.244,0.606,-25.007,26.705,22.417
48040640,-0.687,0.27,0.561,-11.182,25.252,15.75
48040650,-0.732,0.292,0.549,4.917,15.925,9.555
48040660,-0.721,0.34,0.533,22.837,3.745,5.845
48040670,-0.741,0.454,0.525,36.872,-3.447,0.595
48040680,-0.819,0.499,0.526,40.687,-6.16,-6.492
48040690,-1.009,0.432,0.556,42.7,-18.252,-10.972
48040700,-0.888,0.506,0.511,52.395,-46.777,-11.97
48040710,-0.723,0.562,0.49,54.11,-62.685,-10.202
48040720,-0.747,0.522,0.51,45.657,-61.775,-10.097
48040730,-0.725,0.503,0.536,34.265,-58.222,-7.105
48040740,-0.7,0.49,0.574,21.315,-55.317,-5.95
48040750,-0.696,0.457,0.63,6.142,-48.685,-3.342
48040760,-0.658,0.408,0.652,-7.63,-42.42,0.805
48040770,-0.641,0.395,0.669,-19.425,-30.362,8.732
48040780,-0.67,0.391,0.703,-31.64,-23.047,17.097
48040790,-0.595,0.383,0.712,-45.622,-21.997,23.397
48040800,-0.575,0.343,0.688,-56.595,-15.645,29.225
48040810,-0.456,0.321,0.602,-59.237,-3.08,33.127
48040820,-0.475,0.318,0.586,-59.71,21.647,34.387
48040830,-0.581,0.2,0.627,-60.742,41.79,32.637
48040840,-0.703,0.161,0.592,-42.595,54.67,25.62
48040850,-0.843,0.295,0.604,-17.097,48.597,17.08
48040860,-0.848,0.346,0.536,-2.38,27.755,7.682
48040870,-0.846,0.386,0.51,10.237,9.712,4.865
48040880,-0.814,0.438,0.521,15.837,-0.822,-2.047
48040890,-0.771,0.452,0.549,15.26,-5.705,-7.7
48040900,-0.804,0.445,0.569,12.775,-7.56,-9.275
48040910,-0.792,0.422,0.572,12.39,-12.81,-11.847
48040920,-0.759,0.388,0.57,13.755,-18.48,-15.785
48040920,-0.637,0.42,0.561,17.99,-21.455,-18.06
48040940,-0.698,0.376,0.57,20.79,-17.675,-17.972
48040940,-0.783,0.369,0.614,24.325,-19.285,-18.637
48040960,-0.808,0.359,0.629,27.912,-36.19,-21.052
48040960,-0.619,0.412,0.592,29.032,-51.1,-23.065
48040970,-0.579,0.404,0.588,25.707,-45.517,-20.422
48040980,-0.692,0.418,0.605,19.74,-33.232,-16.345
48040990,-0.701,0.399,0.625,11.077,-28.752,-12.582
48041000,-0.644,0.431,0.65,3.15,-23.292,-6.3
48041010,-0.779,0.397,0.687,-5.95,-18.847,0.717
48041020,-0.632,0.465,0.699,-17.5,-24.097,5.547
48041030,-0.532,0.351,0.69,-31.01,-24.762,12.547
48041040,-0.448,0.126,0.53,-31.237,-18.375,21.805
48041050,-0.578,0.053,0.539,-10.64,-10.587,33.67
48041060,-0.675,0.259,0.488,16.922,-1.207,32.27
48041070,-0.643,0.3,0.589,31.412,-7.875,25.69
48041080,-0.867,0.481,0.389,32.007,-10.867,29.015
48041090,-0.672,0.911,0.912,66.692,1.592,-6.09
48041100,-0.722,0.442,0.796,11.06,4.217,-10.675
48041110,-0.611,0.534,0.747,-3.412,1.68,-3.517
48041120,-0.537,0.46,0.678,0.472,11.987,-2.642
48041130,-0.466,0.415,0.593,4.742,22.347,-10.255
48041140,-0.59,0.351,0.554,9.677,32.287,-14.385
48041150,-0.68,0.395,0.56,14.577,32.427,-13.16
48041160,-0.718,0.394,0.568,15.68,27.667,-14.227
48041170,-0.782,0.379,0.574,16.45,23.24,-13.912
48041180,-0.828,0.424,0.541,16.8,15.19,-11.795
48041190,-0.795,0.411,0.571,14.017,1.435,-11.34
48041200,-0.774,0.353,0.6,12.127,-10.5,-12.215
48041210,-0.722,0.359,0.628,15.312,-16.03,-7.682
48041220,-0.676,0.395,0.639,17.517,-17.36,-5.232
48041230,-0.683,0.394,0.639,14.805,-15.785,-4.882
48041240,-0.676,0.398,0.659,8.697,-11.34,-3.78
48041250,-0.728,0.435,0.629,1.82,-5.46,-1.785
48041260,-0.703,0.449,0.602,-2.45,-5.32,-1.54
48041260,-0.689,0.453,0.59,-7.752,-3.08,-0.07
48041280,-0.701,0.426,0.586,-12.757,-1.662,2.975
48041280,-0.668,0.42,0.586,-14.77,-2.712,7.087
48041300,-0.653,0.391,0.594,-15.102,-3.99,10.062
48041300,-0.621,0.422,0.624,-10.885,-2.17,10.552
48041320,-0.635,0.427,0.591,-11.707,10.867,11.55
48041320,-0.767,0.421,0.583,-10.972,18.585,10.377
48041330,-0.805,0.415,0.567,-11.462,18.34,10.377
48041340,-0.786,0.381,0.557,-12.67,15.067,9.17
48041350,-0.703,0.406,0.573,-12.162,12.617,8.155
48041360,-0.815,0.363,0.532,-14.052,10.115,10.132
48041370,-0.772,0.379,0.592,-7.735,8.75,0.157
