time[ms],accX[g],accY[g],accZ[g],Value 1,Value 2,Value 3
48122770,-0.706,0.346,0.605,-4.025,-0.122,0.665
48122780,-0.695,0.339,0.614,-5.442,1.347,-0.175
48122790,-0.692,0.341,0.612,-7.245,4.69,-0.35
48122800,-0.705,0.337,0.61,-8.417,7.437,-0.647
48122810,-0.72,0.344,0.618,-8.977,9.362,-1.225
48122820,-0.723,0.345,0.593,-10.342,10.22,-1.68
48122830,-0.791,0.43,0.562,-12.932,11.55,-0.35
48122840,-0.816,0.319,0.576,-21.035,4.55,-1.085
48122850,-0.759,0.289,0.594,-15.82,-0.647,-4.882
48122860,-0.693,0.317,0.595,-9.817,-0.84,-3.692
48122870,-0.734,0.311,0.599,-8.452,-0.087,-4.427
48122880,-0.736,0.301,0.608,-6.685,-0.052,-3.797
48122890,-0.745,0.311,0.601,-3.99,0.42,-3.482
48122900,-0.756,0.306,0.592,-0.927,-0.542,-3.43
48122910,-0.76,0.315,0.557,2.957,-0.612,-1.75
48122920,-0.793,0.332,0.572,4.182,-5.967,-1.312
48122920,-0.827,0.325,0.608,4.182,-11.9,-2.275
48122930,-0.774,0.273,0.567,6.93,-15.925,-0.612
48122940,-0.596,0.273,0.571,16.257,-18.655,-2.45
48122950,-0.655,0.389,0.637,19.11,-13.212,-1.085
48122960,-0.779,0.333,0.618,7,-8.487,0.455
48122970,-0.687,0.297,0.595,3.885,-6.86,1.505
48122980,-0.698,0.327,0.609,4.462,-3.885,2.905
48122990,-0.728,0.316,0.612,4.007,-1.89,4.637
48123000,-0.722,0.339,0.595,4.252,0.105,6.632
48123010,-0.715,0.343,0.588,2.485,0.577,5.53
48123020,-0.726,0.336,0.592,0.385,1.12,4.042
48123030,-0.727,0.341,0.596,-0.63,1.19,4.06
48123040,-0.719,0.35,0.598,-1.242,2.117,3.972
48123050,-0.723,0.36,0.599,-2.502,2.642,3.36
48123060,-0.709,0.366,0.616,-4.602,3.657,1.61
48123070,-0.695,0.351,0.617,-7.385,6.352,-0.14
48123080,-0.706,0.358,0.612,-9.52,10.482,-0.595
48123090,-0.733,0.345,0.589,-13.247,13.807,0.262
48123100,-0.737,0.311,0.564,-14.367,13.09,0.647
48123110,-0.741,0.325,0.575,-11.55,11.9,0.752
48123120,-0.794,0.305,0.592,-10.832,8.68,-0.682
48123130,-0.794,0.302,0.575,-7.28,5.302,-0.647
48123140,-0.774,0.312,0.539,-4.095,1.487,0.227
48123150,-0.789,0.317,0.548,-2.677,-4.112,-0.472
48123160,-0.826,0.33,0.568,-2.012,-10.5,-1.347
48123170,-0.791,0.333,0.571,-1.295,-15.89,-2.992
48123180,-0.757,0.32,0.586,0.14,-20.282,-3.955
48123190,-0.714,0.323,0.615,2.502,-21.98,-4.445
48123200,-0.707,0.311,0.626,4.48,-19.705,-4.567
48123210,-0.679,0.3,0.607,7.595,-14.595,-4.62
48123220,-0.683,0.32,0.598,10.605,-10.587,-3.92
48123230,-0.726,0.34,0.602,9.642,-8.032,-2.782
48123240,-0.743,0.34,0.603,6.44,-7.927,-2.94
48123250,-0.75,0.332,0.588,4.2,-7.157,-2.712
48123260,-0.741,0.317,0.589,3.395,-8.802,-2.782
48123260,-0.738,0.307,0.607,3.92,-9.082,-1.487
48123280,-0.724,0.304,0.612,3.92,-8.942,0.612
48123280,-0.693,0.308,0.6,3.587,-6.405,2.03
48123300,-0.696,0.32,0.606,2.467,-4.13,2.695
48123300,-0.705,0.327,0.608,1.102,-1.242,3.465
48123320,-0.71,0.339,0.609,-0.227,0.367,4.025
48123320,-0.709,0.343,0.62,-2.275,1.995,3.937
48123330,-0.719,0.347,0.611,-4.742,2.887,4.077
48123340,-0.716,0.347,0.596,-7.542,4.27,4.427
48123350,-0.723,0.347,0.597,-9.852,4.83,3.692
48123360,-0.728,0.353,0.605,-12.442,5.53,2.345
48123370,-0.739,0.333,0.598,-14.822,6.51,1.575
48123380,-0.733,0.319,0.587,-13.895,6.247,-0.192
48123390,-0.762,0.343,0.578,-11.182,4.987,-1.277
48123400,-0.793,0.346,0.577,-11.48,1.032,-2.275
48123410,-0.779,0.317,0.602,-11.182,-4.182,-3.745
48123420,-0.724,0.306,0.607,-8.12,-5.74,-4.76
48123430,-0.724,0.307,0.591,-4.83,-5.11,-5.092
48123440,-0.744,0.305,0.603,-2.362,-5.442,-5.792
48123450,-0.756,0.297,0.595,-0.367,-5.652,-5.985
48123460,-0.764,0.294,0.584,1.942,-6.685,-5.162
48123470,-0.783,0.284,0.568,4.497,-9.31,-4.182
48123480,-0.774,0.277,0.578,8.54,-13.947,-3.657
48123490,-0.74,0.281,0.609,13.58,-17.605,-4.322
48123500,-0.708,0.308,0.634,17.377,-16.607,-4.147
48123510,-0.683,0.318,0.624,16.467,-13.09,-1.715
48123520,-0.695,0.327,0.614,12.985,-8.75,1.26
48123530,-0.7,0.311,0.61,8.242,-5.652,2.59
48123540,-0.697,0.321,0.606,6.265,-2.677,2.485
48123550,-0.71,0.319,0.598,3.885,-0.157,2.87
48123560,-0.713,0.324,0.589,2.8,0.175,3.657
48123570,-0.733,0.342,0.594,1.207,-0.017,3.972
48123580,-0.738,0.344,0.611,-1.33,-1.26,3.517
48123590,-0.731,0.352,0.622,-3.815,-0.857,3.36
48123600,-0.706,0.345,0.621,-5.967,0.315,2.327
48123600,-0.693,0.337,0.615,-7.35,2.8,1.995
48123620,-0.682,0.373,0.623,-9.047,6.37,2.17
48123620,-0.749,0.341,0.591,-15.89,11.62,3.465
48123640,-0.735,0.274,0.574,-16.975,9.205,2.222
48123640,-0.733,0.317,0.58,-9.765,7.717,1.907
48123660,-0.776,0.348,0.578,-7.595,5.757,1.697
48123660,-0.803,0.32,0.578,-8.662,1.575,0.962
48123670,-0.773,0.299,0.59,-6.212,-4.077,-0.927
48123680,-0.738,0.287,0.594,-1.662,-6.51,-2.135
48123690,-0.742,0.287,0.593,2.905,-7.595,-1.19
48123700,-0.741,0.3,0.596,6.037,-8.19,-0.525
48123710,-0.767,0.306,0.579,6.51,-9.52,-0.385
48123720,-0.794,0.298,0.559,7.752,-13.352,-1.435
48123730,-0.8,0.304,0.562,12.302,-21.472,-2.73
48123740,-0.765,0.341,0.615,16.17,-27.545,-3.237
48123750,-0.728,0.301,0.629,13.282,-27.842,-1.505
48123760,-0.652,0.279,0.643,9.485,-24.692,2.292
48123770,-0.649,0.224,0.628,6.65,-19.267,5.827
48123780,-0.631,0.257,0.622,11.2,-13.335,6.772
48123790,-0.709,0.345,0.621,15.522,-7.682,8.767
48123800,-0.762,0.377,0.614,12.897,-5.81,8.19
48123810,-0.776,0.384,0.603,8.557,-7.787,7.595
48123820,-0.735,0.415,0.607,3.377,-11.077,5.495
48123830,-0.729,0.356,0.607,-0.84,-10.815,5.407
48123840,-0.64,0.374,0.637,-2.275,-8.487,3.657
48123850,-0.625,0.337,0.64,-2.87,-2.45,3.972
48123860,-0.6,0.301,0.651,-1.837,6.125,3.535
48123870,-0.605,0.31,0.655,0.42,17.5,4.847
48123880,-0.662,0.302,0.642,0.735,28.402,6.807
48123890,-0.688,0.278,0.633,2.572,36.89,8.907
48123900,-0.691,0.276,0.644,8.802,44.45,9.59
48123910,-0.702,0.274,0.631,17.535,52.132,9.59
48123920,-0.692,0.27,0.624,29.067,58.135,9.397
48123930,-0.777,0.31,0.618,41.72,61.74,6.93
48123940,-0.871,0.309,0.594,44.1,54.18,-5.407
48123950,-0.854,0.339,0.556,44.642,38.972,-16.205
48123960,-0.854,0.352,0.53,39.917,23.555,-19.372
48123970,-0.842,0.383,0.511,33.845,13.37,-20.002
48123980,-0.888,0.378,0.52,25.217,3.272,-21
48123990,-0.841,0.348,0.512,15.277,-7.927,-24.64
48124000,-0.868,0.355,0.516,11.882,-21.332,-24.692
48124010,-0.88,0.362,0.55,8.767,-34.527,-25.672
48124010,-0.83,0.331,0.547,5.46,-48.37,-28.647
48124030,-0.68,0.31,0.532,4.847,-53.567,-27.947
48124030,-0.595,0.329,0.527,6.737,-45.062,-22.837
48124050,-0.58,0.352,0.522,8.207,-25.672,-16.222
48124050,-0.647,0.38,0.528,9.992,-6.3,-10.29
48124070,-0.706,0.41,0.543,10.727,7.42,-6.755
48124070,-0.774,0.433,0.535,8.89,12.302,-5.687
48124080,-0.796,0.442,0.522,5.53,10.937,-6.195
48124090,-0.771,0.442,0.495,2.24,7.647,-6.86
48124100,-0.75,0.445,0.461,0.472,7.21,-6.02
48124110,-0.838,0.428,0.487,-0.472,6.877,-4.357
48124120,-0.831,0.406,0.499,-4.13,-0.525,-6.107
48124130,-0.785,0.368,0.51,-6.527,-10.255,-8.382
48124140,-0.778,0.35,0.529,-9.31,-15.767,-9.345
48124150,-0.762,0.312,0.545,-10.535,-17.675,-8.4
48124160,-0.757,0.279,0.558,-9.222,-16.432,-5.6
48124170,-0.738,0.257,0.572,-5.582,-13.335,-2.222
48124180,-0.738,0.259,0.581,-1.61,-9.642,0.297
48124190,-0.732,0.265,0.576,0.822,-5.88,2.065
48124200,-0.749,0.287,0.566,1.96,-2.397,4.655
48124210,-0.764,0.323,0.565,2.415,0.595,7.035
48124220,-0.769,0.358,0.569,0.437,2.24,7.98
48124230,-0.774,0.374,0.559,-4.672,3.167,8.12
48124240,-0.769,0.377,0.562,-9.835,3.255,7.997
48124250,-0.743,0.399,0.579,-13.877,5.197,7.087
48124260,-0.732,0.408,0.585,-18.777,8.715,5.355
48124270,-0.736,0.382,0.581,-23.17,12.512,3.22
48124280,-0.73,0.341,0.569,-24.22,13.09,0.647
48124290,-0.725,0.332,0.564,-21.175,13.037,-2.747
48124300,-0.748,0.334,0.554,-16.817,12.25,-6.44
48124310,-0.771,0.335,0.555,-12.635,11.952,-9.432
48124320,-0.811,0.33,0.547,-10.92,10.377,-11.235
48124330,-0.835,0.311,0.524,-10.727,5.687,-11.62
48124330,-0.839,0.301,0.514,-9.905,-1.225,-11.585
48124350,-0.853,0.291,0.506,-9.555,-8.102,-10.867
48124350,-0.846,0.257,0.505,-8.347,-16.152,-8.977
48124370,-0.826,0.252,0.527,-4.952,-22.365,-7.175
48124370,-0.804,0.265,0.553,-2.292,-26.88,-6.23
48124390,-0.778,0.286,0.581,-2.205,-28.017,-4.865
48124390,-0.737,0.287,0.591,-3.955,-26.985,-2.607
48124410,-0.7,0.284,0.588,-4.812,-22.575,-1.732
48124410,-0.706,0.292,0.591,-2.852,-16.485,-1.627
48124420,-0.74,0.312,0.583,-0.525,-11.655,-1.452
48124430,-0.769,0.328,0.572,1.207,-10.727,-2.327
48124440,-0.77,0.343,0.574,1.435,-11.76,-3.815
48124450,-0.765,0.341,0.576,-0.42,-13.16,-4.935
48124460,-0.78,0.313,0.567,-3.045,-14.07,-5.512
48124470,-0.76,0.297,0.572,-2.94,-16.59,-6.597
48124480,-0.768,0.289,0.574,-2.292,-18.427,-6.825
48124490,-0.776,0.284,0.569,-1.137,-21.332,-6.247
48124500,-0.77,0.294,0.58,0.49,-23.432,-5.425
48124510,-0.76,0.293,0.582,0.787,-25.497,-5.197
48124520,-0.759,0.312,0.602,-0.122,-25.672,-4.025
48124530,-0.773,0.293,0.595,-3.36,-25.83,-3.01
48124540,-0.749,0.285,0.603,-4.305,-26.477,-2.327
48124550,-0.739,0.285,0.606,-4.76,-25.48,-0.892
48124560,-0.734,0.273,0.599,-4.55,-24.5,-0.402
48124570,-0.714,0.284,0.615,-3.027,-22.61,0.262
48124580,-0.725,0.288,0.623,-3.622,-20.195,1.172
48124590,-0.693,0.278,0.623,-4.462,-16.625,2.047
48124600,-0.702,0.279,0.621,-4.48,-11.707,2.87
48124610,-0.703,0.293,0.629,-3.832,-7.297,2.415
48124620,-0.706,0.315,0.638,-4.147,-3.972,1.837
48124630,-0.7,0.317,0.635,-5.775,-0.752,1.102
48124640,-0.694,0.318,0.634,-6.457,2.03,-0.035
48124650,-0.697,0.317,0.632,-6.702,5.512,-1.102
48124660,-0.671,0.323,0.625,-6.807,8.33,-2.17
48124670,-0.781,0.337,0.62,-10.902,15.592,-0.525
48124680,-0.794,0.217,0.573,-14.752,11.445,-1.96
48124690,-0.708,0.274,0.593,-5.617,6.562,-3.062
48124700,-0.766,0.273,0.576,-2.712,4.637,-3.605
48124710,-0.768,0.244,0.575,0.367,0.805,-3.92
48124720,-0.779,0.278,0.592,4.042,-3.255,-2.52
48124730,-0.781,0.263,0.59,4.742,-6.51,-2.677
48124740,-0.768,0.278,0.6,6.702,-10.027,-1.907
48124750,-0.75,0.292,0.606,7.175,-11.795,-0.98
48124760,-0.746,0.297,0.612,6.807,-12.67,-0.962
48124760,-0.762,0.307,0.6,6.562,-12.81,-1.75
48124780,-0.768,0.35,0.594,6.055,-15.505,-2.747
48124780,-0.763,0.329,0.628,1.872,-17.832,-3.482
48124800,-0.728,0.261,0.621,0.665,-16.975,-4.725
48124800,-0.665,0.271,0.615,2.957,-14.63,-3.202
48124820,-0.692,0.241,0.615,3.29,-11.252,-2.45
48124820,-0.724,0.266,0.613,5.81,-8.837,-1.12
48124830,-0.729,0.291,0.599,5.897,-8.89,0.7
48124840,-0.832,0.269,0.597,5.425,-11.077,0.997
48124850,-0.732,0.238,0.6,8.032,-18.795,1.347
48124860,-0.714,0.26,0.62,13.492,-20.667,2.73
48124870,-0.675,0.291,0.631,14.875,-18.917,4.69
48124880,-0.694,0.305,0.634,11.095,-14.227,6.65
48124890,-0.708,0.307,0.63,6.982,-10.325,6.457
48124900,-0.714,0.325,0.64,4.83,-8.645,5.162
48124910,-0.688,0.32,0.641,3.237,-7.437,4.235
48124920,-0.699,0.335,0.653,2.292,-5.005,3.447
48124930,-0.692,0.345,0.671,0,-3.045,2.905
48124940,-0.68,0.337,0.67,-3.92,-0.175,1.277
48124950,-0.654,0.301,0.652,-7.017,4.62,-0.945
48124960,-0.68,0.294,0.642,-7.875,9.712,-2.275
48124970,-0.698,0.293,0.635,-7.997,13.247,-2.712
48124980,-0.731,0.296,0.626,-8.12,14.752,-2.852
48124990,-0.737,0.32,0.618,-9.012,14.892,-3.377
48125000,-0.784,0.363,0.607,-12.967,16.677,-2.397
48125010,-0.838,0.251,0.595,-19.355,12.215,-2.887
48125020,-0.701,0.271,0.624,-13.212,5.162,-5.635
48125030,-0.718,0.306,0.623,-10.99,6.807,-4.952
48125040,-0.717,0.254,0.609,-12.11,6.37,-5.477
48125050,-0.705,0.259,0.617,-9.065,7.035,-3.902
48125060,-0.731,0.258,0.611,-7.017,7.315,-3.377
48125070,-0.732,0.255,0.601,-4.392,7.77,-1.785
48125080,-0.714,0.254,0.591,-2.94,8.487,-0.717
48125080,-0.73,0.225,0.573,-2.152,9.747,0.49
48125100,-0.763,0.224,0.56,2.012,8.102,2.835
48125100,-0.802,0.264,0.566,7.805,4.952,5.337
48125120,-0.839,0.294,0.598,10.622,-1.085,5.967
48125120,-0.762,0.265,0.619,11.2,-6.825,3.797
48125140,-0.705,0.319,0.63,12.792,-5.757,3.99
48125140,-0.716,0.323,0.622,7.84,-2.362,4.655
48125160,-0.73,0.308,0.618,3.937,0.297,3.64
48125160,-0.745,0.307,0.605,2.327,2.415,2.747
48125170,-0.758,0.315,0.597,1.557,2.625,2.432
48125180,-0.781,0.323,0.594,-0.927,1.697,2.975
48125190,-0.766,0.317,0.606,-3.937,-0.875,1.977
48125200,-0.744,0.312,0.611,-7,-1.61,0.63
48125210,-0.729,0.29,0.607,-9.065,-1.365,-0.577
48125220,-0.715,0.279,0.607,-8.33,0.192,-0.875
48125230,-0.727,0.278,0.606,-7.087,1.697,-1.242
48125240,-0.759,0.287,0.605,-6.212,2.642,-1.662
48125250,-0.737,0.314,0.591,-6.405,2.012,-1.785
48125260,-0.815,0.325,0.577,-11.2,3.377,0.087
48125270,-0.778,0.231,0.582,-15.61,-1.697,-1.645
48125280,-0.728,0.27,0.613,-10.132,-3.325,-1.942
48125290,-0.74,0.269,0.612,-8.172,-2.117,-2.205
48125300,-0.732,0.271,0.607,-7.28,-1.89,-2.905
48125310,-0.731,0.268,0.606,-4.445,-1.61,-2.8
48125320,-0.732,0.287,0.608,-0.717,-1.295,-2.957
48125330,-0.748,0.281,0.601,0.91,-0.647,-3.867
48125340,-0.77,0.269,0.59,2.502,-0.7,-3.955
48125350,-0.78,0.266,0.579,3.622,-1.575,-2.922
48125360,-0.792,0.257,0.586,4.165,-4.095,-2.397
48125370,-0.77,0.198,0.575,5.81,-8.837,-2.275
48125380,-0.719,0.246,0.596,13.755,-11.777,-2.065
48125390,-0.762,0.27,0.598,15.837,-10.412,0.192
48125400,-0.76,0.295,0.606,13.16,-11.777,0.752
48125410,-0.772,0.313,0.604,7.84,-11.707,2.607
48125420,-0.739,0.292,0.594,3.237,-12.495,3.447
48125430,-0.734,0.307,0.6,0.7,-10.325,3.08
48125440,-0.743,0.308,0.623,-1.96,-9.677,1.942
48125450,-0.728,0.302,0.633,-4.462,-8.505,1.347
48125460,-0.69,0.307,0.64,-6.142,-6.02,0.297
48125470,-0.689,0.311,0.641,-8.102,-1.452,-0.49
48125480,-0.681,0.305,0.642,-9.257,2.765,-0.875
48125490,-0.696,0.314,0.64,-9.852,8.942,-1.26
48125500,-0.703,0.337,0.636,-11.532,14.192,-2.555
48125510,-0.801,0.294,0.607,-18.007,20.317,-0.332
48125510,-0.775,0.184,0.572,-18.55,15.715,-1.155
48125530,-0.712,0.246,0.594,-7.49,13.195,-0.665
48125530,-0.748,0.247,0.585,-3.605,13.93,-1.155
48125550,-0.746,0.187,0.564,-0.49,14.14,-1.015
48125550,-0.754,0.218,0.58,7.175,14.297,1.785
48125570,-0.757,0.228,0.61,11.865,15.312,3.097
48125570,-0.749,0.238,0.63,14.262,18.235,3.92
48125580,-0.725,0.206,0.637,18.042,23.625,3.832
48125590,-0.63,0.187,0.656,28.735,31.185,1.68
48125600,-0.642,0.237,0.685,40.757,48.475,3.027
48125610,-0.703,0.283,0.661,44.94,65.712,4.567
48125620,-0.797,0.337,0.602,41.282,73.062,1.102
48125630,-0.907,0.368,0.546,30.852,70.437,-3.815
48125640,-1.009,0.405,0.519,15.54,58.257,-10.045
48125650,-0.987,0.373,0.486,-5.792,41.37,-20.405
48125660,-0.96,0.335,0.515,-24.01,27.072,-30.397
48125670,-0.89,0.399,0.547,-41.107,18.06,-38.587
48125680,-0.88,0.337,0.561,-61.145,16.677,-43.697
48125690,-0.926,0.208,0.564,-73.902,24.29,-42.315
48125700,-0.953,0.162,0.602,-71.89,25.235,-39.637
48125710,-0.908,0.154,0.605,-68.39,17.622,-35.42
48125720,-0.867,0.157,0.58,-66.132,6.51,-36.522
48125730,-0.801,0.169,0.54,-66.185,0.017,-37.345
48125740,-0.735,0.102,0.501,-61.302,-4.9,-34.422
48125750,-0.714,0.144,0.471,-53.2,-13.825,-31.972
48125760,-0.668,0.156,0.428,-47.827,-23.362,-24.92
48125770,-0.545,0.158,0.397,-41.02,-17.815,-15.47
48125780,-0.61,0.173,0.402,-30.73,3.08,-8.732
48125790,-0.781,0.263,0.42,-24.955,24.115,-0.35
48125800,-0.863,0.237,0.425,-27.737,35.315,5.11
48125810,-0.983,0.227,0.435,-27.352,36.627,9.677
48125820,-0.985,0.255,0.438,-25.497,27.737,12.425
48125830,-0.951,0.221,0.453,-25.427,16.765,13.492
48125830,-0.951,0.22,0.46,-26.442,7.49,12.827
48125850,-0.85,0.182,0.486,-24.815,-0.577,12.477
48125850,-0.795,0.141,0.51,-22.207,-3.22,13.055
48125870,-0.827,0.182,0.558,-18.147,-6.09,9.975
48125870,-0.779,0.114,0.505,-14.735,-14.507,12.372
48125890,-0.757,0.161,0.482,-7.682,-20.125,17.902
48125890,-0.727,0.165,0.543,-4.812,-23.222,18.375
48125910,-0.661,0.11,0.576,0.717,-13.142,15.102
48125910,-0.85,0.22,0.627,10.552,0.42,14.087
48125920,-1.01,0.28,0.568,10.622,-4.83,18.287
48125930,-0.967,0.261,0.488,9.397,-24.237,20.58
48125940,-0.908,0.177,0.481,15.75,-43.33,20.825
48125950,-0.767,0.24,0.439,24.01,-64.61,18.217
48125960,-0.624,0.173,0.388,33.232,-72.012,25.567
48125970,-0.622,0.26,0.427,40.95,-56.945,29.592
48125980,-0.699,0.26,0.536,39.917,-29.207,31.43
48125990,-0.868,0.341,0.654,34.142,-5.425,29.4
48126000,-0.843,0.295,0.669,22.207,9.17,27.107
48126010,-0.864,0.271,0.663,15.452,23.117,26.145
48126020,-0.904,0.256,0.607,15.05,25.497,25.48
48126030,-0.836,0.257,0.519,19.74,20.335,27.632
48126040,-0.82,0.287,0.505,22.645,12.442,25.795
48126050,-0.854,0.296,0.487,19.302,-0.927,19.845
48126060,-0.806,0.26,0.46,11.83,-13.422,15.277
48126070,-0.827,0.22,0.481,9.852,-16.397,11.795
48126080,-0.862,0.191,0.505,12.915,-16.852,13.282
48126090,-0.857,0.204,0.542,16.887,-16.082,16.047
48126100,-0.854,0.212,0.575,17.027,-14.717,16.502
48126110,-0.827,0.21,0.599,14.227,-12.32,14.192
48126120,-0.78,0.183,0.586,10.097,-9.992,12.075
48126130,-0.761,0.168,0.581,9.135,-6.125,10.307
48126140,-0.738,0.175,0.549,9.712,-4.13,7.682
48126150,-0.744,0.198,0.529,11.987,-0.91,8.61
48126160,-0.82,0.249,0.537,15.155,2.065,11.76
48126170,-0.88,0.276,0.53,16.992,1.015,12.495
48126180,-0.883,0.309,0.52,18.462,-4.165,11.06
48126190,-0.866,0.332,0.501,18.042,-9.45,8.767
48126200,-0.844,0.346,0.498,16.24,-15.225,4.9
48126210,-0.836,0.364,0.515,13.457,-19.722,0.35
48126220,-0.799,0.387,0.553,8.715,-22.82,-3.535
48126230,-0.786,0.374,0.564,1.05,-21.07,-5.565
48126240,-0.736,0.304,0.541,-3.64,-16.887,-8.277
48126250,-0.779,0.327,0.584,-1.557,-12.25,-10.762
48126260,-0.757,0.31,0.595,-2.082,-12.162,-9.73
48126260,-0.729,0.288,0.591,-2.432,-10.745,-8.487
48126280,-0.733,0.281,0.611,-2.8,-8.26,-7.595
48126280,-0.721,0.261,0.585,-4.9,-5.582,-7.665
48126300,-0.738,0.233,0.563,-5.495,-2.362,-6.755
48126300,-0.773,0.239,0.558,-3.115,0.892,-3.867
48126310,-0.792,0.261,0.554,-1.085,2.24,-1.68
48126320,-0.822,0.276,0.545,-1.627,2.537,0.28
48126330,-0.854,0.283,0.532,-3.78,-0.07,1.382
48126340,-0.835,0.289,0.527,-5.127,-4.935,0.84
48126350,-0.827,0.312,0.544,-6.527,-9.625,-0.175
48126360,-0.831,0.32,0.544,-10.01,-13.195,-1.627
48126370,-0.818,0.296,0.546,-14.035,-17.237,-3.045
48126380,-0.791,0.289,0.56,-14.717,-20.055,-4.2
48126390,-0.768,0.295,0.579,-14.332,-20.842,-5.092
48126400,-0.767,0.278,0.584,-13.86,-19.757,-5.827
48126410,-0.747,0.267,0.583,-12.075,-17.815,-6.982
48126420,-0.745,0.268,0.59,-10.185,-14.315,-7.245
48126430,-0.761,0.266,0.593,-9.66,-10.92,-6.965
48126440,-0.755,0.257,0.581,-9.607,-8.785,-6.387
48126450,-0.757,0.251,0.577,-9.485,-6.177,-5.6
48126460,-0.776,0.241,0.571,-8.872,-4.602,-4.97
48126470,-0.78,0.229,0.554,-7.472,-4.602,-4.217
48126480,-0.789,0.23,0.546,-4.76,-6.387,-2.922
48126490,-0.797,0.242,0.553,-2.45,-8.487,-1.365
48126500,-0.793,0.253,0.572,-1.207,-10.692,-0.402
48126510,-0.779,0.262,0.596,-1.96,-10.797,-0.14
48126520,-0.77,0.267,0.607,-3.692,-9.52,-0.84
48126530,-0.752,0.267,0.604,-5.425,-6.807,-1.96
48126540,-0.744,0.265,0.597,-6.002,-4.462,-2.747
48126550,-0.761,0.268,0.594,-5.705,-2.17,-3.08
48126560,-0.764,0.274,0.596,-5.232,-1.417,-3.535
48126570,-0.79,0.266,0.585,-5.67,-0.157,-3.727
48126580,-0.789,0.256,0.566,-5.232,-2.135,-4.795
48126580,-0.785,0.252,0.565,-4.217,-3.342,-4.882
48126600,-0.793,0.245,0.574,-3.5,-4.655,-5.425
48126600,-0.786,0.236,0.58,-3.237,-5.005,-5.39
48126620,-0.773,0.226,0.576,-2.73,-5.792,-4.987
48126620,-0.765,0.218,0.572,-1.312,-5.18,-4.305
48126640,-0.765,0.223,0.578,0.42,-4.795,-3.5
48126640,-0.768,0.231,0.587,0.892,-3.465,-2.765
48126660,-0.749,0.214,0.569,1.26,-1.435,-3.01
48126660,-0.808,0.251,0.575,3.255,-0.052,-2.852
48126670,-0.77,0.245,0.573,2.8,-3.78,-0.945
48126680,-0.773,0.244,0.578,3.447,-4.987,-0.472
48126690,-0.771,0.25,0.587,3.832,-5.267,-0.612
48126700,-0.762,0.249,0.592,3.832,-4.725,-0.28
48126710,-0.788,0.275,0.603,3.15,-4.427,-0.262
48126720,-0.768,0.262,0.597,1.137,-4.672,-0.245
48126730,-0.773,0.265,0.592,0.087,-4.252,-0.577
48126740,-0.781,0.261,0.591,-0.56,-4.06,-0.927
48126750,-0.793,0.268,0.595,-1.207,-4.585,-1.697
48126760,-0.785,0.261,0.592,-2.292,-5.127,-2.187
48126770,-0.765,0.251,0.59,-2.817,-5.215,-2.677
48126780,-0.762,0.245,0.591,-2.87,-4.532,-2.992
48126790,-0.758,0.238,0.587,-2.625,-3.22,-3.027
48126800,-0.765,0.242,0.596,-2.345,-1.715,-3.115
48126810,-0.781,0.247,0.595,-3.29,-0.07,-3.78
48126820,-0.774,0.225,0.575,-4.007,2.012,-4.987
48126830,-0.825,0.254,0.582,-3.605,2.187,-6.335
48126840,-0.781,0.233,0.576,-4.585,-0.805,-5.11
48126850,-0.78,0.232,0.577,-3.85,-1.89,-4.812
48126860,-0.76,0.232,0.586,-2.887,-2.1,-5.092
48126870,-0.774,0.241,0.59,-2.59,-0.752,-5.11
48126880,-0.772,0.237,0.589,-2.817,-0.735,-5.057
48126890,-0.766,0.231,0.584,-2.45,-0.315,-4.725
48126900,-0.767,0.231,0.58,-1.557,-0.245,-4.497
48126910,-0.772,0.229,0.579,-0.805,0.297,-3.832
48126920,-0.774,0.228,0.579,-0.035,0.192,-3.43
48126930,-0.781,0.234,0.582,0.367,0.367,-2.782
48126940,-0.783,0.239,0.586,-0.367,0.07,-2.957
48126950,-0.791,0.22,0.585,-0.91,1.382,-3.972
48126960,-0.797,0.239,0.582,-0.682,0.507,-3.867
48126970,-0.796,0.236,0.579,-1.295,-0.332,-4.13
48126980,-0.801,0.25,0.585,-1.75,-1.785,-5.04
48126980,-0.814,0.248,0.591,-2.485,-3.22,-4.97
48127000,-0.776,0.254,0.596,-3.99,-4.725,-5.267
48127000,-0.778,0.235,0.594,-5.705,-3.71,-5.232
48127010,-0.773,0.233,0.578,-5.652,-3.01,-5.337
48127020,-0.81,0.231,0.567,-5.022,-2.362,-5.25
48127030,-0.808,0.232,0.569,-4.48,-3.64,-6.282
48127040,-0.823,0.208,0.579,-4.952,-4.795,-6.79
48127050,-0.79,0.227,0.59,-5.81,-6.09,-6.842
48127060,-0.775,0.213,0.598,-7.28,-5.442,-7.087
48127070,-0.748,0.205,0.6,-8.47,-4.322,-6.93
48127080,-0.721,0.209,0.604,-8.452,-1.347,-6.265
48127090,-0.72,0.215,0.601,-8.067,2.73,-5.04
48127100,-0.728,0.23,0.596,-8.26,7.962,-3.64
48127110,-0.804,0.228,0.596,-10.01,11.97,-2.66
48127120,-0.838,0.21,0.58,-11.112,9.642,-3.552
48127130,-0.821,0.211,0.552,-8.855,5.53,-2.922
48127140,-0.838,0.206,0.536,-6.65,1.277,-4.147
48127150,-0.81,0.191,0.537,-5.215,-3.255,-5.425
48127160,-0.809,0.177,0.549,-2.66,-6.055,-3.535
48127170,-0.791,0.166,0.561,-1.015,-7.91,-3.132
48127180,-0.771,0.149,0.565,0.717,-8.47,-2.642
48127190,-0.765,0.155,0.573,2.677,-7.105,-1.802
48127200,-0.785,0.156,0.567,4.952,-6.37,-1.05
48127210,-0.778,0.161,0.54,8.155,-6.895,0.017
48127220,-0.816,0.158,0.518,11.935,-7.262,0.98
48127230,-0.833,0.183,0.503,17.237,-11.55,-0.157
48127240,-0.778,0.25,0.567,23.24,-17.132,-0.577
48127250,-0.798,0.264,0.642,21.227,-13.615,-0.245
48127260,-0.817,0.275,0.66,13.58,-11.777,-0.42
48127270,-0.753,0.224,0.645,5.792,-11.095,0.962
48127280,-0.713,0.204,0.621,3.885,-8.19,1.487
48127290,-0.719,0.218,0.614,3.395,-4.287,2.922
48127300,-0.754,0.236,0.623,2.765,-1.75,3.815
48127310,-0.772,0.246,0.612,0.84,0.84,3.99
48127320,-0.779,0.246,0.592,-1.19,2.31,3.465
48127330,-0.79,0.258,0.599,-3.237,3.622,3.447
48127330,-0.809,0.264,0.624,-6.492,3.115,3.115
48127350,-0.762,0.251,0.626,-10.605,3.43,2.992
48127350,-0.792,0.207,0.596,-13.667,7.665,2.87
48127370,-0.773,0.205,0.57,-12.915,7.892,1.732
48127370,-0.779,0.211,0.563,-10.307,7.49,2.275
48127390,-0.811,0.219,0.555,-8.382,6.002,0.927
48127390,-0.811,0.213,0.549,-6.912,3.22,0.367
48127410,-0.81,0.205,0.548,-4.445,1.015,-0.542
48127410,-0.793,0.185,0.538,-2.485,-1.802,-0.612
48127420,-0.777,0.157,0.533,0.35,-2.975,-0.892
48127430,-0.762,0.128,0.533,5.32,-3.342,0.595
48127440,-0.668,0.119,0.519,10.377,-0.49,2.24
48127450,-0.723,0.109,0.505,17.045,5.092,3.43
48127460,-0.724,0.221,0.582,25.2,3.955,2.187
48127470,-0.819,0.324,0.687,22.557,8.557,2.152
48127480,-1,0.29,0.687,9.257,11.865,1.015
48127490,-0.93,0.296,0.6,-1.242,5.687,0.647
48127500,-0.902,0.258,0.544,-4.935,-0.717,-2.887
48127510,-0.849,0.255,0.547,-6.002,-6.842,-6.02
48127520,-0.796,0.231,0.558,-6.58,-12.127,-6.86
48127530,-0.746,0.221,0.583,-5.39,-12.81,-6.842
48127540,-0.731,0.222,0.598,-5.495,-10.272,-5.915
48127550,-0.75,0.212,0.596,-6.755,-6.37,-4.69
48127560,-0.763,0.208,0.595,-7.105,-3.027,-3.465
48127570,-0.781,0.215,0.59,-6.982,-0.07,-2.887
48127580,-0.773,0.211,0.581,-7.07,2.187,-2.45
48127590,-0.75,0.205,0.594,-7.35,5.845,-0.91
48127600,-0.775,0.179,0.577,-9.03,10.622,0.787
48127610,-0.767,0.176,0.555,-9.415,11.287,1.75
48127620,-0.774,0.18,0.552,-7.385,11.007,2.905
48127630,-0.823,0.181,0.547,-4.48,10.5,2.957
48127640,-0.838,0.203,0.543,-1.085,6.702,2.555
48127650,-0.86,0.213,0.54,1.207,2.782,1.645
48127660,-0.841,0.227,0.56,1.645,-1.382,0.402
48127670,-0.815,0.212,0.568,0.35,-2.817,-0.735
48127670,-0.772,0.192,0.561,-0.21,-3.5,-1.102
48127690,-0.774,0.166,0.549,1.417,-2.012,-1.452
48127690,-0.798,0.173,0.543,5.477,-2.047,-2.117
48127710,-0.86,0.192,0.54,9.03,-2.975,-2.24
48127710,-0.839,0.221,0.544,11.952,-9.17,-4.007
48127730,-0.846,0.252,0.566,12.39,-10.57,-4.655
48127730,-0.855,0.253,0.589,7.577,-8.715,-5.74
48127750,-0.842,0.224,0.585,0.385,-8.382,-5.495
48127750,-0.772,0.19,0.591,-3.01,-7.787,-5.617
48127760,-0.744,0.207,0.604,-3.447,-4.217,-4.865
48127770,-0.762,0.228,0.61,-4.392,-0.822,-3.552
48127780,-0.764,0.248,0.6,-5.95,2.415,-3.097
48127790,-0.765,0.253,0.589,-7.542,4.41,-2.1
48127800,-0.756,0.253,0.601,-9.975,6.842,-1.82
48127810,-0.804,0.214,0.588,-14.647,12.197,-1.522
48127820,-0.809,0.13,0.529,-17.517,11.97,-3.22
48127830,-0.782,0.159,0.516,-10.885,7.595,-0.157
48127840,-0.854,0.175,0.516,-5.67,4.987,-1.61
48127850,-0.81,0.167,0.517,-2.38,-0.752,-1.61
48127860,-0.812,0.137,0.523,0.962,-4.427,-0.525
48127870,-0.827,0.138,0.525,5.25,-7.35,0.56
48127880,-0.818,0.155,0.502,9.887,-10.517,2.135
48127890,-0.814,0.181,0.522,14.105,-17.902,1.225
48127900,-0.8,0.218,0.588,17.377,-20.212,-0.77
48127910,-0.862,0.228,0.604,16.45,-15.487,-0.822
48127920,-0.849,0.205,0.556,13.195,-15.837,-0.105
48127930,-0.812,0.232,0.563,12.442,-16.012,0
48127940,-0.837,0.237,0.566,8.295,-16.222,1.802
48127950,-0.8,0.209,0.58,3.43,-18.112,2.205
48127960,-0.765,0.197,0.591,1.925,-18.235,1.96
48127970,-0.744,0.202,0.59,1.575,-15.522,2.415
48127980,-0.746,0.217,0.592,0.857,-11.777,3.08
48127990,-0.765,0.236,0.606,-0.7,-7.665,4.515
48128000,-0.734,0.255,0.645,-4.147,-4.007,6.3
48128010,-0.774,0.191,0.614,-11.235,5.127,8.155
48128020,-0.752,0.185,0.593,-13.16,10.482,7.647
48128030,-0.783,0.182,0.577,-11.497,12.81,8.137
48128040,-0.784,0.213,0.574,-7.35,12.075,6.02
48128050,-0.823,0.243,0.569,-4.515,11.532,4.952
48128060,-0.867,0.215,0.542,-3.797,7.577,3.237
48128070,-0.825,0.225,0.536,-0.91,0.122,0.752
48128080,-0.834,0.217,0.568,0.997,-3.92,-0.665
48128080,-0.814,0.191,0.57,0.105,-5.67,-1.785
48128100,-0.817,0.186,0.558,1.05,-6.037,-1.802
48128100,-0.872,0.158,0.539,1.942,-7.385,-2.345
48128120,-0.779,0.159,0.522,7.7,-16.922,-6.475
48128120,-0.771,0.255,0.575,15.767,-17.342,-6.685
48128140,-0.85,0.232,0.59,12.04,-14.14,-6.44
48128140,-0.811,0.22,0.572,7.105,-13.282,-6.422
48128160,-0.817,0.223,0.586,4.865,-11.532,-5.337
48128160,-0.787,0.21,0.59,-0.035,-9.975,-5.232
48128170,-0.779,0.181,0.583,-3.64,-9.52,-4.357
48128180,-0.748,0.197,0.591,-3.325,-8.995,-2.607
48128190,-0.756,0.21,0.598,-3.745,-7.542,-1.33
48128200,-0.76,0.22,0.591,-4.392,-5.565,-0.245
48128210,-0.759,0.225,0.584,-4.165,-3.85,1.312
48128220,-0.752,0.22,0.582,-3.552,-2.537,2.432
48128230,-0.712,0.21,0.584,-2.887,0.875,3.465
48128240,-0.767,0.132,0.562,-3.15,7.087,6.02
48128250,-0.758,0.127,0.534,1.207,5.932,7.385
48128260,-0.728,0.145,0.543,9.135,4.83,7.892
48128270,-0.757,0.155,0.556,14.472,8.05,8.312
48128280,-0.773,0.141,0.545,18.112,10.5,9.222
48128290,-0.777,0.137,0.553,23.152,13.772,10.85
48128300,-0.836,0.194,0.588,27.65,16.537,12.18
48128310,-0.809,0.169,0.587,28.892,14.227,13.877
48128320,-0.729,0.146,0.558,35.087,11.62,16.082
48128330,-0.75,0.209,0.58,44.8,12.932,18.217
48128340,-0.792,0.265,0.609,50.487,17.85,19.967
48128350,-0.844,0.32,0.594,49.805,22.907,21.402
48128360,-0.906,0.33,0.569,42.595,23.135,21.682
48128370,-0.945,0.347,0.559,35.735,19.215,19.705
48128380,-0.953,0.318,0.534,27.23,9.782,14.892
48128390,-0.912,0.298,0.498,20.562,-1.505,11.427
48128400,-0.879,0.268,0.472,16.59,-13.282,11.637
48128410,-0.816,0.244,0.434,14.717,-24.202,12.267
48128420,-0.767,0.255,0.467,16.345,-31.447,15.977
48128420,-0.807,0.276,0.517,15.417,-34.02,19.092
48128440,-0.837,0.268,0.555,12.53,-36.75,19.565
48128440,-0.918,0.199,0.598,10.85,-42.7,14.49
48128460,-0.781,0.23,0.587,16.747,-53.287,6.79
48128460,-0.723,0.268,0.595,22.067,-52.08,4.445
48128480,-0.694,0.269,0.589,25.602,-42.77,4.112
48128480,-0.691,0.262,0.552,29.68,-29.82,5.862
48128500,-0.69,0.253,0.53,35.98,-18.742,8.697
48128500,-0.702,0.308,0.533,42.525,-9.537,11.83
48128510,-0.733,0.358,0.522,44.135,-4.777,14.962
48128520,-0.759,0.406,0.527,39.602,-2.8,16.24
48128530,-0.809,0.442,0.532,30.292,-4.707,16.415
48128540,-0.809,0.44,0.529,18.147,-7.927,14.017
48128550,-0.823,0.444,0.536,8.767,-12.652,10.92
48128560,-0.803,0.44,0.544,1.015,-17.36,7.735
48128570,-0.776,0.437,0.564,-5.39,-22.207,5.635
48128580,-0.741,0.418,0.572,-10.325,-23.152,1.435
48128590,-0.746,0.427,0.597,-14.525,-23.397,-3.167
48128600,-0.7,0.388,0.617,-19.197,-22.452,-5.442
48128610,-0.683,0.369,0.628,-21.525,-19.722,-6.877
48128620,-0.643,0.326,0.627,-21.945,-13.895,-8.452
48128630,-0.651,0.3,0.635,-19.127,-4.655,-10.937
48128640,-0.68,0.272,0.622,-14.28,4.987,-11.182
48128650,-0.695,0.268,0.613,-8.487,13.02,-11.007
48128660,-0.735,0.284,0.598,-5.145,19.092,-9.03
48128670,-0.776,0.287,0.568,-5.075,21.665,-6.142
48128680,-0.782,0.282,0.546,-6.335,20.335,-4.147
48128690,-0.788,0.284,0.541,-6.965,16.975,-1.75
48128700,-0.793,0.312,0.543,-7.525,12.11,0.035
48128710,-0.801,0.322,0.543,-9.555,7.385,1.522
48128720,-0.798,0.332,0.546,-11.9,2.747,2.082
48128730,-0.806,0.335,0.552,-14.175,-1.102,1.785
48128740,-0.796,0.326,0.55,-15.522,-6.055,-0.052
48128750,-0.789,0.313,0.547,-15.05,-10.43,-1.785
48128760,-0.774,0.299,0.554,-12.355,-14.122,-3.342
48128770,-0.754,0.305,0.57,-8.19,-14.63,-4.322
48128780,-0.746,0.317,0.577,-4.987,-14.017,-4.637
48128790,-0.74,0.317,0.57,-4.497,-13.107,-4.707
48128800,-0.75,0.322,0.573,-5.687,-13.335,-4.515
48128810,-0.769,0.347,0.558,-9.467,-13.877,-4.06
48128820,-0.796,0.31,0.562,-14.945,-16.152,-3.342
48128830,-0.812,0.282,0.58,-18.935,-19.005,-2.345
48128830,-0.812,0.247,0.606,-20.317,-22.732,-1.522
48128850,-0.761,0.225,0.627,-17.902,-24.027,-2.362
48128850,-0.704,0.24,0.645,-12.477,-20.825,-2.712
48128870,-0.69,0.276,0.634,-6.72,-14.245,-3.447
48128870,-0.692,0.296,0.618,-3.325,-8.54,-4.76
48128890,-0.745,0.304,0.61,-3.325,-5.197,-6.247
48128890,-0.758,0.304,0.608,-4.637,-3.902,-7.49
48128910,-0.768,0.292,0.603,-6.3,-3.097,-8.102
48128910,-0.753,0.274,0.592,-6.982,-3.57,-7.91
48128920,-0.728,0.256,0.597,-6.125,-3.885,-7.297
48128930,-0.721,0.257,0.596,-4.235,-3.045,-6.072
48128940,-0.731,0.254,0.589,-2.45,-1.767,-4.637
48128950,-0.736,0.251,0.584,-0.28,-1.662,-3.08
48128960,-0.748,0.261,0.584,1.225,-1.75,-1.312
48128970,-0.759,0.266,0.592,1.645,-1.96,0.227
48128980,-0.764,0.276,0.601,0.997,-2.572,0.91
48128990,-0.761,0.276,0.603,-0.227,-2.852,1.172
48129000,-0.761,0.275,0.604,-0.77,-3.272,1.26
48129010,-0.752,0.278,0.609,-0.875,-3.465,1.662
48129020,-0.744,0.27,0.609,-0.735,-3.15,1.925
48129030,-0.734,0.278,0.608,-0.402,-2.345,1.715
48129040,-0.733,0.286,0.612,-0.472,-1.085,1.557
48129050,-0.727,0.286,0.606,-1.295,0.945,1.505
48129060,-0.724,0.286,0.605,-1.54,2.73,1.452
48129070,-0.735,0.283,0.599,-1.382,4.707,1.47
48129080,-0.755,0.278,0.601,-0.962,4.952,1.172
48129090,-0.771,0.278,0.595,-0.682,5.197,0.927
48129100,-0.776,0.271,0.599,-0.91,3.832,0.752
48129110,-0.79,0.25,0.583,-1.172,3.29,0.927
48129120,-0.761,0.264,0.576,-0.507,0.822,1.26
48129130,-0.767,0.274,0.586,-0.35,-1.137,1.977
48129140,-0.745,0.264,0.59,-0.227,-2.432,1.662
48129150,-0.739,0.276,0.6,0.385,-1.435,2.362
48129160,-0.746,0.28,0.603,0.245,-0.21,2.992
48129170,-0.773,0.275,0.591,0.052,1.295,3.605
48129170,-0.784,0.279,0.581,0.997,-0.122,3.43
48129190,-0.786,0.276,0.573,2.047,-3.062,3.115
48129190,-0.788,0.284,0.582,4.322,-7.402,2.222
48129210,-0.784,0.292,0.588,5.407,-9.922,1.417
48129210,-0.762,0.281,0.592,5.46,-11.585,0.472
48129230,-0.742,0.28,0.6,5.792,-11.34,-0.42
48129230,-0.734,0.273,0.605,5.81,-10.675,-1.435
48129250,-0.715,0.298,0.609,6.177,-8.33,-1.61
48129250,-0.745,0.294,0.609,3.325,-5.915,-0.717
48129260,-0.743,0.29,0.593,0.962,-4.725,-1.015
48129270,-0.73,0.301,0.613,-0.14,-4.62,-1.26
48129280,-0.747,0.268,0.615,-1.225,-2.397,-2.135
48129290,-0.722,0.257,0.602,0.455,0.42,-1.697
48129300,-0.724,0.269,0.599,2.397,2.59,-0.507
48129310,-0.703,0.256,0.6,3.325,4.655,-0.07
48129320,-0.692,0.252,0.602,5.215,9.292,1.085
48129330,-0.697,0.248,0.606,7.245,14.77,2.502
48129340,-0.702,0.244,0.612,10.027,21.455,4.06
48129350,-0.706,0.238,0.614,13.702,29.47,6.51
48129360,-0.704,0.246,0.609,18.69,37.642,8.645
48129370,-0.719,0.266,0.597,22.995,45.745,10.675
48129380,-0.758,0.286,0.571,25.13,51.38,12.74
48129390,-0.79,0.304,0.545,25.2,53.112,13.842
48129400,-0.846,0.322,0.513,24.01,50.907,14
48129410,-0.88,0.332,0.493,21.735,43.365,13.142
48129420,-0.884,0.348,0.49,18.375,32.532,12.46
48129430,-0.874,0.35,0.49,13.667,22.4,12.092
48129440,-0.861,0.337,0.489,9.607,13.51,11.585
48129450,-0.833,0.313,0.493,7.052,6.51,11.375
48129460,-0.808,0.301,0.501,7.157,0.822,11.987
48129470,-0.79,0.317,0.511,7.962,-1.872,13.475
48129480,-0.786,0.332,0.517,7.332,-2.555,15.75
48129490,-0.796,0.328,0.514,5.372,-1.592,16.8
48129500,-0.792,0.315,0.516,4.217,-2.52,16.94
48129510,-0.778,0.334,0.531,5.39,-1.225,17.99
48129520,-0.792,0.352,0.532,6.037,0.84,18.585
48129530,-0.815,0.379,0.518,6.422,3.01,18.165
48129540,-0.788,0.381,0.526,3.325,4.287,18.235
48129550,-0.749,0.335,0.534,0.997,6.545,14.28
48129560,-0.776,0.357,0.505,1.837,7.21,14.14
48129570,-0.749,0.391,0.52,0.63,9.065,15.54
48129580,-0.754,0.417,0.514,-1.207,13.142,13.65
48129580,-0.821,0.406,0.5,-6.352,17.15,10.832
48129600,-0.816,0.374,0.481,-12.547,13.685,8.872
48129600,-0.82,0.366,0.492,-15.505,7.805,6.072
48129620,-0.789,0.368,0.493,-16.642,0.91,3.657
48129620,-0.776,0.369,0.495,-18.34,-0.927,1.942
48129640,-0.747,0.339,0.508,-20.055,2.397,-2.537
48129640,-0.866,0.345,0.548,-22.872,2.275,-6.842
48129660,-0.742,0.278,0.513,-24.85,-2.625,-5.897
48129660,-0.779,0.304,0.51,-20.65,-0.682,-6.212
48129670,-0.86,0.306,0.514,-18.742,-0.052,-6.877
48129680,-0.846,0.294,0.51,-15.68,-3.15,-7.7
48129690,-0.81,0.285,0.504,-12.932,-7.91,-8.89
48129700,-0.777,0.299,0.544,-10.552,-8.54,-9.992
48129710,-0.763,0.336,0.57,-12.635,-0.717,-11.077
48129720,-0.862,0.408,0.532,-17.062,7.367,-17.22
48129730,-0.846,0.339,0.522,-24.797,1.697,-24.377
48129740,-0.815,0.357,0.525,-28.157,-0.42,-25.497
48129750,-0.858,0.39,0.507,-27.79,-2.555,-25.27
48129760,-0.835,0.358,0.487,-26.792,-8.995,-23.152
48129770,-0.812,0.336,0.486,-23.992,-13.86,-18.567
48129780,-0.776,0.333,0.513,-20.02,-17.342,-17.57
48129790,-0.785,0.319,0.532,-17.762,-18.34,-18.182
48129800,-0.765,0.291,0.545,-16.712,-19.46,-18.095
48129810,-0.735,0.273,0.557,-15.54,-17.587,-16.065
48129820,-0.731,0.246,0.547,-12.127,-14.35,-13.142
48129830,-0.704,0.2,0.534,-6.335,-10.307,-8.102
48129840,-0.712,0.181,0.529,1.137,-4.06,-0.84
48129850,-0.761,0.226,0.551,7.052,2.712,4.707
48129860,-0.773,0.192,0.51,10.972,7.245,10.15
48129870,-0.803,0.177,0.489,16.677,10.885,17.517
48129880,-0.826,0.214,0.506,24.325,11.865,23.012
48129890,-0.851,0.255,0.524,26.88,12.897,26.302
48129900,-0.881,0.283,0.527,22.75,11.532,29.19
48129910,-0.839,0.31,0.525,17.605,9.572,30.065
48129920,-0.807,0.303,0.501,12.932,7.787,28.927
48129920,-0.81,0.301,0.483,14.105,6.562,25.55
48129940,-0.863,0.328,0.508,16.17,2.047,23.66
48129940,-0.785,0.356,0.513,19.81,-1.802,20.317
48129960,-0.803,0.382,0.518,21.752,-2.782,14.105
48129960,-0.78,0.366,0.51,21.56,-2.555,9.187
48129980,-0.811,0.366,0.485,24.027,-3.167,3.482
48129980,-0.806,0.394,0.505,25.76,-6.37,-3.447
48130000,-0.815,0.433,0.526,19.197,-8.505,-6.265
48130000,-0.839,0.392,0.503,5.337,-8.33,-6.16
48130010,-0.816,0.318,0.497,-2.065,-11.235,-7.98
48130020,-0.789,0.326,0.515,-1.89,-13.002,-8.207
48130030,-0.801,0.31,0.513,-2.205,-13.475,-8.05
48130040,-0.802,0.305,0.508,-0.962,-13.895,-7.14
48130050,-0.819,0.312,0.505,0.647,-15.75,-7.437
48130060,-0.836,0.314,0.487,1.68,-19.687,-8.207
48130070,-0.842,0.331,0.489,3.202,-25.48,-8.645
48130080,-0.813,0.358,0.527,2.887,-30.117,-8.435
48130090,-0.784,0.355,0.543,-1.575,-30.205,-6.702
48130100,-0.767,0.314,0.531,-6.002,-27.755,-4.76
48130110,-0.725,0.303,0.548,-4.532,-23.45,-4.76
48130120,-0.742,0.318,0.557,-2.275,-18.48,-4.567
48130130,-0.753,0.316,0.556,-1.242,-14.14,-3.902
48130140,-0.763,0.309,0.548,-0.682,-11.602,-3.762
48130150,-0.774,0.299,0.537,0.332,-10.657,-3.797
48130160,-0.784,0.314,0.535,2.905,-11.427,-4.392
48130170,-0.797,0.33,0.535,3.64,-12.565,-5.215
48130180,-0.808,0.343,0.54,2.012,-14.262,-5.442
48130190,-0.812,0.34,0.534,-1.417,-16.152,-5.18
48130200,-0.791,0.31,0.529,-4.042,-18.9,-5.425
48130210,-0.782,0.307,0.544,-3.797,-20.247,-5.057
48130220,-0.769,0.307,0.562,-2.94,-20.615,-4.27
48130230,-0.766,0.306,0.564,-2.537,-19.32,-3.71
48130240,-0.752,0.304,0.565,-2.362,-18.27,-3.657
48130250,-0.744,0.299,0.562,-1.89,-16.205,-3.937
48130260,-0.75,0.307,0.562,-0.28,-14.227,-4.305
48130270,-0.771,0.311,0.558,0.472,-13.265,-4.62
48130280,-0.79,0.308,0.548,1.015,-15.067,-5.25
48130290,-0.799,0.312,0.547,1.627,-17.657,-5.932
48130300,-0.806,0.315,0.553,1.767,-21.752,-6.177
48130310,-0.8,0.322,0.561,0.612,-24.675,-5.705
48130320,-0.788,0.313,0.567,-1.767,-27.002,-4.9
48130330,-0.768,0.291,0.565,-4.042,-28.472,-4.025
48130330,-0.75,0.284,0.57,-4.305,-29.645,-3.22
48130350,-0.759,0.277,0.574,-4.305,-28.927,-1.977
48130350,-0.757,0.258,0.61,-2.607,-28.455,-1.242
48130370,-0.679,0.308,0.556,-1.277,-26.652,-3.325
48130370,-0.74,0.288,0.592,0.875,-22.26,-1.96
48130380,-0.738,0.305,0.596,0.472,-19.18,-3.01
48130390,-0.745,0.312,0.626,0.192,-17.325,-3.43
48130400,-0.723,0.334,0.594,-0.472,-16.362,-4.777
48130410,-0.732,0.311,0.6,-0.21,-14.735,-5.74
48130420,-0.75,0.311,0.616,-0.385,-12.232,-7.07
48130430,-0.728,0.294,0.598,-0.927,-9.677,-8.172
48130440,-0.77,0.321,0.599,1.575,-8.347,-9.922
48130450,-0.74,0.29,0.574,1.732,-9.765,-10.692
48130460,-0.775,0.299,0.586,2.065,-10.43,-11.602
48130470,-0.756,0.285,0.62,1.382,-10.867,-12.04
48130480,-0.71,0.267,0.618,-0.14,-7.805,-14.297
48130490,-0.706,0.271,0.606,1.977,-1.19,-16.747
48130500,-0.727,0.301,0.63,4.83,1.225,-16.572
48130510,-0.716,0.288,0.626,4.235,1.995,-15.715
48130520,-0.754,0.283,0.624,5.145,4.077,-16.905
48130530,-0.731,0.307,0.609,6.037,5.967,-18.69
48130540,-0.743,0.302,0.584,6.37,6.352,-19.145
48130550,-0.766,0.303,0.572,7.017,4.077,-18.077
48130560,-0.768,0.285,0.562,6.982,0.945,-16.362
48130570,-0.778,0.3,0.575,8.172,-2.835,-15.855
48130580,-0.775,0.286,0.579,8.592,-8.242,-13.93
48130590,-0.82,0.276,0.598,8.26,-10.552,-13.492
48130600,-0.8,0.274,0.575,7.297,-12.477,-16.152
48130610,-0.82,0.276,0.595,7.682,-13.86,-18.62
48130620,-0.79,0.262,0.607,5.827,-17.15,-19.285
48130630,-0.793,0.251,0.608,5.145,-18.235,-19.88
48130640,-0.785,0.252,0.608,5.565,-19.057,-21.805
48130650,-0.77,0.253,0.594,5.915,-19.46,-22.697
48130660,-0.759,0.228,0.574,6.055,-20.982,-22.225
48130670,-0.752,0.235,0.585,8.12,-21.577,-21.7
48130670,-0.757,0.248,0.607,9.975,-21.367,-21.665
48130690,-0.742,0.249,0.614,9.975,-19.512,-22.575
48130690,-0.706,0.234,0.62,10.605,-15.12,-25.725
48130710,-0.687,0.253,0.63,12.687,-8.05,-28.507
48130710,-0.686,0.258,0.637,14.507,-0.752,-31.99
48130730,-0.701,0.272,0.635,16.975,5.005,-33.18
48130730,-0.715,0.281,0.619,17.237,5.757,-31.92
48130750,-0.709,0.276,0.6,15.277,4.602,-27.877
48130750,-0.694,0.26,0.595,13.58,2.887,-22.662
48130760,-0.661,0.232,0.611,12.757,3.727,-17.447
48130770,-0.661,0.224,0.65,12.477,10.64,-13.842
48130780,-0.703,0.225,0.649,11.97,18.865,-12.25
48130790,-0.671,0.231,0.638,10.902,23.38,-11.27
48130800,-0.757,0.251,0.621,9.642,31.377,-10.185
48130810,-0.852,0.253,0.606,7.332,33.442,-9.677
48130820,-0.849,0.225,0.553,3.692,26.88,-12.582
48130830,-0.87,0.224,0.539,4.182,21,-15.627
48130840,-0.886,0.258,0.513,6.37,13.475,-13.65
48130850,-0.862,0.278,0.514,8.4,3.675,-14.245
48130860,-0.828,0.275,0.526,9.87,-5.88,-16.38
48130870,-0.819,0.291,0.567,12.092,-10.972,-15.505
48130880,-0.828,0.257,0.589,11.987,-14.542,-16.957
48130890,-0.836,0.237,0.548,13.195,-17.622,-20.877
48130900,-0.728,0.286,0.587,17.972,-24.43,-26.792
48130910,-0.704,0.308,0.637,17.272,-17.64,-26.67
48130920,-0.806,0.291,0.659,9.485,-6.667,-28.42
48130930,-0.821,0.253,0.627,0.367,-6.09,-27.16
48130940,-0.778,0.196,0.592,-4.165,-9.135,-25.042
48130950,-0.76,0.217,0.602,-4.655,-8.172,-23.432
48130960,-0.782,0.181,0.593,-6.177,-6.125,-21.77
48130970,-0.744,0.178,0.588,-5.46,-5.005,-20.615
48130980,-0.752,0.186,0.586,-4.9,-3.797,-18.515
48130990,-0.752,0.177,0.582,-5.197,-1.172,-16.555
48131000,-0.771,0.17,0.579,-4.917,0.07,-15.242
48131010,-0.734,0.178,0.577,-3.92,2.047,-15.942
48131020,-0.76,0.188,0.589,-1.172,4.952,-14.21
48131030,-0.747,0.211,0.583,-0.087,7.21,-11.305
48131040,-0.734,0.19,0.564,0.98,8.032,-9.152
48131050,-0.734,0.186,0.557,4.27,10.325,-7.49
48131050,-0.774,0.194,0.561,7.28,11.042,-7
48131070,-0.828,0.198,0.554,8.522,8.802,-5.967
48131070,-0.862,0.204,0.551,8.925,4.27,-4.917
48131080,-0.886,0.199,0.55,8.837,-0.087,-5.32
48131090,-0.883,0.19,0.537,9.222,-4.567,-6.597
48131100,-0.838,0.183,0.539,10.307,-8.12,-7.91
48131110,-0.811,0.194,0.555,11.585,-10.15,-8.592
48131120,-0.8,0.186,0.586,11.042,-7.21,-9.38
48131130,-0.844,0.188,0.593,9.782,-5.95,-9.87
48131140,-0.834,0.178,0.571,7.402,-8.715,-9.292
48131150,-0.802,0.177,0.564,6.475,-11.147,-9.012
48131160,-0.797,0.187,0.587,5.39,-10.395,-8.96
48131170,-0.81,0.192,0.599,3.535,-10.43,-8.312
48131180,-0.78,0.189,0.595,1.277,-10.307,-7.665
48131190,-0.758,0.19,0.595,-0.367,-8.732,-6.58
48131200,-0.746,0.186,0.59,-1.715,-7.052,-5.705
48131210,-0.736,0.211,0.595,-0.647,-5.215,-3.272
48131220,-0.754,0.219,0.592,-0.63,-3.815,-2.082
48131230,-0.74,0.197,0.565,0.402,-1.872,-2.555
48131240,-0.726,0.204,0.593,4.095,1.802,-2.38
48131250,-0.781,0.191,0.582,5.18,6.422,-1.977
48131260,-0.748,0.183,0.575,6.125,8.067,-2.327
48131270,-0.782,0.21,0.581,7.7,8.312,-0.56
48131280,-0.816,0.216,0.589,7.017,7.262,-0.857
48131290,-0.835,0.204,0.583,5.652,6.282,-1.54
48131300,-0.852,0.192,0.569,4.707,4.305,-2.275
48131310,-0.846,0.189,0.561,3.972,1.295,-1.995
48131320,-0.829,0.19,0.571,2.292,-1.557,-0.647
48131330,-0.812,0.178,0.57,-0.105,-2.502,0.385
48131340,-0.791,0.18,0.587,-2.047,-3.132,1.032
48131350,-0.785,0.177,0.58,-3.797,-1.68,1.662
48131360,-0.78,0.193,0.552,-4.252,-0.07,2.8
48131370,-0.82,0.188,0.545,-5.005,0.262,4.34
48131380,-0.808,0.155,0.554,-3.57,-3.902,4.34
48131390,-0.792,0.199,0.572,0.7,-3.955,4.637
48131400,-0.816,0.208,0.586,0.49,-3.815,4.532
48131410,-0.812,0.19,0.582,-0.962,-4.497,4.007
48131420,-0.789,0.188,0.568,-0.84,-3.867,3.885
48131420,-0.795,0.183,0.564,-0.262,-2.625,3.622
48131440,-0.783,0.175,0.569,1.277,-2.765,4.182
48131440,-0.794,0.182,0.563,3.395,-1.452,4.585
48131460,-0.814,0.186,0.557,5.04,-1.015,4.06
48131460,-0.819,0.176,0.548,6.142,-0.63,3.727
48131480,-0.823,0.183,0.544,7.805,-0.105,3.78
48131480,-0.869,0.172,0.547,9.152,-0.577,2.94
48131500,-0.814,0.162,0.569,12.95,-5.407,0.857
48131500,-0.722,0.251,0.587,16.38,-3.115,2.047
48131510,-0.843,0.245,0.567,9.38,1.645,3.797
48131520,-0.841,0.198,0.563,4.305,-2.065,2.922
48131530,-0.801,0.234,0.566,4.445,-5.075,3.552
48131540,-0.819,0.226,0.563,2.607,-6.247,3.045
48131550,-0.795,0.229,0.572,1.837,-7.84,3.727
48131560,-0.784,0.244,0.586,-0.175,-7.297,3.605
48131570,-0.789,0.226,0.588,-3.85,-7.07,2.345
48131580,-0.769,0.207,0.587,-5.985,-6.702,1.855
48131590,-0.758,0.202,0.59,-6.422,-4.655,2.415
48131600,-0.774,0.203,0.597,-6.93,-1.697,3.22
48131610,-0.793,0.214,0.595,-8.12,0.822,3.412
48131620,-0.82,0.208,0.57,-9.537,1.54,2.992
48131630,-0.817,0.201,0.543,-9.432,-0.017,2.187
48131640,-0.813,0.248,0.536,-8.627,1.172,2.905
48131650,-0.914,0.2,0.535,-13.405,2.485,3.832
48131660,-0.824,0.135,0.551,-12.897,-5.075,1.942
48131670,-0.728,0.171,0.581,-5.705,-6.755,2.607
48131680,-0.748,0.188,0.585,-2.222,-3.202,2.432
48131690,-0.795,0.191,0.577,-1.417,-0.14,3.447
48131700,-0.815,0.207,0.565,-1.032,-0.017,3.255
48131710,-0.823,0.202,0.55,-0.98,-0.455,2.397
48131720,-0.819,0.194,0.548,0.805,-2.117,2.432
48131730,-0.812,0.205,0.556,2.782,-3.15,2.887
48131740,-0.806,0.206,0.563,3.202,-4.69,2.747
48131750,-0.805,0.209,0.568,3.097,-5.337,2.047
48131760,-0.81,0.204,0.565,3.132,-6.282,1.33
48131760,-0.81,0.193,0.548,4.042,-7.35,1.47
48131780,-0.805,0.188,0.535,6.72,-9.555,1.767
48131780,-0.814,0.199,0.542,10.097,-10.045,1.907
48131800,-0.819,0.198,0.546,12.477,-11.62,1.207
48131800,-0.782,0.223,0.566,14.455,-13.265,-0.262
48131820,-0.814,0.278,0.608,12.967,-13.545,-1.067
48131820,-0.822,0.253,0.618,6.527,-10.692,-3.57
48131830,-0.824,0.226,0.583,2.8,-8.697,-4.882
48131840,-0.829,0.21,0.553,1.522,-8.925,-4.917
48131850,-0.811,0.204,0.552,3.097,-10.57,-5.232
48131860,-0.813,0.22,0.566,4.515,-10.937,-4.987
48131870,-0.782,0.204,0.578,3.395,-12.215,-5.005
48131880,-0.756,0.186,0.589,2.012,-11.007,-3.937
48131890,-0.749,0.172,0.593,1.347,-9.082,-2.607
48131900,-0.761,0.187,0.6,1.68,-6.405,-1.207
48131910,-0.775,0.203,0.601,0.997,-4.917,-0.157
48131920,-0.79,0.218,0.599,-0.28,-4.007,0.35
48131930,-0.788,0.227,0.598,-1.557,-4.147,0.297
48131940,-0.78,0.226,0.616,-3.097,-3.78,0.472
48131950,-0.765,0.214,0.603,-4.97,-1.61,0.542
48131960,-0.766,0.223,0.597,-6.422,0.35,0.385
48131970,-0.774,0.215,0.592,-8.417,1.767,0.332
48131980,-0.782,0.205,0.583,-9.205,2.52,0.84
48131990,-0.759,0.198,0.572,-8.347,2.222,1.19
48132000,-0.754,0.215,0.587,-6.667,2.852,2.222
48132010,-0.793,0.214,0.595,-7.787,5.145,2.555
48132020,-0.794,0.211,0.586,-9.572,5.215,2.73
48132030,-0.797,0.205,0.588,-11.585,5.11,2.975
48132040,-0.803,0.185,0.561,-11.847,3.64,2.38
48132050,-0.817,0.187,0.563,-9.362,2.432,1.207
48132060,-0.825,0.179,0.56,-7.437,-1.015,0.735
48132070,-0.807,0.183,0.563,-4.97,-2.782,1.435
48132080,-0.801,0.184,0.576,-3.955,-3.465,1.68
48132090,-0.793,0.187,0.582,-3.902,-3.237,2.397
48132100,-0.777,0.182,0.58,-3.92,-3.272,2.047
48132110,-0.765,0.186,0.569,-2.957,-2.257,2.607
48132120,-0.79,0.215,0.551,-2.082,-1.592,4.182
48132130,-0.814,0.205,0.568,-2.135,-3.185,5.005
48132140,-0.799,0.211,0.586,0.21,-4.777,4.235
48132150,-0.801,0.228,0.582,1.557,-3.78,3.657
48132160,-0.799,0.215,0.571,1.207,-4.97,2.52
48132170,-0.789,0.205,0.575,1.067,-4.847,2.047
48132170,-0.778,0.195,0.578,1.26,-5.145,1.942
48132190,-0.769,0.178,0.57,2.502,-3.815,2.345
48132190,-0.774,0.19,0.569,5.197,-2.992,3.202
48132210,-0.79,0.197,0.566,6.667,-3.15,4.2
48132210,-0.801,0.193,0.568,8.015,-5.215,4.182
48132230,-0.803,0.213,0.577,10.167,-7.262,3.78
48132230,-0.805,0.23,0.589,10.92,-8.47,3.465
48132250,-0.834,0.213,0.577,9.695,-7.14,3.08
48132250,-0.826,0.207,0.583,9.432,-7.63,1.4
48132260,-0.782,0.238,0.598,9.66,-8.435,0.42
48132270,-0.793,0.219,0.587,6.16,-5.95,1.19
48132280,-0.804,0.194,0.578,3.342,-4.375,0.735
48132290,-0.793,0.2,0.569,3.412,-4.987,1.785
48132300,-0.779,0.193,0.572,4.025,-5.617,2.66
48132310,-0.777,0.199,0.577,5.6,-5.81,3.57
48132320,-0.78,0.216,0.585,6.352,-5.32,4.76
48132330,-0.784,0.224,0.586,5.092,-5.162,5.162
48132340,-0.778,0.23,0.59,3.377,-4.217,5.197
48132350,-0.788,0.229,0.585,1.82,-3.307,5.162
48132360,-0.785,0.236,0.589,1.067,-2.712,4.725
48132370,-0.785,0.245,0.593,0,-2.24,4.462
48132380,-0.77,0.245,0.596,-2.17,-1.662,4.217
48132390,-0.775,0.233,0.594,-4.725,0.052,3.832
48132400,-0.765,0.228,0.593,-5.617,1.4,3.517
48132410,-0.779,0.214,0.584,-6.825,2.607,2.817
48132420,-0.776,0.214,0.576,-6.72,2.537,3.622
48132430,-0.788,0.218,0.583,-7.297,2.66,5.057
48132440,-0.782,0.219,0.584,-8.68,2.24,5.565
48132450,-0.787,0.251,0.591,-10.972,3.465,6.44
48132460,-0.821,0.227,0.586,-15.12,3.937,6.247
48132470,-0.774,0.208,0.584,-15.487,2.747,4.69
48132480,-0.774,0.237,0.58,-13.037,3.36,4.427
48132490,-0.811,0.195,0.554,-11.76,2.502,3.115
48132500,-0.804,0.22,0.563,-5.897,0.192,2.03
48132510,-0.823,0.221,0.544,-3.447,-1.82,1.715
48132510,-0.821,0.212,0.557,-1.785,-4.655,1.155
48132530,-0.827,0.206,0.557,-0.507,-7.752,0.28
48132530,-0.787,0.196,0.556,1.995,-11.147,-0.035
48132550,-0.766,0.193,0.561,5.372,-11.83,0.105
48132550,-0.772,0.203,0.584,8.277,-11.165,0.507
48132570,-0.764,0.229,0.607,9.45,-8.697,-0.14
48132570,-0.788,0.216,0.596,7.962,-6.265,-0.21
48132580,-0.772,0.214,0.585,8.155,-5.372,-0.42
48132590,-0.807,0.239,0.587,8.12,-4.777,0.77
48132600,-0.813,0.2,0.576,6.492,-5.477,0.7
48132610,-0.775,0.229,0.579,8.26,-7.28,1.032
48132620,-0.803,0.227,0.577,7.21,-6.597,2.432
48132630,-0.775,0.213,0.583,6.16,-7.297,1.505
48132640,-0.757,0.231,0.601,6.825,-5.337,2.66
48132650,-0.757,0.219,0.594,5.635,-3.43,2.31
48132660,-0.762,0.228,0.59,5.39,-1.207,2.747
48132670,-0.784,0.238,0.585,3.832,0.052,3.342
48132680,-0.794,0.227,0.574,1.645,0.087,3.535
48132690,-0.796,0.23,0.575,0.717,-0.875,3.99
48132700,-0.784,0.223,0.574,0.262,-1.89,4.217
48132710,-0.777,0.225,0.578,0.77,-2.135,4.322
48132720,-0.787,0.238,0.587,0.927,-1.855,4.235
48132730,-0.79,0.249,0.584,0.035,-1.312,4.042
48132740,-0.797,0.254,0.584,-1.802,-1.68,3.377
48132750,-0.779,0.248,0.585,-3.57,-1.942,2.345
48132760,-0.77,0.245,0.588,-5.11,-1.645,1.75
48132770,-0.757,0.24,0.598,-6.44,-0.245,1.137
48132780,-0.781,0.261,0.621,-8.015,1.015,0.927
48132790,-0.75,0.253,0.606,-11.655,2.537,1.47
48132800,-0.787,0.236,0.586,-14.437,5.95,1.067
48132810,-0.795,0.233,0.569,-15.82,7.455,1.347
48132820,-0.815,0.224,0.559,-16.677,6.002,2.152
48132830,-0.814,0.209,0.555,-16.187,3.272,2.205
48132840,-0.797,0.18,0.548,-13.93,-0.875,2.835
48132850,-0.807,0.188,0.551,-8.767,-3.01,2.555
48132860,-0.819,0.212,0.559,-4.637,-5.652,2.817
48132870,-0.816,0.197,0.556,-2.45,-7.7,2.572
48132880,-0.811,0.198,0.55,1.47,-10.272,2.065
48132890,-0.808,0.227,0.566,5.127,-12.74,2.502
48132900,-0.795,0.234,0.587,6.37,-15.382,2.047
48132910,-0.779,0.245,0.605,6.23,-14.647,1.365
48132920,-0.781,0.233,0.589,5.635,-13.002,-0.122
48132920,-0.777,0.218,0.579,6.825,-11.777,-1.4
48132940,-0.775,0.228,0.583,9.782,-13.055,-0.017
48132940,-0.762,0.221,0.575,11.515,-13.125,0.91
48132960,-0.774,0.192,0.578,14.367,-13.335,1.487
48132960,-0.72,0.234,0.584,17.605,-13.387,2.222
48132980,-0.76,0.235,0.597,16.047,-10.692,4.567
48132980,-0.762,0.232,0.604,13.912,-9.257,4.917
48133000,-0.76,0.241,0.606,12.775,-7.735,5.862
48133000,-0.762,0.235,0.603,10.342,-6.195,5.477
48133010,-0.767,0.234,0.607,8.382,-4.34,5.88
48133020,-0.76,0.228,0.606,6.527,-2.345,5.88
48133030,-0.718,0.207,0.602,6.247,0.49,5.95
48133040,-0.698,0.205,0.605,7.56,5.512,6.895
48133050,-0.704,0.206,0.606,9.415,11.672,7.927
48133060,-0.716,0.226,0.623,11.252,18.742,9.38
48133070,-0.749,0.248,0.63,11.392,26.897,10.622
48133080,-0.807,0.247,0.626,9.905,34.877,10.797
48133090,-0.795,0.227,0.607,9.415,38.832,11.515
48133100,-0.746,0.224,0.596,13.002,43.697,13.16
48133110,-0.738,0.226,0.573,17.185,49.315,13.387
48133120,-0.799,0.227,0.566,16.975,50.155,14.35
48133130,-0.806,0.214,0.562,14.735,46.777,18.462
48133140,-0.823,0.258,0.526,13.685,42.77,19.495
48133150,-0.848,0.198,0.498,13.125,36.645,17.675
48133160,-0.871,0.205,0.466,12.32,24.92,14.665
48133170,-0.82,0.303,0.494,11.602,12.075,15.452
48133180,-0.898,0.302,0.491,5.775,2.047,18.952
48133190,-0.901,0.337,0.489,-1.4,-9.45,19.775
48133200,-0.875,0.361,0.462,-7.997,-22.627,20.177
48133210,-0.862,0.372,0.473,-13.107,-32.287,19.127
48133220,-0.847,0.367,0.46,-15.085,-40.53,18.637
48133230,-0.752,0.391,0.457,-14.332,-42.682,17.325
48133240,-0.723,0.38,0.475,-9.817,-32.987,20.002
48133250,-0.839,0.37,0.541,-6.825,-21.525,18.375
48133260,-0.747,0.34,0.563,-4.55,-20.3,11.112
48133260,-0.753,0.307,0.561,-3.237,-17.605,6.09
48133280,-0.74,0.272,0.573,-2.397,-13.895,5.88
48133280,-0.735,0.279,0.592,0.805,-9.03,6.877
48133300,-0.743,0.271,0.583,3.202,-4.497,7.367
48133300,-0.767,0.271,0.566,4.532,1.032,7.735
48133320,-0.81,0.273,0.534,5.11,3.85,8.295
48133320,-0.843,0.311,0.523,5.74,2.747,9.432
48133330,-0.875,0.347,0.521,2.59,-3.605,10.762
48133340,-0.895,0.346,0.511,-4.13,-12.477,11.042
48133350,-0.879,0.336,0.509,-9.607,-23.45,10.01
48133360,-0.83,0.338,0.528,-12.705,-32.532,8.225
48133370,-0.792,0.32,0.551,-15.225,-38.307,6.422
48133380,-0.728,0.292,0.587,-15.12,-38.482,5.162
48133390,-0.686,0.286,0.61,-12.915,-32.62,4.742
48133400,-0.66,0.281,0.617,-9.695,-22.767,4.252
48133410,-0.663,0.281,0.618,-7.105,-11.76,3.36
48133420,-0.699,0.306,0.605,-5.827,-3.727,3.605
48133430,-0.726,0.332,0.61,-6.422,2.047,3.36
48133440,-0.778,0.335,0.589,-10.15,4.987,2.432
48133450,-0.778,0.318,0.577,-12.897,5.005,1.557
48133460,-0.792,0.359,0.587,-14.717,3.342,1.505
48133470,-0.809,0.356,0.589,-19.372,-0.262,0.84
48133480,-0.779,0.301,0.569,-21.7,-4.55,-0.822
48133490,-0.756,0.301,0.573,-17.692,-6.352,-1.68
48133500,-0.736,0.297,0.571,-14.122,-8.207,-2.415
48133510,-0.73,0.272,0.56,-12.005,-8.365,-2.87
48133520,-0.743,0.267,0.556,-8.802,-8.05,-3.027
48133530,-0.757,0.273,0.575,-6.422,-8.067,-3.115
48133540,-0.747,0.263,0.583,-5.197,-8.82,-2.695
48133550,-0.727,0.256,0.59,-3.395,-6.72,-2.117
48133560,-0.747,0.249,0.581,-1.067,-4.602,-1.662
48133570,-0.77,0.257,0.576,1.715,-3.342,-0.945
48133580,-0.774,0.267,0.576,4.322,-4.13,-0.612
48133590,-0.778,0.274,0.573,5.985,-4.725,0.56
48133600,-0.77,0.287,0.574,7.07,-6.527,1.522
48133610,-0.769,0.313,0.595,6.002,-7.175,2.415
48133620,-0.764,0.296,0.591,2.835,-7.735,3.15
48133630,-0.737,0.276,0.579,2.66,-7.787,3.01
48133640,-0.738,0.275,0.575,5.215,-8.295,3.097
48133650,-0.762,0.273,0.571,7.927,-9.17,3.272
48133660,-0.774,0.296,0.576,10.307,-11.585,3.08
48133670,-0.789,0.323,0.594,9.257,-13.335,2.94
48133670,-0.767,0.331,0.613,4.847,-13.405,3.517
48133690,-0.754,0.302,0.606,-0.595,-11.217,5.197
48133690,-0.705,0.278,0.595,-1.54,-9.485,5.95
48133710,-0.687,0.269,0.599,0.787,-6.755,6.16
48133710,-0.719,0.263,0.591,4.34,-4.357,6.615
48133730,-0.756,0.277,0.575,8.137,-3.465,8.102
48133730,-0.777,0.322,0.584,9.607,-6.352,9.327
48133750,-0.778,0.352,0.604,6.335,-8.347,10.587
48133750,-0.758,0.345,0.616,1.33,-8.68,10.307
48133760,-0.703,0.348,0.628,-3.342,-5.67,8.33
48133770,-0.691,0.318,0.619,-7.315,-1.277,5.145
48133780,-0.708,0.277,0.603,-6.422,3.447,3.832
48133790,-0.756,0.3,0.583,-2.047,5.512,5.075
48133800,-0.791,0.312,0.565,-0.437,3.517,5.792
48133810,-0.786,0.313,0.565,-0.735,-1.312,5.792
48133820,-0.77,0.321,0.573,-1.05,-6.002,5.04
48133830,-0.753,0.318,0.592,-1.715,-8.697,3.762
48133840,-0.743,0.317,0.604,-2.8,-9.38,4.13
48133850,-0.738,0.326,0.613,-5.215,-8.015,4.357
48133860,-0.726,0.304,0.611,-7.525,-6.65,3.412
48133870,-0.707,0.311,0.609,-6.177,-4.34,2.94
48133880,-0.717,0.322,0.601,-5.25,-1.82,2.555
48133890,-0.738,0.315,0.591,-5.582,-0.49,1.085
48133900,-0.758,0.327,0.592,-5.67,-1.032,0.157
48133910,-0.771,0.325,0.593,-6.912,-2.467,-0.892
48133920,-0.77,0.315,0.597,-7.315,-5.127,-2.187
48133930,-0.749,0.302,0.597,-6.615,-6.737,-2.572
48133940,-0.74,0.286,0.591,-4.497,-8.487,-3.08
48133950,-0.738,0.288,0.585,-1.312,-9.45,-2.922
48133960,-0.751,0.289,0.581,0.805,-11.9,-2.397
48133970,-0.742,0.297,0.595,2.45,-13.475,-1.802
48133980,-0.741,0.297,0.6,3.15,-14.7,-1.295
48133990,-0.745,0.303,0.612,3.325,-14.455,-0.91
48134000,-0.743,0.301,0.614,3.115,-13.982,-0.49
48134010,-0.737,0.292,0.607,3.185,-13.352,0.595
48134010,-0.736,0.275,0.601,4.147,-14.175,1.715
48134030,-0.725,0.256,0.596,7.07,-14.77,3.185
48134030,-0.706,0.263,0.597,12.232,-15.942,5.145
48134050,-0.711,0.295,0.609,15.452,-15.19,7.402
48134050,-0.726,0.322,0.629,14.875,-14.192,8.715
48134070,-0.71,0.352,0.638,11.742,-11.585,9.362
48134070,-0.696,0.355,0.638,7.07,-8.802,7.105
48134080,-0.697,0.351,0.63,3.115,-4.48,5.337
48134090,-0.705,0.355,0.63,0.647,-1.575,4.2
48134100,-0.709,0.345,0.626,-1.96,0.945,3.027
48134110,-0.714,0.349,0.625,-4.427,2.537,1.645
48134120,-0.714,0.344,0.626,-7.385,3.972,0.49
48134130,-0.702,0.338,0.632,-9.87,6.16,-0.262
48134140,-0.697,0.327,0.625,-12.407,9.45,-0.052
48134150,-0.725,0.333,0.624,-15.032,12.425,0.14
48134160,-0.734,0.342,0.633,-18.777,14.245,-0.175
48134170,-0.725,0.355,0.638,-22.837,15.925,-1.417
48134180,-0.747,0.343,0.62,-26.827,18.62,-3.78
48134190,-0.76,0.293,0.581,-27.3,17.71,-6.51
48134200,-0.745,0.295,0.579,-22.61,14.227,-7.84
48134210,-0.773,0.288,0.572,-18.9,10.255,-7.542
48134220,-0.78,0.253,0.559,-15.487,4.9,-7.49
48134230,-0.788,0.264,0.567,-10.727,-0.717,-6.877
48134240,-0.771,0.263,0.575,-8.172,-5.915,-6.107
48134250,-0.763,0.242,0.571,-6.195,-9.257,-5.477
48134260,-0.746,0.256,0.592,-1.995,-12.775,-4.76
48134270,-0.726,0.26,0.606,0.91,-13.912,-3.36
48134280,-0.725,0.251,0.601,3.64,-14.035,-2.73
48134290,-0.729,0.273,0.609,7.472,-12.722,-2.065
48134300,-0.747,0.273,0.604,9.625,-13.072,-1.907
48134310,-0.728,0.3,0.612,11.357,-13.72,-1.89
48134320,-0.739,0.313,0.615,9.222,-13.23,-1.015
48134330,-0.711,0.288,0.61,5.145,-12.355,0.245
48134340,-0.709,0.279,0.613,3.482,-11.882,1.925
48134350,-0.703,0.269,0.62,3.937,-10.255,3.132
48134360,-0.717,0.279,0.618,6.317,-9.292,4.742
48134370,-0.738,0.287,0.612,7.42,-9.1,7.122
48134380,-0.746,0.286,0.611,7.385,-10.85,9.625
48134390,-0.742,0.296,0.612,7.892,-11.847,11.847
48134400,-0.729,0.298,0.613,8.05,-12.827,12.897
48134410,-0.711,0.298,0.621,7.577,-12.775,13.79
48134420,-0.688,0.302,0.623,7.98,-12.495,14.402
48134420,-0.701,0.327,0.634,7.087,-9.625,14.157
48134430,-0.705,0.341,0.638,4.13,-7.227,13.492
48134440,-0.7,0.367,0.647,0.665,-4.06,11.375
48134450,-0.7,0.35,0.645,-4.252,-0.84,7.717
48134460,-0.689,0.336,0.646,-5.81,3.57,5.355
48134470,-0.694,0.348,0.642,-6.265,7.42,4.112
48134480,-0.699,0.372,0.662,-8.96,12.215,3.01
48134490,-0.777,0.327,0.623,-16.1,16.012,3.92
48134500,-0.735,0.275,0.58,-17.185,12.687,3.412
48134510,-0.72,0.317,0.588,-12.845,10.377,3.307
48134520,-0.776,0.305,0.59,-12.88,8.54,2.887
48134530,-0.745,0.267,0.585,-11.182,3.202,1.802
48134540,-0.738,0.296,0.589,-6.93,0,1.732
48134550,-0.772,0.309,0.585,-6.842,-3.167,2.222
48134560,-0.773,0.279,0.591,-7.192,-8.225,2.555
48134570,-0.746,0.289,0.609,-3.185,-11.83,2.082
48134580,-0.736,0.296,0.605,0.262,-13.475,1.645
48134590,-0.737,0.288,0.599,2.502,-15.47,1.575
48134600,-0.742,0.294,0.605,4.69,-18.567,2.677
48134610,-0.734,0.287,0.602,6.177,-22.33,4.077
48134620,-0.698,0.298,0.618,8.767,-25.672,4.095
48134630,-0.684,0.315,0.642,11.077,-24.517,3.78
48134640,-0.68,0.319,0.645,11.322,-21.245,2.747
48134650,-0.689,0.312,0.641,10.99,-16.765,0.682
48134660,-0.713,0.297,0.629,12.005,-14.49,-0.21
48134670,-0.745,0.3,0.614,14.262,-15.137,0.717
48134680,-0.743,0.325,0.621,15.75,-17.762,1.627
48134690,-0.741,0.327,0.63,13.86,-19.705,3.185
48134700,-0.698,0.325,0.642,11.935,-21.42,4.567
48134710,-0.654,0.335,0.659,10.622,-19.6,4.602
48134720,-0.645,0.349,0.668,8.575,-14.7,4.06
48134730,-0.653,0.344,0.665,5.705,-8.732,3.605
48134740,-0.669,0.345,0.653,3.745,-4.497,3.255
48134750,-0.68,0.344,0.653,1.907,-1.785,2.52
48134760,-0.686,0.353,0.652,0.525,-0.052,1.767
48134760,-0.689,0.346,0.643,-1.505,2.065,0.84
48134780,-0.691,0.332,0.634,-2.8,3.062,0.122
48134780,-0.703,0.329,0.633,-3.71,4.042,0.472
48134800,-0.703,0.328,0.637,-4.725,3.727,1.032
48134800,-0.687,0.333,0.644,-6.247,4.305,1.802
48134820,-0.685,0.328,0.643,-8.295,5.32,2.502
48134820,-0.675,0.332,0.648,-9.905,7.822,2.502
48134830,-0.696,0.33,0.64,-11.917,10.465,2.047
48134840,-0.709,0.33,0.635,-13.79,12.915,1.295
48134850,-0.732,0.34,0.625,-16.432,13.527,1.155
48134860,-0.737,0.323,0.599,-19.162,11.935,1.19
48134870,-0.763,0.317,0.585,-19.6,8.172,1.172
48134880,-0.717,0.272,0.595,-16.835,1.382,0.822
48134890,-0.678,0.318,0.628,-8.96,-1.855,1.47
48134900,-0.729,0.305,0.614,-6.93,-2.397,2.327
48134910,-0.731,0.306,0.627,-4.725,-5.127,2.065
48134920,-0.71,0.328,0.657,-3.622,-5.932,0.892
48134930,-0.697,0.311,0.64,-3.272,-4.305,-1.995
48134940,-0.712,0.32,0.618,-1.942,-3.01,-2.817
48134950,-0.747,0.311,0.609,-1.54,-4.812,-3.29
48134960,-0.764,0.301,0.606,0.245,-9.485,-3.745
48134970,-0.744,0.302,0.609,2.502,-14.857,-3.43
48134980,-0.708,0.298,0.626,3.832,-19.127,-2.887
48134990,-0.68,0.293,0.641,4.882,-19.565,-2.485
48135000,-0.662,0.307,0.655,6.09,-16.572,-2.572
48135010,-0.653,0.309,0.66,5.88,-12.197,-2.222
48135020,-0.668,0.304,0.657,5.88,-8.382,-1.715
48135030,-0.696,0.304,0.643,6.825,-5.355,-1.242
48135040,-0.708,0.304,0.626,8.715,-5.547,-1.277
48135050,-0.729,0.301,0.617,10.43,-7.017,-1.137
48135060,-0.723,0.317,0.628,12.18,-9.852,-0.805
48135070,-0.723,0.326,0.637,11.095,-10.535,0.28
48135080,-0.709,0.311,0.641,8.925,-11.672,1.47
48135090,-0.673,0.298,0.653,8.697,-11.497,2.345
48135100,-0.655,0.308,0.666,10.465,-9.222,2.817
48135110,-0.654,0.318,0.66,11.41,-5.057,3.307
48135120,-0.677,0.343,0.651,10.447,-1.312,3.885
48135120,-0.707,0.337,0.638,7.175,0.857,3.972
48135140,-0.705,0.336,0.637,5.512,0.84,3.517
48135140,-0.7,0.352,0.636,3.99,1.347,3.902
48135160,-0.692,0.342,0.636,1.155,0.875,3.867
48135160,-0.675,0.335,0.646,-0.84,1.33,3.692
48135170,-0.654,0.343,0.655,-2.537,2.782,3.692
48135180,-0.665,0.337,0.649,-5.355,5.74,3.675
48135190,-0.68,0.345,0.647,-7.087,8.697,3.29
48135200,-0.712,0.352,0.636,-9.66,11.83,3.132
48135210,-0.732,0.338,0.622,-12.127,11.462,1.942
48135220,-0.73,0.348,0.629,-13.02,9.957,0.56
48135230,-0.724,0.341,0.629,-14.647,8.312,-0.28
48135240,-0.702,0.324,0.622,-16.082,7.28,-0.017
48135250,-0.708,0.321,0.622,-16.362,6.282,0.595
48135260,-0.717,0.297,0.629,-16.17,5.197,0.77
48135270,-0.703,0.287,0.628,-12.985,3.99,-0.017
48135280,-0.717,0.308,0.617,-8.697,3.832,-0.21
48135290,-0.724,0.299,0.616,-6.492,1.767,-0.752
48135300,-0.707,0.299,0.625,-2.835,0.035,-1.505
48135310,-0.703,0.303,0.618,0.63,-0.227,-1.627
48135320,-0.725,0.294,0.607,2.765,-1.487,-1.137
48135330,-0.716,0.3,0.616,4.672,-3.552,0.087
48135340,-0.702,0.294,0.619,5.74,-4.795,0.822
48135350,-0.662,0.274,0.621,7.56,-3.885,1.19
48135360,-0.654,0.285,0.623,10.64,-0.14,2.94
48135370,-0.655,0.286,0.631,13.51,5.232,3.517
48135380,-0.633,0.244,0.626,19.145,7.7,2.747
48135390,-0.593,0.345,0.678,28.752,14.402,2.24
48135400,-0.719,0.373,0.672,25.707,24.115,3.745
48135410,-0.702,0.325,0.64,21.105,29.68,2.87
48135420,-0.694,0.331,0.629,20.177,35.315,4.76
48135430,-0.686,0.321,0.625,18.69,42.21,8.015
48135440,-0.691,0.319,0.629,17.535,50.172,9.747
48135450,-0.672,0.291,0.617,18.252,60.445,11.2
48135460,-0.688,0.322,0.588,23.555,68.985,12.582
48135470,-0.765,0.355,0.531,25.182,72.1,13.597
48135480,-0.857,0.403,0.487,22.365,65.695,13.877
48135490,-0.924,0.437,0.455,14.682,51.59,12.267
48135500,-0.957,0.422,0.437,5.53,31.57,11.882
48135510,-0.944,0.445,0.446,-2.572,10.202,12.18
48135510,-0.886,0.429,0.472,-11.952,-10.255,8.295
48135530,-0.835,0.406,0.505,-18.707,-24.552,5.005
48135530,-0.783,0.386,0.538,-21.612,-32.655,2.677
48135550,-0.731,0.355,0.564,-22.277,-34.177,0.77
48135550,-0.695,0.34,0.583,-19.862,-31.045,0.14
48135570,-0.687,0.342,0.59,-17.535,-23.8,0.087
48135570,-0.7,0.332,0.585,-15.732,-16.38,-0.997
48135580,-0.721,0.323,0.573,-13.16,-10.115,-0.822
48135590,-0.747,0.33,0.56,-9.992,-7.157,-0.455
48135600,-0.781,0.337,0.549,-8.137,-7.35,-0.105
48135610,-0.804,0.355,0.54,-7.577,-11.27,0.175
48135620,-0.792,0.356,0.539,-8.592,-16.957,0.07
48135630,-0.78,0.349,0.548,-9.205,-22.365,-0.332
48135640,-0.76,0.346,0.57,-9.047,-25.55,-0.962
48135650,-0.737,0.345,0.591,-8.942,-26.46,-1.61
48135660,-0.705,0.336,0.606,-8.417,-24.517,-2.537
48135670,-0.686,0.34,0.626,-7.105,-19.687,-2.835
48135680,-0.682,0.335,0.618,-5.687,-13.055,-3.15
48135690,-0.698,0.334,0.597,-3.675,-7.122,-3.605
48135700,-0.742,0.351,0.583,-2.362,-4.585,-3.71
48135710,-0.77,0.342,0.572,-3.185,-5.267,-3.832
48135720,-0.756,0.331,0.573,-3.955,-7.892,-3.08
48135730,-0.741,0.319,0.578,-4.532,-9.677,-1.995
48135740,-0.726,0.302,0.581,-4.235,-10.832,-1.05
48135750,-0.73,0.31,0.586,-2.73,-10.902,0.735
48135760,-0.741,0.319,0.592,-1.645,-11.707,1.75
48135770,-0.738,0.314,0.586,-0.892,-11.987,3.01
48135780,-0.723,0.321,0.591,1.05,-12.915,4.182
48135790,-0.695,0.298,0.604,4.165,-12.862,3.5
48135800,-0.695,0.33,0.603,9.45,-10.447,3.412
48135810,-0.738,0.352,0.593,9.87,-8.225,4.9
48135820,-0.752,0.358,0.586,8.155,-9.572,2.87
48135830,-0.755,0.343,0.582,6.177,-11.567,2.625
48135830,-0.735,0.349,0.597,5.547,-14.122,3.43
48135850,-0.717,0.339,0.597,4.392,-14.367,4.287
48135850,-0.699,0.334,0.596,3.692,-14.682,4.777
48135870,-0.709,0.339,0.609,3.412,-13.86,4.917
48135870,-0.719,0.335,0.608,4.13,-13.597,5.67
48135890,-0.71,0.352,0.609,5.652,-12.722,6.58
48135890,-0.71,0.362,0.609,4.812,-12.32,6.44
48135910,-0.709,0.36,0.606,2.87,-11.357,5.792
48135910,-0.699,0.362,0.614,1.347,-10.692,5.39
48135920,-0.704,0.355,0.617,-0.087,-8.785,4.812
48135930,-0.696,0.361,0.624,-0.962,-7.122,4.077
48135940,-0.691,0.359,0.622,-2.31,-4.795,3.272
48135950,-0.702,0.346,0.614,-2.922,-3.132,2.52
48135960,-0.711,0.351,0.604,-2.59,-2.012,2.835
48135970,-0.752,0.405,0.605,-4.935,-1.907,4.41
48135980,-0.759,0.341,0.595,-11.55,-4.672,5.285
48135990,-0.733,0.332,0.606,-8.54,-8.295,3.395
48136000,-0.684,0.356,0.612,-4.97,-8.102,3.132
48136010,-0.727,0.336,0.605,-4.637,-8.61,2.292
48136020,-0.715,0.332,0.611,-1.452,-9.292,2.082
48136030,-0.709,0.349,0.614,1.855,-9.467,2.065
48136040,-0.719,0.349,0.606,2.765,-9.817,1.61
48136050,-0.698,0.348,0.607,3.377,-10.517,0.735
48136060,-0.692,0.348,0.612,3.972,-10.622,-0.892
48136070,-0.683,0.335,0.618,4.97,-9.52,-1.207
48136080,-0.686,0.35,0.623,6.755,-7.612,-1.417
48136090,-0.685,0.341,0.606,7.805,-5.04,-1.557
48136100,-0.697,0.349,0.591,10.132,-5.215,-3.132
48136110,-0.735,0.363,0.61,13.195,-7.437,-4.707
48136120,-0.703,0.38,0.626,14.07,-11.252,-4.69
48136130,-0.713,0.387,0.629,10.57,-10.885,-4.112
48136140,-0.706,0.373,0.629,5.705,-9.747,-3.64
48136150,-0.678,0.362,0.623,2.502,-7.63,-3.115
48136160,-0.664,0.359,0.629,0.892,-5.285,-2.345
48136170,-0.662,0.35,0.642,0.157,-2.835,-1.487
48136180,-0.665,0.348,0.638,0.455,-0.612,-0.49
48136190,-0.67,0.349,0.631,0.402,2.065,0.84
48136200,-0.684,0.349,0.621,0.245,3.587,1.557
48136210,-0.684,0.353,0.616,-0.14,5.53,2.38
48136220,-0.693,0.354,0.613,-1.032,6.23,2.992
48136230,-0.691,0.35,0.613,-2.205,7.332,3.815
48136240,-0.695,0.34,0.603,-2.555,7.262,4.62
48136250,-0.697,0.346,0.6,-1.872,7.28,5.845
48136260,-0.711,0.361,0.61,-2.152,6.667,7.297
48136260,-0.72,0.368,0.609,-3.692,6.387,8.155
48136280,-0.712,0.378,0.611,-5.057,5.372,7.875
48136280,-0.69,0.365,0.608,-6.632,5.495,6.93
48136300,-0.689,0.364,0.614,-6.195,5.67,6.002
48136300,-0.689,0.367,0.617,-5.127,7.525,4.987
48136320,-0.713,0.362,0.601,-4.865,8.89,4.55
48136320,-0.749,0.36,0.583,-4.795,7.997,4.48
48136330,-0.761,0.353,0.588,-4.427,3.605,3.745
48136340,-0.747,0.361,0.597,-3.202,0.21,3.5
48136350,-0.719,0.356,0.604,-2.362,-1.837,2.8
48136360,-0.705,0.359,0.613,-1.155,-1.767,2.257
48136370,-0.706,0.363,0.615,-0.035,-1.05,1.732
48136380,-0.722,0.357,0.608,0.84,-0.28,0.682
48136390,-0.728,0.357,0.598,1.89,-0.332,0.297
48136400,-0.723,0.357,0.593,2.397,-1.242,0.472
48136410,-0.73,0.358,0.589,2.31,-2.66,0.665
48136420,-0.727,0.37,0.595,2.17,-4.13,0.577
48136430,-0.73,0.364,0.595,1.155,-5.372,0.437
48136440,-0.706,0.31,0.589,3.5,-8.767,-0.945
48136450,-0.661,0.367,0.619,11.06,-8.855,-1.12
48136460,-0.689,0.382,0.61,10.71,-5.337,0.682
48136470,-0.702,0.354,0.591,8.417,-3.815,0.927
48136480,-0.707,0.377,0.593,8.225,-3.307,2.187
48136490,-0.729,0.386,0.597,4.742,-3.307,2.782
48136500,-0.731,0.385,0.599,-0.122,-4.042,3.482
48136510,-0.715,0.385,0.607,-4.637,-4.042,4.182
48136520,-0.695,0.373,0.608,-8.032,-4.305,4.182
48136530,-0.667,0.365,0.612,-9.31,-2.922,3.78
48136540,-0.657,0.363,0.619,-8.837,-0.56,3.605
48136550,-0.678,0.375,0.625,-8.732,3.5,4.445
48136560,-0.675,0.38,0.623,-9.835,6.685,5.215
48136570,-0.7,0.381,0.608,-11.83,10.167,4.847
48136580,-0.722,0.391,0.607,-13.545,10.622,3.482
48136580,-0.726,0.375,0.603,-16.012,10.797,1.977
48136600,-0.733,0.375,0.592,-17.43,10.622,1.137
48136600,-0.741,0.353,0.572,-18.865,9.327,1.347
48136620,-0.747,0.318,0.569,-16.975,4.497,0.402
48136620,-0.739,0.329,0.584,-11.48,1.4,0.28
48136640,-0.733,0.332,0.588,-6.93,-1.382,0.087
48136640,-0.739,0.311,0.572,-2.887,-3.535,0.087
48136660,-0.763,0.327,0.565,2.135,-7.735,1.032
48136660,-0.786,0.347,0.558,4.637,-13.527,2.415
48136670,-0.786,0.361,0.564,5.372,-22.225,2.8
48136680,-0.734,0.384,0.608,5.04,-28.525,2.275
48136690,-0.682,0.372,0.632,3.36,-28.892,0.927
48136700,-0.639,0.353,0.641,3.797,-24.395,-0.017
48136710,-0.632,0.372,0.646,5.425,-18.602,-2.117
48136720,-0.642,0.363,0.649,6.405,-12.075,-4.76
48136730,-0.683,0.357,0.626,7.77,-5.967,-4.06
48136740,-0.718,0.349,0.598,9.572,-4.025,-4.497
48136750,-0.745,0.363,0.594,10.325,-5.67,-4.847
48136760,-0.753,0.366,0.596,8.627,-8.435,-4.392
48136770,-0.73,0.373,0.614,5.792,-11.305,-3.132
48136780,-0.698,0.375,0.623,1.802,-11.795,-1.522
48136790,-0.67,0.349,0.629,-2.082,-10.202,-0.472
48136800,-0.644,0.341,0.63,-2.467,-6.825,0.77
48136810,-0.634,0.341,0.622,-2.117,-2.38,1.75
48136820,-0.654,0.351,0.622,-1.872,1.697,2.782
48136830,-0.685,0.372,0.621,-2.817,4.865,3.78
48136840,-0.691,0.393,0.639,-5.495,6.807,3.535
48136850,-0.697,0.385,0.634,-9.24,10.027,2.887
48136860,-0.676,0.39,0.639,-11.602,13.212,2.187
48136870,-0.71,0.374,0.615,-15.575,16.782,2.59
48136880,-0.697,0.344,0.591,-17.5,15.977,2.835
48136890,-0.715,0.353,0.589,-17.307,14.192,3.867
48136900,-0.73,0.341,0.584,-17.517,10.692,4.707
48136910,-0.71,0.323,0.587,-15.61,7.682,4.532
48136920,-0.701,0.334,0.598,-11.602,5.862,5.04
48136930,-0.72,0.341,0.6,-9.905,6.055,5.617
48136940,-0.747,0.316,0.582,-8.75,3.482,6.195
48136950,-0.767,0.324,0.571,-4.217,-1.137,6.667
48136960,-0.762,0.368,0.587,-0.7,-7.017,6.562
48136970,-0.764,0.354,0.596,-0.595,-11.567,5.04
48136980,-0.725,0.354,0.611,1.89,-13.947,2.887
48136990,-0.687,0.357,0.614,4.007,-13.527,1.015
48137000,-0.695,0.357,0.616,5.32,-12.932,-0.035
48137010,-0.694,0.348,0.61,6.86,-11.777,-0.332
48137010,-0.687,0.353,0.613,9.45,-12.162,-1.715
48137030,-0.702,0.365,0.62,10.36,-10.85,-2.135
48137030,-0.697,0.364,0.624,9.8,-9.502,-3.185
48137050,-0.697,0.377,0.626,8.435,-6.702,-3.92
48137050,-0.708,0.366,0.617,5.67,-4.812,-4.69
48137070,-0.717,0.356,0.611,4.252,-4.235,-5.04
48137070,-0.713,0.358,0.611,3.447,-5.215,-4.322
48137080,-0.727,0.358,0.609,1.522,-5.862,-2.975
48137090,-0.722,0.358,0.613,-0.175,-7.227,-1.925
48137100,-0.691,0.362,0.614,-0.84,-7.332,-1.592
48137110,-0.676,0.36,0.621,-1.837,-6.23,-2.03
48137120,-0.674,0.358,0.626,-2.677,-3.867,-1.785
48137130,-0.68,0.356,0.627,-3.325,-1.277,-1.505
48137140,-0.686,0.359,0.624,-3.762,0.98,-1.137
48137150,-0.688,0.368,0.627,-4.515,2.887,-0.665
48137160,-0.685,0.363,0.625,-6.09,4.9,-0.857
48137170,-0.695,0.363,0.618,-8.242,6.93,-0.962
48137180,-0.699,0.342,0.607,-9.852,7.49,-0.927
48137190,-0.704,0.339,0.608,-9.607,7.525,-0.227
48137200,-0.712,0.342,0.612,-9.677,7.297,1.032
48137210,-0.731,0.34,0.606,-9.817,6.93,2.38
48137220,-0.743,0.33,0.586,-8.855,5.092,3.062
48137230,-0.721,0.308,0.576,-5.722,1.995,3.027
48137240,-0.722,0.329,0.572,-0.7,-0.49,3.57
48137250,-0.745,0.36,0.555,1.715,-3.132,4.375
48137260,-0.736,0.385,0.584,2.922,-9.327,1.942
48137270,-0.702,0.399,0.667,3.955,-10.85,-2.887
48137280,-0.665,0.417,0.689,5.355,-3.657,-8.855
48137290,-0.622,0.431,0.705,5.162,9.362,-16.275
48137300,-0.683,0.428,0.687,2.695,21.612,-23.187
48137310,-0.696,0.442,0.687,-0.245,30.87,-30.887
48137320,-0.718,0.446,0.7,-4.655,39.305,-37.52
48137330,-0.736,0.425,0.682,-10.29,49.49,-39.2
48137330,-0.666,0.459,0.643,-13.107,59.045,-41.51
48137350,-0.849,0.482,0.682,-18.55,67.165,-39.095
48137350,-0.859,0.48,0.686,-36.032,65.38,-38.325
48137370,-0.826,0.421,0.621,-49.612,56.122,-35.175
48137370,-0.783,0.379,0.551,-60.287,47.337,-32.585
48137390,-0.726,0.375,0.55,-65.52,44.677,-30.502
48137390,-0.82,0.396,0.611,-73.675,44.415,-31.185
48137410,-0.816,0.234,0.478,-85.575,39.235,-34.51
48137410,-0.713,0.209,0.437,-80.692,35.105,-31.237
48137420,-0.724,0.237,0.451,-74.06,38.605,-22.662
48137430,-0.755,0.195,0.416,-71.102,44.922,-16.817
48137440,-0.782,0.155,0.392,-64.802,48.195,-11.2
48137450,-0.785,0.124,0.375,-54.18,46.882,-2.24
48137460,-0.795,0.06,0.393,-39.305,44.415,5.477
48137470,-0.818,0.085,0.408,-22.172,39.83,13.23
48137480,-0.85,0.129,0.506,-10.115,30.66,16.485
48137490,-0.898,0.226,0.539,-14.577,14.98,11.06
48137500,-0.687,0.156,0.532,-24.325,10.22,2.572
48137510,-0.679,0.041,0.517,-22.802,21.385,-3.185
48137520,-0.723,0.089,0.524,-19.005,27.825,-2.905
48137530,-0.779,0.089,0.525,-17.832,27.247,7.98
48137540,-0.756,0.047,0.541,-11.637,23.047,18.935
48137550,-0.758,0.06,0.574,-1.977,22.12,25.847
48137560,-0.771,0.12,0.572,2.712,19.145,31.255
48137570,-0.807,0.158,0.591,-0.595,15.855,35.997
48137580,-0.806,0.174,0.576,-8.207,9.887,35.332
48137590,-0.791,0.157,0.553,-15.96,3.5,35.105
48137600,-0.769,0.14,0.548,-19.267,-3.045,39.9
48137610,-0.969,0.204,0.446,-21.98,-10.815,52.272
48137620,-0.812,0.228,0.504,-27.317,-35.665,60.182
48137630,-0.55,0.043,0.431,-17.5,-28.525,71.417
48137640,-0.667,0.296,0.476,13.457,-4.427,73.762
48137650,-0.615,0.371,0.474,18.41,22.907,73.57
48137660,-0.621,0.383,0.494,17.57,58.205,64.68
48137670,-0.925,0.49,0.544,11.62,92.522,48.685
48137680,-1.201,0.547,0.577,-4.462,103.582,32.9
48137690,-1.305,0.572,0.568,-22.662,89.267,35.245
48137700,-1.181,0.594,0.512,-45.272,58.555,34.562
48137710,-1.043,0.488,0.438,-68.18,28.402,27.212
48137720,-0.927,0.422,0.373,-79.992,3.64,20.23
48137730,-0.886,0.409,0.37,-84.542,-12.635,11.445
48137740,-0.834,0.353,0.382,-87.78,-24.727,5.197
48137750,-0.751,0.265,0.396,-90.3,-27.23,7.91
48137760,-0.831,0.327,0.455,-89.075,-22.89,13.772
48137760,-0.807,0.248,0.487,-84.665,-18.025,5.845
48137780,-0.861,0.172,0.488,-77.822,-13.072,6.772
48137780,-0.823,0.195,0.491,-67.48,-8.61,16.905
48137800,-0.802,0.209,0.474,-59.22,-5.705,21.91
48137800,-0.797,0.189,0.441,-52.692,-3.342,24.377
48137820,-0.799,0.219,0.437,-44.415,-4.305,25.462
48137820,-0.803,0.238,0.426,-39.515,-7.245,24.937
48137830,-0.823,0.21,0.402,-34.947,-10.832,25.462
48137840,-0.851,0.199,0.393,-26.11,-15.4,28.787
48137850,-0.858,0.187,0.374,-14.595,-21.367,32.445
48137860,-0.87,0.213,0.398,-2.397,-25.655,33.145
48137870,-0.897,0.236,0.431,5.967,-27.86,29.575
48137880,-0.928,0.262,0.469,9.52,-29.487,24.22
48137890,-0.968,0.283,0.486,9.975,-31.92,21.735
48137900,-0.963,0.278,0.492,9.66,-35.402,21.752
48137910,-0.906,0.293,0.498,9.817,-37.677,21.892
48137920,-0.822,0.285,0.527,6.02,-34.02,20.282
48137930,-0.722,0.248,0.536,4.007,-23.38,15.26
48137940,-0.739,0.245,0.547,7.787,-8.242,9.152
48137950,-0.734,0.224,0.531,8.925,1.75,12.722
48137960,-0.67,0.223,0.564,11.06,5.967,20.422
48137970,-0.805,0.265,0.566,11.445,6.195,20.177
48137980,-0.757,0.221,0.594,1.557,-8.785,21.402
48137990,-0.685,0.254,0.557,-0.927,-9.135,14.455
48138000,-0.786,0.275,0.544,-3.99,-4.34,0.49
48138010,-0.833,0.178,0.491,-3.342,-3.062,7.612
48138020,-0.843,0.287,0.507,8.417,-6.282,16.537
48138030,-0.82,0.31,0.52,10.972,-7.052,18.777
48138040,-0.815,0.325,0.55,9.275,-7.35,18.182
48138050,-0.836,0.336,0.577,5.18,-8.19,18.62
48138060,-0.82,0.327,0.565,2.572,-11.287,17.08
48138070,-0.777,0.326,0.554,1.977,-12.74,15.68
48138080,-0.749,0.336,0.557,1.977,-12.53,13.737
48138080,-0.732,0.347,0.57,0.087,-9.362,11.322
48138100,-0.742,0.333,0.572,-2.31,-4.987,9.345
48138100,-0.753,0.324,0.569,-3.15,0.385,8.207
48138120,-0.738,0.324,0.566,-1.925,4.585,7.49
48138120,-0.748,0.335,0.549,-0.227,8.33,5.74
48138140,-0.79,0.341,0.533,1.172,8.225,3.132
48138140,-0.831,0.377,0.528,2.45,5.005,0.017
48138160,-0.859,0.406,0.523,0.927,-1.085,-4.06
48138160,-0.864,0.394,0.514,-3.255,-8.032,-7.595
48138170,-0.846,0.364,0.504,-6.562,-15.837,-9.87
48138180,-0.833,0.35,0.503,-7.857,-22.365,-11.322
48138190,-0.827,0.336,0.501,-8.417,-28.752,-11.9
48138200,-0.8,0.334,0.499,-7.56,-33.915,-11.305
48138210,-0.789,0.314,0.528,-6.072,-38.692,-9.852
48138220,-0.753,0.317,0.572,-5.267,-40.81,-8.767
48138230,-0.715,0.294,0.598,-6.422,-38.202,-7.525
48138240,-0.68,0.271,0.63,-7.455,-31.447,-6.177
48138250,-0.653,0.255,0.643,-7.402,-21.122,-4.445
48138260,-0.658,0.219,0.633,-6.72,-9.835,-3.605
48138270,-0.659,0.213,0.615,-3.57,0.49,-3.5
48138280,-0.712,0.244,0.583,0.332,8.697,-2.257
48138290,-0.793,0.285,0.554,3.272,11.97,0.175
48138300,-0.844,0.326,0.529,4.655,8.365,1.33
48138310,-0.871,0.358,0.525,2.432,0.945,1.295
48138320,-0.869,0.35,0.522,-2.205,-8.785,0.35
48138330,-0.827,0.322,0.537,-5.775,-17.71,-0.857
48138340,-0.776,0.318,0.566,-6.895,-23.275,-1.382
48138350,-0.743,0.297,0.586,-7.962,-24.972,-1.225
48138360,-0.688,0.274,0.608,-7.507,-23.275,-0.14
48138370,-0.665,0.271,0.62,-5.075,-16.905,1.12
48138380,-0.668,0.279,0.626,-1.697,-9.1,2.45
48138390,-0.689,0.311,0.613,1.015,-0.962,3.412
48138400,-0.736,0.328,0.593,1.015,4.27,2.327
48138410,-0.79,0.34,0.578,-0.822,5.67,0.805
48138420,-0.809,0.344,0.564,-3.255,2.345,-0.822
48138430,-0.817,0.327,0.555,-5.67,-2.065,-1.662
48138440,-0.808,0.315,0.562,-7.105,-7.332,-1.89
48138450,-0.79,0.291,0.56,-8.872,-11.602,-1.767
48138460,-0.777,0.27,0.558,-8.75,-16.205,-1.242
48138470,-0.76,0.276,0.583,-7.035,-18.62,0.7
48138480,-0.733,0.283,0.6,-5.967,-18.69,2.695
48138490,-0.702,0.284,0.607,-5.792,-15.995,4.095
48138500,-0.691,0.279,0.598,-4.62,-12.39,4.567
48138500,-0.718,0.295,0.595,-2.432,-8.557,4.13
48138510,-0.761,0.31,0.597,-1.225,-7.157,3.85
48138520,-0.783,0.308,0.59,-1.067,-7.455,3.255
48138530,-0.787,0.3,0.579,-0.752,-9.992,2.327
48138540,-0.764,0.299,0.585,0.297,-13.212,1.4
48138550,-0.761,0.289,0.597,0.367,-14.63,1.61
48138560,-0.76,0.249,0.577,0.77,-16.24,2.135
48138570,-0.755,0.258,0.576,5.232,-18.847,3.15
48138580,-0.709,0.304,0.606,8.172,-20.965,3.902
48138590,-0.734,0.282,0.611,6.335,-19.057,5.425
48138600,-0.622,0.303,0.626,6.212,-14.805,6.055
48138610,-0.689,0.335,0.637,5.792,-6.895,5.617
48138620,-0.705,0.339,0.623,4.445,-1.767,3.325
48138630,-0.749,0.357,0.617,2.747,1.05,1.592
48138640,-0.806,0.326,0.592,-0.507,-0.7,0.857
48138650,-0.81,0.314,0.587,-0.245,-6.23,0.455
48138660,-0.784,0.317,0.603,0.455,-11.917,0.315
48138670,-0.742,0.292,0.6,-0.402,-15.137,0.84
48138680,-0.683,0.295,0.623,-0.455,-15.82,1.855
48138690,-0.641,0.29,0.634,-1.522,-12.04,3.097
48138700,-0.635,0.288,0.635,-1.592,-6.3,4.235
48138710,-0.648,0.317,0.639,-1.54,-0.035,6.247
48138720,-0.671,0.331,0.638,-3.01,5.092,8.26
48138730,-0.69,0.348,0.632,-5.6,10.08,9.345
48138740,-0.71,0.365,0.632,-9.152,13.685,8.015
48138750,-0.745,0.36,0.61,-13.23,16.677,6.09
48138760,-0.765,0.334,0.593,-15.067,16.537,3.885
48138770,-0.761,0.32,0.584,-13.387,13.597,0.752
48138780,-0.773,0.32,0.584,-10.062,10.255,-1.662
48138790,-0.763,0.304,0.586,-8.557,7.157,-3.132
48138800,-0.765,0.278,0.589,-7.245,3.972,-4.235
48138810,-0.768,0.277,0.577,-5.477,1.435,-4.777
48138820,-0.793,0.297,0.584,-4.042,-1.715,-4.795
48138830,-0.778,0.287,0.603,-5.127,-4.917,-4.55
48138830,-0.747,0.272,0.598,-4.847,-6.842,-4.445
48138850,-0.719,0.272,0.602,-3.115,-6.282,-3.885
48138850,-0.739,0.273,0.605,-1.68,-5.652,-3.097
48138870,-0.746,0.278,0.608,-0.28,-5.32,-2.362
48138870,-0.759,0.286,0.602,1.61,-6.265,-2.065
48138890,-0.758,0.298,0.597,3.727,-7.402,-2.292
48138890,-0.753,0.305,0.594,4.445,-9.152,-3.01
48138910,-0.737,0.307,0.601,4.41,-10.202,-4.375
48138910,-0.732,0.314,0.616,3.745,-8.505,-4.882
48138920,-0.73,0.286,0.608,1.54,-6.72,-4.497
48138930,-0.699,0.291,0.616,1.645,-5.022,-4.077
48138940,-0.732,0.3,0.613,1.592,-2.082,-3.587
48138950,-0.729,0.288,0.609,0.84,-0.577,-2.502
48138960,-0.72,0.282,0.605,1.225,-0.332,-1.225
48138970,-0.727,0.291,0.61,2.03,1.242,-0.14
48138980,-0.714,0.29,0.61,1.837,2.502,0.052
48138990,-0.697,0.302,0.62,1.487,4.515,1.4
48139000,-0.696,0.309,0.617,0.122,7.875,2.45
48139010,-0.716,0.326,0.612,-2.45,10.64,3.78
48139020,-0.713,0.342,0.615,-5.81,12.075,5.267
48139030,-0.731,0.338,0.607,-10.342,15.715,6.317
48139040,-0.743,0.305,0.584,-14.07,16.537,6.212
48139050,-0.764,0.296,0.576,-13.702,15.067,4.532
48139060,-0.777,0.286,0.57,-10.92,10.71,2.082
48139070,-0.774,0.316,0.587,-7.227,7.525,-0.42
48139080,-0.796,0.325,0.579,-7.857,5.547,-1.33
48139090,-0.807,0.32,0.567,-10.412,3.412,-2.03
48139100,-0.804,0.298,0.573,-11.462,-0.857,-3.465
48139110,-0.784,0.3,0.571,-10.115,-3.395,-4.06
48139120,-0.793,0.282,0.573,-10.08,-7.63,-4.725
48139130,-0.771,0.268,0.588,-9.047,-10.622,-5.985
48139140,-0.757,0.276,0.595,-8.68,-13.02,-5.635
48139150,-0.735,0.262,0.615,-8.872,-13.09,-5.372
48139160,-0.718,0.25,0.635,-8.137,-11.252,-5.04
48139170,-0.702,0.234,0.621,-5.722,-6.125,-4.287
48139170,-0.725,0.245,0.597,-1.715,-2.047,-2.922
48139190,-0.773,0.278,0.584,1.33,-0.7,-1.697
48139190,-0.799,0.283,0.579,1.977,-3.29,-1.68
48139210,-0.783,0.272,0.574,2.835,-6.877,-2.327
48139210,-0.776,0.273,0.579,5.442,-9.695,-2.607
48139230,-0.783,0.241,0.579,8.102,-13.51,-3.71
48139230,-0.701,0.248,0.604,14.35,-17.622,-5.757
48139250,-0.705,0.295,0.623,19.022,-15.47,-6.072
48139250,-0.772,0.323,0.627,13.685,-12.512,-4.252
48139260,-0.759,0.266,0.603,5.53,-12.11,-2.012
48139270,-0.719,0.298,0.605,3.552,-10.867,0.122
48139280,-0.755,0.284,0.599,0.297,-8.627,2.607
48139290,-0.716,0.268,0.607,0.122,-8.347,3.132
48139300,-0.718,0.289,0.616,0.822,-6.632,3.867
48139310,-0.718,0.278,0.618,-0.595,-5.425,4.76
48139320,-0.724,0.288,0.614,-1.225,-3.622,6.055
48139330,-0.676,0.305,0.632,-1.907,-1.75,6.702
48139340,-0.686,0.307,0.643,-5.092,3.325,8.4
48139350,-0.686,0.303,0.625,-8.767,9.975,9.397
48139360,-0.761,0.303,0.604,-11.655,15.995,9.59
48139370,-0.764,0.249,0.566,-10.307,13.737,7.385
48139380,-0.777,0.327,0.601,-3.395,10.937,6.772
48139390,-0.811,0.285,0.566,-4.69,6.842,5.775
48139400,-0.72,0.268,0.592,-2.292,1.68,3.517
48139410,-0.744,0.305,0.606,-1.382,2.397,2.485
48139420,-0.767,0.267,0.587,-2.625,2.082,1.312
48139430,-0.774,0.298,0.593,-0.7,1.382,1.347
48139440,-0.804,0.302,0.595,-1.785,-1.242,1.4
48139450,-0.777,0.292,0.591,-3.272,-4.165,0.822
48139460,-0.765,0.288,0.584,-3.22,-6.842,0.35
48139470,-0.76,0.288,0.597,-2.415,-7.962,-0.035
48139480,-0.747,0.28,0.605,-1.872,-9.012,-0.577
48139490,-0.729,0.28,0.606,-0.577,-8.295,-1.33
48139500,-0.742,0.287,0.606,0.647,-7.717,-1.61
48139510,-0.736,0.296,0.614,1.032,-6.632,-1.75
48139520,-0.738,0.295,0.609,0.052,-5.967,-1.417
48139530,-0.72,0.286,0.611,-1.137,-4.287,-1.47
48139540,-0.702,0.283,0.607,-2.24,-2.222,-1.137
48139550,-0.714,0.29,0.606,-4.375,0.945,-0.035
48139560,-0.733,0.285,0.613,-6.195,3.027,-0.315
48139570,-0.733,0.282,0.608,-6.562,5.39,-0.192
48139580,-0.752,0.294,0.591,-5.6,5.862,-0.07
48139580,-0.813,0.319,0.59,-5.792,4.445,0.35
48139600,-0.795,0.298,0.609,-6.842,0.612,-1.435
48139600,-0.759,0.27,0.607,-5.442,-0.297,-3.605
48139620,-0.729,0.257,0.594,-3.202,-0.28,-4.76
48139620,-0.745,0.242,0.583,-1.312,-0.122,-4.847
48139640,-0.757,0.259,0.583,1.137,-1.225,-4.025
48139640,-0.799,0.271,0.574,2.345,-2.835,-3.605
48139660,-0.818,0.266,0.573,2.835,-7.927,-3.972
48139660,-0.746,0.265,0.595,5.705,-13.317,-5.495
48139670,-0.737,0.315,0.634,5.985,-11.795,-4.515
48139680,-0.743,0.242,0.595,0.315,-10.78,-2.24
48139690,-0.697,0.247,0.608,2.31,-10.062,-1.645
48139700,-0.724,0.264,0.612,5.11,-7.35,0.017
48139710,-0.744,0.265,0.598,5.74,-5.442,0.455
48139720,-0.749,0.281,0.605,7.77,-4.655,-0.035
48139730,-0.774,0.29,0.602,8.172,-4.97,0.035
48139740,-0.741,0.317,0.609,6.545,-5.337,-0.472
48139750,-0.785,0.314,0.597,1.89,-4.76,0.647
48139760,-0.758,0.291,0.599,-1.697,-6.352,1.015
48139770,-0.727,0.278,0.607,-2.835,-6.807,1.61
48139780,-0.724,0.273,0.611,-2.975,-5.827,2.327
48139790,-0.725,0.267,0.618,-2.59,-3.85,2.765
48139800,-0.704,0.277,0.634,-1.802,-1.12,3.29
48139810,-0.711,0.272,0.617,-1.855,3.657,3.99
48139820,-0.736,0.297,0.611,-2.555,7.052,4.865
48139830,-0.762,0.278,0.601,-5.057,8.26,5.46
48139840,-0.777,0.267,0.571,-4.83,7.962,5.495
48139850,-0.734,0.31,0.595,-3.045,5.285,5.11
48139860,-0.75,0.308,0.627,-5.67,5.81,5.285
48139870,-0.729,0.263,0.601,-9.222,8.715,5.162
48139880,-0.726,0.263,0.59,-8.312,9.117,5.652
48139890,-0.761,0.283,0.591,-6.317,9.1,5.442
48139900,-0.762,0.295,0.585,-4.392,7.14,3.71
48139910,-0.795,0.287,0.568,-2.625,4.795,2.45
48139920,-0.789,0.287,0.57,-0.77,0.175,0.857
48139920,-0.786,0.275,0.571,-0.035,-3.22,0.07
48139940,-0.777,0.271,0.578,0.98,-6.44,-0.07
48139940,-0.764,0.273,0.593,1.19,-8.225,0.367
48139960,-0.731,0.267,0.604,0.017,-8.96,0.945
48139960,-0.724,0.265,0.604,-0.822,-6.947,1.505
48139980,-0.755,0.288,0.583,0.087,-5.372,1.505
48139980,-0.81,0.332,0.563,-0.105,-7.07,1.54
48140000,-0.825,0.322,0.591,-2.887,-13.16,-0.175
48140000,-0.757,0.295,0.601,-3.85,-16.887,-2.625
48140010,-0.713,0.287,0.621,-3.272,-16.607,-2.537
48140020,-0.696,0.279,0.619,-4.182,-13.09,-3.482
48140030,-0.689,0.28,0.627,-4.375,-8.627,-3.71
48140040,-0.725,0.271,0.618,-4.165,-3.5,-3.552
48140050,-0.739,0.258,0.604,-3.832,-0.577,-3.395
48140060,-0.744,0.243,0.593,-3.36,0.157,-2.292
48140070,-0.757,0.252,0.603,-2.065,0.105,-0.14
48140080,-0.768,0.267,0.602,-0.647,-0.962,0.892
48140090,-0.772,0.271,0.603,-0.087,-2.782,1.032
48140100,-0.785,0.275,0.599,0.035,-5.355,1.015
48140110,-0.785,0.269,0.592,0.857,-8.575,0.945
48140120,-0.781,0.276,0.595,2.555,-12.005,0.665
48140130,-0.759,0.248,0.597,4.042,-14.437,-0.77
48140140,-0.691,0.247,0.617,8.172,-14.332,-2.467
48140150,-0.695,0.295,0.629,10.167,-8.907,-0.91
48140160,-0.76,0.28,0.614,7.122,-5.512,0.805
48140170,-0.717,0.284,0.61,6.492,-4.41,0.857
48140180,-0.774,0.293,0.599,5.985,-3.657,2.152
48140190,-0.742,0.267,0.595,6.195,-5.845,1.96
48140200,-0.743,0.298,0.602,8.627,-7.035,1.207
48140210,-0.744,0.306,0.608,6.352,-6.93,1.12
48140220,-0.74,0.296,0.614,3.115,-7.245,1.102
48140230,-0.719,0.285,0.616,1.12,-5.985,1.225
48140240,-0.728,0.292,0.615,0.42,-4.672,1.715
48140250,-0.743,0.283,0.607,-0.595,-3.832,2.205
48140260,-0.751,0.286,0.604,-1.032,-4.812,2.555
48140270,-0.759,0.286,0.605,-2.047,-5.565,3.237
48140280,-0.742,0.292,0.616,-3.062,-6.86,3.815
48140290,-0.731,0.294,0.623,-4.567,-5.88,4.392
48140300,-0.718,0.296,0.632,-6.125,-4.322,4.41
48140310,-0.697,0.297,0.634,-7.297,-1.277,3.902
48140320,-0.701,0.299,0.628,-8.19,2.047,3.727
48140330,-0.719,0.299,0.629,-9.362,6.615,4.182
48140330,-0.738,0.273,0.598,-10.902,8.855,5.862
48140350,-0.766,0.269,0.586,-10.57,8.505,6.947
48140350,-0.747,0.278,0.588,-8.82,3.762,5.302
48140370,-0.757,0.308,0.614,-8.26,2.537,5.022
48140370,-0.745,0.279,0.604,-11.567,2.712,5.337
48140390,-0.74,0.257,0.611,-11.287,2.642,5.495
48140390,-0.704,0.291,0.626,-7.857,4.252,4.497
48140410,-0.748,0.28,0.61,-6.93,6.65,3.727
48140410,-0.728,0.26,0.592,-4.13,5.932,1.54
48140420,-0.775,0.29,0.581,0.105,4.672,0.017
48140430,-0.806,0.288,0.577,1.662,0.98,-1.505
48140440,-0.801,0.298,0.59,2.082,-3.867,-1.75
48140450,-0.772,0.279,0.596,0.56,-8.242,-2.065
48140460,-0.741,0.261,0.601,0.525,-10.465,-2.992
48140470,-0.724,0.256,0.604,1.382,-10.465,-2.607
48140480,-0.726,0.272,0.612,2.8,-9.957,-1.872
48140490,-0.759,0.286,0.623,3.185,-9.31,-1.592
48140500,-0.735,0.288,0.618,3.15,-8.925,-2.485
48140510,-0.745,0.285,0.611,2.73,-8.347,-3.045
48140520,-0.758,0.282,0.615,3.36,-8.942,-4.287
48140530,-0.765,0.275,0.6,5.705,-10.587,-6.44
48140540,-0.732,0.303,0.615,9.835,-12.46,-9.187
48140550,-0.734,0.304,0.631,10.325,-12.32,-10.325
48140560,-0.78,0.269,0.616,6.965,-9.555,-8.242
48140570,-0.698,0.264,0.604,3.972,-10.202,-5.967
48140580,-0.735,0.274,0.615,2.187,-8.4,-3.01
48140590,-0.724,0.241,0.608,0.035,-7.28,-1.155
48140600,-0.722,0.257,0.615,1.96,-6.562,0.262
48140610,-0.72,0.255,0.618,2.852,-5.582,1.592
48140620,-0.738,0.26,0.618,4.077,-5.355,2.695
48140630,-0.735,0.274,0.61,5.18,-4.882,4.27
48140640,-0.736,0.3,0.61,4.882,-5.075,5.39
48140650,-0.718,0.289,0.616,2.8,-4.392,5.897
48140660,-0.705,0.297,0.619,1.505,-2.905,5.862
48140670,-0.722,0.289,0.619,-0.315,-0.56,5.932
48140670,-0.708,0.295,0.624,-0.525,0.875,5.53
48140690,-0.719,0.309,0.631,-1.907,3.36,6.422
48140690,-0.722,0.295,0.629,-4.707,6.177,6.65
48140710,-0.732,0.286,0.6,-6.982,7.997,6.422
48140710,-0.77,0.283,0.586,-8.137,6.807,6.457
48140730,-0.74,0.276,0.595,-7.822,2.485,5.32
48140730,-0.738,0.309,0.618,-7.385,1.225,5.547
48140750,-0.731,0.299,0.619,-10.78,1.75,5.442
48140750,-0.733,0.326,0.62,-14.122,4.305,6.352
48140760,-0.786,0.256,0.595,-17.902,2.835,5.407
48140770,-0.701,0.285,0.618,-12.005,1.085,1.907
48140780,-0.789,0.348,0.593,-11.637,1.312,2.362
48140790,-0.795,0.258,0.604,-14.21,-3.797,-0.455
48140800,-0.731,0.285,0.631,-9.065,-4.672,-3.605
48140810,-0.755,0.274,0.607,-8.032,-4.217,-3.815
48140820,-0.758,0.257,0.606,-4.725,-4.812,-4.515
48140830,-0.77,0.259,0.604,-2.555,-6.597,-4.9
48140840,-0.763,0.256,0.595,-0.385,-9.065,-5.39
48140850,-0.76,0.263,0.605,2.03,-11.515,-5.162
48140860,-0.741,0.262,0.624,3.15,-12.32,-5.022
48140870,-0.748,0.244,0.608,3.325,-11.182,-4.095
48140880,-0.743,0.223,0.605,6.212,-12.687,-3.482
48140890,-0.681,0.231,0.629,12.495,-14.437,-4.025
48140900,-0.666,0.289,0.648,16.555,-10.955,-2.817
48140910,-0.757,0.281,0.622,12.74,-5.267,1.102
48140920,-0.736,0.245,0.61,10.972,-5.932,2.222
48140930,-0.715,0.261,0.608,13.667,-5.81,2.695
48140940,-0.711,0.284,0.607,15.015,-5.652,3.797
48140950,-0.753,0.326,0.614,12.337,-4.952,5.792
48140960,-0.772,0.315,0.612,6.247,-6.317,6.58
48140970,-0.719,0.297,0.612,2.905,-7.787,5.635
48140980,-0.711,0.298,0.624,2.397,-7.437,5.46
48140990,-0.714,0.304,0.631,1.837,-5.215,5.337
48141000,-0.714,0.311,0.627,-0.14,-4.287,4.865
48141010,-0.705,0.307,0.638,-3.22,-2.502,3.657
48141020,-0.709,0.304,0.639,-6.142,0.122,2.957
48141030,-0.709,0.3,0.633,-8.312,3.745,2.905
48141040,-0.707,0.304,0.627,-9.957,5.967,3.097
48141050,-0.704,0.335,0.626,-12.757,10.115,3.955
48141060,-0.788,0.326,0.598,-19.11,13.072,5.6
48141070,-0.794,0.239,0.579,-21.21,7.455,3.307
48141080,-0.688,0.283,0.618,-13.107,1.592,-0.175
48141080,-0.749,0.302,0.621,-10.622,2.03,-0.735
48141100,-0.749,0.254,0.616,-10.395,0.84,-2.152
48141100,-0.74,0.292,0.618,-7.42,0.297,-2.905
48141120,-0.78,0.254,0.606,-6.737,-1.435,-3.552
48141120,-0.761,0.239,0.59,-2.292,-3.85,-4.69
48141140,-0.804,0.266,0.573,1.872,-8.12,-3.377
48141140,-0.808,0.276,0.573,3.377,-16.012,-4.322
48141160,-0.758,0.29,0.628,3.272,-22.802,-4.952
48141160,-0.729,0.245,0.642,1.89,-23.205,-5.04
48141170,-0.7,0.224,0.62,5.057,-21.665,-4.497
48141180,-0.693,0.271,0.647,10.272,-21.035,-4.182
48141190,-0.713,0.279,0.654,10.99,-17.185,-4.235
48141200,-0.74,0.252,0.625,9.8,-14.945,-3.29
48141210,-0.678,0.275,0.635,11.375,-14.735,-3.5
48141220,-0.731,0.28,0.626,11.34,-12.652,-2.572
48141230,-0.741,0.292,0.629,9.625,-10.85,-0.665
48141240,-0.748,0.278,0.634,6.632,-12.512,1.172
48141250,-0.709,0.26,0.636,6.107,-13.615,1.242
48141260,-0.675,0.278,0.64,6.195,-11.882,3.132
48141270,-0.679,0.278,0.655,4.287,-9.52,5.757
48141280,-0.667,0.279,0.638,3.097,-6.685,6.44
48141290,-0.686,0.305,0.636,2.222,-3.255,7.525
48141300,-0.723,0.308,0.641,-0.262,-1.365,7.892
48141310,-0.72,0.316,0.639,-2.537,-0.017,7.682
48141320,-0.715,0.32,0.64,-5.162,-0.28,7.175
48141330,-0.689,0.315,0.65,-8.015,1.172,6.282
48141340,-0.702,0.305,0.646,-11.025,5.232,6.597
48141350,-0.719,0.275,0.617,-13.475,7.175,6.842
48141360,-0.713,0.289,0.619,-10.92,5.092,5.81
48141370,-0.727,0.312,0.633,-8.89,4.06,4.357
48141380,-0.722,0.307,0.633,-8.96,2.8,2.45
48141390,-0.749,0.302,0.625,-10.29,2.852,2.572
48141400,-0.744,0.277,0.616,-10.902,-0.262,1.155
48141410,-0.737,0.29,0.618,-8.872,-2.03,-0.227
48141420,-0.774,0.275,0.621,-9.415,-5.477,-0.455
48141420,-0.736,0.237,0.629,-7.84,-10.062,-2.397
48141440,-0.715,0.276,0.618,-4.147,-10.745,-2.187
48141440,-0.745,0.267,0.634,-4.742,-12.25,-1.312
48141460,-0.722,0.257,0.646,-2.397,-12.617,-2.24
48141460,-0.694,0.265,0.652,-0.087,-10.885,-1.75
48141480,-0.701,0.259,0.657,1.05,-8.452,-1.242
48141480,-0.705,0.264,0.643,2.52,-6.3,-0.507
48141500,-0.702,0.279,0.644,3.517,-5.232,0
48141500,-0.708,0.267,0.641,3.762,-3.937,0.262
48141510,-0.704,0.261,0.64,5.565,-2.747,0.805
48141520,-0.688,0.263,0.648,7.927,-1.662,1.435
48141530,-0.668,0.26,0.662,9.537,0.612,1.645
48141540,-0.652,0.278,0.668,9.87,6.3,3.045
48141550,-0.676,0.255,0.655,8.225,13.44,5.372
48141560,-0.683,0.256,0.648,9.38,19.18,6.09
48141570,-0.693,0.277,0.642,10.85,24.797,7.91
48141580,-0.699,0.283,0.643,12.145,29.837,9.712
48141590,-0.688,0.313,0.636,14.262,35.56,10.587
48141600,-0.722,0.341,0.625,14.262,38.745,8.995
48141610,-0.755,0.35,0.617,11.375,38.99,7.297
48141620,-0.774,0.364,0.604,8.4,37.065,5.092
48141630,-0.779,0.354,0.594,4.532,34.632,2.24
48141640,-0.777,0.347,0.592,1.26,31.22,0.262
48141650,-0.781,0.36,0.584,-1.207,28.577,-1.382
48141660,-0.778,0.345,0.57,-2.87,25.27,-3.377
48141670,-0.756,0.353,0.56,-3.167,23.87,-4.165
48141680,-0.743,0.363,0.504,-2.817,24.92,-2.205
48141690,-0.627,0.302,0.386,-1.452,36.05,0.892
48141700,-0.789,0.452,0.433,8.12,53.305,4.847
48141710,-0.847,0.441,0.465,2.537,58.66,13.002
48141720,-0.882,0.417,0.457,-5.985,52.797,13.492
48141730,-0.863,0.401,0.48,-15.067,42.63,12.022
48141740,-0.843,0.374,0.516,-23.94,30.117,10.797
48141750,-0.838,0.327,0.548,-31.272,18.55,9.8
48141760,-0.805,0.273,0.585,-34.667,6.965,7.77
48141770,-0.753,0.229,0.614,-33.617,-2.03,6.877
48141780,-0.708,0.203,0.629,-30.012,-6.317,7.91
48141790,-0.702,0.182,0.642,-25.497,-5.372,8.68
48141800,-0.712,0.164,0.635,-20.65,-3.062,9.152
48141810,-0.721,0.155,0.624,-15.627,0.49,10.587
48141820,-0.744,0.156,0.605,-11.2,4.917,12.04
48141830,-0.78,0.155,0.583,-8.085,9.59,13.195
48141830,-0.808,0.184,0.562,-5.302,12.267,13.877
48141850,-0.842,0.231,0.523,-3.342,12.81,13.982
48141850,-0.872,0.274,0.493,-2.555,10.395,12.302
48141870,-0.909,0.314,0.486,-2.747,3.377,10.657
48141870,-0.893,0.341,0.489,-4.217,-6.72,9.362
48141880,-0.867,0.361,0.51,-7.227,-15.33,6.737
48141890,-0.822,0.341,0.532,-12.127,-20.807,4.55
48141900,-0.774,0.307,0.555,-15.12,-23.117,4.235
48141910,-0.718,0.289,0.585,-15.015,-21.07,4.812
48141920,-0.672,0.246,0.591,-11.812,-15.592,4.55
48141930,-0.654,0.24,0.599,-5.67,-5.74,3.027
48141940,-0.696,0.257,0.602,-0.7,5.827,3.5
48141950,-0.768,0.268,0.579,1.47,13.702,4.515
48141960,-0.828,0.289,0.556,2.73,14.542,5.792
48141970,-0.872,0.295,0.5,3.132,7.857,6.615
48141980,-0.853,0.315,0.488,3.22,2.03,4.48
48141990,-0.914,0.339,0.5,1.54,-6.02,2.327
48142000,-0.9,0.325,0.494,-2.73,-17.832,0.875
48142010,-0.899,0.317,0.494,-4.952,-29.662,-1.102
48142020,-0.852,0.309,0.509,-5.967,-41.107,-2.292
48142030,-0.779,0.305,0.547,-5.25,-46.445,-2.817
48142040,-0.709,0.276,0.581,-5.425,-44.975,-1.557
48142050,-0.676,0.256,0.61,-3.71,-36.592,0.122
48142060,-0.617,0.254,0.629,-0.875,-25.41,1.61
48142070,-0.631,0.252,0.63,1.872,-10.517,3.99
48142080,-0.666,0.267,0.624,5.407,2.222,5.512
48142090,-0.708,0.288,0.602,7.892,10.815,6.037
48142100,-0.77,0.307,0.571,9.222,14.455,5.705
48142110,-0.819,0.326,0.555,9.345,13.58,4.83
48142120,-0.829,0.339,0.544,8.33,8.365,3.535
48142130,-0.832,0.345,0.536,6.457,2.66,2.222
48142140,-0.828,0.333,0.54,4.34,-3.587,0.385
48142150,-0.79,0.324,0.553,3.185,-8.89,-1.872
48142160,-0.749,0.313,0.566,2.135,-11.62,-2.8
48142170,-0.738,0.3,0.579,1.225,-10.885,-1.557
48142170,-0.724,0.292,0.589,1.767,-8.627,-0.297
48142190,-0.71,0.289,0.594,2.887,-4.392,0.262
48142190,-0.72,0.282,0.583,4.077,0.437,0.665
48142210,-0.75,0.287,0.574,6.177,4.007,1.032
48142210,-0.777,0.304,0.566,7.717,5.057,1.487
48142230,-0.795,0.313,0.552,7.682,3.99,1.295
48142230,-0.845,0.314,0.55,6.422,0.647,0.42
48142250,-0.734,0.323,0.553,4.62,-3.64,0.21
48142250,-0.799,0.348,0.553,2.537,-2.957,-0.227
48142260,-0.799,0.311,0.553,-1.802,-3.92,-0.315
48142270,-0.773,0.316,0.555,-2.87,-5.932,-0.437
48142280,-0.762,0.301,0.558,-3.115,-7.507,-0.892
48142290,-0.761,0.315,0.57,-2.555,-7.752,-1.137
48142300,-0.772,0.32,0.566,-4.007,-8.067,-1.54
48142310,-0.783,0.318,0.56,-6.002,-8.837,-2.31
48142320,-0.787,0.319,0.557,-7.157,-11.235,-2.975
48142330,-0.796,0.318,0.555,-8.242,-14.262,-3.92
48142340,-0.789,0.307,0.557,-8.452,-17.902,-4.882
48142350,-0.778,0.306,0.568,-7.787,-20.002,-5.04
48142360,-0.752,0.304,0.582,-7.122,-20.737,-4.742
48142370,-0.741,0.306,0.598,-7.77,-18.777,-4.182
48142380,-0.732,0.314,0.614,-9.66,-16.1,-4.095
48142390,-0.72,0.295,0.604,-11.48,-11.725,-4.585
48142400,-0.712,0.289,0.604,-10.71,-8.032,-5.092
48142410,-0.744,0.298,0.6,-8.82,-4.672,-5.652
48142420,-0.762,0.287,0.59,-7.455,-3.727,-6.947
48142430,-0.766,0.285,0.597,-5.88,-3.447,-7.14
48142440,-0.758,0.277,0.588,-4.462,-4.34,-7.052
48142450,-0.749,0.264,0.581,-3.237,-4.585,-6.037
48142460,-0.751,0.269,0.589,-2.152,-4.567,-4.48
48142470,-0.757,0.26,0.581,-2.082,-3.745,-3.01
48142480,-0.753,0.256,0.576,-1.225,-3.78,-1.225
48142490,-0.748,0.267,0.582,-0.052,-3.097,0.297
48142500,-0.756,0.272,0.582,0.507,-2.835,0.787
48142510,-0.763,0.278,0.577,0.63,-2.747,1.365
48142520,-0.768,0.288,0.582,0.35,-4.147,1.627
48142530,-0.773,0.289,0.586,-0.945,-5.215,2.327
48142540,-0.754,0.291,0.59,-1.907,-6.055,2.712
48142550,-0.734,0.293,0.591,-2.782,-5.88,2.555
48142550,-0.734,0.295,0.595,-3.867,-5.302,2.485
48142570,-0.743,0.296,0.599,-4.847,-3.885,2.24
48142570,-0.744,0.294,0.602,-5.687,-2.1,1.977
48142580,-0.734,0.293,0.604,-6.58,-0.227,2.065
48142590,-0.698,0.294,0.633,-7.507,2.8,2.152
48142600,-0.746,0.261,0.611,-10.902,10.972,5.215
48142610,-0.75,0.231,0.549,-11.69,12.005,7.367
48142620,-0.71,0.294,0.587,-7.157,9.572,6.755
48142630,-0.799,0.288,0.588,-7.035,11.882,5.897
48142640,-0.801,0.275,0.567,-6.51,10.5,5.285
48142650,-0.81,0.276,0.551,-2.905,4.9,2.59
48142660,-0.774,0.301,0.576,2.45,-0.385,-0.14
48142670,-0.794,0.307,0.591,3.185,-1.802,-0.857
48142680,-0.768,0.276,0.586,1.837,-2.747,-2.257
48142690,-0.764,0.266,0.573,2.747,-2.712,-3.29
48142700,-0.776,0.26,0.554,4.952,-3.885,-3.85
48142710,-0.836,0.26,0.518,7.787,-7.945,-4.287
48142720,-0.789,0.324,0.559,12.635,-20.842,-9.222
48142730,-0.78,0.376,0.636,10.955,-21.56,-11.917
48142740,-0.784,0.297,0.615,0.647,-18.077,-10.342
48142750,-0.703,0.259,0.608,-3.972,-14.525,-6.615
48142760,-0.7,0.233,0.603,-3.465,-10.972,-4.865
48142770,-0.689,0.264,0.606,-1.645,-6.002,-3.185
48142780,-0.746,0.266,0.598,-1.82,-2.345,-1.697
48142790,-0.758,0.276,0.59,-1.96,-0.49,-0.787
48142800,-0.773,0.29,0.586,-2.432,-0.91,-0.157
48142810,-0.768,0.295,0.586,-4.007,-1.4,0.122
48142820,-0.76,0.293,0.594,-5.46,-2.24,0.245
48142830,-0.741,0.286,0.6,-6.37,-1.505,0.56
48142840,-0.714,0.282,0.61,-6.842,0.315,0.735
48142850,-0.687,0.283,0.628,-7.455,5.145,1.242
48142860,-0.699,0.274,0.645,-9.38,14.402,3.395
48142870,-0.761,0.233,0.575,-11.55,22.382,5.687
48142880,-0.741,0.248,0.549,-7.787,19.617,4.41
48142890,-0.81,0.285,0.565,-2.38,17.937,3.132
48142900,-0.829,0.289,0.552,-1.312,13.615,0.927
48142910,-0.814,0.287,0.548,-0.962,7.77,-1.33
48142920,-0.803,0.279,0.564,-0.665,2.887,-3.64
48142920,-0.793,0.261,0.563,-0.472,0.245,-3.64
48142940,-0.785,0.246,0.556,0.857,-1.995,-3.552
48142940,-0.794,0.24,0.556,3.062,-4.462,-3.552
48142960,-0.801,0.231,0.551,5.967,-7.84,-3.482
48142960,-0.811,0.214,0.538,11.375,-13.895,-4.62
48142980,-0.734,0.286,0.577,19.915,-19.46,-8.312
48142980,-0.808,0.358,0.6,19.477,-17.832,-9.152
48143000,-0.804,0.289,0.588,10.57,-18.112,-10.36
48143000,-0.776,0.291,0.594,4.672,-18.007,-5.775
48143010,-0.737,0.275,0.607,1.155,-17.132,-3.535
48143020,-0.716,0.265,0.614,-1.715,-12.145,-0.577
48143030,-0.714,0.25,0.594,-3.675,-7.105,0.735
48143040,-0.721,0.275,0.597,-2.835,-4.2,2.712
48143050,-0.748,0.3,0.605,-4.707,-1.75,4.987
48143060,-0.763,0.293,0.591,-8.522,-0.665,6.125
48143070,-0.75,0.283,0.595,-9.73,0.805,6.212
48143080,-0.711,0.318,0.626,-9.712,3.587,6.177
48143090,-0.777,0.302,0.615,-15.907,13.93,9.362
48143100,-0.756,0.215,0.564,-20.23,15.802,9.835
48143110,-0.734,0.24,0.56,-14.052,15.05,9.572
48143120,-0.807,0.25,0.562,-7.49,12.18,7.28
48143130,-0.793,0.28,0.56,-3.307,7.665,4.655
48143140,-0.834,0.297,0.567,-0.367,3.85,2.537
48143150,-0.827,0.284,0.556,-0.332,-0.735,0.455
48143160,-0.803,0.281,0.557,0.542,-5.967,-1.102
48143170,-0.803,0.27,0.564,1.855,-8.47,-1.907
48143180,-0.807,0.258,0.56,3.115,-11.182,-2.415
48143190,-0.804,0.241,0.557,4.497,-14.42,-2.642
48143200,-0.803,0.214,0.575,7.227,-19.302,-2.677
48143210,-0.753,0.189,0.585,13.37,-23.712,-4.812
48143220,-0.702,0.235,0.597,22.61,-24.552,-4.952
48143230,-0.72,0.3,0.603,25.777,-22.907,-5.827
48143240,-0.734,0.342,0.629,21.647,-16.03,-4.882
48143250,-0.78,0.313,0.597,11.165,-11.235,-2.415
48143260,-0.766,0.275,0.578,5.897,-11.2,-1.732
48143260,-0.702,0.305,0.598,5.862,-10.727,-1.697
48143280,-0.754,0.301,0.589,4.182,-8.417,-0.157
48143280,-0.744,0.299,0.595,1.82,-6.545,-0.175
48143300,-0.758,0.288,0.595,-0.962,-5.232,-0.28
48143300,-0.739,0.274,0.597,-2.047,-4.9,-0.507
48143320,-0.73,0.282,0.603,-2.537,-4.217,0.42
48143320,-0.723,0.281,0.599,-3.815,-2.957,1.61
48143330,-0.72,0.284,0.6,-6.212,-1.54,3.185
48143340,-0.722,0.277,0.597,-9.065,0.105,5.372
48143350,-0.732,0.271,0.597,-10.797,1.995,7.735
48143360,-0.739,0.274,0.601,-11.112,3.15,8.732
48143370,-0.694,0.34,0.624,-12.075,7.28,9.642
48143380,-0.856,0.303,0.578,-21.77,15.505,14.315
48143390,-0.793,0.216,0.552,-24.22,8.662,11.27
48143400,-0.744,0.261,0.584,-12.862,3.01,8.19
48143410,-0.777,0.311,0.601,-6.527,2.117,5.372
48143420,-0.822,0.29,0.587,-6.702,0.367,3.832
48143430,-0.79,0.264,0.578,-5.6,-2.73,1.277
48143440,-0.793,0.251,0.572,-1.12,-7.752,-1.155
48143450,-0.772,0.28,0.58,4.462,-10.185,-1.137
48143460,-0.816,0.271,0.572,4.672,-12.932,-1.207
48143470,-0.811,0.258,0.577,5.407,-16.397,-2.292
48143480,-0.808,0.25,0.571,7.087,-20.597,-2.45
48143490,-0.858,0.203,0.532,10.78,-28.227,-2.012
48143500,-0.706,0.29,0.603,21.297,-41.335,-5.862
48143510,-0.687,0.362,0.677,21.84,-34.265,-5.652
48143520,-0.773,0.246,0.616,9.397,-25.62,-2.782
48143530,-0.665,0.219,0.62,8.172,-25.2,-0.91
48143540,-0.652,0.277,0.61,11.41,-21.472,0.542
48143550,-0.704,0.253,0.608,11.515,-17.115,2.537
48143560,-0.669,0.325,0.623,11.672,-12.827,4.742
48143570,-0.81,0.308,0.617,5.53,-8.627,6.93
48143580,-0.734,0.258,0.613,4.147,-12.477,3.202
48143590,-0.689,0.333,0.619,7.105,-10.797,3.692
48143600,-0.728,0.326,0.617,3.535,-8.505,4.077
48143610,-0.711,0.311,0.63,-0.017,-7.577,3.01
48143620,-0.704,0.309,0.634,-1.732,-6.352,3.605
48143630,-0.701,0.309,0.631,-4.2,-4.305,2.782
48143640,-0.702,0.307,0.631,-5.53,-2.24,0.63
48143650,-0.701,0.3,0.63,-6.02,0.21,2.205
48143660,-0.712,0.309,0.631,-8.172,1.82,3.447
48143670,-0.702,0.291,0.635,-11.497,2.835,3.447
48143670,-0.646,0.301,0.646,-13.667,7.105,5.302
48143690,-0.723,0.269,0.613,-18.252,16.817,10.15
48143690,-0.717,0.256,0.587,-19.372,17.745,11.095
48143710,-0.743,0.316,0.604,-17.29,18.847,11.235
48143710,-0.826,0.308,0.602,-20.195,17.43,10.517
48143730,-0.803,0.29,0.603,-20.807,12.88,9.73
48143730,-0.777,0.284,0.609,-18.375,8.505,7.805
48143750,-0.764,0.28,0.614,-15.05,5.372,5.11
48143750,-0.742,0.267,0.617,-11.97,2.975,1.802
48143760,-0.746,0.262,0.609,-8.417,1.4,-0.105
48143770,-0.736,0.267,0.595,-4.392,1.452,-3.027
48143780,-0.789,0.261,0.578,-1.242,0.63,-1.907
48143790,-0.81,0.262,0.574,0.822,-3.062,-0.63
48143800,-0.821,0.262,0.543,2.257,-9.957,-0.402
48143810,-0.814,0.281,0.561,4.97,-20.37,-1.347
48143820,-0.758,0.282,0.632,7.682,-26.04,-3.587
48143830,-0.764,0.239,0.624,10.045,-26.687,-5.075
48143840,-0.598,0.306,0.66,13.702,-25.585,-6.842
48143850,-0.749,0.265,0.638,9.485,-14.875,-4.62
48143860,-0.681,0.235,0.616,8.575,-17.71,-5.215
48143870,-0.657,0.339,0.65,11.375,-11.83,-3.482
48143880,-0.768,0.288,0.619,4.532,-6.72,-1.872
48143890,-0.706,0.261,0.616,3.097,-7.91,-1.19
48143900,-0.699,0.308,0.621,4.917,-6.825,-0.77
48143910,-0.764,0.278,0.616,3.325,-5.53,0.315
48143920,-0.708,0.269,0.622,4.41,-8.19,0.98
48143930,-0.711,0.302,0.624,5.442,-5.967,2.817
48143940,-0.725,0.293,0.63,3.185,-5.145,2.747
48143950,-0.707,0.289,0.642,2.38,-3.342,2.257
48143960,-0.692,0.293,0.635,1.82,-0.735,2.012
48143970,-0.7,0.292,0.627,1.102,1.785,2.327
48143980,-0.698,0.291,0.634,0.227,3.132,3.01
48143990,-0.687,0.302,0.638,-1.96,5.145,4.27
48144000,-0.681,0.3,0.643,-6.142,7,7.21
48144010,-0.686,0.276,0.625,-10.15,9.922,11.042
48144010,-0.708,0.28,0.606,-11.095,11.777,12.46
48144030,-0.78,0.284,0.598,-10.587,12.845,11.9
48144030,-0.828,0.288,0.576,-10.657,8.19,9.957
48144050,-0.83,0.296,0.577,-9.94,-0.087,6.86
48144050,-0.797,0.303,0.592,-9.677,-8.522,4.322
48144070,-0.724,0.33,0.61,-11.725,-10.255,4.042
48144070,-0.751,0.312,0.61,-18.147,-8.347,5.915
48144080,-0.704,0.335,0.612,-23.327,-6.632,6.807
48144090,-0.767,0.292,0.639,-27.527,-4.305,6.02
48144100,-0.652,0.258,0.638,-25.007,-3.797,3.92
48144110,-0.769,0.267,0.644,-19.425,0.07,4.987
48144120,-0.699,0.229,0.652,-14.822,-3.815,-0.647
48144130,-0.725,0.242,0.65,-7.017,-4.375,-2.765
48144140,-0.729,0.24,0.603,-1.435,-4.007,-4.357
48144150,-0.782,0.264,0.567,3.57,-4.322,-4.025
48144160,-0.822,0.263,0.571,5.827,-9.817,-3.64
48144170,-0.802,0.253,0.585,6.65,-16.047,-2.59
48144180,-0.813,0.235,0.576,9.415,-25.252,-3.535
48144190,-0.692,0.3,0.649,15.137,-34.177,-5.757
48144200,-0.652,0.277,0.678,16.257,-33.092,-7.577
48144210,-0.61,0.301,0.68,15.89,-22.312,-5.39
48144220,-0.765,0.234,0.645,10.972,-15.925,-1.995
48144230,-0.624,0.232,0.641,15.05,-19.355,-3.885
48144240,-0.706,0.297,0.641,19.32,-15.627,-1.417
48144250,-0.718,0.302,0.631,16.38,-13.195,-0.21
48144260,-0.788,0.306,0.645,11.952,-13.825,2.765
48144270,-0.708,0.277,0.654,7.735,-16.502,2.625
48144280,-0.669,0.29,0.646,6.912,-14.42,3.395
48144290,-0.698,0.285,0.639,5.127,-10.92,4.375
48144300,-0.67,0.277,0.639,4.742,-11.585,5.127
48144310,-0.694,0.308,0.644,5.005,-9.94,6.982
48144320,-0.693,0.298,0.649,3.727,-9.38,7.7
48144330,-0.665,0.337,0.662,1.767,-7.14,7.787
48144340,-0.665,0.344,0.666,-2.712,-4.077,3.797
48144350,-0.651,0.324,0.681,-4.812,-0.28,2.415
48144360,-0.632,0.342,0.702,-6.51,4.882,2.817
48144370,-0.623,0.307,0.689,-11.935,14.227,2.467
48144380,-0.675,0.284,0.642,-16.152,22.662,4.672
48144390,-0.742,0.278,0.601,-15.977,21.98,6.702
48144400,-0.675,0.348,0.613,-11.847,18.147,7.297
48144410,-0.813,0.338,0.618,-14.507,19.74,9.782
48144420,-0.774,0.277,0.605,-17.885,13.195,7.56
48144420,-0.799,0.259,0.627,-15.505,6.02,6.615
48144440,-0.695,0.228,0.636,-9.835,-2.712,2.695
48144440,-0.653,0.28,0.63,-3.272,0.017,3.045
48144460,-0.734,0.271,0.634,-4.917,4.217,4.322
48144460,-0.712,0.268,0.642,-5.477,4.585,2.292
48144480,-0.724,0.271,0.625,-3.57,4.795,0.91
48144480,-0.721,0.277,0.623,-0.402,3.85,-0.7
48144500,-0.757,0.299,0.626,2.17,2.572,-1.102
48144500,-0.765,0.301,0.63,2.187,-0.332,-1.802
48144510,-0.763,0.281,0.619,1.68,-3.937,-2.485
48144520,-0.743,0.27,0.612,3.185,-7.175,-2.66
48144530,-0.746,0.264,0.606,5.355,-9.345,-2.135
48144540,-0.769,0.243,0.589,7.472,-12.862,-2.31
48144550,-0.762,0.248,0.584,13.492,-22.907,-5.635
48144560,-0.69,0.376,0.692,18.882,-26.967,-8.61
48144570,-0.724,0.296,0.673,10.622,-23.275,-8.225
48144580,-0.661,0.288,0.651,8.54,-20.755,-6.317
48144590,-0.692,0.298,0.655,6.772,-16.17,-4.672
48144600,-0.68,0.257,0.641,5.32,-13.912,-3.902
48144610,-0.701,0.279,0.643,6.3,-10.92,-1.627
48144620,-0.707,0.282,0.637,5.652,-10.482,-1.557
48144630,-0.723,0.297,0.639,4.637,-9.502,0.28
48144640,-0.704,0.301,0.641,2.905,-9.59,1.872
48144650,-0.687,0.298,0.658,1.942,-8.19,2.642
48144660,-0.668,0.286,0.68,2.24,-6.632,2.835
48144670,-0.629,0.244,0.693,3.657,-3.325,2.292
48144680,-0.608,0.264,0.647,6.475,4.077,3.062
48144690,-0.694,0.32,0.614,4.462,8.61,6.597
48144700,-0.738,0.314,0.629,1.872,7.332,5.897
48144710,-0.736,0.329,0.632,0.892,5.565,4.252
48144720,-0.715,0.318,0.625,-1.68,2.852,4.042
48144730,-0.699,0.308,0.645,-4.375,2.73,4.13
48144740,-0.666,0.304,0.647,-7.752,3.605,3.43
48144750,-0.676,0.319,0.648,-10.01,7.875,3.29
48144760,-0.696,0.312,0.638,-12.512,11.042,3.36
48144760,-0.696,0.31,0.622,-13.107,12.915,2.642
48144780,-0.757,0.292,0.612,-12.88,11.41,1.68
48144780,-0.723,0.3,0.628,-9.555,6.475,-0.157
48144800,-0.732,0.331,0.629,-7.927,5.372,-0.402
48144800,-0.729,0.281,0.62,-9.327,2.887,-2.31
48144820,-0.694,0.308,0.627,-7.21,2.362,-3.587
48144820,-0.768,0.305,0.606,-8.365,2.222,-3.517
48144830,-0.778,0.276,0.602,-6.685,-2.887,-5.372
48144840,-0.82,0.306,0.613,-2.695,-9.712,-5.67
48144850,-0.786,0.284,0.665,-1.487,-16.205,-6.737
48144860,-0.725,0.252,0.635,-0.087,-18.725,-8.102
48144870,-0.714,0.264,0.645,1.697,-20.177,-7.297
48144880,-0.751,0.226,0.62,3.342,-23.03,-9.747
48144890,-0.687,0.264,0.659,9.572,-28.647,-12.757
48144900,-0.658,0.263,0.69,11.69,-24.92,-13.37
48144910,-0.691,0.217,0.646,11.025,-18.322,-10.78
48144920,-0.682,0.237,0.635,13.335,-17.132,-7.735
48144930,-0.749,0.238,0.644,15.26,-18.515,-5.442
48144940,-0.643,0.299,0.652,16.782,-19.32,-4.777
48144950,-0.768,0.289,0.639,12.32,-15.697,0.315
48144960,-0.681,0.283,0.645,9.8,-16.537,1.12
48144970,-0.688,0.294,0.648,9.677,-14.455,2.415
48144980,-0.634,0.304,0.655,9.905,-11.865,1.19
48144990,-0.666,0.327,0.673,8.067,-6.44,2.397
48145000,-0.665,0.318,0.669,4.095,-3.29,2.712
48145010,-0.653,0.315,0.688,1.592,-0.297,2.992
48145020,-0.646,0.293,0.681,0.122,2.992,3.15
48145030,-0.641,0.306,0.664,-0.805,7.735,4.497
48145040,-0.674,0.298,0.645,-3.115,10.605,5.635
48145050,-0.685,0.311,0.651,-4.13,10.832,4.812
48145060,-0.686,0.309,0.661,-5.617,11.427,3.605
48145070,-0.699,0.288,0.649,-8.767,13.3,4.165
48145080,-0.709,0.298,0.652,-12.355,14.962,6.142
48145090,-0.695,0.304,0.63,-15.05,15.295,6.597
48145100,-0.698,0.345,0.648,-16.257,18.76,7.175
48145110,-0.765,0.271,0.621,-20.982,18.83,5.547
48145120,-0.683,0.296,0.64,-16.992,13.212,1.522
48145130,-0.701,0.339,0.652,-15.4,14.49,0.665
48145140,-0.721,0.296,0.628,-18.672,16.117,0.49
48145150,-0.788,0.246,0.616,-17.342,13.422,0.577
48145160,-0.718,0.269,0.64,-10.727,5.932,-2.502
48145170,-0.751,0.274,0.626,-7.105,4.322,-2.275
48145170,-0.763,0.232,0.61,-4.812,0.735,-2.957
48145190,-0.724,0.235,0.611,0.262,-2.467,-3.22
48145190,-0.771,0.237,0.608,3.255,-4.235,-2.537
48145210,-0.776,0.234,0.61,5.705,-7.787,-1.47
48145210,-0.788,0.256,0.605,7.875,-12.425,0.035
48145230,-0.78,0.251,0.56,10.132,-17.202,0.227
48145230,-0.78,0.317,0.578,15.487,-28.63,-2.677
48145250,-0.721,0.336,0.692,18.095,-36.19,-8.015
48145250,-0.685,0.285,0.691,17.552,-33.775,-12.127
48145260,-0.65,0.276,0.66,19.215,-31.447,-12.215
48145270,-0.654,0.288,0.679,20.685,-28.052,-13.002
48145280,-0.687,0.286,0.669,18.935,-23.38,-10.902
48145290,-0.7,0.283,0.654,16.52,-22.032,-8.575
48145300,-0.669,0.296,0.653,14.21,-19.442,-7
48145310,-0.672,0.299,0.637,8.925,-13.142,-1.837
48145320,-0.711,0.283,0.645,3.5,-9.03,3.5
48145330,-0.663,0.267,0.668,1.435,-7.787,4.392
48145340,-0.649,0.27,0.696,2.38,-4.935,4.34
48145350,-0.599,0.26,0.691,3.377,0.612,4.97
48145360,-0.623,0.301,0.671,3.062,6.002,7.752
48145370,-0.666,0.302,0.658,0.297,10.395,8.802
48145380,-0.671,0.333,0.659,-1.05,12.565,8.225
48145390,-0.709,0.319,0.64,-4.025,14.752,8.645
48145400,-0.692,0.313,0.637,-5.512,13.842,8.382
48145410,-0.714,0.301,0.648,-7.315,14.105,8.925
48145420,-0.654,0.314,0.653,-9.66,14.297,8.225
48145430,-0.708,0.295,0.634,-13.177,17.325,9.38
48145440,-0.656,0.292,0.627,-12.565,17.027,7.91
48145450,-0.72,0.347,0.633,-12.092,19.862,7.595
48145460,-0.836,0.296,0.624,-15.435,16.555,5.285
48145470,-0.737,0.293,0.627,-11.655,7.752,0.63
48145480,-0.755,0.367,0.599,-9.677,6.055,1.54
48145490,-0.841,0.269,0.609,-14.122,-0.21,1.697
48145500,-0.704,0.278,0.64,-8.645,-7.542,-2.362
48145510,-0.72,0.27,0.63,-6.212,-8.312,-3.132
48145510,-0.697,0.204,0.646,-3.045,-9.625,-5.565
48145530,-0.715,0.252,0.619,2.887,-7.647,-4.812
48145530,-0.756,0.292,0.635,4.112,-10.132,-3.482
48145550,-0.778,0.27,0.655,3.027,-13.02,-4.69
48145550,-0.746,0.263,0.61,5.32,-16.52,-5.74
48145570,-0.739,0.293,0.62,10.167,-22.855,-8.435
48145570,-0.706,0.294,0.666,14.367,-25.672,-12.757
48145580,-0.702,0.284,0.66,15.802,-24.325,-13.335
48145590,-0.677,0.29,0.651,16.31,-24.255,-12.95
48145600,-0.662,0.326,0.669,13.545,-18.305,-9.152
48145610,-0.721,0.26,0.643,7.28,-14.717,-5.197
48145620,-0.587,0.274,0.65,8.907,-12.95,-5.565
48145630,-0.653,0.307,0.668,8.295,-5.547,-4.375
48145640,-0.656,0.281,0.665,4.882,-0.962,-2.73
48145650,-0.675,0.291,0.68,3.272,1.715,-1.452
48145660,-0.637,0.292,0.657,1.925,4.06,-0.612
48145670,-0.674,0.3,0.66,0.49,7.245,0.437
48145680,-0.652,0.291,0.668,0.787,9.975,-0.647
48145690,-0.656,0.304,0.671,0.91,14.07,-1.487
48145700,-0.636,0.285,0.675,0.297,19.372,-2.327
48145710,-0.612,0.28,0.687,0.175,28.227,-2.905
48145720,-0.648,0.251,0.668,-1.767,40.442,-1.592
48145730,-0.688,0.237,0.632,-1.925,47.512,0.297
48145740,-0.681,0.293,0.647,1.627,49.91,-0.052
48145750,-0.722,0.308,0.654,1.33,56.91,0.822
48145760,-0.749,0.294,0.647,0.595,62.965,0.857
48145770,-0.743,0.277,0.635,2.275,67.357,0.455
48145780,-0.68,0.248,0.651,8.277,74.48,-0.577
48145790,-0.66,0.313,0.648,17.325,85.995,-2.625
48145800,-0.714,0.353,0.625,19.355,96.337,-9.905
48145810,-0.774,0.359,0.608,16.17,103.967,-15.925
48145820,-0.808,0.373,0.573,10.412,107.957,-19.6
48145830,-0.858,0.405,0.567,4.917,110.757,-23.607
48145840,-0.949,0.431,0.55,-3.36,110.075,-30.642
48145850,-1.034,0.455,0.544,-16.205,102.707,-39.917
48145860,-1.027,0.452,0.528,-31.99,88.882,-52.937
48145870,-1.089,0.426,0.535,-46.147,76.282,-60.83
48145880,-1.194,0.435,0.565,-65.257,56.77,-67.585
48145890,-1.155,0.4,0.542,-86.957,31.657,-74.392
48145900,-1.171,0.332,0.494,-103.897,5.95,-81.252
48145910,-1.19,0.255,0.462,-112.07,-20.527,-87.29
48145920,-1.136,0.197,0.432,-114.432,-47.355,-90.65
48145920,-1.088,0.156,0.393,-110.792,-70.595,-92.995
48145940,-1.061,0.092,0.368,-100.975,-92.277,-92.662
48145940,-0.999,0.08,0.373,-86.747,-109.55,-90.545
48145950,-0.895,0.085,0.402,-72.117,-119.455,-86.94
48145960,-0.874,0.069,0.429,-63.175,-116.935,-80.57
48145970,-0.847,0.051,0.457,-59.15,-104.965,-74.2
48145980,-0.816,0.032,0.477,-59.325,-87.447,-69.457
48145990,-0.816,-0.008,0.485,-63.595,-67.06,-67.935
48146000,-0.873,-0.033,0.52,-65.835,-49.647,-64.505
48146010,-0.872,-0.032,0.509,-75.005,-41.177,-66.71
48146020,-0.883,-0.116,0.499,-76.3,-39.375,-69.65
48146030,-0.908,-0.094,0.53,-70.735,-45.22,-68.057
48146040,-0.957,-0.098,0.53,-67.55,-60.725,-65.45
48146050,-0.867,-0.083,0.533,-67.06,-80.062,-65.887
48146060,-0.84,-0.078,0.545,-64.4,-95.9,-65.572
48146070,-0.714,-0.108,0.543,-63.122,-106.54,-59.36
48146080,-0.606,-0.123,0.563,-62.895,-107.695,-56.577
48146090,-0.561,-0.123,0.587,-62.44,-98.665,-55.212
48146100,-0.505,-0.123,0.614,-64.855,-82.11,-60.917
48146110,-0.488,-0.158,0.631,-68.53,-62.597,-64.19
48146120,-0.51,-0.132,0.662,-70.227,-46.27,-66.552
48146130,-0.559,-0.148,0.672,-77.612,-36.697,-66.412
48146140,-0.602,-0.181,0.66,-83.457,-37.327,-61.897
48146150,-0.615,-0.245,0.647,-82.932,-42.612,-54.495
48146160,-0.594,-0.289,0.635,-74.935,-48.895,-47.162
48146170,-0.584,-0.312,0.633,-62.317,-52.552,-40.11
48146180,-0.579,-0.348,0.634,-47.04,-55.545,-33.74
48146190,-0.525,-0.356,0.653,-29.907,-54.127,-26.425
48146200,-0.481,-0.354,0.675,-15.33,-47.46,-18.795
48146210,-0.473,-0.344,0.708,-5.355,-35.017,-11.2
48146220,-0.484,-0.339,0.731,-3.43,-21.035,-6.177
48146230,-0.523,-0.343,0.746,-4.987,-7.472,-3.01
48146240,-0.57,-0.326,0.764,-8.995,1.207,-1.207
48146250,-0.594,-0.334,0.756,-15.907,4.672,-0.087
48146260,-0.598,-0.369,0.745,-18.305,5.425,3.062
48146260,-0.601,-0.373,0.737,-16.152,6.842,6.405
48146280,-0.599,-0.378,0.727,-10.71,8.295,7.735
48146280,-0.601,-0.37,0.725,-1.33,10.272,10.465
48146300,-0.6,-0.342,0.726,8.015,11.41,13.475
48146300,-0.598,-0.313,0.728,15.33,13.125,15.54
48146320,-0.604,-0.281,0.731,17.395,14.945,16.87
48146320,-0.6,-0.259,0.73,15.697,17.78,16.52
48146330,-0.615,-0.252,0.719,11.112,20.09,16.467
48146340,-0.534,-0.233,0.686,7.14,24.22,17.482
48146350,-0.395,-0.198,0.672,2.765,38.237,16.8
48146360,-0.514,-0.178,0.661,-5.6,56.122,16.222
48146370,-0.633,-0.188,0.644,-12.88,62.965,17.552
48146380,-0.682,-0.215,0.621,-16.397,57.067,20.632
48146390,-0.698,-0.244,0.604,-13.737,47.092,22.067
48146400,-0.725,-0.254,0.603,-6.597,36.995,21.035
48146410,-0.759,-0.246,0.619,0.787,26.197,15.732
48146420,-0.804,-0.25,0.638,6.23,12.862,8.82
48146430,-0.81,-0.228,0.661,9.782,-4.952,3.675
48146440,-0.694,-0.231,0.662,11.287,-17.692,0.035
48146450,-0.639,-0.22,0.666,11.235,-18.007,-2.327
48146460,-0.656,-0.203,0.671,10.937,-11.41,-0.892
48146470,-0.672,-0.193,0.668,9.117,-3.937,2.87
48146480,-0.684,-0.188,0.663,7.105,2.415,7.052
48146490,-0.713,-0.187,0.655,4.077,8.015,10.535
48146500,-0.737,-0.194,0.65,-0.42,11.62,11.882
48146510,-0.762,-0.203,0.643,-4.077,13.737,12.985
48146520,-0.781,-0.207,0.639,-5.845,13.195,13.422
48146530,-0.769,-0.21,0.638,-6.16,11.795,13.842
48146540,-0.744,-0.202,0.641,-5.512,10.745,15.067
48146550,-0.729,-0.19,0.656,-5.985,11.935,18.34
48146560,-0.698,-0.198,0.664,-9.975,13.895,21.77
48146570,-0.678,-0.222,0.669,-12.18,19.547,25.305
48146580,-0.671,-0.238,0.68,-11.252,27.44,28.927
48146590,-0.71,-0.245,0.7,-6.667,36.96,32.777
48146600,-0.82,-0.243,0.713,-3.255,40.775,35.595
48146610,-0.902,-0.248,0.716,-0.857,34.335,36.102
48146620,-0.893,-0.245,0.697,0.77,19.547,33.04
48146620,-0.827,-0.235,0.683,1.102,4.55,26.88
48146640,-0.75,-0.228,0.674,-0.367,-5.197,19.285
48146640,-0.731,-0.233,0.667,-1.365,-9.852,13.282
48146660,-0.736,-0.248,0.657,0.157,-14.822,8.452
48146660,-0.705,-0.244,0.653,5.985,-18.987,5.092
48146670,-0.681,-0.227,0.65,12.495,-21.472,4.462
48146680,-0.668,-0.207,0.656,15.96,-20.457,4.76
48146690,-0.688,-0.203,0.654,15.137,-18.025,5.635
48146700,-0.71,-0.203,0.647,11.55,-15.26,6.492
48146710,-0.73,-0.216,0.641,7.437,-13.3,6.965
48146720,-0.735,-0.228,0.635,5.127,-11.427,7.245
48146730,-0.737,-0.229,0.633,5.162,-9.38,7.542
48146740,-0.734,-0.224,0.628,5.407,-6.772,7.367
48146750,-0.726,-0.214,0.625,5.407,-4.13,6.912
48146760,-0.714,-0.205,0.628,5.022,-0.647,7.07
48146770,-0.715,-0.196,0.63,3.71,3.622,7.437
48146780,-0.725,-0.19,0.627,0.997,6.737,7.297
48146790,-0.728,-0.188,0.623,-2.222,8.225,6.86
48146800,-0.724,-0.188,0.619,-5.11,8.61,6.492
48146810,-0.715,-0.196,0.612,-7.297,8.82,6.212
48146820,-0.694,-0.203,0.605,-7.56,10.167,6.177
48146830,-0.684,-0.2,0.605,-6.352,13.597,6.65
48146840,-0.696,-0.192,0.605,-5.372,16.87,7.14
48146850,-0.712,-0.188,0.611,-4.392,18.935,7.822
48146860,-0.73,-0.18,0.619,-3.972,17.955,7.892
48146870,-0.741,-0.174,0.624,-4.567,14.875,7.245
48146880,-0.734,-0.18,0.629,-4.812,11.042,6.702
48146890,-0.733,-0.198,0.63,-3.762,8.732,6.912
48146900,-0.744,-0.204,0.633,-0.472,8.26,7.367
48146910,-0.758,-0.201,0.635,3.797,9.205,8.242
48146920,-0.772,-0.198,0.634,6.877,9.712,8.837
48146930,-0.776,-0.191,0.637,8.085,11.13,8.487
48146940,-0.788,-0.188,0.632,7.507,11.795,7.35
48146950,-0.797,-0.184,0.627,5.565,11.917,5.757
48146960,-0.783,-0.182,0.618,3.325,10.78,4.602
48146970,-0.777,-0.187,0.609,1.33,10.5,4.69
48146980,-0.775,-0.19,0.601,0.227,10.202,4.952
48146990,-0.78,-0.19,0.59,-0.087,10.395,5.617
48147000,-0.785,-0.187,0.585,0.227,9.327,6.16
48147010,-0.794,-0.184,0.583,0.595,8.312,6.597
48147010,-0.804,-0.186,0.581,0.822,6.212,6.37
48147030,-0.811,-0.186,0.584,0.892,4.305,5.39
48147030,-0.811,-0.188,0.589,0.647,1.522,3.955
48147050,-0.808,-0.194,0.591,0.21,-0.735,2.45
48147050,-0.796,-0.195,0.591,-0.07,-2.922,0.945
48147070,-0.785,-0.2,0.59,-0.035,-3.78,0.42
48147070,-0.78,-0.205,0.588,0.595,-4.427,0.42
48147080,-0.784,-0.206,0.589,1.47,-4.305,0.7
48147090,-0.783,-0.209,0.587,2.38,-5.127,1.225
48147100,-0.779,-0.215,0.584,3.202,-6.177,2.712
48147110,-0.761,-0.211,0.585,4.375,-7.262,5.145
48147120,-0.763,-0.211,0.577,5.95,-7.665,9.24
48147130,-0.752,-0.223,0.573,7.175,-8.505,14.612
48147140,-0.702,-0.237,0.542,8.312,-6.842,22.312
48147150,-0.638,-0.199,0.549,14.437,2.45,29.365
48147160,-0.679,-0.172,0.56,19.477,12.127,34.247
48147170,-0.715,-0.217,0.54,17.045,19.11,39.41
48147180,-0.708,-0.232,0.526,16.45,22.312,44.905
48147190,-0.721,-0.235,0.514,19.232,22.942,50.96
48147200,-0.74,-0.254,0.501,24.675,21.63,55.23
48147210,-0.694,-0.279,0.479,32.742,21.787,56.472
48147220,-0.695,-0.279,0.483,45.36,25.777,55.685
48147230,-0.712,-0.235,0.48,58.677,26.985,51.905
48147240,-0.701,-0.237,0.45,67.48,27.457,51.765
48147250,-0.794,-0.288,0.44,78.627,22.89,59.412
48147260,-0.699,-0.267,0.399,87.482,11.742,63
48147270,-0.548,-0.164,0.37,94.92,16.17,64.767
48147280,-0.551,-0.109,0.372,98.42,27.86,70.735
48147290,-0.689,-0.039,0.411,95.217,42.525,73.832
48147300,-0.815,0.042,0.445,88.217,45.92,71.505
48147310,-0.849,0.06,0.47,79.782,41.527,67.952
48147320,-0.87,0.101,0.528,71.925,33.687,57.89
48147330,-0.947,0.117,0.564,63.997,23.712,45.692
48147330,-0.943,0.12,0.605,62.16,8.592,44.835
48147350,-0.931,0.118,0.621,60.287,-5.145,39.462
48147350,-0.899,0.137,0.632,60.007,-14.997,31.832
48147370,-0.848,0.173,0.619,59.727,-16.555,26.477
48147370,-0.804,0.213,0.585,58.59,-11.27,23.992
48147390,-0.811,0.321,0.592,60.287,1.05,27.195
48147390,-1.056,0.287,0.636,72.152,17.622,36.312
48147410,-1.074,0.32,0.679,81.445,37.52,46.2
48147410,-1.18,0.418,0.759,83.982,55.93,46.83
