time[ms],accX[g],accY[g],accZ[g],Value 1,Value 2,Value 3
47933140,-0.785,0.292,0.665,25.427,-44.047,-18.392
47933150,-0.765,0.32,0.71,16.765,-35.962,-16.572
47933160,-0.728,0.221,0.699,1.925,-23.257,-13.3
47933170,-0.695,0.162,0.678,-6.247,-14.437,-7.21
47933180,-0.605,0.155,0.647,-9.345,-8.365,-0.56
47933190,-0.622,0.183,0.643,-8.54,2.835,5.722
47933200,-0.67,0.241,0.652,-10.57,12.775,13.492
47933210,-0.666,0.25,0.71,-15.96,22.715,19.18
47933220,-0.663,0.284,0.719,-19.792,39.217,22.102
47933230,-0.765,0.314,0.693,-28.35,55.16,23.66
47933240,-0.821,0.244,0.602,-39.97,51.695,22.137
47933250,-0.801,0.169,0.49,-37.712,41.177,21.962
47933260,-0.793,0.213,0.417,-24.062,30.922,20.527
47933260,-0.869,0.19,0.384,-11.69,25.445,15.645
47933280,-0.906,0.268,0.453,5.425,14.052,8.872
47933280,-0.915,0.268,0.462,12.022,-1.102,4.34
47933300,-0.902,0.263,0.551,13.23,-14.367,0.332
47933300,-0.912,0.244,0.591,10.43,-19.967,-1.732
47933320,-0.883,0.209,0.527,8.802,-26.302,-5.057
47933320,-0.806,0.226,0.471,12.6,-38.29,-9.292
47933330,-0.855,0.226,0.491,21.42,-54.757,-12.915
47933340,-0.831,0.307,0.574,32.165,-66.412,-19.932
47933350,-0.75,0.335,0.647,31.745,-70.367,-28.192
47933360,-0.73,0.292,0.666,23.607,-59.587,-27.65
47933370,-0.681,0.27,0.69,14.227,-43.12,-20.352
47933380,-0.727,0.192,0.682,-0.017,-29.697,-10.727
47933390,-0.618,0.168,0.696,-4.497,-26.32,-5.232
47933400,-0.581,0.187,0.685,-4.742,-15.225,-0.157
47933410,-0.642,0.244,0.679,-3.272,-1.102,3.097
47933420,-0.662,0.288,0.656,-6.667,8.995,6.772
47933430,-0.7,0.304,0.641,-13.317,17.535,9.66
47933440,-0.63,0.27,0.672,-18.742,24.115,11.077
47933450,-0.674,0.249,0.681,-19.705,39.147,14.665
47933460,-0.724,0.264,0.63,-21.84,51.922,16.87
47933470,-0.852,0.21,0.55,-26.652,50.662,16.45
47933480,-0.87,0.194,0.51,-21.437,41.702,15.382
47933490,-0.883,0.221,0.487,-13.107,29.452,12.67
47933500,-0.903,0.26,0.501,-6.195,18.83,7.525
47933510,-0.944,0.227,0.492,-4.095,5.215,2.257
47933520,-0.865,0.213,0.497,1.19,-12.197,-2.257
47933530,-0.858,0.209,0.537,7.507,-23.31,-5.11
47933540,-0.863,0.204,0.564,10.535,-31.675,-6.72
47933550,-0.883,0.232,0.514,12.232,-41.387,-8.452
47933560,-0.841,0.26,0.511,16.765,-58.905,-14.805
47933570,-0.789,0.323,0.585,22.102,-69.615,-21.56
47933580,-0.778,0.367,0.659,18.637,-72.17,-26.425
47933590,-0.672,0.345,0.706,5.075,-71.295,-29.312
47933600,-0.626,0.183,0.717,-8.085,-52.78,-21.577
47933610,-0.62,0.153,0.697,-6.16,-26.425,-11.865
47933620,-0.637,0.213,0.703,-3.237,-16.152,-7.875
47933630,-0.624,0.177,0.673,-4.637,-12.792,-5.547
47933640,-0.644,0.187,0.654,-4.182,-10.08,-1.12
47933650,-0.68,0.203,0.632,-3.92,-4.392,1.75
47933660,-0.742,0.213,0.627,-3.902,-2.152,3.132
47933670,-0.78,0.217,0.63,-4.165,-4.497,4.48
47933670,-0.813,0.23,0.63,-3.08,-9.642,4.865
47933690,-0.821,0.253,0.633,-2.24,-15.015,2.66
47933690,-0.8,0.263,0.638,-2.607,-20.685,-1.295
47933700,-0.772,0.251,0.646,-4.48,-25.305,-3.062
47933710,-0.732,0.255,0.632,-5.687,-27.667,-4.34
47933720,-0.691,0.27,0.628,-6.562,-28.42,-6.947
47933730,-0.673,0.218,0.607,-8.172,-28.192,-7.577
47933740,-0.74,0.212,0.667,-2.8,-23.835,-7.595
47933750,-0.731,0.243,0.662,-0.105,-23.222,-9.012
47933760,-0.757,0.22,0.667,-0.367,-24.937,-11.27
47933770,-0.771,0.188,0.645,0.297,-28.507,-11.655
47933780,-0.74,0.205,0.641,6.055,-30.73,-12.372
47933790,-0.759,0.184,0.628,9.555,-31.605,-12.687
47933800,-0.73,0.192,0.637,14.542,-31.727,-12.67
47933810,-0.726,0.184,0.66,17.885,-31.92,-12.267
47933820,-0.7,0.195,0.681,18.935,-32.375,-10.272
47933830,-0.66,0.196,0.716,17.762,-32.567,-8.26
47933840,-0.603,0.195,0.742,14.14,-30.642,-5.11
47933850,-0.533,0.204,0.77,9.38,-21.595,-2.52
47933860,-0.525,0.207,0.776,3.902,-8.61,-0.945
47933870,-0.585,0.201,0.769,0.752,2.047,0.56
47933880,-0.602,0.216,0.737,-1.487,5.582,3.552
47933890,-0.593,0.219,0.699,-2.187,8.697,7.017
47933900,-0.692,0.177,0.753,-2.1,13.09,8.855
47933910,-0.615,0.189,0.711,5.39,15.61,7.332
47933920,-0.642,0.296,0.71,11.55,22.557,5.792
47933930,-0.69,0.236,0.677,6.58,26.705,4.795
47933940,-0.717,0.252,0.676,4.935,26.057,5.25
47933950,-0.742,0.23,0.644,3.552,22.47,5.302
47933960,-0.733,0.253,0.653,3.622,17.745,4.952
47933970,-0.752,0.246,0.624,0.455,13.527,4.777
47933980,-0.738,0.233,0.634,-1.575,8.54,3.85
47933990,-0.731,0.218,0.633,-1.295,5.355,3.587
47934000,-0.738,0.241,0.635,0.14,3.36,2.625
47934010,-0.744,0.23,0.632,0,0.367,1.82
47934010,-0.741,0.241,0.647,-0.805,-4.112,0.787
47934030,-0.729,0.211,0.66,-2.8,-8.417,0.105
47934030,-0.715,0.226,0.683,-3.045,-10.815,-0.42
47934050,-0.742,0.236,0.68,-4.602,-12.547,-1.575
47934050,-0.732,0.229,0.658,-5.197,-16.852,-4.427
47934070,-0.728,0.218,0.631,-4.392,-21.035,-5.495
47934070,-0.749,0.323,0.551,-3.535,-24.727,-5.337
47934080,-0.796,0.212,0.645,-11.637,-32.585,-3.955
47934090,-0.825,0.187,0.693,-11.76,-40.477,-3.22
47934100,-0.696,0.246,0.75,-7.612,-42.787,-3.587
47934110,-0.666,0.192,0.738,-10.815,-41.072,-3.832
47934120,-0.627,0.205,0.729,-10.57,-36.435,-1.977
47934130,-0.594,0.181,0.736,-8.242,-30.852,-1.872
47934140,-0.608,0.189,0.735,-3.587,-23.905,-0.857
47934150,-0.612,0.213,0.715,-0.612,-17.78,-1.33
47934160,-0.627,0.218,0.726,1.015,-11.585,-2.467
47934170,-0.638,0.244,0.74,-0.647,-4.83,-0.735
47934180,-0.647,0.239,0.73,-4.585,0.735,1.085
47934190,-0.651,0.211,0.711,-6.79,5.337,3.027
47934200,-0.635,0.215,0.702,-5.512,8.855,5.652
47934210,-0.621,0.2,0.735,-5.162,13.142,8.452
47934220,-0.597,0.194,0.749,-3.972,21.332,9.712
47934230,-0.603,0.22,0.743,-2.572,31.395,8.925
47934240,-0.647,0.202,0.696,-3.272,35.805,8.802
47934250,-0.667,0.23,0.67,-3.115,37.485,9.712
47934260,-0.735,0.205,0.631,-3.517,35,10.815
47934270,-0.751,0.237,0.617,-1.54,28.997,10.29
47934280,-0.75,0.214,0.608,-1.05,20.352,8.575
47934290,-0.757,0.238,0.619,1.225,12.915,7.525
47934300,-0.76,0.226,0.629,2.047,4.427,5.74
47934310,-0.726,0.202,0.657,4.707,-3.01,2.905
47934320,-0.728,0.212,0.696,7.21,-6.597,1.015
47934330,-0.753,0.23,0.72,6.737,-7.087,-1.487
47934340,-0.75,0.233,0.719,5.197,-9.187,-5.582
47934350,-0.78,0.289,0.615,3.045,-12.32,-9.257
47934360,-0.783,0.273,0.59,-1.242,-22.907,-12.39
47934370,-0.833,0.175,0.607,-2.1,-34.947,-13.877
47934380,-0.73,0.231,0.686,6.51,-40.11,-14.017
47934390,-0.75,0.217,0.731,4.112,-39.812,-12.075
47934390,-0.67,0.189,0.746,0.787,-37.047,-11.287
47934410,-0.605,0.184,0.758,1.242,-28.507,-8.54
47934410,-0.573,0.182,0.729,1.085,-19.267,-5.145
47934420,-0.546,0.196,0.726,0.717,-7.525,-6.09
47934430,-0.617,0.204,0.715,-0.105,2.292,-6.317
47934440,-0.63,0.239,0.709,-0.91,6.93,-1.47
47934450,-0.661,0.245,0.692,-4.935,8.995,3.937
47934460,-0.688,0.249,0.671,-8.89,10.43,7.752
47934470,-0.608,0.156,0.777,-11.392,16.502,8.732
47934480,-0.628,0.156,0.774,-3.43,26.092,7.437
47934490,-0.593,0.261,0.771,1.085,30.677,6.265
47934500,-0.656,0.183,0.684,-5.25,30.8,8.505
47934510,-0.694,0.238,0.672,-5.442,28.665,10.78
47934520,-0.705,0.236,0.641,-5.845,27.475,10.78
47934530,-0.735,0.236,0.625,-5.565,25.2,9.642
47934540,-0.735,0.227,0.606,-2.905,20.842,7.437
47934550,-0.747,0.257,0.593,0.437,15.767,5.145
47934560,-0.761,0.261,0.589,3.185,7.105,1.96
47934570,-0.696,0.235,0.625,7.507,-2.345,-1.33
47934580,-0.717,0.226,0.671,10.797,-4.27,-2.957
47934590,-0.756,0.22,0.699,10.412,-5.057,-3.43
47934600,-0.746,0.213,0.699,9.975,-8.522,-5.005
47934610,-0.765,0.253,0.579,8.592,-12.145,-6.475
47934620,-0.789,0.288,0.531,3.99,-21.262,-8.435
47934630,-0.881,0.15,0.576,0.332,-34.79,-10.15
47934640,-0.786,0.218,0.728,8.155,-41.982,-9.38
47934650,-0.791,0.227,0.781,3.167,-40.775,-6.177
47934660,-0.709,0.148,0.747,-0.227,-36.417,-7.28
47934670,-0.596,0.162,0.71,2.852,-30.765,-6.352
47934680,-0.59,0.171,0.705,4.392,-23.992,-3.762
47934690,-0.594,0.188,0.708,4.147,-19.302,-1.417
47934700,-0.613,0.184,0.711,3.062,-12.39,2.485
47934710,-0.656,0.254,0.708,3.657,-2.94,3.692
47934720,-0.678,0.284,0.681,-0.017,2.467,2.502
47934730,-0.663,0.27,0.67,-3.57,8.295,1.907
47934740,-0.681,0.19,0.773,-3.605,17.412,2.642
47934750,-0.605,0.237,0.79,4.147,26.617,0.805
47934760,-0.675,0.266,0.757,3.657,29.872,-1.697
47934760,-0.64,0.229,0.697,-3.307,24.5,0.297
47934780,-0.654,0.211,0.648,-5.075,19.215,3.762
47934780,-0.672,0.244,0.636,-2.817,19.915,4.48
47934800,-0.692,0.219,0.633,-2.432,19.022,2.835
47934800,-0.698,0.24,0.639,-0.682,17.01,2.117
47934820,-0.716,0.242,0.617,-0.227,12.442,1.767
47934820,-0.684,0.227,0.626,2.397,5.512,0.822
47934830,-0.709,0.234,0.677,4.462,3.762,-0.612
47934840,-0.757,0.229,0.703,3.867,4.48,-2.87
47934850,-0.789,0.24,0.7,3.22,2.345,-5.582
47934860,-0.797,0.268,0.59,0.805,-2.94,-8.12
47934870,-0.817,0.295,0.511,-3.727,-10.972,-9.817
47934880,-0.904,0.147,0.52,-6.282,-27.02,-12.46
47934890,-0.848,0.242,0.641,3.255,-41.125,-14.315
47934900,-0.855,0.241,0.699,0.455,-50.645,-15.155
47934910,-0.765,0.203,0.743,-3.132,-52.71,-15.347
47934920,-0.599,0.147,0.736,-2.082,-43.942,-14.42
47934930,-0.598,0.175,0.73,4.83,-25.742,-13.527
47934940,-0.611,0.19,0.726,6.037,-17.097,-14
47934950,-0.621,0.135,0.694,3.395,-14.787,-10.255
47934960,-0.647,0.146,0.672,4.357,-14.752,-4.095
47934970,-0.674,0.161,0.679,4.497,-15.26,1.68
47934980,-0.689,0.183,0.693,3.027,-17.395,6.16
47934990,-0.686,0.213,0.707,0.77,-17.167,8.137
47935000,-0.7,0.246,0.723,-2.1,-16.047,8.085
47935010,-0.683,0.259,0.728,-6.23,-16.59,8.137
47935020,-0.635,0.262,0.726,-10.325,-16.187,9.887
47935030,-0.643,0.234,0.796,-12.372,-9.835,10.85
47935040,-0.597,0.198,0.803,-7.735,-5.635,7.175
47935050,-0.514,0.285,0.779,-4.2,0.927,4.585
47935060,-0.514,0.18,0.711,-8.33,6.912,5.442
47935070,-0.502,0.192,0.681,-2.922,15.872,7.087
47935080,-0.595,0.232,0.673,1.365,22.557,8.68
47935080,-0.671,0.231,0.681,1.977,22.33,9.572
47935100,-0.727,0.251,0.682,1.89,20.457,8.68
47935100,-0.812,0.238,0.693,-0.087,16.975,7.665
47935120,-0.803,0.249,0.673,-0.822,8.925,5.092
47935120,-0.781,0.203,0.64,-2.94,0.175,3.255
47935140,-0.732,0.171,0.646,-2.065,-7.35,3.29
47935140,-0.713,0.176,0.662,-0.42,-9.8,2.642
47935160,-0.717,0.184,0.674,-0.245,-11.602,1.312
47935160,-0.728,0.18,0.661,-1.277,-15.767,1.487
47935170,-0.741,0.228,0.605,-0.595,-23.17,0.63
47935180,-0.747,0.22,0.627,-1.242,-32.952,-0.105
47935190,-0.774,0.241,0.679,-0.962,-40.827,-0.63
47935200,-0.75,0.253,0.764,-3.412,-46.375,-2.485
47935210,-0.705,0.197,0.798,-6.912,-46.182,-2.922
47935220,-0.617,0.241,0.783,-5.652,-41.457,-3.482
47935230,-0.558,0.178,0.761,-7.21,-34.825,-3.412
47935240,-0.543,0.203,0.762,-5.075,-26.477,-1.627
47935250,-0.546,0.2,0.756,-4.34,-18.882,-0.612
47935260,-0.573,0.193,0.751,-3.447,-11.427,0.647
47935270,-0.624,0.218,0.746,-2.905,-5.355,2.537
47935280,-0.662,0.225,0.732,-4.672,-1.662,3.762
47935290,-0.683,0.229,0.721,-6.422,-0.087,5.022
47935300,-0.667,0.238,0.719,-7.997,0.07,6.527
47935310,-0.66,0.249,0.731,-10.027,3.99,8.382
47935320,-0.63,0.172,0.835,-10.272,8.855,8.575
47935330,-0.555,0.126,0.778,-1.802,12.355,5.302
47935340,-0.484,0.27,0.749,4.585,18.077,1.872
47935350,-0.627,0.14,0.686,-1.592,20.195,5.127
47935360,-0.58,0.214,0.693,2.24,19.127,5.652
47935370,-0.651,0.197,0.691,3.955,21.84,4.007
47935380,-0.694,0.246,0.7,6.037,22.872,2.8
47935390,-0.724,0.23,0.692,3.71,20.055,1.697
47935400,-0.676,0.219,0.706,2.957,16.432,-0.595
47935410,-0.65,0.198,0.692,2.975,15.4,-2.292
47935420,-0.667,0.211,0.69,5.285,15.767,-2.502
47935430,-0.718,0.2,0.678,6.947,14.945,-1.89
47935440,-0.731,0.192,0.678,8.89,11.235,-1.767
47935450,-0.709,0.189,0.677,9.922,8.015,-1.995
47935460,-0.69,0.179,0.689,11.077,6.685,-2.957
47935470,-0.659,0.193,0.707,13.195,7.297,-4.655
47935480,-0.62,0.169,0.689,15.837,10.185,-6.44
47935490,-0.6,0.179,0.666,21.997,19.652,-8.89
47935500,-0.65,0.225,0.681,27.667,30.117,-11.2
47935510,-0.743,0.242,0.709,28.35,36.872,-13.982
47935510,-0.756,0.267,0.734,27.23,40.775,-17.535
47935530,-0.777,0.252,0.723,24.517,44.047,-19.932
47935530,-0.759,0.226,0.68,23.835,45.43,-21.192
47935550,-0.705,0.136,0.639,27.125,56.017,-21.402
47935550,-0.744,0.141,0.616,40.6,73.412,-23.152
47935570,-0.82,0.173,0.614,54.11,83.562,-25.777
47935570,-0.844,0.183,0.59,62.23,84.98,-27.965
47935580,-0.89,0.194,0.57,65.782,82.985,-29.96
47935590,-0.922,0.169,0.538,64.855,79.397,-35.14
47935600,-0.978,0.138,0.49,65.695,74.235,-42.892
47935610,-1.019,0.113,0.457,70.175,67.147,-52.85
47935620,-1.06,0.085,0.425,76.475,57.75,-64.487
47935630,-1.193,0.04,0.404,90.72,42.7,-69.3
47935640,-1.092,0.053,0.356,99.977,26.11,-80.605
47935650,-1.076,0.046,0.327,106.942,14.665,-94.43
47935660,-1.147,0.016,0.328,116.27,0.07,-99.767
47935670,-1.049,0.012,0.33,120.26,-19.25,-97.247
47935680,-0.908,0.074,0.349,119.385,-30.572,-91.122
47935690,-0.776,0.085,0.378,110.18,-26.565,-82.6
47935700,-0.662,0,0.411,97.317,-5.39,-72.485
47935710,-0.746,0.083,0.433,90.562,30.415,-59.57
47935720,-0.777,0.182,0.479,79.45,67.41,-51.66
47935730,-0.888,0.168,0.502,60.602,84.805,-48.282
47935740,-1.04,0.173,0.541,48.09,84.245,-37.747
47935750,-0.965,0.166,0.545,46.567,73.5,-33.162
47935760,-1.025,0.172,0.622,50.435,57.61,-23.222
47935770,-1.108,0.041,0.589,49.437,30.59,-16.8
47935780,-1.074,0.404,0.777,57.522,0.07,-37.572
47935790,-1.021,0.201,0.762,59.377,-28.857,-19.372
47935800,-0.773,0.252,0.652,46.375,-40.25,-19.057
47935810,-0.704,0.342,0.663,50.417,-38.622,-34.895
47935820,-0.663,0.355,0.638,45.307,-31.08,-45.027
47935830,-0.724,0.28,0.665,47.792,-34.492,-40.355
47935830,-0.617,0.167,0.578,45.902,-41.982,-49.682
47935850,-0.583,0.158,0.522,61.565,-37.24,-45.447
47935850,-0.487,0.152,0.475,78.295,-24.552,-39.27
47935870,-0.541,0.219,0.439,93.1,-7.63,-35.49
47935870,-0.548,0.316,0.451,105.385,5.407,-34.667
47935890,-0.557,0.304,0.415,104.685,12.67,-35.122
47935890,-0.624,0.352,0.402,103.32,18.375,-32.532
47935910,-0.689,0.402,0.405,97.702,19.652,-30.222
47935910,-0.697,0.39,0.389,85.96,17.062,-27.58
47935920,-0.754,0.394,0.339,72.677,18.585,-27.527
47935930,-0.762,0.323,0.294,64.102,21.157,-30.467
47935940,-0.821,0.297,0.26,57.102,25.305,-31.587
47935950,-0.872,0.334,0.262,53.252,29.557,-31.482
47935960,-0.895,0.356,0.272,48.212,30.485,-29.225
47935970,-0.974,0.424,0.28,36.732,31.01,-24.272
47935980,-1.026,0.375,0.27,23.835,26.652,-18.777
47935990,-1.018,0.323,0.275,19.197,21.927,-14.665
47936000,-1.05,0.335,0.297,17.552,19.407,-10.29
47936010,-1.052,0.327,0.325,17.937,16.66,-7.7
47936020,-1.069,0.334,0.36,20.405,9.992,-3.692
47936030,-1.017,0.332,0.391,24.062,-0.7,2.852
47936040,-0.924,0.336,0.384,29.4,-9.397,8.82
47936050,-0.873,0.351,0.4,33.67,-9.8,11.847
47936060,-0.801,0.315,0.393,36.242,-6.387,11.165
47936070,-0.747,0.282,0.37,39.602,1.242,8.067
47936080,-0.741,0.227,0.339,46.637,10.587,7.035
47936090,-0.785,0.225,0.333,54.652,13.055,6.772
47936100,-0.726,0.198,0.311,60.847,9.52,8.417
47936110,-0.691,0.165,0.276,68.582,13.317,8.05
47936120,-0.787,0.175,0.235,73.622,16.887,8.4
47936130,-0.772,0.177,0.219,77.105,16.345,10.325
47936140,-0.779,0.221,0.213,77.77,15.82,8.155
47936150,-0.812,0.283,0.199,71.627,18.34,4.497
47936160,-0.871,0.299,0.194,64.732,20.527,4.252
47936170,-0.877,0.285,0.211,60.69,25.147,5.005
47936180,-1.136,0.368,0.233,59.902,32.217,5.425
47936190,-1.658,0.448,0.342,53.69,23.537,9.957
47936200,-1.998,0.418,0.335,49.122,5.547,15.925
47936210,-1.639,0.325,0.164,32.077,-20.842,16.117
47936220,-0.89,0.183,0.007,26.67,-38.185,15.365
47936230,-0.627,0.233,-0.008,35.63,-29.277,19.18
47936240,-0.757,0.353,0.094,35.997,-16.625,23.905
47936250,-0.854,0.375,0.177,24.885,-16.292,21.84
47936260,-0.906,0.415,0.226,7.962,-24.885,18.427
47936260,-0.993,0.355,0.245,-6.422,-36.19,19.32
47936280,-1.065,0.322,0.274,-8.522,-49.262,21.717
47936280,-1.074,0.378,0.316,-4.445,-59.43,22.82
47936300,-0.944,0.359,0.338,-1.19,-65.59,22.207
47936300,-0.813,0.342,0.329,2.712,-60.637,20.177
47936320,-0.688,0.356,0.356,6.93,-47.162,16.52
47936320,-0.681,0.424,0.406,5.005,-29.015,12.04
47936330,-0.691,0.398,0.389,-0.735,-16.66,4.69
47936340,-0.766,0.402,0.362,-1.382,-7.577,-2.59
47936350,-0.961,0.423,0.364,1.032,-2.59,-6.23
47936360,-1.027,0.416,0.334,3.395,-8.575,-7.157
47936370,-1.041,0.357,0.27,7.665,-21.262,2.257
47936380,-1.065,0.355,0.258,9.572,-32.515,14.77
47936390,-0.987,0.317,0.253,3.832,-45.132,26.6
47936400,-0.924,0.283,0.259,-5.722,-53.952,41.475
47936410,-0.865,0.266,0.307,-15.907,-52.64,53.007
47936420,-0.856,0.307,0.404,-21.91,-46.095,61.705
47936430,-0.816,0.336,0.402,-27.23,-36.05,70.577
47936440,-0.746,0.393,0.444,-31.167,-21.21,74.637
47936450,-0.761,0.458,0.485,-36.837,-5.442,73.307
47936460,-0.775,0.4,0.462,-44.852,2.485,62.562
47936470,-0.832,0.324,0.461,-42.7,0.402,43.26
47936480,-0.736,0.336,0.454,-29.4,-9.992,20.527
47936490,-0.669,0.398,0.431,-17.15,-11.077,5.425
47936500,-0.802,0.443,0.439,-11.935,-3.5,-1.645
47936510,-0.908,0.434,0.426,-13.107,-1.785,-4.042
47936520,-0.911,0.427,0.382,-17.237,-9.957,-2.677
47936530,-0.914,0.413,0.352,-23.922,-18.672,0.052
47936540,-0.925,0.361,0.338,-28.542,-26.967,1.925
47936550,-0.911,0.349,0.358,-28.752,-34.527,3.482
47936560,-0.885,0.373,0.386,-28.647,-41.282,5.932
47936570,-0.859,0.377,0.408,-32.217,-45.762,8.207
47936580,-0.812,0.34,0.423,-33.775,-48.475,9.607
47936580,-0.767,0.359,0.465,-31.29,-46.392,9.625
47936600,-0.746,0.385,0.501,-28.717,-40.757,8.557
47936600,-0.728,0.361,0.511,-27.457,-30.765,7.525
47936620,-0.743,0.332,0.51,-23.012,-20.65,6.317
47936620,-0.75,0.334,0.499,-15.347,-12.372,5.005
47936640,-0.759,0.369,0.484,-9.24,-6.79,4.515
47936640,-0.81,0.375,0.462,-7.49,-3.377,3.692
47936660,-0.821,0.372,0.448,-7.367,-4.182,2.537
47936660,-0.862,0.396,0.456,-9.24,-6.65,3.885
47936670,-0.904,0.407,0.459,-13.212,-12.74,6.545
47936680,-0.875,0.385,0.472,-17.885,-21.997,8.89
47936690,-0.82,0.364,0.487,-19.547,-32.217,10.15
47936700,-0.765,0.358,0.495,-18.287,-38.43,8.89
47936710,-0.722,0.372,0.523,-14.822,-37.205,7.07
47936720,-0.707,0.369,0.537,-13.195,-28.682,6.16
47936730,-0.7,0.348,0.538,-11.48,-19.442,4.585
47936740,-0.73,0.365,0.529,-8.837,-11.795,4.917
47936750,-0.791,0.376,0.515,-7.507,-6.877,5.88
47936760,-0.804,0.373,0.501,-6.895,-5.565,4.497
47936770,-0.847,0.347,0.481,-5.74,-8.382,3.622
47936780,-0.853,0.353,0.473,-2.24,-15.19,4.112
47936790,-0.797,0.383,0.474,0.997,-22.662,4.742
47936800,-0.824,0.413,0.497,0.192,-28.472,4.182
47936810,-0.75,0.407,0.493,-3.482,-32.97,2.17
47936820,-0.784,0.422,0.495,-9.327,-36.942,0.49
47936830,-0.83,0.401,0.502,-14.577,-41.667,-0.822
47936840,-0.802,0.393,0.54,-17.727,-47.845,0.052
47936850,-0.754,0.385,0.554,-18.952,-48.86,0.402
47936860,-0.681,0.312,0.592,-16.957,-40.932,2.345
47936870,-0.647,0.355,0.601,-11.007,-32.252,2.625
47936880,-0.64,0.357,0.597,-9.362,-24.132,3.29
47936890,-0.669,0.357,0.571,-9.52,-17.587,2.117
47936900,-0.727,0.361,0.551,-8.575,-13.422,-0.542
47936910,-0.786,0.383,0.547,-7.91,-12.057,-1.89
47936920,-0.835,0.365,0.531,-8.435,-16.502,-1.47
47936930,-0.835,0.352,0.536,-7.385,-23.1,0.385
47936940,-0.8,0.35,0.554,-5.757,-29.575,2.747
47936950,-0.763,0.337,0.573,-4.427,-32.305,3.955
47936960,-0.724,0.321,0.578,-1.977,-33.005,3.202
47936970,-0.703,0.334,0.578,0.542,-30.852,2.012
47936980,-0.715,0.331,0.574,1.365,-28.42,1.627
47936990,-0.719,0.336,0.588,1.645,-26.372,2.205
47937000,-0.723,0.348,0.602,1.12,-25.427,3.78
47937010,-0.724,0.354,0.612,-0.192,-24.692,6.475
47937010,-0.717,0.37,0.619,-2.94,-25.865,9.922
47937030,-0.737,0.357,0.61,-6.492,-27.125,13.755
47937030,-0.707,0.349,0.599,-6.685,-28.595,15.032
47937050,-0.662,0.389,0.584,-5.442,-26.967,15.312
47937050,-0.68,0.451,0.577,-9.415,-22.032,16.415
47937070,-0.735,0.429,0.596,-18.795,-21.07,17.272
47937070,-0.667,0.448,0.618,-25.532,-23.502,19.53
47937080,-0.583,0.485,0.626,-33.705,-19.425,23.275
47937090,-0.534,0.453,0.631,-44.222,-9.852,23.24
47937100,-0.508,0.443,0.648,-50.995,4.882,20.212
47937110,-0.635,0.324,0.702,-54.355,16.047,15.925
47937120,-0.575,0.304,0.721,-45.482,24.342,12.512
47937130,-0.629,0.278,0.664,-35.35,32.095,10.22
47937140,-0.712,0.246,0.644,-26.215,34.615,5.39
47937150,-0.806,0.205,0.587,-14.98,28.245,-0.122
47937160,-0.79,0.3,0.544,-2.205,18.882,-3.115
47937170,-0.903,0.333,0.528,2.24,8.995,-2.765
47937180,-0.928,0.308,0.534,3.552,-7,-3.15
47937190,-0.849,0.32,0.559,6.072,-21.875,-2.52
47937200,-0.768,0.297,0.579,7.84,-30.747,-2.555
47937210,-0.719,0.293,0.615,11.83,-31.115,-2.922
47937220,-0.667,0.308,0.636,15.225,-29.417,-3.832
47937230,-0.637,0.308,0.635,17.762,-24.622,-3.832
47937240,-0.636,0.323,0.627,19.74,-18.935,-4.777
47937250,-0.646,0.326,0.607,22.26,-12.477,-6.492
47937260,-0.736,0.33,0.663,26.302,-9.187,-7.402
47937270,-0.849,0.237,0.71,33.39,-22.925,-7.122
47937280,-0.515,0.371,0.667,48.912,-37.992,-6.23
47937290,-0.558,0.481,0.645,49.297,-27.842,-5.18
47937300,-0.688,0.471,0.626,36.977,-16.345,-7.875
47937310,-0.729,0.404,0.603,26.81,-14.77,-9.205
47937320,-0.7,0.434,0.61,24.22,-17.167,-8.137
47937330,-0.646,0.453,0.607,19.075,-17.132,-6.737
47937330,-0.603,0.438,0.615,11.515,-12.127,-5.39
47937350,-0.679,0.409,0.673,4.287,-9.327,-2.502
47937350,-0.606,0.357,0.678,0.77,-12.075,1.365
47937370,-0.595,0.384,0.682,2.065,-6.527,3.867
47937370,-0.591,0.393,0.671,1.872,0.857,3.062
47937390,-0.576,0.398,0.66,1.05,9.45,1.137
47937390,-0.612,0.41,0.632,0.647,16.905,-0.122
47937410,-0.659,0.394,0.605,-0.157,22.242,-0.857
47937410,-0.694,0.383,0.596,-2.187,23.695,-1.312
47937420,-0.747,0.364,0.588,-5.635,20.947,0.612
47937430,-0.806,0.347,0.588,-9.17,12.442,5.442
47937440,-0.822,0.358,0.593,-12.757,2.485,8.907
47937450,-0.833,0.321,0.597,-14.892,-7.367,10.132
47937460,-0.787,0.302,0.598,-12.652,-15.872,8.487
47937470,-0.74,0.318,0.603,-7.577,-20.65,5.81
47937480,-0.667,0.377,0.596,-5.075,-19.127,2.485
47937490,-0.683,0.359,0.576,-10.885,-8.592,-3.237
47937500,-0.717,0.338,0.587,-13.422,-0.017,-13.527
47937510,-0.694,0.343,0.608,-9.747,3.92,-17.342
47937520,-0.703,0.332,0.624,-4.252,3.395,-16.17
47937530,-0.659,0.366,0.631,2.66,1.575,-14.42
47937540,-0.653,0.387,0.625,3.185,2.345,-15.102
47937550,-0.664,0.362,0.608,1.82,3.377,-17.762
47937560,-0.646,0.341,0.617,2.817,5.407,-18.9
47937570,-0.723,0.333,0.618,6.527,3.622,-17.43
47937580,-0.723,0.349,0.628,11.987,-5.547,-16.31
47937590,-0.667,0.388,0.62,16.607,-14.385,-13.282
47937600,-0.675,0.399,0.623,18.252,-16.765,-10.692
47937610,-0.69,0.393,0.628,19.495,-17.622,-7.717
47937620,-0.665,0.378,0.637,21.752,-15.085,-4.042
47937630,-0.831,0.266,0.673,25.672,-18.97,-6.947
47937640,-0.601,0.324,0.648,41.37,-32.707,-12.215
47937650,-0.487,0.446,0.669,44.8,-27.072,-14.91
47937660,-0.558,0.394,0.635,36.435,-14.77,-20.667
47937670,-0.688,0.381,0.638,31.71,-0.507,-18.987
47937680,-0.843,0.383,0.602,28.98,-3.132,-16.292
47937690,-0.784,0.394,0.578,27.615,-14.052,-14.752
47937700,-0.77,0.411,0.569,24.237,-20.44,-13.422
47937710,-0.818,0.397,0.571,18.742,-28.227,-12.827
47937720,-0.762,0.411,0.569,13.545,-38.237,-10.937
47937730,-0.727,0.412,0.578,6.825,-40.372,-7.227
47937740,-0.705,0.373,0.585,0.192,-36.907,-6.002
47937750,-0.735,0.337,0.611,-1.382,-33.477,-6.422
47937760,-0.691,0.339,0.637,0.752,-35.35,-7.052
47937760,-0.645,0.355,0.662,2.572,-35.315,-5.127
47937780,-0.624,0.358,0.674,1.19,-33.32,-4.217
47937780,-0.611,0.352,0.68,-0.77,-28.35,-5.687
47937790,-0.615,0.329,0.675,-0.577,-23.327,-6.825
47937800,-0.65,0.313,0.663,2.187,-16.957,-8.54
47937810,-0.694,0.312,0.648,5.32,-11.725,-12.705
47937820,-0.782,0.303,0.633,6.212,-7.56,-19.845
47937830,-0.789,0.289,0.593,6.44,-5.46,-30.45
47937840,-0.771,0.294,0.561,3.745,8.855,-40.46
47937850,-0.858,0.267,0.539,4.48,23.362,-54.775
47937860,-0.85,0.256,0.504,13.072,18.06,-63.857
47937870,-0.794,0.299,0.493,23.275,4.182,-63.455
47937880,-0.722,0.327,0.531,35.28,-15.575,-59.727
47937890,-0.597,0.34,0.56,46.042,-33.845,-51.45
47937900,-0.478,0.385,0.62,54.215,-41.072,-42.017
47937910,-0.458,0.418,0.69,55.317,-34.247,-34.982
47937920,-0.497,0.432,0.746,52.307,-22.995,-31.815
47937930,-0.506,0.482,0.803,47.617,-10.85,-28.332
47937940,-0.563,0.51,0.809,38.92,-0.087,-24.92
47937950,-0.616,0.481,0.769,31.465,5.897,-20.51
47937960,-0.619,0.458,0.708,26.267,7.262,-16.852
47937970,-0.591,0.435,0.653,22.522,9.24,-15.61
47937980,-0.619,0.411,0.612,20.93,11.112,-15.417
47937990,-0.642,0.396,0.594,21.28,12.11,-14.91
47938000,-0.716,0.369,0.603,23.31,8.19,-15.085
47938010,-0.73,0.36,0.632,29.015,-3.57,-17.22
47938020,-0.645,0.389,0.643,33.88,-13.982,-16.817
47938030,-0.626,0.424,0.646,33.67,-12.285,-14.122
47938040,-0.686,0.401,0.636,28.84,-7.367,-12.267
47938050,-0.725,0.393,0.63,21.56,-3.255,-10.412
47938060,-0.7,0.39,0.611,13.877,-0.787,-8.907
47938070,-0.707,0.387,0.608,4.725,6.02,-5.512
47938080,-0.737,0.361,0.599,-4.777,9.047,-2.345
47938080,-0.754,0.309,0.59,-8.96,6.405,1.12
47938100,-0.729,0.318,0.583,-7.192,0.455,4.182
47938100,-0.719,0.337,0.596,-4.34,-2.432,6.562
47938120,-0.72,0.347,0.604,-3.097,-4.34,6.037
47938120,-0.732,0.355,0.612,-2.275,-5.232,5.88
47938140,-0.724,0.38,0.612,-1.785,-6.615,5.11
47938140,-0.707,0.386,0.615,-2.047,-6.632,5.267
47938160,-0.691,0.39,0.614,-3.552,-7.455,5.46
47938160,-0.674,0.391,0.618,-6.3,-7.717,6.072
47938170,-0.661,0.381,0.622,-9.432,-7.927,7.227
47938180,-0.642,0.364,0.624,-11.48,-6.772,9.642
47938190,-0.618,0.356,0.61,-11.567,-3.832,12.67
47938200,-0.568,0.386,0.597,-11.392,5.95,15.995
47938210,-0.619,0.408,0.612,-14.98,20.807,18.76
47938220,-0.681,0.403,0.619,-22.12,31.045,21.122
47938230,-0.732,0.343,0.612,-27.807,32.602,23.835
47938240,-0.782,0.296,0.594,-25.795,28.052,24.167
47938250,-0.792,0.286,0.595,-16.537,20.072,20.212
47938260,-0.776,0.311,0.586,-4.69,11.567,13.72
47938270,-0.754,0.363,0.59,5.547,4.637,7.087
47938280,-0.701,0.415,0.593,10.57,0.717,3.482
47938290,-0.725,0.431,0.597,9.222,0.315,2.222
47938300,-0.777,0.379,0.578,6.895,-1.942,-0.945
47938310,-0.801,0.361,0.568,10.272,-5.757,-6.177
47938320,-0.793,0.392,0.579,16.852,-10.115,-11.795
47938330,-0.843,0.377,0.601,19.862,-16.485,-15.942
47938340,-0.789,0.298,0.597,24.955,-33.075,-20.335
47938350,-0.642,0.377,0.599,33.845,-40.74,-19.057
47938360,-0.609,0.421,0.604,34.44,-38.867,-16.695
47938370,-0.634,0.39,0.597,27.527,-31.132,-14.717
47938380,-0.564,0.356,0.604,23.747,-26.827,-11.865
47938390,-0.747,0.425,0.613,19.775,-18.025,-3.412
47938400,-0.642,0.45,0.62,12.862,-23.31,-4.235
47938410,-0.529,0.354,0.651,5.95,-13.562,-6.422
47938420,-0.705,0.428,0.693,5.04,5.25,-0.542
47938430,-0.588,0.412,0.645,-4.865,10.465,5.022
47938440,-0.6,0.37,0.627,-10.132,16.187,8.89
47938450,-0.647,0.368,0.626,-11.655,22.277,12.477
47938460,-0.645,0.364,0.616,-12.81,24.36,15.382
47938460,-0.634,0.373,0.622,-12.32,27.65,15.662
47938480,-0.614,0.371,0.588,-12.32,35.175,13.265
47938480,-0.638,0.432,0.583,-12.53,49.035,10.692
47938500,-0.745,0.416,0.589,-16.957,56.63,8.365
47938500,-0.791,0.345,0.552,-18.147,54.582,6.527
47938510,-0.832,0.378,0.533,-13.422,48.247,6.842
47938520,-0.898,0.374,0.524,-10.22,36.4,5.197
47938530,-0.876,0.376,0.513,-6.51,21.122,2.712
47938540,-0.833,0.414,0.532,-4.287,9.485,2.625
47938550,-0.769,0.39,0.539,-4.882,1.837,1.68
47938560,-0.74,0.36,0.551,-4.235,-1.715,1.137
47938570,-0.703,0.353,0.579,-1.907,-1.96,0.315
47938580,-0.663,0.336,0.59,0.997,1.89,-0.262
47938590,-0.664,0.336,0.588,4.742,8.312,0.647
47938600,-0.666,0.347,0.593,7.647,15.26,1.452
47938610,-0.679,0.358,0.584,10.185,20.807,1.382
47938620,-0.695,0.376,0.577,11.06,25.112,1.032
47938630,-0.719,0.376,0.568,13.09,29.575,1.102
47938640,-0.737,0.388,0.548,14.087,31.972,-0.84
47938650,-0.765,0.371,0.543,14.577,33.127,-1.68
47938660,-0.771,0.375,0.539,16.415,33.337,-1.242
47938670,-0.775,0.397,0.519,18.427,34.247,0.052
47938680,-0.786,0.418,0.505,18.025,33.11,0.787
47938690,-0.79,0.429,0.49,13.877,30.03,0.577
47938700,-0.808,0.441,0.475,8.89,25.025,0.14
47938710,-0.798,0.452,0.476,5.775,21.857,-1.505
47938720,-0.833,0.417,0.47,-0.262,15.837,-2.222
47938730,-0.824,0.412,0.475,-5.495,8.802,-1.942
47938740,-0.828,0.412,0.479,-8.452,1.697,-2.1
47938750,-0.804,0.392,0.478,-10.92,-3.202,-1.907
47938760,-0.806,0.398,0.488,-10.325,-6.422,-2.555
47938770,-0.813,0.382,0.488,-11.392,-9.432,-2.765
47938780,-0.783,0.367,0.5,-10.71,-12.53,-3.132
47938790,-0.772,0.367,0.506,-7.42,-12.932,-3.535
47938800,-0.757,0.353,0.515,-3.552,-12.547,-3.675
47938810,-0.752,0.357,0.525,0.665,-10.027,-3.5
47938820,-0.739,0.365,0.563,4.007,-7.63,-3.237
47938830,-0.662,0.384,0.564,4.707,-1.89,-2.502
47938830,-0.69,0.387,0.541,6.23,5.32,-1.172
47938850,-0.699,0.394,0.56,6.492,15.242,-1.382
47938850,-0.697,0.387,0.522,5.915,24.902,-1.137
47938870,-0.75,0.394,0.515,5.215,33.932,-1.82
47938870,-0.793,0.397,0.512,3.517,38.482,-2.87
47938890,-0.794,0.39,0.491,1.067,38.272,-2.94
47938890,-0.792,0.386,0.482,-0.735,36.032,-3.395
47938910,-0.83,0.402,0.485,-2.45,31.92,-4.112
47938910,-0.822,0.39,0.491,-4.672,26.075,-5.477
47938920,-0.785,0.383,0.486,-6.3,22.54,-6.807
47938930,-0.778,0.383,0.492,-6.597,24.01,-7.595
47938940,-0.775,0.386,0.497,-7,28.507,-7.875
47938950,-0.755,0.365,0.472,-8.032,34.142,-6.72
47938960,-0.754,0.346,0.447,-6.037,41.37,-5.39
47938970,-0.78,0.341,0.426,-1.102,47.145,-4.847
47938980,-0.786,0.334,0.405,5.197,49.892,-4.585
47938990,-0.832,0.341,0.38,12.635,51.695,-4.532
47939000,-0.895,0.389,0.381,17.727,50.26,-5.827
47939010,-0.912,0.436,0.386,16.222,44.957,-8.627
47939020,-0.925,0.433,0.378,10.29,36.872,-9.467
47939030,-0.915,0.422,0.375,3.675,28.612,-10.027
47939040,-0.877,0.424,0.387,-1.312,21.28,-10.587
47939050,-0.853,0.403,0.401,-6.825,16.905,-10.255
47939060,-0.835,0.376,0.413,-10.535,16.31,-9.607
47939070,-0.805,0.358,0.43,-12.337,19.11,-8.925
47939080,-0.789,0.34,0.445,-12.057,24.255,-8.015
47939090,-0.792,0.348,0.446,-11.69,31.972,-6.527
47939100,-0.787,0.322,0.433,-11.48,38.22,-4.865
47939110,-0.789,0.308,0.415,-10.22,46.287,-2.94
47939120,-0.82,0.306,0.397,-8.242,52.92,-1.347
47939130,-0.837,0.302,0.394,-6.107,57.347,0.297
47939140,-0.835,0.302,0.392,-2.73,60.112,1.242
47939150,-0.843,0.307,0.358,1.995,63.892,0.91
47939160,-0.946,0.307,0.314,10.115,65.432,-1.26
47939170,-0.935,0.37,0.34,15.172,60.095,-5.127
47939170,-0.907,0.373,0.327,11.777,52.745,-2.117
47939190,-0.947,0.422,0.338,5.897,49.752,-3.272
47939190,-0.879,0.407,0.314,-4.217,49.175,-5.092
47939210,-0.871,0.384,0.295,-12.04,53.76,-5.635
47939210,-0.889,0.374,0.272,-16.59,59.115,-6.265
47939230,-0.891,0.352,0.248,-19.547,63,-6.685
47939230,-0.927,0.353,0.228,-17.535,65.467,-8.155
47939250,-0.942,0.368,0.244,-13.02,64.855,-10.167
47939250,-0.908,0.349,0.237,-8.61,59.29,-10.377
47939260,-0.924,0.354,0.238,-0.735,55.615,-11.112
47939270,-0.904,0.354,0.232,6.247,52.027,-13.755
47939280,-0.808,0.328,0.172,11.777,53.725,-15.295
47939290,-0.936,0.338,0.128,18.742,68.25,-17.185
47939300,-1.006,0.391,0.128,18.095,72.555,-19.95
47939310,-0.956,0.353,0.097,12.302,70.647,-17.622
47939320,-1.006,0.348,0.111,9.572,68.11,-16.03
47939330,-0.984,0.357,0.134,7.14,60.777,-14.42
47939340,-0.908,0.32,0.138,8.417,58.397,-12.46
47939350,-0.913,0.3,0.142,14.157,64.697,-13.177
47939360,-0.909,0.301,0.122,19.092,75.267,-14.14
47939370,-1.014,0.339,0.118,20.51,81.48,-13.51
47939380,-0.99,0.353,0.129,17.552,76.335,-11.707
47939390,-0.96,0.337,0.115,13.685,69.772,-6.982
47939400,-0.963,0.317,0.085,11.077,65.45,-4.357
47939410,-1,0.315,0.063,9.45,60.217,-3.202
47939420,-0.993,0.313,0.042,7.367,49.612,-0.77
47939430,-0.971,0.277,0.008,6.422,37.03,3.115
47939440,-0.991,0.269,-0.014,7.227,25.707,4.48
47939450,-0.988,0.302,0.009,7.665,14,4.637
47939460,-0.952,0.281,0.044,6.965,2.712,4.305
47939470,-0.913,0.246,0.059,10.29,-0.192,2.73
47939480,-0.883,0.255,0.06,16.31,11.777,1.137
47939490,-0.915,0.271,0.077,19.372,31.885,-2.117
47939500,-0.932,0.271,0.076,20.317,50.767,-4.532
47939510,-0.988,0.265,0.056,20.212,67.095,-2.992
47939520,-1.005,0.265,0.032,18.427,76.842,-2.835
47939530,-1.022,0.263,-0.008,16.415,81.007,-1.767
47939540,-1.034,0.257,0.004,15.33,79.52,-0.105
47939550,-1.04,0.254,0,12.897,77.542,1.067
47939560,-1.024,0.247,-0.048,11.34,73.902,0.98
47939570,-1.046,0.246,-0.096,11.462,68.302,2.03
47939580,-1.052,0.255,-0.146,9.8,55.352,2.852
47939580,-1.045,0.262,-0.17,8.312,37.695,3.587
47939600,-1.005,0.275,-0.183,5.302,17.692,2.677
47939600,-0.918,0.295,-0.2,2.012,3.115,2.065
47939620,-0.888,0.31,-0.187,0.122,-5.267,0.91
47939620,-0.857,0.317,-0.175,-1.977,-6.265,-0.017
47939640,-0.846,0.334,-0.17,-3.85,-2.31,-1.68
47939640,-0.866,0.338,-0.165,-6.387,6.125,-3.447
47939660,-0.913,0.339,-0.157,-10.43,13.51,-6.737
47939660,-0.923,0.346,-0.162,-14.735,18.427,-9.222
47939670,-0.92,0.347,-0.187,-18.357,22.452,-10.552
47939680,-0.954,0.349,-0.237,-17.027,25.095,-8.977
47939690,-0.992,0.327,-0.259,-14.245,29.102,-6.527
47939700,-1.033,0.328,-0.253,-13.3,31.972,-4.672
47939710,-1.071,0.34,-0.238,-12.775,31.01,-1.452
47939720,-1.067,0.345,-0.207,-13.3,25.252,1.312
47939730,-1.016,0.344,-0.227,-13.772,17.272,1.767
47939740,-0.97,0.352,-0.211,-12.092,11.76,2.38
47939750,-0.908,0.358,-0.199,-13.65,8.872,0.962
47939760,-0.862,0.362,-0.2,-15.487,8.855,0.857
47939770,-0.833,0.375,-0.189,-17.325,12.635,2.397
47939780,-0.803,0.364,-0.182,-21.84,19.337,3.412
47939790,-0.816,0.352,-0.167,-28.087,32.462,1.417
47939800,-0.853,0.353,-0.144,-35.087,48.72,-1.767
47939810,-0.868,0.326,-0.155,-41.597,63.997,-2.065
47939820,-0.885,0.313,-0.154,-43.505,77,-0.665
47939830,-0.923,0.318,-0.152,-42.175,87.57,1.505
47939840,-0.956,0.324,-0.156,-40.285,92.382,3.832
47939850,-1.004,0.335,-0.166,-37.397,92.855,6.58
47939860,-1.022,0.325,-0.186,-34.16,88.112,9.03
47939870,-1.052,0.322,-0.227,-28.42,82.565,12.88
47939880,-1.049,0.317,-0.253,-22.662,75.495,16.555
47939890,-1.037,0.323,-0.299,-16.135,69.562,20.755
47939900,-1.036,0.357,-0.295,-11.847,63.962,23.677
47939910,-1.015,0.366,-0.273,-9.38,60.97,28.035
47939920,-1.007,0.387,-0.298,-11.357,58.117,31.57
47939920,-1.05,0.376,-0.315,-14.472,57.417,35.105
47939940,-1.023,0.362,-0.341,-19.845,53.375,39.13
47939940,-1.004,0.342,-0.347,-23.712,49.735,45.692
47939960,-0.977,0.354,-0.345,-26.39,42.857,51.432
47939960,-0.936,0.351,-0.325,-27.877,35.805,58.152
47939980,-0.95,0.358,-0.293,-25.655,29.785,63.227
47939980,-0.957,0.346,-0.266,-24.15,22.767,64.137
47940000,-0.918,0.321,-0.266,-22.155,16.222,63.017
47940000,-0.85,0.324,-0.285,-18.532,14.472,60.672
47940010,-0.811,0.322,-0.302,-13.685,14.122,59.482
47940020,-0.717,0.355,-0.336,-7.192,16.8,58.345
47940030,-0.723,0.4,-0.329,0.91,22.907,56.28
47940040,-0.749,0.455,-0.312,7.21,28.07,52.675
47940050,-0.759,0.501,-0.29,10.115,28.822,45.762
47940060,-0.732,0.522,-0.297,7.437,26.18,37.187
47940070,-0.685,0.533,-0.313,3.447,23.432,28.857
47940080,-0.665,0.533,-0.339,-0.595,24.535,18.97
47940090,-0.701,0.527,-0.354,-3.675,28.105,8.715
47940100,-0.691,0.528,-0.383,-7.49,29.4,-0.962
47940110,-0.635,0.528,-0.401,-10.482,30.94,-9.73
47940120,-0.605,0.521,-0.402,-11.865,36.662,-17.745
47940130,-0.623,0.526,-0.391,-14.035,48.107,-27.58
47940140,-0.639,0.495,-0.419,-18.795,61.127,-35.315
47940150,-0.655,0.469,-0.458,-16.922,74.165,-38.99
47940160,-0.761,0.449,-0.437,-16.8,85.382,-42.42
47940170,-0.863,0.457,-0.446,-18.515,89.932,-44.8
47940180,-1.164,0.506,-0.405,-22.557,80.552,-45.36
47940190,-0.994,0.394,-0.442,-28.14,55.93,-42.262
47940200,-1.107,0.437,-0.433,-26.705,38.482,-29.837
47940210,-1.013,0.393,-0.474,-27.807,22.4,-22.102
47940220,-0.864,0.378,-0.477,-23.712,11.147,-9.712
47940230,-0.855,0.386,-0.44,-20.142,11.2,2.66
47940240,-0.849,0.41,-0.457,-19.18,12.6,6.895
47940250,-0.877,0.432,-0.378,-12.005,18.305,11.147
47940260,-0.804,0.421,-0.41,-12.932,19.95,9.8
47940270,-0.796,0.437,-0.42,-11.812,24.29,9.275
47940280,-0.848,0.424,-0.369,-5.495,27.58,9.992
47940290,-0.834,0.424,-0.36,0.105,28.402,8.365
47940300,-0.862,0.421,-0.337,10.237,26.442,9.625
47940310,-0.815,0.427,-0.379,24.062,23.502,12.285
47940320,-0.809,0.431,-0.378,39.13,23.695,15.855
47940330,-0.812,0.42,-0.38,46.76,30.677,15.732
47940330,-0.814,0.414,-0.422,51.712,39.707,16.047
47940350,-0.827,0.432,-0.483,54.6,48.37,18.217
47940350,-0.816,0.42,-0.526,55.527,51.345,22.487
47940370,-0.8,0.411,-0.551,51.747,47.075,30.555
47940370,-0.763,0.418,-0.558,45.43,34.125,39.69
47940390,-0.722,0.451,-0.612,45.097,24.815,47.407
47940390,-0.706,0.47,-0.614,44.957,13.51,44.905
47940410,-0.7,0.494,-0.585,42.962,6.23,34.807
47940410,-0.683,0.504,-0.579,42.945,1.96,19.005
47940420,-0.698,0.486,-0.55,40.197,-0.21,-0.945
47940430,-0.714,0.475,-0.559,36.4,0.577,-17.587
47940440,-0.712,0.458,-0.563,36.942,-0.822,-28.997
47940450,-0.715,0.444,-0.588,36.61,-4.06,-38.64
47940460,-0.718,0.425,-0.588,36.592,-12.11,-46.375
47940470,-0.72,0.407,-0.588,34.72,-19.337,-53.585
47940480,-0.739,0.381,-0.556,34.65,-26.25,-58.625
47940490,-0.766,0.357,-0.551,35.385,-26.705,-59.115
47940500,-0.798,0.345,-0.533,36.382,-22.767,-53.62
47940510,-0.826,0.322,-0.525,37.537,-14.262,-44.345
47940520,-0.824,0.308,-0.541,37.747,-4.322,-30.94
47940530,-0.823,0.298,-0.55,35.84,4.375,-15.995
47940540,-0.804,0.317,-0.549,33.495,10.85,-3.29
47940550,-0.803,0.306,-0.569,29.522,17.675,3.622
47940560,-0.791,0.312,-0.585,26.092,19.565,11.112
47940570,-0.775,0.328,-0.619,21.105,19.39,14.997
47940580,-0.778,0.317,-0.659,16.625,10.622,15.417
47940590,-0.747,0.345,-0.652,14.245,-4.952,18.41
47940600,-0.749,0.36,-0.663,9.555,-19.267,14.14
47940610,-0.763,0.359,-0.653,5.25,-34.492,6.947
47940620,-0.76,0.381,-0.616,3.482,-47.337,-0.122
47940630,-0.786,0.377,-0.59,-0.612,-49.612,-11.532
47940640,-0.763,0.437,-0.52,-4.2,-46.952,-20.825
47940650,-0.733,0.683,-0.427,-25.287,-38.972,-12.11
47940660,-0.755,0.21,-0.501,-45.675,-27.965,-9.572
47940670,-0.793,0.363,-0.48,-42.84,-9.432,-11.602
47940670,-0.792,0.303,-0.5,-48.737,-1.61,-3.64
47940690,-0.838,0.18,-0.548,-47.477,2.59,3.167
47940690,-0.876,0.211,-0.527,-34.09,3.622,8.102
47940710,-0.861,0.271,-0.482,-24.885,-2.45,15.785
47940710,-0.908,0.266,-0.466,-15.207,-9.467,19.705
47940730,-0.869,0.312,-0.483,-9.695,-25.252,23.31
47940730,-0.877,0.305,-0.445,-6.58,-43.242,22.61
47940750,-0.861,0.352,-0.483,-5.687,-60.357,19.88
47940750,-0.851,0.345,-0.469,-6.492,-78.33,17.202
47940760,-0.824,0.347,-0.473,-10.955,-88.445,14.175
47940770,-0.818,0.37,-0.469,-15.487,-96.232,12.477
47940780,-0.84,0.363,-0.442,-20.125,-102.077,12.057
47940790,-0.833,0.388,-0.428,-24.955,-109.987,12.285
47940800,-0.876,0.405,-0.4,-30.1,-119.297,16.152
47940810,-0.983,0.404,-0.379,-35.122,-132.317,22.242
47940820,-1.031,0.418,-0.351,-40.18,-145.53,25.777
47940830,-1.016,0.409,-0.327,-44.625,-155.05,26.95
47940840,-0.985,0.389,-0.33,-44.782,-157.885,28.175
47940850,-0.926,0.378,-0.333,-41.02,-154.122,29.312
47940860,-0.869,0.373,-0.338,-32.725,-144.182,29.96
47940870,-0.795,0.38,-0.329,-21.21,-128.852,29.925
47940880,-0.791,0.437,-0.318,-9.047,-108.412,28.857
47940890,-0.773,0.443,-0.308,-1.452,-87.885,26.285
47940900,-0.815,0.467,-0.314,3.447,-68.32,23.765
47940910,-0.853,0.503,-0.334,4.007,-53.62,23.432
47940920,-0.903,0.522,-0.298,-1.295,-47.862,23.975
47940930,-0.819,0.55,-0.273,-12.232,-48.615,26.127
47940940,-0.775,0.531,-0.256,-22.312,-43.452,26.985
47940950,-0.778,0.522,-0.167,-31.71,-33.582,25.13
47940960,-0.73,0.425,-0.269,-32.865,-21.682,23.327
47940970,-0.901,0.428,-0.222,-23.17,-4.935,18.585
47940980,-0.916,0.46,-0.192,-17.552,0.735,14.315
47940990,-0.934,0.467,-0.184,-15.872,0.35,15.452
47941000,-0.971,0.486,-0.179,-16.03,-2.642,16.17
47941010,-0.986,0.498,-0.182,-16.8,-6.702,18.305
47941020,-0.989,0.508,-0.175,-18.567,-15.435,22.347
47941030,-0.95,0.514,-0.157,-20.912,-24.5,27.212
47941040,-0.945,0.502,-0.146,-22.277,-33.46,29.942
47941050,-0.996,0.495,-0.126,-22.032,-43.592,29.242
47941060,-1.069,0.504,-0.117,-21.7,-62.965,25.357
47941070,-0.973,0.513,-0.126,-21.07,-85.96,20.3
47941080,-0.921,0.568,-0.103,-21.945,-103.075,16.485
47941080,-0.882,0.582,-0.107,-28.927,-112.927,13.335
47941100,-0.816,0.567,-0.116,-38.622,-115.43,10.64
47941100,-0.78,0.556,-0.124,-47.757,-109.55,10.22
47941120,-0.778,0.561,-0.146,-53.13,-100.765,9.362
47941120,-0.78,0.532,-0.024,-56.262,-91.262,7.63
47941140,-0.694,0.459,-0.276,-53.34,-86.345,2.835
47941140,-0.919,0.473,-0.075,-38.045,-71.575,-4.095
47941160,-0.902,0.514,-0.005,-36.627,-71.382,-10.535
47941160,-0.88,0.486,0.039,-37.607,-79.117,-8.82
47941170,-0.88,0.503,0.082,-37.625,-83.615,-7.262
47941180,-0.813,0.487,0.09,-39.06,-85.19,-6.51
47941190,-0.761,0.482,0.094,-37.975,-82.302,-5.845
47941200,-0.72,0.488,0.101,-37.695,-73.587,-4.987
47941210,-0.705,0.468,0.097,-38.272,-59.832,-4.935
47941220,-0.714,0.469,0.094,-36.54,-43.96,-4.515
47941230,-0.751,0.461,0.099,-33.477,-29.277,-2.292
47941240,-0.776,0.452,0.107,-29.487,-19.74,0.63
47941250,-0.804,0.439,0.106,-24.22,-14.052,1.032
47941260,-0.858,0.427,0.095,-17.535,-12.932,-3.045
47941270,-0.883,0.424,0.107,-10.097,-15.487,-8.75
47941280,-0.934,0.427,0.095,-3.08,-20.755,-15.417
47941290,-0.966,0.447,0.099,4.41,-27.422,-20.667
47941300,-0.968,0.48,0.099,10.622,-35.262,-21.77
47941310,-0.959,0.508,0.102,13.3,-41.457,-18.935
47941320,-0.93,0.525,0.106,12.897,-45.5,-12.495
47941330,-0.936,0.558,0.129,9.17,-44.887,-5.932
47941340,-0.923,0.573,0.129,1.995,-43.82,-0.437
47941350,-0.972,0.577,0.143,-4.917,-41.632,2.992
47941360,-1.019,0.567,0.15,-11.27,-42.297,5.057
47941370,-1.087,0.553,0.146,-16.222,-48.23,8.417
47941380,-1.112,0.561,0.181,-18.9,-61.127,12.46
47941390,-1.037,0.565,0.195,-20.93,-74.987,17.29
47941400,-1.001,0.56,0.209,-22.697,-85.47,22.085
47941410,-0.909,0.557,0.226,-23.695,-89.985,27.405
47941420,-0.846,0.538,0.253,-25.2,-86.992,31.867
47941420,-0.818,0.548,0.315,-27.562,-79.59,37.765
47941440,-0.767,0.566,0.345,-33.565,-73.902,45.605
47941440,-0.676,0.566,0.332,-41.667,-65.52,52.885
47941460,-0.647,0.567,0.314,-49.262,-53.707,61.18
47941460,-0.703,0.542,0.341,-57.767,-41.65,67.235
47941480,-0.744,0.498,0.31,-65.905,-36.872,63.84
47941480,-0.782,0.463,0.262,-65.38,-39.13,52.185
47941500,-0.773,0.465,0.242,-53.602,-47.092,32.917
47941500,-0.731,0.501,0.223,-35.105,-59.202,13.16
47941510,-0.644,0.551,0.222,-13.895,-71.085,-4.025
47941520,-0.523,0.615,0.275,3.43,-76.142,-14.577
47941530,-0.431,0.621,0.215,11.567,-73.272,-16.275
47941540,-0.415,0.64,0.23,18.042,-62.23,-14.665
47941550,-0.407,0.671,0.266,16.957,-47.232,-12.862
47941560,-0.452,0.628,0.288,7.857,-29.96,-14.472
47941570,-0.49,0.646,0.338,-4.025,-12.04,-19.757
47941580,-0.554,0.638,0.37,-19.652,4.515,-27.65
47941590,-0.63,0.61,0.371,-35.49,13.737,-34.597
47941600,-0.676,0.561,0.347,-43.207,13.195,-38.185
47941610,-0.695,0.558,0.354,-42.892,7.332,-39.112
47941620,-0.764,0.482,0.327,-37.52,-4.375,-35.962
47941630,-0.774,0.48,0.319,-25.077,-18.06,-33.04
47941640,-0.79,0.475,0.345,-13.912,-29.032,-30.765
47941650,-0.916,0.572,0.55,-11.375,-41.632,-26.46
47941660,-0.863,0.473,0.553,-20.825,-63,-11.06
47941670,-0.916,0.448,0.705,-31.36,-78.82,4.445
47941680,-0.691,0.383,0.395,-26.547,-71.715,10.185
47941690,-0.759,0.314,0.501,-20.947,-37.852,-2.835
47941700,-0.85,0.381,0.488,-20.422,-4.707,-13.055
47941710,-0.935,0.371,0.461,-18.165,7.84,-7.297
47941720,-0.982,0.383,0.423,-17.692,4.305,1.96
47941730,-1.106,0.431,0.435,-18.375,-10.815,9.1
47941740,-1.14,0.436,0.412,-25.007,-37.922,10.815
47941750,-1.135,0.461,0.438,-32.515,-66.185,6.195
47941760,-1.058,0.475,0.433,-41.877,-94.43,-1.61
47941770,-0.954,0.468,0.47,-49.647,-117.162,-4.13
47941780,-0.798,0.468,0.445,-55.807,-136.692,-1.89
47941790,-0.634,0.448,0.431,-59.29,-138.862,-1.382
47941800,-0.568,0.445,0.48,-61.53,-124.442,-5.512
47941810,-0.508,0.433,0.519,-67.532,-102.287,-7.56
47941820,-0.452,0.406,0.568,-74.515,-75.11,-6.212
47941830,-0.368,0.378,0.612,-84.7,-41.055,-6.615
47941830,-0.385,0.274,0.63,-95.077,-2.117,-1.067
47941850,-0.485,0.214,0.657,-100.275,36.505,6.965
47941850,-0.613,0.134,0.673,-102.34,65.572,9.03
47941860,-0.746,0.038,0.676,-98.787,81.69,6.335
47941870,-0.84,-0.008,0.685,-87.22,82.477,3.43
47941880,-0.853,-0.042,0.683,-72.117,72.59,2.1
47941890,-0.793,-0.04,0.66,-54.092,58.03,1.522
47941900,-0.694,0.005,0.657,-33.845,47.547,4.165
47941910,-0.618,0.057,0.651,-15.347,46.27,8.645
47941920,-0.581,0.112,0.635,-0.35,55.282,11.235
47941930,-0.578,0.173,0.602,11.217,72.135,12.39
47941940,-0.623,0.223,0.58,19.985,93.205,15.277
47941950,-0.711,0.271,0.552,27.125,110.6,17.15
47941960,-0.823,0.341,0.529,31.237,120.137,17.745
47941970,-0.914,0.427,0.523,32.2,118.912,17.377
47941980,-0.961,0.479,0.499,28.035,106.435,15.225
47941990,-0.972,0.502,0.464,19.792,88.13,12.407
47942000,-0.953,0.511,0.416,9.415,66.937,8.767
47942010,-0.887,0.481,0.357,-2.205,49.175,3.605
47942020,-0.816,0.44,0.306,-10.902,38.29,-3.395
47942030,-0.781,0.418,0.293,-16.59,33.67,-10.447
47942040,-0.783,0.413,0.291,-21.752,30.397,-16.817
47942050,-0.782,0.371,0.295,-26.46,25.672,-22.662
47942060,-0.827,0.344,0.324,-27.072,15.452,-26.39
47942070,-0.92,0.312,0.358,-22.575,-1.505,-22.557
47942080,-0.861,0.264,0.4,-11.795,-22.067,-14.892
47942090,-0.769,0.316,0.446,-3.202,-33.827,-11.62
47942100,-0.76,0.344,0.478,-2.275,-33.652,-11.445
47942110,-0.825,0.368,0.518,-0.42,-26.302,-12.442
47942120,-0.896,0.403,0.555,2.957,-20.177,-10.307
47942130,-0.915,0.436,0.586,6.002,-16.73,-8.312
47942140,-0.897,0.438,0.595,8.767,-16.94,-4.305
47942150,-0.85,0.445,0.568,12.25,-13.877,0.892
47942160,-0.814,0.455,0.54,16.765,-7.227,5.127
47942170,-0.798,0.461,0.531,21,1.365,9.905
47942170,-0.802,0.462,0.523,24.185,7.822,13.44
47942190,-0.801,0.464,0.503,25.077,10.955,14.28
47942190,-0.811,0.46,0.481,24.36,9.887,13.51
47942210,-0.8,0.445,0.449,20.72,8.015,11.27
47942210,-0.82,0.427,0.426,17.307,5.022,8.225
47942230,-0.86,0.423,0.415,13.09,-0.962,4.62
47942230,-0.882,0.412,0.402,7.577,-10.57,0.682
47942250,-0.896,0.403,0.401,2.152,-21.892,-4.567
47942250,-0.886,0.399,0.402,-3.85,-33.022,-9.222
47942260,-0.863,0.387,0.413,-9.537,-40.687,-11.725
47942270,-0.834,0.37,0.438,-14.087,-44.257,-12.302
47942280,-0.825,0.347,0.464,-16.73,-44.38,-10.29
47942290,-0.793,0.335,0.493,-17.955,-41.177,-7.437
47942300,-0.776,0.319,0.509,-17.937,-34.632,-4.007
47942310,-0.77,0.31,0.53,-16.03,-27.545,-0.612
47942320,-0.771,0.301,0.549,-13.562,-22.295,1.312
47942330,-0.772,0.299,0.549,-11.795,-19.95,0.752
47942340,-0.773,0.296,0.541,-9.695,-21.297,-1.522
47942350,-0.77,0.3,0.528,-6.79,-24.377,-4.392
47942360,-0.768,0.313,0.52,-4.287,-26.372,-6.317
47942370,-0.783,0.327,0.517,-3.08,-26.932,-7.402
47942380,-0.809,0.319,0.504,-3.36,-27.615,-8.68
47942390,-0.822,0.312,0.482,-3.43,-29.225,-9.957
47942400,-0.745,0.304,0.489,-2.117,-25.497,-8.855
47942410,-0.836,0.323,0.527,3.255,-13.16,-3.797
47942420,-0.856,0.351,0.531,6.265,-12.617,-2.712
47942430,-0.766,0.347,0.524,4.672,-15.417,-3.272
47942440,-0.744,0.341,0.537,3.237,-13.545,-3.342
47942450,-0.773,0.313,0.556,3.57,-9.66,-3.237
47942460,-0.754,0.312,0.558,5.757,-8.54,-2.712
47942470,-0.752,0.322,0.558,7.402,-6.335,-1.942
47942480,-0.768,0.328,0.556,8.067,-5.337,-1.75
47942490,-0.743,0.34,0.55,7.647,-4.2,-0.56
47942500,-0.761,0.349,0.546,5.372,-1.172,1.697
47942510,-0.782,0.346,0.533,2.17,1.575,2.782
47942520,-0.769,0.342,0.525,-0.63,2.677,3.465
47942530,-0.791,0.343,0.519,-2.38,4.445,4.602
47942540,-0.818,0.34,0.514,-3.08,3.29,4.742
47942550,-0.812,0.334,0.51,-2.922,0.63,4.095
47942550,-0.807,0.334,0.497,-1.452,-2.73,3.097
47942570,-0.813,0.344,0.501,0.507,-5.88,2.152
47942570,-0.797,0.351,0.497,1.365,-9.642,1.032
47942580,-0.815,0.351,0.503,2.187,-12.162,0.297
47942590,-0.833,0.359,0.49,2.135,-17.01,-1.067
47942600,-0.817,0.356,0.494,2.24,-23.38,-2.432
47942610,-0.812,0.341,0.484,2.59,-29.05,-2.905
47942620,-0.832,0.336,0.475,5.932,-32.462,-2.695
47942630,-0.85,0.359,0.48,9.205,-38.15,-2.152
47942640,-0.872,0.375,0.478,8.925,-46.865,-0.472
47942650,-0.83,0.376,0.506,6.247,-53.042,1.33
47942660,-0.806,0.368,0.543,1.907,-56.192,4.13
47942670,-0.752,0.355,0.579,-2.625,-57.925,8.715
47942680,-0.69,0.339,0.621,-8.067,-56.857,16.905
47942690,-0.73,0.327,0.651,-14.07,-55.247,23.8
47942700,-0.681,0.295,0.652,-18.585,-54.985,24.605
47942710,-0.558,0.375,0.571,-21.735,-48.142,24.937
47942720,-0.667,0.372,0.565,-30.152,-34.072,25.55
47942730,-0.746,0.289,0.566,-35.07,-27.002,16.782
47942740,-0.708,0.355,0.612,-27.527,-23.047,13.545
47942750,-0.735,0.35,0.634,-28.035,-21.682,15.942
47942760,-0.762,0.279,0.678,-21.84,-24.045,15.522
47942770,-0.647,0.307,0.697,-13.055,-27.702,16.222
47942780,-0.573,0.349,0.707,-8.715,-27.142,18.392
47942790,-0.549,0.329,0.686,-9.502,-19.372,17.657
47942800,-0.559,0.344,0.671,-8.89,-8.487,14.875
47942810,-0.597,0.329,0.653,-7.297,1.907,12.425
47942820,-0.641,0.343,0.642,-3.64,8.365,8.312
47942830,-0.685,0.36,0.631,0.105,12.985,3.395
47942840,-0.716,0.376,0.62,2.31,14.192,-0.63
47942850,-0.752,0.368,0.603,2.957,12.897,-3.185
47942860,-0.769,0.354,0.591,5.075,8.242,-4.41
47942870,-0.765,0.354,0.586,6.632,3.675,-4.707
47942880,-0.742,0.347,0.59,7.332,-0.455,-6.02
47942890,-0.72,0.325,0.585,8.12,-2.485,-7.665
47942900,-0.717,0.291,0.574,12.512,-4.34,-9.887
47942910,-0.779,0.309,0.63,23.205,-10.465,-13.632
47942920,-0.653,0.391,0.659,27.86,-16.887,-14.77
47942920,-0.582,0.432,0.654,22.312,-10.972,-12.46
47942940,-0.686,0.415,0.637,8.925,3.972,-7.84
47942940,-0.793,0.357,0.62,-3.797,7.63,-3.622
47942960,-0.724,0.306,0.598,-8.47,0.017,-0.595
47942960,-0.682,0.313,0.594,-5.775,-3.797,3.867
47942980,-0.719,0.347,0.611,-4.567,-4.882,6.492
47942980,-0.736,0.361,0.62,-8.872,-8.05,7.875
47943000,-0.75,0.366,0.623,-13.702,-12.722,12.11
47943000,-0.791,0.352,0.614,-15.417,-17.5,18.812
47943010,-0.665,0.364,0.607,-13.037,-21.245,21.122
47943020,-0.476,0.494,0.605,-17.255,-7.14,24.202
47943030,-0.685,0.45,0.587,-33.67,13.615,27.072
47943040,-0.747,0.343,0.567,-43.26,20.055,22.54
47943050,-0.73,0.347,0.588,-44.065,16.047,21.997
47943060,-0.798,0.271,0.63,-42.49,7.175,23.975
47943070,-0.745,0.251,0.679,-31.08,-4.217,20.055
47943080,-0.759,0.334,0.743,-18.742,-12.442,16.31
47943090,-0.543,0.252,0.675,-13.422,-14.647,11.672
47943100,-0.546,0.271,0.627,-3.552,-8.417,11.725
47943110,-0.555,0.336,0.643,6.212,0.052,5.565
47943120,-0.603,0.337,0.629,9.012,7.402,-2.082
47943130,-0.697,0.356,0.627,10.15,14.21,-7.56
47943140,-0.768,0.364,0.608,8.732,15.225,-9.73
47943150,-0.798,0.344,0.59,7.7,11.9,-9.94
47943160,-0.82,0.337,0.592,8.54,4.777,-8.592
47943170,-0.805,0.323,0.607,9.712,-3.587,-6.282
47943180,-0.754,0.308,0.626,11.917,-10.762,-4.427
47943190,-0.714,0.252,0.625,18.655,-13.195,-3.85
47943200,-0.63,0.366,0.669,30.485,-13.65,-4.165
47943210,-0.555,0.416,0.671,25.62,-9.73,-4.585
47943220,-0.605,0.345,0.65,16.73,-0.752,-5.74
47943230,-0.64,0.427,0.632,12.757,10.587,-6.16
47943240,-0.724,0.398,0.611,5.6,15.347,-2.66
47943250,-0.759,0.394,0.591,0.07,14.63,-2.642
47943260,-0.763,0.382,0.584,-2.87,9.8,0.42
47943260,-0.76,0.381,0.589,-5.302,4.462,3.377
47943280,-0.745,0.382,0.608,-8.277,-0.192,4.62
47943280,-0.718,0.377,0.626,-12.53,-2.327,6.387
47943300,-0.663,0.371,0.635,-16.1,-2.205,8.26
47943300,-0.642,0.357,0.631,-17.727,1.767,10.08
47943320,-0.621,0.364,0.642,-16.887,8.085,10.482
47943320,-0.607,0.374,0.65,-17.15,16.292,10.99
47943330,-0.613,0.461,0.675,-19.862,26.075,12.18
47943340,-0.676,0.493,0.592,-32.602,38.64,12.915
47943350,-0.661,0.26,0.566,-49.647,38.045,11.795
47943360,-0.61,0.314,0.595,-40.355,43.977,13.58
47943370,-0.742,0.421,0.632,-32.165,49.122,17.675
47943380,-0.862,0.328,0.635,-37.747,45.745,18.76
47943390,-0.886,0.265,0.596,-35.962,32.515,13.877
47943400,-0.82,0.254,0.596,-24.202,21.087,8.837
47943410,-0.759,0.272,0.543,-10.762,11.515,7.21
47943420,-0.662,0.333,0.507,0.612,7.087,5.6
47943430,-0.748,0.288,0.482,2.852,8.33,1.067
47943440,-0.837,0.292,0.515,5.617,7.437,-3.167
47943450,-0.832,0.323,0.527,8.137,2.275,-7.735
47943460,-0.802,0.308,0.52,10.132,-3.797,-11.077
47943470,-0.795,0.314,0.541,14.455,-7.682,-10.797
47943480,-0.817,0.321,0.592,17.43,-12.897,-11.042
47943490,-0.791,0.323,0.623,20.965,-23.607,-11.532
47943500,-0.638,0.368,0.613,24.272,-29.382,-10.5
47943510,-0.647,0.391,0.605,23.905,-22.277,-8.837
47943520,-0.67,0.4,0.596,17.78,-12.705,-7.367
47943530,-0.798,0.386,0.601,10.43,-9.205,-5.04
47943540,-0.707,0.403,0.581,2.082,-9.467,-2.012
47943550,-0.811,0.342,0.578,-6.615,-8.522,2.31
47943560,-0.767,0.308,0.587,-10.832,-15.19,5.722
47943570,-0.683,0.358,0.63,-11.147,-17.867,11.235
47943580,-0.693,0.336,0.649,-14.7,-15.715,14.35
47943590,-0.646,0.347,0.66,-16.415,-10.465,16.607
47943600,-0.595,0.391,0.644,-19.845,-2.8,17.99
47943610,-0.588,0.411,0.608,-26.722,8.855,18.13
47943620,-0.789,0.339,0.632,-36.487,17.027,17.797
47943630,-0.805,0.189,0.637,-38.272,10.955,13.632
47943640,-0.646,0.292,0.638,-24.132,10.64,11.865
47943650,-0.63,0.352,0.621,-18.777,19.95,8.75
47943660,-0.762,0.273,0.579,-20.79,28.332,5.46
47943670,-0.844,0.233,0.536,-16.17,25.13,2.24
47943670,-0.753,0.309,0.52,-3.272,13.405,1.382
47943690,-0.743,0.342,0.499,7.017,9.52,0.192
47943690,-0.866,0.346,0.522,10.167,7.105,-3.325
47943710,-0.895,0.332,0.522,9.87,-2.1,-3.517
47943710,-0.836,0.297,0.489,12.687,-12.197,-5.652
47943730,-0.742,0.26,0.465,19.127,-14.525,-7.437
47943730,-0.787,0.268,0.524,30.1,-11.217,-8.4
47943750,-0.931,0.216,0.629,39.077,-21.315,-11.427
47943750,-0.595,0.348,0.686,54.442,-36.907,-14.28
47943760,-0.531,0.491,0.704,55.282,-31.395,-15.382
47943770,-0.574,0.383,0.686,38.167,-23.345,-17.972
47943780,-0.574,0.445,0.65,25.567,-3.57,-12.985
47943790,-0.729,0.414,0.6,10.832,12.705,-7.77
47943800,-0.758,0.39,0.567,-1.225,15.925,-2.24
47943810,-0.776,0.363,0.582,-11.795,12.88,6.44
47943820,-0.799,0.33,0.587,-17.202,7.35,12.967
47943830,-0.719,0.36,0.617,-17.727,5.88,17.395
47943840,-0.649,0.433,0.59,-19.757,10.272,19.88
47943850,-0.626,0.526,0.567,-31.832,25.375,20.667
47943860,-0.797,0.328,0.569,-50.242,36.365,17.202
47943870,-0.765,0.226,0.589,-50.802,37.327,12.932
47943880,-0.706,0.256,0.612,-39.2,37.835,11.742
47943890,-0.698,0.267,0.603,-28.105,34.737,7.157
47943900,-0.667,0.344,0.6,-19.827,34.475,4.287
47943910,-0.83,0.296,0.565,-18.847,37.73,1.47
47943920,-0.925,0.291,0.507,-13.755,27.632,0.857
47943930,-0.896,0.335,0.452,-4.795,8.417,-1.4
47943940,-0.857,0.354,0.416,2.642,-6.842,-5.862
47943950,-0.906,0.378,0.467,7.595,-14.7,-9.187
47943960,-0.891,0.364,0.485,6.37,-26.285,-11.725
47943970,-0.789,0.331,0.488,4.602,-32.2,-15.172
47943980,-0.89,0.29,0.543,7.752,-39.882,-18.83
47943990,-0.764,0.293,0.582,14.98,-60.042,-22.05
47944000,-0.571,0.365,0.604,25.007,-60.9,-23.415
47944010,-0.605,0.344,0.644,29.452,-37.52,-22.47
47944010,-0.756,0.38,0.677,26.827,-19.705,-18.34
47944030,-0.674,0.361,0.634,16.905,-13.72,-13.352
47944030,-0.674,0.351,0.599,8.68,-3.202,-7.875
47944050,-0.762,0.294,0.599,1.155,2.065,-3.027
47944050,-0.719,0.279,0.605,-1.137,-2.047,1.312
47944070,-0.685,0.315,0.612,-1.242,-3.062,6.86
47944070,-0.694,0.323,0.611,-5.197,0.245,9.17
47944080,-0.737,0.327,0.613,-8.942,3.465,11.112
47944090,-0.709,0.347,0.614,-12.512,4.165,11.515
47944100,-0.594,0.412,0.582,-17.937,13.142,11.97
47944110,-0.759,0.386,0.581,-28.42,31.447,12.057
47944120,-0.861,0.272,0.57,-35.21,33.442,9.205
47944130,-0.731,0.313,0.56,-30.502,24.745,9.135
47944140,-0.718,0.307,0.569,-24.377,21.087,8.277
47944150,-0.824,0.255,0.567,-17.43,17.412,5.215
47944160,-0.749,0.281,0.543,-6.615,7.525,1.995
47944170,-0.776,0.362,0.533,4.06,4.41,-0.087
47944180,-0.849,0.335,0.517,4.69,-0.122,-3.062
47944190,-0.858,0.317,0.503,4.567,-7.332,-4.637
47944200,-0.797,0.319,0.51,7.297,-14.822,-5.722
47944210,-0.771,0.307,0.509,8.417,-18.322,-6.807
47944220,-0.802,0.311,0.531,9.607,-19.407,-10.027
47944230,-0.901,0.313,0.587,10.395,-33.25,-13.982
47944240,-0.726,0.311,0.596,10.465,-54.337,-17.57
47944250,-0.606,0.365,0.627,16.187,-50.207,-19.005
47944260,-0.69,0.359,0.638,14.56,-33.81,-16.152
47944270,-0.777,0.336,0.623,10.132,-24.08,-13.597
47944280,-0.703,0.339,0.599,6.352,-21.787,-10.237
47944290,-0.719,0.348,0.587,2.642,-12.792,-4.375
47944300,-0.806,0.303,0.591,-2.747,-9.047,-0.472
47944310,-0.761,0.277,0.606,-4.847,-13.09,2.87
47944320,-0.716,0.286,0.624,-4.06,-15.347,6.912
47944330,-0.717,0.294,0.632,-4.112,-14.07,9.397
47944340,-0.679,0.304,0.639,-5.635,-12.145,10.692
47944350,-0.688,0.325,0.647,-7.35,-7.787,11.637
47944360,-0.721,0.343,0.655,-9.765,-5.302,11.147
47944370,-0.606,0.354,0.631,-13.965,-0.962,10.255
47944380,-0.648,0.441,0.61,-21.315,20.405,10.657
47944390,-0.9,0.308,0.604,-35.735,28.612,7.77
47944400,-0.815,0.2,0.571,-35.35,13.51,10.027
47944410,-0.672,0.261,0.6,-21.07,-0.105,11.06
47944420,-0.646,0.322,0.603,-10.097,-2.52,11.217
47944420,-0.729,0.336,0.609,-9.625,3.71,7.28
47944440,-0.776,0.294,0.596,-11.707,2.257,1.82
47944440,-0.704,0.31,0.584,-7.472,-1.19,0.385
47944460,-0.705,0.312,0.576,-1.487,-1.12,-0.945
47944460,-0.755,0.327,0.586,1.225,1.032,-4.27
47944480,-0.748,0.321,0.574,0.507,0.857,-8.925
47944480,-0.757,0.277,0.545,1.505,1.592,-11.83
47944500,-0.779,0.256,0.534,6.632,2.17,-12.652
47944500,-0.808,0.255,0.532,12.46,0.507,-12.95
47944510,-0.966,0.232,0.581,19.075,-15.207,-14.91
47944520,-0.753,0.215,0.604,30.327,-39.882,-13.877
47944530,-0.596,0.42,0.688,41.177,-35.07,-11.48
47944540,-0.681,0.393,0.64,26.565,-21.892,-8.47
47944550,-0.703,0.357,0.574,8.645,-3.027,-4.777
47944560,-0.824,0.302,0.576,-4.655,-0.315,-4.042
47944570,-0.768,0.264,0.592,-6.405,-7.14,0.297
47944580,-0.727,0.33,0.628,-4.585,-11.812,7.07
47944590,-0.747,0.318,0.633,-10.395,-14.157,10.867
47944600,-0.711,0.312,0.638,-16.73,-16.135,11.847
47944610,-0.686,0.314,0.651,-19.022,-14.455,12.88
47944620,-0.664,0.324,0.667,-17.955,-9.765,13.265
47944630,-0.554,0.44,0.626,-19.092,2.135,13.895
47944640,-0.695,0.473,0.616,-35.175,21.367,13.422
47944650,-0.854,0.259,0.6,-52.255,26.687,12.075
47944660,-0.847,0.156,0.661,-46.112,13.737,13.09
47944670,-0.561,0.217,0.668,-24.99,-0.945,13.055
47944680,-0.604,0.38,0.706,-10.972,10.062,15.032
47944690,-0.743,0.333,0.643,-22.557,18.34,4.602
47944700,-0.756,0.208,0.573,-22.032,17.745,-4.812
47944710,-0.772,0.279,0.541,-7.787,15.435,-1.365
47944720,-0.799,0.298,0.516,-2.205,9.327,-3.972
47944730,-0.776,0.252,0.482,-3.517,4.69,-7.14
47944740,-0.821,0.215,0.482,0.7,1.277,-7.087
47944750,-0.801,0.197,0.489,10.64,-2.38,-5.705
47944760,-0.717,0.225,0.521,22.225,-5.81,-6.387
47944760,-0.68,0.271,0.571,30.047,-2.397,-11.025
47944780,-0.707,0.318,0.632,32.48,3.465,-16.502
47944780,-0.762,0.364,0.68,29.155,6.58,-18.847
47944800,-0.964,0.305,0.684,23.607,-4.445,-19.88
47944800,-0.726,0.287,0.679,24.85,-31.377,-21
47944820,-0.51,0.45,0.65,24.85,-19.6,-16.152
47944820,-0.82,0.38,0.632,7.21,1.242,-13.387
47944830,-0.855,0.27,0.583,-6.86,1.207,-8.907
47944840,-0.745,0.32,0.585,-9.292,-3.255,-3.99
47944850,-0.797,0.279,0.581,-14.822,-6.16,2.922
47944860,-0.743,0.253,0.578,-20.142,-9.8,7.227
47944870,-0.723,0.223,0.594,-19.495,-11.55,11.375
47944880,-0.695,0.264,0.619,-15.347,-9.817,14.77
47944890,-0.617,0.383,0.625,-17.955,-0.192,16.345
47944900,-0.833,0.244,0.671,-31.57,7.857,15.487
47944910,-0.777,0.12,0.678,-27.65,2.38,14.577
47944920,-0.572,0.339,0.665,-9.747,4.567,17.71
47944930,-0.65,0.333,0.634,-10.29,16.572,14.752
47944940,-0.844,0.259,0.59,-14,19.162,7.402
47944950,-0.688,0.305,0.561,-9.485,8.172,1.627
47944960,-0.709,0.329,0.559,-0.035,14.77,1.435
47944970,-0.88,0.339,0.569,2.992,15.627,-2.485
47944980,-0.787,0.291,0.523,0.437,5.495,-4.83
47944990,-0.727,0.268,0.519,5.6,2.765,-6.09
47945000,-0.77,0.253,0.531,13.457,4.655,-5.18
47945010,-0.74,0.259,0.556,19.04,5.337,-7.945
47945020,-0.7,0.275,0.575,24.29,6.405,-12.197
47945030,-0.733,0.301,0.6,28.157,9.52,-13.282
47945040,-0.763,0.328,0.629,27.877,10.29,-14.77
47945050,-0.923,0.306,0.641,21.84,4.06,-16.257
47945060,-0.895,0.294,0.628,19.792,-26.425,-19.67
47945070,-0.552,0.335,0.59,21.28,-36.942,-19.722
47945080,-0.619,0.343,0.605,16.152,-14,-18.042
47945090,-0.842,0.316,0.612,6.037,6.422,-10.307
47945100,-0.842,0.313,0.603,-4.865,3.78,-4.217
47945110,-0.743,0.259,0.583,-12.46,-5.162,0.892
47945120,-0.756,0.266,0.595,-16.065,-6.807,4.742
47945130,-0.813,0.265,0.571,-20.23,-8.032,7.017
47945140,-0.747,0.245,0.555,-22.277,-11.427,7.28
47945150,-0.711,0.243,0.567,-20.667,-8.732,8.855
47945160,-0.764,0.267,0.606,-19.302,-5.705,11.515
47945170,-0.795,0.196,0.62,-18.392,-7.525,10.5
47945170,-0.68,0.279,0.622,-8.207,-5.845,8.785
47945190,-0.66,0.366,0.636,-5.985,0.385,7.525
47945190,-0.713,0.317,0.628,-10.115,9.695,6.58
47945210,-0.718,0.323,0.651,-10.85,19.32,6.16
47945210,-0.748,0.332,0.649,-10.797,27.055,7.577
47945230,-0.759,0.319,0.614,-12.075,31.92,6.247
47945230,-0.738,0.287,0.567,-12.232,31.71,3.85
47945250,-0.764,0.265,0.526,-8.837,28.262,1.382
47945250,-0.787,0.261,0.503,-3.202,21.437,-2.607
47945260,-0.788,0.249,0.488,2.905,16.327,-6.422
47945270,-0.8,0.228,0.481,8.907,16.887,-9.012
47945280,-0.845,0.218,0.49,16.66,15.102,-10.15
47945290,-0.816,0.233,0.516,24.15,10.395,-11.602
47945300,-0.776,0.269,0.554,27.142,8.505,-14.455
47945310,-0.892,0.282,0.596,26.81,5.775,-15.995
47945320,-0.975,0.311,0.597,20.195,-14.822,-16.485
47945330,-0.707,0.302,0.567,12.232,-32.97,-16.642
47945340,-0.673,0.314,0.585,9.275,-23.432,-14.07
47945350,-0.815,0.307,0.6,1.627,-10.972,-9.572
47945360,-0.798,0.271,0.585,-5.897,-7.875,-4.76
47945370,-0.805,0.288,0.604,-10.78,-6.002,2.17
47945380,-0.856,0.304,0.601,-20.37,-13.055,9.362
47945390,-0.833,0.247,0.565,-31.57,-22.312,16.747
47945400,-0.706,0.179,0.54,-32.34,-23.835,21.56
47945410,-0.689,0.244,0.585,-23.765,-16.607,27.51
47945420,-0.652,0.283,0.633,-21.49,-3.325,26.232
47945430,-0.714,0.274,0.683,-17.272,9.782,21.665
47945440,-0.728,0.345,0.683,-15.487,17.15,17.832
47945450,-0.713,0.352,0.619,-18.655,22.277,12.075
47945460,-0.834,0.32,0.546,-20.212,18.077,5.11
47945470,-0.759,0.171,0.466,-20.72,5.705,4.165
47945480,-0.693,0.3,0.513,5.11,11.97,-0.682
47945490,-0.855,0.367,0.531,12.075,13.527,-4.812
47945500,-0.834,0.246,0.509,4.497,10.535,-8.4
47945510,-0.811,0.215,0.506,7.437,7.105,-8.295
47945510,-0.75,0.2,0.502,16.765,4.217,-10.15
47945530,-0.738,0.195,0.506,26.687,6.877,-15.26
47945530,-0.773,0.24,0.547,35.84,12.88,-19.075
47945550,-0.843,0.306,0.59,38.412,16.03,-24.377
47945550,-0.95,0.325,0.587,33.005,1.417,-30.59
47945570,-0.868,0.297,0.564,25.2,-21.14,-29.977
47945570,-0.672,0.338,0.568,22.96,-25.217,-27.335
47945580,-0.707,0.351,0.59,16.327,-10.78,-22.785
47945590,-0.801,0.284,0.603,5.565,3.885,-15.505
47945600,-0.804,0.253,0.599,-2.537,10.377,-8.627
47945610,-0.771,0.251,0.597,-5.005,11.357,-3.937
47945620,-0.788,0.26,0.571,-10.692,8.522,2.835
47945630,-0.797,0.218,0.539,-18.427,6.002,4.077
47945640,-0.82,0.215,0.541,-20.195,6.352,5.25
47945650,-0.833,0.24,0.553,-21.577,5.46,7.402
47945660,-0.813,0.247,0.545,-23.975,1.767,9.467
47945670,-0.776,0.251,0.55,-23.73,-0.297,11.06
47945680,-0.717,0.327,0.565,-22.365,3.325,12.32
47945690,-0.796,0.269,0.593,-27.142,11.077,15.47
47945700,-0.79,0.252,0.592,-26.46,16.607,17.937
47945710,-0.705,0.285,0.615,-22.715,26.11,19.32
47945720,-0.756,0.304,0.602,-25.637,38.185,19.232
47945730,-0.896,0.251,0.557,-30.24,40.477,17.22
47945740,-0.784,0.213,0.485,-28.84,27.37,13.02
47945750,-0.795,0.257,0.466,-16.117,24.447,9.432
47945760,-0.878,0.278,0.446,-10.01,22.347,5.565
47945770,-0.909,0.242,0.425,-6.09,16.065,0
47945780,-0.829,0.246,0.436,1.277,7.385,-2.467
47945790,-0.838,0.254,0.48,7.752,5.32,-3.395
47945800,-0.826,0.221,0.498,9.73,5.25,-5.407
47945810,-0.776,0.209,0.512,14.175,8.452,-8.085
47945820,-0.785,0.211,0.518,20.37,12.687,-11.287
47945830,-0.778,0.235,0.535,25.41,17.552,-15.452
47945840,-0.831,0.255,0.534,27.177,21.157,-18.2
47945850,-0.862,0.233,0.486,25.83,21.84,-20.44
47945860,-0.892,0.255,0.48,26.162,19.442,-19.6
47945870,-1.143,0.226,0.442,24.447,5.32,-22.312
47945880,-1.002,0.27,0.41,29.47,-43.33,-29.33
47945890,-0.58,0.383,0.462,37.52,-55.667,-36.312
47945900,-0.883,0.364,0.548,26.425,-32.882,-36.697
47945910,-0.871,0.214,0.547,7.857,-18.707,-26.757
47945920,-0.854,0.172,0.573,2.082,-14.91,-15.942
47945920,-0.678,0.19,0.562,-2.205,-15.592,-6.492
47945940,-0.714,0.212,0.563,-4.707,-10.43,2.187
47945940,-0.801,0.223,0.556,-10.902,-8.032,9.432
47945950,-0.823,0.205,0.522,-17.202,-7.927,16.327
47945960,-0.801,0.219,0.508,-18.462,-6.23,20.702
47945970,-0.65,0.301,0.543,-18.427,3.062,26.232
47945980,-0.868,0.289,0.611,-25.9,28.052,30.8
47945990,-0.795,0.253,0.637,-31.412,35.42,29.33
47946000,-0.709,0.353,0.621,-30.712,45.745,29.19
47946010,-0.876,0.27,0.556,-40.932,45.027,23.817
47946020,-0.775,0.232,0.422,-39.392,39.987,20.142
47946030,-0.931,0.256,0.367,-26.74,30.327,14.595
47946040,-0.877,0.251,0.323,-17.762,17.29,10.08
47946050,-0.978,0.223,0.36,-6.86,6.282,6.09
47946060,-0.887,0.211,0.4,2.625,-4.777,2.905
47946070,-0.875,0.206,0.453,9.397,-9.31,1.452
47946080,-0.821,0.223,0.508,11.725,-11.077,-0.402
47946090,-0.783,0.231,0.531,13.195,-9.17,-1.697
47946100,-0.767,0.247,0.544,14.542,-3.115,-4.497
47946110,-0.818,0.264,0.532,16.1,3.762,-7.21
47946120,-0.869,0.261,0.485,17.062,6.51,-9.607
47946130,-0.898,0.254,0.451,20.44,6.755,-10.832
47946140,-0.942,0.262,0.413,24.885,3.255,-11.532
47946150,-1.009,0.198,0.349,28.927,-13.072,-14.332
47946160,-0.795,0.294,0.393,40.04,-32.742,-18.165
47946170,-0.864,0.392,0.523,40.915,-33.985,-19.25
47946180,-0.921,0.284,0.536,22.907,-24.325,-16.45
47946190,-0.811,0.194,0.519,14.927,-20.492,-11.042
47946200,-0.706,0.2,0.547,12.232,-12.74,-4.637
47946210,-0.839,0.208,0.575,7.262,-7.665,1.592
47946220,-0.788,0.232,0.558,-1.312,-12.215,8.487
47946230,-0.789,0.207,0.529,-10.29,-11.27,13.282
47946240,-0.817,0.244,0.53,-14.735,-8.837,16.222
47946250,-0.85,0.284,0.538,-21.822,-8.295,20.685
47946260,-0.818,0.245,0.503,-29.907,-9.922,26.04
47946260,-0.732,0.274,0.539,-29.925,-7,29.855
47946280,-0.798,0.331,0.626,-32.427,6.265,35.682
47946280,-0.952,0.28,0.589,-46.042,15.942,33.425
47946300,-0.631,0.237,0.569,-46.585,11.707,30.222
47946300,-0.724,0.362,0.586,-40.81,24.027,29.295
47946320,-0.831,0.283,0.535,-42.385,28.595,20.195
47946320,-0.805,0.313,0.482,-36.837,27.107,16.73
47946330,-0.928,0.337,0.434,-30.327,25.935,13.422
47946340,-0.915,0.276,0.346,-26.81,14.875,7.052
47946350,-0.847,0.232,0.297,-12.495,3.587,3.57
47946360,-0.942,0.243,0.356,4.69,-0.49,0.455
47946370,-0.971,0.202,0.389,12.67,-8.12,-2.555
47946380,-0.88,0.156,0.387,19.46,-16.502,-3.745
47946390,-0.784,0.15,0.413,30.065,-16.712,-6.912
47946400,-0.782,0.217,0.489,42.542,-7.14,-10.657
47946410,-0.865,0.264,0.51,47.372,-0.91,-13.615
47946420,-0.901,0.316,0.547,43.872,-0.437,-15.172
47946430,-1.178,0.277,0.489,30.975,-19.6,-13.79
47946440,-0.624,0.313,0.432,28.245,-59.272,-18.305
47946450,-0.702,0.465,0.573,35.647,-42.612,-16.94
47946460,-1.036,0.327,0.564,14.28,-24.36,-12.582
47946470,-0.729,0.209,0.528,3.097,-21.98,-9.082
47946480,-0.757,0.233,0.571,2.362,-15.837,-3.272
47946490,-0.757,0.251,0.592,-3.797,-14.577,0.525
47946500,-0.748,0.237,0.554,-11.112,-14.315,6.177
47946510,-0.781,0.248,0.537,-17.307,-8.365,10.605
47946520,-0.82,0.241,0.518,-22.872,-6.16,13.02
47946530,-0.826,0.254,0.507,-25.76,-5.39,17.43
47946540,-0.767,0.324,0.515,-29.925,-5.092,21.945
47946550,-0.764,0.284,0.552,-36.715,0.892,26.495
47946560,-0.766,0.268,0.595,-40.635,10.622,31.08
47946570,-0.723,0.281,0.585,-40.81,21.175,33.985
47946580,-0.707,0.261,0.552,-38.36,26.32,31.587
47946590,-0.716,0.291,0.554,-33.285,32.725,30.03
47946600,-1.01,0.285,0.464,-30.257,34.247,28.472
47946610,-0.861,0.213,0.354,-27.37,15.277,20.86
47946620,-0.866,0.279,0.39,-10.972,5.967,16.957
47946620,-0.954,0.3,0.449,-0.857,-0.017,10.587
47946640,-0.884,0.298,0.498,4.567,-8.627,2.59
47946640,-0.861,0.282,0.505,9.31,-12.74,-1.785
47946660,-0.797,0.253,0.468,16.992,-14.595,-5.11
47946660,-0.86,0.259,0.452,28.787,-14.647,-8.592
47946670,-0.866,0.23,0.424,40.6,-16.73,-15.872
47946680,-0.864,0.294,0.426,50.995,-15.802,-18.987
47946690,-0.955,0.319,0.426,51.047,-20.422,-19.04
47946700,-0.948,0.298,0.467,44.572,-29.05,-18.13
47946710,-1.05,0.251,0.455,35.367,-50.05,-18.952
47946720,-0.728,0.294,0.506,35.455,-79.73,-24.377
47946730,-0.685,0.403,0.609,40.022,-72.485,-21.49
47946740,-0.841,0.363,0.633,26.092,-61.53,-18.427
47946750,-0.65,0.26,0.622,13.335,-49.595,-11.83
47946760,-0.719,0.234,0.614,10.325,-32.917,-4.147
47946770,-0.679,0.267,0.623,7.157,-25.602,-0.98
47946780,-0.674,0.277,0.604,-0.367,-19.88,2.117
47946790,-0.754,0.266,0.587,-7.735,-12.635,4.9
47946800,-0.769,0.26,0.575,-11.9,-8.61,8.365
47946810,-0.749,0.279,0.569,-13.79,-5.53,11.515
47946820,-0.772,0.31,0.569,-16.87,-2.765,14.892
47946830,-0.781,0.307,0.563,-21.63,-1.225,18.077
47946840,-0.768,0.312,0.567,-23.8,-0.84,19.827
47946850,-0.73,0.324,0.587,-24.972,1.487,20.615
47946860,-0.708,0.333,0.618,-27.545,11.515,23.345
47946870,-0.803,0.289,0.6,-29.89,19.722,22.382
47946880,-0.739,0.277,0.586,-28.787,22.365,17.22
47946890,-0.832,0.327,0.577,-26.162,26.582,15.032
47946900,-0.833,0.288,0.543,-27.947,20.58,10.815
47946910,-0.775,0.261,0.508,-24.78,14.91,8.12
47946920,-0.771,0.284,0.516,-15.627,12.582,3.482
47946930,-0.795,0.277,0.504,-8.102,11.042,-2.45
47946940,-0.795,0.278,0.504,-1.452,9.59,-8.785
47946950,-0.837,0.26,0.508,4.34,11.462,-12.67
47946960,-0.826,0.24,0.503,11.322,12.267,-16.205
47946970,-0.817,0.229,0.495,19.425,11.83,-16.135
47946980,-0.783,0.238,0.48,28.035,9.502,-16.117
47946990,-0.825,0.269,0.485,33.88,9.975,-17.727
47947000,-0.876,0.296,0.499,33.197,7.647,-18.305
47947010,-0.899,0.316,0.508,26.985,0.857,-15.802
47947010,-0.902,0.311,0.508,16.835,-10.482,-12.617
47947030,-0.935,0.275,0.498,7.875,-25.13,-10.115
47947030,-0.792,0.263,0.513,5.302,-39.445,-10.657
47947050,-0.745,0.306,0.543,6.247,-36.365,-8.277
47947050,-0.813,0.33,0.595,0.157,-33.722,-5.355
47947070,-0.769,0.258,0.575,-9.59,-29.54,1.172
47947070,-0.749,0.264,0.569,-12.337,-26.67,3.132
47947080,-0.761,0.251,0.574,-13.055,-24.027,6.58
47947090,-0.773,0.266,0.588,-13.545,-20.615,5.862
47947100,-0.754,0.266,0.589,-13.895,-16.187,3.29
47947110,-0.742,0.266,0.587,-12.005,-11.007,3.132
47947120,-0.735,0.302,0.592,-9.415,-5.355,3.22
47947130,-0.737,0.321,0.593,-11.182,-0.385,2.8
47947140,-0.753,0.304,0.605,-14.542,3.517,2.38
47947150,-0.718,0.295,0.593,-16.537,5.565,3.062
47947160,-0.703,0.304,0.597,-14.857,10.902,3.64
47947170,-0.763,0.297,0.588,-13.422,15.96,2.012
47947180,-0.782,0.28,0.578,-12.145,20.877,-2.607
47947190,-0.821,0.279,0.548,-8.645,26.81,-9.152
47947200,-0.854,0.242,0.508,-4.182,30.782,-13.177
47947210,-0.833,0.256,0.488,4.55,31.64,-17.692
47947220,-0.917,0.239,0.485,11.147,28.752,-21.98
47947230,-0.923,0.217,0.466,18.812,24.465,-29.4
47947240,-0.872,0.188,0.423,30.852,23.66,-42.21
47947250,-0.887,0.181,0.414,46.095,25.007,-53.672
47947260,-0.885,0.249,0.438,55.842,22.312,-60.725
47947270,-0.897,0.243,0.416,54.53,18.795,-65.485
47947280,-1.058,0.173,0.405,52.797,8.522,-64.155
47947290,-0.943,0.237,0.371,56.7,-17.377,-61.302
47947300,-0.683,0.297,0.4,54.67,-37.117,-54.145
47947310,-0.844,0.281,0.494,41.65,-30.765,-38.185
47947320,-1.006,0.237,0.586,22.82,-30.922,-20.737
47947330,-0.878,0.229,0.647,3.832,-37.66,-13.282
47947330,-0.736,0.249,0.647,-14.105,-42.385,-4.095
47947350,-0.662,0.193,0.646,-29.382,-42.56,14.385
47947350,-0.524,0.137,0.598,-40.215,-41.16,29.33
47947370,-0.401,0.094,0.616,-34.597,-29.715,37.45
47947370,-0.379,0.164,0.662,-24.027,-10.045,45.92
47947390,-0.44,0.212,0.702,-23.275,15.277,46.9
47947390,-0.627,0.173,0.686,-31.167,44.31,39.025
47947410,-0.896,0.188,0.639,-34.982,66.43,33.547
47947410,-1.109,0.182,0.557,-31.185,69.667,38.867
47947420,-1.196,0.246,0.453,-30.415,57.067,31.115
47947430,-1.078,0.182,0.309,-29.382,35.735,18.252
47947440,-0.974,0.207,0.254,-13.247,23.537,10.465
47947450,-0.981,0.253,0.231,3.535,10.132,3.027
47947460,-0.929,0.285,0.276,20.405,-9.642,-4.952
47947470,-0.866,0.316,0.361,36.487,-22.942,-7.105
47947480,-0.945,0.331,0.462,47.04,-24.797,-10.92
47947490,-0.953,0.349,0.531,51.835,-25.812,-20.3
47947500,-0.878,0.357,0.549,53.165,-24.885,-29.26
47947510,-0.932,0.35,0.52,50.417,-25.165,-34.387
47947520,-0.885,0.35,0.43,47.075,-48.947,-37.047
47947530,-0.598,0.375,0.45,47.215,-59.377,-33.267
47947540,-0.776,0.325,0.513,42.332,-51.572,-27.265
47947550,-0.792,0.312,0.593,33.792,-40.565,-20.842
47947560,-0.845,0.245,0.635,22.102,-29.68,-16.205
47947570,-0.769,0.223,0.651,9.887,-20.72,-11.602
47947580,-0.747,0.209,0.66,-1.417,-17.167,-3.675
47947590,-0.688,0.182,0.654,-13.037,-19.18,7.297
47947600,-0.592,0.136,0.62,-20.475,-18.41,16.747
47947610,-0.57,0.134,0.639,-21.07,-5.757,23.975
47947620,-0.666,0.161,0.643,-21.245,4.497,29.347
47947630,-0.645,0.173,0.618,-23.52,12.302,29.645
47947640,-0.698,0.202,0.601,-22.767,27.142,28.297
47947650,-0.928,0.23,0.623,-21.647,45.657,27.09
47947660,-1,0.27,0.58,-24.675,46.55,22.557
47947670,-0.944,0.239,0.483,-27.79,39.112,18.882
47947680,-0.916,0.252,0.439,-21.42,28.157,12.67
47947690,-0.912,0.235,0.373,-12.757,17.99,4.742
47947700,-0.976,0.25,0.31,3.727,4.742,-4.777
47947710,-0.981,0.292,0.276,23.047,-12.145,-13.405
47947720,-0.938,0.306,0.276,37.45,-26.285,-19.407
47947730,-0.902,0.307,0.324,50.102,-27.3,-23.047
47947740,-0.953,0.312,0.392,61.705,-26.897,-28.21
47947750,-1,0.321,0.417,70.525,-35.91,-36.137
47947760,-0.807,0.407,0.441,76.93,-58.047,-42.087
47947760,-0.701,0.439,0.52,75.705,-63.647,-41.37
47947780,-0.792,0.397,0.592,64.05,-52.307,-36.627
47947780,-0.868,0.302,0.618,49.91,-39.025,-31.71
47947800,-0.806,0.23,0.638,38.342,-31.325,-27.335
47947800,-0.756,0.218,0.643,29.907,-25.322,-21.857
47947820,-0.729,0.198,0.635,20.055,-26.337,-15.067
47947820,-0.649,0.196,0.647,10.885,-29.785,-6.527
47947830,-0.582,0.228,0.674,0.612,-29.522,3.955
47947840,-0.518,0.181,0.682,-12.355,-23.572,17.902
47947850,-0.546,0.112,0.688,-19.215,-11.06,28.647
47947860,-0.664,0.124,0.664,-18.935,-0.91,28.507
47947870,-0.693,0.208,0.637,-13.632,10.027,22.33
47947880,-0.791,0.3,0.612,-10.325,21.402,22.172
47947890,-0.91,0.286,0.586,-13.317,32.445,20.65
47947900,-0.957,0.288,0.517,-15.697,33.092,16.135
47947910,-0.873,0.299,0.45,-14.07,25.34,12.355
47947920,-0.863,0.306,0.426,-8.067,17.727,9.8
47947930,-0.884,0.336,0.414,-0.84,6.02,6.475
47947940,-0.862,0.375,0.436,8.26,-7.455,0.07
47947950,-0.89,0.411,0.515,13.457,-16.03,-5.932
47947960,-0.931,0.354,0.523,13.282,-20.02,-12.425
47947970,-0.866,0.286,0.491,17.255,-19.232,-22.487
47947980,-0.851,0.314,0.491,27.632,-17.167,-31.552
47947990,-0.856,0.307,0.479,32.882,-18.375,-36.61
47948000,-0.823,0.273,0.473,34.65,-20.825,-38.027
47948010,-0.82,0.257,0.49,35.28,-20.44,-36.89
47948020,-0.822,0.234,0.502,33.267,-21.945,-34.79
47948030,-0.772,0.239,0.495,30.747,-31.377,-30.292
47948040,-0.676,0.239,0.551,28.962,-35.612,-23.625
47948050,-0.782,0.212,0.608,25.585,-28.875,-17.762
47948060,-0.742,0.233,0.628,21.875,-28.717,-13.002
47948070,-0.664,0.226,0.648,17.08,-19.127,-8.977
47948080,-0.703,0.257,0.644,11.042,-9.782,-3.622
47948080,-0.615,0.273,0.632,3.937,-7.175,4.812
47948100,-0.6,0.219,0.607,-0.752,-1.295,11.217
47948100,-0.703,0.239,0.605,0.21,7.735,15.627
47948120,-0.791,0.301,0.636,-0.945,10.132,17.622
47948120,-0.807,0.308,0.619,-7.682,7.525,20.247
47948140,-0.807,0.321,0.61,-13.772,6.51,22.575
47948140,-0.854,0.317,0.602,-19.845,6.037,23.292
47948160,-0.827,0.295,0.561,-22.907,3.692,19.827
47948160,-0.808,0.298,0.527,-21.542,4.865,15.365
47948170,-0.792,0.301,0.517,-18.497,6.79,12.722
47948180,-0.797,0.285,0.512,-16.695,9.502,12.075
47948190,-0.806,0.245,0.523,-15.592,14.577,12.425
47948200,-0.827,0.224,0.524,-14.07,18.69,12.565
47948210,-0.76,0.179,0.487,-13.16,17.78,14
47948220,-0.707,0.166,0.474,-7.63,19.53,17.43
47948230,-0.717,0.223,0.481,0.385,18.235,20.877
47948240,-0.766,0.285,0.543,7.455,19.775,21.42
47948250,-0.884,0.335,0.546,9.415,19.81,18.567
47948260,-0.894,0.377,0.532,9.922,15.575,12.477
47948270,-0.939,0.39,0.52,9.555,10.395,4.795
47948280,-0.906,0.377,0.497,7.367,2.327,-0.822
47948290,-0.881,0.352,0.494,7,-5.477,-6.615
47948300,-0.843,0.327,0.505,8.382,-11.252,-12.372
47948310,-0.784,0.317,0.518,10.255,-13.037,-16.957
47948320,-0.778,0.269,0.512,11.165,-12.005,-18.497
47948330,-0.795,0.224,0.489,15.592,-9.677,-19.565
47948340,-0.951,0.256,0.451,21.665,-19.53,-20.79
47948350,-0.749,0.312,0.458,24.675,-40.565,-21.21
47948360,-0.828,0.32,0.533,28.49,-34.44,-22.365
47948370,-0.926,0.32,0.561,23.502,-28.647,-18.935
47948380,-0.751,0.278,0.544,15.592,-29.802,-16.012
47948390,-0.714,0.237,0.59,12.162,-20.335,-12.652
47948400,-0.771,0.279,0.607,8.627,-15.33,-5.617
47948410,-0.668,0.256,0.598,0.595,-16.275,1.75
47948420,-0.673,0.229,0.59,-5.635,-12.232,9.817
47948430,-0.752,0.228,0.577,-10.15,-6.562,17.605
47948440,-0.76,0.239,0.575,-13.107,-3.377,22.172
47948450,-0.758,0.279,0.576,-14.805,-0.367,28.087
47948460,-0.766,0.292,0.578,-17.272,1.47,32.777
47948470,-0.739,0.333,0.599,-18.987,5.372,31.727
47948480,-0.759,0.347,0.633,-21.28,15.785,27.002
47948490,-0.772,0.344,0.626,-23.485,25.025,22.085
47948500,-0.735,0.34,0.598,-25.865,30.502,18.147
47948510,-0.714,0.328,0.56,-26.897,33.582,16.135
47948510,-0.776,0.31,0.504,-24.482,36.242,11.41
47948530,-0.825,0.3,0.45,-17.57,29.627,7.857
47948530,-0.909,0.309,0.378,-7.665,18.357,2.975
47948550,-0.975,0.325,0.393,2.642,5.845,-5.075
47948550,-1.046,0.351,0.447,8.365,-8.697,-10.657
47948570,-0.935,0.292,0.478,7.262,-23.047,-13.265
47948570,-0.791,0.288,0.527,8.417,-30.012,-14.717
47948580,-0.702,0.276,0.564,10.01,-25.76,-16.642
47948590,-0.678,0.251,0.565,12.967,-14.49,-18.34
47948600,-0.688,0.234,0.523,18.2,-2.747,-20.02
47948610,-0.776,0.27,0.538,24.832,4.462,-21.752
47948620,-0.908,0.285,0.538,25.375,1.295,-20.737
47948630,-0.902,0.273,0.434,23.1,-19.67,-19.757
47948640,-0.72,0.297,0.484,28,-27.615,-19.075
47948650,-0.913,0.349,0.534,30.065,-24.255,-20.177
47948660,-0.815,0.303,0.512,23.485,-27.422,-17.167
47948670,-0.771,0.299,0.525,21.367,-26.005,-16.065
47948680,-0.786,0.291,0.584,17.622,-18.865,-11.48
47948690,-0.826,0.277,0.587,9.625,-17.447,-6.125
47948700,-0.702,0.247,0.599,0.98,-18.83,0.175
47948710,-0.698,0.23,0.596,-5.18,-15.75,6.37
47948720,-0.699,0.227,0.6,-8.522,-11.147,12.145
47948730,-0.726,0.25,0.613,-10.43,-5.215,15.417
47948740,-0.756,0.278,0.602,-12.792,-0.192,17.535
47948750,-0.771,0.316,0.584,-15.785,3.062,18.252
47948760,-0.781,0.332,0.573,-19.232,4.427,18.217
47948770,-0.776,0.341,0.572,-20.912,6.58,17.307
47948780,-0.724,0.361,0.594,-20.352,11.427,15.365
47948790,-0.751,0.339,0.617,-21.595,22.907,12.722
47948800,-0.758,0.323,0.581,-22.802,27.37,9.52
47948810,-0.687,0.348,0.587,-23.572,30.065,9.922
47948820,-0.798,0.276,0.549,-24.465,32.795,8.12
47948830,-0.7,0.287,0.52,-20.702,31.412,7.367
47948830,-0.847,0.238,0.479,-14.402,35.402,4.847
47948850,-0.863,0.245,0.424,-6.755,29.505,3.377
47948850,-0.889,0.217,0.381,1.47,22.085,2.362
47948870,-0.945,0.248,0.426,9.555,14.77,-0.385
47948870,-0.91,0.249,0.476,10.937,5.162,-0.35
47948890,-0.803,0.206,0.495,11.637,1.452,-0.437
47948890,-0.71,0.199,0.503,17.85,4.375,-0.35
47948910,-0.667,0.192,0.52,26.005,14.262,-1.015
47948910,-0.655,0.181,0.559,35.437,28.437,-0.717
47948920,-0.727,0.204,0.611,45.657,42.805,1.522
47948930,-0.582,0.288,0.621,56.385,53.042,2.747
47948940,-0.496,0.288,0.702,61.355,85.907,5.635
47948950,-0.69,0.207,0.602,72.59,137.515,10.01
47948960,-0.744,0.299,0.511,82.757,168.017,11.865
47948970,-0.84,0.305,0.392,83.335,176.855,10.78
47948980,-1,0.327,0.273,84.735,174.965,3.027
47948990,-1.097,0.348,0.181,81.462,152.985,-1.487
47949000,-1.122,0.419,0.126,72.52,125.002,-3.692
47949010,-1.126,0.437,0.104,60.917,95.252,-2.397
47949020,-1.081,0.447,0.116,47.547,68.687,0.84
47949030,-1.066,0.432,0.152,36.907,46.707,5.232
47949040,-1.031,0.408,0.18,29.855,28.052,8.452
47949050,-0.971,0.388,0.197,26.547,13.527,11.147
47949060,-0.937,0.387,0.191,24.972,1.977,12.862
47949070,-0.9,0.424,0.211,23.905,-5.092,10.972
47949080,-0.88,0.464,0.231,16.502,-8.592,7.472
47949090,-0.898,0.471,0.225,4.077,-10.045,2.415
47949100,-0.915,0.45,0.219,-9.397,-11.847,-3.08
47949110,-0.945,0.415,0.221,-21.385,-15.96,-6.125
47949120,-0.961,0.401,0.231,-30.31,-22.4,-6.125
47949130,-0.947,0.397,0.242,-38.43,-27.737,-4.27
47949140,-0.92,0.374,0.25,-47.215,-31.832,-3.412
47949150,-0.925,0.325,0.265,-52.097,-35.262,-4.305
47949160,-0.918,0.304,0.297,-49.052,-39.252,-4.795
47949170,-0.874,0.319,0.336,-42.175,-39.48,-3.657
47949180,-0.862,0.362,0.376,-36.767,-37.012,-3.85
47949190,-0.835,0.347,0.368,-36.277,-33.442,-5.232
47949200,-0.857,0.345,0.357,-34.545,-29.242,-5.407
47949210,-0.886,0.337,0.327,-34.86,-25.217,-4.305
47949220,-0.909,0.27,0.294,-34.317,-24.132,-1.855
47949230,-0.89,0.254,0.284,-28.315,-21.892,2.327
47949240,-0.869,0.251,0.295,-20.265,-17.027,5.687
47949250,-0.895,0.277,0.329,-13.247,-11.357,7.017
47949260,-0.883,0.296,0.349,-7.927,-11.077,8.785
47949260,-0.851,0.337,0.359,-4.147,-10.395,7.98
47949280,-0.88,0.358,0.37,-3.115,-10.167,5.145
47949280,-0.947,0.377,0.347,-7.455,-15.732,3.797
47949300,-0.883,0.308,0.287,-10.342,-19.985,1.732
47949300,-0.936,0.312,0.277,-6.947,-19.862,1.4
47949320,-0.968,0.345,0.315,-5.477,-23.87,1.487
47949320,-0.929,0.354,0.339,-5.897,-30.502,2.52
47949330,-0.886,0.373,0.345,-7.647,-35.822,1.627
47949340,-0.862,0.365,0.362,-10.027,-38.465,-1.172
47949350,-0.846,0.359,0.379,-10.832,-38.57,-4.847
47949360,-0.854,0.331,0.389,-10.132,-36.487,-8.68
47949370,-0.866,0.317,0.399,-7.612,-35.21,-11.182
47949380,-0.873,0.332,0.398,-4.672,-35.332,-11.655
47949390,-0.902,0.332,0.381,-5.127,-37.205,-11.27
47949400,-0.951,0.305,0.36,-7.297,-42.367,-10.062
47949410,-0.961,0.296,0.35,-7.35,-52.5,-8.61
47949420,-0.945,0.301,0.358,-6.3,-65.082,-7.035
47949430,-0.898,0.326,0.39,-6.265,-74.76,-7
47949440,-0.884,0.323,0.423,-7.787,-80.045,-7.77
47949450,-0.873,0.297,0.437,-9.537,-83.685,-7.595
47949460,-0.658,0.295,0.525,-11.025,-77.507,-5.687
47949470,-0.782,0.24,0.579,-9.152,-51.152,3.062
47949480,-0.589,0.283,0.561,-1.242,-37.1,2.765
47949490,-0.648,0.282,0.544,-1.417,-19.495,0.245
47949500,-0.765,0.295,0.518,-0.14,-5.827,-2.66
47949510,-0.828,0.3,0.464,0.087,1.102,-0.315
47949520,-0.913,0.301,0.437,-0.017,-0.595,0.332
47949530,-0.919,0.308,0.427,-1.137,-7.595,1.645
47949540,-0.921,0.317,0.433,-2.187,-17.745,4.795
47949550,-0.89,0.32,0.459,-3.78,-26.162,9.24
47949560,-0.78,0.331,0.51,-6.177,-28.84,11.9
47949570,-0.677,0.328,0.539,-7.245,-22.452,11.707
47949580,-0.629,0.342,0.559,-6.527,-10.097,6.86
47949580,-0.69,0.325,0.559,-5.302,5.635,1.032
47949600,-0.768,0.327,0.542,-3.43,18.235,-0.892
47949600,-0.831,0.339,0.5,-5.11,25.077,-2.38
47949620,-0.903,0.314,0.455,-9.38,22.89,-1.452
47949620,-0.899,0.329,0.424,-11.725,16.187,2.94
47949640,-0.918,0.384,0.46,-17.797,9.957,7.122
47949640,-0.937,0.316,0.459,-31.115,-3.185,12.145
47949660,-0.781,0.205,0.428,-35.56,-8.697,13.79
47949660,-0.797,0.291,0.499,-26.057,-3.622,12.162
47949670,-0.8,0.315,0.545,-23.17,-2.03,9.94
47949680,-0.777,0.272,0.52,-22.19,-3.167,9.17
47949690,-0.779,0.279,0.502,-16.922,-0.682,6.807
47949700,-0.794,0.225,0.459,-9.572,0.455,3.08
47949710,-0.787,0.287,0.428,2.835,3.342,0.332
47949720,-0.935,0.342,0.448,8.435,5.127,-3.15
47949730,-0.94,0.322,0.445,6.58,-2.485,-5.215
47949740,-0.907,0.298,0.45,6.317,-10.202,-4.987
47949750,-0.874,0.261,0.453,9.222,-16.992,-4.917
47949760,-0.782,0.288,0.488,14.84,-22.575,-5.862
47949770,-0.797,0.292,0.514,18.987,-19.967,-7.507
47949780,-0.771,0.265,0.516,22.26,-16.117,-9.24
47949790,-0.734,0.3,0.516,26.792,-8.19,-9.625
47949800,-0.828,0.294,0.516,26.495,-0.385,-10.325
47949810,-0.804,0.29,0.501,25.445,-1.557,-10.5
47949820,-0.811,0.38,0.495,23.24,-0.542,-8.155
47949830,-0.861,0.326,0.464,12.04,0.402,-5.862
47949840,-0.853,0.348,0.455,4.707,-1.435,-2.03
47949850,-0.859,0.334,0.469,-3.99,-5.145,2.8
47949860,-0.852,0.303,0.482,-10.22,-10.972,7.962
47949870,-0.846,0.335,0.498,-15.032,-15.382,12.775
47949880,-0.87,0.309,0.488,-21.612,-20.51,15.33
47949890,-0.806,0.35,0.465,-25.305,-23.555,15.96
47949900,-0.846,0.42,0.474,-33.442,-23.047,16.765
47949910,-0.912,0.329,0.479,-44.87,-25.76,18.62
47949920,-0.824,0.302,0.485,-46.55,-33.635,18.217
47949930,-0.699,0.385,0.514,-42.437,-32.532,19.88
47949940,-0.802,0.377,0.572,-47.95,-26.057,20.072
47949950,-0.811,0.054,0.599,-48.825,-33.005,14.07
47949960,-0.489,0.35,0.661,-21.402,-26.25,12.67
47949970,-0.655,0.414,0.68,-19.792,-10.43,11.655
47949980,-0.722,0.225,0.591,-28.525,-0.612,5.652
47949990,-0.725,0.267,0.522,-23.73,8.522,4.515
47950000,-0.827,0.254,0.48,-18.077,12.67,2.17
47950010,-0.892,0.214,0.429,-11.725,11.375,0.98
47950010,-0.888,0.215,0.406,-1.785,8.645,0.385
47950020,-0.93,0.275,0.461,6.16,4.042,0.157
47950030,-0.895,0.258,0.486,7.157,-7.227,2.327
47950040,-0.813,0.257,0.506,9.817,-12.967,2.572
47950050,-0.772,0.277,0.528,14.017,-13.842,1.557
47950060,-0.757,0.28,0.537,17.482,-11.077,-1.102
47950070,-0.766,0.291,0.548,21.822,-7,-4.497
47950080,-0.768,0.313,0.544,25.83,-2.397,-7.98
47950090,-0.763,0.296,0.523,29.172,3.15,-11.672
47950100,-0.864,0.284,0.551,34.16,3.99,-15.155
47950110,-0.797,0.277,0.546,40.827,-4.13,-18.217
47950120,-0.691,0.342,0.535,47.46,-5.022,-20.615
47950130,-0.821,0.363,0.544,46.025,-0.875,-21.682
47950140,-0.815,0.337,0.523,38.657,-4.287,-21.052
47950150,-0.812,0.365,0.517,31.64,-4.2,-16.607
47950160,-0.88,0.321,0.512,21.07,-8.627,-11.952
47950170,-0.775,0.352,0.491,11.532,-10.57,-6.51
47950180,-0.87,0.308,0.509,0.14,-11.095,-1.767
47950190,-0.784,0.286,0.53,-6.405,-15.452,2.887
47950200,-0.745,0.313,0.546,-8.995,-16.222,8.295
47950210,-0.767,0.308,0.565,-13.475,-13.597,11.585
47950220,-0.764,0.304,0.558,-17.815,-11.13,12.792
47950230,-0.747,0.331,0.558,-20.51,-7.91,14.105
47950240,-0.747,0.346,0.554,-24.325,-4.725,17.15
47950250,-0.672,0.409,0.522,-29.715,1.277,19.915
47950260,-0.703,0.573,0.532,-46.637,18.62,25.025
47950270,-1.041,0.314,0.518,-75.092,24.605,28.507
47950280,-0.981,0.242,0.514,-81.637,15.487,33.827
47950290,-1.023,-0.142,0.524,-71.837,-13.475,28.087
47950300,-0.388,0.216,0.547,-24.062,-24.045,21.297
47950310,-0.673,0.488,0.591,-7.717,-5.565,16.695
47950320,-0.828,0.171,0.5,-17.465,1.925,0.822
47950330,-0.823,0.272,0.452,-0.175,4.34,2.817
47950330,-0.877,0.289,0.459,9.59,-0.507,5.215
47950350,-0.886,0.261,0.477,12.547,-6.247,4.007
47950350,-0.78,0.276,0.512,17.115,-8.942,2.572
47950370,-0.671,0.304,0.578,23.765,-2.922,2.975
47950370,-0.64,0.287,0.617,28.122,8.137,2.555
47950390,-0.589,0.205,0.678,33.162,25.62,0.717
47950390,-0.634,0.176,0.705,50.207,42,-2.555
47950410,-0.421,0.187,0.708,75.197,57.837,-11.042
47950410,-0.381,0.293,0.73,96.652,103.74,-13.702
47950420,-0.663,0.308,0.652,110.565,155.452,-10.85
47950430,-0.785,0.281,0.479,115.92,175.087,-14.612
47950440,-0.873,0.345,0.359,120.89,170.782,-21.297
47950450,-1.005,0.41,0.277,115.062,153.317,-28.367
47950460,-1.107,0.446,0.226,100.03,128.607,-32.007
47950470,-1.061,0.446,0.182,81.147,101.727,-31.552
47950480,-1.058,0.429,0.149,62.685,79.642,-27.51
47950490,-1.059,0.417,0.131,46.13,61.67,-22.75
47950500,-1.038,0.43,0.149,31.78,46.742,-18.235
47950510,-0.981,0.478,0.17,17.657,37.572,-16.012
47950520,-0.956,0.45,0.179,2.03,32.34,-14.84
47950530,-0.918,0.417,0.206,-10.185,30.38,-16.677
47950540,-0.905,0.391,0.245,-14.577,27.212,-20.597
47950550,-0.896,0.391,0.291,-14.227,24.657,-23.852
47950560,-0.885,0.375,0.297,-13.125,21.787,-25.76
47950570,-0.901,0.375,0.297,-12.005,22.452,-26.232
47950580,-0.936,0.366,0.28,-14.315,21.7,-24.395
47950590,-0.966,0.368,0.262,-21.227,18.48,-21.297
47950600,-0.984,0.374,0.233,-34.055,11.602,-16.94
47950610,-0.989,0.296,0.186,-49.105,2.852,-13.405
47950620,-0.984,0.198,0.163,-56.14,-5.687,-10.15
47950630,-1.005,0.191,0.19,-53.217,-12.075,-6.405
47950640,-1.035,0.199,0.217,-46.165,-22.085,-2.362
47950650,-0.993,0.222,0.24,-38.692,-34.545,0.42
47950660,-0.956,0.296,0.273,-32.935,-45.902,2.38
47950670,-0.931,0.319,0.273,-34.055,-52.43,4.462
47950680,-0.915,0.331,0.319,-38.115,-53.9,5.005
47950690,-0.819,0.273,0.284,-43.365,-52.99,7.735
47950700,-0.813,0.221,0.279,-39.567,-45.167,10.115
47950710,-0.823,0.242,0.309,-31.377,-31.482,11.2
47950710,-0.896,0.247,0.327,-24.097,-18.602,10.937
47950730,-0.936,0.256,0.329,-17.535,-13.002,10.29
47950730,-0.913,0.273,0.321,-11.917,-14.087,10.832
47950750,-0.913,0.319,0.328,-9.572,-16.012,11.655
47950750,-0.974,0.366,0.346,-15.137,-26.127,14.63
47950760,-0.922,0.269,0.287,-21.297,-33.565,14.945
47950770,-0.914,0.275,0.302,-20.177,-34.597,10.762
47950780,-0.926,0.294,0.349,-18.777,-32.952,8.452
47950790,-0.918,0.275,0.367,-16.957,-33.932,9.047
47950800,-0.878,0.273,0.38,-13.317,-33.477,9.712
47950810,-0.855,0.278,0.39,-9.747,-31.272,9.38
47950820,-0.846,0.274,0.398,-5.81,-27.247,8.435
47950830,-0.85,0.288,0.4,-2.572,-22.82,8.54
47950840,-0.852,0.293,0.41,-1.522,-17.5,8.435
47950850,-0.833,0.296,0.42,-1.155,-10.675,8.382
47950860,-0.828,0.29,0.422,-0.91,-2.327,10.552
47950870,-0.821,0.303,0.419,-0.84,5.705,12.635
47950880,-0.817,0.298,0.41,-0.91,13.842,14.63
47950890,-0.821,0.312,0.406,-1.907,21.612,16.205
47950900,-0.887,0.296,0.397,-3.727,27.195,16.887
47950910,-0.936,0.282,0.355,-4.532,28.105,15.067
47950920,-0.926,0.27,0.334,-0.98,23.94,11.112
47950930,-0.931,0.287,0.326,4.987,17.762,8.085
47950940,-0.93,0.32,0.332,11.322,11.007,4.672
47950950,-0.913,0.356,0.339,15.4,4.83,1.767
47950960,-0.912,0.396,0.329,14.875,-0.665,-0.577
47950970,-0.939,0.402,0.303,8.172,-5.757,-3.447
47950980,-0.983,0.366,0.286,0.49,-14.332,-5.337
47950990,-0.986,0.345,0.291,-3.762,-25.882,-5.88
47951000,-0.967,0.339,0.303,-6.685,-39.2,-6.195
47951010,-0.96,0.313,0.323,-10.062,-50.435,-5.407
47951020,-0.929,0.315,0.343,-12.705,-60.06,-4.147
47951030,-0.925,0.302,0.382,-13.317,-65.765,-1.382
47951040,-0.892,0.289,0.396,-14.385,-69.825,0.56
47951050,-0.835,0.29,0.422,-12.88,-69.352,-0.542
47951060,-0.83,0.27,0.442,-10.15,-66.57,-4.06
47951070,-0.795,0.265,0.455,-3.972,-61.547,-6.965
47951080,-0.758,0.285,0.466,2.852,-56.14,-8.82
47951080,-0.752,0.297,0.475,7.507,-48.317,-9.677
47951100,-0.754,0.319,0.488,9.73,-37.87,-7.525
47951100,-0.786,0.321,0.492,8.645,-24.43,-3.622
47951120,-0.805,0.304,0.483,6.667,-15.942,-2.467
47951120,-0.796,0.295,0.457,4.795,-11.83,-1.645
47951140,-0.84,0.267,0.436,5.04,-11.34,-1.12
47951140,-0.882,0.252,0.427,8.295,-13.842,-0.91
47951160,-0.944,0.233,0.401,15.032,-22.89,-1.557
47951160,-0.921,0.274,0.41,24.622,-34.37,-2.94
47951170,-0.921,0.334,0.42,29.715,-43.102,-1.68
47951180,-0.92,0.368,0.433,27.44,-49.507,0.297
47951190,-0.887,0.375,0.428,19.057,-55.352,3.955
47951200,-0.884,0.36,0.436,8.312,-57.715,11.392
47951210,-0.894,0.323,0.484,-2.275,-62.492,17.08
47951220,-0.799,0.328,0.521,-9.205,-67.655,23.152
47951230,-0.765,0.337,0.544,-15.68,-67.13,29.89
47951240,-0.736,0.33,0.529,-21.927,-63.21,32.55
47951250,-0.733,0.339,0.533,-27.912,-56.892,30.852
47951260,-0.719,0.321,0.536,-30.187,-50.767,25.725
47951270,-0.717,0.355,0.563,-28.682,-41.247,23.835
47951280,-0.668,0.386,0.559,-31.202,-32.112,22.54
47951290,-0.71,0.386,0.564,-37.975,-19.477,22.015
47951300,-0.755,0.341,0.567,-44.222,-14.7,24.115
47951310,-0.723,0.314,0.561,-46.882,-10.71,28.91
47951320,-0.724,0.287,0.566,-46.375,-5.302,24.955
47951330,-0.775,0.261,0.558,-41.037,-4.427,22.925
47951340,-0.767,0.32,0.592,-32.287,-7.787,20.825
47951350,-0.79,0.283,0.601,-28.647,-12.25,15.995
47951360,-0.755,0.28,0.608,-20.982,-17.92,13.65
47951370,-0.674,0.261,0.605,-10.71,-20.877,10.727
47951380,-0.63,0.314,0.61,0.577,-15.172,5.827
47951390,-0.671,0.298,0.6,4.112,-6.265,1.242
47951400,-0.722,0.271,0.58,7.28,-0.56,-1.557
47951410,-0.737,0.306,0.57,11.322,3.045,-0.77
47951420,-0.757,0.326,0.555,13.125,3.027,0.455
47951420,-0.807,0.331,0.554,13.58,0.717,1.662
47951440,-0.821,0.318,0.563,13.65,-7.28,1.4
47951440,-0.798,0.305,0.568,17.85,-16.17,1.295
47951460,-0.734,0.36,0.598,22.662,-19.215,1.207
47951460,-0.68,0.365,0.621,21.997,-15.942,-0.087
47951480,-0.599,0.384,0.618,18.252,-3.29,-2.275
47951480,-0.617,0.342,0.646,12.74,13.562,-4.55
47951500,-0.513,0.325,0.651,12.792,30.625,-8.995
47951500,-0.514,0.358,0.653,14.245,54.092,-12.775
47951510,-0.595,0.279,0.642,14.822,74.987,-17.745
47951520,-0.652,0.274,0.615,21.577,92.452,-20.93
47951530,-0.719,0.281,0.582,28.332,104.982,-21.77
47951540,-0.746,0.283,0.528,33.775,113.032,-24.045
47951550,-0.763,0.298,0.479,37.66,122.482,-19.582
47951560,-0.793,0.326,0.469,42.227,138.967,-11.97
47951570,-0.87,0.351,0.446,43.085,150.36,-9.187
47951580,-0.88,0.355,0.4,40.845,149.695,-8.925
47951590,-0.93,0.386,0.348,38.535,140.14,-10.062
47951600,-0.999,0.432,0.321,32.515,125.807,-12.582
47951610,-1.027,0.439,0.29,22.47,106.05,-13.632
47951620,-0.997,0.427,0.237,13.475,84.822,-13.842
47951630,-0.963,0.456,0.217,4.795,68.005,-17.115
47951640,-1.014,0.538,0.297,-8.47,53.55,-24.587
47951650,-1.045,0.585,0.353,-33.477,30.537,-29.137
47951660,-1.067,0.537,0.351,-63.7,1.995,-31.762
47951670,-1.018,0.413,0.314,-87.657,-21.105,-35.822
47951680,-0.952,0.288,0.301,-94.325,-32.847,-39.357
47951690,-0.947,0.227,0.32,-88.252,-34.877,-38.482
47951700,-0.938,0.198,0.351,-75.005,-33.04,-31.185
47951710,-0.861,0.215,0.383,-59.64,-29.032,-23.205
47951720,-0.848,0.26,0.402,-48.79,-23.8,-18.41
47951730,-0.827,0.29,0.417,-45.202,-20.16,-15.33
47951740,-0.807,0.286,0.405,-44.782,-20.387,-7.577
47951750,-0.793,0.302,0.415,-45.692,-20.86,-1.697
47951760,-0.734,0.25,0.381,-47.092,-21.84,2.835
47951770,-0.709,0.232,0.364,-42.682,-14.367,6.562
47951780,-0.74,0.161,0.325,-37.012,-1.61,16.117
47951790,-0.828,0.097,0.305,-26.127,12.705,29.855
47951800,-0.892,0.094,0.282,-9.327,22.295,39.515
47951810,-0.917,0.113,0.258,8.295,28.927,39.672
47951820,-0.951,0.12,0.272,23.905,32.287,35.332
47951830,-0.906,0.215,0.314,35.595,27.737,34.265
47951830,-0.867,0.293,0.338,38.185,18.55,39.13
47951850,-0.845,0.297,0.333,30.397,15.505,42
47951850,-0.913,0.322,0.322,17.972,22.522,38.902
47951870,-1.041,0.321,0.305,3.29,34.195,29.522
47951870,-1.109,0.275,0.268,-8.522,38.622,20.335
47951890,-1.124,0.25,0.242,-11.62,32.97,17.745
47951890,-1.046,0.23,0.233,-8.207,16.572,18.165
47951910,-1.006,0.272,0.257,-2.38,-2.59,16.432
47951910,-0.975,0.307,0.286,0.735,-20.317,13.772
47951920,-0.953,0.328,0.314,0.122,-32.69,10.08
47951930,-0.942,0.342,0.335,-2.327,-41.142,6.09
47951940,-0.913,0.334,0.342,-5.302,-45.832,3.605
47951950,-0.887,0.315,0.357,-6.702,-47.075,1.855
47951960,-0.874,0.307,0.374,-5.04,-46.007,1.785
47951970,-0.87,0.309,0.384,-2.45,-44.03,1.907
47951980,-0.872,0.304,0.381,0.262,-42.105,0.735
47951990,-0.866,0.3,0.379,3.535,-41.037,-0.28
47952000,-0.853,0.303,0.378,5.862,-39.725,-0.07
47952010,-0.871,0.313,0.39,6.877,-38.08,1.067
47952020,-0.865,0.319,0.4,6.107,-37.17,2.38
47952030,-0.861,0.331,0.414,3.867,-35.35,3.185
47952040,-0.858,0.337,0.433,0.56,-33.53,4.112
47952050,-0.847,0.329,0.433,-4.077,-32.305,4.41
47952060,-0.847,0.306,0.427,-6.3,-31.307,3.605
47952070,-0.838,0.298,0.436,-4.602,-29.207,2.047
47952080,-0.843,0.306,0.448,-1.54,-27.755,0.262
47952090,-0.85,0.315,0.451,0.805,-26.582,-2.065
47952100,-0.838,0.322,0.46,2.135,-25.742,-4.007
47952110,-0.817,0.325,0.446,1.907,-24.132,-4.987
47952120,-0.815,0.323,0.45,2.065,-21.875,-4.76
47952130,-0.812,0.321,0.451,1.312,-18.41,-4.567
47952140,-0.81,0.307,0.443,0.682,-15.225,-4.112
47952150,-0.834,0.294,0.442,1.68,-11.287,-3.815
47952160,-0.83,0.293,0.448,4.112,-9.152,-3.255
47952170,-0.835,0.302,0.451,6.44,-6.44,-2.152
47952170,-0.852,0.305,0.445,7.035,-5.232,-1.505
47952190,-0.856,0.314,0.441,6.037,-4.06,-0.367
47952190,-0.886,0.306,0.428,4.69,-5.005,0.752
47952210,-0.902,0.301,0.416,4.392,-8.4,1.12
47952210,-0.872,0.324,0.419,4.672,-12.88,0.402
47952230,-0.873,0.339,0.429,3.167,-14.98,-1.155
47952230,-0.881,0.332,0.43,0.087,-17.78,-2.905
47952250,-0.867,0.317,0.429,-1.96,-20.02,-2.835
47952250,-0.859,0.325,0.435,-2.082,-22.137,-1.12
47952260,-0.853,0.318,0.448,-2.467,-23.292,0.542
47952270,-0.828,0.308,0.448,-2.362,-24.412,1.75
47952280,-0.812,0.299,0.452,-1.592,-23.975,3.535
47952290,-0.808,0.309,0.461,-0.595,-23.135,4.27
47952300,-0.815,0.322,0.468,-0.665,-21.735,4.462
47952310,-0.818,0.333,0.477,-2.082,-21.332,3.255
47952320,-0.826,0.336,0.479,-4.235,-21.927,2.87
47952330,-0.849,0.319,0.467,-6.702,-24.01,3.622
47952340,-0.839,0.324,0.474,-7.315,-25.655,3.15
47952350,-0.827,0.338,0.487,-7.927,-26.215,-0.367
47952360,-0.803,0.325,0.497,-9.642,-26.32,-0.157
47952370,-0.8,0.333,0.506,-12.092,-26.355,1.452
47952380,-0.763,0.342,0.508,-16.327,-25.637,1.855
47952390,-0.755,0.325,0.452,-20.65,-21.892,2.765
47952400,-0.81,0.32,0.471,-22.4,-18.917,3.272
47952410,-0.844,0.28,0.498,-21.77,-20.195,0.822
47952420,-0.791,0.317,0.488,-17.412,-19.81,0.35
47952430,-0.812,0.366,0.534,-17.867,-16.38,1.855
47952440,-0.841,0.321,0.536,-23.642,-17.692,1.47
47952450,-0.756,0.304,0.531,-26.162,-16.24,1.33
47952460,-0.782,0.284,0.552,-27.457,-11.497,4.357
47952470,-0.745,0.266,0.55,-27.09,-6.055,6.842
47952480,-0.766,0.253,0.554,-27.405,-1.12,10.202
47952490,-0.716,0.285,0.541,-27.685,6.072,9.222
47952500,-0.908,0.167,0.54,-26.88,6.545,8.137
47952510,-0.764,0.175,0.549,-14.595,0.402,5.845
47952520,-0.749,0.286,0.537,-2.94,1.347,6.527
47952530,-0.812,0.279,0.511,-0.332,3.78,4.602
47952540,-0.816,0.292,0.496,2.03,2.94,2.992
47952550,-0.844,0.319,0.482,4.935,2.1,2.8
47952560,-0.882,0.297,0.48,6.335,-2.205,3.22
47952570,-0.866,0.312,0.49,8.575,-7.14,3.517
47952580,-0.846,0.302,0.491,9.257,-11.812,3.5
47952580,-0.816,0.284,0.506,10.167,-13.86,3.552
47952600,-0.774,0.281,0.524,13.142,-13.142,3.692
47952600,-0.765,0.287,0.538,16.607,-9.135,4.217
47952620,-0.782,0.27,0.585,17.937,-5.705,4.025
47952620,-0.699,0.219,0.587,24.832,-4.655,-1.627
47952640,-0.673,0.305,0.581,34.37,4.882,0.297
47952640,-0.761,0.315,0.555,32.322,11.375,-1.172
47952660,-0.824,0.293,0.527,29.767,13.16,-4.077
47952660,-0.827,0.335,0.487,30.345,12.442,-4.112
47952670,-0.888,0.355,0.473,27.265,9.835,-1.487
47952680,-0.87,0.358,0.46,21.63,3.552,-0.857
47952690,-0.844,0.388,0.443,14.455,-1.277,0.245
47952700,-0.868,0.368,0.454,5.967,-6.002,1.155
47952710,-0.84,0.352,0.476,0.84,-10.797,1.68
47952720,-0.816,0.343,0.501,-2.275,-14.402,1.977
47952730,-0.78,0.325,0.517,-4.497,-16.345,1.487
47952740,-0.766,0.335,0.531,-6.23,-15.75,1.627
47952750,-0.77,0.321,0.522,-8.785,-13.335,2.362
47952760,-0.776,0.322,0.517,-9.975,-11.095,2.975
47952770,-0.803,0.323,0.511,-11.62,-9.835,3.342
47952780,-0.815,0.312,0.501,-12.985,-10.622,2.607
47952790,-0.824,0.309,0.491,-13.335,-11.987,2.712
47952800,-0.816,0.315,0.466,-12.81,-14.315,2.782
47952810,-0.771,0.427,0.44,-16.065,-12.145,4.795
47952820,-0.938,0.382,0.47,-30.362,-14.455,5.057
47952830,-0.903,0.264,0.504,-33.145,-24.447,7.14
47952840,-0.764,0.295,0.525,-28.717,-29.242,14.595
47952850,-0.665,0.375,0.543,-29.802,-19.425,16.397
47952860,-0.708,0.306,0.51,-36.627,-7.945,16.31
47952870,-0.832,0.258,0.571,-38.552,3.097,20.16
47952880,-0.805,0.201,0.605,-34.125,-4.497,20.405
47952890,-0.623,0.289,0.618,-25.165,-1.557,23.345
47952900,-0.692,0.282,0.614,-23.152,3.99,23.065
47952910,-0.683,0.294,0.616,-20.527,10.412,23.485
47952920,-0.772,0.278,0.589,-19.617,16.362,21.577
47952920,-0.807,0.297,0.557,-15.872,15.697,17.955
47952940,-0.866,0.279,0.518,-10.745,10.972,15.697
47952940,-0.856,0.293,0.499,-2.24,-0.035,11.217
47952960,-0.816,0.372,0.519,5.25,-8.505,7.892
47952960,-0.893,0.346,0.506,5.127,-14.42,3.797
47952980,-0.853,0.309,0.504,6.51,-21.612,0.42
47952980,-0.831,0.289,0.538,11.025,-26.495,-0.017
47953000,-0.791,0.227,0.576,18.9,-30.642,-0.21
47953000,-0.681,0.269,0.586,30.082,-29.452,-2.502
47953010,-0.682,0.277,0.597,38.377,-26.232,-4.532
47953020,-0.705,0.281,0.604,44.502,-22.242,-5.25
47953030,-0.67,0.342,0.583,47.565,-17.255,-7.367
47953040,-0.77,0.348,0.547,43.82,-9.432,-7.787
47953050,-0.765,0.368,0.524,38.937,-7.227,-8.837
47953060,-0.806,0.4,0.508,31.727,-5.705,-7
47953070,-0.834,0.399,0.497,22.12,-8.05,-4.9
47953080,-0.858,0.394,0.507,12.005,-12.95,-1.032
47953090,-0.793,0.414,0.52,2.625,-18.742,0.717
47953100,-0.805,0.39,0.545,-6.702,-21.717,3.937
47953110,-0.75,0.353,0.568,-13.002,-26.057,6.492
47953120,-0.703,0.361,0.584,-17.08,-25.725,10.272
47953130,-0.716,0.322,0.583,-21.752,-22.907,14.035
47953140,-0.69,0.332,0.584,-22.68,-19.18,12.862
47953150,-0.666,0.363,0.547,-22.19,-12.827,11.76
47953160,-0.634,0.507,0.534,-28.035,0.385,16.065
47953170,-0.822,0.441,0.526,-46.672,7.542,22.33
47953180,-0.822,0.338,0.527,-55.562,5.145,25.41
47953190,-0.752,0.388,0.53,-57.925,6.282,26.407
47953200,-0.808,0.349,0.54,-59.29,6.002,33.6
47953210,-0.807,0.306,0.564,-61.46,2.555,35.122
47953220,-0.769,0.252,0.611,-56.105,-1.96,32.305
47953230,-0.722,0.262,0.642,-46.62,-5.127,30.222
47953240,-0.642,0.291,0.641,-37.817,-6.632,27.51
47953250,-0.645,0.265,0.64,-31.43,-4.672,22.89
47953260,-0.676,0.256,0.647,-24.797,-1.207,17.57
47953270,-0.711,0.208,0.631,-15.452,0,9.642
47953280,-0.66,0.268,0.617,1.522,3.202,1.417
47953290,-0.744,0.324,0.583,10.885,8.12,-3.675
47953300,-0.879,0.325,0.559,13.545,4.672,-7.315
47953310,-0.885,0.322,0.543,14.857,-3.447,-10.045
47953320,-0.864,0.275,0.574,20.282,-14.297,-12.215
47953330,-0.775,0.212,0.602,31.605,-25.585,-15.067
47953330,-0.515,0.305,0.56,46.707,-26.81,-19.285
47953350,-0.607,0.354,0.609,52.99,-6.3,-20.877
47953350,-0.838,0.381,0.651,52.517,-1.89,-24.92
47953370,-0.719,0.4,0.616,43.767,-7.91,-20.912
47953370,-0.758,0.338,0.562,36.312,-11.917,-15.4
47953390,-0.698,0.359,0.53,33.652,-11.41,-14.402
47953390,-0.802,0.411,0.58,27.335,-10.307,-11.585
47953410,-0.783,0.359,0.551,16.205,-13.93,-9.922
47953410,-0.706,0.391,0.547,8.977,-14.227,-8.12
47953420,-0.797,0.355,0.555,1.995,-11.585,-3.062
47953430,-0.773,0.327,0.585,-3.01,-12.25,4.007
47953440,-0.771,0.404,0.616,-11.13,-18.655,3.5
47953450,-0.644,0.296,0.592,-17.64,-21.315,7.087
47953460,-0.673,0.342,0.612,-16.59,-16.065,11.13
47953470,-0.647,0.398,0.601,-20.492,-10.535,11.305
47953480,-0.67,0.392,0.609,-28.682,-5.53,11.707
47953490,-0.68,0.395,0.584,-33.407,1.225,15.592
47953500,-0.691,0.451,0.568,-39.27,9.502,24.36
47953510,-0.75,0.413,0.543,-50.995,17.395,31.272
47953520,-0.862,0.355,0.543,-60.2,20.422,36.225
47953530,-0.865,0.252,0.552,-63.07,10.535,39.375
47953540,-0.748,0.3,0.584,-55.002,4.217,41.562
47953550,-0.749,0.287,0.613,-49.245,0.087,37.135
47953560,-0.727,0.265,0.64,-41.842,-3.517,28.997
47953570,-0.702,0.245,0.698,-32.952,-8.312,21.647
47953580,-0.601,0.252,0.7,-22.05,-12.355,15.732
47953590,-0.575,0.235,0.664,-9.87,-7.245,11.06
47953600,-0.616,0.279,0.642,3.902,1.417,1.785
47953610,-0.734,0.344,0.621,12.792,9.765,-6.93
47953620,-0.843,0.326,0.578,14.087,7.472,-11.9
47953630,-0.833,0.335,0.56,16.8,0.437,-13.965
47953640,-0.901,0.248,0.593,21.875,-11.2,-14.437
47953650,-0.735,0.193,0.627,37.52,-27.142,-20.93
47953660,-0.548,0.355,0.657,55.055,-27.667,-25.41
47953670,-0.649,0.329,0.651,56.105,-20.807,-28.385
47953670,-0.668,0.336,0.645,54.722,-14.805,-31.202
47953690,-0.611,0.32,0.549,51.555,-9.047,-29.925
47953690,-0.726,0.43,0.632,48.947,1.155,-29.54
47953710,-0.784,0.378,0.592,34.737,3.955,-19.792
47953710,-0.757,0.353,0.533,19.495,2.047,-15.452
47953730,-0.795,0.35,0.543,12.547,-0.087,-10.202
47953730,-0.807,0.36,0.564,6.335,-5.267,-4.147
47953750,-0.799,0.368,0.577,1.627,-9.52,1.05
47953750,-0.774,0.335,0.579,-2.222,-14.665,5.215
47953760,-0.724,0.322,0.592,-1.96,-18.9,7.227
47953770,-0.673,0.351,0.617,0.105,-18.76,8.82
47953780,-0.646,0.377,0.628,-0.14,-14.822,9.03
47953790,-0.656,0.366,0.621,-2.065,-10.272,8.68
47953800,-0.674,0.404,0.628,-4.357,-6.877,8.47
47953810,-0.702,0.418,0.613,-11.532,-5.057,10.132
47953820,-0.729,0.38,0.576,-20.195,-5.197,13.23
47953830,-0.655,0.467,0.532,-27.02,-3.57,17.902
47953840,-0.746,0.509,0.545,-44.047,1.242,27.037
47953850,-0.816,0.394,0.56,-61.932,2.327,33.722
47953860,-0.73,0.333,0.596,-65.66,1.592,39.27
47953870,-0.719,0.305,0.614,-62.86,4.375,42.665
47953880,-0.741,0.213,0.663,-55.247,5.337,34.772
47953890,-0.731,0.199,0.698,-41.37,0.612,22.085
47953900,-0.621,0.229,0.726,-24.57,-6.195,11.69
47953910,-0.489,0.264,0.706,-9.555,-6.79,6.965
47953920,-0.478,0.307,0.659,1.627,7.577,4.812
47953930,-0.66,0.33,0.636,6.072,22.96,-0.7
47953940,-0.812,0.294,0.596,7.542,25.917,-8.102
47953950,-0.905,0.296,0.558,14.717,19.827,-12.81
47953960,-0.933,0.312,0.539,24.115,5.46,-13.317
47953970,-0.942,0.225,0.607,31.412,-11.707,-10.605
47953980,-0.823,0.083,0.627,50.89,-34.09,-15.085
47953990,-0.497,0.29,0.663,80.202,-42.262,-25.322
47954000,-0.409,0.362,0.714,90.79,-33.32,-29.61
47954010,-0.432,0.424,0.685,88.34,-10.412,-36.067
47954020,-0.574,0.444,0.624,75.32,11.497,-37.012
47954030,-0.764,0.443,0.568,60.602,22.032,-31.325
47954040,-0.802,0.478,0.487,42.822,23.222,-25.672
47954050,-0.943,0.46,0.47,25.427,17.727,-18.042
47954060,-0.92,0.481,0.465,11.34,3.15,-10.15
47954070,-0.904,0.482,0.51,-5.512,-9.52,0.665
47954080,-0.841,0.358,0.555,-19.512,-25.462,6.265
47954080,-0.659,0.337,0.586,-20.755,-33.46,11.357
47954100,-0.605,0.373,0.64,-19.722,-30.957,13.912
47954100,-0.535,0.373,0.612,-22.645,-21.175,15.487
47954110,-0.459,0.551,0.587,-33.075,2.66,21.262
47954120,-0.721,0.42,0.575,-53.847,21.262,28.77
47954130,-0.77,0.383,0.56,-61.197,27.912,37.292
47954140,-0.84,0.368,0.549,-64.645,25.287,47.81
47954150,-0.816,0.349,0.554,-66.29,17.815,48.632
47954160,-0.808,0.37,0.577,-66.762,11.375,45.955
47954170,-0.779,0.309,0.615,-66.867,2.17,42.752
47954180,-0.743,0.251,0.644,-59.447,-6.177,40.407
47954190,-0.684,0.239,0.676,-46.147,-14.28,35
47954200,-0.625,0.28,0.703,-32.48,-18.34,27.16
47954210,-0.61,0.23,0.701,-20.877,-18.462,19.845
47954220,-0.545,0.29,0.664,-4.917,-10.937,12.617
47954230,-0.622,0.313,0.641,3.71,0.507,5.88
47954240,-0.719,0.295,0.633,9.03,7.735,-0.98
47954250,-0.803,0.301,0.593,14.192,8.487,-5.25
47954260,-0.842,0.307,0.563,18.042,1.4,-10.972
47954270,-0.904,0.312,0.566,24.132,-11.042,-13.527
47954280,-1.073,0.249,0.585,32.55,-35,-17.465
47954290,-0.725,0.185,0.671,57.855,-74.795,-33.127
47954300,-0.319,0.485,0.723,81.847,-76.877,-40.022
47954310,-0.359,0.551,0.711,72.992,-48.352,-39.042
47954320,-0.5,0.459,0.605,48.335,-21.07,-36.82
47954330,-0.623,0.446,0.56,28.91,-3.447,-32.97
47954340,-0.784,0.47,0.58,16.537,7.297,-21.875
47954350,-0.86,0.417,0.564,-1.12,4.62,-10.395
47954360,-0.842,0.359,0.575,-14.752,-7.28,-5.67
47954370,-0.751,0.318,0.622,-18.882,-19.81,1.785
47954380,-0.652,0.346,0.661,-16.887,-23.887,6.09
47954390,-0.58,0.355,0.686,-16.082,-19.845,7.087
47954400,-0.538,0.35,0.683,-17.657,-11.97,7.997
47954410,-0.518,0.358,0.677,-18.567,-0.175,9.1
47954420,-0.511,0.372,0.668,-18.375,13.195,11.497
47954420,-0.363,0.574,0.584,-23.24,35.56,17.097
47954440,-0.674,0.609,0.562,-52.517,69.055,32.34
47954440,-0.959,0.284,0.542,-75.687,72.992,40.932
47954460,-0.937,0.271,0.55,-69.895,58.94,46.55
47954460,-0.892,0.284,0.583,-58.467,40.075,44.66
47954480,-0.955,0.157,0.676,-45.552,17.132,34.86
47954480,-0.646,0.046,0.722,-20.965,-15.102,17.57
47954500,-0.309,0.456,0.697,8.732,-8.067,2.292
47954500,-0.731,0.293,0.628,7.42,10.272,-4.427
47954510,-0.816,0.272,0.605,13.965,9.835,-13.352
47954520,-0.776,0.393,0.585,20.965,5.057,-17.587
47954530,-0.869,0.309,0.532,22.435,-2.975,-20.125
47954540,-0.843,0.31,0.56,30.712,-14.42,-20.597
47954550,-0.819,0.322,0.604,38.342,-25.217,-21.245
47954560,-0.799,0.124,0.644,50.697,-44.957,-27.002
47954570,-0.356,0.272,0.58,84.437,-41.895,-36.12
47954580,-0.607,0.558,0.782,94.657,-23.065,-40.127
47954590,-0.604,0.38,0.708,73.255,-19.057,-44.082
47954600,-0.557,0.321,0.601,65.065,-14.455,-43.522
47954610,-0.6,0.445,0.609,62.387,-3.15,-33.057
47954620,-0.717,0.507,0.558,40.005,11.2,-28.84
47954630,-0.869,0.381,0.511,19.95,11.987,-21.455
47954640,-0.806,0.515,0.519,7.507,5.967,-9.292
47954650,-0.885,0.451,0.559,-12.005,-1.277,3.412
47954660,-0.788,0.339,0.578,-24.815,-15.312,12.775
47954670,-0.683,0.367,0.596,-27.09,-21.402,19.652
47954680,-0.628,0.335,0.627,-26.39,-20.807,21.052
47954690,-0.534,0.367,0.647,-23.415,-12.495,20.912
47954700,-0.354,0.584,0.603,-28.717,12.407,23.607
47954710,-0.753,0.483,0.591,-56.035,39.48,29.82
47954720,-0.796,0.353,0.55,-70.525,39.567,34.107
47954730,-0.787,0.397,0.546,-70.735,37.66,47.162
47954740,-0.825,0.35,0.547,-73.622,33.757,50.207
47954750,-0.839,0.312,0.57,-72.852,28.332,46.76
47954760,-0.875,0.246,0.615,-65.66,16.992,38.605
47954770,-0.891,-0.025,0.752,-44.66,-10.885,24.675
47954780,-0.236,0.364,0.723,-2.625,-20.23,10.622
47954780,-0.482,0.47,0.655,4.41,7.332,6.807
47954800,-0.786,0.244,0.606,-3.237,17.185,-4.707
47954800,-0.786,0.341,0.603,4.375,16.59,-5.337
47954820,-0.827,0.337,0.563,8.137,9.467,-7.945
47954820,-0.83,0.296,0.563,13.422,0.227,-10.255
47954830,-0.815,0.332,0.569,18.865,-8.855,-10.482
47954840,-0.769,0.326,0.566,22.872,-15.61,-12.915
47954850,-0.764,0.309,0.601,28.945,-20.58,-14.84
47954860,-0.836,0.193,0.659,39.76,-34.177,-20.387
47954870,-0.469,0.356,0.7,59.745,-44.817,-29.75
47954880,-0.388,0.509,0.669,55.86,-25.987,-27.982
47954890,-0.648,0.406,0.588,35.997,-2.695,-23.782
47954900,-0.762,0.421,0.553,19.967,7.21,-21.91
47954910,-0.828,0.408,0.553,11.882,5.197,-14.017
47954920,-0.833,0.498,0.549,-2.047,1.067,-0.717
47954930,-0.86,0.388,0.567,-23.222,-8.19,5.355
47954940,-0.707,0.371,0.593,-33.967,-16.415,12.127
47954950,-0.554,0.454,0.573,-38.815,-12.232,17.902
47954960,-0.524,0.508,0.638,-52.972,7.472,18.532
47954970,-0.585,0.34,0.589,-68.337,28.63,18.095
47954980,-0.671,0.338,0.608,-66.552,52.552,14.7
47954990,-0.987,0.074,0.761,-60.165,44.222,9.66
47955000,-0.477,0.116,0.722,-26.722,13.895,6.72
47955010,-0.429,0.529,0.687,-1.452,27.772,8.61
47955020,-0.763,0.298,0.616,-14.105,43.05,-1.96
47955030,-0.87,0.245,0.556,-13.09,40.985,-6.982
47955040,-0.896,0.274,0.513,-0.875,30.467,-8.47
47955050,-0.884,0.286,0.476,12.635,17.692,-10.64
47955060,-0.914,0.323,0.47,19.355,3.465,-8.54
47955070,-0.947,0.3,0.461,19.95,-12.092,-9.555
47955080,-0.882,0.283,0.503,23.887,-27.895,-13.055
47955090,-0.75,0.278,0.531,29.645,-35.07,-14.857
47955100,-0.699,0.269,0.582,36.557,-28.175,-18.795
47955110,-0.77,0.324,0.683,43.592,-29.452,-22.225
47955120,-0.571,0.414,0.711,41.615,-40.915,-19.18
47955130,-0.527,0.459,0.663,28.857,-29.96,-12.407
47955140,-0.613,0.391,0.59,12.075,-10.412,-12.127
47955150,-0.603,0.424,0.56,-1.68,9.625,-15.557
47955160,-0.767,0.439,0.594,-16.537,23.397,-18.76
47955170,-0.829,0.371,0.592,-29.925,19.04,-14.525
47955170,-0.76,0.374,0.586,-37.275,8.592,-2.485
47955190,-0.717,0.387,0.544,-44.205,3.657,7.682
47955190,-0.639,0.453,0.523,-54.81,11.392,15.505
47955210,-0.835,0.298,0.591,-69.615,23.835,25.882
47955210,-0.877,-0.069,0.692,-61.512,9.187,29.662
47955230,-0.291,0.268,0.722,-22.417,4.69,29.137
47955230,-0.423,0.399,0.73,-10.027,31.15,22.802
47955250,-0.676,0.273,0.681,-17.272,55.335,13.422
47955250,-0.781,0.3,0.607,-18.13,64.522,11.27
47955260,-0.959,0.261,0.517,-15.417,59.22,7.805
47955270,-0.949,0.23,0.435,-7.087,41.877,5.285
47955280,-0.979,0.292,0.4,5.53,27.177,-0.28
47955290,-1.02,0.324,0.432,11.305,7.56,-5.985
47955300,-0.946,0.287,0.473,13.125,-13.702,-8.855
47955310,-0.876,0.237,0.503,18.865,-25.76,-11.935
47955320,-0.759,0.244,0.518,28.682,-32.06,-15.977
47955330,-0.689,0.285,0.55,37.835,-29.627,-18.445
47955340,-0.822,0.341,0.607,41.107,-26.197,-21.56
47955350,-0.818,0.353,0.628,42.28,-45.272,-25.742
47955360,-0.445,0.42,0.662,41.755,-51.275,-25.375
47955370,-0.58,0.493,0.683,31.972,-20.755,-19.022
47955380,-0.76,0.384,0.597,10.29,-3.307,-13.947
47955390,-0.728,0.423,0.565,-7.262,0.14,-5.285
47955400,-0.841,0.429,0.569,-28.682,-1.487,3.535
47955410,-0.825,0.263,0.548,-46.69,-8.697,9.082
47955420,-0.691,0.288,0.555,-45.99,-11.55,14.822
47955430,-0.521,0.479,0.566,-48.667,2.275,22.312
47955440,-0.796,0.32,0.632,-64.347,20.055,31.185
47955450,-0.823,-0.093,0.686,-60.567,14.595,30.135
47955460,-0.284,0.256,0.73,-21.157,23.047,25.042
47955470,-0.618,0.334,0.683,-10.92,52.482,21.157
47955480,-0.784,0.231,0.591,-15.767,60.182,10.832
47955490,-0.907,0.252,0.466,-14.49,52.99,13.982
47955500,-0.93,0.249,0.385,-3.552,36.802,9.642
47955510,-1.022,0.269,0.357,9.73,26.372,2.047
47955510,-1.098,0.362,0.415,18.742,3.78,-3.22
47955530,-1.012,0.331,0.469,16.59,-21.28,-6.107
47955530,-0.891,0.255,0.493,17.535,-37.94,-12.39
47955550,-0.745,0.239,0.534,25.987,-43.715,-17.255
47955550,-0.699,0.283,0.592,34.772,-40.897,-18.427
47955570,-0.788,0.299,0.608,36.68,-40.162,-21.542
47955570,-0.672,0.371,0.631,39.27,-56,-27.107
47955580,-0.438,0.419,0.686,34.667,-47.512,-23.502
47955590,-0.68,0.398,0.687,23.922,-13.842,-16.625
47955600,-0.75,0.32,0.626,10.727,0.805,-10.78
47955610,-0.644,0.308,0.591,3.255,6.09,-5.565
47955620,-0.641,0.291,0.609,-0.262,16.275,-1.312
47955630,-0.663,0.256,0.612,-1.452,27.177,2.1
47955640,-0.656,0.223,0.623,1.82,37.887,3.29
47955650,-0.622,0.227,0.613,9.117,52.517,4.27
47955660,-0.629,0.256,0.604,15.54,68.932,8.592
47955670,-0.712,0.271,0.587,17.08,84.507,14.717
47955680,-0.771,0.271,0.586,16.222,101.36,23.502
47955690,-0.849,0.264,0.56,16.467,118.755,34.44
47955700,-0.843,0.246,0.519,20.79,128.712,38.762
47955710,-0.839,0.241,0.471,20.965,135.047,34.44
47955720,-0.812,0.28,0.399,20.475,133.192,28.175
47955730,-0.849,0.305,0.372,18.585,137.987,30.607
47955740,-0.972,0.311,0.347,15.207,136.797,24.71
47955750,-1.008,0.312,0.339,10.937,125.685,16.03
47955760,-0.981,0.312,0.303,3.867,108.29,13.3
47955770,-0.985,0.323,0.289,-0.122,91.612,6.615
47955780,-0.988,0.339,0.282,-4.725,75.512,-0.682
47955790,-0.951,0.342,0.295,-11.497,61.547,-7.997
47955800,-0.928,0.316,0.302,-18.375,49.402,-13.492
47955810,-0.981,0.288,0.286,-22.925,39.48,-16.66
47955820,-0.937,0.266,0.287,-24.552,25.777,-19.792
47955830,-0.915,0.254,0.29,-20.685,18.637,-18.987
47955840,-0.886,0.301,0.311,-14.98,18.217,-17.5
47955850,-0.891,0.288,0.315,-14.665,26.302,-14.35
47955860,-0.956,0.306,0.355,-12.512,33.127,-14.56
47955870,-0.995,0.349,0.338,-15.277,31.972,-16.467
47955880,-0.927,0.258,0.322,-18.34,33.827,-14.315
47955890,-0.935,0.266,0.31,-14.63,35.472,-15.312
47955900,-0.956,0.303,0.325,-11.637,33.04,-15.977
47955910,-0.922,0.303,0.314,-12.145,29.732,-15.907
47955920,-0.931,0.308,0.311,-12.985,26.267,-17.395
47955920,-0.915,0.327,0.308,-15.242,24.167,-18.987
47955940,-0.919,0.342,0.287,-19.845,22.662,-19.757
47955940,-0.919,0.303,0.236,-26.197,21.735,-19.302
47955960,-0.885,0.247,0.184,-27.3,25.235,-15.172
47955960,-0.85,0.231,0.147,-19.915,36.662,-9.187
47955980,-0.85,0.231,0.13,-8.102,51.415,-2.362
47955980,-0.884,0.216,0.115,6.702,64.05,5.6
47956000,-0.901,0.238,0.153,26.775,73.342,11.427
47956000,-0.951,0.277,0.184,45.5,79.082,15.137
47956010,-0.843,0.373,0.198,49.192,83.93,11.34
47956020,-0.857,0.443,0.222,44.31,90.352,2.467
47956030,-0.965,0.417,0.189,32.217,90.072,-1.155
47956040,-0.993,0.398,0.164,19.827,84.77,0.385
47956050,-0.959,0.385,0.129,9.432,79.485,4.392
47956060,-0.97,0.355,0.096,2.327,75.582,7.245
47956070,-0.964,0.352,0.07,-1.015,72.52,9.73
47956080,-0.875,0.334,0.066,-2.607,71.487,12.302
47956090,-0.865,0.38,0.069,-2.257,75.145,16.887
47956100,-0.903,0.373,0.071,-2.922,79.152,21.752
47956110,-0.951,0.386,0.066,-5.057,79.782,23.572
47956120,-0.952,0.394,0.067,-7.245,77.402,20.265
47956130,-0.991,0.393,0.052,-9.555,71.837,14.017
47956140,-1.015,0.378,0.044,-10.517,60.952,11.34
47956150,-0.992,0.413,0.044,-10.412,49.21,10.657
47956160,-0.961,0.414,0.034,-12.827,38.587,11.147
47956170,-0.935,0.402,0.024,-11.865,32.567,10.167
47956180,-0.958,0.414,0.011,-9.975,28.91,11.69
47956190,-0.96,0.38,-0.004,-8.417,25.48,12.04
47956200,-0.993,0.374,-0.02,-3.447,19.81,11.025
47956210,-1.007,0.374,-0.019,3.797,11.917,10.955
47956220,-0.981,0.404,-0.019,8.872,2.537,10.745
47956230,-0.991,0.403,-0.018,9.327,-4.515,10.622
47956240,-0.999,0.409,-0.023,7.945,-11.34,7.857
47956250,-1.007,0.386,-0.04,5.25,-18.322,4.27
47956260,-0.984,0.397,-0.046,4.06,-25.2,-1.855
47956260,-0.969,0.38,-0.044,2.677,-29.295,-5.162
47956280,-0.943,0.375,-0.044,1.557,-33.267,-8.225
47956280,-0.931,0.359,-0.047,1.732,-34.545,-8.102
47956300,-0.97,0.376,-0.03,2.905,-37.047,-7.332
47956300,-0.982,0.382,-0.019,2.52,-42.857,-7.21
47956320,-1.007,0.383,-0.006,1.347,-52.605,-7.525
47956320,-1.019,0.402,0.008,-0.735,-64.382,-7.402
47956330,-1.03,0.415,0.017,-4.795,-77.455,-7.245
47956340,-1.003,0.424,0.044,-9.467,-89.46,-7.787
47956350,-0.994,0.427,0.048,-13.772,-98.84,-7.262
47956360,-0.973,0.435,0.088,-17.78,-104.895,-7.7
47956370,-0.941,0.425,0.102,-24.517,-108.5,-6.615
47956380,-0.892,0.431,0.123,-28.787,-107.537,-8.05
47956390,-0.876,0.422,0.142,-30.432,-103.057,-7.017
47956400,-0.809,0.414,0.174,-29.75,-92.435,-5.145
47956410,-0.788,0.408,0.201,-27.685,-76.825,-3.22
47956420,-0.793,0.41,0.236,-25.2,-59.447,-0.682
47956430,-0.83,0.41,0.27,-23.502,-44.992,3.535
47956440,-0.858,0.407,0.291,-22.435,-36.155,6.405
47956450,-0.878,0.406,0.301,-23.065,-33.11,7.77
47956460,-0.882,0.395,0.302,-24.552,-34.492,8.155
47956470,-0.869,0.393,0.302,-25.462,-37.205,9.082
47956480,-0.861,0.382,0.282,-27.3,-39.9,9.94
47956490,-0.843,0.372,0.27,-28.56,-39.112,11.165
47956500,-0.836,0.364,0.262,-29.732,-36.207,11.375
47956510,-0.855,0.351,0.253,-31.08,-33.232,11.532
47956520,-0.895,0.344,0.233,-31.885,-32.707,13.877
47956530,-0.92,0.333,0.218,-32.392,-32.9,15.995
47956540,-0.931,0.334,0.211,-32.2,-33.6,15.942
47956550,-0.94,0.319,0.199,-32.042,-32.55,17.395
47956560,-0.919,0.331,0.207,-29.61,-30.782,17.535
47956570,-0.945,0.339,0.211,-28.997,-26.862,19.285
47956580,-0.968,0.339,0.224,-28.402,-24.745,20.492
47956590,-0.963,0.352,0.247,-28.56,-23.73,19.32
47956600,-0.964,0.355,0.249,-30.415,-24.797,16.905
47956610,-0.953,0.352,0.266,-31.71,-24.605,12.897
47956620,-0.926,0.353,0.277,-34.475,-25.06,14.245
47956630,-0.92,0.357,0.284,-38.78,-25.165,18.865
47956640,-0.906,0.336,0.281,-40.74,-24.937,20.842
47956650,-0.884,0.321,0.293,-39.935,-23.485,19.32
47956660,-0.877,0.329,0.312,-38.815,-22.54,19.057
47956670,-0.897,0.321,0.323,-38.675,-22.785,20.282
47956670,-0.881,0.322,0.343,-37.625,-24.78,18.707
47956690,-0.898,0.307,0.361,-36.802,-27.615,18.48
47956690,-0.879,0.3,0.381,-35.175,-32.322,17.71
47956710,-0.83,0.297,0.4,-33.215,-33.95,15.995
47956710,-0.794,0.294,0.404,-31.587,-31.535,14.997
47956730,-0.764,0.29,0.402,-29.277,-24.797,15.61
47956730,-0.759,0.294,0.405,-28.49,-16.117,16.24
47956750,-0.806,0.282,0.398,-28.42,-9.625,14.647
47956750,-0.86,0.26,0.384,-25.305,-6.632,15.417
47956760,-0.873,0.25,0.353,-19.652,-5.705,19.985
47956770,-0.881,0.268,0.34,-13.107,-5.442,22.977
47956780,-0.89,0.271,0.322,-6.842,-4.532,24.342
47956790,-0.889,0.277,0.305,-1.89,0.28,26.792
47956800,-0.901,0.288,0.296,2.205,7.577,28.175
47956810,-0.919,0.303,0.31,5.302,14.717,26.407
47956820,-0.97,0.326,0.347,5.827,17.657,22.155
47956830,-0.998,0.358,0.365,2.485,13.492,16.905
47956840,-0.981,0.356,0.387,-1.61,4.217,12.792
47956850,-0.949,0.375,0.4,-6.667,-5.53,8.96
47956860,-0.935,0.359,0.397,-13.16,-15.155,6.247
47956870,-0.91,0.333,0.402,-18.462,-23.047,5.022
47956880,-0.878,0.337,0.42,-19.687,-28.28,5.18
47956890,-0.855,0.329,0.43,-21.7,-28.595,6.58
47956900,-0.826,0.312,0.427,-23.03,-25.567,7.367
47956910,-0.831,0.293,0.422,-21.035,-19.6,7.875
47956920,-0.828,0.294,0.427,-16.572,-14.682,9.187
47956930,-0.836,0.297,0.428,-11.445,-10.587,10.22
47956940,-0.84,0.314,0.429,-6.58,-8.592,10.01
47956950,-0.833,0.325,0.431,-3.692,-7.087,9.502
47956960,-0.832,0.337,0.429,-1.487,-6.685,8.137
47956970,-0.837,0.34,0.426,-0.035,-5.827,6.3
47956980,-0.833,0.347,0.42,0.245,-6.072,4.462
47956990,-0.841,0.351,0.412,-0.28,-5.792,3.552
47957000,-0.849,0.36,0.411,-1.522,-6.492,2.642
47957010,-0.864,0.362,0.411,-3.447,-7.612,1.015
47957010,-0.89,0.349,0.412,-4.287,-11.725,-0.472
47957030,-0.87,0.351,0.395,-3.675,-14.7,-0.665
47957030,-0.822,0.336,0.385,-3.01,-15.715,-1.522
47957050,-0.82,0.335,0.392,-1.592,-12.967,-0.42
47957050,-0.845,0.346,0.41,-1.4,-10.535,3.272
47957070,-0.862,0.357,0.428,-2.292,-9.222,4.987
47957070,-0.869,0.348,0.432,-4.917,-9.852,5.162
47957080,-0.855,0.323,0.425,-7.262,-10.552,6.125
47957090,-0.837,0.306,0.427,-7.542,-10.815,8.155
47957100,-0.824,0.309,0.434,-6.93,-9.66,10.78
47957110,-0.823,0.324,0.446,-8.102,-7.7,13.002
47957120,-0.813,0.326,0.43,-11.935,-5.74,14.385
47957130,-0.842,0.338,0.432,-12.25,-5.04,13.16
47957140,-0.87,0.354,0.434,-10.202,-6.492,13.772
47957150,-0.873,0.374,0.437,-6.562,-10.307,12.337
47957160,-0.832,0.399,0.429,-4.322,-13.457,9.17
47957170,-0.824,0.423,0.432,-3.692,-15.207,6.615
47957180,-0.817,0.43,0.427,-4.725,-17.85,3.727
47957190,-0.811,0.423,0.437,-5.705,-20.195,1.102
47957200,-0.823,0.417,0.458,-6.107,-21.857,-0.612
47957210,-0.802,0.414,0.455,-7.315,-22.767,-1.435
47957220,-0.771,0.41,0.455,-9.467,-21.507,-2.065
47957230,-0.802,0.411,0.466,-11.847,-18.882,-2.345
47957240,-0.811,0.418,0.456,-14.63,-19.775,-4.83
47957250,-0.769,0.41,0.458,-16.94,-19.932,-7.21
47957260,-0.75,0.404,0.464,-18.357,-16.345,-6.492
47957270,-0.74,0.394,0.499,-20.02,-8.925,-4.515
47957280,-0.762,0.384,0.508,-21.087,-2.817,-2.065
