time[ms],accX[g],accY[g],accZ[g],Value 1,Value 2,Value 3
38012280,-0.714,0.049,0.712,-2.03,-6.317,0.525
38012290,-0.706,0.049,0.733,-0.84,-8.155,-0.297
38012300,-0.716,0.042,0.738,-0.262,-10.447,-0.192
38012310,-0.689,0.039,0.705,0.595,-8.522,-0.052
38012320,-0.655,0.036,0.692,1.907,-5.705,0.98
38012330,-0.647,0.025,0.711,1.855,-4.27,1.435
38012340,-0.685,0.033,0.717,1.4,-3.535,3.185
38012350,-0.708,0.051,0.71,-0.7,-2.957,1.575
38012360,-0.715,0.057,0.723,-2.45,-6.107,-1.505
38012370,-0.711,0.049,0.735,-3.395,-7.245,-1.557
38012380,-0.712,0.038,0.732,-4.48,-7.35,-1.627
38012390,-0.712,0.035,0.728,-4.322,-8.155,-1.715
38012400,-0.695,0.036,0.719,-2.992,-7.612,-2.817
38012410,-0.683,0.024,0.712,-0.42,-7.017,-2.31
38012420,-0.675,0.013,0.711,2.152,-5.46,-0.735
38012420,-0.68,0.013,0.708,3.395,-3.71,0
38012440,-0.696,0.015,0.708,2.625,-2.975,-0.122
38012440,-0.712,0.019,0.712,0.525,-3.99,-0.665
38012460,-0.722,0.016,0.713,-1.627,-5.005,-0.525
38012460,-0.719,0.013,0.712,-3.745,-6.142,-0.752
38012480,-0.711,0.007,0.718,-5.04,-7.787,-0.665
38012480,-0.707,0.003,0.724,-5.127,-7.997,-0.175
38012500,-0.707,0.005,0.724,-3.692,-7.385,0.367
38012500,-0.708,0.01,0.724,-1.12,-7.017,0.612
38012510,-0.706,0.014,0.724,1.645,-6.737,0.84
38012520,-0.705,0.02,0.724,3.517,-6.772,0.805
38012530,-0.705,0.028,0.724,4.217,-8.05,0.735
38012540,-0.701,0.039,0.724,3.867,-9.555,0.472
38012550,-0.69,0.046,0.724,2.817,-10.412,0.385
38012560,-0.679,0.047,0.723,1.435,-10.237,0.507
38012570,-0.676,0.046,0.724,-0.087,-9.45,0.437
38012580,-0.678,0.045,0.727,-1.365,-8.82,0.035
38012590,-0.679,0.045,0.729,-2.187,-7.98,-0.56
38012600,-0.675,0.04,0.733,-2.432,-6.895,-1.067
38012610,-0.67,0.033,0.735,-2.17,-5.547,-1.085
38012620,-0.666,0.029,0.735,-1.767,-4.392,-0.997
38012630,-0.668,0.026,0.736,-1.172,-3.29,-0.822
38012640,-0.672,0.027,0.736,-0.752,-2.135,-0.682
38012650,-0.675,0.03,0.734,-0.472,-1.085,-0.35
38012660,-0.676,0.033,0.735,-0.49,-0.367,0.07
38012670,-0.68,0.034,0.733,-0.98,0.035,0.28
38012680,-0.685,0.033,0.728,-1.645,0.035,0.437
38012690,-0.689,0.033,0.728,-2.187,-0.262,0.63
38012700,-0.687,0.032,0.724,-2.8,-0.84,0.717
38012710,-0.691,0.024,0.718,-3.062,-0.437,0.7
38012720,-0.7,0.021,0.723,-2.975,-0.35,0.647
38012730,-0.703,0.022,0.728,-3.097,-1.907,-0.035
38012740,-0.707,0.016,0.736,-3.325,-2.712,-0.525
38012750,-0.711,0.012,0.738,-3.342,-3.395,-0.385
38012760,-0.709,0.007,0.733,-2.992,-3.972,-0.105
38012770,-0.707,0.003,0.735,-2.187,-3.99,0.367
38012780,-0.703,0.002,0.734,-1.19,-3.937,0.962
38012790,-0.697,0.001,0.733,-0.192,-3.08,1.54
38012800,-0.688,0.006,0.731,0.717,-2.362,2.117
38012810,-0.679,0.015,0.728,1.505,-1.785,2.765
38012820,-0.676,0.024,0.723,1.732,-1.697,3.412
38012830,-0.674,0.026,0.714,1.295,-0.227,3.307
38012830,-0.675,0.036,0.716,0.647,1.102,3.062
38012850,-0.673,0.041,0.717,-0.647,1.12,2.607
38012850,-0.678,0.042,0.719,-2.047,1.855,2.327
38012860,-0.685,0.04,0.722,-3.167,2.905,2.31
38012870,-0.69,0.038,0.723,-3.885,3.745,1.977
38012880,-0.692,0.038,0.724,-4.095,3.552,1.575
38012890,-0.693,0.036,0.723,-3.762,3.045,1.365
38012900,-0.696,0.033,0.724,-3.08,2.852,1.155
38012910,-0.698,0.033,0.724,-2.432,2.625,0.962
38012920,-0.699,0.035,0.726,-2.065,2.152,0.735
38012930,-0.701,0.034,0.729,-1.977,1.347,0.735
38012940,-0.703,0.031,0.729,-2.24,0.087,0.7
38012950,-0.704,0.028,0.727,-2.625,-0.997,0.665
38012960,-0.701,0.026,0.726,-2.992,-1.505,0.612
38012970,-0.698,0.025,0.726,-3.237,-2.03,0.63
38012980,-0.696,0.023,0.724,-3.29,-2.905,0.525
38012990,-0.698,0.021,0.725,-3.045,-3.272,0.402
38013000,-0.701,0.018,0.719,-2.87,-3.815,0.175
38013010,-0.71,0.009,0.716,-2.642,-3.57,-0.437
38013020,-0.713,0.01,0.718,-2.152,-3.57,-0.752
38013030,-0.707,0.012,0.716,-1.89,-4.147,-0.56
38013040,-0.701,0.009,0.714,-1.575,-4.007,-0.105
38013050,-0.708,0.007,0.716,-1.54,-3.517,0.56
38013060,-0.712,0.012,0.714,-1.54,-3.517,0.752
38013070,-0.71,0.015,0.711,-1.47,-3.587,0.315
38013080,-0.707,0.014,0.714,-1.19,-4.007,-0.052
38013090,-0.704,0.009,0.712,-0.805,-4.41,0.122
38013100,-0.7,0.007,0.716,-0.647,-4.287,0.332
38013110,-0.697,0.007,0.718,-0.63,-4.077,0.612
38013120,-0.699,0.006,0.72,-0.91,-3.395,0.875
38013130,-0.706,0.003,0.723,-1.155,-3.29,1.015
38013140,-0.711,0.002,0.723,-1.277,-3.377,1.032
38013150,-0.717,0,0.723,-1.225,-3.272,1.137
38013160,-0.717,0,0.722,-0.787,-3.43,1.785
38013170,-0.714,0.007,0.722,-0.035,-3.902,2.45
38013170,-0.708,0.018,0.721,0.892,-5.18,2.625
38013190,-0.702,0.027,0.721,2.117,-6.947,2.415
38013190,-0.691,0.032,0.721,3.097,-7.507,1.89
38013210,-0.682,0.036,0.723,3.517,-6.3,1.242
38013210,-0.683,0.038,0.723,3.01,-5.057,0.437
38013230,-0.691,0.036,0.724,1.942,-4.007,-0.14
38013230,-0.701,0.037,0.729,0.577,-3.867,-0.455
38013250,-0.705,0.035,0.724,-0.735,-3.797,-0.822
38013250,-0.7,0.032,0.725,-1.592,-3.92,-0.805
38013260,-0.682,0.033,0.737,-2.467,-4.235,-0.857
38013270,-0.66,0.037,0.74,-3.43,-3.85,-0.717
38013280,-0.638,0.041,0.741,-3.832,-2.642,-0.262
38013290,-0.635,0.034,0.751,-4.2,-0.035,0.105
38013300,-0.657,0.027,0.744,-4.427,3.57,-0.105
38013310,-0.684,0.026,0.731,-3.85,7.262,-0.822
38013320,-0.692,0.016,0.733,-3.255,9.415,-1.242
38013330,-0.704,0.009,0.715,-2.765,10.237,-0.385
38013340,-0.722,0.007,0.691,-1.172,10.202,0.7
38013350,-0.732,0.008,0.679,0.017,8.785,0.332
38013360,-0.733,0.017,0.697,-0.105,5.022,-0.682
38013370,-0.744,0.025,0.727,-1.557,0.35,-1.592
38013380,-0.769,0.032,0.761,-2.257,-3.395,-3.937
38013390,-0.795,0.033,0.773,-4.882,-5.127,-5.022
38013400,-0.799,0.028,0.779,-6.65,-5.267,-3.955
38013410,-0.798,0.025,0.77,-5.6,-5.442,-2.205
38013420,-0.781,0.035,0.749,-2.047,-5.425,-1.575
38013430,-0.758,0.064,0.752,2.152,-5.127,-1.277
38013440,-0.736,0.101,0.757,4.392,-9.345,-1.785
38013450,-0.719,0.134,0.748,4.13,-16.45,-3.517
38013460,-0.714,0.15,0.752,3.097,-22.032,-4.515
38013470,-0.704,0.139,0.747,0.77,-29.995,-5.897
38013480,-0.693,0.119,0.741,-1.452,-39.27,-8.505
38013490,-0.698,0.086,0.743,-3.307,-48.37,-11.497
38013500,-0.7,0.049,0.698,-4.007,-53.48,-14.752
38013510,-0.689,0.024,0.677,-1.487,-51.8,-16.432
38013520,-0.675,0.009,0.668,1.067,-46.637,-16.012
38013530,-0.638,0.02,0.643,3.29,-40.04,-14.262
38013530,-0.609,0.025,0.644,4.515,-30.975,-10.727
38013550,-0.586,0.016,0.689,1.575,-19.407,-7.752
38013550,-0.564,0.002,0.715,-3.815,-10.657,-6.072
38013570,-0.565,-0.02,0.737,-9.187,-6.247,-4.9
38013570,-0.592,-0.046,0.762,-14.14,-3.132,-4.007
38013580,-0.618,-0.064,0.77,-17.657,-0.945,-2.695
38013590,-0.628,-0.071,0.747,-16.205,-3.202,-1.382
38013600,-0.631,-0.071,0.694,-10.097,-9.17,0.21
38013610,-0.598,-0.071,0.691,-3.43,-13.335,1.505
38013620,-0.576,-0.084,0.715,-1.102,-13.265,2.625
38013630,-0.589,-0.085,0.725,-2.887,-10.36,2.397
38013640,-0.608,-0.078,0.749,-6.492,-8.662,1.032
38013650,-0.604,-0.07,0.784,-10.85,-9.782,-1.242
38013660,-0.578,-0.073,0.824,-15.05,-11.917,-2.205
38013670,-0.568,-0.088,0.824,-17.972,-14.157,-0.892
38013680,-0.589,-0.1,0.783,-17.482,-15.89,1.557
38013690,-0.624,-0.094,0.764,-13.895,-14.927,2.94
38013700,-0.661,-0.078,0.779,-8.977,-9.782,3.797
38013710,-0.698,-0.061,0.834,-4.602,-1.032,4.865
38013720,-0.726,-0.055,0.856,-2.712,5.74,5.88
38013730,-0.741,-0.062,0.819,0.332,7.875,7.962
38013740,-0.757,-0.07,0.804,5.127,8.015,10.22
38013750,-0.733,-0.046,0.772,9.485,-0.875,8.977
38013760,-0.677,-0.002,0.717,12.495,-13.912,7.49
38013770,-0.596,0.017,0.678,14.525,-24.5,6.545
38013780,-0.531,0.041,0.672,13.177,-26.267,5.617
38013790,-0.525,0.054,0.677,8.785,-16.642,6.072
38013800,-0.605,0.041,0.727,2.975,-2.852,4.585
38013810,-0.717,0.06,0.821,-6.23,-0.035,-1.802
38013820,-0.794,0.063,0.89,-15.487,-6.09,-9.152
38013830,-0.801,0.031,0.883,-19.547,-13.667,-12.285
38013840,-0.739,-0.008,0.835,-15.575,-19.477,-9.73
38013850,-0.648,-0.029,0.795,-4.55,-22.872,-4.112
38013860,-0.573,-0.014,0.767,7.49,-23.432,0.017
38013870,-0.525,0.006,0.754,15.4,-21.84,0.105
38013880,-0.518,0.018,0.759,16.957,-19.092,-3.745
38013890,-0.542,0.024,0.777,12.145,-15.68,-9.502
38013900,-0.582,0.007,0.797,3.622,-12.32,-13.51
38013910,-0.624,-0.018,0.809,-4.882,-9.205,-13.527
38013920,-0.659,-0.038,0.82,-10.762,-7.262,-9.87
38013920,-0.676,-0.055,0.827,-12.862,-7.437,-4.9
38013940,-0.675,-0.056,0.805,-10.167,-7.507,-0.752
38013940,-0.653,-0.047,0.798,-3.605,-8.312,1.032
38013960,-0.622,-0.035,0.795,3.412,-9.642,0.7
38013960,-0.596,-0.02,0.78,9.012,-9.205,-0.437
38013980,-0.579,-0.009,0.776,11.182,-8.662,-1.61
38013980,-0.577,-0.004,0.78,9.082,-7.875,-2.66
38014000,-0.607,-0.011,0.787,4.55,-6.457,-3.097
38014000,-0.642,-0.015,0.795,-0.752,-6.282,-3.482
38014010,-0.657,-0.016,0.799,-4.672,-7.42,-3.71
38014020,-0.651,-0.015,0.802,-5.827,-9.117,-3.097
38014030,-0.636,-0.018,0.797,-4.41,-11.392,-1.995
38014040,-0.613,-0.014,0.796,-1.102,-12.74,-1.33
38014050,-0.585,-0.01,0.809,1.785,-12.687,-1.417
38014060,-0.563,-0.008,0.809,3.202,-11.007,-1.96
38014070,-0.551,-0.002,0.802,3.36,-8.645,-2.152
38014080,-0.554,-0.003,0.802,2.45,-6.177,-2.24
38014090,-0.569,-0.004,0.808,0.787,-3.85,-2.415
38014100,-0.59,-0.008,0.811,-1.207,-2.467,-2.502
38014110,-0.608,-0.014,0.815,-2.537,-1.802,-2.502
38014120,-0.619,-0.021,0.808,-2.695,-1.557,-2.187
38014130,-0.629,-0.027,0.798,-1.295,-2.187,-1.54
38014140,-0.636,-0.025,0.79,0.875,-3.482,-1.032
38014150,-0.634,-0.017,0.787,2.38,-5.757,-1.172
38014160,-0.623,-0.011,0.778,2.87,-7.98,-1.417
38014170,-0.612,-0.01,0.78,2.205,-10.395,-1.715
38014180,-0.606,-0.01,0.789,0.28,-12.32,-2.52
38014190,-0.608,-0.015,0.798,-2.222,-12.46,-3.202
38014200,-0.615,-0.025,0.802,-4.34,-13.055,-3.78
38014210,-0.621,-0.027,0.804,-5.355,-14.665,-4.322
38014220,-0.605,-0.026,0.806,-4.777,-15.19,-4.042
38014230,-0.587,-0.03,0.802,-2.8,-15.242,-2.537
38014240,-0.578,-0.032,0.792,-0.56,-15.032,-1.26
38014250,-0.572,-0.026,0.804,0.962,-14.262,-1.12
38014260,-0.561,-0.023,0.815,1.085,-12.302,-1.365
38014260,-0.555,-0.022,0.812,0.28,-10.342,-1.277
38014280,-0.557,-0.021,0.811,-0.77,-10.22,-1.12
38014280,-0.573,-0.021,0.81,-1.645,-9.8,-1.067
38014300,-0.589,-0.024,0.812,-1.68,-9.152,-1.12
38014300,-0.614,-0.028,0.808,-1.365,-10.465,-1.61
38014320,-0.623,-0.022,0.81,-0.717,-13.037,-2.345
38014320,-0.614,-0.021,0.815,0,-15.82,-2.485
38014330,-0.593,-0.016,0.817,0.087,-17.657,-1.785
38014340,-0.562,-0.011,0.831,-0.612,-17.395,-0.7
38014350,-0.531,-0.008,0.844,-2.012,-15.89,0.28
38014360,-0.509,-0.005,0.843,-3.29,-12.092,0.997
38014370,-0.498,-0.002,0.838,-3.71,-6.212,1.872
38014380,-0.509,-0.021,0.826,-2.607,-0.437,2.555
38014390,-0.544,-0.047,0.821,-0.42,4.025,1.54
38014400,-0.574,-0.043,0.818,2.642,7.35,-0.437
38014410,-0.585,-0.027,0.814,5.81,9.275,0.122
38014420,-0.59,-0.015,0.823,7.175,9.572,2.642
38014430,-0.606,-0.023,0.816,6.51,9.625,4.602
38014440,-0.629,-0.031,0.793,4.97,8.295,4.41
38014450,-0.631,-0.018,0.787,3.272,4.882,2.345
38014460,-0.621,-0.005,0.795,0.892,0.262,0.052
38014470,-0.617,-0.008,0.8,-1.697,-3.955,-0.787
38014480,-0.619,-0.027,0.808,-3.622,-6.667,-0.542
38014490,-0.614,-0.038,0.809,-4.322,-8.102,-1.015
38014500,-0.593,-0.04,0.808,-3.657,-8.557,-1.54
38014510,-0.585,-0.048,0.793,-2.292,-9.625,-1.645
38014520,-0.606,-0.034,0.776,-0.84,-13.615,-2.45
38014530,-0.589,0.018,0.801,-0.647,-18.112,-3.605
38014540,-0.537,0.019,0.852,-2.222,-18.515,-3.535
38014550,-0.536,-0.013,0.865,-5.092,-16.135,-3.01
38014560,-0.557,-0.047,0.845,-7.455,-13.09,-3.5
38014570,-0.564,-0.053,0.817,-6.125,-11.042,-3.727
38014580,-0.565,-0.04,0.814,-3.272,-10.972,-2.572
38014590,-0.565,-0.03,0.823,-1.382,-11.585,-0.84
38014600,-0.557,-0.036,0.839,0.437,-12.005,0.052
38014610,-0.554,-0.051,0.845,0.787,-10.902,0.752
38014620,-0.538,-0.042,0.839,0.857,-9.415,1.662
38014630,-0.522,-0.018,0.843,0.665,-6.842,3.64
38014640,-0.525,0,0.854,-0.682,-4.147,5.267
38014650,-0.527,0.014,0.863,-1.995,-1.085,5.18
38014660,-0.513,0.027,0.877,-2.275,4.322,4.847
38014670,-0.52,-0.012,0.868,-1.312,12.705,5.827
38014670,-0.58,-0.035,0.828,1.522,15.925,5.407
38014690,-0.595,-0.012,0.808,4.952,15.172,3.972
38014690,-0.579,0.003,0.822,7.035,13.09,3.43
38014710,-0.586,0.009,0.804,7.192,10.78,4.602
38014710,-0.582,0,0.788,7.07,9.712,5.705
38014730,-0.563,-0.005,0.781,5.932,9.205,4.585
38014730,-0.572,0,0.807,2.257,9.117,0.997
38014750,-0.63,-0.006,0.813,-0.91,7.525,-0.91
38014750,-0.677,-0.021,0.78,-3.255,4.2,-3.22
38014760,-0.702,-0.033,0.779,-3.745,-2.187,-6.352
38014770,-0.703,-0.053,0.782,-3.097,-12.932,-7.752
38014780,-0.695,-0.078,0.779,-2.24,-24.465,-6.965
38014790,-0.708,-0.083,0.724,-1.295,-37.922,-6.51
38014800,-0.646,-0.027,0.702,-1.102,-47.845,-8.715
38014810,-0.55,-0.009,0.794,-2.17,-48.02,-7.787
38014820,-0.481,-0.003,0.937,-8.505,-47.827,-6.177
38014830,-0.406,-0.03,0.974,-18.112,-37.292,-4.865
38014840,-0.415,-0.095,0.882,-19.372,-21.175,-1.365
38014850,-0.511,-0.118,0.811,-13.335,-11.637,4.217
38014860,-0.532,-0.057,0.825,-4.007,-8.242,6.615
38014870,-0.491,0.012,0.871,4.042,-7.857,6.055
38014880,-0.451,0.056,0.909,8.96,-6.212,4.095
38014890,-0.443,0.049,0.896,9.187,-2.275,3.062
38014900,-0.459,0.027,0.884,7.052,5.53,2.03
38014910,-0.49,0.025,0.881,4.62,12.39,1.05
38014920,-0.502,0.019,0.869,1.732,19.425,1.575
38014930,-0.55,-0.049,0.855,0.105,26.267,3.15
38014940,-0.628,-0.068,0.81,0.175,25.41,4.165
38014950,-0.625,-0.041,0.793,3.325,20.37,4.952
38014960,-0.585,0,0.795,7.472,14.875,6.387
38014970,-0.556,0.009,0.821,9.835,12.722,7.98
38014980,-0.564,0,0.831,8.505,12.267,8.295
38014990,-0.593,-0.012,0.815,5.075,11.742,6.422
38015000,-0.618,-0.007,0.789,2.625,8.33,1.68
38015010,-0.636,-0.006,0.773,0.175,2.24,-3.202
38015010,-0.668,-0.025,0.747,-0.787,-6.597,-6.212
38015030,-0.689,-0.056,0.77,-1.557,-17.395,-7.717
38015030,-0.667,-0.072,0.79,-4.13,-26.092,-8.137
38015050,-0.617,-0.074,0.808,-6.737,-30.135,-5.442
38015050,-0.574,-0.068,0.825,-9.607,-31.57,-1.47
38015070,-0.554,-0.034,0.835,-12.04,-34.37,-0.21
38015070,-0.522,0.028,0.847,-13.457,-35.752,-1.26
38015080,-0.465,0.025,0.864,-12.617,-33.092,-3.325
38015090,-0.473,-0.011,0.87,-10.377,-28,-5.915
38015100,-0.542,-0.057,0.871,-8.207,-22.785,-7.315
38015110,-0.578,-0.067,0.864,-5.075,-19.985,-7.875
38015120,-0.551,-0.036,0.879,-0.735,-19.775,-7.227
38015130,-0.529,-0.046,0.869,1.085,-18.83,-3.185
38015140,-0.524,-0.068,0.877,1.785,-17.22,0.805
38015150,-0.514,-0.065,0.869,0.77,-16.24,2.607
38015160,-0.475,-0.029,0.861,0.28,-13.895,2.905
38015170,-0.45,-0.001,0.892,-0.28,-8.82,3.132
38015180,-0.462,0.011,0.889,-2.222,-2.642,3.745
38015190,-0.47,0.016,0.876,-2.152,1.68,3.64
38015200,-0.481,0.023,0.877,0.332,4.532,2.38
38015210,-0.45,0.038,0.89,2.765,10.587,0.875
38015220,-0.445,-0.024,0.895,4.882,20.195,2.345
38015230,-0.518,-0.068,0.838,6.51,25.742,4.532
38015240,-0.585,-0.062,0.802,8.82,24.027,5.022
38015250,-0.611,-0.009,0.82,10.202,19.88,4.462
38015260,-0.583,0.027,0.829,8.802,15.452,4.322
38015270,-0.552,0.025,0.816,5.81,9.835,4.97
38015280,-0.544,-0.007,0.786,2.59,5.46,4.515
38015290,-0.567,-0.027,0.769,0.017,2.73,2.257
38015300,-0.608,-0.035,0.753,-1.54,-2.922,-0.822
38015310,-0.652,-0.056,0.763,-3.342,-10.605,-4.252
38015320,-0.661,-0.077,0.803,-7.017,-17.745,-6.65
38015330,-0.627,-0.082,0.836,-9.677,-22.645,-6.16
38015340,-0.635,-0.093,0.802,-8.907,-29.242,-1.645
38015350,-0.63,0,0.872,-8.662,-37.782,0.017
38015360,-0.485,0.093,0.985,-11.182,-39.007,-0.857
38015370,-0.389,0.031,0.952,-13.86,-31.535,-0.28
38015380,-0.453,-0.068,0.87,-12.005,-20.02,-1.347
38015390,-0.524,-0.108,0.83,-7.63,-14.14,-3.027
38015400,-0.531,-0.087,0.852,-1.837,-12.967,-1.732
38015410,-0.498,-0.051,0.899,2.397,-12.232,-0.017
38015420,-0.478,-0.037,0.89,2.992,-10.447,1.61
38015420,-0.444,-0.035,0.88,2.152,-6.86,3.972
38015440,-0.434,-0.011,0.878,3.132,-3.412,4.585
38015440,-0.436,0.017,0.882,3.272,0.647,2.992
38015460,-0.445,0.02,0.903,2.397,6.545,1.207
38015460,-0.461,0.016,0.883,1.627,12.285,0.805
38015480,-0.457,0.011,0.882,2.467,19.74,2.362
38015480,-0.484,-0.051,0.873,4.532,29.872,5.18
38015500,-0.575,-0.088,0.792,8.54,33.722,6.65
38015500,-0.66,-0.061,0.766,12.495,24.832,5.617
38015510,-0.649,0.015,0.8,12.285,14.315,3.045
38015520,-0.56,0.049,0.837,8.015,10.185,1.26
38015530,-0.521,0.01,0.803,2.642,4.445,0.402
38015540,-0.567,-0.026,0.768,-2.415,-0.542,-0.157
38015550,-0.593,-0.035,0.81,-6.877,-1.242,-2.327
38015560,-0.62,-0.051,0.812,-9.222,-2.502,-5.127
38015570,-0.656,-0.088,0.803,-11.27,-8.067,-6.685
38015580,-0.668,-0.098,0.824,-10.097,-13.632,-6.632
38015590,-0.641,-0.082,0.851,-7,-18.637,-4.305
38015600,-0.599,-0.068,0.85,-3.622,-24.867,-1.4
38015610,-0.585,-0.031,0.815,-1.015,-33.827,-1.015
38015620,-0.517,0.025,0.846,-0.945,-40.285,-3.78
38015630,-0.452,0.014,0.893,-4.322,-40.215,-6.912
38015640,-0.47,-0.04,0.893,-9.135,-32.725,-8.435
38015650,-0.507,-0.068,0.884,-12.845,-26.582,-7.84
38015660,-0.479,-0.052,0.891,-13.37,-22.767,-5.285
38015670,-0.446,-0.053,0.905,-10.447,-17.045,-2.537
38015680,-0.446,-0.065,0.893,-5.057,-12.757,-0.437
38015690,-0.448,-0.068,0.914,0.385,-9.73,1.505
38015700,-0.417,-0.041,0.894,3.43,-6.23,3.99
38015710,-0.37,-0.003,0.881,6.807,-0.402,6.422
38015720,-0.351,0.016,0.89,9.187,9.012,6.947
38015730,-0.385,0.024,0.902,9.782,19.267,6.212
38015740,-0.429,0.02,0.909,8.085,32.217,6.107
38015750,-0.511,-0.06,0.886,7.035,46.637,6.405
38015760,-0.638,-0.098,0.809,8.155,49,5.635
38015760,-0.718,-0.064,0.795,10.29,33.635,3.622
38015780,-0.688,0.027,0.833,11.007,23.887,1.697
38015780,-0.598,0.052,0.83,12.617,20.335,3.325
38015800,-0.534,0.016,0.782,11.042,13.107,5.302
38015800,-0.507,-0.008,0.785,4.83,8.365,5.145
38015820,-0.517,-0.007,0.827,-0.595,8.05,4.007
38015820,-0.568,-0.007,0.8,-4.55,8.382,0.84
38015830,-0.627,-0.023,0.823,-7.945,2.432,-5.057
38015840,-0.658,-0.059,0.829,-9.502,-6.51,-8.907
38015850,-0.633,-0.081,0.841,-8.452,-13.702,-8.382
38015860,-0.593,-0.088,0.848,-5.827,-17.692,-3.867
38015870,-0.593,-0.089,0.79,-2.327,-22.837,-0.98
38015880,-0.639,-0.013,0.775,1.942,-32.76,-1.05
38015890,-0.558,0.099,0.894,0.385,-36.89,-5.11
38015900,-0.453,0.095,0.936,-7.455,-35.612,-9.065
38015910,-0.445,-0.019,0.909,-14.455,-25.217,-8.82
38015920,-0.482,-0.12,0.826,-15.96,-17.465,-8.207
38015930,-0.498,-0.115,0.808,-10.815,-16.17,-7.087
38015940,-0.525,-0.094,0.858,-6.527,-15.89,-2.922
38015950,-0.509,-0.071,0.891,-3.692,-13.352,0.367
38015960,-0.478,-0.072,0.887,-1.767,-10.885,3.29
38015970,-0.451,-0.073,0.873,0.997,-7.28,4.55
38015980,-0.463,-0.054,0.869,3.062,-2.292,5.285
38015990,-0.472,-0.019,0.872,3.64,1.207,4.76
38016000,-0.484,0.015,0.884,3.955,4.497,3.815
38016010,-0.51,0.017,0.878,1.75,6.912,3.797
38016020,-0.53,0.013,0.867,0.525,8.47,3.587
38016030,-0.524,0.029,0.887,0.962,9.922,3.675
38016040,-0.448,0.059,0.941,0.42,15.487,4.27
38016050,-0.41,-0.034,0.916,0.052,28.42,7.42
38016060,-0.504,-0.098,0.815,2.485,32.602,9.537
38016070,-0.573,-0.065,0.786,5.687,28.647,7.665
38016080,-0.573,0.017,0.824,8.645,28.315,4.935
38016090,-0.541,0.042,0.848,8.137,26.04,4.795
38016100,-0.529,0.023,0.849,5.932,22.225,5.6
38016110,-0.545,-0.005,0.817,4.06,22.82,5.18
38016120,-0.589,-0.014,0.772,2.747,20.737,4.095
38016130,-0.652,-0.003,0.775,3.062,15.557,0.227
38016140,-0.709,-0.017,0.794,-0.14,7.787,-6.702
38016150,-0.761,-0.078,0.783,-4.305,-2.817,-12.232
38016160,-0.759,-0.121,0.766,-5.04,-16.222,-15.067
38016170,-0.719,-0.137,0.745,-3.29,-29.925,-13.72
38016170,-0.651,-0.098,0.746,-4.637,-42.752,-6.877
38016190,-0.503,0.006,0.845,-7.017,-49.035,0.717
38016190,-0.373,0.065,0.968,-14.542,-45.342,5.32
38016210,-0.344,-0.014,0.953,-23.362,-30.205,3.955
38016210,-0.427,-0.093,0.859,-21.105,-17.885,-2.59
38016230,-0.525,-0.132,0.821,-13.965,-10.307,-5.005
38016230,-0.568,-0.127,0.846,-5.495,-4.935,-3.22
38016250,-0.553,-0.069,0.888,4.112,-6.492,-2.362
38016250,-0.535,-0.048,0.862,7.385,-9.432,2.852
38016260,-0.492,-0.031,0.863,8.522,-8.627,6.86
38016270,-0.451,-0.01,0.872,6.667,-5.88,7.647
38016280,-0.432,0.014,0.883,2.362,0.332,6.212
38016290,-0.448,0.02,0.879,-1.977,7.682,4.847
38016300,-0.495,0.016,0.874,-4.585,12.897,4.182
38016310,-0.522,0.031,0.904,-3.815,16.38,3.832
38016320,-0.501,0.012,0.903,-0.612,23.957,5.39
38016330,-0.56,-0.066,0.838,6.142,30.975,7.962
38016340,-0.651,-0.075,0.798,12.46,24.587,7.455
38016350,-0.633,-0.003,0.807,14.332,13.615,4.497
38016360,-0.552,0.054,0.839,11.095,12.18,3.797
38016370,-0.486,0.051,0.85,4.812,10.622,3.08
38016380,-0.515,0.021,0.815,-1.732,9.677,2.012
38016390,-0.579,-0.014,0.793,-5.81,11.2,0.122
38016400,-0.633,-0.03,0.799,-5.04,10.237,-4.69
38016410,-0.686,-0.069,0.783,-4.62,5.495,-9.047
38016420,-0.717,-0.105,0.774,-2.975,-3.115,-11.69
38016430,-0.722,-0.133,0.748,-1.015,-14.245,-10.185
38016440,-0.709,-0.142,0.733,2.555,-25.987,-7.542
38016450,-0.684,-0.078,0.729,3.745,-41.545,-5.285
38016460,-0.573,-0.003,0.834,-1.47,-51.117,-2.205
38016470,-0.455,0.037,0.981,-11.9,-48.405,-1.592
38016480,-0.387,0,0.993,-23.922,-34.44,-1.225
38016490,-0.385,-0.081,0.894,-24.587,-18.917,-1.4
38016500,-0.459,-0.15,0.826,-14.892,-4.55,-0.647
38016510,-0.545,-0.154,0.843,-3.85,2.555,2.03
38016510,-0.53,-0.078,0.89,6.912,-0.665,0.98
38016530,-0.478,0.017,0.901,13.65,-3.657,1.697
38016530,-0.41,0.048,0.922,13.352,-1.435,4.41
38016550,-0.389,0.044,0.887,11.76,4.76,5.215
38016550,-0.417,0.056,0.908,8.627,14.245,5.11
38016570,-0.409,0.032,0.978,2.012,30.415,4.48
38016570,-0.465,-0.071,0.85,-2.747,44.747,5.372
38016580,-0.623,-0.122,0.728,1.592,42.717,8.697
38016590,-0.729,-0.073,0.736,9.327,29.942,9.152
38016600,-0.692,0.028,0.794,15.05,24.587,7.385
38016610,-0.605,0.051,0.819,16.065,14.665,6.387
38016620,-0.574,0.036,0.802,12.915,5.722,4.322
38016630,-0.604,0,0.79,4.69,3.71,2.31
38016640,-0.619,-0.002,0.792,-2.59,1.785,-0.892
38016650,-0.633,-0.01,0.796,-7.49,-0.49,-3.64
38016660,-0.64,-0.039,0.798,-11.375,-4.795,-5.652
38016670,-0.65,-0.071,0.784,-10.867,-10.85,-5.635
38016680,-0.644,-0.08,0.764,-6.23,-15.89,-4.69
38016690,-0.618,-0.076,0.761,-0.21,-21.21,-4.217
38016700,-0.624,-0.081,0.766,3.465,-30.012,-5.18
38016710,-0.623,-0.01,0.834,1.82,-40.285,-8.172
38016720,-0.502,0.053,0.93,-5.705,-42.385,-9.66
38016730,-0.431,0.007,0.947,-13.177,-34.177,-7.927
38016740,-0.482,-0.108,0.853,-16.537,-21.84,-5.845
38016750,-0.541,-0.13,0.78,-11.41,-16.975,-5.897
38016760,-0.538,-0.078,0.838,-3.202,-13.912,-5.197
38016770,-0.518,-0.049,0.887,1.102,-12.722,-2.502
38016780,-0.497,-0.076,0.884,1.662,-12.407,0.927
38016790,-0.465,-0.091,0.87,1.925,-9.712,3.15
38016800,-0.427,-0.061,0.865,3.675,-4.917,3.85
38016810,-0.414,-0.016,0.848,5.075,0.822,5.232
38016820,-0.455,0.014,0.848,5.32,7.84,7.017
38016830,-0.513,0.035,0.873,4.287,13.107,6.947
38016840,-0.558,0.057,0.89,2.537,15.767,6.125
38016850,-0.562,0.05,0.89,2.905,21.262,5.95
38016860,-0.598,-0.019,0.849,4.865,23.992,5.565
38016870,-0.637,-0.058,0.805,6.912,17.01,3.64
38016880,-0.625,-0.034,0.779,7.49,6.685,2.327
38016890,-0.558,0.014,0.819,5.39,3.64,2.922
38016900,-0.494,0.033,0.825,0.647,1.225,4.532
38016910,-0.492,0.009,0.791,-3.657,1.4,5.022
38016920,-0.551,-0.025,0.78,-4.567,2.975,1.505
38016920,-0.615,-0.044,0.8,-4.777,3.412,-4.655
38016940,-0.66,-0.062,0.806,-5.407,-0.647,-8.96
38016940,-0.675,-0.088,0.785,-5.075,-6.807,-9.03
38016950,-0.667,-0.109,0.777,-2.467,-13.317,-5.705
38016960,-0.661,-0.111,0.802,0.962,-20.317,-2.1
38016970,-0.635,-0.007,0.852,0.98,-30.835,-1.61
38016980,-0.503,0.065,0.934,-3.867,-32.76,-1.837
38016990,-0.444,0.009,0.932,-10.395,-24.202,-1.82
38017000,-0.499,-0.083,0.854,-13.912,-12.81,-2.625
38017010,-0.533,-0.114,0.803,-10.395,-7.927,-4.445
38017020,-0.508,-0.083,0.822,-4.06,-5.197,-4.445
38017030,-0.48,-0.052,0.834,0.892,-3.815,-0.245
38017040,-0.461,-0.027,0.837,4.27,-2.625,4.62
38017050,-0.434,-0.007,0.852,6.492,0.682,6.247
38017060,-0.423,0.013,0.863,7.262,4.97,4.55
38017070,-0.451,0.017,0.871,6.072,11.007,2.03
38017080,-0.488,0.019,0.892,3.325,18.357,1.102
38017090,-0.526,-0.042,0.872,0.647,27.492,2.835
38017100,-0.613,-0.106,0.78,2.135,31.272,4.935
38017110,-0.674,-0.068,0.744,7.105,21.682,5.53
38017120,-0.656,0.024,0.798,10.727,11.445,5.915
38017130,-0.595,0.063,0.847,9.205,7.087,6.58
38017140,-0.546,0.023,0.826,3.465,4.112,6.947
38017150,-0.542,-0.012,0.79,-1.102,2.835,4.777
38017160,-0.57,-0.018,0.789,-3.395,3.027,0.017
38017170,-0.611,-0.015,0.804,-4.392,1.872,-4.532
38017180,-0.651,-0.044,0.806,-5.6,-1.015,-6.615
38017190,-0.669,-0.078,0.798,-4.812,-5.775,-6.405
38017200,-0.656,-0.088,0.79,-2.135,-10.955,-4.27
38017210,-0.633,-0.082,0.78,1.365,-16.73,-1.942
38017220,-0.617,-0.041,0.785,2.362,-25.935,-1.82
38017230,-0.531,0.017,0.828,-0.84,-29.995,-2.957
38017240,-0.467,-0.01,0.858,-5.425,-27.107,-2.922
38017250,-0.503,-0.08,0.849,-9.905,-20.282,-3.045
38017260,-0.543,-0.109,0.811,-10.57,-15.82,-4.025
38017260,-0.549,-0.08,0.822,-6.702,-13.545,-3.745
38017280,-0.544,-0.054,0.857,-3.377,-11.865,-0.945
38017280,-0.526,-0.053,0.869,-0.717,-10.36,2.922
38017300,-0.494,-0.034,0.864,2.117,-9.257,5.39
38017300,-0.431,0.008,0.872,4.55,-5.512,5.6
38017320,-0.398,0.03,0.87,6.107,0.507,4.777
38017320,-0.417,0.031,0.871,5.722,7.315,3.885
38017330,-0.442,0.029,0.891,3.535,15.26,3.255
38017340,-0.468,-0.008,0.891,1.47,27.335,4.9
38017350,-0.565,-0.058,0.861,2.572,36.785,8.102
38017360,-0.65,-0.052,0.807,6.037,36.312,9.572
38017370,-0.667,0.004,0.766,11.357,27.65,9.625
38017380,-0.642,0.047,0.779,14.542,20.23,9.152
38017390,-0.603,0.047,0.784,12.67,11.2,7.437
38017400,-0.585,0.024,0.791,7.402,5.25,4.095
38017410,-0.602,-0.009,0.773,1.26,3.85,-0.525
38017420,-0.64,-0.039,0.763,-2.625,3.657,-4.9
38017430,-0.676,-0.068,0.762,-5.705,0.77,-7.805
38017440,-0.692,-0.082,0.771,-7.087,-6.44,-8.067
38017450,-0.683,-0.096,0.753,-7.052,-14.682,-5.18
38017460,-0.667,-0.097,0.73,-2.677,-23.747,-3.08
38017470,-0.643,-0.023,0.781,0.35,-35.525,-3.29
38017480,-0.522,0.049,0.92,-3.727,-38.955,-3.937
38017490,-0.46,0.038,0.934,-10.237,-35.472,-4.077
38017500,-0.492,-0.047,0.875,-15.347,-24.955,-4.55
38017510,-0.527,-0.097,0.802,-13.02,-18.357,-6.79
38017520,-0.545,-0.091,0.805,-5.722,-17.552,-7.175
38017530,-0.556,-0.068,0.853,-1.102,-17.43,-4.567
38017540,-0.536,-0.07,0.854,0.49,-15.54,-0.35
38017550,-0.526,-0.071,0.86,1.96,-13.807,3.307
38017560,-0.49,-0.045,0.877,1.995,-10.955,3.535
38017570,-0.451,0.006,0.896,1.75,-8.33,2.432
38017580,-0.439,0.025,0.899,0.105,-2.922,2.852
38017590,-0.464,0.011,0.867,-1.312,4.112,3.22
38017600,-0.474,0.023,0.867,-1.242,11.497,3.255
38017610,-0.475,0.001,0.88,0.857,22.697,4.987
38017620,-0.545,-0.033,0.827,4.69,29.365,7.017
38017630,-0.62,-0.038,0.789,8.505,24.325,6.702
38017640,-0.641,0.008,0.803,10.377,17.92,5.145
38017640,-0.599,0.042,0.84,8.137,15.417,4.287
38017660,-0.557,0.034,0.836,2.712,11.672,4.935
38017660,-0.547,0.015,0.792,-1.575,10.045,4.76
38017670,-0.567,-0.022,0.749,-2.012,8.032,2.17
38017680,-0.6,-0.039,0.76,-0.7,4.62,-2.362
38017690,-0.623,-0.055,0.814,-2.625,2.59,-6.562
38017700,-0.664,-0.056,0.819,-4.375,-2.152,-7.175
38017710,-0.694,-0.06,0.781,-3.272,-7.595,-4.375
38017720,-0.699,-0.058,0.761,0.892,-14.227,-2.117
38017730,-0.704,-0.027,0.764,3.377,-27.335,-3.955
38017740,-0.625,0.047,0.857,-0.875,-38.587,-8.015
38017750,-0.48,0.046,0.928,-9.94,-36.767,-8.855
38017760,-0.418,-0.041,0.879,-17.587,-25.077,-6.72
38017770,-0.457,-0.13,0.805,-17.64,-15.242,-4.357
38017780,-0.518,-0.128,0.8,-11.2,-11.567,-3.43
38017790,-0.538,-0.084,0.836,-4.287,-9.345,-2.765
38017800,-0.523,-0.069,0.856,-0.385,-8.067,-0.14
38017810,-0.48,-0.072,0.856,1.155,-6.09,2.327
38017820,-0.453,-0.07,0.85,3.36,-1.12,4.795
38017830,-0.46,-0.031,0.932,4.812,3.097,5.372
38017840,-0.494,0.002,0.979,1.61,8.82,5.075
38017850,-0.519,0.006,0.847,-0.35,16.345,5.057
38017860,-0.542,0.029,0.769,5.88,19.162,8.907
38017870,-0.502,0.04,0.813,8.085,24.237,8.277
38017880,-0.544,-0.026,0.835,8.155,30.45,6.772
38017890,-0.638,-0.083,0.754,10.517,32.34,9.8
38017900,-0.668,-0.037,0.718,10.325,27.002,8.75
38017910,-0.655,0.04,0.765,7.542,21.56,6.877
38017920,-0.625,0.056,0.783,0.91,13.58,6.615
38017930,-0.609,0.025,0.795,-5.407,2.31,5.95
38017940,-0.597,-0.014,0.816,-9.502,-3.325,2.065
38017950,-0.604,-0.053,0.822,-10.622,-4.725,-4.41
38017960,-0.63,-0.07,0.796,-7.42,-7.507,-6.93
38017970,-0.656,-0.052,0.76,-1.522,-10.045,-7.472
38017980,-0.699,-0.051,0.72,4.2,-15.855,-7.525
38017990,-0.752,-0.02,0.739,9.31,-31.447,-7.962
38018000,-0.665,0.081,0.892,6.16,-43.067,-8.872
38018010,-0.483,0.062,0.972,-6.387,-42.052,-8.82
38018010,-0.417,-0.049,0.875,-18.462,-29.155,-6.247
38018030,-0.43,-0.144,0.758,-21.367,-20.195,-3.307
38018030,-0.456,-0.144,0.78,-15.732,-15.487,-2.835
38018050,-0.486,-0.107,0.867,-9.8,-9.03,-3.027
38018050,-0.514,-0.081,0.888,-4.532,-3.92,-0.577
38018070,-0.526,-0.055,0.883,2.187,-0.577,3.465
38018070,-0.502,0.008,0.899,8.96,-0.402,5.145
38018080,-0.468,0.054,0.887,12.617,1.557,5.18
38018090,-0.475,0.061,0.864,12.775,5.792,5.53
38018100,-0.481,0.059,0.869,7.98,12.005,4.235
38018110,-0.47,0,0.862,0.752,25.2,3.255
38018120,-0.551,-0.102,0.79,-1.015,35.437,5.127
38018130,-0.655,-0.105,0.735,2.065,29.942,6.72
38018140,-0.702,-0.014,0.766,5.985,21.315,6.86
38018150,-0.663,0.056,0.831,7.105,17.605,7.175
38018160,-0.608,0.029,0.814,3.955,10.08,7.752
38018170,-0.581,-0.014,0.768,1.242,5.267,5.652
38018180,-0.569,-0.033,0.781,0.63,4.392,1.54
38018190,-0.606,-0.034,0.797,-0.49,3.71,-2.52
38018200,-0.683,-0.039,0.775,-2.467,0.595,-5.617
38018210,-0.742,-0.048,0.754,-2.677,-8.627,-7.035
38018220,-0.759,-0.059,0.757,-1.032,-22.312,-7.472
38018230,-0.738,-0.056,0.8,-0.56,-39.427,-7.437
38018240,-0.607,0.023,0.875,-5.985,-53.55,-7.752
38018250,-0.42,0.045,0.929,-14.735,-52.955,-5.722
38018260,-0.374,-0.023,0.955,-22.487,-37.66,-2.747
38018270,-0.412,-0.103,0.889,-25.2,-20.142,-3.657
38018280,-0.467,-0.105,0.806,-16.38,-5.337,-5.267
38018290,-0.542,-0.092,0.825,-4.48,4.567,-3.115
38018300,-0.558,-0.073,0.816,6.86,4.462,-2.59
38018310,-0.566,-0.06,0.798,15.417,2.1,0.525
38018320,-0.549,-0.046,0.831,17.517,-1.4,3.85
38018330,-0.494,-0.003,0.852,14.7,-3.867,3.71
38018330,-0.449,0.008,0.865,7.437,-1.382,3.657
38018350,-0.454,0.003,0.865,0.437,5.215,3.727
38018350,-0.469,0.024,0.888,-5.04,13.352,3.92
38018370,-0.492,-0.002,0.896,-6.335,26.11,6.055
38018370,-0.622,-0.081,0.861,-1.487,35.787,8.452
38018390,-0.689,-0.093,0.791,6.212,29.68,7.35
38018390,-0.615,-0.03,0.785,14.927,18.62,6.93
38018410,-0.568,0.024,0.807,19.162,13.825,9.905
38018410,-0.574,0.025,0.75,17.237,10.272,11.392
38018420,-0.571,0.048,0.752,13.02,6.352,7.647
38018430,-0.569,0.045,0.792,3.202,4.025,0.612
38018440,-0.611,0.016,0.814,-5.442,3.08,-5.687
38018450,-0.689,-0.03,0.795,-10.325,3.517,-6.982
38018460,-0.767,-0.055,0.775,-10.902,-0.91,-7.332
38018470,-0.806,-0.062,0.763,-7.192,-10.57,-7.175
38018480,-0.757,-0.064,0.766,-3.412,-22.872,-7.28
38018490,-0.66,-0.07,0.776,-0.682,-34.702,-5.512
38018500,-0.585,-0.071,0.771,-0.245,-45.062,-3.482
38018510,-0.476,0.007,0.803,-4.06,-49.892,-4.322
38018520,-0.374,0.025,0.874,-10.045,-43.907,-3.815
38018530,-0.405,-0.035,0.9,-17.377,-33.635,-4.13
38018540,-0.496,-0.09,0.854,-20.772,-22.715,-5.862
38018550,-0.557,-0.111,0.808,-16.747,-18.515,-5.862
38018560,-0.565,-0.097,0.831,-8.942,-18.795,-3.815
38018570,-0.54,-0.078,0.865,-1.207,-20.09,-0.525
38018580,-0.518,-0.08,0.895,2.187,-21.245,4.585
38018590,-0.486,-0.056,0.916,2.187,-18.725,6.685
38018600,-0.459,-0.018,0.911,1.347,-12.985,6.282
38018610,-0.463,0.021,0.881,0.945,-6.597,5.705
38018620,-0.484,0.036,0.858,0.945,-1.767,6.16
38018630,-0.491,0.059,0.867,2.345,2.012,4.462
38018640,-0.5,0.064,0.888,2.327,5.18,2.59
38018650,-0.479,0.056,0.913,0.77,9.87,1.96
38018660,-0.458,-0.014,0.88,0.455,20.702,3.815
38018670,-0.55,-0.089,0.816,2.362,28,6.055
38018680,-0.624,-0.078,0.783,4.935,23.397,5.46
38018690,-0.603,0,0.815,6.597,17.797,4.357
38018700,-0.559,0.026,0.85,4.882,16.135,5.53
38018710,-0.556,0.002,0.829,1.417,11.41,5.302
38018720,-0.582,-0.012,0.796,-0.647,9.117,2.765
38018730,-0.619,-0.028,0.778,-0.542,7.945,-1.137
38018740,-0.655,-0.051,0.776,-0.77,3.867,-5.46
38018750,-0.689,-0.089,0.778,-2.695,-2.642,-8.277
38018760,-0.705,-0.117,0.783,-4.76,-8.995,-8.172
38018760,-0.689,-0.118,0.772,-4.042,-15.592,-6.02
38018780,-0.703,-0.102,0.717,-1.802,-28.962,-3.062
38018780,-0.636,0.008,0.796,-1.225,-42.805,-2.975
38018800,-0.463,0.073,0.955,-6.72,-45.727,-3.43
38018800,-0.371,0.014,0.994,-16.59,-35.332,-2.17
38018820,-0.396,-0.102,0.874,-19.775,-20.755,-1.365
38018820,-0.457,-0.139,0.787,-12.162,-10.132,-1.33
38018830,-0.493,-0.103,0.81,-2.065,-4.13,1.032
38018840,-0.487,-0.026,0.871,6.86,-2.432,1.925
38018850,-0.49,0.014,0.865,11.987,-4.182,2.415
38018860,-0.5,0.015,0.866,12.057,-1.662,2.345
38018870,-0.474,0.025,0.877,10.57,-0.717,0.105
38018880,-0.437,0.049,0.896,6.142,0.035,-1.277
38018890,-0.397,0.034,0.887,1.015,4.497,-0.49
38018900,-0.417,0.011,0.897,-3.692,10.71,1.942
38018910,-0.405,0.011,0.926,-7.07,20.37,3.552
38018920,-0.466,-0.078,0.864,-4.9,35.297,6.755
38018930,-0.635,-0.129,0.782,3.972,44.502,7.315
38018940,-0.738,-0.084,0.772,12.617,35.017,3.465
38018950,-0.732,-0.019,0.799,17.43,23.695,0.28
38018960,-0.675,0.005,0.817,17.22,15.47,-0.245
38018970,-0.598,0.008,0.838,12.092,5.425,0.157
38018980,-0.563,-0.001,0.835,4.812,4.025,2.625
38018990,-0.586,-0.027,0.808,-4.48,6.352,6.422
38019000,-0.614,-0.02,0.797,-8.242,6.107,5.092
38019010,-0.668,-0.02,0.767,-8.645,3.675,-0.192
38019020,-0.714,-0.049,0.77,-5.985,-1.68,-5.635
38019030,-0.712,-0.081,0.775,-1.977,-10.185,-8.89
38019040,-0.671,-0.105,0.785,1.102,-18.252,-8.33
38019050,-0.636,-0.098,0.757,3.36,-28.175,-5.337
38019060,-0.582,-0.016,0.781,3.185,-35.052,-2.957
38019070,-0.506,0.016,0.835,-1.207,-34.3,-1.82
38019080,-0.481,0.002,0.89,-8.382,-25.427,-2.817
38019080,-0.488,-0.012,0.905,-15.855,-19.652,-5.285
38019100,-0.487,-0.032,0.871,-17.167,-17.412,-7.35
38019100,-0.522,-0.075,0.834,-11.672,-11.637,-7.122
38019120,-0.566,-0.099,0.823,-2.922,-9.275,-5.652
38019120,-0.572,-0.088,0.828,4.707,-10.92,-3.027
38019140,-0.556,-0.058,0.85,8.452,-12.355,-0.175
38019140,-0.511,-0.028,0.878,7.717,-12.582,1.89
38019160,-0.456,-0.002,0.886,4.235,-11.13,3.237
38019160,-0.432,-0.001,0.868,0.647,-7.49,4.2
38019170,-0.432,0.009,0.888,-2.572,-1.365,4.392
38019180,-0.443,0.012,0.891,-5.46,4.042,4.41
38019190,-0.473,-0.001,0.866,-4.602,7.7,3.867
38019200,-0.5,-0.002,0.879,-0.717,12.232,3.255
38019210,-0.495,0.008,0.899,2.852,22.4,4.742
38019220,-0.562,-0.05,0.842,7.35,32.917,8.61
38019230,-0.658,-0.068,0.804,10.412,31.36,9.485
38019240,-0.643,-0.004,0.819,9.345,22.295,7.612
38019250,-0.565,0.053,0.825,6.352,19.967,8.557
38019260,-0.525,0.055,0.814,1.662,17.92,11.252
38019270,-0.54,0.033,0.801,-3.692,16.135,9.765
38019280,-0.584,0.006,0.781,-6.142,17.22,3.552
38019290,-0.649,-0.03,0.741,-5.022,15.347,-3.43
38019300,-0.71,-0.062,0.707,-2.187,10.307,-9.152
38019310,-0.748,-0.096,0.74,1.067,1.435,-12.25
38019320,-0.76,-0.129,0.759,1.417,-10.412,-10.955
38019330,-0.76,-0.127,0.743,2.082,-24.937,-7.63
38019340,-0.686,-0.036,0.794,-0.962,-36.155,-4.025
38019350,-0.513,0.034,0.919,-7.245,-37.87,-0.805
38019360,-0.429,0.007,0.94,-16.817,-32.497,1.12
38019370,-0.442,-0.073,0.842,-21.665,-24.692,-0.332
38019380,-0.477,-0.13,0.78,-15.575,-18.707,-3.692
38019390,-0.517,-0.141,0.787,-6.265,-13.842,-4.777
38019400,-0.539,-0.104,0.803,1.697,-13.65,-3.01
38019410,-0.542,-0.036,0.84,7.63,-14.595,0.297
38019420,-0.53,0.007,0.872,7.735,-13.615,4.357
38019430,-0.521,0.012,0.858,6.755,-13.335,5.075
38019440,-0.513,0.003,0.853,4.392,-11.952,3.622
38019450,-0.497,0.003,0.865,0.927,-8.627,1.802
38019460,-0.487,0.008,0.862,-2.94,-4.9,0.717
38019470,-0.491,0.004,0.854,-4.882,-0.665,1.575
38019480,-0.522,0.004,0.85,-2.292,2.345,2.94
38019490,-0.551,0.017,0.877,1.925,4.34,2.835
38019500,-0.53,0.035,0.932,3.692,6.982,1.785
38019510,-0.499,-0.039,0.905,1.767,14.192,2.59
38019510,-0.53,-0.106,0.803,1.365,17.797,4.34
38019530,-0.553,-0.07,0.807,1.645,14.35,6.02
38019530,-0.524,0.004,0.838,1.225,15.592,7.997
38019550,-0.531,0,0.818,0.805,19.04,10.78
38019550,-0.57,-0.024,0.801,-0.245,16.502,10.587
38019570,-0.601,-0.015,0.775,-0.49,14.262,6.58
38019570,-0.648,-0.008,0.774,1.137,11.987,2.502
38019580,-0.698,-0.026,0.815,-0.437,6.965,-1.662
38019590,-0.74,-0.052,0.826,-4.217,1.435,-5.075
38019600,-0.741,-0.085,0.789,-6.09,-6.002,-4.847
38019610,-0.701,-0.086,0.761,-4.147,-13.93,-2.31
38019620,-0.657,-0.084,0.73,-2.17,-22.067,0.63
38019630,-0.591,-0.009,0.775,-1.277,-29.382,1.802
38019640,-0.48,0.038,0.878,-6.352,-31.902,1.96
38019650,-0.409,0.024,0.901,-14.35,-27.72,0.35
38019660,-0.412,-0.062,0.854,-18.025,-17.64,-1.26
38019670,-0.479,-0.12,0.802,-14.402,-9.747,-2.887
38019680,-0.539,-0.106,0.826,-8.102,-4.13,-2.747
38019690,-0.578,-0.076,0.854,-1.207,-4.287,-1.627
38019700,-0.601,-0.058,0.846,3.202,-7.332,1.295
38019710,-0.588,-0.039,0.87,5.25,-9.607,4.182
38019720,-0.545,-0.018,0.877,5.442,-8.82,4.83
38019730,-0.518,-0.002,0.874,3.22,-7.367,4.322
38019740,-0.513,0.008,0.864,-0.315,-5.005,3.29
38019750,-0.523,0.01,0.851,-3.762,-1.61,2.205
38019760,-0.534,-0.002,0.848,-5.145,1.05,1.767
38019770,-0.543,-0.007,0.838,-3.167,3.115,1.785
38019780,-0.541,0,0.842,1.085,5.232,1.96
38019790,-0.54,0.01,0.842,5.372,6.037,2.45
38019800,-0.55,0.017,0.838,7.735,5.565,2.45
38019810,-0.529,0.02,0.875,6.807,5.81,1.557
38019820,-0.479,-0.053,0.888,2.835,11.13,1.557
38019830,-0.506,-0.144,0.801,0.7,13.632,2.065
38019830,-0.558,-0.128,0.782,0.595,10.237,2.905
38019850,-0.551,-0.028,0.831,1.12,10.587,4.742
38019850,-0.54,0.001,0.829,0.665,13.002,7.63
38019870,-0.575,-0.039,0.788,-0.665,8.575,8.89
38019870,-0.63,-0.05,0.771,-0.7,7.997,6.352
38019890,-0.651,-0.035,0.765,0.455,8.872,2.45
38019890,-0.664,-0.012,0.805,-0.245,3.482,0.245
38019910,-0.668,-0.027,0.833,-4.322,0.822,-0.315
38019910,-0.677,-0.058,0.826,-6.667,2.1,1.032
38019920,-0.677,-0.057,0.8,-5.845,-1.05,2.642
38019930,-0.643,-0.009,0.802,-2.345,-5.442,1.977
38019940,-0.599,0.005,0.794,0.07,-10.92,0.227
38019950,-0.571,0.024,0.772,0.682,-17.99,-2.135
38019960,-0.556,0.021,0.82,-1.015,-21.437,-4.445
38019970,-0.557,-0.02,0.867,-6.037,-19.985,-7.297
38019980,-0.558,-0.052,0.871,-11.217,-15.102,-8.505
38019990,-0.551,-0.069,0.837,-12.862,-13.527,-6.457
38020000,-0.552,-0.067,0.824,-10.745,-14.49,-3.08
38020010,-0.529,-0.067,0.84,-7.105,-14.315,-0.367
38020020,-0.494,-0.085,0.827,-2.45,-15.47,1.137
38020030,-0.495,-0.108,0.814,1.645,-13.615,1.837
38020040,-0.512,-0.097,0.824,3.727,-9.292,1.872
38020050,-0.53,-0.07,0.831,3.815,-6.685,1.995
38020060,-0.552,-0.039,0.838,3.657,-5.985,2.117
38020070,-0.572,-0.022,0.85,1.557,-6.475,2.975
38020080,-0.572,-0.01,0.86,-0.77,-9.537,3.71
38020090,-0.554,-0.002,0.851,-1.75,-12.81,4.375
38020100,-0.531,0.012,0.861,-1.54,-15.662,4.025
38020110,-0.49,0.025,0.872,-1.54,-18.217,2.852
38020120,-0.448,0.021,0.873,-1.575,-17.412,2.555
38020130,-0.424,0.007,0.878,-2.24,-11.882,3.22
38020140,-0.41,0.001,0.896,-3.115,-3.29,4.147
38020150,-0.419,0.008,0.899,-3.99,9.537,6.405
38020160,-0.503,-0.028,0.861,-2.397,24.167,8.767
38020170,-0.631,-0.054,0.838,0.822,29.977,7.717
38020180,-0.676,-0.034,0.821,3.132,22.522,4.322
38020190,-0.638,-0.004,0.81,5.582,16.275,3.325
38020200,-0.623,-0.018,0.802,5.827,10.447,5.075
38020210,-0.631,-0.019,0.794,3.885,4.672,5.512
38020220,-0.611,0.007,0.807,1.102,3.78,3.955
38020230,-0.595,0.012,0.811,-2.152,3.692,1.417
38020240,-0.604,-0.012,0.802,-4.795,3.692,-2.1
38020250,-0.623,-0.06,0.809,-6.09,2.73,-5.39
38020260,-0.658,-0.1,0.796,-5.075,-2.1,-7.122
38020260,-0.687,-0.111,0.784,-2.555,-8.12,-7.122
38020280,-0.681,-0.116,0.761,0.77,-13.667,-5.547
38020280,-0.662,-0.068,0.749,4.06,-23.87,-3.92
38020300,-0.539,0.05,0.874,2.24,-30.765,-2.537
38020300,-0.39,0.078,0.94,-5.022,-27.282,-0.175
38020320,-0.386,-0.015,0.869,-10.762,-18.042,0.297
38020320,-0.465,-0.115,0.8,-11.55,-12.565,-4.182
38020330,-0.53,-0.118,0.835,-8.207,-4.305,-9.152
38020340,-0.573,-0.102,0.852,-3.272,0.315,-8.75
38020350,-0.619,-0.096,0.824,0.997,-1.942,-3.045
38020360,-0.605,-0.074,0.822,4.935,-5.845,2.485
38020370,-0.543,-0.048,0.851,8.102,-8.032,5.862
38020380,-0.501,-0.033,0.855,7.91,-8.225,5.897
38020390,-0.515,-0.024,0.836,4.147,-6.947,2.835
38020400,-0.538,-0.011,0.846,-0.192,-3.727,-0.367
38020410,-0.547,0,0.864,-3.5,-2.502,-0.962
38020420,-0.546,-0.002,0.872,-4.217,-2.572,1.015
38020430,-0.536,-0.015,0.867,-2.397,-2.31,3.29
38020440,-0.519,-0.015,0.86,0.7,-1.715,3.78
38020450,-0.5,0.001,0.862,2.905,-0.857,3.132
38020460,-0.488,0.011,0.866,2.397,0.787,2.1
38020470,-0.457,0.018,0.884,0.017,5.407,2.31
38020480,-0.47,-0.056,0.849,-1.732,15.05,4.917
38020490,-0.592,-0.112,0.795,-0.665,19.355,5.985
38020500,-0.643,-0.059,0.821,-0.595,14.507,4.987
38020510,-0.56,0.036,0.855,-0.525,13.965,6.527
38020520,-0.523,0.037,0.838,-1.172,14.437,10.71
38020530,-0.55,0.004,0.812,-2.327,13.615,11.217
38020540,-0.579,0.006,0.792,-0.56,15.032,6.615
38020550,-0.603,0.007,0.789,1.312,15.4,0.245
38020560,-0.635,-0.002,0.785,0.507,10.552,-5.635
38020570,-0.67,-0.034,0.798,-0.77,6.895,-8.977
38020580,-0.699,-0.085,0.798,-2.922,3.43,-8.855
38020580,-0.688,-0.095,0.799,-2.52,-3.132,-7.647
38020600,-0.674,-0.106,0.752,-2.45,-11.847,-4.322
38020600,-0.674,-0.124,0.694,-0.665,-22.155,-1.977
38020620,-0.641,-0.041,0.761,0.945,-32.042,-2.87
38020620,-0.523,0.018,0.952,-3.972,-33.757,-3.132
38020640,-0.439,-0.002,0.951,-11.305,-23.975,-1.89
38020640,-0.46,-0.08,0.822,-11.462,-11.252,0
38020660,-0.521,-0.113,0.771,-4.147,-6.842,-1.522
38020660,-0.553,-0.093,0.801,3.762,-3.78,-4.287
38020670,-0.597,-0.081,0.818,7.507,-4.602,-3.412
38020680,-0.609,-0.063,0.824,6.755,-7,-0.122
38020690,-0.579,-0.034,0.84,4.497,-9.275,2.817
38020700,-0.548,-0.017,0.855,2.222,-10.447,4.497
38020710,-0.529,-0.006,0.855,-0.367,-9.94,4.515
38020720,-0.5,0.01,0.843,-3.36,-7.28,3.167
38020730,-0.477,0.008,0.824,-5.792,-5.232,1.242
38020740,-0.474,-0.001,0.838,-5.407,-2.905,0.245
38020750,-0.454,-0.019,0.858,-3.255,-0.665,-0.245
38020760,-0.458,-0.072,0.889,-1.085,2.24,-0.28
38020770,-0.477,-0.112,0.859,-0.63,7.542,-0.542
38020780,-0.495,-0.13,0.825,0.595,10.517,1.417
38020790,-0.57,-0.128,0.804,1.4,12.057,5.145
38020800,-0.636,-0.066,0.826,1.96,13.93,8.277
38020810,-0.623,-0.017,0.86,0.665,12.827,11.882
38020820,-0.61,-0.007,0.817,-0.017,11.935,15.977
38020830,-0.624,0.029,0.8,0.07,9.17,17.22
38020840,-0.616,0.086,0.814,-1.26,5.687,14.017
38020850,-0.631,0.118,0.808,-2.362,2.467,8.225
38020860,-0.654,0.109,0.815,-4.462,-3.657,-0.28
38020870,-0.649,0.046,0.842,-6.51,-9.835,-9.73
38020880,-0.625,-0.036,0.841,-6.755,-11.672,-15.225
38020890,-0.591,-0.096,0.819,-5.635,-13.125,-14.945
38020900,-0.57,-0.112,0.806,-3.902,-13.72,-10.92
38020910,-0.577,-0.111,0.79,-2.31,-14.402,-5.775
38020920,-0.62,-0.084,0.757,0.105,-19.477,-3.36
38020930,-0.625,0.017,0.796,1.82,-24.937,-5.18
38020940,-0.565,0.032,0.869,-0.07,-25.025,-7.875
38020950,-0.524,-0.014,0.833,-3.412,-20.562,-10.01
38020960,-0.485,-0.066,0.789,-4.515,-17.57,-9.66
38020970,-0.471,-0.088,0.82,-3.85,-14.28,-7.56
38020980,-0.518,-0.111,0.854,-4.182,-9.24,-5.582
38020990,-0.581,-0.138,0.84,-4.305,-8.26,-3.867
38021000,-0.574,-0.138,0.83,-1.837,-9.747,-2.642
38021010,-0.536,-0.114,0.838,2.327,-10.535,-0.455
38021010,-0.522,-0.085,0.834,6.055,-11.34,2.432
38021030,-0.518,-0.051,0.837,8.015,-11.182,4.655
38021030,-0.512,-0.015,0.849,7.14,-9.17,4.777
38021050,-0.509,0.001,0.849,4.55,-6.615,3.71
38021050,-0.514,0.01,0.845,2.1,-3.902,3.237
38021060,-0.521,0.015,0.848,0.437,-1.032,3.167
38021070,-0.515,0.017,0.85,-0.385,1.085,3.272
38021080,-0.508,0.014,0.86,-0.437,2.695,3.85
38021090,-0.483,0.008,0.903,-1.295,6.51,3.832
38021100,-0.463,-0.06,0.895,-2.8,13.562,3.867
38021110,-0.493,-0.105,0.829,-1.225,18.13,4.9
38021120,-0.542,-0.083,0.818,1.995,17.92,6.702
38021130,-0.575,-0.019,0.856,4.235,19.53,8.645
38021140,-0.59,-0.008,0.827,4.147,19.267,10.727
38021150,-0.582,-0.013,0.809,3.78,16.537,11.935
38021160,-0.528,0.008,0.818,2.222,15.347,11.532
38021170,-0.483,0.03,0.827,0.017,17.115,11.62
38021180,-0.499,0.017,0.804,-2.992,19.635,10.85
38021190,-0.574,-0.004,0.773,-4.707,18.795,6.265
38021200,-0.662,-0.005,0.768,-4.165,17.202,-0.472
38021210,-0.722,-0.007,0.789,-1.592,12.95,-6.632
38021220,-0.749,-0.044,0.807,0.227,4.62,-10.85
38021230,-0.726,-0.095,0.802,0.822,-5.722,-11.987
38021240,-0.683,-0.123,0.769,1.872,-14.962,-9.1
38021250,-0.673,-0.106,0.747,3.885,-24.605,-4.9
38021260,-0.629,0.002,0.79,3.255,-34.282,-2.975
38021270,-0.52,0.054,0.88,-0.455,-32.515,-2.03
38021280,-0.494,0.015,0.87,-5.232,-23.257,-2.94
38021290,-0.538,-0.052,0.796,-7.14,-16.887,-7.647
38021300,-0.56,-0.086,0.783,-4.077,-15.102,-12.827
38021310,-0.555,-0.094,0.828,-0.577,-13.632,-13.317
38021320,-0.563,-0.123,0.841,-0.035,-12.512,-7.735
38021330,-0.562,-0.136,0.82,0.56,-13.51,-0.525
38021330,-0.528,-0.115,0.822,2.38,-13.79,4.725
38021350,-0.497,-0.069,0.83,4.2,-11.602,6.317
38021350,-0.481,-0.022,0.835,4.305,-10.045,6.072
38021370,-0.476,0.008,0.847,2.607,-7.525,5.442
38021370,-0.461,0.028,0.866,0.14,-2.712,4.777
38021390,-0.453,0.026,0.862,-1.837,2.747,5.425
38021390,-0.472,0.024,0.862,-1.557,8.54,6.422
38021410,-0.473,0.03,0.883,-2.03,16.24,6.79
38021410,-0.498,-0.053,0.837,-2.275,27.632,7.367
38021420,-0.608,-0.12,0.732,0.875,32.06,7.332
38021430,-0.678,-0.099,0.728,5.215,23.572,6.282
38021440,-0.644,-0.012,0.81,7.192,19.285,7.192
38021450,-0.593,0.026,0.835,5.145,20.597,12.39
38021460,-0.56,0.017,0.822,0.577,19.232,16.975
38021470,-0.531,0.014,0.805,-3.36,20.527,16.205
38021480,-0.528,0.023,0.795,-4.847,21.577,11.445
38021490,-0.596,-0.001,0.756,-5.407,16.94,4.532
38021500,-0.711,-0.025,0.738,-3.377,9.362,-3.762
38021510,-0.771,-0.022,0.783,-0.245,0.28,-9.642
38021520,-0.775,-0.032,0.823,2.817,-12.215,-11.2
38021530,-0.747,-0.06,0.813,4.27,-25.62,-9.765
38021540,-0.665,-0.077,0.793,4.007,-32.812,-6.387
38021550,-0.567,-0.069,0.779,3.272,-34.545,-2.625
38021560,-0.524,-0.063,0.759,1.102,-34.387,-1.12
38021570,-0.514,0.04,0.806,-2.065,-37.082,-3.465
38021580,-0.455,0.091,0.91,-6.965,-29.75,-5.792
38021590,-0.495,0.037,0.899,-10.132,-17.202,-8.312
38021600,-0.563,-0.033,0.8,-8.575,-10.587,-12.372
38021610,-0.588,-0.095,0.764,-0.542,-12.617,-14.647
38021620,-0.633,-0.121,0.788,7.14,-18.34,-13.247
38021630,-0.646,-0.119,0.82,8.137,-23.852,-8.522
38021640,-0.597,-0.105,0.829,6.23,-29.067,-2.52
38021650,-0.514,-0.073,0.843,2.94,-32.06,2.94
38021660,-0.447,-0.052,0.866,-1.067,-29.295,5.827
38021670,-0.414,-0.048,0.864,-4.06,-20.475,6.247
38021680,-0.438,-0.054,0.842,-4.952,-11.637,5.145
38021690,-0.484,-0.044,0.838,-4.235,-4.602,4.532
38021700,-0.496,-0.018,0.877,-1.89,0.105,4.287
38021710,-0.48,0.013,0.886,2.555,2.082,3.902
38021720,-0.48,0.012,0.869,5.617,5.845,6.597
38021730,-0.492,0.015,0.858,7.91,10.115,8.68
38021740,-0.502,0.04,0.888,6.212,13.947,8.767
38021750,-0.468,0.045,0.883,-0.227,22.592,7.892
38021750,-0.516,-0.057,0.835,-4.182,31.22,8.067
38021760,-0.627,-0.094,0.783,-4.602,29.4,6.51
38021770,-0.645,-0.046,0.784,-2.205,21.21,5.11
38021780,-0.615,0.015,0.829,1.785,17.692,6.912
38021790,-0.574,0.03,0.864,1.4,16.66,10.202
38021800,-0.573,0.011,0.812,1.557,14.875,10.535
38021810,-0.611,-0.008,0.772,2.555,11.585,7.525
38021820,-0.608,0,0.783,3.517,8.4,1.435
38021830,-0.617,-0.017,0.74,3.99,6.615,-3.167
38021840,-0.656,-0.042,0.733,4.287,2.345,-5.74
38021850,-0.691,-0.048,0.78,3.307,-4.322,-6.737
38021860,-0.703,-0.049,0.811,1.662,-12.005,-6.125
38021870,-0.669,-0.064,0.802,0.35,-20.562,-4.077
38021880,-0.616,-0.071,0.789,-0.052,-25.672,-1.785
38021890,-0.597,-0.06,0.787,0.122,-28.595,-0.91
38021900,-0.627,-0.048,0.789,0.245,-31.307,-2.082
38021910,-0.693,-0.038,0.784,1.26,-37.59,-6.125
38021920,-0.682,0.045,0.849,1.155,-46.69,-10.745
38021930,-0.515,0.121,0.967,-3.29,-51.87,-10.115
38021940,-0.369,0.08,0.911,-8.05,-48.44,-5.162
38021950,-0.396,-0.043,0.803,-8.522,-35.262,-0.647
38021960,-0.466,-0.091,0.8,-6.335,-25.882,-1.522
38021970,-0.523,-0.093,0.811,-6.685,-25.112,-2.677
38021980,-0.562,-0.09,0.832,-8.417,-27.632,-2.362
38021990,-0.548,-0.093,0.862,-8.855,-29.067,-2.8
38022000,-0.488,-0.07,0.873,-7.087,-30.817,-2.992
38022010,-0.413,-0.045,0.888,-4.2,-28.245,-0.122
38022020,-0.393,-0.059,0.871,-0.77,-22.33,4.322
38022030,-0.421,-0.063,0.865,1.697,-14.752,7.175
38022040,-0.422,-0.01,0.894,2.677,-8.102,7.105
38022050,-0.409,0.021,0.884,2.065,-2.275,5.792
38022060,-0.413,0.018,0.875,2.572,6.125,3.167
38022070,-0.424,0.011,0.883,3.972,13.72,-0.402
38022080,-0.443,-0.003,0.875,4.077,19.477,-0.595
38022080,-0.466,-0.009,0.875,4.462,23.45,2.152
38022100,-0.465,-0.007,0.877,3.465,27.405,5.442
38022100,-0.469,-0.067,0.855,2.59,34.125,7.087
38022120,-0.558,-0.111,0.801,2.905,39.287,7.052
38022120,-0.629,-0.061,0.78,3.85,35.28,6.265
38022140,-0.664,0.01,0.759,4.375,24.412,5.88
38022140,-0.644,0.076,0.807,4.427,18.025,4.83
38022160,-0.611,0.095,0.817,2.38,9.87,1.487
38022160,-0.605,0.067,0.794,-0.402,3.867,-1.697
38022170,-0.61,0.014,0.823,-5.495,1.032,-4.112
38022180,-0.608,-0.037,0.849,-11.13,-2.642,-8.085
38022190,-0.63,-0.093,0.827,-14.945,-5.302,-11.217
38022200,-0.667,-0.139,0.8,-14.927,-9.712,-12.232
38022210,-0.708,-0.093,0.743,-9.485,-19.792,-11.585
38022220,-0.698,-0.042,0.798,-2.555,-31.815,-9.642
38022230,-0.609,-0.038,0.878,-1.26,-40.442,-8.295
38022240,-0.454,-0.042,0.893,-5.302,-40.862,-5.705
38022250,-0.326,-0.058,0.851,-8.627,-36.522,-2.082
38022260,-0.297,-0.081,0.846,-9.502,-26.005,0.105
38022270,-0.368,-0.09,0.856,-8.592,-13.755,0.997
38022280,-0.474,-0.106,0.867,-7.735,-3.885,2.87
38022290,-0.523,-0.1,0.873,-3.29,1.89,2.012
38022300,-0.505,-0.049,0.873,3.727,2.625,0.052
38022310,-0.47,-0.012,0.864,9.397,2.852,2.397
38022320,-0.448,0.021,0.886,13.387,4.707,7.35
38022330,-0.444,0.04,0.889,12.39,9.8,10.43
38022340,-0.448,0.059,0.899,7.612,17.167,9.73
38022350,-0.44,0.034,0.902,1.19,29.067,7.647
38022360,-0.502,-0.045,0.821,-1.977,39.147,6.527
38022370,-0.561,-0.054,0.773,-0.385,37.345,6.177
38022380,-0.584,-0.011,0.803,1.732,32.34,7.105
38022390,-0.563,0.033,0.858,1.4,33.407,8.575
38022400,-0.524,0.038,0.865,-0.262,32.585,8.207
38022410,-0.554,0.015,0.802,-1.155,32.007,6.44
38022420,-0.649,-0.012,0.726,-1.225,25.34,2.992
38022430,-0.727,-0.014,0.733,0.77,16.537,-2.87
38022440,-0.781,-0.02,0.771,0.77,5.985,-9.012
38022440,-0.785,-0.06,0.75,-2.537,-8.855,-12.967
38022460,-0.717,-0.082,0.721,-0.665,-23.905,-14.752
38022460,-0.594,-0.01,0.76,1.435,-34.965,-11.252
38022480,-0.479,0.008,0.878,-3.517,-34.72,-2.975
38022480,-0.449,-0.034,0.941,-11.637,-21.735,0.875
38022500,-0.46,-0.096,0.826,-16.275,-9.695,-1.242
38022500,-0.49,-0.137,0.775,-11.445,-6.44,-5.67
38022510,-0.531,-0.151,0.822,-4.375,-4.095,-8.207
38022520,-0.547,-0.148,0.834,1.4,-2.38,-5.005
38022530,-0.536,-0.127,0.821,4.952,-0.77,2.782
38022540,-0.506,-0.076,0.813,7.07,1.33,8.54
38022550,-0.49,-0.019,0.833,8.365,3.29,10.255
38022560,-0.492,0.011,0.845,7.437,6.44,8.592
38022570,-0.515,0.014,0.833,3.832,9.66,5.6
38022580,-0.537,0.022,0.84,-0.332,12.022,3.552
38022590,-0.535,0.018,0.855,-2.817,17.605,5.477
38022600,-0.57,-0.023,0.831,-1.505,25.06,10.045
38022610,-0.613,-0.022,0.812,2.292,26.582,12.267
38022620,-0.637,0.005,0.793,5.565,20.597,11.252
38022630,-0.633,0.039,0.8,7.805,18.76,8.015
38022640,-0.584,0.029,0.809,5.775,16.135,4.357
38022650,-0.57,-0.021,0.766,2.45,14.175,2.03
38022660,-0.583,-0.041,0.719,0.84,14.962,0.07
38022670,-0.572,-0.034,0.722,0.035,16.555,-0.28
38022680,-0.614,-0.015,0.757,-0.98,13.09,0.385
38022690,-0.696,-0.035,0.803,-5.057,6.842,-0.49
38022700,-0.744,-0.072,0.79,-7.98,-0.297,-1.872
38022710,-0.745,-0.102,0.749,-5.495,-10.202,-1.767
38022720,-0.699,-0.053,0.745,-1.05,-26.705,-2.765
38022730,-0.564,0.026,0.837,0.875,-36.732,-2.8
38022740,-0.46,0.039,0.926,-2.975,-32.83,-0.717
38022750,-0.483,-0.05,0.844,-7.735,-20.755,-0.315
38022760,-0.574,-0.13,0.755,-5.827,-12.407,-3.185
38022770,-0.597,-0.116,0.795,-1.137,-7.892,-5.792
38022780,-0.559,-0.055,0.848,0.717,-6.317,-2.415
38022790,-0.514,-0.017,0.835,-0.402,-7.857,5.46
38022800,-0.491,-0.008,0.818,-0.577,-6.265,10.657
38022810,-0.49,-0.001,0.838,1.067,-2.555,9.992
38022820,-0.498,0.013,0.849,1.697,1.54,5.197
38022830,-0.529,0.018,0.832,0.367,5.88,1.347
38022830,-0.549,0.038,0.854,-2.292,10.08,1.102
38022850,-0.542,0.012,0.866,-4.252,20.457,5.232
38022850,-0.608,-0.038,0.803,-1.575,27.16,10.412
38022870,-0.699,-0.051,0.763,3.062,19.337,10.167
38022870,-0.692,-0.002,0.777,5.232,6.492,4.777
38022890,-0.592,0.044,0.815,4.042,1.47,0.945
38022890,-0.531,0.017,0.803,-2.047,-1.295,0.647
38022910,-0.557,-0.028,0.725,-7.07,-2.117,-0.175
38022910,-0.627,-0.044,0.738,-8.085,-4.287,-4.375
38022920,-0.717,-0.072,0.8,-10.762,-10.57,-10.552
38022930,-0.767,-0.083,0.817,-15.12,-18.55,-14.77
38022940,-0.763,-0.102,0.764,-16.03,-25.865,-12.477
38022950,-0.716,-0.031,0.753,-9.187,-37.24,-8.19
38022960,-0.586,0.062,0.861,-2.712,-45.115,-5.337
38022970,-0.493,0.012,0.867,-3.307,-42.367,-3.36
38022980,-0.492,-0.075,0.799,-3.255,-29.645,-5.74
38022990,-0.494,-0.118,0.77,-3.465,-24.587,-10.727
38023000,-0.465,-0.105,0.853,-3.657,-21.927,-12.705
38023010,-0.475,-0.113,0.882,-5.81,-14.507,-7.437
38023020,-0.54,-0.127,0.843,-5.635,-7.315,1.96
38023030,-0.545,-0.067,0.858,-2.362,-4.672,7.647
38023040,-0.472,0.014,0.884,1.837,-3.307,8.837
38023050,-0.425,0.045,0.869,4.847,3.132,9.135
38023060,-0.439,0.044,0.876,5.407,11.427,7.98
38023070,-0.466,0.032,0.878,3.325,21.455,4.952
38023080,-0.563,-0.045,0.789,3.15,33.81,3.237
38023090,-0.679,-0.078,0.721,6.737,35.752,1.995
38023100,-0.729,-0.065,0.715,9.012,22.977,0.857
38023110,-0.711,-0.022,0.789,7.297,14.017,1.347
38023120,-0.641,-0.014,0.797,0.28,5.372,4.707
38023130,-0.577,-0.037,0.754,-6.09,-2.38,7.087
38023140,-0.531,-0.042,0.79,-10.43,-2.152,5.197
38023150,-0.503,-0.028,0.854,-14.682,-1.662,1.592
38023160,-0.519,-0.026,0.839,-16.8,0.35,-0.682
38023170,-0.578,-0.039,0.827,-14.157,7.35,-0.577
38023170,-0.61,-0.051,0.841,-7.332,9.205,0.052
38023190,-0.571,-0.041,0.836,-0.07,7.77,0.245
38023190,-0.516,-0.035,0.814,5.267,10.745,2.467
38023210,-0.515,-0.043,0.809,7.385,16.415,4.795
38023210,-0.566,-0.065,0.81,4.97,24.85,4.095
38023230,-0.602,-0.079,0.781,3.08,28.945,2.257
38023230,-0.609,-0.088,0.784,2.292,30.082,3.097
38023250,-0.599,-0.084,0.795,1.942,31.272,6.86
38023250,-0.598,-0.074,0.8,2.677,32.112,12.757
38023260,-0.613,-0.056,0.799,3.482,32.725,18.042
38023270,-0.644,-0.036,0.807,4.865,32.585,20.02
38023280,-0.676,-0.021,0.812,6.142,31.08,18.112
38023290,-0.687,-0.019,0.797,7.052,29.12,13.807
38023300,-0.678,-0.038,0.813,8.837,25.41,10.272
38023310,-0.689,-0.053,0.792,8.715,22.417,9.625
38023320,-0.744,0.008,0.798,10.797,23.887,12.022
38023330,-0.764,0.006,0.855,10.185,13.527,11.095
38023340,-0.667,-0.037,0.87,5.617,5.407,7.315
38023350,-0.538,-0.051,0.876,0.892,11.375,8.61
38023360,-0.508,-0.078,0.904,-3.272,17.045,11.987
38023370,-0.53,-0.045,0.886,-5.145,14.052,11.69
38023380,-0.595,-0.037,0.862,-1.907,18.637,11.637
38023390,-0.657,-0.049,0.83,5.407,26.67,9.345
38023400,-0.663,-0.031,0.829,12.145,26.372,6.632
38023410,-0.669,-0.01,0.802,17.727,20.265,6.072
38023420,-0.654,0.016,0.81,25.025,19.39,4.025
38023430,-0.645,0.018,0.842,28.42,17.482,3.552
38023440,-0.677,0.005,0.859,27.282,5.582,3.517
38023450,-0.742,-0.001,0.831,22.68,-8.872,3.01
38023460,-0.768,-0.031,0.793,20.597,-17.377,-0.892
38023470,-0.737,-0.043,0.74,22.645,-25.375,-3.377
38023480,-0.686,-0.034,0.694,27.615,-34.002,-2.555
38023490,-0.627,-0.014,0.646,32.112,-35.297,1.242
38023500,-0.6,0.021,0.63,34.387,-27.772,3.885
38023510,-0.604,0.034,0.661,32.847,-16.17,3.99
38023520,-0.613,0.038,0.74,29.557,-4.917,1.172
38023530,-0.624,0.071,0.774,25.007,1.995,-3.167
38023540,-0.643,0.07,0.761,20.965,4.952,-4.06
38023550,-0.667,0.034,0.767,21.385,6.632,-1.907
38023560,-0.717,0.039,0.758,21.017,0.087,2.555
38023570,-0.724,0.047,0.75,21.787,-13.527,2.537
38023580,-0.727,0.071,0.726,23.905,-31.08,1.26
38023580,-0.707,0.068,0.705,29.26,-46.672,-4.27
38023600,-0.678,0.077,0.712,39.795,-60.445,-13.107
38023600,-0.633,0.078,0.727,46.2,-70.262,-18.935
38023620,-0.589,0.076,0.753,46.812,-75.88,-20.23
38023620,-0.543,0.088,0.764,45.342,-77.105,-20.335
38023640,-0.537,0.094,0.756,43.4,-74.147,-19.197
38023640,-0.569,0.09,0.763,43.085,-69.877,-18.637
38023660,-0.605,0.087,0.775,42.42,-68.18,-20.177
38023660,-0.621,0.081,0.783,40.81,-71.207,-22.417
38023670,-0.607,0.083,0.781,38.517,-79.835,-24.535
38023680,-0.589,0.085,0.784,35.717,-90.912,-24.395
38023690,-0.579,0.083,0.769,29.995,-98.7,-26.74
38023700,-0.55,0.042,0.726,22.312,-102.707,-34.352
38023710,-0.539,0.047,0.764,28.227,-106.732,-38.29
38023720,-0.486,0.095,0.757,22.96,-108.57,-48.37
38023730,-0.482,0.087,0.767,15.627,-102.375,-47.775
38023740,-0.482,0.078,0.803,12.407,-91.052,-41.212
38023750,-0.465,0.096,0.805,11.34,-76.667,-35.175
38023760,-0.434,0.103,0.764,9.712,-63.717,-29.032
38023770,-0.455,0.1,0.731,11.375,-58.117,-22.015
38023780,-0.5,0.114,0.744,14.525,-57.347,-15.137
38023790,-0.488,0.136,0.788,12.582,-59.36,-9.817
38023800,-0.43,0.157,0.836,3.815,-58.607,-4.812
38023810,-0.384,0.166,0.872,-6.037,-54.775,-1.522
38023820,-0.37,0.17,0.892,-10.937,-50.207,-1.61
38023830,-0.375,0.165,0.913,-11.235,-45.605,-2.677
38023840,-0.381,0.159,0.92,-9.59,-42.175,-4.252
38023850,-0.391,0.149,0.913,-7.875,-40.442,-5.267
38023860,-0.409,0.14,0.929,-5.355,-40.372,-5.162
38023870,-0.424,0.127,0.942,-2.765,-42.735,-5.11
38023880,-0.416,0.125,0.965,-0.752,-46.76,-6.09
38023890,-0.404,0.118,0.968,-0.122,-52.36,-7.175
38023900,-0.408,0.102,0.921,-0.28,-57.627,-8.26
38023910,-0.413,0.094,0.902,0.017,-60.62,-9.082
38023920,-0.436,0.084,0.887,0.14,-64.977,-9.73
38023920,-0.422,0.062,0.879,-0.035,-71.942,-10.43
38023940,-0.362,0.046,0.9,-1.365,-79.625,-9.712
38023940,-0.298,0.025,0.917,-5.337,-85.54,-6.142
38023960,-0.251,0.029,0.921,-8.452,-86.59,-6.177
38023960,-0.235,0.021,0.961,-7.507,-83.545,-1.032
38023980,-0.262,0.025,0.992,-7.77,-76.457,5.355
38023980,-0.249,0.042,1.009,-9.94,-67.112,5.407
38024000,-0.231,0.051,0.995,-8.715,-58.52,4.865
38024000,-0.203,0.051,1.002,-4.252,-50.277,7.035
38024010,-0.161,0.054,1.03,-1.417,-41.545,9.397
38024020,-0.13,0.08,1.018,-0.262,-30.835,11.567
38024030,-0.138,0.099,0.992,1.925,-19.687,13.947
38024040,-0.16,0.108,0.953,2.275,-11.83,15.33
38024050,-0.195,0.111,0.912,3.78,-9.677,15.032
38024060,-0.19,0.122,0.916,3.465,-11.83,13.545
38024070,-0.183,0.145,0.955,0.682,-16.537,11.952
38024080,-0.176,0.176,0.982,-2.03,-22.015,10.797
38024090,-0.172,0.183,1.003,-4.182,-26.215,10.832
38024100,-0.166,0.167,1.032,-5.547,-24.902,10.867
38024110,-0.152,0.142,1.029,-5.827,-15.137,9.66
38024120,-0.139,0.115,1.012,-3.902,0.227,9.1
38024130,-0.146,0.09,1.002,-1.505,18.357,9.362
38024140,-0.185,0.076,0.981,1.015,34.982,8.802
38024150,-0.234,0.073,0.975,3.552,46.305,7.507
38024160,-0.273,0.081,0.983,5.372,52.587,5.722
38024170,-0.319,0.078,0.977,4.707,55.037,3.675
38024180,-0.361,0.073,0.967,3.762,51.187,1.225
38024190,-0.366,0.062,0.955,2.555,39.287,-1.172
38024200,-0.302,0.032,0.89,1.68,23.065,-3.395
38024210,-0.205,0.041,0.795,0.875,8.085,-3.447
38024220,-0.153,0.043,0.774,1.067,0.192,-0.367
38024230,-0.182,0.048,0.803,-2.065,-1.89,5.092
38024240,-0.226,0.054,0.849,-6.44,-3.185,7.735
38024250,-0.287,0.076,0.927,-11.655,-5.197,8.295
38024260,-0.349,0.076,1.003,-16.73,-9.852,7.525
38024270,-0.371,0.088,1.035,-20.527,-19.582,4.812
38024280,-0.3,0.127,1.109,-20.685,-28.192,3.972
38024290,-0.2,0.131,1.145,-19.337,-30.642,6.51
38024300,-0.142,0.107,1.133,-15.242,-27.177,9.677
38024310,-0.104,0.09,1.115,-9.572,-19.232,10.535
38024320,-0.063,0.076,1.088,-2.59,-5.25,10.587
38024330,-0.026,0.069,1.07,4.637,13.807,9.52
38024330,-0.001,0.072,1.042,11.497,35.752,6.877
38024350,-0.086,0.052,0.978,17.08,52.43,3.167
38024350,-0.213,0.037,0.948,19.652,55.177,-2.922
38024370,-0.309,0.042,0.939,17.01,47.127,-10.167
38024370,-0.344,0.048,0.936,11.725,37.135,-14.91
38024390,-0.333,0.055,0.907,7.28,26.477,-16.38
38024390,-0.288,0.063,0.868,4.917,18.497,-14.787
38024410,-0.257,0.073,0.864,3.167,17.92,-9.73
38024410,-0.254,0.08,0.867,0.682,21.875,-3.71
38024420,-0.239,0.083,0.878,-0.262,26.95,0.63
38024430,-0.248,0.066,0.898,-1.102,34.545,2.012
38024440,-0.292,0.048,0.887,-4.812,43.12,-0.105
38024450,-0.308,0.046,0.89,-0.035,42.84,-2.047
38024460,-0.375,0.067,0.977,13.125,39.497,5.145
38024470,-0.416,0.085,0.994,5.897,38.972,8.592
38024480,-0.431,0.073,1.017,-8.137,31.675,4.235
38024490,-0.449,0.065,1.021,-12.46,23.66,0.682
38024500,-0.428,0.067,0.993,-6.685,15.417,0.192
38024510,-0.372,0.051,0.979,-1.732,8.68,2.17
38024520,-0.313,0.035,0.971,3.185,6.965,4.445
38024530,-0.308,0.038,0.921,7.927,12.11,7.577
38024540,-0.292,0.073,0.903,8.697,27.177,9.117
38024550,-0.327,0.1,0.893,7.035,47.74,9.922
38024560,-0.368,0.116,0.902,5.022,67.48,10.762
38024570,-0.393,0.133,0.94,2.327,83.807,10.955
38024580,-0.396,0.136,0.938,-0.472,95.515,10.447
38024590,-0.394,0.127,0.929,0.21,102.025,11.217
38024600,-0.397,0.131,0.931,1.802,106.295,13.807
38024610,-0.383,0.135,0.858,2.835,111.37,15.19
38024620,-0.365,0.141,0.794,5.81,115.22,15.505
38024630,-0.394,0.137,0.744,8.995,118.842,15.295
38024640,-0.482,0.141,0.706,11.532,131.775,13.93
38024650,-0.615,0.14,0.715,12.775,142.607,10.885
38024660,-0.711,0.148,0.816,8.312,140.98,5.722
38024670,-0.706,0.148,0.871,-2.642,128.537,3.08
38024670,-0.67,0.12,0.766,-9.695,110.337,6.125
38024690,-0.642,0.13,0.725,-9.765,96.985,11.672
38024690,-0.534,0.148,0.726,-10.955,94.36,14.822
38024710,-0.403,0.152,0.695,-12.075,101.622,15.872
38024710,-0.354,0.147,0.71,-13.947,111.965,16.187
38024730,-0.434,0.131,0.71,-19.022,118.72,13.65
38024730,-0.589,0.104,0.681,-20.93,117.39,7.245
38024750,-0.779,0.08,0.686,-17.36,107.677,0.437
38024750,-0.896,0.069,0.71,-14.28,91.525,-4.322
38024760,-0.884,0.077,0.759,-12.95,70.98,-5.53
38024770,-0.761,0.097,0.727,-15.19,47.145,-2.065
38024780,-0.63,0.1,0.629,-14.56,26.582,5.582
38024790,-0.584,0.088,0.606,-12.985,23.73,12.915
38024800,-0.574,0.09,0.607,-15.225,33.197,13.23
38024810,-0.603,0.105,0.601,-18.165,37.8,8.312
38024820,-0.71,0.11,0.593,-21.665,28.945,1.75
38024830,-0.819,0.091,0.598,-24.36,17.535,-5.092
38024840,-0.862,0.091,0.692,-28.262,13.317,-8.505
38024850,-0.813,0.082,0.746,-36.067,18.532,-6.317
38024860,-0.74,0.066,0.761,-41.177,27.212,0.927
38024870,-0.726,0.028,0.716,-42.91,35.42,8.557
38024880,-0.8,-0.003,0.657,-39.795,37.59,9.45
38024890,-0.909,0.021,0.653,-32.41,26.162,2.59
38024900,-0.961,0.065,0.707,-25.007,0.84,-7.385
38024910,-0.891,0.079,0.747,-18.69,-25.987,-13.825
38024920,-0.769,0.064,0.746,-13.055,-44.415,-12.46
38024930,-0.684,0.043,0.711,-8.207,-53.76,-5.145
38024940,-0.666,0.039,0.669,-3.832,-54.512,1.75
38024950,-0.659,0.062,0.678,-2.537,-46.06,2.695
38024960,-0.628,0.067,0.669,-5.88,-33.442,-1.015
38024970,-0.644,0.053,0.68,-10.36,-26.757,-6.002
38024980,-0.67,0.046,0.729,-16.87,-22.732,-10.185
38024990,-0.675,0.03,0.782,-22.26,-17.22,-11.095
38025000,-0.694,0.012,0.799,-23.38,-14.892,-8.435
38025010,-0.737,-0.002,0.776,-21.682,-20.16,-5.617
38025020,-0.8,-0.003,0.74,-17.115,-32.06,-6.037
38025030,-0.809,0.016,0.692,-10.465,-42.332,-8.032
38025040,-0.737,0.034,0.691,-3.605,-46.182,-8.155
38025050,-0.667,0.033,0.74,-1.557,-45.517,-5.775
38025060,-0.634,0.017,0.761,-6.072,-38.64,-3.272
38025070,-0.64,-0.002,0.757,-11.952,-25.182,-2.082
38025080,-0.664,0.009,0.781,-16.065,-12.862,-2.222
38025080,-0.699,0.02,0.791,-18.952,-8.96,-2.222
38025100,-0.724,0.016,0.794,-18.042,-13.457,-2.66
38025100,-0.727,0,0.781,-14.262,-19.547,-3.185
38025120,-0.71,-0.017,0.769,-10.027,-23.17,-2.712
38025120,-0.695,-0.018,0.759,-5.285,-26.46,-1.54
38025140,-0.684,0.004,0.756,-1.172,-31.412,-0.35
38025140,-0.669,0.02,0.738,0.805,-36.382,0.752
38025160,-0.643,0.023,0.705,1.54,-37.502,1.487
38025160,-0.622,0.015,0.706,0.49,-32.777,1.33
38025170,-0.618,0.005,0.727,-3.99,-24.622,-0.402
38025180,-0.647,0.016,0.749,-9.17,-22.75,-2.555
38025190,-0.678,0.025,0.783,-14.21,-26.547,-4.042
38025200,-0.665,0.023,0.808,-16.922,-28.962,-5.092
38025210,-0.584,0.023,0.824,-15.26,-27.457,-3.71
38025220,-0.509,-0.003,0.852,-13.142,-18.235,2.135
38025230,-0.594,0.019,0.874,-11.777,-7.315,6.72
38025240,-0.673,0.033,0.852,-10.867,5.337,5.792
38025250,-0.632,-0.028,0.781,-7.63,17.185,4.06
38025260,-0.611,-0.09,0.728,-1.732,21.77,3.902
38025270,-0.653,-0.058,0.765,3.062,19.687,2.87
38025280,-0.632,-0.01,0.76,2.362,17.202,3.64
38025290,-0.568,-0.022,0.725,1.522,19.372,8.54
38025300,-0.628,-0.039,0.713,-1.54,16.432,11.602
38025310,-0.74,0.033,0.716,-5.075,10.185,6.65
38025320,-0.764,0.078,0.777,-6.912,6.212,1.172
38025330,-0.748,0.025,0.808,-9.957,1.47,-1.732
38025340,-0.756,-0.01,0.804,-11.795,-1.05,-3.185
38025350,-0.758,-0.016,0.799,-10.692,-2.975,-1.732
38025360,-0.698,-0.021,0.758,-5.687,-6.86,1.365
38025370,-0.617,-0.026,0.719,1.155,-7.752,4.725
38025380,-0.595,-0.017,0.736,5.6,-7.42,6.475
38025390,-0.631,0.009,0.765,5.442,-8.907,4.69
38025400,-0.663,0.019,0.776,0.962,-11.882,0.507
38025410,-0.675,0.028,0.78,-4.76,-14.192,-2.782
38025420,-0.672,0.028,0.774,-9.747,-14.542,-2.397
38025420,-0.676,0.01,0.755,-11.515,-13.772,-0.35
38025440,-0.682,-0.001,0.721,-10.29,-13.702,0.542
38025440,-0.67,0.009,0.716,-6.3,-17.202,-0.56
38025460,-0.662,-0.003,0.745,-2.87,-22.295,-2.992
38025460,-0.661,-0.01,0.786,-2.222,-24.36,-5.512
38025480,-0.643,0.002,0.785,-3.745,-24.202,-5.11
38025480,-0.617,0.015,0.813,-4.672,-21.525,-2.8
38025500,-0.626,-0.021,0.693,-4.602,-22.365,-0.735
38025500,-0.697,-0.051,0.726,-1.592,-29.12,-2.275
38025510,-0.737,-0.006,0.816,-2.432,-30.975,-5.267
38025520,-0.65,0.02,0.798,-3.955,-28.175,-4.777
38025530,-0.604,0.035,0.804,-1.715,-24.692,-0.735
38025540,-0.595,0.003,0.806,-1.295,-28.105,-1.242
38025550,-0.593,-0.017,0.806,0.35,-22.452,-3.85
38025560,-0.592,0.002,0.817,1.155,-15.907,-4.882
38025570,-0.574,0.01,0.823,-0.175,-11.182,-4.55
38025580,-0.57,-0.003,0.825,-1.82,-7.595,-6.247
38025590,-0.593,-0.04,0.825,-1.137,-4.427,-9.747
38025600,-0.646,-0.031,0.831,-0.175,-0.28,-9.432
38025610,-0.668,0,0.82,1.4,-0.84,-7.157
38025620,-0.678,-0.001,0.78,4.252,-6.422,-4.182
38025630,-0.68,-0.016,0.762,6.562,-13.545,-2.922
38025640,-0.675,-0.021,0.752,8.032,-21.91,-3.342
38025650,-0.644,-0.016,0.764,6.965,-30.467,-4.287
38025660,-0.589,0,0.77,3.29,-32.935,-4.025
38025670,-0.565,0.009,0.786,-0.035,-30.257,-1.907
38025680,-0.565,0.008,0.796,-2.292,-28.647,-0.21
38025690,-0.548,0.01,0.765,-3.36,-26.25,1.925
38025700,-0.557,-0.01,0.79,-2.905,-23.502,4.007
38025710,-0.52,-0.011,0.744,-1.382,-21.367,1.592
38025720,-0.54,-0.03,0.781,0.717,-19.46,-0.105
38025730,-0.518,-0.033,0.776,1.277,-17.465,-2.642
38025740,-0.547,-0.04,0.815,1.452,-15.977,-1.925
38025750,-0.525,-0.049,0.796,-0.997,-11.952,-3.43
38025760,-0.531,-0.046,0.796,-0.63,-5.232,-2.66
38025770,-0.579,-0.034,0.823,0.63,-4.217,-1.172
38025780,-0.563,-0.027,0.8,1.015,-1.872,-0.717
38025790,-0.553,-0.034,0.793,2.45,-2.905,0.875
38025800,-0.551,-0.039,0.803,3.15,-2.94,2.572
38025810,-0.557,-0.026,0.825,1.557,-0.297,3.325
38025820,-0.574,-0.027,0.839,-1.627,1.522,3.115
38025830,-0.599,-0.048,0.813,-3.622,1.4,2.537
38025830,-0.631,-0.043,0.83,-3.64,0.7,2.502
38025850,-0.643,-0.019,0.83,-2.292,-1.452,3.132
38025850,-0.646,0.005,0.826,0.07,-4.252,4.445
38025860,-0.642,0.037,0.835,1.417,-8.522,4.427
38025870,-0.586,0.023,0.784,2.87,-12.635,2.03
38025880,-0.613,0.012,0.831,2.38,-12.285,0.122
38025890,-0.606,0.018,0.795,-0.805,-14.49,-3.92
38025900,-0.583,0.003,0.809,-2.555,-16.887,-5.267
38025910,-0.565,0.036,0.87,-6.055,-15.732,-3.132
38025920,-0.539,0.021,0.842,-7.857,-14.017,-1.277
38025930,-0.549,-0.016,0.823,-6.23,-14.262,-0.892
38025940,-0.536,-0.014,0.822,-4.305,-13.86,-1.312
38025950,-0.523,-0.021,0.829,-3.097,-12.302,-1.085
38025960,-0.531,-0.032,0.821,-2.152,-10.307,-1.82
38025970,-0.556,-0.026,0.823,-1.242,-8.785,-3.64
38025980,-0.571,-0.021,0.822,-0.63,-7.332,-5.495
38025990,-0.594,-0.023,0.814,-0.157,-7.927,-5.32
38026000,-0.6,-0.028,0.811,-0.647,-10.237,-3.937
38026010,-0.585,-0.026,0.801,-0.875,-13.142,-2.835
38026020,-0.576,-0.031,0.809,-0.962,-15.75,-2.047
38026030,-0.566,-0.033,0.82,-1.942,-16.555,-2.852
38026040,-0.564,-0.027,0.821,-2.87,-16.152,-3.587
38026050,-0.562,-0.02,0.815,-2.695,-15.977,-3.237
38026060,-0.574,-0.026,0.819,-2.625,-15.75,-2.03
38026070,-0.56,-0.032,0.828,-2.695,-16.03,-1.662
38026080,-0.537,-0.047,0.826,-2.327,-17.937,-1.75
38026090,-0.531,-0.057,0.816,-2.065,-20.195,-1.47
38026100,-0.541,-0.047,0.815,-2.012,-23.012,-0.997
38026110,-0.548,-0.033,0.816,-1.82,-25.725,-0.35
38026120,-0.551,-0.018,0.83,-1.137,-26.495,0.525
38026130,-0.545,-0.008,0.841,-0.7,-27.055,0.822
38026140,-0.533,-0.008,0.849,-0.49,-28.402,0.822
38026150,-0.513,-0.013,0.859,-0.962,-29.277,0.91
38026160,-0.489,-0.023,0.858,-2.03,-28.665,1.365
38026170,-0.467,-0.025,0.855,-2.31,-27.212,2.03
38026170,-0.462,-0.017,0.866,-2.222,-26.302,2.677
38026190,-0.486,-0.012,0.863,-1.417,-25.305,3.727
38026190,-0.503,-0.011,0.873,-1.732,-22.785,3.587
38026210,-0.495,-0.001,0.898,-3.342,-20.51,1.89
38026210,-0.463,0.01,0.9,-3.937,-18.06,0.63
38026230,-0.435,0.014,0.891,-2.975,-13.79,0.63
38026230,-0.423,0.009,0.881,-1.697,-8.855,0.612
38026250,-0.417,0.001,0.873,-0.56,-2.17,0.612
38026250,-0.429,-0.005,0.871,0.437,4.777,0.682
38026260,-0.442,0.003,0.891,1.522,10.5,0.875
38026270,-0.397,0,0.911,1.33,20.23,2.38
38026280,-0.414,-0.078,0.833,2.607,27.527,4.987
38026290,-0.545,-0.118,0.793,5.88,26.81,5.617
38026300,-0.6,-0.062,0.83,6.79,25.777,4.147
38026310,-0.587,0,0.849,6.527,24.237,3.29
38026320,-0.588,0.009,0.838,4.742,16.782,3.727
38026330,-0.59,0.01,0.822,3.727,10.08,2.625
38026340,-0.609,-0.009,0.792,2.205,6.107,2.17
38026350,-0.647,-0.021,0.796,0.262,-0.157,1.732
38026360,-0.622,0.006,0.858,-2.205,-6.72,-0.437
38026370,-0.548,0.005,0.874,-6.877,-11.812,-1.575
38026380,-0.501,-0.024,0.845,-8.855,-14.157,-0.84
38026390,-0.493,-0.034,0.84,-7.875,-12.11,-0.49
38026400,-0.496,-0.033,0.823,-4.462,-8.767,-1.925
38026410,-0.566,-0.027,0.817,-0.665,-11.567,-4.235
38026420,-0.572,0.027,0.864,0.682,-16.712,-6.72
38026430,-0.511,0.027,0.876,0.035,-16.205,-6.842
38026440,-0.494,-0.037,0.848,-0.455,-15.05,-5.39
38026450,-0.536,-0.091,0.871,-2.59,-15.085,-4.655
38026460,-0.53,-0.064,0.888,-5.127,-13.212,-4.042
38026470,-0.499,-0.056,0.876,-6.527,-11.76,-0.7
38026480,-0.474,-0.061,0.862,-5.827,-10.762,1.907
38026490,-0.46,-0.043,0.863,-3.272,-8.295,2.87
38026500,-0.466,-0.021,0.857,0.665,-3.762,3.377
38026510,-0.494,-0.003,0.86,3.937,-0.56,3.062
38026520,-0.517,0.002,0.865,4.672,0.402,0.262
38026530,-0.511,0.004,0.864,4.462,0.21,-3.692
38026530,-0.504,-0.001,0.865,2.712,-0.507,-3.29
38026550,-0.476,0.003,0.868,0.735,-0.315,-0.945
38026550,-0.462,0.005,0.881,-1.277,1.697,1.47
38026570,-0.425,0.018,0.911,-3.202,7.42,2.817
38026570,-0.416,-0.063,0.876,-3.132,20.107,4.497
38026580,-0.519,-0.133,0.813,-0.28,24.097,4.427
38026590,-0.558,-0.081,0.85,1.75,24.412,4.445
38026600,-0.471,0.012,0.866,3.412,26.775,7.857
38026610,-0.442,0.018,0.841,4.707,23.502,12.477
38026620,-0.483,-0.004,0.847,3.29,22.627,12.425
38026630,-0.527,-0.008,0.819,0.752,26.88,8.697
38026640,-0.574,0.003,0.802,0.42,25.392,5.145
38026650,-0.617,0.013,0.779,-0.63,20.037,3.342
38026660,-0.639,0.034,0.805,-1.855,15.19,1.522
38026670,-0.623,0.053,0.859,-3.115,9.012,0.192
38026680,-0.624,0.037,0.873,-4.165,3.447,0.647
38026690,-0.635,0,0.83,-4.532,-1.312,0.665
38026700,-0.637,-0.039,0.775,-2.38,-6.65,-1.697
38026710,-0.637,-0.006,0.741,0.805,-19.215,-5.792
38026720,-0.534,0.076,0.87,-0.892,-26.53,-7.822
38026730,-0.434,0.054,0.955,-7.717,-20.142,-6.79
38026740,-0.456,-0.068,0.89,-13.23,-11.34,-6.527
38026750,-0.543,-0.164,0.815,-12.985,-5.81,-8.61
38026760,-0.59,-0.162,0.803,-7.21,-2.257,-9.765
38026770,-0.574,-0.115,0.828,-0.63,-4.76,-5.32
38026780,-0.553,-0.092,0.834,2.38,-9.257,2.345
38026790,-0.539,-0.082,0.831,3.15,-10.692,7.227
38026800,-0.518,-0.056,0.841,3.797,-10.29,7.577
38026810,-0.491,-0.006,0.857,3.062,-8.435,4.445
38026820,-0.485,0.016,0.871,0.07,-4.13,1.872
38026830,-0.515,0.008,0.868,-2.695,-0.262,1.47
38026840,-0.55,-0.007,0.839,-3.412,1.225,2.065
38026850,-0.569,-0.004,0.842,-1.102,1.085,2.345
38026860,-0.54,0.03,0.911,0.42,2.712,2.957
38026870,-0.513,-0.029,0.873,0.017,7.157,4.497
38026880,-0.581,-0.097,0.792,0.682,6.825,5.565
38026890,-0.555,-0.05,0.862,-1.33,6.475,6.212
38026900,-0.402,0.058,0.88,-4.305,7.455,8.872
38026910,-0.347,0.071,0.842,-5.6,9.572,14.717
38026920,-0.397,0.071,0.844,-5.372,16.607,14.63
38026920,-0.478,0.093,0.862,-4.025,26.81,7.542
38026940,-0.586,0.085,0.83,-2.047,29.032,-0.315
38026940,-0.703,0.043,0.8,0.542,23.765,-7.245
38026960,-0.776,0.003,0.797,2.94,15.75,-12.11
38026960,-0.786,-0.044,0.796,3.045,1.715,-12.372
38026980,-0.717,-0.081,0.787,2.607,-14.875,-9.082
38026980,-0.618,-0.104,0.762,1.067,-26.32,-5.075
38027000,-0.559,-0.138,0.732,-2.922,-32.935,-1.522
38027000,-0.499,-0.073,0.779,-5.792,-36.697,-2.38
38027010,-0.424,0.003,0.875,-10.395,-30.45,-3.832
38027020,-0.433,-0.011,0.884,-12.862,-17.675,-4.935
38027030,-0.567,-0.089,0.823,-9.66,-11.042,-6.387
38027040,-0.662,-0.127,0.812,-2.765,-9.187,-7.822
38027050,-0.637,-0.094,0.823,4.83,-11.917,-7.297
38027060,-0.579,-0.084,0.832,8.557,-17.675,-0.91
38027070,-0.546,-0.087,0.818,8.067,-20.02,5.617
38027080,-0.524,-0.065,0.82,5.04,-19.022,7.665
38027090,-0.485,-0.022,0.852,2.187,-17.185,7.035
38027100,-0.467,-0.004,0.859,-1.12,-13.142,5.775
38027110,-0.479,-0.022,0.855,-3.307,-8.645,4.637
38027120,-0.471,-0.014,0.88,-3.255,-4.69,2.94
38027130,-0.415,0.021,0.908,-1.592,0.192,2.537
38027140,-0.375,0.04,0.914,1.225,6.09,4.41
38027150,-0.428,0.04,0.91,3.027,13.632,7.402
38027160,-0.48,0.074,0.955,1.995,24.045,7.472
38027170,-0.506,-0.02,0.892,0.42,37.415,6.492
38027180,-0.63,-0.123,0.762,3.535,38.797,5.495
38027190,-0.71,-0.084,0.775,6.195,25.707,5.512
38027200,-0.6,0.033,0.798,7.437,16.555,7.682
38027210,-0.494,0.069,0.782,9.31,8.347,12.582
38027220,-0.482,0.066,0.801,8.435,1.767,13.877
38027230,-0.539,0.058,0.777,3.5,6.037,9.327
38027240,-0.606,0.07,0.776,1.312,11.655,0.28
38027250,-0.662,0.057,0.787,-1.295,12.407,-7.175
38027260,-0.672,0.015,0.821,-4.585,10.902,-10.5
38027260,-0.644,-0.045,0.837,-6.72,4.83,-7.525
38027280,-0.596,-0.068,0.833,-5.355,-0.997,-3.272
38027280,-0.562,-0.075,0.815,-3.097,-2.975,0.332
38027300,-0.548,-0.076,0.801,-1.05,-3.622,1.19
38027300,-0.567,-0.074,0.77,2.012,-3.535,-0.77
38027320,-0.61,-0.079,0.76,4.375,-5.915,-4.165
38027320,-0.601,-0.034,0.802,4.567,-13.282,-6.842
38027330,-0.566,-0.023,0.829,2.957,-15.382,-5.18
38027340,-0.627,-0.027,0.883,0.332,-15.015,-3.535
38027350,-0.684,-0.044,0.9,-4.252,-15.417,-5.337
38027360,-0.67,-0.017,0.866,-4.672,-14.455,-7.595
38027370,-0.6,-0.023,0.824,-1.732,-13.965,-5.32
38027380,-0.543,-0.03,0.807,2.607,-16.275,-2.625
38027390,-0.483,-0.024,0.809,5.145,-18.322,-1.137
38027400,-0.439,-0.021,0.807,6.282,-15.907,-0.472
38027410,-0.456,-0.039,0.794,5.215,-11.252,-1.295
38027420,-0.508,-0.053,0.814,1.435,-7.105,-3.027
38027430,-0.546,-0.049,0.849,-3.64,-4.602,-4.095
38027440,-0.553,-0.04,0.862,-6.597,-4.69,-2.992
38027450,-0.539,-0.031,0.862,-6.982,-5.652,0.385
38027460,-0.507,-0.018,0.839,-4.287,-6.93,3.027
38027470,-0.491,-0.004,0.817,1.592,-7.245,4.532
38027480,-0.497,-0.011,0.839,4.62,-7.665,3.342
38027490,-0.5,0.009,0.854,2.87,-5.18,1.505
38027500,-0.51,0.033,0.868,-0.595,-2.345,2.555
38027510,-0.52,0.049,0.883,-4.357,0.122,4.287
38027520,-0.507,0.062,0.904,-6.877,3.132,5.092
38027530,-0.436,0.05,0.929,-8.085,14.507,6.86
38027540,-0.428,-0.079,0.836,-5.46,32.392,9.52
38027550,-0.603,-0.137,0.761,0.07,33.005,8.207
38027560,-0.673,-0.022,0.817,2.992,24.342,4.882
38027570,-0.565,0.081,0.835,6.37,26.652,5.547
38027580,-0.55,0.042,0.794,8.4,20.702,8.277
38027590,-0.599,0.021,0.801,6.895,12.652,6.195
38027600,-0.602,0.026,0.764,2.677,14.14,3.395
38027610,-0.602,0.035,0.763,0.98,16.03,2.327
38027620,-0.625,0.05,0.767,-2.887,14.367,-0.332
38027630,-0.624,0.041,0.801,-7.647,15.19,-3.517
38027640,-0.627,0.004,0.826,-8.47,13.527,-5.075
38027650,-0.645,-0.027,0.807,-6.16,8.977,-5.845
38027660,-0.624,-0.045,0.796,-3.325,9.957,-4.462
38027670,-0.614,-0.075,0.773,-0.402,10.727,-2.38
38027670,-0.651,-0.046,0.727,3.5,3.307,-2.607
38027690,-0.602,0.052,0.881,2.17,1.872,-3.377
38027690,-0.503,0.045,0.882,-4.112,8.68,-3.185
38027710,-0.52,-0.01,0.667,-3.342,17.745,0.49
38027710,-0.687,-0.069,0.778,1.277,17.99,0.962
38027730,-0.762,-0.038,0.852,-0.927,11.2,-6.912
38027730,-0.696,-0.057,0.866,-3.622,6.702,-8.277
38027750,-0.598,-0.109,0.823,-7.682,-0.647,-5.897
38027750,-0.545,-0.165,0.821,-4.69,-1.487,-2.082
38027760,-0.548,-0.161,0.798,-2.502,-3.377,1.207
38027770,-0.522,-0.123,0.765,3.36,-3.517,2.415
38027780,-0.551,-0.089,0.776,6.16,-3.447,2.695
38027790,-0.602,-0.045,0.777,5.705,-4.76,2.012
38027800,-0.646,-0.02,0.789,4.2,-4.987,3.167
38027810,-0.662,0.002,0.798,1.452,-6.422,3.99
38027820,-0.641,0.052,0.849,-1.942,-6.895,4.777
38027830,-0.558,0.028,0.892,-8.032,1.627,7.402
38027840,-0.582,-0.072,0.779,-8.785,9.905,10.43
38027850,-0.702,-0.099,0.758,-5.46,7.455,8.977
38027860,-0.638,0.013,0.83,-2.45,5.372,6.212
38027870,-0.498,0.086,0.818,1.715,7.052,10.202
38027880,-0.483,0.057,0.808,2.765,3.867,15.68
38027890,-0.519,0.066,0.819,2.327,4.252,13.037
38027900,-0.531,0.091,0.791,1.715,9.415,7.14
38027910,-0.576,0.072,0.729,1.365,12.075,1.662
38027920,-0.678,0.036,0.714,0.122,10.92,-4.375
38027930,-0.739,0.019,0.773,-2.38,8.75,-7.962
38027940,-0.754,-0.024,0.782,-5.022,2.94,-7.315
38027950,-0.729,-0.061,0.769,-4.48,-4.497,-6.475
38027960,-0.685,-0.069,0.758,-2.922,-9.135,-4.707
38027970,-0.642,-0.082,0.728,-2.432,-10.465,-0.612
38027980,-0.64,-0.078,0.668,0.892,-15.295,0.577
38027990,-0.631,0.046,0.781,2.502,-23.415,-2.52
38028000,-0.534,0.092,0.926,-2.87,-23.327,-4.9
38028010,-0.549,-0.002,0.89,-7.805,-12.687,-6.3
38028010,-0.668,-0.138,0.797,-8.977,-7.472,-9.222
38028030,-0.707,-0.141,0.766,-3.815,-7.665,-12.005
38028030,-0.655,-0.11,0.763,3.587,-8.295,-8.137
38028050,-0.631,-0.117,0.753,7.122,-15.365,-0.245
38028050,-0.626,-0.105,0.786,6.457,-19.792,4.322
38028070,-0.587,-0.071,0.826,3.99,-20.912,5.425
38028070,-0.55,-0.05,0.832,0.717,-20.265,4.357
38028080,-0.536,-0.026,0.834,-3.78,-18.777,2.292
38028090,-0.518,0.015,0.864,-7.455,-16.257,2.205
38028100,-0.5,0.038,0.867,-9.835,-13.807,4.637
38028110,-0.491,0.048,0.841,-8.855,-10.85,6.965
38028120,-0.488,0.07,0.842,-4.83,-6.195,7.63
38028130,-0.49,0.088,0.804,0.455,4.427,7.14
38028140,-0.637,0.052,0.8,5.862,15.977,5.687
38028150,-0.829,-0.012,0.822,5.215,13.615,-0.822
38028160,-0.811,0.008,0.837,0.927,-0.35,-6.72
38028170,-0.586,0.05,0.82,-2.555,-10.342,-2.695
38028180,-0.44,0.05,0.799,-4.392,-15.645,6.265
38028190,-0.425,0.029,0.79,-5.495,-9.467,9.152
38028200,-0.483,0.03,0.774,-4.095,2.397,2.59
38028210,-0.581,0.013,0.777,-3.01,10.062,-7.875
38028220,-0.667,-0.03,0.797,-2.275,14.542,-15.365
38028230,-0.739,-0.095,0.78,-1.085,9.905,-16.922
38028240,-0.759,-0.131,0.749,0.787,-0.717,-11.2
38028250,-0.706,-0.122,0.732,3.377,-9.047,-2.345
38028260,-0.627,-0.095,0.713,4.935,-16.047,4.13
38028270,-0.6,-0.065,0.698,4.392,-20.877,4.48
38028280,-0.587,0.006,0.801,0.35,-20.825,-0.105
38028290,-0.573,0.008,0.875,-6.86,-16.467,-5.145
38028300,-0.611,-0.044,0.833,-9.817,-11.585,-8.067
38028310,-0.651,-0.094,0.806,-6.877,-12.617,-8.242
38028320,-0.643,-0.077,0.796,0.332,-16.905,-6.317
38028330,-0.617,-0.047,0.811,6.562,-20.265,-1.277
38028340,-0.588,-0.047,0.819,7.56,-22.645,3.377
38028350,-0.554,-0.049,0.814,5.565,-22.452,4.952
38028360,-0.511,-0.038,0.804,2.992,-18.812,5.95
38028370,-0.493,-0.036,0.799,-0.297,-15.662,8.295
38028380,-0.509,-0.033,0.81,-4.2,-13.527,9.257
38028390,-0.542,-0.018,0.845,-6.685,-11.217,7.805
38028400,-0.557,0,0.889,-8.12,-7.962,5.25
38028410,-0.571,0.003,0.874,-7.035,-5.932,2.66
38028420,-0.595,-0.007,0.85,-3.57,-4.13,0.805
38028420,-0.578,0.013,0.872,0.087,-4.585,-0.682
38028440,-0.519,0.03,0.845,2.257,-7.542,0.157
38028440,-0.479,0.019,0.797,3.5,-7.49,2.887
38028460,-0.459,0.022,0.815,2.66,-3.307,3.535
38028460,-0.419,0.047,0.907,-2.275,5.827,2.345
38028480,-0.401,-0.041,0.855,-8.102,20.615,2.537
38028480,-0.547,-0.124,0.765,-6.405,27.807,3.325
38028500,-0.649,-0.091,0.804,-2.992,25.235,3.955
38028500,-0.604,0.017,0.826,2.327,22.102,6.037
38028510,-0.602,0.019,0.816,6.23,17.22,10.92
38028520,-0.639,0.008,0.822,7.682,12.372,9.817
38028530,-0.633,0.029,0.792,6.44,12.67,4.602
38028540,-0.616,0.038,0.779,4.882,12.617,2.397
38028550,-0.639,0.029,0.765,3.99,10.43,0.717
38028560,-0.663,0.021,0.759,1.487,8.4,-1.82
38028570,-0.676,0.02,0.762,0.577,4.62,-3.797
38028580,-0.697,-0.002,0.77,1.225,-0.962,-5.932
38028590,-0.712,-0.041,0.779,1.26,-6.3,-8.592
38028600,-0.699,-0.089,0.76,0.665,-11.41,-8.767
38028610,-0.664,-0.121,0.719,2.152,-17.237,-6.37
38028620,-0.622,-0.12,0.669,4.795,-24.097,-3.832
38028630,-0.559,-0.069,0.72,5.862,-31.43,-2.222
38028640,-0.48,-0.024,0.81,1.645,-32.672,-0.787
38028650,-0.494,-0.052,0.846,-4.935,-27.545,-0.332
38028660,-0.598,-0.106,0.862,-10.797,-22.662,-1.907
38028670,-0.663,-0.104,0.881,-12.477,-19.635,-4.375
38028680,-0.646,-0.059,0.862,-8.732,-17.71,-3.08
38028690,-0.633,-0.051,0.849,-2.24,-18.725,3.132
38028700,-0.598,-0.049,0.822,4.007,-21.98,7.647
38028710,-0.499,-0.013,0.809,9.45,-23.397,9.31
38028720,-0.418,0.038,0.819,11.392,-20.877,10.727
38028730,-0.401,0.069,0.839,7.35,-14.227,11.585
38028740,-0.433,0.085,0.882,-0.105,-4.41,9.117
38028750,-0.486,0.078,0.876,-6.055,2.695,3.937
38028760,-0.536,0.055,0.857,-7.122,6.667,-1.802
38028760,-0.573,0.034,0.854,-3.902,7.227,-5.075
38028780,-0.596,0.016,0.847,0.612,4.655,-3.325
38028780,-0.561,0.013,0.877,4.042,4.655,0.437
38028800,-0.53,-0.041,0.854,5.565,8.47,3.097
38028800,-0.565,-0.062,0.831,5.495,10.255,3.36
38028820,-0.579,-0.042,0.818,2.712,9.275,3.937
38028820,-0.563,0,0.821,1.417,10.762,4.83
38028830,-0.548,-0.003,0.832,-1.907,12.18,6.282
38028840,-0.571,-0.025,0.788,-2.467,11.882,5.652
38028850,-0.605,-0.001,0.802,-0.77,11.935,4.34
38028860,-0.577,0.029,0.823,-0.35,15.067,3.902
38028870,-0.595,0.007,0.767,1.487,15.26,3.885
38028880,-0.67,-0.027,0.719,3.727,10.85,1.627
38028890,-0.684,-0.002,0.727,5.495,7.875,-2.502
38028900,-0.656,-0.009,0.77,1.995,4.62,-3.517
38028910,-0.624,-0.056,0.809,-5.285,-0.91,-3.465
38028920,-0.587,-0.082,0.826,-12.145,-2.555,-3.43
38028930,-0.556,-0.088,0.781,-16.38,0.192,0.962
38028940,-0.539,-0.066,0.77,-13.895,3.342,5.495
38028950,-0.612,-0.054,0.698,-6.597,1.907,6.142
38028960,-0.684,0.075,0.771,1.662,-8.715,1.977
38028970,-0.596,0.126,0.916,2.275,-13.562,-2.03
38028980,-0.565,0.033,0.824,0.28,-10.867,-4.847
38028990,-0.652,-0.108,0.776,-0.945,-11.305,-6.895
38029000,-0.699,-0.104,0.802,-1.102,-13.93,-9.677
38029010,-0.672,-0.047,0.847,-2.205,-14.892,-6.982
38029020,-0.617,-0.039,0.864,-5.775,-21.332,-0.595
38029030,-0.56,-0.035,0.849,-7.087,-26.355,2.1
38029040,-0.493,-0.033,0.823,-3.85,-23.782,2.047
38029050,-0.466,-0.032,0.814,2.362,-18.06,-0.297
38029060,-0.499,-0.019,0.823,5.092,-12.267,-3.01
38029070,-0.551,-0.005,0.849,3.762,-6.247,-3.325
38029080,-0.573,0.013,0.857,1.715,-4.392,-2.17
38029090,-0.561,0.011,0.838,-0.227,-4.83,0.612
38029100,-0.538,0.004,0.816,0.367,-4.462,2.782
38029110,-0.524,0.014,0.824,1.75,-2.922,3.43
38029120,-0.513,0.031,0.835,1.592,-0.63,2.345
38029130,-0.504,0.047,0.895,-0.875,4.235,1.295
38029140,-0.471,-0.03,0.854,-3.727,17.552,2.362
38029150,-0.583,-0.116,0.758,0.647,21.787,4.042
38029160,-0.693,-0.102,0.811,3.167,14.84,3.99
38029170,-0.636,0.011,0.855,3.675,11.41,4.445
38029170,-0.563,0.027,0.824,2.905,9.765,9.45
38029190,-0.583,-0.011,0.77,1.662,3.745,11.795
38029190,-0.602,0.007,0.791,0.017,4.042,8.05
38029210,-0.561,0.051,0.781,-0.035,7.752,3.937
38029210,-0.581,0.045,0.769,-0.56,6.79,2.117
38029230,-0.629,0.019,0.785,-3.412,4.532,-0.91
38029230,-0.647,0.007,0.786,-3.692,3.57,-2.905
38029250,-0.653,-0.017,0.783,-2.677,0.49,-3.622
38029250,-0.66,-0.036,0.776,-2.415,-2.66,-5.267
38029260,-0.672,-0.05,0.763,-2.117,-7.052,-6.107
38029270,-0.655,-0.056,0.773,-2.345,-11.812,-5.18
38029280,-0.617,-0.057,0.775,-3.325,-14.595,-4.13
38029290,-0.597,-0.072,0.745,-3.797,-15.802,-3.465
38029300,-0.642,-0.033,0.736,-0.875,-23.817,-4.69
38029310,-0.6,0.074,0.88,-0.997,-29.872,-7.105
38029320,-0.494,0.068,0.881,-4.06,-25.235,-7.735
38029330,-0.534,-0.048,0.79,-3.377,-19.547,-7.315
38029340,-0.609,-0.134,0.784,-2.66,-18.917,-9.275
38029350,-0.615,-0.08,0.846,-0.56,-15.89,-11.55
38029360,-0.583,-0.057,0.884,-2.292,-16.502,-6.755
38029370,-0.553,-0.082,0.856,-4.095,-17.797,0.192
38029380,-0.535,-0.092,0.833,-3.115,-15.785,4.042
38029390,-0.495,-0.058,0.828,0.647,-13.352,5.162
38029400,-0.479,-0.002,0.827,4.025,-11.305,5.057
38029410,-0.491,0.011,0.832,3.167,-8.872,5.197
38029420,-0.503,0.033,0.849,2.572,-5.967,3.08
38029430,-0.509,0.033,0.826,1.82,-2.992,1.435
38029440,-0.536,0.018,0.824,1.592,0.017,1.522
38029450,-0.565,0.013,0.835,1.032,2.817,2.327
38029460,-0.567,0.016,0.864,-1.137,5.547,3.115
38029470,-0.544,-0.025,0.832,-3.027,12.005,4.777
38029480,-0.598,-0.069,0.799,-1.767,14.752,6.3
38029490,-0.629,-0.052,0.809,-0.35,9.852,6.335
38029500,-0.58,0.01,0.811,1.662,8.96,8.225
38029510,-0.551,0.031,0.811,3.255,8.225,11.725
38029510,-0.507,0.039,0.837,0.752,7.647,11.182
38029530,-0.449,0.053,0.817,-1.855,9.327,7.735
38029530,-0.467,0.035,0.813,-4.077,12.582,3.902
38029550,-0.539,0.002,0.787,-6.072,17.675,-1.172
38029550,-0.658,-0.045,0.781,-5.022,20.37,-4.27
38029570,-0.772,-0.086,0.794,-3.325,14.612,-5.81
38029570,-0.814,-0.083,0.808,-1.767,3.762,-5.565
38029580,-0.743,-0.048,0.837,0.455,-7.192,-2.73
38029590,-0.625,-0.023,0.834,1.032,-16.432,2.835
38029600,-0.529,-0.019,0.815,0.927,-18.952,7.122
38029610,-0.493,-0.007,0.81,1.032,-14.787,5.232
38029620,-0.524,0.005,0.809,0.437,-8.855,-0.28
38029630,-0.608,0.002,0.793,0.227,-4.445,-6.037
38029640,-0.711,-0.004,0.746,1.872,-8.312,-9.695
38029650,-0.705,0.082,0.776,4.462,-18.025,-9.397
38029660,-0.604,0.108,0.879,2.992,-25.585,-6.055
38029670,-0.535,0.051,0.888,-3.29,-26.88,-5.197
38029680,-0.509,-0.035,0.839,-9.327,-25.585,-8.207
38029690,-0.474,-0.054,0.843,-11.252,-20.58,-11.48
38029700,-0.475,-0.075,0.844,-11.795,-15.032,-10.202
38029710,-0.5,-0.106,0.795,-8.96,-14.437,-9.257
38029720,-0.552,-0.118,0.782,-2.152,-12.827,-8.732
38029730,-0.589,-0.104,0.778,3.64,-13.755,-7.962
38029740,-0.617,-0.095,0.802,6.527,-18.2,-6.562
38029750,-0.633,-0.087,0.812,4.672,-23.065,-4.655
38029760,-0.611,-0.088,0.822,0.945,-24.535,-2.362
38029770,-0.591,-0.092,0.833,-3.395,-24.01,0.07
38029780,-0.572,-0.092,0.801,-6.16,-25.165,1.802
38029790,-0.555,-0.068,0.81,-5.145,-27.317,3.255
38029800,-0.518,-0.023,0.858,-3.622,-29.312,4.742
38029810,-0.47,0.009,0.887,-3.185,-28.227,8.015
38029820,-0.425,0.037,0.896,-2.187,-24.552,10.062
38029830,-0.401,0.044,0.893,-1.802,-18.497,10.01
38029840,-0.402,0.033,0.879,-2.24,-8.015,7.805
38029850,-0.417,0.036,0.898,-2.73,3.937,4.217
38029860,-0.405,0.021,0.924,-4.375,17.307,2.065
38029870,-0.468,-0.07,0.84,-3.657,28.735,1.487
38029880,-0.634,-0.109,0.787,-0.542,28.7,3.587
38029890,-0.689,-0.053,0.816,2.345,19.95,5.827
38029900,-0.616,0.005,0.824,4.655,14.315,8.347
38029910,-0.555,-0.005,0.819,5.722,7.052,10.342
38029920,-0.554,-0.02,0.834,2.1,1.802,11.497
38029920,-0.533,-0.002,0.852,-3.097,3.762,9.24
38029940,-0.53,0.003,0.83,-5.197,6.37,5.582
38029940,-0.57,-0.015,0.816,-6.142,7.682,1.82
38029950,-0.623,-0.031,0.812,-3.832,7.297,-1.085
38029960,-0.654,-0.022,0.822,0.28,5.722,-1.19
38029970,-0.625,0.002,0.838,3.062,2.222,-0.437
38029980,-0.593,0.002,0.832,3.412,-2.432,0.07
38029990,-0.571,-0.012,0.804,2.257,-5.127,-0.472
38030000,-0.541,-0.015,0.783,1.085,-4.375,-1.977
38030010,-0.529,-0.03,0.768,-0.42,-3.115,-3.675
38030020,-0.576,-0.069,0.76,-1.575,-6.212,-5.285
38030030,-0.617,-0.039,0.806,-2.327,-15.015,-7.035
38030040,-0.547,0.006,0.89,-4.095,-21.735,-7.14
38030050,-0.48,-0.007,0.909,-5.687,-18.865,-5.18
38030060,-0.52,-0.077,0.857,-5.617,-10.85,-3.307
38030070,-0.576,-0.105,0.788,-1.68,-8.33,-3.15
38030080,-0.597,-0.086,0.778,2.905,-5.88,-0.892
38030090,-0.572,-0.053,0.825,5.197,-5.845,1.4
38030100,-0.555,-0.049,0.842,3.832,-10.482,3.71
38030110,-0.527,-0.047,0.844,0.892,-14.42,5.652
38030120,-0.476,-0.013,0.854,-0.367,-14.682,6.615
38030130,-0.465,0.003,0.857,-2.415,-13.107,7.35
38030140,-0.478,0.004,0.862,-3.762,-11.322,6.23
38030150,-0.486,0.002,0.872,-3.85,-7.525,4.497
38030160,-0.484,0.005,0.879,-2.747,-4.252,2.607
38030170,-0.482,0.01,0.874,-0.822,-2.135,0.542
38030180,-0.48,0.021,0.885,1.995,1.19,-0.77
38030190,-0.449,0.032,0.944,2.502,8.627,1.487
38030200,-0.428,-0.05,0.883,1.977,22.102,4.987
38030210,-0.534,-0.107,0.775,4.725,32.235,6.93
38030220,-0.639,-0.077,0.77,7.77,28.98,6.02
38030230,-0.64,0,0.785,9.45,23.905,4.2
38030240,-0.597,0.02,0.786,10.272,16.852,3.22
38030250,-0.562,0.034,0.811,9.082,7.962,2.45
38030260,-0.533,0.045,0.803,4.322,6.842,4.042
38030260,-0.533,0.044,0.785,0.857,8.312,4.567
38030280,-0.573,0.044,0.746,-0.7,7.14,0.507
38030280,-0.587,0.026,0.76,-2.94,8.732,-6.597
38030300,-0.601,-0.029,0.809,-5.88,9.852,-10.867
38030300,-0.643,-0.081,0.827,-9.327,5.407,-11.095
38030320,-0.663,-0.107,0.806,-9.642,0.857,-9.957
38030320,-0.679,-0.104,0.731,-3.622,-7.192,-8.435
38030330,-0.657,-0.013,0.742,3.325,-23.765,-6.667
38030340,-0.542,0.051,0.849,6.457,-34.842,-5.11
38030350,-0.486,0.031,0.907,3.22,-29.925,-5.477
38030360,-0.538,-0.041,0.914,-3.43,-20.79,-8.925
38030370,-0.628,-0.091,0.897,-7.28,-14.822,-13.982
38030380,-0.687,-0.12,0.85,-6.09,-9.432,-14.157
38030390,-0.692,-0.144,0.81,-0.455,-12.88,-7.77
38030400,-0.619,-0.126,0.828,4.865,-22.067,0.717
38030410,-0.518,-0.079,0.85,7.262,-29.207,5.985
38030420,-0.436,-0.025,0.864,7.647,-28.735,7.385
38030430,-0.393,0.015,0.885,6.492,-21.245,5.512
38030440,-0.419,0.032,0.9,3.517,-10.885,3.202
38030450,-0.48,0.023,0.896,-0.98,-1.627,1.907
38030460,-0.511,0.025,0.888,-2.187,6.107,-0.682
38030470,-0.507,0.063,0.917,-0.105,11.637,-1.47
38030480,-0.487,0.02,0.908,2.082,21.77,1.102
38030490,-0.541,-0.065,0.806,7.455,31.692,3.85
38030500,-0.652,-0.079,0.77,13.387,28.875,4.322
38030510,-0.683,-0.021,0.792,15.085,17.64,1.522
38030520,-0.598,0.045,0.717,14.122,8.68,0.42
38030530,-0.526,0.038,0.768,12.127,3.115,3.22
38030540,-0.496,0.039,0.795,3.937,-2.52,3.132
38030550,-0.476,0.026,0.748,-2.45,0.227,1.505
38030560,-0.498,-0.008,0.731,-4.777,4.987,-1.155
38030570,-0.518,-0.014,0.767,-7.98,9.03,-5.355
38030580,-0.539,-0.041,0.772,-9.957,12.022,-5.652
38030590,-0.589,-0.089,0.775,-9.1,12.915,-1.575
38030600,-0.611,-0.093,0.803,-6.947,12.355,1.295
38030610,-0.595,-0.063,0.84,-3.675,11.392,2.432
38030620,-0.576,-0.039,0.877,-0.892,9.73,3.64
38030630,-0.587,-0.04,0.852,1.277,7.087,3.85
38030640,-0.614,-0.05,0.809,4.847,3.465,2.712
38030640,-0.599,-0.009,0.808,8.4,-2.59,1.645
38030660,-0.541,0.016,0.795,9.905,-8.4,1.925
38030660,-0.503,0.024,0.837,7.122,-4.252,3.902
38030670,-0.47,0.02,0.981,-1.242,13.23,6.807
38030680,-0.479,-0.006,1.069,-12.512,35.787,9.73
38030690,-0.528,-0.043,1.085,-19.197,56.91,12.25
38030700,-0.574,-0.081,1.03,-14.945,73.867,13.632
38030710,-0.618,-0.098,0.965,-0.42,85.837,14.735
38030720,-0.639,-0.093,0.902,18.427,94.255,15.54
38030730,-0.688,-0.092,0.904,36.015,100.17,16.082
38030740,-0.756,-0.112,0.957,44.31,89.355,16.275
38030750,-0.723,-0.124,0.839,46.445,69.265,14.35
38030760,-0.647,-0.041,0.77,50.715,56.595,15.207
38030770,-0.661,-0.025,0.819,50.872,46.672,16.957
38030780,-0.717,-0.056,0.782,46.602,43.785,17.447
38030790,-0.713,-0.036,0.758,45.727,47.932,16.31
38030800,-0.695,-0.033,0.763,45.255,46.445,13.212
38030810,-0.757,-0.051,0.69,43.977,39.27,11.742
38030820,-0.798,-0.026,0.613,47.267,43.767,12.495
38030830,-0.81,0.023,0.614,53.917,39.042,12.705
38030840,-0.861,0.024,0.602,57.12,5.215,9.887
38030850,-0.92,0.024,0.582,57.592,-35.245,5.162
38030860,-0.939,0.026,0.573,58.852,-67.532,-0.087
38030870,-0.896,0.035,0.566,60.532,-98.227,-4.025
38030880,-0.793,0.075,0.586,60.935,-126.367,-5.127
38030890,-0.645,0.142,0.649,57.61,-140.227,-3.482
38030900,-0.429,0.21,0.733,50.732,-129.745,-1.05
38030910,-0.296,0.226,0.766,41.37,-96.127,3.15
38030920,-0.237,0.234,0.687,33.022,-49.682,5.53
38030930,-0.32,0.265,0.693,31.22,-5.285,4.69
38030940,-0.492,0.245,0.687,30.187,24.097,-2.345
38030950,-0.669,0.193,0.621,30.31,36.89,-12.005
38030960,-0.838,0.176,0.552,33.512,24.202,-19.565
38030970,-0.967,0.209,0.564,38.482,-18.812,-25.025
38030980,-0.921,0.237,0.57,41.475,-77.98,-29.33
38030990,-0.767,0.243,0.562,43.925,-137.27,-29.05
38031000,-0.606,0.276,0.619,44.345,-183.82,-27.457
38031010,-0.45,0.292,0.623,37.625,-205.415,-24.307
38031010,-0.35,0.301,0.655,29.452,-206.587,-23.047
38031030,-0.285,0.303,0.714,19.04,-189.28,-23.065
38031030,-0.257,0.295,0.806,7.245,-160.247,-22.645
38031050,-0.279,0.268,0.923,-4.462,-127.155,-21.087
38031050,-0.321,0.213,0.917,-12.617,-97.877,-20.055
38031070,-0.391,0.116,0.8,-13.142,-84.525,-20.79
38031070,-0.408,0.058,0.78,-8.242,-80.867,-22.365
38031080,-0.419,0.039,0.795,-2.73,-76.247,-23.222
38031090,-0.35,0.078,0.844,1.102,-73.657,-22.102
38031100,-0.397,0.106,0.886,1.54,-73.85,-18.287
38031110,-0.438,0.15,0.919,0.122,-78.225,-18.55
38031120,-0.457,0.16,0.922,-1.89,-87.85,-18.532
38031130,-0.46,0.149,0.943,-2.992,-100.887,-17.01
38031140,-0.428,0.142,0.956,-2.292,-113.855,-14.595
38031150,-0.371,0.14,0.963,0.787,-125.037,-11.83
38031160,-0.285,0.141,0.995,4.462,-128.397,-9.012
38031170,-0.224,0.15,1.014,5.285,-121.957,-6.912
38031180,-0.198,0.147,1.006,3.622,-109.287,-6.037
38031190,-0.207,0.129,0.968,2.572,-95.9,-5.005
38031200,-0.198,0.132,0.943,3.675,-83.632,-5.267
38031210,-0.193,0.133,0.928,3.815,-72.957,-5.005
38031220,-0.195,0.122,0.938,2.835,-63.087,-4.252
38031230,-0.219,0.101,0.951,1.645,-57.365,-3.255
38031240,-0.215,0.095,0.973,1.172,-54.005,-1.96
38031250,-0.211,0.081,0.984,1.277,-52.815,0.875
38031260,-0.191,0.079,0.992,0.98,-50.82,3.815
38031270,-0.153,0.112,0.998,1.592,-47.267,7.14
38031280,-0.089,0.141,0.998,1.522,-39.795,10.64
38031290,-0.018,0.157,0.968,0.525,-26.897,13.982
38031300,0.018,0.175,0.949,0.157,-12.827,16.852
38031310,0.029,0.177,0.931,-0.332,3.412,19.127
38031320,0.061,0.181,0.929,-2.082,24.85,20.055
38031330,0.059,0.189,0.937,-4.497,48.072,20.545
38031330,0.033,0.21,0.926,-7.455,68.11,19.915
38031350,-0.039,0.251,0.896,-8.085,81.445,17.692
38031350,-0.139,0.299,0.867,-7.052,90.09,12.967
38031370,-0.262,0.325,0.902,-7.682,103.792,7.577
38031370,-0.437,0.305,0.961,-8.102,120.435,2.87
38031390,-0.633,0.223,0.981,-6.702,126.017,-0.752
38031390,-0.782,0.118,1.006,-2.537,109.392,-3.64
38031410,-0.794,0.054,1.017,-2.03,66.29,-7.367
38031410,-0.639,0.043,1.009,-6.562,10.517,-9.275
38031420,-0.406,0.061,0.944,-11.655,-37.66,-5.967
38031430,-0.251,0.081,0.863,-13.352,-66.062,1.295
38031440,-0.22,0.089,0.805,-12.25,-75.215,6.177
38031450,-0.193,0.119,0.798,-10.01,-72.87,3.64
38031460,-0.163,0.142,0.821,-10.115,-67.27,0.052
38031470,-0.127,0.145,0.86,-12.46,-58.8,0.175
38031480,-0.086,0.14,0.894,-15.225,-48.65,3.237
38031490,-0.055,0.126,0.959,-17.99,-37.8,6.422
38031500,-0.021,0.08,1.141,-22.347,-25.41,9.1
38031510,0.067,0.044,1.165,-26.862,-5.337,10.675
38031520,0.043,0.043,1.088,-22.172,16.45,11.41
38031530,-0.096,0.078,1.133,-11.742,29.68,9.73
38031540,-0.227,0.116,1.115,-1.767,34.93,4.06
38031550,-0.327,0.153,1.055,9.66,31.36,-2.485
38031560,-0.374,0.169,1.048,18.585,19.355,-7.42
38031570,-0.35,0.18,1.024,20.895,9.222,-10.552
38031580,-0.294,0.177,0.987,17.22,4.357,-9.747
38031590,-0.244,0.162,0.958,11.095,4.9,-4.515
38031600,-0.17,0.16,0.935,5.722,13.562,-0.035
38031610,-0.201,0.117,0.831,0.332,28.035,2.45
38031620,-0.263,0.122,0.823,-0.997,41.352,2.712
38031630,-0.307,0.124,0.906,-3.08,52.92,1.767
38031640,-0.317,0.086,0.929,-6.265,62.615,1.137
38031650,-0.338,0.042,0.839,-7.175,66.01,1.295
38031660,-0.373,0.036,0.825,-5.232,59.85,2.152
38031670,-0.407,0.031,0.838,-7.84,43.592,3.657
38031680,-0.447,0.023,0.852,-10.92,27.282,5.582
38031690,-0.462,0.019,0.884,-14.21,17.01,8.61
38031700,-0.452,0.086,0.91,-16.712,9.38,9.905
38031710,-0.475,0.169,0.958,-17.167,7.42,10.22
38031720,-0.524,0.224,0.993,-15.627,12.355,8.785
38031730,-0.504,0.229,1.01,-12.81,17.692,4.637
38031740,-0.395,0.184,0.923,-11.322,21.437,1.365
38031750,-0.362,0.129,0.826,-8.382,23.362,4.952
38031760,-0.38,0.138,0.818,-3.902,26.302,7.245
38031760,-0.443,0.154,0.825,-5.25,29.12,8.872
38031780,-0.497,0.165,0.86,-7.91,25.147,11.602
38031780,-0.504,0.153,0.904,-14.437,9.117,16.135
38031800,-0.452,0.135,0.901,-19.932,-13.352,18.41
38031800,-0.375,0.116,0.899,-21.192,-31.08,22.68
38031820,-0.284,0.109,0.962,-20.58,-41.247,27.265
38031820,-0.239,0.114,1.033,-20.772,-44.957,31.08
38031830,-0.226,0.105,1.061,-20.405,-42.892,33.197
38031840,-0.232,0.078,1.02,-18.725,-38.43,33.11
38031850,-0.245,0.056,0.947,-14.402,-35.805,30.572
38031860,-0.23,0.044,0.891,-8.785,-33.687,26.845
38031870,-0.195,0.037,0.891,-4.41,-29.75,24.062
38031880,-0.198,0.03,0.94,-3.395,-24.167,22.995
38031890,-0.211,0.022,0.963,-4.532,-18.707,23.17
38031900,-0.255,0.048,0.964,-3.5,-18.777,23.607
38031910,-0.329,0.074,0.946,-3.255,-30.607,23.117
38031920,-0.266,0.047,0.976,-3.885,-50.785,20.982
38031930,-0.086,0.026,1.059,-2.45,-60.375,21.122
38031940,0.053,0.048,1.073,1.4,-50.417,22.995
38031950,0.057,0.1,1.06,8.575,-32.13,24.85
38031960,-0.051,0.141,1.057,14.175,-12.565,23.065
38031970,-0.148,0.136,1.008,19.372,4.34,20.37
38031980,-0.196,0.146,0.978,30.94,13.912,17.22
38031990,-0.23,0.146,0.925,26.565,19.477,12.932
38032000,-0.279,0.148,0.897,13.195,23.292,8.627
38032010,-0.31,0.145,0.903,3.045,23.957,6.055
38032020,-0.31,0.14,0.89,-1.645,22.767,3.92
38032030,-0.286,0.148,0.851,-1.785,20.422,-0.157
38032040,-0.283,0.153,0.876,-0.052,20.615,-2.432
38032050,-0.264,0.165,0.91,2.59,26.04,-3.342
38032060,-0.222,0.175,0.916,3.325,35.402,-4.235
38032070,-0.216,0.17,0.926,2.975,48.545,-3.43
38032080,-0.243,0.156,0.931,2.765,63.455,-1.505
38032080,-0.258,0.127,0.932,-2.397,79.152,-0.822
38032100,-0.332,0.088,0.918,-9.187,93.012,0.997
38032100,-0.404,0.076,0.924,-12.67,95.97,1.645
38032120,-0.43,0.069,0.944,-13.632,88.445,1.487
38032120,-0.419,0.05,0.94,-12.792,79.275,2.59
38032140,-0.386,0.043,0.927,-9.73,73.43,5.582
38032140,-0.333,0.064,0.917,-6.002,72.222,8.732
38032160,-0.299,0.086,0.853,-3.85,76.352,12.057
38032160,-0.26,0.124,0.836,6.02,88.445,16.362
38032170,-0.25,0.169,0.878,18.287,109.865,21.192
38032180,-0.28,0.206,0.874,15.75,140.98,21.787
38032190,-0.367,0.23,0.892,5.635,173.932,18.165
38032200,-0.484,0.229,0.941,-3.71,200.042,12.495
38032210,-0.586,0.205,0.936,-9.012,212.572,6.545
38032220,-0.623,0.174,0.848,-8.33,204.872,2.817
38032230,-0.623,0.144,0.777,-1.855,180.985,5.355
38032240,-0.584,0.127,0.687,5.442,157.657,12.442
38032250,-0.506,0.138,0.582,13.177,144.147,21.787
38032260,-0.545,0.145,0.507,16.73,142.082,28.84
38032270,-0.596,0.164,0.478,11.567,148.505,23.66
38032280,-0.688,0.188,0.522,-0.402,156.03,11.987
38032290,-0.815,0.154,0.572,-13.755,153.965,2.1
38032300,-1.007,0.118,0.589,-21.49,133.28,-5.565
38032310,-1.12,0.105,0.606,-23.835,101.097,-9.975
38032320,-1.084,0.107,0.6,-21.892,62.877,-8.592
38032330,-0.939,0.119,0.56,-18.865,31.447,-0.892
38032340,-0.761,0.131,0.537,-15.172,14.84,9.52
38032350,-0.651,0.121,0.52,-14.577,11.847,18.795
38032360,-0.613,0.123,0.544,-16.695,18.602,18.9
38032370,-0.639,0.151,0.574,-20.3,23.572,10.325
38032380,-0.714,0.169,0.569,-22.505,25.392,-0.98
38032390,-0.831,0.162,0.592,-21.525,24.342,-9.52
38032400,-0.922,0.132,0.594,-19.722,19.092,-13.737
38032410,-0.97,0.118,0.595,-16.012,4.865,-13.825
38032420,-0.969,0.123,0.615,-13.685,-17.587,-11.917
38032430,-0.895,0.127,0.607,-11.987,-39.357,-9.677
38032440,-0.787,0.132,0.599,-8.925,-55.895,-6.58
38032450,-0.674,0.144,0.653,-8.4,-61.18,-4.987
38032460,-0.551,0.151,0.651,-11.34,-52.675,-4.97
38032470,-0.499,0.138,0.629,-13.597,-35.577,-4.025
38032480,-0.565,0.118,0.626,-16.012,-18.62,-5.46
38032490,-0.677,0.103,0.642,-18.585,-7.647,-10.272
38032500,-0.766,0.089,0.676,-20.527,-1.68,-14.017
38032510,-0.802,0.08,0.688,-22.155,-2.905,-15.05
38032510,-0.786,0.071,0.663,-22.662,-10.762,-13.212
38032530,-0.715,0.058,0.627,-20.912,-17.92,-8.89
38032530,-0.697,0.029,0.644,-18.025,-24.657,-3.167
38032550,-0.806,0.064,0.648,-16.642,-38.08,-3.447
38032550,-0.81,0.102,0.653,-16.59,-46.077,-9.642
38032570,-0.691,0.046,0.656,-16.485,-45.15,-13.09
38032570,-0.618,0.036,0.673,-16.957,-42.245,-11.725
38032580,-0.606,0.075,0.69,-19.985,-34.702,-8.19
38032590,-0.626,0.063,0.702,-24.36,-22.802,-5.792
38032600,-0.681,0.038,0.73,-28.507,-12.617,-6.702
38032610,-0.749,0.025,0.74,-32.69,-8.137,-10.867
38032620,-0.795,0.016,0.734,-34.265,-9.257,-15.837
38032630,-0.808,0.012,0.74,-31.552,-13.842,-18.602
38032640,-0.798,0.012,0.774,-27.125,-21.455,-17.99
38032650,-0.777,0.008,0.803,-22.977,-30.835,-14.735
38032660,-0.739,0.008,0.824,-19.565,-31.535,-8.452
38032670,-0.682,0,0.88,-15.96,-22.347,0.07
38032680,-0.625,-0.014,0.977,-16.135,-11.095,7.91
38032690,-0.609,0.007,0.855,-17.71,6.055,14.682
38032700,-0.647,0.048,0.739,-8.645,21.385,20.107
38032710,-0.738,0.05,0.683,2.467,22.172,18.935
38032720,-0.8,0.049,0.651,12.32,19.845,11.13
38032730,-0.793,0.024,0.662,19.512,13.405,3.395
38032740,-0.759,-0.036,0.661,20.825,-2.695,-3.29
38032750,-0.76,-0.055,0.677,20.02,-11.9,-9.712
38032760,-0.768,-0.031,0.692,15.977,-12.775,-12.267
38032770,-0.744,-0.002,0.662,11.742,-16.485,-10.167
38032780,-0.716,0.021,0.619,9.345,-23.397,-4.917
38032790,-0.691,0.058,0.642,7.63,-23.73,0.962
38032800,-0.67,0.08,0.663,4.27,-18.812,6.055
38032810,-0.703,0.067,0.653,0.105,-15.155,8.592
38032820,-0.812,0.073,0.613,-2.66,-14.7,5.897
38032830,-0.856,0.099,0.672,-3.99,-7.07,-0.017
38032830,-0.858,0.105,0.717,-5.477,-3.062,-4.2
38032850,-0.883,0.094,0.716,-5.932,-12.232,-5.495
38032850,-0.891,0.067,0.726,-4.76,-23.817,-6.3
38032870,-0.841,0.061,0.709,0.122,-29.977,-6.702
38032870,-0.759,0.047,0.675,6.79,-33.652,-5.897
38032890,-0.664,0.043,0.629,13.982,-38.605,-6.457
38032890,-0.597,0.049,0.615,19.547,-40.915,-7.577
38032910,-0.575,0.018,0.715,19.425,-39.445,-9.345
38032910,-0.594,-0.036,0.781,10.937,-40.845,-12.705
38032920,-0.623,-0.035,0.754,0.315,-41.755,-14.577
38032930,-0.618,0,0.733,-7,-33.932,-11.83
38032940,-0.59,0.013,0.733,-10.045,-26.267,-6.177
38032950,-0.601,-0.001,0.76,-10.797,-26.6,-0.332
38032960,-0.632,-0.02,0.808,-12.407,-28.682,2.187
38032970,-0.648,-0.014,0.817,-13.282,-27.842,1.82
38032980,-0.651,0.006,0.786,-10.447,-26.582,1.61
38032990,-0.644,0.016,0.751,-4.532,-26.355,1.435
38033000,-0.663,0.016,0.697,2.327,-24.832,0.647
38033010,-0.688,0.011,0.696,8.522,-23.712,-1.172
38033020,-0.691,-0.028,0.818,8.032,-25.952,-5.232
38033030,-0.666,-0.053,0.788,0.07,-22.645,-9.1
38033040,-0.609,-0.002,0.774,-3.797,-14,-6.545
38033050,-0.593,0.016,0.822,-7.56,-19.39,-0.91
38033060,-0.628,0.024,0.782,-10.167,-25.725,1.697
38033070,-0.646,0.046,0.743,-7.052,-25.777,3.097
38033080,-0.601,0.07,0.733,-1.89,-26.285,2.152
38033090,-0.538,0.101,0.714,2.765,-25.375,0.332
38033100,-0.511,0.126,0.754,5.897,-20.912,0.262
38033110,-0.539,0.168,0.764,6.16,-17.5,0.455
38033120,-0.583,0.229,0.759,5.775,-12.6,-0.367
38033130,-0.656,0.24,0.813,3.762,-12.04,-2.94
38033140,-0.715,0.213,0.837,-1.382,-19.617,-8.592
38033150,-0.717,0.155,0.81,-6.632,-26.11,-14.07
38033160,-0.666,0.085,0.83,-10.447,-28.577,-16.38
38033170,-0.609,0.049,0.836,-13.825,-28.507,-14.997
38033180,-0.551,0.057,0.848,-14.927,-20.177,-9.695
38033190,-0.523,0.056,0.812,-12.407,-17.29,-4.707
38033200,-0.544,0.057,0.844,-7.857,-13.51,-2.66
38033210,-0.564,0.092,0.849,-3.762,-1.155,-4.165
38033220,-0.557,0.086,0.861,1.26,6.667,-5.932
38033230,-0.545,0.08,0.872,3.482,6.317,-7.122
38033240,-0.553,0.068,0.868,3.307,8.085,-6.79
38033250,-0.575,0.03,0.829,2.642,9.695,-5.547
38033260,-0.615,0.007,0.816,1.592,7.77,-6.177
38033260,-0.644,0.015,0.781,0.787,-3.185,-8.05
38033280,-0.648,0.011,0.74,2.292,-13.982,-8.47
38033280,-0.639,-0.017,0.747,2.275,-18.095,-8.417
38033300,-0.616,-0.041,0.771,-1.382,-17.657,-8.995
38033300,-0.59,-0.058,0.777,-6.352,-17.71,-9.257
38033320,-0.578,-0.095,0.761,-10.325,-13.825,-8.96
38033320,-0.595,-0.117,0.722,-11.025,-8.872,-8.295
38033330,-0.621,-0.12,0.752,-8.505,-6.527,-6.755
38033340,-0.607,-0.124,0.782,-7.98,-3.78,-5.32
38033350,-0.553,-0.114,0.779,-7.35,-3.622,-2.59
38033360,-0.532,-0.103,0.781,-6.44,-8.19,1.487
38033370,-0.568,-0.093,0.797,-5.635,-10.482,2.817
38033380,-0.615,-0.062,0.803,-3.605,-9.922,2.205
38033390,-0.65,-0.044,0.811,-0.507,-8.067,1.837
38033400,-0.67,-0.033,0.81,1.802,-9.975,1.715
38033410,-0.65,-0.005,0.821,2.677,-14.122,3.325
38033420,-0.582,0.034,0.835,2.117,-17.5,6.02
38033430,-0.519,0.063,0.833,0.052,-19.162,8.067
38033440,-0.498,0.077,0.849,-3.062,-16.677,7.385
38033450,-0.503,0.083,0.854,-6.51,-10.815,3.815
38033460,-0.525,0.076,0.849,-8.155,-6.597,-0.542
38033470,-0.561,0.053,0.863,-8.61,-3.85,-3.937
38033480,-0.558,0.033,0.833,-6.912,-1.715,-5.635
38033490,-0.569,-0.001,0.807,-2.625,-0.805,-3.815
38033500,-0.609,-0.02,0.786,1.785,-2.677,-2.17
38033510,-0.645,-0.014,0.783,4.392,-8.802,-2.94
38033520,-0.657,-0.009,0.795,3.22,-15.89,-5.092
38033530,-0.659,-0.013,0.796,-0.175,-22.557,-6.877
38033540,-0.659,-0.024,0.814,-4.112,-29.61,-7.595
38033550,-0.627,-0.032,0.847,-7.91,-33.355,-6.895
38033560,-0.569,-0.038,0.847,-9.782,-32.392,-4.217
38033570,-0.524,-0.05,0.825,-8.925,-28.77,-0.77
38033580,-0.493,-0.055,0.822,-6.3,-23.607,1.33
38033580,-0.478,-0.039,0.829,-2.835,-17.71,2.292
38033600,-0.479,-0.016,0.84,0.087,-13.212,3.132
38033600,-0.495,0,0.851,2.1,-8.557,3.815
38033620,-0.514,0.009,0.861,1.995,-4.865,3.447
38033620,-0.526,0.013,0.868,0.857,-4.077,1.05
38033640,-0.543,0.015,0.862,0.402,-3.92,-0.577
38033640,-0.554,0.01,0.847,-0.07,-4.375,0.227
38033660,-0.555,0.008,0.829,-0.245,-5.88,1.452
38033660,-0.545,0.01,0.82,-0.56,-7.49,2.345
38033670,-0.529,0.014,0.838,-1.312,-8.96,2.45
38033680,-0.514,0.015,0.854,-3.395,-9.432,2.135
38033690,-0.474,0.012,0.858,-5.53,-5.075,2.502
38033700,-0.473,-0.025,0.859,-6.125,3.307,4.83
38033710,-0.543,-0.038,0.856,-5.32,7.07,6.51
38033720,-0.565,-0.015,0.856,-3.412,5.39,6.737
38033730,-0.515,0.021,0.856,-0.035,6.37,8.102
38033740,-0.465,0.022,0.843,3.167,10.675,10.815
38033750,-0.49,-0.004,0.805,5.46,13.807,11.76
38033760,-0.584,-0.006,0.771,7.227,13.667,8.785
38033770,-0.665,0.018,0.774,7.455,10.202,3.99
38033780,-0.685,0.045,0.8,5.477,4.147,0.665
38033790,-0.656,0.049,0.822,1.505,-3.412,0.7
38033800,-0.594,0.038,0.834,-2.345,-8.942,1.627
38033810,-0.546,0.012,0.799,-5.792,-11.007,3.237
38033820,-0.53,-0.006,0.781,-6.772,-10.185,2.73
38033830,-0.547,-0.019,0.79,-7.682,-7.577,0.07
38033840,-0.603,-0.043,0.8,-8.242,-7.192,-2.835
38033850,-0.668,-0.023,0.82,-6.562,-15.295,-6.055
38033860,-0.584,0.03,0.902,-5.582,-23.362,-7.595
38033870,-0.472,0.035,0.889,-5.075,-20.912,-4.707
38033880,-0.494,-0.029,0.795,-0.752,-13.492,-0.962
38033890,-0.601,-0.07,0.818,1.785,-11.865,-1.662
38033900,-0.649,-0.055,0.83,0.875,-14.105,-5.81
38033910,-0.616,-0.024,0.841,-0.315,-17.605,-7.245
38033920,-0.569,-0.036,0.832,-1.855,-22.837,-2.677
38033930,-0.526,-0.043,0.845,-2.747,-26.092,1.715
38033940,-0.478,-0.025,0.878,-3.517,-26.04,3.832
38033950,-0.434,0,0.87,-3.902,-22.435,5.232
38033960,-0.429,0.009,0.864,-4.532,-16.905,7.717
38033970,-0.422,0.021,0.887,-4.2,-12.442,7.752
38033980,-0.4,0.029,0.88,-3.115,-7.577,5.792
38033990,-0.4,0.015,0.85,0.035,-1.4,3.395
38034000,-0.444,0.012,0.868,4.427,4.952,0.21
38034010,-0.487,0.02,0.892,6.685,9.887,-0.122
38034010,-0.488,0.035,0.906,6.37,14.367,3.097
38034030,-0.467,0.003,0.845,5.897,24.657,7.612
38034030,-0.554,-0.037,0.783,8.697,31.762,10.01
38034050,-0.695,-0.045,0.799,8.907,21.367,7.892
38034050,-0.713,-0.006,0.828,5.005,8.085,4.41
38034060,-0.594,0.043,0.808,2.24,6.037,5.057
38034070,-0.491,0.053,0.827,-0.052,0.997,6.387
38034080,-0.489,0.028,0.832,-5.215,-2.835,8.085
38034090,-0.508,0.03,0.827,-7.752,2.432,7.507
38034100,-0.51,0.032,0.789,-6.807,8.102,4.235
38034110,-0.536,0.025,0.772,-4.655,10.237,0.227
38034120,-0.606,0.013,0.8,-1.312,8.032,-1.925
38034130,-0.654,0.002,0.81,1.662,2.222,-2.432
38034140,-0.671,-0.003,0.814,2.537,-5.862,-3.29
38034150,-0.645,-0.001,0.832,0.367,-12.285,-3.972
38034160,-0.596,0.005,0.832,-3.71,-15.33,-3.237
38034170,-0.544,0.008,0.796,-7.455,-15.557,-2.432
38034180,-0.545,-0.005,0.777,-8.277,-20.037,-3.482
38034190,-0.487,0.035,0.805,-8.522,-29.942,-7.56
38034200,-0.321,0.039,0.828,-8.645,-25.497,-8.225
38034210,-0.318,-0.021,0.825,-7.577,-10.605,-3.78
38034220,-0.503,-0.109,0.844,-7.07,-4.217,-2.87
38034230,-0.687,-0.12,0.907,-8.487,-3.535,-7.052
38034240,-0.732,-0.077,0.875,-7.472,-2.712,-7.507
38034250,-0.71,-0.049,0.811,-2.782,-13.492,-2.03
38034260,-0.637,-0.02,0.831,1.61,-29.347,3.132
38034270,-0.54,0.016,0.856,2.817,-37.467,6.93
38034280,-0.439,0.036,0.888,-0.28,-37.73,8.575
38034290,-0.371,0.04,0.88,-6.842,-31.115,6.177
38034300,-0.353,0.041,0.885,-12.46,-18.585,3.43
38034310,-0.389,0.021,0.898,-15.33,-5.6,3.902
38034320,-0.437,-0.003,0.865,-13.685,4.27,3.237
38034330,-0.484,-0.003,0.872,-6.335,9.852,-0.017
38034330,-0.502,-0.005,0.841,1.47,13.16,-1.19
38034350,-0.525,-0.016,0.76,11.287,19.635,1.242
38034350,-0.646,-0.041,0.788,18.567,16.415,2.45
38034370,-0.702,-0.041,0.86,16.31,2.467,-3.237
38034370,-0.59,-0.012,0.83,7.91,-4.637,-4.62
38034390,-0.453,0.004,0.815,2.555,-3.5,2.94
38034390,-0.415,-0.011,0.819,-3.902,-1.225,9.782
38034410,-0.451,-0.013,0.824,-9.082,4.27,9.677
38034410,-0.512,-0.007,0.824,-10.08,8.242,5.53
38034420,-0.554,-0.02,0.794,-7.542,8.557,0.507
38034430,-0.593,-0.03,0.796,-1.365,5.355,-2.275
38034440,-0.619,-0.032,0.821,5.337,-0.787,-1.33
38034450,-0.629,-0.007,0.82,11.007,-7.122,0.997
38034460,-0.632,0.008,0.805,12.25,-14.752,1.26
38034470,-0.631,0.015,0.806,9.1,-23.73,-2.135
38034480,-0.602,0.023,0.819,3.342,-30.467,-6.125
38034490,-0.547,0.025,0.85,-3.202,-34.772,-8.19
38034500,-0.492,0.021,0.878,-8.785,-36.575,-7.805
38034510,-0.441,0.006,0.86,-10.955,-35.297,-5.39
38034520,-0.424,-0.006,0.845,-8.575,-33.442,-3.447
38034530,-0.434,0.001,0.877,-5.652,-32.025,-2.345
38034540,-0.385,0.005,0.896,-4.707,-24.027,-1.767
38034550,-0.409,-0.021,0.865,-2.187,-13.282,-2.03
38034560,-0.52,-0.057,0.839,1.54,-8.102,-4.357
38034570,-0.604,-0.05,0.843,3.902,-9.152,-8.837
38034580,-0.598,-0.007,0.864,4.83,-14.612,-11.987
38034590,-0.551,-0.001,0.874,3.99,-22.837,-7.787
38034600,-0.494,-0.009,0.875,0.997,-29.26,-1.872
38034610,-0.446,-0.021,0.861,-3.045,-29.925,1.715
38034620,-0.409,-0.025,0.866,-5.215,-25.987,2.94
38034630,-0.397,-0.018,0.875,-6.947,-22.26,3.115
38034640,-0.384,-0.019,0.884,-8.277,-16.642,4.847
38034650,-0.345,-0.015,0.902,-7.437,-9.502,6.282
38034660,-0.307,-0.004,0.91,-4.165,-2.852,6.807
38034670,-0.301,-0.003,0.889,0.455,7.507,7.297
38034680,-0.362,-0.011,0.872,6.037,18.112,6.597
38034690,-0.445,0,0.88,10.902,23.747,5.075
38034700,-0.492,0.02,0.896,12.267,25.655,5.04
38034710,-0.472,0.027,0.896,10.482,29.26,5.127
38034720,-0.49,-0.004,0.853,8.802,35.7,5.355
38034730,-0.607,-0.038,0.797,7.245,34.352,7.21
38034730,-0.708,-0.041,0.808,5.407,23.03,7
38034750,-0.686,0.015,0.849,1.82,11.357,5.302
38034750,-0.538,0.058,0.857,-2.082,3.955,3.745
38034760,-0.413,0.044,0.844,-4.427,1.225,4.287
38034770,-0.395,-0.018,0.823,-6.177,7,6.44
38034780,-0.427,-0.033,0.804,-3.99,13.86,4.497
38034790,-0.455,-0.013,0.817,-0.262,21.017,1.785
38034800,-0.492,0.012,0.864,2.66,26.6,0.77
38034810,-0.571,0.014,0.868,4.585,24.972,1.89
38034820,-0.673,0.02,0.841,7.07,13.23,1.575
38034830,-0.682,0.037,0.835,8.277,0.682,-1.995
38034840,-0.614,0.044,0.831,6.772,-8.295,-4.9
38034850,-0.558,0.02,0.832,2.712,-15.277,-5.145
38034860,-0.53,-0.001,0.846,-3.535,-17.797,-4.795
38034870,-0.508,-0.012,0.851,-9.642,-15.68,-4.392
38034880,-0.484,-0.019,0.85,-12.372,-12.127,-4.305
38034890,-0.482,-0.035,0.809,-11.165,-9.975,-3.937
38034900,-0.496,-0.024,0.79,-5.81,-13.072,-4.077
38034910,-0.46,0.004,0.851,-0.857,-14.84,-4.795
38034920,-0.426,0.023,0.876,1.575,-9.712,-4.585
38034930,-0.459,0.003,0.852,2.975,-4.077,-4.077
38034940,-0.533,-0.021,0.851,3.01,-2.66,-5.04
38034950,-0.58,-0.008,0.865,1.522,-2.94,-5.845
38034960,-0.587,-0.013,0.85,-0.297,-3.937,-3.57
38034970,-0.583,-0.033,0.821,-1.75,-9.625,-0.735
38034980,-0.542,-0.037,0.834,-3.22,-13.982,-0.315
38034990,-0.474,-0.019,0.855,-4.007,-14.507,-0.56
38035000,-0.421,-0.012,0.858,-4.69,-12.057,-0.14
38035010,-0.407,-0.012,0.854,-4.987,-7.175,0.122
38035020,-0.424,-0.013,0.853,-3.307,-1.277,0.525
38035030,-0.449,-0.007,0.864,0.087,3.22,1.242
38035040,-0.473,-0.006,0.862,3.15,6.807,1.837
38035050,-0.498,-0.01,0.865,5.215,9.047,2.835
38035060,-0.498,-0.003,0.877,5.39,10.902,3.902
38035070,-0.473,0.005,0.879,3.797,13.055,5.145
38035080,-0.456,0.012,0.898,0.91,16.065,6.912
38035080,-0.427,0.014,0.888,-2.502,25.55,9.065
38035100,-0.449,0.005,0.834,-2.38,37.257,12.355
38035100,-0.556,-0.003,0.788,1.172,37.782,13.072
38035120,-0.673,-0.003,0.781,4.637,28.927,8.522
38035120,-0.688,0.033,0.798,6.947,18.707,3.325
38035140,-0.601,0.057,0.824,6.93,10.01,1.05
38035140,-0.505,0.052,0.837,3.675,3.71,-0.035
38035160,-0.481,0.035,0.824,-1.225,2.957,0.402
38035160,-0.519,0.008,0.803,-5.88,6.685,2.415
38035170,-0.564,0.006,0.818,-7.332,8.067,0.752
38035180,-0.613,-0.005,0.805,-8.505,5.267,-2.975
38035190,-0.65,-0.021,0.807,-6.51,-0.087,-5.67
38035200,-0.658,-0.025,0.82,-2.957,-8.155,-6.58
38035210,-0.629,-0.02,0.821,0.175,-17.727,-6.072
38035220,-0.596,-0.019,0.789,2.082,-23.38,-4.41
38035230,-0.588,-0.008,0.752,3.255,-28.805,-4.375
38035240,-0.526,0.048,0.829,0.105,-34.807,-7.647
38035250,-0.4,0.058,0.918,-8.89,-27.492,-9.502
38035260,-0.386,0.011,0.869,-15.592,-14.525,-7.402
38035270,-0.468,-0.075,0.823,-16.17,-6.282,-5.687
38035280,-0.583,-0.108,0.805,-11.182,-2.45,-6.352
38035290,-0.632,-0.093,0.809,-2.957,-1.837,-5.092
38035300,-0.625,-0.08,0.825,2.957,-8.33,-1.05
38035310,-0.585,-0.049,0.83,4.83,-15.47,1.627
38035320,-0.533,-0.028,0.841,3.622,-18.9,2.817
38035330,-0.477,0.001,0.852,0.525,-18.62,1.697
38035340,-0.444,0.018,0.881,-5.075,-16.485,0.28
38035350,-0.421,0.02,0.884,-11.13,-13.632,-0.07
38035360,-0.422,0.007,0.854,-12.95,-8.417,1.61
38035370,-0.45,-0.004,0.846,-9.8,-3.045,4.025
38035380,-0.478,0.001,0.866,-4.567,0.245,4.812
38035390,-0.474,0.014,0.898,0.035,3.902,4.392
38035400,-0.432,0.012,0.883,2.835,11.777,5.145
38035410,-0.456,-0.027,0.815,5.95,20.965,8.015
38035420,-0.538,-0.033,0.798,8.61,20.65,9.222
38035420,-0.578,0,0.838,6.877,18.34,8.19
38035440,-0.556,0.044,0.828,3.622,19.127,7.647
38035440,-0.537,0.038,0.836,0.472,15.557,8.26
38035460,-0.526,0.025,0.845,-4.182,12.32,6.982
38035460,-0.519,0.02,0.819,-5.88,12.827,5.145
38035480,-0.576,0.009,0.801,-4.62,8.137,3.465
38035480,-0.627,0.008,0.805,-4.147,4.235,-1.137
38035500,-0.658,-0.006,0.846,-3.482,0.857,-5.232
38035500,-0.683,-0.045,0.841,-2.905,-9.012,-7.49
38035510,-0.653,-0.055,0.822,-1.855,-17.22,-7.315
38035520,-0.557,-0.038,0.825,-1.137,-18.637,-3.552
38035530,-0.473,-0.018,0.816,-1.452,-17.517,1.242
38035540,-0.453,-0.016,0.785,-3.167,-14.455,2.887
38035550,-0.511,-0.018,0.8,-3.535,-16.152,-0.945
38035560,-0.499,0.023,0.895,-5.635,-20.615,-7.805
38035570,-0.392,0.033,0.907,-8.242,-10.99,-9.8
38035580,-0.449,-0.035,0.828,-4.707,0.682,-4.462
38035590,-0.64,-0.112,0.803,1.505,-1.295,-2.275
38035600,-0.705,-0.066,0.84,6.562,-6.755,-5.652
38035610,-0.62,-0.001,0.865,8.277,-10.587,-5.11
38035620,-0.526,-0.004,0.85,5.915,-16.905,-0.84
38035630,-0.487,-0.013,0.842,1.26,-19.197,1.19
38035640,-0.454,-0.006,0.863,-2.87,-15.207,0.315
38035650,-0.44,0,0.854,-6.107,-9.362,-1.435
38035660,-0.468,-0.015,0.841,-8.4,-4.532,-2.957
38035670,-0.502,-0.038,0.852,-7.682,-0.875,-2.747
38035680,-0.519,-0.042,0.851,-3.08,-0.472,-1.295
38035690,-0.518,-0.033,0.859,2.485,-1.977,0.542
38035700,-0.497,-0.013,0.879,5.915,-2.047,1.96
38035710,-0.469,-0.007,0.865,6.09,0.262,3.395
38035720,-0.467,-0.017,0.858,3.727,4.322,4.515
38035730,-0.484,-0.02,0.859,0.105,8.557,4.497
38035740,-0.501,-0.009,0.866,-2.362,12.075,4.69
38035750,-0.503,0.008,0.874,-2.537,14.875,6.142
38035760,-0.474,0.015,0.887,-1.522,20.457,8.627
38035770,-0.465,-0.018,0.85,0.7,30.187,11.725
38035780,-0.513,-0.033,0.797,5.932,34.125,13.475
38035790,-0.546,-0.024,0.808,9.8,30.712,11.987
38035800,-0.53,0.015,0.849,10.22,32.69,10.36
38035810,-0.517,0.008,0.859,7.595,36.015,11.69
38035820,-0.573,-0.022,0.811,3.99,31.29,11.48
38035830,-0.653,-0.004,0.781,2.275,21.945,7.122
38035830,-0.689,0.044,0.783,0.735,12.985,3.78
38035850,-0.721,0.061,0.765,-0.122,3.482,2.397
38035850,-0.725,0.044,0.763,0.28,-3.797,-2.082
38035870,-0.699,0.015,0.802,0.612,-13.177,-7.245
38035870,-0.64,-0.013,0.823,-1.155,-23.24,-7.21
38035890,-0.565,-0.02,0.825,-3.412,-26.757,-3.64
38035890,-0.507,-0.01,0.822,-4.252,-26.11,-1.155
38035910,-0.472,0.001,0.842,-5.232,-21.7,-0.962
38035910,-0.475,0,0.822,-4.952,-16.712,-2.555
38035920,-0.531,-0.002,0.807,-1.925,-18.76,-5.197
38035930,-0.475,0.033,0.864,-0.98,-21.35,-8.54
38035940,-0.387,0.033,0.861,-0.875,-9.205,-5.792
38035950,-0.498,-0.022,0.832,0.98,2.572,-0.245
38035960,-0.697,-0.065,0.82,0.717,2.03,-3.325
38035970,-0.739,-0.018,0.84,1.05,-2.607,-10.22
38035980,-0.625,0.002,0.85,0.612,-8.225,-9.362
38035990,-0.528,-0.026,0.822,-0.56,-13.352,-3.027
38036000,-0.522,-0.066,0.818,-1.802,-13.125,1.785
38036010,-0.53,-0.05,0.82,-2.327,-11.812,0.787
38036020,-0.504,-0.011,0.83,-3.657,-9.992,-2.327
38036030,-0.467,0,0.839,-5.827,-5.6,-3.132
38036040,-0.469,-0.031,0.844,-5.967,-0.647,-0.052
38036050,-0.502,-0.051,0.839,-3.027,4.305,2.59
38036060,-0.539,-0.038,0.838,1.277,7.962,2.957
38036070,-0.553,-0.008,0.833,5.215,8.82,3.167
38036080,-0.555,0.012,0.828,7.227,8.155,4.217
38036090,-0.549,0.018,0.836,6.475,7.297,5.407
38036100,-0.522,0.017,0.827,4.69,6.807,5.565
38036110,-0.501,0.013,0.823,2.52,6.387,5.407
38036120,-0.503,0.015,0.832,-0.437,5.792,4.62
38036130,-0.498,0.025,0.855,-4.182,9.117,4.812
38036140,-0.486,-0.034,0.808,-6.317,21.665,7.735
38036150,-0.609,-0.082,0.75,-2.362,26.652,9.502
38036160,-0.713,-0.054,0.791,1.715,14.14,6.702
38036170,-0.664,0.032,0.839,3.605,9.66,4.865
38036170,-0.564,0.05,0.838,4.2,10.447,8.207
38036190,-0.524,0.049,0.828,2.87,4.445,8.837
38036190,-0.538,0.044,0.779,-0.665,5.145,7.245
38036210,-0.572,0.054,0.772,-0.77,8.365,3.99
38036210,-0.635,0.046,0.792,-1.837,4.69,-1.837
38036230,-0.673,0.026,0.819,-4.76,-0.332,-7.437
38036230,-0.682,0,0.817,-4.095,-5.862,-8.89
38036250,-0.68,-0.025,0.785,-1.33,-13.352,-7.822
38036250,-0.641,-0.014,0.785,1.89,-20.44,-7.42
38036260,-0.573,0.004,0.81,2.852,-23.677,-6.352
38036270,-0.518,0.008,0.805,0.595,-22.137,-5.285
38036280,-0.523,-0.016,0.759,-1.89,-20.44,-6.16
38036290,-0.555,0.052,0.817,-3.43,-28.122,-10.657
38036300,-0.467,0.081,0.943,-10.605,-22.522,-13.755
38036310,-0.445,0.021,0.864,-14.105,-3.377,-10.447
38036320,-0.561,-0.089,0.807,-11.515,1.592,-6.667
38036330,-0.654,-0.114,0.771,-6.685,-3.727,-9.397
38036340,-0.665,-0.079,0.796,1.435,-3.937,-9.467
38036350,-0.635,-0.076,0.824,4.48,-11.707,-5.652
38036360,-0.583,-0.072,0.817,2.275,-21.227,-3.395
38036370,-0.525,-0.05,0.831,-0.787,-22.505,-0.857
38036380,-0.464,-0.01,0.843,-4.287,-20.597,0.227
38036390,-0.436,0.017,0.821,-8.365,-15.75,-0.087
38036400,-0.474,0.011,0.822,-10.377,-8.435,-0.42
38036410,-0.525,-0.007,0.83,-8.662,-3.412,-1.26
38036420,-0.541,-0.026,0.83,-3.745,-1.067,-2.222
38036430,-0.535,-0.04,0.83,2.257,-2.38,-2.047
38036440,-0.523,-0.042,0.822,7.262,-4.287,0.14
38036450,-0.511,-0.034,0.814,9.45,-4.025,2.835
38036460,-0.509,-0.021,0.811,7.997,-3.062,3.762
38036470,-0.5,0,0.813,3.78,-1.172,3.08
38036480,-0.479,0.007,0.784,0.542,3.552,3.797
38036490,-0.559,-0.01,0.808,-0.227,5.267,6.125
38036500,-0.672,-0.039,0.84,-2.502,-1.54,4.305
38036510,-0.652,-0.029,0.836,-4.375,-6.02,1.697
38036520,-0.551,-0.002,0.838,-3.745,-5.81,3.78
38036530,-0.488,0.001,0.834,-3.92,-6.072,7.297
38036540,-0.486,0.007,0.828,-2.905,-3.482,8.89
38036550,-0.523,0.027,0.839,-1.4,-0.157,6.562
38036560,-0.532,0.029,0.829,-1.172,2.17,1.592
38036570,-0.553,0.01,0.814,-0.21,2.73,-1.032
38036580,-0.58,-0.01,0.812,1.312,0.752,-0.455
38036580,-0.578,0.004,0.823,2.362,-0.612,0.892
38036600,-0.549,0.022,0.833,1.627,-1.575,2.135
38036600,-0.54,0.011,0.833,-0.56,-1.837,2.257
38036620,-0.558,-0.011,0.828,-2.852,-1.995,0.245
38036620,-0.576,-0.032,0.814,-3.815,-4.095,-2.555
38036640,-0.582,-0.033,0.807,-2.45,-5.075,-3.517
38036640,-0.573,-0.025,0.819,0.105,-5.32,-2.345
38036660,-0.568,-0.019,0.828,2.065,-6.457,-0.997
38036660,-0.582,0.001,0.835,2.73,-10.657,-1.942
