#Format version: 1.0
time[ms],accX[g],accY[g],accZ[g],Value 1,Value 2,Value 3,
50539420,-0.807,-0.011,0.665,-2.24,-14.997,-11.042,
50539430,-0.805,-0.014,0.671,-3.132,-19.477,-14.052,
50539440,-0.666,-0.035,0.652,-4.655,-19.267,-15.907,
50539450,-0.724,-0.01,0.682,-5.6,-12.757,-12.985,
50539460,-0.703,-0.027,0.673,-5.617,-5.057,-11.095,
50539470,-0.788,-0.022,0.685,-8.925,-2.38,-7.402,
50539480,-0.777,-0.037,0.672,-9.205,-3.64,-7.507,
50539490,-0.778,-0.038,0.677,-7.647,-6.335,-8.312,
50539500,-0.784,-0.03,0.68,-7.77,-7.332,-9.485,
50539510,-0.79,-0.033,0.678,-7.822,-9.59,-11.847,
50539520,-0.772,-0.029,0.678,-7.665,-11.515,-12.88,
50539530,-0.744,-0.026,0.672,-7.157,-12.792,-12.915,
50539540,-0.726,-0.024,0.68,-6.877,-12.267,-13.562,
50539550,-0.748,-0.049,0.692,-6.475,-10.99,-10.36,
50539560,-0.765,-0.046,0.683,-8.977,-11.305,-5.582,
50539570,-0.746,-0.058,0.678,-9.17,-13.615,-6.02,
50539580,-0.728,-0.059,0.684,-7.28,-13.807,-7.315,
50539590,-0.731,-0.049,0.692,-7.07,-13.37,-9.275,
50539600,-0.731,-0.057,0.685,-7.542,-13.965,-9.712,
50539610,-0.709,-0.05,0.678,-6.23,-14.997,-8.732,
50539620,-0.731,-0.055,0.705,-6.02,-14.42,-7.227,
50539630,-0.735,-0.081,0.689,-7.052,-15.05,-7.822,
50539640,-0.728,-0.078,0.693,-4.83,-16.152,-7.91,
50539650,-0.713,-0.056,0.698,-4.55,-16.957,-6.02,
50539660,-0.705,-0.057,0.7,-6.93,-16.45,-4.987,
50539670,-0.71,-0.069,0.698,-8.715,-15.452,-5.197,
50539680,-0.714,-0.072,0.699,-9.31,-14.822,-5.407,
50539690,-0.698,-0.067,0.697,-10.15,-14.84,-5.6,
50539700,-0.684,-0.076,0.693,-9.38,-13.93,-4.655,
50539710,-0.678,-0.076,0.702,-8.225,-13.195,-2.817,
50539720,-0.66,-0.081,0.716,-7.665,-12.215,-0.21,
50539730,-0.622,-0.084,0.726,-7.752,-10.15,4.042,
50539740,-0.591,-0.088,0.744,-7.927,-5.215,11.217,
50539750,-0.596,-0.106,0.75,-9.38,1.82,19.477,
50539760,-0.612,-0.147,0.754,-11.025,12.005,26.442,
50539760,-0.705,-0.158,0.77,-13.597,21.525,28.542,
50539770,-0.78,-0.176,0.767,-15.12,25.235,22.452,
50539780,-0.841,-0.189,0.753,-12.915,21.49,13.982,
50539790,-0.821,-0.188,0.729,-7.577,11.025,8.365,
50539800,-0.767,-0.19,0.735,3.15,0.28,6.685,
50539810,-0.717,-0.18,0.724,15.347,-9.135,6.44,
50539820,-0.68,-0.139,0.738,25.585,-13.79,4.9,
50539830,-0.635,-0.117,0.722,31.22,-15.26,3.535,
50539840,-0.596,-0.1,0.705,34.877,-10.955,4.165,
50539850,-0.592,-0.066,0.698,36.767,-2.415,6.65,
50539860,-0.622,-0.032,0.682,35.175,7.595,10.22,
50539870,-0.663,0.005,0.675,31.255,16.625,11.515,
50539880,-0.697,0.029,0.648,23.975,24.202,10.99,
50539890,-0.722,0.064,0.641,17.377,30.292,8.277,
50539900,-0.788,0.08,0.613,9.432,33.022,8.942,
50539910,-0.811,0.108,0.6,5.705,31.045,8.96,
50539920,-0.834,0.175,0.59,-3.027,27.335,7.087,
50539930,-0.862,0.183,0.575,-15.802,21.332,2.73,
50539940,-0.876,0.152,0.565,-28.262,13.352,-4.445,
50539950,-0.867,0.105,0.557,-38.255,5.372,-13.265,
50539960,-0.812,0.063,0.578,-44.415,-1.277,-21.927,
50539970,-0.703,0.011,0.58,-44.835,-1.662,-22.26,
50539980,-0.821,-0.129,0.579,-31.692,-2.152,-10.727,
50539990,-0.832,-0.032,0.683,-16.047,-5.845,-10.675,
50540000,-0.826,-0.044,0.686,-25.322,-10.955,-12.67,
50540010,-0.723,-0.167,0.649,-29.592,-13.195,-17.78,
50540020,-0.76,-0.206,0.715,-18.567,-4.917,-14.84,
50540030,-0.929,-0.179,0.749,-9.607,-4.182,-12.39,
50540040,-0.882,-0.171,0.738,-12.582,-13.982,-16.922,
50540050,-0.813,-0.174,0.723,-12.092,-23.292,-20.615,
50540060,-0.742,-0.153,0.709,-7.647,-28.297,-16.222,
50540070,-0.659,-0.092,0.715,-4.41,-28.822,-12.687,
50540080,-0.621,-0.092,0.705,-4.707,-24.01,-10.132,
50540080,-0.642,-0.094,0.691,-5.127,-18.13,-8.19,
50540100,-0.659,-0.088,0.687,-3.307,-13.912,-7.542,
50540100,-0.657,-0.091,0.68,-1.26,-11.392,-4.97,
50540120,-0.674,-0.078,0.69,0.455,-8.365,-2.782,
50540120,-0.67,-0.064,0.69,-0.157,-6.37,-4.112,
50540140,-0.684,-0.082,0.691,-2.327,-2.817,-5.005,
50540140,-0.765,-0.095,0.69,-3.097,-4.042,-6.93,
50540160,-0.695,-0.107,0.685,0.367,-8.05,-9.257,
50540160,-0.665,-0.118,0.699,3.797,-7.805,-6.09,
50540170,-0.733,-0.125,0.708,4.532,-5.582,-2.66,
50540180,-0.699,-0.126,0.708,5.985,-6.107,-1.82,
50540190,-0.635,-0.125,0.703,7.437,-2.782,1.75,
50540200,-0.737,-0.101,0.71,4.357,1.505,6.002,
50540210,-0.661,-0.085,0.703,2.59,2.135,4.235,
50540220,-0.63,-0.105,0.694,-0.14,6.877,6.37,
50540230,-0.671,-0.095,0.698,-4.462,13.807,8.89,
50540240,-0.735,-0.137,0.683,-3.605,15.96,14.472,
50540250,-0.706,-0.109,0.69,0.227,13.755,15.575,
50540260,-0.693,-0.092,0.696,0.017,14.262,15.365,
50540270,-0.717,-0.107,0.692,0.052,15.872,14.787,
50540280,-0.743,-0.118,0.691,1.645,16.135,15.225,
50540290,-0.753,-0.111,0.694,3.185,14.84,17.01,
50540300,-0.757,-0.105,0.679,2.87,13.44,18.007,
50540310,-0.762,-0.105,0.663,4.165,11.165,17.237,
50540320,-0.75,-0.09,0.657,7.367,9.537,16.747,
50540330,-0.765,-0.074,0.658,9.642,8.312,16.012,
50540340,-0.733,-0.07,0.66,9.397,7.857,13.125,
50540350,-0.71,-0.097,0.654,10.395,11.375,12.722,
50540360,-0.721,-0.068,0.667,11.847,18.322,14.822,
50540370,-0.78,-0.064,0.679,11.97,22.925,22.347,
50540380,-0.77,-0.067,0.67,9.712,26.232,26.11,
50540390,-0.774,-0.091,0.658,10.815,31.08,27.177,
50540400,-0.84,-0.068,0.663,13.912,35.262,28.297,
50540410,-0.882,-0.045,0.661,14.507,33.757,27.247,
50540420,-0.878,-0.043,0.641,14.192,27.387,24.185,
50540430,-0.848,-0.029,0.624,15.925,19.74,20.247,
50540440,-0.838,0.001,0.62,18.165,12.792,16.082,
50540440,-0.837,0.024,0.608,18.392,3.972,11.707,
50540460,-0.815,0.043,0.599,18.27,-5.67,6.002,
50540460,-0.797,0.061,0.586,16.555,-14.805,-0.735,
50540480,-0.792,0.066,0.587,14.822,-22.68,-8.505,
50540480,-0.778,0.071,0.589,11.672,-30.45,-16.012,
50540500,-0.762,0.065,0.594,6.912,-36.19,-22.732,
50540500,-0.739,0.058,0.604,0.77,-39.112,-31.535,
50540510,-0.747,0.045,0.619,-7.35,-39.497,-37.59,
50540520,-0.775,-0.013,0.613,-11.375,-42.087,-37.135,
50540530,-0.769,-0.007,0.64,-11.147,-45.132,-39.305,
50540540,-0.764,-0.028,0.667,-13.44,-46.882,-41.072,
50540550,-0.56,-0.094,0.66,-15.172,-38.762,-39.322,
50540560,-0.574,-0.148,0.718,-9.345,-14.28,-26.407,
50540570,-0.87,-0.154,0.75,-0.997,9.292,-13.177,
50540580,-1.051,-0.094,0.782,2.695,3.255,-9.992,
50540590,-0.712,-0.13,0.712,-6.387,-12.617,-5.092,
50540600,-0.733,-0.13,0.645,-6.58,-7.91,0.245,
50540610,-0.796,-0.054,0.68,7.612,-4.515,-0.63,
50540620,-0.727,0.008,0.683,5.127,-8.977,0.402,
50540630,-0.687,-0.009,0.663,-2.905,-11.567,1.925,
50540640,-0.67,-0.045,0.646,-6.037,-10.605,1.452,
50540650,-0.644,-0.05,0.657,-2.73,-7.595,-1.54,
50540660,-0.705,-0.043,0.688,-0.612,-2.765,-0.192,
50540670,-0.745,-0.049,0.676,-3.307,-2.677,1.26,
50540680,-0.762,-0.073,0.677,-2.625,-4.865,-0.297,
50540690,-0.744,-0.07,0.706,-2.712,-5.6,-2.887,
50540700,-0.769,-0.108,0.694,-6.335,-1.505,-2.905,
50540710,-0.832,-0.091,0.677,-6.002,-2.572,-3.675,
50540720,-0.804,-0.062,0.679,-1.872,-7.297,-6.09,
50540730,-0.779,-0.034,0.674,-4.357,-11.585,-9.257,
50540740,-0.766,-0.054,0.662,-6.177,-14.84,-10.92,
50540750,-0.733,-0.063,0.665,-4.497,-17.78,-11.375,
50540760,-0.695,-0.056,0.68,-3.64,-17.587,-10.272,
50540770,-0.702,-0.075,0.686,-5.582,-14.297,-8.295,
50540780,-0.716,-0.089,0.687,-7.822,-11.217,-7.052,
50540790,-0.71,-0.083,0.686,-8.452,-9.59,-6.282,
50540800,-0.707,-0.079,0.692,-9.275,-7.735,-5.25,
50540810,-0.718,-0.071,0.691,-10.027,-6.44,-4.917,
50540820,-0.718,-0.078,0.684,-9.87,-6.475,-6.912,
50540830,-0.724,-0.093,0.689,-7.945,-6.947,-9.187,
50540830,-0.773,-0.097,0.695,-7.245,-8.557,-9.8,
50540850,-0.815,-0.107,0.699,-7.507,-13.737,-10.727,
50540850,-0.825,-0.119,0.698,-8.225,-20.737,-12.407,
50540870,-0.798,-0.107,0.695,-8.172,-27.02,-12.775,
50540870,-0.725,-0.083,0.722,-7.49,-29.977,-9.362,
50540890,-0.677,-0.117,0.727,-8.277,-26.057,-3.57,
50540890,-0.666,-0.129,0.752,-9.275,-20.16,0.542,
50540910,-0.635,-0.132,0.764,-7.77,-14.875,0.787,
50540910,-0.623,-0.134,0.766,-7,-9.8,-2.345,
50540920,-0.642,-0.147,0.74,-6.772,-6.282,-4.987,
50540930,-0.649,-0.132,0.758,-4.252,-3.64,-6.405,
50540940,-0.665,-0.128,0.795,-2.957,-1.172,-7.682,
50540950,-0.691,-0.137,0.791,-5.547,0.437,-10.097,
50540960,-0.693,-0.119,0.754,-8.47,0.245,-13.072,
50540970,-0.676,-0.068,0.684,-8.19,-1.627,-12.162,
50540980,-0.702,-0.008,0.676,-5.057,-2.747,-6.772,
50540990,-0.779,-0.013,0.693,-7.332,-2.992,-3.85,
50541000,-0.854,-0.073,0.684,-12.145,-4.165,-7.245,
50541010,-0.887,-0.086,0.69,-13.632,-10.045,-10.955,
50541020,-0.901,-0.074,0.705,-15.68,-18.007,-11.48,
50541030,-0.876,-0.086,0.712,-18.2,-26.74,-12.67,
50541040,-0.841,-0.107,0.696,-18.9,-33.25,-14.577,
50541050,-0.806,-0.097,0.701,-17.867,-37.065,-16.485,
50541060,-0.771,-0.09,0.711,-17.815,-39.83,-17.85,
50541070,-0.706,-0.116,0.695,-18.27,-43.155,-17.762,
50541080,-0.671,-0.115,0.724,-17.447,-43.365,-14.665,
50541090,-0.642,-0.06,0.735,-22.872,-41.212,-13.755,
50541100,-0.619,-0.133,0.76,-26.215,-36.75,-18.865,
50541110,-0.671,-0.185,0.744,-32.305,-33.722,-23.555,
50541120,-0.651,-0.205,0.707,-30.887,-35.385,-24.99,
50541130,-0.6,-0.148,0.74,-22.662,-36.732,-23.17,
50541140,-0.61,-0.166,0.782,-23.8,-33.88,-20.702,
50541150,-0.597,-0.201,0.744,-31.762,-32.077,-22.19,
50541160,-0.57,-0.207,0.766,-30.397,-29.19,-22.435,
50541170,-0.536,-0.191,0.769,-30.31,-26.162,-22.837,
50541170,-0.54,-0.205,0.757,-29.68,-21.805,-23.135,
50541190,-0.6,-0.224,0.76,-28.297,-19.495,-22.032,
50541190,-0.636,-0.245,0.773,-25.165,-23.117,-21.332,
50541210,-0.629,-0.282,0.76,-22.225,-24.815,-16.87,
50541210,-0.696,-0.222,0.762,-18.602,-28.07,-11.532,
50541230,-0.633,-0.192,0.777,-16.345,-32.987,-8.102,
50541230,-0.587,-0.179,0.795,-18.515,-33.95,-5.285,
50541250,-0.586,-0.193,0.805,-22.505,-31.99,-5.302,
50541250,-0.564,-0.19,0.819,-26.53,-29.662,-7.035,
50541260,-0.551,-0.189,0.838,-31.08,-26.722,-9.187,
50541270,-0.528,-0.194,0.839,-35.052,-23.922,-11.637,
50541280,-0.514,-0.206,0.826,-40.6,-19.81,-14.052,
50541290,-0.571,-0.223,0.835,-45.605,-14.017,-16.555,
50541300,-0.647,-0.254,0.794,-51.73,-12.565,-21.91,
50541310,-0.709,-0.265,0.773,-54.512,-15.225,-28.84,
50541320,-0.744,-0.241,0.744,-58.765,-20.737,-35.175,
50541330,-0.784,-0.266,0.69,-63.525,-28.035,-39.375,
50541340,-0.748,-0.28,0.689,-63.91,-35.262,-42,
50541350,-0.771,-0.279,0.681,-63.245,-43.435,-41.352,
50541360,-0.658,-0.329,0.686,-58.957,-53.095,-38.325,
50541370,-0.598,-0.347,0.721,-51.152,-57.872,-32.917,
50541380,-0.557,-0.32,0.727,-45.657,-61.232,-28.717,
50541390,-0.486,-0.326,0.729,-43.12,-63.297,-24.447,
50541400,-0.449,-0.339,0.748,-42.402,-61.092,-22.82,
50541410,-0.442,-0.341,0.784,-44.835,-58.03,-23.03,
50541420,-0.408,-0.38,0.78,-48.737,-56,-24.78,
50541430,-0.387,-0.362,0.76,-51.625,-52.307,-27.16,
50541440,-0.264,-0.25,0.504,-53.707,-42.945,-24.955,
50541450,-0.505,0.294,0.65,-45.132,-48.317,-16.222,
50541460,-0.463,-0.251,0.986,-76.545,-39.235,-15.645,
50541470,-0.375,-1.032,0.935,-124.092,-42.192,-31.832,
50541480,-0.484,-1.211,0.787,-94.045,-43.75,-31.587,
50541490,-0.302,-0.879,0.836,-37.887,-58.012,-22.645,
50541500,0.034,-0.462,0.822,-12.67,-60.007,-21.42,
50541510,0.065,-0.271,0.753,-21.175,-45.377,-12.057,
50541520,0.11,-0.367,0.762,-32.987,-25.042,-1.557,
50541530,0.106,-0.506,0.823,-38.307,-1.347,4.2,
50541540,0.007,-0.567,0.851,-43.032,18.602,13.912,
50541550,-0.043,-0.612,0.834,-43.347,31.325,24.797,
50541560,-0.1,-0.645,0.8,-34.247,41.317,31.78,
50541570,-0.158,-0.603,0.759,-20.597,48.772,34.825,
50541580,-0.198,-0.53,0.708,-10.622,55.527,34.667,
50541580,-0.285,-0.488,0.654,-6.475,61.722,32.637,
50541600,-0.358,-0.48,0.59,-5.547,65.397,29.995,
50541600,-0.492,-0.518,0.597,-6.877,65.765,25.637,
50541620,-0.466,-0.569,0.513,-9.03,67.777,20.93,
50541620,-0.918,-0.563,0.579,-0.892,61.547,25.322,
50541640,-0.819,-0.578,0.596,9.03,35.42,20.422,
50541640,-0.646,-0.532,0.533,21,19.197,16.975,
50541660,-0.654,-0.343,0.556,30.292,27.072,23.765,
50541660,-0.909,-0.282,0.666,28.962,28.14,32.532,
50541670,-0.698,-0.338,0.666,21.507,22.732,29.417,
50541680,-0.691,-0.411,0.675,17.062,23.45,33.425,
50541690,-0.724,-0.421,0.757,10.622,22.312,30.765,
50541700,-0.667,-0.567,0.743,9.1,16.397,25.235,
50541710,-0.433,-0.552,0.708,17.902,9.695,23.257,
50541720,-0.358,-0.499,0.713,30.73,15.137,36.855,
50541730,-0.266,-0.354,0.725,35.7,26.565,43.102,
50541740,-0.217,-0.374,0.675,33.74,42.192,51.432,
50541750,-0.078,-0.352,0.641,35.402,63.875,62.195,
50541760,-0.181,-0.356,0.657,37.047,90.352,82.355,
50541770,-0.479,-0.409,0.679,35.84,105.105,89.932,
50541780,-0.564,-0.453,0.623,35.245,108.185,89.022,
50541790,-0.638,-0.445,0.566,43.347,104.737,91.525,
50541800,-0.701,-0.311,0.554,48.562,104.107,90.895,
50541810,-0.736,-0.259,0.532,44.572,106.697,85.4,
50541820,-0.742,-0.242,0.529,42.14,109.69,79.52,
50541830,-0.767,-0.237,0.563,38.955,113.085,73.692,
50541840,-0.906,-0.244,0.569,32.182,114.45,74.637,
50541850,-0.954,-0.269,0.611,31.815,108.202,74.637,
50541860,-1.105,-0.201,0.652,31.71,101.657,62.667,
50541870,-1.204,-0.172,0.628,27.457,83.09,50.802,
50541880,-1.153,-0.158,0.581,28.875,59.185,49.385,
50541890,-1.126,-0.103,0.561,28.507,40.197,52.15,
50541900,-1.092,-0.093,0.536,22.365,29.172,44.835,
50541910,-1.074,-0.14,0.574,16.187,22.925,31.797,
50541920,-1.003,-0.164,0.585,6.737,17.272,21.7,
50541920,-0.923,-0.196,0.599,5.67,12.81,13.3,
50541940,-0.838,-0.193,0.601,4.76,10.255,9.87,
50541940,-0.791,-0.214,0.575,3.727,9.275,7.402,
50541960,-0.741,-0.236,0.585,3.29,8.417,6.16,
50541960,-0.685,-0.268,0.584,4.515,9.082,8.575,
50541980,-0.62,-0.259,0.558,8.015,11.987,15.47,
50541980,-0.505,-0.256,0.546,13.615,19.53,24.657,
50542000,-0.515,-0.27,0.545,16.467,34.79,35.577,
50542000,-0.554,-0.227,0.571,19.39,49.577,44.782,
50542010,-0.678,-0.183,0.556,21.21,62.615,52.062,
50542020,-0.825,-0.127,0.535,19.915,69.387,53.007,
50542030,-0.847,-0.093,0.496,19.022,69.58,54.337,
50542040,-0.897,-0.086,0.524,20.265,70.35,54.862,
50542050,-0.955,-0.033,0.446,14.437,65.502,54.547,
50542060,-0.915,-0.029,0.431,17.132,62.702,41.037,
50542070,-0.893,-0.114,0.546,4.935,63.787,40.722,
50542080,-1.054,-0.283,0.494,-8.925,57.82,53.777,
50542090,-1.094,-0.201,0.481,10.29,47.25,53.165,
50542100,-0.867,0.013,0.481,17.482,41.597,50.995,
50542110,-0.808,-0.056,0.392,10.727,48.825,52.237,
50542120,-0.865,-0.096,0.4,12.372,58.135,53.567,
50542130,-1.072,-0.066,0.472,15.19,58.257,54.25,
50542140,-1.258,-0.056,0.497,11.112,48.562,47.005,
50542150,-1.314,-0.007,0.445,7.997,34.317,32.007,
50542160,-1.173,0.073,0.404,5.985,19.845,16.24,
50542170,-1.106,0.025,0.369,-0.822,10.43,3.675,
50542180,-0.974,-0.088,0.353,-5.267,4.095,-5.355,
50542190,-0.833,-0.124,0.36,-2.117,1.05,-6.405,
50542200,-0.755,-0.114,0.366,1.96,4.252,0.805,
50542210,-0.754,-0.145,0.396,5.74,10.622,10.08,
50542220,-0.755,-0.171,0.407,10.605,16.887,19.617,
50542230,-0.786,-0.17,0.439,16.117,22.925,28.84,
50542240,-0.88,-0.13,0.412,21,27.107,37.117,
50542250,-1.013,-0.014,0.404,23.8,24.605,40.11,
50542260,-1.055,0.054,0.4,19.302,20.685,35.262,
50542270,-1.04,0.056,0.355,13.475,16.1,27.825,
50542280,-1.061,0.089,0.354,12.197,9.73,23.31,
50542290,-1.053,0.093,0.367,9.712,2.52,16.467,
50542300,-1.02,0.005,0.316,4.882,-3.08,10.185,
50542310,-0.958,-0.071,0.326,3.237,-8.365,6.475,
50542320,-0.881,-0.09,0.346,5.197,-10.29,7.052,
50542330,-0.872,-0.068,0.379,9.485,-8.872,11.077,
50542330,-0.905,-0.048,0.402,11.007,-6.86,15.067,
50542350,-0.902,-0.033,0.409,13.09,-4.83,16.94,
50542350,-0.902,-0.018,0.396,14.227,-2.695,19.057,
50542370,-0.935,-0.001,0.402,13.947,-1.61,20.615,
50542370,-0.993,0.002,0.386,12.565,-2.082,19.075,
50542390,-0.974,0.033,0.372,14.052,-4.9,14.35,
50542390,-0.944,0.073,0.398,9.695,-6.37,14.612,
50542410,-0.988,0.033,0.395,6.562,-5.705,12.705,
50542410,-0.981,0.069,0.43,7.087,-7.402,10.955,
50542420,-0.979,0.076,0.438,3.692,-7.332,6.422,
50542430,-0.89,0.046,0.419,2.327,-6.51,0.262,
50542440,-0.903,0.025,0.422,2.677,-2.677,-2.8,
50542450,-0.918,0.057,0.438,4.182,-0.77,-3.465,
50542460,-0.982,0.032,0.405,-1.05,1.662,-0.612,
50542470,-0.979,-0.001,0.351,-4.637,0.227,1.592,
50542480,-0.929,-0.023,0.352,-2.292,-1.732,-0.192,
50542490,-0.881,-0.07,0.305,-1.627,-2.817,-0.14,
50542500,-0.904,-0.058,0.279,2.852,-4.935,4.76,
50542510,-0.95,-0.012,0.305,6.877,-8.277,8.54,
50542520,-0.984,-0.013,0.339,8.89,-12.6,8.137,
50542530,-0.959,0.005,0.371,10.902,-15.54,4.235,
50542540,-0.976,0.015,0.415,11.532,-16.957,0.07,
50542550,-0.989,-0.014,0.452,7.577,-19.197,-1.172,
50542560,-0.896,0.003,0.442,3.307,-21.927,1.68,
50542570,-1.019,-0.079,0.651,3.325,-21.245,4.655,
50542580,-0.559,0.019,0.327,5.442,-62.037,-14.105,
50542590,-0.678,-0.105,0.314,11.847,-12.11,6.562,
50542600,-1.578,0.435,0.427,19.337,6.527,30.607,
50542610,-0.979,0.304,0.54,0.682,-20.072,-2.327,
50542620,-0.985,0.002,0.414,-18.025,-16.887,-19.547,
50542630,-0.893,0.071,0.454,-8.26,-16.695,-23.03,
50542640,-0.801,0.055,0.485,-3.045,-14.735,-22.925,
50542650,-0.824,0.02,0.456,-13.422,-9.695,-11.48,
50542660,-0.848,-0.085,0.372,-13.842,-5.355,-6.317,
50542670,-0.871,-0.058,0.357,-5.32,-2.327,0.21,
50542670,-0.959,-0.029,0.341,-3.622,-0.455,3.15,
50542690,-0.978,0,0.341,-1.522,-3.027,3.36,
50542690,-1.036,0.049,0.386,0.017,-6.282,1.155,
50542710,-1.09,0.043,0.422,-3.255,-10.22,-5.355,
50542710,-1.057,0.026,0.413,-6.982,-14.98,-14.175,
50542730,-1.009,0.018,0.418,-9.502,-19.862,-20.352,
50542730,-0.911,0.044,0.449,-11.287,-21.997,-23.415,
50542750,-0.914,0.059,0.468,-14.42,-19.04,-24.027,
50542750,-0.937,0.027,0.46,-18.357,-16.625,-25.182,
50542760,-0.89,0.011,0.435,-19.127,-16.747,-26.022,
50542770,-0.94,0.012,0.435,-19.25,-17.307,-24.535,
50542780,-0.956,0.012,0.47,-18.9,-19.775,-24.185,
50542790,-1.069,-0.002,0.527,-20.597,-24.36,-27.037,
50542800,-1.132,-0.014,0.537,-20.772,-32.2,-32.917,
50542810,-1.135,0.032,0.52,-22.592,-42.21,-41.037,
50542820,-1.13,0.043,0.508,-27.527,-51.765,-49.175,
50542830,-1.087,0.013,0.506,-32.55,-62.597,-58.135,
50542840,-0.964,-0.036,0.496,-36.277,-71.242,-64.61,
50542850,-0.83,-0.077,0.473,-37.205,-75.197,-67.375,
50542860,-0.707,-0.097,0.461,-36.907,-70.542,-66.202,
50542870,-0.716,-0.12,0.465,-37.905,-61.18,-61.915,
50542880,-0.746,-0.154,0.458,-37.31,-54.075,-55.65,
50542890,-0.779,-0.155,0.485,-34.895,-50.102,-49.542,
50542900,-0.857,-0.16,0.472,-35.07,-48.142,-45.57,
50542910,-0.929,-0.182,0.482,-34.212,-52.482,-42.84,
50542920,-0.871,-0.178,0.458,-35.017,-59.937,-45.062,
50542930,-0.811,-0.224,0.425,-29.575,-59.587,-38.99,
50542940,-0.91,-0.177,0.513,-28.105,-62.86,-34.352,
50542950,-0.766,-0.206,0.533,-27.055,-68.372,-30.502,
50542960,-0.644,-0.243,0.576,-27.685,-68.74,-27.02,
50542970,-0.634,-0.3,0.577,-22.26,-64.242,-19.985,
50542980,-0.657,-0.244,0.585,-14.28,-56.682,-20.615,
50542990,-0.701,-0.195,0.601,-10.832,-49.385,-21.857,
50543000,-0.753,-0.19,0.585,-10.832,-44.152,-21.822,
50543010,-0.831,-0.175,0.585,-12.635,-41.3,-22.067,
50543020,-0.928,-0.186,0.569,-12.145,-42.507,-22.33,
50543030,-0.986,-0.182,0.562,-13.247,-48.265,-23.712,
50543040,-0.933,-0.176,0.522,-15.977,-56.77,-25.637,
50543050,-0.783,-0.165,0.574,-16.117,-61.932,-25.375,
50543060,-0.714,-0.222,0.624,-21.507,-60.567,-23.695,
50543070,-0.593,-0.237,0.641,-24.062,-56.682,-24.605,
50543080,-0.698,-0.288,0.791,-23.415,-50.855,-22.207,
50543080,-0.674,-0.34,0.777,-24.867,-51.747,-28.42,
50543100,-0.638,-0.294,0.726,-22.05,-55.37,-32.112,
50543100,-0.642,-0.195,0.709,-18.077,-54.127,-28.56,
50543120,-0.688,-0.215,0.712,-19.25,-49.35,-28.245,
50543120,-0.793,-0.297,0.685,-20.912,-45.762,-33.967,
50543140,-0.826,-0.329,0.7,-19.67,-49.752,-38.815,
50543140,-0.608,-0.296,0.656,-15.505,-54.897,-38.5,
50543160,-0.488,-0.264,0.646,-10.78,-51.17,-30.467,
50543160,-0.456,-0.293,0.623,-8.155,-40.39,-21.91,
50543170,-0.354,-0.276,0.577,-5.442,-27.405,-16.415,
50543180,-0.48,-0.293,0.581,-4.917,-11.305,-10.097,
50543190,-0.596,-0.281,0.599,-7.192,0.227,-10.885,
50543200,-0.756,-0.319,0.707,-9.87,2.59,-12.005,
50543210,-0.81,-0.417,0.733,-11.077,-1.015,-16.485,
50543220,-0.744,-0.34,0.674,-6.317,-6.457,-20.282,
50543230,-0.746,-0.239,0.66,-1.785,-5.932,-18.252,
50543240,-0.795,-0.223,0.732,-3.762,-2.275,-20.335,
50543250,-0.735,-0.28,0.72,-8.295,-4.672,-24.78,
50543260,-0.685,-0.286,0.729,-12.477,-6.125,-25.707,
50543270,-0.747,-0.275,0.735,-16.275,-11.042,-24.167,
50543280,-0.749,-0.356,0.711,-17.797,-19.862,-24.36,
50543290,-0.651,-0.358,0.686,-14.14,-26.652,-25.48,
50543300,-0.727,-0.371,0.719,-9.152,-31.552,-22.05,
50543310,-0.709,-0.368,0.757,-6.142,-38.36,-25.2,
50543320,-0.715,-0.4,0.767,-6.055,-44.415,-28.542,
50543330,-0.672,-0.392,0.745,-2.712,-48.142,-32.917,
50543340,-0.556,-0.365,0.68,2.8,-49,-33.687,
50543350,-0.422,-0.314,0.658,5.827,-41.947,-33.092,
50543360,-0.428,-0.336,0.674,3.447,-29.33,-33.39,
50543370,-0.439,-0.373,0.657,1.137,-20.965,-33.862,
50543380,-0.45,-0.389,0.621,0.77,-14.28,-29.557,
50543390,-0.521,-0.377,0.641,3.027,-6.947,-23.625,
50543400,-0.621,-0.358,0.658,1.96,-4.55,-20.755,
50543410,-0.608,-0.33,0.688,-0.315,-3.64,-21.752,
50543420,-0.654,-0.348,0.737,-2.975,-2.887,-21.052,
50543420,-0.591,-0.372,0.655,-5.6,-3.29,-21.63,
50543440,-0.59,-0.359,0.682,-3.43,6.632,-15.68,
50543440,-0.762,-0.354,0.66,-5.967,6.195,-11.952,
50543460,-0.681,-0.334,0.794,-4.025,-4.795,-9.502,
50543460,-0.823,-0.472,0.903,-5.635,-15.68,-7.98,
50543480,-0.264,-0.41,0.62,-4.742,-25.165,-14.017,
50543480,-0.549,-0.25,0.746,1.382,-2.1,-0.595,
50543500,-1.117,-0.388,0.955,-14.315,-15.907,-12.6,
50543500,-0.509,-0.579,0.753,-12.32,-46.2,-29.89,
50543510,-0.326,-0.323,0.753,6.65,-47.285,-25.025,
50543520,-0.637,-0.166,0.836,6.107,-36.837,-16.712,
50543530,-0.663,-0.3,0.816,-8.032,-37.327,-28.437,
50543540,-0.564,-0.381,0.787,-16.782,-45.745,-35.122,
50543550,-0.449,-0.383,0.761,-11.2,-50.207,-27.72,
50543560,-0.367,-0.325,0.586,-3.167,-49.332,-18.34,
50543570,-0.176,-0.118,0.502,7.455,-44.975,-10.342,
50543580,-0.022,0.034,0.856,13.79,-12.442,-1.872,
50543590,-0.97,-0.669,1.455,-23.695,25.427,-8.05,
50543600,-0.717,-1.2,0.677,-53.812,-6.475,-42.525,
50543610,0.237,-0.53,0.462,-8.067,-30.17,-22.837,
50543620,-0.203,-0.124,0.738,12.897,2.73,10.132,
50543630,-0.682,-0.36,0.754,-18.865,20.3,-6.982,
50543640,-0.426,-0.661,0.606,-32.655,11.83,-31.307,
50543650,-0.32,-0.578,0.617,-19.005,13.685,-25.655,
50543660,-0.562,-0.444,0.755,-10.885,19.53,-7.892,
50543670,-0.643,-0.4,0.69,-11.375,14.49,-7.805,
50543680,-0.42,-0.402,0.697,-13.16,13.405,-11.812,
50543690,-0.491,-0.39,0.584,-6.772,23.065,-9.975,
50543700,-0.732,-0.467,0.831,0.805,26.967,2.03,
50543710,-0.667,-0.473,0.728,1.837,11.445,-1.907,
50543720,-0.432,-0.452,0.739,6.86,4.042,1.085,
50543730,-0.327,-0.39,0.802,7.717,11.182,2.205,
50543740,-0.266,-0.42,0.701,4.27,19.46,5.46,
50543750,-0.132,-0.531,0.802,4.322,32.41,6.58,
50543760,-0.128,-0.566,0.594,6.79,45.395,15.592,
50543770,-0.167,-0.573,0.616,14.332,59.832,23.222,
50543780,-0.267,-0.586,0.525,22.295,70.945,28.665,
50543790,-0.434,-0.604,0.518,28.262,78.627,33.215,
50543800,-0.491,-0.575,0.566,36.085,82.652,27.387,
50543810,-0.526,-0.48,0.544,42.805,85.785,26.967,
50543820,-0.721,-0.369,0.621,47.39,89.372,28.647,
50543830,-0.874,-0.392,0.61,49.595,83.02,40.565,
50543830,-0.723,-0.279,0.663,62.387,70.105,50.207,
50543840,-0.865,-0.229,0.663,57.032,71.435,40.46,
50543850,-0.86,-0.249,0.642,52.185,64.085,38.762,
50543860,-0.733,-0.225,0.604,50.26,55.142,41.072,
50543870,-0.699,-0.261,0.496,48.615,56.035,46.55,
50543880,-0.589,-0.247,0.466,52.937,67.13,50.33,
50543890,-1.083,-0.246,0.365,40.967,72.205,65.117,
50543900,-1.352,-0.204,0.776,21.315,40.827,55.44,
50543910,-0.967,-0.336,1.102,22.645,17.255,28.962,
50543920,-1.292,-0.261,1.18,32.375,5.215,13.545,
50543930,-1.008,-0.014,1.088,24.045,-20.195,-3.57,
50543940,-0.671,-0.013,0.984,12.827,-25.235,-22.347,
50543950,-0.626,-0.106,0.86,-2.45,-13.09,-27.58,
50543960,-0.673,-0.15,0.811,-7.525,-3.552,-26.442,
50543970,-0.727,-0.179,0.813,-13.79,1.995,-29.207,
50543980,-0.774,-0.284,0.759,-24.605,5.25,-35.017,
50543990,-0.764,-0.333,0.712,-27.335,4.812,-41.545,
50544000,-0.714,-0.322,0.693,-25.445,0.805,-45.71,
50544010,-0.633,-0.331,0.651,-25.497,-4.97,-45.412,
50544020,-0.58,-0.397,0.623,-25.252,-6.685,-42.192,
50544030,-0.631,-0.49,0.646,-22.225,-2.275,-40.25,
50544040,-0.759,-0.542,0.668,-16.992,3.745,-42.315,
50544050,-0.836,-0.501,0.684,-8.785,3.745,-47.005,
50544060,-0.879,-0.459,0.646,-3.15,-1.75,-51.537,
50544070,-0.922,-0.491,0.673,0.367,-9.975,-57.592,
50544080,-0.926,-0.482,0.635,6.387,-24.045,-65.625,
50544090,-0.86,-0.506,0.597,12.022,-43.347,-63.98,
50544100,-0.874,-0.616,0.586,20.16,-62.002,-51.065,
50544110,-0.918,-0.75,0.535,34.16,-94.937,-47.127,
50544120,-0.408,-0.701,0.519,52.815,-108.797,-47.582,
50544130,-0.448,-0.528,0.503,60.13,-100.66,-31.202,
50544140,-0.419,-0.587,0.4,50.33,-81.69,-13.562,
50544150,-0.153,-0.807,0.369,55.125,-39.13,4.375,
50544160,-0.482,-0.81,0.268,78.61,3.517,34.562,
50544170,-0.411,-0.74,0.386,105.262,25.025,55.072,
50544170,-0.329,-0.642,0.366,128.572,55.177,78.172,
50544190,-0.477,-0.45,0.401,159.145,89.127,103.74,
50544190,-0.63,-0.302,0.455,173.687,110.652,116.725,
50544210,-0.684,-0.172,0.468,169.33,112.28,115.062,
50544210,-0.694,-0.103,0.47,151.287,100.152,106.312,
50544230,-0.673,-0.071,0.449,127.435,81.672,94.675,
50544230,-0.644,-0.015,0.467,105.472,60.672,81.637,
50544250,-0.614,0.067,0.527,81.585,38.605,68.862,
50544250,-0.604,0.118,0.564,53.55,17.377,57.015,
50544260,-0.555,0.101,0.547,28.56,0.507,44.17,
50544270,-0.46,0.061,0.515,13.3,-6.16,31.885,
50544280,-0.405,0.072,0.524,7.297,-1.645,22.89,
50544290,-0.396,0.121,0.551,6.195,10.692,17.92,
50544300,-0.454,0.134,0.614,4.392,25.27,13.772,
50544310,-0.545,0.126,0.649,0.892,34.947,5.477,
50544320,-0.613,0.113,0.685,-2.065,38.762,-2.695,
50544330,-0.7,0.109,0.747,-5.337,38.587,-6.86,
50544340,-0.798,0.085,0.812,-9.852,33.67,-10.727,
50544350,-0.849,0.061,0.871,-14.927,25.042,-15.102,
50544360,-0.88,-0.039,0.844,-19.897,14.577,-15.767,
50544370,-1.098,-0.185,0.848,-6.142,-1.96,7.63,
50544380,-0.928,0.002,0.916,12.512,-20.895,1.54,
50544390,-0.828,0.097,0.961,8.575,-28.087,-17.08,
50544400,-0.847,0.045,0.929,-4.602,-26.547,-18.34,
50544410,-0.752,0.011,0.93,-12.915,-21.77,-15.172,
50544420,-0.741,-0.026,0.898,-15.47,-14.175,12.477,
50544430,-0.836,-0.115,0.884,6.562,-7.227,35.472,
50544440,-0.864,-0.034,0.895,26.39,2.695,39.165,
50544450,-0.829,0.013,0.872,23.747,14.21,32.06,
50544460,-0.818,0.028,0.817,25.707,24.692,27.965,
50544470,-0.805,0.05,0.79,34.842,31.64,21.7,
50544480,-0.843,0.092,0.753,37.45,32.2,17.92,
50544490,-0.844,0.115,0.709,33.88,25.497,19.11,
50544500,-0.832,0.125,0.652,30.852,16.327,25.27,
50544510,-0.856,0.111,0.639,31.832,5.162,33.74,
50544520,-0.881,0.144,0.678,29.417,-7.35,37.712,
50544530,-0.886,0.201,0.738,18.252,-22.085,37.625,
50544530,-0.897,0.248,0.798,-3.955,-39.322,38.972,
50544550,-0.868,0.218,0.771,-35.525,-60.095,41.965,
50544550,-0.76,0.16,0.751,-62.475,-75.022,43.05,
50544570,-0.666,0.132,0.719,-86.59,-81.847,46.392,
50544570,-0.626,0.072,0.654,-106.732,-81.445,53.637,
50544580,-0.626,-0.014,0.621,-115.325,-71.697,59.01,
50544590,-0.673,-0.105,0.563,-119.245,-57.855,57.4,
50544600,-0.695,-0.12,0.598,-113.89,-45.36,42.962,
50544610,-0.733,-0.102,0.621,-111.545,-37.275,26.88,
50544620,-0.753,-0.118,0.671,-106.312,-38.482,8.225,
50544630,-0.8,-0.14,0.664,-107.292,-48.23,-7.717,
50544640,-0.834,-0.199,0.671,-104.965,-68.04,-19.967,
50544650,-0.805,-0.225,0.651,-101.482,-92.662,-23.187,
50544660,-0.705,-0.263,0.643,-92.907,-113.19,-20.335,
50544670,-0.614,-0.311,0.648,-79.065,-124.127,-16.555,
50544680,-0.528,-0.29,0.699,-64.82,-126.927,-22.382,
50544690,-0.418,-0.336,0.724,-54.652,-125.545,-20.615,
50544700,-0.006,-0.481,0.755,-37.135,-101.745,-11.917,
50544710,-0.057,-0.524,0.783,-2.572,-36.487,8.855,
50544720,-0.529,-0.338,0.907,37.38,9.065,27.02,
50544730,-0.732,-0.223,1.009,47.512,8.627,29.242,
50544740,-0.702,-0.254,0.996,42.07,-9.677,24.447,
50544750,-0.605,-0.271,0.961,45.272,-31.5,20.597,
50544760,-0.438,-0.189,0.945,45.062,-35.927,17.027,
50544770,-0.484,-0.135,0.943,38.745,-29.872,14.175,
50544780,-0.499,-0.175,0.909,31.78,-23.94,8.767,
50544790,-0.487,-0.21,0.874,28.927,-21.787,3.99,
50544800,-0.483,-0.185,0.855,29.767,-20.37,5.53,
50544810,-0.512,-0.163,0.837,30.502,-18.865,6.072,
50544820,-0.491,-0.16,0.852,34.825,-15.33,4.497,
50544830,-0.494,-0.148,0.857,39.112,-8.68,4.672,
50544840,-0.519,-0.125,0.863,41.615,0.035,2.415,
50544850,-0.552,-0.104,0.858,41.72,7.507,-2.135,
50544860,-0.576,-0.098,0.846,40.74,12.512,-7.542,
50544870,-0.596,-0.111,0.838,41.737,14.052,-9.922,
50544880,-0.556,-0.04,0.859,41.16,15.89,-13.772,
50544890,-0.596,-0.032,0.842,36.61,18.375,-14.84,
50544900,-0.595,-0.023,0.818,33.145,20.72,-17.587,
50544910,-0.563,-0.032,0.789,31.395,23.362,-21.297,
50544920,-0.543,-0.029,0.77,34.755,26.67,-17.727,
50544920,-0.555,-0.023,0.753,40.985,29.015,-8.995,
50544940,-0.566,-0.006,0.739,48.632,30.957,-0.7,
50544940,-0.545,0.008,0.74,55.335,32.235,4.725,
50544960,-0.523,0.026,0.738,60.567,35.525,8.33,
50544960,-0.525,0.082,0.772,63.105,41.317,11.287,
50544980,-0.627,0.09,0.779,60.882,43.505,13.685,
50544980,-0.579,0.101,0.748,52.395,39.147,9.24,
50545000,-0.515,0.106,0.733,46.375,42.7,7.175,
50545000,-0.627,0.088,0.743,45.587,48.597,7.14,
50545010,-0.694,0.111,0.739,40.057,44.905,4.83,
50545020,-0.658,0.102,0.721,36.032,35.822,3.99,
50545030,-0.66,0.08,0.719,38.237,28.717,9.52,
50545040,-0.671,0.095,0.725,41.002,24.832,13.65,
50545050,-0.664,0.11,0.736,42.927,23.887,13.3,
50545060,-0.645,0.137,0.756,42.367,27.09,10.097,
50545070,-0.681,0.168,0.787,37.082,31.062,5.897,
50545080,-0.693,0.177,0.787,27.79,32.55,1.155,
50545090,-0.686,0.175,0.777,17.692,35.35,-3.972,
50545100,-0.77,0.162,0.768,4.392,35.857,-9.24,
50545110,-0.789,0.13,0.748,-8.732,28.332,-14.472,
50545120,-0.743,0.097,0.723,-17.395,19.372,-15.767,
50545130,-0.729,0.095,0.717,-24.395,11.987,-14.367,
50545140,-0.696,0.1,0.719,-32.69,5.967,-13.562,
50545150,-0.647,0.078,0.713,-40.162,2.87,-11.602,
50545160,-0.63,0.06,0.704,-45.027,4.515,-7.21,
50545170,-0.634,0.045,0.691,-48.387,8.697,-2.362,
50545180,-0.67,0.002,0.674,-50.26,14.98,1.172,
50545190,-0.712,-0.035,0.659,-48.002,19.372,1.61,
50545200,-0.695,-0.036,0.658,-43.487,22.365,1.592,
50545210,-0.698,-0.042,0.654,-39.515,25.392,1.697,
50545220,-0.723,-0.037,0.65,-35.262,29.067,-0.052,
50545230,-0.709,-0.027,0.65,-32.62,31.552,-2.117,
50545240,-0.726,-0.045,0.631,-34.23,33.932,-2.327,
50545250,-0.739,-0.064,0.608,-32.742,35.367,-3.745,
50545260,-0.733,-0.05,0.615,-30.292,35.21,-4.637,
50545260,-0.733,-0.059,0.598,-28.192,33.757,-3.027,
50545280,-0.709,-0.07,0.587,-25.375,33.425,-2.047,
50545280,-0.691,-0.079,0.575,-22.715,35.735,-2.87,
50545300,-0.653,-0.093,0.565,-19.162,42,-3.78,
50545300,-0.602,-0.102,0.561,-13.125,52.22,-2.362,
50545320,-0.687,-0.088,0.581,-8.19,65.31,1.417,
50545320,-0.849,-0.092,0.636,-6.527,70.63,1.207,
50545330,-0.943,-0.089,0.653,-9.817,61.845,-5.355,
50545340,-0.914,-0.055,0.641,-12.582,41.405,-12.477,
50545350,-0.889,-0.017,0.656,-13.212,21.98,-15.067,
50545360,-0.887,-0.076,0.639,-11.55,6.615,-13.212,
50545370,-0.782,-0.121,0.638,-7.787,-4.182,-13.965,
50545380,-0.73,-0.152,0.62,-5.075,-6.842,-12.092,
50545390,-0.666,-0.091,0.662,1.05,1.872,-8.575,
50545400,-0.827,-0.074,0.676,2.957,10.22,-3.412,
50545410,-0.842,-0.109,0.649,-2.642,11.48,-3.552,
50545420,-0.792,-0.14,0.616,-3.587,13.23,-3.657,
50545430,-0.817,-0.118,0.626,-2.047,17.097,-2.8,
50545440,-0.892,-0.098,0.623,-4.2,15.995,-3.71,
50545450,-0.895,-0.11,0.615,-5.81,8.89,-5.705,
50545460,-0.915,-0.12,0.621,-4.182,-2.205,-6.195,
50545470,-0.852,-0.105,0.606,-1.505,-16.712,-5.32,
50545480,-0.742,-0.081,0.607,3.43,-23.502,-1.4,
50545490,-0.707,-0.076,0.605,6.72,-21.227,2.222,
50545500,-0.71,-0.06,0.611,6.685,-14.7,1.225,
50545510,-0.654,-0.082,0.625,5.355,-5.635,0.017,
50545520,-0.69,-0.104,0.659,6.632,9.415,5.18,
50545530,-0.872,-0.127,0.647,10.78,14.98,16.047,
50545540,-0.826,-0.085,0.665,16.677,10.255,13.16,
50545550,-0.798,-0.063,0.671,17.43,6.772,10.535,
50545560,-0.823,-0.053,0.681,18.672,5.477,8.417,
50545570,-0.853,-0.048,0.685,19.582,2.485,6.44,
50545580,-0.901,-0.048,0.67,18.165,-4.287,3.22,
50545590,-0.9,-0.047,0.663,17.412,-15.032,-0.805,
50545600,-0.86,-0.031,0.677,17.22,-26.862,-4.62,
50545610,-0.853,0.004,0.695,13.947,-37.047,-7.07,
50545620,-0.836,0.012,0.684,7.192,-45.762,-5.722,
50545630,-0.727,-0.001,0.66,-0.315,-49.56,-5.442,
50545640,-0.661,0.003,0.636,-7.507,-42.647,-8.872,
50545650,-0.568,-0.033,0.592,-13.457,-26.897,-12.215,
50545660,-0.576,-0.039,0.592,-14.21,-4.69,-11.305,
50545670,-0.725,-0.007,0.598,-16.502,8.785,-9.152,
50545670,-0.735,-0.029,0.582,-20.842,9.205,-7.717,
50545690,-0.765,-0.169,0.549,-12.39,3.377,4.882,
50545690,-0.736,-0.065,0.63,5.267,0.84,8.697,
50545710,-0.734,0.008,0.685,2.905,3.587,8.207,
50545710,-0.834,-0.007,0.691,1.155,6.947,4.812,
50545730,-0.794,-0.034,0.678,-2.625,5.075,1.855,
50545730,-0.761,-0.038,0.669,-6.335,6.877,1.627,
50545750,-0.769,-0.037,0.703,-6.44,12.232,2.135,
50545750,-0.829,-0.081,0.664,-6.51,16.38,3.675,
50545760,-0.89,-0.067,0.648,-3.307,12.407,5.127,
50545770,-0.842,-0.042,0.628,-1.4,3.097,5.845,
50545780,-0.782,-0.039,0.602,-1.785,-1.452,5.215,
50545790,-0.771,-0.057,0.575,-0.525,-1.575,4.76,
50545800,-0.743,-0.056,0.577,1.172,0.647,5.092,
50545810,-0.739,-0.051,0.583,4.305,2.152,6.895,
50545820,-0.715,-0.033,0.6,6.072,4.952,8.417,
50545830,-0.71,-0.023,0.598,5.022,8.715,9.1,
50545840,-0.7,-0.031,0.599,3.167,14,9.17,
50545850,-0.713,-0.032,0.608,1.382,19.775,9.327,
50545860,-0.738,-0.025,0.585,0.105,25.305,8.75,
50545870,-0.755,-0.015,0.65,0,30.292,7.455,
50545880,-0.907,-0.059,0.708,-2.695,30.397,6.317,
50545890,-0.934,-0.107,0.721,-0.63,21.472,2.485,
50545900,-0.888,-0.081,0.74,4.672,7.927,2.432,
50545910,-0.746,-0.051,0.698,4.025,3.727,3.22,
50545920,-0.834,-0.051,0.661,0.017,12.302,3.57,
50545930,-0.923,-0.057,0.628,-1.645,9.222,-0.857,
50545940,-0.825,-0.072,0.61,-1.33,0.472,-5.635,
50545950,-0.799,-0.057,0.623,-1.697,-3.5,-5.792,
50545960,-0.822,-0.041,0.58,-5.197,-6.247,-3.395,
50545970,-0.841,-0.018,0.583,-10.5,-9.59,-3.15,
50545980,-0.854,-0.04,0.581,-15.452,-13.09,-4.305,
50545990,-0.863,-0.061,0.586,-15.662,-16.17,-5.81,
50546000,-0.886,-0.051,0.611,-13.807,-18.357,-6.702,
50546010,-0.874,-0.033,0.628,-12.687,-19.582,-8.855,
50546010,-0.836,-0.022,0.645,-12.215,-18.06,-11.515,
50546030,-0.785,-0.014,0.651,-12.18,-13.667,-13.387,
50546030,-0.766,0.013,0.672,-13.177,-7.087,-13.737,
50546050,-0.847,0.027,0.666,-16.187,-3.185,-14.875,
50546050,-0.839,0.05,0.663,-22.365,-2.257,-20.422,
50546070,-0.845,0.04,0.691,-31.85,-1.855,-27.247,
50546070,-0.829,-0.02,0.684,-38.71,0.402,-34.37,
50546080,-0.894,-0.06,0.656,-40.442,0.21,-38.815,
50546090,-0.899,-0.056,0.651,-40.04,-3.675,-41.3,
50546100,-0.936,-0.056,0.645,-40.425,-9.135,-43.102,
50546110,-0.957,-0.063,0.638,-42.857,-16.642,-46.532,
50546120,-0.905,-0.074,0.614,-45.237,-25.865,-49.805,
50546130,-0.916,-0.118,0.644,-45.92,-35.647,-42.822,
50546140,-0.895,-0.11,0.648,-53.427,-44.922,-29.207,
50546150,-0.791,-0.116,0.582,-59.71,-53.707,-24.29,
50546160,-0.68,-0.144,0.563,-58.66,-56.437,-23.432,
50546170,-0.626,-0.174,0.562,-56.77,-55.405,-21.805,
50546180,-0.544,-0.21,0.558,-56.052,-53.06,-16.712,
50546190,-0.545,-0.254,0.538,-54.442,-49.927,-9.59,
50546200,-0.586,-0.276,0.539,-50.085,-46.27,-4.585,
50546210,-0.537,-0.269,0.546,-46.48,-41.685,-5.425,
50546220,-0.517,-0.238,0.544,-45.115,-32.532,-6.195,
50546230,-0.668,-0.276,0.473,-41.335,-25.112,-3.71,
50546240,-0.769,-0.186,0.598,-36.487,-26.565,-5.04,
50546250,-0.717,-0.217,0.631,-33.512,-27.772,-8.067,
50546260,-0.83,-0.262,0.787,-29.872,-26.617,-10.255,
50546270,-0.979,-0.357,0.896,-29.452,-33.127,-9.642,
50546280,-0.943,-0.392,0.864,-26.477,-50.662,-11.462,
50546290,-0.808,-0.302,0.805,-23.695,-70.105,-10.937,
50546300,-0.702,-0.221,0.71,-23.625,-81.252,-10.22,
50546310,-0.586,-0.179,0.702,-25.497,-81.2,-14.157,
50546320,-0.458,-0.211,0.661,-27.107,-67.865,-18.847,
50546330,-0.543,-0.261,0.668,-24.395,-50.347,-19.32,
50546340,-0.577,-0.268,0.69,-20.16,-42.77,-18.007,
50546350,-0.455,-0.297,0.664,-16.187,-37.66,-12.162,
50546360,-0.426,-0.326,0.611,-12.74,-29.137,-5.18,
50546370,-0.343,-0.348,0.571,-7.192,-17.85,-0.997,
50546380,-0.337,-0.374,0.546,-0.542,-3.622,4.182,
50546390,-0.399,-0.387,0.519,5.477,6.965,11.095,
50546400,-0.417,-0.365,0.571,13.72,12.162,20.37,
50546410,-0.454,-0.351,0.659,19.705,18.602,29.085,
50546420,-0.686,-0.474,0.688,27.982,22.4,46.707,
50546420,-0.614,-0.271,0.745,38.885,18.672,43.155,
50546440,-0.668,-0.223,0.737,38.255,20.93,39.095,
50546440,-0.682,-0.197,0.749,37.1,25.795,32.077,
50546460,-0.679,-0.136,0.746,31.5,28.052,25.725,
50546460,-0.688,-0.123,0.73,26.985,32.042,24.202,
50546480,-0.852,-0.082,0.732,18.585,37.502,24.132,
50546480,-0.996,-0.068,0.766,12.512,33.88,18.515,
50546500,-0.966,-0.02,0.825,5.005,23.695,10.412,
50546500,-0.963,-0.058,0.865,-1.995,16.065,2.922,
50546510,-1.009,-0.068,0.892,-5.477,7.665,1.522,
50546520,-0.882,-0.042,0.864,-13.947,-2.082,-8.505,
50546530,-0.812,-0.114,0.817,-21.455,-6.142,-17.36,
50546540,-0.719,-0.169,0.781,-26.057,-10.412,-22.05,
50546550,-0.565,-0.216,0.745,-26.39,-11.217,-22.19,
50546560,-0.562,-0.257,0.685,-24.08,-7.84,-15.767,
50546570,-0.616,-0.327,0.608,-19.565,-9.957,-5.495,
50546580,-0.596,-0.36,0.539,-14.787,-14.542,-0.122,
50546590,-0.556,-0.378,0.48,-8.26,-16.03,2.642,
50546600,-0.543,-0.353,0.508,2.432,-14.945,6.947,
50546610,-0.585,-0.322,0.52,7.91,-14.157,13.527,
50546620,-0.634,-0.314,0.57,9.45,-11.357,20.055,
50546630,-0.717,-0.299,0.665,11.742,-12.407,23.94,
50546640,-0.766,-0.249,0.717,11.357,-20.772,26.53,
50546650,-0.897,-0.045,0.535,6.825,-29.032,25.077,
50546660,-0.6,-0.334,0.551,-15.977,-57.155,18.497,
50546670,-0.393,-0.376,1.005,13.37,-32.042,38.307,
50546680,-0.744,-0.014,1.013,13.545,-27.545,43.522,
50546690,-0.674,-0.228,0.791,-0.262,-26.687,28.297,
50546700,-0.592,-0.187,0.726,7.087,-27.895,20.545,
50546710,-0.592,0.003,0.723,15.067,-20.58,24.342,
50546720,-0.726,-0.11,0.711,8.557,-9.992,20.352,
50546730,-0.792,-0.199,0.743,10.43,-13.387,14.857,
50546740,-0.732,-0.141,0.818,12.74,-17.797,11.462,
50546750,-0.795,-0.162,0.843,8.697,-17.027,6.265,
50546760,-0.807,-0.157,0.866,5.582,-18.795,-1.505,
50546760,-0.72,-0.141,0.853,1.452,-21.682,-9.537,
50546780,-0.656,-0.144,0.835,-2.852,-19.215,-13.877,
50546780,-0.599,-0.123,0.826,-5.512,-11.672,-16.712,
50546800,-0.556,-0.115,0.825,-8.295,-0.227,-17.535,
50546800,-0.615,-0.136,0.816,-12.127,5.827,-16.572,
50546820,-0.593,-0.162,0.819,-14.752,7.122,-15.277,
50546820,-0.617,-0.183,0.813,-16.257,10.622,-14.455,
50546830,-0.706,-0.195,0.787,-17.535,11.637,-14.385,
50546840,-0.742,-0.182,0.756,-19.145,6.475,-16.345,
50546850,-0.719,-0.183,0.743,-23.222,1.225,-19.407,
50546860,-0.68,-0.2,0.768,-27.737,-1.89,-21.455,
50546870,-0.651,-0.213,0.821,-31.535,-3.57,-21.455,
50546880,-0.598,-0.231,0.894,-35.227,-2.572,-21.507,
50546890,-0.565,-0.267,0.932,-38.43,2.8,-22.732,
50546900,-0.522,-0.279,0.955,-38.202,14.262,-23.082,
50546910,-0.549,-0.264,0.949,-35.927,30.45,-21.402,
50546920,-0.657,-0.25,0.933,-34.842,45.972,-21.245,
50546930,-0.876,-0.274,0.918,-35.367,49.035,-24.29,
50546940,-1.038,-0.36,0.85,-39.06,31.605,-30.922,
50546950,-0.948,-0.474,0.812,-40.565,6.755,-35.402,
50546960,-0.844,-0.506,0.72,-38.167,-11.987,-41.335,
50546970,-0.716,-0.454,0.513,-27.527,-28.682,-36.627,
50546980,-0.233,-0.549,0.488,-14.875,-21.77,-10.062,
50546990,-0.042,-0.77,0.406,19.04,44.677,28.612,
50547000,-0.481,-0.619,0.548,80.447,125.265,55.475,
50547010,-0.916,-0.434,0.662,123.025,167.912,73.395,
50547020,-1.149,-0.391,0.715,143.36,166.302,86.73,
50547030,-1.181,-0.427,0.71,158.34,132.982,100.065,
50547040,-1.053,-0.464,0.679,182.052,93.94,116.987,
50547050,-0.921,-0.342,0.726,210.542,67.55,128.607,
50547060,-0.89,-0.133,0.776,219.642,52.132,130.357,
50547070,-0.9,0.011,0.798,204.417,38.29,123.112,
50547080,-0.9,0.063,0.782,180.005,23.082,110.512,
50547090,-0.956,0.063,0.76,156.012,2.887,97.002,
50547100,-1.012,0.079,0.726,132.877,-26.512,82.967,
50547110,-0.985,0.118,0.678,112.017,-65.677,67.585,
50547120,-0.889,0.152,0.631,95.637,-106.662,51.502,
50547130,-0.759,0.174,0.593,83.72,-142.52,36.05,
50547140,-0.599,0.186,0.553,74.742,-164.622,21.927,
50547150,-0.445,0.212,0.533,68.582,-170.817,8.872,
50547160,-0.333,0.244,0.527,60.532,-162.19,-2.152,
50547170,-0.274,0.258,0.532,50.802,-142.327,-11.9,
50547170,-0.264,0.283,0.544,40.687,-114.905,-20.86,
50547190,-0.288,0.292,0.545,29.54,-86.66,-27.282,
50547190,-0.344,0.276,0.537,19.407,-62.492,-32.025,
50547210,-0.408,0.261,0.522,12.39,-44.257,-36.102,
50547210,-0.466,0.248,0.52,10.972,-32.725,-36.942,
50547230,-0.503,0.239,0.527,12.267,-26.512,-35.175,
50547230,-0.512,0.262,0.542,12.46,-23.135,-34.492,
50547240,-0.54,0.262,0.56,13.807,-21.14,-34.317,
50547250,-0.565,0.262,0.577,13.125,-20.072,-34.737,
50547260,-0.569,0.278,0.583,8.19,-18.952,-37.152,
50547270,-0.589,0.258,0.613,3.325,-18.305,-39.707,
50547280,-0.593,0.28,0.635,-4.497,-17.202,-43.942,
50547290,-0.594,0.298,0.659,-14.017,-16.747,-47.775,
50547300,-0.6,0.303,0.678,-26.145,-15.382,-49.682,
50547310,-0.599,0.307,0.663,-40.25,-15.032,-51.205,
50547320,-0.604,0.27,0.639,-50.557,-15.365,-49.962,
50547330,-0.582,0.245,0.599,-58.607,-14.437,-46.27,
50547340,-0.567,0.199,0.583,-61.897,-11.41,-41.842,
50547350,-0.573,0.184,0.58,-62.37,-7.087,-36.225,
50547360,-0.587,0.185,0.584,-65.24,-2.975,-31.675,
50547370,-0.604,0.158,0.603,-67.34,-0.315,-27.44,
50547380,-0.609,0.135,0.633,-68.407,3.202,-22.662,
50547390,-0.64,0.113,0.652,-69.247,5.215,-18.025,
50547400,-0.657,0.095,0.678,-69.912,6.387,-15.785,
50547410,-0.66,0.082,0.699,-71.452,6.58,-15.137,
50547420,-0.675,0.063,0.705,-75.092,5.845,-15.26,
50547430,-0.673,0.042,0.722,-80.29,3.517,-16.537,
50547440,-0.676,-0.002,0.7,-87.937,0.122,-16.52,
50547450,-0.662,-0.069,0.684,-90.09,-4.62,-14.91,
50547460,-0.643,-0.124,0.67,-85.68,-7.437,-11.515,
50547470,-0.614,-0.152,0.692,-79.187,-8.417,-6.405,
50547480,-0.602,-0.158,0.699,-77.385,-6.195,2.537,
50547490,-0.603,-0.196,0.72,-72.992,-3.15,8.26,
50547500,-0.624,-0.192,0.763,-69.51,0.297,9.38,
50547510,-0.677,-0.211,0.8,-71.015,-0.28,10.622,
50547510,-0.69,-0.238,0.814,-73.517,-5.197,7.84,
50547530,-0.677,-0.225,0.83,-76.947,-11.427,3.43,
50547530,-0.699,-0.298,0.809,-77.315,-19.705,1.557,
50547550,-0.641,-0.289,0.827,-72.345,-28.647,-4.427,
50547550,-0.595,-0.269,0.824,-71.557,-36.172,-9.257,
50547570,-0.562,-0.314,0.809,-67.777,-42.21,-10.43,
50547570,-0.501,-0.322,0.821,-63.577,-44.695,-11.007,
50547580,-0.486,-0.356,0.807,-60.812,-44.03,-11.007,
50547590,-0.48,-0.36,0.832,-54.6,-41.51,-12.95,
50547600,-0.498,-0.401,0.837,-47.442,-40.635,-14.297,
50547610,-0.521,-0.428,0.881,-37.94,-39.41,-14.385,
50547620,-0.586,-0.409,0.893,-37.222,-39.725,-14.77,
50547630,-0.635,-0.42,0.873,-37.8,-46.777,-21.437,
50547640,-0.621,-0.421,0.871,-32.865,-57.61,-28.577,
50547650,-0.595,-0.4,0.863,-36.032,-67.567,-32.83,
50547660,-0.579,-0.424,0.835,-39.305,-75.74,-37.24,
50547670,-0.532,-0.447,0.813,-38.552,-81.585,-38.342,
50547680,-0.442,-0.446,0.794,-37.467,-81.777,-35.07,
50547690,-0.191,-0.459,0.912,-36.995,-66.132,-28.437,
50547700,0.105,-0.678,0.857,-37.432,-8.942,-6.842,
50547710,-0.379,-0.728,0.905,-10.797,62.545,22.995,
50547720,-0.881,-0.468,0.991,13.632,83.562,37.835,
50547730,-1.031,-0.377,0.942,8.592,49.437,43.085,
50547740,-0.775,-0.427,0.87,7.227,10.535,28.612,
50547750,-0.599,-0.405,0.794,6.16,-9.607,16.66,
50547760,-0.566,-0.35,0.79,7.192,-13.16,13.807,
50547770,-0.573,-0.307,0.786,5.11,-14.192,10.587,
50547780,-0.536,-0.306,0.767,2.59,-15.557,5.565,
50547790,-0.54,-0.317,0.759,2.835,-15.82,3.902,
50547800,-0.549,-0.287,0.777,3.85,-14.822,2.082,
50547810,-0.587,-0.278,0.795,2.87,-15.155,0.385,
50547820,-0.612,-0.305,0.785,1.4,-18.147,-0.98,
50547830,-0.632,-0.326,0.777,2.345,-23.555,-0.875,
50547840,-0.669,-0.347,0.772,4.585,-30.047,1.487,
50547850,-0.685,-0.356,0.768,8.505,-38.832,4.672,
50547860,-0.66,-0.343,0.771,13.965,-47.88,8.225,
50547870,-0.539,-0.318,0.767,19.057,-52.517,12.355,
50547880,-0.411,-0.274,0.781,22.627,-43.697,19.39,
50547890,-0.355,-0.287,0.769,25.322,-23.835,29.592,
50547900,-0.321,-0.22,0.796,31.78,0.7,42.507,
50547910,-0.344,-0.137,0.805,32.497,25.235,54.705,
50547920,-0.376,-0.088,0.795,28.927,47.705,60.602,
50547920,-0.415,-0.068,0.795,22.417,65.922,62.755,
50547930,-0.458,-0.033,0.781,13.247,78.347,64.015,
50547940,-0.546,-0.028,0.769,6.65,81.62,64.872,
50547950,-0.615,-0.042,0.756,2.642,76.807,64.575,
50547960,-0.628,-0.035,0.774,1.26,68.372,62.982,
50547970,-0.608,-0.014,0.78,-1.435,59.692,61.232,
50547980,-0.611,-0.014,0.8,-3.99,54.512,59.64,
50547990,-0.641,-0.002,0.816,-9.45,50.12,55.825,
50548000,-0.683,-0.043,0.806,-17.115,41.877,50.942,
50548010,-0.676,-0.035,0.801,-25.217,29.697,45.045,
50548020,-0.642,-0.068,0.764,-33.53,16.765,43.732,
50548030,-0.569,-0.121,0.75,-32.742,8.75,45.29,
50548040,-0.535,-0.126,0.77,-29.365,9.24,45.027,
50548050,-0.574,-0.118,0.773,-32.06,14.262,39.865,
50548060,-0.6,-0.126,0.833,-33.547,18.41,29.68,
50548070,-0.657,-0.163,0.787,-45.377,16.607,18.69,
50548080,-0.703,-0.217,0.811,-48.265,8.557,2.467,
50548090,-0.743,-0.243,0.783,-51.275,-6.335,-11.69,
50548100,-0.737,-0.256,0.788,-51.59,-27.02,-24.22,
50548110,-0.738,-0.311,0.752,-50.96,-51.1,-33.495,
50548120,-0.584,-0.369,0.771,-44.695,-72.187,-39.375,
50548130,-0.323,-0.404,0.766,-41.037,-72.695,-35.21,
50548140,-0.354,-0.343,0.831,-31.447,-44.467,-20.317,
50548150,-0.423,-0.44,0.87,-26.74,-12.075,-6.65,
50548160,-0.6,-0.445,0.902,-19.81,14.087,4.165,
50548170,-0.795,-0.414,0.907,-13.475,15.977,12.425,
50548180,-0.854,-0.405,0.878,-12.915,1.015,14.472,
50548190,-0.801,-0.4,0.87,-13.58,-17.115,10.605,
50548200,-0.793,-0.399,0.821,-17.132,-34.072,7.175,
50548210,-0.755,-0.392,0.781,-18.025,-47.302,3.202,
50548220,-0.7,-0.364,0.767,-18.48,-54.827,-3.395,
50548230,-0.695,-0.346,0.758,-18.952,-60.795,-10.202,
50548240,-0.672,-0.332,0.744,-18.812,-67.707,-16.38,
50548250,-0.618,-0.319,0.756,-16.87,-74.042,-22.82,
50548260,-0.58,-0.302,0.781,-14.98,-78.347,-26.215,
50548260,-0.545,-0.29,0.799,-14.332,-81.882,-26.337,
50548280,-0.512,-0.304,0.81,-13.23,-84.682,-24.447,
50548280,-0.434,-0.308,0.849,-9.73,-83.457,-21.7,
50548300,-0.419,-0.309,0.885,-7.245,-78.242,-17.745,
50548300,-0.399,-0.31,0.901,-5.845,-73.395,-14.665,
50548320,-0.303,-0.314,0.921,-4.217,-66.447,-10.622,
50548320,-0.189,-0.335,0.9,-2.782,-52.237,-2.73,
50548330,-0.163,-0.329,0.905,0.997,-28.805,7.595,
50548340,-0.132,-0.344,0.871,5.197,-1.907,17.342,
50548350,-0.107,-0.349,0.856,14.42,31.115,25.917,
50548360,-0.201,-0.331,0.839,25.235,66.955,36.61,
50548370,-0.359,-0.313,0.805,36.715,93.607,46.9,
50548380,-0.509,-0.273,0.794,48.79,105.77,53.06,
50548390,-0.628,-0.22,0.793,57.995,103.075,54.355,
50548400,-0.714,-0.183,0.78,63.35,88.952,51.065,
50548410,-0.729,-0.14,0.772,67.672,68.18,43.172,
50548420,-0.726,-0.096,0.745,67.812,45.657,34.947,
50548430,-0.706,-0.06,0.734,64.715,23.992,26.197,
50548440,-0.689,-0.016,0.74,59.29,4.147,15.242,
50548450,-0.679,0.007,0.736,48.737,-14.962,3.832,
50548460,-0.693,-0.018,0.715,38.762,-34.37,-8.242,
50548470,-0.642,-0.028,0.709,33.46,-54.565,-20.947,
50548480,-0.562,-0.008,0.71,28.805,-70.805,-30.03,
50548490,-0.469,-0.015,0.714,24.64,-80.535,-36.207,
50548500,-0.395,-0.008,0.717,18.532,-82.04,-37.45,
50548510,-0.332,-0.03,0.722,12.092,-76.545,-36.085,
50548520,-0.299,-0.059,0.724,6.282,-63.997,-34.265,
50548530,-0.284,-0.095,0.736,3.325,-48.037,-30.905,
50548540,-0.304,-0.117,0.757,0.245,-29.015,-24.92,
50548550,-0.357,-0.146,0.781,-4.392,-10.78,-18.917,
50548560,-0.406,-0.179,0.79,-10.062,4.83,-14.945,
50548570,-0.463,-0.206,0.804,-15.12,16.152,-11.742,
50548580,-0.526,-0.229,0.821,-20.44,22.767,-7.455,
50548590,-0.566,-0.256,0.818,-27.72,25.182,-3.762,
50548600,-0.594,-0.296,0.803,-33.617,25.847,-0.192,
50548600,-0.604,-0.314,0.809,-36.557,25.602,2.572,
50548620,-0.597,-0.319,0.81,-40.39,25.847,6.037,
50548620,-0.56,-0.318,0.829,-43.05,28.647,10.395,
50548640,-0.568,-0.336,0.82,-47.127,33.162,15.33,
50548640,-0.592,-0.364,0.813,-47.582,36.207,19.162,
50548660,-0.596,-0.363,0.818,-44.432,36.085,21.245,
50548660,-0.588,-0.359,0.822,-41.335,34.107,21.857,
50548670,-0.58,-0.347,0.833,-37.59,32.2,19.932,
50548680,-0.579,-0.338,0.837,-34.58,29.155,16.257,
50548690,-0.577,-0.34,0.849,-30.31,24.307,12.18,
50548700,-0.578,-0.327,0.862,-26.197,17.517,7.227,
50548710,-0.591,-0.313,0.867,-23.73,8.54,0.98,
50548720,-0.566,-0.3,0.879,-22.942,-1.715,-6.895,
50548730,-0.5,-0.301,0.878,-23.73,-10.22,-14.332,
50548740,-0.479,-0.313,0.872,-25.27,-14.997,-18.69,
50548750,-0.5,-0.334,0.866,-27.3,-19.95,-20.405,
50548760,-0.491,-0.366,0.869,-28.665,-25.375,-19.232,
50548770,-0.466,-0.428,0.859,-27.3,-28.455,-15.452,
50548780,-0.449,-0.488,0.868,-23.572,-26.092,-10.15,
50548790,-0.452,-0.504,0.878,-20.002,-19.057,-3.272,
50548800,-0.468,-0.564,0.874,-17.377,-7.84,5.302,
50548810,-0.478,-0.598,0.869,-14.21,6.142,14.157,
50548820,-0.521,-0.583,0.859,-12.827,21.455,22.312,
50548830,-0.576,-0.56,0.833,-12.512,36.137,30.957,
50548840,-0.634,-0.549,0.796,-13.632,48.545,38.99,
50548850,-0.667,-0.545,0.742,-14,57.295,45.115,
50548860,-0.704,-0.546,0.694,-11.322,63.367,49.455,
50548870,-0.734,-0.509,0.686,-6.965,65.52,51.432,
50548880,-0.738,-0.454,0.676,-4.375,63.21,51.607,
50548890,-0.695,-0.397,0.674,-3.062,57.96,50.137,
50548900,-0.65,-0.334,0.672,-3.762,53.27,48.055,
50548910,-0.644,-0.27,0.663,-7.577,49.087,45.377,
50548920,-0.629,-0.214,0.654,-14.35,44.66,40.39,
50548930,-0.61,-0.177,0.65,-21.875,40.127,32.865,
50548940,-0.572,-0.132,0.634,-27.72,34.335,24.57,
50548950,-0.533,-0.074,0.631,-32.27,29.277,18.602,
50548960,-0.504,-0.038,0.621,-37.467,25.007,16.292,
50548970,-0.477,-0.021,0.614,-43.557,23.45,13.527,
50548980,-0.469,-0.02,0.611,-49.962,25.165,8.68,
50548990,-0.501,-0.051,0.627,-53.97,27.072,3.29,
50549000,-0.546,-0.076,0.64,-55.055,26.145,-4.077,
50549010,-0.6,-0.139,0.656,-51.187,20.545,-10.202,
50549010,-0.625,-0.169,0.673,-44.1,12.687,-17.902,
50549030,-0.685,-0.218,0.681,-33.477,1.645,-22.907,
50549030,-0.69,-0.219,0.705,-22.452,-11.97,-30.275,
50549050,-0.706,-0.232,0.722,-12.862,-27.947,-35.07,
50549050,-0.69,-0.233,0.718,-6.02,-45.272,-41.457,
50549070,-0.584,-0.234,0.712,1.855,-58.257,-47.145,
50549070,-0.474,-0.271,0.685,13.562,-62.195,-40.862,
50549080,-0.499,-0.236,0.753,26.057,-59.377,-23.257,
50549090,-0.383,-0.153,0.754,19.337,-47.372,-30.345,
50549100,-0.418,-0.265,0.734,17.885,-28.14,-22.155,
50549110,-0.419,-0.268,0.739,15.05,-8.242,-15.89,
50549120,-0.489,-0.26,0.749,13.755,10.115,-4.217,
50549130,-0.559,-0.284,0.734,14.945,23.8,7.612,
50549140,-0.648,-0.301,0.733,21.822,31.132,18.567,
50549150,-0.698,-0.289,0.759,30.607,32.742,23.8,
50549160,-0.744,-0.268,0.775,35.49,30.205,25.707,
50549170,-0.78,-0.261,0.777,37.257,23.572,24.745,
50549180,-0.808,-0.268,0.784,39.795,14.052,21.665,
50549190,-0.788,-0.239,0.768,39.322,2.642,16.747,
50549200,-0.739,-0.229,0.766,42.647,-6.895,13.387,
50549210,-0.665,-0.201,0.745,43.645,-11.62,11.112,
50549220,-0.617,-0.19,0.761,47.67,-9.397,11.095,
50549230,-0.617,-0.157,0.752,46.585,-4.025,14.367,
50549240,-0.636,-0.142,0.768,45.465,2.012,13.002,
50549250,-0.658,-0.13,0.788,44.38,6.125,10.692,
50549260,-0.673,-0.119,0.802,38.22,8.732,12.11,
50549270,-0.693,-0.141,0.78,29.505,9.502,13.405,
50549280,-0.73,-0.162,0.783,28.122,7.122,12.88,
50549290,-0.75,-0.121,0.786,24.045,1.05,13.702,
50549300,-0.725,-0.126,0.753,17.482,-7.245,11.585,
50549310,-0.725,-0.147,0.754,18.217,-16.275,8.802,
50549320,-0.723,-0.138,0.77,17.587,-26.477,8.295,
50549330,-0.694,-0.127,0.784,11.445,-37.1,7.595,
50549330,-0.697,-0.137,0.786,2.012,-45.745,7.822,
50549350,-0.725,-0.156,0.748,-7.367,-55.65,6.002,
50549350,-0.699,-0.199,0.783,-4.62,-67.112,1.207,
50549370,-0.651,-0.16,0.781,-11.357,-73.202,-0.402,
50549370,-0.648,-0.158,0.807,-20.457,-79.485,-4.427,
50549390,-0.635,-0.202,0.813,-29.19,-87.657,-7.945,
50549390,-0.565,-0.255,0.813,-34.282,-91.682,-12.705,
50549410,-0.513,-0.284,0.805,-34.562,-91.98,-16.642,
50549410,-0.333,-0.307,0.839,-35.21,-86.485,-17.342,
50549420,-0.121,-0.397,0.831,-33.652,-52.867,-6.51,
50549430,-0.322,-0.372,0.898,-17.955,-9.8,12.967,
50549440,-0.599,-0.266,0.934,-12.845,8.085,31.465,
50549450,-0.691,-0.276,0.869,-17.78,6.037,40.985,
50549460,-0.693,-0.249,0.833,-18.795,5.915,35.437,
50549470,-0.876,-0.204,0.826,-27.912,-7.875,25.532,
50549480,-0.792,-0.248,0.78,-40.337,-35.472,7.315,
50549490,-0.511,-0.304,0.759,-42.437,-49.875,-6.072,
50549500,-0.397,-0.326,0.749,-37.957,-46.357,-10.115,
50549510,-0.469,-0.325,0.769,-35.56,-35.507,-4.847,
50549520,-0.47,-0.317,0.794,-33.407,-24.115,-1.085,
50549530,-0.49,-0.322,0.773,-29.522,-14.717,3.482,
50549540,-0.554,-0.344,0.802,-26.11,-7.717,9.292,
50549550,-0.595,-0.357,0.798,-22.435,-4.707,10.692,
50549560,-0.573,-0.338,0.824,-13.597,-3.5,7.437,
50549570,-0.598,-0.338,0.828,-7,-6.527,6.317,
50549580,-0.565,-0.283,0.841,-1.995,-8.96,5.687,
50549590,-0.564,-0.265,0.832,-1.172,-12.442,6.492,
50549600,-0.582,-0.307,0.784,0.595,-16.677,8.697,
50549610,-0.539,-0.302,0.767,10.08,-20.597,11.322,
50549620,-0.531,-0.252,0.79,17.78,-22.995,15.47,
50549630,-0.538,-0.224,0.789,16.922,-26.477,17.377,
50549640,-0.501,-0.193,0.775,15.155,-27.93,17.15,
50549650,-0.52,-0.183,0.783,10.307,-30.205,16.187,
50549660,-0.501,-0.196,0.75,2.887,-33.197,14.332,
50549670,-0.5,-0.208,0.735,-0.647,-37.327,12.81,
50549680,-0.512,-0.198,0.734,-3.08,-43.26,11.952,
50549690,-0.469,-0.238,0.727,-7.14,-51.52,11.9,
50549700,-0.332,-0.259,0.762,-7.822,-50.312,13.16,
50549710,-0.333,-0.291,0.807,-7.07,-37.257,19.057,
50549720,-0.394,-0.342,0.842,-3.885,-21.122,26.897,
50549730,-0.511,-0.324,0.895,-0.822,-11.41,33.967,
50549740,-0.495,-0.272,0.951,-8.452,-5.967,22.61,
50549750,-0.557,-0.371,0.944,-13.405,-5.547,17.045,
50549760,-0.583,-0.458,0.909,-10.29,-11.637,21.175,
50549760,-0.522,-0.482,0.91,2.467,-18.497,27.93,
50549780,-0.447,-0.447,0.942,17.727,-17.342,35.682,
50549780,-0.439,-0.445,0.936,20.877,-9.187,38.08,
50549800,-0.453,-0.42,0.971,18.567,2.485,29.225,
50549800,-0.428,-0.58,0.908,10.692,15.382,16.432,
50549820,-0.401,-0.668,0.917,26.075,30.45,19.547,
50549820,-0.468,-0.638,0.96,47.39,44.905,31.185,
50549830,-0.536,-0.536,1.036,59.867,56.997,37.922,
50549840,-0.568,-0.495,1.029,59.325,66.185,37.187,
50549850,-0.529,-0.46,1.025,58.905,73.657,32.112,
50549860,-0.507,-0.474,0.992,57.645,79.537,29.435,
50549870,-0.505,-0.51,0.931,57.225,86.327,31.5,
50549880,-0.515,-0.485,0.854,64.785,89.302,35.262,
50549890,-0.484,-0.443,0.761,77,87.272,40.005,
50549900,-0.472,-0.38,0.673,89.337,84.507,48.737,
50549910,-0.448,-0.304,0.64,100.695,82.652,56.175,
50549920,-0.466,-0.228,0.638,110.215,83.195,57.505,
50549930,-0.464,-0.12,0.671,113.995,86.537,51.887,
50549940,-0.51,-0.029,0.652,104.177,88.602,42.14,
50549950,-0.531,0.055,0.621,87.377,87.36,26.267,
50549960,-0.576,0.08,0.578,68.705,81.935,10.15,
50549970,-0.569,0.078,0.517,54.355,70.945,-5.652,
50549980,-0.506,0.115,0.489,47.46,60.952,-18.27,
50549990,-0.537,0.14,0.486,43.435,53.217,-25.375,
50550000,-0.575,0.171,0.504,35.63,44.8,-35.752,
50550010,-0.598,0.18,0.519,27.965,35.052,-49,
50550020,-0.611,0.186,0.52,23.502,25.322,-58.467,
50550030,-0.686,0.156,0.558,18.882,15.26,-61.652,
50550040,-0.729,0.188,0.598,15.627,0.962,-65.887,
50550050,-0.657,0.174,0.618,10.972,-9.975,-69.37,
50550060,-0.698,0.138,0.643,3.622,-12.74,-70.805,
50550070,-0.786,0.137,0.682,-2.415,-16.17,-74.165,
50550080,-0.81,0.099,0.679,-8.96,-23.765,-74.532,
50550080,-0.757,0.048,0.678,-11.077,-28.962,-69.72,
50550100,-0.689,0.024,0.729,-7.945,-28.595,-66.115,
50550100,-0.661,0.008,0.739,-4.41,-23.992,-59.325,
50550120,-0.72,-0.022,0.752,1.575,-16.502,-49.805,
50550120,-0.696,-0.013,0.776,6.457,-8.33,-45.377,
50550140,-0.714,-0.015,0.799,9.59,-2.222,-40.127,
50550140,-0.774,-0.002,0.811,12.757,-2.922,-35.84,
50550160,-0.749,0.059,0.819,16.957,-7.997,-29.732,
50550160,-0.738,0.133,0.845,22.82,-11.147,-21.997,
50550170,-0.801,0.219,0.902,27.58,-14.245,-16.66,
50550180,-0.847,0.267,0.919,29.732,-19.81,-16.73,
50550190,-0.822,0.223,0.864,22.487,-25.62,-19.722,
50550200,-0.829,0.029,0.757,14.962,-30.957,-18.042,
50550210,-0.645,-0.035,0.713,18.147,-31.08,-16.397,
50550220,-0.561,0.011,0.722,19.337,-15.47,-8.452,
50550230,-0.634,0.004,0.705,15.802,5.862,1.19,
50550240,-0.679,-0.011,0.702,11.585,22.382,3.937,
50550250,-0.757,-0.035,0.692,4.742,31.5,4.69,
50550260,-0.821,-0.082,0.684,-0.49,33.652,3.552,
50550270,-0.858,-0.121,0.697,-2.17,27.475,1.137,
50550280,-0.843,-0.113,0.688,-4.515,16.94,-1.155,
50550290,-0.802,-0.146,0.738,-6.492,6.755,-5.302,
50550300,-0.748,-0.087,0.78,-12.757,-0.542,-11.112,
50550310,-0.738,-0.137,0.741,-22.662,-3.92,-14.105,
50550320,-0.679,-0.154,0.765,-28.35,-0.49,-25.707,
50550330,-0.683,-0.158,0.775,-36.207,5.197,-33.127,
50550340,-0.699,-0.173,0.755,-43.12,7.822,-35.665,
50550350,-0.713,-0.18,0.75,-45.202,6.65,-38.797,
50550360,-0.695,-0.198,0.752,-48.37,4.06,-39.9,
50550370,-0.643,-0.214,0.758,-49.98,3.832,-39.847,
50550380,-0.652,-0.211,0.753,-47.687,5.792,-37.012,
50550390,-0.663,-0.205,0.752,-45.78,7.21,-34.895,
50550400,-0.639,-0.216,0.737,-44.59,8.872,-34.405,
50550410,-0.628,-0.231,0.715,-43.015,12.232,-33.442,
50550420,-0.639,-0.232,0.687,-40.442,16.992,-31.29,
50550430,-0.626,-0.198,0.69,-37.87,21.682,-29.435,
50550440,-0.665,-0.211,0.677,-36.015,26.425,-24.92,
50550450,-0.718,-0.217,0.675,-34.51,28.577,-19.757,
50550460,-0.748,-0.191,0.678,-35.682,28.227,-18.847,
50550470,-0.804,-0.215,0.65,-36.505,24.01,-18.795,
50550480,-0.809,-0.231,0.639,-33.442,16.082,-17.745,
50550490,-0.786,-0.233,0.632,-28.017,6.282,-15.155,
50550500,-0.753,-0.247,0.62,-21.017,-2.222,-11.27,
50550510,-0.719,-0.249,0.616,-11.112,-8.155,-6.965,
50550510,-0.732,-0.242,0.625,-1.767,-12.617,-2.975,
50550530,-0.749,-0.24,0.635,7.14,-18.235,0.595,
50550530,-0.732,-0.235,0.653,14.997,-24.815,2.66,
50550550,-0.697,-0.227,0.665,21.682,-31.202,3.675,
50550550,-0.669,-0.193,0.695,26.267,-34.545,3.605,
50550570,-0.672,-0.172,0.707,24.307,-36.855,1.277,
50550570,-0.662,-0.187,0.715,19.915,-40.477,-2.415,
50550580,-0.616,-0.207,0.674,15.785,-46.27,-4.427,
50550590,-0.54,-0.224,0.666,17.115,-47.232,-2.94,
50550600,-0.554,-0.246,0.676,23.432,-44.52,0.332,
50550610,-0.531,-0.243,0.689,31.202,-41.965,3.115,
50550620,-0.505,-0.21,0.737,38.5,-36.662,5.337,
50550630,-0.527,-0.172,0.773,38.447,-28.945,6.265,
50550640,-0.566,-0.154,0.793,31.57,-21.14,4.375,
50550650,-0.581,-0.154,0.796,22.365,-16.135,1.032,
50550660,-0.606,-0.176,0.786,13.65,-13.44,0.367,
50550670,-0.607,-0.188,0.773,7.56,-13.317,1.172,
50550680,-0.592,-0.19,0.762,3.745,-11.987,2.03,
50550690,-0.61,-0.19,0.758,0.962,-9.24,1.19,
50550700,-0.638,-0.19,0.747,-0.857,-7.752,-1.067,
50550710,-0.652,-0.198,0.744,-0.402,-9.292,-2.59,
50550720,-0.657,-0.204,0.739,1.662,-12.285,-3.482,
50550730,-0.68,-0.196,0.745,4.305,-18.34,-4.217,
50550740,-0.651,-0.192,0.746,5.985,-25.777,-4.165,
50550750,-0.571,-0.196,0.749,8.977,-28.035,-3.115,
50550760,-0.555,-0.174,0.765,10.325,-22.89,-1.75,
50550770,-0.592,-0.153,0.771,6.79,-17.552,-2.59,
50550780,-0.584,-0.16,0.77,1.802,-14.017,-4.812,
50550790,-0.552,-0.171,0.769,-2.642,-9.87,-5.267,
50550800,-0.501,-0.205,0.759,-4.917,-2.45,-2.082,
50550810,-0.569,-0.225,0.784,-1.522,10.115,2.397,
50550820,-0.69,-0.182,0.829,1.487,14.752,5.722,
50550830,-0.61,-0.176,0.823,1.75,13.527,6.982,
50550830,-0.555,-0.173,0.824,0.735,19.267,6.93,
50550850,-0.574,-0.163,0.823,-3.36,31.08,3.885,
50550850,-0.594,-0.163,0.816,-9.292,42.805,-2.1,
50550870,-0.635,-0.176,0.8,-15.715,50.26,-7.857,
50550870,-0.649,-0.199,0.779,-19.547,51.642,-11.095,
50550890,-0.674,-0.212,0.746,-19.862,48.02,-9.94,
50550890,-0.672,-0.209,0.715,-17.15,41.842,-6.16,
50550910,-0.659,-0.207,0.683,-12.215,36.435,-1.015,
50550910,-0.687,-0.198,0.679,-6.947,31.762,3.92,
50550920,-0.703,-0.19,0.671,-4.777,25.847,4.585,
50550930,-0.667,-0.193,0.682,-2.52,21.402,6.265,
50550940,-0.699,-0.176,0.704,-0.402,17.78,14.945,
50550950,-0.695,-0.161,0.704,-6.107,19.53,10.517,
50550960,-0.711,-0.18,0.711,-12.372,24.797,8.907,
50550970,-0.718,-0.2,0.698,-18.007,30.31,5.46,
50550980,-0.778,-0.231,0.693,-17.64,33.355,6.265,
50550990,-0.784,-0.216,0.695,-14.647,30.922,5.18,
50551000,-0.739,-0.203,0.705,-10.57,28.385,2.957,
50551010,-0.712,-0.195,0.708,-8.645,27.965,1.207,
50551020,-0.709,-0.193,0.697,-8.697,28.35,0.28,
50551030,-0.688,-0.205,0.684,-8.4,28.245,0.822,
50551040,-0.716,-0.215,0.682,-6.02,27.79,4.287,
50551050,-0.688,-0.186,0.676,-6.16,26.302,5.267,
50551060,-0.682,-0.198,0.667,-8.19,28.017,5.355,
50551070,-0.832,-0.229,0.598,-10.535,27.632,5.495,
50551080,-1.07,-0.043,0.605,-12.39,-7.857,-2.957,
50551090,-0.221,-0.156,0.578,-23.03,-15.89,-5.827,
50551100,-0.582,-0.373,0.612,-25.585,21.892,4.935,
50551110,-1.116,-0.354,0.693,-14.577,35,15.067,
50551120,-1.079,-0.254,0.743,-6.055,15.435,14.735,
50551130,-0.818,-0.217,0.69,-9.52,-0.525,-3.622,
50551140,-0.767,-0.292,0.6,-13.965,-0.822,-4.217,
50551150,-0.837,-0.24,0.579,-10.255,-2.292,-1.662,
50551160,-0.795,-0.183,0.57,-9.555,-9.537,-1.505,
50551170,-0.725,-0.235,0.56,-9.835,-15.015,-2.31,
50551180,-0.702,-0.263,0.572,-7.157,-15.837,-0.647,
50551190,-0.674,-0.262,0.615,-3.027,-15.277,1.435,
50551200,-0.683,-0.296,0.639,-0.56,-14.7,4.2,
50551210,-0.678,-0.296,0.643,1.137,-17.202,6.317,
50551220,-0.643,-0.286,0.632,2.537,-18.077,8.75,
50551230,-0.645,-0.278,0.626,4.987,-14.822,12.32,
50551240,-0.667,-0.235,0.649,7.087,-11.392,15.732,
50551250,-0.613,-0.191,0.671,3.202,-6.667,13.947,
50551260,-0.594,-0.229,0.661,-0.437,0.105,14.752,
50551260,-0.627,-0.244,0.659,3.622,4.97,18.252,
50551280,-0.669,-0.218,0.641,8.54,3.85,26.547,
50551280,-0.636,-0.195,0.622,10.342,3.01,31.605,
50551300,-0.662,-0.194,0.603,9.765,5.285,34.825,
50551300,-0.703,-0.198,0.594,8.592,7.14,35.455,
50551310,-0.735,-0.211,0.607,8.067,6.615,42.822,
50551320,-0.755,-0.233,0.652,10.027,11.217,45.762,
50551330,-0.888,-0.181,0.725,12.897,15.75,42.21,
50551340,-0.917,-0.124,0.753,11.707,15.242,28.717,
50551350,-0.875,-0.119,0.734,9.747,13.195,19.74,
50551360,-0.945,-0.1,0.742,10.605,9.082,17.482,
50551370,-0.919,-0.055,0.741,8.382,1.487,12.67,
50551380,-0.861,-0.064,0.721,3.08,-4.077,7.035,
50551390,-0.815,-0.089,0.698,-2.292,-6.58,2.1,
50551400,-0.768,-0.118,0.69,-5.81,-5.39,-1.102,
50551410,-0.759,-0.148,0.658,-7.735,-5.32,-2.397,
50551420,-0.69,-0.158,0.645,-8.277,-5.775,-2.222,
50551430,-0.666,-0.193,0.647,-8.085,-1.715,0.35,
50551440,-0.653,-0.187,0.659,-5.285,2.415,2.887,
50551450,-0.658,-0.176,0.64,-4.06,5.547,8.172,
50551460,-0.694,-0.165,0.622,-2.642,8.925,12.932,
50551470,-0.741,-0.163,0.597,-3.36,7.98,16.555,
50551480,-0.771,-0.169,0.563,-6.667,4.165,20.755,
50551490,-0.824,-0.157,0.583,-8.505,0.647,22.05,
50551500,-0.818,-0.137,0.606,-11.777,-1.627,20.72,
50551510,-0.836,-0.125,0.578,-14.035,-1.837,20.79,
50551520,-0.922,0.013,0.524,-18.777,-3.097,19.04,
50551530,-1.012,-0.098,0.591,-31.78,-9.135,17.115,
50551540,-0.884,-0.249,0.818,-28.752,-14.157,3.745,
50551550,-0.901,-0.184,0.904,-20.142,-17.272,-11.515,
50551560,-0.867,-0.122,0.801,-26.827,-28,-21.612,
50551570,-0.698,-0.169,0.698,-29.89,-35.682,-26.11,
50551580,-0.596,-0.197,0.671,-27.405,-31.08,-22.61,
50551580,-0.533,-0.206,0.704,-20.492,-19.827,-15.295,
50551600,-0.514,-0.197,0.696,-16.082,-7.63,-8.4,
50551600,-0.51,-0.198,0.665,-10.797,3.482,-5.302,
50551620,-0.539,-0.194,0.645,-5.11,15.277,0.472,
50551620,-0.534,-0.231,0.608,-1.4,26.687,10.815,
50551640,-0.607,-0.227,0.605,4.97,36.767,18.182,
50551640,-0.628,-0.202,0.616,7.035,43.33,21.805,
50551660,-0.628,-0.147,0.597,2.852,50.207,17.43,
50551660,-0.769,-0.165,0.573,-4.987,56.507,6.212,
50551670,-0.866,-0.202,0.549,-10.465,52.71,1.295,
50551680,-0.9,-0.232,0.534,-12.635,43.05,-2.642,
50551690,-0.93,-0.296,0.513,-11.427,33.285,-3.92,
50551700,-0.952,-0.267,0.516,-4.672,21.28,6.37,
50551710,-0.919,-0.196,0.55,0.367,10.342,9.572,
50551720,-0.932,-0.205,0.574,-0.262,3.71,12.757,
50551730,-0.902,-0.165,0.61,-2.625,-2.485,10.675,
50551740,-0.886,-0.148,0.627,-6.037,-5.74,4.34,
50551750,-0.839,-0.15,0.635,-9.747,-8.627,-1.505,
50551760,-0.779,-0.176,0.632,-10.657,-8.872,-3.115,
50551770,-0.767,-0.168,0.63,-8.505,-8.155,-0.017,
50551780,-0.773,-0.157,0.624,-8.592,-8.242,1.61,
50551790,-0.772,-0.177,0.62,-9.187,-8.347,2.467,
50551800,-0.797,-0.174,0.624,-8.137,-7.455,2.362,
50551810,-0.818,-0.157,0.63,-7.98,-6.545,0.91,
50551820,-0.844,-0.155,0.639,-8.802,-4.357,-1.942,
50551830,-0.902,-0.156,0.652,-10.78,-4.41,-6.037,
50551840,-0.958,-0.153,0.651,-14.315,-10.167,-13.09,
50551850,-0.994,-0.168,0.618,-21.07,-23.782,-21.507,
50551860,-0.923,-0.184,0.551,-27.562,-43.33,-31.85,
50551870,-0.621,-0.393,0.592,-29.575,-52.132,-37.047,
50551880,-0.653,-0.467,0.576,-15.977,-41.072,-31.815,
50551890,-0.792,-0.267,0.562,-5.81,-41.772,-24.815,
50551900,-0.688,-0.3,0.539,3.185,-49.927,-19.67,
50551910,-0.546,-0.312,0.56,12.81,-44.852,-16.782,
50551920,-0.684,-0.322,0.557,18.235,-30.73,-3.15,
50551930,-0.812,-0.258,0.626,32.322,-22.89,6.107,
50551940,-0.776,-0.179,0.671,36.452,-21.385,6.002,
50551950,-0.69,-0.199,0.728,31.622,-16.135,3.692,
50551960,-0.635,-0.238,0.732,27.055,-6.212,2.817,
50551970,-0.6,-0.232,0.7,27.842,1.89,6.125,
50551980,-0.604,-0.196,0.731,28.822,8.242,11.252,
50551990,-0.583,-0.193,0.719,25.235,12.565,12.162,
50552000,-0.589,-0.211,0.673,21.962,17.01,12.687,
50552000,-0.668,-0.189,0.649,22.557,21.455,12.652,
50552010,-0.782,-0.148,0.674,22.995,9.677,7.227,
50552020,-0.459,-0.182,0.621,13.737,5.512,7.262,
50552030,-0.461,-0.283,0.607,19.862,30.555,15.05,
50552040,-0.665,-0.238,0.648,37.922,53.287,22.347,
50552050,-0.815,-0.13,0.652,45.115,60.375,27.3,
50552060,-0.927,-0.099,0.667,42.822,58.52,27.422,
50552070,-0.94,-0.071,0.661,35.98,50.33,24.64,
50552080,-0.942,-0.082,0.644,29.61,40.197,23.8,
50552090,-0.935,-0.064,0.63,24.237,31.745,20.422,
50552100,-0.948,-0.055,0.633,20.037,26.302,13.177,
50552110,-0.955,-0.071,0.635,15.505,20.23,6.09,
50552120,-0.947,-0.076,0.668,14.385,13.125,2.17,
50552130,-0.927,-0.05,0.69,10.132,6.177,-4.357,
50552140,-0.936,-0.059,0.684,2.66,0.245,-11.707,
50552150,-0.897,-0.105,0.679,1.89,-6.335,-17.045,
50552160,-0.84,-0.121,0.673,7.437,-10.78,-18.515,
50552170,-0.803,-0.106,0.66,13.877,-12.232,-18.007,
50552180,-0.777,-0.096,0.652,22.242,-9.835,-14.385,
50552190,-0.765,-0.09,0.644,31.482,-5.932,-10.377,
50552200,-0.767,-0.063,0.652,41.912,-0.525,-8.067,
50552210,-0.784,-0.018,0.674,51.957,3.972,-2.362,
50552220,-0.839,0.02,0.668,58.73,6.212,12.425,
50552230,-0.88,0.041,0.648,61.145,4.812,24.867,
50552240,-0.89,0.061,0.631,62.982,1.627,28.175,
50552250,-0.851,0.104,0.626,62.667,-0.192,23.66,
50552260,-0.834,0.122,0.601,58.87,1.015,20.405,
50552270,-0.865,0.107,0.585,55.072,1.662,20.37,
50552280,-0.908,0.095,0.565,53.76,-1.837,20.51,
50552290,-0.904,0.127,0.568,55.212,-10.43,18.882,
50552300,-0.875,0.146,0.569,55.457,-19.74,18.41,
50552310,-0.832,0.161,0.567,54.95,-27.02,17.937,
50552320,-0.807,0.172,0.587,52.937,-31.08,16.205,
50552330,-0.799,0.201,0.584,47.512,-33.635,13.65,
50552330,-0.791,0.185,0.581,42.28,-36.12,10.412,
50552350,-0.754,0.175,0.565,37.66,-38.255,6.51,
50552350,-0.739,0.166,0.559,31.675,-39.34,5.757,
50552370,-0.756,0.129,0.544,27.475,-41.177,5.757,
50552370,-0.758,0.127,0.573,27.877,-43.295,5.425,
50552390,-0.762,0.127,0.553,24.237,-46.112,5.652,
50552390,-0.736,0.116,0.614,24.115,-48.265,0.962,
50552410,-0.717,0.127,0.603,14.7,-49.997,-0.647,
50552410,-0.703,0.099,0.591,7.805,-49.245,-4.217,
50552420,-0.733,0.053,0.651,7.787,-48.667,-5.145,
50552430,-0.733,0.081,0.653,-2.24,-50.032,-5.355,
50552440,-0.698,0.027,0.637,-10.412,-51.1,-8.417,
50552450,-0.669,-0.008,0.634,-13.65,-47.932,-11.672,
50552460,-0.671,-0.035,0.613,-20.685,-42.42,-15.662,
50552470,-0.673,-0.068,0.62,-23.082,-37.537,-20.965,
50552480,-0.671,-0.072,0.637,-23.362,-33.88,-24.815,
50552490,-0.673,-0.089,0.654,-26.74,-32.2,-23.572,
50552500,-0.693,-0.102,0.665,-32.357,-31.465,-20.72,
50552510,-0.715,-0.144,0.656,-38.237,-32.812,-20.895,
50552520,-0.734,-0.171,0.659,-39.62,-34.51,-20.212,
50552530,-0.759,-0.2,0.657,-39.252,-38.727,-18.025,
50552540,-0.756,-0.238,0.661,-34.93,-44.275,-15.995,
50552550,-0.718,-0.213,0.715,-31.535,-49.35,-13.545,
50552560,-0.687,-0.233,0.702,-33.915,-52.185,-11.777,
50552570,-0.648,-0.251,0.725,-31.062,-49.892,-12.337,
50552580,-0.643,-0.271,0.726,-31.57,-45.675,-14.735,
50552590,-0.606,-0.292,0.726,-29.732,-41.51,-18.13,
50552600,-0.554,-0.295,0.735,-25.987,-35.63,-19.162,
50552610,-0.542,-0.29,0.755,-22.172,-30.52,-16.572,
50552620,-0.553,-0.287,0.762,-20.23,-26.25,-12.687,
50552630,-0.564,-0.3,0.758,-17.15,-24.465,-9.887,
50552640,-0.554,-0.307,0.759,-13.16,-23.502,-8.172,
50552650,-0.569,-0.317,0.761,-9.03,-23.537,-5.442,
50552660,-0.591,-0.312,0.771,-3.272,-24.99,-2.835,
50552670,-0.585,-0.293,0.792,2.8,-27.475,-0.77,
50552670,-0.574,-0.266,0.815,6.912,-28.14,0.455,
50552690,-0.592,-0.247,0.833,7.857,-28.385,0.28,
50552690,-0.612,-0.236,0.845,6.807,-29.767,-1.592,
50552710,-0.61,-0.235,0.853,5.512,-32.707,-3.745,
50552710,-0.605,-0.241,0.849,4.865,-36.277,-4.69,
50552730,-0.596,-0.241,0.841,5.862,-38.517,-5.565,
50552730,-0.591,-0.236,0.849,7.787,-39.585,-6.107,
50552750,-0.589,-0.23,0.847,9.572,-39.375,-6.317,
50552750,-0.585,-0.225,0.843,11.41,-38.307,-6.44,
50552760,-0.579,-0.223,0.832,13.527,-36.435,-5.81,
50552770,-0.573,-0.225,0.82,17.115,-33.232,-4.777,
50552780,-0.58,-0.216,0.823,21.735,-29.067,-3.517,
50552790,-0.608,-0.21,0.824,25.532,-25.882,-1.925,
50552800,-0.61,-0.198,0.824,29.54,-23.205,-1.015,
50552810,-0.6,-0.188,0.815,33.092,-20.667,0.28,
50552820,-0.585,-0.175,0.789,37.432,-17.185,2.03,
50552830,-0.563,-0.153,0.767,42.595,-13.072,4.62,
50552840,-0.556,-0.121,0.757,47.425,-7.665,7.56,
50552850,-0.559,-0.093,0.747,51.537,-2.8,8.96,
50552860,-0.568,-0.057,0.751,53.322,1.452,8.855,
50552870,-0.588,-0.019,0.757,51.782,4.06,8.19,
50552880,-0.614,0.013,0.77,47.757,4.48,7.087,
50552890,-0.641,0.031,0.778,42.437,0.857,5.705,
50552900,-0.657,0.051,0.806,37.362,-5.547,4.217,
50552910,-0.671,0.064,0.817,29.96,-14.577,2.135,
50552920,-0.678,0.043,0.82,25.497,-25.165,0.945,
50552930,-0.651,0.043,0.826,23.065,-36.365,-0.525,
50552940,-0.613,0.044,0.823,21.77,-44.642,-1.82,
50552950,-0.553,0.054,0.804,22.225,-48.422,-3.902,
50552960,-0.506,0.065,0.82,24.745,-46.445,-3.255,
50552970,-0.496,0.073,0.829,24.727,-41.702,-2.38,
50552980,-0.484,0.094,0.843,24.605,-35.402,-3.15,
50552990,-0.481,0.103,0.836,22.172,-28.595,-4.165,
50553000,-0.491,0.083,0.841,22.277,-20.842,-1.4,
50553010,-0.469,0.117,0.852,19.337,-12.845,-2.432,
50553020,-0.5,0.097,0.851,16.415,-4.865,-0.63,
50553030,-0.505,0.087,0.854,13.037,1.487,-1.505,
50553040,-0.49,0.112,0.858,7.962,6.842,-3.482,
50553050,-0.52,0.086,0.849,3.342,10.57,-0.945,
50553060,-0.537,0.08,0.855,0.84,11.48,1.802,
50553070,-0.549,0.075,0.85,-2.555,10.097,2.292,
50553080,-0.576,0.055,0.844,-3.5,6.877,2.94,
50553080,-0.575,0.053,0.844,-3.377,1.33,1.907,
50553100,-0.568,0.051,0.832,-2.957,-5.495,1.382,
50553100,-0.565,0.036,0.845,1.82,-12.512,3.167,
50553120,-0.545,0.053,0.855,5.215,-18.235,4.777,
50553120,-0.53,0.073,0.866,5.897,-21.857,4.2,
50553140,-0.519,0.074,0.874,5.967,-24.185,1.557,
50553140,-0.498,0.074,0.879,4.27,-24.832,-1.452,
50553160,-0.479,0.086,0.876,0.385,-24.5,-3.675,
50553160,-0.484,0.068,0.883,-1.05,-22.995,-2.502,
50553170,-0.483,0.06,0.88,-2.852,-21.945,-2.047,
50553180,-0.469,0.075,0.898,-5.425,-20.265,-2.992,
50553190,-0.473,0.069,0.88,-10.482,-18.567,-3.062,
50553200,-0.483,0.02,0.881,-7.822,-16.957,-0.962,
50553210,-0.472,0.034,0.896,-5.32,-16.012,-1.085,
50553220,-0.453,0.079,0.91,-10.15,-12.985,-3.57,
50553230,-0.47,0.057,0.903,-15.47,-10.29,-5.46,
50553240,-0.473,0.006,0.884,-16.222,-8.347,-5.512,
50553250,-0.468,-0.01,0.881,-12.88,-7.437,-3.097,
50553260,-0.481,0.001,0.877,-8.505,-7.385,-0.997,
50553270,-0.483,0.007,0.885,-4.147,-7.805,-0.297,
50553280,-0.483,0.004,0.879,-3.062,-7.997,1.225,
50553290,-0.479,-0.007,0.87,-1.102,-8.47,2.117,
50553300,-0.463,0.005,0.876,1.627,-7.542,1.417,
50553310,-0.461,0.01,0.879,3.43,-6.44,0.875,
50553320,-0.455,0.015,0.879,3.745,-4.97,0.385,
50553330,-0.455,0.015,0.875,3.045,-3.535,0.822,
50553340,-0.47,0,0.866,4.165,-3.15,3.062,
50553350,-0.464,0.012,0.861,5.862,-3.465,4.007,
50553360,-0.449,0.029,0.864,6.615,-2.87,3.447,
50553370,-0.447,0.032,0.855,6.212,-1.347,3.027,
50553380,-0.45,0.015,0.857,7.595,0.752,3.517,
50553390,-0.452,0.026,0.86,7.91,2.502,3.902,
50553400,-0.453,0.036,0.859,7.157,4.585,4.077,
50553410,-0.461,0.031,0.854,7.105,6.597,4.112,
50553420,-0.47,0.029,0.86,8.015,8.015,4.217,
50553420,-0.475,0.035,0.857,7.717,8.47,3.692,
50553440,-0.475,0.043,0.859,6.982,9.012,2.397,
50553440,-0.484,0.037,0.85,6.212,9.415,1.19,
50553460,-0.49,0.037,0.852,6.825,9.765,0.227,
50553460,-0.498,0.047,0.852,7.14,9.66,-0.105,
50553480,-0.499,0.053,0.857,7.105,8.995,-0.612,
50553480,-0.503,0.051,0.856,6.37,8.435,-1.365,
50553500,-0.49,0.078,0.848,4.742,8.242,-2.66,
50553500,-0.504,0.068,0.855,4.322,8.487,-1.855,
50553510,-0.514,0.074,0.85,2.467,7.595,-1.12,
50553520,-0.523,0.068,0.851,2.047,6.405,-0.017,
50553530,-0.512,0.084,0.851,-0.035,4.97,-2.03,
50553540,-0.524,0.072,0.849,-1.68,4.2,-3.272,
50553550,-0.522,0.068,0.854,-3.255,3.255,-4.357,
50553560,-0.523,0.063,0.848,-5.005,1.995,-4.217,
50553570,-0.525,0.052,0.842,-5.477,0.752,-3.727,
50553580,-0.523,0.059,0.85,-4.97,-0.087,-4.27,
50553590,-0.516,0.07,0.847,-6.912,-0.875,-4.48,
50553600,-0.53,0.042,0.846,-7.07,-1.05,-2.782,
50553610,-0.535,0.027,0.848,-5.827,-1.767,-1.767,
50553620,-0.53,0.044,0.854,-5.985,-1.662,-3.062,
50553630,-0.538,0.045,0.856,-6.842,-1.662,-4.987,
50553640,-0.547,0.037,0.855,-7.525,-1.785,-6.807,
50553650,-0.548,0.029,0.855,-7.77,-2.87,-7.402,
50553660,-0.551,0.021,0.856,-6.702,-4.462,-6.667,
50553670,-0.541,0.043,0.862,-7.087,-6.825,-5.39,
50553680,-0.548,0.021,0.85,-7.525,-8.68,-2.52,
50553690,-0.54,0.017,0.854,-4.812,-10.675,-0.84,
50553700,-0.526,0.029,0.856,-4.637,-11.795,-0.77,
50553710,-0.522,0.031,0.86,-4.847,-11.83,-1.732,
50553720,-0.513,0.027,0.863,-6.282,-10.972,-3.36,
50553730,-0.518,0.002,0.856,-5.845,-10.727,-3.43,
50553740,-0.51,0.007,0.871,-3.657,-9.94,-2.992,
50553750,-0.507,0.029,0.877,-5.792,-9.345,-2.31,
50553760,-0.511,0.013,0.868,-7.84,-9.082,-0.962,
50553770,-0.498,0,0.865,-7.245,-9.205,-0.297,
50553780,-0.491,0,0.867,-6.055,-8.837,0.84,
50553790,-0.483,0.009,0.864,-4.48,-8.312,1.557,
50553800,-0.466,0.011,0.867,-3.237,-6.597,1.977,
50553810,-0.458,0.009,0.865,-2.852,-4.305,2.66,
50553820,-0.458,0.016,0.867,-2.922,-1.68,2.8,
50553830,-0.465,0.019,0.867,-2.975,0.507,2.765,
50553830,-0.471,0.022,0.865,-3.587,1.942,2.642,
50553850,-0.476,0.022,0.864,-4.06,2.572,2.38,
50553850,-0.482,0.023,0.862,-4.445,2.45,1.925,
50553870,-0.489,0.022,0.859,-5.057,1.925,1.382,
50553870,-0.492,0.02,0.856,-5.145,0.962,0.752,
50553890,-0.498,0.017,0.863,-5.425,0.035,0.07,
50553890,-0.506,0.016,0.856,-5.722,-1.365,-1.137,
50553910,-0.502,0.012,0.865,-6.072,-1.89,-2.922,
50553910,-0.508,0.007,0.867,-7.017,-2.94,-4.865,
50553920,-0.51,0.003,0.868,-8.312,-3.832,-6.142,
50553930,-0.519,-0.018,0.869,-7.752,-5.722,-6.475,
50553940,-0.512,-0.022,0.885,-5.512,-7.647,-6.982,
50553950,-0.49,-0.004,0.887,-6.107,-9.345,-6.72,
50553960,-0.496,-0.027,0.888,-6.51,-9.59,-5.775,
50553970,-0.481,-0.027,0.896,-5.67,-9.642,-7.175,
50553980,-0.477,-0.038,0.898,-6.142,-9.292,-8.47,
50553990,-0.472,-0.051,0.905,-4.462,-8.837,-8.767,
50554000,-0.464,-0.053,0.906,-3.99,-8.295,-9.607,
50554010,-0.445,-0.05,0.909,-3.657,-6.58,-11.305,
50554020,-0.445,-0.063,0.912,-3.36,-4.34,-11.515,
50554030,-0.461,-0.087,0.905,-1.417,-3.062,-9.922,
50554040,-0.456,-0.085,0.911,1.312,-2.03,-10.167,
50554050,-0.439,-0.058,0.92,0.752,-0.56,-14.105,
50554060,-0.424,-0.015,0.929,-3.255,2.677,-18.112,
50554070,-0.447,-0.073,0.893,-6.895,5.25,-18.812,
50554080,-0.438,-0.076,0.897,-4.13,7.455,-18.83,
50554090,-0.44,-0.037,0.9,-6.107,8.925,-19.845,
50554100,-0.441,-0.008,0.892,-10.85,10.692,-23.502,
50554110,-0.446,-0.023,0.872,-16.012,10.605,-26.915,
50554120,-0.455,-0.043,0.864,-17.85,9.012,-26.582,
50554130,-0.501,-0.093,0.846,-14.035,4.935,-16.415,
50554140,-0.481,-0.071,0.84,-10.22,0.35,-14.052,
50554150,-0.461,-0.056,0.861,-6.37,-1.662,-17.587,
50554160,-0.464,-0.074,0.867,-3.465,-1.435,-19.95,
50554170,-0.485,-0.109,0.881,1.452,-1.435,-19.687,
50554170,-0.489,-0.112,0.893,5.442,-1.33,-19.04,
50554190,-0.499,-0.109,0.911,9.59,-1.382,-20.807,
50554190,-0.512,-0.108,0.927,12.6,-1.54,-22.785,
50554210,-0.518,-0.113,0.921,15.61,-3.097,-25.025,
50554210,-0.507,-0.104,0.916,20.457,-5.092,-26.897,
50554230,-0.494,-0.055,0.925,22.89,-5.687,-26.127,
50554230,-0.491,-0.061,0.886,23.152,-6.58,-25.147,
50554250,-0.477,-0.046,0.871,28.157,-5.967,-24.395,
50554250,-0.467,-0.002,0.855,30.922,-4.567,-22.557,
50554260,-0.476,0.041,0.828,32.76,-2.502,-20.195,
50554270,-0.483,0.103,0.803,32.795,-0.857,-17.885,
50554280,-0.505,0.159,0.787,31.395,0.577,-16.03,
50554290,-0.544,0.216,0.782,27.965,0.35,-14.542,
50554300,-0.575,0.248,0.781,20.545,-1.907,-14.945,
50554310,-0.612,0.231,0.771,11.602,-6.86,-16.275,
50554320,-0.631,0.211,0.772,1.47,-13.072,-19.18,
50554330,-0.637,0.173,0.784,-8.96,-20.667,-21.91,
50554340,-0.624,0.139,0.802,-18.987,-28.14,-23.94,
50554350,-0.619,0.088,0.819,-27.3,-35.84,-23.52,
50554360,-0.593,0.047,0.855,-33.845,-42.122,-23.992,
50554370,-0.558,0.01,0.88,-40.67,-47.04,-24.815,
50554380,-0.53,-0.03,0.906,-46.445,-49.857,-24.972,
50554390,-0.499,-0.068,0.91,-49.542,-51.975,-25.252,
50554400,-0.476,-0.096,0.916,-49.805,-52.64,-24.552,
50554410,-0.454,-0.13,0.915,-48.195,-52.727,-23.905,
50554420,-0.42,-0.15,0.922,-44.642,-50.802,-23.817,
50554430,-0.392,-0.155,0.922,-40.897,-47.932,-22.505,
50554440,-0.37,-0.156,0.922,-36.942,-43.452,-19.967,
50554450,-0.347,-0.153,0.913,-31.972,-38.412,-16.607,
50554460,-0.341,-0.148,0.92,-27.93,-31.272,-12.337,
50554470,-0.349,-0.142,0.915,-25.9,-24.85,-8.435,
50554480,-0.348,-0.146,0.906,-25.095,-18.585,-4.515,
50554490,-0.342,-0.149,0.902,-23.87,-12.057,-0.385,
50554500,-0.355,-0.141,0.896,-22.68,-5.267,3.797,
50554510,-0.373,-0.136,0.887,-22.085,-0.28,7.402,
50554520,-0.38,-0.137,0.878,-22.05,3.797,9.66,
50554530,-0.395,-0.148,0.875,-21.98,6.965,10.71,
50554540,-0.401,-0.16,0.865,-20.772,9.222,10.465,
50554550,-0.399,-0.177,0.853,-18.13,11.41,9.642,
50554560,-0.402,-0.183,0.855,-12.477,13.055,8.26,
50554570,-0.415,-0.178,0.861,-7.525,13.737,6.965,
50554580,-0.424,-0.174,0.86,-3.832,12.565,5.582,
50554580,-0.425,-0.174,0.859,-0.07,10.605,4.287,
50554600,-0.427,-0.177,0.85,3.902,8.312,3.325,
50554600,-0.423,-0.181,0.846,9.03,6.842,2.065,
50554620,-0.422,-0.175,0.848,14.367,6.072,0.787,
50554620,-0.425,-0.162,0.855,18.357,5.967,0.297,
50554640,-0.427,-0.155,0.859,20.492,5.617,0.367,
50554640,-0.427,-0.157,0.854,22.05,5.547,0.892,
50554660,-0.431,-0.152,0.853,23.782,6.3,1.242,
50554660,-0.446,-0.147,0.861,25.655,7.84,2.03,
50554670,-0.462,-0.133,0.868,26.635,8.067,2.45,
50554680,-0.48,-0.12,0.871,25.602,7.017,2.292,
50554690,-0.487,-0.112,0.867,24.027,4.602,2.712,
50554700,-0.481,-0.105,0.866,22.977,2.432,3.447,
50554710,-0.48,-0.096,0.864,21.472,0.56,3.972,
50554720,-0.479,-0.093,0.867,20.107,-0.21,4.2,
50554730,-0.475,-0.092,0.868,18.515,-0.752,5.425,
50554740,-0.468,-0.086,0.875,17.045,-0.122,7.42,
50554750,-0.456,-0.077,0.892,14.525,1.925,8.96,
50554760,-0.472,-0.08,0.904,10.78,5.092,9.257,
50554770,-0.488,-0.081,0.914,7.192,6.212,8.802,
50554780,-0.497,-0.097,0.921,3.92,6.177,9.065,
50554790,-0.493,-0.109,0.922,2.24,5.04,8.75,
50554800,-0.495,-0.116,0.924,1.627,4.042,8.68,
50554810,-0.498,-0.119,0.921,2.187,2.572,8.207,
50554820,-0.495,-0.113,0.918,3.797,1.19,7.367,
50554830,-0.49,-0.101,0.92,5.915,-0.63,6.667,
50554840,-0.484,-0.088,0.921,7.402,-2.187,6.177,
50554850,-0.482,-0.082,0.918,7.612,-4.06,5.88,
50554860,-0.468,-0.072,0.908,7.525,-5.53,5.757,
50554870,-0.454,-0.068,0.905,7.297,-5.88,6.23,
50554880,-0.457,-0.062,0.897,6.982,-5.337,6.317,
50554890,-0.456,-0.058,0.894,7.087,-4.707,6.247,
50554900,-0.453,-0.051,0.884,7.507,-3.78,6.772,
50554910,-0.452,-0.04,0.88,7.962,-2.677,6.65,
50554920,-0.459,-0.029,0.881,7.332,-1.75,6.492,
50554920,-0.467,-0.023,0.885,5.897,-1.837,6.02,
50554940,-0.469,-0.028,0.883,4.252,-2.957,5.652,
50554940,-0.462,-0.03,0.885,2.765,-4.252,5.337,
50554960,-0.455,-0.031,0.888,1.452,-5.075,5.162,
50554960,-0.446,-0.035,0.888,-0.157,-4.795,4.777,
50554980,-0.437,-0.044,0.888,-1.645,-3.727,4.112,
50554980,-0.434,-0.052,0.885,-2.73,-2.135,3.797,
50555000,-0.434,-0.06,0.887,-2.957,-0.682,3.867,
50555000,-0.439,-0.059,0.885,-2.992,0.665,4.147,
50555010,-0.442,-0.06,0.887,-2.607,1.382,4.375,
50555020,-0.449,-0.062,0.888,-2.835,1.855,4.812,
50555030,-0.449,-0.066,0.89,-3.062,2.012,5.11,
50555040,-0.452,-0.065,0.888,-3.272,2.642,5.512,
50555050,-0.451,-0.062,0.89,-3.045,3.097,5.67,
50555060,-0.453,-0.058,0.893,-3.027,3.885,5.827,
50555070,-0.458,-0.053,0.894,-3.395,4.13,5.862,
50555080,-0.465,-0.052,0.892,-4.427,4.235,6.072,
50555090,-0.466,-0.053,0.887,-5.232,3.552,6.195,
50555100,-0.464,-0.055,0.879,-5.617,3.29,6.475,
50555110,-0.453,-0.054,0.874,-5.355,3.412,6.405,
50555120,-0.45,-0.048,0.872,-4.707,4.392,6.72,
50555130,-0.453,-0.04,0.871,-4.375,5.075,7.402,
50555140,-0.463,-0.038,0.872,-4.672,5.967,7.84,
50555150,-0.476,-0.042,0.869,-5.617,6.107,7.945,
50555160,-0.481,-0.049,0.869,-6.877,6.142,7.98,
50555170,-0.489,-0.058,0.868,-7.525,5.687,8.067,
50555180,-0.498,-0.063,0.868,-7.752,5.425,8.19,
50555190,-0.507,-0.063,0.869,-8.365,4.567,8.435,
50555200,-0.512,-0.065,0.869,-9.31,3.815,8.277,
50555210,-0.519,-0.071,0.867,-9.852,2.45,7.647,
50555220,-0.519,-0.078,0.87,-9.1,1.382,7.385,
50555230,-0.519,-0.074,0.868,-9.467,0.175,8.33,
50555240,-0.515,-0.073,0.864,-9.957,-0.875,9.012,
50555250,-0.506,-0.076,0.859,-9.835,-1.382,9.397,
50555260,-0.498,-0.079,0.863,-8.487,-1.207,10.377,
50555270,-0.498,-0.076,0.867,-7.63,-0.805,11.795,
50555280,-0.496,-0.074,0.873,-6.93,-0.245,12.075,
50555290,-0.49,-0.072,0.876,-6.895,0.647,11.865,
50555300,-0.488,-0.069,0.88,-6.93,1.452,12.565,
50555310,-0.495,-0.079,0.875,-5.985,1.715,14.647,
50555320,-0.486,-0.071,0.887,-4.2,2.03,15.015,
50555330,-0.481,-0.055,0.893,-5.39,2.607,14.612,
50555330,-0.481,-0.062,0.892,-6.632,2.87,13.387,
50555350,-0.478,-0.074,0.891,-6.615,3.342,11.795,
50555350,-0.477,-0.072,0.895,-5.162,3.307,10.78,
50555370,-0.481,-0.067,0.897,-4.2,2.712,10.692,
50555370,-0.481,-0.069,0.899,-3.342,1.505,10.482,
50555380,-0.475,-0.067,0.893,-3.185,0.507,10.062,
50555390,-0.465,-0.065,0.89,-2.415,-0.332,9.45,
50555400,-0.458,-0.062,0.886,-1.575,-0.455,8.277,
50555410,-0.453,-0.06,0.882,-0.892,-0.56,6.842,
50555420,-0.452,-0.06,0.879,-0.402,-0.49,6.3,
50555430,-0.448,-0.055,0.873,0.157,-0.927,6.282,
50555440,-0.446,-0.044,0.868,-0.157,-1.172,5.915,
50555450,-0.444,-0.044,0.856,-0.525,-1.715,4.812,
50555460,-0.428,-0.043,0.876,1.207,-0.997,3.307,
50555470,-0.434,-0.001,0.883,-6.037,0.227,4.48,
50555480,-0.454,-0.026,0.852,-14.472,0.157,4.462,
50555490,-0.437,-0.068,0.834,-13.492,0.035,0.28,
50555500,-0.444,-0.073,0.837,-8.75,0.752,-1.242,
50555510,-0.474,-0.064,0.84,-5.46,-0.805,0.28,
50555520,-0.456,-0.057,0.855,-2.607,-2.73,-1.19,
50555530,-0.455,-0.052,0.868,-3.727,-3.727,-2.187,
50555540,-0.464,-0.065,0.873,-6.562,-3.902,-2.8,
50555550,-0.463,-0.073,0.872,-8.907,-4.182,-4.112,
50555560,-0.471,-0.094,0.866,-9.082,-4.76,-4.462,
50555570,-0.479,-0.095,0.875,-6.86,-5.862,-4.83,
50555580,-0.479,-0.086,0.884,-6.72,-6.807,-4.532,
50555590,-0.484,-0.093,0.874,-7.962,-7.262,-4.2,
50555600,-0.456,-0.077,0.895,-7.892,-6.02,-6.16,
50555610,-0.481,-0.099,0.881,-8.295,-4.655,-4.97,
50555620,-0.486,-0.106,0.881,-4.217,-3.36,-4.812,
50555630,-0.49,-0.084,0.891,-2.432,-2.45,-4.41,
50555640,-0.502,-0.081,0.883,-3.78,-1.767,-2.8,
50555650,-0.53,-0.117,0.871,-2.152,-2.747,1.785,
50555660,-0.493,-0.077,0.876,-0.28,-3.535,-1.435,
50555670,-0.512,-0.08,0.882,0.805,-3.202,-0.49,
50555670,-0.526,-0.084,0.881,-0.857,-4.112,1.75,
50555690,-0.496,-0.076,0.865,-2.292,-5.617,-0.192,
50555690,-0.496,-0.089,0.87,0.227,-5.302,-0.507,
50555710,-0.499,-0.076,0.87,0.682,-4.935,0.7,
50555710,-0.492,-0.062,0.868,-0.017,-5.04,0.49,
50555730,-0.488,-0.068,0.866,-0.787,-4.795,0.577,
50555730,-0.489,-0.069,0.866,-1.365,-4.987,1.417,
50555750,-0.487,-0.066,0.862,-2.537,-5.32,2.555,
50555750,-0.479,-0.068,0.859,-2.45,-5.81,3.395,
50555760,-0.478,-0.068,0.863,-1.61,-5.32,4.025,
50555770,-0.482,-0.062,0.872,-1.487,-5.057,4.812,
50555780,-0.486,-0.06,0.873,-2.905,-4.935,5.495,
50555790,-0.487,-0.067,0.874,-4.025,-5.46,5.355,
50555800,-0.484,-0.074,0.876,-4.305,-6.02,5.18,
50555810,-0.482,-0.079,0.876,-3.657,-7.017,5.46,
50555820,-0.477,-0.08,0.882,-2.485,-7.21,5.705,
50555830,-0.476,-0.078,0.889,-1.592,-7.525,5.792,
50555840,-0.471,-0.08,0.884,-0.997,-7.595,5.827,
50555850,-0.455,-0.082,0.909,1.505,-7.56,5.25,
50555860,-0.463,-0.053,0.918,-3.43,-6.037,8.61,
50555870,-0.485,-0.113,0.88,-6.02,-8.26,11.987,
50555880,-0.434,-0.1,0.891,0.857,-7.35,5.162,
50555890,-0.449,-0.086,0.907,2.625,-5.005,5.582,
50555900,-0.457,-0.079,0.902,0.262,-3.447,6.247,
50555910,-0.456,-0.094,0.881,-1.172,-3.605,6.842,
50555920,-0.436,-0.096,0.874,1.12,-2.817,6.09,
50555930,-0.442,-0.084,0.877,3.745,-1.89,6.212,
50555940,-0.449,-0.076,0.873,4.007,-1.435,7.227,
50555950,-0.451,-0.085,0.865,3.867,-1.977,7.91,
50555960,-0.444,-0.089,0.869,4.707,-1.54,7.56,
50555970,-0.457,-0.088,0.872,5.635,-1.26,7.035,
50555980,-0.457,-0.089,0.882,7.175,-1.47,5.582,
50555990,-0.457,-0.082,0.885,7.875,-1.977,4.76,
50556000,-0.461,-0.08,0.885,7.805,-2.677,4.777,
50556010,-0.457,-0.071,0.881,7.752,-3.36,3.902,
50556020,-0.458,-0.07,0.877,7.735,-3.937,3.237,
50556030,-0.464,-0.075,0.869,8.802,-4.392,2.31,
50556040,-0.467,-0.072,0.871,10.657,-4.655,1.855,
50556050,-0.475,-0.062,0.874,11.585,-4.812,1.662,
50556060,-0.482,-0.057,0.876,11.952,-5.127,1.61,
50556070,-0.48,-0.054,0.877,12.04,-5.232,1.627,
50556070,-0.478,-0.055,0.868,12.425,-4.795,2.047,
50556080,-0.474,-0.05,0.869,12.915,-3.237,2.765,
50556090,-0.48,-0.044,0.866,12.897,-1.575,3.675,
50556100,-0.485,-0.038,0.864,12.442,0.682,4.217,
50556110,-0.491,-0.034,0.869,11.707,2.432,4.375,
50556120,-0.484,-0.026,0.865,9.695,4.655,3.99,
50556130,-0.477,-0.022,0.87,7.017,6.65,4.042,
50556140,-0.475,-0.02,0.874,3.43,9.782,4.725,
50556150,-0.493,-0.019,0.871,-0.612,12.512,5.495,
50556160,-0.495,-0.019,0.863,-4.322,14.595,5.792,
50556170,-0.48,-0.011,0.852,-7.77,17.255,6.79,
50556180,-0.471,-0.005,0.865,-11.935,22.68,8.435,
50556190,-0.5,0.001,0.845,-15.522,26.372,10.85,
50556200,-0.508,0.008,0.842,-19.425,29.767,12.74,
50556210,-0.509,0.008,0.842,-23.905,32.13,13.142,
50556220,-0.534,0.001,0.841,-27.982,34.475,13.912,
50556230,-0.541,0.002,0.843,-31.605,34.895,12.915,
50556240,-0.542,0.01,0.857,-37.922,34.895,11.812,
50556250,-0.558,0.004,0.862,-47.53,34.247,11.27,
50556260,-0.569,-0.009,0.853,-57.4,33.005,7.822,
50556270,-0.582,-0.027,0.833,-67.34,30.345,3.587,
50556280,-0.595,-0.073,0.803,-73.797,26.442,0.367,
50556290,-0.574,-0.067,0.811,-76.195,20.86,-6.335,
50556300,-0.585,-0.085,0.788,-80.465,13.422,-7.437,
50556310,-0.576,-0.13,0.785,-78.61,4.567,-7.35,
50556320,-0.579,-0.141,0.801,-76.282,-4.147,-6.352,
50556330,-0.56,-0.177,0.785,-74.13,-12.162,-8.12,
50556340,-0.52,-0.208,0.835,-63.892,-15.032,-13.142,
50556350,-0.531,-0.207,0.87,-61.145,-15.907,-11.917,
50556360,-0.534,-0.222,0.891,-60.9,-16.555,-12.092,
50556370,-0.518,-0.255,0.896,-59.43,-17.272,-13.002,
50556380,-0.5,-0.28,0.897,-57.715,-16.432,-12.985,
50556390,-0.476,-0.292,0.889,-54.862,-13.93,-11.567,
50556400,-0.464,-0.299,0.913,-51.065,-10.815,-7.612,
50556410,-0.402,-0.365,0.905,-49.892,-6.037,-4.322,
50556420,-0.349,-0.414,0.872,-38.36,6.177,-0.192,
50556420,-0.449,-0.386,0.899,-15.155,18.865,5.915,
50556440,-0.517,-0.323,0.943,-3.832,24.745,11.252,
50556440,-0.532,-0.289,0.928,-4.585,26.932,14.542,
50556460,-0.54,-0.293,0.899,-5.722,25.217,15.4,
50556460,-0.526,-0.294,0.88,-6.177,25.112,18.952,
50556480,-0.531,-0.274,0.839,-8.697,26.932,23.677,
50556480,-0.542,-0.27,0.805,-7.542,28.805,24.062,
50556500,-0.575,-0.257,0.798,-3.675,29.662,29.067,
50556500,-0.593,-0.182,0.779,-10.587,27.562,30.94,
50556510,-0.553,-0.252,0.746,-4.13,24.71,15.925,
50556520,-0.591,-0.209,0.774,4.41,26.6,11.795,
50556530,-0.63,-0.167,0.78,-2.432,23.03,11.847,
50556540,-0.621,-0.194,0.763,-4.235,18.252,6.44,
50556550,-0.63,-0.199,0.778,-2.852,13.615,2.52,
50556560,-0.641,-0.185,0.788,-3.29,7.402,-1.277,
50556570,-0.609,-0.183,0.783,-4.567,0,-4.042,
50556580,-0.562,-0.188,0.775,-5.705,-3.115,-4.025,
50556590,-0.525,-0.199,0.774,-5.04,-1.837,-2.292,
50556600,-0.525,-0.21,0.758,-3.587,2.8,1.872,
50556610,-0.525,-0.198,0.772,-0.227,8.697,6.86,
50556620,-0.556,-0.209,0.781,3.325,14.42,11.882,
50556630,-0.577,-0.229,0.781,5.845,17.08,15.68,
50556640,-0.582,-0.235,0.785,10.517,18.41,18.707,
50556650,-0.606,-0.237,0.799,14.297,18.882,20.335,
50556660,-0.605,-0.244,0.799,17.15,19.862,20.16,
50556670,-0.636,-0.249,0.809,22.085,20.125,20.702,
50556680,-0.674,-0.25,0.815,25.777,17.167,22.61,
50556690,-0.657,-0.255,0.814,29.61,12.04,22.172,
50556700,-0.637,-0.248,0.807,33.827,8.61,21.997,
50556710,-0.637,-0.231,0.804,36.365,6.527,19.512,
50556720,-0.631,-0.216,0.805,37.415,5.477,13.247,
50556730,-0.646,-0.212,0.806,37.887,3.937,9.1,
50556740,-0.647,-0.224,0.787,38.027,0.157,5.687,
50556750,-0.621,-0.219,0.785,41.895,-3.517,0.105,
50556760,-0.604,-0.198,0.788,44.625,-5.88,-4.55,
50556760,-0.589,-0.178,0.797,45.657,-7.332,-8.19,
50556780,-0.591,-0.185,0.786,45.36,-9.047,-9.73,
50556780,-0.591,-0.198,0.784,48.247,-10.745,-12.495,
50556800,-0.591,-0.193,0.785,50.697,-11.882,-16.695,
50556800,-0.596,-0.189,0.784,52.395,-12.74,-21,
50556820,-0.597,-0.171,0.787,53.34,-13.632,-25.9,
50556820,-0.596,-0.185,0.763,55.685,-14.63,-32.042,
50556830,-0.572,-0.151,0.78,61.985,-15.05,-38.867,
50556840,-0.585,-0.129,0.783,64.067,-16.047,-38.815,
50556850,-0.579,-0.113,0.776,64.592,-17.692,-39.077,
50556860,-0.563,-0.086,0.77,64.522,-17.867,-40.495,
50556870,-0.567,-0.065,0.769,62.982,-16.38,-40.897,
50556880,-0.57,-0.043,0.77,59.955,-13.807,-42.507,
50556890,-0.563,-0.024,0.759,54.705,-11.532,-45.237,
50556900,-0.555,-0.018,0.747,48.895,-7.472,-48.037,
50556910,-0.561,-0.016,0.727,43.417,-2.205,-49.98,
50556920,-0.572,-0.015,0.73,37.87,3.482,-53.515,
50556930,-0.631,-0.022,0.728,32.655,5.145,-52.43,
50556940,-0.671,-0.019,0.733,26.582,1.54,-51.38,
50556950,-0.653,-0.012,0.73,18.515,-4.515,-53.305,
50556960,-0.616,-0.019,0.724,9.012,-6.667,-55.492,
50556970,-0.598,-0.041,0.722,1.837,-5.582,-55.562,
50556980,-0.586,-0.049,0.724,-4.9,-1.417,-54.67,
50556990,-0.598,-0.056,0.733,-10.255,3.377,-54.18,
50557000,-0.602,-0.058,0.744,-16.835,7.665,-55.702,
50557010,-0.663,-0.122,0.715,-20.877,7.14,-49.14,
50557020,-0.639,-0.14,0.725,-13.912,4.48,-44.432,
50557030,-0.624,-0.107,0.753,-10.85,3.78,-40.897,
50557040,-0.631,-0.105,0.771,-13.982,4.637,-34.492,
50557050,-0.624,-0.132,0.769,-16.345,5.617,-29.925,
50557060,-0.624,-0.16,0.768,-15.435,8.417,-27.23,
50557070,-0.633,-0.17,0.78,-11.392,10.85,-23.94,
50557080,-0.648,-0.174,0.789,-8.26,12.18,-22.977,
50557090,-0.649,-0.181,0.799,-4.62,12.582,-24.08,
50557100,-0.651,-0.186,0.813,-2.222,12.145,-23.887,
50557110,-0.659,-0.183,0.819,-1.907,10.167,-24.675,
50557120,-0.673,-0.193,0.816,-2.012,6.3,-25.69,
50557130,-0.659,-0.217,0.814,-1.487,1.365,-26.46,
50557140,-0.634,-0.228,0.807,0.63,-2.31,-26.757,
50557150,-0.62,-0.227,0.812,3.465,-3.5,-26.67,
50557160,-0.61,-0.224,0.815,6.562,-3.797,-26.687,
50557170,-0.604,-0.218,0.814,9.502,-3.727,-26.88,
50557170,-0.597,-0.215,0.809,12.092,-3.447,-27.177,
50557190,-0.592,-0.203,0.798,15.365,-3.307,-26.302,
50557190,-0.589,-0.182,0.793,17.937,-2.975,-24.885,
50557210,-0.583,-0.171,0.791,20.317,-2.432,-23.1,
50557210,-0.589,-0.16,0.785,20.387,-2.292,-20.632,
50557230,-0.583,-0.154,0.77,20.44,-1.662,-19.11,
50557230,-0.579,-0.14,0.765,22.067,-0.192,-18.795,
50557250,-0.586,-0.116,0.764,23.485,1.295,-17.797,
50557250,-0.585,-0.088,0.765,21.927,2.555,-18.165,
50557260,-0.59,-0.078,0.76,18.147,3.43,-18.847,
50557270,-0.593,-0.063,0.739,13.86,3.29,-19.932,
50557280,-0.594,-0.052,0.727,11.147,2.975,-21.525,
50557290,-0.609,-0.035,0.734,7.595,1.82,-23.66,
50557300,-0.635,-0.026,0.732,2.415,-0.91,-26.565,
50557310,-0.64,-0.026,0.731,-2.922,-5.652,-30.38,
50557320,-0.65,-0.022,0.734,-7.63,-11.637,-32.655,
50557330,-0.656,-0.012,0.731,-12.442,-19.775,-32.27,
50557340,-0.647,-0.018,0.725,-17.85,-28.035,-31.272,
50557350,-0.636,-0.021,0.712,-21.07,-35.28,-29.575,
50557360,-0.618,-0.015,0.693,-22.277,-40.267,-27.807,
50557370,-0.602,-0.004,0.669,-20.965,-42.945,-27.16,
50557380,-0.605,0.008,0.677,-18.742,-43.75,-25.025,
50557390,-0.476,-0.04,0.854,-21.84,-41.23,-21.507,
50557400,-0.355,-0.217,0.769,-31.552,-22.067,-10.762,
50557410,-0.481,-0.231,0.813,-20.632,3.01,-1.032,
50557420,-0.623,-0.224,0.893,-6.895,15.802,8.435,
50557430,-0.671,-0.224,0.906,-3.307,14.035,20.002,
50557440,-0.652,-0.227,0.946,-9.66,10.64,25.34,
50557450,-0.661,-0.277,0.92,-16.8,5.862,25.812,
50557460,-0.625,-0.325,0.884,-15.102,4.55,22.907,
50557470,-0.595,-0.302,0.921,-9.66,4.112,16.922,
50557480,-0.605,-0.266,0.945,-9.712,3.867,10.955,
50557490,-0.634,-0.263,0.946,-15.172,-0.35,6.335,
50557500,-0.601,-0.283,0.894,-20.177,-7.455,0.525,
50557510,-0.543,-0.281,0.874,-19.617,-12.705,-4.287,
50557510,-0.55,-0.278,0.866,-13.667,-15.68,-5.67,
50557530,-0.567,-0.234,0.865,-13.65,-21.927,-2.485,
50557530,-0.51,-0.254,0.821,-12.862,-28.84,-3.325,
50557550,-0.453,-0.268,0.796,-4.707,-29.75,-4.83,
50557550,-0.448,-0.238,0.808,5.022,-26.565,-4.567,
50557570,-0.483,-0.218,0.822,9.135,-24.517,-4.06,
50557570,-0.49,-0.242,0.81,10.447,-24.692,-4.147,
50557580,-0.475,-0.279,0.797,15.155,-24.552,-2.957,
50557590,-0.491,-0.278,0.808,23.135,-24.36,1.627,
50557600,-0.502,-0.257,0.817,28.84,-24.255,4.795,
50557610,-0.502,-0.249,0.824,32.095,-24.255,5.267,
50557620,-0.499,-0.246,0.83,34.055,-23.467,5.232,
50557630,-0.498,-0.239,0.833,34.93,-22.75,5.95,
50557640,-0.486,-0.225,0.842,34.317,-21.017,7.595,
50557650,-0.474,-0.208,0.842,32.252,-18.62,9.362,
50557660,-0.475,-0.193,0.84,29.785,-15.12,11.532,
50557670,-0.49,-0.182,0.835,27.79,-12.407,14.017,
50557680,-0.495,-0.17,0.838,26.88,-10.097,14.875,
50557690,-0.502,-0.159,0.838,25.882,-8.505,15.365,
50557700,-0.518,-0.146,0.838,24.01,-7.28,15.54,
50557710,-0.53,-0.136,0.836,21.175,-7.84,16.31,
50557720,-0.523,-0.136,0.834,17.955,-8.54,17.5,
50557730,-0.518,-0.132,0.827,15.207,-8.837,19.057,
50557740,-0.515,-0.125,0.83,13.195,-7.665,20.352,
50557750,-0.524,-0.118,0.826,11.34,-6.597,20.982,
50557760,-0.524,-0.115,0.825,9.432,-5.302,20.825,
50557770,-0.526,-0.111,0.824,7.542,-4.795,20.475,
50557780,-0.517,-0.104,0.824,5.442,-3.972,20.597,
50557790,-0.51,-0.098,0.824,2.817,-2.537,21.192,
50557800,-0.515,-0.098,0.825,-0.437,-0.402,22.102,
50557810,-0.529,-0.101,0.828,-4.252,1.085,22.732,
50557820,-0.542,-0.111,0.822,-8.207,1.61,24.745,
50557830,-0.543,-0.12,0.815,-11.007,1.89,26.162,
50557840,-0.545,-0.122,0.812,-12.967,3.71,26.617,
50557850,-0.53,-0.115,0.812,-14.735,7.017,24.255,
50557860,-0.542,-0.119,0.803,-15.575,10.36,28.315,
50557870,-0.548,-0.11,0.803,-16.257,13.685,33.74,
50557880,-0.56,-0.095,0.803,-18.83,17.43,36.925,
50557890,-0.573,-0.099,0.803,-23.152,21.542,38.57,
50557900,-0.577,-0.107,0.804,-27.107,25.252,39.27,
50557910,-0.585,-0.116,0.802,-29.68,28.262,41.58,
50557920,-0.597,-0.111,0.803,-30.8,30.1,42.682,
50557920,-0.611,-0.105,0.806,-32.375,30.835,42.647,
50557940,-0.626,-0.106,0.807,-34.527,30.275,41.527,
50557940,-0.634,-0.113,0.797,-35.91,28.472,39.952,
50557960,-0.626,-0.112,0.793,-35.105,25.62,39.077,
50557960,-0.619,-0.094,0.812,-34.125,22.347,41.79,
50557980,-0.642,-0.095,0.818,-35.21,17.272,49.507,
50557980,-0.639,-0.128,0.823,-35.577,11.112,55.317,
50558000,-0.615,-0.12,0.809,-36.102,6.23,56.122,
50558000,-0.6,-0.145,0.825,-33.092,4.427,53.707,
50558010,-0.612,-0.143,0.822,-31.377,4.217,52.587,
50558020,-0.591,-0.162,0.823,-28.157,4.095,48.86,
50558030,-0.587,-0.142,0.823,-24.937,4.882,45.272,
50558040,-0.588,-0.141,0.843,-21.367,5.565,41.352,
50558050,-0.592,-0.125,0.844,-23.047,4.567,37.852,
50558060,-0.582,-0.151,0.844,-21.927,3.027,34.895,
50558070,-0.58,-0.149,0.847,-20.125,1.452,33.022,
50558080,-0.578,-0.151,0.836,-19.337,-0.105,29.732,
50558090,-0.555,-0.114,0.855,-18.917,-1.225,23.292,
50558100,-0.572,-0.141,0.847,-21.525,-3.167,22.032,
50558110,-0.571,-0.164,0.823,-19.337,-7.35,20.265,
50558120,-0.555,-0.159,0.833,-12.145,-11.182,16.45,
50558130,-0.553,-0.138,0.845,-7.542,-14.35,14.245,
50558140,-0.552,-0.144,0.833,-5.407,-17.255,14.315,
50558150,-0.526,-0.14,0.838,-1.47,-19.267,13.02,
50558160,-0.524,-0.117,0.832,-1.68,-19.565,12.11,
50558170,-0.518,-0.109,0.821,-1.662,-19.46,11.182,
50558180,-0.503,-0.105,0.822,-1.942,-18.357,11.462,
50558190,-0.511,-0.125,0.805,-2.135,-16.485,13.142,
50558200,-0.502,-0.09,0.825,-1.505,-13.037,14,
50558210,-0.526,-0.113,0.8,-5.547,-9.397,14.892,
50558220,-0.537,-0.098,0.805,-7.612,-4.795,13.37,
50558230,-0.563,-0.118,0.79,-10.99,-1.96,11.217,
50558240,-0.593,-0.122,0.806,-9.222,-0.367,11.445,
50558250,-0.629,-0.118,0.793,-11.55,-2.852,13.37,
50558260,-0.638,-0.132,0.803,-10.132,-6.79,13.317,
50558260,-0.632,-0.106,0.798,-13.737,-9.87,11.235,
50558280,-0.63,-0.121,0.787,-15.242,-12.267,9.135,
50558280,-0.625,-0.126,0.785,-13.737,-13.527,7.262,
50558300,-0.622,-0.11,0.781,-12.95,-14.735,7.245,
50558300,-0.615,-0.111,0.786,-11.847,-15.82,9.065,
50558320,-0.589,-0.079,0.782,-13.632,-15.855,10.57,
50558320,-0.573,-0.074,0.777,-15.365,-14.017,12.022,
50558330,-0.576,-0.085,0.786,-15.61,-11.13,15.61,
50558340,-0.577,-0.085,0.787,-18.287,-8.26,18.882,
50558350,-0.582,-0.084,0.806,-20.615,-5.442,21.017,
50558360,-0.589,-0.099,0.804,-25.112,-3.01,22.155,
50558370,-0.585,-0.105,0.816,-27.16,-1.4,21.507,
50558380,-0.602,-0.129,0.813,-29.33,-0.875,21.77,
50558390,-0.599,-0.126,0.831,-30.205,-1.872,18.812,
50558400,-0.597,-0.139,0.831,-33.32,-4.06,15.452,
50558410,-0.591,-0.181,0.828,-34.055,-7.402,12.145,
50558420,-0.576,-0.177,0.851,-35.035,-10.64,7.42,
50558430,-0.569,-0.202,0.857,-35.472,-15.505,1.505,
50558440,-0.569,-0.24,0.868,-32.34,-20.93,-3.745,
50558450,-0.541,-0.239,0.886,-31.412,-27.737,-9.555,
50558460,-0.501,-0.236,0.878,-32.095,-33.285,-16.1,
50558470,-0.464,-0.266,0.871,-27.3,-37.222,-21.77,
50558480,-0.44,-0.267,0.876,-20.265,-39.147,-24.552,
50558490,-0.43,-0.257,0.877,-14.262,-41.422,-24.867,
50558500,-0.404,-0.253,0.876,-7.7,-43.277,-26.267,
50558510,-0.376,-0.241,0.884,-0.647,-43.522,-27.807,
50558520,-0.37,-0.238,0.885,5.477,-42.122,-28.052,
50558530,-0.371,-0.242,0.892,12.127,-39.935,-27.982,
50558540,-0.385,-0.235,0.902,16.502,-37.03,-27.895,
50558550,-0.392,-0.229,0.903,18.987,-35.122,-27.51,
50558560,-0.391,-0.225,0.907,20.807,-33.057,-26.792,
50558570,-0.397,-0.212,0.909,20.335,-30.257,-26.442,
50558580,-0.403,-0.201,0.904,17.15,-26.215,-26.547,
50558590,-0.412,-0.201,0.896,12.81,-21.087,-27.09,
50558600,-0.419,-0.198,0.879,7.822,-15.015,-27.247,
50558610,-0.428,-0.192,0.868,2.87,-8.435,-26.232,
50558620,-0.444,-0.188,0.853,-1.785,-2.485,-23.922,
50558630,-0.443,-0.199,0.833,-5.425,2.257,-20.86,
50558640,-0.384,-0.199,0.822,-7.7,10.99,-16.24,
50558650,-0.471,-0.186,0.819,-10.57,19.862,-11.847,
50558660,-0.5,-0.211,0.794,-9.87,22.697,-9.432,
50558670,-0.526,-0.247,0.783,-7.402,22.732,-3.92,
50558670,-0.544,-0.232,0.797,-5.075,21.647,-0.017,
50558690,-0.528,-0.2,0.797,-7.612,20.842,-0.875,
50558690,-0.556,-0.257,0.779,-8.102,19.547,2.415,
50558710,-0.556,-0.281,0.792,-5.232,17.727,5.95,
50558710,-0.526,-0.242,0.803,-6.23,16.8,8.925,
50558730,-0.501,-0.237,0.799,-9.905,19.215,11.287,
50558730,-0.509,-0.265,0.792,-11.707,24.657,13.282,
50558750,-0.507,-0.249,0.793,-13.282,31.15,13.282,
50558750,-0.528,-0.26,0.779,-14.682,36.277,16.152,
50558760,-0.564,-0.273,0.788,-12.127,39.235,23.012,
50558770,-0.555,-0.232,0.791,-13.09,39.917,24.57,
50558780,-0.563,-0.229,0.797,-13.16,41.335,26.337,
50558790,-0.572,-0.204,0.799,-15.382,41.58,26.005,
50558800,-0.589,-0.211,0.786,-16.31,40.53,25.077,
50558810,-0.61,-0.213,0.791,-13.265,37.502,25.392,
50558820,-0.609,-0.18,0.793,-12.075,32.725,23.432,
50558830,-0.604,-0.176,0.788,-9.992,27.51,21.087,
50558840,-0.619,-0.181,0.797,-5.477,22.312,20.475,
50558850,-0.613,-0.154,0.804,-2.8,16.467,17.797,
50558860,-0.613,-0.136,0.817,-0.822,11.462,14.245,
50558870,-0.617,-0.125,0.83,0.647,6.772,10.115,
50558880,-0.614,-0.115,0.848,0.98,2.397,5.652,
50558890,-0.612,-0.11,0.863,-0.157,-1.925,1.172,
50558900,-0.612,-0.106,0.881,-1.82,-5.285,-3.377,
50558910,-0.609,-0.092,0.907,-4.357,-7.997,-8.452,
50558920,-0.592,-0.081,0.924,-9.03,-9.817,-14.105,
50558930,-0.573,-0.107,0.939,-13.02,-11.357,-18.217,
50558940,-0.529,-0.118,0.93,-18.042,-11.76,-19.565,
50558950,-0.513,-0.196,0.919,-16.572,-11.077,-16.222,
50558960,-0.469,-0.182,0.926,-15.977,-7.332,-14.402,
50558970,-0.463,-0.203,0.898,-18.48,-1.68,-14.35,
50558980,-0.5,-0.272,0.866,-18.13,5.39,-15.05,
50558990,-0.559,-0.33,0.831,-13.755,10.132,-15.032,
50559000,-0.624,-0.361,0.8,-6.09,10.885,-14.962,
50559010,-0.664,-0.373,0.77,2.012,8.05,-15.312,
50559010,-0.677,-0.376,0.742,8.89,3.622,-16.17,
50559030,-0.677,-0.369,0.719,13.23,-0.087,-17.815,
50559030,-0.662,-0.338,0.697,12.775,-2.187,-20.02,
50559050,-0.625,-0.322,0.651,8.627,-1.75,-22.54,
50559050,-0.589,-0.337,0.616,7.21,2.467,-22.785,
50559070,-0.581,-0.329,0.594,5.897,8.697,-17.587,
50559070,-0.549,-0.284,0.586,3.482,14.595,-11.795,
50559080,-0.528,-0.273,0.581,-2.117,20.23,-1.312,
50559090,-0.482,-0.263,0.569,-9.292,27.125,9.625,
50559100,-0.442,-0.201,0.564,-17.465,37.537,19.145,
50559110,-0.484,-0.219,0.552,-23.327,48.72,33.215,
50559120,-0.515,-0.196,0.556,-26.81,57.872,44.66,
50559130,-0.53,-0.148,0.563,-32.882,63.49,47.162,
50559140,-0.591,-0.176,0.556,-35.805,66.15,49.525,
50559150,-0.634,-0.19,0.567,-33.705,63.98,51.992,
50559160,-0.653,-0.17,0.583,-30.59,58.695,53.375,
50559170,-0.686,-0.174,0.602,-25.357,51.485,53.742,
50559180,-0.705,-0.166,0.634,-20.037,43.575,52.36,
50559190,-0.704,-0.143,0.658,-18.077,34.982,45.482,
50559200,-0.711,-0.139,0.675,-17.605,27.825,36.085,
50559210,-0.724,-0.146,0.693,-17.325,20.457,27.212,
50559220,-0.724,-0.152,0.701,-16.012,12.827,19.635,
50559230,-0.715,-0.149,0.711,-13.93,5.215,12.407,
50559240,-0.721,-0.142,0.722,-11.935,-1.242,5.302,
50559250,-0.72,-0.128,0.718,-9.397,-9.187,-2.397,
50559260,-0.696,-0.12,0.711,-5.74,-17.185,-8.277,
50559270,-0.656,-0.126,0.731,0,-23.432,-11.602,
50559280,-0.629,-0.112,0.764,5.862,-25.007,-15.225,
50559290,-0.661,-0.099,0.801,9.922,-23.31,-17.902,
50559300,-0.702,-0.116,0.839,9.292,-22.207,-21.332,
50559310,-0.71,-0.159,0.858,3.64,-24.325,-27.125,
50559320,-0.704,-0.23,0.839,-2.065,-27.23,-31.622,
50559330,-0.687,-0.278,0.825,-3.762,-29.54,-33.372,
50559340,-0.676,-0.301,0.808,-2.87,-29.4,-31.08,
50559350,-0.677,-0.314,0.817,-0.84,-26.652,-26.477,
50559360,-0.537,-0.348,0.851,-0.07,-17.15,-21.437,
50559370,-0.536,-0.427,0.78,-1.942,7.63,-9.625,
50559380,-0.759,-0.39,0.822,3.027,25.69,-0.245,
50559390,-0.738,-0.397,0.801,6.562,30.922,6.807,
50559400,-0.884,-0.353,0.768,6.947,27.107,17.71,
50559410,-0.913,-0.298,0.761,8.085,13.002,19.407,
50559420,-0.791,-0.3,0.745,4.217,-1.26,15.977,
50559420,-0.695,-0.299,0.736,1.855,-8.4,7.122,
50559440,-0.601,-0.259,0.729,-0.315,-7.367,-1.505,
50559440,-0.591,-0.222,0.73,-1.592,-1.995,-6.125,
50559460,-0.579,-0.202,0.728,-3.815,2.922,-8.015,
50559460,-0.57,-0.192,0.728,-6.107,7.192,-7.21,
50559470,-0.556,-0.176,0.734,-5.705,10.255,-5.215,
50559480,-0.646,-0.242,0.709,0.857,11.637,8.242,
50559490,-0.592,-0.185,0.749,5.652,13.23,8.89,
50559500,-0.659,-0.193,0.75,3.15,16.24,12.967,
50559510,-0.705,-0.236,0.734,-0.035,17.85,12.32,
50559520,-0.754,-0.267,0.718,-2.065,16.52,10.675,
50559530,-0.764,-0.277,0.704,-1.557,13.16,8.032,
50559540,-0.791,-0.27,0.688,-2.117,10.01,5.442,
50559550,-0.814,-0.269,0.668,-3.465,5.652,1.207,
50559560,-0.808,-0.272,0.671,-3.57,1.032,-4.305,
50559570,-0.792,-0.294,0.681,-3.92,-4.042,-8.732,
50559580,-0.775,-0.305,0.686,-3.78,-9.52,-9.047,
50559590,-0.723,-0.298,0.671,-3.78,-14.91,-10.5,
50559600,-0.684,-0.289,0.688,0.245,-16.975,-11.217,
50559610,-0.664,-0.276,0.708,3.272,-19.425,-8.855,
50559620,-0.633,-0.271,0.719,4.97,-22.295,-2.275,
50559630,-0.598,-0.262,0.743,6.23,-24.657,5.11,
50559640,-0.574,-0.272,0.779,8.382,-24.902,9.292,
50559650,-0.537,-0.284,0.792,9.8,-23.765,12.145,
50559660,-0.515,-0.282,0.817,10.85,-19.722,18.007,
50559670,-0.488,-0.306,0.836,9.502,-11.987,25.812,
50559680,-0.475,-0.319,0.875,7.122,0.787,31.937,
50559690,-0.559,-0.342,0.861,0.455,16.31,36.452,
50559700,-0.621,-0.38,0.833,-14.857,25.9,37.957,
50559710,-0.625,-0.363,0.795,-25.497,34.352,38.622,
50559720,-0.514,-0.392,0.768,-21.542,46.217,36.89,
50559730,-0.54,-0.407,0.718,-2.87,62.947,38.675,
50559740,-0.666,-0.37,0.705,21.945,75.512,44.747,
50559750,-0.765,-0.321,0.703,41.667,77.052,52.867,
50559760,-0.812,-0.286,0.678,56.122,69.86,59.307,
50559760,-0.804,-0.26,0.658,70.577,61.285,62.317,
50559780,-0.802,-0.198,0.648,80.937,54.547,61.442,
50559780,-0.818,-0.172,0.64,87.692,49.28,56.367,
50559800,-0.817,-0.134,0.623,90.912,43.487,51.607,
50559800,-0.812,-0.11,0.611,92.732,36.627,47.635,
50559820,-0.828,-0.084,0.61,93.625,28.7,43.54,
50559820,-0.828,-0.023,0.616,90.667,19.162,35.507,
50559830,-0.856,-0.022,0.584,86.555,7.035,28.752,
50559840,-0.846,-0.023,0.57,87.202,-6.265,22.33,
50559850,-0.812,0.018,0.561,87.237,-19.092,13.965,
50559860,-0.777,0.059,0.555,87.85,-29.487,3.78,
50559870,-0.752,0.055,0.524,89.95,-37.397,-5.145,
50559880,-0.729,0.15,0.596,91.612,-41.282,-3.99,
50559890,-0.661,0.233,0.537,66.762,-45.045,-11.76,
50559900,-0.631,0.14,0.494,66.955,-44.065,-17.955,
50559910,-0.612,0.135,0.511,72.187,-40.285,-15.26,
50559920,-0.637,0.167,0.528,72.572,-36.925,-5.722,
50559930,-0.627,0.226,0.555,66.832,-33.127,-0.735,
50559940,-0.644,0.218,0.561,56.595,-27.37,2.607,
50559950,-0.672,0.19,0.562,47.18,-21.035,3.5,
50559960,-0.708,0.166,0.574,40.075,-14.297,2.38,
50559970,-0.722,0.176,0.598,33.67,-8.242,-0.875,
50559980,-0.832,0.116,0.599,28.56,-6.107,7.945,
50559990,-0.859,0.117,0.647,26.145,-7.682,7.122,
50560000,-0.886,0.132,0.686,17.412,-10.412,2.345,
50560010,-0.91,0.099,0.704,5.985,-13.685,-3.395,
50560020,-0.904,0.049,0.716,-2.73,-16.1,-13.02,
50560030,-0.858,0.053,0.749,-11.077,-16.24,-29.207,
50560040,-0.783,0.085,0.768,-25.007,-11.812,-50.085,
50560050,-0.752,-0.031,0.71,-27.947,-7.175,-56.245,
50560060,-0.816,-0.161,0.743,-12.442,-6.142,-27.895,
50560070,-0.863,-0.13,0.726,-3.71,-13.982,2.695,
50560080,-0.697,0.026,0.77,4.917,-18.392,-1.977,
50560090,-0.673,0.01,0.783,5.407,-13.947,-2.747,
50560100,-0.673,-0.044,0.756,0.7,-8.12,0.42,
50560110,-0.649,-0.069,0.729,3.185,-3.902,4.252,
50560120,-0.626,-0.05,0.722,13.055,0.892,8.557,
50560130,-0.625,0,0.727,20.492,5.407,12.897,
50560140,-0.671,-0.001,0.732,24.062,6.86,23.187,
50560140,-0.708,-0.005,0.702,26.705,3.325,33.425,
50560160,-0.638,0.063,0.711,29.347,1.505,24.132,
50560160,-0.643,0.065,0.71,28.91,3.692,18.917,
50560170,-0.674,0.044,0.708,28.297,5.39,19.04,
50560180,-0.687,0.047,0.699,28.28,4.83,21.122,
50560190,-0.686,0.071,0.7,30.205,3.815,20.877,
50560200,-0.701,0.09,0.705,30.957,3.342,20.597,
50560210,-0.714,0.102,0.703,29.365,2.222,19.95,
50560220,-0.715,0.107,0.697,26.967,1.487,19.022,
50560230,-0.703,0.117,0.686,25.812,0.927,18.532,
50560240,-0.691,0.132,0.683,25.2,2.187,18.882,
50560250,-0.69,0.143,0.679,23.905,4.795,19.092,
50560260,-0.697,0.15,0.673,21.542,8.487,19.162,
50560270,-0.709,0.149,0.659,19.425,11.392,19.425,
50560280,-0.722,0.152,0.649,18.55,13.982,19.915,
50560290,-0.735,0.165,0.649,18.427,15.785,20.405,
50560300,-0.751,0.182,0.653,17.22,17.447,20.51,
50560310,-0.768,0.191,0.653,14.297,18.06,19.897,
50560320,-0.786,0.189,0.648,10.85,17.92,18.865,
50560330,-0.786,0.187,0.645,7.857,17.01,17.325,
50560340,-0.787,0.188,0.637,5.53,16.17,15.942,
50560350,-0.791,0.188,0.634,3.552,14.507,14.542,
50560360,-0.788,0.185,0.634,1.68,12.705,13.265,
50560370,-0.782,0.187,0.633,0.297,10.675,12.04,
50560380,-0.776,0.188,0.636,-0.717,9.45,10.727,
50560390,-0.773,0.185,0.644,-2.17,8.137,9.275,
50560400,-0.77,0.18,0.646,-4.217,7.035,7.787,
50560410,-0.77,0.172,0.646,-5.67,5.337,6.352,
50560420,-0.771,0.162,0.648,-6.387,3.64,5.145,
50560430,-0.771,0.154,0.653,-6.755,1.295,4.2,
50560440,-0.769,0.145,0.655,-6.947,-0.577,3.307,
50560450,-0.762,0.138,0.661,-6.632,-1.942,2.345,
50560460,-0.751,0.132,0.658,-6.02,-2.205,1.75,
50560470,-0.745,0.132,0.656,-5.302,-1.75,1.557,
50560480,-0.743,0.13,0.653,-4.34,-0.997,1.61,
50560490,-0.737,0.13,0.648,-3.22,-0.402,1.89,
50560500,-0.73,0.129,0.646,-2.24,0.332,2.555,
50560510,-0.726,0.133,0.644,-1.4,1.487,3.412,
50560510,-0.727,0.138,0.645,-0.595,2.625,4.55,
50560530,-0.728,0.145,0.645,-0.07,3.622,5.617,
50560530,-0.732,0.152,0.642,0.087,4.532,6.545,
50560550,-0.731,0.159,0.638,0.157,5.46,7.262,
50560550,-0.735,0.164,0.638,0.192,6.195,7.682,
50560570,-0.741,0.175,0.64,-0.945,7.315,5.18,
50560570,-0.707,0.208,0.652,-4.742,9.485,-2.695,
50560580,-0.781,0.129,0.626,-6.107,10.062,3.272,
50560590,-0.787,0.124,0.63,-3.622,7.017,5.197,
50560600,-0.785,0.16,0.638,-0.875,3.867,4.672,
50560610,-0.792,0.17,0.646,-0.822,1.54,3.955,
50560620,-0.807,0.154,0.634,-2.572,-1.102,4.97,
50560630,-0.791,0.16,0.63,-2.397,-3.71,2.94,
50560640,-0.771,0.183,0.628,-1.925,-4.305,0.157,
50560650,-0.77,0.182,0.626,-2.642,-3.797,-0.875,
50560660,-0.769,0.167,0.616,-3.185,-3.132,1.47,
50560670,-0.753,0.169,0.616,-2.24,-2.45,2.747,
50560680,-0.751,0.188,0.625,-1.96,0,2.992,
50560690,-0.764,0.198,0.632,-3.587,2.03,3.255,
50560700,-0.771,0.196,0.633,-6.527,3.22,3.027,
50560710,-0.776,0.19,0.631,-8.977,3.097,2.222,
50560720,-0.783,0.185,0.635,-10.552,2.66,1.417,
50560730,-0.785,0.179,0.639,-12.04,1.12,0.157,
50560740,-0.783,0.169,0.638,-13.667,-0.472,-1.26,
50560750,-0.774,0.157,0.639,-14.787,-2.17,-2.502,
50560760,-0.766,0.146,0.642,-15.242,-3.272,-3.255,
50560770,-0.758,0.138,0.644,-15.207,-3.972,-3.71,
50560780,-0.752,0.133,0.647,-14.997,-3.797,-3.867,
50560790,-0.752,0.125,0.649,-14.77,-3.867,-3.762,
50560800,-0.753,0.118,0.654,-14.297,-3.797,-3.377,
50560810,-0.759,0.11,0.653,-13.632,-4.515,-2.887,
50560820,-0.75,0.109,0.65,-12.425,-4.637,-2.52,
50560830,-0.74,0.115,0.652,-10.447,-3.57,-1.872,
50560830,-0.751,0.118,0.655,-8.942,-2.362,-0.735,
50560850,-0.758,0.121,0.655,-7.91,-1.75,-0.262,
50560850,-0.751,0.121,0.651,-7.087,-1.557,0.087,
50560870,-0.748,0.121,0.648,-6.177,-1.417,0.525,
50560870,-0.75,0.122,0.647,-5.127,-0.84,0.892,
50560890,-0.75,0.124,0.645,-4.357,-0.455,1.067,
50560890,-0.745,0.129,0.644,-3.64,-0.402,1.505,
50560910,-0.749,0.132,0.643,-3.237,-0.14,1.96,
50560910,-0.758,0.133,0.642,-3.447,0.035,1.872,
50560920,-0.762,0.133,0.641,-3.972,-0.385,1.697,
50560930,-0.759,0.133,0.638,-4.375,-1.33,1.662,
50560940,-0.764,0.134,0.634,-4.742,-2.117,2.345,
50560950,-0.754,0.141,0.635,-5.005,-2.817,1.365,
50560960,-0.757,0.14,0.633,-5.215,-2.572,0.91,
50560970,-0.767,0.138,0.635,-6.23,-2.73,1.12,
50560980,-0.77,0.142,0.636,-7.052,-3.08,0.875,
50560990,-0.77,0.142,0.64,-7.577,-3.535,0.577,
50561000,-0.77,0.142,0.643,-8.942,-3.675,0.07,
50561010,-0.767,0.141,0.641,-10.745,-3.622,-0.402,
50561020,-0.764,0.137,0.639,-12.267,-3.15,-0.647,
50561030,-0.763,0.134,0.637,-13.317,-2.817,-0.892,
50561040,-0.763,0.132,0.637,-13.912,-2.257,-0.822,
50561050,-0.761,0.131,0.636,-14.052,-2.345,-0.542,
50561060,-0.765,0.128,0.634,-13.895,-1.907,-0.07,
50561070,-0.772,0.123,0.635,-13.562,-1.785,0.262,
50561080,-0.778,0.119,0.635,-13.002,-1.855,0.28,
50561090,-0.782,0.119,0.634,-12.372,-2.817,-0.227,
50561100,-0.78,0.122,0.631,-12.075,-3.307,-0.875,
50561110,-0.783,0.125,0.625,-11.987,-4.217,-1.207,
50561120,-0.785,0.128,0.623,-12.127,-5.075,-1.347,
50561130,-0.79,0.129,0.62,-12.6,-6.072,-1.277,
50561140,-0.799,0.126,0.612,-13.58,-6.65,-0.997,
50561150,-0.789,0.133,0.603,-14.087,-7.35,-0.542,
50561160,-0.785,0.147,0.606,-14.752,-7.192,0.91,
50561170,-0.796,0.151,0.61,-16.835,-7.122,2.957,
50561180,-0.805,0.142,0.618,-20.055,-7.42,4.305,
50561190,-0.801,0.139,0.627,-23.24,-8.26,4.077,
50561200,-0.801,0.133,0.637,-26.495,-9.222,3.902,
50561210,-0.797,0.12,0.643,-29.47,-10.517,3.692,
50561220,-0.784,0.099,0.647,-31.272,-11.567,3.185,
50561230,-0.768,0.094,0.649,-32.55,-12.057,2.607,
50561240,-0.766,0.081,0.653,-32.357,-12.267,1.697,
50561250,-0.757,0.079,0.649,-31.22,-12.792,0.665,
50561260,-0.744,0.076,0.647,-28.665,-13.912,0.682,
50561260,-0.73,0.072,0.65,-24.115,-14.507,1.785,
50561280,-0.695,0.105,0.666,-21.63,-14.542,3.097,
50561280,-0.661,0.113,0.651,-21.455,-13.457,3.902,
50561300,-0.642,0.118,0.657,-20.597,-10.535,3.5,
50561300,-0.646,0.127,0.673,-22.61,-7.157,2.642,
50561320,-0.664,0.11,0.703,-25.462,-4.9,1.487,
50561320,-0.694,0.084,0.715,-29.977,-3.727,1.05,
50561330,-0.715,0.068,0.731,-33.74,-3.64,0.542,
50561340,-0.739,0.066,0.748,-36.61,-4.077,0.14,
50561350,-0.77,0.082,0.751,-39.637,-7.437,0.997,
50561360,-0.76,0.072,0.739,-40.705,-12.442,3.92,
50561370,-0.698,0.059,0.731,-34.545,-13.982,10.552,
50561380,-0.653,0.085,0.745,-26.88,-10.237,19.967,
50561390,-0.612,0.085,0.742,-19.53,-3.167,27.51,
50561400,-0.6,0.089,0.748,-12.915,8.557,34.317,
50561410,-0.672,0.066,0.751,-9.187,20.405,39.34,
50561420,-0.73,0.084,0.728,-10.517,27.947,40.635,
50561430,-0.741,0.073,0.682,-14.122,28.997,41.93,
50561440,-0.736,0.025,0.655,-11.095,30.135,43.172,
50561450,-0.73,0.129,0.666,-15.837,34.02,38.237,
50561460,-0.803,0.086,0.628,-27.422,35.21,37.152,
50561470,-0.79,0.056,0.601,-31.727,32.97,30.852,
50561480,-0.791,0.053,0.608,-32.97,30.607,25.042,
50561490,-0.811,0.061,0.584,-37.957,26.95,19.967,
50561500,-0.792,0.034,0.572,-41.037,21.997,10.972,
50561510,-0.766,0.065,0.566,-43.662,16.467,-1.382,
50561520,-0.781,0.04,0.546,-45.377,10.027,-10.797,
50561530,-0.799,0.027,0.563,-42.402,0.927,-16.205,
50561540,-0.82,0.033,0.571,-43.225,-10.955,-18.445,
50561550,-0.782,-0.037,0.612,-40.267,-21.63,-20.265,
50561560,-0.63,-0.116,0.643,-41.335,-22.137,-21.595,
50561570,-0.727,-0.144,0.658,-31.587,-10.92,-17.92,
50561580,-0.803,-0.136,0.715,-14.192,0.49,-9.572,
50561580,-0.847,-0.134,0.727,-9.642,4.725,0.945,
50561600,-0.889,-0.112,0.723,-9.1,4.532,7.665,
50561600,-0.888,-0.132,0.689,-6.562,0.437,13.265,
50561620,-0.84,-0.096,0.671,-2.047,-3.36,16.117,
50561620,-0.799,-0.031,0.642,-0.367,-3.867,16.397,
50561640,-0.776,-0.004,0.604,2.205,-3.15,16.152,
50561640,-0.78,0.058,0.578,4.847,-2.467,15.05,
50561660,-0.831,0.128,0.646,2.94,-4.182,11.707,
50561660,-0.855,0.063,0.55,-14.49,-17.132,4.27,
50561670,-0.64,0.072,0.534,-20.842,-24.517,-7.122,
50561680,-0.66,0.091,0.554,-13.825,-16.922,-10.815,
50561690,-0.761,0.116,0.614,-13.125,-10.727,-16.187,
50561700,-0.77,0.057,0.646,-19.88,-10.937,-20.282,
50561710,-0.769,-0.042,0.688,-18.707,-8.697,-18.392,
50561720,-0.809,-0.079,0.765,-9.695,-2.8,-12.53,
50561730,-0.849,-0.088,0.779,-7.017,0.875,-5.18,
50561740,-0.858,-0.094,0.74,-5.372,-1.942,0.315,
50561750,-0.818,-0.085,0.687,1.872,-9.992,6.562,
50561760,-0.773,-0.045,0.651,12.652,-19.11,13.86,
50561770,-0.706,0.011,0.629,21.91,-25.095,17.587,
50561780,-0.68,0.064,0.628,25.812,-24.692,15.89,
50561790,-0.686,0.097,0.624,22.82,-21.472,9.152,
50561800,-0.703,0.08,0.622,18.305,-18.76,1.907,
50561810,-0.72,0.075,0.633,13.58,-17.062,-2.047,
50561820,-0.755,0.058,0.647,9.24,-16.555,-3.097,
50561830,-0.766,0.041,0.67,4.9,-16.327,-4.252,
50561840,-0.785,0.005,0.688,1.47,-13.247,-5.145,
50561850,-0.791,0.011,0.717,-2.065,-8.102,-7.35,
50561860,-0.834,-0.007,0.722,-7.752,-4.147,-8.557,
50561870,-0.836,-0.036,0.728,-10.622,-4.182,-8.295,
50561880,-0.82,-0.05,0.71,-10.045,-7.21,-5.95,
50561890,-0.8,-0.04,0.694,-6.51,-12.81,-3.22,
50561900,-0.75,-0.031,0.689,-1.487,-18.252,-1.05,
50561910,-0.71,-0.017,0.675,1.995,-20.877,0.28,
50561920,-0.708,0.005,0.67,3.535,-20.335,0.332,
50561930,-0.69,0.037,0.653,2.835,-18.305,-1.015,
50561940,-0.759,0.072,0.66,-2.712,-15.54,-2.415,
50561950,-0.946,0.111,0.691,-13.842,-26.092,-8.767,
50561960,-0.532,-0.057,0.664,-29.05,-35.595,-17.587,
50561970,-0.554,-0.115,0.723,-18.76,-15.435,-15.907,
50561980,-0.88,-0.035,0.815,-7.455,-2.73,-10.377,
50561990,-0.915,-0.045,0.783,-11.27,-14.49,-7.14,
50562000,-0.779,-0.088,0.723,-11.777,-31.097,-5.092,
50562010,-0.703,-0.075,0.686,-3.71,-37.257,-0.945,
50562010,-0.676,0.007,0.693,4.445,-37.327,-1.155,
50562030,-0.645,0.049,0.702,2.59,-34.177,-5.162,
50562030,-0.617,0.03,0.682,-3.797,-29.662,-9.292,
50562050,-0.592,0.013,0.689,-6.86,-23.292,-11.077,
50562050,-0.591,0.007,0.727,-8.802,-14.84,-10.255,
50562070,-0.643,-0.01,0.747,-12.232,-6.475,-8.872,
50562070,-0.702,-0.036,0.742,-14.28,-3.832,-8.067,
50562080,-0.714,-0.05,0.715,-13.037,-6.405,-6.737,
50562090,-0.681,-0.032,0.702,-8.802,-11.357,-4.672,
50562100,-0.64,-0.009,0.715,-3.885,-11.812,-1.855,
50562110,-0.672,-0.003,0.718,-1.347,-8.837,-0.017,
50562120,-0.705,0,0.719,-0.28,-7.752,-0.77,
50562130,-0.709,-0.002,0.734,1.382,-8.802,-1.19,
50562140,-0.709,-0.006,0.742,1.96,-10.36,-0.962,
50562150,-0.692,0.002,0.751,0.717,-10.92,-0.822,
50562160,-0.695,0.008,0.753,-1.715,-8.925,-1.54,
50562170,-0.705,0.008,0.745,-5.425,-7.56,-3.01,
50562180,-0.693,0.001,0.735,-9.012,-6.93,-3.78,
50562190,-0.664,-0.004,0.723,-10.517,-5.95,-3.937,
50562200,-0.659,-0.008,0.72,-10.972,-3.535,-3.622,
50562210,-0.67,-0.019,0.722,-12.145,-1.627,-4.06,
50562220,-0.68,-0.044,0.717,-12.197,-0.56,-5.407,
50562230,-0.706,-0.061,0.725,-10.237,-1.505,-6.055,
50562240,-0.714,-0.066,0.733,-7.945,-3.832,-6.23,
50562250,-0.723,-0.066,0.732,-6.335,-6.72,-6.475,
50562260,-0.719,-0.062,0.728,-5.04,-9.31,-7.017,
50562270,-0.714,-0.051,0.726,-3.815,-11.847,-7.122,
50562280,-0.712,-0.04,0.73,-3.78,-12.915,-7.472,
50562290,-0.713,-0.035,0.732,-4.357,-13.667,-8.662,
50562300,-0.697,-0.035,0.721,-4.707,-14.735,-8.47,
50562310,-0.684,-0.025,0.715,-4.27,-15.452,-6.65,
50562320,-0.666,-0.014,0.732,-3.78,-15.102,-5.092,
50562330,-0.657,-0.019,0.745,-5.302,-13.597,-4.392,
50562330,-0.668,-0.029,0.757,-7.752,-11.952,-5.075,
50562350,-0.686,-0.037,0.755,-10.517,-11.532,-6.177,
50562350,-0.686,-0.047,0.754,-12.512,-12.302,-6.86,
50562370,-0.686,-0.058,0.749,-13.125,-13.212,-7.157,
50562370,-0.694,-0.066,0.751,-12.74,-14.017,-7.63,
50562390,-0.699,-0.079,0.752,-12.162,-15.557,-8.487,
50562390,-0.688,-0.082,0.747,-10.482,-17.377,-9.31,
50562410,-0.678,-0.074,0.74,-8.4,-18.847,-8.855,
50562410,-0.649,-0.067,0.743,-6.615,-19.582,-7.927,
50562420,-0.632,-0.063,0.744,-5.512,-19.162,-6.667,
50562430,-0.603,-0.07,0.745,-4.9,-17.972,-5.145,
50562440,-0.602,-0.073,0.753,-4.515,-15.767,-3.692,
50562450,-0.601,-0.074,0.768,-5.162,-13.667,-3.675,
50562460,-0.602,-0.081,0.77,-6.37,-11.602,-4.41,
50562470,-0.61,-0.082,0.772,-7.192,-9.817,-5.827,
50562480,-0.632,-0.084,0.776,-7.472,-7.84,-7.105,
50562490,-0.661,-0.079,0.787,-7.647,-7.717,-8.435,
50562500,-0.673,-0.074,0.781,-8.33,-9.135,-10.01,
50562510,-0.664,-0.076,0.762,-8.33,-10.92,-10.885,
50562520,-0.664,-0.074,0.754,-7.332,-11.13,-10.255,
50562530,-0.682,-0.073,0.757,-6.965,-11.672,-8.82,
50562540,-0.687,-0.08,0.758,-7.35,-12.25,-7.735,
50562550,-0.693,-0.088,0.76,-7.297,-14.332,-6.702,
50562560,-0.682,-0.094,0.765,-7.245,-16.065,-5.477,
50562570,-0.689,-0.099,0.765,-7.21,-18.235,-4.707,
50562580,-0.67,-0.097,0.77,-6.79,-20.545,-4.812,
50562590,-0.635,-0.092,0.765,-5.582,-23.065,-4.13,
50562600,-0.613,-0.091,0.766,-4.62,-23.047,-2.327,
50562610,-0.614,-0.089,0.775,-3.5,-22.137,-1.54,
50562620,-0.604,-0.096,0.779,-3.43,-21.77,-1.33,
50562630,-0.574,-0.101,0.782,-3.08,-21.07,-1.4,
50562640,-0.568,-0.096,0.783,-2.485,-18.76,-1.522,
50562650,-0.571,-0.093,0.79,-2.467,-16.625,-1.26,
50562660,-0.575,-0.103,0.787,-2.485,-15.487,0.595,
50562670,-0.584,-0.111,0.782,-0.84,-14.98,2.992,
50562680,-0.603,-0.096,0.79,-0.21,-13.86,3.64,
50562690,-0.62,-0.115,0.781,-1.015,-13.807,1.452,
50562700,-0.603,-0.091,0.788,-1.942,-13.387,-2.992,
50562710,-0.603,-0.105,0.783,-2.975,-12.845,-5.442,
50562720,-0.611,-0.106,0.787,-1.382,-12.862,-5.267,
50562730,-0.605,-0.091,0.796,-0.717,-13.772,-3.92,
50562740,-0.601,-0.083,0.801,-1.435,-13.93,-3.185,
50562750,-0.616,-0.091,0.81,-3.132,-13.37,-3.535,
