#Format version: 1.0
time[ms],accX[g],accY[g],accZ[g],Value 1,Value 2,Value 3,
59921710,0.311,-0.262,-0.531,465.272,-159.705,-402.622,
59921720,-0.849,1.997,0.51,362.215,-150.745,-142.817,
59921730,1.998,0.516,1.55,304.57,-195.247,-163.292,
59921740,1.066,-0.787,1.522,335.842,-31.657,-118.562,
59921750,1.353,0.604,1.799,301.385,5.04,-63.14,
59921760,1.443,0.828,1.914,216.65,22.75,33.25,
59921760,0.223,0.323,1.867,95.97,16.292,84.227,
59921780,0.005,0.073,1.336,9.992,-5.215,97.23,
59921780,-0.1,-0.546,0.915,-36.68,-12.582,76.335,
59921800,-0.11,-0.596,0.762,-39.707,-5.18,40.757,
59921800,-0.028,-0.709,0.589,-28.84,2.782,6.072,
59921820,0.287,-0.558,0.718,-10.605,7.507,-18.655,
59921820,0.639,-0.39,0.82,-1.137,11.41,-24.902,
59921830,0.64,-0.392,0.87,1.505,17.045,-11.13,
59921840,0.556,-0.357,0.886,0.997,19.075,7.087,
59921850,0.324,-0.314,1.02,-4.27,22.907,18.305,
59921860,0.201,-0.24,1.159,-19.827,20.37,20.317,
59921870,0.189,-0.181,1.223,-48.335,17.832,18.462,
59921880,0.207,-0.181,1.23,-82.775,12.827,17.08,
59921890,0.291,-0.122,1.228,-119.105,10.22,19.442,
59921900,0.335,-0.169,1.177,-154.105,3.762,27.737,
59921910,0.33,-0.27,1.105,-183.837,-0.717,42.892,
59921920,0.287,-0.299,1.039,-206.78,-9.38,56.7,
59921930,0.179,-0.412,1.043,-224.577,-19.145,67.882,
59921940,0.143,-0.497,1.05,-241.185,-37.87,79.957,
59921950,0.473,-0.522,1.244,-256.445,-50.557,97.09,
59921960,0.703,-0.906,1.519,-263.06,-36.942,110.53,
59921970,0.718,-1.614,1.949,-261.187,-7.612,109.83,
59921980,0.695,-1.998,1.948,-230.3,-5.582,79.992,
59921990,-0.269,-1.998,1.451,-150.622,-60.882,29.295,
59922000,-0.902,-1.818,0.77,-20.037,-77,57.102,
59922010,-0.273,-1.963,0.901,57.067,-28.892,157.412,
59922020,-0.132,-1.282,-0.207,174.072,-94.832,162.347,
59922030,1.769,0.16,-1.103,220.867,-5.845,206.692,
59922040,1.969,1.114,-1.189,117.722,48.457,157.517,
59922050,1.263,0.93,-0.893,10.622,1.382,-1.347,
59922060,0.692,0.448,-0.22,-68.39,-13.877,-83.965,
59922070,0.38,0.198,0.166,-82.775,-28.857,-130.497,
59922080,0.018,0.194,0.2,-71.347,-37.047,-145.092,
59922090,-0.525,0.036,0.22,-56.875,-39.637,-151.865,
59922100,-0.865,-0.141,0.183,-44.677,-36.907,-130.62,
59922110,-0.922,-0.302,0.088,-29.102,-34.562,-98.945,
59922120,-0.742,-0.338,-0.037,-17.867,-28.35,-68.495,
59922130,-0.627,-0.444,-0.136,-14.087,-16.555,-41.422,
59922140,-0.41,-0.504,-0.235,-4.445,-1.207,-29.067,
59922150,-0.469,-0.574,-0.298,-5.897,12.355,-13.055,
59922160,-0.685,-0.613,-0.363,-15.662,9.1,5.722,
59922170,-0.789,-0.739,-0.415,-24.727,-17.115,25.235,
59922170,-0.618,-0.592,-0.435,-33.32,-39.83,55.912,
59922190,-0.101,-0.549,-0.385,-41.16,-59.85,41.247,
59922190,-0.062,-0.499,-0.946,-69.93,-36.96,30.835,
59922210,1.238,-1.379,-0.126,-82.88,82.057,-6.842,
59922210,1.166,-1.998,1.711,-53.357,151.602,-89.705,
59922230,-0.234,-1.998,1.962,81.48,2.992,-201.355,
59922230,1.589,-1.314,-1.748,412.3,103.565,-331.467,
59922250,-1.866,1.961,-0.078,456.767,105.945,-285.81,
59922250,0.996,-0.022,1.217,309.155,-82.582,-230.37,
59922260,1.998,-0.353,0,435.242,49.122,-191.485,
59922270,1.765,-0.465,0.784,443.852,127.347,-118.912,
59922280,1.867,0.739,1.205,474.81,160.755,-31.395,
59922290,1.078,1.088,1.963,410.235,229.337,53.445,
59922300,-1.699,1.002,1.998,221.69,206.745,95.217,
59922310,-1.395,1.273,1.852,59.99,62.685,63.385,
59922320,0.341,-0.163,1.141,-52.78,-47.53,39.27,
59922330,0.96,-0.624,0.726,-73.71,-72.292,52.745,
59922340,0.733,-0.397,0.667,-51.887,-60.76,86.712,
59922350,0.524,-0.633,0.756,-27.877,-51.1,116.707,
59922360,0.233,-0.385,0.811,-14.525,-47.215,120.802,
59922370,-0.058,-0.486,0.871,-7.997,-33.81,102.812,
59922380,-0.127,-0.282,1.023,-2.45,-19.845,67.392,
59922390,-0.106,-0.178,1.178,-14.717,-11.882,35,
59922400,0.131,-0.048,1.242,-40.565,-11.095,9.817,
59922410,0.363,-0.05,1.233,-77.7,-11.06,-0.017,
59922420,0.559,-0.094,1.23,-112.577,-11.27,8.592,
59922430,0.664,-0.096,1.217,-145.687,-12.775,31.64,
59922440,0.442,-0.15,1.206,-178.167,-15.015,60.182,
59922450,0.269,-0.283,1.162,-206.78,-24.587,77.455,
59922460,0.234,-0.316,1.136,-230.335,-42.07,86.852,
59922470,0.203,-0.346,1.115,-250.582,-62.125,96.337,
59922480,0.499,-0.381,1.325,-269.937,-75.897,107.905,
59922490,0.399,-0.843,1.593,-282.607,-87.43,120.102,
59922500,0.019,-1.87,1.97,-280.21,-153.492,97.912,
59922510,0.585,-1.998,1.726,-225.365,-291.952,21.402,
59922510,1.337,-1.809,0.953,-139.93,-317.87,-26.95,
59922530,1.36,-1.917,0.151,-34.265,-157.745,7.98,
59922530,1.638,-1.996,-0.689,76.37,-17.797,-31.675,
59922550,0.806,-1.305,-1.18,163.66,52.622,-59.78,
59922550,-0.452,-0.45,-1.426,148.12,39.742,-80.447,
59922570,-1.114,0.012,-1.255,78.225,-73.15,-96.162,
59922570,-0.706,0.034,-0.926,-18.62,-194.092,-77.647,
59922580,0.108,-0.296,-0.51,-98.84,-259.472,-52.062,
59922590,0.543,-0.443,-0.089,-140.857,-245.542,-35.42,
59922600,0.474,-0.517,0.134,-154.77,-162.487,-22.277,
59922610,0.059,-0.47,0.278,-138.53,-63.525,-19.897,
59922620,-0.412,-0.311,0.317,-108.815,0.437,-20.422,
59922630,-0.587,-0.178,0.252,-83.387,29.697,-12.215,
59922640,-0.487,-0.083,0.131,-64.067,33.547,1.645,
59922650,-0.306,0.051,0.007,-53.935,29.907,14.262,
59922660,-0.141,0.179,-0.096,-58.747,27.772,23.52,
59922670,-0.105,0.234,-0.167,-78.382,36.242,34.317,
59922680,-0.189,0.263,-0.193,-101.22,41.072,42.56,
59922690,-0.288,0.233,-0.167,-124.985,37.187,49.7,
59922700,-0.324,0.119,-0.069,-146.107,22.347,58.362,
59922710,-0.312,0.059,-0.006,-161.56,4.41,69.247,
59922720,-0.259,0.124,0.078,-167.492,-11.55,77.175,
59922730,-0.896,0.119,0.062,-185.885,-18.042,113.82,
59922740,0.675,-0.305,-1.171,-47.617,-37.87,46.987,
59922750,1.998,-1.793,1.496,-44.292,212.712,45.29,
59922760,1.452,-1.998,1.577,67.322,223.492,-6.352,
59922770,-1.9,-0.448,-1.997,433.685,78.452,-264.6,
59922780,1.306,1.96,0.699,531.457,100.695,-132.37,
59922790,1.471,-0.222,1.136,479.43,86.432,-38.657,
59922800,0.842,1.14,0.246,555.012,106.452,-85.837,
59922810,1.695,-0.002,1.056,540.662,158.252,33.18,
59922820,0.252,0.572,1.97,466.042,171.675,106.68,
59922830,0.107,1.399,1.998,388.412,155.487,90.335,
59922840,-0.67,0.304,1.935,218.032,134.82,85.767,
59922850,-0.509,0.326,1.598,111.475,81.655,39.34,
59922860,-0.219,0.086,1.392,30.275,32.62,6.072,
59922870,0.352,-0.146,1.028,-23.397,-4.305,-4.095,
59922880,0.415,-0.437,0.805,-41.317,-8.032,-1.312,
59922890,0.382,-0.496,0.742,-30.415,-0.175,-0.91,
59922900,0.32,-0.462,0.799,-11.095,10.762,-2.397,
59922910,0.239,-0.291,0.965,2.467,13.125,-4.042,
59922920,0.093,-0.157,1.139,-3.097,9.135,-3.482,
59922920,0.092,-0.085,1.234,-27.72,-6.002,-5.407,
59922940,0.195,0.015,1.356,-66.657,-19.215,-5.862,
59922940,0.34,0.041,1.476,-120.505,-40.075,0.997,
59922960,0.524,0.201,1.456,-180.215,-53.27,23.257,
59922960,0.646,0.204,1.444,-231.665,-56.682,47.145,
59922980,0.309,-0.087,1.387,-297.15,-66.29,74.322,
59922980,0.554,-0.117,1.176,-332.675,-85.137,91.122,
59923000,0.578,0.038,1.042,-364.367,-81.515,118.702,
59923000,0.567,-0.615,1.102,-395.377,-80.255,149.992,
59923010,0.561,-1.199,1.539,-403.322,-87.185,158.252,
59923020,0.646,-1.72,1.651,-365.295,-117.582,143.062,
59923030,0.659,-1.998,1.814,-318.465,-189.822,113.417,
59923040,0.917,-1.998,1.128,-253.697,-280.105,75.145,
59923050,1.066,-1.998,0.905,-145.985,-205.975,71.155,
59923060,0.885,-1.998,0.624,-23.117,-38.097,101.237,
59923070,0.537,-1.51,0.123,125.65,43.312,110.635,
59923080,0.594,-0.294,-0.312,182.402,62.545,80.167,
59923090,0.073,0.455,-0.451,131.355,38.797,55.212,
59923100,-0.226,1.048,-0.35,81.497,-11.165,27.895,
59923110,-0.149,1.476,-0.032,35.35,-61.337,6.597,
59923120,-0.005,1.609,0.25,-1.487,-104.02,-12.53,
59923130,0.21,1.607,0.476,-20.737,-126.717,-38.832,
59923140,0.264,1.449,0.644,-31.412,-124.162,-70.84,
59923150,0.205,1.132,0.765,-20.422,-103.11,-101.745,
59923160,0.138,0.831,0.751,4.655,-75.355,-130.462,
59923170,0.079,0.484,0.677,32.725,-42.175,-148.382,
59923180,-0.045,0.146,0.607,54.18,-12.425,-151.882,
59923190,-0.118,-0.176,0.434,76.002,12.407,-143.15,
59923200,-0.219,-0.467,0.129,100.345,37.275,-122.15,
59923210,-0.608,-0.589,-0.196,125.842,41.405,-95.987,
59923220,-0.87,-0.503,-0.495,136.36,10.29,-74.095,
59923230,-0.774,-0.53,-0.845,107.537,-38.447,-38.255,
59923240,-0.368,-0.909,-1.108,46.865,-78.102,-4.27,
59923250,-0.176,-0.984,-1.081,4.375,-100.59,16.537,
59923260,0.135,-0.94,-1.17,-55.86,-102.252,11.795,
59923260,-0.247,-1.602,-0.963,-104.282,-107.187,-11.025,
59923280,-0.755,-1.703,-0.904,-104.335,-115.342,-10.797,
59923280,0.565,-1.998,-1.423,-60.235,-55.527,27.23,
59923300,1.532,-1.998,1.929,-13.23,338.502,78.732,
59923300,-1.966,-1.017,-1.901,408.712,-60.602,-251.055,
59923320,1.626,1.997,1.323,545.282,143.745,-251.58,
59923320,1.451,1.167,1.475,303.992,114.257,39.515,
59923330,1.339,-0.545,1.387,274.12,113.715,37.887,
59923340,1.704,-1.433,0.449,312.025,226.905,172.27,
59923350,-1.138,-0.079,1.874,248.605,199.867,150.78,
59923360,-0.58,0.598,1.838,173.547,107.992,101.185,
59923370,-0.724,0.455,1.896,55.877,54.425,62.912,
59923380,-0.187,-0.266,1.271,-20.965,12.11,14.857,
59923390,0.576,-0.305,0.921,-47.372,-3.815,-9.205,
59923400,0.836,-0.242,0.721,-48.825,-1.89,-5.722,
59923410,0.498,-0.697,0.59,-54.932,13.177,15.19,
59923420,0.132,-0.37,0.876,-24.5,20.072,12.407,
59923430,0.222,-0.408,0.944,-30.905,20.09,4.06,
59923440,0.323,-0.313,0.933,-32.97,16.642,-3.325,
59923450,0.333,-0.375,0.968,-43.452,15.417,-4.147,
59923460,0.338,-0.306,0.948,-49.752,11.812,-2.642,
59923470,0.315,-0.41,0.958,-58.747,6.055,1.697,
59923480,0.291,-0.295,0.968,-67.077,-0.945,5.46,
59923490,0.268,-0.358,0.983,-77.28,-4.095,9.292,
59923500,0.239,-0.332,1.016,-89.512,-9.905,11.27,
59923510,0.227,-0.335,1.03,-103.932,-16.975,11.742,
59923520,0.244,-0.328,1.044,-120.365,-25.9,12.407,
59923530,0.271,-0.326,1.03,-138.162,-35.385,13.23,
59923540,0.317,-0.336,1.024,-159.11,-44.205,17.307,
59923550,0.389,-0.331,0.955,-181.492,-54.145,26.827,
59923560,0.502,-0.362,0.987,-207.182,-64.505,38.465,
59923570,0.521,-0.345,1.132,-237.3,-77.84,54.057,
59923580,0.598,-0.562,1.202,-267.715,-85.417,71.102,
59923590,0.638,-0.991,1.279,-287.035,-98.49,72.852,
59923600,0.988,-1.772,1.683,-290.587,-127.05,50.68,
59923610,1.072,-1.998,1.479,-263.69,-185.692,16.485,
59923620,1.536,-1.998,-0.45,-226.082,-223.37,-12.6,
59923630,1.389,-1.998,-0.466,-148.592,-86.502,14.612,
59923640,1.199,-1.8,-1.222,-91,65.572,6.44,
59923650,0.608,-1.105,-1.009,-46.217,164.01,-12.565,
59923660,-0.211,-0.839,-0.743,-37.555,133.175,-67.112,
59923670,-0.622,-0.419,-0.525,-40.53,61.057,-92.557,
59923670,-0.506,0.164,-0.371,-57.767,39.287,-58.257,
59923690,-0.33,0.507,-0.093,-90.16,37.415,-10.395,
59923690,-0.305,0.336,0.316,-124.932,30.975,18.742,
59923710,-0.266,0.253,0.644,-125.002,20.877,36.575,
59923710,-0.016,0.305,0.791,-99.207,13.65,47.285,
59923730,0.122,0.199,0.812,-58.292,1.277,38.097,
59923730,0.022,0.067,0.739,0.315,-10.08,19.372,
59923750,-0.176,-0.027,0.62,59.937,-23.852,9.117,
59923750,-0.454,-0.177,0.482,107.975,-41.422,17.202,
59923760,-0.782,-0.366,0.314,151.637,-67.34,40.827,
59923770,-1.048,-0.148,0.093,194.337,-95.917,82.757,
59923780,-1.166,-0.104,-0.095,204.452,-139.965,104.09,
59923790,-1.184,-0.318,-0.234,186.515,-174.65,137.392,
59923800,-0.789,-0.313,-0.311,171.692,-179.672,168.507,
59923810,-0.328,-0.142,-0.35,132.702,-142.747,190.802,
59923820,0.574,-0.405,-1.496,99.382,-53.585,159.652,
59923830,1.998,-1.619,1.204,-24.605,379.925,154.735,
59923840,-0.404,-1.998,1.998,53.865,274.942,-83.177,
59923850,-1.662,-1.97,-0.444,449.907,66.01,-429.327,
59923860,-1.759,1.464,-1.926,566.02,66.99,-298.585,
59923870,1.685,0.791,1.189,465.64,-135.38,-133.805,
59923880,1.16,1.55,0.228,456.942,22.715,-148.942,
59923890,0.764,0.399,1.186,492.065,45.272,-150.272,
59923900,1.989,0.04,1.824,467.547,177.957,31.727,
59923910,-0.235,0.927,1.998,342.405,256.427,55.265,
59923920,-1.87,0.644,1.998,132.265,184.817,81.672,
59923930,-0.885,0.742,1.68,12.635,30.8,46.375,
59923940,0.217,-0.287,1.113,-62.562,-50.12,29.995,
59923950,0.619,-0.407,0.831,-86.257,-63.367,24.132,
59923960,0.4,-0.552,0.692,-81.882,-49.122,32.112,
59923970,0.71,-0.529,0.69,-45.937,-43.137,41.912,
59923980,0.116,-0.52,0.774,-23.992,-29.907,46.077,
59923990,0,-0.39,0.893,-12.022,-27.702,39.795,
59924000,-0.019,-0.3,1.009,-9.572,-23.66,20.755,
59924010,0.045,-0.254,1.101,-18.777,-29.015,2.835,
59924010,0.296,-0.13,1.117,-39.9,-38.22,-7.35,
59924030,0.409,-0.091,1.146,-65.31,-48.195,-3.552,
59924030,0.412,-0.094,1.178,-93.345,-54.04,8.102,
59924050,0.259,-0.101,1.225,-124.757,-61.792,14.857,
59924050,0.26,-0.133,1.167,-156.52,-67.707,16.205,
59924070,0.265,-0.094,1.144,-188.965,-67.515,14.385,
59924070,0.167,-0.263,1.092,-222.862,-65.73,11.165,
59924080,0.293,-0.172,0.968,-244.37,-69.737,8.54,
59924090,0.358,-0.278,0.892,-270.305,-72.24,8.225,
59924100,0.431,-0.438,0.877,-288.627,-83.527,13.825,
59924110,0.571,-0.515,0.899,-299.635,-88.112,21.297,
59924120,0.511,-0.608,0.949,-305.427,-97.982,19.495,
59924130,0.533,-0.988,1.073,-309.872,-103.95,12.862,
59924140,0.827,-1.474,1.23,-300.615,-114.59,-0.98,
59924150,1.097,-1.919,1.227,-279.597,-110.722,-15.067,
59924160,0.926,-1.998,0.306,-251.947,-74.567,-32.515,
59924170,0.419,-1.998,-0.151,-191.38,14.175,-25.322,
59924180,0.254,-1.998,-0.919,-96.25,96.32,-37.712,
59924190,-0.37,-1.769,-0.502,-22.102,130.147,-33.845,
59924200,-0.244,-1.146,-0.633,18.62,62.842,-44.8,
59924210,-0.059,-0.302,-0.813,20.632,6.79,-58.257,
59924220,0.05,0.173,-0.566,-14,28.927,-33.285,
59924230,-0.302,0.198,-0.035,-54.53,74.095,10.622,
59924240,-0.628,0.069,0.336,-72.52,94.377,42.262,
59924250,-0.551,-0.063,0.556,-61.022,90.93,70.035,
59924260,-0.303,-0.137,0.635,-25.69,77.612,85.872,
59924270,-0.276,-0.149,0.535,14.035,67.497,99.697,
59924280,-0.159,0.029,0.333,59.535,65.765,105.175,
59924290,-0.193,0.133,0.146,85.96,77.035,122.885,
59924300,-0.323,0.202,0.016,101.097,87.552,141.207,
59924310,-0.356,0.312,-0.171,106.365,77.507,150.745,
59924320,-0.191,0.507,-0.473,90.492,59.972,151.165,
59924330,0.088,0.767,-0.664,45.867,42.595,134.802,
59924340,0.513,0.848,-0.789,-19.95,47.95,96.862,
59924350,0.51,0.615,-0.403,-94.01,61.862,41.002,
59924360,0.225,-0.338,-1.412,-140.087,116.602,21.7,
59924370,1.963,-1.547,1.204,-83.212,228.252,-106.54,
59924380,0.202,-1.998,1.998,14.647,93.397,-228.952,
59924390,1.405,-1.699,-0.887,389.34,88.077,-372.522,
59924400,-1.09,1.944,-1.372,541.257,281.155,-326.27,
59924410,-0.321,-0.418,1.791,325.99,-210.035,-266.997,
59924420,1.998,-0.229,0.114,431.252,2.047,-156.012,
59924420,1.245,1.142,0.907,501.34,10.937,-141.785,
59924440,1.485,-0.565,1.844,438.987,-10.972,-40.337,
59924440,1.162,1.816,1.998,415.765,52.955,40.32,
59924460,-0.359,0.702,1.998,228.445,76.125,82.075,
59924460,-0.513,0.733,1.984,69.492,26.232,74.305,
59924480,-0.102,0.286,1.661,-61.477,-23.765,48.282,
59924480,0.142,-0.235,1.099,-142.415,-37.852,24.587,
59924490,-0.707,-0.409,0.982,-161.822,-37.012,9.905,
59924500,1.055,-0.494,0.482,-139.055,-32.06,-38.062,
59924510,0.506,-0.744,0.581,-133.332,-19.792,-32.48,
59924520,0.482,-0.497,0.755,-102.847,-20.79,-8.977,
59924530,0.405,-0.419,0.965,-97.055,-26.162,6.597,
59924540,0.38,-0.217,1.18,-106.505,-32.9,22.732,
59924550,0.336,-0.178,1.285,-137.27,-41.755,38.587,
59924560,0.296,-0.153,1.254,-175.21,-51.852,52.08,
59924570,0.296,-0.22,1.236,-210.42,-66.955,59.29,
59924580,0.405,-0.143,1.245,-247.555,-85.557,69.72,
59924590,0.676,-0.15,1.207,-286.16,-95.445,89.005,
59924600,0.984,-0.375,1.267,-321.37,-74.427,114.835,
59924610,0.85,-1.119,1.422,-337.417,-41.58,127.032,
59924620,0.846,-1.787,1.44,-317.31,-22.767,113.557,
59924630,1.04,-1.998,1.606,-273.07,-9.537,99.715,
59924640,0.99,-1.982,1.314,-212.38,-9.712,74.34,
59924650,1.066,-1.745,0.405,-111.352,24.745,44.205,
59924660,0.901,-1.958,0.263,-32.812,115.08,11.742,
59924670,0.385,-1.461,0.063,56.402,132.965,-18.095,
59924680,0.139,-0.469,-0.281,125.475,96.355,-56.612,
59924690,0.301,0.189,-0.576,120.732,64.715,-80.885,
59924700,-0.128,0.365,-0.318,66.36,53.217,-83.23,
59924710,-0.432,0.378,0.016,21.927,37.922,-84.595,
59924720,-0.493,0.487,0.26,-2.922,29.995,-79.852,
59924730,-0.477,0.465,0.507,-23.782,32.322,-70.63,
59924740,-0.528,0.36,0.646,-32.707,48.212,-58.275,
59924750,-0.636,0.309,0.685,-22.225,59.062,-46.182,
59924760,-0.698,0.252,0.621,6.37,60.602,-31.535,
59924760,-0.651,0.242,0.443,41.107,51.327,-12.827,
59924780,-0.533,0.221,0.26,67.76,36.19,4.55,
59924780,-0.407,0.16,0.071,74.847,18.305,17.29,
59924800,-0.292,0.07,-0.061,69.86,8.19,23.572,
59924800,-0.253,-0.013,-0.202,52.78,1.697,21.997,
59924820,-0.24,-0.088,-0.34,27.772,-1.347,8.96,
59924820,-0.207,-0.119,-0.464,-5.687,-0.805,-13.93,
59924830,-0.354,-0.191,-0.473,-47.547,8.032,-37.292,
59924840,-0.649,-0.3,-0.424,-83.195,12.985,-55.16,
59924850,-1.147,-0.504,-0.042,-106.575,10.237,-47.757,
59924860,-0.872,-0.196,-1.128,-103.915,29.015,48.562,
59924870,1.998,-1.089,-0.643,-98.595,296.222,-28.997,
59924880,0.653,-1.998,1.998,-203.577,350.822,-187.25,
59924890,-0.988,-1.32,-1.43,406.63,46.06,-528.36,
59924900,-1.851,1.997,-0.736,526.365,-4.095,-407.96,
59924910,1.868,0.352,1.641,388.272,-173.302,-227.36,
59924920,1.998,1.872,-0.279,490.437,29.487,-228.882,
59924930,1.998,-0.78,1.272,480.567,154.735,-77.805,
59924940,1.644,1.35,1.802,462.367,267.032,100.555,
59924950,-1.663,0.49,1.998,280.77,269.622,111.632,
59924960,-1.692,1.463,1.942,75.075,86.625,50.75,
59924970,0.034,-0.393,1.313,-64.68,-63.192,12.845,
59924980,1.105,-0.086,0.954,-105.56,-95.007,5.267,
59924990,0.629,-0.41,0.733,-121.117,-90.737,38.972,
59925000,0.594,-0.913,0.455,-102.9,-64.382,49.017,
59925010,0.286,-0.339,0.723,-60.182,-33.39,36.19,
59925020,0.035,-0.427,0.901,-50.382,-14.542,20.37,
59925030,0.142,-0.349,0.887,-52.465,-5.04,3.395,
59925040,0.223,-0.479,0.906,-51.187,-2.485,-8.225,
59925050,0.399,-0.177,1.086,-52.815,-5.46,-12.092,
59925060,0.448,-0.032,1.276,-76.387,-10.377,0.245,
59925070,0.461,-0.048,1.325,-118.072,-19.425,19.11,
59925080,0.477,-0.086,1.256,-160.615,-27.702,40.915,
59925090,0.388,-0.174,1.25,-199.902,-37.467,57.05,
59925100,0.352,-0.128,1.242,-236.565,-52.412,68.6,
59925110,0.496,-0.033,1.198,-270.637,-70.682,83.23,
59925120,0.646,-0.318,1.08,-307.51,-72.8,113.995,
59925130,0.801,-0.638,1.243,-325.377,-61.11,134.435,
59925140,0.795,-1.173,1.445,-323.557,-48.44,132.405,
59925150,1.045,-1.927,1.595,-302.942,-53.952,111.685,
59925160,1.194,-1.998,1.678,-252.77,-71.155,78.785,
59925170,1.256,-1.881,0.99,-185.867,-71.855,40.407,
59925170,1.005,-1.971,0.492,-82.757,31.43,32.952,
59925180,0.602,-1.932,0.846,48.177,113.855,16.065,
59925190,0.231,-1.112,-0.301,227.605,34.65,3.027,
59925200,0.022,-0.014,-0.999,291.48,-45.762,12.775,
59925210,0.106,0.266,-0.886,226.485,-98.647,41.965,
59925220,0.27,0.08,-0.597,156.047,-147.682,56.962,
59925230,0.524,0.042,-0.355,121.677,-155.225,63.297,
59925240,0.633,0.007,-0.123,94.902,-140.385,70.892,
59925250,0.411,-0.112,0.067,60.462,-127.19,68.162,
59925260,0.08,-0.219,0.129,37.59,-125.16,60.305,
59925270,-0.368,-0.078,0.123,36.907,-133.507,45.482,
59925280,-0.619,0.1,0.111,41.09,-149.1,28.402,
59925290,-0.657,0.016,-0.008,33.635,-149.747,30.555,
59925300,-0.795,-0.016,-0.136,27.247,-135.695,51.467,
59925310,-1.109,0.19,-0.172,19.6,-106.785,82.53,
59925320,-0.94,0.736,0.038,-7.56,-70.945,101.762,
59925330,-0.871,0.535,0.022,-63.14,-28.612,85.05,
59925340,-1.08,-0.014,0,-103.11,-25.357,56.052,
59925350,-1.228,0.079,0.018,-107.222,-45.832,47.547,
59925360,-0.844,0.16,-0.129,-104.912,-49.91,39.27,
59925370,-0.778,0.127,-0.222,-129.115,-33.232,33.197,
59925380,-1.155,0.038,-0.162,-144.34,-26.652,8.977,
59925390,-1.284,0.052,0.045,-148.82,-34.335,-3.85,
59925400,-0.707,-0.148,-1.572,-126.14,10.902,66.272,
59925410,1.998,-1.575,1.762,-86.957,246.12,-44.555,
59925420,-1.04,-1.798,-0.713,175.682,-21.735,-457.17,
59925430,-1.639,1.991,0.045,559.142,61.88,-547.645,
59925440,1.887,1.34,1.276,442.715,160.457,-364.962,
59925450,1.998,0.768,0.494,491.382,262.167,-408.327,
59925460,1.998,1.997,1.41,493.832,459.515,-233.222,
59925470,0.144,0.563,1.706,171.395,522.357,112.157,
59925480,-1.325,1.572,1.909,19.757,250.6,164.01,
59925490,0.088,-1.019,1.254,-56.192,-42.752,151.095,
59925500,0.567,-0.682,0.967,-103.075,-90.737,111.667,
59925510,-0.045,-0.051,1.086,-120.382,-103.547,80.167,
59925510,0.307,-0.962,0.385,-111.335,-95.655,70,
59925530,0.421,-0.73,0.35,-73.99,-51.135,28.28,
59925530,0.13,-0.793,0.612,-37.607,-15.802,0.892,
59925550,0.457,-0.499,0.733,-11.375,-2.52,-23.012,
59925550,0.65,-0.217,0.923,-0.91,7.087,-23.957,
59925570,0.605,0.042,1.209,-15.977,9.852,-7.98,
59925570,0.281,0.082,1.48,-63.612,5.757,10.832,
59925580,0.343,0.035,1.538,-125.527,-11.707,21.315,
59925590,0.444,0.05,1.522,-186.672,-20.527,31.29,
59925600,0.341,-0.069,1.371,-245.717,-24.377,44.31,
59925610,0.169,-0.037,1.242,-289.87,-35.997,50.732,
59925620,0.42,-0.086,1.214,-326.62,-66.902,55.825,
59925630,0.898,-0.375,1.207,-353.36,-78.802,73.867,
59925640,0.931,-1,1.732,-367.377,-83.02,95.882,
59925650,1.264,-1.979,1.998,-355.74,-142.082,76.352,
59925660,1.48,-1.998,1.816,-278.512,-246.715,-5.145,
59925670,0.582,-1.998,0.331,-121.852,-166.232,-42.28,
59925680,-0.98,-1.981,0.092,144.2,55.807,28.49,
59925690,-1.926,-0.857,-1.452,325.255,-29.417,78.137,
59925700,-0.484,-0.259,-1.829,273.595,-96.827,192.85,
59925710,0.645,-0.944,-0.94,143.64,-129.85,255.045,
59925720,1.225,-0.94,-0.624,129.815,-136.08,221.672,
59925730,1.102,-0.146,-0.574,135.415,-81.497,197.627,
59925740,0.949,0.193,-0.444,64.067,-44.24,158.462,
59925750,0.835,-0.054,-0.147,-17.692,-18.445,88.025,
59925760,1.416,0.338,-0.093,-81.235,82.722,-56.07,
59925770,0.543,-0.03,-0.204,-131.46,159.897,-190.452,
59925780,-1.597,0.142,0.392,-161.262,131.775,-165.427,
59925790,-1.675,0.406,0.733,-130.97,54.722,-115.937,
59925800,-0.378,0.641,0.661,-84.07,12.25,-65.537,
59925810,-0.438,0.395,0.688,-56.892,13.545,-10.605,
59925820,-0.93,0.276,0.633,-19.092,26.022,25.83,
59925830,-0.713,0.506,0.386,27.597,22.47,43.732,
59925840,-0.452,0.678,0.149,41.562,16.59,51.012,
59925850,-0.461,0.67,0.007,31.027,10.64,45.325,
59925850,-0.552,0.641,-0.086,11.952,9.782,39.97,
59925870,-0.617,0.514,-0.116,-12.092,-2.555,39.445,
59925870,-0.561,0.386,-0.134,-35.472,-18.147,47.005,
59925890,-0.498,0.287,-0.112,-58.87,-36.155,55.685,
59925890,-0.417,-0.235,0.017,-80.5,-50.12,67.585,
59925910,-1.431,0.123,-0.785,-62.65,-29.61,159.46,
59925910,1.998,-0.585,0.214,-16.59,282.082,39.147,
59925920,-0.296,-1.998,1.556,-154.822,193.917,-222.635,
59925930,-0.251,0.22,-1.997,486.885,202.072,-548.275,
59925940,-1.97,1.943,-0.873,474.092,123.97,-322.402,
59925950,1.702,-0.721,1.841,390.757,-118.492,-270.9,
59925960,1.998,1.76,-0.271,543.235,76.947,-262.482,
59925970,1.998,-0.088,1.971,541.082,204.802,-57.382,
59925980,-0.292,1.682,1.998,381.272,320.46,26.232,
59925990,-1.394,1.613,1.812,87.832,146.37,48.352,
59926000,-0.656,-0.654,1.624,-102.602,-31.08,69.842,
59926010,1.497,-0.324,0.904,-129.342,-94.22,59.692,
59926020,1.064,0.009,0.749,-145.67,-58.887,104.755,
59926030,0.052,-1.489,0.208,-118.3,-21.105,130.987,
59926040,-0.163,-1.123,0.345,-47.722,-12.407,120.89,
59926050,-0.311,-0.211,0.656,25.812,-9.94,85.05,
59926060,-0.574,-0.706,0.775,39.917,3.255,38.202,
59926070,-0.225,-0.259,1.073,67.97,-4.217,-12.337,
59926080,0.343,0.029,1.31,52.71,-17.132,-34.457,
59926090,0.592,0.163,1.286,7.262,-18.165,-27.79,
59926100,0.555,0.077,1.293,-41.755,-13.982,-8.05,
59926110,0.353,-0.144,1.294,-90.23,-11.445,9.38,
59926120,0.243,-0.022,1.313,-122.465,-11.76,24.535,
59926130,0.292,-0.035,1.309,-161.98,-16.03,27.195,
59926140,0.229,-0.171,1.298,-206.675,-20.125,36.452,
59926150,0.182,-0.165,1.221,-238.665,-33.635,40.267,
59926160,0.178,-0.209,1.18,-273.35,-63.28,50.47,
59926170,0.45,-0.294,1.067,-307.002,-106.82,81.585,
59926180,0.766,-0.326,1.175,-329.157,-122.832,123.252,
59926190,0.113,-1.067,0.803,-342.37,-144.55,158.445,
59926200,-0.098,-1.997,1.68,-361.34,-224.875,163.642,
59926210,0.217,-1.998,1.584,-301.455,-324.887,115.92,
59926220,0.075,-1.998,1.242,-226.485,-320.32,167.772,
59926230,0.404,-1.998,0.437,-123.952,-232.05,213.535,
59926240,-0.835,-1.998,0.01,40.95,-142.187,195.79,
59926250,-0.014,-1.883,-0.772,242.707,-77.735,240.87,
59926260,1.136,-0.854,-1.214,333.55,-36.61,286.37,
59926260,1.233,0.136,-1.711,295.242,-33.022,247.065,
59926280,1.219,0.43,-1.467,155.977,-18.252,167.79,
59926280,1.047,0.334,-0.873,-8.645,-21.017,86.17,
59926300,0.775,0.181,-0.401,-100.467,-32.847,16.87,
59926300,0.703,0.178,-0.094,-142.607,-40.302,-32.375,
59926320,0.553,0.296,0.137,-165.322,-38.237,-72.222,
59926320,0.313,0.497,0.32,-176.155,-25.497,-78.802,
59926330,0.256,0.737,0.407,-172.585,-9.17,-92.645,
59926340,-0.134,0.832,0.502,-170.852,-2.765,-98.28,
59926350,-0.571,0.688,0.616,-167.65,-8.417,-91.035,
59926360,-0.764,0.534,0.696,-145.18,-30.415,-78.26,
59926370,-0.734,0.359,0.671,-115.797,-51.8,-59.78,
59926380,-0.672,0.176,0.588,-80.29,-64.102,-42.385,
59926390,-0.472,0.018,0.443,-43.627,-49.647,-24.937,
59926400,-0.641,-0.024,0.323,-19.127,3.097,25.13,
59926410,-0.406,0.363,0.226,-15.487,70.21,91.962,
59926420,-0.069,0.429,0.144,31.342,88.252,1.925,
59926430,-0.747,-0.009,0.053,-7.56,83.58,-32.987,
59926440,-0.462,0.083,-1.116,-64.732,126.105,-2.222,
59926450,1.48,-1.134,0.518,-202.65,472.395,36.802,
59926460,-1.957,-1.998,1.562,-73.307,397.705,-196.735,
59926470,0.562,-1.825,-0.46,398.16,70.822,-392.997,
59926480,-1.371,1.948,-1.346,559.352,214.147,-336.052,
59926490,0.822,0.519,1.699,389.007,-140.927,-303.817,
59926500,1.047,-1.58,0.008,429.292,-32.795,-237.317,
59926510,1.998,0.17,0.228,539.367,40.6,-186.182,
59926520,1.933,0.983,1.501,503.037,68.757,-29.487,
59926530,1.017,1.214,1.809,462.525,128.432,78.732,
59926540,-0.756,0.942,1.998,313.022,132.912,127.085,
59926550,-0.812,0.665,1.998,137.41,66.447,77.822,
59926560,-0.235,0.528,1.921,-40.6,-4.322,26.722,
59926570,0.43,0.053,1.287,-168.21,-43.067,3.605,
59926580,0.54,-0.452,0.795,-215.845,-44.59,8.207,
59926580,0.401,-0.629,0.833,-207.13,-41.825,21.91,
59926600,0.5,0.081,1.033,-185.587,-43.277,31.482,
59926600,0.102,-0.472,1.13,-226.852,-45.01,41.317,
59926620,0.163,-0.25,1.148,-236.827,-50.382,43.767,
59926620,0.182,-0.219,1.097,-261.362,-64.207,38.885,
59926640,0.268,-0.235,1.028,-288.295,-88.952,43.172,
59926640,0.704,-0.158,1.198,-318.167,-119.945,62.982,
59926660,0.798,-0.463,1.363,-354.462,-141.522,104.335,
59926660,0.544,-1.554,1.738,-369.81,-174.317,120.365,
59926670,1.028,-1.998,1.647,-345.8,-222.145,88.095,
59926680,0.977,-1.998,0.973,-288.907,-248.727,54.827,
59926690,0.885,-1.52,0.39,-191.502,-128.135,70.122,
59926700,1.35,-1.693,-0.335,-84.577,14.017,64.645,
59926710,0.692,-1.372,-0.432,-15.417,139.317,32.112,
59926720,0.565,-0.626,-0.645,79.345,175.857,20.86,
59926730,0.699,-0.052,-0.677,102.672,161.385,-15.645,
59926740,0.424,0.123,-0.642,48.212,120.085,-69.685,
59926750,0.21,0.087,-0.435,-4.777,87.062,-93.66,
59926760,0.128,0.172,-0.214,-32.707,69.02,-97.667,
59926770,-0.273,0.223,0.013,-56.577,46.83,-109.025,
59926780,-0.677,0.305,0.232,-75.757,23.327,-102.462,
59926790,-0.706,0.349,0.412,-89.932,12.11,-74.9,
59926800,-0.669,0.293,0.571,-89.967,5.04,-38.5,
59926810,-0.627,0.238,0.695,-71.347,-7.612,-6.825,
59926820,-0.43,0.143,0.752,-44.695,-19.617,15.522,
59926830,-0.151,0.014,0.718,-11.252,-22.732,25.287,
59926840,-0.028,-0.095,0.639,25.235,-10.097,25.532,
59926850,-0.077,-0.225,0.532,60.585,11.06,24.885,
59926860,-0.22,-0.315,0.357,96.022,29.452,28.77,
59926870,-0.423,-0.639,0.212,127.155,35,42.07,
59926880,-0.615,-0.376,-0.058,152.74,37.59,94.132,
59926890,-0.037,-0.238,-0.379,171.762,14.91,71.225,
59926900,-0.164,-0.598,-0.688,148.855,-5.092,42.717,
59926910,-0.171,-0.549,-1.051,136.255,-9.45,34.86,
59926920,-0.122,-0.808,-1.647,92.487,2.012,5.355,
59926930,1.982,-1.6,-0.907,1.365,290.29,-3.167,
59926940,-1.015,-1.998,1.885,-41.86,176.61,-98.332,
59926950,0.516,-1.223,-1.435,426.317,-139.562,-393.557,
59926960,-0.303,1.997,-0.111,527.555,31.325,-237.265,
59926970,1.998,0.678,-0.068,389.217,-84.367,-156.03,
59926980,1.269,-1.762,1.571,383.022,36.627,-94.395,
59926990,1.813,0.61,1.186,435.557,91.14,-10.797,
59927000,1.062,1.6,1.894,355.162,114.625,74.55,
59927010,-0.557,0.013,1.998,192.815,117.197,129.412,
59927010,-0.771,0.491,1.969,89.652,41.072,102.305,
59927030,-0.41,0.107,1.694,-24.43,-23.047,60.672,
59927030,-0.034,-0.017,1.313,-115.115,-47.81,15.557,
59927050,0.3,-0.399,0.902,-169.452,-52.482,-11.252,
59927050,0.782,-0.285,0.663,-161.017,-40.39,-25.76,
59927070,0.656,-0.644,0.625,-159.967,-17.552,-12.565,
59927070,0.523,-0.471,0.761,-136.675,-1.627,-0.315,
59927080,0.405,-0.475,0.863,-131.46,6.387,5.792,
59927090,0.34,-0.415,0.954,-130.812,12.827,7.682,
59927100,0.354,-0.35,1.014,-140.98,14.052,4.445,
59927110,0.282,-0.342,1.057,-157.342,10.395,3.885,
59927120,0.237,-0.349,1.055,-175.91,-3.377,4.847,
59927130,0.272,-0.335,1.073,-196.577,-23.52,11.602,
59927140,0.333,-0.228,1.06,-219.1,-48.177,28.297,
59927150,0.479,-0.371,1.006,-240.327,-65.222,49.717,
59927160,0.383,-0.576,0.943,-257.932,-76.982,67.655,
59927170,0.296,-0.826,1.016,-262.657,-89.967,69.405,
59927180,0.215,-1.194,1.203,-258.632,-109.025,59.307,
59927190,0.409,-1.527,1.25,-238.91,-128.45,35.105,
59927200,0.565,-1.792,1.041,-212.66,-131.932,3.097,
59927210,0.744,-1.359,0.332,-177.065,-100.765,-29.89,
59927220,0.422,-1.53,0.449,-125.965,-13.195,-22.312,
59927230,0.449,-1.529,0.381,-51.047,92.487,-31.745,
59927240,0.1,-1.035,0.48,34.51,144.532,-34.58,
59927250,-0.342,-0.454,0.244,100.502,108.482,-49.052,
59927260,-0.499,-0.16,0.026,142.52,64.96,-53.41,
59927270,-0.457,0.116,-0.129,161.525,38.64,-22.137,
59927280,-0.448,0.494,-0.218,165.427,20.965,17.92,
59927290,-0.209,0.758,-0.301,151.34,33.127,67.812,
59927300,0,0.748,-0.127,118.475,74.112,123.322,
59927310,0.081,0.516,0.141,79.397,98.77,150.92,
59927320,0.174,0.333,0.276,59.377,99.4,145.932,
59927330,0.322,0.274,0.191,56.682,83.597,121.257,
59927330,0.489,0.312,-0.062,62.177,65.59,81.217,
59927350,0.52,0.065,-0.258,60.427,49.997,34.877,
59927350,-0.33,0.61,-0.904,52.272,40.705,44.415,
59927370,1.793,-0.285,-1.907,49,159.635,-73.342,
59927370,-0.033,-1.998,1.418,-185.762,295.33,-129.972,
59927390,-0.749,-1.901,-0.573,174.422,-213.535,-453.197,
59927390,-1.003,1.831,-0.648,474.32,83.912,-218.732,
59927410,0.338,1.971,1.817,281.33,-200.13,-64.33,
59927410,1.957,-0.623,0.427,261.677,-41.37,-137.48,
59927420,-0.989,-1.392,1.549,331.17,37.607,-164.605,
59927430,1.865,0.201,1.094,370.632,18.357,-83.002,
59927440,1.613,0.845,1.371,342.09,54.25,5.337,
59927450,0.459,0.259,1.817,256.007,97.702,59.237,
59927460,-0.497,0.523,1.867,149.45,80.605,70.245,
59927470,-0.578,0.243,1.69,35.472,23.397,51.922,
59927480,0.068,0.054,1.421,-51.31,-36.82,27.79,
59927490,0.426,-0.074,1.15,-110.145,-63.56,23.047,
59927500,0.483,-0.241,1.093,-146.737,-61.337,26.88,
59927510,0.418,-0.272,1.124,-169.802,-53.48,34.387,
59927520,0.598,-0.051,1.205,-188.037,-48.842,39.025,
59927530,0.545,-0.241,1.149,-229.285,-40.652,62.09,
59927540,0.423,-0.21,1.07,-241.64,-38.43,77.35,
59927550,0.23,-0.387,1.035,-255.727,-53.27,89.337,
59927560,0.228,-0.243,1.137,-264.775,-77.84,101.867,
59927570,0.299,-0.198,1.242,-285.775,-97.982,117.827,
59927580,0.093,-0.671,1.253,-309.872,-112.91,130.987,
59927590,-0.042,-1.499,1.38,-318.045,-162.435,119.77,
59927600,0.318,-1.998,1.501,-305.06,-253.96,86.87,
59927610,0.292,-1.998,1.115,-275.362,-317.362,32.847,
59927620,0.28,-1.646,0.188,-214.287,-243.32,42.822,
59927630,-0.074,-1.765,-0.044,-64.295,-99.102,89.652,
59927640,0.023,-1.373,-0.098,49.91,1.82,80.885,
59927650,-0.173,-0.867,-0.377,154.787,35.192,91.63,
59927660,0.404,-0.304,-0.559,175.77,55.142,106.75,
59927670,0.513,0.015,-0.568,151.97,51.52,90.405,
59927680,0.33,0.19,-0.328,112.49,45.412,58.747,
59927690,0.271,0.426,-0.087,63.017,30.012,22.05,
59927700,0.359,0.451,0.074,14.28,30.467,-13.545,
59927710,0.357,0.285,0.209,-27.685,50.452,-44.66,
59927720,0.181,0.097,0.267,-48.79,83.405,-75.442,
59927730,-0.138,-0.041,0.287,-48.615,113.05,-101.587,
59927740,-0.466,-0.112,0.244,-31.5,130.865,-117.145,
59927750,-0.815,-0.122,0.165,-11.252,124.95,-120.312,
59927760,-0.943,-0.053,0.109,4.06,102.515,-114.922,
59927760,-0.862,-0.024,0.074,8.155,74.27,-98.052,
59927780,-0.731,-0.076,0.09,-2.817,60.707,-72.765,
59927780,-0.724,-0.163,0.134,-19.075,59.08,-41.86,
59927800,-1.077,-0.591,0.238,-27.755,62.825,9.94,
59927800,-0.236,-0.174,0.046,8.487,52.867,16.205,
59927820,0.342,-0.34,-1.199,20.02,53.497,-23.082,
59927820,1.994,-1.434,1.497,-28.997,156.485,-48.965,
59927830,0.697,-1.998,0.606,31.325,-170.1,-299.67,
59927840,0.464,0.017,-1.913,500.815,55.195,-513.205,
59927850,0.271,1.997,0.948,374.325,123.917,-270.182,
59927860,1.949,0.643,0.458,322.997,103.022,-173.897,
59927870,1.962,-1.03,1.705,393.522,151.392,-94.692,
59927880,1.553,0.527,1.294,409.657,138.547,53.375,
59927890,0.299,1.101,1.943,350.612,146.79,128.747,
59927900,-1.409,0.386,1.998,200.707,131.442,121.31,
59927910,-1.177,0.304,1.827,70.35,44.94,55.16,
59927920,-0.181,-0.053,1.337,-24.027,-28.525,-0.682,
59927930,0.657,-0.236,0.904,-67.882,-58.852,-15.89,
59927940,0.623,-0.312,0.865,-78.102,-53.007,1.452,
59927950,0.48,-0.237,1.014,-79.642,-50.995,19.967,
59927960,0.338,-0.221,1.178,-93.695,-54.46,32.55,
59927970,0.284,-0.069,1.195,-120.137,-58.922,32.235,
59927980,0.279,-0.261,1.171,-163.03,-55.142,24.08,
59927990,0.449,-0.204,1.149,-191.52,-49.035,24.255,
59928000,0.542,-0.214,1.152,-217.98,-40.582,34.807,
59928010,0.512,-0.262,1.058,-241.36,-40.407,47.827,
59928020,0.52,-0.232,1.03,-262.15,-52.92,61.932,
59928030,0.659,-0.181,1.017,-279.282,-72.782,82.547,
59928040,0.801,-0.533,0.984,-292.162,-79.992,112.315,
59928050,0.896,-0.997,1.054,-288.925,-70.21,139.79,
59928060,0.925,-1.569,1.635,-266.402,-56.857,139.685,
59928070,0.821,-1.997,1.97,-240.275,-77.14,113.19,
59928080,0.555,-1.993,1.387,-198.1,-102.27,69.562,
59928080,0.173,-1.665,0.896,-122.185,-68.53,44.73,
59928100,-0.142,-1.925,0.464,24.08,22.627,55.3,
59928100,-0.546,-1.345,0.037,197.802,7.997,49.49,
59928120,-0.183,-0.655,-0.64,312.83,-44.065,59.132,
59928120,0.326,-0.217,-0.84,302.242,-59.255,69.422,
59928140,0.457,-0.08,-0.933,246.732,-52.57,56.7,
59928140,0.253,0.036,-0.902,195.667,-38.097,36.837,
59928160,0.024,0.228,-0.831,131.372,-31.64,23.887,
59928160,-0.036,0.362,-0.724,54.39,-41.965,9.695,
59928170,-0.015,0.351,-0.633,-30.782,-60.567,-4.042,
59928180,0.132,0.131,-0.454,-101.692,-79.957,-28.14,
59928190,0.261,-0.072,-0.256,-142.31,-86.852,-56.28,
59928200,0.241,-0.117,-0.114,-167.79,-83.09,-79.922,
59928210,0.114,-0.13,0,-187.915,-75.46,-98.455,
59928220,-0.048,-0.167,0.09,-201.197,-75.162,-114.73,
59928230,-0.235,-0.211,0.191,-200.847,-81.357,-120.54,
59928240,-0.234,-0.039,0.184,-187.267,-83.317,-113.487,
59928250,-0.162,0.181,0.16,-168.577,-50.715,-77,
59928260,-0.907,0.185,0.32,-149.362,9.572,5.67,
59928270,-1.214,0.793,0.969,-106.89,32.252,105.577,
59928280,-0.253,-0.247,-0.568,-57.19,-36.75,70.472,
59928290,1.998,-1.994,1.401,-54.512,246.715,207.725,
59928300,-0.327,-1.998,0.488,67.165,213.447,-81.427,
59928310,-1.311,0.417,-1.694,532.98,59.5,-326.935,
59928320,-0.373,1.853,1.801,446.355,92.155,-123.725,
59928330,1.978,-1.334,-0.676,399.315,33.495,-57.68,
59928340,0.568,-0.16,1.425,451.797,138.67,-69.685,
59928350,1.143,0.858,1.088,449.05,132.09,-39.83,
59928360,0.593,0.644,1.938,376.582,165.042,58.135,
59928370,-0.166,0.466,1.998,285.74,136.202,40.862,
59928380,-0.399,0.627,1.995,149.432,88.007,23.432,
59928390,-0.158,0.149,1.707,22.855,22.225,11.445,
59928400,0.192,-0.018,1.319,-68.215,-22.61,7.017,
59928410,0.505,-0.27,1.007,-116.637,-45.57,15.592,
59928420,0.275,-0.443,1.086,-141.12,-54.092,32.83,
59928430,0.154,-0.102,1.281,-150.412,-77.612,44.73,
59928440,0.312,-0.039,1.264,-186.725,-104.79,41.982,
59928450,0.29,-0.217,1.094,-218.977,-112.752,54.81,
59928460,0.255,-0.297,0.928,-239.19,-116.077,63.245,
59928470,0.441,-0.4,0.928,-251.037,-126.42,72.152,
59928480,0.571,-0.377,1.066,-266.63,-135.467,88.952,
59928490,0.441,-0.925,1.506,-273.105,-153.142,95.427,
59928500,0.757,-1.935,1.461,-250.932,-195.545,81.095,
59928510,1.346,-1.998,1.076,-185.622,-228.865,32.427,
59928510,-1.165,-1.998,1.991,-105.805,-208.127,51.642,
59928530,-1.73,-1.998,0.861,241.937,-151.462,180.985,
59928530,0.933,-0.903,-1.634,554.505,-44.765,329.735,
59928550,1.935,0.064,-1.997,501.13,20.825,375.34,
59928550,1.876,-0.317,-1.825,293.737,71.715,314.265,
59928570,1.494,-0.811,-1.236,147.385,42.192,163.082,
59928570,1.448,-0.934,-0.938,100.205,41.195,24.132,
59928580,1.349,-0.675,-0.817,80.43,71.75,-78.68,
59928590,0.561,-0.59,-0.697,35.98,93.117,-148.837,
59928600,-0.047,-0.509,-0.687,-4.357,113.155,-179.13,
59928610,-0.351,-0.203,-0.653,-31.36,131.845,-201.302,
59928620,-0.492,0.062,-0.561,-80.972,153.422,-207.34,
59928630,-0.939,-0.06,-0.286,-153.965,162.365,-207.13,
59928640,-1.453,-0.399,0.125,-206.657,131.687,-195.79,
59928650,-1.597,-0.405,0.402,-211.68,104.335,-146.825,
59928660,-1.46,-0.318,0.641,-189.122,77.787,-81.9,
59928670,-1.126,-0.321,0.619,-154.927,64.767,-7.507,
59928680,-0.794,-0.147,0.398,-111.772,69.352,59.832,
59928690,-0.588,0.158,0.132,-80.675,73.412,104.772,
59928700,-0.542,0.47,-0.138,-73.535,60.742,124.705,
59928710,-0.479,0.888,-0.344,-87.377,31.482,119.91,
59928720,-0.197,1.241,0.431,-114.24,25.235,126.192,
59928730,1.912,-0.587,1.998,-70.875,-164.115,-38.027,
59928740,1.998,-1.998,-0.501,273.262,-158.165,-435.645,
59928750,-1.608,1.105,-0.754,508.865,220.99,-316.365,
59928760,0.527,0.856,0.996,325.815,-151.602,-245.052,
59928770,1.657,0.496,0.93,430.727,51.905,-154.437,
59928780,0.789,0.911,1.987,385.35,76.755,-64.89,
59928790,0.979,1.104,1.998,268.642,119.192,65.94,
59928800,-0.444,0.709,1.979,89.25,59.902,133.402,
59928810,-0.269,0.44,1.735,-17.342,-40.635,154.77,
59928820,0.049,-0.12,1.3,-98.665,-84.98,134.907,
59928830,0.034,-0.392,1.036,-146.667,-79.975,99.802,
59928830,-0.003,-0.394,1.016,-165.637,-58.24,71.05,
59928850,0.238,-0.347,1.011,-180.442,-38.587,31.43,
59928850,0.223,-0.282,1.089,-203.612,-18.602,25.602,
59928870,0.452,-0.227,1.016,-215.32,-8.732,16.467,
59928870,0.491,-0.369,0.947,-230.895,1.557,16.87,
59928890,0.481,-0.433,0.863,-237.562,-6.002,30.082,
59928890,0.577,-0.608,1.046,-247.467,-28.997,50.855,
59928910,0.925,-0.667,1.469,-253.067,-45.29,81.445,
59928910,1.024,-1.193,1.941,-245.962,-24.272,106.225,
59928920,0.399,-1.99,1.975,-220.272,-45.325,81.287,
59928930,-0.365,-1.998,1.718,-136.64,-131.635,1.855,
59928940,-0.351,-1.998,1.086,-50.102,-127.697,-31.097,
59928950,-1.549,-1.677,-0.118,154.77,-76.737,32.76,
59928960,-0.198,-0.2,-1.377,213.692,-47.95,61.022,
59928970,-0.094,-0.963,-0.749,75.285,-22.592,73.99,
59928980,0.057,-1.47,-0.477,48.177,-40.915,26.6,
59928990,-0.049,-0.65,-0.66,78.995,-14.665,23.03,
59929000,-0.072,0.044,-0.684,44.66,-12.862,21.367,
59929010,-0.068,-0.216,-0.429,-27.405,-16.1,16.17,
59929020,0.147,-0.336,-0.221,-59.692,3.622,9.03,
59929030,0.102,-0.182,-0.134,-79.695,43.697,16.397,
59929040,-0.032,-0.1,-0.043,-95.06,71.067,12.845,
59929050,0.019,-0.035,0.031,-103.827,84.245,7.472,
59929060,0.191,0.198,0.047,-108.097,100.187,7.472,
59929070,0.193,0.499,0.076,-107.24,101.447,-6.247,
59929080,0.089,0.595,0.101,-108.15,86.677,-32.095,
59929090,0.026,0.6,0.072,-107.03,67.217,-52.745,
59929100,0.012,0.61,0.008,-106.015,52.71,-64.662,
59929110,-0.115,0.54,-0.076,-112.56,41.912,-63.192,
59929120,-0.205,0.438,-0.122,-121.852,32.095,-57.12,
59929130,-0.13,0.367,-0.124,-130.847,20.44,-50.417,
59929140,-0.066,0.296,-0.165,-145.407,26.022,-32.252,
59929150,-0.354,-0.552,-0.215,-101.902,92.47,25.48,
59929160,1.6,-1.639,1.873,-20.002,77.245,-73.132,
59929170,1.161,-1.998,-0.545,168.822,-168.84,-338.765,
59929180,-1.111,1.579,-1.539,534.327,216.527,-342.002,
59929190,0.739,1.025,1.494,347.27,-114.1,-151.725,
59929200,1.877,-0.24,0.952,427.56,61.495,-85.242,
59929210,0.938,-0.599,1.654,462.927,38.202,-65.17,
59929220,1.631,1.638,1.865,437.08,66.447,23.712,
59929230,-0.015,0.162,1.998,308.052,84.507,95.357,
59929240,-0.418,0.577,1.971,166.88,44.362,91.105,
59929250,-0.339,0.291,1.763,34.212,-12.39,59.01,
59929260,0.049,0.063,1.448,-67.48,-53.83,30.187,
59929260,0.401,-0.094,1.191,-134.487,-77.665,19.39,
59929270,0.551,-0.157,1.131,-178.675,-83.195,23.432,
59929280,0.533,-0.151,1.165,-217.262,-84.857,34.685,
59929290,0.614,-0.369,1.146,-254.257,-88.847,51.327,
59929300,0.716,0.148,0.955,-263.812,-79.695,71.785,
59929310,0.441,-0.336,0.948,-295.54,-76.737,76.387,
59929320,0.369,-0.253,0.964,-311.132,-84.84,99.75,
59929330,0.689,-0.262,0.978,-330.82,-106.785,119.612,
59929340,1.162,-0.822,1.25,-353.885,-93.205,162.382,
59929350,1.558,-1.718,1.906,-337.365,-36.942,188.405,
59929360,1.385,-1.998,1.998,-292.337,6.212,182,
59929370,0.267,-1.998,1.562,-189.402,-15.242,112.91,
59929380,-1.575,-1.998,0.736,-29.557,-27.947,97.667,
59929390,-1.067,-1.743,0.069,157.43,-37.1,164.132,
59929400,0.02,-0.534,-0.955,248.78,-113.837,188.86,
59929410,1.575,0.044,-1.163,187.057,-46.585,227.132,
59929420,1.371,0.501,-0.716,80.465,16.485,191.187,
59929430,0.737,0.885,-0.207,4.83,7.77,77.892,
59929440,0.509,1.021,0.251,-60.725,19.11,11.112,
59929450,0.487,1.101,0.575,-89.372,13.44,-35.717,
59929460,0.142,1.321,0.796,-92.137,-9.555,-77.035,
59929470,-0.119,1.25,1.059,-70.945,-33.74,-92.172,
59929480,-0.027,1.092,1.142,-41.702,-46.917,-94.99,
59929490,0.008,0.724,1.134,-18.917,-51.205,-88.042,
59929500,-0.098,0.363,1.024,20.79,-52.15,-90.125,
59929510,-0.196,0.086,0.868,65.712,-52.01,-94.307,
59929520,-0.286,-0.17,0.548,108.237,-41.895,-95.462,
59929530,-0.354,-0.313,0.098,144.462,-32.007,-99.592,
59929540,-0.368,-0.347,-0.365,155.75,-24.202,-106.312,
59929550,-0.349,-0.378,-0.812,125.265,-22.12,-115.097,
59929560,-0.249,-0.52,-1.126,58.45,-10.832,-122.622,
59929570,-0.334,-0.934,-1.257,-23.782,-0.77,-123.602,
59929580,-0.569,-1.311,-1.243,-89.372,-2.24,-133.192,
59929580,-0.721,-1.61,-1.139,-131.425,-7.647,-138.897,
59929600,-1.573,-1.876,-1.257,-151.637,18.952,-67.252,
59929600,1.312,-1.998,-0.778,-105.017,150.622,-131.005,
59929620,0.762,-1.998,0.954,-76.317,130.007,-254.642,
59929620,-0.25,0.421,-1.205,469.84,-22.225,-528.5,
59929640,1.998,1.997,1.998,369.337,284.095,-305.182,
59929640,1.696,-1.107,-0.378,214.987,112.945,-158.112,
59929660,1.938,-0.326,0.549,369.932,240.38,-46.952,
59929660,1.469,1.039,1.1,382.742,267.627,68.46,
59929670,0.401,-0.109,1.727,307.912,257.337,174.895,
59929680,-1.576,0.384,1.998,234.36,194.67,143.867,
59929690,-1.65,0.334,1.985,100.87,104.02,50.33,
59929700,-0.096,0.162,1.568,-14.35,14.997,-20.895,
59929710,0.917,-0.082,0.99,-81.34,-24.447,-32.672,
59929720,0.788,-0.351,0.776,-113.102,-13.825,-9.222,
59929730,0.493,-0.414,0.873,-111.632,-1.26,13.807,
59929740,0.206,-0.306,1.099,-110.407,-0.822,24.885,
59929750,0.17,-0.238,1.256,-117.337,-18.637,29.785,
59929760,0.135,-0.048,1.318,-152.985,-29.172,23.905,
59929770,0.167,-0.164,1.328,-196.98,-37.66,28.402,
59929780,0.251,-0.06,1.243,-231,-50.19,31.657,
59929790,0.273,-0.208,1.183,-264.04,-71.89,37.38,
59929800,0.516,-0.147,1.148,-291.655,-96.005,50.575,
59929810,0.778,-0.067,1.067,-316.47,-105.14,75.967,
59929820,1.035,-0.478,1.051,-344.802,-75.32,113.417,
59929830,0.809,-1.088,1.284,-350.787,-31.99,139.195,
59929840,0.767,-1.691,1.419,-324.59,3.412,133.122,
59929850,0.989,-1.926,1.398,-276.43,9.205,101.01,
59929860,1,-1.852,1.21,-211.12,46.235,81.305,
59929870,0.877,-1.189,0.505,-110.792,96.652,62.545,
59929880,0.825,-1.055,-0.001,-21.91,159.635,36.627,
59929890,-0.109,-1.051,0.424,39.095,183.452,25.952,
59929900,-0.115,-0.461,-0.117,114.782,113.277,28.507,
59929910,0.678,0.142,-0.449,147.472,85.68,41.405,
59929920,0.724,0.355,-0.501,118.772,59.797,26.092,
59929930,0.308,0.356,-0.429,82.985,20.212,-9.905,
59929940,0.198,0.312,-0.385,53.637,-15.242,-31.885,
59929940,0.272,0.314,-0.373,26.092,-48.02,-41.475,
59929960,0.169,0.193,-0.298,-3.185,-82.407,-58.975,
59929960,-0.255,0.089,-0.222,-22.872,-110.442,-67.41,
59929980,-0.655,0.122,-0.137,-38.447,-135.992,-66.22,
59929980,-0.549,-0.297,-0.095,-52.622,-149.642,-51.712,
59930000,-0.795,-0.337,0.087,-44.66,-144.69,-11.83,
59930000,-0.284,-0.358,0.003,-7.472,-132.877,-1.942,
59930010,-0.293,-0.613,0.004,8.155,-126.647,-35.105,
59930020,-0.677,-0.814,-0.064,-7.822,-88.34,-11.252,
59930030,-0.461,-0.682,-0.202,8.715,-47.722,-7.612,
59930040,-0.497,-0.645,-0.352,4.637,-28.175,-21.717,
59930050,0.07,-0.782,-1.725,5.442,52.465,-28.402,
59930060,1.255,-1.565,0.77,-33.46,296.555,11.935,
59930070,-0.837,-1.998,1.698,-27.072,83.842,-136.902,
59930080,0.243,-0.173,-1.99,449.697,99.05,-380.24,
59930090,-1.627,1.907,0.311,429.152,105.28,-277.357,
59930100,1.803,-1.445,0.261,331.152,17.15,-218.575,
59930110,1.91,1.186,1.121,476.595,132.23,-195.685,
59930120,1.973,0.078,1.256,449.557,169.855,-60.917,
59930130,1.354,1.376,1.813,410.602,187.18,81.305,
59930140,-0.42,0.497,1.998,286.737,167.072,157.045,
59930150,-1.15,0.682,1.998,133.472,65.537,156.905,
59930160,-0.644,0.471,1.885,-5.18,-33.04,113.68,
59930170,-0.199,0.075,1.478,-120.26,-75.005,60.462,
59930180,0.09,-0.296,1.068,-193.48,-77.682,19.88,
59930190,0.337,-0.472,0.848,-216.702,-77.315,4.025,
59930200,0.699,-0.094,0.942,-197.715,-75.95,-1.225,
59930210,0.361,-0.467,1.026,-224.682,-72.012,15.015,
59930220,0.421,-0.263,1.007,-226.537,-67.322,22.785,
59930230,0.523,-0.333,0.889,-239.942,-62.387,28.56,
59930240,0.583,-0.376,0.735,-243.932,-58.362,41.142,
59930250,0.768,-0.407,0.74,-244.055,-63.787,60.322,
59930260,0.931,-0.513,1.011,-247.765,-68.005,90.09,
59930270,0.993,-1.002,1.295,-247.607,-63.997,125.93,
59930280,1.03,-1.796,1.659,-220.447,-48.002,133.857,
59930290,0.909,-1.998,1.619,-163.992,-66.185,105.017,
59930300,0.168,-1.998,0.756,-97.177,-89.407,59.762,
59930310,-0.617,-1.982,0.999,32.095,-46.41,26.355,
59930320,-1.038,-1.392,0.233,174.65,-35.682,58.537,
59930330,0.504,-0.193,-1.124,214.235,-12.372,75.985,
59930330,0.532,0.254,-0.75,134.225,37.397,66.885,
59930350,0.105,-0.166,-0.279,46.672,43.522,15.767,
59930350,-0.159,0.04,-0.043,30.572,52.867,-20.65,
59930370,-0.344,0.572,-0.03,34.265,35.175,-51.187,
59930370,-0.524,0.675,-0.068,6.877,0.017,-63.455,
59930390,-0.732,0.516,-0.039,-35.227,-25.042,-34.177,
59930390,-0.605,0.326,0.086,-51.397,-33.302,4.567,
59930410,-0.46,0.113,0.168,-54.145,-19.337,49.542,
59930410,-0.485,-0.079,0.272,-49.805,1.627,84.455,
59930420,-0.399,-0.119,0.212,-27.755,-2.432,85.575,
59930430,-0.243,0.028,0.011,-7.927,-16.642,76.947,
59930440,0.02,0.135,-0.178,-7.665,-23.537,67.865,
59930450,0.152,0.203,-0.305,-25.655,-23.415,56.315,
59930460,0.085,0.054,-0.201,-57.032,-23.082,46.55,
59930470,0.202,-0.123,-1.668,-53.847,38.657,83.055,
59930480,1.592,-1.653,1.728,-110.95,134.767,-22.715,
59930490,0.169,-1.962,-0.648,89.232,-184.66,-366.31,
59930500,-1.098,1.747,-0.668,497.175,112.245,-392.542,
59930510,0.647,1.494,1.266,282.397,-46.147,-170.642,
59930520,1.998,-0.978,0.189,290.99,44.835,-162.925,
59930530,1.359,-0.677,1.066,375.812,107.782,-125.86,
59930540,1.84,0.382,1.047,417.27,111.16,-18.83,
59930550,0.917,0.68,1.621,390.862,131.845,80.937,
59930560,-0.41,0.721,1.992,287.262,128.992,114.432,
59930570,-0.865,0.323,1.98,149.835,77.717,86.012,
59930580,-0.472,0.303,1.724,25.9,11.952,36.015,
59930590,0.265,0.083,1.384,-68.11,-40.862,10.867,
59930600,0.476,0.041,1.228,-130.812,-62.737,15.207,
59930610,0.519,-0.199,1.057,-175.91,-69.422,27.755,
59930620,0.502,-0.36,0.981,-190.382,-69.387,40.915,
59930630,0.543,-0.149,0.964,-201.372,-62.807,39.042,
59930640,0.481,-0.435,0.967,-227.29,-41.23,52.43,
59930650,0.522,-0.35,0.923,-227.325,-26.407,56.227,
59930660,0.464,-0.432,0.862,-229.18,-17.762,64.75,
59930670,0.432,-0.443,0.777,-225.47,-25.252,73.045,
59930670,0.519,-0.54,0.878,-228.515,-38.745,91.035,
59930690,0.787,-0.651,1.181,-229.215,-47.495,117.04,
59930690,1.008,-1.384,1.612,-221.567,-33.652,142.082,
59930710,1.296,-1.984,1.629,-186.112,-9.625,125.65,
59930710,1.003,-1.957,1.086,-119.612,-0.105,66.57,
59930730,0.314,-1.521,0.684,-41.142,3.237,-19.722,
59930730,0.418,-0.779,-0.04,37.695,56.822,-45.99,
59930750,0.322,-0.346,0.127,66.955,84.087,-30.065,
59930750,0.879,0.247,-0.593,63.542,62.387,-71.225,
59930760,0.448,0.351,-0.246,28.017,60.672,-111.475,
59930770,0.211,0.042,-0.018,-19.827,63.455,-134.54,
59930780,0.077,0.037,0.017,-21.98,55.475,-161.385,
59930790,-0.142,0.171,-0.027,-19.827,43.82,-168.122,
59930800,-0.389,0.045,-0.02,-34.002,24.815,-158.69,
59930810,-0.532,-0.118,-0.001,-41.16,0.297,-139.3,
59930820,-0.517,-0.294,0.027,-40.057,-23.31,-112.63,
59930830,-0.593,-0.018,0.001,-32.497,-40.81,-76.632,
59930840,-0.393,-0.062,0.029,-11.007,-58.257,-67.27,
59930850,-0.539,-0.063,0.046,-25.76,-70.98,-40.162,
59930860,-0.739,0.016,0.051,-31.692,-71.697,-5.092,
59930870,-0.785,0.175,0.095,-31.237,-88.83,14.542,
59930880,-0.825,0.068,0.126,-48.79,-106.977,42.525,
59930890,-0.001,-0.72,-1.651,-50.225,-54.337,68.495,
59930900,1.979,-1.998,1.747,-145.477,177.87,64.172,
59930910,-1.171,-1.154,-1.847,208.18,79.905,-256.532,
59930920,-1.006,1.997,0.96,396.095,113.592,-311.815,
59930930,1.536,0.232,0.091,240.485,111.37,-98.14,
59930940,1.694,-1.506,0.821,335.475,131.932,-73.027,
59930950,1.549,0.588,0.835,406.665,158.41,-12.915,
59930960,1.035,0.334,1.515,374.115,156.782,89.372,
59930970,-0.174,0.361,1.843,303.677,149.782,118.405,
59930980,-0.924,0.602,1.993,185.482,109.042,93.432,
59930990,-0.656,0.177,1.783,68.32,48.86,31.185,
59931000,0.068,0.111,1.421,-27.475,-2.607,-4.375,
59931010,0.544,-0.071,1.111,-88.742,-30.992,-6.475,
59931020,0.419,-0.321,1.014,-126.122,-31.99,6.825,
59931030,0.36,-0.329,1.05,-132.072,-39.882,17.01,
59931040,0.152,-0.275,1.212,-148.225,-49.612,19.512,
59931050,0.418,-0.203,1.166,-176.032,-69.195,28.402,
59931060,0.423,-0.177,1.101,-199.727,-67.97,33.32,
59931070,0.282,-0.404,1.012,-219.87,-72.94,42.822,
59931080,0.342,-0.336,0.962,-227.255,-85.26,49.087,
59931080,0.614,-0.184,1.07,-240.817,-97.597,61.757,
59931100,0.726,-0.462,1.17,-256.532,-99.75,81.042,
59931100,0.762,-1.253,1.613,-258.387,-99.347,94.342,
59931120,1.131,-1.991,1.745,-218.382,-112.192,79.852,
59931120,0.916,-1.998,1.317,-146.615,-138.442,37.712,
59931140,0.027,-1.998,0.433,-69.51,-86.397,4.06,
59931140,-1.134,-1.949,0.828,61.74,30.502,51.485,
59931160,-0.839,-0.942,-0.595,199.92,-3.692,75.95,
59931160,0.816,-0.051,-1.118,200.655,15.802,105.052,
59931170,0.921,-0.04,-0.856,102.48,46.83,98.822,
59931180,0.562,-0.176,-0.629,42.542,42.717,34.09,
59931190,0.298,0.151,-0.538,11.147,46.287,-5.162,
59931200,0.217,0.434,-0.379,-32.095,33.18,-38.71,
59931210,0.11,0.234,-0.141,-95.55,21.682,-61.547,
59931220,-0.097,0.045,0.081,-124.687,23.065,-80.01,
59931230,-0.378,0.078,0.219,-119.017,25.375,-89.512,
59931240,-0.554,0.239,0.283,-103.127,28.822,-89.897,
59931250,-0.672,0.276,0.335,-96.88,29.872,-78.19,
59931260,-0.754,0.201,0.338,-87.517,29.522,-59.85,
59931270,-0.825,0.264,0.261,-68.302,22.242,-37.432,
59931280,-1.019,-0.074,0.188,-54.372,15.61,-1.435,
59931290,-0.54,0.53,0.203,-17.097,11.917,47.495,
59931300,0.282,0.072,-1.233,-11.55,13.37,7.087,
59931310,1.905,-1.53,1.304,-106.067,151.462,7.262,
59931320,1.354,-1.998,-0.226,9.572,-67.112,-287.297,
59931330,-0.443,1.042,-0.846,503.422,135.8,-471.117,
59931340,0.755,1.982,1.153,317.152,113.015,-184.905,
59931350,1.998,-0.241,-0.065,329.192,143.43,-115.605,
59931360,1.499,-0.697,1.6,388.342,202.545,-26.425,
59931370,1.741,0.156,1.39,414.452,161.91,74.2,
59931380,-0.143,0.985,1.93,342.002,142.642,151.777,
59931390,-0.782,0.548,1.997,205.537,88.357,170.1,
59931400,-0.861,0.87,1.998,55.352,12.635,120.68,
59931410,-0.43,0.67,1.995,-105.892,-47.757,62.632,
59931420,0.3,0.468,1.992,-272.177,-66.412,23.012,
59931420,0.51,0.331,1.529,-384.755,-79.695,38.762,
59931440,0.818,0.427,0.922,-403.48,-57.715,70.42,
59931440,0.319,-0.464,0.494,-409.762,-39.305,65.03,
59931460,0.03,-0.766,0.384,-365.925,-18.812,70.752,
59931460,-0.128,-0.64,0.27,-298.847,-26.81,61.862,
59931480,0.142,-0.992,0.359,-239.505,-41.632,54.775,
59931480,0.071,-1.401,0.131,-180.547,-77.77,24.29,
59931500,0.226,-1.488,0.131,-121.87,-91.297,-8.487,
59931500,0.154,-1.164,0.2,-73.622,-67.62,-21.297,
59931510,0.011,-0.74,0.01,-30.345,-62.212,-39.952,
59931520,0.2,-0.811,0.05,-6.562,-56.122,-56.647,
59931530,0.183,-0.916,0.26,15.715,-42.735,-63.577,
59931540,-0.196,-0.739,1.038,46.06,-78.557,-84.087,
59931550,-0.108,-0.801,0.85,100.362,-98.385,-93.747,
59931560,-0.211,-0.295,0.453,168.122,-73.185,-71.155,
59931570,-1.038,-0.186,0.879,195.317,-84.822,-15.312,
59931580,-0.016,-0.807,0.623,191.66,-69.807,50.032,
59931590,0.937,-0.969,0.425,198.17,5.582,107.66,
59931600,0.88,-0.744,0.302,195.317,61.215,120.995,
59931610,0.793,-0.607,0.309,163.205,84.157,96.442,
59931620,0.938,-0.716,0.136,112.805,77.175,56.35,
59931630,1.155,-0.646,0.04,74.375,45.605,-21.647,
59931640,0.142,-0.718,0.272,61.53,-18.182,-101.902,
59931650,-0.079,-0.529,0.764,62.982,-57.855,-134.907,
59931660,-0.159,-1.309,0.935,45.482,-61.88,-91.7,
59931670,0.635,-1.061,0.556,90.107,-54.18,-57.925,
59931680,0.167,-0.683,0.904,111.317,-61.267,-27.125,
59931690,-0.035,-0.951,0.831,118.405,-75.355,-3.15,
59931700,0.981,-0.285,0.658,130.375,-38.64,17.447,
59931710,1.248,0.329,0.73,119.98,-29.732,13.195,
59931720,1.221,0.744,0.801,83.387,-12.425,-7.14,
59931730,1.108,0.707,0.833,59.762,1.872,-22.995,
59931740,0.397,-0.087,0.816,43.015,3.325,-21.122,
59931750,0.725,-1.082,0.744,28.297,32.917,10.657,
59931760,1.129,-0.536,0.691,64.312,63.192,7.332,
59931770,0.5,-0.166,0.737,65.467,66.5,2.45,
59931780,0.227,-0.353,0.926,51.59,80.5,16.52,
59931790,0.201,-0.376,0.966,54.022,75.197,16.327,
59931800,0.14,-0.424,0.95,54.792,65.782,5.495,
59931810,0.046,-0.414,0.985,52.412,51.852,-8.295,
59931820,0.086,-0.273,1.006,52.027,37.537,-22.277,
59931830,0.239,-0.186,0.995,47.355,21,-29.54,
59931830,0.27,-0.112,1.078,37.187,8.995,-29.067,
59931850,0.486,-0.117,0.997,25.445,-4.55,-20.86,
59931850,0.61,-0.062,0.861,14.017,-6.72,-5.617,
59931870,0.589,-0.13,0.779,11.13,1.137,13.492,
59931870,0.636,-0.358,0.728,16.012,15.365,33.652,
59931890,0.428,-0.314,0.894,18.935,25.83,43.54,
59931890,0.218,-0.31,0.976,17.692,24.955,45.43,
59931910,0.03,-0.43,1.1,11.287,11.882,40.25,
59931910,0.032,-0.214,1.105,-1.137,-10.745,24.937,
59931920,0.274,-0.266,1.017,-15.575,-30.572,17.325,
59931930,0.393,-0.206,1.008,-29.435,-42.087,15.855,
59931940,0.449,-0.171,1.028,-46.935,-50.295,21.997,
59931950,0.336,-0.228,1.071,-64.89,-60.27,32.165,
59931960,0.316,-0.208,1.043,-75.932,-73.15,35.122,
59931970,0.283,-0.295,1.08,-101.535,-83.877,36.067,
59931980,0.329,-0.243,1.065,-120.032,-96.232,31.972,
59931990,0.412,-0.284,1.014,-141.977,-109.007,31.465,
59932000,0.552,-0.306,0.916,-163.31,-115.622,35.665,
59932010,0.625,-0.336,0.92,-183.47,-118.615,46.847,
59932020,0.678,-0.325,0.945,-202.09,-119.525,65.87,
59932030,0.694,-0.457,0.971,-216.755,-120.05,92.47,
59932040,0.654,-0.636,1.014,-213.815,-115.202,108.237,
59932050,0.683,-0.999,1.117,-196.822,-116.585,109.357,
59932060,0.855,-1.746,1.158,-177.257,-154.612,95.795,
59932070,0.871,-1.97,0.729,-130.55,-221.357,58.905,
59932080,-0.125,-1.998,1.04,-61.95,-165.812,73.955,
59932090,-1.739,-1.998,1.61,102.112,-72.135,114.922,
59932100,-0.482,-1.444,-0.469,303.677,-82.022,135.8,
59932110,0.576,-0.587,-0.801,322.525,-17.955,181.037,
59932120,0.651,-0.342,-0.892,259.035,39.9,166.355,
59932130,0.633,-0.399,-0.722,192.237,100.695,133.752,
59932140,0.462,-0.245,-0.593,145.582,135.205,103.442,
59932150,0.329,0.037,-0.643,92.785,136.027,57.855,
59932160,0.134,0.209,-0.672,30.502,119.105,16.957,
59932170,-0.006,0.314,-0.635,-40.127,99.68,-2.852,
59932170,-0.038,0.206,-0.412,-107.677,84.122,-19.827,
59932190,0.026,0.043,-0.156,-172.515,68.792,-34.86,
59932190,0.176,-0.093,0.064,-222.897,68.985,-55.23,
59932210,0.133,-0.052,0.202,-249.007,88.34,-73.885,
59932210,-0.148,0.207,0.254,-256.567,112.385,-93.362,
59932230,-1.092,-0.087,0.876,-214.392,136.85,-97.09,
59932230,-1.478,-0.125,1.946,-90.177,-2.572,-166.25,
59932250,1.008,-1.381,1.998,-7.402,-17.832,-93.327,
59932250,1.998,-1.998,-0.535,145.075,60.27,-178.955,
59932260,-0.237,0.244,-0.504,385.49,145.81,-290.535,
59932270,-0.169,-0.708,0.766,262.517,27.457,-142.257,
59932280,1.969,0.598,0.168,409.482,42.525,-72.747,
59932290,1.463,-0.313,0.981,426.422,81.322,24.36,
59932300,0.439,0.921,1.816,416.762,100.747,118.807,
59932310,-0.292,0.625,1.995,323.82,100.782,124.372,
59932320,-0.719,0.77,1.998,178.57,71.155,70.507,
59932330,-0.366,0.42,1.944,32.025,19.985,14.087,
59932340,0.439,0.37,1.596,-91.612,-30.852,-7.105,
59932350,0.657,0.137,1.305,-180.355,-48.86,9.677,
59932360,0.276,-0.341,1.05,-229.285,-56.087,41.65,
59932370,0.953,0.096,1.139,-236.337,-74.532,62.51,
59932380,0.367,-0.317,1.093,-281.4,-68.145,91.945,
59932390,0.205,-0.276,1.072,-290.22,-70.752,104.265,
59932400,0.068,-0.279,0.957,-305.952,-78.68,103.95,
59932410,0.327,-0.378,0.892,-316.557,-93.502,108.22,
59932420,0.752,-0.462,1.185,-325.307,-90.965,126.595,
59932430,0.81,-1.366,1.766,-322.035,-76.86,140.595,
59932440,1.1,-1.998,1.944,-278.81,-84.507,107.957,
59932450,1.207,-1.998,1.196,-197.837,-91.892,54.617,
59932460,0.443,-1.856,0.982,-89.407,-28.49,9.152,
59932470,0.04,-1.625,-0.03,43.662,75.18,22.837,
59932480,-0.515,-0.979,0.149,153.877,125.58,65.922,
59932490,0.543,-0.28,-0.928,172.147,73.622,71.295,
59932500,1.099,0.301,-1.016,125.965,92.242,74.532,
59932510,0.681,0.455,-0.727,55.3,51.152,23.432,
59932520,0.634,0.35,-0.371,-10.115,12.967,-13.16,
59932530,0.666,0.387,-0.127,-46.48,-18.357,-46.392,
59932540,0.37,0.364,0.086,-62.09,-58.905,-96.95,
59932550,0.087,0.317,0.155,-62.195,-84.105,-120.662,
59932560,0.032,0.379,0.166,-68.355,-84.945,-125.02,
59932570,-0.129,0.448,0.226,-65.852,-81.935,-117.932,
59932580,-0.286,0.411,0.294,-60.06,-73.377,-103.32,
59932580,-0.32,0.318,0.347,-50.505,-65.992,-88.27,
59932600,-0.282,0.188,0.347,-36.172,-54.32,-73.342,
59932600,-0.444,-0.43,0.368,-9.992,-42.385,-56.84,
59932620,-0.386,0.318,0.329,43.522,-27.51,-16.135,
59932620,0.121,-0.012,0.078,69.265,-41.86,-86.152,
59932640,-0.72,-0.559,0.074,31.482,-41.037,-51.485,
59932640,-0.858,-0.468,-0.162,50.26,-34.615,-22.54,
59932660,0.261,-1.65,-1.512,65.047,10.762,-33.582,
59932660,1.339,-1.998,0.686,6.422,174.457,2.572,
59932670,-1.494,-1.669,-1.128,234.92,101.167,-224.262,
59932680,-0.349,1.981,0.601,521.657,120.26,-343.56,
59932690,1.614,1.805,1.371,375.007,107.922,-217.595,
59932700,1.8,-1.452,1.328,302.032,160.3,-84.052,
59932710,1.507,0.124,1.261,339.605,203.315,7.227,
59932720,0.471,1.173,1.847,273.122,159.687,62.23,
59932730,-0.362,0.31,1.992,148.89,111.3,120.102,
59932740,-0.691,0.35,1.861,38.185,32.585,100.327,
59932750,-0.458,-0.157,1.491,-72.135,-24.272,55.282,
59932760,-0.01,-0.415,1.07,-135.537,-50.767,9.065,
59932770,0.496,-0.365,0.728,-140.542,-60.13,-11.515,
59932780,0.665,-0.538,0.576,-135.905,-47.547,-23.485,
59932790,0.669,-0.57,0.542,-118.492,-31.675,-6.982,
59932800,0.585,-0.592,0.584,-98.752,-17.797,2.537,
59932810,0.475,-0.54,0.719,-79.87,-10.535,9.782,
59932820,0.388,-0.447,0.888,-71.907,-5.425,12.635,
59932830,0.321,-0.358,1.02,-77.682,-7.087,13.177,
59932840,0.337,-0.32,1.088,-97.685,-9.712,12.355,
59932850,0.396,-0.332,1.103,-121.45,-17.36,14.175,
59932860,0.382,-0.302,1.099,-144.077,-23.397,20.597,
59932870,0.355,-0.356,1.058,-168.262,-36.435,26.582,
59932880,0.292,-0.32,1.029,-191.152,-51.992,32.497,
59932890,0.391,-0.282,1.003,-213.115,-72.135,40.81,
59932900,0.52,-0.458,1.019,-235.445,-79.485,52.972,
59932910,0.525,-0.592,1.114,-250.39,-86.747,58.1,
59932920,0.735,-1.283,1.496,-257.845,-87.902,51.485,
59932920,1.092,-1.902,1.81,-239.26,-74.077,33.355,
59932940,1.269,-1.998,1.202,-183.68,-35.332,-11.497,
59932940,0.332,-1.533,0.726,-101.71,27.142,-44.065,
59932960,-0.486,-1.182,0.574,-18.952,122.272,-60.042,
59932960,-1.435,-0.759,0.915,58.922,114.537,-50.592,
59932980,-0.861,0.127,-0.084,121.362,30.065,-30.677,
59932980,-0.231,0.674,-0.039,119.997,44.852,35.892,
59933000,-0.361,0.497,0.349,70.507,53.987,73.167,
59933000,-0.359,0.311,0.587,63.647,53.095,78.802,
59933010,-0.278,0.374,0.634,81.427,58.975,91.507,
59933020,-0.159,0.363,0.579,94.605,54.092,90.807,
59933030,-0.169,0.146,0.414,99.75,49.157,84.192,
59933040,-0.173,-0.016,0.139,115.797,52.657,79.537,
59933050,-0.268,-0.048,-0.172,132.177,52.885,76.562,
59933060,-0.374,-0.063,-0.425,123.602,42.437,75.32,
59933070,-0.307,-0.151,-0.611,92.907,24.342,71.435,
59933080,-0.151,-0.341,-0.759,50.697,9.66,63.367,
59933090,-0.225,-0.766,-1.185,6.492,3.377,48.072,
59933100,1.186,-1.551,-0.653,-48.405,193.13,63.122,
59933110,0.377,-1.998,1.191,-251.125,25.76,-138.67,
59933120,1.126,-1.836,-0.632,269.92,-241.972,-523.337,
59933130,-1.811,1.588,-0.277,370.562,58.38,-352.695,
59933140,1.789,1.615,0.634,307.615,-102.27,-230.037,
59933150,1.996,-1.811,0.632,228.392,101.15,-103.285,
59933160,0.172,-0.555,0.919,320.88,102.637,-2.8,
59933170,1.742,0.906,1.285,377.51,85.12,107.677,
59933180,-0.548,0.312,1.853,293.282,105.455,178.64,
59933190,-1.048,0.553,1.915,185.325,60.375,144.042,
59933200,-1.013,0.168,1.805,73.937,27.195,53.392,
59933210,-0.053,0.1,1.437,-23.275,-17.64,-15.767,
59933220,0.788,-0.053,1.012,-85.365,-38.482,-30.94,
59933230,0.859,-0.251,0.876,-115.29,-28.052,-9.87,
59933240,0.597,-0.374,0.906,-116.69,-16.047,21.297,
59933250,0.345,-0.306,0.986,-118.545,-12.355,30.66,
59933260,0.277,-0.434,1.005,-133.7,-9.555,38.377,
59933270,0.412,-0.282,1.017,-141.015,-9.905,40.862,
59933280,0.343,-0.374,1.028,-152.39,-2.887,46.83,
59933290,0.34,-0.377,1.038,-160.475,-5.092,52.5,
59933300,0.287,-0.436,1.052,-172.427,-15.785,60.182,
59933310,0.263,-0.314,1.036,-185.57,-44.572,75.565,
59933320,0.547,-0.332,1.047,-208.915,-72.152,99.697,
59933330,0.503,-0.5,0.997,-236.25,-89.67,133.717,
59933330,0.592,-0.952,1.26,-250.057,-83.142,163.712,
59933350,0.227,-1.241,1.297,-238.07,-83.002,166.74,
59933350,0.342,-1.608,1.419,-225.785,-126.735,130.69,
59933360,0.786,-1.953,1.242,-200.095,-193.97,69.825,
59933370,0.673,-1.638,0.809,-161.962,-174.265,43.26,
59933380,0.495,-1.555,0.366,-81.672,-45.027,65.852,
59933390,0.126,-1.674,0.202,44.047,37.992,50.155,
59933400,-0.637,-1.091,-0.213,160.895,27.37,37.73,
59933410,-0.064,-0.511,-0.866,236.652,2.52,59.045,
59933420,0.328,-0.115,-0.812,209.072,-1.452,76.195,
59933430,0.252,-0.074,-0.739,149.135,-28.857,41.79,
59933440,0.182,0.007,-0.619,95.077,-31.727,11.795,
59933450,-0.051,0.115,-0.407,41.387,-17.272,9.135,
59933460,-0.418,0.219,-0.185,-16.152,-12.897,11.882,
59933470,-0.507,0.055,-0.003,-59.797,-24.64,9.117,
59933480,-0.541,0.016,0.069,-85.067,-35.787,21.367,
59933490,-0.764,0,0.127,-109.182,-54.162,41.86,
59933500,-0.824,0.012,0.231,-116.742,-89.372,56.612,
59933510,-0.455,-0.145,0.257,-109.532,-123.812,65.432,
59933520,-0.283,-0.368,0.303,-99.995,-136.587,71.995,
59933530,-0.258,-0.478,0.373,-79.87,-122.587,74.235,
59933540,-0.904,-0.82,0.331,-50.487,-93.975,96.722,
59933550,-0.736,-0.541,0.151,46.077,-106.382,84.245,
59933560,-0.045,0.235,-0.524,64.627,-93.38,51.257,
59933570,1.864,-0.85,1.491,25.777,90.842,122.5,
59933580,1.845,-1.998,0.399,93.537,-95.322,-164.692,
59933590,-0.302,0.678,-1.445,482.667,127.942,-440.562,
59933600,-0.161,1.247,1.552,284.182,-60.952,-206.832,
59933610,1.998,-0.589,-0.2,329.175,2.152,-139.755,
59933620,1.463,0.223,0.883,381.762,61.197,-134.557,
59933630,1.118,-0.379,1.29,336.7,59.64,-26.495,
59933640,1.469,1.084,1.674,337.155,57.925,82.967,
59933650,-0.295,0.523,1.998,215.162,48.02,130.76,
59933660,-1.522,0.143,1.89,80.307,25.357,71.522,
59933670,0.584,0.092,1.452,-37.992,-14.455,-14.35,
59933670,0.712,-0.252,1.01,-107.31,-25.725,-18.707,
59933690,0.673,-0.24,0.829,-127.715,-24.202,4.935,
59933690,0.375,-0.692,0.758,-133.805,-20.755,22.312,
59933710,0.347,-0.454,0.805,-120.015,-20.422,26.04,
59933710,0.314,-0.481,0.867,-122.22,-16.835,25.217,
59933730,0.35,-0.444,0.91,-128.1,-13.352,20.3,
59933730,0.383,-0.42,0.909,-135.87,-8.785,22.75,
59933750,0.439,-0.423,0.867,-145.845,-9.8,23.607,
59933750,0.408,-0.531,0.838,-157.64,-18.48,29.452,
59933760,0.479,-0.559,0.807,-166.565,-28.332,43.505,
59933770,0.666,-0.534,0.839,-175.77,-32.025,60.042,
59933780,0.916,-0.539,0.985,-191.222,-23.397,81.637,
59933790,1.137,-0.892,1.072,-196.21,6.037,102.375,
59933800,1.609,-1.488,1.27,-176.435,73.342,111.58,
59933810,1.563,-1.997,1.313,-135.38,172.515,112.857,
59933820,0.711,-1.752,0.967,-72.66,224.175,71.592,
59933830,-0.15,-1.998,0.124,-28.77,210.525,7.805,
59933840,-0.449,-1.998,-0.271,27.93,181.562,-10.517,
59933850,0.817,-1.598,-1.447,92.067,124.88,-11.13,
59933860,1.77,-0.821,-1.565,58.275,132.282,-62.352,
59933870,0.111,-0.383,-0.632,-45.902,141.067,-125.702,
59933880,-0.369,0.002,-0.084,-88.567,160.72,-221.777,
59933890,-0.064,-1.171,-0.145,-118.3,238.455,-230.405,
59933900,-1.6,-0.447,0.157,-112,201.827,-182.035,
59933910,-1.793,0.206,0.423,-84.105,90.422,-128.362,
59933920,-0.831,0.158,0.551,-84.332,36.295,-60.777,
59933930,-0.748,0.148,0.643,-71.032,17.412,-5.022,
59933940,-0.854,0.493,0.608,-35.07,-1.645,29.05,
59933950,-0.547,0.639,0.494,-3.797,-19.512,60.637,
59933960,-0.314,0.615,0.399,17.22,-28.98,77.56,
59933970,-0.438,0.601,0.205,36.68,-38.36,79.012,
59933980,-0.446,0.559,-0.054,48.79,-54.372,70.28,
59933990,-0.378,0.489,-0.205,43.592,-73.395,74.795,
59934000,-0.117,0.297,-0.126,24.622,-77.315,81.602,
59934010,-0.737,0.24,-0.354,6.282,-69.702,129.85,
59934020,1.443,0.03,-1.099,30.712,10.517,89.18,
59934030,-0.879,-1.998,1.31,-118.02,-19.757,-5.775,
59934030,1.411,-0.488,-1.568,356.107,-294,-467.127,
59934050,-1.692,1.997,0.781,399.245,-8.487,-210.157,
59934050,-0.082,1.063,1.103,220.045,-231.035,-93.31,
59934070,1.998,-1.529,1.125,323.19,-94.78,-173.267,
59934070,0.24,0.362,1.227,380.397,55.527,-143.535,
59934080,1.605,0.557,1.615,313.285,21.752,-106.505,
59934090,1.535,0.414,1.582,261.642,53.48,19.232,
59934100,0.774,0.304,1.567,172.06,46.112,94.167,
59934110,0.231,0.083,1.474,107.222,27.125,134.925,
59934120,-0.17,-0.02,1.296,35.315,8.085,128.012,
59934130,-0.381,-0.311,1.186,-14.787,-2.59,99.347,
59934140,-0.251,-0.455,0.953,-48.265,-3.342,62.177,
59934150,-0.249,-0.538,0.853,-60.497,2.502,20.265,
59934160,0.071,-0.539,0.73,-47.757,6.002,-15.977,
59934170,0.303,-0.53,0.764,-33.285,7.105,-42.787,
59934180,0.441,-0.384,0.906,-24.237,9.87,-37.362,
59934190,0.466,-0.293,1.045,-28.84,6.772,-24.692,
59934200,0.39,-0.2,1.178,-48.492,3.587,-10.307,
59934210,0.309,-0.139,1.231,-78.085,-2.555,3.307,
59934220,0.237,-0.153,1.265,-112.595,-9.257,12.967,
59934230,0.219,-0.144,1.263,-148.767,-19.757,20.09,
59934240,0.088,-0.191,1.205,-184.502,-30.817,23.73,
59934250,0.03,-0.272,1.138,-215.46,-53.042,25.007,
59934260,0.002,-0.287,1.086,-238.56,-77.385,28.612,
59934270,0.024,-0.346,0.978,-257.757,-107.52,33.792,
59934280,0.148,-0.545,0.953,-266.91,-130.655,38.202,
59934290,0.132,-0.83,1.217,-264.18,-150.657,41.23,
59934300,0.178,-1.253,1.475,-240.415,-187.862,17.832,
59934310,0.832,-1.568,1.384,-204.4,-213.027,-17.045,
59934320,1.014,-1.976,1.011,-154.157,-158.532,-37.852,
59934330,-0.587,-1.961,1.849,-80.64,-67.532,-34.51,
59934340,-1.983,-1.976,1.938,88.27,-1.19,37.537,
59934350,-1.47,-0.631,0.227,298.602,-94.307,71.732,
59934360,1.017,0.087,-0.751,319.235,-19.722,163.975,
59934370,0.95,-0.045,-0.495,245.77,76.475,235.252,
59934380,0.304,0.01,-0.466,186.27,88.007,194.092,
59934390,-0.002,0.122,-0.505,144.55,78.4,156.45,
59934400,0.165,0.292,-0.529,91.857,48.265,121.572,
59934410,0.315,0.257,-0.428,29.277,14.735,73.36,
59934420,0.349,-0.037,-0.221,-15.592,16.73,36.697,
59934420,0.21,-0.174,-0.091,-24.745,39.917,10.902,
59934440,-0.057,-0.117,-0.133,-18.62,51.222,-16.327,
59934440,-0.167,0.031,-0.287,-15.995,44.677,-47.705,
59934460,-0.121,0.124,-0.403,-40.337,32.007,-73.202,
59934460,0.031,0.092,-0.392,-86.082,20.93,-97.142,
59934480,-0.278,-0.388,-0.558,-127.172,24.097,-113.085,
59934480,0.723,-0.821,-0.183,-89.495,96.162,-122.955,
59934500,1.468,-1.965,1.998,-153.09,33.722,-274.33,
59934500,0.672,-1.855,-1.011,141.26,-91.857,-497.822,
59934510,-1.215,1.796,0.08,409.22,-29.312,-398.072,
59934520,1.998,1.465,-0.025,287.14,24.71,-244.055,
59934530,1.78,-1.299,0.446,312.252,122.325,-130.497,
59934540,1.469,0.473,0.896,412.02,158.882,37.817,
59934550,1.067,0.878,1.724,390.145,182.35,188.702,
59934560,-1.256,0.395,1.994,278.827,155.487,210.962,
59934570,-1.794,0.604,1.998,138.687,80.237,126.857,
59934580,-0.906,-0.148,1.654,12.127,2.817,13.842,
59934590,0.56,0.036,1.11,-56.787,-58.8,-38.395,
59934600,0.956,-0.134,0.863,-88.2,-65.065,-22.032,
59934610,0.622,-0.248,0.915,-102.532,-52.132,9.957,
59934620,0.308,-0.279,1.05,-116.042,-43.89,27.947,
59934630,0.254,-0.212,1.09,-131.092,-52.797,28.577,
59934640,0.2,-0.358,1.049,-155.172,-56.437,24.832,
59934650,0.44,-0.166,1.034,-156.31,-62.422,17.167,
59934660,0.488,-0.33,0.981,-186.69,-58.415,14.42,
59934670,0.496,-0.365,0.975,-194.687,-59.71,27.947,
59934680,0.497,-0.377,0.892,-199.027,-58.992,43.715,
59934690,0.382,-0.405,0.88,-204.05,-69.107,58.1,
59934700,0.503,-0.401,0.924,-209.335,-74.9,72.537,
59934710,0.652,-0.557,1.019,-213.78,-68.722,83.422,
59934720,0.972,-0.816,1.094,-211.417,-33.582,81.217,
59934730,1.104,-1.099,1.149,-200.06,17.447,69.247,
59934740,1.21,-1.472,1.108,-181.335,56.157,39.515,
59934750,1.188,-1.693,0.952,-138.88,115.465,10.237,
59934760,0.485,-1.598,0.72,-82.932,185.097,-10.605,
59934760,-0.335,-1.597,0.162,-19.652,206.587,-14.787,
59934780,0.061,-0.955,-0.241,69.23,187.53,-8.557,
59934780,0.318,-0.334,-0.461,88.532,102.83,-26.197,
59934800,0.827,-0.146,-0.619,63.787,60.917,-50.417,
59934800,0.651,-0.069,-0.422,35.612,56.42,-67.882,
59934820,0.275,-0.031,-0.226,8.435,46.095,-89.635,
59934820,0.033,0.044,-0.139,-9.992,26.215,-101.535,
59934830,-0.318,0.109,-0.125,-26.635,-5.355,-98.28,
59934840,-0.61,0.113,-0.037,-41.317,-42.332,-81.322,
59934850,-0.539,0.051,0.033,-52.447,-58.87,-51.625,
59934860,-0.512,0.038,0.053,-58.257,-52.64,-14.105,
59934870,-0.744,0.087,0.068,-57.137,-45.342,23.677,
59934880,-1.059,0.135,0.012,-54.915,-57.312,60.62,
59934890,-1.146,0.133,-0.142,-58.292,-95.322,90.965,
59934900,-0.87,-0.352,-1.064,-65.362,-111.895,119.7,
59934910,1.396,-1.827,0.08,-15.61,42.542,142.642,
59934920,-0.053,-1.998,1.994,-28.647,-51.537,23.625,
59934930,0.342,-1.249,-1.738,380.275,-96.057,-276.552,
59934940,-1.673,1.997,0.129,416.325,38.535,-206.062,
59934950,1.785,0.886,1.227,246.54,-63.437,-198.502,
59934960,1.955,-0.431,0.491,320.74,39.987,-204.015,
59934970,1.697,-0.369,1.15,296.66,129.062,-135.957,
59934980,1.813,0.801,1.15,305.305,129.377,-51.747,
59934990,0.786,0.071,1.708,237.492,134.767,61.95,
59935000,-0.198,0.588,1.913,156.765,91.175,102.847,
59935010,-0.616,0.17,1.818,52.36,36.137,92.645,
59935020,-0.395,-0.042,1.507,-43.995,-3.027,49.315,
59935030,-0.008,-0.206,1.242,-118.352,-22.995,5.565,
59935040,0.502,-0.277,0.994,-160.072,-23.485,-12.39,
59935050,0.602,-0.2,0.948,-169.96,-15.365,-3.692,
59935060,0.566,-0.426,0.916,-186.707,-4.952,3.78,
59935070,0.565,-0.356,0.957,-187.827,1.155,23.695,
59935080,0.539,-0.29,0.939,-193.532,11.235,38.71,
59935090,0.475,-0.329,0.949,-204.26,15.19,44.607,
59935100,0.565,-0.368,0.95,-216.177,24.395,49.647,
59935110,0.684,-0.54,0.977,-225.837,36.05,58.555,
59935120,0.734,-0.687,0.975,-227.062,57.295,73.972,
59935130,0.972,-1.008,1.145,-219.835,79.537,86.135,
59935140,0.909,-1.421,1.557,-203.385,94.552,95.375,
59935150,0.825,-1.94,1.588,-176.645,83.615,84.052,
59935160,0.408,-1.981,0.914,-132.422,49.735,56.455,
59935170,0.578,-1.303,0.383,-94.535,8.89,26.705,
59935170,0.532,-1.357,0.28,-54.53,16.677,24.185,
59935190,1.818,-0.992,-0.293,-55.352,41.02,-23.187,
59935190,1.282,0.082,-0.189,-45.675,54.337,-91.385,
59935210,-0.475,0.807,0.26,-48.772,9.905,-153.177,
59935210,-0.825,0.836,0.902,-85.592,-11.69,-121.572,
59935230,-0.71,0.833,1.261,-61.005,-69.3,-77.367,
59935230,-0.467,1.185,1.342,1.96,-100.415,-29.61,
59935250,-0.424,1.085,1.322,63.7,-107.17,9.537,
59935250,-0.086,1.233,1.078,117.32,-102.847,18.235,
59935260,-0.018,1.088,0.759,145.617,-93.537,-11.41,
59935270,-0.265,0.875,0.447,149.992,-82.18,-35.192,
59935280,-0.357,0.571,0.155,143.22,-77.245,-51.59,
59935290,-0.26,0.338,-0.097,120.19,-86.502,-65.625,
59935300,-0.233,0.059,-0.149,78.907,-97.965,-73.955,
59935310,-0.216,-0.216,-0.251,33.565,-113.942,-92.522,
59935320,-0.229,-0.373,-0.32,-5.862,-127.19,-118.632,
59935330,-0.472,-0.649,-0.293,-44.012,-123.252,-128.922,
59935340,-0.634,-1.905,-1.296,-55.457,-25.235,-90.72,
59935350,1.614,-1.998,0.603,-125.44,274.907,-88.76,
59935360,-1.212,0.138,-1.71,326.55,197.487,-316.802,
59935370,0.01,1.994,1.804,323.155,125.352,-266.507,
59935380,1.998,0.66,0.606,171.832,72.695,-178.57,
59935390,1.743,-0.709,0.778,246.12,135.992,-126.875,
59935400,1.483,-0.562,0.795,279.877,177.87,-9.135,
59935410,1.38,0.984,1.266,285.127,149.992,108.99,
59935420,0.032,-0.097,1.596,224.472,138.74,178.465,
59935430,-1.054,-0.073,1.73,163.52,93.082,156.73,
59935440,-0.888,-0.061,1.63,98.822,46.165,87.132,
59935450,-0.376,-0.101,1.441,17.115,13.23,9.817,
59935460,0.43,-0.013,1.156,-34.842,-19.915,-21.787,
59935470,0.674,-0.241,0.932,-70.35,-30.345,-10.027,
59935480,0.488,-0.337,0.946,-84.735,-25.602,9.625,
59935490,0.237,-0.23,1.084,-94.587,-26.512,13.02,
59935500,0.22,-0.237,1.157,-117.197,-33.845,16.835,
59935510,0.238,-0.236,1.149,-138.687,-47.145,14.437,
59935510,0.302,-0.304,1.1,-160.702,-58.485,15.505,
59935530,0.374,-0.329,1.06,-176.05,-70.595,22.977,
59935530,0.315,-0.353,1.019,-189.892,-79.905,34.142,
59935550,0.272,-0.385,0.959,-199.535,-97.895,45.29,
59935550,0.449,-0.201,1.063,-212.835,-114.992,56.875,
59935570,0.584,-0.228,1.151,-234.885,-128.712,69.265,
59935570,0.841,-0.933,1.48,-249.742,-126.682,77.507,
59935580,1.405,-1.796,1.34,-229.862,-93.1,79.327,
59935590,1.666,-1.998,1.768,-180.302,-20.09,69.002,
59935600,-0.238,-1.998,1.698,-115.99,56.122,36.645,
59935610,-1.998,-1.998,1.76,40.162,47.827,21.157,
59935620,-0.702,-0.924,-0.914,283.885,-56.297,84.175,
59935630,1.434,0.048,-1.465,298.795,-1.4,196.77,
59935640,1.05,-0.022,-1.149,161.455,35.525,205.327,
59935650,0.563,-0.143,-0.751,86.87,12.075,126.787,
59935660,0.491,-0.056,-0.609,71.155,-9.152,88.112,
59935670,0.615,0.294,-0.498,48.825,-38.377,55.265,
59935680,0.395,0.363,-0.356,-2.065,-65.222,19.32,
59935690,-0.129,0.264,-0.101,-43.452,-87.85,-11.585,
59935700,-0.328,0.236,0.069,-64.382,-99.19,-27.807,
59935710,-0.192,0.134,0.086,-84.385,-95.795,-33.11,
59935720,-0.19,0.026,0.133,-105.665,-76.86,-29.715,
59935730,-0.275,-0.015,0.14,-120.382,-51.012,-28.49,
59935740,-0.267,-0.04,0.114,-135.555,-19.6,-24.22,
59935750,-0.292,-0.378,0.112,-152.705,6.177,-19.057,
59935760,-0.835,0.039,0.48,-142.485,33.617,15.382,
59935770,0.134,0.966,0.068,-103.005,23.152,-43.802,
59935780,-0.451,0.203,0.037,-171.762,74.06,-22.61,
59935790,1.953,-1.918,1.852,-164.185,156.782,-44.17,
59935800,0.641,-1.998,-0.413,30.572,-12.477,-331.677,
59935810,-0.475,1.215,-0.546,442.872,105.507,-416.692,
59935820,1.644,0.748,0.447,297.272,165.567,-158.585,
59935830,1.998,-1.533,-0.458,388.937,140.56,-123.235,
59935840,1.764,1.514,0.777,520.362,179.13,-12.652,
59935850,1.226,-0.094,1.513,483.402,163.975,168.945,
59935860,-0.496,0.659,1.965,431.182,140.91,199.272,
59935870,-0.939,0.994,1.998,304.675,106.837,131.635,
59935880,-1.192,0.664,1.992,134.33,70.927,46.48,
59935890,-0.06,0.241,1.636,-3.045,6.002,-11.025,
59935900,0.486,-0.001,1.229,-87.587,-32.515,-15.627,
59935910,0.451,-0.168,1.104,-134.557,-42.332,3.027,
59935920,0.3,-0.227,1.183,-167.72,-48.317,22.995,
59935920,0.271,-0.151,1.194,-174.79,-70.157,35.63,
59935940,0.537,-0.175,1.081,-213.727,-93.362,36.645,
59935940,0.385,-0.323,1.015,-233.782,-93.957,60.48,
59935960,0.4,-0.391,0.986,-240.222,-105.91,76.632,
59935960,0.549,-0.358,1.1,-250.88,-122.867,91.542,
59935980,0.756,-0.571,1.302,-265.107,-127.312,116.34,
59935980,1.121,-1.569,1.459,-265.177,-96.355,145.407,
59936000,0.874,-1.998,1.454,-225.207,-84.297,130.287,
59936000,0.25,-1.998,1.312,-164.482,-126.21,78.96,
59936010,-1.732,-1.998,1.165,-60.305,-95.462,96.075,
59936020,-1.885,-1.942,0.478,177.555,-121.59,174.527,
59936030,1.272,-0.746,-1.824,366.817,-95.217,254.835,
59936040,1.725,-0.057,-1.705,281.837,36.697,344.4,
59936050,1.195,0.028,-1.271,125.282,20.807,230.107,
59936060,1.13,-0.508,-0.587,-6.352,8.54,95.077,
59936070,0.881,-0.642,-0.229,-47.775,17.272,25.602,
59936080,0.633,-0.297,-0.105,-45.29,21.122,-45.535,
59936090,0.124,-0.149,-0.074,-66.377,16.87,-93.17,
59936100,-0.259,0.007,-0.048,-85.75,17.43,-116.55,
59936110,-0.127,0.15,-0.009,-87.29,26.967,-129.972,
59936120,0.037,0.545,-0.065,-100.747,63.035,-125.947,
59936130,-0.513,0.732,0.016,-134.977,86.502,-121.17,
59936140,-1.151,0.746,0.179,-157.937,66.325,-125.352,
59936150,-1.081,0.599,0.222,-160.44,29.522,-113.697,
59936160,-0.732,0.516,0.211,-151.83,11.497,-86.747,
59936170,-0.805,0.195,0.141,-145.705,8.802,-57.19,
59936180,-0.82,0.478,0.35,-89.897,30.59,-3.202,
59936190,0.193,0.935,-1.062,-45.08,43.26,-89.757,
59936200,1.565,-1.196,1.743,-144.27,145.617,-40.355,
59936210,1.907,-1.998,-0.312,24.29,-60.83,-314.72,
59936220,-0.56,1.252,-0.668,501.69,277.795,-449.907,
59936230,0.063,1.682,0.916,316.872,32.795,-216.895,
59936240,1.998,-0.644,0.865,370.44,113.47,-169.19,
59936250,1.341,-0.726,1.193,424.375,155.242,-50.19,
59936260,1.45,1.182,1.777,414.89,125.982,59.097,
59936260,-0.239,0.564,1.993,309.435,111.055,145.862,
59936280,-1.059,0.718,1.998,157.325,55.877,129.342,
59936280,-0.626,0.482,1.923,21.577,-12.582,72.345,
59936300,-0.066,0.124,1.531,-98.647,-53.865,29.102,
59936300,0.334,-0.071,1.2,-169.47,-74.847,14.052,
59936320,0.4,-0.443,0.981,-210.14,-78.96,20.23,
59936320,0.832,-0.045,0.941,-205.957,-79.397,24.115,
59936330,0.54,-0.555,0.899,-241.342,-75.705,40.652,
59936340,0.499,-0.534,0.862,-232.942,-69.825,61.04,
59936350,0.451,-0.468,0.719,-225.61,-67.27,71.872,
59936360,0.588,-0.574,0.673,-217.787,-69.597,85.592,
59936370,0.759,-0.588,0.85,-212.765,-72.345,114.485,
59936380,0.866,-0.806,0.96,-209.527,-68.582,151.217,
59936390,0.882,-1.184,1.158,-196.595,-46.217,170.135,
59936400,0.613,-1.716,1.412,-173.11,-58.782,156.957,
59936410,0.571,-1.921,1.214,-132.562,-113.085,116.672,
59936420,0.469,-1.987,0.727,-70.472,-143.832,81.112,
59936430,0.254,-1.684,0.303,4.532,-87.71,98.28,
59936440,0.37,-1.517,-0.124,152.232,19.617,129.92,
59936450,-0.044,-0.472,-0.339,245.735,26.372,115.255,
59936460,0.814,0.135,-1.329,229.53,37.38,108.307,
59936470,1.082,0.326,-1.222,117.25,59.272,79.747,
59936480,0.887,0.299,-1.278,11.41,-2.187,-36.925,
59936490,0.826,0.24,-1,-78.715,-46.655,-133.875,
59936500,0.846,-0.223,-0.588,-168.962,-55.492,-178.167,
59936510,0.898,-0.314,-0.36,-212.485,-51.397,-209.125,
59936520,0.363,-0.275,-0.186,-239.365,-53.987,-252.087,
59936530,-0.995,-0.56,0.133,-250.6,-103.827,-288.785,
59936540,-1.692,-0.362,0.193,-240.782,-175.735,-287.437,
59936550,-0.905,-0.64,0.202,-119.28,-227.22,-295.347,
59936560,-1.061,-0.287,0.256,-156.625,-243.722,-227.902,
59936570,-0.912,-0.585,0.258,-182.297,-172.76,-142.87,
59936580,-1.129,-0.71,0.272,-155.067,-60.97,-55.527,
59936590,-0.526,-1.554,0.302,-91.647,67.182,25.182,
59936600,1.978,-1.998,1.998,53.287,420.035,74.55,
59936610,-0.965,-1.998,-0.546,203.227,358.89,-108.097,
59936620,0.239,0.489,-1.3,474.827,141.452,-354.97,
59936630,1.612,1.368,1.135,457.205,316.452,-84.14,
59936640,1.557,-1.23,0.555,365.295,192.675,4.602,
59936650,0.887,0.628,0.782,446.53,278.652,74.252,
59936660,0.243,0.595,1.688,419.212,260.225,173.18,
59936670,-0.95,-0.319,1.998,296.292,182.052,167.492,
59936670,-1.024,1.062,1.998,199.447,107.52,80.885,
59936690,-0.598,0.152,1.881,53.392,50.452,13.387,
59936690,0.327,0.196,1.402,-51.012,-7.98,-11.112,
59936710,0.613,-0.173,1.045,-112.21,-32.567,-1.907,
59936710,0.437,-0.503,0.949,-143.01,-35.822,16.747,
59936730,0.335,-0.107,1.052,-138.232,-47.197,25.97,
59936730,0.304,-0.563,1.025,-156.922,-74.357,21.927,
59936750,0.57,-0.282,0.959,-165.165,-87.01,38.815,
59936750,0.576,-0.323,0.846,-170.345,-83.265,50.242,
59936760,0.521,-0.608,0.837,-177.712,-78.802,72.747,
59936770,0.469,-0.539,0.783,-165.76,-78.68,90.737,
59936780,0.732,-0.506,0.773,-166.845,-79.87,117.32,
59936790,0.768,-0.644,0.969,-173.267,-81.55,148.032,
59936800,0.985,-1.242,0.955,-171.867,-50.732,186.777,
59936810,0.974,-1.665,1.073,-136.535,-22.785,183.82,
59936820,0.528,-1.935,1.091,-84.21,-20.457,165.602,
59936830,-0.243,-1.997,1.553,-16.432,-47.845,163.747,
59936840,-1.539,-1.967,1.319,135.17,-140.245,178.08,
59936850,0.444,-1.039,-0.654,328.002,-116.27,252.77,
59936860,1.231,-0.093,-1.32,340.935,-13.65,343.98,
59936870,0.826,0.383,-1.185,216.405,-48.615,280.21,
59936880,0.423,-0.113,-0.807,100.852,-106.907,190.33,
59936890,0.495,-0.331,-0.646,48.737,-120.487,131.687,
59936900,0.823,0.071,-0.578,16.642,-103.985,81.077,
59936910,0.933,0.118,-0.423,-45.027,-68.512,17.29,
59936920,0.685,-0.146,-0.191,-117.372,-20.457,-40.897,
59936930,0.359,-0.233,-0.005,-154.052,10.29,-110.635,
59936940,0.075,-0.221,0.027,-175.245,28.787,-153.825,
59936950,-0.899,-0.296,0.154,-190.522,17.867,-184.765,
59936960,-0.954,0.016,0.2,-114.415,-41.125,-248.92,
59936970,-1.275,0.158,-0.121,-143.605,-108.71,-270.235,
59936980,-1.416,0.348,-0.352,-161.612,-92.837,-183.085,
59936990,-0.935,0.88,0.382,-117.18,-9.257,-74.532,
59937000,1.512,-1.998,1.836,-106.47,87.325,16.222,
59937010,-1.321,-1.471,-1.993,351.172,45.447,-196.49,
59937010,1.892,1.991,0.623,448.157,114.677,-308.962,
59937030,0.838,-0.1,0.764,338.17,141.872,-103.967,
59937030,1.718,1.367,1.435,492.66,195.002,-14.595,
59937050,0.938,-0.057,1.85,440.107,219.782,96.46,
59937050,-0.449,1.249,1.998,332.43,163.065,133.28,
59937070,-1.073,0.612,1.998,176.102,89.442,116.672,
59937070,-0.811,0.619,1.897,19.512,10.412,54.46,
59937080,0.05,-0.087,1.363,-102.76,-35.7,2.065,
59937090,0.643,-0.294,0.858,-151.707,-47.215,-16.87,
59937100,0.708,-0.547,0.772,-154.525,-40.04,-2.082,
59937110,0.411,-0.348,0.983,-139.282,-43.645,26.88,
59937120,0.255,-0.307,1.062,-141.557,-70.192,32.777,
59937130,0.269,-0.397,1.115,-175.437,-88.707,47.512,
59937140,0.312,-0.273,1.02,-184.327,-101.15,51.852,
59937150,0.324,-0.332,0.985,-198.485,-113.47,63.612,
59937160,0.478,-0.236,1.082,-211.645,-121.747,79.502,
59937170,0.527,-0.306,1.196,-232.33,-131.232,98.035,
59937180,0.583,-0.975,1.444,-252,-138.18,113.277,
59937190,0.703,-1.93,1.614,-233.502,-159.022,108.5,
59937200,1.133,-1.998,0.84,-158.462,-192.237,70.367,
59937210,0.748,-1.998,0.345,-67.725,-140.822,49.385,
59937220,-0.488,-1.853,0.44,60.795,-52.815,50.312,
59937230,-0.707,-0.745,-1.096,212.222,-16.222,77.595,
59937240,0.211,0.2,-1.177,166.057,41.195,118.545,
59937250,0.49,-0.219,-0.554,39.112,32.655,89.775,
59937260,0.582,-0.794,-0.049,-12.425,38.08,19.092,
59937270,0.479,-0.602,0.192,-4.147,87.815,-18.847,
59937280,0.177,-0.188,0.136,6.002,117.565,-64.557,
59937290,-0.287,-0.025,0.089,-4.97,113.242,-106.435,
59937300,-0.687,-0.001,0.048,-23.975,98.455,-109.007,
59937310,-0.769,0.104,-0.016,-24.78,68.32,-101.36,
59937320,-0.667,0.219,-0.101,-29.155,43.89,-85.05,
59937330,-0.569,0.234,-0.083,-47.512,34.755,-56.857,
59937340,-0.434,0.084,-0.014,-70.105,42.262,-29.19,
59937350,-0.347,0.014,-0.008,-76.02,53.62,-13.247,
59937360,-0.425,0.212,-0.14,-71.487,64.575,-1.207,
59937370,-0.597,0.739,-0.346,-69.055,68.81,14.332,
59937380,-0.688,1.268,-0.723,-78.47,72.607,42.822,
59937390,0.665,-0.157,1.706,-104.23,71.207,62.3,
59937400,1.998,-1.998,-0.645,69.352,-82.075,-298.112,
59937410,-0.785,0.628,-0.706,512.785,158.305,-383.775,
59937420,0.292,1.996,1.345,424.497,36.225,-111.352,
59937420,1.969,0.292,0.961,489.667,133.84,-50.19,
59937430,0.668,0.207,1.989,469.21,174.125,72.047,
59937440,0.047,1.233,1.998,361.917,179.147,113.347,
59937450,-1.23,0.756,1.987,152.425,114.87,106.085,
59937460,-0.715,0.332,1.701,24.115,8.032,64.225,
59937470,0.097,-0.019,1.309,-60.917,-57.96,34.405,
59937480,0.409,-0.152,1.144,-101.605,-86.642,36.837,
59937490,0.457,-0.147,1.153,-132.177,-103.74,54.897,
59937500,0.257,-0.248,1.221,-170.45,-115.797,71.802,
59937510,0.383,0.037,1.209,-197.54,-127.855,63.962,
59937520,0.282,-0.328,1.137,-251.177,-137.515,75.022,
59937530,0.47,-0.215,0.998,-260.102,-146.317,78.312,
59937540,0.539,-0.146,1.087,-274.26,-156.1,101.517,
59937550,0.567,-0.299,1.107,-290.71,-172.987,131.6,
59937560,0.195,-0.94,1.246,-302.05,-194.197,156.1,
59937570,0.466,-1.87,1.231,-279.615,-242.427,152.95,
59937580,1.366,-1.998,0.689,-223.702,-292.95,102.357,
59937590,1.248,-1.998,0.764,-158.235,-225.627,99.435,
59937600,-0.106,-1.803,0.147,18.235,-53.672,113.662,
59937610,-1.377,-0.767,0.035,205.572,-15.592,139.055,
59937620,0.508,-0.201,-1.019,222.022,9.45,209.51,
59937630,1.439,-0.033,-0.534,134.75,57.12,238.21,
59937640,1.23,-0.068,-0.332,88.182,45.237,134.907,
59937650,0.935,0.074,-0.041,64.96,74.2,31.062,
59937660,0.53,0.179,0.01,39.637,112.21,-38.99,
59937670,0.153,0.167,-0.046,18.427,126.315,-108.097,
59937680,-0.417,-0.064,-0.076,4.795,129.482,-146.282,
59937690,-0.713,0.025,-0.119,-2.992,129.745,-135.73,
59937700,-0.817,0.049,-0.054,-29.19,124.582,-106.697,
59937710,-0.768,-0.097,0.097,-54.11,107.502,-71.347,
59937720,-0.564,-0.082,0.08,-58.52,91.437,-45.832,
59937730,-0.346,0.099,0.028,-59.027,70.665,-34.685,
59937740,-0.11,0.173,-0.053,-69.772,48.422,-37.467,
59937750,-0.308,-0.109,-0.154,-85.295,29.732,-27.58,
59937760,-0.141,0.803,-0.239,-59.78,17.85,1.925,
59937760,0.389,1.167,-0.623,-63.175,-33.845,-77.822,
59937780,0.268,0.914,-0.148,-109.602,-23.607,-39.095,
59937780,0.337,-1.998,0.741,-160.282,-136.22,-104.44,
59937800,0.265,-0.206,-1.481,442.435,-54.355,-316.05,
59937800,-0.431,1.982,0.625,378.647,-84.822,-202.93,
59937820,1.998,-1.115,1.545,343.42,-8.907,-102.987,
59937820,1.631,-0.09,1.318,436.45,126.42,-69.702,
59937830,-0.599,1.22,1.96,384.44,132.597,-25.917,
59937840,1.234,0.58,1.751,249.13,100.642,-18.655,
59937850,0.175,0.935,1.991,79.152,58.537,7.63,
59937860,0.12,0.462,1.768,-61.547,-3.762,46.725,
59937870,0.189,-0.056,1.271,-165.952,-45.78,50.732,
59937880,0.425,-0.55,0.847,-206.535,-63.682,49.035,
59937890,0.276,-0.572,0.896,-189.997,-71.732,51.467,
59937900,0.303,-0.387,0.91,-183.435,-77.927,33.6,
59937910,0.212,-0.562,0.956,-204.697,-90.475,39.287,
59937920,0.198,-0.336,0.983,-191.922,-109.48,39.427,
59937930,0.201,-0.349,0.954,-201.425,-127.82,48.212,
59937940,0.38,-0.405,1.115,-211.067,-145.232,54.162,
59937950,0.227,-0.585,1.516,-216.615,-187.092,58.327,
59937960,0.283,-1.088,1.429,-200.007,-244.545,54.127,
59937970,0.788,-1.626,0.914,-177.205,-262.377,33.687,
59937980,0.889,-1.998,0.885,-152.092,-226.94,7.822,
59937990,-0.991,-1.998,1.858,-42.647,-160.492,46.165,
59938000,-1.976,-1.982,0.325,192.062,-17.395,151.69,
59938010,-0.923,-0.752,-0.519,320.81,24.517,243.075,
59938020,0.973,-0.699,-0.883,221.497,30.467,259.087,
59938030,1.428,-0.837,-0.744,127.662,89.565,226.695,
59938040,0.698,-0.131,-0.419,69.965,151.865,164.622,
59938050,0.551,0.148,-0.104,-4.007,189.472,70.665,
59938060,0.427,-0.161,0.033,-64.767,202.545,-25.515,
59938070,-0.306,-0.158,0.045,-86.38,199.255,-87.85,
59938080,-0.766,0.079,0.192,-95.077,184.38,-103.372,
59938090,-0.589,0.26,0.407,-118.79,168.857,-81.34,
59938100,-0.259,0.642,0.568,-118.877,167.317,-59.325,
59938110,-0.354,1.147,0.598,-96.565,162.54,-47.915,
59938120,-0.601,1.544,0.513,-68.425,147.42,-39.34,
59938120,-0.583,1.952,0.368,-35.105,122.22,-24.29,
59938140,-0.36,1.889,0.176,-1.417,102.83,-1.75,
59938140,-0.661,1.726,-0.953,25.287,88.707,51.66,
59938160,1.998,0.317,0.267,-9.852,316.085,-2.52,
59938160,0.894,-1.998,0.552,-125.125,-69.597,-358.802,
59938170,-1.458,0.425,0.108,368.497,-64.347,-543.007,
59938180,0.609,1.972,-0.838,363.37,-83.422,-279.177,
59938190,1.861,-1.643,0.952,245.105,90.055,-115.605,
59938200,-0.064,0.475,1.109,403.025,23.117,-46.06,
59938210,1.523,1.002,1.519,379.242,60.742,121.992,
59938220,-0.653,-0.084,1.975,229.39,34.422,228.812,
59938230,-0.449,0.893,1.998,126.052,-22.977,202.352,
59938240,-0.633,0.496,1.97,-34.755,-36.487,121.555,
59938250,-0.29,0.082,1.538,-158.725,-31.885,41.702,
59938260,0.192,-0.192,1.135,-240.257,-26.74,2.52,
59938270,0.24,-0.483,0.859,-266.28,-25.042,0.49,
59938280,0.986,-0.101,0.857,-237.965,-23.817,5.582,
59938290,0.625,-0.604,0.739,-258.825,-31.202,16.52,
59938300,0.71,-0.732,0.637,-237.615,-29.452,49.525,
59938310,0.974,-0.77,0.546,-206.15,-15.452,75.932,
59938320,1.336,-0.982,0.741,-171.972,22.522,101.395,
59938330,1.115,-1.144,0.86,-142.905,77.297,141.487,
59938340,0.459,-1.437,0.916,-111.667,94.92,155.242,
59938350,0.092,-1.577,0.917,-74.9,50.68,122.22,
59938360,0.099,-1.987,0.652,-34.685,-8.907,100.625,
59938370,-1.506,-1.921,1.432,55.177,-64.96,138.845,
59938380,-1.277,-1.405,0.05,245.07,-171.395,205.275,
59938390,1.439,-0.287,-0.935,308.227,-88.095,327.005,
59938400,1.363,-0.087,-0.87,195.527,-69.282,335.562,
59938410,1.373,0.136,-0.431,114.712,-89.512,191.397,
59938420,1.234,-0.277,-0.036,44.817,-37.59,85.977,
59938430,1.065,-0.271,-0.039,24.902,1.155,-21.752,
59938440,0.786,-0.134,-0.145,15.05,31.99,-123.34,
59938450,0.552,-0.233,-0.426,-10.01,58.397,-199.902,
59938460,0.316,0.021,-0.806,-28.682,69.387,-261.87,
59938470,0.15,0.555,-0.89,-65.135,65.66,-289.502,
59938480,0.183,0.807,-0.787,-145.32,61.827,-319.445,
59938490,-0.564,0.649,-0.352,-212.187,29.89,-347.567,
59938500,-1.37,0.446,0.064,-227.307,23.607,-302.102,
59938510,-0.958,0.971,0.055,-92.82,35.56,-237.422,
59938510,-1.909,-0.957,1.582,-124.722,25.672,-98.42,
59938530,1.469,-1.786,-1.161,290.255,111.23,-92.802,
59938530,-0.672,1.945,-0.201,368.795,-10.412,-96.005,
59938550,1.714,1.627,1.008,345.012,-79.555,-96.04,
59938550,0.622,-1.899,1.878,326.987,67.48,-21.437,
59938570,0.798,1.123,1.697,375.357,66.902,-25.567,
59938570,0.717,0.408,1.937,238.455,72.397,15.977,
59938580,-0.009,0.743,1.979,95.707,47.25,37.677,
59938590,0.058,0.438,1.957,-28.525,-10.657,53.515,
59938600,0.212,0.436,1.768,-153.457,-60.847,61.267,
59938610,0.44,0.063,1.402,-248.815,-87.517,72.362,
59938620,0.283,-0.444,0.99,-296.642,-97.02,91.105,
59938630,0.433,-0.123,0.863,-282.38,-98.77,112.98,
59938640,-0.002,-0.562,0.814,-295.312,-106.05,96.74,
59938650,0.077,-0.617,0.708,-285.915,-102.567,104.282,
59938660,0.396,-0.528,0.587,-261.31,-91.805,90.982,
59938670,0.397,-0.84,0.827,-238.612,-78.19,88.217,
59938680,0.468,-1.158,1.026,-207.095,-58.852,82.932,
59938690,0.562,-1.377,0.907,-170.222,-40.95,69.65,
59938700,0.332,-1.432,0.809,-129.325,-29.645,42.192,
59938710,0.779,-1.858,0.917,-95.305,-26.477,15.785,
59938720,-1.428,-1.882,1.702,11.147,6.16,33.04,
59938730,-1.998,-1.007,1.729,219.345,-31.185,120.225,
59938740,0.339,0.084,-0.674,378.035,-69.282,212.345,
59938750,1.998,0.006,-0.712,291.147,104.177,329.822,
59938760,1.812,0.487,-1.035,160.492,74.935,215.32,
59938770,1.293,0.393,-0.87,68.04,44.012,1.47,
59938780,0.361,-0.18,-0.518,-19.967,33.267,-109.112,
59938790,-0.123,-0.451,-0.105,-61.057,15.575,-165.795,
59938800,-0.493,-0.719,0.085,-76.895,27.965,-154.56,
59938810,-0.874,-0.662,0.183,-53.917,39.322,-112.035,
59938820,-1.052,-0.475,0.291,-18.27,46.445,-45.622,
59938830,-0.621,-0.117,0.179,8.995,47.582,28.42,
59938830,0.002,0.56,-0.086,30.922,54.285,90.825,
59938850,0.963,1.448,-1.126,61.127,56.402,67.252,
59938850,1.647,-0.922,0.885,-45.307,155.015,17.255,
59938870,-1.418,-1.998,0.465,87.587,-179.935,-322.927,
59938870,-1.998,0.831,0.079,330.155,-134.382,-340.742,
59938890,0.904,1.369,0.235,310.52,-89.477,-121.345,
59938890,1.611,-1.345,0.894,311.132,16.467,-144.742,
59938910,0.682,0.352,1.475,382.97,30.87,-155.82,
59938910,1.855,0.597,1.499,358.575,76.667,-43.347,
59938920,0.977,0.774,1.809,265.405,100.17,45.307,
59938930,-0.334,0.649,1.986,132.002,79.607,95.112,
59938940,-0.264,0.427,1.821,6.527,6.667,91.21,
59938950,0.025,0.246,1.628,-99.645,-43.102,70.297,
59938960,0.015,0,1.438,-187.022,-57.487,54.04,
59938970,0.13,-0.152,1.242,-244.37,-64.54,40.932,
59938980,0.016,-0.336,1.089,-278.932,-63.49,42.385,
59938990,0.502,0.076,1.039,-275.537,-67.655,30.782,
59939000,0.142,-0.491,1.055,-318.955,-69.527,37.275,
59939010,0.32,-0.196,0.804,-310.467,-77.087,37.397,
59939020,0.681,-0.372,0.74,-320.565,-72.52,46.952,
59939030,1.008,-0.724,1.167,-320.67,-61.18,64.067,
59939040,1.162,-1.271,1.475,-301.07,-31.412,74.06,
59939050,1.194,-1.864,1.507,-257.092,3.815,55.737,
59939060,0.623,-1.957,1.262,-200.305,38.64,20.44,
59939070,-0.139,-1.73,0.628,-132.002,36.54,-41.597,
59939080,-0.496,-1.633,0.394,-77.052,66.185,-45.85,
59939090,-0.754,-1.222,0.718,2.45,100.17,10.377,
59939100,-0.411,0.174,-0.249,77.997,43.365,12.197,
59939110,0.297,0.857,0.114,52.57,52.727,27.23,
59939120,0.292,0.805,0.538,1.05,60.13,19.145,
59939130,0.158,0.884,0.754,12.057,66.605,-21.42,
59939140,-0.014,0.962,0.664,35.49,77.595,-48.825,
59939150,-0.129,0.976,0.495,61.302,59.395,-65.922,
59939160,-0.241,0.846,0.305,88.655,33.285,-69.615,
59939170,-0.291,0.852,0.017,116.795,10.99,-68.04,
59939180,-0.29,0.829,-0.135,123.917,-0.717,-59.622,
59939190,-0.27,0.736,-0.234,97.825,-3.237,-39.777,
59939200,-0.097,0.591,-0.157,50.277,8.277,-9.187,
59939210,0.137,0.279,-0.078,8.295,16.975,4.532,
59939220,0.393,0.083,-0.777,-13.405,38.43,-7.735,
59939230,1.976,-1.52,-0.36,-47.057,317.502,69.702,
59939240,-0.129,-1.998,0.231,-42.035,22.12,-284.76,
59939250,-1.22,1.397,0.101,311.99,22.995,-507.937,
59939260,0.069,1.767,-0.809,240.87,-98.857,-165.322,
59939260,1.998,-1.542,0.818,172.042,39.9,-57.05,
59939280,0.069,-1.546,0.85,268.555,47.25,-145.635,
59939280,0.947,0.746,0.801,370.3,31.692,-41.982,
59939300,1.323,0.516,1.264,345.642,93.03,96.617,
59939300,-0.308,0.371,1.908,266.07,79.782,140.787,
59939320,-0.17,0.601,1.989,175.507,41.685,137.042,
59939320,-0.222,0.548,1.947,29.662,-0.227,105.927,
59939330,-0.13,0.28,1.782,-89.215,-33.547,79.415,
59939340,-0.175,0.15,1.67,-183.767,-51.625,51.502,
59939350,0.282,0.057,1.335,-257.057,-44.87,24.552,
59939360,0.321,-0.426,1.068,-295.592,-25.795,26.162,
59939370,0.764,-0.069,0.863,-277.305,-17.587,32.077,
59939380,0.536,-0.424,0.692,-290.115,-18.725,32.147,
59939390,0.685,-0.763,0.74,-274.627,-10.412,55.79,
59939400,1.079,-0.877,0.923,-239.697,16.992,73.167,
59939410,1.075,-1.35,0.923,-205.905,61.775,94.587,
59939420,0.434,-1.418,0.871,-153.58,75.915,81.742,
59939430,0,-1.281,0.672,-100.065,33.67,46.445,
59939440,-0.028,-1.345,0.665,-63.035,-15.68,43.767,
59939450,0.453,-1.69,0.823,-23.607,-20.86,64.225,
59939460,0.412,-1.2,-0.03,82.67,-43.487,67.217,
59939470,0.783,0.578,-0.681,144.165,-17.692,50.68,
59939480,0.347,0.463,-0.156,54.67,-24.535,29.925,
59939490,0.345,-0.294,0.181,4.672,-38.972,-27.527,
59939500,0.22,0.037,0.024,45.535,-12.267,-66.43,
59939510,-0.282,0.638,-0.268,69.195,5.74,-98.822,
59939520,-0.644,0.588,-0.268,21.945,12.845,-101.045,
59939530,-0.646,-0.084,-0.104,-21.717,19.897,-84.157,
59939540,-0.665,-0.108,-0.162,-24.815,24.587,-67.515,
59939550,-0.861,-0.072,-0.25,-25.847,21.805,-45.097,
59939560,-0.562,0.458,-0.181,-11.672,27.195,-5.547,
59939570,0.03,0.091,-0.59,-13.44,10.5,-34.65,
59939580,0.275,-1.826,1.539,-60.165,104.772,-11.847,
59939580,0.002,-1.998,0.603,157.78,-76.09,-218.627,
59939600,-1.845,1.052,0.068,429.677,-40.582,-216.685,
59939600,1.605,1.897,0.778,353.762,-60.305,-181.23,
59939620,1.577,-1.271,1.485,253.085,41.877,-108.972,
59939620,0.877,-0.326,1.173,320.337,67.375,-98.997,
59939640,1.76,1.02,1.368,332.902,92.05,-36.26,
59939640,0.242,0.247,1.844,212.747,115.307,38.517,
59939660,-0.551,0.491,1.913,122.395,82.547,50.085,
59939660,-0.299,0.294,1.709,9.66,24.71,25.795,
59939670,0.368,0.23,1.484,-79.502,-25.567,15.802,
59939680,0.34,0.019,1.333,-147.21,-46.48,28.91,
59939690,0.276,-0.18,1.229,-195.737,-57.015,41.107,
59939700,0.262,-0.428,1.086,-226.835,-63.997,46.112,
59939710,0.222,-0.13,1.076,-227.36,-64.837,50.347,
59939720,0.136,-0.281,0.914,-245.595,-65.59,31.972,
59939730,0.097,-0.558,0.891,-255.36,-68.862,32.777,
59939740,0.375,-0.429,0.9,-240.257,-81.795,27.72,
59939750,0.657,-0.745,1.172,-228.077,-90.352,33.81,
59939760,0.706,-1.161,1.091,-202.282,-93.817,27.825,
59939770,0.775,-1.336,0.829,-157.517,-75.04,12.635,
59939780,0.414,-1.354,0.539,-116.847,-36.47,9.117,
59939790,-0.073,-1.657,0.364,-69.912,4.06,-2.222,
59939800,-1.201,-1.998,0.607,-10.657,29.942,11.287,
59939810,-1.271,-1.871,-0.111,91.402,31.64,60.042,
59939820,0.512,-0.386,-0.513,142.695,39.76,118.912,
59939830,1.416,-0.622,-0.429,41.247,60.095,141.505,
59939840,1.321,-0.422,-0.149,-3.01,60.865,60.935,
59939850,0.318,0.031,0.061,-17.622,82.67,-5.862,
59939860,-0.109,0.267,0.168,-25.06,70.14,-68.792,
59939870,-0.317,0.698,0.157,-32.865,43.312,-91.56,
59939880,-0.454,1.272,0.114,-30.625,35.262,-75.565,
59939890,-0.682,1.759,0.325,-26.74,14.157,-55.457,
59939900,-0.619,1.582,0.428,-34.86,-15.172,-35.437,
59939910,-0.481,1.146,0.217,-6.072,-16.905,-2.38,
59939920,-0.216,1.666,-0.546,50.277,9.66,59.465,
59939930,1.905,-0.671,0.498,-35.595,84.42,-90.772,
59939940,1.802,-1.998,0.627,48.562,2.765,-363.615,
59939950,-1.956,1.253,-0.308,378.14,30.45,-305.095,
59939960,1.483,1.62,0.355,335.387,-0.787,-181.51,
59939970,1.671,-1.908,1.202,216.352,118.265,-44.327,
59939980,0.662,0.524,1.094,397.53,92.785,-15.312,
59939990,1.136,0.774,1.662,351.242,102.445,71.732,
59940000,-0.071,0.154,1.768,234.657,84.28,141.995,
59940010,-0.373,0.573,1.799,159.827,46.812,127.05,
59940010,-0.403,0.418,1.783,43.295,8.505,85.995,
59940030,0.04,0.297,1.63,-59.99,-24.85,45.342,
59940030,0.291,0.045,1.428,-148.995,-42,30.152,
59940050,0.386,-0.066,1.263,-208.477,-53.812,36.732,
59940050,0.459,-0.153,1.118,-243.635,-57.96,51.765,
59940070,0.26,-0.538,1.031,-249.445,-54.11,78.68,
59940070,0.66,-0.106,0.807,-228.655,-57.96,67.637,
59940080,0.39,-0.705,0.748,-256.41,-58.1,90.405,
59940090,0.264,-0.64,0.768,-223.44,-68.442,104.545,
59940100,0.75,-0.739,1.096,-200.707,-88.602,125.65,
59940110,0.576,-1.338,1.079,-181.72,-112.962,140.49,
59940120,0.576,-1.468,0.749,-129.185,-140.77,110.18,
59940130,0.585,-1.65,0.362,-91.21,-152.075,78.12,
59940140,0.449,-1.897,0.193,-49.087,-122.377,70.805,
59940150,0.606,-1.116,-0.458,21.122,-63.017,84.735,
59940160,0.543,-0.755,-0.512,53.34,-12.757,99.365,
59940170,1.093,-0.543,-0.72,11.847,-0.28,71.715,
59940180,1.303,-0.131,-0.419,-22.365,26.495,28.822,
59940190,1.128,0.101,-0.216,-68.512,33.967,-28.682,
59940200,0.796,0.281,0.011,-93.572,31.552,-87.15,
59940210,0.201,0.553,0.066,-95.952,10.605,-146.265,
59940220,-0.465,0.552,0.061,-99.505,-9.03,-158.235,
59940230,0.028,0.851,0.077,-56.14,-23.817,-189.717,
59940240,-0.316,0.628,-0.072,-70.752,-35.297,-227.185,
59940250,-0.894,0.336,0.018,-87.727,4.077,-178.395,
59940260,-0.948,-0.001,-0.005,-66.867,34.982,-136.64,
59940270,-1.79,-1.586,0.03,-30.047,102.445,-36.907,
59940280,0.543,-1.998,1.868,104.107,262.92,62.615,
59940290,0.079,-0.744,-1.697,389.165,202.632,-44.625,
59940300,-0.901,1.993,1.258,432.652,11.48,-142.625,
59940310,1.639,0.311,1.256,370.422,18.112,-78.33,
59940320,0.699,-0.418,1.463,392.56,92.645,-50.505,
59940330,0.792,0.511,1.688,342.212,100.187,-41.212,
59940330,0.926,0.596,1.715,278.897,107.17,2.03,
59940350,0.218,0.549,1.943,167.002,92.452,31.342,
59940350,-0.216,0.374,1.919,52.447,45.097,40.022,
59940370,0.097,0.253,1.672,-52.57,-19.547,43.312,
59940370,0.223,0.057,1.473,-138.565,-60.357,47.425,
59940390,0.114,-0.194,1.251,-195.055,-85.977,54.442,
59940390,0.347,-0.077,1.214,-214.76,-108.395,46.795,
59940410,0.104,-0.283,1.123,-259.717,-113.505,54.95,
59940410,0.194,-0.301,0.897,-267.89,-116.375,49.945,
59940420,0.275,-0.458,0.734,-272.86,-121.187,50.382,
59940430,0.338,-0.316,0.707,-265.475,-129.465,48.055,
59940440,0.421,-0.428,0.897,-271.565,-139.23,58.957,
59940450,0.509,-1.182,1.045,-264.547,-156.537,68.372,
59940460,0.839,-1.496,0.743,-214.27,-159.477,52.622,
59940470,1.097,-1.71,0.582,-158.007,-108.815,26.985,
59940480,0.806,-1.897,1.063,-96.512,-58.625,26.39,
59940490,-1.559,-1.998,1.655,31.08,29.365,79.222,
59940500,-1.668,-1.909,0.608,197.82,79.852,199.062,
59940510,0.749,-0.572,-0.853,331.572,49.21,273.192,
59940520,1.858,-0.164,-1.284,245.892,87.272,301.035,
59940530,1.45,-0.023,-0.966,136.377,92.032,232.365,
59940540,1.014,0.064,-0.587,48.387,81.462,116.392,
59940550,1.134,-0.025,-0.26,-20.177,80.482,12.582,
59940560,1.287,-0.031,-0.133,-60.69,113.347,-72.94,
59940570,0.847,0.098,-0.165,-77.297,144.83,-154.665,
59940580,-0.055,0.327,-0.2,-89.547,149.397,-209.947,
59940590,-0.372,0.137,-0.293,-94.08,130.987,-216.527,
59940600,-0.677,1.177,-0.175,-100.275,108.115,-181.912,
59940610,0.096,1.419,-0.501,-72.327,104.72,-191.012,
59940620,-0.517,1.624,-0.507,-120.085,115.045,-160.265,
59940630,-0.577,1.566,-0.262,-131.792,154.735,-103.075,
59940640,-1.442,-1.964,0.892,-194.127,-57.19,-115.797,
59940650,0.673,-0.328,-1.932,398.195,11.095,-246.4,
59940660,-0.79,1.934,0.109,257.302,-99.417,-208.652,
59940670,1.993,-1.437,1.351,304.99,-53.707,-95.795,
59940680,1.288,-0.527,1.363,475.615,52.307,-88.48,
59940690,1.328,1.357,1.463,429.782,78.557,-62.405,
59940700,0.889,0.244,1.877,335.982,115.727,31.307,
59940710,0.024,0.766,1.972,227.29,103.32,55.947,
59940720,-0.463,0.507,1.983,89.565,56.332,56.105,
59940730,-0.134,0.368,1.789,-30.765,-12.81,39.69,
59940740,0.198,0.211,1.597,-134.715,-57.872,35.017,
59940750,0.41,0.029,1.349,-213.395,-80.972,39.917,
59940760,0.389,-0.337,1.174,-262.657,-89.652,52.535,
59940760,0.555,0.146,0.902,-272.72,-89.565,62.335,
59940780,0.126,-0.413,1.001,-282.117,-86.782,63.017,
59940780,0.378,-0.362,0.943,-285.127,-90.107,75.04,
59940800,0.423,-0.543,0.863,-272.562,-95.095,77.105,
59940800,0.593,-0.921,0.948,-252.49,-97.352,93.712,
59940820,0.655,-1.052,0.93,-214.165,-74.112,97.475,
59940820,0.727,-1.223,0.877,-177.8,-32.445,99.662,
59940830,0.486,-1.478,0.906,-153.825,-13.37,96.145,
59940840,0.306,-1.652,0.819,-105.665,-36.522,68.022,
59940850,-1.119,-1.72,1.841,-15.242,-90.037,66.185,
59940860,-0.992,-1.465,0.621,137.76,-103.985,145.67,
59940870,0.936,-0.127,-0.673,241.15,-25.847,218.697,
59940880,1.285,0.711,-0.692,170.362,-2.905,214.077,
59940890,1.187,0.289,-0.417,64.592,-10.64,122.92,
59940900,1.009,0.116,-0.142,12.162,4.41,42.892,
59940910,0.852,0.371,-0.075,-5.967,7.157,-43.645,
59940920,0.485,0.426,-0.038,-39.182,-1.312,-115.045,
59940930,0.076,0.131,0.154,-64.05,-8.242,-156.607,
59940940,-0.232,0.165,0.234,-73.29,-10.202,-157.5,
59940950,-0.548,-0.084,0.27,-68.127,-12.915,-132.037,
59940960,-0.671,1.021,0.47,-13.475,-25.865,-98.507,
59940970,-0.618,0.835,0.266,6.23,-71.715,-157.482,
59940980,-1.096,0.651,0.348,-25.83,-64.347,-76.247,
59940990,-0.608,0.92,-0.409,8.4,-7.997,-4.147,
59941000,1.084,-0.808,-0.123,-86.677,169.715,48.037,
59941010,1.017,-1.941,0.301,21.665,93.047,-189.752,
59941020,-1.937,1.932,0.526,242.62,58.292,-220.342,
59941030,1.616,0.23,-0.968,213.062,-11.112,-113.522,
59941040,1.408,-1.998,1.436,154.752,126.297,33.757,
59941050,-0.302,0.106,0.696,346.045,44.782,18.847,
59941060,1.531,0.743,1.433,288.75,25.287,105.787,
59941070,0.121,0.043,1.7,209.86,1.785,177.66,
59941080,-0.046,0.395,1.866,129.447,-21.665,172.987,
59941080,-0.287,0.238,1.847,36.102,-27.352,135.677,
59941100,-0.192,0.05,1.582,-56.35,-12.95,76.16,
59941100,-0.01,-0.29,1.179,-119.525,5.512,27.44,
59941120,0.236,-0.574,0.971,-149.747,11.865,1.102,
59941120,0.374,-0.447,0.877,-146.79,2.572,8.242,
59941140,0.514,-0.469,0.825,-147.297,-9.642,17.342,
59941140,0.412,-0.594,0.789,-147.945,-21.805,31.027,
59941160,0.332,-0.636,0.722,-143.36,-33.302,45.465,
59941160,0.485,-0.701,0.727,-139.702,-47.985,62.825,
59941170,0.544,-0.801,0.868,-134.575,-53.077,85.137,
59941180,0.627,-0.932,1.094,-126.157,-54.53,105.647,
59941190,0.57,-1.238,1.17,-114.362,-40.022,122.167,
59941200,0.263,-1.342,0.947,-88.462,-45.885,96.197,
59941210,0.248,-1.754,0.726,-58.135,-60.637,52.097,
59941220,-0.785,-1.997,1.428,-4.917,-71.382,35.875,
59941230,-1.714,-1.461,0.597,115.15,-94.885,57.505,
59941240,0.433,-0.417,-0.247,172.497,52.5,157.745,
59941250,1.234,-0.236,-0.433,87.22,124.53,181.877,
59941260,1.34,0.165,-0.33,15.137,103.617,50.82,
59941270,1.01,0.103,0.034,-51.31,115.325,-65.537,
59941280,0.523,0.104,0.23,-90.965,125.44,-145.11,
59941290,0.038,0.322,0.315,-102.025,106.767,-204.715,
59941300,-0.44,0.198,0.32,-114.502,78.942,-220.5,
59941310,-1.08,0.668,0.447,-107.922,44.1,-163.362,
59941320,-0.606,1.288,0.055,-34.965,-4.252,-172.322,
59941330,-1.019,1.549,-0.162,-41.755,-55.685,-149.957,
59941340,-0.813,1.906,-0.594,-44.765,-21.455,-69.23,
59941350,-0.281,1.951,-1.483,-37.45,59.85,-27.947,
59941360,0.811,-0.928,0.854,-181.807,211.102,-102.095,
59941370,0.496,-1.208,-1.743,187.232,-26.565,-394.835,
59941380,-1.434,1.997,-1.122,352.397,48.107,-332.832,
59941390,1.998,-0.744,0.664,318.395,-9.432,-201.775,
59941400,1.038,-1.071,1.215,432.145,141.172,-78.977,
59941410,1.711,1.72,1.364,504.91,133.98,-16.852,
59941420,0.312,0.227,1.985,365.54,148.487,114.397,
59941430,-0.273,1.019,1.981,266.595,93.292,137.9,
59941440,-0.712,0.859,1.998,104.545,34.02,117.127,
59941450,-0.408,0.429,1.875,-40.775,-22.645,77.787,
59941460,-0.216,0.161,1.633,-154.28,-47.005,38.43,
59941470,0.1,-0.001,1.348,-232.102,-59.5,11.865,
59941480,0.412,-0.304,1.063,-276.57,-57.855,6.475,
59941490,0.686,-0.028,0.751,-264.127,-50.242,14.7,
59941500,0.418,-0.535,0.757,-267.26,-45.43,16.275,
59941510,0.324,-0.671,0.745,-254.03,-44.87,38.15,
59941510,0.515,-0.434,0.578,-227.185,-49.787,38.99,
59941520,0.685,-0.652,0.567,-216.877,-50.05,54.127,
59941530,0.914,-0.805,0.708,-197.225,-38.71,74.917,
59941540,0.968,-0.891,0.877,-175.122,-10.115,105.98,
59941550,0.947,-1.149,1.066,-154.787,28.175,133.612,
59941560,0.626,-1.473,1.137,-124.757,51.327,131.705,
59941570,0.241,-1.382,0.577,-72.03,43.015,98.56,
59941580,0.253,-1.648,0.843,-17.955,35.612,61.267,
59941590,-1.424,-1.85,1.598,56.665,-50.96,50.662,
59941600,-0.011,-0.746,-0.725,222.022,-88.165,81.567,
59941610,0.894,0.577,-1.065,217.612,16.345,153.597,
59941620,0.561,0.276,-0.753,91.927,-0.157,116.602,
59941630,0.384,-0.258,-0.337,14.087,-33.075,43.592,
59941640,0.748,-0.103,-0.07,-8.575,-14.122,9.712,
59941650,0.945,0.227,-0.01,-25.83,1.19,-29.907,
59941660,0.557,0.3,0.071,-55.177,2.415,-82.39,
59941670,0.091,-0.268,0.107,-82.425,-7.49,-113.925,
59941680,-0.627,0.354,0.335,-67.322,-29.032,-87.99,
59941690,0.102,0.505,0.017,-0.035,-68.582,-147.385,
59941700,-0.617,0.242,0.068,-34.44,-117.285,-143.255,
59941710,-0.849,0.55,-0.071,-22.767,-130.41,-93.047,
59941720,-0.589,1.054,-0.82,14.385,-81.41,-35.017,
59941730,-1.218,-1.934,1.281,-103.372,-7.507,30.852,
59941740,1.467,-1.203,-1.997,359.66,73.395,-77.07,
59941750,-1.628,1.997,-0.133,381.64,31.5,-43.382,
59941760,1.612,0.947,0.853,345.887,-34.335,-71.015,
59941770,0.371,-1.307,1.715,403.777,96.057,-11.112,
59941780,0.903,0.431,1.727,468.422,78.225,7.7,
59941790,0.488,1.154,1.929,394.117,78.19,55.352,
59941800,-0.08,0.677,1.998,245.997,74.077,69.772,
59941810,-0.333,0.792,1.952,107.642,38.92,44.625,
59941820,0.03,0.314,1.64,-35.98,-12.04,25.235,
59941830,0.358,-0.047,1.221,-127.837,-34.405,11.235,
59941830,0.39,-0.346,0.957,-169.592,-31.727,13.422,
59941850,0.426,-0.337,0.974,-179.952,-38.447,27.422,
59941850,0.187,-0.468,0.998,-177.87,-44.712,49.28,
59941870,0.461,0.01,1,-156.677,-51.275,41.405,
59941870,0.185,-0.45,0.994,-206.045,-49.455,54.022,
59941890,0.289,-0.495,0.918,-201.442,-55.282,56.63,
59941890,0.423,-0.507,0.874,-198.957,-64.137,68.285,
59941910,0.385,-0.62,0.82,-191.66,-73.99,84.927,
59941910,0.553,-0.701,0.986,-187.32,-83.877,108.692,
59941920,0.612,-1.089,1.004,-178.202,-70.227,136.08,
59941930,0.297,-1.343,0.965,-143.255,-74.27,107.677,
59941940,0.051,-1.812,0.997,-98.595,-93.555,61.88,
59941950,-0.457,-1.934,1.117,-33.792,-95.392,58.747,
59941960,-1.795,-1.735,1.199,69.387,-93.87,75.442,
59941970,-0.907,-0.613,-0.215,176.47,-5.495,147.472,
59941980,0.642,-0.063,-0.524,141.96,61.302,184.24,
59941990,1.183,-0.078,-0.388,51.117,53.76,88.987,
59942000,0.782,-0.269,-0.051,-18.287,70.805,-13.527,
59942010,0.208,-0.103,0.005,-40.74,81.83,-108.605,
59942020,-0.227,0.31,-0.099,-59.85,72.765,-182.297,
59942030,-0.593,0.551,-0.06,-109.06,45.08,-210.7,
59942040,-0.543,0.658,0.063,-157.867,25.83,-212.257,
59942050,-0.522,0.769,0.125,-172.147,23.467,-194.18,
59942060,-0.851,1.635,0.535,-126.822,23.397,-166.897,
59942070,-0.775,1.997,0.087,-102.27,-9.52,-218.89,
59942080,0.132,0.054,1.253,-191.467,-29.662,-245.017,
59942090,1.957,-1.998,-1.181,-23.765,48.895,-380.502,
59942100,0.772,0.712,-0.227,316.505,49.98,-411.862,
59942110,1.908,1.369,-0.006,210.717,109.69,-267.662,
59942120,1.998,-1.89,0.258,335.387,207.147,-38.622,
59942130,1.738,0.635,0.95,468.387,209.807,107.642,
59942140,0.069,0.541,1.874,420.945,176.82,227.762,
59942150,-0.694,0.684,1.974,338.135,113.4,259.945,
59942160,-1.397,0.875,1.998,204.067,71.12,167.265,
59942170,-1.138,0.518,1.942,54.95,21.14,57.032,
59942180,0.012,0.232,1.658,-72.572,-40.862,-11.2,
59942190,0.585,0.249,1.427,-160.352,-79.817,-16.555,
59942190,0.636,0.079,1.189,-231.245,-83.825,5.617,
59942210,0.365,-0.299,0.988,-271.04,-86.082,28,
59942210,0.809,-0.132,0.808,-237.965,-107.712,25.112,
59942230,0.552,-0.571,0.737,-279.755,-112.175,58.887,
59942230,0.401,-0.573,0.7,-245.21,-106.05,90.265,
59942250,0.526,-0.524,0.732,-221.97,-102.9,100.345,
59942250,0.512,-0.624,0.868,-210.35,-89.04,114.747,
59942260,0.838,-0.814,0.824,-199.255,-49.84,137.55,
59942270,0.735,-1.063,0.729,-176.312,-0.49,148.4,
59942280,0.302,-1.073,0.511,-132.02,16.59,119.472,
59942290,0.221,-1.384,0.684,-100.782,12.11,100.555,
59942300,-0.265,-1.511,1.109,-60.532,-13.457,88.672,
59942310,-1.21,-1.824,1.625,13.807,-68.022,80.027,
59942320,-1.181,-1.235,0.488,131.53,-46.34,135.695,
59942330,0.314,-0.202,-0.387,198.712,-3.535,174.09,
59942340,1.006,0.132,-0.62,134.855,44.94,153.317,
59942350,1.042,0.003,-0.56,55.632,94.762,77.945,
59942360,0.664,-0.005,-0.251,-1.732,123.987,-16.047,
59942370,0.523,0.063,-0.116,-49.595,133.49,-101.097,
59942380,0.449,0.145,-0.02,-85.802,137.2,-172.112,
59942390,-0.019,-0.225,0.092,-120.872,133.98,-221.97,
59942400,-0.323,0.278,0.341,-102.217,128.082,-224.087,
59942410,-0.147,0.413,0.183,-90.51,103.215,-304.045,
59942420,-0.734,0.57,0.199,-121.362,109.375,-264.95,
59942430,-1.092,1.031,0.05,-107.555,149.117,-207.48,
59942440,-1.257,-0.704,1.918,-165.865,91.735,-192.307,
59942450,1.802,-1.998,-0.821,-26.355,-55.702,-320.827,
59942460,0.469,0.668,-1.528,378.892,138.565,-296.1,
59942470,0.016,1.224,-0.695,195.667,5.145,-242.602,
59942480,1.985,-1.937,0.762,307.055,87.867,-151.672,
59942490,1.986,0.308,0.706,465.202,115.64,-26.005,
59942500,1.292,0.461,1.325,446.127,87.85,116.69,
59942510,0.383,0.843,1.877,380.695,68.11,229.6,
59942520,-0.6,0.984,1.998,309.382,38.342,230.265,
59942530,-0.713,0.808,1.987,167.685,11.987,179.147,
59942540,-0.402,0.75,1.944,10.797,-13.142,94.815,
59942550,0.007,0.113,1.545,-131.95,-25.777,33.985,
59942560,0.235,-0.159,1.183,-203.017,-33.337,12.705,
59942570,0.341,-0.473,0.94,-234.622,-45.115,32.112,
59942580,0.657,0.127,1.041,-201.792,-61.81,44.59,
59942580,0.307,-0.457,0.985,-244.492,-74.427,72.625,
59942600,0.336,-0.6,0.881,-242.41,-80.815,93.187,
59942600,0.343,-0.532,0.791,-229.862,-85.295,110.635,
59942620,0.811,-0.682,0.749,-212.222,-76.632,125.51,
59942620,1.008,-0.944,0.842,-196.14,-44.747,163.642,
59942640,0.882,-1.222,0.932,-173.88,13.02,210.017,
59942640,0.17,-1.572,0.965,-137.707,27.562,213.92,
59942660,-0.411,-1.943,1.273,-77.805,-71.207,157.85,
59942660,-1.662,-1.998,1.894,34.422,-242.042,161.822,
59942670,-1.264,-1.117,-0.491,288.925,-277.532,259.735,
59942680,1.313,-0.089,-1.046,318.832,-82.53,429.065,
59942690,1.951,0.173,-0.888,153.23,-23.222,397.547,
59942700,1.939,0.078,-0.197,25.077,6.16,229.302,
59942710,1.537,-0.064,0.008,-27.212,41.702,59.15,
59942720,1.09,0.264,0.012,-27.335,75.267,-90.282,
59942730,0.365,0.464,0.052,-40.25,78.89,-206.465,
59942740,-0.241,0.278,0.082,-68.267,71.662,-241.15,
59942750,-0.53,0.289,0.137,-74.392,57.225,-250.88,
59942760,-0.729,0.145,0.139,-70.28,46.182,-220.29,
59942770,-0.938,1.261,0.249,-34.597,43.487,-163.135,
59942780,-0.639,1.584,0.021,-2.52,12.635,-183.4,
59942790,-0.851,1.811,0.098,-52.902,-17.447,-117.757,
59942800,-0.267,1.848,-0.281,-50.12,-23.222,-84.42,
59942810,-0.06,-0.407,-0.01,-74.585,59.272,-87.15,
59942820,0.177,-1.997,0.73,156.362,-193.497,-250.127,
59942830,-0.901,1.83,-0.688,315.35,-109.077,-349.965,
59942840,1.998,0.257,-0.404,253.26,-95.41,-335.615,
59942850,1.489,-1.996,1.603,241.797,128.642,-78.435,
59942860,1.835,1.444,0.675,455.84,108.85,-136.202,
59942870,1.39,0.358,1.633,321.825,167.562,8.47,
59942880,0.186,0.434,1.888,236.74,157.675,102.865,
59942890,-0.916,0.602,1.998,134.085,91.665,109.13,
59942900,-0.655,0.423,1.853,18.48,11.445,72.712,
59942910,-0.085,0.025,1.452,-85.452,-46.655,32.287,
59942920,0.284,-0.137,1.126,-148.435,-67.217,11.305,
59942920,0.417,-0.296,0.977,-180.862,-72.695,8.89,
59942940,0.312,-0.444,0.885,-187.46,-72.677,15.382,
59942940,0.648,-0.167,0.852,-164.552,-74.725,4.532,
59942960,0.416,-0.571,0.839,-194.81,-67.34,19.827,
59942960,0.46,-0.411,0.852,-183.33,-61.11,23.992,
59942980,0.49,-0.443,0.787,-179.672,-48.79,27.615,
59942980,0.606,-0.512,0.764,-172.97,-38.937,37.047,
59943000,0.696,-0.607,0.92,-164.377,-32.865,46.252,
59943000,0.942,-0.633,0.955,-159.162,-17.727,68.512,
59943010,0.68,-0.932,1.02,-151.025,-1.61,88.76,
59943020,0.399,-1.192,0.995,-129.71,4.935,77.21,
59943030,-0.006,-1.364,0.87,-95.76,-9.887,38.657,
59943040,-0.053,-1.813,0.734,-67.182,-21.892,-10.482,
59943050,-0.252,-1.891,0.602,-27.212,-38.167,-49.595,
59943060,-0.421,-0.75,-0.57,32.13,-36.505,-61.95,
59943070,-0.93,0.241,0.259,15.61,-20.177,-39.55,
59943080,-0.655,-0.618,0.708,-53.41,-31.692,-25.182,
59943090,-0.371,-0.388,0.695,-18.83,-20.405,-18.427,
59943100,-0.579,0.627,0.719,32.952,2.135,-5.022,
59943110,-0.54,0.889,0.744,33.005,4.235,4.9,
59943120,-0.4,0.732,0.738,32.235,2.205,9.187,
59943130,-0.543,0.88,0.556,60.27,3.955,25.655,
59943140,-0.707,1.121,0.317,85.102,1.925,46.007,
59943150,-0.598,1.207,0.219,83.072,-8.225,70.28,
59943160,-0.935,0.957,-0.097,67.252,-5.985,103.127,
59943170,0.743,-1.288,-0.266,0.472,21.157,24.29,
59943180,1.286,-1.998,-0.039,0.07,-18.392,-351.522,
59943190,-1.926,1.087,0.259,151.882,-60.357,-375.357,
59943200,1.86,1.128,-0.366,287.927,23.065,-206.01,
59943210,1.692,-1.927,0.522,247.642,139.685,2.52,
59943220,1.107,0.993,0.751,369.897,130.987,47.687,
59943230,0.465,0.409,1.795,338.327,154.402,151.497,
59943240,-0.615,-0.044,1.819,258.282,110.512,170.38,
59943250,-1.027,0.674,1.946,169.802,71.82,82.53,
59943260,-0.443,0.045,1.723,42.122,26.005,0.28,
59943270,0.476,0.252,1.392,-47.005,-29.435,-26.162,
59943280,0.642,0.08,1.181,-114.765,-47.11,-6.755,
59943290,0.478,-0.38,1.031,-162.102,-49.245,14.857,
59943300,0.322,-0.074,1.123,-175.262,-55.65,26.127,
59943310,0.167,-0.367,1.093,-193.095,-82.95,22.767,
59943320,0.601,-0.468,0.978,-210.332,-109.287,38.325,
59943330,0.66,-0.327,0.865,-211.592,-101.132,40.022,
59943330,0.839,-0.708,0.92,-206.08,-70.612,63.665,
59943350,0.719,-0.926,0.954,-183.032,-37.31,93.047,
59943350,0.611,-0.918,0.942,-143.36,-29.032,95.13,
59943370,0.57,-1.194,0.761,-100.765,-44.082,73.815,
59943370,0.703,-1.863,1.4,-67.935,-59.167,61.302,
59943390,-0.488,-1.998,1.242,17.64,-77.052,79.8,
59943390,-1.279,-1.524,-0.348,190.172,-18.637,147.612,
59943410,0.38,-0.562,-0.653,191.345,-13.475,200.48,
59943410,1.864,-0.838,-0.63,77.49,6.352,176.557,
59943420,1.164,-0.453,-0.464,24.587,39.06,75.547,
59943430,0.056,-0.07,-0.062,-23.38,69.685,-23.205,
59943440,-0.224,-0.198,0.127,-86.975,71.96,-83.615,
59943450,-0.316,-0.105,0.154,-113.417,65.905,-104.02,
59943460,-0.578,0.398,0.258,-111.282,77.927,-84.192,
59943470,-0.763,0.881,0.38,-110.775,74.532,-51.905,
59943480,-0.607,1.303,0.304,-98.28,65.607,-20.597,
59943490,-0.326,1.916,0.056,-68.32,71.977,16.082,
59943500,-0.235,1.997,0.013,-40.547,74.025,35.192,
59943510,-0.984,1.686,-0.312,-30.187,41.265,63.577,
59943520,1.494,0.829,-0.371,14,167.685,68.11,
59943530,0.165,-1.998,0.852,26.862,-73.867,-363.405,
59943540,-1.036,0.404,-0.718,401.222,-126.892,-362.145,
59943550,0.802,1.89,-0.341,430.325,-137.777,-167.842,
59943560,1.229,-1.819,1.301,248.745,97.947,-57.557,
59943570,0.217,0.712,1.575,443.817,82.372,-50.085,
59943580,1.193,0.918,1.805,344.312,117.495,62.685,
59943590,-0.322,0.472,1.95,183.54,97.492,114.047,
59943600,-0.564,0.414,1.742,87.622,31.43,111.23,
59943610,-0.374,0.124,1.479,-12.827,-26.005,68.547,
59943620,-0.077,-0.159,1.28,-85.12,-53.217,27.23,
59943630,0.192,-0.166,1.168,-129.447,-71.697,6.142,
59943640,0.387,-0.203,1.117,-164.272,-81.952,5.652,
59943650,0.388,-0.21,1.102,-192.745,-93.012,11.445,
59943660,0.211,-0.504,1.075,-206.045,-106.505,22.172,
59943670,0.573,-0.073,0.913,-187.197,-130.077,6.002,
59943670,0.348,-0.676,0.902,-216.44,-142.765,21.717,
59943690,0.672,-0.632,0.857,-188.72,-141.715,33.687,
59943690,0.804,-0.533,0.997,-166.442,-124.932,54.652,
59943710,0.68,-0.794,0.894,-154.472,-114.59,65.73,
59943710,0.435,-1.149,0.776,-132.142,-116.602,50.102,
59943730,-0.209,-1.807,1.327,-107.555,-158.707,42.052,
59943730,-0.02,-1.998,0.638,-20.667,-203.437,54.215,
59943750,-0.29,-1.994,0.451,122.85,-82.617,116.27,
59943750,-0.322,-1.118,-0.895,206.657,-13.965,160.265,
59943760,0.673,-0.533,-0.857,151.83,19.075,150.062,
59943770,1.085,-0.75,-0.784,54.32,54.04,107.345,
59943780,0.789,-0.448,-0.607,-9.677,101.972,40.687,
59943790,0.421,-0.223,-0.338,-76.685,131.81,-33.705,
59943800,0.208,-0.323,-0.058,-143.867,129.587,-103.53,
59943810,0.065,-0.449,0.128,-189.315,131.845,-133.122,
59943820,-0.048,-0.301,0.175,-197.522,136.43,-149.292,
59943830,-0.337,0,0.214,-202.685,120.242,-161.157,
59943840,-0.506,0.118,0.282,-209.44,114.24,-144.357,
59943850,-0.966,0.328,0.308,-201.967,109.707,-100.747,
59943860,-1.424,0.661,0.311,-170.047,77.595,-56.122,
59943870,-1.568,1.505,-0.371,-106.627,46.602,9.642,
59943880,0.278,1.682,1.576,-17.5,50.47,14.192,
59943890,1.998,-1.985,0.827,-90.282,2.222,-96.162,
59943900,0.429,-1.599,0.129,384.212,25.445,-350.962,
59943910,0.048,1.883,1.062,315.332,31.517,-179.182,
59943920,1.969,0.497,0.089,332.99,90.247,-80.71,
59943930,0.76,-1.407,1.573,277.935,111.177,44.38,
59943940,0.676,1.418,1.799,293.807,58.992,124.74,
59943950,-0.173,0.392,1.998,160.877,20.405,166.495,
59943960,-0.325,0.537,1.998,33.25,-21.472,138.512,
59943970,-0.295,0.215,1.834,-99.452,-41.405,76.545,
59943980,-0.163,-0.282,1.325,-205.485,-43.347,29.557,
59943990,0.55,0.197,1.001,-230.282,-48.65,-2.38,
59944000,0.445,-0.535,0.827,-270.375,-49.07,-6.23,
59944010,0.725,-0.491,0.752,-260.277,-45.395,19.302,
59944020,0.63,-0.492,0.604,-253.4,-41.125,42.665,
59944030,0.616,-0.675,0.482,-239.61,-37.73,61.337,
59944040,0.692,-0.776,0.508,-220.657,-36.627,79.677,
59944050,0.943,-0.943,0.823,-205.415,-13.3,103.477,
59944060,1.233,-1.279,1.252,-177.765,33.075,116.497,
59944070,1.245,-1.709,1.168,-138.022,84.682,120.662,
59944080,0.756,-1.59,0.824,-82.022,104.597,90.982,
59944080,0.424,-1.809,0.855,-28.577,95.97,33.827,
59944100,-1.222,-1.995,1.652,48.002,21.665,-6.37,
59944100,-1.572,-1.43,0.533,251.912,-102.812,27.842,
59944120,0.508,0.109,-1.141,339.762,-46.62,131.722,
59944120,0.782,0.583,-0.802,243.932,20.597,190.347,
59944140,0.265,0.579,-0.642,154.315,-16.17,107.187,
59944140,0.236,0.642,-0.168,85.907,-5.127,45.902,
59944160,0.334,0.859,0.123,35.087,1.872,21.21,
59944160,0.258,0.953,0.214,2.555,-8.452,-29.995,
59944170,-0.081,0.789,0.237,-5.145,-13.3,-71.785,
59944180,-0.451,0.797,0.21,1.452,-16.537,-82.442,
59944190,-0.622,0.819,0.183,9.1,-26.372,-69.107,
59944200,-0.587,0.711,0.076,16.467,-32.865,-46.042,
59944210,-0.299,0.266,0.161,20.51,-26.985,-16.327,
59944220,-0.448,-0.165,-0.906,26.285,20.755,72.047,
59944230,0.99,-1.872,-0.16,2.677,254.065,-44.73,
59944240,-0.883,-1.99,1.237,111.79,-197.172,-402.307,
59944250,-1.767,1.805,-0.104,276.167,-99.435,-249.567,
59944260,1.952,1.393,-0.126,326.62,-60.532,-110.215,
59944270,0.875,-1.986,1.282,142.1,59.08,-71.417,
59944280,0.272,0.192,1.159,345.152,38.325,-73.692,
59944290,1.472,0.989,1.201,325.167,71.33,15.225,
59944300,0.042,-0.365,1.74,189.245,70.857,75.74,
59944310,0.013,0.582,1.87,144.602,37.975,81.742,
59944320,-0.152,0.407,1.89,11.795,4.672,63.91,
59944330,0.116,0.264,1.721,-102.2,-27.422,41.387,
59944340,0.26,0.127,1.494,-199.482,-49.07,34.79,
