#Format version: 1.0
time[ms],accX[g],accY[g],accZ[g],Value 1,Value 2,Value 3,
40187190,-0.004,-0.676,0.628,-21.227,14.42,7.455,
40187200,-0.036,-0.702,0.644,-18.165,16.082,5.285,
40187210,-0.064,-0.731,0.653,-13.527,14.14,2.24,
40187220,-0.086,-0.732,0.658,-10.027,11.515,2.502,
40187230,-0.106,-0.757,0.654,-7.385,7.507,4.55,
40187240,-0.133,-0.778,0.639,-6.387,3.64,8.977,
40187250,-0.154,-0.795,0.626,-4.62,-1.12,15.54,
40187260,-0.158,-0.8,0.613,-6.072,-5.845,22.05,
40187260,-0.158,-0.823,0.591,-9.537,-12.25,27.877,
40187280,-0.128,-0.845,0.571,-11.97,-16.555,33.092,
40187280,-0.079,-0.846,0.571,-13.842,-19.582,35.875,
40187300,-0.067,-0.852,0.59,-17.08,-19.67,35.612,
40187300,-0.073,-0.872,0.604,-19.407,-20.335,32.445,
40187320,-0.07,-0.879,0.602,-18.305,-19.267,29.697,
40187320,-0.06,-0.846,0.592,-15.102,-19.145,26.267,
40187330,-0.056,-0.821,0.577,-13.107,-17.185,21.805,
40187340,-0.056,-0.804,0.561,-11.55,-15.872,18.165,
40187350,-0.047,-0.785,0.54,-10.325,-12.792,15.732,
40187360,-0.049,-0.76,0.525,-9.45,-12.092,12.127,
40187370,-0.031,-0.742,0.518,-9.73,-10.062,9.73,
40187380,-0.01,-0.731,0.536,-11.025,-9.397,6.807,
40187390,-0.029,-0.74,0.552,-12.792,-8.085,3.902,
40187400,-0.051,-0.749,0.562,-13.527,-10.307,1.872,
40187410,-0.041,-0.746,0.582,-15.54,-12.372,2.327,
40187420,-0.006,-0.766,0.613,-18.69,-15.592,4.252,
40187430,0.02,-0.817,0.624,-22.365,-16.345,7.017,
40187440,0.062,-0.842,0.648,-23.87,-18.672,7.805,
40187450,0.102,-0.847,0.704,-25.952,-18.252,7.157,
40187460,0.078,-0.911,0.755,-31.237,-20.72,4.462,
40187470,0.057,-1.011,0.787,-36.032,-26.11,-0.91,
40187480,0.041,-1.078,0.802,-36.47,-36.085,-6.002,
40187490,0.047,-1.117,0.797,-35.262,-43.802,-9.065,
40187500,0.063,-1.169,0.803,-37.257,-48.177,-9.677,
40187510,0.024,-1.277,0.803,-41.842,-47.792,-8.61,
40187520,-0.036,-1.35,0.813,-46.76,-48.72,-7.577,
40187530,-0.014,-1.402,0.841,-54.11,-47.932,-5.425,
40187540,0.013,-1.496,0.899,-65.765,-43.855,-2.17,
40187550,-0.021,-1.652,0.978,-79.362,-38.342,-1.995,
40187560,-0.089,-1.791,1.084,-88.427,-34.667,-5.547,
40187570,-0.11,-1.888,1.161,-93.712,-32.147,-10.29,
40187580,-0.108,-1.946,1.157,-97.072,-29.207,-14.857,
40187580,-0.086,-1.898,1.158,-95.637,-25.655,-18.672,
40187600,-0.054,-1.782,1.059,-93.695,-22.4,-22.662,
40187600,-0.039,-1.586,0.99,-90.912,-20.492,-27.772,
40187620,-0.047,-1.439,0.936,-95.9,-20.72,-32.69,
40187620,-0.001,-1.357,0.864,-103.005,-22.942,-31.43,
40187640,0.082,-1.215,0.787,-101.797,-22.487,-23.047,
40187640,0.169,-1.058,0.684,-92.837,-21.595,-14.875,
40187660,0.218,-0.913,0.532,-80.535,-21.332,-9.345,
40187660,0.288,-0.753,0.364,-64.977,-24.062,-3.447,
40187670,0.357,-0.596,0.215,-51.485,-26.46,2.87,
40187680,0.399,-0.488,0.075,-40.127,-30.082,7.262,
40187690,0.418,-0.421,-0.041,-29.592,-30.24,12.25,
40187700,0.379,-0.366,-0.153,-18.095,-32.322,13.667,
40187710,0.303,-0.284,-0.262,-4.83,-36.277,10.535,
40187720,0.282,-0.178,-0.382,7.175,-42.927,5.95,
40187730,0.283,-0.071,-0.486,13.195,-45.535,2.625,
40187740,0.235,0.02,-0.515,14.822,-48.982,-3.902,
40187750,0.134,0.046,-0.502,12.985,-54.582,-13.895,
40187760,0.043,0.05,-0.475,11.515,-65.887,-22.732,
40187770,0.038,0.082,-0.437,11.392,-73.955,-26.04,
40187780,0.05,0.099,-0.401,11.55,-76.86,-23.677,
40187790,0.014,0.074,-0.341,11.97,-73.587,-18.672,
40187800,-0.01,0.024,-0.315,15.575,-69.615,-11.795,
40187810,0.026,0.027,-0.291,23.082,-61.845,-2.17,
40187820,0.08,0.039,-0.254,29.102,-52.605,4.917,
40187830,0.064,0.02,-0.226,31.692,-43.4,7.087,
40187840,0.069,0.028,-0.199,35.735,-40.95,2.222,
40187850,0.092,0.065,-0.152,39.987,-40.407,-6.212,
40187860,0.078,0.08,-0.094,41.527,-41.335,-15.872,
40187870,0.036,0.077,-0.024,42.7,-41.527,-24.535,
40187880,0.031,0.072,0.091,45.832,-42.332,-32.147,
40187890,0.024,0.026,0.231,49.49,-37.765,-34.58,
40187900,-0.062,-0.075,0.34,56.297,-31.412,-31.692,
40187910,-0.136,-0.116,0.358,67.97,-27.457,-23.432,
40187920,-0.118,-0.069,0.366,77.56,-24.552,-7.49,
40187930,-0.08,-0.104,0.406,74.375,-23.38,11.55,
40187940,-0.025,-0.274,0.477,62.58,-22.82,34.825,
40187950,0.136,-0.521,0.485,49.612,-21.402,62.457,
40187960,0.348,-0.747,0.476,39.147,-15.767,82.547,
40187970,0.385,-0.876,0.512,34.597,-12.915,82.845,
40187980,0.488,-1.016,0.598,31.972,-11.06,64.225,
40187990,0.618,-0.803,0.877,25.585,-5.442,25.585,
40188000,0.054,-1.204,0.892,-15.452,-1.837,11.392,
40188010,0.319,-1.579,0.88,-9.205,-4.427,-43.925,
40188010,0.02,-1.642,0.902,22.365,-5.302,-69.545,
40188030,-0.091,-1.656,0.89,31.255,9.117,-24.43,
40188030,0.169,-1.81,0.964,22.085,21.122,13.387,
40188050,0.166,-1.978,1.087,3.045,24.342,41.72,
40188050,0.178,-1.998,1.23,-7.227,19.845,54.88,
40188070,0.266,-1.998,1.424,-6.895,5.145,51.082,
40188070,0.195,-1.998,1.564,-12.355,-15.085,40.635,
40188080,0.096,-1.998,1.563,-15.487,-37.922,30.642,
40188090,0.088,-1.998,1.393,-12.162,-55.02,24.535,
40188100,0.219,-1.997,1.291,-1.085,-57.032,20.335,
40188110,0.14,-1.979,1.151,-2.8,-47.302,19.897,
40188120,0.082,-1.985,1.002,-5.267,-41.597,19.687,
40188130,0.204,-1.897,0.909,-7.945,-35.14,22.417,
40188140,0.262,-1.876,0.807,-17.202,-27.3,23.677,
40188150,0.287,-1.88,0.702,-25.935,-19.372,17.815,
40188160,0.317,-1.875,0.598,-27.772,-13.02,12.617,
40188170,0.337,-1.84,0.451,-27.3,-7.577,7.857,
40188180,0.378,-1.79,0.31,-27.632,-4.007,6.51,
40188190,0.433,-1.723,0.221,-32.55,2.817,7.542,
40188200,0.434,-1.675,0.179,-40.512,6.685,6.615,
40188210,0.392,-1.606,0.14,-47.95,8.015,4.095,
40188220,0.302,-1.474,0.047,-51.345,1.837,-0.91,
40188230,0.208,-1.242,-0.031,-53.427,-6.405,-4.235,
40188240,0.081,-0.997,-0.091,-60.007,-16.975,-1.96,
40188250,0.046,-0.791,-0.114,-69.002,-28.28,2.905,
40188260,0.103,-0.613,-0.106,-76.055,-34.702,9.52,
40188270,0.133,-0.431,-0.081,-79.992,-31.797,15.137,
40188280,0.164,-0.24,-0.02,-82.092,-26.285,14.315,
40188290,0.16,-0.13,0.05,-87.5,-22.417,4.515,
40188300,0.166,-0.091,0.055,-93.082,-23.187,-16.747,
40188310,0.177,0.009,0.045,-91.262,-23.817,-45.517,
40188320,0.184,0.176,0.019,-85.085,-18.567,-72.625,
40188330,0.177,0.348,-0.023,-78.102,-6.895,-93.047,
40188330,0.228,0.493,-0.068,-72.975,9.187,-108.272,
40188350,0.28,0.583,-0.068,-69.142,25.9,-121.572,
40188350,0.237,0.601,-0.033,-65.362,36.837,-138.215,
40188370,0.211,0.599,0,-59.57,39.585,-154.647,
40188370,0.209,0.625,0.005,-51.992,38.832,-167.405,
40188390,0.208,0.659,0.029,-42.927,39.112,-177.467,
40188390,0.136,0.636,0.125,-35.63,45.045,-181.387,
40188410,-0.081,0.541,0.259,-22.54,47.967,-177.345,
40188410,-0.264,0.542,0.241,3.342,43.522,-164.587,
40188420,-0.35,0.727,0.218,31.517,36.627,-138.635,
40188430,-0.415,0.796,0.288,38.92,35.315,-100.992,
40188440,-0.442,0.661,0.463,31.605,41.177,-51.17,
40188450,-0.373,0.469,0.612,30.835,52.29,5.635,
40188460,-0.148,0.289,0.722,44.292,67.585,59.027,
40188470,-0.005,-0.064,0.767,56.875,82.127,88.41,
40188480,0.013,-0.497,0.774,75.162,89.32,85.487,
40188490,-0.047,-0.759,0.847,107.905,90.107,63.595,
40188500,-0.078,-1.062,0.851,132.842,91.822,45.885,
40188510,-0.072,-1.472,0.712,135.782,98.525,44.887,
40188520,0.043,-1.893,0.517,130.497,105.332,57.417,
40188530,0.278,-1.998,0.417,108.85,122.202,83.58,
40188540,0.188,-1.998,0.369,80.307,133.175,105.91,
40188550,-0.052,-1.998,0.278,67.235,130.532,116.165,
40188560,-0.207,-1.998,0.198,47.547,114.8,121.222,
40188570,-0.343,-1.998,0.167,14.577,95.637,121.1,
40188580,-0.503,-1.71,0.163,-11.427,78.277,121.572,
40188590,-0.911,-1.324,0.373,-38.01,55.142,120.68,
40188600,-0.875,-1.194,0.517,-75.32,-7.385,96.25,
40188610,-0.514,-1.172,0.788,-89.95,-80.342,2.922,
40188620,-0.209,-0.941,0.995,-46.462,-89.25,-19.635,
40188630,-0.09,-0.569,0.914,25.025,-45.412,-22.645,
40188640,-0.345,-0.046,1.05,78.837,13.125,-27.982,
40188650,-0.451,-0.139,0.86,99.067,79.362,-15.977,
40188660,-0.624,0.252,0.733,105.805,127.417,22.89,
40188670,-0.412,0.17,0.856,63.962,165.952,48.527,
40188680,-0.445,-0.222,0.955,39.182,208.652,123.06,
40188690,-0.917,-0.718,1.009,39.567,220.78,196.262,
40188700,-1.036,-0.869,0.939,55.072,186.375,244.16,
40188710,-0.786,-0.71,0.768,87.5,135.59,283.08,
40188720,-0.706,-0.617,0.679,87.045,93.66,317.765,
40188730,-0.509,-1.437,0.462,47.25,74.287,312.707,
40188740,-0.565,-1.467,0.589,70.997,69.527,268.817,
40188750,-0.742,-1.103,0.89,90.247,38.272,206.622,
40188760,-0.301,-1.169,0.734,58.642,-10.15,163.135,
40188760,0.564,-1.212,0.495,28.367,-22.61,117.197,
40188780,0.718,-1.43,0.294,33.687,17.552,70.507,
40188780,0.39,-1.181,0.107,118.3,69.562,73.675,
40188800,1.032,-1.195,-0.175,132.65,97.562,42.665,
40188800,0.463,-1.759,0.094,64.645,76.107,-36.137,
40188820,1.757,-1.998,-0.246,66.535,-163.205,-266.175,
40188820,-0.541,-1.998,0.568,238.385,-299.39,-278.722,
40188830,0.816,-1.332,1.143,319.305,-171.78,16.415,
40188840,-0.058,1.959,1.416,497.525,-88.69,97.667,
40188850,-1.243,-0.231,1.105,365.68,-99.697,-1.522,
40188860,-0.65,-1.6,0.357,290.535,-129.657,26.337,
40188870,-0.6,0.653,1.387,439.95,-113.382,-11.69,
40188880,-0.717,-0.017,1.406,342.44,-141.697,-40.757,
40188890,0.129,-0.182,1.689,277.025,-155.487,-41.457,
40188900,0.67,0.923,1.775,212.66,-119.787,-42.157,
40188910,0.938,0.756,1.425,78.96,-67.2,-36.505,
40188920,0.629,0.045,1.12,-17.937,-8.61,-29.75,
40188930,0.285,-0.302,0.994,-53.515,27.685,-19.005,
40188940,0.013,-0.459,0.934,-65.94,37.922,-7.875,
40188950,-0.209,-0.365,0.973,-58.432,38.797,-0.262,
40188960,-0.407,-0.468,0.905,-59.745,33.652,-1.54,
40188970,-0.366,-0.505,0.928,-48.632,25.252,-10.622,
40188980,-0.237,-0.426,0.992,-50.137,13.842,-10.657,
40188990,-0.194,-0.35,1.093,-59.797,6.912,-9.607,
40189000,-0.226,-0.245,1.203,-82.302,5.355,-11.742,
40189010,-0.36,-0.263,1.26,-115.762,9.572,-25.445,
40189020,-0.286,-0.279,1.205,-155.61,17.885,-47.372,
40189030,-0.286,-0.428,1.277,-195.965,23.59,-72.205,
40189040,-0.18,-0.334,1.337,-223.23,12.512,-81.847,
40189050,-0.351,-0.466,1.355,-257.95,-11.497,-85.715,
40189060,-0.168,-1.258,0.846,-280.28,-35.98,-95.76,
40189070,-0.018,-1.491,0.64,-253.33,29.505,-75.302,
40189080,0.243,-1.77,0.712,-284.917,112.875,-65.327,
40189080,0.04,-1.866,0.217,-228.76,154.717,-84.945,
40189100,-0.274,-1.536,0.285,-145.302,126.175,-131.022,
40189100,0.807,-1.309,-0.146,-97.195,81.777,-118.352,
40189120,0.009,-0.965,0.261,-82.39,58.082,-118.055,
40189120,-0.943,-0.101,-0.398,-29.68,28.577,-137.235,
40189140,-0.411,0.729,-0.126,-9.765,13.72,-61.39,
40189140,0.004,0.286,-0.253,-52.5,27.685,77.49,
40189160,0.265,0.372,-0.354,-36.802,56.717,162.732,
40189160,0.589,0.765,-0.259,-26.39,58.537,178.43,
40189170,0.682,0.564,-0.04,-75.25,63.455,188.772,
40189180,0.518,0.189,-0.066,-74.795,63.717,181.685,
40189190,0.246,-0.07,-0.365,-32.55,59.045,169.067,
40189200,0.085,-0.625,-0.321,28.507,42.77,140.507,
40189210,1.151,-1.809,1.937,59.01,-3.15,151.48,
40189220,-1.929,-1.905,-1.362,211.365,-100.992,186.217,
40189230,-1.817,1.551,1.298,484.47,-224.175,140.56,
40189240,-0.192,-0.008,1.356,295.697,-277.06,136.832,
40189250,-0.457,-1.248,0.415,346.605,-234.657,79.852,
40189260,-1.118,-0.028,0.865,423.272,-184.712,-7.875,
40189270,-0.381,-0.089,1.301,391.09,-188.912,-46.655,
40189280,0.049,-0.105,1.883,345.782,-200.76,-57.82,
40189290,0.778,0.808,1.696,257.985,-166.232,-37.397,
40189300,1.271,1.176,1.467,109.935,-96.862,-26.652,
40189310,1.035,0.4,1.185,-10.36,-18.042,-20.002,
40189320,0.409,-0.193,1.021,-59.325,34.317,-9.87,
40189330,-0.287,-0.545,0.91,-74.62,54.6,-1.382,
40189340,-0.424,-0.589,0.862,-68.18,44.135,1.225,
40189350,-0.485,-0.685,0.778,-51.485,26.092,-1.557,
40189360,-0.282,-0.585,0.812,-23.975,8.417,-7.262,
40189370,-0.156,-0.467,0.882,-3.237,-4.025,-6.877,
40189380,-0.079,-0.309,0.99,3.517,-8.557,-4.48,
40189390,-0.068,-0.195,1.077,-6.895,-4.007,-7.017,
40189400,-0.038,-0.097,1.174,-31.36,4.357,-13.877,
40189410,-0.128,-0.007,1.28,-60.48,20.44,-29.995,
40189420,-0.365,-0.414,1.132,-97.37,40.88,-59.132,
40189430,-0.202,-0.421,1.223,-131.915,62.895,-82.687,
40189440,-0.556,-0.438,1.312,-160.615,81.795,-107.747,
40189450,-0.432,-0.667,1.235,-185.115,71.54,-129.937,
40189460,-0.35,-0.902,1.237,-206.64,42.192,-157.815,
40189470,0.012,-1.174,0.483,-208.075,43.085,-155.68,
40189480,0.218,-1.982,-0.015,-207.305,131.232,-148.225,
40189490,-0.399,-1.998,0.352,-173.74,152.932,-173.355,
40189500,-0.831,-1.998,-1.136,-75.04,144.725,-134.96,
40189510,-0.843,-1.748,-0.029,16.66,49.647,-136.342,
40189510,-1.218,-1.382,0.073,-5.057,2.747,-102.305,
40189530,-1.405,-1.394,0.171,-56.105,-19.425,16.572,
40189530,-0.467,-0.729,-0.752,-20.825,-34.405,118.457,
40189540,0.347,0.54,-0.352,-1.732,-6.107,184.292,
40189550,-0.024,0.677,0.003,-108.535,10.71,228.025,
40189560,0.05,0.662,-0.043,-174.965,2.835,271.495,
40189570,0.887,1.555,0.175,-146.755,4.62,312.917,
40189580,1.347,1.996,0.069,-147.822,4.165,320.565,
40189590,1.522,1.808,-0.233,-143.412,20.3,309.172,
40189600,0.99,1.319,-0.35,-137.55,47.215,292.652,
40189610,-0.122,-1.707,1.778,-179.69,-151.375,88.287,
40189620,0.189,-1.998,-1.238,157.605,-337.365,28.525,
40189630,-1.175,1.301,0.952,556.815,-301.42,168.595,
40189640,0.322,0.429,1.359,386.032,-259.805,64.995,
40189650,-1.542,-1.476,0.47,291.55,-253.26,-9.45,
40189660,-0.51,1.056,1.895,433.23,-215.512,-67.235,
40189670,1.768,0.721,1.857,245.525,-187.285,-70.787,
40189680,1.239,1.231,1.58,117.25,-93.03,-44.52,
40189690,0.901,0.334,1.237,-23.957,-11.41,-16.8,
40189700,0.394,-0.034,1.189,-87.36,43.855,-12.11,
40189710,-0.134,-0.208,1.169,-126.927,67.602,-11.007,
40189720,-0.392,-0.694,0.904,-129.692,75.792,-25.602,
40189730,-0.064,-0.658,0.869,-132.405,66.727,-20.125,
40189740,-0.127,-0.496,0.875,-122.377,55.125,-2.607,
40189750,-0.22,-0.606,0.852,-117.407,38.85,14.822,
40189760,-0.31,-0.403,1.02,-109.287,28.927,19.407,
40189770,-0.289,-0.29,1.137,-121.187,20.807,15.925,
40189780,-0.294,-0.279,1.158,-145.372,15.015,9.607,
40189790,-0.3,-0.324,1.098,-172.427,11.095,0.262,
40189800,-0.222,-0.375,1.013,-191.852,8.907,-10.167,
40189810,-0.213,-0.332,1.045,-197.277,5.985,-18.427,
40189820,-0.094,-0.345,1.029,-214.952,1.295,-23.502,
40189830,-0.062,-0.617,1.153,-235.69,0,-28.962,
40189830,0.097,-0.923,1.338,-244.772,25.602,-25.987,
40189850,-0.138,-1.163,1.394,-225.015,64.68,-13.545,
40189850,-0.443,-0.94,1.041,-188.772,84,-8.085,
40189870,-0.338,-0.488,0.646,-144.217,107.537,3.832,
40189870,-0.312,-0.415,0.863,-102.725,164.587,29.592,
40189890,-0.526,-0.049,0.819,-36.435,189.472,20.772,
40189890,0.274,0.748,1.998,59.832,241.185,9.257,
40189910,-0.129,0.087,1.791,167.247,171.78,-48.072,
40189910,0.594,0.411,0.277,328.615,137.287,-93.537,
40189920,1.55,1.493,-0.619,458.062,152.6,-109.55,
40189930,1.861,1.297,-0.472,368.322,183.347,-176.277,
40189940,0.965,0.045,-0.275,197.435,187.372,-250.862,
40189950,0.106,-0.602,-0.442,174.44,163.835,-280.035,
40189960,-0.008,-0.031,-0.289,212.17,110.845,-260.435,
40189970,0.601,0.499,-0.359,161.525,66.412,-198.38,
40189980,-0.6,-1.186,1.062,-23.362,6.772,-112.472,
40189990,-0.625,-1.998,-1.983,-237.055,-342.492,104.79,
40190000,1.892,-1.159,-0.345,441.157,-286.58,385.945,
40190010,-0.503,1.997,1.801,464.73,-189.735,370.265,
40190020,-1.998,-0.049,1.215,174.387,-274.312,293.247,
40190030,-1.882,-0.786,1.083,181.23,-225.697,92.942,
40190040,0.326,0.933,1.797,247.607,-189.595,-71.715,
40190050,1.753,0.863,1.363,87.307,-152.67,-63.315,
40190060,1.035,0.203,1.103,12.617,-74.357,-9.607,
40190070,0.29,-0.394,0.88,-33.215,-23.555,3.832,
40190080,0.242,-0.264,0.99,-34.825,3.237,-4.445,
40190090,-0.211,-0.468,0.907,-42.21,14.647,0.087,
40190100,-0.244,-0.549,0.85,-34.475,10.115,-3.132,
40190110,0,-0.434,0.905,-18.585,2.397,-5.285,
40190120,0.02,-0.365,0.938,-11.34,-1.557,3.132,
40190130,-0.075,-0.298,0.981,-9.87,-2.52,9.572,
40190140,0.033,-0.185,1.049,-16.852,-1.417,10.762,
40190150,0.05,-0.187,1.088,-35.385,3.482,10.972,
40190160,0.05,-0.197,1.138,-56.472,11.095,12.617,
40190170,0.022,-0.171,1.212,-79.45,18.375,14.595,
40190180,0.008,-0.239,1.304,-107.327,25.725,21.385,
40190190,0.081,-0.183,1.105,-126.017,23.957,30.765,
40190190,0.055,-0.345,1.093,-152.932,33.18,40.04,
40190210,-0.069,-0.274,1.105,-174.422,46.847,33.092,
40190210,-0.032,-0.312,1.056,-191.03,57.435,24.552,
40190230,-0.067,-0.575,0.946,-211.067,60.847,20.65,
40190230,-0.109,-0.759,0.951,-208.792,58.222,25.462,
40190250,-0.126,-0.826,0.98,-192.185,47.845,26.967,
40190250,-0.211,-1.15,0.863,-161.472,24.622,35.227,
40190260,0.05,-1.783,0.637,-128.275,1.732,62.912,
40190270,-0.934,-1.998,-0.112,-110.197,-31.535,105.052,
40190280,-0.299,-1.493,-0.135,-56.892,-44.572,103.74,
40190290,0.411,-0.442,0.213,-31.325,-17.027,163.712,
40190300,0.391,-0.195,-0.137,-55.212,-21.892,128.24,
40190310,1.361,1.597,0.422,-48.702,33.775,90.895,
40190320,-0.11,1.922,1.946,-115.937,64.855,151.252,
40190330,0.037,-0.518,-0.166,-173.022,-49.07,151.9,
40190340,1.998,0.342,0.038,-7.262,-3.902,145.512,
40190350,1.527,1.363,0.548,57.645,69.125,85.96,
40190360,1.203,-0.342,0.424,-1.33,144.48,-28.087,
40190370,-1.998,-1.998,-0.445,-25.987,-75.74,14.822,
40190380,-0.075,-1.306,0.797,164.937,-206.937,301.595,
40190390,1.267,1.929,1.985,345.205,-179.847,265.107,
40190400,-1.998,0.435,0.618,179.252,-241.325,96.617,
40190410,-0.251,-1.896,0.276,122.955,-218.487,0.927,
40190420,0.024,0.799,1.489,331.345,-152.862,-60.742,
40190430,0.314,-0.031,1.314,231.612,-149.642,-75.197,
40190440,0.56,-0.271,1.311,167.475,-128.52,-59.045,
40190450,0.283,0.289,1.528,137.672,-93.8,-26.88,
40190460,0.268,0.08,1.325,59.01,-60.515,-18.305,
40190470,0.218,-0.084,1.151,13.825,-29.557,-17.132,
40190480,0.155,-0.256,1.041,-15.785,-8.347,-14.367,
40190490,0.016,-0.363,0.97,-29.96,3.395,-7.84,
40190500,-0.097,-0.386,0.959,-34.142,7.525,-2.03,
40190510,-0.151,-0.364,0.966,-35.507,7.175,0.21,
40190520,-0.078,-0.374,0.988,-40.337,5.302,1.662,
40190530,-0.111,-0.409,0.99,-46.41,3.115,6.055,
40190540,-0.184,-0.326,1.029,-53.34,2.747,8.662,
40190550,-0.099,-0.281,1.105,-66.535,3.22,3.36,
40190560,-0.168,-0.227,1.159,-86.415,7.63,-3.64,
40190570,-0.218,-0.319,1.144,-112.997,11.13,-12.232,
40190580,-0.312,-0.433,1.045,-135.012,15.942,-24.045,
40190580,-0.311,-0.522,0.968,-146.422,21.84,-45.675,
40190600,-0.272,-0.642,0.881,-156.537,29.347,-71.68,
40190600,-0.253,-0.602,0.846,-163.03,31.255,-100.415,
40190620,-0.308,-0.589,0.866,-171.622,27.037,-127.837,
40190620,-0.385,-0.632,0.822,-175.105,24.482,-149.345,
40190640,-0.504,-0.628,0.81,-175.875,33.46,-157.045,
40190640,-0.416,-0.912,1.009,-196.07,45.482,-169.435,
40190660,-0.125,-1.434,0.671,-204.75,54.67,-186.83,
40190660,-0.046,-1.944,0.588,-193.707,109.13,-210.612,
40190670,-1.062,-1.245,0.263,-100.782,196.98,-222.215,
40190680,-1.273,-1.27,0.219,-73.64,212.257,-214.515,
40190690,-1.245,-1.282,0.547,-28.402,178.867,-209.352,
40190700,-1.089,-1.76,-0.001,20.037,157.552,-201.092,
40190710,-1.929,-1.301,-0.131,88.83,110.67,-190.557,
40190720,-1.99,-0.091,-1.032,157.552,79.31,-150.762,
40190730,-1.544,1.082,-0.866,134.96,83.982,-31.535,
40190740,-1.296,0.518,-0.258,-2.52,108.587,130.55,
40190750,-1.317,-0.704,-0.015,-89.547,108.902,248.29,
40190760,-0.477,-0.453,-0.235,-51.782,94.972,294.787,
40190770,1.605,0.72,-0.333,-11.392,144.585,334.25,
40190780,1.998,1.05,0.004,-37.485,223.282,315.542,
40190790,1.796,0.214,0.397,-116.095,238.385,171.342,
40190800,0.835,-1.959,1.503,-169.855,45.535,-81.515,
40190810,1.876,-1.998,1.241,169.172,-312.602,-325.78,
40190820,-1.584,-1.896,-1.27,494.112,-167.107,-79.8,
40190830,0.718,0.866,1.502,505.12,-156.747,41.58,
40190840,1.484,1.955,1.962,500.552,-139.545,90.545,
40190850,-1.712,-1.061,1.371,320.915,-171.92,81.707,
40190860,-1.246,0.062,1.657,300.842,-181.982,23.292,
40190870,0.137,0.991,1.881,248.307,-151.427,-43.662,
40190880,1.761,0.755,1.553,78.61,-92.837,-62.247,
40190890,0.868,0.058,1.149,-16.87,-19.53,-22.4,
40190900,0.25,-0.269,1.005,-57.925,18.952,1.785,
40190910,-0.14,-0.403,0.954,-69.055,34.667,5.285,
40190920,-0.396,-0.419,0.927,-66.167,36.242,0.787,
40190920,-0.452,-0.625,0.822,-59.237,27.125,-10.395,
40190940,-0.071,-0.512,0.861,-45.272,18.602,-17.885,
40190940,0.153,-0.501,0.887,-39.252,11.602,-8.067,
40190960,0.006,-0.398,0.96,-35.752,9.677,11.637,
40190960,-0.113,-0.307,1.078,-41.282,9.31,21.227,
40190980,-0.147,-0.216,1.179,-59.972,13.107,21.227,
40190980,-0.139,-0.168,1.267,-87.762,15.032,17.57,
40191000,-0.117,-0.204,1.27,-122.272,17.517,15.347,
40191000,-0.142,-0.186,1.197,-154.56,16.52,14.07,
40191010,-0.241,-0.265,1.12,-185.57,15.4,9.817,
40191020,-0.304,-0.332,1.036,-207.462,9.852,-0.437,
40191030,-0.349,-0.426,0.962,-222.337,2.205,-12.337,
40191040,-0.31,-0.497,0.921,-231.262,-7.087,-27.912,
40191050,-0.294,-0.486,0.967,-228.952,-22.662,-36.19,
40191060,-0.158,-0.714,0.98,-252.35,-33.897,-43.067,
40191070,0.157,-0.89,1.029,-253.942,-10.01,-35.98,
40191080,0.247,-1.191,1.049,-232.557,45.64,-21.525,
40191090,0.263,-1.284,0.739,-179.007,104.72,-7,
40191100,0.043,-1.535,0.462,-120.645,181.212,19.057,
40191110,0.112,-1.312,0.339,-45.237,269.937,31.08,
40191120,-0.073,-0.829,1.587,43.855,311.15,0.437,
40191130,-0.319,-1.073,1.207,130.165,280.297,-36.942,
40191140,-0.414,-0.915,0.683,219.73,203.315,-55.597,
40191150,-0.146,-0.273,-0.075,323.172,179.182,-54.005,
40191160,0.288,0.377,-0.619,367.482,134.662,-72.187,
40191170,0.788,0.761,-1.176,328.265,104.265,-117.145,
40191180,0.731,0.704,-0.907,223.107,80.71,-169.032,
40191190,0.3,0.092,-0.679,87.115,42.122,-202.475,
40191200,-0.25,-0.3,-0.763,16.275,12.04,-196.21,
40191210,-0.507,0.15,-0.788,22.05,-36.015,-171.115,
40191220,-0.219,1.15,-0.645,8.487,-63.525,-102.917,
40191230,0.286,0.98,-0.745,-52.867,-50.75,8.995,
40191240,-0.302,-1.01,0.709,-129.657,-64.47,3.692,
40191250,-1.46,-1.998,-1.352,-78.487,-383.845,211.137,
40191260,1.476,0.463,1.543,527.012,-166.81,309.75,
40191270,-0.848,1.813,1.977,517.615,-122.115,136.325,
40191280,-1.638,-1.922,1.011,170.59,-247.1,89.792,
40191290,-0.325,0.858,1.979,363.475,-211.12,-50.26,
40191300,1.584,1.293,1.506,165.375,-161.717,-58.852,
40191310,1.549,0.141,1.048,-37.362,-67.497,-19.967,
40191320,0.283,-0.265,0.996,-59.237,1.837,-5.582,
40191330,0.179,-0.367,0.958,-79.03,26.827,-8.4,
40191330,-0.277,-0.436,0.972,-82.6,39.252,-15.347,
40191350,-0.368,-0.636,0.84,-81.462,31.097,-20.93,
40191350,-0.205,-0.484,0.825,-56.017,24.587,-26.985,
40191370,-0.018,-0.788,0.757,-34.615,10.832,-21.875,
40191370,0.123,-0.227,1.04,-16.187,4.83,-6.597,
40191390,0.138,-0.196,1.154,-29.365,4.637,8.242,
40191390,-0.052,-0.164,1.248,-51.187,8.19,22.312,
40191410,-0.081,-0.086,1.33,-84.175,7.927,25.305,
40191410,-0.039,-0.108,1.294,-129.955,7.962,28.262,
40191420,-0.08,-0.075,1.307,-166.25,7.052,25.322,
40191430,0.001,-0.171,1.219,-203.525,2.975,24.325,
40191440,-0.157,-0.268,1.087,-231.805,2.572,27.265,
40191450,-0.233,-0.138,1.113,-246.96,0.087,21.717,
40191460,-0.172,-0.567,0.986,-274.12,-8.505,8.33,
40191470,-0.37,-0.524,1.138,-256.76,-22.872,4.83,
40191480,-0.051,-0.687,1.355,-277.917,-35.402,-4.76,
40191490,0.296,-0.965,1.532,-286.527,-24.22,-4.917,
40191500,0.001,-1.133,1.48,-254.31,10.342,20.107,
40191510,-0.652,-1.116,1.286,-209.562,3.15,16.905,
40191520,-0.401,-0.456,1.406,-163.187,-37.432,-8.925,
40191530,-0.277,-0.248,1.86,-96.11,-62.352,-25.357,
40191540,-0.016,0.263,1.595,57.172,-30.555,-24.867,
40191550,-0.044,1.474,1.059,283.377,-66.78,-79.607,
40191560,0.483,1.557,0.337,333.707,-49.07,-145.232,
40191570,0.362,1.12,-0.532,325.745,21.157,-163.992,
40191580,0.129,0.842,-1.025,315.385,92.907,-184.362,
40191590,-0.018,0.343,-0.922,256.725,149.642,-164.342,
40191600,-0.358,-0.583,-0.805,162.33,169.855,-103.652,
40191610,-0.342,-1.219,-0.821,89.88,140.892,-53.375,
40191620,0.38,-1.235,-0.971,47.075,98.665,-5.197,
40191630,1.104,-1.092,-1.273,10.36,68.687,38.692,
40191640,1.598,-1.329,-1.266,-35.28,51.45,50.75,
40191650,1.487,-1.563,0.952,-117.617,142.782,33.652,
40191660,-1.767,-1.998,-1.43,-121.345,-43.015,106.067,
40191670,1.732,0.445,1.172,519.032,-41.142,233.012,
40191670,-1.079,1.997,1.998,519.417,-64.715,195.562,
40191690,-1.336,-1.112,1.165,137.147,-204.715,76.317,
40191690,1.782,1.759,1.605,81.9,-168.595,-53.655,
40191710,0.948,0.616,1.38,15.627,-72.73,-82.547,
40191710,1.009,-1.321,0.538,-76.422,-34.37,-8.907,
40191730,-0.109,-0.25,0.944,-16.905,8.837,3.342,
40191730,-0.255,-0.574,0.878,-22.715,8.575,3.202,
40191750,-0.466,-0.401,0.924,-6.79,0.787,-5.827,
40191750,0.033,-0.45,0.916,-0.315,-11.025,-12.267,
40191760,0.148,-0.121,1.045,8.085,-14.455,-6.02,
40191770,-0.042,-0.379,0.95,-2.852,-15.592,8.575,
40191780,0.004,-0.147,1.049,-3.412,-16.73,9.712,
40191790,0.043,-0.157,1.054,-20.317,-14.735,9.87,
40191800,0.167,-0.189,1.055,-38.29,-12.512,11.69,
40191810,0.222,-0.144,1.159,-57.032,-1.732,12.477,
40191820,0.248,-0.177,1.248,-83.51,10.937,16.922,
40191830,0.221,-0.198,1.3,-113.557,29.82,24.027,
40191840,0.233,-0.153,1.315,-142.187,50.33,31.727,
40191850,0.275,-0.159,1.087,-172.9,68.022,42.962,
40191860,0.043,-0.169,1.064,-204.75,82.232,38.43,
40191870,-0.065,-0.319,0.926,-228.585,83.58,29.19,
40191880,-0.017,-0.56,0.842,-243.46,87.937,32.112,
40191890,-0.127,-0.711,0.875,-238.822,95.952,33.897,
40191900,0.002,-0.97,0.727,-219.345,104.09,34.387,
40191910,-0.018,-1.068,0.689,-197.102,115.132,47.862,
40191920,-0.045,-1.377,0.591,-159.057,121.38,51.1,
40191930,-0.55,-1.541,0.82,-103.04,112.735,26.39,
40191940,-0.286,-1.809,0.846,-60.042,27.79,-9.047,
40191950,1.699,-1.535,0.673,-18.9,-44.975,-42.017,
40191960,0.408,-1.012,-0.374,84.472,-9.467,-67.462,
40191970,-0.816,-0.028,-0.551,169.102,0.332,-125.877,
40191980,-0.734,0.481,-0.432,114.817,14.087,-99.75,
40191990,-0.409,0.241,-0.244,6.895,8.26,-24.395,
40192000,-0.31,-0.191,-0.2,-38.482,-9.275,25.34,
40192010,-0.179,0.042,-0.205,-19.81,-37.642,42.595,
40192020,0.036,0.55,-0.271,-2.52,-63.595,52.307,
40192030,0.271,0.89,-0.194,-15.645,-71.207,59.797,
40192040,0.648,0.033,1.279,-36.277,-37.485,71.032,
40192050,-1.352,-1.998,0.399,-0.157,-12.46,90.562,
40192060,-0.821,-1.574,-0.856,411.565,-178.185,146.09,
40192070,0.597,0.05,0.798,390.267,-118.912,126.087,
40192080,-1.14,0.109,1.304,360.377,-96.827,52.675,
40192080,-1.532,-0.204,1.58,366.012,-132.597,-27.107,
40192100,-0.003,-0.38,1.977,296.555,-174.212,-71.645,
40192100,1.76,1.95,1.882,216.072,-135.327,-59.92,
40192120,0.863,0.295,1.118,2.957,-55.23,-24.01,
40192120,0.493,-0.277,0.961,-51.415,3.692,-17.902,
40192140,0.408,-0.47,0.886,-57.715,34.055,-14.262,
40192140,-0.074,-0.371,0.947,-53.62,45.22,-0.035,
40192160,-0.575,-0.597,0.854,-50.732,41.912,2.24,
40192160,-0.187,-0.382,0.941,-32.34,28.017,-11.287,
40192170,-0.034,-0.412,0.934,-27.422,20.422,-10.307,
40192180,-0.189,-0.426,0.917,-24.15,12.652,0.682,
40192190,-0.03,-0.257,1.032,-21.07,8.645,4.34,
40192200,-0.033,-0.138,1.157,-33.547,11.27,5.215,
40192210,-0.188,-0.215,1.17,-57.277,21.42,1.732,
40192220,-0.071,-0.278,1.215,-86.852,31.43,-6.737,
40192230,-0.005,-0.115,1.276,-119.787,46.567,-13.317,
40192240,-0.112,-0.207,1.269,-163.135,61.25,-20.387,
40192250,-0.047,-0.123,1.229,-202.055,63.227,-26.232,
40192260,0.05,-0.14,1.121,-228.812,62.335,-26.285,
40192270,0.009,-0.337,0.987,-257.775,62.37,-21.612,
40192280,0.077,-0.546,0.851,-272.947,62.615,-17.552,
40192290,0.064,-0.521,1.067,-259.192,70.21,-14.175,
40192300,0.236,-0.806,1.137,-266.385,99.82,3.062,
40192310,0.129,-1.06,1.151,-253.155,143.78,13.807,
40192320,-0.226,-0.985,0.876,-216.755,158.62,32.357,
40192330,-0.413,-1.135,0.644,-177.835,146.877,44.695,
40192340,-0.579,-1.658,0.863,-106.662,99.417,11.9,
40192350,1.316,-1.499,1.992,-29.837,0.717,-64.172,
40192360,1.199,-1.217,0.959,121.59,-4.672,-130.952,
40192370,-0.533,0.003,0.566,331.415,-6.107,-263.637,
40192380,-1.234,0.872,0.203,408.415,3.395,-309.487,
40192390,-1.034,1.39,-1.026,402.535,16.66,-246.207,
40192400,-0.527,1.969,-1.99,396.742,53.252,-162.172,
40192410,-0.104,1.99,-1.236,291.497,112.087,-98.752,
40192420,-0.671,0.92,-0.192,32.165,141.032,-12.915,
40192420,-1.119,-0.521,-0.254,-107.257,102.41,106.26,
40192440,-0.418,-0.511,-0.763,-6.37,9.047,204.54,
40192440,0.342,-0.209,-0.188,59.307,-50.715,260.715,
40192460,-0.62,-1.998,-0.006,-318.202,-310.17,166.407,
40192460,-0.669,-1.421,-0.22,124.267,-292.932,307.562,
40192480,-0.192,1.997,1.998,565.302,-169.365,262.622,
40192480,-1.929,-0.411,1.277,180.722,-219.87,82.705,
40192500,1.846,1.051,1.16,-61.18,-195.247,-71.82,
40192500,0.318,0.306,1.301,8.82,-28.087,-105.105,
40192510,1.106,-0.777,0.829,-72.345,10.972,-28.595,
40192520,-0.431,-0.366,0.953,-60.165,36.242,7,
40192530,-0.78,-0.764,0.766,-41.597,23.397,1.872,
40192540,-0.486,-0.625,0.794,-20.405,2.135,-16.397,
40192550,0.198,-0.364,0.962,5.565,-10.115,-27.16,
40192560,0.215,-0.164,1.043,7.157,-11.41,-10.412,
40192570,-0.327,-0.47,0.898,-2.747,-11.217,6.3,
40192580,-0.161,-0.31,0.965,5.775,-18.077,0.98,
40192590,0.022,-0.109,1.065,2.467,-19.215,-3.78,
40192600,0.093,-0.213,1.032,-16.38,-17.657,-1.925,
40192610,0.031,-0.234,1.044,-28.647,-14.612,3.08,
40192620,-0.052,-0.285,1.027,-38.937,-13.527,6.422,
40192630,-0.056,-0.308,1.043,-48.685,-12.635,5.862,
40192640,-0.106,-0.273,1.118,-60.41,-9.257,0.682,
40192650,-0.078,-0.258,1.174,-80.15,-4.69,-6.282,
40192660,-0.092,-0.399,1.165,-104.3,7.525,-16.607,
40192670,-0.164,-0.492,1.14,-127.837,24.797,-38.325,
40192680,-0.261,-0.402,1.116,-144.392,35.07,-56.805,
40192690,-0.341,-0.365,1.141,-161.98,34.125,-78.872,
40192700,-0.365,-0.572,1.15,-203.157,21.507,-108.202,
40192710,-0.217,-1.008,1.073,-231.332,20.737,-129.272,
40192720,0.006,-1.508,0.931,-210.63,68.127,-138.04,
40192730,-0.446,-1.944,0.922,-173.442,119.175,-139.44,
40192740,0.442,-1.977,0.829,-111.685,156.905,-165.987,
40192750,-0.841,-1.998,-0.431,-42.577,190.242,-129.815,
40192760,-1.419,-1.697,-0.874,118.615,140.91,-160.912,
40192770,-0.806,-0.72,-0.495,199.255,127.33,-183.032,
40192780,-0.885,-0.479,-0.739,131.897,124.425,-97.125,
40192790,-0.715,-0.09,-1.046,52.71,101.5,-9.24,
40192800,-0.303,0.368,-0.259,-18.497,79.992,59.15,
40192810,-0.27,0.212,-0.081,-127.592,13.615,114.625,
40192820,0.299,0.409,-0.187,-164.657,-32.812,161.122,
40192830,0.973,1.041,-0.138,-126.945,-50.54,181.842,
40192830,0.989,1.614,-0.129,-103.092,-78.47,159.127,
40192840,0.996,1.907,-0.047,-119.997,-112.7,139.615,
40192850,0.021,1.296,-0.178,-143.027,-163.66,131.32,
40192860,1.855,-1.898,0.983,-160.072,-59.185,53.095,
40192870,-1.729,-1.58,-0.285,398.282,-194.302,201.687,
40192880,-0.377,1.795,1.438,530.092,-101.955,135.012,
40192890,-0.927,-0.081,1.781,385.56,-140.997,136.832,
40192900,-1.998,-1.407,1.745,340.375,-188.44,47.092,
40192910,1.247,1.806,1.959,303.835,-181.422,-30.45,
40192920,0.932,0.603,1.24,16.415,-92.68,-43.785,
40192930,1.285,-0.336,0.931,-80.482,-16.73,-18.165,
40192940,0.112,-0.591,0.906,-78.767,34.755,-13.335,
40192950,-0.039,-0.572,0.869,-78.015,42.42,-5.355,
40192960,-0.542,-0.779,0.726,-65.1,33.127,2.03,
40192970,-0.367,-0.572,0.825,-26.32,15.382,-4.637,
40192980,-0.022,-0.469,0.895,-5.425,0.56,-5.495,
40192990,-0.087,-0.355,0.956,6.422,-5.932,3.237,
40193000,-0.014,-0.209,1.055,3.657,-8.172,6.457,
40193010,0.076,-0.102,1.138,-14.595,-4.13,5.95,
40193020,0.06,-0.164,1.21,-43.365,2.59,8.872,
40193030,-0.002,-0.111,1.319,-73.342,10.325,9.292,
40193040,0.014,-0.235,1.253,-110.355,18.725,10.027,
40193050,-0.001,-0.215,1.223,-135.012,25.357,10.202,
40193060,-0.031,-0.215,1.104,-155.75,27.632,9.275,
40193070,-0.041,-0.302,1.014,-173.915,26.88,7.105,
40193080,-0.082,-0.556,0.935,-193.567,28.787,14.822,
40193090,-0.029,-0.302,1.063,-191.187,24.552,9.187,
40193100,-0.095,-0.552,0.991,-209.335,17.552,4.322,
40193110,-0.17,-0.884,0.877,-210.7,3.797,16.94,
40193120,-0.178,-0.991,0.81,-178.465,-11.41,25.655,
40193130,-0.372,-1.158,0.738,-140.525,-32.392,21.77,
40193140,-0.312,-1.067,0.699,-95.55,-71.907,1.785,
40193150,-0.027,-1.003,0.431,-36.102,-88.41,8.4,
40193160,-0.285,-1.347,0.416,0.682,-88.707,41.02,
40193170,-0.264,-0.96,-0.342,55.842,-99.907,79.327,
40193170,0.155,-0.081,0.034,102.847,-104.965,87.15,
40193190,0.482,-0.128,-0.039,61.687,-94.605,104.195,
40193190,0.734,-0.161,-0.355,38.78,-79.572,104.527,
40193210,0.787,0.315,-0.475,55.51,-57.662,71.312,
40193210,0.513,0.686,-0.508,35.84,-46.462,31.675,
40193230,0.335,0.709,-0.782,-9.047,-46.427,-2.642,
40193230,1.386,0.354,1.138,-38.815,44.31,7.77,
40193250,-1.013,-1.982,1.028,-15.89,272.615,166.04,
40193250,-1,-1.989,-0.632,340.095,23.327,196.07,
40193260,-0.92,-0.644,0.842,381.587,-31.36,183.925,
40193270,-0.846,1.259,1.918,398.79,-87.955,131.967,
40193280,-1.824,-0.862,1.901,303.187,-162.312,61.53,
40193290,-0.552,0.364,1.585,248.745,-176.522,-10.167,
40193300,1.65,1.557,1.65,140.945,-133.035,-53.462,
40193310,1.193,-0.043,1.057,-43.732,-60.217,-21.42,
40193320,0.204,-0.573,0.829,-61.81,-12.267,-3.535,
40193330,0.042,-0.668,0.756,-50.172,5.88,-8.715,
40193340,-0.009,-0.556,0.831,-26.46,13.737,-16.012,
40193350,-0.099,-0.471,0.87,-11.935,15.347,-15.785,
40193360,0.26,-0.241,0.995,-2.537,15.925,-15.137,
40193370,-0.027,-0.329,0.95,-7.63,18.9,0.087,
40193380,-0.21,-0.446,0.904,-9.205,18.655,3.5,
40193390,0.078,-0.103,1.065,-6.65,19.18,-3.727,
40193400,0.024,-0.23,1.025,-26.145,24.412,-1.645,
40193410,-0.023,-0.179,1.069,-39.322,30.187,-1.26,
40193420,-0.019,-0.266,1.088,-55.475,36.067,-1.522,
40193430,-0.053,-0.245,1.188,-70.035,43.592,-3.202,
40193440,-0.296,-0.343,1.135,-82.635,53.112,-7.525,
40193450,-0.269,-0.417,1.154,-101.5,47.897,-12.092,
40193460,-0.201,-0.356,1.126,-118.912,45.657,-17.202,
40193470,-0.27,-0.353,1.118,-134.26,45.272,-29.645,
40193480,-0.219,-0.423,0.997,-157.412,38.92,-47.792,
40193490,-0.195,-0.347,0.993,-171.92,35.525,-63.857,
40193500,-0.135,-0.36,0.984,-191.642,29.75,-79.712,
40193510,-0.06,-0.583,0.883,-212.065,23.765,-83.86,
40193510,-0.04,-0.627,0.822,-211.19,16.817,-76.93,
40193530,-0.155,-0.65,0.801,-206.832,6.02,-69.335,
40193530,-0.348,-0.898,0.898,-196.367,3.08,-62.685,
40193550,-0.318,-0.687,0.864,-154.91,-3.64,-58.957,
40193550,-0.254,-0.994,0.666,-147.91,2.012,-70.98,
40193570,-0.204,-1.2,0.635,-113.89,27.58,-72.45,
40193570,-0.277,-1.604,0.705,-63.665,55.737,-68.582,
40193580,-0.363,-1.399,0.529,9.887,46.042,-79.695,
40193590,0.074,-0.908,0.345,98.367,63.525,-102.567,
40193600,0.435,-0.204,-0.441,183.102,121.852,-98.455,
40193610,-0.858,1.108,-1.425,267.435,165.952,-121.012,
40193620,-1.945,1.994,-1.445,259.35,140.595,-152.04,
40193630,-1.998,1.997,-0.756,59.045,154.035,-88.917,
40193640,-1.894,1.532,0.235,-208.267,152.6,149.887,
40193650,-1.103,-0.345,-0.031,-159.232,-86.275,242.06,
40193660,1.998,-1.998,0.016,-48.055,-424.567,308.682,
40193670,-0.8,-1.718,-0.122,333.392,-187.932,292.232,
40193680,0.261,1.985,1.882,572.915,-16.625,145.932,
40193690,-1.224,0.752,1.997,342.597,-127.627,233.17,
40193700,-1.754,-1.264,1.224,108.062,-220.57,163.607,
40193710,1.186,1.987,1.934,304.22,-165.375,-29.452,
40193720,1.926,0.069,1.102,-25.427,-85.855,-77.122,
40193730,1.091,-0.134,1.012,-51.957,5.897,-46.147,
40193740,0.086,-0.706,0.776,-70.402,38.22,-1.872,
40193750,-0.507,-0.579,0.829,-42.21,39.217,0.262,
40193760,-0.617,-0.572,0.823,-24.045,28.262,-12.74,
40193770,-0.088,-0.542,0.856,-9.94,15.05,-30.345,
40193780,0.15,-0.254,1.011,2.327,10.657,-26.915,
40193790,-0.025,-0.311,0.966,-1.592,8.4,-9.8,
40193800,0.002,-0.301,0.966,-4.182,9.012,-2.887,
40193810,0.007,-0.144,1.059,-9.905,13.772,-3.5,
40193820,0.04,-0.116,1.108,-30.87,21.945,-6.405,
40193830,-0.041,-0.22,1.105,-53.672,29.925,-6.912,
40193840,-0.108,-0.252,1.157,-71.05,39.585,-10.815,
40193850,-0.337,-0.359,1.116,-88.48,45.272,-17.237,
40193860,-0.28,-0.448,1.13,-107.362,42.21,-23.695,
40193870,-0.216,-0.448,1.074,-123.042,40.197,-28.105,
40193880,-0.288,-0.528,0.924,-139.842,45.762,-40.355,
40193890,-0.393,-0.498,0.976,-154.437,40.25,-59.132,
40193900,-0.202,-0.221,1.019,-166.04,34.195,-75.215,
40193910,0.022,-0.297,0.989,-197.277,37.1,-85.645,
40193920,0.227,-0.651,0.929,-229.95,48.877,-79.835,
40193920,0.454,-0.825,1.039,-234.745,75.792,-59.745,
40193940,0.39,-0.798,1.111,-224.472,133.315,-5.81,
40193940,0.378,-1.063,0.708,-192.027,191.555,11.812,
40193960,0.513,-1.887,-0.173,-155.645,237.93,9.59,
40193960,-0.313,-1.998,-0.414,-110.215,230.037,41.282,
40193980,0.079,-1.998,-0.966,-82.845,192.027,42.91,
40193980,0.534,-1.998,-0.378,-108.01,107.905,51.31,
40194000,0.649,-1.998,0.503,-149.012,39.777,47.862,
40194000,0.024,-1.998,0.981,-137.532,-34.737,23.362,
40194010,-0.023,-1.998,0.861,-70.315,-111.265,-23.292,
40194020,0.634,-1.611,0.67,-13.44,-136.22,-67.602,
40194030,0.893,-1.053,0.453,-1.487,-112.087,-116.357,
40194040,0.134,-0.744,0.534,-30.94,-108.762,-192.132,
40194050,-0.47,-0.627,0.883,-81.165,-139.475,-260.627,
40194060,-0.332,-0.648,1.2,-146.632,-145.25,-271.232,
40194070,-0.312,-0.711,1.322,-200.83,-129.57,-250.337,
40194080,-0.628,-0.611,1.261,-211.05,-113.872,-237.037,
40194090,-0.877,-0.481,1.236,-212.345,-115.01,-220.675,
40194100,-0.429,-0.541,1.422,-243.407,-101.867,-191.817,
40194110,-0.08,-0.852,1.751,-277.515,-70.595,-169.75,
40194120,-0.417,-1.175,1.896,-270.13,-51.415,-181.352,
40194130,-0.936,-1.024,1.733,-224.245,-60.742,-203.315,
40194140,-1.086,-0.663,1.331,-177.45,-80.097,-196.857,
40194150,-0.846,-0.293,0.961,-152.232,-80.237,-154.472,
40194160,-0.557,0.041,0.921,-150.08,-55.335,-91.175,
40194170,-0.304,0.007,0.977,-174.772,-15.715,-30.135,
40194180,-0.088,-0.345,0.901,-179.725,25.655,25.83,
40194190,0.257,-0.601,0.782,-154.262,62.422,53.252,
40194200,0.46,-0.655,0.694,-117.39,95.515,49.577,
40194210,0.336,-0.745,0.689,-89.775,117.145,20.755,
40194220,0.091,-0.916,0.672,-68.582,123.707,-23.222,
40194230,-0.02,-0.975,0.55,-34.16,117.74,-62.685,
40194240,0.105,-0.804,0.438,8.925,120.347,-77.997,
40194250,0.341,-0.566,0.404,34.895,135.17,-71.82,
40194260,0.347,-0.472,0.402,40.6,153.247,-57.592,
40194260,0.243,-0.482,0.374,43.277,156.082,-55.772,
40194280,0.206,-0.487,0.34,58.607,148.312,-59.15,
40194280,0.251,-0.409,0.268,78.61,134.82,-65.03,
40194300,0.228,-0.324,0.186,95.812,123.532,-70.35,
40194300,0.257,-0.301,0.083,104.755,116.567,-70.052,
40194320,0.229,-0.274,-0.019,101.937,114.17,-54.285,
40194320,0.285,-0.228,-0.104,95.497,106.452,-41.947,
40194330,0.48,-0.228,-0.109,89.547,102.392,-33.022,
40194340,0.572,-0.355,-0.146,79.362,98.77,-30.887,
40194350,0.616,-0.47,-0.204,77.577,96.32,-35.455,
40194360,0.625,-0.483,-0.212,89.075,93.94,-37.257,
40194370,0.575,-0.514,-0.218,96.005,85.032,-38.395,
40194380,0.529,-0.582,-0.299,92.75,64.26,-38.255,
40194390,0.498,-0.586,-0.37,87.92,36.26,-37.73,
40194400,0.585,-0.573,-0.392,80.955,10.447,-39.55,
40194410,0.705,-0.656,-0.38,67.2,-0.717,-37.467,
40194420,0.661,0.176,0.026,50.575,-8.452,-33.722,
40194430,-0.167,-0.881,-0.333,-115.29,-36.032,92.645,
40194440,0.707,-1.62,-0.834,-152.407,-55.282,97.825,
40194450,0.422,-1.963,-0.665,149.782,-25.007,25.69,
40194460,0.891,-0.079,0.511,464.187,20.825,-144.34,
40194470,0.088,0.396,0.55,284.637,-10.5,-132.492,
40194480,-0.196,-0.562,0.422,43.732,-52.08,-57.575,
40194490,0.311,-0.824,0.522,-46.917,-92.522,-28.752,
40194500,0.282,-0.612,0.638,-56.945,-111.947,-11.83,
40194510,-0.024,-0.577,0.807,-69.65,-104.965,20.247,
40194520,-0.037,-0.64,1.035,-90.877,-104.93,43.12,
40194530,0.088,-0.698,1.338,-105.385,-106.225,54.197,
40194540,-0.01,-0.803,1.55,-114.537,-100.87,58.625,
40194550,-0.133,-0.812,1.719,-108.71,-95.515,51.327,
40194560,-0.096,-0.736,1.779,-82.407,-86.852,40.32,
40194570,-0.273,-0.786,1.655,-41.282,-84,36.452,
40194580,-0.355,-0.862,1.291,-3.972,-89.792,36.207,
40194590,-0.005,-0.816,1.171,13.09,-75.792,53.427,
40194600,0.156,-0.974,1.174,0.21,-44.047,78.802,
40194610,0.108,-1.288,1.075,-4.585,-19.337,83.44,
40194620,0.11,-1.326,0.934,23.537,-6.475,70.892,
40194630,0.146,-1.078,0.867,62.562,-4.655,51.835,
40194640,0.163,-0.918,0.822,83.65,2.922,40.897,
40194650,-0.018,-0.949,0.727,93.87,9.975,39.725,
40194660,-0.275,-1.002,0.624,106.82,11.987,44.94,
40194670,-0.533,-0.679,0.587,112.367,6.02,63.735,
40194670,-1.151,-0.901,0.631,114.817,-9.362,125.982,
40194690,-0.962,-0.417,0.353,52.762,-37.275,151.392,
40194690,-0.917,-0.71,-0.004,32.847,-49.735,202.247,
40194710,-0.733,-0.253,-0.035,50.47,-32.182,260.4,
40194710,-0.407,0.047,0.014,24.692,-23.31,332.885,
40194730,0.194,-0.091,0.092,-35.42,-17.815,350.455,
40194730,0.889,-0.483,0.465,-71.837,24.377,334.057,
40194750,1.39,-0.778,0.661,-64.067,129.902,298.672,
40194750,0.999,-0.551,0.703,4.777,253.925,252.892,
40194760,-0.247,0.097,0.358,71.015,293.107,201.232,
40194770,-0.62,0.296,0.509,139.195,255.762,162.417,
40194780,-0.374,0.56,0.602,115.167,203.017,153.947,
40194790,-0.405,-0.165,0.672,91.682,176.032,188.055,
40194800,-1.086,-0.387,0.75,96.582,147.542,198.642,
40194810,-1.035,-0.448,0.681,98.035,100.765,217.105,
40194820,-0.47,-0.863,0.433,59.255,58.905,239.522,
40194830,-0.279,-1.424,0.043,17.377,51.765,260.575,
40194840,-0.491,-1.792,-0.22,6.352,33.53,266.332,
40194850,-0.241,-1.831,-0.525,-14.262,-16.362,243.6,
40194860,0.29,-1.83,-0.71,-42.945,-58.502,212.73,
40194870,-0.75,-1.998,0.227,-115.027,-162.33,90.545,
40194880,0.87,-1.998,-0.747,-69.562,-466.9,-137.707,
40194890,-0.092,-1.998,0.972,238.665,-441.997,-70.122,
40194900,-1.118,-1.065,-0.314,238.84,-491.417,62.072,
40194910,1.635,1.958,1.786,394.887,-274.872,84.455,
40194920,-1.967,-1.172,0.687,308.927,-258.335,-32.707,
40194930,0.596,-1.195,0.522,313.18,-192.062,-62.65,
40194940,-0.127,0.876,1.492,455.017,-141.645,-94.115,
40194950,0.463,-0.055,1.573,310.275,-157.185,-91.157,
40194960,0.679,0.071,1.784,244.492,-134.872,-51.432,
40194970,0.418,0.804,1.643,169.05,-83.247,-20.842,
40194980,0.399,0.352,1.25,48.737,-37.975,-19.372,
40194990,0.438,0.009,1.113,-15.33,-0.927,-26.652,
40195000,0.145,-0.286,1.014,-46.69,23.38,-17.64,
40195010,-0.169,-0.452,0.937,-56.332,28.525,-7.455,
40195010,-0.231,-0.489,0.918,-52.762,24.972,-4.252,
40195030,-0.278,-0.421,0.953,-46.165,16.87,-6.002,
40195030,-0.333,-0.311,1.02,-40.932,12.075,-14.735,
40195050,-0.393,-0.522,0.987,-41.002,6.545,-30.362,
40195050,-0.296,-0.463,1.077,-51.362,2.485,-44.712,
40195070,-0.256,-0.398,1.08,-64.295,6.072,-64.365,
40195070,-0.457,-0.453,1.247,-90.23,11.707,-86.362,
40195080,-0.423,-0.382,1.281,-101.447,8.365,-109.55,
40195090,-0.329,-0.46,1.31,-124.005,-6.895,-135.397,
40195100,-0.161,-0.816,1.09,-153.177,-33.775,-159.915,
40195110,-0.038,-1.627,0.759,-197.26,-42.822,-181.475,
40195120,0.103,-1.364,0.529,-182.56,-12.635,-196.297,
40195130,0.188,-0.98,0.903,-125.86,45.727,-209.51,
40195140,1.486,-1.962,0.263,-129.237,125.422,-196.42,
40195150,0.758,-1.998,-0.147,-98.21,185.815,-197.942,
40195160,-1,-1.797,-1.363,63.577,120.155,-356.265,
40195170,-1.427,-0.622,-0.955,140.945,151.235,-357.017,
40195180,-1.521,-0.409,-0.56,-12.11,111.685,-273.227,
40195190,-1.687,-0.828,-0.773,-125.072,75.425,-159.075,
40195200,-1.589,-0.339,-0.578,-130.567,54.53,-42.595,
40195210,-1.597,-0.062,-0.072,-152.827,33.39,74.83,
40195220,-1.559,-0.241,-0.179,-199.15,-2.975,204.05,
40195230,-0.531,0.21,-0.78,-170.205,-32.34,299.372,
40195240,0.467,1.306,0.999,-97.895,32.34,291.06,
40195250,1.955,0.484,0.647,-1.242,341.652,221.987,
40195260,-1.84,0.549,0.864,470.75,142.415,-167.562,
40195270,-0.211,-1.905,0.445,281.05,2.065,-45.167,
40195280,1.182,0.67,1.134,387.642,-83.055,140.402,
40195290,-1.817,-0.237,1.628,375.392,-106.942,90.685,
40195300,-1.081,-0.564,1.693,283.167,-121.275,29.907,
40195310,-0.268,1.153,1.946,251.825,-112.07,-32.76,
40195320,1.087,0.909,1.447,91.472,-80.395,-49.875,
40195330,0.822,0.199,1.198,-13.79,-26.932,-31.115,
40195340,0.157,-0.203,1.074,-66.92,8.872,-15.102,
40195350,-0.028,-0.416,0.987,-85.33,17.832,-12.6,
40195360,-0.124,-0.52,0.947,-84.017,18.847,-8.435,
40195370,-0.376,-0.547,0.877,-70.192,16.257,-11.812,
40195380,-0.091,-0.584,0.909,-61.407,6.352,-13.597,
40195390,0.05,-0.365,1.037,-57.225,-2.17,-3.78,
40195400,-0.056,-0.298,1.132,-72.765,-4.445,8.19,
40195410,-0.128,-0.237,1.239,-92.627,-5.582,9.187,
40195420,-0.162,-0.28,1.249,-121.047,-1.4,6.755,
40195420,-0.262,-0.344,1.18,-148.417,2.485,-0.997,
40195440,-0.176,-0.388,1.085,-164.955,6.23,-11.2,
40195440,-0.157,-0.427,1.074,-180.145,0.087,-24.167,
40195460,-0.257,-0.511,1.161,-196.122,-20.895,-37.275,
40195460,-0.546,-0.879,0.984,-207.112,-57.067,-46.585,
40195480,-0.346,-0.915,0.896,-183.96,-98.35,-66.01,
40195480,-0.205,-1.069,0.707,-163.835,-105.507,-72.292,
40195500,0.145,-1.078,0.076,-126.157,-75.057,-76.317,
40195500,-0.264,-1.58,0.572,-93.467,-30.187,-76.597,
40195510,0.533,-1.99,0.055,-72.205,63.35,-14.577,
40195520,-1.837,-1.163,-0.056,48.37,87.937,28.157,
40195530,-0.594,-0.595,-0.328,104.16,54.04,-9.31,
40195540,0.112,-0.422,-0.63,62.457,51.152,92.89,
40195550,0.411,-0.624,-0.704,42.875,55.86,112.455,
40195560,0.189,-0.466,-0.624,27.982,44.642,69.842,
40195570,-0.267,-0.102,-0.671,-10.465,12.022,42.245,
40195580,-0.414,0.215,-0.693,-41.247,-25.865,45.08,
40195590,-0.227,0.578,-0.486,-63.525,-42.035,83.247,
40195600,-0.641,1.012,-0.755,-73.185,-37.677,133.227,
40195610,0.787,-0.347,1.819,-96.075,-47.985,41.352,
40195620,1.63,-1.967,-1.195,202.282,190.47,170.52,
40195630,-1.967,-1.643,1.294,442.47,50.155,46.007,
40195640,-0.061,-0.078,0.899,323.452,-44.712,105.98,
40195650,-0.082,0.693,1.921,416.85,-104.125,117.337,
40195660,-1.662,-0.958,1.76,314.755,-135.94,61.092,
40195670,-0.147,1.033,1.919,297.482,-143.395,-25.392,
40195680,1.603,1.33,1.568,122.815,-91.245,-66.097,
40195690,1.261,0.39,1.22,-22.225,-20.055,-35.227,
40195700,0.129,-0.141,1.093,-77.612,33.635,-11.2,
40195710,-0.196,-0.508,0.953,-104.317,47.547,-13.317,
40195720,0.008,-0.585,0.908,-95.095,49.14,-17.517,
40195730,-0.271,-0.766,0.72,-75.985,43.855,-6.877,
40195740,-0.058,-0.643,0.791,-52.99,28.98,7.962,
40195750,-0.147,-0.491,0.896,-33.635,16.607,23.607,
40195760,-0.213,-0.353,1.008,-31.342,10.465,32.637,
40195760,-0.165,-0.203,1.13,-44.38,8.382,28.77,
40195780,-0.082,-0.24,1.175,-74.165,10.465,24.202,
40195780,-0.104,-0.203,1.224,-100.66,17.64,18.41,
40195800,-0.099,-0.085,1.332,-126.297,24.01,13.597,
40195800,0.071,-0.347,1.067,-154.507,24.342,14.612,
40195820,-0.063,-0.552,0.999,-179.252,34.685,16.485,
40195820,-0.152,-0.225,1.028,-177.957,37.975,5.862,
40195830,-0.232,-0.563,0.878,-203.962,44.467,-2.222,
40195840,-0.034,-0.924,0.847,-209.825,56.07,0.525,
40195850,0.311,-0.916,0.758,-178.167,68.792,11.725,
40195860,0.517,-0.918,0.747,-159.495,85.085,35.017,
40195870,0.104,-1.691,0.772,-128.397,101.955,69.51,
40195880,-0.226,-1.662,0.851,-52.412,90.947,58.205,
40195890,-0.119,-1.912,0.172,23.397,13.702,26.355,
40195900,1.758,-1.556,-0.004,72.66,-71.75,-44.502,
40195910,1.461,-1.16,-0.92,120.662,-20.492,-101.745,
40195920,-0.078,-0.718,-1.17,155.855,41.947,-157.342,
40195930,-0.486,-0.45,-1.397,112.857,43.172,-198.152,
40195940,-0.219,-0.264,-1.191,26.862,59.85,-181.02,
40195950,-0.578,-0.427,-0.929,-54.6,74.305,-136.255,
40195960,-0.909,-0.334,-0.932,-94.307,42.35,-102.095,
40195970,-1.691,-0.062,1.514,-84.35,11.48,-46.97,
40195980,-1.672,1.255,-0.079,131.302,-23.625,75.285,
40195990,1.292,1.192,1.689,397.232,-61.232,257.687,
40196000,-1.632,-1.998,-0.772,56.315,-200.41,212.782,
40196010,-1.144,-0.291,0.451,360.43,-129.465,80.867,
40196020,-1.611,1.22,1.907,450.677,-117.652,3.692,
40196030,-0.554,-1.447,1.539,227.587,-171.972,-50.96,
40196040,1.592,1.731,1.895,246.347,-146.282,-62.247,
40196050,1.065,0.419,1.192,49.07,-79.817,-27.632,
40196060,0.724,0.046,1.083,-26.39,-16.73,-11.707,
40196070,0.252,-0.502,0.91,-54.442,16.59,0.542,
40196080,-0.05,-0.391,0.93,-52.272,26.932,9.8,
40196090,-0.421,-0.605,0.857,-49.875,22.592,14.052,
40196100,-0.214,-0.446,0.913,-36.365,13.09,6.72,
40196110,-0.115,-0.435,0.931,-29.225,3.832,6.895,
40196120,-0.049,-0.344,0.992,-25.987,1.277,9.292,
40196130,0.022,-0.285,1.066,-34.562,4.69,8.715,
40196140,0.061,-0.241,1.159,-52.797,17.622,6.352,
40196150,-0.066,-0.297,1.246,-77.717,33.372,0.315,
40196160,-0.201,-0.365,1.223,-98.875,45.29,-13.807,
40196160,-0.318,-0.602,1.189,-117.442,50.942,-29.347,
40196170,-0.097,-0.764,1.05,-125.527,48.93,-43.977,
40196180,0.223,-1.181,0.806,-124.6,35.262,-46.2,
40196190,0.29,-1.206,0.813,-100.537,52.64,-44.502,
40196200,-0.415,-0.94,1.35,-61.617,80.727,-38.15,
40196210,-0.395,-1.368,0.561,-42.525,68.88,-46.41,
40196220,1.966,-1.998,-0.898,-79.012,8.82,-124.88,
40196230,0.983,-1.958,-1.241,-7.7,71.855,-148.172,
40196240,-1.367,-0.975,-0.526,141.33,33.792,-219.275,
40196250,-1.247,-0.442,-0.381,69.09,-23.1,-187.775,
40196260,-0.522,-0.481,-0.122,-85.452,-69.317,-52.465,
40196270,-0.09,-0.927,-0.226,-154.682,-108.552,33.617,
40196280,0.186,-0.451,-0.279,-72.345,-118.562,69.562,
40196290,0.236,0.705,0.336,-56.595,-107.905,83.125,
40196300,1.449,0.291,1.994,-146.09,-31.412,77.507,
40196310,-0.521,0.742,1.263,-19.775,74.165,131.617,
40196320,-1.451,1.997,1.915,357.857,101.185,66.395,
40196330,-1.81,0.158,1.892,243.88,80.167,111.142,
40196340,-0.258,-1.998,0.004,-63.7,-52.727,158.795,
40196350,0.341,0.05,1.5,251.335,-5.25,80.167,
40196360,-0.795,1.921,1.998,259.77,6.912,41.335,
40196370,-0.359,-1.17,1.5,-172.462,-37.222,37.905,
40196380,-0.122,0.819,1.949,-169.4,7.822,-17.867,
40196390,-0.664,1.109,1.998,-327.652,22.242,-28.262,
40196400,-0.755,-0.484,1.941,-501.305,1.697,-52.062,
40196410,-0.52,-0.071,1.998,-485.17,-50.417,-80.5,
40196420,0.196,-0.976,1.975,-526.277,-143.815,-77.42,
40196430,0.529,-1.9,1.801,-490.752,-106.33,-15.33,
40196440,0.245,-0.726,1.324,-345.712,-54.442,72.887,
40196450,0.768,-0.791,1.18,-272.282,-19.897,119.647,
40196460,0.709,-1.266,0.197,-131.652,8.382,119.875,
40196470,0.872,-1.013,-0.954,63.402,2.887,66.045,
40196480,1.011,-0.604,-1.012,133.945,-8.575,0.192,
40196490,0.531,-0.558,-1.167,132.16,-18.042,-45.237,
40196500,0.11,-0.559,-1.711,145.495,-32.217,-52.692,
40196510,0.419,0.04,-1.552,146.142,-36.575,-32.06,
40196510,0.803,0.025,-0.889,61.355,-33.915,-17.15,
40196530,0.578,-0.635,-0.66,-25.672,-31.92,-18.025,
40196530,0.237,-0.592,-0.492,-18.55,-33.075,-24.955,
40196550,0.321,-0.113,-0.174,10.272,-39.97,-48.562,
40196550,0.235,-0.18,0.093,-7.367,-26.355,-62.492,
40196570,-0.073,-0.629,0.203,-28.595,-7.175,-59.745,
40196570,-0.293,-0.789,0.252,-20.79,7.997,-45.92,
40196580,-0.29,-0.759,0.353,-18.217,12.32,-26.197,
40196590,-0.08,-0.847,0.529,-43.75,16.485,-1.837,
40196600,0.277,-1.638,0.767,-71.575,32.76,11.602,
40196610,-0.191,-1.948,0.792,16.835,47.862,54.985,
40196620,-0.028,-1.282,0.59,124.197,45.92,50.767,
40196630,0.106,-0.495,0.234,166.232,12.617,23.047,
40196640,-0.079,-0.206,-0.131,122.36,-28.21,8.137,
40196650,-0.421,-0.238,-0.39,67.69,-69.877,23.922,
40196660,-0.524,-0.115,-0.302,36.662,-105.052,69.982,
40196670,-0.21,-0.399,-0.294,-6.72,-112.227,128.467,
40196680,-0.118,-0.34,0.75,45.867,-85.242,188.492,
40196690,-0.513,-1.857,1.962,76.475,179.987,297.272,
40196700,-1.907,-1.942,-0.953,287.07,-67.672,253.907,
40196710,-0.334,-0.69,0.054,399.647,-143.71,151.41,
40196720,-1.246,-0.487,0.928,344.855,-84.787,120.347,
40196730,-1.868,-0.334,0.561,418.705,-82.565,2.712,
40196740,-0.5,-0.277,1.34,425.81,-50.802,-104.965,
40196750,-0.379,0.03,1.833,394.852,-83.125,-153.352,
40196760,1.623,1.115,1.986,317.835,-120.697,-104.23,
40196770,0.786,1.442,1.613,145.512,-73.342,-11.812,
40196780,0.25,0.408,1.265,-4.935,-21.892,10.92,
40196790,0.159,0.038,1.203,-65.45,4.76,1.557,
40196800,-0.004,-0.755,0.875,-103.687,12.53,2.887,
40196810,-0.144,-0.434,1.008,-84.122,14.07,-3.395,
40196820,-0.281,-0.168,1.09,-83.02,12.74,-3.972,
40196830,-0.185,-0.807,0.933,-95.462,6.23,-13.615,
40196830,-0.053,-0.289,1.181,-97.982,2.17,-14.927,
40196850,-0.037,-0.217,1.2,-119.612,-2.415,-10.29,
40196850,0.05,-0.248,1.196,-156.8,4.935,-3.762,
40196870,-0.039,-0.269,1.196,-187.005,18.375,-7.402,
40196870,0.044,-0.205,1.18,-218.155,28.052,-17.622,
40196890,0.18,-0.202,1.117,-250.932,32.935,-20.37,
40196890,0.004,-0.494,1.135,-285.67,36.855,-18.182,
40196910,-0.151,-0.886,1.286,-281.435,28.455,-22.085,
40196910,0.192,-0.885,1.12,-248.185,18.777,-2.45,
40196920,0.353,-0.988,0.829,-225.96,35.017,24.675,
40196930,-0.034,-1.169,0.428,-191.485,50.505,36.4,
40196940,0.199,-0.943,0.302,-121.835,51.835,22.47,
40196950,0.231,-0.814,0.459,-65.31,42.91,11.917,
40196960,0.48,-0.199,0.356,-17.71,37.467,-26.355,
40196970,1.032,0.325,0.732,39.48,71.557,-75.285,
40196980,-0.419,0.81,0.454,62.212,50.12,-134.592,
40196990,-0.826,1.356,0.301,83.615,63.455,-159.407,
40197000,-0.892,1.797,0.404,90.912,70.105,-110.477,
40197010,-0.592,1.967,0.381,42.577,59.132,-41.142,
40197020,0.007,1.211,0.173,55.09,65.782,33.705,
40197030,-0.105,0.056,0.404,145.775,-2.082,144.41,
40197040,1.897,-1.998,-1.777,-212.975,6.982,328.475,
40197050,0.1,-1.265,0.609,105.297,2.52,482.737,
40197060,-0.936,1.997,0.406,556.01,-78.837,73.57,
40197070,-1.998,0.362,1.394,276.062,-129.01,28.21,
40197080,-0.042,-1.949,0.139,85.4,-194.39,96.565,
40197090,-1.741,0.427,1.515,456.505,-159.477,-23.765,
40197100,0.616,0.245,1.927,364.385,-196.945,-92.435,
40197110,1.504,1.438,1.619,194.775,-157.78,-53.41,
40197120,1.133,1.019,1.274,55.212,-66.972,-24.062,
40197130,1.072,0.232,1.154,-51.485,-0.402,0.7,
40197140,0.403,-0.082,1.138,-93.117,52.622,10.552,
40197150,-0.393,-0.503,1.066,-132.807,74.742,11.655,
40197160,-0.388,-0.551,1.039,-142.012,68.74,5.11,
40197170,-0.695,-0.482,0.962,-128.117,56.07,-1.522,
40197180,-0.335,-0.665,0.928,-120.382,34.352,-9.957,
40197190,-0.175,-0.414,1.024,-118.422,18.34,-9.38,
40197200,-0.196,-0.363,1.121,-125.177,8.942,-8.015,
40197210,-0.136,-0.346,1.119,-144.882,3.64,-6.352,
40197220,-0.134,-0.345,1.104,-162.347,4.427,-8.925,
40197230,-0.01,-0.3,1.044,-181.247,4.935,-9.59,
40197240,0.074,-0.294,1.039,-202.755,8.26,-1.592,
40197250,0.121,-0.505,1.096,-219.625,6.352,2.327,
40197260,-0.059,-0.578,1.359,-208.88,5.6,10.92,
40197260,0.097,-0.879,1.312,-217.385,17.92,35.315,
40197280,-0.135,-0.961,1.195,-199.045,19.18,63.682,
40197280,-0.112,-1.083,0.649,-178.57,17.867,76.335,
40197300,-0.05,-0.822,1.003,-107.765,-0.49,81.112,
40197300,0.123,-0.393,1.069,-41.667,11.112,119.14,
40197320,-0.388,0.34,0.11,52.167,21.297,162.067,
40197320,0.516,1.348,0.682,107.047,22.82,162.802,
40197330,0.862,0.638,0.652,16.712,8.312,140.665,
40197340,1.03,-0.315,0.069,10.815,-12.53,70.49,
40197350,0.659,-0.138,-0.494,110.11,-24.29,-32.48,
40197360,0.197,0.487,-0.852,180.46,-34.3,-119.577,
40197370,-0.486,0.332,-0.978,132.755,-25.41,-138.862,
40197380,-0.447,-0.104,-1.398,54.04,-36.645,-104.037,
40197390,-0.47,-1.705,1.095,-41.457,20.825,-43.33,
40197400,-1.785,-1.998,-1.255,-35.017,-219.572,157.745,
40197410,1.677,1.118,1.451,523.39,-97.615,207.637,
40197420,-1.038,1.656,1.871,501.847,-109.375,30.205,
40197430,-0.566,-1.806,1.03,164.272,-167.702,-3.745,
40197440,-0.744,-0.851,1.536,289.292,-165.112,-55.895,
40197450,1.157,1.699,1.958,316.19,-158.882,-80.64,
40197460,1.201,0.846,1.282,74.48,-102.147,-25.375,
40197470,0.639,0.071,1.057,-20.02,-35.77,-0.84,
40197480,0.403,-0.464,0.875,-44.012,-0.192,2.66,
40197490,0.206,-0.422,0.908,-43.977,25.06,-2.695,
40197500,0.079,-0.303,0.966,-42.927,38.78,-0.752,
40197510,-0.132,-0.448,0.92,-49.542,40.25,10.972,
40197520,-0.186,-0.444,0.921,-43.592,35.647,14.245,
40197530,-0.17,-0.387,0.962,-37.642,29.382,14.892,
40197540,-0.144,-0.348,1.022,-38.447,25.935,16.292,
40197550,-0.166,-0.248,1.141,-46.602,25.445,16.065,
40197560,-0.225,-0.193,1.183,-67.76,28.192,14.035,
40197570,-0.165,-0.244,1.198,-95.41,27.72,10.272,
40197580,-0.221,-0.365,1.132,-117.512,29.872,3.675,
40197580,-0.078,-0.369,1.101,-133.192,32.34,-4.567,
40197600,-0.099,-0.391,1.095,-145.39,33.215,-12.407,
40197600,-0.033,-0.529,0.998,-157.885,32.357,-14.332,
40197620,-0.034,-0.785,0.903,-162.645,17.955,-11.462,
40197620,0.121,-0.862,0.779,-136.902,6.177,-1.26,
40197640,0.115,-0.92,0.723,-102.48,14.297,26.145,
40197640,-0.252,-1.233,0.662,-76.125,24.342,58.712,
40197660,-0.904,-1.671,0.408,-31.36,-22.067,64.715,
40197660,0.261,-1.661,0.125,16.327,-77.297,70.717,
40197670,1.01,-1.477,-0.455,23.502,-81.515,84.945,
40197680,1.015,-1.022,-0.872,39.882,-58.817,56.472,
40197690,-0.077,-0.714,-0.573,23.362,-21.07,14.875,
40197700,-0.648,-0.504,-0.781,-37.275,-32.742,-3.045,
40197710,-0.543,0.153,-0.874,-86.292,-41.597,10.237,
40197720,-0.765,1.488,0.262,-136.185,-60.025,8.697,
40197730,0.492,0.802,1.198,-130.987,44.975,32.9,
40197740,0.261,1.841,0.315,397.127,42.105,93.87,
40197750,-1.98,-1.457,0.105,210.892,-48.86,27.02,
40197760,0.29,-1.849,-0.261,162.242,-88.06,20.807,
40197770,-1.108,1.692,1.753,514.255,-73.027,-33.617,
40197780,-0.368,0.441,1.877,295.907,-131.617,-38.045,
40197790,1.235,1.634,1.518,116.865,-98.875,-24.272,
40197800,0.76,0.502,1.206,-0.647,-23.59,-33.11,
40197810,0.747,-0.363,0.908,-67.83,20.317,-15.295,
40197820,0.034,-0.546,0.88,-60.042,47.53,0.192,
40197830,-0.3,-0.63,0.851,-53.13,46.06,12.022,
40197840,-0.505,-0.527,0.875,-35.717,33.582,9.607,
40197850,-0.313,-0.464,0.913,-23.677,15.995,2.677,
40197860,-0.148,-0.314,0.995,-15.977,4.917,-0.14,
40197870,-0.216,-0.35,0.993,-21.385,-2.275,4.147,
40197880,-0.278,-0.29,1.086,-28.175,-8.085,4.34,
40197890,-0.309,-0.195,1.215,-44.292,-13.842,-2.607,
40197900,-0.269,-0.283,1.221,-74.987,-18.865,-11.952,
40197910,-0.344,-0.381,1.205,-102.9,-17.762,-29.627,
40197920,-0.323,-0.54,1.131,-127.172,-5.267,-59.552,
40197930,-0.491,-0.568,1.139,-150.482,2.45,-92.015,
40197940,-0.245,-0.424,1.263,-154.367,-9.082,-117.425,
40197950,-0.064,-0.373,1.162,-159.39,-35.927,-126.49,
40197960,0.058,-0.757,0.592,-160.807,-44.03,-116.9,
40197970,-0.426,-1.656,0.493,-160.877,-7.91,-91.227,
40197980,-0.524,-1.528,0.469,-127.662,-18.025,-84.595,
40197990,1.232,-1.865,0.204,-77.805,34.247,-76.055,
40198000,-1.845,-1.752,-0.862,-3.185,84.91,82.372,
40198010,-1.998,-1.045,-0.383,81.007,-11.97,32.882,
40198010,-0.996,-0.028,-0.47,-18.095,-29.89,145.25,
40198030,0.611,0.074,-0.754,-91.542,-15.12,296.327,
40198030,0.991,-0.266,-0.582,-124.46,55.842,320.67,
40198050,0.795,0.686,0.042,-142.502,85.627,213.22,
40198050,-0.45,1.564,0.472,-128.345,51.502,116.637,
40198070,0.551,0.179,1.784,-148.365,-89.932,-87.587,
40198070,1.264,-1.587,-1.129,219.52,78.995,-35.98,
40198080,-1.998,-1.998,0.51,312.83,-32.742,-18.2,
40198090,1.197,-0.019,0.568,326.515,-79.817,65.415,
40198100,-0.39,1.625,1.94,463.382,-75.687,91.927,
40198110,-1.51,-1.425,1.776,245.717,-125.3,80.22,
40198120,-0.846,0.924,1.963,288.312,-124.617,28.087,
40198130,0.683,1.157,1.493,138.687,-91.962,-26.67,
40198140,1.005,-0.071,1.023,-8.54,-37.362,-35.42,
40198150,0.685,0.144,1.152,-30.642,21.822,-34.37,
40198160,0.398,-0.195,1.097,-76.072,46.48,-7.7,
40198170,-0.14,-0.487,1.007,-94.01,55.58,9.45,
40198180,-0.434,-0.57,0.91,-96.495,49.542,15.855,
40198190,-0.496,-0.548,0.893,-86.012,35.385,11.847,
40198200,-0.209,-0.355,1.092,-81.865,14.385,6.755,
40198210,-0.372,-0.369,1.091,-91.42,-4.235,10.71,
40198220,-0.217,-0.315,1.156,-98.997,-22.61,15.347,
40198230,-0.28,-0.474,1.105,-112.542,-25.69,11.287,
40198240,-0.344,-0.484,1.087,-124.11,-17.36,-2.782,
40198250,-0.385,-0.478,1.095,-126.665,-12.547,-19.845,
40198260,-0.36,-0.588,1.022,-136.395,-16.257,-38.727,
40198270,-0.399,-0.702,0.924,-140.052,-45.22,-65.642,
40198280,0,-0.657,0.682,-140.017,-72.012,-89.95,
40198290,0.153,-0.636,0.894,-127.942,-62.79,-83.072,
40198300,0.623,-0.923,0.694,-128.17,-9.992,-65.187,
40198310,-0.579,-1.559,-0.133,-92.61,28.087,-40.687,
40198320,0.877,-1.777,1.042,-59.99,49.35,-32.112,
40198330,-0.291,-1.903,-1.664,-46.585,165.077,104.755,
40198330,-1.577,-1.032,0.128,55.895,88.322,78.295,
40198350,-0.211,-0.522,-0.002,-19.845,54.845,89.477,
40198350,0.933,-0.718,-0.021,-107.17,-7.227,143.5,
40198370,1.352,-0.753,-0.336,-72.572,-23.992,66.412,
40198370,1.072,0.255,-0.362,-53.812,-26.67,-45.832,
40198390,0.281,1.052,-0.502,-81.427,-27.23,-138.722,
40198390,0.815,1.332,1.884,-86.572,30.065,-217.577,
40198410,-1.353,0.231,1.728,69.125,228.252,-107.31,
40198410,-1.039,-1.244,0.983,279.09,82.477,41.107,
40198420,0.747,-1.998,-0.941,193.007,3.762,131.005,
40198430,0.691,-1.626,0.68,278.407,-0.07,110.18,
40198440,-1.882,1.664,1.416,512.26,-28.385,12.355,
40198450,-1.121,0.395,1.887,324.45,-76.055,-2.765,
40198460,-0.52,-1.371,1.437,184.152,-124.46,-22.54,
40198470,0.189,1.606,1.995,279.79,-122.202,-68.022,
40198480,1.302,1.002,1.695,77.21,-96.005,-46.182,
40198490,0.915,0.888,1.926,-59.535,-29.452,-11.62,
40198500,0.208,0.58,1.997,-215.057,25.445,9.187,
40198510,-0.508,0.744,1.998,-392.595,36.487,-1.942,
40198520,-0.58,0.784,1.927,-497.717,-12.477,-27.422,
40198530,-0.6,0.036,1.675,-555.205,-71.242,-54.88,
40198540,-0.654,-0.265,1.459,-557.655,-146.422,-59.902,
40198550,-0.221,-1.095,1.451,-568.347,-188.65,-69.317,
40198560,0.941,-1.412,1.77,-518.21,-119.577,-46.567,
40198570,0.685,-1.247,1.998,-436.747,32.217,14.7,
40198580,-0.453,-0.715,1.677,-320.565,123.025,50.102,
40198590,0.469,0.218,0.85,-203.14,92.102,-25.515,
40198600,0.691,-0.152,0.749,-34.877,62.44,-91.525,
40198610,0.263,-0.281,-0.402,73.43,66.237,-155.015,
40198620,0.156,0.17,-0.349,114.082,65.957,-199.097,
40198630,0.128,0.178,-0.48,105.525,95.27,-187.46,
40198640,0.102,-0.013,-0.606,93.187,113.487,-146.387,
40198650,0.058,-0.066,-0.514,93.012,118.072,-99.295,
40198660,0.374,-0.086,-0.37,91.892,129.43,-59.78,
40198670,0.589,-0.211,-0.234,82.74,149.677,-21.665,
40198680,0.514,-0.445,-0.045,76.702,173.215,-1.435,
40198690,0.321,-0.635,0.053,79.082,182.56,8.697,
40198700,0.332,-0.752,0.078,80.465,183.785,20.072,
40198710,0.521,-0.905,0.109,75.407,187.827,32.375,
40198720,0.459,-1.064,0.134,72.73,194.617,37.537,
40198730,0.219,-1.183,0.201,81.882,190.137,44.712,
40198740,0.096,-1.176,0.26,96.582,168.717,40.372,
40198750,0.129,-1.038,0.335,113.487,131.547,27.405,
40198760,0.154,-0.915,0.394,123.567,98.28,11.795,
40198760,0.064,-0.853,0.389,125.125,68.477,0.14,
40198780,0,-0.815,0.424,126.542,48.265,-6.475,
40198780,0.007,-0.748,0.498,129.692,39.69,0.612,
40198800,0.049,-0.716,0.578,127.61,37.817,20.667,
40198800,0.045,-0.818,0.577,108.29,29.575,47.53,
40198810,0.187,-1.067,0.44,85.61,18.567,51.835,
40198820,0.277,-1.188,0.372,78.155,9.24,36.995,
40198830,0.168,-1.244,0.422,64.82,3.99,14.717,
40198840,-0.092,-1.465,0.379,40.6,-5.372,2.975,
40198850,0.047,-1.677,0.054,25.322,-18.34,12.827,
40198860,-0.879,-1.997,1.237,4.007,-5.95,60.917,
40198870,-1.578,-1.998,0.415,14.682,3.972,116.182,
40198880,-0.966,-0.758,0.326,109.112,1.627,152.81,
40198890,-0.687,1.388,1.511,160.632,-72.345,83.807,
40198900,-0.339,0.288,1.26,90.58,-61.075,33.687,
40198910,-1.517,-1.489,0.589,41.037,-91.997,14.28,
40198920,-0.642,-0.978,0.688,96.967,-86.502,-26.705,
40198930,-0.147,-0.048,0.789,150.535,-70.507,-59.867,
40198940,-0.117,-0.661,0.578,129.307,-60.357,-91.542,
40198950,0.078,-0.848,0.601,145.005,-60.987,-88.427,
40198960,0.44,-0.442,0.904,176.995,-68.967,-57.995,
40198970,0.249,-0.309,1.136,178.202,-66.867,-19.267,
40198980,-0.047,-0.148,1.343,164.447,-56.385,4.48,
40198990,-0.31,0.082,1.41,130.41,-51.1,4.567,
40199000,-0.069,0.119,1.237,68.057,-42.052,-7.332,
40199010,0.13,-0.218,1.029,17.78,-29.995,-18.725,
40199020,0.346,-0.138,1.051,-1.032,-15.312,-19.792,
40199030,0.109,-0.226,1.028,-19.46,-1.155,-9.03,
40199040,-0.101,-0.353,0.98,-34.527,5.827,-0.857,
40199050,-0.1,-0.347,0.992,-40.67,5.687,-0.805,
40199060,-0.095,-0.328,1.009,-47.092,5.53,-2.135,
40199070,-0.117,-0.337,1.027,-55.982,2.905,-2.555,
40199080,-0.08,-0.328,1.052,-66.342,2.275,-2.485,
40199080,-0.056,-0.306,1.094,-78.61,2.012,-4.322,
40199100,-0.114,-0.332,1.078,-94.832,3.815,-6.615,
40199100,-0.159,-0.357,1.095,-113.4,3.657,-7.945,
40199120,-0.183,-0.359,1.131,-129.342,2.135,-12.757,
40199120,-0.2,-0.381,1.094,-144.007,-2.765,-16.782,
40199140,-0.24,-0.402,1.095,-162.627,-9.502,-18.795,
40199140,-0.327,-0.478,1.054,-174.807,-23.695,-20.457,
40199160,-0.391,-0.548,1.037,-179.987,-37.642,-24.902,
40199160,-0.425,-0.607,1.047,-177.52,-51.292,-35.77,
40199170,-0.523,-0.619,1.077,-166.512,-60.865,-49.437,
40199180,-0.332,-0.737,0.822,-167.545,-67.41,-54.88,
40199190,-0.187,-0.773,0.856,-158.742,-45.202,-43.645,
40199200,-0.061,-0.823,0.636,-152.46,-35.892,-40.985,
40199210,0.607,-0.489,0.949,-118.37,-47.442,-44.677,
40199220,-0.304,-0.458,0.329,-70.735,25.585,34.3,
40199230,-1.519,0.583,0.302,35.577,24.78,50.925,
40199240,-1.949,1.344,0.314,37.992,-38.605,82.967,
40199250,-0.879,1.248,-0.185,-78.837,37.922,225.417,
40199260,1.26,1.969,1.429,36.662,74.165,385.542,
40199270,0.848,1.17,0.941,76.23,-1.137,540.277,
40199280,1.747,-1.916,0.133,-59.01,-48.51,369.022,
40199290,0.998,-1.998,-1.5,-203.927,-155.487,49.402,
40199300,0.094,-0.421,0.572,260.015,19.67,77.402,
40199310,-1.418,1.997,1.341,404.285,12.775,89.722,
40199320,-1.69,0.124,1.155,174.947,-50.26,29.102,
40199330,-0.99,-1.998,0.45,111.422,-123.112,125.002,
40199340,-0.355,-1.121,0.693,255.57,-106.312,38.552,
40199350,-1.11,0.505,1.292,345.45,-85.785,-49.682,
40199360,0.083,-0.158,1.288,245.245,-99.575,-75.565,
40199370,1.24,0.13,1.598,207.06,-101.097,-63.665,
40199380,-0.464,0.518,1.636,150.797,-55.667,11.025,
40199390,-0.566,-0.004,1.259,47.145,-34.09,14.332,
40199400,0.357,0.204,1.312,-7.227,-13.527,-31.447,
40199410,0.772,-0.065,1.21,-62.667,9.782,-29.4,
40199420,-0.03,-0.411,1.015,-94.535,31.5,6.807,
40199430,-0.408,-0.433,0.993,-100.222,32.952,15.26,
40199440,-0.369,-0.39,1.008,-108.115,27.002,2.677,
40199450,-0.287,-0.487,0.922,-117.67,19.985,-8.697,
40199460,-0.144,-0.507,0.907,-118.93,16.677,-14.35,
40199470,-0.117,-0.478,0.93,-113.662,12.827,-14.875,
40199480,-0.106,-0.484,0.977,-116.637,9.485,-12.075,
40199480,-0.106,-0.395,1.034,-121.222,5.25,-7.787,
40199500,-0.13,-0.424,1.022,-130.62,1.032,-1.382,
40199500,-0.207,-0.488,0.98,-134.277,-7.07,3.132,
40199510,-0.26,-0.469,0.932,-132.16,-18.935,3.552,
40199520,-0.278,-0.521,0.863,-135.275,-33.67,-3.045,
40199530,-0.232,-0.594,0.756,-136.57,-43.645,-8.54,
40199540,-0.141,-0.641,0.755,-133.682,-47.985,-13.58,
40199550,-0.106,-0.745,0.72,-132.37,-45.972,-15.785,
40199560,-0.015,-0.744,0.683,-125.212,-45.062,-18.025,
40199570,0.021,-0.652,0.73,-115.255,-42.542,-20.755,
40199580,-0.007,-0.712,0.604,-108.15,-42.49,-22.137,
40199590,-0.064,-0.666,0.617,-93.047,-35.49,-14.14,
40199600,-0.025,-0.703,0.414,-79.957,-25.497,-1.172,
40199610,0.095,-0.821,0.623,-73.097,-6.93,6.475,
40199620,0.03,-0.933,0.685,-63.262,1.592,0.63,
40199630,-0.126,-0.823,0.595,-44.66,7.49,-6.44,
40199640,-0.205,-0.79,0.562,-35.332,11.515,-5.25,
40199650,-0.128,-0.833,0.442,-25.112,12.442,-4.497,
40199660,-0.095,-0.765,0.449,-14.892,14.472,-10.605,
40199670,-0.074,-0.751,0.553,-3.045,26.617,-18.935,
40199680,-0.129,-0.675,0.594,8.085,46.042,-19.74,
40199690,-0.274,-0.634,0.557,9.957,49.735,-22.225,
40199700,-0.295,-0.628,0.548,2.45,40.337,-19.39,
40199710,-0.117,-0.653,0.676,-13.422,21.822,-9.467,
40199720,0.278,-0.688,0.738,-29.225,12.372,-8.05,
40199730,0.536,-0.587,0.827,-40.88,22.68,-12.88,
40199740,0.091,-0.597,0.934,-49.997,30.152,-10.412,
40199750,-0.296,-0.78,0.99,-58.222,11.847,-8.067,
40199760,0.019,-0.692,0.939,-52.902,-9.065,-10.115,
40199770,0.154,-0.399,0.955,-44.292,-19.005,-0.892,
40199780,-0.116,-0.573,0.9,-50.785,-20.352,28.962,
40199790,-0.074,-0.819,0.797,-43.085,-22.645,52.115,
40199800,-0.099,-0.768,0.754,-17.535,-17.272,63.682,
40199810,0.022,-0.604,0.683,5.232,-5.652,73.115,
40199820,0.31,-0.81,0.366,1.61,4.007,78.277,
40199830,-0.354,-0.401,1.253,7.647,7.647,67.06,
40199830,0.414,-0.635,0.665,21.385,63.332,63.91,
40199850,0.567,-0.877,1.278,35.315,43.662,42.805,
40199850,0.687,-1.19,1.226,49.455,36.697,-33.6,
40199870,0.479,-1.028,0.943,109.305,34.002,-114.082,
40199870,0.036,-0.565,0.839,147.052,16.677,-171.5,
40199890,0.027,-0.467,0.698,138.67,-6.247,-211.61,
40199890,0.134,-0.556,0.548,104.877,-13.002,-222.652,
40199910,0.136,-0.656,0.371,81.55,0.787,-212.782,
40199910,0.073,-0.655,0.248,77.42,32.305,-189.98,
40199920,-0.09,-0.572,0.099,73.902,62.09,-157.535,
40199930,-0.238,-0.472,-0.139,65.03,78.802,-125.667,
40199940,-0.214,-0.374,-0.033,45.972,78.505,-101.342,
40199950,-0.204,-0.483,0.163,10.517,63.98,-82.022,
40199960,-0.158,-0.662,0.213,-11.917,47.04,-68.617,
40199970,-0.053,-0.644,0.109,-6.93,42.035,-56.997,
40199980,0.063,-0.385,-0.137,11.462,53.69,-40.722,
40199990,0.153,-0.135,-0.469,16.922,76.702,-15.47,
40200000,-0.037,0.113,-0.735,-1.067,81.655,13.79,
40200010,0.067,-0.194,-1.036,-45.832,58.45,29.05,
40200020,1.247,-0.967,0.931,-23.03,95.445,25.497,
40200030,-0.303,-1.998,0.932,-96.022,364.7,255.587,
40200040,-1.019,-1.75,-1.997,255.395,-210.7,243.477,
40200050,1.477,1.527,1.289,453.6,-62.037,138.617,
40200060,-1.373,0.654,1.349,329.892,-48.527,123.935,
40200070,-1.149,-1.458,0.656,278.827,-96.372,28.612,
40200080,-0.668,-0.296,1.421,354.515,-66.85,-47.617,
40200090,-0.06,0.049,1.929,345.257,-94.902,-106.575,
40200100,1.167,1.215,1.881,228.34,-102.41,-70.28,
40200110,0.603,0.957,1.445,80.15,-53.13,-11.83,
40200120,0.073,0.034,1.156,-36.907,-12.53,1.785,
40200130,0.056,-0.357,0.991,-67.2,3.657,-10.902,
40200140,-0.004,-0.752,0.753,-74.077,10.097,-14.927,
40200150,-0.061,-0.506,0.852,-43.575,10.255,-14.542,
40200160,-0.158,-0.523,0.817,-29.872,7.7,-11.462,
40200170,0.007,-0.562,0.852,-14.612,0.63,-9.187,
40200170,-0.05,-0.343,0.971,-3.622,-2.59,-0.577,
40200190,-0.108,-0.318,1.014,-9.485,-4.305,1.785,
40200190,-0.118,-0.122,1.156,-22.627,1.452,-6.317,
40200210,-0.216,-0.343,1.152,-51.362,11.532,-23.047,
40200210,-0.261,-0.355,1.199,-81.392,23.835,-42.07,
40200230,-0.286,-0.337,1.272,-112.21,30.467,-65.94,
40200230,-0.197,-0.356,1.164,-137.62,33.81,-82.285,
40200250,-0.183,-0.458,1.158,-162.382,34.335,-89.705,
40200250,-0.169,-0.658,0.909,-187.425,21.192,-96.512,
40200260,-0.211,-0.95,0.999,-195.16,9.065,-104.265,
40200270,0.024,-1.251,0.663,-179.935,17.57,-107.502,
40200280,-0.15,-1.365,0.829,-153.65,56.892,-98.49,
40200290,-0.226,-1.646,0.943,-127.085,63.822,-118.44,
40200300,1.211,-1.998,0.215,-76.947,88.567,-133.332,
40200310,0.349,-1.87,-1.131,6.405,122.272,-100.397,
40200320,-0.761,-1.054,-0.742,121.59,53.62,-170.835,
40200330,-0.714,-1.153,-0.839,117.495,79.45,-163.677,
40200340,-0.775,-0.881,-0.908,38.815,42.262,-64.295,
40200350,-0.584,0.398,0.096,-22.365,21.525,48.3,
40200360,0.162,1.683,-0.188,-46.935,-5.722,149.852,
40200370,0.367,0.035,-1.007,-110.985,-45.447,205.712,
40200380,1.262,-0.399,-0.766,-254.38,-57.61,225.785,
40200390,1.072,1.082,0.028,-245.052,-64.592,165.147,
40200400,1.679,0.387,1.877,-98.315,86.485,39.077,
40200410,-1.934,1.452,-0.419,419.912,46.06,51.765,
40200420,-1.799,-1.804,0.469,354.707,-27.702,-7.542,
40200430,0.762,-0.442,0.807,291.427,-65.817,93.187,
40200440,-1.899,1.203,1.978,494.655,-69.09,6.125,
40200450,-0.194,-0.467,1.998,279.79,-125.195,-65.625,
40200460,1.358,1.871,1.929,197.907,-99.435,-56.105,
40200470,0.844,0.746,1.382,20.335,-38.237,-32.182,
40200480,0.307,-0.339,1.021,-85.312,8.505,-14.035,
40200490,0.085,-0.534,0.884,-88.217,29.697,-20.545,
40200500,-0.24,-0.437,0.868,-74.217,36.417,-18.777,
40200510,-0.412,-0.792,0.74,-56.665,28.157,-23.975,
40200520,-0.231,-0.652,0.766,-30.17,19.197,-33.355,
40200530,0.077,-0.527,0.812,-9.485,8.995,-34.597,
40200540,0.248,-0.388,0.915,2.572,-0.105,-10.745,
40200550,0.019,-0.271,1.04,1.4,-0.122,12.057,
40200560,-0.078,-0.219,1.106,-13.247,5.495,16.257,
40200570,-0.056,-0.204,1.175,-34.772,9.572,12.547,
40200580,-0.115,-0.189,1.197,-63.49,17.045,9.625,
40200580,-0.074,-0.281,1.2,-99.312,25.725,3.447,
40200600,-0.141,-0.332,1.169,-128.625,35.612,-6.93,
40200600,-0.084,-0.275,1.093,-143.832,36.855,-14.857,
40200620,-0.088,-0.39,0.997,-161.56,35.822,-13.247,
40200620,-0.178,-0.417,1.021,-166.985,34.055,-15.697,
40200640,-0.063,-0.675,0.979,-170.345,32.042,-29.382,
40200640,-0.151,-0.637,0.965,-163.1,31.29,-28.892,
40200660,-0.084,-0.656,0.915,-146.947,34.755,-31.92,
40200660,0.137,-1.022,0.858,-150.517,27.58,-18.777,
40200670,-0.145,-1.178,0.844,-128.992,12.932,12.25,
40200680,-0.523,-1.51,0.745,-79.257,-8.295,25.725,
40200690,-0.025,-1.705,0.623,-20.002,-32.252,12.757,
40200700,0.329,-1.45,-1.097,46.445,-51.38,36.54,
40200710,0.316,-0.126,-1.333,80.972,-75.547,9.835,
40200720,-0.193,0.343,-0.461,-3.57,-69.895,-16.327,
40200730,-1.273,0.286,-0.834,-122.535,-86.87,28.577,
40200740,-0.753,1.26,-0.722,-101.762,-113.837,74.095,
40200750,1.24,1.376,1.792,-51.397,-70.455,84.07,
40200760,0.387,-1.12,0.802,73.255,55.125,185.132,
40200770,-1.646,-1.998,-1.41,197.61,-103.932,160.335,
40200780,0.419,-1.556,0.015,249.287,-26.792,138.092,
40200790,-0.62,1.641,1.04,498.575,-25.62,95.182,
40200800,-1.685,0.364,1.556,397.792,-83.842,14.28,
40200810,-0.625,-1.064,1.729,286.492,-126.752,-9.187,
40200820,0.077,0.929,1.998,312.112,-135.432,-41.772,
40200830,1.011,1.592,1.661,142.607,-108.395,-33.617,
40200840,1.124,-0.136,0.959,-30.17,-57.522,-11.445,
40200850,0.723,-0.312,0.906,-43.575,-3.64,0.105,
40200860,0.379,-0.269,0.96,-54.757,31.727,12.757,
40200870,-0.262,-0.366,0.988,-65.257,46.357,19.81,
40200880,-0.318,-0.35,1,-64.505,44.537,10.342,
40200890,0.405,-0.294,1.012,-71.627,41.387,5.512,
40200900,-0.264,-0.47,0.949,-77.192,51.52,14.105,
40200910,-0.23,-0.693,0.77,-71.015,49.682,9.327,
40200920,0.019,-0.489,0.921,-59.097,46.655,13.72,
40200920,-0.072,-0.35,1.027,-51.555,44.8,23.1,
40200940,-0.319,-0.365,1.008,-64.085,43.522,28.472,
40200940,-0.414,-0.371,1.02,-70.262,37.502,19.197,
40200960,0.019,-0.305,1.079,-76.177,32.357,7.84,
40200960,0.102,-0.46,1.099,-88.812,32.06,13.562,
40200980,0.134,-0.811,1.032,-106.68,39.865,36.312,
40200980,-0.028,-1.038,0.901,-99.645,37.17,67.83,
40201000,-0.045,-1.697,0.487,-86.607,0.875,116.585,
40201000,-1.373,-1.998,0.6,-70.262,-126.665,197.68,
40201010,-0.656,-1.998,-1.321,-13.3,-222.915,276.78,
40201020,0.143,-1.998,-1.819,13.65,-246.785,334.687,
40201030,0.576,-1.973,-1.076,-46.357,-150.027,362.425,
40201040,0.13,-1.406,0.05,-56.612,-130.865,313.6,
40201050,-0.511,-0.943,0.256,-89.67,-139.02,323.26,
40201060,-0.273,-0.829,0.26,-146.457,-183.032,396.235,
40201070,1.316,-1.072,0.849,-180.512,-222.565,427.682,
40201080,1.998,-0.739,1.557,-123.147,-229.827,393.802,
40201090,1.998,1.402,1.944,1.68,-203,281.452,
40201100,1.497,1.997,1.998,102.637,-126.385,149.677,
40201110,-1.141,1.981,1.751,260.225,-39.182,77.577,
40201120,-1.626,-1.384,1.188,64.417,-95.13,128.327,
40201130,0.21,-1.502,-0.441,62.02,-136.465,64.977,
40201140,-1.909,1.805,1.995,434.017,-94.377,-15.225,
40201150,0.659,-0.756,1.348,137.287,-144.655,-57.277,
40201160,1.187,1.334,1.471,125.755,-89.687,-73.01,
40201170,0.703,-0.06,1.036,3.482,-31.57,-23.205,
40201180,0.183,-0.16,1.014,-30.66,5.092,-10.167,
40201190,0.188,-0.475,0.902,-41.825,19.407,-9.485,
40201200,-0.018,-0.379,0.946,-38.272,25.392,-0.595,
40201210,-0.297,-0.409,0.958,-37.135,21.927,5.53,
40201220,-0.095,-0.321,0.988,-37.1,15.925,0.892,
40201230,-0.106,-0.424,0.949,-41.475,10.675,4.882,
40201240,-0.128,-0.4,0.974,-40.74,7.542,9.485,
40201250,-0.05,-0.211,1.108,-45.447,6.527,8.557,
40201260,0.029,-0.189,1.197,-67.06,10.097,9.887,
40201270,0.398,-0.097,1.32,-95.55,16.8,18.025,
40201280,-0.055,-0.121,1.227,-135.362,26.722,31.622,
40201290,-0.053,-0.045,1.299,-175,22.995,29.575,
40201300,-0.139,-0.4,1.018,-202.597,22.715,24.972,
40201310,-0.419,-0.633,0.857,-215.74,31.797,9.275,
40201320,-0.379,-0.589,0.864,-200.585,43.067,-11.567,
40201330,-0.299,-0.7,0.894,-190.155,45.605,-27.195,
40201330,-0.304,-0.811,0.99,-170.782,38.535,-36.557,
40201350,-0.061,-0.789,0.871,-153.055,29.365,-48.037,
40201350,-0.026,-0.835,0.801,-132.457,34.125,-51.625,
40201370,0.131,-0.943,0.657,-116.795,38.465,-68.792,
40201370,0.244,-0.922,0.359,-68.197,47.652,-74.322,
40201390,0.302,-0.887,0.393,-11.777,80.272,-49.192,
40201390,1.193,-0.594,0.368,51.625,116.847,-52.22,
40201410,1.767,-0.144,-0.608,128.275,118.247,-158.112,
40201410,0.851,0.37,-0.975,166.687,51.485,-324.695,
40201420,-0.169,0.37,-0.916,113.225,94.027,-353.342,
40201430,-0.673,-0.376,0.386,27.65,116.042,-260.487,
40201440,-1.998,-1.96,0.704,-23.87,127.085,-63.507,
40201450,0.46,-1.718,0.133,157.412,32.2,186.13,
40201460,1.699,-0.542,0.961,242.532,38.027,265.055,
40201470,-1.737,0.157,1.451,270.532,-44.485,114.712,
40201480,-0.813,0.164,1.18,245.297,-90.37,99.995,
40201490,-0.261,-1.699,0.768,174.912,-103.197,58.537,
40201500,-1.124,0.298,1.494,298.515,-77.577,-7.315,
40201510,0.071,-0.258,1.533,213.64,-102.55,-36.697,
40201520,0.889,0.81,1.536,161.787,-89.827,-28.612,
40201530,0.62,0.534,1.271,57.4,-51.257,0.227,
40201540,0.319,0.092,1.165,-20.37,-13.527,13.842,
40201550,0.15,0.158,1.33,-65.257,12.565,10.465,
40201560,-0.063,-0.102,1.338,-121.957,25.497,12.407,
40201570,-0.289,-0.364,1.13,-158.217,21.297,12.88,
40201580,0.103,-0.448,1.027,-178.57,7.227,8.855,
40201590,0.002,-0.439,0.918,-182.192,11.095,9.45,
40201600,0.024,-0.43,0.829,-174.055,10.5,15.767,
40201610,0.044,-0.498,0.81,-163.87,7.017,25.322,
40201620,-0.077,-0.55,0.85,-150.307,6.177,32.06,
40201630,-0.204,-0.552,0.965,-136.36,-2.695,36.68,
40201640,-0.184,-0.496,0.93,-121.87,-14.315,41.755,
40201650,-0.095,-0.513,0.988,-115.097,-19.39,44.765,
40201660,-0.155,-0.681,1.115,-118.37,-27.352,41.492,
40201670,-0.131,-0.491,1.096,-101.097,-54.092,39.497,
40201670,-0.081,-0.465,1.278,-100.905,-70.822,48.667,
40201690,0.143,-0.885,1.31,-132.107,-96.215,39.41,
40201690,0.558,-0.929,1.624,-120.015,-114.467,35.892,
40201710,1.107,-0.777,1.837,-95.445,-114.152,22.015,
40201710,0.706,-0.736,1.339,-59.097,-88.602,-8.365,
40201730,0.648,-0.656,1.077,-23.712,-44.327,-46.112,
40201730,-0.27,-0.388,1.351,-20.632,-94.342,-113.68,
40201750,-0.282,-0.604,1.142,-59.15,-86.17,-125.177,
40201750,-0.544,-0.738,1.219,-72.555,-77.77,-80.587,
40201760,-0.531,-0.665,1.199,-64.522,-76.965,-59.605,
40201770,-0.336,-0.629,1.205,-65.625,-68.635,-43.732,
40201780,-0.353,-0.765,1.04,-71.925,-60.042,-35,
40201790,-0.339,-0.786,0.886,-55.125,-54.547,-42.437,
40201800,-0.324,-0.709,0.739,-34.352,-50.767,-51.73,
40201810,-0.435,-0.686,0.547,-17.762,-47.617,-52.972,
40201820,-0.62,-0.668,0.417,-1.085,-48.772,-43.435,
40201830,-0.652,-0.665,0.331,9.8,-53.76,-22.347,
40201840,-0.554,-0.708,0.272,14.717,-49.595,8.837,
40201850,-0.508,-0.757,0.25,21.717,-41.37,38.972,
40201860,-0.445,-0.749,0.229,30.292,-38.482,53.69,
40201870,-0.324,-0.71,0.279,37.817,-41.422,56.245,
40201880,-0.219,-0.699,0.331,40.705,-43.592,52.395,
40201890,-0.224,-0.698,0.375,42.98,-44.485,46.76,
40201900,-0.249,-0.658,0.381,48.947,-37.012,48.3,
40201910,-0.238,-0.594,0.363,54.39,-26.372,57.627,
40201920,-0.269,-0.564,0.272,57.452,-13.177,72.065,
40201930,-0.299,-0.515,0.193,58.957,-9.135,83.02,
40201940,-0.187,-0.476,0.155,54.53,-9.38,90.492,
40201950,-0.005,-0.472,0.099,46.585,-6.72,97.02,
40201960,0.119,-0.446,0.119,39.55,-0.472,95.585,
40201970,0.149,-0.438,0.195,29.977,0.017,84.385,
40201980,0.157,-0.47,0.255,17.622,-4.095,69.93,
40201990,0.183,-0.497,0.241,10.447,-10.412,55.982,
40202000,0.184,-0.444,0.249,6.615,-12.407,44.905,
40202010,0.1,-0.431,0.29,-2.38,-15.207,37.887,
40202020,0.035,-0.474,0.357,-17.78,-20.16,36.067,
40202030,0.032,-0.556,0.427,-31.202,-28.262,38.395,
40202040,0.091,-0.629,0.462,-39.655,-32.847,43.487,
40202050,0.176,-0.673,0.502,-46.742,-33.512,47.442,
40202060,0.162,-0.726,0.547,-58.292,-30.87,46.392,
40202070,0.089,-0.753,0.625,-71.05,-35.525,34.58,
40202080,0.04,-0.761,0.801,-85.557,-39.27,16.467,
40202080,-0.054,-0.758,1.015,-103.932,-37.415,-1.872,
40202100,-0.272,-0.798,1.142,-115.255,-28,-10.202,
40202100,-0.578,-0.867,1.183,-120.522,-27.755,-12.46,
40202120,-0.635,-0.82,1.172,-124.302,-30.975,-7.28,
40202120,-0.64,-0.784,1.276,-127.645,-23.327,18.042,
40202130,-0.718,-0.85,1.263,-128.467,-16.257,48.685,
40202140,-0.692,-0.95,1.269,-119.14,-18.217,74.48,
40202150,-0.334,-0.778,1.458,-102.62,-10.552,96.582,
40202160,-0.159,-0.889,1.479,-66.955,1.155,100.782,
40202170,0.032,-1.141,1.405,-56.21,18.13,104.037,
40202180,0.226,-1.145,1.359,-13.912,41.79,97.247,
40202190,0.424,-1.101,1.271,31.902,69.895,85.05,
40202200,0.462,-1.056,1.164,63.367,95.725,63.7,
40202210,0.508,-0.981,1.104,90.912,115.885,30.257,
40202220,0.469,-0.964,1.056,108.517,131.39,-4.095,
40202230,0.46,-0.934,1.003,119.822,144.532,-28.875,
40202240,0.404,-0.821,0.977,134.05,157.71,-49.997,
40202250,0.268,-0.724,0.879,147.052,170.957,-67.585,
40202260,0.293,-0.715,0.649,153.475,184.835,-76.807,
40202270,1.864,-1.572,-0.43,149.765,180.372,39.357,
40202280,1.629,-0.521,1.448,52.972,174.23,386.61,
40202290,0.142,-0.787,1.053,119.087,-62.632,76.842,
40202300,1.856,-1.318,0.904,16.94,-49.735,-99.05,
40202310,1.139,-1.779,0.114,59.535,78.172,-160.562,
40202320,-1.073,-0.859,-0.511,214.2,51.625,-228.48,
40202330,-1.062,0.342,-0.321,220.517,-6.737,-212.257,
40202340,-0.264,0.266,-0.181,104.44,-15.242,-103.81,
40202350,0.108,-0.103,-0.195,20.492,-3.115,-23.065,
40202360,-0.181,-0.334,-0.087,2.03,13.545,-10.185,
40202370,-0.375,-0.375,0.027,17.202,9.642,11.34,
40202380,-0.013,-0.443,0.035,40.757,-4.305,21.402,
40202390,0.322,-0.635,-0.022,58.152,-15.032,35,
40202400,0.352,-0.705,-0.026,74.69,-15.47,35.875,
40202410,0.265,-0.718,0.057,78.977,-18.042,20.142,
40202420,0.217,-0.833,0.14,58.38,-24.535,-18.602,
40202420,0.088,-1.064,0.161,35.07,-28.192,-61.215,
40202440,-0.165,-1.17,0.194,23.327,-22.312,-83.86,
40202440,-0.362,-1.115,0.31,14.35,-16.275,-85.662,
40202460,-0.47,-0.992,0.541,-5.862,-11.375,-71.715,
40202460,-0.507,-0.92,0.828,-38.902,-11.34,-51.362,
40202480,-0.412,-0.937,1.071,-70.245,-5.18,-18.305,
40202480,-0.242,-1.005,1.255,-84.49,7.7,25.97,
40202500,-0.151,-1.036,1.345,-87.762,16.152,54.232,
40202500,-0.07,-1.055,1.304,-86.117,15.925,60.812,
40202510,0.134,-1.001,1.215,-75.04,18.41,50.522,
40202520,0.273,-0.813,1.11,-55.055,28.787,36.89,
40202530,0.131,-0.572,1.099,-37.922,36.137,20.072,
40202540,0.018,-0.516,1.157,-38.762,26.162,-4.392,
40202550,-0.048,-0.509,1.255,-53.095,6.055,-22.312,
40202560,-0.207,-0.782,1.127,-36.82,-19.565,-25.007,
40202570,-0.234,-0.611,1.166,-7.595,-47.232,-44.572,
40202580,-0.12,-0.564,1.15,16.572,-72.362,-57.295,
40202590,-0.067,-0.568,1.107,22.872,-82.337,-67.602,
40202600,-0.145,-0.678,1.057,22.295,-86.205,-77.472,
40202610,-0.246,-0.789,0.969,31.272,-86.94,-85.767,
40202620,-0.278,-0.882,0.87,44.66,-82.792,-87.692,
40202630,-0.208,-0.959,0.716,59.237,-68.32,-78.96,
40202640,-0.158,-1.021,0.497,76.352,-38.15,-59.885,
40202650,-0.177,-0.994,0.204,94.937,-4.83,-36.662,
40202660,-0.198,-0.858,-0.01,106.365,22.312,-14.35,
40202670,-0.17,-0.744,-0.155,96.897,31.535,0.717,
40202680,-0.046,-0.703,-0.15,63.612,26.687,6.772,
40202690,0.092,-0.77,-0.009,19.547,13.212,3.815,
40202700,0.254,-0.927,0.17,-12.95,4.252,-2.467,
40202710,0.378,-0.977,0.266,-19.67,4.777,-4.182,
40202720,0.431,-0.834,0.295,-4.707,11.865,-7.385,
40202730,0.382,-0.635,0.225,8.54,13.125,-15.452,
40202740,0.274,-0.554,0.117,5.565,4.305,-27.055,
40202750,0.15,-0.556,0.011,-7.035,-13.685,-41.51,
40202760,0.05,-0.617,-0.057,-22.977,-27.825,-48.667,
40202770,-0.122,-0.727,-0.078,-40.757,-36.452,-45.395,
40202780,-0.307,-0.865,-0.024,-61.215,-46.13,-34.457,
40202780,-0.39,-1.022,-0.003,-90.492,-54.687,-7.997,
40202800,-0.645,-1.002,-0.078,-103.6,-72.38,17.517,
40202800,-0.929,-0.491,-0.098,-103.407,-110.32,28.455,
40202820,-1.171,0.417,-0.63,-143.71,-162.995,23.24,
40202820,-1.418,1.415,-0.248,-110.897,-193.795,32.445,
40202830,1.72,0.199,1.998,-140.787,56.35,46.322,
40202840,-0.29,-1.036,1.695,239.067,388.255,174.597,
40202850,-1.929,-1.998,-0.281,445.025,66.535,46.13,
40202860,0.337,-1.812,1.509,221.252,125.632,7.717,
40202870,-0.403,1.533,1.32,424.777,91.227,-91.98,
40202880,-1.229,1.25,1.962,249.532,50.015,-132.09,
40202890,1.079,-0.859,1.528,37.065,24.01,-75.95,
40202900,0.209,0.32,1.543,65.992,32.55,-82.18,
40202910,0.496,-0.191,1.14,-14,41.755,-56.787,
40202920,0.63,-0.287,1.121,-48.037,57.505,-26.39,
40202930,0.477,-0.177,1.118,-66.832,71.872,-0.455,
40202940,0.412,-0.428,0.976,-97.492,88.725,21.245,
40202950,0.124,-0.528,0.913,-102.305,109.13,28.91,
40202960,-0.264,-0.567,0.996,-101.43,117.39,26.285,
40202970,-0.417,-0.574,0.965,-101.465,105.052,18.935,
40202980,-0.473,-0.672,0.979,-104.352,89.512,10.15,
40202990,-0.281,-0.966,0.776,-111.527,78.242,-7.157,
40203000,-0.047,-1.098,0.583,-87.325,89.18,-20.895,
40203010,-0.282,-1.185,0.638,-63.315,112.49,-44.415,
40203020,1.076,-1.824,0.852,-58.117,146.807,-73.307,
40203030,1.846,-1.998,0.924,-55.247,174.335,-157.15,
40203040,1.79,-1.998,-0.177,29.767,114.712,-402.255,
40203050,-1.219,-1.886,-1.579,312.2,212.485,-505.925,
40203060,-1.998,-0.776,-1.449,361.305,141.662,-503.335,
40203070,-1.821,0.474,-1.383,225.977,93.677,-412.58,
40203080,-0.757,1.478,-1.113,36.645,103.302,-224.945,
40203090,-0.318,0.908,-0.705,-138.932,138.915,-74.655,
40203100,-1.424,1.132,0.869,-154.367,168.14,110.652,
40203110,-1.976,1.216,-0.213,-59.885,-9.45,218.662,
40203120,0.228,0.425,1.268,392.7,-113.942,299.25,
40203130,-1.991,-1.998,-0.396,96.442,-225.312,134.662,
40203140,-1.078,0.538,1.543,334.757,-167.335,27.09,
40203150,-0.17,1.028,1.877,342.16,-157.447,-74.585,
40203160,1.617,1.354,1.424,83.475,-108.465,-69.807,
40203170,0.754,0.335,1.166,-1.872,-25.182,-42.962,
40203170,0.076,-0.597,0.873,-58.572,17.57,-26.915,
40203190,0.328,-0.535,0.853,-46.585,31.097,-27.002,
40203190,-0.056,-0.42,0.956,-30.31,36.155,-4.497,
40203210,-0.539,-0.481,0.912,-28.875,29.295,10.062,
40203210,-0.131,-0.36,0.956,-23.677,20.807,-6.79,
40203230,-0.061,-0.303,0.98,-24.01,16.992,-9.397,
40203230,-0.071,-0.236,1.033,-32.497,19.057,-5.337,
40203250,-0.132,-0.166,1.14,-45.727,29.662,-14.122,
40203250,-0.07,-0.321,1.194,-70.157,50.487,-30.87,
40203260,0.007,-0.377,1.21,-98.105,76.615,-48.247,
40203270,0.038,-0.22,1.231,-122.412,103.547,-56.805,
40203280,0.061,-0.266,1.17,-154.437,134.592,-61.232,
40203290,-0.103,-0.331,1.132,-184.992,159.81,-65.222,
40203300,0.135,-0.313,1.095,-193.532,176.82,-60.2,
40203310,0.17,-0.418,1.08,-202.667,186.042,-44.572,
40203320,0.366,-0.714,1.128,-213.237,214.007,-20.44,
40203330,0.161,-0.926,0.634,-191.677,255.115,16.485,
40203340,-0.35,-0.725,0.677,-132.335,240.73,16.817,
40203350,0.703,-0.737,1.365,-70.63,249.322,-2.572,
40203360,-1.674,-1.129,-0.047,-21.175,179.375,-10.727,
40203370,0.447,-1.292,1.38,-20.405,26.967,-119.752,
40203380,1.998,-1.703,1.33,-117.32,-59.78,-211.067,
40203390,0.315,-1.967,-0.901,-7.192,-38.92,-281.452,
40203400,-0.841,-0.098,-0.851,323.715,-16.31,-411.67,
40203410,-0.695,1.93,-0.865,368.287,-54.127,-413.945,
40203420,-0.146,1.952,-0.477,165.235,-61.267,-361.287,
40203430,-1.57,1.585,-0.621,-21.612,-84.77,-246.575,
40203440,-1.769,-0.225,1.081,-3.185,-96.722,-142.905,
40203450,-1.371,-1.998,-0.798,-17.815,-247.135,178.762,
40203460,1.989,-0.125,1.073,377.195,-129.657,305.445,
40203470,-1.745,1.037,0.33,299.687,-17.325,266.962,
40203480,-0.969,-0.616,1.375,451.447,-10.167,-2.135,
40203490,-1.205,-0.29,1.995,387.957,-77.892,-88.777,
40203500,1.6,1.854,1.968,261.922,-110.757,-86.502,
40203510,0.673,0.753,1.307,45.622,-62.352,-40.635,
40203510,0.654,-0.457,0.91,-60.935,-17.675,-13.772,
40203530,0.15,-0.271,0.989,-56.49,11.97,-6.86,
40203530,0.124,-0.373,0.961,-61.985,18.06,7.035,
40203550,-0.632,-0.791,0.77,-64.732,12.687,15.172,
40203550,-0.162,-0.382,0.976,-36.855,4.497,-8.487,
40203570,-0.073,-0.264,1.068,-35.472,-2.012,-13.667,
40203570,-0.225,-0.231,1.104,-49.84,-5.845,-7.717,
40203580,-0.021,-0.499,1.025,-63.892,-8.627,-11.445,
40203590,0.001,-0.303,1.177,-78.925,-4.13,-16.345,
40203600,0.075,-0.194,1.189,-102.025,-1.942,-15.802,
40203610,0.149,-0.166,1.206,-134.907,1.452,-5.302,
40203620,0.201,-0.16,1.185,-166.057,6.002,8.12,
40203630,0.201,-0.191,1.115,-192.552,9.52,23.922,
40203640,0.266,-0.267,1.095,-211.68,8.627,34.177,
40203650,0.332,-0.511,1.01,-225.75,8.47,49.49,
40203660,0.319,-0.649,1.117,-202.002,17.657,72.555,
40203670,0.255,-0.709,0.97,-192.972,20.23,98.7,
40203680,-0.186,-0.862,0.941,-179.042,-0.77,119.157,
40203690,-0.241,-1.199,1.049,-156.747,-64.54,130.725,
40203700,0.336,-1.431,0.507,-125.527,-152.372,146.667,
40203710,1.705,-1.807,0.244,-112.507,-180.127,192.43,
40203720,1.407,-1.584,0.325,-91.157,-157.535,225.487,
40203730,1.143,-1.046,0.274,-34.037,-121.205,165.532,
40203740,0.963,-0.516,0.508,-12.617,-108.955,92.907,
40203750,0.71,-0.373,0.848,-57.05,-87.92,52.255,
40203760,0.379,-0.683,1.124,-117.477,-74.725,20.685,
40203770,0.004,-0.879,1.21,-118.282,-70.857,-10.78,
40203780,-0.184,-0.727,1.277,-95.515,-81.672,-31.657,
40203790,-0.13,-0.647,1.302,-100.38,-96.215,-40.11,
40203800,-0.093,-0.809,1.369,-120.382,-102.217,-37.222,
40203810,-0.345,-0.984,1.478,-138.81,-111.877,-35.875,
40203820,-0.567,-0.983,1.547,-138.46,-127.452,-43.295,
40203830,-0.795,-0.9,1.493,-123.305,-145.005,-44.747,
40203840,-0.934,-0.814,1.271,-109.742,-163.415,-36.802,
40203850,-0.946,-0.696,1.019,-97.335,-172.777,-12.792,
40203860,-0.927,-0.61,0.706,-90.545,-171.237,31.045,
40203870,-0.71,-0.505,0.605,-95.585,-156.467,79.555,
40203880,-0.521,-0.585,0.673,-113.645,-132.02,123.725,
40203890,-0.59,-0.914,0.61,-126.14,-122.255,142.992,
40203900,-0.597,-1.126,0.442,-101.587,-120.382,134.12,
40203910,-0.495,-1.01,0.344,-51.502,-119.052,114.852,
40203920,-0.368,-0.83,0.365,-23.205,-109.06,95.34,
40203920,-0.295,-0.823,0.398,-21.28,-91.682,84.612,
40203940,-0.315,-0.858,0.337,-15.662,-73.395,78.102,
40203940,-0.2,-0.774,0.326,10.92,-58.082,67.025,
40203960,0,-0.598,0.308,36.89,-42.402,53.357,
40203960,0.139,-0.521,0.25,50.085,-28.525,36.75,
40203980,0.218,-0.511,0.158,59.167,-17.99,13.737,
40203980,0.253,-0.487,0.091,74.007,-13.755,-14.227,
40204000,0.294,-0.404,-0.01,88.585,-12.81,-43.12,
40204000,0.396,-0.292,-0.044,96.407,-7.175,-68.407,
40204010,0.349,-0.262,-0.021,93.432,3.202,-87.29,
40204020,0.157,-0.276,-0.008,90.02,9.502,-99.68,
40204030,0.029,-0.201,-0.012,94.85,8.242,-104.055,
40204040,0.068,-0.01,0.028,98.21,5.53,-101.062,
40204050,0.117,0.117,0.093,87.307,7.822,-89.547,
40204060,0.027,0.078,0.167,69.877,11.13,-70.455,
40204070,-0.083,0.002,0.205,62.352,8.4,-47.092,
40204080,-0.112,0.033,0.26,65.887,-0.07,-18.742,
40204090,-0.023,0.085,0.358,66.045,-9.24,17.255,
40204100,0.101,0.026,0.491,52.465,-13.895,61.67,
40204110,0.308,-0.138,0.577,36.802,-17.447,106.592,
40204120,0.632,-0.341,0.544,34.545,-16.607,134.995,
40204130,0.856,-0.475,0.566,40.46,-14.822,132.527,
40204140,0.802,-0.525,0.682,43.347,-18.305,98.402,
40204150,0.539,-0.611,0.692,44.03,-27.335,53.725,
40204160,0.343,-0.585,0.7,37.887,-38.377,18.672,
40204170,0.279,-0.518,0.812,20.527,-42.297,-2.782,
40204180,-0.029,-0.55,0.913,-0.385,-35.63,-10.745,
40204190,-0.527,-0.578,1.06,-9.817,-27.422,-9.327,
40204200,-0.913,-0.498,1.221,-10.955,-21.945,5.81,
40204210,-1.098,-0.386,1.307,-13.685,-18.235,41.982,
40204220,-1.404,-0.408,1.314,-17.29,-22.89,90.44,
40204230,-1.446,-0.413,1.178,-15.837,-39.375,134.977,
40204240,-1.271,-0.565,0.915,-11.725,-57.032,173.407,
40204250,-1.02,-0.7,1.067,-7.035,-71.732,153.037,
40204260,-1.681,-0.564,1.197,-31.517,-72.782,134.26,
40204260,-1.832,-0.892,1.154,-43.47,-71.347,177.59,
40204280,-1.897,-1.194,1.024,-39.252,-48.825,221.812,
40204280,-1.998,-1.181,0.826,10.237,-35.787,291.34,
40204300,-1.972,-1.199,0.876,15.207,-16.765,316.662,
40204300,-1.886,-1.678,0.845,-5.285,17.062,324.345,
40204320,-1.996,-1.824,0.83,15.26,53.252,317.59,
40204320,-1.97,-1.559,0.89,36.225,68.127,292.127,
40204330,-1.581,-1.38,0.849,22.837,72.397,275.187,
40204340,-1.167,-1.504,0.532,11.13,70.577,259.332,
40204350,-0.449,-1.393,0.866,6.457,51.275,259.892,
40204360,0.478,-0.399,1.212,-25.497,-48.527,258.807,
40204370,1.553,-1.382,0.478,-127.802,-93.17,198.082,
40204380,1.48,-1.545,0.372,-111.685,-24.955,105.84,
40204390,-0.348,-0.819,0.336,-4.462,3.465,30.642,
40204400,-0.704,-0.363,0.137,26.635,-55.527,-20.44,
40204410,-0.304,-0.456,-0.14,18.252,-115.535,-16.275,
40204420,-0.164,-0.668,-0.211,37.012,-129.272,-5.775,
40204430,-0.216,-0.609,-0.409,74.007,-99.54,12.477,
40204440,-0.483,-0.241,-0.385,90.247,-66.657,43.505,
40204450,-0.52,-0.263,-0.435,70.805,-59.64,64.697,
40204460,-0.008,-0.584,-0.536,40.162,-61.04,67.602,
40204470,0.493,-0.874,-0.469,12.005,-50.417,41.72,
40204480,0.732,-1.097,-0.481,-6.02,-33.67,-7.927,
40204490,0.822,-0.956,-0.645,-12.442,-20.79,-64.19,
40204500,0.271,-1.277,-0.585,-16.432,-16.905,-136.692,
40204510,0.135,-1.998,0.782,-47.915,-221.602,-359.485,
40204520,1.998,-1.998,0.699,20.387,-243.775,-454.702,
40204530,-0.746,-1.273,-0.622,396.795,126.472,-206.605,
40204540,0.047,1.995,1.215,497.332,6.037,-165.672,
40204550,1.747,1.655,1.561,382.077,-59.22,-28.21,
40204560,0.618,-1.29,1.162,265.37,-64.032,79.1,
40204570,-1.066,-0.223,1.707,282.747,-83.947,106.032,
40204580,-1.714,0.313,1.811,247.992,-105.402,68.495,
40204590,-0.065,0.454,1.553,138.687,-88.13,-29.032,
40204600,1.016,0.625,1.423,46.322,-45.272,-75.915,
40204610,0.639,-0.182,1.046,-31.815,-7.892,-52.29,
40204620,0.211,-0.627,0.829,-53.252,13.09,-24.937,
40204630,0.078,-0.365,0.957,-43.085,19.6,-10.08,
40204640,-0.115,-0.469,0.916,-46.182,21.14,1.4,
40204650,-0.166,-0.452,0.93,-45.395,18.007,3.622,
40204660,-0.095,-0.382,0.98,-43.4,15.4,1.435,
40204670,0.008,-0.405,1.011,-50.872,11.182,6.632,
40204670,0.033,-0.332,1.089,-59.202,11.83,15.662,
40204690,-0.042,-0.246,1.171,-76.895,10.657,23.975,
40204690,-0.025,-0.186,1.24,-98.42,5.967,31.29,
40204710,-0.141,-0.331,1.115,-129.15,7.997,29.347,
40204710,-0.175,-0.371,1.019,-150.167,13.492,15.05,
40204730,-0.194,-0.368,0.96,-159.687,22.242,-6.335,
40204730,-0.242,-0.405,0.927,-175.472,36.102,-30.887,
40204750,-0.094,-0.678,0.873,-191.502,44.152,-53.707,
40204750,-0.061,-0.851,0.942,-177.485,48.51,-62.492,
40204760,0.235,-0.916,0.918,-160.475,64.82,-64.505,
40204770,0.352,-1.428,0.878,-158.182,117.372,-55.44,
40204780,0.125,-1.994,0.165,-118.58,184.17,-66.167,
40204790,0.286,-1.998,0.502,-36.225,253.032,-97.702,
40204800,-0.017,-1.857,-0.904,60.252,243.862,-181.107,
40204810,0.387,-0.853,-0.799,122.71,167.44,-340.462,
40204820,-0.649,-0.857,-0.679,61.53,247.712,-334.04,
40204830,-1.683,-0.637,-0.961,19.197,222.967,-314.23,
40204840,-1.3,0.642,-1.289,62.737,191.73,-309.505,
40204850,-1.292,1.686,-1.032,40.967,192.097,-273.122,
40204860,-1.861,1.535,-0.498,-28.84,208.95,-198.345,
40204870,-1.534,0.478,1.495,-40.162,68.967,-184.835,
40204880,1.888,-1.809,0.337,174.947,-4.112,-175.28,
40204890,0.545,-1.998,0.543,364.805,-5.092,-0.455,
40204900,0.298,0.647,1.032,446.267,-1.872,-3.57,
40204910,-0.537,1.479,1.994,455.91,-10.85,60.182,
40204920,-1.456,-1.756,1.361,183.505,-65.152,85.032,
40204930,-1.281,1.083,1.959,296.047,-92.085,16.677,
40204940,0.385,0.797,1.674,141.487,-87.465,-49.717,
40204950,0.89,0.286,1.263,20.317,-48.282,-67.935,
40204960,0.626,-0.253,1.011,-27.317,-10.517,-35.402,
40204970,-0.017,-0.377,0.949,-45.412,5.267,-4.13,
40204980,-0.26,-0.375,0.954,-44.31,8.33,-1.05,
40204990,-0.263,-0.444,0.955,-42.367,5.687,-14.087,
40205000,-0.104,-0.412,0.986,-40.53,2.327,-21.997,
40205010,0.093,-0.369,1.026,-46.025,-2.817,-16.782,
40205010,0.166,-0.29,1.109,-59.692,-3.64,-0.227,
40205030,0.053,-0.256,1.192,-79.94,-2.765,17.062,
40205030,0.016,-0.241,1.223,-106.925,-0.805,26.897,
40205050,-0.014,-0.23,1.251,-139.002,2.012,31.307,
40205050,0.005,-0.15,1.195,-171.395,7.14,29.61,
40205070,0.044,-0.148,1.089,-203.787,14.315,27.492,
40205070,0.066,-0.278,1.026,-232.697,24.902,23.747,
40205080,0.067,-0.44,0.929,-246.417,31.097,14.945,
40205090,0.034,-0.333,0.956,-240.537,36.522,16.31,
40205100,0.405,-0.528,0.971,-268.292,49.105,28.42,
40205110,0.77,-0.97,1.105,-280.735,100.66,57.33,
40205120,0.747,-1.045,0.918,-247.677,170.135,94.675,
40205130,0.239,-0.9,0.972,-210.98,211.645,135.695,
40205140,0.34,-1.247,0.716,-194.915,219.975,174.982,
40205150,0.499,-1.39,1.005,-105.402,190.715,167.282,
40205160,1.538,-1.42,1.187,7.14,145.285,132.107,
40205170,0.731,-1.143,1.167,69.86,22.435,38.675,
40205180,1.133,-0.591,1.391,130.742,-35.122,-15.907,
40205190,1.267,-0.494,0.822,185.57,-12.985,-8.365,
40205200,0.846,-0.154,0.709,222.005,-39.165,-34.195,
40205210,1.017,0.143,0.494,244.422,-33.617,-63.402,
40205220,1.077,0.492,0.378,246.89,-41.055,-89.985,
40205230,0.94,0.683,0.458,231.262,-56.49,-122.29,
40205240,0.827,0.62,0.636,208.565,-73.447,-144.637,
40205250,0.585,0.464,1.068,183.68,-89.565,-147.472,
40205260,0.056,0.185,1.217,164.43,-104.895,-137.987,
40205270,-0.291,0.097,1.168,167.072,-131.25,-123.55,
40205280,-0.126,0.025,1.515,172.427,-140.805,-110.46,
40205290,-0.395,-0.419,1.981,151.025,-128.082,-87.325,
40205300,-1.09,-0.977,1.998,134.767,-114.572,-60.445,
40205310,-1.342,-1.171,1.998,136.412,-118.632,-38.36,
40205320,-1.202,-1.262,1.998,125.79,-119.472,-25.445,
40205330,-1.381,-1.251,1.998,80.08,-123.147,-21.472,
40205340,-1.589,-1.606,1.998,12.092,-133.787,-31.622,
40205350,-1.53,-1.753,1.998,-36.47,-141.557,-35.542,
40205360,-1.801,-1.92,1.758,-54.67,-145.705,-15.067,
40205370,-1.786,-1.998,1.358,-14.577,-146.51,-15.977,
40205380,-1.484,-1.821,1.091,7.927,-139.142,-17.937,
40205390,-1.067,-1.611,0.794,-14.472,-120.382,-22.435,
40205400,-0.836,-1.705,0.428,-36.89,-88.322,-38.167,
40205410,-0.76,-1.685,0.115,-23.712,-52.08,-41.825,
40205420,-0.475,-1.386,-0.089,9.66,-16.695,-37.397,
40205420,-0.046,-0.958,-0.176,35.367,12.127,-26.687,
40205430,0.372,-0.535,-0.192,31.587,37.8,-11.795,
40205440,0.777,-0.163,-0.111,-1.085,61.845,5.582,
40205450,0.903,0.024,-0.009,-52.78,82.005,22.505,
40205460,0.64,0.036,0.078,-105.14,77.892,27.545,
40205470,0.412,0.033,0.105,-130.602,50.207,20.685,
40205480,0.351,0.199,0.244,-120.452,4.585,2.52,
40205490,0.376,0.395,0.503,-100.24,-37.992,-18.655,
40205500,0.322,0.37,0.692,-93.887,-57.365,-29.767,
40205510,0.096,0.135,0.724,-90.912,-58.625,-27.737,
40205520,-0.08,-0.093,0.698,-66.727,-58.975,-19.022,
40205530,-0.084,-0.227,0.621,-23.345,-59.64,-8.19,
40205540,-0.009,-0.285,0.47,26.652,-58.45,5.46,
40205550,0.165,-0.208,0.105,80.692,-51.415,24.937,
40205560,0.147,-0.228,-0.265,130.497,-17.885,56.14,
40205570,-0.073,-0.309,-0.35,134.452,0.07,79.065,
40205580,-0.699,-0.069,-0.535,59.762,-49.157,139.422,
40205590,-0.033,-0.9,-0.527,61.11,-81.795,110.88,
40205600,0.273,-0.781,-0.383,74.252,-120.715,78.907,
40205610,0.099,-0.752,-0.269,58.222,-147.525,49.297,
40205620,-0.501,-0.82,0.041,60.515,-174.597,25.392,
40205630,-1.059,-0.541,0.45,78.417,-245.805,7.262,
40205640,-0.418,0.024,1.059,77.262,-312.637,-2.555,
40205650,0.472,0.018,1.662,23.905,-352.397,7.262,
40205660,0.072,-0.872,1.787,-36.26,-330.12,-21.752,
40205670,-0.319,-1.134,1.959,45.92,-287.56,-89.267,
40205680,-0.622,-0.439,1.909,136.412,-245.63,-130.55,
40205690,-0.492,-0.32,1.312,129.255,-188.702,-165.672,
40205700,-0.61,-0.398,0.815,95.375,-96.302,-217.297,
40205710,-0.762,-0.646,0.492,48.51,31.797,-281.172,
40205720,-0.916,-1.02,0.236,-8.19,199.64,-329,
40205730,-1.188,-1.074,0.317,-83.58,368.515,-347.235,
40205740,-1.448,-1.412,0.713,-185.045,495.022,-345.257,
40205750,-1.528,-1.975,0.847,-225.032,560.805,-318.5,
40205760,-1.587,-1.993,1.057,-182.017,573.072,-241.972,
40205760,-1.575,-1.456,1.275,-125.142,560.122,-156.537,
40205780,-1.744,-0.841,1.613,-108.762,498.277,-74.62,
40205780,-1.998,-0.689,1.689,-165.532,350.315,2.397,
40205800,-1.99,-0.843,1.594,-240.117,162.47,75.127,
40205800,-1.536,-1.146,1.22,-280.455,7.052,147.157,
40205820,-1.008,-1.318,0.919,-273.892,-80.797,191.992,
40205820,-0.805,-1.063,0.901,-247.397,-106.347,203.227,
40205830,-0.594,-0.85,0.859,-232.977,-96.32,220.535,
40205840,-0.235,-0.693,0.865,-231.962,-55.58,249.655,
40205850,-0.186,-0.744,0.813,-224.14,-5.95,296.502,
40205860,-0.343,-0.628,0.78,-197.557,14.315,331.502,
40205870,-0.126,-0.36,0.741,-177.17,0.595,361.602,
40205880,0.812,-0.445,0.865,-186.585,-8.207,388.78,
40205890,1.721,-0.999,0.771,-196.227,2.905,390.652,
40205900,1.997,-1.544,1.273,-171.745,37.782,326.567,
40205910,1.998,-1.377,1.722,19.32,68.792,151.847,
40205920,1.998,-0.919,1.325,19.267,70.385,-24.36,
40205930,1.953,-0.75,0.518,59.85,77.525,-189.297,
40205940,1.309,-0.296,-0.079,106.575,94.377,-305.34,
40205950,0.144,0.014,-0.528,139.09,113.82,-362.565,
40205960,-0.604,0.438,-0.451,87.85,113.085,-382.952,
40205970,-1.355,-0.021,0.389,0.927,24.132,-393.19,
40205980,1.998,-1.877,-0.108,104.23,45.29,-371.56,
40205990,0.478,1.656,1.233,535.132,151.392,-342.247,
40206000,-1.713,0.443,1.822,404.32,115.325,-370.107,
40206010,1.91,-0.539,1.051,267.452,-64.592,-56.962,
40206020,-0.415,0.023,1.911,313.267,-53.812,73.465,
40206030,-1.762,0.239,1.728,215.022,-71.19,103.967,
40206040,-0.091,0.661,1.323,96.932,-78.172,28.402,
40206050,0.75,0.363,1.116,28.84,-44.992,-30.03,
40206060,0.295,0.013,1.112,-34.44,-5.407,-19.967,
40206070,-0.019,-0.36,1.022,-64.382,11.322,-18.27,
40206080,0.226,-0.366,1.027,-71.277,16.887,-20.247,
40206090,0.336,-0.179,1.073,-78.015,21.105,-3.342,
40206100,0.298,-0.568,0.81,-86.327,21.227,33.827,
40206100,-0.084,-0.502,0.813,-76.475,26.32,54.722,
40206120,-0.093,-0.343,1.01,-61.582,18.917,64.575,
40206120,-0.247,-0.338,1.081,-74.602,8.61,72.1,
40206140,-0.213,-0.278,1.161,-83.982,4.62,67.217,
40206140,-0.264,-0.362,1.145,-109.637,2.31,59.36,
40206160,-0.277,-0.377,1.129,-127.137,6.597,45.657,
40206160,-0.254,-0.397,1.093,-141.662,13.195,27.125,
40206170,-0.348,-0.463,1.066,-154.297,18.235,10.5,
40206180,-0.477,-0.704,0.979,-159.652,-0.945,-7.595,
40206190,-0.353,-1.014,0.7,-145.617,-43.75,-19.6,
40206200,-0.131,-0.883,0.583,-100.73,-68.705,-16.66,
40206210,-0.167,-0.682,0.68,-53.602,-66.832,-10.832,
40206220,0.129,-0.663,0.364,-21.035,-59.955,-9.625,
40206230,0.335,-0.534,0.556,-24.307,-17.902,8.207,
40206240,0.106,-0.843,0.338,-10.937,27.037,21.805,
40206250,-0.438,-1.521,-0.989,-4.13,92.452,76.282,
40206260,-1.272,-0.09,-0.491,53.672,72.432,113.732,
40206270,0.878,0.61,0.053,-6.352,59.097,107.397,
40206280,1.908,0.848,1.458,-112.997,66.412,146.23,
40206290,0.837,-0.161,1.091,-132.492,104.545,101.062,
40206300,-1.998,-1.11,0.616,87.762,12.757,-55.405,
40206310,-0.69,-1.952,-0.273,199.167,-64.54,-123.655,
40206320,0.139,-1.73,0.065,167.825,-48.632,2.905,
40206330,-1.041,-0.338,0.544,302.067,-41.527,-55.562,
40206340,-0.652,-0.167,1.223,350.262,-49.472,-136.815,
40206350,0.162,-0.191,1.719,297.027,-93.1,-123.445,
40206360,0.708,0.535,1.877,254.362,-100.065,-77.14,
40206370,0.232,1.188,1.565,133.857,-68.197,-41.3,
40206380,0.435,0.472,1.245,12.67,-33.81,-24.71,
40206390,0.443,-0.078,1.108,-50.452,-4.48,-11.182,
40206400,0.261,-0.329,1.066,-85.155,12.512,9.24,
40206410,-0.058,-0.34,1.096,-95.445,18.515,21.805,
40206420,-0.202,-0.415,1.082,-109.777,17.727,25.795,
40206430,-0.196,-0.37,1.127,-119.472,14.122,20.44,
40206440,-0.085,-0.358,1.105,-138.547,16.012,12.897,
40206450,-0.053,-0.284,1.169,-159.075,14.472,9.415,
40206460,0.081,-0.168,1.12,-172.865,14.28,13.527,
40206470,0.105,-0.183,1.082,-198.87,12.617,23.327,
40206480,0.177,-0.264,1.027,-224.07,8.435,37.415,
40206490,0.29,-0.542,0.958,-233.24,8.54,56.997,
40206500,0.151,-0.401,1.099,-213.29,15.942,81.567,
40206510,0.364,-0.738,1.162,-226.66,35.367,94.517,
40206510,0.215,-0.932,1.122,-212.747,48.965,121.17,
40206530,0.238,-0.924,1.067,-193.165,42.875,144.392,
40206530,-0.1,-0.931,0.865,-170.38,16.502,163.905,
40206550,-0.266,-1.035,0.988,-125.807,-30.467,165.515,
40206550,1.416,-1.045,1.65,-80.43,-88.165,139.772,
40206570,1.467,-0.987,1.063,-29.505,-156.38,134.417,
40206570,1.998,-0.814,1.221,47.39,-135.537,154.455,
40206580,1.292,-0.593,0.944,53.077,-136.325,63.962,
40206590,0.355,-0.522,0.291,117.757,-97.317,-69.055,
40206600,-0.306,0.235,0.128,174.615,-74.69,-115.342,
40206610,-0.545,0.9,-0.019,158.865,-98.052,-133.717,
40206620,-0.386,1.204,-0.154,115.797,-104.002,-125.247,
40206630,-0.244,1.192,0.042,66.972,-83.65,-83.125,
40206640,-0.158,0.762,0.313,10.815,-47.635,-36.627,
40206650,-0.072,0.19,0.723,-13.65,-12.617,-16.24,
40206660,-0.604,-0.435,0.944,24.342,5.197,-4.865,
40206670,-0.772,-0.501,1.006,70.997,-2.992,-5.005,
40206680,-0.457,-0.607,1.119,97.44,-11.287,-30.607,
40206690,-0.532,-0.847,1.201,88.095,-12.46,-52.29,
40206700,-0.981,-1.16,1.259,85.977,-18.13,-67.865,
40206710,-1.164,-1.538,1.49,90.002,-30.94,-70.122,
40206720,-1.885,-1.97,0.851,100.03,-58.187,-42.665,
40206730,-1.998,-1.981,0.344,146.86,-82.355,-1.715,
40206740,-1.998,-1.998,0.345,100.135,-90.195,91.105,
40206750,-1.114,-1.998,0.075,6.037,-132.545,169.032,
40206760,0.244,-1.738,0.617,-17.045,-122.185,194.425,
40206770,-0.294,-1.556,0.939,-100.555,-118.947,152.005,
40206780,-0.92,-1.998,0.219,-117.162,-106.785,42.35,
40206790,-1.321,-1.774,0.595,-59.01,-43.137,16.292,
40206800,-1.592,-1.639,0.741,-100.52,36.032,56.717,
40206810,-1.242,-1.974,1.2,-135.94,108.01,94.587,
40206820,-1.672,-1.608,0.902,-61.232,83.142,188.562,
40206830,-0.881,-1.001,0.476,-9.187,28.787,181.09,
40206830,0.633,-0.241,0.208,-9.922,40.67,119.332,
40206850,1.171,0.425,0.208,-12.757,127.032,73.36,
40206850,0.252,0.508,0.333,-27.58,192.342,5.355,
40206870,-0.169,0.349,0.387,-51.782,187.635,-75.425,
40206870,-0.041,0.285,0.45,-67.655,175.297,-95.532,
40206890,-0.131,0.139,0.273,-69.527,135.905,-97.562,
40206890,0.002,-0.072,0.4,-53.34,99.925,-94.01,
40206910,0.086,-0.295,0.356,-56.297,75.477,-45.64,
40206910,0.228,-0.365,0.039,-77.21,31.325,-10.972,
40206920,0.706,-0.303,0.144,-94.867,-6.842,4.27,
40206930,1.009,-0.84,0.011,-138.145,9.782,43.19,
40206940,0.892,-1.267,-0.379,-125.667,8.575,63.542,
40206950,1.09,-1.444,1.081,-101.395,-26.057,30.835,
40206960,1.311,-0.799,1.956,24.57,-128.625,-90.317,
40206970,-0.029,1.333,0.398,259.315,-4.585,-55.545,
40206980,-1.794,0.947,1.412,347.777,-84.262,-63.525,
40206990,0.725,-1.954,0.276,131.74,-76.737,89.687,
40207000,0.818,-0.888,0.775,266.997,-63.21,86.31,
40207010,-1.705,0.718,1.324,308.122,-49.262,38.377,
40207020,-0.464,-0.899,0.979,200.48,-73.307,8.19,
40207030,-0.521,-0.22,1.334,228.025,-70.875,-40.337,
40207040,0.01,-0.067,1.446,200.392,-69.965,-52.71,
40207050,0.293,-0.033,1.379,142.432,-64.277,-52.535,
40207060,0.515,0.075,1.264,89.757,-44.747,-38.99,
40207070,0.309,-0.064,1.135,33.53,-21.017,-17.71,
40207080,0.059,-0.224,1.031,-2.292,-3.22,-6.807,
40207090,-0.008,-0.343,0.972,-20.247,5.81,-5.547,
40207100,0.006,-0.292,1,-28.647,11.41,-6.055,
40207110,-0.168,-0.335,1.017,-36.767,14.805,-7.42,
40207120,-0.09,-0.385,1.024,-47.11,14.437,-8.102,
40207130,-0.098,-0.338,1.062,-58.432,14.227,-8.925,
40207140,-0.031,-0.336,1.11,-78.61,16.73,-7.665,
40207150,-0.088,-0.32,1.175,-98.84,21.315,-9.887,
40207160,-0.164,-0.32,1.212,-126.227,26.547,-15.96,
40207170,-0.109,-0.322,1.174,-150.045,26.075,-23.45,
40207180,-0.173,-0.33,1.098,-176.19,29.05,-30.975,
40207190,-0.178,-0.436,0.999,-197.61,27.107,-41.93,
40207200,-0.157,-0.563,1.004,-202.615,26.232,-53.76,
40207210,-0.415,-0.643,1.179,-203.787,19.145,-61.197,
40207220,-0.165,-0.821,1.05,-212.817,4.077,-74.97,
40207230,0.089,-0.961,0.923,-197.505,24.342,-66.71,
40207240,-0.004,-1.21,0.436,-186.112,68.67,-57.067,
40207250,-0.162,-1.484,0.176,-148.435,102.602,-46.462,
40207260,0.194,-1.697,0.169,-91.56,120.732,-68.355,
40207260,-0.009,-1.549,0.032,-17.08,158.147,-45.01,
40207280,-0.951,-0.005,-0.818,87.027,145.862,-2.065,
40207280,-0.139,1.054,-0.441,100.012,98.42,-5.232,
40207300,-0.016,0.51,0.015,-38.342,92.435,74.375,
40207300,-0.308,-0.102,-0.139,-72.03,69.895,128.555,
40207320,0.087,0.475,-0.276,6.755,36.172,126.98,
40207320,0.484,0.93,-0.2,13.982,21.14,129.867,
40207330,0.705,-0.792,0.309,-39.62,7.122,112.49,
40207340,1.585,-1.998,1.372,25.147,-19.127,48.58,
40207350,-1.851,-1.996,-1.613,212.222,-89.967,101.797,
40207360,-1.419,0.75,1.171,387.835,-140.612,103.075,
40207370,0.119,1.343,1.697,370.562,-135.485,85.89,
40207380,-1.689,-1.377,0.769,269.15,-178.062,31.71,
40207390,-0.925,-0.257,1.107,330.697,-184.152,-40.022,
40207400,-0.21,0.176,1.832,317.38,-192.517,-87.587,
40207410,1.344,0.22,1.668,211.12,-162.837,-70.332,
40207420,0.908,1.1,1.555,131.915,-94.692,-38.885,
40207430,0.69,-0.03,1.091,5.022,-38.71,-11.217,
40207440,0.444,-0.086,1.054,-29.592,2.94,-3.325,
40207450,0.085,-0.391,0.958,-54.74,23.887,6.825,
40207460,-0.168,-0.39,0.973,-60.182,30.17,10.71,
40207470,-0.221,-0.461,0.946,-64.277,27.72,11.532,
40207480,-0.199,-0.39,0.991,-62.912,25.235,8.54,
40207490,-0.125,-0.304,1.055,-67.182,22.417,6.79,
40207500,-0.27,-0.479,1.06,-80.01,23.765,2.31,
40207510,-0.164,-0.279,1.138,-88.847,26.285,-7.647,
40207520,-0.149,-0.371,1.104,-106.225,31.727,-21.612,
40207530,-0.102,-0.516,1.123,-123.97,39.165,-32.742,
40207540,0.028,-0.517,1.156,-132.107,43.907,-38.027,
40207550,0.152,-0.653,1.098,-141.435,45.815,-36.12,
40207560,0.103,-0.783,0.974,-146.842,48.545,-32.55,
40207570,0.133,-1.047,0.612,-133.21,61.775,-21.122,
40207580,-0.246,-1.052,0.583,-96.512,81.9,-25.392,
40207580,-1.01,-0.929,0.937,-53.462,64.942,-47.705,
40207600,-0.564,-1.191,0.645,-34.947,24.937,-59.71,
40207600,1.65,-1.998,-0.645,-39.865,-14.42,-82.67,
40207620,1.751,-1.632,-0.609,5.005,20.65,-181.387,
40207620,-1.071,-1.216,-0.451,80.64,24.22,-299.722,
40207640,-1.998,-0.792,-0.365,50.032,-27.44,-281.575,
40207640,-1.379,-0.09,-0.783,-45.902,-73.657,-166.477,
40207660,-0.837,0.749,-0.527,-58.59,-79.922,-6.177,
40207660,-0.318,1.175,1.436,-104.982,-73.675,84.035,
40207670,1.9,0.638,1.998,-103.775,61.425,124.757,
40207680,0.636,1.9,0.79,257.512,50.505,102.042,
40207690,-1.674,-1.125,0.585,125.912,33.215,130.287,
40207700,0.089,-1.998,-0.406,90.037,-33.547,233.065,
40207710,-0.332,0.307,0.797,358.382,-12.95,113.505,
40207720,-1.84,0.61,1.505,358.68,-43.382,42.052,
40207730,-0.761,-1.68,1.405,228.602,-95.077,-5.582,
40207740,0.081,1.559,1.998,313.145,-100.572,-48.755,
40207750,1.02,0.748,1.347,97.055,-87.08,-34.755,
40207760,0.96,0.094,1.059,-4.095,-34.702,-11.76,
40207770,0.279,-0.247,0.974,-39.007,6.405,6.86,
40207780,0.121,-0.287,0.98,-53.41,24.64,12.092,
40207790,-0.233,-0.487,0.92,-60.217,30.852,13.125,
40207800,-0.158,-0.414,0.96,-56.14,27.247,9.03,
40207810,-0.023,-0.32,1.026,-56.227,22.102,11.025,
40207820,-0.056,-0.319,1.061,-64.907,20.65,18.392,
40207830,-0.082,-0.379,1.065,-76.335,19.932,24.342,
40207840,-0.108,-0.333,1.12,-89.652,23.257,28.192,
40207850,-0.062,-0.18,1.194,-110.547,29.26,25.725,
40207860,-0.061,-0.185,1.221,-138.197,37.922,19.932,
40207870,0.008,-0.2,1.199,-168.105,43.452,13.475,
40207880,0.098,-0.211,1.134,-200.935,47.635,9.8,
40207890,0.141,-0.353,1.051,-225.207,49.98,12.897,
40207900,0.142,-0.476,1.03,-230.86,53.287,24.535,
40207910,0.091,-0.506,1.184,-221.935,55.545,41.965,
40207920,0.092,-0.606,1.376,-223.02,53.462,61.932,
40207930,0.032,-0.848,1.204,-224.017,34.807,74.882,
40207940,-0.151,-0.811,1.123,-192.815,0.7,86.8,
40207950,-0.168,-0.93,1.106,-164.972,-31.727,93.362,
40207960,0.731,-0.532,1.533,-128.572,-78.82,71.697,
40207970,1.736,-0.164,0.844,-52.255,-74.55,42.7,
40207980,1.97,0.136,1.287,67.655,5.495,-48.352,
40207990,0.815,0.703,0.195,180.04,67.987,-181.86,
40208000,-0.26,1.079,-0.184,214.34,49.647,-333.935,
40208010,-0.338,1.33,-0.714,229.827,108.78,-325.745,
40208010,-0.26,1.363,-0.594,186.812,127.435,-265.457,
40208030,-0.285,0.7,-0.886,99.312,142.047,-197.872,
40208030,-0.064,-1.273,0.043,30.975,153.335,-120.277,
40208050,-1.556,-1.998,-1.495,-157.482,90.335,135.205,
40208050,1.989,-1.376,0.457,283.412,-14.647,391.667,
40208070,-1.201,1.935,0.862,516.74,-66.255,275.065,
40208070,-1.998,1.368,1.812,395.727,-119.122,20.475,
40208080,-0.771,-1.928,0.595,61.67,-197.592,14.28,
40208090,-1.306,-0.298,1.574,303.082,-184.677,-102.462,
40208100,1.935,1.948,1.851,283.395,-171.08,-116.532,
40208110,1.164,0.358,1.117,32.725,-89.985,-17.185,
40208120,0.039,-0.129,1.021,-21.56,-19.022,11.357,
40208130,0.223,-0.397,0.919,-34.72,-0.717,4.13,
40208140,0.206,-0.318,0.953,-33.162,13.685,-0.542,
40208150,-0.299,-0.532,0.893,-36.872,18.987,6.615,
40208160,-0.042,-0.334,0.976,-29.12,15.382,2.485,
40208170,-0.047,-0.272,1.016,-34.597,13.982,5.005,
40208180,-0.048,-0.335,1.012,-45.08,13.177,11.025,
40208190,-0.133,-0.292,1.06,-52.57,13.667,13.65,
40208200,-0.066,-0.192,1.202,-67.97,17.307,10.5,
40208210,-0.116,-0.147,1.311,-95.637,23.765,6.965,
40208220,-0.159,-0.255,1.22,-127.96,32.952,0.42,
40208230,-0.075,-0.25,1.195,-155.032,38.5,-4.97,
40208240,-0.054,-0.306,1.134,-180.652,45.342,-8.19,
40208250,0.045,-0.334,1.059,-192.062,43.365,-5.25,
40208260,0.104,-0.307,1.019,-199.972,40.792,5.705,
40208270,-0.001,-0.428,1.026,-212.152,33.355,17.797,
40208280,-0.159,-0.658,1.027,-214.917,23.362,25.672,
40208290,-0.293,-0.922,0.942,-191.677,2.292,29.172,
40208300,-0.256,-0.859,0.656,-147.63,-15.54,35.367,
40208310,-0.307,-0.907,0.729,-101.832,-31.832,45.045,
40208320,-0.51,-0.995,0.575,-59.08,-104.877,44.59,
40208330,0.1,-0.31,1.243,-5.075,-164.045,51.8,
40208330,0.853,0.176,0.148,52.955,-156.59,66.552,
40208350,0.638,0.498,0.107,101.937,-131.005,50.557,
40208350,0.145,0.422,-0.463,87.202,-73.36,16.257,
40208370,-0.43,0.564,-0.552,75.617,-86.397,-28.332,
40208370,-0.471,0.438,-0.429,49.437,-55.79,-13.51,
40208390,-0.575,-0.109,0.356,0.507,-54.477,54.722,
40208390,0.792,-1.946,0.984,-57.942,74.83,158.637,
40208410,0.088,-1.998,-1.125,64.417,32.76,303.152,
40208410,0.013,-0.838,0.868,260.592,1.33,184.345,
40208420,-1.889,1.982,1.604,407.557,-42.612,97.335,
40208430,-1.07,-0.607,0.995,204.54,-90.807,74.112,
40208440,-0.88,-1.417,1.052,227.815,-113.697,9.59,
40208450,-0.639,0.62,1.984,325.5,-118.912,-70.63,
40208460,1.302,1.198,1.63,171.64,-116.83,-55.755,
40208470,0.739,0.672,1.27,49.7,-63.735,-21.192,
40208480,0.428,-0.175,1.037,-30.31,-22.33,2.59,
40208490,0.197,-0.481,0.898,-46.602,-1.715,10.552,
40208500,-0.114,-0.476,0.903,-42.717,7.28,9.257,
40208510,-0.21,-0.505,0.883,-35.35,4.69,8.47,
40208520,-0.092,-0.44,0.922,-26.512,-2.292,7.682,
40208530,0.005,-0.266,1.026,-20.632,-7.752,10.307,
40208540,-0.031,-0.3,1.026,-30.642,-9.572,18.83,
40208550,-0.042,-0.272,1.101,-41.23,-9.992,22.487,
40208560,-0.051,-0.165,1.237,-61.005,-7.14,22.05,
40208570,-0.079,-0.172,1.302,-93.117,-4.707,21.035,
40208580,0.05,-0.166,1.288,-125.177,-2.625,21.227,
40208590,0,-0.24,1.165,-153.422,4.13,20.405,
40208600,0.001,-0.319,1.037,-174.685,12.022,16.38,
40208610,0.04,-0.289,1.074,-186.077,9.8,12.302,
40208620,-0.049,-0.376,1.042,-207.182,4.462,17.412,
40208630,-0.057,-0.576,1.103,-215.74,-11.637,27.58,
40208640,0.046,-0.773,0.835,-196.892,-23.887,36.925,
40208650,-0.009,-0.853,0.87,-163.152,-37.887,44.397,
40208660,-0.08,-1.048,0.882,-143.99,-58.957,38.972,
40208670,0.104,-0.854,0.376,-86.047,-77.857,29.085,
40208680,0.16,-0.726,0.678,-42.525,-49.157,43.19,
40208690,-0.298,-0.891,0.628,-24.902,-44.992,51.467,
40208700,0.979,-0.327,0.271,32.987,-16.992,42.577,
40208710,0.901,0.704,-0.103,86.047,57.19,38.815,
40208720,0.237,1.012,-0.228,91.245,104.265,-46.182,
40208730,-0.315,1.001,-0.27,51.782,124.967,-108.902,
40208740,-0.236,1.057,-0.411,43.172,149.222,-111.737,
40208750,0.144,0.955,-0.498,50.732,176.225,-84.14,
40208750,-0.083,-1.852,0.507,-48.65,256.55,-56.332,
40208760,-1.281,-1.998,-0.447,3.412,93.695,129.5,
40208770,-0.643,0.749,0.717,478.31,4.655,113.26,
40208780,-1.942,1.954,1.998,485.957,-66.255,57.767,
40208790,-1.64,-1.535,0.883,123.847,-173.495,24.762,
40208800,-0.605,-0.187,1.762,289.152,-192.01,-39.515,
40208810,1.418,1.932,1.868,255.535,-151.27,-88.06,
40208820,1.266,0.503,1.158,27.16,-74.777,-46.742,
40208830,0.602,-0.106,1.037,-37.187,-4.235,-8.697,
40208840,0.126,-0.404,0.936,-60.287,26.897,-0.315,
40208850,-0.062,-0.322,0.987,-55.177,34.177,6.282,
40208860,-0.49,-0.678,0.835,-60.252,31.08,6.737,
40208870,-0.33,-0.542,0.859,-37.397,16.415,-3.727,
40208880,-0.135,-0.365,0.97,-25.76,4.935,-7.402,
40208890,-0.017,-0.311,1.008,-27.86,-0.945,-3.15,
40208900,-0.077,-0.303,1.055,-36.4,-1.557,4.987,
40208910,-0.159,-0.228,1.153,-50.085,-1.662,7.332,
40208920,-0.171,-0.206,1.223,-75.005,-0.962,4.55,
40208930,-0.147,-0.301,1.172,-103.285,-0.175,-1.96,
40208940,-0.161,-0.345,1.118,-126.192,5.04,-12.792,
40208950,-0.167,-0.447,1.056,-147.507,11.13,-26.075,
40208960,-0.173,-0.449,1.001,-154.805,10.727,-36.015,
40208970,-0.101,-0.408,0.953,-147.735,0.49,-40.267,
40208980,-0.032,-0.477,0.899,-156.135,-11.13,-36.977,
40208990,-0.002,-0.671,0.77,-158.83,-23.38,-28,
40209000,0.052,-0.735,0.665,-137.777,-28.787,-15.575,
40209010,0.111,-0.634,0.526,-111.65,-29.015,-1.68,
40209020,-0.059,-0.663,0.634,-93.327,-26.74,5.722,
40209030,0.021,-0.595,0.537,-74.97,-29.05,9.992,
40209040,0.086,-0.535,0.479,-46.427,-29.802,14.402,
40209050,0.087,-0.624,0.479,-28.682,-21.315,21.192,
40209060,0.034,-0.721,0.336,-6.457,-11.305,25.795,
40209070,0.035,-0.564,0.354,22.242,-0.945,29.627,
40209080,0.035,-0.508,0.37,37.257,14.07,36.942,
40209080,-0.005,-0.588,0.522,42.035,35.455,43.365,
40209100,-0.147,-0.816,0.646,50.12,47.862,39.655,
40209100,-0.236,-0.827,0.541,75.04,40.495,19.092,
40209120,-0.246,-0.617,0.547,109.042,34.177,7.822,
40209120,-0.276,-0.613,0.962,115.395,36.452,-2.012,
40209140,-0.419,-0.807,0.903,112.122,19.652,-26.372,
40209140,-0.362,-0.631,0.849,132.352,9.38,-46.935,
40209160,-0.242,-0.302,0.942,142.135,8.767,-56.472,
40209160,-0.28,-0.108,1.337,115.92,8.802,-67.725,
40209170,-0.355,-0.182,1.255,76.335,2.607,-80.01,
40209180,-0.202,-0.174,1.241,49.822,0.14,-86.957,
40209190,-0.089,-0.15,1.344,15.365,6.807,-91.84,
40209200,-0.009,-0.192,1.359,-23.607,17.657,-97.562,
40209210,-0.166,-0.296,1.352,-58.485,23.012,-99.61,
40209220,-0.17,-0.393,1.152,-86.695,19.215,-92.942,
40209230,-0.099,-0.49,0.98,-99.96,17.062,-68.652,
40209240,0.048,-0.583,0.969,-102.585,23.362,-47.092,
40209250,0.201,-0.606,0.97,-99.347,41.825,-39.445,
40209260,0.058,-0.602,0.818,-80.36,54.74,-43.295,
40209270,-0.031,-0.661,0.918,-57.312,53.235,-52.272,
40209280,0.032,-0.787,0.802,-52.272,56.997,-45.815,
40209290,0.452,-0.994,0.89,-44.047,81.287,-13.16,
40209300,-0.623,-0.455,1.177,-1.487,116.62,28.087,
40209310,-0.374,-0.669,0.542,60.62,109.62,3.535,
40209320,-0.003,-0.468,0.405,40.67,42.84,-9.695,
40209330,0.749,-0.548,0.326,-6.335,5.757,-26.075,
40209340,0.825,-1.121,0.494,-60.532,20.825,-34.702,
40209350,0.201,-1.334,0.255,-66.062,29.96,-28.087,
40209360,-0.024,-0.832,-0.042,-34.702,13.195,-29.96,
40209370,0.031,-0.443,-0.259,-30.887,-17.955,-26.162,
40209380,0.059,-0.296,-0.213,-59.01,-39.217,3.955,
40209390,-0.061,-0.347,-0.117,-115.22,-66.202,39.69,
40209400,-0.171,-0.515,-0.246,-145.145,-106.26,68.162,
40209410,-0.011,-0.311,-0.37,-123.445,-141.75,88.602,
40209420,0.403,0.272,0.555,-108.605,-152.95,99.715,
40209420,1.287,-0.893,1.886,-64.155,84.07,133.227,
40209440,-1.781,0.539,-0.952,226.1,26.565,154.7,
40209440,-0.916,0.012,1.255,223.352,-81.952,55.65,
40209460,-0.74,-1.998,-0.011,88.917,-83.825,154.28,
40209460,-0.188,-1.343,0.466,203.052,-63.595,125.23,
40209480,-1.664,0.769,1.052,327.302,-54.74,14.052,
40209480,-0.698,-0.643,0.924,223.16,-70.752,-38.99,
40209500,-0.1,-0.646,1.281,228.077,-76.282,-85.68,
40209500,0.354,0.134,1.663,239.277,-75.722,-94.535,
40209510,0.849,0.416,1.512,155.242,-65.747,-48.86,
40209520,0.365,0.378,1.307,76.142,-34.352,-11.375,
40209530,0.216,-0.015,1.121,3.535,-6.58,-0.07,
40209540,0.161,-0.045,1.125,-33.11,16.082,-4.9,
40209550,0.013,-0.287,1.05,-65.695,28.332,-4.252,
40209560,-0.18,-0.371,1.022,-78.575,33.022,-3.482,
40209570,-0.388,-0.253,1.045,-82.057,35.28,-16.082,
40209580,-0.394,-0.812,0.838,-92.855,33.547,-37.467,
40209590,-0.303,-0.424,1.02,-87.342,35.315,-54.862,
40209600,-0.202,-0.421,0.982,-94.132,37.87,-71.172,
40209610,-0.114,-0.452,1.021,-109.952,42.087,-77.787,
40209620,-0.069,-0.41,1.057,-119.77,47.46,-80.377,
40209630,-0.024,-0.43,1.005,-133.735,52.167,-83.667,
40209640,0.054,-0.443,0.943,-146.212,57.505,-83.912,
40209650,0.158,-0.475,0.854,-156.117,63.175,-77.367,
40209660,0.124,-0.614,0.954,-166.635,82.6,-62.982,
40209670,-0.064,-0.85,0.875,-163.835,102.515,-52.937,
40209680,0.093,-0.906,0.949,-136.937,115.605,-57.312,
40209690,0.052,-1.064,0.47,-118.79,138.88,-46.427,
40209700,-0.224,-1.167,0.371,-88.112,157.027,-46.392,
40209710,-0.348,-1.592,0.099,-52.937,152.687,-73.535,
40209720,-0.074,-1.989,0.409,-24.255,134.487,-93.555,
40209730,0.843,-1.998,-0.864,16.87,151.917,-73.01,
40209740,-0.19,-1.483,-0.658,67.322,81.445,-129.167,
40209750,-0.936,-1.034,-1.305,81.007,12.88,-222.652,
40209760,-1.359,-0.055,-1.381,60.69,22.872,-167.667,
40209770,-1.354,1.118,-0.465,-40.285,12.792,-68.652,
40209780,-0.674,1.94,0.002,-122.535,24.64,50.68,
40209790,0.963,1.715,1.83,-84.787,6.072,55.23,
40209800,0.262,-0.92,-0.361,157.412,8.067,77.63,
40209810,-1.977,-1.998,-0.847,341.197,-109.2,17.57,
40209820,0.494,-0.827,0.117,344.172,-95.427,72.275,
40209830,-0.879,1.932,1.872,549.36,-93.31,57.417,
40209830,-1.16,-1.095,1.915,349.562,-156.94,-0.315,
40209850,-0.048,0.713,1.958,316.802,-160.86,-24.115,
40209850,1.25,1.655,1.692,170.222,-106.575,-55.667,
