#Format version: 1.0
time[ms],accX[g],accY[g],accZ[g],Value 1,Value 2,Value 3,
39134430,-0.035,0.168,0.98,-7.787,-15.54,6.58,
39134440,-0.025,0.169,0.978,-7.35,-15.347,6.65,
39134450,-0.022,0.166,0.977,-6.842,-14.315,6.282,
39134460,-0.001,0.16,0.979,-6.195,-13.632,5.74,
39134470,0,0.161,0.976,-5.04,-11.427,5.11,
39134480,-0.011,0.167,0.977,-4.06,-10.045,4.042,
39134490,-0.012,0.167,0.974,-3.605,-8.47,3.657,
39134500,-0.008,0.171,0.973,-2.94,-7.752,3.29,
39134510,-0.016,0.172,0.971,-2.327,-6.562,2.852,
39134520,-0.022,0.171,0.972,-2.135,-6.352,2.572,
39134530,-0.023,0.174,0.973,-1.68,-5.74,2.712,
39134540,-0.034,0.174,0.975,-1.54,-6.002,2.31,
39134550,-0.032,0.175,0.975,-1.68,-6.02,2.24,
39134560,-0.029,0.17,0.978,-1.627,-6.527,2.31,
39134570,-0.025,0.174,0.974,-1.68,-6.352,2.345,
39134580,-0.021,0.171,0.976,-1.522,-6.44,2.45,
39134590,-0.014,0.165,0.979,-1.452,-5.862,2.59,
39134600,-0.014,0.165,0.979,-0.91,-5.197,2.537,
39134610,-0.014,0.162,0.982,-0.455,-4.235,2.432,
39134620,-0.011,0.162,0.981,0.21,-3.36,2.205,
39134630,-0.011,0.163,0.981,0.805,-2.397,1.785,
39134640,-0.012,0.162,0.979,1.312,-1.487,1.4,
39134650,-0.01,0.164,0.98,1.732,-0.77,0.997,
39134660,-0.007,0.162,0.979,2.257,0.21,0.647,
39134670,0.006,0.163,0.974,2.957,1.19,0.245,
39134670,0.018,0.17,0.969,4.06,3.307,0.122,
39134690,-0.006,0.167,0.972,5.25,5.652,0.122,
39134690,-0.05,0.176,0.975,6.125,6.93,-0.052,
39134710,-0.076,0.19,0.973,6.422,5.127,-0.63,
39134710,-0.049,0.18,0.974,5.407,3.045,-0.822,
39134730,-0.033,0.179,0.971,5.215,1.802,-0.682,
39134730,-0.027,0.178,0.97,5.285,2.187,-0.21,
39134750,-0.025,0.179,0.97,5.547,2.292,0.035,
39134750,-0.013,0.172,0.974,6.387,3.657,0.525,
39134760,-0.043,0.196,0.966,7.455,4.042,0.315,
39134770,-0.049,0.193,0.967,7.07,3.832,0.157,
39134780,-0.024,0.179,0.972,6.527,3.237,0.297,
39134790,-0.036,0.196,0.968,6.65,4.025,0.315,
39134800,-0.043,0.191,0.972,6.142,3.727,0.385,
39134810,-0.035,0.198,0.976,5.792,4.042,0.7,
39134820,-0.031,0.202,0.975,6.107,3.972,0.735,
39134830,-0.028,0.184,0.983,5.6,5.057,0.367,
39134840,-0.025,0.162,0.992,5.652,5.827,-0.98,
39134850,-0.038,0.179,0.99,6.457,7.962,-1.767,
39134860,-0.094,0.183,0.989,6.772,8.767,-2.467,
39134870,-0.1,0.185,0.988,6.072,8.12,-2.87,
39134880,-0.103,0.196,0.981,5.845,6.23,-2.782,
39134890,-0.128,0.199,0.977,4.235,4.812,-2.1,
39134900,-0.137,0.209,0.975,2.31,1.855,-1.067,
39134910,-0.129,0.218,0.971,-0.017,-1.12,0.455,
39134920,-0.123,0.21,0.972,-2.66,-4.62,1.575,
39134930,-0.111,0.208,0.974,-4.777,-7.437,2.537,
39134940,-0.093,0.199,0.977,-6.265,-10.185,3.167,
39134950,-0.079,0.196,0.977,-7.332,-11.777,3.64,
39134960,-0.073,0.193,0.978,-8.295,-13.055,3.657,
39134970,-0.061,0.192,0.976,-8.785,-13.947,3.902,
39134980,-0.053,0.187,0.975,-9.152,-14.542,3.902,
39134990,-0.042,0.184,0.977,-9.397,-14.7,3.99,
39135000,-0.026,0.18,0.977,-9.082,-14.42,4.095,
39135010,-0.015,0.174,0.976,-8.33,-13.58,3.885,
39135020,-0.01,0.173,0.975,-7.297,-12.075,3.307,
39135030,-0.013,0.179,0.973,-5.967,-10.727,2.712,
39135040,-0.019,0.18,0.972,-4.987,-9.31,2.065,
39135050,-0.022,0.18,0.971,-4.305,-8.592,1.452,
39135060,-0.022,0.181,0.972,-3.745,-7.542,1.207,
39135070,-0.032,0.18,0.972,-3.29,-6.947,1.102,
39135080,-0.029,0.182,0.972,-3.132,-6.177,1.277,
39135080,-0.026,0.178,0.975,-2.765,-5.932,1.54,
39135100,-0.027,0.175,0.978,-2.625,-5.092,1.522,
39135100,-0.029,0.177,0.976,-2.275,-4.952,1.172,
39135120,-0.026,0.18,0.974,-2.17,-4.287,0.91,
39135120,-0.025,0.173,0.976,-2.117,-4.34,0.262,
39135130,-0.037,0.18,0.977,-2.03,-3.727,-0.297,
39135140,-0.035,0.179,0.976,-1.855,-4.165,-0.63,
39135150,-0.025,0.173,0.978,-2.1,-3.657,-0.63,
39135160,-0.018,0.175,0.975,-1.68,-3.482,-0.612,
39135170,-0.008,0.17,0.977,-1.365,-1.925,-0.455,
39135180,-0.012,0.17,0.981,-0.787,-0.822,-0.7,
39135190,-0.022,0.168,0.982,-0.262,0.787,-1.155,
39135200,-0.018,0.17,0.983,0.14,1.452,-1.767,
39135210,-0.019,0.167,0.987,0.227,3.01,-2.327,
39135220,-0.022,0.171,0.986,0.262,3.955,-3.097,
39135230,-0.015,0.162,0.989,0,5.775,-3.272,
39135240,-0.017,0.167,0.991,-0.105,7.35,-3.517,
39135250,-0.029,0.168,0.991,-0.385,9.432,-3.71,
39135260,-0.042,0.166,0.995,-1.522,10.43,-4.025,
39135270,-0.044,0.17,0.993,-2.922,11.55,-4.112,
39135280,-0.048,0.176,0.99,-4.585,12.022,-4.235,
39135290,-0.062,0.169,0.995,-7.14,12.635,-4.445,
39135300,-0.085,0.163,1.004,-10.132,12.022,-4.777,
39135310,-0.091,0.16,1.005,-13.107,10.587,-4.97,
39135320,-0.175,0.18,0.999,-16.537,7.752,-5.25,
39135330,-0.241,0.196,1.011,-22.837,2.87,-4.97,
39135340,-0.331,0.222,1.012,-30.992,-7.157,-4.655,
39135350,-0.407,0.228,1.049,-42.822,-21.945,-4.847,
39135360,-0.391,0.202,1.126,-61.32,-39.025,-5.845,
39135370,-0.385,0.196,1.213,-79.292,-61.057,-5.495,
39135380,-0.351,0.196,1.121,-94.29,-87.64,-0.35,
39135390,-0.122,0.179,1.012,-102.042,-111.737,10.045,
39135400,0.07,0.087,1.073,-94.325,-115.465,23.397,
39135410,0,-0.023,1,-61.775,-115.815,40.81,
39135420,0.023,-0.059,1.071,-12.932,-112.787,49.962,
39135420,0.226,-0.135,0.95,25.41,-109.655,55.667,
39135440,0.223,-0.153,0.946,38.745,-82.442,57.995,
39135440,-0.192,0.085,1.013,44.642,-60.55,57.47,
39135460,-0.101,0.109,1.053,44.187,-40.232,57.96,
39135460,0.047,0.026,1.005,39.742,-28.857,65.852,
39135480,-0.02,-0.007,1.015,39.27,-4.217,70.087,
39135480,-0.141,-0.136,0.976,43.19,21.14,78.435,
39135500,-0.401,-0.293,0.92,51.59,25.865,97.09,
39135500,-0.342,-0.493,0.909,60.217,3.22,126.735,
39135510,0.121,-0.626,0.963,50.172,-0.7,157.745,
39135520,0.346,-0.782,0.984,34.545,3.605,172.235,
39135530,0.213,-0.903,0.991,30.135,9.555,169.89,
39135540,-0.025,-0.815,0.903,26.39,8.96,156.117,
39135550,-0.038,-0.795,0.795,11.812,4.165,123.777,
39135560,0.003,-0.976,0.82,-17.097,14.437,77.35,
39135570,-0.179,-1.016,0.896,-47.88,34.335,19.862,
39135580,-0.328,-0.935,0.976,-73.412,51.905,-41.527,
39135590,-0.341,-0.884,1.06,-95.06,69.107,-91.805,
39135600,-0.371,-0.749,1.123,-110.74,81.742,-130.655,
39135610,-0.38,-0.589,1.184,-121.03,89.67,-158.025,
39135620,-0.327,-0.478,1.242,-130.427,94.185,-175.63,
39135630,-0.262,-0.399,1.248,-132.65,97.755,-188.072,
39135640,-0.211,-0.291,1.227,-125.982,100.817,-196.717,
39135650,-0.165,-0.211,1.197,-118.107,105.017,-200.305,
39135660,-0.124,-0.148,1.161,-110.652,109.76,-199.395,
39135670,-0.11,-0.079,1.096,-101.167,112.647,-194.565,
39135680,-0.007,0.01,1.04,-93.887,113.75,-186.707,
39135690,0.033,0.1,1.031,-91.105,112.332,-176.592,
39135700,0.089,0.219,0.949,-88.882,109.34,-170.817,
39135710,0.28,0.475,1.02,-80.272,122.097,-155.207,
39135720,-0.11,0.705,0.947,-63.017,121.73,-139.23,
39135730,-0.299,1.108,0.722,-24.237,88.375,-139.877,
39135740,-0.298,1.492,0.623,7.087,61.635,-105.647,
39135750,-0.421,1.926,0.83,35.892,44.73,-49.752,
39135760,-0.442,1.997,0.942,83.055,14.087,0.14,
39135770,0.132,1.997,0.911,151.532,-27.37,59.605,
39135780,0.468,1.829,0.803,208.32,-73.99,103.74,
39135790,0.183,0.145,1.288,206.01,-101.85,58.607,
39135800,-1.104,-1.101,1.461,175.472,-112.91,-26.442,
39135800,-0.367,-1.204,1.519,211.872,-109.165,-18.06,
39135820,0.198,0.236,1.065,216.265,-86.082,26.057,
39135820,-0.259,0.712,0.927,213.745,-80.657,10.167,
39135830,0.201,0.285,1.398,168.49,-63.262,16.887,
39135840,0.445,-0.039,1.457,126.49,-29.085,8.452,
39135850,-0.028,0.583,1.122,118.352,-2.59,-15.557,
39135860,-0.065,0.837,0.804,90.842,4.497,-7.752,
39135870,-0.226,0.448,0.914,34.44,-2.187,-10.482,
39135880,-0.32,0.292,0.967,11.637,-15.82,-14.227,
39135890,-0.144,0.251,0.94,11.585,-28.63,-9.625,
39135900,-0.016,0.189,0.97,1.75,-32.025,-8.715,
39135910,-0.053,0.17,0.988,-0.28,-27.965,-7.07,
39135920,-0.022,0.178,0.985,0.367,-23.537,-1.19,
39135930,0.028,0.176,0.988,0.787,-17.902,2.485,
39135940,-0.031,0.222,0.962,2.415,-13.037,3.465,
39135950,-0.116,0.242,0.96,-1.89,-11.27,3.762,
39135960,-0.082,0.217,0.969,-6.002,-14.385,3.815,
39135970,-0.049,0.197,0.974,-9.415,-16.082,2.94,
39135980,-0.036,0.165,0.99,-11.392,-16.975,0.735,
39135990,-0.048,0.174,0.988,-10.185,-16.59,-0.98,
39136000,-0.065,0.187,0.98,-8.645,-17.57,-2.52,
39136010,-0.042,0.2,0.97,-8.242,-18.34,-2.642,
39136020,-0.036,0.214,0.963,-7.28,-18.602,-1.872,
39136030,-0.022,0.209,0.961,-6.58,-17.36,0.455,
39136040,-0.01,0.183,0.978,-6.562,-15.382,2.887,
39136050,-0.014,0.156,0.994,-6.632,-12.442,3.972,
39136060,0.015,0.15,0.982,-5.582,-9.59,4.025,
39136070,0.067,0.176,0.95,-2.52,-5.425,4.287,
39136080,0.031,0.197,0.941,0.245,-1.102,3.412,
39136090,-0.004,0.191,0.951,1.487,1.05,1.855,
39136100,0.002,0.183,0.959,2.03,2.222,1.207,
39136110,-0.004,0.174,0.971,2.327,3.325,0.052,
39136120,-0.013,0.171,0.978,2.625,4.847,-1.137,
39136130,-0.038,0.178,0.979,3.797,6.352,-1.19,
39136140,-0.061,0.179,0.986,4.427,7.297,-0.507,
39136150,-0.049,0.177,0.98,5.005,6.72,-0.087,
39136160,-0.032,0.187,0.973,5.617,7.087,0.752,
39136170,-0.051,0.184,0.979,5.652,7.21,0.682,
39136170,-0.079,0.179,0.988,5.442,7.14,0.245,
39136190,-0.087,0.195,0.971,5.967,5.74,-0.227,
39136190,-0.079,0.219,0.949,6.23,4.795,0.525,
39136210,-0.051,0.234,0.924,5.512,3.202,1.54,
39136210,-0.039,0.261,0.915,5.897,3.132,4.795,
39136230,-0.073,0.229,0.946,2.642,2.782,7.735,
39136230,-0.047,0.251,0.944,0.595,2.59,12.092,
39136250,-0.063,0.258,0.955,-1.33,1.26,16.502,
39136250,-0.08,0.256,0.98,-7.122,-0.455,18.672,
39136260,-0.04,0.253,0.992,-12.635,-3.255,20.667,
39136270,-0.035,0.276,0.996,-19.04,-4.182,21.122,
39136280,0.066,0.223,0.994,-28.507,-4.042,20.807,
39136290,0.111,0.259,0.995,-35.822,2.292,21.017,
39136300,0.127,0.248,1.079,-42.455,10.115,20.877,
39136310,0.052,0.518,1.133,-60.795,19.915,19.372,
39136320,0,0.441,1.303,-92.82,26.652,13.965,
39136330,0.084,0.462,1.677,-155.487,37.275,-0.857,
39136340,-0.113,1.093,1.481,-237.947,75.18,-5.46,
39136350,0.024,0.885,1.327,-313.547,84.315,-16.835,
39136360,0.088,0.553,1.212,-388.57,87.185,-23.1,
39136370,0.042,0.291,1.216,-425.617,101.5,-32.69,
39136380,0.143,-0.01,1.203,-432.932,120.155,-41.755,
39136390,-0.085,-0.291,1.27,-425.967,140.21,-55.3,
39136400,-0.294,-0.436,1.223,-409.535,114.87,-76.3,
39136410,0.34,-0.607,1.23,-380.975,64.417,-67.357,
39136420,-0.733,0.24,1.005,-309.102,49.577,21.752,
39136430,0.257,-0.357,0.739,-126.787,31.622,47.652,
39136440,0.673,-0.605,0.652,-109.725,67.112,52.587,
39136450,0.151,0.07,0.798,-124.67,99.592,45.692,
39136460,0.039,1.033,1.132,-109.917,48.685,41.037,
39136470,0.379,-0.222,1.097,-66.185,-15.295,58.45,
39136480,0.919,-0.439,0.713,57.015,-65.992,35.087,
39136490,0.489,0.116,0.343,165.375,-64.102,0.997,
39136500,-0.267,0.165,0.048,180.267,-80.185,-38.36,
39136510,-0.554,0.041,-0.18,149.59,-112.385,-39.917,
39136510,-0.204,-0.04,-0.134,138.687,-119.017,-4.725,
39136530,-0.044,-0.114,0.159,126.245,-100.38,11.042,
39136530,-0.26,-0.357,0.6,90.562,-74.742,12.32,
39136550,-0.375,-0.653,0.945,64.277,-69.842,18.777,
39136550,-0.317,-0.731,0.949,78.382,-86.502,36.715,
39136570,-0.251,-0.552,0.733,114.712,-115.727,49.402,
39136570,-0.152,-0.386,0.342,134.172,-141.452,55.597,
39136580,0,-0.226,0.022,152.04,-146.422,58.152,
39136590,-0.069,-0.079,-0.038,152.967,-128.45,45.43,
39136600,-0.225,-0.078,0.46,122.43,-108.22,21.017,
39136610,-1.935,-1.485,1.998,77.332,-97.982,-32.095,
39136620,-0.003,-1.998,0.109,196.805,-83.23,-170.94,
39136630,0.498,-0.905,0.543,498.54,0.787,-10.937,
39136640,-1.431,1.9,0.414,546.612,-59.727,-70.21,
39136650,1.255,1.657,1.377,484.68,-58.625,-23.782,
39136660,1.759,-1.197,1.998,369.075,80.045,-3.85,
39136670,-1.812,1.867,0.106,262.955,168.507,-57.82,
39136680,-0.042,0.568,0.334,133.227,11.987,22.557,
39136690,-1.185,0.558,1.079,-114.03,-49.857,13.527,
39136700,0.493,0.086,1.06,-63.315,-95.13,24.097,
39136710,0.104,0.069,0.988,-50.19,-83.58,22.155,
39136720,0.656,-0.307,1.079,-64.61,-59.15,20.37,
39136730,0.402,-0.11,1.017,-31.587,-26.11,18.585,
39136740,0.343,-0.119,0.992,-3.482,1.417,21.91,
39136750,0.194,-0.102,1.018,14.647,22.557,19.74,
39136760,0.064,0.203,0.994,28.227,34.562,14.245,
39136770,-0.04,0.251,0.976,25.077,37.24,10.272,
39136780,0.003,0.219,0.999,12.11,34.965,5.197,
39136790,-0.159,0.328,1,0.56,33.775,3.027,
39136800,-0.259,0.405,1.01,-15.925,25.672,0.42,
39136810,-0.155,0.417,1.07,-38.36,14.192,-3.797,
39136820,0.061,0.317,1.166,-63.297,10.797,-7.28,
39136830,0.102,0.338,1.225,-88.165,21.84,-14.262,
39136840,0.12,0.336,1.241,-117.845,40.95,-24.202,
39136850,-0.054,0.263,1.173,-158.637,56.927,-28.717,
39136860,-0.075,0.228,1.04,-202.79,60.025,-17.447,
39136870,-0.115,0.219,1.143,-233.117,49.7,-0.07,
39136880,-0.124,0.257,1.111,-254.975,44.31,15.802,
39136890,-0.097,0.051,1.201,-265.685,41.387,27.492,
39136900,0.116,0.017,1.308,-282.712,55.335,33.565,
39136910,0.203,-0.067,1.367,-282.012,92.872,46.375,
39136920,0.065,-0.232,1.398,-257.53,93.03,49.927,
39136920,0.111,-0.368,1.076,-207.462,51.765,52.867,
39136940,0.371,-0.188,0.709,-124.565,20.335,74.987,
39136940,0.567,0.512,0.513,-49.717,-9.275,111.317,
39136960,0.232,1.701,0.268,48.58,-51.432,127.295,
39136960,1.553,1.951,-0.392,169.032,-77.84,148.575,
39136980,1.327,1.596,-1.449,246.382,-83.51,179.182,
39136980,0.674,1.954,-1.218,282.275,-149.747,71.137,
39137000,-0.973,-0.203,1.222,138.215,-186.112,-19.18,
39137000,-1.998,-1.998,1.585,42.472,-210.875,-250.32,
39137010,-0.267,-1.498,1.722,404.705,-101.01,-119.805,
39137020,1.443,1.989,0.761,568.54,-4.742,70.542,
39137030,0.889,0.861,1.778,485.31,95.742,-56.227,
39137040,-1.764,1.72,-0.856,172.987,109.882,-99.522,
39137050,0.046,-0.122,1.234,-38.202,-14.227,44.467,
39137060,-0.701,-0.28,1.151,-92.732,-83.667,5.53,
39137070,0.536,0.136,1.03,-42.087,-88.55,55.702,
39137080,0.4,-0.221,1.035,-32.112,-66.29,33.512,
39137090,0.175,0.012,1.065,-38.99,-36.487,28.052,
39137100,0.229,-0.04,0.993,-11.497,-22.085,22.225,
39137110,0.155,-0.038,1.036,-4.935,-8.977,13.685,
39137120,0.199,0.209,0.982,12.915,1.172,7.927,
39137130,0.103,0.217,0.962,14.017,9.765,6.335,
39137140,0.104,0.178,1.009,5.495,16.222,4.112,
39137150,-0.003,0.261,0.977,5.442,22.137,4.847,
39137160,-0.074,0.321,0.984,-7.297,23.257,1.697,
39137170,-0.092,0.316,1.009,-24.272,21,-1.872,
39137180,0.013,0.301,1.047,-40.617,20.212,-4.952,
39137190,0.067,0.269,1.091,-53.287,25.62,-4.795,
39137200,0.101,0.223,1.119,-67.567,36.96,2.03,
39137210,0.192,-0.085,1.287,-89.985,42.087,19.565,
39137220,0.129,0.403,1.195,-132.86,54.162,66.237,
39137230,-0.075,0.383,1.17,-164.832,40.652,117.565,
39137240,-0.157,0.353,1.16,-227.465,29.662,156.835,
39137250,0.111,0.204,1.196,-259.665,13.842,191.345,
39137260,0.311,-0.187,1.358,-280.192,-6.702,225.785,
39137260,0.627,-0.61,1.631,-302.137,-32.375,257.267,
39137280,1.175,-0.792,1.583,-285.127,-33.827,297.535,
39137280,1.62,-0.313,1.359,-220.797,-17.92,333.357,
39137300,1.171,0.713,0.714,-142.502,3.85,370.86,
39137300,0.748,0.953,0.466,-53.165,-11.217,366.502,
39137320,1.045,1.236,0.229,-10.57,-35.122,343.892,
39137320,1.822,1.589,0.725,34.72,-47.302,334.355,
39137330,1.998,0.392,0.042,88.725,-81.585,242.06,
39137340,0.733,0.941,-0.825,182.805,-145.81,43.697,
39137350,-1.062,1.263,-1.428,211.277,-238.122,-130.917,
39137360,-0.934,0.229,-0.296,96.915,-236.425,-156.467,
39137370,-1.878,-0.969,1.751,-52.01,64.155,-123.217,
39137380,-0.293,-1.998,1.998,187.775,38.237,-169.102,
39137390,-0.286,0.427,0.912,488.355,161.227,149.782,
39137400,-0.278,1.612,0.162,564.357,58.712,-29.872,
39137410,0.214,0.224,1.184,240.712,51.03,-73.517,
39137420,-0.802,0.628,0.286,12.46,39.83,-58.17,
39137430,-1.494,0.92,0.958,-69.877,-41.177,-0.927,
39137440,0.032,-0.088,1.149,-45.727,-111.195,-3.29,
39137450,0.211,-0.065,1.012,-53.952,-94.272,15.995,
39137460,0.341,-0.172,1.07,-71.277,-65.065,13.265,
39137470,0.375,-0.097,1.02,-63.542,-36.925,21.962,
39137480,0.374,-0.271,0.999,-34.772,-15.592,23.152,
39137490,0.28,0.002,1.011,-5.215,4.112,18.147,
39137500,0.121,0.1,0.98,16.607,17.762,18.287,
39137510,0.01,0.203,1.021,19.372,24.657,14.752,
39137520,-0.038,0.284,0.983,18.305,24.867,11.462,
39137530,-0.087,0.217,0.987,4.97,23.572,8.19,
39137540,-0.119,0.259,1.001,-5.775,21.717,6.527,
39137550,-0.113,0.307,0.982,-14.245,17.797,5.267,
39137560,-0.058,0.292,1.029,-30.992,15.47,4.445,
39137570,-0.124,0.358,1.052,-42.84,15.015,6.142,
39137580,-0.087,0.358,1.092,-59.605,12.775,7.42,
39137590,0.083,0.156,1.134,-82.6,11.672,10.395,
39137600,0.403,0.114,1.268,-117.302,25.147,24.867,
39137610,0.033,0.299,1.109,-143.5,41.16,49.7,
39137620,-0.051,0.114,1.092,-171.622,41.895,65.94,
39137630,0.039,0.054,1.13,-198.642,55.685,73.15,
39137640,0.159,-0.193,1.158,-205.73,68.985,84.665,
39137650,0.204,-0.428,1.103,-204.155,83.02,102.41,
39137660,0.244,-0.583,1.027,-183.12,81.077,115.377,
39137670,-0.081,-0.629,1.024,-150.482,72.87,116.777,
39137670,-0.068,-0.686,0.973,-106.837,65.747,114.187,
39137690,0.104,-0.83,0.509,-23.94,67.655,114.24,
39137690,0.362,-0.455,-0.133,71.802,76.317,111.107,
39137710,0.515,0.09,-1.132,161.105,64.102,102.112,
39137710,-0.519,1.075,-0.004,203.017,2.38,87.237,
39137730,-1.998,0.578,0.042,160.755,-146.79,-29.085,
39137730,-1.736,-1.02,0.992,224.315,-208.442,-61.757,
39137750,-0.127,-0.734,1.631,313.075,-251.702,17.15,
39137750,1.873,-0.558,1.998,362.355,-161.455,65.537,
39137760,0.153,1.412,0.521,316.995,52.255,-58.59,
39137770,-1.789,1.289,-0.274,186.567,80.465,-10.307,
39137780,-1.221,0.687,1.04,-94.885,-2.607,36.855,
39137790,-0.483,-0.029,1.061,-53.252,-91.997,14.437,
39137800,0.446,-0.007,1.028,-46.515,-97.195,36.382,
39137810,0.37,-0.082,1.038,-42.997,-70.402,31.237,
39137820,0.288,-0.072,1.044,-41.772,-41.545,37.397,
39137830,0.095,0.042,1.028,-26.022,-24.78,30.397,
39137840,0.136,0.067,0.997,-9.1,-18.427,24.57,
39137850,0.174,0.017,1.001,-0.7,-9.765,19.197,
39137860,0.098,0.159,0.987,7.875,0.507,15.68,
39137870,0.017,0.221,0.975,12.425,6.965,15.067,
39137880,-0.13,0.317,0.963,6.86,8.242,14.385,
39137890,-0.229,0.294,0.956,-4.585,1.242,12.565,
39137900,-0.069,0.198,0.99,-16.24,-9.695,6.842,
39137910,0.004,0.189,0.983,-16.957,-14.612,1.977,
39137920,0.137,0.125,0.994,-17.202,-12.985,0.21,
39137930,0.167,0.155,0.988,-15.575,-5.18,-0.577,
39137940,0.155,0.151,0.992,-15.155,5.215,-0.227,
39137950,0.135,0.124,1.001,-16.765,15.907,0.875,
39137960,-0.026,0.174,1.015,-17.71,25.392,2.432,
39137970,-0.115,0.236,1.014,-21.612,26.04,3.377,
39137980,-0.11,0.265,1.017,-31.272,22.155,3.815,
39137990,-0.097,0.234,1.024,-44.537,17.097,3.36,
39138000,-0.093,0.202,1.031,-58.082,13.037,2.047,
39138010,-0.079,0.194,1.022,-69.405,9.047,1.015,
39138010,-0.06,0.152,1.003,-79.432,7.21,2.275,
39138030,-0.072,0.124,0.97,-86.712,4.97,6.282,
39138030,-0.255,0.065,0.946,-88.235,-1.032,13.667,
39138050,0.056,-0.008,0.98,-86.765,-22.347,21.787,
39138050,-0.134,0.047,0.927,-79.012,-14.945,32.427,
39138070,-0.099,0.03,0.929,-66.71,-20.562,29.995,
39138070,0.011,-0.014,0.93,-60.305,-19.6,29.855,
39138080,0.048,-0.043,0.944,-48.317,-16.94,27.86,
39138090,0.081,-0.033,0.952,-37.432,-12.372,25.445,
39138100,0.095,-0.034,0.97,-29.942,-7.577,21.927,
39138110,0.049,-0.02,1.003,-25.392,-3.237,17.745,
39138120,0.008,0.042,1.072,-23.905,-0.052,14.49,
39138130,-0.076,0.149,1.116,-30.73,1.102,9.957,
39138140,-0.17,0.223,1.125,-48.3,-1.19,1.592,
39138150,-0.198,0.252,1.091,-73.01,-7.752,-6.667,
39138160,-0.19,0.179,1.074,-95.13,-15.995,-12.6,
39138170,-0.142,0.035,1.071,-115.675,-21.42,-19.897,
39138180,0.031,0.071,1.209,-136.185,-19.792,-26.74,
39138190,-0.111,0.202,1.235,-163.677,-18.882,-27.737,
39138200,-0.238,0.19,1.229,-200.69,-34.79,-24.71,
39138210,-0.087,-0.001,1.237,-242.655,-54.495,-13.09,
39138220,0.053,-0.18,1.334,-269.36,-61.11,-1.382,
39138230,-0.13,-0.43,1.388,-279.965,-79.432,4.182,
39138240,-0.104,-1.096,1.223,-275.747,-87.465,5.67,
39138250,0.37,-1.572,1.375,-188.387,-57.347,-3.412,
39138260,0.225,-1.784,0.957,-51.485,-15.4,-38.587,
39138270,-0.573,-1.266,0.535,5.355,32.742,-32.252,
39138280,-0.775,-1.146,0.187,56.665,33.53,-35.717,
39138290,-0.586,-0.885,0.119,67.55,25.392,-8.697,
39138300,-0.139,-0.842,-0.145,85.557,6.387,12.582,
39138310,0.147,-0.462,-0.259,111.807,11.532,21.122,
39138320,-0.01,-0.046,-0.245,107.047,18.935,22.207,
39138330,-0.072,0.077,0.002,71.61,18.252,18.987,
39138340,0.071,-0.067,0.355,11.847,28.262,21.962,
39138350,0.102,-0.197,0.673,-37.502,42,16.502,
39138360,-0.038,-0.294,0.857,-47.057,45.15,-7.91,
39138370,-0.215,-0.341,0.938,-31.99,39.217,-29.767,
39138380,-0.314,-0.41,1.03,-9.625,31.115,-39.41,
39138390,-0.26,-0.588,1.121,4.655,20.79,-38.552,
39138400,0.007,-0.723,1.082,25.357,19.337,-40.547,
39138410,0.181,-0.562,1.169,45.272,31.132,-49.332,
39138420,0.24,-0.263,0.962,51.415,43.365,-66.832,
39138420,0.268,0.198,0.444,73.01,57.12,-87.99,
39138440,0.414,1.132,0.261,96.442,82.635,-89.215,
39138440,0.046,1.891,0.395,95.13,80.71,-76.755,
39138460,0.018,1.997,0.976,108.85,23.135,-91.735,
39138460,0.369,0.258,1.798,91.105,-15.382,-115.64,
39138480,1.039,-1.998,1.434,261.922,23.887,-185.692,
39138480,-1.476,-1.087,1.2,448.437,-39.2,-202.212,
39138500,1.061,1.44,0.611,473.725,-76.982,-36.05,
39138500,1.55,0.569,1.614,455.542,-28.28,65.432,
39138510,0.208,0.14,1.956,354.917,85.522,-1.802,
39138520,-1.675,1.976,0.526,249.2,103.915,1.155,
39138530,-0.768,1.163,0.513,99.452,16.537,4.165,
39138540,-0.491,0.372,1.042,-54.88,-38.867,-10.5,
39138550,0.216,-0.01,1.034,-41.37,-55.177,0.017,
39138560,-0.055,-0.03,0.991,-30.94,-41.72,4.427,
39138570,0.195,-0.072,1.052,-29.277,-32.217,5.53,
39138580,0.09,0.089,0.993,-10.657,-20.825,7.98,
39138590,0.103,0.043,1.011,-0.105,-11.847,10.955,
39138600,0.056,0.175,0.988,12.407,-5.197,9.712,
39138610,0.042,0.229,0.962,12.792,-0.822,8.207,
39138620,0.055,0.174,0.992,4.725,2.467,5.267,
39138630,-0.017,0.237,0.964,2.1,5.547,4.497,
39138640,-0.005,0.2,0.987,-7.192,6.93,3.43,
39138650,-0.047,0.262,0.986,-12.582,7.052,0.647,
39138660,-0.085,0.265,0.994,-19.88,5.302,-2.415,
39138670,0.015,0.26,1.021,-29.137,2.712,-6.16,
39138680,-0.003,0.249,1.05,-38.937,3.5,-9.17,
39138690,0.01,0.268,1.105,-51.817,6.16,-8.68,
39138700,0,0.344,1.148,-69.702,11.427,-7.857,
39138710,0.027,0.364,1.176,-97.86,20.177,-7.647,
39138720,-0.099,0.299,1.15,-130.865,24.64,-4.585,
39138730,-0.404,0.244,1.167,-165.882,5.442,3.045,
39138740,-0.11,0.105,1.205,-203.56,-13.93,21.542,
39138750,-0.206,0.053,1.109,-221.2,-2.117,23.205,
39138760,-0.05,-0.152,1.18,-225.54,19.11,14.91,
39138760,-0.111,-0.316,1.221,-227.377,51.03,12.477,
39138780,-0.28,-0.523,1.161,-205.957,55.125,-1.82,
39138780,-0.185,-1.1,1.09,-157.745,36.872,-20.737,
39138800,-0.075,-1.893,1.244,-87.692,80.29,-40.792,
39138800,-1.787,-1.587,0.403,49.77,123.742,-80.517,
39138820,-0.733,-0.666,-0.517,162.05,80.657,-53.917,
39138820,-0.016,-0.319,-0.506,148.085,60.375,4.777,
39138830,0.199,-0.442,-0.681,100.397,34.772,-9.135,
39138840,0.077,-0.166,-0.82,94.377,1.12,-37.012,
39138850,0.062,0.278,-0.729,80.57,-43.96,-51.135,
39138860,-0.352,1.897,1.65,-42.647,-117.95,-25.025,
39138870,-0.397,1.997,0.384,-100.432,-200.077,-28.017,
39138880,1.233,-0.754,1.711,354.2,-239.487,-43.435,
39138890,1.018,-1.244,1.998,392.91,-106.33,-67.62,
39138900,1.935,1.779,1.714,502.827,35.07,-36.47,
39138910,-1.295,1.997,-0.024,373.327,136.815,12.512,
39138920,-0.958,1.371,0.29,73.43,49.507,9.047,
39138930,-0.78,0.709,1.076,-99.68,-33.232,13.615,
39138940,0.119,0.02,1.087,-61.232,-69.317,29.802,
39138950,-0.051,-0.347,1.071,-65.712,-56.735,28.577,
39138960,0.245,-0.192,1.056,-74.83,-47.005,6.947,
39138970,0.326,-0.159,1.005,-58.397,-29.662,5.6,
39138980,0.145,-0.135,1.018,-26.81,-10.255,8.697,
39138990,0.068,-0.027,1.012,3.15,0.14,10.062,
39139000,0.063,0.175,1.015,19.827,5.547,8.505,
39139010,0.1,0.275,0.978,25.917,8.855,9.397,
39139020,0.048,0.176,0.976,16.17,14.402,10.097,
39139030,-0.049,0.176,1.001,6.282,18.217,8.015,
39139040,-0.062,0.283,0.969,0.525,18.462,7.28,
39139050,-0.075,0.257,0.999,-13.475,16.432,5.32,
39139060,0.013,0.251,1.02,-22.697,16.1,5.04,
39139070,0.045,0.256,1.036,-27.755,19.6,5.827,
39139080,0.109,0.249,1.077,-33.775,27.16,7.857,
39139090,0.209,0.292,1.128,-43.417,38.535,11.147,
39139100,0.248,0.169,1.185,-59.272,53.917,15.855,
39139110,0.226,0.074,1.277,-87.885,54.897,28,
39139120,0.391,0.052,1.244,-129.5,80.255,68.442,
39139130,0.14,0.134,1.199,-144.847,96.197,96.705,
39139140,0.047,0.109,1.126,-153.37,93.03,119.682,
39139150,0.375,-0.603,1.188,-163.327,99.907,145.967,
39139160,0.494,-0.992,1.351,-178.325,103.162,168.052,
39139170,0.214,-0.499,1.435,-151.97,82.337,183.102,
39139170,0.124,-0.691,1.669,-115.097,35.21,207.567,
39139190,0.51,-1.869,1.345,-115.465,-55.247,197.977,
39139190,1.966,-1.998,1.191,-107.1,-61.512,167.965,
39139210,1.129,-1.421,1.248,-34.405,-27.247,93.222,
39139210,-0.19,-0.174,-0.18,29.89,-102.935,-56.035,
39139220,-0.999,0.813,-0.969,63.542,-193.427,-150.447,
39139230,-1.027,1.543,-1.725,47.985,-214.585,-112.35,
39139240,-0.787,1.997,-1.944,56.875,-172.392,-12.372,
39139250,-0.203,1.997,-1.765,48.912,-138.88,36.61,
39139260,0.812,1.856,-0.01,-3.22,-49.665,1.242,
39139270,-1.972,-0.618,1.384,-81.13,96.862,-120.522,
39139280,1.04,-0.715,1.998,420.525,44.047,-79.275,
39139290,0.149,1.997,0.301,564.672,151.165,-61.495,
39139300,-1.914,1.635,-1.506,474.967,64.872,-77.192,
39139310,-1.201,0.655,0.552,-153.685,-36.96,16.852,
39139320,-0.408,-0.98,1.922,-392.35,-90.72,-3.92,
39139330,0.22,-0.616,1.33,-24.57,-119.717,34.387,
39139340,0.46,0.259,0.681,68.39,-93.1,48.212,
39139350,0.426,0.02,1.014,-50.697,-50.68,38.78,
39139360,0.254,-0.111,1.02,-58.765,-28.822,29.47,
39139370,0.273,-0.098,1.074,-25.69,-13.982,29.225,
39139380,0.231,0.234,0.908,9.52,-5.477,20.772,
39139390,0.336,0.005,0.993,-3.29,6.107,13.247,
39139400,0.181,-0.01,1.019,7.437,20.247,7.192,
39139410,-0.014,0.115,0.99,24.027,28.297,4.585,
39139420,-0.058,0.255,0.985,21.385,27.335,-2.38,
39139430,-0.114,0.249,0.974,14.385,22.155,-6.23,
39139440,-0.037,0.177,1.007,4.042,16.275,-11.48,
39139450,0.016,0.276,1.006,0.017,14.752,-14.175,
39139460,-0.003,0.301,0.995,-8.12,15.435,-19.6,
39139470,0.024,0.255,1.067,-26.197,17.132,-23.887,
39139480,0,0.292,1.116,-37.345,21.682,-25.655,
39139490,0.009,0.279,1.176,-54.32,27.475,-31.412,
39139500,0.127,0.191,1.243,-82.477,44.537,-40.372,
39139510,0.114,0.259,1.139,-110.652,71.015,-42.28,
39139510,0.184,0.168,1.235,-140.857,90.16,-21.822,
39139530,-0.094,0.384,1.097,-165.34,94.097,8.12,
39139530,-0.272,0.265,1.164,-173.39,70.315,30.712,
39139550,0.131,0.111,1.256,-204.26,49.42,46.095,
39139550,0.367,-0.124,1.368,-226.695,55.195,54.53,
39139570,0.02,-0.039,1.447,-208.53,44.327,46.742,
39139570,-0.095,-0.051,1.271,-168.735,20.597,47.88,
39139580,0.313,-0.306,1.109,-127.33,-2.73,61.967,
39139590,1.257,0.18,0.607,-84.682,-18.48,80.815,
39139600,1.194,0.792,0.362,18.987,-18.707,71.925,
39139610,1.113,0.878,-0.576,104.072,-73.692,-9.03,
39139620,-0.909,1.498,-1.167,153.212,-114.765,-76.387,
39139630,-1.338,1.731,-1.212,153.912,-136.902,-90.282,
39139640,-0.864,0.74,-0.949,104.16,-83.685,5.67,
39139650,-0.933,-0.316,0.734,67.287,-52.937,48.545,
39139660,0.079,-1.998,1.937,35.682,-100.38,-180.267,
39139670,-1.051,-0.487,1.97,416.29,-23.59,-118.737,
39139680,1.792,1.997,0.919,568.925,55.667,16.45,
39139690,-1.483,1.971,-0.962,368.497,84.805,-48.457,
39139700,-0.006,-0.415,1.13,-75.425,-3.955,-33.53,
39139710,-1.413,0.398,1.284,-174.405,-29.102,-2.537,
39139720,0.409,0.095,1.061,12.74,-84.997,26.6,
39139730,0.098,-0.035,0.926,5.197,-61.705,42.822,
39139740,0.172,0.026,1.039,-45.325,-40.897,33.425,
39139750,0.177,0.006,1.04,-34.44,-28.525,27.247,
39139760,0.253,-0.095,1.038,-9.642,-13.93,26.81,
39139770,0.093,0.147,0.979,8.627,-2.572,13.842,
39139780,0.232,0.163,0.977,8.732,4.025,4.882,
39139790,0.137,0.153,1.01,9.38,13.3,-1.26,
39139800,-0.017,0.253,0.968,13.492,20.125,-2.52,
39139810,-0.059,0.281,0.968,5.25,19.46,-6.51,
39139820,-0.094,0.324,0.972,-4.672,16.012,-12.162,
39139830,-0.103,0.308,0.986,-16.782,12.267,-15.61,
39139840,-0.158,0.282,1.033,-30.292,7.472,-24.115,
39139850,-0.164,0.31,1.075,-40.705,-0.787,-32.707,
39139860,-0.193,0.369,1.152,-57.855,-6.142,-38.447,
39139870,-0.161,0.355,1.183,-86.765,-11.147,-47.302,
39139880,-0.108,0.449,1.186,-127.645,-6.352,-58.59,
39139890,-0.043,0.195,1.171,-168.402,14.332,-69.335,
39139890,-0.515,0.477,1.014,-211.295,25.34,-80.272,
39139910,-0.439,0.411,0.97,-221.987,6.265,-75.495,
39139910,-0.215,0.087,1.004,-232.995,0.315,-77.595,
39139920,-0.426,0.162,1.167,-249.375,6.895,-95.287,
39139930,-0.599,0.169,1.149,-250.425,-5.145,-119.7,
39139940,-0.584,-0.3,1.228,-247.607,-7.157,-142.082,
39139950,-0.622,-0.4,1.134,-233.187,-5.32,-159.11,
39139960,-0.703,-0.298,1.267,-162.277,25.48,-179.812,
39139970,-1.822,-0.103,1.68,-32.095,103.32,-206.01,
39139980,-1.988,-0.527,0.409,161.437,84.385,-187.285,
39139990,-0.539,-0.009,-0.413,284.83,83.912,-47.53,
39140000,0.643,-0.01,-0.765,280.437,107.327,34.3,
39140010,1.159,-0.236,-1.569,286.265,86.397,1.33,
39140020,0.793,0.127,-1.296,306.635,42.157,-28.122,
39140030,1.11,0.064,-0.703,200.06,-8.4,-45.377,
39140040,0.576,1.607,1.337,-88.62,-144.007,-58.047,
39140050,1.982,-1.537,1.727,-247.765,-249.585,-185.99,
39140060,-0.981,-1.823,1.998,295.82,-180.897,-275.047,
39140070,1.892,1.492,1.686,563.097,-61.407,-56.28,
39140080,-1.175,1.977,0.016,386.662,138.775,6.23,
39140090,-0.753,1.502,-0.035,99.015,55.125,23.677,
39140100,-0.611,0.509,1.211,-149.8,-30.45,24.045,
39140110,0.267,-0.471,1.344,-80.535,-71.312,13.265,
39140120,0.01,0.227,0.944,-14.122,-52.57,26.792,
39140130,0.094,-0.04,1.006,-50.662,-34.422,20.51,
39140140,0.081,0.046,1.01,-69.755,-23.695,11.375,
39140150,0.115,-0.376,0.917,-44.432,-18.06,5.372,
39140160,0.17,-0.419,1.023,-17.132,-6.737,-1.137,
39140170,0.219,0.057,1.016,31.237,6.142,1.225,
39140180,0.086,0.299,0.984,43.697,19.04,5.005,
39140190,-0.027,0.139,1,32.69,23.45,3.325,
39140200,-0.034,0.102,1.017,34.142,24.255,1.487,
39140210,-0.06,0.355,0.978,39.62,23.275,0.875,
39140220,-0.21,0.447,0.926,26.967,19.617,1.382,
39140230,-0.165,0.324,0.954,2.17,10.255,-1.015,
39140240,-0.057,0.266,0.988,-12.81,3.587,-3.447,
39140250,-0.007,0.31,0.997,-21.525,2.45,-3.045,
39140260,-0.018,0.297,1.034,-35.087,4.76,-3.902,
39140260,0.032,0.274,1.094,-48.002,7.035,-6.3,
39140280,0.103,0.285,1.13,-61.442,14.63,-7.332,
39140280,0.179,0.216,1.152,-82.53,27.527,-7.717,
39140300,-0.099,0.195,1.157,-108.395,41.72,-5.337,
39140300,0.15,0.058,1.182,-138.11,25.707,8.225,
39140320,-0.077,0.185,1.058,-171.902,35.35,36.925,
39140320,-0.226,0.154,1.097,-179.795,24.395,47.652,
39140330,-0.166,0.026,1.063,-192.465,10.832,58.782,
39140340,-0.12,-0.208,1.112,-201.67,22.785,60.725,
39140350,0.05,-0.496,1.13,-196.647,43.26,47.53,
39140360,-0.042,-0.664,1.045,-172.165,67.935,34.3,
39140370,-0.247,-0.354,1.07,-121.905,65.625,8.487,
39140380,-0.214,-0.639,1.284,-72.415,51.87,-2.415,
39140390,0.296,-1.978,0.294,-23.625,53.917,-42.07,
39140400,0.591,-1.998,0.867,-4.987,68.582,-114.975,
39140410,-0.17,-1.866,0.056,70.84,60.952,-178.36,
39140420,-0.658,-1.221,-0.705,167.265,42.962,-210.577,
39140430,-0.665,-0.488,-1.55,169.592,9.135,-198.537,
39140440,0.102,0.514,-1.877,165.55,-47.95,-178.202,
39140450,-0.638,1.996,1.135,60.182,-79.292,-105.49,
39140460,-1.998,1.997,-0.048,8.155,-150.185,-67.375,
39140470,1.093,-0.513,1.396,449.487,-232.995,136.36,
39140480,1.318,-1.481,1.998,338.38,-75.792,17.78,
39140490,-0.534,1.919,0.189,498.382,120.242,-29.207,
39140500,-1.581,1.808,-0.859,419.807,90.86,45.115,
39140510,-1.648,1.768,0.112,-74.025,-6.702,12.232,
39140520,-0.489,-0.665,1.681,-258.895,-82.32,12.425,
39140530,0.016,-0.368,1.2,-89.792,-101.395,37.695,
39140540,0.285,-0.105,0.923,-29.855,-89.092,37.555,
39140550,0.463,-0.161,1.078,-79.012,-60.217,26.495,
39140560,0.274,-0.131,1.028,-49.822,-37.712,20.877,
39140570,0.176,-0.06,1.031,-17.132,-21.63,23.17,
39140580,0.184,0.193,0.99,7.402,-10.71,21.682,
39140580,0.203,0.158,0.974,11.48,-3.64,15.575,
39140600,0.068,0.154,1.002,3.622,6.317,9.117,
39140600,0.03,0.157,0.97,5.197,10.325,3.535,
39140620,-0.084,0.181,0.976,-2.012,11.252,-5.46,
39140620,-0.081,0.192,0.997,-8.12,7.297,-13.527,
39140640,-0.026,0.2,0.997,-8.347,3.832,-17.745,
39140640,-0.094,0.257,1.004,-11.567,2.275,-19.915,
39140660,-0.078,0.248,1.015,-17.57,-0.455,-20.387,
39140660,-0.109,0.261,1.048,-29.925,-3.115,-20.282,
39140670,-0.16,0.262,1.071,-46.042,-6.79,-21.21,
39140680,-0.206,0.276,1.104,-70.245,-13.965,-23.677,
39140690,-0.129,0.24,1.121,-96.302,-19.46,-27.93,
39140700,-0.148,0.259,1.118,-119.56,-22.032,-33.967,
39140710,0.006,0.308,1.178,-143.29,-15.96,-39.287,
39140720,-0.516,0.47,1.049,-163.94,9.66,-48.755,
39140730,-0.525,0.062,1.128,-171.885,-9.1,-78.207,
39140740,-0.471,-0.27,1.354,-192.797,-7.437,-92.942,
39140750,-0.822,-0.274,1.378,-165.48,-26.145,-120.662,
39140760,-0.719,-0.547,1.132,-110.775,-51.187,-159.547,
39140770,-0.789,-1.366,1.091,-79.677,-19.687,-199.045,
39140780,-1.859,-1.751,1.2,-7.14,59.85,-256.48,
39140790,-1.998,-0.913,0.024,165.637,73.867,-245.367,
39140800,-1.904,0.038,-0.648,260.172,73.43,-131.81,
39140810,-1.026,0.389,-0.97,221.707,114.362,-21.682,
39140820,-0.494,0.521,-1.672,202.982,133.28,58.38,
39140830,-0.229,1.116,-0.95,241.01,112.682,118.44,
39140840,-0.361,1.707,0.432,144.585,-200.882,158.742,
39140850,1.998,-1.997,1.963,-115.132,-190.487,237.317,
39140860,-0.409,1.082,0.828,101.08,241.29,-277.375,
39140870,-1.138,1.154,-0.932,501.567,-101.43,-263.357,
39140880,1.998,-0.593,1.007,66.08,69.23,383.775,
39140890,0.517,0.466,1.469,-406.035,104.457,113.137,
39140900,-1.296,-1.011,1.702,-2.082,-84.35,-159.39,
39140910,0.907,0.568,0.517,106.277,-0.56,77.262,
39140920,-0.471,-0.095,1.131,-8.47,-0.07,-8.032,
39140930,0.112,0.073,1.11,-13.3,3.395,1.907,
39140940,0.031,0.2,0.907,33.302,-0.42,-3.325,
39140950,-0.139,0.313,0.97,3.325,5.757,-6.93,
39140960,0.106,0.115,1.004,3.377,2.782,-3.71,
39140970,-0.014,0.114,1.005,7.857,6.475,-7.595,
39140980,-0.141,0.206,0.995,6.93,12.11,-5.81,
39140990,-0.24,0.227,0.964,7.892,7.437,-3.832,
39141000,-0.172,0.212,0.98,-1.452,0.315,-2.572,
39141010,-0.144,0.217,0.984,-5.967,-4.882,-0.525,
39141010,-0.144,0.226,0.971,-9.677,-8.155,2.117,
39141030,-0.086,0.23,0.972,-18.112,-11.41,5.022,
39141030,-0.067,0.256,0.966,-24.062,-12.25,8.697,
39141050,0.12,0.096,0.996,-27.947,-11.235,13.335,
39141050,-0.066,0.157,0.988,-24.605,-7.28,12.757,
39141070,0.042,0.114,0.983,-19.337,-5.18,15.89,
39141070,0.028,0.12,0.968,-13.86,-3.29,13.265,
39141080,0.047,0.132,0.96,-6.282,-2.94,9.59,
39141090,0.057,0.138,0.96,-0.805,-1.75,4.322,
39141100,0.036,0.175,0.958,4.375,-0.98,-0.035,
39141110,0.03,0.19,0.953,7.262,-0.437,-4.042,
39141120,-0.008,0.192,0.964,6.755,-0.455,-7.42,
39141130,-0.05,0.185,0.972,4.322,-0.665,-9.03,
39141140,-0.078,0.192,0.97,2.45,-2.467,-8.417,
39141150,-0.077,0.193,0.967,0.245,-4.707,-7.367,
39141160,-0.046,0.183,0.968,-1.33,-6.93,-5.407,
39141170,-0.021,0.181,0.964,-1.855,-8.12,-3.902,
39141180,0.01,0.161,0.967,-4.112,-7.437,-1.907,
39141190,0.021,0.139,0.975,-4.935,-6.09,-2.695,
39141200,0.041,0.133,0.979,-2.73,-4.305,-4.602,
39141210,0.01,0.144,0.983,0.857,-2.992,-8.102,
39141220,0,0.167,0.978,3.167,-2.1,-10.64,
39141230,-0.044,0.175,0.976,4.515,-2.292,-12.757,
39141240,-0.078,0.191,0.98,4.69,-3.78,-14.087,
39141250,-0.078,0.212,0.976,4.462,-6.09,-13.16,
39141260,-0.09,0.2,0.975,2.292,-7.84,-11.34,
39141270,-0.073,0.176,0.981,-0.717,-9.852,-9.625,
39141280,-0.057,0.173,0.983,-1.785,-10.377,-7.595,
39141290,-0.046,0.179,0.973,-2.415,-10.78,-5.617,
39141300,-0.032,0.202,0.967,-3.097,-10.692,-3.797,
39141310,-0.07,0.197,0.971,-4.41,-12.197,-3.517,
39141320,-0.072,0.191,0.975,-7.49,-14.105,-2.87,
39141330,-0.046,0.196,0.975,-9.94,-17.027,-2.66,
39141330,-0.062,0.201,0.983,-13.002,-18.725,-2.782,
39141350,-0.065,0.222,0.989,-17.57,-21.175,-2.275,
39141350,-0.059,0.234,0.991,-22.855,-23.817,-1.085,
39141370,-0.055,0.247,0.995,-31.692,-27.405,-0.892,
39141370,-0.009,0.218,1.022,-43.505,-30.835,-1.627,
39141390,-0.058,0.2,1.057,-57.732,-35.507,-5.197,
39141390,-0.053,0.139,1.076,-74.182,-41.247,-10.5,
39141410,-0.021,0.109,1.044,-90.86,-46.305,-18.55,
39141410,-0.027,0.131,0.989,-101.517,-44.45,-26.915,
39141420,-0.178,0.254,1.129,-108.727,-43.417,-38.237,
39141430,0.244,0.385,1.131,-120.382,-46.462,-46.83,
39141440,-0.552,0.471,0.923,-124.477,-34.597,-71.715,
39141450,-0.165,-0.411,1.134,-130.76,-47.285,-106.995,
39141460,-0.041,-0.465,1.146,-152.442,-35.63,-122.535,
39141470,-0.311,-0.091,1.014,-126.035,-41.282,-156.87,
39141480,-0.314,-0.005,0.872,-96.372,-49.262,-162.435,
39141490,-0.019,-0.188,0.948,-93.782,-43.47,-160.107,
39141500,0.026,-0.164,0.944,-94.185,-33.197,-172.83,
39141510,-0.222,0.007,0.937,-76.965,-27.877,-185.552,
39141520,-0.33,0.052,0.94,-59.08,-23.887,-188.755,
39141530,-0.272,0.03,0.973,-50.89,-25.935,-184.625,
39141540,-0.132,-0.091,0.944,-42.192,-40.32,-181.055,
39141550,0.07,-0.177,0.939,-28.822,-54.057,-179.445,
39141560,0.391,-0.305,0.885,-16.922,-65.905,-180.932,
39141570,0.464,-0.258,0.872,-15.33,-75.04,-192.132,
39141580,0.508,-0.162,0.908,-23.24,-83.09,-209.09,
39141590,0.359,-0.004,1.032,-39.707,-91,-223.195,
39141600,0.186,0.092,1.058,-53.567,-96.442,-224.157,
39141610,0.139,0.132,1.079,-56.472,-87.867,-201.582,
39141620,0.131,0.037,1.025,-59.85,-65.012,-166.04,
39141630,0.131,-0.06,1.197,-61.285,-31.937,-133.927,
39141640,0.049,-0.219,1.267,-46.742,-2.642,-105.42,
39141650,-0.624,-0.429,1.124,-11.375,30.03,-77.35,
39141660,-1.197,-0.119,1.477,13.247,67.952,-45.447,
39141670,-1.048,-0.143,1.441,46.48,90.457,41.282,
39141680,-0.534,-0.228,1.177,92.067,97.23,108.78,
39141690,-0.266,-0.131,0.981,115.325,97.842,131.32,
39141700,-0.195,-0.02,0.878,110.04,103.512,131.95,
39141710,-0.188,-0.012,0.793,98.927,104.632,120.732,
39141720,-0.289,0.056,0.674,90.335,93.065,98.962,
39141730,-0.348,0.095,0.601,73.675,78.47,76.685,
39141740,-0.347,0.043,0.669,48.457,74.497,59.027,
39141750,-0.289,-0.097,0.767,24.745,80.43,38.395,
39141760,-0.348,-0.184,0.856,12.53,92.505,20.44,
39141760,-0.412,-0.221,0.913,14.542,98.402,6.545,
39141780,-0.334,-0.24,0.889,22.732,105.157,-2.992,
39141780,-0.32,-0.258,0.832,28.49,112.787,-10.92,
39141800,-0.337,-0.307,0.863,19.53,116.9,-23.082,
39141800,-0.314,-0.437,0.923,-0.28,121.835,-29.697,
39141820,-0.29,-0.508,0.93,-14.052,126.875,-28.84,
39141820,-0.338,-0.485,0.906,-19.845,126.822,-23.642,
39141830,-0.209,-0.493,0.865,-30.992,129.08,-11.76,
39141840,0.051,-0.572,0.784,-46.042,146.177,12.11,
39141850,0.222,-0.504,0.967,-51.1,154.962,27.247,
39141860,0.632,0.117,1.764,-69.685,53.147,29.977,
39141870,1.998,-0.387,1.3,-26.6,-61.372,54.04,
39141880,1.998,1.656,1.672,95.13,-77.542,73.482,
39141890,0.688,1.997,-0.235,332.727,-81.69,-104.09,
39141900,-1.215,-0.25,1.273,366.66,-285.267,-375.462,
39141910,1.539,-1.013,1.971,55.58,-82.565,-118.072,
39141920,0.753,1.202,1.268,212.397,27.142,-6.09,
39141930,-0.465,1.313,0.591,260.05,39.112,-27.51,
39141940,-1.285,1.039,0.663,51.362,39.41,-13.422,
39141950,-0.472,0.335,0.966,-20.912,-16.397,-15.347,
39141960,-0.183,0.143,1.004,-7.157,-44.922,-16.992,
39141970,-0.01,0.176,0.966,-3.272,-42.262,-0.542,
39141980,-0.166,0.133,1.002,-16.397,-33.267,8.575,
39141990,-0.106,0.16,1.008,-13.877,-32.795,12.232,
39142000,-0.038,0.212,0.972,-5.425,-33.565,13.562,
39142010,0.037,0.166,0.991,-6.877,-31.307,12.46,
39142020,0.056,0.11,1.006,-4.445,-24.92,12.617,
39142030,0.059,0.139,0.995,1.295,-16.362,15.505,
39142040,0.058,0.157,0.974,4.007,-7.297,17.202,
39142050,-0.009,0.176,0.98,-0.157,-0.105,14.927,
39142060,-0.051,0.189,0.981,-1.33,3.885,12.25,
39142070,-0.083,0.208,0.974,-1.207,4.252,9.432,
39142080,-0.096,0.2,0.977,-3.552,3.36,6.212,
39142080,-0.094,0.204,0.976,-5.67,1.155,3.517,
39142100,-0.069,0.206,0.975,-7.315,-0.262,1.61,
39142100,-0.072,0.202,0.974,-9.485,-1.207,0.98,
39142120,-0.096,0.184,0.974,-12.372,-0.595,3.587,
39142120,-0.119,0.195,0.967,-11.48,-2.31,4.777,
39142140,-0.11,0.223,0.969,-12.512,-4.235,6.055,
39142140,-0.064,0.223,0.969,-15.785,-5.18,10.832,
39142160,-0.016,0.203,0.967,-18.34,-2.992,16.625,
39142160,0.04,0.154,0.972,-20.895,3.412,24.85,
39142170,-0.004,0.152,0.955,-19.127,10.78,31.71,
39142180,-0.022,0.142,0.934,-12.722,13.177,33.652,
39142190,-0.045,0.124,0.942,-4.725,12.145,28.98,
39142200,-0.053,0.12,0.96,2.905,8.872,21.017,
39142210,-0.038,0.115,0.963,7.577,7.21,13.195,
39142220,-0.02,0.222,0.945,12.32,5.617,8.732,
39142230,-0.075,0.277,0.95,11.742,1.697,5.285,
39142240,-0.014,0.339,0.979,3.78,-1.767,5.285,
39142250,-0.007,0.382,1.003,-7.682,0.14,7.822,
39142260,-0.007,0.451,1.026,-26.95,4.445,13.142,
39142270,0.212,0.466,1.098,-54.285,9.73,23.415,
39142280,0.074,0.375,1.228,-88.305,4.812,36.26,
39142290,0.349,0.474,1.458,-148.172,3.132,56.227,
39142300,-0.024,0.55,1.495,-209.282,19.932,64.172,
39142310,-0.044,0.629,1.538,-292.46,31.027,73.36,
39142320,-0.148,0.969,1.497,-383.512,56.332,90.825,
39142330,-0.102,1.096,1.369,-452.2,55.37,101.255,
39142340,0.078,0.324,1.736,-535.867,44.625,111.685,
39142350,-0.777,-0.628,1.998,-573.125,1.05,102.672,
39142360,-0.468,-0.705,1.925,-557.287,-159.197,93.31,
39142370,0.718,-0.234,0.993,-403.2,-163.922,210.192,
39142380,0.95,-0.033,1.342,-220.342,-91.612,294.42,
39142390,1.289,-0.024,1.074,-139.352,-69.877,251.895,
39142400,1.596,-0.734,0.553,-33.18,19.145,252.192,
39142410,1.313,-0.33,0.12,74.777,42.367,171.71,
39142420,0.64,0.284,-0.376,97.562,-5.337,22.347,
39142430,-0.467,0.283,-0.679,92.837,-74.077,-94.815,
39142440,-1.25,0.549,-0.777,75.67,-114.065,-154.21,
39142450,-1.984,0.581,-0.449,42.035,-126.927,-133,
39142460,-1.886,0.414,0.191,3.412,-106.015,-71.662,
39142470,-1.263,0,0.528,16.397,-59.307,-24.85,
39142480,-1.026,-0.173,0.622,108.325,-3.36,13.632,
39142490,-0.786,-0.155,0.605,205.66,26.075,44.957,
39142500,-0.338,-0.009,0.533,231.84,20.282,22.557,
39142510,-0.04,-0.2,0.635,230.737,1.312,-21.14,
39142510,0.254,-0.504,0.667,237.475,0.822,-51.047,
39142530,0.362,-0.578,0.567,257.705,13.527,-69.737,
39142530,-0.023,-0.48,0.801,249.76,14.122,-77.157,
39142550,-0.072,-0.78,0.916,178.237,-18.427,-91.875,
39142550,0.34,-1.205,0.903,104.212,-34.23,-101.5,
39142570,0.326,-1.316,0.749,70.875,-37.432,-118.02,
39142570,0.074,-1.157,0.309,70.262,-56.822,-153.055,
39142580,-0.179,-0.802,-0.191,70.63,-103.04,-175.192,
39142590,-0.395,-0.094,0.413,48.737,-157.045,-173.267,
39142600,-0.715,-1.289,1.851,-102.62,98.052,-165.725,
39142610,-0.418,-1.922,1.559,258.44,31.57,-119.735,
39142620,1.688,1.132,0.907,565.862,27.44,37.66,
39142630,1.053,1.497,0.988,556.832,120.662,98.367,
39142640,-1.218,0.113,1.744,306.6,136.202,8.067,
39142650,-1.125,1.892,0.518,116.34,107.957,15.785,
39142660,-0.255,0.892,0.648,83.23,12.145,33.127,
39142670,-0.736,0.473,0.891,-39.427,-29.225,10.062,
39142680,0,-0.105,1.075,-77.525,-43.557,25.952,
39142690,-0.082,-0.06,1.053,-66.937,-44.17,9.677,
39142700,0.166,0.014,1.044,-48.807,-37.257,12.635,
39142710,0.212,0.027,1.009,-25.27,-26.425,11.62,
39142720,0.049,0.065,1.028,-9.975,-13.195,12.722,
39142730,0.046,0.186,0.99,11.41,-9.922,10.815,
39142740,0.098,0.199,0.967,15.26,-6.09,10.395,
39142750,0.094,0.213,0.998,3.412,1.89,7.7,
39142760,0.012,0.319,0.983,-6.72,10.955,7.297,
39142770,-0.095,0.303,0.982,-26.687,15.47,4.55,
39142780,-0.11,0.345,1.039,-58.502,13.825,-3.885,
39142790,0.055,0.292,1.107,-77.787,10.027,-7.525,
39142800,0.088,0.195,1.186,-93.642,13.86,-9.012,
39142810,0.017,0.291,1.245,-117.302,22.487,-3.64,
39142820,0.152,0.342,1.237,-155.05,3.097,14.595,
39142830,0.012,0.284,1.22,-218.295,13.37,46.62,
39142830,-0.25,0.242,1.165,-264.215,9.257,60.865,
39142850,-0.161,0.282,1.103,-301.77,-4.882,73.185,
39142850,-0.317,0.36,1.086,-334.827,-7.385,82.897,
39142870,-0.561,0.083,1.211,-353.972,-26.985,77.332,
39142870,-0.472,-0.252,1.544,-376.757,-50.627,67.602,
39142890,-0.484,-0.567,1.42,-355.67,-95.812,65.065,
39142890,-0.349,-0.647,1.309,-268.362,-95.112,60.637,
39142910,-0.418,-0.508,1.475,-99.505,-50.925,53.76,
39142910,-0.75,0.102,1.285,45.78,-7.875,39.462,
39142920,-0.783,0.805,0.277,137.655,48.667,79.03,
39142930,0.364,0.688,-0.896,247.012,73.185,151.742,
39142940,0.591,0.997,-1.631,293.912,55.895,166.705,
39142950,0.484,1.158,-1.166,284.9,1.155,126.682,
39142960,0.787,0.309,-0.74,183.347,-31.185,64.417,
39142970,0.445,0.456,-1.002,75.057,-34.597,-4.305,
39142980,-0.628,1.1,0.117,47.127,-68.81,-72.887,
39142990,0.449,-1.557,1.652,-187.425,-123.48,-243.162,
39143000,-1.079,-1.459,1.911,67.165,62.912,-390.967,
39143010,0.065,1.972,-0.914,559.09,-110.022,-96.687,
39143020,1.98,0.238,1.19,548.1,-45.237,97.825,
39143030,-0.837,0.482,1.924,280.28,137.532,-125.825,
39143040,-1.662,1.92,-0.071,187.915,150.08,-0.017,
39143050,-0.945,1.207,0.501,85.47,-5.757,10.867,
39143060,-0.475,-0.111,1.168,-105.787,-57.417,-13.545,
39143070,-0.196,-0.29,1.255,-62.632,-65.362,3.307,
39143080,0.244,-0.086,0.888,4.357,-67.427,6.16,
39143090,0.46,-0.103,0.994,-47.687,-40.127,10.22,
39143100,0.043,-0.011,1.038,-43.575,-13.842,12.442,
39143110,0.08,0.108,1.009,-15.592,-9.065,11.095,
39143120,0.012,0.229,0.995,-3.43,-5.355,11.217,
39143130,-0.008,0.247,0.984,-2.642,-5.11,9.695,
39143140,0.036,0.184,0.993,-7.91,-4.357,8.575,
39143150,0.029,0.195,1.007,-9.45,-3.167,6.142,
39143160,-0.058,0.38,1.014,-16.24,-1.05,7,
39143170,-0.047,0.344,1.009,-40.74,-2.362,6.177,
39143180,-0.012,0.175,1.084,-70.332,-3.272,-0.997,
39143190,0.018,0.175,1.13,-84.087,-4.217,-7.157,
39143200,0.053,0.229,1.124,-98,-2.047,-9.222,
39143210,0.036,0.248,1.123,-119.28,5.88,-6.702,
39143220,-0.082,0.174,1.133,-142.87,13.58,-2.24,
39143230,-0.327,0.06,1.154,-163.73,-0.98,4.182,
39143240,-0.255,-0.171,1.116,-183.102,-23.677,4.427,
39143250,-0.149,-0.636,1.092,-197.242,-6.265,-7.052,
39143260,0.052,-0.86,1.27,-196.192,14.105,-15.347,
39143260,-0.127,-1.092,0.981,-160.72,18.55,-29.715,
39143280,-0.058,-1.661,0.519,-93.31,20.16,-45.202,
39143280,-1.42,-1.998,0.43,-16.31,19.967,-75.617,
39143290,-1.737,-1.998,0.298,29.697,-16.905,-111.125,
39143300,-0.603,-1.673,-0.423,44.415,8.557,-51.695,
39143310,0.218,-0.68,-1.016,116.392,38.027,23.117,
39143320,0.302,1.818,1.758,67.445,22.47,66.5,
39143330,1.978,1.997,0.614,-42.297,45.447,189.647,
39143340,0.852,1.997,-0.709,222.67,-12.11,262.29,
39143350,1.443,-0.759,1.471,397.057,-146.562,69.562,
39143360,-0.493,-1.5,1.998,120.855,59.657,-21.577,
39143370,0.434,1.461,1.557,410.235,119.297,33.337,
39143380,-1.333,1.997,0.146,458.955,90.44,38.92,
39143390,-0.761,1.776,0.178,133.455,35.035,21.612,
39143400,-0.554,0.508,0.946,-82.687,-32.795,4.83,
39143410,-0.061,-0.385,1.216,-97.335,-60.672,-10.255,
39143420,-0.087,-0.23,1.081,-39.585,-51.957,-7.157,
39143430,0.374,0.113,0.943,-16.292,-40.6,-7.682,
39143440,0.163,0.04,1.044,-32.025,-16.327,-4.235,
39143450,-0.109,0.127,1.015,-15.347,-1.89,2.695,
39143460,-0.092,0.185,0.988,-0.157,-4.742,1.225,
39143470,-0.026,0.27,0.989,3.115,-9.187,-2.135,
39143480,0.024,0.239,1.001,2.17,-8.645,-1.242,
39143490,-0.02,0.311,0.995,-5.232,-3.692,1.942,
39143500,-0.07,0.36,0.975,-22.33,-0.42,2.502,
39143510,-0.209,0.38,1.031,-52.727,-2.065,-0.822,
39143520,-0.158,0.336,1.087,-87.535,-10.115,-5.757,
39143530,-0.069,0.259,1.152,-119.892,-18.27,-13.195,
39143540,0.001,0.226,1.184,-146.86,-17.762,-21.857,
39143550,0.076,0.316,1.166,-169.82,-9.852,-27.247,
39143560,0.089,0.276,1.19,-197.575,10.447,-22.347,
39143570,-0.026,0.275,1.152,-226.012,18.515,-14.245,
39143580,-0.185,0.285,1.134,-246.435,16.537,-5.197,
39143580,-0.325,0.311,1.138,-264.862,0.875,-2.467,
39143600,-0.4,0.294,1.271,-288.312,-22.82,-2.747,
39143600,-0.513,0.235,1.403,-316.26,-57.4,-1.82,
39143620,-0.685,-0.116,1.494,-317.275,-97.037,-8.645,
39143620,-0.343,-0.636,1.11,-261.502,-102.48,-28.857,
39143640,-0.307,-0.509,0.815,-151.112,-34.895,-28.997,
39143640,-0.628,0.41,0.45,-5.582,-3.132,-51.922,
39143660,-1.49,1.125,0.035,81.62,-8.855,-69.16,
39143660,-0.871,1.596,-0.345,148.085,94.955,-23.642,
39143670,-0.411,1.534,-1.633,283.815,105.28,45.237,
39143680,0.061,1.332,-1.457,340.935,83.825,62.685,
39143690,1.116,-0.641,0.306,250.757,66.937,40.81,
39143700,1.985,-1.998,1.785,-75.18,-65.817,-134.05,
39143710,-1.833,-1.227,1.833,17.447,-25.322,-490.717,
39143720,0.966,1.972,-0.219,525.21,-114.625,-202.632,
39143730,1.97,0.452,0.92,543.812,-42.21,133.77,
39143740,-0.36,0.032,1.998,271.267,117.757,-95.06,
39143750,-1.994,1.93,0.673,196.122,186.13,17.412,
39143760,-0.745,1.572,0.219,158.042,19.705,8.015,
39143770,-0.409,0.357,1.069,-71.977,-46.76,-20.65,
39143780,-0.287,-0.002,1.172,-75.232,-59.955,-10.657,
39143790,0.035,0.019,0.937,-34.492,-65.555,-6.58,
39143800,0.503,-0.119,1.068,-69.93,-50.4,-7.927,
39143810,0.141,0.14,1.011,-60.952,-21.735,4.707,
39143820,-0.05,0.035,0.955,-54.39,-9.572,9.73,
39143830,0.042,-0.204,1.026,-42.735,-9.31,4.672,
39143840,0.113,-0.061,1,-7.157,-5.932,5.845,
39143850,0.116,0.127,0.971,16.66,0.472,8.417,
39143860,0.034,0.171,0.99,14.875,7.595,9.415,
39143870,-0.019,0.186,0.986,9.362,10.342,8.715,
39143880,-0.067,0.256,1.015,-0.647,10.202,6.055,
39143890,-0.085,0.364,1.004,-17.605,7.297,4.06,
39143900,-0.105,0.275,1.004,-41.335,2.17,-0.997,
39143910,-0.111,0.185,1.037,-59.657,-3.692,-5.285,
39143920,-0.071,0.143,1.003,-63.07,-8.837,-5.372,
39143930,-0.034,0.109,0.965,-62.982,-12.092,-3.237,
39143940,-0.015,0.028,0.951,-59.29,-11.83,1.295,
39143950,-0.02,-0.04,0.937,-49.682,-12.915,4.777,
39143960,0.014,-0.058,0.917,-36.4,-14.035,6.125,
39143970,0.026,-0.038,0.92,-20.02,-15.312,5.53,
39143980,-0.023,-0.035,0.918,-3.64,-17.202,2.765,
39143980,0.014,-0.044,0.925,11.48,-20.142,-1.54,
39144000,0.068,-0.053,0.926,29.365,-20.93,-5.092,
39144000,0.175,-0.074,0.923,47.967,-17.255,-7.192,
39144010,0.264,-0.009,0.954,65.66,-4.602,-4.532,
39144020,0.161,0.106,1.01,79.905,11.707,1.05,
39144030,0.055,0.139,1.052,83.317,23.94,6.02,
39144040,-0.07,0.184,1.053,78.767,27.457,6.755,
39144050,-0.127,0.265,1.026,70.665,25.007,6.65,
39144060,-0.164,0.332,0.99,56.945,17.885,5.495,
39144070,-0.16,0.338,0.97,38.815,9.082,4.182,
39144080,-0.12,0.302,0.966,23.047,-0.875,2.1,
39144090,-0.084,0.266,0.966,11.182,-8.12,0.56,
39144100,-0.048,0.219,0.97,2.625,-13.58,-0.997,
39144110,-0.01,0.196,0.975,-1.89,-15.89,-1.855,
39144120,0.034,0.173,0.977,-3.097,-15.89,-2.502,
39144130,0.069,0.156,0.978,-2.835,-12.792,-2.327,
39144140,0.07,0.16,0.976,-1.697,-8.225,-1.732,
39144150,0.056,0.159,0.975,-0.367,-3.272,-0.595,
39144160,0.036,0.166,0.974,0.542,0.927,0.542,
39144170,0.018,0.171,0.974,0.542,4.375,1.942,
39144180,-0.012,0.18,0.975,0.56,6.562,2.835,
39144190,-0.019,0.187,0.973,0.49,6.965,3.535,
39144200,-0.013,0.18,0.975,-0.105,7.087,4.235,
39144210,-0.018,0.185,0.973,-0.402,7,4.55,
39144220,-0.011,0.182,0.97,-0.665,6.982,4.585,
39144230,-0.002,0.164,0.972,-1.137,7.07,4.252,
39144240,-0.005,0.164,0.972,-0.455,8.172,3.797,
39144250,0,0.157,0.975,1.05,8.977,3.167,
39144260,-0.009,0.166,0.974,3.272,10.342,2.607,
39144270,-0.03,0.174,0.971,5.46,10.937,2.205,
39144280,-0.034,0.173,0.971,6.72,11.847,2.502,
39144290,-0.065,0.197,0.967,8.33,11.182,2.502,
39144300,-0.081,0.206,0.964,8.855,9.082,2.222,
39144310,-0.068,0.21,0.971,7.927,5.337,1.382,
39144320,-0.03,0.222,0.975,6.072,3.762,2.327,
39144330,-0.011,0.214,0.977,3.377,2.87,2.975,
39144330,0.049,0.218,0.99,-0.42,5.215,4.112,
39144350,0.086,0.227,0.989,-3.727,10.535,6.23,
39144350,0.096,0.231,1.001,-8.715,19.162,7.822,
39144370,0.109,0.237,1.02,-13.09,28.035,8.522,
39144370,0.127,0.254,1.049,-19.057,39.9,9.03,
39144390,0.145,0.299,1.095,-26.092,52.955,8.435,
39144390,0.177,0.513,1.035,-34.177,65.817,13.86,
39144410,0.499,0.021,1.328,-49.525,62.09,35,
39144410,0.189,0.306,1.302,-95.865,92.05,50.19,
39144420,0.038,0.295,1.296,-124.355,108.237,65.012,
39144430,0.035,0.473,1.262,-175.787,126.945,82.565,
39144440,0.114,0.472,1.235,-222.302,142.52,93.73,
39144450,0.301,0.056,1.43,-269.937,160.492,88.882,
39144460,0.344,0.059,1.468,-327.162,214.182,89.985,
39144470,0.207,0.152,1.412,-335.037,228.06,112.752,
39144480,0.137,0.215,1.431,-325.78,195.562,129.395,
39144490,-0.195,-0.109,1.648,-334.74,131.18,139.772,
39144500,0.606,-0.24,1.592,-344.032,31.395,147.192,
39144510,0.333,-0.314,1.189,-289.747,15.242,190.907,
39144520,-0.182,-0.044,1.055,-199.972,-8.26,210.892,
39144530,0.158,-0.469,1.157,-148.435,-24.395,232.802,
39144540,0.814,-0.928,1.293,-101.972,-61.25,235.357,
39144550,1.426,-1.026,1.01,-11.235,-93.52,228.655,
39144560,0.884,-0.821,0.37,87.395,-90.93,178.097,
39144570,0.44,-0.403,0.069,97.072,-97.562,117.81,
39144580,0.02,-0.395,0.098,54.512,-127.015,72.817,
39144590,-0.127,-0.472,0.14,21.297,-173.442,24.727,
39144600,-0.169,-0.42,0.187,0.787,-209.632,-10.972,
39144610,-0.293,-0.419,0.319,-22.085,-222.25,-34.195,
39144620,-0.416,-0.381,0.406,-52.167,-224.822,-61.985,
39144630,-0.61,-0.336,0.463,-91.087,-226.397,-86.677,
39144640,-0.874,-0.318,0.508,-117.022,-235.252,-93.747,
39144650,-1.105,-0.338,0.542,-116.305,-253.575,-80.185,
39144660,-1.193,-0.369,0.698,-91.875,-271.985,-30.03,
39144670,-0.816,-0.587,0.837,-61.46,-282.642,11.357,
39144670,-0.243,-0.889,0.957,-8.645,-284.2,-8.872,
39144690,-0.323,-0.964,0.883,83.527,-222.652,41.51,
39144690,-0.59,-0.469,0.603,148.855,-149.467,82.302,
39144710,-1.11,-0.141,0.355,166.722,-129.01,96.267,
39144710,-1.286,-0.2,0.251,123.655,-137.777,105.14,
39144730,-1.024,-0.409,0.27,50.032,-138.67,117.145,
39144730,-0.808,-0.51,0.346,-8.33,-131.337,109.462,
39144750,-0.823,-0.459,0.394,-41.545,-126.647,82.18,
39144750,0.125,0.002,1.227,-72.257,-98.455,43.137,
39144760,1.96,0.499,1.998,-218.172,313.722,28.77,
39144770,-1.133,1.198,1.225,122.57,407.172,-85.102,
39144780,-1.033,1.997,1.254,547.277,112.805,-259.507,
39144790,-0.13,-0.023,1.142,467.232,20.195,-57.382,
39144800,1.969,-1.571,1.92,312.935,74.987,9.975,
39144810,0.695,0.641,1.389,379.942,81.34,-107.73,
39144820,0.594,0.998,1.112,428.995,116.357,-65.817,
39144830,-0.621,0.357,1.405,285.74,163.677,-16.73,
39144840,-1.87,1.148,1.112,164.15,121.275,-41.212,
39144850,-0.554,1.043,0.702,115.99,30.327,-14.542,
39144860,-0.386,0.587,0.892,8.067,-11.742,-20.562,
39144870,-0.152,0.223,1.016,-38.237,-25.62,-11.48,
39144880,-0.147,0.142,1.002,-31.797,-34.282,-6.055,
39144890,0.199,-0.003,1.023,-22.26,-35.402,-1.54,
39144900,0.208,0.077,1.022,-6.702,-24.605,2.905,
39144910,0.082,0.1,0.992,10.867,-12.547,11.97,
39144920,0.076,0.124,0.977,16.502,-6.405,12.915,
39144930,0.084,0.203,0.966,12.81,-2.502,7.962,
39144940,0.032,0.228,0.965,5.512,1.172,5.215,
39144950,0.018,0.219,0.972,-2.31,2.712,4.182,
39144960,-0.019,0.268,0.973,-8.872,2.607,2.1,
39144970,0.034,0.28,0.983,-14.962,0.682,0.595,
39144980,0.056,0.259,1.007,-22.575,0.822,-0.892,
39144990,0.045,0.281,1.027,-31.972,1.907,-1.89,
39145000,0.006,0.363,1.084,-50.347,3.342,-2.555,
39145010,0.038,0.349,1.139,-78.785,2.905,-0.525,
39145020,0.093,0.386,1.144,-108.185,8.82,1.137,
39145030,0.107,0.217,1.194,-136.622,19.267,-3.622,
39145040,-0.046,0.266,1.185,-171.29,29.12,-10.237,
39145050,-0.322,0.249,1.154,-204.382,16.555,-7.28,
39145060,-0.112,-0.07,1.076,-233.887,13.475,-1.522,
39145070,-0.071,-0.369,1.104,-245.98,32.795,-14.245,
39145080,-0.239,-0.484,1.204,-241.955,47.075,-25.27,
39145080,-0.241,-0.447,1.141,-210.665,59.027,-35.21,
39145100,0.24,-0.722,1.241,-153.72,59.762,-37.135,
39145100,-0.371,-1.541,0.851,-71.767,36.435,-50.977,
39145120,0.297,-1.998,0.011,3.447,-3.36,-128.1,
39145120,-0.438,-1.448,-0.636,47.88,31.115,-156.607,
39145140,-1.315,-0.48,-1.167,134.645,-11.077,-175.21,
39145140,-0.981,-0.06,-0.753,116.287,-74.48,-154.35,
39145160,0.208,1.23,1.251,-30.275,-57.54,-70.945,
39145160,1.044,1.997,1.277,-148.785,23.922,26.18,
39145170,0.451,1.477,0.477,253.942,-105.35,77.717,
39145180,1.54,-1.911,1.947,445.252,-110.512,35.84,
39145190,-0.039,-1.188,1.993,335.737,8.312,1.242,
39145200,1.496,0.953,1.916,514.115,59.5,10.57,
39145210,-0.962,1.819,0.763,448.105,104.79,-16.73,
39145220,-1.344,1.751,-0.065,202.09,58.31,-5.18,
39145230,-0.502,0.942,0.784,-54.512,-16.03,19.32,
39145240,-0.219,-0.073,1.194,-114.205,-57.015,1.592,
39145250,-0.092,-0.138,1.045,-65.975,-60.392,5.845,
39145260,0.222,-0.106,1.031,-59.412,-54.355,-7.017,
39145270,0.502,-0.207,1.04,-53.76,-35.315,-6.212,
39145280,0.258,-0.128,1.064,-18.76,-8.645,0.665,
39145290,0.07,0.18,0.99,18.777,6.405,6.23,
39145300,0.051,0.218,0.973,23.362,12.005,7,
39145310,0.022,0.244,0.983,13.965,13.807,2.03,
39145320,0.141,0.244,0.976,4.865,17.447,0.262,
39145330,-0.016,0.268,0.98,-8.96,25.112,-0.682,
39145340,-0.121,0.325,0.994,-23.8,27.125,-2.537,
39145350,-0.094,0.347,1.024,-38.115,23.345,-4.13,
39145360,-0.022,0.291,1.05,-49.875,21.63,-3.15,
39145370,0.039,0.268,1.084,-62.615,25.655,1.977,
39145380,-0.02,0.187,1.119,-77,32.602,11.97,
39145390,-0.295,0.198,1.1,-98.245,27.825,34.877,
39145400,0.352,0.2,1.256,-136.027,17.605,83.44,
39145410,-0.265,0.338,1.013,-171.097,30.24,115.027,
39145420,-0.655,-0.122,1.054,-181.58,19.547,102.777,
39145420,-0.249,-0.484,1.208,-211.522,3.657,126.28,
39145440,-0.67,-0.709,1.297,-209.965,-18.182,164.675,
39145440,-1.656,-0.691,1.151,-142.992,-106.487,164.465,
39145460,-1.996,-0.725,0.089,-45.202,-203.77,212.03,
39145460,-1.63,-1.889,0.313,67.13,-56.63,283.745,
39145480,-1.626,-1.441,-0.404,118.335,115.745,367.64,
39145480,-0.146,-0.828,-0.982,223.037,70.752,323.75,
39145500,1.153,0.996,1.519,154.367,-89.985,268.117,
39145500,1.998,-0.821,0.936,5.897,56.98,355.057,
39145510,-0.471,1.987,-0.047,236.81,-59.325,44.625,
39145520,0.688,-1.627,1.961,276.517,-193.182,-371.245,
39145530,0.414,0.948,1.462,65.992,100.712,15.61,
39145540,-1.557,1.664,0.262,316.925,65.747,-20.51,
39145550,0.005,0.967,0.558,79.1,34.3,31.71,
39145560,-0.659,0.4,1.063,-53.55,6.65,-4.882,
39145570,-0.1,0.376,0.945,-8.645,-28.21,13.842,
39145580,0.008,0.077,1.009,-10.447,-37.695,13.702,
39145590,0.02,0,1.075,-27.387,-31.57,10.237,
39145600,0.278,0.028,0.998,-13.247,-29.155,1.522,
39145610,0.158,0.002,1.022,-10.22,-14.14,-2.345,
39145620,0.14,0.048,1.024,-1.557,-1.12,-3.22,
39145630,0.023,0.213,0.982,9.082,5.932,-5.285,
39145640,0.003,0.245,0.97,6.527,8.102,-5.757,
39145650,-0.078,0.232,0.986,0.997,8.767,-3.99,
39145660,-0.132,0.236,0.981,-1.68,5.985,-0.332,
39145670,-0.08,0.221,0.98,-6.492,1.575,3.587,
39145680,-0.063,0.209,0.98,-12.897,-1.75,4.077,
39145690,-0.058,0.201,0.989,-20.51,-2.922,8.312,
39145700,-0.051,0.195,0.979,-25.97,-3.657,12.635,
39145710,-0.077,0.174,0.995,-31.832,-4.375,17.867,
39145720,-0.129,0.178,0.988,-31.097,-8.75,19.6,
39145730,-0.108,0.148,0.981,-30.38,-16.677,18.847,
39145740,-0.056,0.11,0.973,-29.19,-22.802,16.8,
39145750,0.01,0.052,0.953,-23.642,-26.355,12.775,
39145760,0.211,-0.033,0.932,-12.582,-23.292,7.822,
39145770,0.365,-0.006,0.927,6.597,-10.762,1.715,
39145780,0.326,0.032,0.946,27.3,9.537,-3.99,
39145790,0.176,0.172,0.974,41.405,28.21,-7.052,
39145800,-0.018,0.279,0.966,49.7,36.312,-7.227,
39145810,-0.132,0.329,0.954,43.19,32.27,-5.95,
39145820,-0.205,0.324,0.941,31.36,20.737,-3.185,
39145830,-0.126,0.286,0.942,17.185,7.017,-0.28,
39145830,-0.09,0.267,0.941,7.315,-3.325,1.855,
39145850,-0.06,0.244,0.957,-0.647,-11.76,2.537,
39145850,0.007,0.227,0.973,-6.107,-15.837,4.357,
39145870,0.03,0.234,0.981,-7.49,-17.395,6.335,
39145870,0.048,0.26,0.985,-9.555,-16.362,7.857,
39145890,0.045,0.306,0.993,-15.487,-15.312,9.17,
39145890,0.08,0.348,1.015,-28.787,-12.267,11.76,
39145910,0.158,0.426,1.072,-49.472,-6.632,15.067,
39145910,0.288,0.583,1.163,-79.992,7.472,20.982,
39145920,0.451,0.575,1.153,-112.77,35.7,27.51,
39145930,0.254,0.139,1.281,-143.832,69.44,20.965,
39145940,-0.343,0.027,1.237,-199.57,63.805,-1.312,
39145950,0.249,0.259,1.349,-253.085,65.817,11.987,
39145960,-0.392,0.615,1.105,-270.865,83.965,27.002,
39145970,-0.429,0.171,0.88,-275.537,47.792,9.467,
39145980,-0.042,-0.112,1.322,-328.44,32.06,13.142,
39145990,0.114,-0.093,1.237,-377.457,48.597,21.752,
39146000,-0.034,-0.171,1.309,-333.602,34.125,10.342,
39146010,-0.165,-0.239,1.392,-288.68,22.54,-2.835,
39146020,-0.124,-0.653,1.372,-265.702,9.765,4.427,
39146030,0.329,-0.373,1.15,-194.74,6.982,57.487,
39146040,0.61,-0.296,0.722,-55.72,51.45,28.822,
39146050,-0.008,-0.122,0.663,-45.097,74.025,-5.512,
39146060,0.058,-0.445,0.704,-57.26,83.212,-34.755,
39146070,0.161,-0.44,0.675,-26.792,65.677,-52.36,
39146080,0.655,-0.548,0.706,22.172,11.322,-56.227,
39146090,0.296,-0.626,0.451,68.652,2.59,-88.235,
39146100,-0.197,-0.59,0.289,105.595,-18.095,-127.015,
39146110,-0.347,-0.676,0.224,104.755,-31.36,-115.937,
39146120,-0.419,-0.846,0.308,94.08,-35.612,-92.995,
39146130,-0.259,-0.944,0.386,91.21,-43.12,-79.887,
39146140,-0.14,-1.029,0.413,88.935,-37.292,-61.477,
39146150,-0.113,-1.034,0.415,83.65,-24.097,-40.635,
39146160,-0.152,-0.957,0.398,80.902,-18.567,-23.59,
39146170,-0.185,-0.907,0.395,77.647,-26.285,-10.255,
39146170,-0.165,-0.888,0.4,66.605,-37.275,0.717,
39146190,-0.195,-0.872,0.454,52.412,-47.372,8.942,
39146190,-0.253,-0.854,0.507,37.485,-55.037,13.195,
39146210,-0.33,-0.787,0.507,24.885,-62.37,8.82,
39146210,-0.484,-0.675,0.484,16.922,-67.847,5.495,
39146230,-0.672,-0.532,0.519,6.125,-74.847,8.557,
39146230,-0.931,-0.335,0.745,-14.63,-94.377,19.53,
39146250,-1.105,-0.24,0.816,-39.585,-139.93,39.287,
39146250,-0.698,-0.23,0.281,-24.307,-168.297,71.89,
39146260,-0.32,0.094,-0.398,35.14,-141.417,112.437,
39146270,-0.521,0.955,0.405,49.84,-89.005,118.405,
39146280,1.788,1.876,1.998,-93.52,115.22,99.802,
39146290,1.207,-0.174,0.15,205.362,144.847,93.17,
39146300,-1.026,-1.311,1.533,564.882,-47.565,-153.842,
39146310,0.231,0.066,1.472,497.717,-2.38,-54.862,
39146320,1.554,0.83,1.174,429.835,26.775,13.352,
39146330,0.443,0.386,1.938,360.92,114.572,-0.962,
39146340,-1.756,1.635,1.055,262.99,123.795,-30.432,
39146350,-0.957,1.461,0.479,156.415,49.245,-0.07,
39146360,-0.567,0.686,0.844,-11.217,-12.477,-5.985,
39146370,-0.002,0.07,1.08,-63.577,-37.082,-6.37,
39146380,-0.191,0.11,1.002,-36.575,-39.305,-2.047,
39146390,0.117,0.089,0.988,-29.312,-41.545,-3.15,
39146400,0.206,-0.006,1.017,-30.45,-33.145,-3.605,
39146410,0.166,0.013,1.025,-13.527,-21.437,-1.347,
39146420,0.192,0.149,0.985,5.11,-9.8,5.057,
39146430,0.019,0.175,0.972,9.345,-0.367,7.665,
39146440,0,0.195,0.981,3.5,2.397,5.512,
39146450,0.108,0.187,0.979,-3.15,4.462,4.882,
39146460,0.009,0.217,0.982,-10.92,10.307,4.672,
39146470,-0.01,0.277,1.007,-20.02,12.547,4.322,
39146480,0.052,0.285,1.044,-31.027,13.09,1.995,
39146490,0.109,0.344,1.088,-46.007,16.117,-1.417,
39146500,0.167,0.414,1.147,-65.957,25.497,-5.372,
39146510,0.31,0.354,1.242,-89.022,42.857,-12.372,
39146520,0.208,0.383,1.348,-123.97,71.627,-21.402,
39146530,0.387,0.275,1.239,-174.352,80.955,-18.952,
39146540,0.131,0.171,1.161,-218.347,112.385,4.602,
39146550,-0.097,0.142,1.179,-243.67,109.007,12.285,
39146560,-0.224,0.217,1.164,-264.792,90.842,27.877,
39146570,-0.369,0.021,1.18,-276.027,77.14,38.762,
39146580,0.004,-0.303,1.352,-285.932,63.105,34.982,
39146580,-0.11,-0.232,1.2,-271.582,74.55,48.195,
39146600,-0.103,-0.237,1.105,-201.267,44.222,51.712,
39146600,0.017,-0.213,0.9,-137.882,17.99,53.235,
39146620,0.4,0.039,0.728,-84.822,-13.877,56.192,
39146620,1.225,0.203,0.438,-8.26,-35.595,71.155,
39146640,0.914,0.789,0.159,65.555,-67.007,50.802,
39146640,0.126,1.213,-0.658,126.805,-120.54,-43.452,
39146660,-0.349,0.956,-1.366,173.827,-152.127,-89.547,
39146660,-0.588,0.497,-1.27,158.34,-154.157,-54.705,
39146670,-0.193,-0.177,-0.518,58.38,-123.077,-20.842,
39146680,-1.05,-0.923,1.575,-66.482,-52.727,-34.527,
39146690,-0.581,-1.998,0.923,47.67,-67.427,-199.885,
39146700,0.381,0.182,0.913,497.892,2.59,-26.302,
39146710,0.796,1.997,-0.235,573.37,-50.12,18.392,
39146720,1.372,-0.856,1.971,489.16,18.287,1.347,
39146730,-1.647,1.554,1.028,149.835,113.61,-79.765,
39146740,-0.651,1.041,0.372,164.745,41.422,33.267,
39146750,-1.244,1.228,0.506,21.56,-46.69,20.545,
39146760,0.214,-0.317,1.191,-121.135,-67.2,33.302,
39146770,-0.335,-0.064,1.131,-104.055,-61.792,20.37,
39146780,0.248,-0.093,1.002,-53.27,-66.202,23.432,
39146790,0.617,-0.152,0.984,-51.135,-46.655,20.702,
39146800,0.353,-0.26,1.031,-30.94,-17.29,18.725,
39146810,0.174,0.03,1.018,8.855,0.35,15.137,
39146820,0.146,0.202,0.978,29.172,10.115,13.685,
39146830,0.1,0.253,0.973,22.575,17.15,9.03,
39146840,0.032,0.218,0.99,9.59,23.677,6.895,
39146850,-0.137,0.314,0.988,1.382,24.395,2.852,
39146860,-0.116,0.364,0.964,-12.687,17.902,-3.43,
39146870,-0.024,0.318,1.016,-36.802,11.62,-11.795,
39146880,0,0.293,1.059,-55.545,10.727,-17.57,
39146890,-0.01,0.303,1.114,-71.067,12.845,-19.197,
39146900,0.081,0.273,1.173,-92.365,18.2,-22.82,
39146910,0.163,0.257,1.217,-122.272,33.25,-25.55,
39146920,-0.05,0.235,1.282,-153.86,48.37,-20.93,
39146920,0.104,0.245,1.192,-189.122,36.54,-4.112,
39146940,-0.422,0.293,1.149,-220.622,30.87,24.395,
39146940,-0.275,0.071,1.096,-254.432,-20.3,32.445,
39146960,0.042,-0.117,1.294,-302.417,-0.577,57.312,
39146960,-0.149,-0.18,1.344,-316.207,-2.572,62.23,
39146980,-0.615,-0.336,1.304,-279.177,-42.437,43.487,
39146980,-0.296,-1.059,1.293,-233.397,-107.467,32.812,
39147000,-0.237,-1.367,1.04,-180.495,-97.107,-2.205,
39147000,-1.074,-0.715,0.326,-45.92,-33.46,-32.095,
39147010,-1.998,0.419,-0.033,58.397,-36.872,-41.72,
39147020,-1.998,0.588,-0.184,62.072,-32.305,22.907,
39147030,-1.878,-0.03,-0.228,48.142,32.567,186.637,
39147040,-0.803,-0.082,-0.419,79.047,72.415,262.482,
39147050,0.386,0.672,-0.918,156.817,110.302,268.065,
39147060,0.571,1.425,-1.492,235.322,139.825,271.005,
39147070,1.125,1.705,0.594,238.087,78.312,243.6,
39147080,1.982,-1.925,1.662,-57.015,-215.757,85.767,
39147090,-1.891,-1.692,1.532,112.052,-99.89,-485.852,
39147100,1.128,0.952,1.148,546.875,-262.01,-308.997,
39147110,1.998,1.272,1.627,563.5,-102.165,113.47,
39147120,-1.027,1.464,1.179,335.195,130.515,-89.845,
39147130,-1.652,1.737,-0.042,129.395,138.46,71.68,
39147140,-1.204,0.594,0.862,-56.472,-14.84,25.55,
39147150,0.687,-0.327,1.288,-104.842,-66.517,-2.117,
39147160,-0.019,0.284,0.972,-26.845,-44.695,11.007,
39147170,0.162,-0.022,0.917,-25.952,-25.97,28.77,
39147180,0.094,-0.092,1.066,-60.602,-10.99,17.885,
39147190,0.063,-0.017,1.012,-26.512,-6.195,16.642,
39147200,0.066,0.019,0.962,-5.442,-2.607,9.362,
39147210,0.069,0.016,1.032,-0.945,2.66,4.025,
39147220,0.072,0.234,0.989,15.225,6.527,1.05,
39147230,-0.003,0.157,0.949,14.402,9.467,1.575,
39147240,-0.003,0.243,1.032,5.565,12.547,0.717,
39147250,-0.061,0.399,0.962,8.295,11.41,1.942,
39147260,-0.054,0.313,0.958,-10.57,9.887,0.682,
39147270,-0.048,0.234,1.03,-32.305,7.91,-3.797,
39147280,0.037,0.31,1.039,-47.11,8.697,-4.34,
39147290,0.032,0.329,1.069,-68.705,13.405,-0.805,
39147300,-0.083,0.35,1.12,-97.842,17.535,2.73,
39147310,0.297,0.381,1.216,-133.087,9.66,15.522,
39147320,0.014,0.322,1.175,-174.09,23.257,29.697,
39147330,-0.125,0.214,1.199,-212.31,29.627,33.932,
39147330,-0.369,0.403,1.197,-242.9,29.4,39.025,
39147350,-0.439,0.341,1.131,-264.232,16.275,23.957,
39147350,-0.109,-0.155,1.277,-291.847,17.955,21.437,
39147370,-0.233,-0.034,1.433,-298.112,20.685,28.455,
39147370,-0.538,0.022,1.604,-257.827,-16.642,19.512,
39147380,-0.346,-0.133,1.599,-205.485,-54.565,7.91,
39147390,-0.448,-0.181,1.955,-126,-55.37,4.165,
39147400,-1.01,0.431,1.199,40.512,-23.292,5.46,
39147410,-0.956,1.159,-0.559,277.917,0.507,49.332,
39147420,-0.286,1.477,-1.064,292.582,17.29,116.007,
39147430,0.305,1.126,-1.2,216.965,33.635,130.952,
39147440,0.342,0.855,-0.752,173.25,23.45,81.41,
39147450,0.671,0.357,-0.659,136.132,-5.845,12.302,
39147460,0.25,0.212,-0.529,119.122,-14.997,-36.295,
39147470,-0.286,0.066,-0.635,90.615,-44.625,-93.887,
39147480,-1.324,0.817,0.678,37.257,-142.502,-148.575,
39147490,1.341,-1.998,1.998,-167.86,-186.672,-300.825,
39147500,-0.801,0.409,1.956,301.052,-33.04,-346.255,
39147510,1.962,1.997,-0.235,569.275,5.67,-33.81,
39147520,-1.787,1.986,-0.461,374.535,143.36,0.98,
39147530,0.291,-0.064,0.844,-87.412,58.765,1.627,
39147540,-1.22,0.265,1.506,-213.815,25.427,-1.102,
39147550,0.505,-0.316,1.182,25.427,-49.017,4.812,
39147560,-0.449,0.5,0.755,60.217,-31.062,26.18,
39147570,0.093,0.058,1.068,-17.675,-29.172,22.067,
39147580,0.146,0.015,1.004,-9.292,-26.512,20.807,
39147590,0.151,0.009,0.976,-1.732,-14.787,15.872,
39147600,0.01,0.203,1.012,-6.142,-3.955,9.415,
39147610,0.159,0.196,0.934,3.115,-2.415,8.977,
39147620,0.117,0.19,0.989,-11.077,7.175,6.982,
39147630,-0.024,0.195,1,-7.052,12.862,9.432,
39147640,-0.073,0.252,0.964,2.012,10.237,8.522,
39147650,-0.024,0.239,0.973,-2.45,4.865,3.22,
39147660,-0.007,0.235,0.98,-8.802,2.747,-2.677,
39147670,0.005,0.238,0.99,-15.347,0.805,-9.73,
39147670,0.001,0.261,1.011,-26.985,0.857,-17.972,
39147690,-0.121,0.294,1.078,-45.937,-0.402,-30.03,
39147690,-0.269,0.321,1.163,-70.052,-11.147,-46.112,
39147710,-0.256,0.384,1.158,-98.122,-31.482,-63.472,
39147710,-0.328,0.49,1.215,-134.68,-42.647,-81.882,
39147730,0.045,0.455,1.013,-174.772,-46.637,-95.952,
39147730,-1.103,0.291,1.08,-213.202,0.437,-135.45,
39147750,-0.133,-0.732,1.08,-245.367,-16.747,-200.795,
39147750,-0.891,-0.518,1.223,-278.635,-8.907,-266.63,
39147760,-1.1,-0.576,0.947,-253.277,-29.382,-346.465,
39147770,-0.365,-1.8,0.982,-225.627,-34.93,-419.597,
39147780,0.3,-1.994,1.056,-247.012,14.157,-510.09,
39147790,-1.784,-1.085,0.559,-161.227,22.435,-569.082,
39147800,-1.998,0.711,0.326,-12.337,-48.247,-572.617,
39147810,-1.99,1.963,-0.35,63.42,11.147,-460.967,
39147820,-1.202,1.997,-1.198,141.365,153.79,-161.962,
39147830,0.203,1.997,1.141,210.28,78.155,-64.137,
39147840,1.998,-1.364,-0.3,258.055,-81.532,110.46,
39147850,-0.859,0.343,1.749,360.552,72.957,-236.355,
39147860,0.647,-1.284,1.976,426.807,-25.532,-306.915,
39147870,-0.763,1.954,0.408,404.897,204.365,90.947,
39147880,-0.911,0.916,-0.108,260.067,50.68,-50.365,
39147890,-0.03,1.426,0.405,-42.875,23.992,60.847,
39147900,-0.798,-0.47,1.484,-152.95,-25.672,-19.267,
39147910,0.101,-0.13,1.169,-53.357,-39.34,32.882,
39147920,0.113,-0.027,0.961,12.197,-47.355,10.377,
39147930,0.063,0.184,0.999,-19.127,-28.175,12.792,
39147940,0.065,0.069,1.033,-13.545,-23.327,9.765,
39147950,0.05,0.01,1.006,4.462,-20.37,10.587,
39147960,0.144,0.183,0.988,10.307,-14.28,5.127,
39147970,0.074,0.285,0.935,12.372,-7.822,7.245,
39147980,0.066,0.19,0.948,-0.945,-2.957,8.557,
39147990,0.065,0.094,0.994,-9.835,0.787,3.552,
39148000,0.062,0.141,0.984,-5.845,4.935,-0.122,
39148010,0,0.177,0.979,-2.065,7.385,-2.87,
39148020,-0.032,0.175,0.98,-1.032,7.927,-5.39,
39148030,-0.048,0.162,0.986,0.91,5.897,-7.962,
39148040,-0.045,0.164,0.98,3.43,4.462,-8.872,
39148050,-0.036,0.201,0.97,2.625,3.255,-8.33,
39148060,-0.065,0.216,0.963,-0.945,2.555,-7.175,
39148070,-0.086,0.196,0.971,-4.287,0.227,-4.83,
39148070,-0.104,0.174,0.98,-4.41,-2.537,-3.482,
39148080,-0.066,0.185,0.978,-1.172,-6.895,-3.185,
39148090,-0.028,0.194,0.972,0.49,-9.625,-3.815,
39148100,-0.006,0.202,0.969,-0.35,-11.55,-5.11,
39148110,0.012,0.203,0.966,-2.257,-11.48,-5.18,
39148120,0.008,0.21,0.96,-4.235,-10.727,-4.392,
39148130,0.006,0.214,0.955,-4.655,-9.415,-2.975,
39148140,0.037,0.193,0.952,-3.692,-8.925,-1.4,
39148150,0.05,0.193,0.95,-1.75,-6.877,-0.437,
39148160,0.055,0.2,0.952,0,-4.935,-0.735,
39148170,0.045,0.178,0.96,-0.192,-1.855,-1.277,
39148180,0.05,0.166,0.962,-0.63,0.367,-2.625,
39148190,0.03,0.228,0.941,2.922,2.555,-3.622,
39148200,-0.023,0.26,0.937,5.827,2.275,-3.115,
39148210,-0.014,0.257,0.955,4.217,0.507,-1.137,
39148220,-0.055,0.313,0.968,2.747,-2.765,1.05,
39148230,-0.059,0.358,0.99,-4.812,-7.455,5.32,
39148240,0.021,0.39,1.03,-21.84,-11.252,11.252,
39148250,0.022,0.383,1.062,-44.467,-11.725,15.715,
39148260,0.021,0.343,1.096,-74.952,-9.59,18.62,
39148270,-0.059,0.296,1.107,-107.362,-7.455,19.232,
39148280,0.071,0.118,1.029,-142.292,2.117,23.66,
39148290,-0.043,0.231,1.203,-163.275,17.395,14.595,
39148300,-0.189,0.137,1.104,-170.047,6.527,4.06,
39148310,-0.323,0.109,1.133,-188.545,-12.022,1.75,
39148320,-0.052,0.013,1.04,-205.467,-30.59,12.897,
39148330,-0.21,-0.05,1.061,-202.562,-36.032,19.845,
39148340,-0.225,-0.104,0.992,-194.6,-53.025,9.292,
39148350,-0.141,-0.199,1.034,-183.977,-60.462,9.66,
39148360,-0.085,-0.286,1.216,-181.457,-64.225,8.732,
39148370,-0.07,-0.532,1.219,-171.85,-81.9,1.137,
39148380,-0.001,-0.709,1.305,-135.572,-80.307,-4.637,
39148390,0.062,-0.911,1.219,-83.125,-64.837,-20.265,
39148400,0.517,-1.456,1.117,-26.53,-24.657,-43.575,
39148410,0.503,-1.943,0.91,20.807,43.4,-65.275,
39148420,-0.113,-1.546,0.629,78.522,81.917,-100.187,
39148420,-0.649,-1.271,0.379,114.205,84.507,-114.257,
39148440,-0.593,-1.189,0.261,90.947,55.545,-93.047,
39148440,-0.31,-1.15,0.215,37.52,36.732,-63.63,
39148460,-0.136,-1.125,0.266,-11.55,28.63,-31.657,
39148460,-0.068,-1.108,0.312,-47.652,28.35,-7.175,
39148480,-0.085,-1.048,0.355,-72.642,36.207,11.567,
39148480,-0.172,-0.933,0.397,-93.922,39.445,19.74,
39148500,-0.233,-0.796,0.394,-106.785,29.085,10.482,
39148500,-0.333,-0.575,0.272,-109.112,10.57,-8.54,
39148510,-0.557,-0.17,0.107,-104.037,-12.04,-31.185,
39148520,-0.783,0.219,-0.117,-97.965,-40.53,-52.745,
39148530,-0.938,0.771,-0.215,-93.922,-52.815,-60.48,
39148540,-0.938,1.805,1.615,-171.797,-41.457,-57.942,
39148550,1.248,1.997,1.998,-414.942,56,-32.987,
39148560,1.997,0.835,0.808,-107.922,71.645,6.16,
39148570,1.045,1.741,0.979,519.89,-48.825,-110.232,
39148580,0.485,-1.63,1.189,549.185,-55.44,-156.782,
39148590,0.474,-0.03,1.597,281.627,21.805,-113.802,
39148600,1.438,0.577,1.023,341.18,26.827,17.15,
39148610,0.21,0.665,1.324,418.197,71.12,43.995,
39148620,-0.771,0.57,1.526,329.122,103.232,2.222,
39148630,-0.907,1.027,1.139,222.337,80.43,-4.095,
39148640,-0.755,0.956,0.905,142.59,29.067,-10.692,
39148650,-0.364,0.744,0.893,46.48,-1.522,-3.675,
39148660,-0.389,0.402,0.976,-11.112,-21.945,-4.375,
39148670,-0.167,0.189,1,-22.452,-41.335,-6.16,
39148680,0.252,0.058,1.001,-22.102,-46.165,-7.665,
39148690,0.239,0.017,1.001,-18.795,-33.005,-6.317,
39148700,0.185,0.039,0.998,-9.835,-17.587,-2.59,
39148710,0.107,0.092,0.993,-1.417,-6.72,-0.98,
39148720,0.087,0.152,0.988,1.155,0.997,-0.735,
39148730,0.088,0.176,0.991,-1.82,6.125,-2.66,
39148740,0.045,0.219,1.009,-9.555,11.147,-5.582,
39148750,0.055,0.26,1.03,-19.512,13.912,-8.137,
39148760,0.019,0.314,1.066,-35.752,17.15,-11.042,
39148760,-0.008,0.339,1.122,-60.252,19.075,-14.052,
39148780,0.012,0.325,1.163,-92.487,22.977,-17.5,
39148780,-0.008,0.379,1.168,-133.822,31.692,-21.385,
39148800,-0.142,0.466,1.12,-179.637,25.007,-22.33,
39148800,-0.103,0.24,1.113,-215.46,22.347,-9.467,
39148820,-0.321,0.088,1.189,-248.78,22.662,-12.67,
39148820,-0.351,0.016,1.315,-269.622,9.607,-12.705,
39148830,-0.205,-0.226,1.369,-259.105,-4.567,-3.01,
39148840,-0.243,-0.289,1.252,-208.932,-10.097,8.837,
39148850,-0.257,-0.276,1.027,-135.52,-10.745,5.232,
39148860,-0.176,-0.38,0.979,-77.717,2.362,9.52,
39148870,-0.385,-0.677,0.806,-18.34,34.422,17.027,
39148880,-1.401,-0.503,0.03,68.232,31.272,21.682,
39148890,-1.264,0.131,-0.757,155.96,11.76,72.24,
39148900,-0.283,0.198,-1.535,190.347,46.077,185.71,
39148910,-0.073,0.379,-1.832,200.252,35.84,241.745,
39148920,0.471,0.201,-0.676,179.742,-27.352,212.572,
39148930,1.926,-1.089,1.906,-15.767,-106.82,156.432,
39148940,-0.811,-1.998,1.998,13.79,-86.362,-117.425,
39148950,0.864,-0.363,1.98,518.612,-159.967,-172.567,
39148960,0.772,1.997,0.524,563.027,65.957,71.05,
39148970,-1.879,1.474,-0.609,394.467,59.64,-45.272,
39148980,-0.552,1.715,0.021,-32.13,34.405,78.925,
39148990,-0.262,-0.911,1.596,-275.17,-27.72,8.802,
39149000,-0.096,-0.527,1.532,-131.145,-41.947,11.777,
39149010,0.077,0.086,0.81,64.557,-59.307,7.595,
39149020,0.287,0.326,0.825,-12.267,-32.672,12.915,
39149030,0.137,-0.241,1.164,-60.567,-13.387,2.1,
39149040,0.039,0.086,1.031,-3.675,-5.355,8.54,
39149050,0.089,0.195,0.92,21.665,-2.345,9.485,
39149060,0.053,0.223,1.009,-1.435,5.285,5.355,
39149070,0.081,0.255,0.988,-5.075,10.395,7.805,
39149080,-0.003,0.263,0.973,-11.707,14.63,5.512,
39149090,-0.002,0.303,1.005,-30.17,17.15,0.98,
39149100,0.031,0.31,1.051,-47.67,19.88,-2.905,
39149110,0.036,0.365,1.106,-62.44,22.4,-6.562,
39149120,0.131,0.349,1.176,-82.687,28.665,-13.3,
39149130,-0.029,0.375,1.241,-111.265,41.615,-17.675,
39149140,0.46,0.251,1.323,-155.365,40.337,-6.65,
39149150,0.207,0.409,1.182,-218.907,84.63,27.51,
39149160,-0.033,0.264,1.193,-247.047,87.255,46.97,
39149170,-0.031,0.185,1.23,-274.645,72.257,70.735,
39149170,-0.11,0.29,1.355,-306.582,71.365,98.98,
39149190,0.04,0.007,1.751,-330.347,34.405,110.075,
39149190,0.213,-0.46,1.758,-340.585,-4.55,120.837,
39149210,0.185,-0.252,1.574,-267.452,-50.732,128.8,
39149210,0.95,0.232,0.85,-174.93,-93.415,160.16,
39149230,0.144,0.937,1.136,-106.242,-100.992,191.817,
39149230,1.057,0.029,0.636,-31.885,-89.897,174.457,
39149250,0.731,0.596,-0.518,62.842,-80.937,127.365,
39149250,0.409,1.505,-1.569,197.61,-95.235,38.027,
39149260,-0.422,1.997,-1.953,254.887,-121.065,-51.292,
39149270,-0.453,1.92,-1.538,188.492,-139.597,-120.19,
39149280,-0.574,1.687,-0.883,67.725,-68.582,-106.4,
39149290,-1.196,0.889,0.618,5.25,-19.005,-105.98,
39149300,-0.35,-1.998,1.87,-57.015,124.425,-307.842,
39149310,-1.998,-1.051,1.596,390.6,-0.245,-374.272,
39149320,0.801,1.997,0.532,573.37,-108.762,-147.682,
39149330,0.166,-0.037,1.58,491.347,65.397,-68.39,
39149340,-1.294,1.195,-0.522,233.327,65.747,-166.862,
39149350,-0.145,0.477,0.868,18.847,19.495,114.59,
39149360,-0.38,-0.446,1.116,-117.092,-52.657,1.155,
39149370,0.245,-0.163,1.277,-119.647,-32.077,49.542,
39149380,-0.092,0.062,1.022,-13.772,-41.352,28.21,
39149390,0.158,0.23,0.907,-5.687,-37.345,37.24,
39149400,0.354,-0.098,1.02,-27.79,-25.83,24.832,
39149410,0.251,0.022,1.063,-11.06,-11.76,15.942,
39149420,0.11,0.234,0.95,21.35,-4.077,13.265,
39149430,0.262,0.208,0.958,13.982,3.202,9.467,
39149440,0.148,0.212,0.978,-2.082,16.082,6.93,
39149450,0.051,0.24,0.991,-10.552,25.217,5.67,
39149460,-0.029,0.397,1.029,-23.87,32.41,5.775,
39149470,-0.059,0.42,1.017,-44.887,34.807,7.945,
39149480,-0.022,0.27,1.101,-77.805,38.027,7.682,
39149490,-0.029,0.233,1.176,-107.782,41.387,4.077,
39149500,-0.149,0.267,1.172,-131.705,46.515,4.655,
39149510,0.2,0.11,1.243,-169.802,24.71,11.235,
39149510,-0.009,0.439,1.114,-229.775,54.652,30.345,
39149530,-0.411,0.385,1.058,-244.072,34.335,34.527,
39149530,-0.374,0,1.196,-264.39,18.83,36.242,
39149550,-0.293,-0.234,1.38,-295.925,13.317,54.67,
39149550,-0.56,-0.323,1.328,-277.55,-22.295,63.857,
39149570,-0.514,-0.573,1.171,-202.527,-74.55,50.242,
39149570,-0.524,-0.893,1.46,-126.28,-81.235,46.637,
39149580,-0.462,-1.006,1.021,-18.567,-50.82,38.482,
39149590,-0.466,-0.681,-1.28,185.22,5.442,54.705,
39149600,-0.069,0.713,-1.639,316.207,15.137,79.257,
39149610,0.639,1.126,-1.313,261.24,6.772,95.48,
39149620,1.457,0.474,-1.117,145.88,14.49,67.62,
39149630,1.57,1.433,0.357,70.367,1.522,-51.922,
39149640,-1.041,-1.052,1.82,-79.887,-33.495,-282.117,
39149650,0.346,-1.757,1.998,115.255,-137.97,-404.775,
39149660,1.448,1.93,1.372,504.63,-49.822,-93.485,
39149670,-0.069,1.373,0.788,504.647,47.967,-98.157,
39149680,-1.664,1.563,-0.279,223.65,82.705,-74.217,
39149690,-0.605,0.921,0.703,-92.277,17.622,31.57,
39149700,-0.053,-0.406,1.451,-166.95,-39.97,-13.702,
39149710,-0.223,-0.028,1.153,-17.78,-45.85,29.102,
39149720,0.022,0.124,0.836,44.975,-55.352,27.3,
39149730,0.207,0.124,0.969,-30.362,-38.832,22.067,
39149740,0.288,-0.103,1.084,-40.512,-24.027,18.13,
39149750,0.135,0.112,1.001,-6.317,-12.232,18.217,
39149760,0.029,0.22,0.955,3.482,-6.562,13.79,
39149770,0.145,0.185,1.003,-7.787,-4.112,7.805,
39149780,0.1,0.25,0.993,-5.827,0.945,7.087,
39149790,0.064,0.235,0.97,-8.26,5.512,6.79,
39149800,-0.034,0.318,1.011,-26.092,9.24,0.087,
39149810,-0.085,0.38,1.041,-42.14,8.12,-3.692,
39149820,-0.057,0.303,1.094,-63.875,5.862,-8.155,
39149830,-0.017,0.323,1.162,-90.23,6.142,-13.842,
39149840,0.041,0.342,1.184,-118.3,15.067,-20.772,
39149850,0.02,0.358,1.163,-154.595,31.447,-28.63,
39149860,-0.091,0.363,1.186,-197.085,44.695,-30.537,
39149870,-0.288,0.336,1.126,-238.665,39.427,-24.535,
39149880,-0.47,0.181,1.11,-269.902,10.307,-22.382,
39149890,-0.306,-0.155,1.22,-289.047,-6.877,-26.67,
39149900,-0.408,-0.338,1.27,-288.785,-23.467,-19.845,
39149910,-0.705,-0.362,1.091,-241.605,-57.68,-30.66,
39149920,-0.567,-0.557,1.276,-174.597,-79.642,-39.375,
39149920,-0.033,-1.081,1.6,-116.62,-19.74,-30.642,
39149940,-1.239,-0.854,0.45,54.18,62.755,-33.022,
39149940,-1.971,-0.1,-1.49,292.845,41.597,-21.56,
39149960,-1.186,0.606,-0.961,302.942,34.492,65.94,
39149960,0.121,-0.188,-0.717,129.517,75.075,172.812,
39149980,0.963,-0.763,-0.589,-2.747,106.47,209.632,
39149980,0.535,-0.053,0.426,-18.147,57.085,156.502,
39150000,1.528,0.497,1.124,-98.962,-147.28,77.875,
39150000,0.767,-1.73,1.756,44.082,-42.647,-23.065,
39150010,-1.045,-1.897,1.682,457.082,-183.802,-287.367,
39150020,1.998,1.094,1.599,519.96,-84.997,-34.3,
39150030,0.379,0.637,1.754,448.035,75.985,20.982,
39150040,-1.829,1.98,0.23,254.8,110.355,-9.1,
39150050,-0.532,1.175,0.524,90.177,17.727,31.482,
39150060,-0.331,0.441,0.978,-65.625,-35.227,-15.995,
39150070,-0.004,-0.175,1.161,-77.157,-38.08,-0.087,
39150080,-0.211,-0.044,1.008,-35.052,-37.467,0.805,
39150090,0.289,0.007,0.955,-36.207,-33.022,2.66,
39150100,0.223,-0.135,1.042,-41.842,-16.835,-2.66,
39150110,0.098,0,1.052,-15.347,-3.272,2.712,
39150120,0.017,0.179,0.994,15.067,0.647,5.985,
39150130,0.047,0.277,0.968,16.17,3.272,7.525,
39150140,0.087,0.206,0.98,3.272,7.595,6.772,
39150150,0.033,0.232,0.993,-7.875,13.807,5.687,
39150160,-0.09,0.37,0.997,-19.495,18.34,5.285,
39150170,-0.088,0.413,1.001,-41.125,17.815,3.885,
39150180,-0.009,0.3,1.062,-71.015,18.182,0.157,
39150190,-0.057,0.227,1.126,-93.135,19.407,-6.895,
39150200,-0.035,0.268,1.131,-110.39,21.402,-11.585,
39150210,-0.057,0.264,1.138,-131.355,23.642,-9.782,
39150220,-0.141,0.205,1.172,-166.985,8.4,-3.955,
39150230,0.049,0.204,1.112,-212.012,13.86,13.877,
39150240,-0.161,0.112,1.041,-232.767,19.267,22.715,
39150250,-0.193,0.041,1.039,-241.062,11.007,22.645,
39150260,-0.277,0.089,1.091,-250.687,3.097,28.577,
39150260,-0.35,0.05,1.079,-256.602,-19.495,31.255,
39150280,-0.246,-0.19,1.113,-261.555,-29.295,31.727,
39150280,-0.155,-0.33,1.109,-260.75,-29.505,38.22,
39150300,-0.169,-0.416,1.016,-219.082,-41.615,41.825,
39150300,0.026,-0.576,1.041,-148.802,-44.135,45.412,
39150320,-0.556,-0.455,0.882,-59.815,-25.637,58.362,
39150320,-0.987,-0.124,0.73,73.605,-11.287,34.895,
39150330,-1.643,1.293,-0.475,144.532,14.35,96.932,
39150340,-0.213,1.565,-1.423,245.822,21.665,214.112,
39150350,0.769,1.477,-1.324,245.752,27.825,270.322,
39150360,1.449,0.054,1.192,142.94,-26.407,239.05,
39150370,1.295,-1.998,1.171,-104.79,14.997,6.02,
39150380,-1.998,-0.316,1.239,110.88,-98.052,-356.667,
39150390,1.17,1.739,0.159,536.165,-134.61,-100.397,
39150400,1.998,-0.008,1.371,554.225,-70.997,203.84,
39150410,0.71,0.583,1.998,413.052,36.435,-58.03,
39150420,-1.793,1.897,0.734,274.015,138.11,0.122,
39150430,-1.286,1.746,0.085,219.485,24.307,41.142,
39150440,-0.219,0.294,0.765,-8.225,-64.067,1.627,
39150450,0.083,-0.362,1.324,-145.81,-40.11,-9.45,
39150460,-0.264,-0.018,1.11,-54.81,-43.837,-12.652,
39150470,0.533,0.058,0.916,-13.142,-41.037,4.147,
39150480,0.097,-0.036,0.99,-39.69,-15.557,-2.345,
39150490,0.127,0.001,1.067,-35.367,-2.432,-1.907,
39150500,-0.053,0.198,1.026,-1.347,-0.262,0.42,
39150510,0.105,0.275,0.983,11.48,-0.49,5.18,
39150520,0.122,0.25,0.98,-1.452,6.405,3.535,
39150530,0.003,0.25,1.02,-23.31,15.382,1.4,
39150540,0.006,0.347,1.044,-38.832,20.002,0.595,
39150550,0.083,0.344,1.064,-63.402,26.32,-1.05,
39150560,0.116,0.226,1.121,-98.98,37.38,-9.31,
39150570,0.072,0.215,1.138,-128.52,51.94,-15.715,
39150580,-0.265,0.144,1.198,-144.76,56.157,-14.927,
39150590,0.016,0.105,1.061,-168.612,19.775,-7.035,
39150600,-0.197,-0.017,1.069,-193.357,37.485,18.462,
39150610,-0.547,-0.049,1.113,-196.945,14.472,17.71,
39150620,-0.843,-0.131,1.041,-199.832,-16.835,14.647,
39150630,-0.463,-0.48,0.971,-199.587,-25.725,17.517,
39150640,-0.409,-0.652,1.099,-187.757,-9.642,25.445,
39150650,-0.265,-0.72,1.004,-140.892,-33.005,11.777,
39150660,0.023,-1.086,0.649,-62.545,-38.657,4.707,
39150670,-1.676,-1.767,-0.045,47.565,14.332,-20.422,
39150670,-1.952,-1.115,-0.323,132.755,58.8,-30.817,
39150690,-0.699,-0.78,-0.903,141.207,50.872,60.392,
39150690,0.572,-0.455,0.316,123.165,-16.292,43.26,
39150710,1.461,1.382,1.366,-14.612,-122.517,47.932,
39150710,1.936,1.851,1.061,46.83,-35.962,105.717,
39150730,-0.646,1.759,0.209,364.122,-203.927,9.45,
39150730,1.798,-1.92,1.963,361.725,-144.462,-79.957,
39150750,1.18,0.622,1.954,191.047,76.405,-33.6,
39150750,-1.542,1.919,0.545,398.632,118.562,4.06,
39150760,-0.795,1.448,0.052,258.492,31.272,32.987,
39150770,-0.288,0.936,0.763,-39.742,-9.625,11.952,
39150780,-0.154,-0.184,1.262,-118.037,-23.625,5.285,
39150790,-0.476,-0.112,1.149,-43.925,-34.475,12.232,
39150800,0.137,0.033,0.919,-1.907,-52.797,0.98,
39150810,0.545,-0.046,0.978,-38.482,-36.942,-12.285,
39150820,0.199,-0.111,1.082,-41.177,-7.017,-8.68,
39150830,-0.107,0.064,1.03,-1.715,2.047,-2.03,
39150840,0.06,0.2,0.98,14.525,-0.525,-1.732,
39150850,0.057,0.236,0.989,9.17,2.485,-0.927,
39150860,-0.018,0.246,0.993,2.712,6.86,4.287,
39150870,-0.088,0.302,0.976,-4.865,7.122,6.002,
39150880,-0.043,0.32,0.97,-25.445,7.35,5.32,
39150890,0.016,0.271,1.029,-52.955,10.955,3.85,
39150900,0.046,0.264,1.073,-72.047,16.59,3.622,
39150910,0.129,0.271,1.115,-90.912,24.727,5.18,
39150920,0.247,0.292,1.147,-112.84,40.075,4.06,
39150930,0.201,0.217,1.258,-133.682,63.087,2.03,
39150940,-0.09,0.153,1.235,-171.675,70.665,2.415,
39150950,0.324,0.081,1.185,-212.065,63.245,19.495,
39150960,0.15,-0.053,1.194,-230.86,84.91,46.34,
39150970,0.077,-0.074,1.214,-224.63,77.332,53.9,
39150980,-0.088,-0.297,1.139,-207.812,58.38,72.555,
39150990,0.441,-0.876,1.524,-206.71,42.612,99.942,
39151000,0.445,-0.886,1.218,-194.565,54.197,120.802,
39151010,0.154,-0.404,1.27,-119.157,27.51,131.197,
39151010,0.093,-0.553,0.828,-90.16,0.822,142.922,
39151030,1.176,-1.144,0.919,-84.227,-14.542,144.532,
39151030,1.486,-1.348,0.337,-60.06,-11.532,123.34,
39151050,1.169,0.153,-0.309,2.082,-62.807,62.457,
39151050,0.263,1.889,-1.08,83.212,-142.922,-43.382,
39151070,-0.328,1.997,-1.405,119.157,-199.027,-168.367,
39151070,-1.193,1.994,-1.265,47.197,-168.525,-192.657,
39151080,-1.929,1.108,-0.371,-53.48,-65.397,-155.785,
39151090,-1.889,-1.223,1.548,-113.4,64.872,-124.985,
39151100,-1.268,-1.414,1.61,141.225,58.765,-171.325,
39151110,0.124,1.904,-0.399,555.572,-133.63,-23.222,
39151120,1.998,0.69,1.984,564.287,-63.77,-0.752,
39151130,-1.063,1.329,0.659,326.27,110.39,-131.792,
39151140,-1.189,0.744,0.102,150.22,56.472,-29.575,
39151150,-1.281,1.102,0.771,-62.387,-20.3,36.942,
39151160,0.357,-0.644,1.317,-113.89,-71.172,7.297,
39151170,-0.372,0.094,1.057,-77.455,-49.997,27.965,
39151180,0.253,0.063,0.987,-46.427,-56.087,26.197,
39151190,0.535,-0.186,0.979,-59.412,-35.717,31.185,
39151200,0.055,-0.237,1.051,-41.072,-15.155,21.787,
39151210,0.26,-0.129,1.03,-0.927,-10.097,15.907,
39151220,0.18,0.133,0.965,27.702,-3.325,9.1,
39151230,0.211,0.14,0.958,25.777,6.58,6.387,
39151240,0.029,0.162,0.994,11.392,16.485,0.962,
39151250,-0.128,0.34,1.001,3.587,17.622,-2.31,
39151260,-0.219,0.347,0.951,-7.77,9.485,-6.755,
39151270,-0.139,0.203,0.997,-34.125,-0.507,-16.992,
39151280,-0.11,0.132,1.039,-47.792,-7.997,-25.62,
39151290,-0.108,0.139,1.009,-48.702,-16.922,-30.52,
39151300,0.017,0.131,0.97,-51.59,-21.157,-33.145,
39151310,0.153,0.061,0.956,-50.505,-18.112,-30.747,
39151320,0.143,0.05,0.95,-45.325,-8.68,-24.902,
39151330,0.063,0.014,0.931,-33.775,-2.082,-17.552,
39151340,0.024,0.006,0.93,-18.27,1.33,-8.697,
39151350,-0.025,0.039,0.951,-1.4,1.295,-0.56,
39151360,-0.033,0.077,0.978,13.3,-0.105,3.657,
39151370,0.018,0.112,0.978,23.327,-2.485,4.567,
39151380,0.062,0.11,0.986,28.49,-1.522,5.267,
39151390,0.101,0.136,0.996,31.027,0.525,4.987,
39151400,0.098,0.146,0.982,30.555,4.235,3.937,
39151410,0.066,0.144,0.981,25.287,8.627,3.552,
39151420,-0.052,0.162,0.992,20.387,12.74,5.145,
39151420,-0.157,0.197,0.988,18.375,10.5,6.212,
39151440,-0.155,0.197,0.971,15.277,3.71,6.3,
39151440,-0.076,0.157,0.979,12.495,-3.99,6.107,
39151460,-0.036,0.139,0.978,11.602,-8.085,6.632,
39151460,0.013,0.158,0.983,10.762,-9.992,7.647,
39151470,0.05,0.167,0.975,9.397,-9.817,7.525,
39151480,0.057,0.153,0.978,4.952,-7.63,6.65,
39151490,0.059,0.143,0.985,2.24,-4.567,5.04,
39151500,0.035,0.148,0.976,2.45,-2.135,3.762,
39151510,0.027,0.144,0.979,1.82,-0.175,2.082,
39151520,-0.01,0.144,0.984,2.432,0.857,1.12,
39151530,-0.008,0.158,0.978,3.92,0.927,1.662,
39151540,-0.01,0.167,0.976,4.2,0.385,2.275,
39151550,-0.009,0.147,0.981,2.835,-0.087,2.66,
39151560,0.004,0.136,0.986,1.82,0.262,3.395,
39151570,-0.003,0.143,0.977,2.642,0.297,3.237,
39151580,0.003,0.138,0.98,2.24,0.612,2.555,
39151590,-0.009,0.163,0.979,2.082,0.49,1.872,
39151600,-0.023,0.159,0.976,1.89,0.14,2.327,
39151610,-0.043,0.168,0.978,0,-0.945,2.677,
39151620,-0.039,0.169,0.974,-1.977,-2.362,3.535,
39151630,-0.041,0.158,0.976,-4.357,-3.832,4.497,
39151640,-0.05,0.164,0.978,-5.915,-5.442,4.952,
39151650,-0.022,0.164,0.977,-5.95,-8.242,5.32,
39151660,0,0.159,0.977,-5.862,-9.642,5.547,
39151670,0.004,0.154,0.978,-5.915,-10.692,5.53,
39151680,0.035,0.142,0.976,-6.16,-10.062,5.67,
39151690,0.056,0.124,0.972,-6.002,-8.312,5.827,
39151700,0.066,0.098,0.974,-4.9,-3.657,7.42,
39151710,0.011,0.092,0.978,-0.77,0.385,9.082,
39151720,-0.024,0.125,0.983,4.847,2.065,10.272,
39151730,-0.016,0.155,0.982,9.432,0.175,10.57,
39151740,0.012,0.154,0.986,9.887,-0.105,10.657,
39151750,-0.002,0.173,0.984,8.277,0.35,10.85,
39151760,0.012,0.18,0.982,5.285,1.33,11.34,
39151760,0.021,0.197,0.976,1.662,1.732,11.62,
39151780,-0.006,0.154,0.987,-1.662,2.292,11.987,
39151780,0.021,0.164,0.982,-3.115,1.47,8.995,
39151800,0.023,0.153,0.978,-3.027,2.695,8.802,
39151800,-0.004,0.149,0.982,-3.465,4.375,9.275,
39151820,-0.068,0.169,0.981,-3.185,5.005,10.727,
39151820,-0.068,0.178,0.979,-3.29,1.155,9.52,
39151830,-0.034,0.178,0.988,-6.282,-2.117,8.172,
39151840,-0.015,0.188,0.994,-9.677,-4.2,7.07,
39151850,0.044,0.171,0.977,-13.72,-4.375,6.3,
39151860,0.117,0.22,0.989,-17.762,-1.575,7.367,
39151870,0.098,0.197,0.985,-22.137,3.027,8.102,
39151880,0.124,0.213,1.004,-30.957,11.042,11.69,
39151890,0.059,0.158,1.011,-37.502,18.462,14.927,
39151900,-0.016,0.12,1.013,-43.61,22.277,16.082,
39151910,-0.029,0.057,1.018,-46.182,22.4,19.617,
39151920,-0.143,-0.075,1.012,-50.242,11.847,25.497,
39151930,0.254,-0.094,1.179,-69.877,14.07,40.425,
39151940,-0.04,0.39,0.964,-69.23,25.865,54.162,
39151950,-0.045,0.152,0.977,-59.745,24.447,60.725,
39151960,-0.077,0.075,1.022,-86.152,30.397,61.547,
39151970,-0.185,0.035,1.024,-95.06,29.697,62.965,
39151980,-0.016,0.037,1.025,-91.77,27.16,65.677,
39151990,-0.029,0.092,1.001,-94.395,27.895,67.112,
39152000,-0.067,0.08,1.008,-99.697,25.935,63.017,
39152010,-0.051,0.013,1.027,-106.242,24.92,63.962,
39152020,-0.043,-0.045,1.023,-112.245,21.437,66.937,
39152030,-0.017,-0.125,1.027,-118.335,18.392,71.452,
39152040,0.028,-0.2,1.031,-126.665,18.357,77.822,
39152050,-0.029,-0.242,1.029,-131.355,17.412,85.242,
39152060,0.21,-0.269,1.056,-135.887,20.737,97.405,
39152070,0.09,-0.244,1.008,-131.127,27.125,113.312,
39152080,0.094,-0.35,1.043,-122.307,30.205,123.322,
39152090,0.159,-0.446,1.05,-120.137,37.135,141.19,
39152100,0.046,-0.409,1.125,-108.342,47.512,160.58,
39152110,0.091,-0.283,1.124,-89.792,47.232,179.795,
39152120,-0.262,-0.213,0.998,-66.447,34.58,195.545,
39152130,-0.368,-0.146,0.987,-52.535,13.895,208.705,
39152140,-0.312,-0.234,0.971,-41.037,3.01,238.63,
39152140,-0.216,-0.436,0.983,-13.16,8.872,272.02,
39152160,0.266,-0.634,0.86,16.222,16.38,286.702,
39152160,0.546,-0.708,0.727,33.25,13.527,273.857,
39152170,0.481,-0.555,0.672,30.31,-3.937,230.23,
39152180,0.351,-0.478,0.688,11.69,-21.945,174.615,
39152190,0.291,-0.453,0.785,-26.495,-35.7,115.867,
39152200,0.081,-0.351,0.852,-62.545,-50.645,54.145,
39152210,-0.159,-0.253,0.841,-74.2,-66.342,-10.675,
39152220,-0.343,-0.241,0.88,-70.892,-70.647,-57.365,
39152230,-0.511,-0.214,0.91,-66.447,-62.545,-72.52,
39152240,-0.594,-0.155,0.899,-52.482,-52.36,-74.147,
39152250,-0.61,-0.111,0.881,-34.282,-42.14,-69.982,
39152260,-0.594,-0.081,0.867,-16.012,-34.387,-65.467,
39152270,-0.559,-0.079,0.852,3.745,-30.8,-60.987,
39152280,-0.552,-0.068,0.854,20.037,-30.642,-51.03,
39152290,-0.538,-0.055,0.855,29.54,-32.357,-35.735,
39152300,-0.504,-0.055,0.829,35.192,-31.657,-17.815,
39152310,-0.475,-0.061,0.784,42.262,-27.492,-0.647,
39152320,-0.435,-0.013,0.733,46.41,-18.725,6.947,
39152330,-0.459,0.018,0.706,41.79,-0.612,14.297,
39152340,-0.528,0.037,0.721,41.335,18.165,29.155,
39152350,-0.515,0.098,0.74,43.697,30.835,46.795,
39152360,-0.548,0.145,0.77,49.84,31.867,65.642,
39152370,-0.361,0.321,1.15,47.617,17.167,78.872,
39152380,0.395,0.291,1.45,32.445,-29.977,84.682,
39152390,0.937,-0.279,0.924,73.202,-42.612,80.097,
39152400,-0.52,-0.084,0.974,149.572,-42,25.165,
39152410,-0.911,-0.118,0.851,188.632,-74.287,-36.592,
39152420,0.011,-0.535,1.106,194.477,-92.05,-11.392,
39152430,0.452,-0.571,1.239,200.515,-97.545,6.3,
39152440,-0.574,0.457,1.587,218.75,-124.67,-16.135,
39152450,0.117,0.08,-1.484,61.722,-273.7,1.172,
39152460,1.655,-0.537,1.896,120.452,-15.015,85.54,
39152470,0.777,-0.782,1.693,118.177,40.372,-18.06,
39152480,-0.757,1.22,1.151,142.31,70.735,-40.285,
39152490,-0.853,1.477,0.567,129.587,29.452,-3.5,
39152500,-0.001,0.265,0.841,52.045,-4.777,12.95,
39152510,-0.485,0.472,0.933,-21.14,-19.32,-8.522,
39152510,-0.229,0.048,1.001,-18.252,-44.17,-3.867,
39152530,0.233,0.042,0.991,-15.032,-51.94,12.285,
39152530,0.216,0.054,0.968,-15.242,-48.422,1.575,
39152550,0.153,0.031,1.011,-27.895,-34.667,3.202,
39152550,0.081,0.002,1.029,-20.247,-27.912,6.125,
39152570,0.115,0.047,0.996,-8.347,-25.952,4.795,
39152570,0.225,0.025,0.979,-9.695,-18.655,4.427,
39152580,0.236,-0.004,0.985,-14.052,-6.755,3.692,
39152590,0.158,0.009,0.988,-14.49,5.11,1.732,
39152600,0.083,0.056,0.983,-12.74,12.512,-0.997,
39152610,0.053,0.082,0.988,-10.535,15.977,-2.362,
39152620,0.023,0.08,1.006,-8.295,17.272,-2.677,
39152630,0.052,0.083,0.985,-6.562,17.587,-5.495,
39152640,0.062,0.127,0.969,-0.21,16.572,-4.865,
39152650,0.018,0.089,0.95,5.127,14.77,-3.745,
39152660,0.092,0.158,0.913,9.117,12.355,-1.54,
39152670,0.037,0.133,0.932,17.57,7.455,4.34,
39152680,-0.042,0.064,0.983,17.167,4.025,3.517,
39152690,-0.111,0.165,0.993,17.955,-1.697,1.417,
39152700,0.008,0.152,0.99,19.127,-6.737,3.815,
39152710,0.074,0.174,1.005,10.85,-6.037,5.617,
39152720,0.006,0.282,1.026,-0.735,-4.042,6.352,
39152730,0.025,0.35,1.07,-19.022,-3.552,12.057,
39152740,0.182,0.361,1.128,-50.47,0.332,17.22,
39152750,0.325,0.493,1.313,-95.217,14.665,17.71,
39152760,0.211,0.433,1.444,-151.375,47.267,10.01,
39152770,-0.062,0.372,1.441,-221.637,70,-7.647,
39152780,0.092,0.479,1.381,-301.63,88.357,-7.682,
39152790,0.138,0.576,1.337,-363.002,103.687,5.757,
39152800,0.27,0.46,1.247,-397.53,108.972,5.88,
39152810,0.227,0.057,1.194,-417.567,125.685,-2.765,
39152820,-0.054,-0.656,1.169,-442.382,152.67,-16.24,
39152830,-0.899,-0.044,1.378,-413.892,180.95,38.885,
39152830,-0.37,-0.278,1.512,-253.592,165.987,33.267,
39152850,-0.211,-0.459,1.223,-161.315,94.36,7.595,
39152850,-0.145,-0.445,1.256,-152.25,136.71,34.072,
39152870,-0.091,-0.152,0.836,-155.68,202.93,50.032,
39152870,-0.212,-0.009,0.65,-131.145,220.5,44.502,
39152890,-1.785,0.519,1.856,-118.055,133.35,23.782,
39152890,-0.967,0.49,0.376,-122.535,-59.377,9.695,
39152910,0.453,-0.323,0.029,45.535,-31.867,129.43,
39152910,1.124,-0.507,0.157,116.392,44.24,163.1,
39152920,0.7,-0.261,-0.084,103.845,55.65,150.727,
39152930,-0.014,-0.055,0.099,127.89,33.6,119.525,
39152940,0.124,-0.22,0.126,149.467,-5.652,84.35,
39152950,0.355,-0.414,0.15,137.865,-13.037,84.332,
39152960,0.31,-0.459,0.174,105.402,-9.835,103.652,
39152970,0.129,-0.502,0.319,81.742,-22.802,91.98,
39152980,0.174,-0.652,0.476,64.557,-43.977,31.412,
39152990,0.18,-0.964,0.63,48.037,-65.24,-53.305,
39153000,0.149,-1.088,0.742,37.292,-84.77,-168.385,
39153010,-0.168,-1.037,0.81,49.455,-75.355,-233.222,
39153020,-0.38,-1.262,0.637,81.462,-69.16,-268.677,
39153030,-0.629,-1.019,0.702,115.115,-83.37,-274.26,
39153040,-0.616,-0.859,0.856,177.397,-94.045,-261.222,
39153050,-0.469,-0.958,0.492,190.54,-70.63,-312.952,
39153060,-0.865,-0.795,0.499,140.157,-58.257,-303.957,
39153070,-0.681,-0.72,0.54,111.3,-38.5,-292.722,
39153080,-0.687,-0.627,0.75,84.28,-22.995,-265.265,
39153090,-0.62,-0.687,0.859,69.247,-15.277,-245.192,
39153100,-0.294,-0.683,0.679,76.667,-11.165,-272.492,
39153110,-0.457,-1.096,1.697,110.442,-73.097,-304.272,
39153120,-1.081,-1.688,1.554,134.277,-121.572,-238.682,
39153130,0.042,-0.716,1.219,225.662,-74.427,-136.762,
39153140,0.26,0.671,0.922,322.227,-69.842,-13.492,
39153150,-0.403,0.686,0.803,373.467,-77.665,62.265,
39153160,-0.599,-0.446,1.321,352.38,-50.995,95.795,
39153170,0.432,-0.864,1.994,290.43,0.84,102.095,
39153180,0.81,0.709,1.357,274.925,8.102,77.157,
39153190,-0.189,1.902,0.375,276.85,-2.345,81.707,
39153200,-0.104,0.375,0.696,206.5,-19.407,72.695,
39153210,-0.469,0.716,0.768,33.127,-14.717,34.842,
39153220,-0.053,0.152,1.213,-57.732,-26.18,13.002,
39153230,0.059,-0.134,0.747,-117.547,-47.932,23.047,
39153240,0.236,-0.171,1.086,-90.072,-31.43,18.707,
39153250,0.128,-0.029,0.987,-55.125,-17.692,7.017,
39153260,0.106,0.04,0.993,-40.425,-8.365,5.232,
39153260,0.071,0.064,1.018,-30.677,-3.517,2.957,
39153280,0.034,0.057,1.028,-10.395,-2.222,4.27,
39153280,0.027,0.1,1.012,11.287,-2.782,6.23,
39153300,0.039,0.136,0.993,21.997,-2.415,7.595,
39153300,0.06,0.163,0.971,14.77,-0.052,7.35,
39153320,0.019,0.177,0.973,-4.935,2.817,2.397,
39153320,0.04,0.174,0.983,-31.062,6.125,-2.24,
39153330,0.058,0.151,0.997,-58.555,10.255,-7.42,
39153340,0.059,0.145,1.031,-84.577,15.417,-10.99,
39153350,0.064,0.107,1.07,-102.48,19.005,-12.635,
39153360,0.038,0.144,1.109,-116.97,22.067,-13.65,
39153370,0.066,0.164,1.133,-129.867,25.27,-14.945,
39153380,0.065,0.111,1.18,-140.472,36.207,-12.215,
39153390,-0.019,0.131,1.151,-154.892,46.497,-10.762,
39153400,-0.074,0.082,1.135,-170.712,47.53,-2.572,
39153410,-0.135,-0.025,1.044,-190.872,42.84,7.157,
39153420,-0.163,-0.121,1.052,-197.75,29.225,7.105,
39153430,-0.144,-0.289,1.11,-192.01,22.767,0.262,
39153440,-0.049,-0.336,1.097,-180.705,16.677,-6.072,
39153450,-0.079,-0.325,0.967,-158.532,13.58,-7.367,
39153460,-0.079,-0.382,0.825,-124.32,8.155,-6.947,
39153470,-0.13,-0.518,0.644,-84.245,3.062,-4.9,
39153480,-0.247,-0.614,0.376,-30.187,-9.502,-8.277,
39153490,-0.088,-0.577,-0.11,56.892,-23.345,-16.24,
39153500,0.107,-0.273,-1.066,131.792,-12.162,-7.315,
39153510,-0.623,0.392,0.41,168.35,-29.26,20.195,
39153520,-1.839,0.252,1.272,99.557,-94.08,-23.992,
39153530,-0.655,-1.098,0.915,122.307,-167.107,-77.315,
39153540,1.735,-1.987,1.793,191.765,-142.537,-26.197,
39153550,1.998,-0.963,1.874,340.567,-69.405,24.692,
39153560,0.784,0.234,1.739,428.4,53.095,-23.94,
39153570,-1.807,1.997,-0.138,317.397,23.485,8.662,
39153580,-0.104,0.157,0.568,224.77,-36.05,67.62,
39153580,-0.192,1.075,0.913,5.022,-43.242,41.527,
39153600,0.316,-0.977,1.203,-92.137,-35.857,22.295,
39153600,-0.188,-0.21,1.165,-107.66,-24.202,5.162,
39153620,0.387,-0.275,1.047,-44.887,-33.967,4.095,
39153620,0.411,-0.199,0.947,-28.385,-15.662,11.567,
39153640,0.068,0.056,1.02,-34.982,3.43,4.777,
39153640,0.111,-0.099,1.056,-20.125,6.09,5.792,
39153660,0.066,0.129,1.05,11.83,4.515,11.41,
39153660,0.168,0.082,0.999,35.56,2.24,17.972,
39153670,0.17,0.122,0.974,21.21,10.342,19.897,
39153680,0.116,0.155,1.018,-9.065,21.945,19.022,
39153690,0.129,0.2,1.052,-41.86,33.057,22.26,
39153700,0.227,0.142,1.065,-80.727,45.255,25.182,
39153710,0.215,-0.055,1.08,-123.987,62.615,29.872,
39153720,0,-0.158,1.096,-151.41,69.002,26.407,
39153730,-0.387,-0.127,1.129,-159.495,56,26.407,
39153740,0.251,-0.047,1.106,-161.665,7.752,43.155,
39153750,-0.239,-0.219,0.929,-159.11,24.762,74.707,
39153760,-0.294,-0.358,1.014,-138.005,-2.992,69.405,
39153770,-0.053,-0.446,0.928,-115.307,-8.277,69.125,
39153780,-0.242,-0.608,0.721,-74.077,-25.725,69.492,
39153790,-0.525,-0.74,0.471,-28.157,-45.465,57.382,
39153800,-0.95,-0.642,0.101,18.567,-66.307,42.787,
39153810,-0.473,-0.048,0.637,70.595,-69.562,35.28,
39153820,0.414,0.418,0.78,115.097,-68.897,53.217,
39153830,0.191,0.982,0.84,196.455,-98.84,60.077,
39153840,1.481,-0.228,1.384,265.965,-81.602,61.005,
39153850,1.847,-1.869,1.954,193.007,52.342,72.327,
39153860,-0.74,0.957,1.298,158.567,92.155,-2.642,
39153870,-1.275,1.887,0.262,219.31,-0.717,-0.542,
39153880,0.662,-0.297,0.799,136.867,-5.477,67.987,
39153890,-0.302,0.649,0.914,-17.22,-7.612,6.772,
39153900,-0.063,-0.043,1.03,-24.902,-34.352,-34.632,
39153910,0.06,-0.164,1.127,-36.452,-21.472,-5.075,
39153920,-0.016,0.049,1.005,-21.035,-26.04,-16.835,
39153930,0.216,-0.118,1.03,-24.272,-17.587,-3.43,
39153940,0.12,-0.163,1.054,-20.877,-9.485,-7.577,
39153950,0.109,-0.082,1.041,1.697,-4.69,-5.022,
39153960,0.134,-0.007,0.998,19.687,0.84,4.165,
39153970,0.067,0.028,0.994,21.455,6.58,8.47,
39153980,0.024,0.07,0.981,11.235,11.147,8.05,
39153990,-0.054,0.102,0.982,-2.957,11.725,4.655,
39154000,-0.074,0.108,0.983,-15.575,9.485,1.557,
39154010,-0.057,0.094,0.986,-25.305,5.46,-0.997,
39154010,-0.022,0.043,1.002,-29.102,1.82,-2.747,
39154030,-0.003,0.028,1.001,-27.212,-1.645,-3.902,
39154030,0.014,-0.002,1.009,-21.962,-3.832,-4.27,
39154050,0.006,0.01,1.005,-14.105,-5.757,-3.395,
39154050,0,0.033,0.995,-6.545,-7.577,-1.802,
39154070,-0.005,0.036,0.993,-1.802,-9.765,-0.245,
39154070,0.027,0.029,0.986,-1.452,-11.042,0.665,
39154080,0.053,0.022,0.986,-3.395,-10.78,1.225,
39154090,0.059,0.033,0.982,-6.23,-9.957,0.315,
39154100,0.054,0.042,0.982,-7.98,-9.24,-0.402,
39154110,0.035,0.028,0.988,-7.805,-9.327,-1.19,
39154120,0.055,0.024,0.989,-6.125,-9.835,-2.117,
39154130,0.048,0.03,0.986,-3.955,-10.22,-2.817,
39154140,0.047,0.036,0.986,-3.517,-9.642,-1.925,
39154150,0.055,0.033,0.979,-3.465,-9.31,-0.752,
39154160,0.067,0.025,0.981,-3.972,-7.752,1.33,
39154170,0.054,0.024,0.985,-3.955,-6.667,2.485,
39154180,0.025,0.058,0.986,-2.887,-6.387,3.99,
39154190,0.023,0.031,0.985,-0.595,-8.855,4.392,
39154200,0.066,-0.009,0.997,-0.21,-9.152,4.375,
39154210,0.043,0.017,0.994,2.065,-9.852,2.31,
39154220,0.049,0.017,0.987,2.187,-9.922,1.137,
39154230,0.081,0.004,0.987,-0.892,-9.24,-0.035,
39154240,0.063,0.035,0.982,-2.257,-7.805,-0.997,
39154250,0.069,0.034,0.976,-3.115,-7.157,-1.015,
39154260,0.073,0.033,0.985,-4.287,-5.722,0.087,
39154270,0.082,0.006,0.993,-2.975,-5.232,0.945,
39154280,0.077,0.003,0.994,-1.277,-3.552,1.995,
39154290,0.057,0.016,0.995,0.28,-2.152,3.132,
39154300,0.024,0.015,1.001,0.595,-1.4,3.307,
39154310,0.027,0.025,0.992,-1.067,-2.432,2.835,
39154320,0.041,0.045,0.99,-2.415,-3.15,2.747,
39154330,0.038,0.049,0.989,-2.607,-5.145,2.38,
39154330,0.067,0.027,0.994,-3.307,-5.985,2.397,
39154350,0.074,0.019,0.999,-2.572,-6.527,2.66,
39154350,0.087,0.02,0.992,-2.45,-5.477,3.43,
39154370,0.083,0.016,0.995,-4.27,-3.727,4.235,
39154370,0.063,0.022,0.995,-7.052,-1.645,4.515,
39154390,0.055,0.021,0.99,-9.992,-0.227,5.04,
39154390,0.049,0.001,0.991,-13.422,1.435,5.127,
39154410,0.04,0.004,0.997,-15.942,2.257,4.672,
39154410,0.024,0.02,0.995,-16.082,2.345,4.515,
39154420,0.023,0.017,0.989,-16.765,1.487,4.62,
39154430,0.036,0.02,0.995,-18.34,1.19,5.145,
39154440,0.016,0.02,1.002,-19.53,0.14,5.46,
39154450,0.045,0.026,1.005,-22.592,-0.542,5.862,
39154460,0.057,0.036,1.018,-27.51,-0.682,6.842,
39154470,0.072,0.045,1.022,-34.597,0,7.28,
39154480,0.061,0.051,1.03,-43.995,1.732,7.63,
39154490,0.043,0.084,1.035,-53.725,2.8,6.387,
39154500,0.09,0,1.015,-64.225,4.952,5.705,
39154510,0.083,-0.09,1.047,-76.142,11.06,3.15,
39154520,0.013,-0.049,1.048,-89.005,17.167,-2.502,
39154530,0.046,-0.012,1.031,-96.355,21.98,-5.722,
39154540,0.031,-0.08,1.051,-103.127,26.005,-5.162,
39154550,-0.017,-0.094,1.05,-113.4,25.147,-8.312,
39154560,-0.007,-0.123,1.063,-119.927,23.8,-8.942,
39154570,-0.04,-0.118,1.044,-123.025,20.072,-7.087,
39154580,0.008,-0.13,1.031,-123.48,10.71,-4.585,
39154590,-0.005,-0.234,1.009,-126.157,7.367,-0.77,
39154600,0.018,-0.279,0.978,-126.805,7.297,-2.765,
39154610,-0.049,-0.336,0.997,-111.807,10.71,8.977,
39154620,0.065,-0.259,1.044,-62.755,9.047,2.24,
39154630,-0.027,-0.217,0.977,-44.415,-1.12,-8.855,
39154640,-0.126,-0.183,0.952,-61.232,-7.385,-8.54,
39154650,-0.094,-0.22,0.968,-73.92,-12.495,-7.962,
39154660,-0.058,-0.272,0.938,-65.87,-17.027,-9.817,
39154670,-0.029,-0.292,0.93,-46.497,-20.422,-16.275,
39154680,-0.056,-0.33,0.953,-38.29,-23.59,-18.27,
39154690,-0.052,-0.364,1.199,-37.607,-25.987,-18.41,
39154700,-0.105,-0.125,1.359,-35.42,-36.907,-13.597,
39154710,-0.277,-0.013,0.706,1.505,-20.16,-5.425,
39154720,0.048,-0.047,0.946,59.447,2.362,13.247,
39154730,-0.091,-0.113,0.805,67.76,0.14,41.037,
39154740,-0.084,-0.179,0.782,84.14,-8.015,48.58,
39154750,0.103,-0.193,0.881,98.612,-7.857,55.387,
39154760,0.21,-0.284,0.828,98.892,-8.19,70.245,
39154760,0.204,-0.262,0.818,91.647,-5.18,80.29,
39154780,0.166,-0.24,0.783,86.607,-5.285,77.997,
39154780,0.146,-0.255,0.774,77.07,-9.17,71.522,
39154800,0.159,-0.308,0.791,66.027,-14.227,63.875,
39154800,0.171,-0.363,0.83,58.835,-18.48,54.53,
39154820,0.161,-0.39,0.874,52.377,-21.227,44.152,
39154820,0.134,-0.399,0.948,47.687,-24.01,32.742,
39154830,0.096,-0.414,0.956,43.82,-27.44,22.172,
39154840,0.087,-0.402,0.991,40.372,-29.155,12.915,
39154850,0.049,-0.405,1.008,39.69,-30.222,4.06,
39154860,0.024,-0.392,1.005,40.792,-28.56,-6.475,
39154870,-0.015,-0.367,0.992,43.347,-24.185,-12.74,
39154880,-0.079,-0.351,1.002,46.357,-17.36,-12.53,
39154890,-0.14,-0.325,1.013,47.6,-10.045,-11.462,
39154900,-0.235,-0.271,0.997,49.927,-5.792,-6.055,
39154910,-0.311,-0.222,0.986,51.625,-7.385,4.025,
39154920,-0.304,-0.213,1.005,45.902,-10.08,16.957,
39154930,-0.268,-0.245,1.047,37.572,-11.007,34.352,
39154940,-0.201,-0.27,1.08,31.675,-8.89,46.462,
39154950,-0.164,-0.283,1.09,27.527,-6.597,52.64,
39154960,-0.159,-0.286,1.05,24.955,-4.742,61.985,
39154970,-0.116,-0.268,1.017,22.54,-4.112,72.257,
39154980,-0.038,-0.259,1.043,15.207,-2.73,79.38,
39154990,0.016,-0.326,1.086,5.775,1.155,86.152,
39155000,0.052,-0.358,1.127,0.91,7.437,91.297,
39155010,0.104,-0.354,1.095,1.61,11.2,89.04,
39155020,0.19,-0.361,1.037,6.492,15.417,80.587,
39155030,0.253,-0.365,0.963,10.167,18.62,68.32,
39155040,0.262,-0.333,0.909,11.375,20.37,50.277,
39155050,0.245,-0.287,0.884,9.467,17.15,24.727,
39155060,0.226,-0.254,0.836,1.277,14.717,-4.655,
39155070,0.177,-0.249,0.828,-8.697,14.227,-37.485,
39155080,0.122,-0.231,0.854,-21.297,10.255,-72.765,
39155080,0.111,-0.207,0.861,-39.48,2.905,-105.857,
39155100,0.139,-0.205,0.835,-49.262,-4.462,-141.155,
39155100,0.078,-0.162,0.799,-51.642,-15.382,-171.92,
39155120,-0.026,-0.106,0.794,-60.165,-38.587,-197.522,
39155120,0.059,-0.159,0.734,-76.282,-72.607,-218.907,
39155140,0.177,-0.292,0.58,-91.91,-101.657,-231.49,
39155140,0.246,-0.386,0.371,-99.225,-118.3,-240.642,
39155160,0.177,-0.303,0.254,-105.507,-124.337,-252.822,
39155160,-0.019,-0.139,0.156,-118.877,-135.712,-268.38,
39155170,0.255,-0.022,0.346,-128.73,-129.132,-281.82,
39155180,1.035,0.236,1.589,-160.772,72.432,-254.327,
39155190,-1.026,0.242,1.504,-118.475,342.982,-227.062,
39155200,-1.11,0.926,0.984,220.535,189.857,-237.265,
39155210,1.979,0.344,1.957,456.54,254.327,14.07,
39155220,-0.187,-0.96,1.267,245.017,335.527,223.737,
39155230,-1.998,1.997,0.173,246.33,28.332,-107.607,
39155240,-1.724,1.206,0.289,392.857,-158.777,-135.572,
39155250,0.217,-0.351,0.856,115.57,-64.662,118.877,
39155260,0.523,0.15,1.186,-140.437,-27.177,118.72,
39155270,0.612,-0.822,1.291,-135.555,-53.935,21.56,
39155280,0.221,-0.725,1.207,-58.992,-43.487,16.992,
39155290,0.269,-0.131,1.029,-4.76,-29.575,26.232,
39155300,0.183,-0.07,0.983,25.077,-21.122,20.265,
39155310,0.141,-0.023,1.039,28.402,-10.027,21.805,
39155320,0.099,0.009,1.01,48.37,-11.287,17.062,
39155330,0.109,0.004,0.997,54.547,-9.047,19.11,
39155340,0.05,0.122,0.973,40.512,-5.407,13.685,
39155350,0.085,0.107,0.973,17.762,-2.1,11.042,
39155360,0.034,0.096,0.985,-7.612,0.927,5.197,
39155370,0.149,0.046,0.992,-28.752,3.307,0.91,
39155380,0.155,0.033,1.018,-40.845,9.502,-1.032,
39155390,0.15,0.029,1.042,-41.282,14.175,-2.502,
39155400,0.175,0.049,1.042,-39.462,20.86,0.717,
39155410,0.149,0.077,1.065,-44.38,27.965,2.065,
39155420,0.132,0.146,1.125,-61.127,34.667,3.027,
39155430,0.204,0.146,1.166,-90.842,42.735,5.197,
39155440,0.17,0.119,1.166,-132.527,61.687,6.702,
39155450,0.108,0.013,1.158,-175.087,91,5.582,
39155460,-0.324,-0.18,1.156,-212.205,103.705,8.75,
39155470,0.043,-0.193,1.204,-229.53,65.047,13.3,
39155480,-0.146,-0.314,1.193,-219.607,57.032,40.075,
39155490,-0.008,-0.565,1.02,-185.377,14.175,48.335,
39155500,-0.119,-0.739,1.163,-159.617,13.807,53.917,
39155510,-0.273,-0.887,0.98,-143.167,1.732,56.262,
39155510,-0.373,-0.945,1.329,-88.602,-1.225,64.802,
39155530,-0.331,-1.108,0.504,2.065,-23.555,53.655,
39155530,-0.106,-0.711,-0.9,85.907,-34.965,53.165,
39155540,0.269,-0.221,-1.169,150.237,-32.69,46.672,
39155550,0.016,-0.025,-0.478,138.95,-50.505,51.817,
39155560,-0.308,-0.087,-0.639,106.54,-114.905,14.542,
39155570,-0.138,1.124,1.311,74.322,-49.297,-35.192,
39155580,-1.998,1.997,0.488,-100.502,-80.797,-86.24,
39155590,0.845,-0.422,1.088,108.99,-201.127,-98.892,
39155600,0.494,-1.96,1.618,151.287,4.952,98.857,
39155610,1.203,1.222,1.782,366.065,18.112,-117.775,
39155620,-1.655,1.997,0.592,512.82,15.557,23.222,
39155630,-0.671,1.59,-0.204,368.865,-69.002,39.497,
39155640,-0.217,0.561,0.799,94.132,-31.01,72.187,
39155650,0.318,-0.328,0.953,-140.927,-10.377,11.637,
39155660,-0.237,-0.441,1.372,-191.537,5.04,-2.957,
39155670,0.258,-0.593,1.18,-82.302,-25.532,-3.482,
39155680,0.44,-0.214,0.894,-7.805,-21.875,15.365,
39155690,0.236,-0.195,0.96,-22.505,1.347,-0.805,
39155700,0.058,0.037,1.062,-38.202,17.255,-5.862,
39155710,0.02,-0.015,1.09,0.665,12.197,2.992,
39155720,0.2,0.007,1.004,39.252,5.022,7.7,
39155730,0.188,0.081,0.98,34.982,11.9,9.782,
39155740,0.03,0.197,0.998,6.982,20.72,3.027,
39155750,0.073,0.164,1.024,-24.867,25.532,0.35,
39155760,0.176,0.147,1.057,-62.825,31.71,-5.67,
39155770,0.206,0.097,1.162,-105.665,42.577,-11.305,
39155780,0.215,0.085,1.246,-145.46,57.312,-16.73,
39155790,0.207,0.039,1.338,-175.927,84.735,-17.36,
39155800,-0.08,0.098,1.285,-202.475,111.58,-21.735,
39155810,-0.046,0.197,1.19,-222.162,112.7,-23.432,
39155820,-0.136,0.208,1.159,-236.95,115.447,-10.15,
39155830,-0.215,0.111,1.153,-248.762,93.012,-6.16,
39155830,-0.116,-0.502,1.147,-261.415,94.325,-9.1,
39155850,-0.636,-0.14,1.213,-258.405,100.257,21.192,
39155850,-0.158,-0.336,1.286,-166.897,51.135,14.735,
39155870,-0.237,-0.317,0.958,-92.715,43.645,2.257,
39155870,-0.311,0.08,0.708,-59.15,10.815,2.852,
39155890,-0.093,0.403,0.682,-47.477,-30.135,6.65,
39155890,0.556,0.877,0.584,-40.022,-66.01,25.042,
39155910,0.589,1.676,-0.093,27.562,-121.8,64.627,
39155910,-0.131,1.939,-0.915,178.482,-109.305,73.045,
39155920,-0.188,1.652,-0.546,259.892,-138.897,51.345,
39155930,-0.257,0.652,-0.239,179.025,-109.112,49.735,
39155940,-1.702,-1.635,0.201,0.717,-87.447,-38.395,
39155950,-0.269,-1.998,1.592,-83.562,19.652,-436.73,
39155960,-1.423,-0.715,0.967,141.785,-57.645,-318.57,
39155970,1.815,1.953,0.498,530.372,-187.512,24.167,
39155980,1.725,-0.756,1.387,557.725,-24.78,98.507,
39155990,-0.99,0.96,1.577,299.53,83.23,-72.275,
39156000,-1.31,1.608,-0.205,161.77,-3.745,-32.305,
39156010,-0.284,0.754,0.951,117.617,-24.167,75.04,
39156020,0.205,-0.118,0.947,5.18,-54.267,41.615,
39156030,-0.091,-0.12,1.08,-82.04,-30.292,29.032,
39156040,0.203,-0.603,1.052,-113.75,-22.085,11.13,
39156050,0.38,-0.25,1.011,-103.88,-7.595,7.472,
39156060,0.227,-0.475,1.053,-57.312,5.95,8.347,
39156070,0.125,-0.102,1.076,-10.377,13.79,2.625,
39156080,0.032,0.126,1.04,31.762,12.81,5.005,
39156090,0.067,0.138,1.002,51.222,6.965,4.725,
39156100,0.106,0.064,1,48.65,6.65,3.797,
39156110,0.07,0.085,0.982,36.032,9.1,1.085,
39156120,0.058,0.224,0.976,12.827,14.28,-0.525,
39156130,0.043,0.248,0.959,-21.98,17.325,-4.427,
39156140,0.102,0.166,1.012,-67.06,25.515,-4.375,
39156150,0.189,0.092,1.089,-100.555,34.737,-3.902,
39156160,0.266,0.051,1.166,-117.092,50.522,2.677,
39156170,0.264,0.053,1.192,-131.022,71.207,9.73,
39156180,0.101,0.06,1.188,-150.5,87.797,19.302,
39156190,0.094,-0.101,1.105,-172.76,53.83,34.912,
39156200,0.365,-0.325,1.3,-212.817,55.825,68.442,
39156210,0.05,-0.556,1.057,-246.137,63.875,88.532,
39156210,0.314,-0.875,1.282,-238.472,4.48,90.702,
39156230,0.177,-0.768,1.256,-225.61,-23.8,109.165,
39156230,0.826,-1.308,1.155,-176.645,-59.622,119.122,
39156250,0.306,-1.865,0.978,-129.727,-57.767,118.002,
39156250,1.771,-1.998,0.344,-26.74,-61.232,47.635,
39156260,1.586,-1.335,0.639,70.945,-42.07,44.8,
39156270,-1.011,0.27,-1.169,24.22,2.712,64.522,
39156280,-1.998,1.914,-0.069,133.647,-240.817,-42.84,
39156290,-1.196,1.989,-0.368,100.502,-199.115,-143.517,
39156300,-0.254,1.381,-0.943,44.52,-131.53,-46.532,
39156310,0.168,0.662,-0.182,-0.017,-26.075,40.39,
39156320,-0.54,1.036,1.929,-133.77,239.697,4.567,
39156330,-1.783,-1.261,0.964,-234.027,197.645,-157.885,
39156340,0.539,-1.993,1.603,280.857,-15.505,-139.895,
39156350,0.837,1.443,1.191,552.335,-112.577,-54.162,
39156360,1.852,-0.467,1.451,560.507,-29.172,34.23,
39156370,-1.641,1.876,0.538,351.977,15.487,-28.385,
39156380,-0.928,0.786,0.363,231.945,-46.392,-0.735,
39156390,-0.338,1.077,0.842,27.177,-24.675,60.427,
39156400,0.453,-0.61,0.975,-111.772,-20.457,24.08,
39156410,0.009,-0.165,1.076,-189.42,0.612,-9.59,
39156420,0.282,-0.621,1.15,-157.885,-0.332,-12.075,
39156430,0.352,-0.58,1.076,-77.787,3.01,-1.277,
39156440,0.115,-0.145,1.07,-2.73,7.98,-1.225,
39156450,0.076,0.07,0.987,36.4,8.977,4.392,
39156460,0.09,0.054,1.022,42.525,11.427,4.287,
39156470,0.121,0.05,1.027,46.917,10.255,-0.245,
39156480,0.028,0.142,0.981,44.835,11.2,-0.612,
39156490,-0.053,0.277,0.96,21.35,11.812,-6.002,
39156500,-0.029,0.278,0.957,-19.25,13.842,-10.22,
39156510,-0.047,0.189,1.009,-64.627,15.417,-16.94,
39156520,-0.063,0.086,1.064,-98.297,13.685,-21.542,
39156530,-0.052,0.084,1.146,-114.887,9.292,-16.8,
39156540,-0.087,0.127,1.168,-122.762,3.307,-10.447,
39156550,-0.091,0.138,1.15,-137.935,2.117,-6.195,
39156560,-0.054,0.08,1.174,-166.932,9.8,-3.745,
39156570,-0.131,-0.094,1.089,-203.857,16.537,-5.495,
39156580,-0.061,-0.32,1.078,-231.42,31.342,-9.59,
39156580,-0.172,-0.565,1.249,-245.945,44.992,-7.367,
39156600,-0.527,-0.824,1.435,-248.71,24.045,-10.115,
39156600,-1.128,-1.435,1.479,-216.492,-35.017,-36.697,
39156620,-0.467,-1.886,1.103,-118.212,-69.51,-78.417,
39156620,-0.89,-1.941,-1.014,151.742,-31.657,-66.395,
39156640,-1.301,-0.936,-0.889,299.95,-63.07,-40.145,
39156640,-0.74,-0.447,-0.763,224.735,-171.587,-76.982,
39156660,0.233,-0.754,-0.181,139.72,-92.907,-63.175,
39156660,0.53,-1.022,0.15,60.707,-29.487,2.485,
39156670,0.911,0.216,1.009,12.705,11.497,32.322,
39156680,1.949,1.993,1.907,-83.37,160.072,97.562,
39156690,0.291,1.997,-0.776,-5.95,78.837,309.872,
39156700,1.62,-0.342,1.083,381.447,-79.345,235.34,
39156710,-0.294,-1.213,1.998,79.03,102.725,-41.58,
39156720,0.384,1.731,1.868,136.692,97.825,-100.765,
39156730,-1.125,1.912,0.604,463.4,-23.817,78.505,
39156740,-0.303,1.604,0.106,392.91,-100.03,65.082,
39156750,0.043,0.793,0.673,145.932,-52.01,47.32,
39156760,0.055,-0.235,0.853,-78.697,-11.13,-4.97,
39156770,-0.198,-0.305,1.179,-190.19,13.352,-34.247,
39156780,0.305,-0.464,1.272,-142.572,0.682,-33.25,
39156790,0.235,-0.267,1.056,-33.6,-14.122,-17.465,
39156800,0.127,0.178,0.935,1.225,-7.892,-12.565,
39156810,0.139,0.022,0.962,-25.147,3.062,-18.2,
39156820,0.053,0.122,1.053,-46.235,12.845,-19.547,
39156830,0.077,0.025,1.078,-25.462,11.007,-13.352,
39156840,0.124,0.015,1.04,-3.955,12.862,-3.01,
39156850,0.104,0.083,1.007,-5.845,17.885,-0.962,
39156860,0.078,0.124,1.046,-32.882,28.612,3.78,
39156870,0.092,0.092,1.077,-68.775,38.115,6.142,
39156880,0.024,0.04,1.104,-107.205,47.985,6.37,
39156890,0.018,0.073,1.119,-144.13,55.72,8.155,
39156900,-0.038,0.087,1.156,-173.582,64.4,14.245,
39156910,-0.324,0.086,1.238,-195.72,57.295,16.957,
39156920,-0.001,-0.069,1.042,-213.99,37.467,16.275,
39156920,-0.135,-0.308,1.066,-218.767,74.795,21.367,
39156940,-0.282,-0.427,1.042,-200.725,57.242,9.415,
39156940,-0.428,-0.548,0.971,-164.92,33.127,0.56,
39156960,-0.468,-0.786,0.862,-113.802,17.867,-2.135,
39156960,-0.928,-0.593,0.84,-41.772,8.785,-2.642,
39156980,-0.166,-0.392,0.197,38.167,-21.665,-18.445,
39156980,-0.053,-0.051,-0.535,93.152,-36.172,8.172,
39157000,-0.224,0.467,-0.437,136.027,-90.02,16.485,
39157000,0.328,0.512,0.459,119.28,-118.93,15.295,
39157010,0.233,0.234,0.769,68.372,-143.815,25.497,
39157020,-0.372,-1.179,1.859,103.057,-134.505,-23.817,
39157030,1.913,-1.998,1.576,202.002,-61.32,-24.71,
39157040,0.837,0.124,1.998,368.007,10.885,-44.047,
39157050,-1.473,1.992,0.448,429.17,-14.262,-15.487,
39157060,-0.182,0.905,0.242,338.695,-39.935,48.3,
39157070,-0.272,1.13,0.74,85.487,-3.675,44.905,
39157080,-0.046,-0.177,0.961,-66.832,-10.937,-14.49,
39157090,-0.07,-0.279,1.223,-122.36,3.325,-6.055,
39157100,0.051,-0.358,1.194,-65.327,-14.98,-11.357,
39157110,0.238,-0.036,0.956,-8.662,-18.48,2.607,
39157120,0.17,-0.15,0.944,-13.51,-5.512,-2.17,
39157130,0.059,-0.101,1.046,-30.642,7.542,-7.997,
39157140,-0.004,-0.1,1.084,-6.002,7.962,-3.167,
39157150,0.023,0.039,1.015,28.157,4.007,7.35,
39157160,0.024,0.14,0.949,30.415,3.85,11.305,
39157170,0.013,0.102,0.954,4.76,6.65,8.365,
39157180,0.008,0.058,0.99,-20.702,9.835,5.11,
39157190,-0.013,0.039,0.989,-33.53,9.152,1.855,
39157200,0,0.012,0.991,-41.86,8.68,-0.525,
39157210,0.008,-0.028,1.003,-44.52,7.017,-3.272,
39157220,-0.013,-0.048,1.016,-38.71,5.46,-4.55,
39157230,-0.021,-0.062,1.017,-25.287,2.257,-3.867,
39157240,-0.037,-0.027,1.001,-12.81,-0.49,-2.397,
39157250,-0.027,-0.025,0.989,-5.967,-3.552,-1.382,
39157260,0.006,-0.048,0.994,-3.447,-4.41,-0.07,
39157270,0.01,-0.041,0.993,-1.487,-5.442,0,
39157280,0.048,-0.039,0.988,-0.7,-4.357,1.015,
39157290,0.048,-0.028,0.993,-0.017,-2.975,1.452,
39157300,0.048,-0.005,0.992,2.502,-1.96,0.49,
39157310,0.049,0.024,0.986,5.11,-2.065,0.175,
39157320,-0.003,0.045,0.977,5.827,-3.272,-0.682,
39157330,0.051,0.027,0.979,3.64,-4.777,-1.96,
39157330,0.057,-0.004,0.98,0.525,-4.27,-2.59,
39157350,0.043,0.006,0.98,-1.522,-3.36,-3.815,
39157350,0.013,0.036,0.985,-2.082,-2.537,-3.22,
39157370,0,0.058,0.979,-1.942,-3.692,-1.452,
39157370,-0.005,0.026,0.984,-2.1,-5.425,0.262,
39157390,0.012,0.021,0.995,-1.767,-7.682,1.067,
39157390,0.015,0.013,0.991,-1.365,-8.872,2.677,
39157410,0.03,-0.003,0.997,-3.535,-8.575,3.885,
39157410,0.038,-0.01,0.995,-5.232,-8.4,2.24,
39157420,0.051,0.012,0.977,-4.497,-8.557,1.505,
39157430,0.079,-0.001,0.966,-2.607,-7.752,2.782,
39157440,0.043,0,0.98,-1.05,-7.472,2.135,
39157450,0.024,-0.007,0.991,0.647,-7.875,1.855,
39157460,0.038,-0.001,0.987,2.1,-7.98,3.062,
39157470,0.031,0.002,0.98,2.59,-8.312,3.657,
39157480,0.026,-0.001,0.984,1.067,-8.592,3.71,
39157490,0.018,0.023,0.987,0.315,-9.887,4.55,
39157500,0.036,0.022,0.987,-0.157,-11.55,5.775,
39157510,0.075,0.047,1.001,-2.327,-11.637,7.735,
39157520,0.103,0.02,1.002,-4.55,-8.872,9.695,
39157530,0.087,0.056,1.014,-8.365,-4.987,11.515,
39157540,0.068,0.071,1.012,-14.122,-1.68,13.702,
39157550,0.09,0.078,1.022,-25.007,2.345,16.625,
39157560,0.128,0.072,1.035,-39.847,7.297,17.85,
39157570,0.235,-0.018,1.057,-59.412,19.617,23.45,
39157580,0.01,0.091,1.092,-82.32,29.47,24.097,
39157590,-0.069,0.105,1.102,-98,29.767,20.772,
39157600,0.052,0.14,1.077,-111.65,33.18,24.01,
39157610,-0.09,-0.043,1.14,-128.835,32.165,27.615,
39157620,-0.232,0.018,1.135,-164.15,-11.532,22.277,
39157630,0.5,-0.109,1.145,-201.285,28.385,43.347,
39157640,0.123,0.066,1.102,-218.942,49.245,54.722,
39157650,-0.196,-0.033,1.07,-215.897,38.692,31.237,
39157660,-0.332,-0.41,1.021,-221.917,29.032,31.115,
39157670,-0.334,0,1.283,-180.95,27.86,56.42,
39157670,-0.02,-0.281,1.199,-119.507,-11.655,25.182,
39157690,-0.221,-0.347,1.397,-116.2,-39.69,26.862,
39157690,-0.249,-0.319,1.557,-152.547,-71.312,18.2,
39157710,-0.076,-0.575,1.36,-184.555,-83.335,10.867,
39157710,0.08,-0.731,1.629,-177.537,-66.552,7.717,
39157730,0.079,-0.634,1.449,-170.537,-71.207,2.467,
39157730,-0.028,-0.476,1.388,-146.72,-84.297,-1.05,
39157750,0.17,-0.549,1.341,-121.975,-22.82,-4.865,
39157750,-0.143,-0.536,1.249,-64.872,43.207,-1.225,
39157760,-0.67,-0.512,0.854,33.897,-10.815,12.88,
39157770,-0.411,-0.187,0.804,94.64,-47.582,39.777,
39157780,0.001,-0.254,0.758,101.745,-56.717,71.312,
39157790,0.194,-0.404,0.697,106.872,-47.67,75.32,
39157800,0.168,-0.353,0.592,129.64,-35.07,74.287,
39157810,0.155,-0.218,0.547,149.695,-24.412,81.392,
39157820,0.201,-0.115,0.481,144.9,-19.932,90.545,
