#Format version: 1.0
time[ms],accX[g],accY[g],accZ[g],Value 1,Value 2,Value 3,
39116920,-0.853,0.023,0.519,-4.357,-21.735,0.262,
39116920,-0.836,0.016,0.526,-4.235,-19.95,0.84,
39116940,-0.83,0.011,0.533,-4.095,-17.675,1.102,
39116940,-0.834,0.006,0.531,-4.165,-13.93,1.155,
39116960,-0.846,0.005,0.524,-3.867,-10.395,0.997,
39116960,-0.861,0.007,0.522,-3.167,-8.435,1.207,
39116980,-0.862,0.015,0.53,-3.01,-7.91,1.61,
39116980,-0.852,0.02,0.531,-2.94,-7.087,1.855,
39117000,-0.849,0.025,0.533,-2.432,-5.6,2.467,
39117000,-0.859,0.031,0.536,-1.96,-5.04,2.975,
39117010,-0.873,0.037,0.538,-2.047,-5.25,2.66,
39117020,-0.879,0.044,0.543,-2.345,-6.37,1.487,
39117030,-0.882,0.054,0.547,-2.782,-8.662,0.787,
39117040,-0.877,0.058,0.56,-2.572,-12.04,0.035,
39117050,-0.87,0.063,0.565,-2.695,-15.225,0.297,
39117060,-0.861,0.055,0.561,-3.29,-17.045,0.175,
39117070,-0.854,0.052,0.562,-2.642,-18.34,-0.49,
39117080,-0.849,0.039,0.556,-2.572,-18.305,-0.822,
39117090,-0.84,0.025,0.553,-2.747,-16.205,-1.347,
39117100,-0.831,0.016,0.55,-2.922,-12.512,-1.54,
39117110,-0.822,0.008,0.542,-2.677,-8.452,-1.015,
39117120,-0.818,0.001,0.536,-2.397,-5.092,-0.157,
39117130,-0.814,0,0.53,-2.432,-2.415,0.77,
39117140,-0.818,0.001,0.535,-2.66,0.052,1.505,
39117150,-0.84,0.007,0.539,-3.01,1.575,2.187,
39117160,-0.866,0.014,0.541,-3.01,1.435,2.31,
39117170,-0.885,0.021,0.547,-2.677,-0.682,1.697,
39117180,-0.891,0.024,0.543,-2.432,-4.147,1.19,
39117190,-0.885,0.024,0.542,-2.152,-7.21,0.962,
39117200,-0.878,0.026,0.537,-1.872,-10.29,0.962,
39117210,-0.877,0.033,0.543,-1.767,-13.16,1.032,
39117220,-0.874,0.037,0.554,-2.38,-15.067,1.05,
39117230,-0.868,0.034,0.559,-3.43,-16.8,0.98,
39117240,-0.851,0.029,0.566,-4.165,-17.71,0.787,
39117250,-0.83,0.025,0.565,-4.287,-16.852,0.595,
39117260,-0.813,0.023,0.564,-3.972,-14.997,0.577,
39117260,-0.806,0.023,0.568,-3.465,-12.775,0.787,
39117280,-0.805,0.025,0.57,-2.887,-10.78,1.05,
39117280,-0.812,0.029,0.572,-2.275,-9.8,0.98,
39117300,-0.82,0.032,0.579,-1.75,-8.785,0.56,
39117300,-0.825,0.034,0.582,-1.47,-6.93,0.175,
39117320,-0.823,0.031,0.581,-1.557,-4.357,-0.105,
39117320,-0.82,0.029,0.581,-1.505,-2.275,-0.262,
39117330,-0.812,0.025,0.582,-1.347,-1.032,-0.262,
39117340,-0.807,0.016,0.578,-1.225,0.245,-0.105,
39117350,-0.819,0.006,0.562,-0.77,1.54,0.385,
39117360,-0.837,0.003,0.549,-0.262,3.552,1.067,
39117370,-0.853,0.006,0.543,-0.14,5.232,1.802,
39117380,-0.869,0.009,0.539,-0.315,5.547,2.38,
39117390,-0.882,0.01,0.533,-0.525,4.917,2.59,
39117400,-0.89,0.014,0.535,-0.735,3.342,2.24,
39117410,-0.894,0.014,0.532,-1.085,0.402,1.715,
39117420,-0.897,0.019,0.535,-1.12,-4.06,1.347,
39117430,-0.888,0.029,0.545,-0.892,-9.292,1.207,
39117440,-0.87,0.031,0.551,-1.05,-13.685,0.927,
39117450,-0.859,0.032,0.553,-1.015,-17.08,0.175,
39117460,-0.84,0.036,0.565,-1.102,-18.952,-0.945,
39117470,-0.825,0.036,0.577,-1.855,-19.32,-1.557,
39117480,-0.818,0.029,0.586,-2.642,-19.775,-1.522,
39117490,-0.788,0.019,0.595,-2.975,-17.675,-0.945,
39117500,-0.756,0.01,0.606,-2.94,-11.812,-0.122,
39117510,-0.754,0.016,0.594,-2.362,-7.157,0.052,
39117520,-0.784,0.02,0.569,-1.662,-2.905,-0.07,
39117530,-0.842,0.019,0.558,-1.085,0.28,-0.297,
39117540,-0.891,0.019,0.56,-0.787,-0.21,-0.42,
39117550,-0.909,0.019,0.558,-0.875,-3.99,-0.262,
39117560,-0.895,0.017,0.558,-1.242,-8.732,0.192,
39117570,-0.867,0.013,0.568,-2.082,-12.792,0.245,
39117580,-0.84,0.01,0.57,-3.062,-15.207,-0.105,
39117590,-0.811,0.01,0.569,-3.342,-15.82,-0.21,
39117600,-0.794,0.007,0.575,-3.185,-14.682,0.297,
39117610,-0.796,0.01,0.574,-2.782,-12.32,1.067,
39117620,-0.806,0.015,0.571,-2.187,-9.52,1.785,
39117630,-0.812,0.021,0.577,-1.575,-6.58,2.065,
39117640,-0.816,0.026,0.583,-1.032,-4.357,1.872,
39117650,-0.826,0.031,0.584,-0.857,-2.905,1.4,
39117660,-0.836,0.037,0.588,-0.525,-2.152,1.05,
39117670,-0.839,0.039,0.595,-0.35,-2.712,0.647,
39117670,-0.833,0.038,0.598,-0.472,-4.305,0.175,
39117690,-0.818,0.034,0.59,-0.63,-5.04,-0.14,
39117690,-0.806,0.031,0.597,-0.56,-4.917,-0.402,
39117710,-0.793,0.024,0.611,-0.7,-3.92,-0.612,
39117710,-0.785,0.008,0.617,-0.805,-2.415,-0.665,
39117730,-0.786,0.005,0.604,-0.315,-1.067,-0.245,
39117730,-0.796,0.007,0.592,0.28,-0.105,0.822,
39117750,-0.814,0.009,0.566,0.63,0.542,1.82,
39117750,-0.835,0.02,0.549,1.015,-0.507,2.362,
39117760,-0.839,0.025,0.557,0.665,-0.892,2.205,
39117770,-0.846,0.02,0.567,-0.49,-1.802,1.47,
39117780,-0.841,0.013,0.578,-1.785,-3.587,0.56,
39117790,-0.832,0.008,0.578,-3.167,-4.97,-0.052,
39117800,-0.835,0.006,0.572,-3.762,-6.212,-0.14,
39117810,-0.84,0.01,0.568,-3.482,-6.16,0.087,
39117820,-0.841,0.015,0.573,-2.31,-5.827,0.437,
39117830,-0.841,0.017,0.567,-0.857,-6.335,0.525,
39117840,-0.848,0.033,0.546,0.507,-8.102,0.175,
39117850,-0.863,0.039,0.563,0.752,-10.692,-0.385,
39117860,-0.851,0.026,0.592,-0.98,-11.112,-1.277,
39117870,-0.818,0.01,0.603,-2.817,-11.217,-1.802,
39117880,-0.797,0.005,0.589,-3.377,-12.162,-1.785,
39117890,-0.792,0.015,0.585,-2.975,-11.865,-1.347,
39117900,-0.789,0.015,0.606,-3.045,-7.49,-0.647,
39117910,-0.79,0.008,0.628,-2.8,-2.835,-0.035,
39117920,-0.797,-0.002,0.625,-1.75,0.665,0.595,
39117930,-0.815,0.007,0.599,0.332,1.872,1.225,
39117940,-0.826,0.026,0.584,1.802,2.625,1.995,
39117950,-0.837,0.033,0.578,2.187,3.237,2.467,
39117960,-0.847,0.034,0.575,2.38,2.187,2.222,
39117970,-0.85,0.033,0.591,1.872,1.26,1.312,
39117980,-0.84,0.03,0.624,-0.017,0.35,0.157,
39117990,-0.825,0.007,0.648,-2.52,-1.032,-0.385,
39118000,-0.805,-0.002,0.612,-2.765,-3.867,-0.21,
39118010,-0.787,0.009,0.58,-0.7,-6.09,0.857,
39118010,-0.773,0.011,0.559,1.365,-5.407,1.802,
39118030,-0.771,0.015,0.555,2.922,-2.747,2.345,
39118030,-0.786,0.018,0.565,3.307,0.682,2.555,
39118050,-0.829,0.027,0.562,2.817,1.47,2.117,
39118050,-0.867,0.039,0.554,1.33,-1.312,0.962,
39118070,-0.869,0.045,0.57,-1.05,-5.075,-0.665,
39118070,-0.849,0.044,0.597,-3.15,-10.202,-2.45,
39118080,-0.843,0.032,0.6,-3.832,-15.715,-3.972,
39118090,-0.838,0.021,0.603,-3.167,-18.672,-5.11,
39118100,-0.822,0.011,0.605,-2.31,-18.865,-5.232,
39118110,-0.819,0.005,0.6,-1.277,-19.617,-4.217,
39118120,-0.818,0.004,0.592,-0.42,-20.317,-2.817,
39118130,-0.82,0.021,0.561,0.245,-19.53,-1.925,
39118140,-0.827,0.042,0.58,0.385,-18.62,-1.592,
39118150,-0.821,0.016,0.638,-1.68,-14.962,-1.925,
39118160,-0.8,-0.011,0.645,-3.115,-11.095,-2.537,
39118170,-0.778,-0.016,0.62,-2.782,-9.362,-1.96,
39118180,-0.766,-0.005,0.603,-1.837,-7.91,-0.525,
39118190,-0.762,0.003,0.606,-1.487,-4.305,0.857,
39118200,-0.768,0.005,0.602,-1.12,0.332,1.54,
39118210,-0.794,0.009,0.591,0.21,2.835,1.785,
39118220,-0.821,0.019,0.59,1.452,3.815,2.047,
39118230,-0.834,0.025,0.598,1.277,4.165,2.327,
39118240,-0.839,0.022,0.607,0.157,3.657,2.467,
39118250,-0.828,0.017,0.604,-0.507,1.19,1.977,
39118260,-0.798,0.015,0.604,-0.857,-0.402,1.33,
39118270,-0.769,0.012,0.621,-1.365,0.017,1.085,
39118280,-0.751,-0.005,0.645,-1.802,2.082,1.12,
39118290,-0.741,-0.011,0.633,-1.382,4.55,1.627,
39118300,-0.757,0.006,0.605,0.14,6.177,2.922,
39118310,-0.793,0.03,0.598,1.435,7.297,4.182,
39118320,-0.832,0.038,0.605,1.715,7.945,4.62,
39118330,-0.855,0.04,0.61,1.557,6.86,3.745,
39118340,-0.86,0.034,0.599,1.19,3.955,2.362,
39118350,-0.865,0.027,0.567,0.56,-0.367,1.295,
39118360,-0.857,0.028,0.55,-0.402,-4.585,0.717,
39118370,-0.839,0.02,0.565,-1.767,-7.157,0.07,
39118380,-0.82,0.007,0.591,-2.625,-8.382,-0.84,
39118390,-0.819,-0.01,0.595,-2.73,-9.205,-1.925,
39118400,-0.826,-0.017,0.592,-2.362,-9.485,-2.205,
39118410,-0.827,-0.018,0.583,-2.082,-8.662,-1.277,
39118420,-0.837,0.001,0.539,-1.155,-8.802,0.28,
39118420,-0.859,0.042,0.537,0.385,-11.427,1.05,
39118440,-0.855,0.034,0.597,0.07,-11.602,-0.105,
39118440,-0.83,0.019,0.637,-1.75,-10.325,-2.222,
39118460,-0.786,0.008,0.65,-3.307,-9.887,-2.695,
39118460,-0.762,-0.001,0.638,-4.06,-10.255,-1.75,
39118480,-0.752,0.003,0.618,-4.112,-8.015,0.052,
39118480,-0.744,0.009,0.618,-3.027,-2.502,1.47,
39118500,-0.755,0.013,0.614,-0.577,2.8,2.152,
39118500,-0.786,0.021,0.601,1.82,6.475,2.625,
39118510,-0.822,0.034,0.602,2.992,8.365,2.992,
39118520,-0.853,0.044,0.615,2.485,7.56,2.957,
39118530,-0.864,0.044,0.61,0.927,4.427,2.345,
39118540,-0.856,0.038,0.619,-0.542,0.91,0.997,
39118550,-0.823,0.027,0.632,-1.925,-1.75,-0.35,
39118560,-0.784,0.004,0.645,-2.852,-3.465,-1.015,
39118570,-0.744,-0.003,0.617,-2.275,-3.5,-0.77,
39118580,-0.745,-0.001,0.582,-0.402,-2.695,0.77,
39118590,-0.774,0.002,0.587,1.33,-0.28,2.187,
39118600,-0.807,0.005,0.615,1.697,3.01,2.66,
39118610,-0.835,0.01,0.629,1.522,2.677,2.31,
39118620,-0.859,0.017,0.616,1.102,-1.33,1.89,
39118630,-0.861,0.027,0.59,0.21,-5.775,1.33,
39118640,-0.833,0.025,0.579,-0.857,-8.382,0.98,
39118650,-0.807,0.019,0.579,-1.452,-8.82,1.032,
39118660,-0.79,0.015,0.591,-1.522,-8.19,0.665,
39118670,-0.777,0.011,0.597,-1.592,-6.58,-0.035,
39118680,-0.784,0.005,0.591,-1.645,-4.917,-0.227,
39118690,-0.805,0.002,0.58,-1.575,-3.255,0.157,
39118700,-0.834,0.001,0.564,-1.417,-2.397,0.542,
39118710,-0.862,0.013,0.539,-0.892,-3.185,0.49,
39118720,-0.899,0.034,0.531,-0.49,-6.492,0.245,
39118730,-0.913,0.033,0.588,-1.207,-10.412,-0.84,
39118740,-0.857,0.016,0.643,-3.307,-11.917,-2.52,
39118750,-0.782,0,0.651,-5.057,-12.04,-2.94,
39118760,-0.742,0.007,0.637,-5.057,-11.077,-2.047,
39118760,-0.726,0.008,0.644,-4.41,-5.302,-0.35,
39118780,-0.731,0.003,0.626,-2.292,2.327,0.752,
39118780,-0.757,0.013,0.598,1.155,6.702,1.767,
39118800,-0.804,0.034,0.585,3.902,8.26,2.87,
39118800,-0.842,0.045,0.585,4.427,7.77,3.325,
39118820,-0.859,0.046,0.596,3.185,6.317,2.975,
39118820,-0.858,0.04,0.607,0.875,4.007,1.645,
39118830,-0.842,0.033,0.632,-1.54,0.77,0.035,
39118840,-0.806,0.007,0.665,-3.552,-2.012,-1.207,
39118850,-0.743,-0.002,0.637,-3.237,-3.885,-1.522,
39118860,-0.728,-0.004,0.606,-0.787,-5.355,-0.14,
39118870,-0.749,0,0.581,2.1,-3.692,1.505,
39118880,-0.79,0.002,0.573,3.762,0.28,2.607,
39118890,-0.826,0.014,0.589,4.042,2.642,2.94,
39118900,-0.859,0.02,0.595,2.45,2.345,2.502,
39118910,-0.881,0.025,0.588,0.052,-1.855,1.61,
39118920,-0.859,0.03,0.607,-2.625,-6.912,0.647,
39118930,-0.804,0.018,0.622,-4.812,-10.692,-0.28,
39118940,-0.759,-0.002,0.612,-5.337,-12.04,-0.752,
39118950,-0.752,-0.014,0.595,-4.322,-9.485,-0.665,
39118960,-0.782,-0.01,0.578,-2.555,-4.567,-0.175,
39118970,-0.828,0.007,0.553,-0.577,-1.225,1.05,
39118980,-0.868,0.024,0.554,0.77,-1.225,2.362,
39118990,-0.881,0.029,0.579,0.595,-2.94,2.31,
39119000,-0.868,0.022,0.596,-1.032,-4.445,1.137,
39119010,-0.845,0.017,0.606,-3.062,-5.967,-0.455,
39119020,-0.827,0.015,0.613,-4.987,-6.3,-1.435,
39119030,-0.807,0.007,0.607,-5.88,-5.11,-1.4,
39119040,-0.8,0.002,0.585,-4.795,-3.535,-0.42,
39119050,-0.789,0.005,0.581,-2.485,-1.855,0.42,
39119060,-0.785,0.008,0.587,-0.542,0.087,0.91,
39119070,-0.796,0.011,0.583,0.682,1.19,1.12,
39119080,-0.815,0.021,0.594,1.102,1.61,1.015,
39119090,-0.826,0.032,0.621,0.21,2.327,0.49,
39119100,-0.843,0.036,0.621,-1.382,1.557,-0.052,
39119110,-0.85,0.039,0.617,-1.837,-0.805,-0.035,
39119120,-0.825,0.036,0.621,-1.557,-2.852,-0.087,
39119130,-0.785,0.025,0.633,-1.12,-4.62,-0.105,
39119140,-0.749,0.017,0.634,-0.665,-4.34,0,
39119150,-0.746,0.016,0.618,0.332,-3.167,0.28,
39119160,-0.768,0.014,0.62,1.312,-1.75,0.595,
39119170,-0.781,0.008,0.627,1.277,0.227,0.525,
39119170,-0.78,0.008,0.618,1.4,-0.245,0.752,
39119190,-0.795,0.021,0.635,1.802,-2.992,1.312,
39119190,-0.805,0.025,0.639,1.19,-4.812,1.207,
39119210,-0.809,0.013,0.62,0.175,-4.76,0.875,
39119210,-0.813,0.008,0.591,0.192,-4.322,0.577,
39119220,-0.818,0.01,0.575,0.332,-3.692,0.77,
39119230,-0.815,0.014,0.583,0.052,-2.502,1.242,
39119240,-0.803,0.007,0.607,-0.385,-2.152,1.312,
39119250,-0.791,-0.002,0.612,-0.63,-2.782,1.085,
39119260,-0.801,-0.007,0.589,-0.805,-2.712,0.787,
39119270,-0.824,-0.004,0.568,-0.805,-1.592,0.752,
39119280,-0.848,0.003,0.548,-1.05,-0.105,1.155,
39119290,-0.89,0.008,0.538,-1.19,-0.595,1.785,
39119300,-0.91,0.011,0.567,-1.522,-2.38,1.592,
39119310,-0.883,0.02,0.577,-2.38,-5.302,0.507,
39119320,-0.848,0.02,0.589,-3.29,-9.73,-0.437,
39119330,-0.811,0.01,0.607,-4.357,-10.675,-1.172,
39119340,-0.779,0.002,0.614,-5.04,-8.19,-1.295,
39119350,-0.758,0.003,0.623,-4.357,-4.585,-0.56,
39119360,-0.763,0.005,0.611,-2.8,-0.77,0.49,
39119370,-0.782,0.02,0.601,-0.927,2.205,1.645,
39119380,-0.798,0.032,0.613,0.122,4.585,2.467,
39119390,-0.826,0.041,0.62,0.35,4.742,2.502,
39119400,-0.855,0.059,0.636,0.122,4.06,1.872,
39119410,-0.866,0.067,0.648,-0.805,2.502,0.875,
39119420,-0.857,0.06,0.655,-1.435,-1.382,-0.035,
39119430,-0.809,0.034,0.695,-1.417,-5.04,-0.612,
39119440,-0.731,0.008,0.701,-1.102,-6.615,-1.277,
39119450,-0.698,0,0.616,1.015,-9.222,-1.347,
39119460,-0.722,-0.001,0.558,3.675,-8.68,-0.315,
39119470,-0.775,-0.003,0.53,4.69,-3.272,0.332,
39119480,-0.818,-0.001,0.523,4.007,1.61,0.805,
39119490,-0.854,0.003,0.555,2.835,1.277,0.577,
39119500,-0.866,0.01,0.609,0.84,-3.15,-0.472,
39119510,-0.839,0,0.644,-1.82,-8.365,-1.505,
39119510,-0.807,-0.013,0.638,-3.36,-13.86,-1.995,
39119530,-0.775,-0.017,0.613,-2.852,-17.202,-2.292,
39119530,-0.766,-0.019,0.578,-1.137,-15.872,-1.855,
39119550,-0.788,-0.017,0.549,1.225,-11.357,-0.56,
39119550,-0.83,-0.011,0.537,3.08,-7.175,0.297,
39119570,-0.865,0.004,0.521,3.797,-5.652,0.787,
39119570,-0.895,0.019,0.524,2.975,-6.282,1.225,
39119580,-0.909,0.025,0.576,0.98,-8.505,0.7,
39119590,-0.864,0.031,0.631,-1.995,-10.71,-0.997,
39119600,-0.8,0.027,0.666,-4.147,-13.072,-2.607,
39119610,-0.758,0.031,0.649,-4.217,-14.315,-3.045,
39119620,-0.725,0.032,0.646,-2.87,-11.112,-2.275,
39119630,-0.712,0.028,0.632,-0.875,-4.41,-1.557,
39119640,-0.737,0.032,0.608,1.61,1.785,-0.525,
39119650,-0.773,0.05,0.62,3.5,7.175,0.367,
39119660,-0.81,0.067,0.641,3.552,10.587,0.77,
39119670,-0.818,0.073,0.668,2.17,11.41,0.717,
39119680,-0.803,0.062,0.668,0.542,10.78,0.315,
39119690,-0.756,0.043,0.64,-0.56,10.727,-0.315,
39119700,-0.696,0.021,0.628,-0.84,14.84,-0.892,
39119710,-0.659,0.003,0.613,-0.087,21.98,-0.735,
39119720,-0.659,-0.009,0.591,1.417,29.977,0.14,
39119730,-0.702,-0.029,0.578,2.922,37.87,0.7,
39119740,-0.772,-0.037,0.546,4.007,43.767,0.402,
39119750,-0.811,-0.032,0.536,4.305,47.845,0.297,
39119760,-0.833,-0.029,0.565,3.71,51.397,0.21,
39119770,-0.885,-0.008,0.576,3.167,49.91,-0.052,
39119780,-0.955,0.015,0.55,2.415,43.802,0.28,
39119790,-1.014,0.017,0.526,1.82,34.702,0.367,
39119800,-1.022,0.01,0.514,1.277,24.027,0.437,
39119810,-0.989,0.005,0.502,0.42,13.737,1.295,
39119820,-0.95,0.005,0.494,-0.262,4.235,2.467,
39119830,-0.937,0.009,0.494,-0.787,-3.78,3.027,
39119840,-0.927,0.013,0.499,-1.242,-9.572,2.45,
39119850,-0.902,0.008,0.514,-1.522,-13.317,1.347,
39119860,-0.871,0.003,0.536,-1.907,-15.277,0.857,
39119870,-0.837,0.002,0.549,-2.572,-15.697,1.19,
39119880,-0.815,0.007,0.553,-2.677,-15.557,1.715,
39119890,-0.802,0.014,0.566,-2.222,-15.172,2.065,
39119890,-0.799,0.018,0.583,-1.925,-14.647,1.557,
39119910,-0.802,0.021,0.582,-1.697,-13.562,1.015,
39119910,-0.81,0.024,0.576,-1.557,-11.55,1.032,
39119920,-0.824,0.024,0.569,-1.452,-10.132,1.19,
39119930,-0.84,0.03,0.569,-1.592,-9.852,1.225,
39119940,-0.856,0.033,0.573,-1.75,-10.657,0.77,
39119950,-0.873,0.035,0.568,-1.575,-12.862,0.262,
39119960,-0.874,0.036,0.569,-1.575,-15.802,-0.052,
39119970,-0.857,0.027,0.571,-1.96,-18.252,-0.122,
39119980,-0.831,0.021,0.574,-2.135,-19.74,-0.035,
39119990,-0.807,0.013,0.584,-2.31,-19.46,-0.245,
39120000,-0.795,0.006,0.584,-2.397,-16.52,-0.315,
39120010,-0.795,0,0.581,-1.995,-12.162,-0.245,
39120020,-0.799,0.001,0.575,-1.085,-8.452,0.07,
39120030,-0.81,0.004,0.559,-0.227,-6.002,0.717,
39120040,-0.834,0.006,0.559,0.192,-5.162,1.365,
39120050,-0.86,0.011,0.57,-0.105,-5.407,1.522,
39120060,-0.878,0.016,0.575,-0.98,-7.175,1.382,
39120070,-0.881,0.02,0.581,-1.802,-10.5,1.05,
39120080,-0.855,0.015,0.585,-2.817,-12.897,0.717,
39120090,-0.826,0.008,0.59,-3.412,-14.175,0.507,
39120100,-0.806,0.009,0.587,-3.237,-14.77,0.77,
39120110,-0.805,0.011,0.588,-2.765,-13.825,1.172,
39120120,-0.809,0.014,0.591,-2.1,-11.83,1.4,
39120130,-0.81,0.02,0.596,-1.557,-9.555,1.505,
39120140,-0.811,0.027,0.603,-1.312,-8.12,1.557,
39120150,-0.809,0.031,0.601,-1.19,-7.052,1.715,
39120160,-0.801,0.031,0.608,-1.19,-6.212,1.732,
39120170,-0.786,0.017,0.61,-1.347,-5.407,1.225,
39120180,-0.78,0.011,0.593,-1.382,-4.287,0.7,
39120190,-0.791,0.011,0.583,-1.085,-3.237,0.56,
39120200,-0.807,0.013,0.59,-0.857,-2.17,0.84,
39120210,-0.815,0.013,0.593,-0.77,-2.03,1.382,
39120220,-0.821,0.016,0.607,-0.42,-3.745,1.645,
39120230,-0.824,0.015,0.601,-0.35,-5.407,1.312,
39120240,-0.838,0.008,0.577,-0.332,-7.402,0.857,
39120250,-0.826,0.009,0.593,-0.332,-8.12,0.297,
39120260,-0.799,0.005,0.599,-1.067,-6.545,0.385,
39120260,-0.8,0.001,0.588,-1.505,-4.48,0.962,
39120280,-0.824,0,0.579,-1.417,-2.747,1.155,
39120280,-0.838,0.003,0.573,-1.365,-1.102,0.962,
39120300,-0.853,0.008,0.55,-1.19,-0.577,1.225,
39120300,-0.881,0.016,0.553,-0.892,-1.347,1.89,
39120320,-0.898,0.015,0.58,-1.207,-2.467,1.697,
39120320,-0.877,0.014,0.591,-1.977,-4.725,0.612,
39120330,-0.842,0.016,0.588,-2.52,-8.347,-0.035,
39120340,-0.809,0.016,0.592,-3.15,-9.765,-0.017,
39120350,-0.791,0.013,0.592,-3.92,-7.735,0.455,
39120360,-0.771,0.016,0.61,-3.622,-4.812,1.05,
39120370,-0.764,0.016,0.627,-2.677,-1.855,1.242,
39120380,-0.782,0.016,0.603,-1.505,-0.595,1.435,
39120390,-0.805,0.022,0.587,-0.717,0.157,1.802,
39120400,-0.818,0.031,0.596,-0.437,1.225,1.697,
39120410,-0.829,0.038,0.606,-0.735,1.785,1.68,
39120420,-0.844,0.038,0.602,-0.752,1.557,1.575,
39120430,-0.849,0.037,0.596,-0.507,0.385,0.962,
39120440,-0.842,0.036,0.598,-0.682,-1.505,0.122,
39120450,-0.824,0.031,0.594,-0.857,-3.657,-0.035,
39120460,-0.808,0.023,0.607,-0.157,-5.512,0.157,
39120470,-0.782,0.008,0.632,0.245,-6.16,0.017,
39120480,-0.756,-0.014,0.647,-0.105,-5.145,-0.612,
39120490,-0.74,-0.015,0.612,0.175,-3.972,-0.822,
39120500,-0.758,0,0.588,1.435,-3.115,0.332,
39120510,-0.798,0.01,0.583,2.152,-1.662,1.33,
39120520,-0.831,0.013,0.576,2.012,-1.05,1.54,
39120530,-0.842,0.012,0.579,1.732,-1.207,1.277,
39120540,-0.851,0.013,0.581,1.015,-2.17,0.892,
39120550,-0.855,0.012,0.58,-0.455,-3.535,0.525,
39120560,-0.853,0.007,0.584,-1.96,-4.567,-0.087,
39120570,-0.846,0,0.574,-2.537,-5.88,-0.612,
39120580,-0.839,-0.009,0.564,-2.292,-7.56,-0.665,
39120580,-0.832,-0.017,0.558,-1.907,-8.697,-0.437,
39120600,-0.828,-0.016,0.555,-1.767,-8.26,-0.21,
39120600,-0.858,0.006,0.518,-1.732,-7.42,-0.105,
39120620,-0.885,0.054,0.559,-1.855,-7.157,-0.14,
39120620,-0.872,0.046,0.649,-4.007,-3.22,-0.035,
39120640,-0.842,0.03,0.662,-4.865,-2.135,-0.14,
39120640,-0.795,0.021,0.635,-3.85,-3.797,0.14,
39120660,-0.769,0.01,0.592,-2.327,-4.742,0.507,
39120660,-0.756,0.009,0.561,-0.962,-3.185,1.33,
39120670,-0.756,0.011,0.564,0,1.085,2.345,
39120680,-0.778,0.021,0.601,0.437,5.285,2.747,
39120690,-0.8,0.033,0.635,-0.297,8.61,2.45,
39120700,-0.831,0.034,0.653,-1.312,8.925,1.785,
39120710,-0.85,0.033,0.666,-1.785,5.6,1.067,
39120720,-0.841,0.034,0.641,-1.05,0.297,0.332,
39120730,-0.821,0.034,0.608,1.067,-5.337,0.367,
39120740,-0.778,0.03,0.604,3.447,-8.207,0.91,
39120750,-0.719,0.009,0.613,4.322,-6.825,1.05,
39120760,-0.701,-0.006,0.602,3.85,-3.552,1.05,
39120770,-0.734,-0.004,0.579,2.992,0.175,0.927,
39120780,-0.803,0,0.564,1.662,4.322,1.067,
39120790,-0.864,0.005,0.558,0.472,5.582,1.225,
39120800,-0.889,0.004,0.565,-0.07,3.08,1.12,
39120810,-0.883,0.007,0.576,-0.105,-1.82,0.945,
39120820,-0.852,0.005,0.582,-0.402,-5.495,0.927,
39120830,-0.83,0,0.566,-1.085,-7.595,1.067,
39120840,-0.821,-0.002,0.546,-1.557,-8.347,1.05,
39120850,-0.819,-0.001,0.551,-1.977,-6.825,0.77,
39120860,-0.824,0.003,0.553,-2.45,-3.797,0.717,
39120870,-0.848,0.007,0.553,-2.45,-2.817,1.05,
39120880,-0.87,0.013,0.56,-2.415,-2.87,1.382,
39120890,-0.87,0.018,0.588,-3.097,-1.907,1.592,
39120900,-0.844,0.023,0.613,-3.902,-0.525,1.54,
39120910,-0.815,0.027,0.612,-4.34,1.452,1.75,
39120920,-0.801,0.033,0.583,-3.85,4.252,1.995,
39120930,-0.793,0.037,0.539,-2.677,6.72,2.257,
39120940,-0.799,0.033,0.513,-1.312,7.822,2.677,
39120950,-0.805,0.037,0.529,-0.525,8.207,3.08,
39120960,-0.802,0.04,0.588,-1.382,9.397,2.887,
39120970,-0.81,0.036,0.638,-3.027,8.75,1.645,
39120980,-0.832,0.034,0.659,-3.745,3.762,-0.507,
39120990,-0.838,0.03,0.639,-3.395,-3.167,-2.467,
39121000,-0.814,0.019,0.611,-1.907,-8.855,-2.94,
39121010,-0.78,0.004,0.603,0.402,-10.325,-2.135,
39121010,-0.778,-0.008,0.603,2.327,-6.772,-0.962,
39121030,-0.798,0,0.604,3.377,-2.257,-0.385,
39121030,-0.837,0.009,0.626,2.922,0.752,-0.14,
39121050,-0.864,0.018,0.626,1.61,0.472,0.192,
39121050,-0.854,0.024,0.627,0.577,-2.135,0.63,
39121070,-0.836,0.021,0.602,0.315,-4.637,0.7,
39121070,-0.83,0.014,0.547,0.927,-7.507,0.105,
39121080,-0.818,0.013,0.518,2.082,-8.575,-0.665,
39121090,-0.8,0.007,0.534,2.152,-7.595,-1.225,
39121100,-0.802,-0.008,0.558,0.857,-5.495,-1.26,
39121110,-0.833,-0.024,0.563,-0.84,-4.427,-0.98,
39121120,-0.854,-0.026,0.563,-2.31,-5.092,-0.962,
39121130,-0.868,-0.009,0.52,-3.447,-6.65,-0.56,
39121140,-0.887,0.012,0.514,-3.307,-8.172,0.542,
39121150,-0.887,0.022,0.564,-2.8,-7.7,1.015,
39121160,-0.855,0.024,0.586,-2.572,-7.157,0.472,
39121170,-0.816,0.018,0.592,-2.485,-7.542,0.105,
39121180,-0.797,0.018,0.596,-2.87,-6.895,0.035,
39121190,-0.777,0.016,0.619,-4.217,-3.43,0.28,
39121200,-0.782,0.008,0.607,-4.882,0.735,0.822,
39121210,-0.806,0.015,0.595,-3.5,1.855,1.312,
39121220,-0.81,0.035,0.615,-2.152,3.377,1.592,
39121230,-0.821,0.051,0.618,-1.522,3.762,1.872,
39121240,-0.845,0.059,0.624,-0.542,2.117,2.327,
39121250,-0.847,0.055,0.649,0.087,0.822,1.837,
39121260,-0.809,0.037,0.667,-0.14,-0.595,0.28,
39121270,-0.765,0.02,0.634,-0.105,-1.715,-0.647,
39121280,-0.759,0.007,0.584,1.067,-2.835,-0.262,
39121290,-0.774,0,0.533,2.397,-3.552,0.367,
39121300,-0.794,-0.004,0.495,3.395,-3.027,0.787,
39121310,-0.829,0.009,0.489,4.322,-2.905,0.262,
39121320,-0.88,0.024,0.507,3.972,-4.375,-1.05,
39121330,-0.923,0.019,0.573,1.662,-7.07,-3.202,
39121330,-0.911,-0.002,0.638,-1.54,-11.48,-5.757,
39121350,-0.845,-0.023,0.664,-3.535,-17.535,-7.262,
39121350,-0.783,-0.024,0.616,-3.43,-20.912,-7.087,
39121370,-0.778,0.015,0.515,-0.857,-20.44,-5.127,
39121370,-0.824,0.01,0.55,1.522,-15.907,-2.345,
39121390,-0.804,-0.012,0.609,1.26,-8.33,-1.19,
39121390,-0.77,-0.019,0.631,0.122,-4.865,0.297,
39121410,-0.787,-0.016,0.636,-1.015,-5.057,1.942,
39121410,-0.815,-0.001,0.628,-3.71,-2.187,2.59,
39121420,-0.826,0.008,0.617,-6.405,1.225,3.062,
39121430,-0.834,0.02,0.606,-5.775,0.962,3.587,
39121440,-0.832,0.04,0.587,-3.43,-0.612,3.867,
39121450,-0.823,0.048,0.581,-1.645,-1.137,3.71,
39121460,-0.822,0.048,0.584,-0.735,-1.505,3.57,
39121470,-0.82,0.041,0.605,-0.892,-2.065,3.15,
39121480,-0.823,0.03,0.63,-2.24,-2.397,2.31,
39121490,-0.814,0.01,0.657,-4.112,-2.327,1.172,
39121500,-0.788,0.002,0.646,-4.602,-2.38,0.14,
39121510,-0.793,0.002,0.608,-3.412,-3.5,0.542,
39121520,-0.81,0.008,0.592,-1.487,-4.025,1.47,
39121530,-0.825,0.003,0.58,0.157,-3.377,1.96,
39121540,-0.829,0.007,0.565,1.767,-3.727,1.767,
39121550,-0.83,0.014,0.57,2.345,-6.545,1.347,
39121560,-0.819,0.015,0.605,0.752,-9.17,0.542,
39121570,-0.785,-0.003,0.625,-1.89,-9.817,-0.437,
39121580,-0.754,-0.023,0.609,-2.8,-9.677,-1.032,
39121590,-0.762,-0.025,0.576,-2.275,-7.612,-0.752,
39121600,-0.795,-0.014,0.559,-1.277,-3.167,-0.07,
39121610,-0.834,-0.002,0.541,-0.017,0.717,1.19,
39121620,-0.868,0.007,0.54,1.452,1.592,2.45,
39121630,-0.876,0.011,0.576,1.61,0.472,2.852,
39121640,-0.842,0.014,0.594,-0.122,-1.05,2.45,
39121650,-0.794,0.02,0.608,-2.152,-2.555,1.855,
39121660,-0.747,0.026,0.615,-3.832,0.14,1.242,
39121670,-0.701,0.029,0.601,-4.865,8.102,1.312,
39121680,-0.659,0.029,0.587,-4.235,19.95,2.362,
39121690,-0.692,0.018,0.61,-2.485,32.147,3.43,
39121700,-0.778,0.024,0.609,-0.98,41.387,3.22,
39121710,-0.858,0.029,0.62,0,47.127,2.66,
39121720,-0.853,0.025,0.649,0.682,49.122,1.89,
39121730,-0.836,-0.014,0.632,0.805,49.332,1.365,
39121740,-0.887,-0.01,0.575,3.185,42.385,0.56,
39121750,-0.934,0.026,0.501,5.005,31.762,0.21,
39121760,-0.96,0.038,0.468,5.337,19.897,0.437,
39121760,-0.98,0.03,0.48,4.9,7.052,1.067,
39121780,-0.978,0.017,0.498,3.412,-3.71,1.085,
39121780,-0.972,0.014,0.517,1.942,-14.665,0.402,
39121800,-0.97,0.014,0.521,0.752,-26.827,-0.945,
39121800,-0.945,0.011,0.506,-0.525,-38.22,-2.817,
39121820,-0.883,-0.004,0.494,-1.032,-46.41,-3.64,
39121820,-0.797,-0.022,0.498,-0.752,-48.405,-2.852,
39121830,-0.719,-0.03,0.534,-0.385,-43.312,-1.487,
39121840,-0.69,-0.032,0.583,-1.102,-33.46,-0.665,
39121850,-0.708,-0.025,0.62,-1.785,-21.822,-0.525,
39121860,-0.759,-0.004,0.637,-1.697,-11.865,-0.542,
39121870,-0.808,0.018,0.637,-1.382,-7.052,-0.455,
39121880,-0.832,0.034,0.624,-1.102,-4.865,0.122,
39121890,-0.831,0.042,0.607,-0.367,-4.287,1.032,
39121900,-0.831,0.047,0.597,0.63,-6.247,1.662,
39121910,-0.838,0.049,0.594,1.207,-9.047,1.19,
39121920,-0.842,0.044,0.599,0.402,-11.27,0.07,
39121930,-0.831,0.027,0.607,-1.4,-12.285,-1.067,
39121940,-0.819,0.012,0.607,-3.132,-12.722,-1.715,
39121950,-0.81,0.007,0.591,-3.815,-13.457,-1.697,
39121960,-0.82,0.005,0.577,-3.43,-13.86,-1.312,
39121970,-0.822,0.009,0.587,-2.642,-13.44,-0.892,
39121980,-0.823,-0.001,0.599,-2.38,-12.67,-0.525,
39121990,-0.836,-0.004,0.602,-1.977,-12.687,-0.07,
39122000,-0.842,0.002,0.604,-1.837,-12.582,0.402,
39122010,-0.84,0.011,0.592,-1.82,-12.582,0.787,
39122020,-0.839,0.017,0.576,-1.732,-12.81,1.032,
39122030,-0.843,0.015,0.569,-1.54,-12.512,0.77,
39122040,-0.84,0.007,0.567,-1.54,-13.107,0.192,
39122050,-0.822,-0.002,0.578,-1.785,-14.56,0.122,
39122060,-0.793,-0.007,0.591,-2.012,-15.89,0.297,
39122070,-0.761,-0.005,0.61,-2.222,-16.24,0.507,
39122080,-0.746,-0.003,0.62,-2.555,-15.207,0.735,
39122080,-0.763,0.001,0.627,-2.205,-12.53,0.717,
39122100,-0.783,0.012,0.64,-1.715,-8.557,0.227,
39122100,-0.805,0.023,0.649,-1.12,-5.565,-0.192,
39122120,-0.832,0.036,0.653,-0.14,-5.827,-0.28,
39122120,-0.834,0.047,0.657,0.77,-7.087,-0.227,
39122140,-0.817,0.05,0.655,1.26,-8.102,-0.175,
39122140,-0.796,0.045,0.637,1.662,-10.202,-0.507,
39122160,-0.778,0.031,0.624,1.96,-11.69,-1.382,
39122160,-0.767,0.017,0.61,2.222,-11.585,-2.537,
39122170,-0.763,0.006,0.618,2.31,-11.042,-3.325,
39122180,-0.761,-0.003,0.61,2.17,-10.325,-3.342,
39122190,-0.767,-0.01,0.599,1.995,-9.905,-2.8,
39122200,-0.776,-0.012,0.616,1.61,-8.715,-2.555,
39122210,-0.775,-0.016,0.626,0.56,-6.72,-2.45,
39122220,-0.809,-0.03,0.587,0.192,-7.525,-1.977,
39122230,-0.82,-0.021,0.587,0.787,-9.712,-1.557,
39122240,-0.792,-0.011,0.598,0.315,-8.382,-1.015,
39122250,-0.793,-0.01,0.598,-0.367,-7.997,0.227,
39122260,-0.81,-0.012,0.592,-0.612,-6.965,0.927,
39122270,-0.823,-0.01,0.578,-0.385,-5.985,0.665,
39122280,-0.82,-0.006,0.564,-0.332,-6.37,0.647,
39122290,-0.818,-0.005,0.569,-0.927,-6.02,1.295,
39122300,-0.82,-0.002,0.599,-1.872,-5.6,1.75,
39122310,-0.814,0,0.624,-2.835,-5.775,1.33,
39122320,-0.798,0.006,0.632,-3.517,-6.212,0.91,
39122330,-0.787,0.013,0.629,-3.955,-5.355,1.102,
39122340,-0.795,0.024,0.609,-3.71,-4.077,1.365,
39122350,-0.791,0.045,0.66,-3.29,-2.117,1.505,
39122360,-0.786,0.034,0.707,-3.307,1.435,1.015,
39122370,-0.804,0.015,0.673,-2.275,0.91,0.56,
39122380,-0.796,0.013,0.649,-0.945,-0.14,0.892,
39122390,-0.771,0.021,0.627,-0.192,-1.522,0.857,
39122400,-0.743,0.027,0.635,0.017,-2.24,1.347,
39122410,-0.732,0.022,0.65,0.262,-0.105,1.575,
39122420,-0.743,0.02,0.658,0.542,2.362,0.577,
39122430,-0.762,0.014,0.638,0.14,4.987,-0.455,
39122440,-0.779,0.013,0.631,0.49,5.25,-0.7,
39122450,-0.78,0.024,0.665,1.295,2.73,-0.245,
39122460,-0.773,0.018,0.689,1.19,0.35,0,
39122470,-0.767,0.004,0.703,1.452,-0.77,-0.822,
39122480,-0.762,-0.007,0.68,1.907,-0.192,-2.047,
39122490,-0.784,-0.013,0.602,3.01,1.225,-1.785,
39122500,-0.849,-0.015,0.52,4.427,0.962,-0.14,
39122510,-0.859,0.002,0.542,5.25,-0.577,1.067,
39122510,-0.82,0.011,0.598,3.937,-3.237,1.085,
39122530,-0.794,-0.001,0.607,1.697,-8.032,0.525,
39122530,-0.795,-0.019,0.604,-0.7,-10.027,-0.56,
39122550,-0.779,-0.02,0.613,-3.237,-8.82,-2.1,
39122550,-0.772,-0.018,0.584,-4.76,-7.122,-1.942,
39122570,-0.8,-0.017,0.558,-3.412,-4.9,0.07,
39122570,-0.833,-0.016,0.577,-1.382,-1.26,1.47,
39122580,-0.861,-0.007,0.601,-0.542,0.525,1.19,
39122590,-0.868,0.012,0.594,-0.385,0.14,1.365,
39122600,-0.851,0.023,0.627,-1.085,-1.102,1.715,
39122610,-0.808,0.023,0.637,-3.43,-1.417,1.33,
39122620,-0.775,0.002,0.618,-5.512,-0.805,0.752,
39122630,-0.76,-0.007,0.62,-5.6,1.102,0.612,
39122640,-0.749,-0.01,0.634,-5.215,3.727,0.472,
39122650,-0.772,-0.009,0.627,-4.2,4.06,1.102,
39122660,-0.789,0.007,0.653,-2.765,3.29,2.607,
39122670,-0.779,0.034,0.672,-1.732,2.45,3.132,
39122680,-0.784,0.046,0.663,-1.365,0.262,3.15,
39122690,-0.794,0.049,0.639,-0.997,0.017,2.415,
39122700,-0.792,0.045,0.613,-0.262,1.225,1.05,
39122710,-0.787,0.03,0.607,-0.07,1.365,0.7,
39122720,-0.79,0.018,0.62,-0.192,0.577,0.77,
39122730,-0.797,0.008,0.626,-0.245,-0.42,0.717,
39122740,-0.801,0,0.633,-0.175,-1.47,0.49,
39122750,-0.796,-0.005,0.633,-0.07,-2.922,-0.437,
39122760,-0.789,-0.008,0.625,0.262,-4.847,-0.787,
39122770,-0.773,-0.008,0.624,0.875,-5.722,-0.385,
39122780,-0.759,-0.002,0.646,1.575,-5.915,0.245,
39122790,-0.759,0.007,0.657,1.872,-5.932,0.56,
39122800,-0.782,0.002,0.632,1.645,-4.952,1.015,
39122810,-0.813,-0.005,0.605,1.417,-3.307,1.137,
39122820,-0.828,0,0.596,1.172,-2.467,0.927,
39122830,-0.825,0.003,0.596,0.787,-2.59,1.207,
39122830,-0.824,0.006,0.598,0.542,-3.955,1.54,
39122850,-0.815,0.005,0.612,-0.087,-6.597,1.085,
39122850,-0.803,-0.002,0.611,-1.417,-8.33,0.21,
39122870,-0.797,-0.011,0.597,-2.275,-8.732,-0.21,
39122870,-0.797,-0.015,0.592,-2.257,-8.102,-0.07,
39122890,-0.8,-0.023,0.6,-2.432,-7.017,0.35,
39122890,-0.819,-0.025,0.59,-2.572,-6.3,0.7,
39122910,-0.846,-0.004,0.557,-2.03,-6.667,1.242,
39122910,-0.854,0.016,0.59,-1.837,-6.79,1.89,
39122920,-0.83,0.019,0.639,-2.975,-5.932,1.767,
39122930,-0.791,0.022,0.669,-4.235,-5.39,1.365,
39122940,-0.764,0.023,0.669,-4.515,-5.565,0.735,
39122950,-0.76,0.022,0.623,-3.727,-5.74,0.192,
39122960,-0.756,0.019,0.614,-2.502,-4.585,0.262,
39122970,-0.757,0.018,0.622,-1.067,-2.1,0.385,
39122980,-0.781,0.023,0.629,0.175,-0.367,1.067,
39122990,-0.8,0.034,0.661,0.315,1.4,1.487,
39123000,-0.806,0.04,0.671,-0.665,1.82,0.717,
39123010,-0.809,0.036,0.664,-1.33,-0.332,0,
39123020,-0.798,0.03,0.64,-0.927,-1.645,-0.315,
39123030,-0.772,0.022,0.619,0.612,-2.572,-0.14,
39123040,-0.743,0.017,0.627,2.327,-3.867,0.227,
39123050,-0.716,0.003,0.631,2.887,-4.427,0.437,
39123060,-0.718,-0.001,0.641,2.625,-3.902,0.35,
39123070,-0.749,-0.011,0.658,1.47,-2.52,0.227,
39123080,-0.785,-0.016,0.658,0.105,-1.295,0.105,
39123090,-0.815,-0.019,0.645,-0.525,-0.805,0.542,
39123100,-0.849,-0.018,0.612,0.245,-1.365,1.435,
39123110,-0.879,-0.012,0.56,1.75,-3.972,2.45,
39123120,-0.874,-0.011,0.537,2.852,-7.472,2.852,
39123130,-0.836,-0.021,0.553,2.327,-11.462,2.502,
39123140,-0.771,-0.022,0.604,-0.122,-14.175,1.96,
39123150,-0.718,-0.021,0.64,-3.815,-13.317,1.89,
39123160,-0.708,-0.024,0.65,-6.947,-10.325,1.785,
39123170,-0.74,-0.014,0.625,-8.085,-5.67,1.33,
39123180,-0.815,0.005,0.6,-6.79,-1.785,1.347,
39123190,-0.879,0.035,0.618,-4.287,-0.07,1.47,
39123200,-0.894,0.058,0.644,-2.135,-0.875,1.785,
39123210,-0.866,0.057,0.663,-1.015,-3.727,2.187,
39123220,-0.814,0.05,0.653,-1.085,-5.197,1.802,
39123230,-0.751,0.027,0.651,-2.327,-4.515,0.805,
39123240,-0.715,0.007,0.634,-3.202,-2.887,-0.14,
39123250,-0.711,-0.002,0.6,-2.852,0.227,0.052,
39123260,-0.751,0.003,0.596,-1.312,4.06,0.77,
39123260,-0.797,0.013,0.627,-0.07,6.457,1.155,
39123280,-0.828,0.021,0.664,0.017,7.035,1.435,
39123280,-0.851,0.024,0.677,-0.245,5.215,1.68,
39123300,-0.843,0.024,0.67,-0.385,1.96,1.365,
39123300,-0.804,0.016,0.654,-0.297,-0.892,0.717,
39123310,-0.754,0.009,0.639,0.315,-2.695,0.35,
39123320,-0.735,-0.005,0.628,1.242,-2.782,0.682,
39123330,-0.741,-0.014,0.614,2.31,-1.575,1.19,
39123340,-0.752,-0.014,0.609,2.485,0.752,1.715,
39123350,-0.767,-0.016,0.608,1.557,2.66,1.872,
39123360,-0.786,-0.01,0.602,0.21,4.042,1.732,
39123370,-0.799,-0.001,0.596,-0.7,3.92,1.592,
39123380,-0.797,0.007,0.594,-1.19,3.78,1.645,
39123390,-0.776,0.01,0.605,-1.872,6.16,1.977,
39123400,-0.761,0.009,0.605,-2.327,10.78,2.17,
39123410,-0.776,0.005,0.604,-2.31,17.517,2.625,
39123420,-0.795,0.016,0.591,-2.1,24.657,3.062,
39123430,-0.793,0.018,0.576,-1.855,32.41,4.077,
39123440,-0.795,0.011,0.59,-1.33,37.52,4.76,
39123450,-0.77,0.003,0.625,-1.4,42.857,4.392,
39123460,-0.784,0.002,0.628,-1.382,43.505,3.29,
39123470,-0.833,0.013,0.615,-0.437,38.605,2.38,
39123480,-0.885,0.016,0.603,0.105,34.545,2.03,
39123490,-0.905,0.016,0.585,0.472,29.54,1.995,
39123500,-0.895,0.011,0.585,0.507,23.625,2.625,
39123510,-0.877,0.007,0.586,0.402,18.83,3.202,
39123520,-0.863,0.009,0.578,0.542,14.63,3.377,
39123530,-0.867,0.011,0.567,0.735,9.327,3.272,
39123540,-0.879,0.015,0.56,0.875,4.655,3.045,
39123550,-0.889,0.024,0.551,0.892,-0.35,2.835,
39123560,-0.898,0.029,0.553,0.805,-6.405,2.677,
39123570,-0.902,0.03,0.556,0.612,-12.512,2.292,
39123580,-0.885,0.03,0.544,0.385,-17.885,1.697,
39123580,-0.859,0.031,0.545,0.157,-21.752,0.945,
39123600,-0.828,0.031,0.561,-0.56,-22.802,0.192,
39123600,-0.798,0.024,0.574,-1.61,-21.472,-0.49,
39123620,-0.787,0.016,0.576,-1.785,-19.915,-1.05,
39123620,-0.794,0.009,0.576,-1.365,-18.182,-1.47,
39123640,-0.807,0.002,0.565,-0.927,-16.555,-1.575,
39123640,-0.822,0.006,0.571,-0.437,-16.537,-1.225,
39123660,-0.828,0.016,0.592,-0.35,-17.062,-0.892,
39123660,-0.844,0.013,0.598,-0.822,-16.992,-0.875,
39123670,-0.858,0.007,0.589,-1.085,-16.642,-1.312,
39123680,-0.837,0.007,0.578,-1.277,-15.68,-1.277,
39123690,-0.803,0.003,0.572,-1.505,-14.577,-0.507,
39123700,-0.78,0,0.566,-1.557,-13.09,0.42,
39123710,-0.766,-0.001,0.578,-1.592,-10.377,0.822,
39123720,-0.775,0,0.598,-1.715,-7.052,0.49,
39123730,-0.806,0.006,0.604,-1.872,-4.357,0.035,
39123740,-0.828,0.012,0.606,-1.995,-2.782,0.017,
39123750,-0.838,0.018,0.613,-1.995,-2.852,0.472,
39123760,-0.833,0.019,0.599,-1.767,-4.147,0.962,
39123770,-0.827,0.018,0.59,-0.822,-5.547,0.945,
39123780,-0.821,0.018,0.594,-0.07,-6.037,0.542,
39123790,-0.817,0.012,0.589,-0.175,-5.88,0.175,
39123800,-0.816,0.01,0.594,-0.49,-5.88,0.21,
39123810,-0.825,0.008,0.595,-0.962,-6.072,0.14,
39123820,-0.831,0.008,0.594,-1.417,-6.755,-0.157,
39123830,-0.827,0.005,0.597,-1.575,-7.822,-0.385,
39123840,-0.828,0.003,0.591,-1.435,-9.135,-0.385,
39123850,-0.829,0.01,0.591,-1.207,-11.2,-0.315,
39123860,-0.822,0.016,0.6,-1.54,-12.407,-0.035,
39123870,-0.827,0.014,0.604,-1.925,-13.405,0.087,
39123880,-0.841,0.011,0.609,-1.942,-15.487,-0.175,
39123890,-0.847,0.001,0.61,-2.747,-17.237,-0.472,
39123900,-0.83,0,0.608,-2.782,-19.582,-1.785,
39123910,-0.811,0.009,0.613,-2.975,-21.227,-1.032,
39123920,-0.797,0.013,0.61,-3.045,-22.645,0.035,
39123930,-0.787,0.019,0.617,-2.957,-23.415,0.77,
39123940,-0.766,0.024,0.635,-3.062,-23.327,0.717,
39123950,-0.732,0.029,0.662,-3.097,-23.677,-0.157,
39123960,-0.707,0.035,0.684,-3.272,-22.312,-1.12,
39123970,-0.707,0.029,0.664,-3.062,-19.145,-2.187,
39123980,-0.731,0.017,0.637,-1.75,-13.72,-2.45,
39123990,-0.775,0.007,0.623,-0.297,-7.21,-2.065,
39124000,-0.819,0.008,0.631,0.7,-2.852,-1.347,
39124000,-0.83,0.002,0.644,0.98,0.77,-0.63,
39124010,-0.866,-0.006,0.616,1.575,0.595,0.21,
39124020,-0.855,0.013,0.635,2.362,-3.902,0.542,
39124030,-0.777,0.014,0.639,1.172,-5.67,-0.07,
39124040,-0.747,-0.003,0.593,0.595,-9.222,-0.227,
39124050,-0.74,-0.01,0.598,1.172,-8.505,-0.437,
39124060,-0.74,-0.008,0.589,0.84,-3.92,-0.91,
39124070,-0.764,-0.005,0.579,0.297,-2.73,-0.805,
39124080,-0.791,-0.003,0.584,-0.542,-2.065,-0.122,
39124090,-0.828,-0.014,0.597,-2.362,-1.487,0,
39124100,-0.858,-0.019,0.628,-4.042,-3.027,-0.052,
39124110,-0.855,-0.021,0.646,-5.53,-4.865,0.105,
39124120,-0.826,-0.014,0.648,-5.425,-6.755,0.367,
39124130,-0.793,-0.001,0.629,-4.34,-7.822,1.33,
39124140,-0.766,0.01,0.614,-2.625,-7.822,2.205,
39124150,-0.754,0.027,0.621,-0.752,-7.245,2.38,
39124160,-0.759,0.029,0.597,0.192,-7.175,1.872,
39124170,-0.786,0.045,0.594,0.315,-9.432,1.26,
39124180,-0.768,0.049,0.661,-1.82,-8.207,0.087,
39124190,-0.779,0.005,0.703,-5.477,-4.602,-1.4,
39124200,-0.811,-0.002,0.711,-6.51,-3.57,-2.607,
39124210,-0.804,0.004,0.706,-5.495,-2.66,-2.765,
39124220,-0.772,0.015,0.697,-3.29,-3.902,-1.715,
39124230,-0.749,0.01,0.68,-0.805,-3.797,-0.157,
39124240,-0.734,0.016,0.655,2.572,-2.87,0.315,
39124250,-0.742,0.024,0.636,5.075,-1.645,0.14,
39124260,-0.752,0.034,0.622,5.687,-2.537,-0.367,
39124270,-0.752,0.025,0.602,4.06,-3.15,-0.857,
39124280,-0.765,0.009,0.608,1.802,-2.012,-1.067,
39124290,-0.783,-0.01,0.655,-0.77,0.052,-1.837,
39124300,-0.811,-0.035,0.661,-2.765,1.137,-2.327,
39124310,-0.83,-0.028,0.639,-2.31,0.525,-1.575,
39124320,-0.831,-0.018,0.631,-0.192,-0.822,0.07,
39124330,-0.816,-0.012,0.617,2.047,-2.747,1.627,
39124330,-0.789,-0.005,0.617,3.535,-4.847,2.292,
39124350,-0.764,-0.001,0.633,3.885,-6.16,1.89,
39124350,-0.744,-0.006,0.635,2.502,-5.915,1.015,
39124370,-0.741,-0.01,0.639,0.332,-4.707,0.437,
39124370,-0.762,-0.011,0.632,-1.837,-2.187,0.35,
39124390,-0.794,-0.007,0.617,-2.642,-0.385,0.752,
39124390,-0.824,-0.004,0.613,-1.697,0.437,1.102,
39124410,-0.845,-0.001,0.608,-0.052,-0.455,1.452,
39124410,-0.844,-0.005,0.605,0.787,-2.397,1.855,
39124420,-0.833,-0.009,0.606,0.7,-4.445,2.03,
39124430,-0.82,-0.007,0.599,-0.577,-5.95,1.662,
39124440,-0.823,0.006,0.578,-2.292,-6.842,1.015,
39124450,-0.819,0.027,0.597,-4.025,-6.545,0.472,
39124460,-0.799,0.023,0.636,-5.162,-6.317,-0.297,
39124470,-0.768,0.014,0.649,-5.302,-6.16,-0.507,
39124480,-0.742,0.002,0.645,-4.41,-5.512,-0.332,
39124490,-0.737,-0.001,0.653,-3.587,-4.742,-0.245,
39124500,-0.744,0.008,0.662,-3.202,-2.152,0.21,
39124510,-0.76,0.026,0.676,-1.802,-1.347,0.717,
39124520,-0.77,0.032,0.68,-0.42,-2.292,0.927,
39124530,-0.771,0.023,0.67,0.017,-2.31,0.735,
39124540,-0.761,0.02,0.667,0.437,-2.222,0.122,
39124550,-0.744,0.018,0.656,0.77,-1.697,0.087,
39124560,-0.745,0.023,0.65,1.067,-0.35,0.665,
39124570,-0.768,0.022,0.653,0.84,0.717,0.997,
39124580,-0.791,0.011,0.655,0.595,-0.07,0.42,
39124590,-0.781,0,0.678,0.402,-1.645,-0.35,
39124600,-0.755,-0.023,0.701,-0.175,-2.03,-0.455,
39124610,-0.746,-0.025,0.692,-0.665,-1.155,0.262,
39124620,-0.766,-0.01,0.69,-0.507,1.277,1.207,
39124630,-0.791,-0.001,0.673,0.472,2.625,1.855,
39124640,-0.81,-0.006,0.615,2.065,3.552,2.345,
39124650,-0.827,-0.011,0.561,3.99,2.625,2.677,
39124660,-0.818,-0.004,0.56,4.34,1.225,2.537,
39124670,-0.806,-0.003,0.574,2.082,-0.28,2.747,
39124680,-0.814,-0.011,0.585,-0.752,-2.187,2.047,
39124690,-0.833,-0.017,0.609,-3.482,-2.782,0.857,
39124690,-0.831,-0.02,0.603,-5.477,-3.972,-0.647,
39124710,-0.818,-0.025,0.588,-5.477,-6.265,-0.525,
39124710,-0.815,-0.014,0.568,-3.78,-7.542,0.367,
39124730,-0.806,0.022,0.582,-1.82,-7.542,0.752,
39124730,-0.786,0.042,0.636,-0.962,-5.932,0.542,
39124750,-0.769,0.044,0.676,-1.12,-3.71,0.21,
39124750,-0.752,0.024,0.674,-2.17,-2.38,-0.14,
39124760,-0.749,0.009,0.633,-3.027,-3.605,-0.612,
39124770,-0.738,0.009,0.631,-3.482,-3.675,-0.857,
39124780,-0.736,0.005,0.639,-3.465,-0.927,-0.245,
39124790,-0.766,0,0.656,-2.292,1.26,0.945,
39124800,-0.778,0.006,0.682,-1.435,4.97,1.592,
39124810,-0.8,0.012,0.686,-1.277,8.207,1.785,
39124820,-0.816,0.018,0.69,-0.945,8.435,2.1,
39124830,-0.809,0.025,0.681,0,8.767,2.555,
39124840,-0.781,0.025,0.672,1.26,6.072,2.782,
39124850,-0.753,0.025,0.677,2.082,2.782,2.152,
39124860,-0.735,0.024,0.672,2.17,1.995,1.347,
39124870,-0.755,0.012,0.676,1.907,1.837,1.102,
39124880,-0.787,0.002,0.651,1.697,1.977,0.822,
39124890,-0.82,-0.002,0.602,1.435,0.297,0.577,
39124900,-0.834,-0.001,0.576,1.417,-2.327,0.42,
39124910,-0.826,0,0.577,1.505,-3.71,0.315,
39124920,-0.81,-0.002,0.587,1.277,-4.76,0.717,
39124930,-0.789,-0.006,0.597,0.822,-6.072,0.822,
39124940,-0.775,-0.013,0.602,-0.192,-6.685,0.42,
39124950,-0.763,-0.017,0.597,-1.365,-6.037,-0.017,
39124960,-0.761,-0.023,0.587,-1.977,-4.602,0,
39124970,-0.762,-0.022,0.582,-2.03,-1.032,0.595,
39124980,-0.746,-0.018,0.579,-2.222,5.932,1.715,
39124990,-0.735,-0.016,0.591,-2.66,13.947,3.027,
39125000,-0.749,-0.01,0.611,-3.115,22.242,3.797,
39125010,-0.781,-0.001,0.612,-3.062,29.575,4.042,
39125020,-0.821,0.018,0.622,-2.275,32.462,4.112,
39125030,-0.79,0.038,0.657,-1.802,34.002,3.797,
39125040,-0.783,0.011,0.682,-2.52,35.28,3.15,
39125050,-0.852,-0.004,0.656,-1.627,30.59,2.222,
39125060,-0.89,0.012,0.601,0.49,23.922,1.47,
39125070,-0.886,0.025,0.576,1.417,18.83,1.54,
39125080,-0.877,0.023,0.576,1.05,15.697,2.87,
39125080,-0.893,0.016,0.583,0.35,11.637,3.5,
39125100,-0.908,0.02,0.592,0.402,4.83,2.59,
39125100,-0.904,0.024,0.587,0.647,-3.832,1.172,
39125120,-0.884,0.014,0.584,0.577,-11.077,0.437,
39125120,-0.859,0.004,0.59,0.21,-15.365,0.315,
39125140,-0.826,0.003,0.592,0.402,-17.797,0.122,
39125140,-0.793,0.007,0.583,1.365,-18.97,0.035,
39125160,-0.781,0.01,0.581,2.17,-19.11,0,
39125160,-0.781,0.009,0.59,2.152,-17.01,-0.28,
39125170,-0.783,0.006,0.592,1.627,-14.087,-0.49,
39125180,-0.793,0,0.596,1.26,-12.302,-0.665,
39125190,-0.811,-0.006,0.594,0.98,-11.025,-0.997,
39125200,-0.825,-0.005,0.584,0.927,-10.5,-1.347,
39125210,-0.835,-0.002,0.584,1.295,-11.217,-1.505,
39125220,-0.835,-0.001,0.587,1.61,-12.67,-1.295,
39125230,-0.822,0.001,0.596,1.575,-14,-1.085,
39125240,-0.81,0.006,0.607,1.26,-14.28,-1.05,
39125250,-0.807,0.012,0.621,0.665,-14,-1.277,
39125260,-0.79,0.011,0.633,-0.175,-12.565,-1.575,
39125270,-0.767,0.003,0.647,-0.875,-9.275,-1.54,
39125280,-0.762,0.007,0.63,-0.647,-7.665,-1.347,
39125290,-0.786,0.019,0.602,0.455,-8.295,-0.717,
39125300,-0.818,0.026,0.606,1.102,-7.997,-0.157,
39125310,-0.832,0.027,0.619,0.63,-8.505,-0.245,
39125320,-0.831,0.025,0.635,-0.525,-11.672,-0.7,
39125330,-0.838,0.021,0.632,-2.117,-16.66,-1.207,
39125340,-0.831,0.015,0.621,-3.43,-19.985,-1.75,
39125350,-0.819,0.009,0.608,-4.112,-22.347,-1.767,
39125360,-0.799,0.003,0.597,-3.657,-24.832,-1.697,
39125370,-0.77,-0.003,0.587,-2.975,-25.287,-1.277,
39125380,-0.745,-0.005,0.584,-2.327,-22.505,-0.577,
39125390,-0.743,-0.003,0.594,-1.627,-19.215,-0.07,
39125400,-0.744,0,0.621,-1.592,-16.485,-0.437,
39125410,-0.739,0.008,0.647,-2.432,-12.88,-1.085,
39125420,-0.735,0.026,0.649,-2.73,-11.76,-1.277,
39125420,-0.743,0.033,0.651,-2.992,-12.442,-1.26,
39125440,-0.759,0.02,0.639,-3.64,-11.935,-1.732,
39125440,-0.772,0.001,0.632,-3.832,-9.817,-2.205,
39125460,-0.787,-0.014,0.641,-3.71,-6.492,-1.802,
39125460,-0.8,-0.015,0.655,-3.36,-4.252,-0.84,
39125480,-0.798,-0.003,0.677,-3.15,-3.57,0.017,
39125480,-0.781,0.012,0.689,-2.975,-4.462,0.455,
39125500,-0.765,0.026,0.689,-2.59,-6.335,0.105,
39125500,-0.769,0.034,0.683,-2.047,-6.772,-0.595,
39125510,-0.774,0.034,0.691,-3.325,-4.41,-1.242,
39125520,-0.785,0.026,0.683,-3.447,-2.712,-2.187,
39125530,-0.794,0.015,0.666,-3.115,-2.17,-1.435,
39125540,-0.789,-0.002,0.661,-2.187,-0.612,-0.455,
39125550,-0.793,-0.033,0.615,-0.367,0.157,0.297,
39125560,-0.815,-0.035,0.601,2.275,-1.645,0.682,
39125570,-0.763,-0.017,0.628,3.675,-2.047,0.262,
39125580,-0.735,-0.013,0.62,2.922,-3.412,0.56,
39125590,-0.758,-0.01,0.632,1.295,-3.447,1.12,
39125600,-0.79,-0.015,0.634,-0.717,-1.032,-0.525,
39125610,-0.818,-0.025,0.632,-1.925,-0.455,-1.907,
39125620,-0.833,-0.029,0.638,-2.205,0.35,-1.207,
39125630,-0.835,-0.024,0.653,-1.225,1.19,0.402,
39125640,-0.819,-0.012,0.673,0.367,1.172,1.767,
39125650,-0.781,0.001,0.675,2.38,1.015,1.89,
39125660,-0.753,0.01,0.639,3.762,2.66,1.995,
39125670,-0.762,0.017,0.582,3.99,6.107,2.537,
39125680,-0.799,0.039,0.571,3.482,7.91,2.257,
39125690,-0.788,0.062,0.619,1.662,8.207,2.065,
39125700,-0.778,0.041,0.639,-1.032,6.93,1.767,
39125710,-0.802,0.013,0.637,-2.52,3.972,1.522,
39125720,-0.805,-0.005,0.641,-3.745,1.855,0.105,
39125730,-0.768,-0.01,0.635,-4.55,-0.63,-0.647,
39125740,-0.73,0,0.644,-4.27,-2.887,1.085,
39125750,-0.713,0.017,0.665,-3.15,-1.995,2.957,
39125760,-0.73,0.033,0.673,-2.345,-0.315,3.447,
39125770,-0.762,0.042,0.682,-2.152,-0.105,2.537,
39125780,-0.771,0.036,0.658,-2.537,0,1.592,
39125790,-0.773,0.02,0.646,-2.992,-0.787,2.065,
39125800,-0.772,-0.003,0.65,-3.43,-1.4,2.205,
39125810,-0.777,-0.025,0.631,-3.587,-1.575,1.68,
39125820,-0.792,-0.04,0.613,-3.255,-1.61,0.945,
39125830,-0.81,-0.044,0.608,-2.782,-1.977,0.735,
39125830,-0.807,-0.035,0.619,-2.625,-1.242,1.277,
39125850,-0.799,-0.025,0.625,-2.485,0.437,2.782,
39125850,-0.813,-0.017,0.616,-1.785,1.067,3.797,
39125870,-0.821,-0.006,0.604,-1.102,-0.175,3.745,
39125870,-0.807,-0.004,0.607,-0.997,-1.82,2.782,
39125890,-0.79,-0.007,0.594,-1.312,-3.535,2.257,
39125890,-0.784,-0.015,0.584,-1.575,-3.867,2.66,
39125910,-0.796,-0.016,0.586,-2.047,-1.557,2.975,
39125910,-0.814,-0.011,0.588,-2.835,0.262,2.922,
39125920,-0.831,-0.008,0.592,-3.325,0.245,2.572,
39125930,-0.848,-0.005,0.588,-3.255,-1.172,2.065,
39125940,-0.863,0.008,0.574,-2.625,-3.78,1.82,
39125950,-0.855,0.017,0.588,-2.03,-6.405,1.312,
39125960,-0.821,0.02,0.608,-2.047,-7.507,0.525,
39125970,-0.783,0.016,0.609,-2.782,-8.12,-0.227,
39125980,-0.755,0.01,0.628,-3.447,-7.805,-0.665,
39125990,-0.745,0.007,0.653,-4.462,-5.53,-0.84,
39126000,-0.751,0.008,0.669,-4.76,-4.497,-0.84,
39126010,-0.756,0.007,0.671,-4.165,-2.572,-0.577,
39126020,-0.773,0.004,0.655,-2.45,-0.595,-0.315,
39126030,-0.792,0.008,0.652,-0.367,-1.067,0.245,
39126040,-0.785,0.014,0.653,1.225,-2.012,0.647,
39126050,-0.776,0.02,0.666,2.205,-3.185,0.892,
39126060,-0.76,0.024,0.67,2.135,-4.06,0.63,
39126070,-0.744,0.019,0.684,1.207,-4.812,0.14,
39126080,-0.73,-0.017,0.688,-0.227,-4.34,-0.577,
39126090,-0.749,-0.046,0.613,-0.35,-3.132,-0.507,
39126100,-0.785,-0.032,0.582,0.98,-0.332,0.612,
39126110,-0.818,-0.017,0.604,1.715,2.257,1.785,
39126120,-0.845,-0.004,0.619,2.117,1.05,2.66,
39126130,-0.846,0,0.627,2.415,-1.89,2.852,
39126140,-0.827,0.002,0.612,2.502,-6.772,1.732,
39126150,-0.794,0.003,0.602,1.225,-10.57,0.56,
39126160,-0.768,0.001,0.598,-0.402,-10.43,-0.035,
39126170,-0.767,-0.001,0.594,-0.892,-8.277,-0.087,
39126170,-0.778,-0.002,0.585,-0.787,-4.795,0.227,
39126190,-0.799,-0.007,0.589,-0.91,-1.662,0.595,
39126190,-0.818,-0.006,0.603,-1.242,0.367,0.98,
39126210,-0.823,0.001,0.63,-1.732,0.84,1.522,
39126210,-0.815,0.01,0.652,-2.397,0.262,1.61,
39126230,-0.802,0.01,0.637,-2.957,0.805,1.12,
39126230,-0.798,0.017,0.591,-2.327,1.47,0.7,
39126250,-0.793,0.027,0.565,-0.822,1.715,0.647,
39126250,-0.779,0.03,0.58,0.157,2.625,0.647,
39126260,-0.772,0.024,0.616,-0.157,3.78,0.402,
39126270,-0.791,0.011,0.635,-1.242,4.392,-0.227,
39126280,-0.828,-0.003,0.64,-2.38,2.117,-1.242,
39126290,-0.836,-0.015,0.648,-3.57,-1.47,-1.925,
39126300,-0.811,-0.018,0.663,-4.27,-4.655,-1.54,
39126310,-0.775,-0.015,0.663,-3.29,-8.54,-0.35,
39126320,-0.753,-0.009,0.667,-1.26,-10.307,0.472,
39126330,-0.748,0,0.678,0,-9.152,0.105,
39126340,-0.759,0.019,0.679,0.822,-9.17,-0.91,
39126350,-0.767,0.029,0.683,1.12,-10.99,-1.277,
39126360,-0.756,0.018,0.67,0.63,-12.302,-0.98,
39126370,-0.756,-0.013,0.626,-0.14,-10.22,-0.595,
39126380,-0.776,-0.015,0.595,0.105,-7.577,-0.315,
39126390,-0.768,-0.001,0.596,0.192,-4.287,0.017,
39126400,-0.771,0.01,0.588,0.437,-2.572,1.12,
39126410,-0.781,0.014,0.604,0.542,-1.575,2.135,
39126420,-0.777,0.008,0.608,-0.157,0.875,1.4,
39126430,-0.757,0,0.602,-1.347,3.85,0.332,
39126440,-0.732,-0.007,0.599,-2.467,9.065,0.385,
39126450,-0.721,-0.014,0.596,-3.185,16.887,1.54,
39126460,-0.748,-0.013,0.611,-3.167,24.342,2.852,
39126470,-0.788,-0.012,0.622,-2.415,30.047,3.22,
39126480,-0.828,-0.011,0.623,-1.085,31.955,3.01,
39126490,-0.795,-0.005,0.626,0.192,32.55,3.132,
39126500,-0.745,-0.019,0.634,0.297,36.155,3.692,
39126510,-0.768,-0.025,0.613,0.647,35.945,3.377,
39126520,-0.823,-0.011,0.571,1.645,33.547,2.502,
39126530,-0.877,0.005,0.558,2.52,31.465,1.89,
39126540,-0.912,0.01,0.567,1.977,27.422,2.415,
39126550,-0.929,0.001,0.58,0.682,21.28,3.395,
39126560,-0.933,0.005,0.589,-0.07,12.32,3.832,
39126570,-0.914,0.016,0.583,-0.262,2.03,3.797,
39126580,-0.892,0.017,0.572,-0.315,-5.39,3.15,
39126580,-0.863,0.01,0.567,0.21,-9.117,2.03,
39126600,-0.832,0.002,0.566,0.875,-10.272,1.33,
39126600,-0.806,-0.003,0.573,1.225,-10.132,1.365,
39126620,-0.789,-0.003,0.575,1.33,-9.152,1.627,
39126620,-0.78,0,0.579,1.295,-7.84,1.557,
39126640,-0.783,0.003,0.589,0.98,-6.247,1.137,
39126640,-0.798,0.005,0.592,0.507,-5.232,0.612,
39126660,-0.823,0.01,0.596,0.227,-4.987,0.665,
39126660,-0.843,0.016,0.597,0.035,-5.617,1.26,
39126670,-0.854,0.022,0.593,-0.122,-7.105,1.627,
39126680,-0.864,0.022,0.586,-0.332,-9.362,1.54,
39126690,-0.86,0.023,0.584,-0.595,-11.672,0.98,
39126700,-0.839,0.02,0.584,-1.19,-13.702,0.612,
39126710,-0.819,0.015,0.588,-1.89,-15.207,0.385,
39126720,-0.795,0.008,0.584,-2.38,-14.962,0.105,
39126730,-0.782,0,0.585,-2.397,-13.335,0.052,
39126740,-0.784,-0.008,0.596,-2.327,-11.165,-0.052,
39126750,-0.793,-0.01,0.599,-2.257,-8.522,-0.105,
39126760,-0.821,-0.009,0.59,-1.645,-7.682,0.192,
39126770,-0.85,-0.005,0.584,-1.085,-9.292,0.577,
39126780,-0.86,-0.003,0.583,-1.347,-11.305,0.787,
39126790,-0.85,-0.014,0.581,-2.065,-13.072,1.225,
39126800,-0.828,-0.029,0.586,-2.695,-13.702,2.012,
39126810,-0.812,-0.028,0.577,-3.115,-13.58,2.625,
39126820,-0.802,-0.017,0.569,-3.342,-13.142,2.975,
39126830,-0.802,-0.007,0.585,-3.5,-11.567,3.307,
39126840,-0.799,-0.001,0.609,-3.92,-9.31,3.5,
39126850,-0.787,0.005,0.631,-4.095,-8.505,3.412,
39126860,-0.774,0.015,0.652,-4.252,-8.767,3.325,
39126870,-0.763,0.029,0.665,-4.252,-8.12,2.957,
39126880,-0.773,0.045,0.665,-3.762,-7.402,2.327,
39126890,-0.786,0.054,0.654,-2.73,-7.927,1.47,
39126900,-0.795,0.049,0.64,-1.487,-7.752,0.542,
39126910,-0.805,0.039,0.635,-0.315,-7.28,-0.56,
39126920,-0.819,0.027,0.641,0.192,-7.682,-1.172,
39126920,-0.832,0.017,0.641,0.245,-9.397,-1.225,
39126940,-0.827,0.014,0.642,0.175,-11.935,-0.84,
39126940,-0.793,0.002,0.619,0.07,-13.265,-0.367,
39126960,-0.792,-0.013,0.602,0.315,-15.12,-0.35,
39126960,-0.772,-0.009,0.6,0.805,-15.452,-0.595,
39126980,-0.74,-0.003,0.61,0.472,-12.127,0.157,
39126980,-0.731,-0.007,0.61,0.105,-7.787,1.295,
39127000,-0.763,-0.011,0.602,-0.507,-3.867,1.68,
39127000,-0.796,-0.007,0.604,-1.172,-1.015,1.207,
39127010,-0.806,0.005,0.619,-1.627,-0.245,1.032,
39127020,-0.799,0.009,0.619,-1.767,-1.067,1.452,
39127030,-0.807,0.009,0.601,-1.242,-2.835,1.715,
39127040,-0.822,0.005,0.586,-0.752,-2.572,1.242,
39127050,-0.829,0.002,0.584,-0.84,-1.75,0.507,
39127060,-0.828,0,0.585,-1.4,-2.537,0.192,
39127070,-0.824,-0.002,0.605,-2.59,-4.217,0.315,
39127080,-0.805,0.004,0.627,-4.217,-4.41,0.262,
39127090,-0.789,0.007,0.625,-4.987,-3.867,0.035,
39127100,-0.788,0.007,0.613,-4.095,-3.167,-0.227,
39127110,-0.799,0.006,0.582,-2.817,-2.712,-0.472,
39127120,-0.816,0.027,0.578,-1.487,-5.022,-0.735,
39127130,-0.757,0.052,0.63,-1.452,-4.672,-0.21,
39127140,-0.749,0.025,0.66,-3.29,-2.257,0.175,
39127150,-0.808,0.004,0.669,-4.147,-3.692,-0.63,
39127160,-0.837,-0.018,0.676,-5.337,-2.502,-2.38,
39127170,-0.833,-0.025,0.67,-5.617,-2.502,-2.695,
39127180,-0.799,-0.021,0.673,-4.865,-4.34,-0.367,
39127190,-0.773,-0.009,0.646,-2.905,-6.457,2.152,
39127200,-0.75,0.007,0.628,-0.14,-6.457,3.377,
39127210,-0.739,0.015,0.621,1.802,-4.2,2.852,
39127220,-0.745,0.014,0.618,2.467,-2.362,1.715,
39127230,-0.765,0.016,0.631,1.837,-1.242,1.085,
39127240,-0.792,0.022,0.652,0.192,-1.837,0.647,
39127250,-0.797,0.02,0.681,-1.977,-4.235,0.175,
39127260,-0.785,0.009,0.687,-3.097,-7.017,-0.35,
39127270,-0.777,-0.006,0.664,-2.397,-7.7,-0.245,
39127280,-0.761,-0.01,0.664,-0.42,-4.515,0.28,
39127290,-0.752,-0.03,0.637,1.505,1.102,1.627,
39127300,-0.826,-0.045,0.562,3.797,1.995,2.94,
39127310,-0.853,-0.011,0.564,5.862,1.382,3.622,
39127320,-0.805,0.014,0.587,4.462,2.415,3.955,
39127330,-0.785,0.021,0.577,2.292,-0.892,4.252,
39127330,-0.813,0.015,0.571,0.14,-3.325,3.185,
39127350,-0.818,0.009,0.598,-2.467,-1.907,0.262,
39127350,-0.799,-0.003,0.607,-5.232,-0.315,-1.767,
39127370,-0.814,-0.007,0.6,-5.827,-0.787,-0.98,
39127370,-0.833,-0.003,0.608,-4.935,0.35,0.752,
39127390,-0.838,0,0.608,-3.937,1.505,1.067,
39127390,-0.829,-0.001,0.582,-2.502,-0.962,0.122,
39127410,-0.836,0.002,0.532,-0.682,-5.845,-0.717,
39127410,-0.803,0.043,0.553,-0.455,-8.12,-1.137,
39127420,-0.717,0.051,0.628,-3.71,-3.64,-0.665,
39127430,-0.729,0.014,0.669,-7.052,-1.715,-1.155,
39127440,-0.791,-0.032,0.674,-7.98,-0.175,-2.66,
39127450,-0.823,-0.05,0.676,-7.402,2.432,-4.042,
39127460,-0.814,-0.039,0.68,-6.002,1.557,-2.485,
39127470,-0.796,-0.019,0.676,-3.727,-1.155,1.102,
39127480,-0.791,0.001,0.648,-0.07,-1.995,3.692,
39127490,-0.789,0.019,0.639,3.605,-1.242,3.815,
39127500,-0.781,0.027,0.637,5.442,-0.875,2.187,
39127510,-0.76,0.021,0.65,4.812,-1.225,1.295,
39127520,-0.753,-0.011,0.666,2.502,-1.102,1.382,
39127530,-0.762,-0.016,0.628,0.455,-2.485,1.032,
39127540,-0.776,-0.005,0.598,-0.385,-5.495,0.332,
39127550,-0.793,0,0.604,-0.455,-6.457,-0.105,
39127560,-0.809,0.001,0.619,-0.105,-5.705,0.227,
39127570,-0.813,-0.004,0.627,0.91,-5.285,0.49,
39127580,-0.827,-0.004,0.618,2.327,-5.827,0.437,
39127590,-0.839,-0.002,0.608,2.94,-7.227,0.28,
39127600,-0.837,-0.006,0.589,2.59,-7.945,0.332,
39127610,-0.834,-0.006,0.585,2.222,-8.662,0.63,
39127620,-0.813,-0.007,0.592,1.365,-7.49,1.067,
39127630,-0.804,-0.01,0.597,0.42,-5.792,1.26,
39127640,-0.795,-0.011,0.613,-0.437,-3.815,1.33,
39127650,-0.778,-0.01,0.618,-1.277,-1.05,1.4,
39127660,-0.773,-0.006,0.618,-1.4,0.84,1.662,
39127670,-0.782,0,0.616,-0.822,2.397,1.697,
39127670,-0.793,0.009,0.61,-0.017,3.552,1.61,
39127690,-0.796,0.016,0.606,0.595,4.095,1.627,
39127690,-0.794,0.019,0.598,0.595,4.27,1.942,
39127710,-0.799,0.026,0.575,0.35,2.87,2.117,
39127710,-0.79,0.046,0.573,0.017,0.437,1.785,
39127730,-0.759,0.047,0.614,-1.61,0.21,1.032,
39127730,-0.767,0.022,0.627,-3.762,1.365,0.21,
39127750,-0.803,0.007,0.632,-4.742,0.945,-0.682,
39127750,-0.802,0.002,0.661,-5.232,1.4,-1.26,
39127760,-0.794,-0.005,0.673,-5.617,2.222,-0.437,
39127770,-0.802,-0.016,0.673,-4.672,1.382,1.242,
39127780,-0.809,-0.017,0.653,-1.995,1.575,2.397,
39127790,-0.812,-0.003,0.628,0.822,1.872,3.097,
39127800,-0.798,0.013,0.62,2.467,1.767,3.535,
39127810,-0.786,0.02,0.61,2.782,1.172,3.762,
39127820,-0.792,0.024,0.605,2.275,-0.035,3.745,
39127830,-0.805,0.023,0.622,0.927,-2.415,2.397,
39127840,-0.808,0.017,0.637,-1.155,-6.037,0.035,
39127850,-0.797,0.009,0.644,-2.555,-11.462,-1.54,
39127860,-0.766,0,0.662,-2.87,-16.8,-1.785,
39127870,-0.735,-0.018,0.692,-3.132,-17.465,-0.962,
39127880,-0.75,-0.041,0.673,-2.922,-14.017,-0.437,
39127890,-0.79,-0.03,0.625,-0.647,-8.75,0.665,
39127900,-0.82,-0.006,0.609,1.452,-1.942,2.292,
39127910,-0.832,0.015,0.586,2.607,2.502,3.727,
39127920,-0.837,0.017,0.548,2.905,4.462,4.445,
39127930,-0.839,0.017,0.53,3.097,3.815,3.605,
39127940,-0.805,0.014,0.549,1.382,4.672,1.855,
39127950,-0.765,-0.004,0.574,-2.38,7.612,0.822,
39127960,-0.768,-0.025,0.592,-5.337,10.517,0.682,
39127970,-0.783,-0.033,0.586,-6.615,15.977,1.067,
39127980,-0.796,-0.028,0.597,-5.81,20.597,1.767,
39127990,-0.768,-0.005,0.618,-3.377,20.79,2.537,
39128000,-0.733,0.005,0.599,-0.542,20.947,3.587,
39128010,-0.721,-0.002,0.607,1.995,24.797,4.567,
39128020,-0.744,-0.019,0.653,1.82,34.807,4.165,
39128030,-0.801,-0.019,0.668,0.525,39.847,2.852,
39128040,-0.888,0.003,0.644,0.367,34.842,2.292,
39128050,-0.941,0.028,0.609,1.155,26.215,2.922,
39128060,-0.95,0.037,0.584,1.697,16.677,4.147,
39128070,-0.923,0.034,0.566,1.732,7.227,4.9,
39128080,-0.896,0.031,0.561,2.012,0.42,4.83,
39128080,-0.87,0.039,0.562,2.38,-4.095,3.762,
39128100,-0.853,0.04,0.567,1.942,-6.982,2.695,
39128100,-0.847,0.037,0.562,1.19,-9.975,1.802,
39128110,-0.829,0.028,0.555,0.437,-12.81,1.015,
39128120,-0.8,0.017,0.565,-0.315,-14.07,0.28,
39128130,-0.777,0.006,0.581,-1.26,-12.81,-0.017,
39128140,-0.772,-0.002,0.59,-1.837,-10.255,-0.087,
39128150,-0.784,-0.002,0.592,-1.89,-7.175,0.052,
39128160,-0.803,0.001,0.595,-1.837,-4.217,0.472,
39128170,-0.827,0.006,0.589,-1.592,-3.045,1.085,
39128180,-0.85,0.012,0.584,-0.91,-4.41,1.452,
39128190,-0.854,0.018,0.579,-0.227,-6.492,1.155,
39128200,-0.853,0.019,0.572,-0.122,-8.855,0.84,
39128210,-0.846,0.016,0.568,-0.332,-11.235,0.507,
39128220,-0.834,0.013,0.572,-1.067,-12.302,0.087,
39128230,-0.816,0.01,0.576,-2.292,-11.585,-0.367,
39128240,-0.807,0.002,0.578,-2.992,-9.905,-0.472,
39128250,-0.802,-0.002,0.584,-2.922,-7.56,-0.507,
39128260,-0.795,-0.003,0.598,-2.572,-5.442,-0.472,
39128270,-0.796,-0.006,0.608,-1.995,-3.815,-0.28,
39128280,-0.813,-0.003,0.6,-0.927,-3.167,0.175,
39128290,-0.838,0.005,0.598,0.192,-4.095,0.7,
39128300,-0.853,0.014,0.601,0.315,-5.285,0.962,
39128310,-0.861,0.02,0.591,-0.227,-7.49,0.875,
39128320,-0.854,0.021,0.594,-0.91,-10.64,0.525,
39128330,-0.828,0.02,0.595,-1.995,-13.282,-0.017,
39128340,-0.799,0.014,0.592,-3.255,-14.892,-0.437,
39128350,-0.781,0.012,0.6,-3.955,-14.927,-0.56,
39128360,-0.78,0.013,0.609,-4.112,-13.702,-0.647,
39128370,-0.788,0.015,0.618,-3.815,-12.39,-0.875,
39128380,-0.805,0.014,0.616,-3.22,-11.252,-0.91,
39128390,-0.814,0.013,0.611,-2.327,-10.43,-0.647,
39128400,-0.813,0.01,0.612,-1.872,-9.537,0.105,
39128410,-0.808,0.01,0.607,-2.012,-8.785,0.717,
39128420,-0.796,0.011,0.594,-2.152,-8.4,1.155,
39128420,-0.789,0.01,0.616,-2.8,-7.875,1.26,
39128440,-0.782,0.008,0.646,-4.287,-7.665,0.402,
39128440,-0.788,0.003,0.683,-5.915,-7.07,-0.455,
39128460,-0.827,0.012,0.693,-6.387,-7.437,-1.032,
39128460,-0.854,0.025,0.658,-5.145,-9.642,-0.49,
39128480,-0.851,0.008,0.614,-3.15,-9.082,0.752,
39128480,-0.868,-0.007,0.587,-0.122,-11.725,0.875,
39128500,-0.813,-0.005,0.597,2.187,-11.777,0.682,
39128500,-0.727,0.005,0.604,2.555,-6.947,1.12,
39128510,-0.705,0.011,0.585,2.485,-4.83,1.732,
39128520,-0.75,0.012,0.575,1.522,-3.342,1.05,
39128530,-0.778,0.007,0.597,-0.35,1.435,-0.98,
39128540,-0.786,0.007,0.617,-1.61,3.867,-2.257,
39128550,-0.817,0.01,0.603,-1.522,2.625,-1.645,
39128560,-0.857,0.011,0.589,-0.455,1.295,-1.015,
39128570,-0.872,0.003,0.578,0.262,0.63,-1.032,
39128580,-0.861,-0.009,0.568,0.752,-1.61,-1.242,
39128590,-0.843,-0.017,0.56,1.26,-5.827,-1.4,
39128600,-0.828,-0.019,0.567,0.647,-10.15,-1.715,
39128610,-0.803,-0.018,0.578,-1.155,-12.67,-2.31,
39128620,-0.775,-0.022,0.59,-2.747,-12.46,-2.275,
39128630,-0.759,-0.026,0.584,-3.202,-10.097,-1.452,
39128640,-0.774,-0.017,0.57,-2.887,-7.647,-0.682,
39128650,-0.788,0.028,0.633,-2.922,-7.332,-0.647,
39128660,-0.746,0.047,0.697,-4.375,-4.147,-0.507,
39128670,-0.801,0.026,0.677,-4.865,-4.357,-0.175,
39128680,-0.872,0.008,0.62,-3.43,-8.662,-1.207,
39128690,-0.86,0,0.594,-2.835,-13.37,-2.537,
39128700,-0.789,0,0.604,-3.797,-17.01,-0.822,
39128710,-0.736,0.002,0.637,-5.075,-18.462,2.117,
39128720,-0.739,0.013,0.669,-5.162,-18.077,2.537,
39128730,-0.773,0.027,0.686,-5.04,-16.537,-0.157,
39128740,-0.773,0.03,0.693,-4.567,-15.12,-3.202,
39128750,-0.767,0.031,0.731,-3.902,-14.77,-3.972,
39128760,-0.767,0.018,0.734,-3.745,-13.597,-3.29,
39128770,-0.78,0.004,0.721,-2.31,-12.827,-2.362,
39128780,-0.782,-0.017,0.688,0.14,-11.445,-2.415,
39128780,-0.775,-0.029,0.616,3.185,-10.237,-2.135,
39128800,-0.763,-0.03,0.599,5.005,-5.53,-0.507,
39128800,-0.759,-0.044,0.612,4.567,2.52,1.855,
39128820,-0.849,-0.079,0.548,3.395,6.632,3.64,
39128820,-0.888,-0.022,0.564,3.36,1.995,3.92,
39128830,-0.789,0.012,0.625,0.56,-0.84,3.64,
39128840,-0.764,0.006,0.611,-2.31,-6.212,3.57,
39128850,-0.789,-0.002,0.614,-2.957,-9.205,2.03,
39128860,-0.793,-0.011,0.628,-3.027,-6.597,-1.155,
39128870,-0.777,-0.011,0.626,-2.415,-5.302,-2.187,
39128880,-0.787,-0.016,0.608,-1.137,-3.71,0.017,
39128890,-0.818,-0.012,0.595,0.525,-1.855,2.03,
39128900,-0.832,-0.007,0.595,1.12,-1.837,2.117,
39128910,-0.826,-0.008,0.599,0.752,-4.62,1.067,
39128920,-0.804,-0.009,0.61,-0.297,-7.385,0,
39128930,-0.773,-0.004,0.619,-2.345,-7.735,-0.35,
39128940,-0.742,-0.003,0.616,-4.042,-6.23,0.052,
39128950,-0.727,-0.005,0.6,-3.832,-2.87,0.577,
39128960,-0.748,-0.007,0.573,-2.047,0.892,0.63,
39128970,-0.768,0.03,0.639,-0.63,2.31,-0.192,
39128980,-0.744,0.049,0.758,-2.152,6.16,-0.735,
39128990,-0.818,0.016,0.753,-3.78,6.545,-0.525,
39129000,-0.902,-0.018,0.689,-2.52,2.012,-0.875,
39129010,-0.857,-0.03,0.65,-0.42,-1.137,-1.767,
39129020,-0.756,-0.023,0.628,0.665,-2.975,-0.157,
39129030,-0.708,-0.011,0.621,2.17,-3.097,3.36,
39129040,-0.715,0,0.622,4.34,-0.21,4.252,
39129050,-0.751,0.01,0.636,4.532,2.747,1.977,
39129060,-0.781,0.019,0.667,2.17,3.99,-0.91,
39129070,-0.804,0.024,0.688,-0.682,2.012,-1.33,
39129080,-0.793,0.015,0.708,-2.38,-0.7,0.42,
39129090,-0.78,-0.038,0.65,-2.607,0.052,2.082,
39129100,-0.852,-0.053,0.596,-0.245,-1.015,2.432,
39129110,-0.812,-0.006,0.626,2.73,-1.015,2.292,
39129120,-0.746,0.009,0.61,3.867,-0.28,3.692,
39129130,-0.752,0.018,0.602,4.742,-3.832,4.97,
39129140,-0.775,0.008,0.61,3.15,-3.447,2.537,
39129150,-0.801,0.004,0.606,0.455,-1.977,-1.732,
39129160,-0.812,0.001,0.585,-1.575,-1.067,-3.22,
39129170,-0.837,-0.006,0.556,-2.415,-0.49,-1.242,
39129170,-0.839,-0.006,0.575,-3.045,0.035,1.26,
39129190,-0.803,-0.006,0.611,-3.115,0.07,1.767,
39129190,-0.764,-0.001,0.625,-1.68,0.367,0.945,
39129210,-0.752,0.003,0.596,-0.35,3.097,0.647,
39129210,-0.779,0.001,0.546,0.087,5.81,0.787,
39129230,-0.792,0.032,0.589,-0.14,4.287,0.56,
39129230,-0.741,0.043,0.685,-1.96,4.462,-0.122,
39129250,-0.792,0.017,0.696,-3.71,2.152,-0.665,
39129250,-0.885,-0.025,0.673,-3.867,-1.137,-1.872,
39129260,-0.887,-0.04,0.646,-3.29,-3.92,-3.325,
39129270,-0.803,-0.03,0.643,-2.695,-6.982,-1.522,
39129280,-0.754,-0.023,0.624,-1.365,-8.872,2.485,
39129290,-0.751,-0.009,0.627,1.4,-8.487,3.955,
39129300,-0.75,0.003,0.648,2.59,-5.442,2.03,
39129310,-0.768,0.005,0.66,1.89,-3.587,-0.21,
39129320,-0.804,0.009,0.674,0.35,-3.762,-0.14,
39129330,-0.831,0.01,0.667,-1.4,-4.935,1.26,
39129340,-0.823,0.008,0.653,-1.855,-6.58,1.977,
39129350,-0.793,0.007,0.648,-1.155,-6.65,1.925,
39129360,-0.75,0.006,0.654,-0.035,-3.36,1.855,
39129370,-0.789,-0.019,0.59,0.945,1.767,3.08,
39129380,-0.829,-0.001,0.613,2.38,2.467,4.34,
39129390,-0.751,0.015,0.637,1.82,3.657,4.165,
39129400,-0.732,0.017,0.587,1.102,0.805,4.27,
39129410,-0.763,0.018,0.601,0.997,-0.087,2.992,
39129420,-0.776,0.02,0.613,-0.595,4.585,0.245,
39129430,-0.803,0.006,0.585,-1.61,6.247,-1.365,
39129440,-0.848,-0.007,0.558,-0.98,3.902,-0.997,
39129450,-0.862,-0.015,0.565,-1.172,2.24,-0.192,
39129460,-0.838,-0.019,0.575,-2.205,-0.997,0.262,
39129470,-0.804,-0.018,0.563,-2.24,-5.04,0.805,
39129480,-0.768,-0.018,0.553,-1.592,-5.792,0.822,
39129490,-0.743,-0.018,0.531,-1.907,-2.52,0.7,
39129500,-0.751,0.004,0.575,-2.625,0.875,1.085,
39129510,-0.75,0.027,0.704,-4.427,5.477,1.19,
39129510,-0.825,0.015,0.746,-6.72,7.787,0.245,
39129530,-0.93,-0.016,0.684,-6.037,4.217,-0.717,
39129530,-0.93,-0.025,0.634,-3.027,-1.82,-1.102,
39129550,-0.818,-0.001,0.617,-0.402,-7.192,0.682,
39129550,-0.726,0.014,0.633,0.98,-9.747,3.85,
39129570,-0.718,0.015,0.653,2.1,-8.19,4.34,
39129570,-0.747,0.014,0.661,2.362,-3.29,1.032,
39129580,-0.782,0.014,0.663,1.067,-0.297,-1.802,
39129590,-0.815,0.015,0.659,-1.085,-1.19,-1.715,
39129600,-0.826,0.018,0.648,-2.082,-3.412,0.315,
39129610,-0.808,0.017,0.64,-0.997,-4.865,1.942,
39129620,-0.78,0,0.614,1.225,-2.835,1.645,
39129630,-0.817,-0.035,0.543,3.22,1.207,1.487,
39129640,-0.837,-0.016,0.565,4.392,2.327,2.135,
39129650,-0.777,0.002,0.596,2.747,2.747,3.377,
39129660,-0.755,0.001,0.577,0.822,-0.805,4.147,
39129670,-0.755,0,0.587,-0.28,-1.452,2.52,
39129680,-0.745,-0.013,0.593,-2.1,3.255,-0.56,
39129690,-0.768,-0.023,0.599,-3.342,6.965,-1.295,
39129700,-0.807,-0.021,0.602,-3.08,9.852,0.805,
39129710,-0.828,-0.011,0.579,-1.82,10.727,3.045,
39129720,-0.813,-0.005,0.55,-0.192,8.452,4.532,
39129730,-0.798,-0.003,0.539,1.067,5.862,4.62,
39129740,-0.782,0.025,0.607,0.63,4.165,2.975,
39129750,-0.763,0.043,0.7,-2.94,7.612,0.7,
39129760,-0.856,0.029,0.693,-5.95,10.395,-0.787,
39129770,-0.974,0.006,0.632,-5.25,8.05,-1.295,
39129780,-0.979,-0.004,0.616,-2.712,1.907,-1.837,
39129790,-0.881,-0.008,0.608,-0.787,-7.14,-1.19,
39129800,-0.791,-0.016,0.607,1.662,-16.17,1.067,
39129810,-0.753,-0.019,0.612,3.867,-19.39,0.927,
39129820,-0.749,-0.02,0.633,3.605,-16.555,-1.872,
39129830,-0.747,-0.009,0.65,1.452,-13.965,-3.832,
39129840,-0.759,0.007,0.646,-0.315,-13.527,-2.782,
39129850,-0.76,0.019,0.584,-0.7,-9.362,0,
39129860,-0.846,0.023,0.529,-0.035,-4.392,2.047,
39129870,-0.872,0.037,0.622,1.207,-3.08,1.382,
39129880,-0.803,0.051,0.619,1.365,-2.537,0.437,
39129890,-0.773,0.045,0.595,1.907,-7.297,1.277,
39129900,-0.772,0.014,0.615,0.455,-6.772,0.822,
39129910,-0.763,-0.012,0.586,-2.59,-1.627,-2.012,
39129920,-0.763,-0.016,0.547,-2.712,0.857,-2.782,
39129920,-0.779,-0.024,0.552,-1.697,6.86,0.07,
39129940,-0.78,-0.029,0.557,-1.802,13.09,2.94,
39129940,-0.758,-0.02,0.571,-2.03,13.23,3.885,
39129960,-0.708,-0.015,0.578,-1.837,13.877,3.745,
39129960,-0.691,-0.023,0.592,-2.292,21.315,3.132,
39129980,-0.715,-0.006,0.656,-3.92,29.75,1.137,
39129980,-0.712,0.013,0.697,-5.11,38.797,-1.207,
39130000,-0.746,-0.011,0.642,-2.572,48.492,-1.627,
39130000,-0.85,-0.05,0.633,1.277,60.095,-0.472,
39130010,-0.943,-0.013,0.597,5.04,59.167,-0.21,
39130020,-0.989,0.039,0.526,7.14,45.202,1.085,
39130030,-1.027,0.056,0.501,7.507,28.735,3.167,
39130040,-1.028,0.043,0.509,5.81,15.505,3.797,
39130050,-0.989,0.021,0.516,2.94,3.972,2.66,
39130060,-0.942,0.016,0.527,0.91,-7.927,1.435,
39130070,-0.902,0.008,0.548,-1.137,-17.745,0.385,
39130080,-0.879,-0.002,0.556,-3.272,-25.06,-1.207,
39130090,-0.866,-0.01,0.551,-3.815,-30.047,-2.03,
39130100,-0.843,-0.009,0.55,-1.767,-31.762,-1.627,
39130110,-0.825,-0.007,0.546,0.595,-31.185,0,
39130120,-0.814,-0.002,0.539,1.977,-30.152,1.54,
39130130,-0.81,0.002,0.548,2.152,-29.015,1.942,
39130140,-0.813,0.005,0.557,0.997,-29.067,1.242,
39130150,-0.819,0.007,0.572,-0.875,-29.522,-0.07,
39130160,-0.815,0.01,0.591,-2.712,-29.872,-1.19,
39130170,-0.764,-0.005,0.614,-4.795,-26.582,-0.997,
39130180,-0.707,-0.048,0.654,-6.44,-16.362,-0.315,
39130190,-0.705,-0.024,0.614,-4.952,-11.48,-0.402,
39130200,-0.758,0,0.597,-2.555,-8.977,0.385,
39130210,-0.828,0.013,0.618,-0.682,-3.815,0.262,
39130220,-0.866,0.017,0.607,0.612,-3.57,0.105,
39130230,-0.875,0.014,0.58,2.38,-9.187,0.63,
39130240,-0.857,0.026,0.574,2.677,-14.945,1.277,
39130250,-0.815,0.032,0.599,-0.332,-18.672,0.735,
39130260,-0.79,0.023,0.622,-3.955,-20.982,-0.7,
39130260,-0.798,0.007,0.62,-5.232,-22.4,-2.327,
39130280,-0.803,-0.002,0.614,-5.145,-21.787,-3.517,
39130280,-0.79,-0.007,0.622,-4.532,-19.67,-3.307,
39130300,-0.786,-0.005,0.644,-3.5,-17.255,-1.89,
39130300,-0.798,-0.009,0.628,-2.205,-14.07,-0.332,
39130320,-0.849,-0.02,0.63,-0.735,-12.722,0.42,
39130320,-0.846,-0.014,0.656,0.332,-13.562,0.21,
39130330,-0.804,-0.007,0.612,0.577,-15.575,1.067,
39130340,-0.779,-0.005,0.573,0.717,-18.147,2.695,
39130350,-0.77,-0.007,0.559,-0.297,-16.187,3.062,
39130360,-0.78,-0.005,0.575,-2.31,-13.562,2.205,
39130370,-0.783,0.002,0.607,-3.867,-12.582,1.68,
39130380,-0.768,0.005,0.611,-5.11,-12.582,1.75,
39130390,-0.749,0.006,0.607,-5.915,-12.477,2.275,
39130400,-0.732,0.011,0.619,-6.09,-10.097,2.345,
39130410,-0.724,0.013,0.629,-5.25,-5.337,1.645,
39130420,-0.742,0.014,0.642,-3.57,-0.35,0.682,
39130430,-0.777,0.016,0.643,-1.96,3.22,-0.28,
39130440,-0.808,0.012,0.62,-0.7,4.392,-0.455,
39130450,-0.83,0.005,0.602,0.14,4.287,0.227,
39130460,-0.837,-0.002,0.587,0.105,3.552,0.63,
39130470,-0.826,-0.014,0.581,-0.385,2.257,0.455,
39130480,-0.801,-0.022,0.582,-1.067,1.522,0.437,
39130490,-0.792,-0.03,0.586,-1.82,0.7,0.542,
39130500,-0.756,-0.002,0.668,-2.905,-0.682,-0.087,
39130510,-0.701,0.003,0.705,-4.532,3.167,0,
39130520,-0.797,-0.016,0.673,-4.357,3.43,0.542,
39130530,-0.873,-0.025,0.651,-1.995,4.865,0.507,
39130540,-0.874,-0.011,0.618,0.56,4.917,0.665,
39130550,-0.83,0.002,0.611,2.642,0.805,2.642,
39130560,-0.801,0.007,0.604,3.552,-2.205,4.427,
39130570,-0.791,0.005,0.61,3.272,-1.767,3.745,
39130580,-0.776,-0.005,0.615,2.047,-1.12,1.347,
39130590,-0.77,-0.007,0.631,0.752,-1.995,-0.437,
39130600,-0.774,-0.001,0.641,-0.542,-3.43,-0.42,
39130610,-0.79,0.003,0.648,-0.98,-5.425,0.63,
39130620,-0.797,0.012,0.665,0.105,-7.297,0.98,
39130630,-0.794,0.014,0.686,1.365,-9.345,0.857,
39130640,-0.78,0.009,0.724,1.365,-10.045,0.665,
39130650,-0.809,-0.035,0.641,0.577,-6.842,1.225,
39130660,-0.887,-0.017,0.549,1.697,-8.96,2.625,
39130670,-0.795,0.028,0.587,2.012,-7.315,3.552,
39130670,-0.705,0.046,0.569,0.84,-7.472,3.727,
39130690,-0.698,0.056,0.589,0.63,-9.45,2.905,
39130690,-0.734,0.038,0.621,-1.19,-2.747,-0.822,
39130710,-0.784,0.005,0.62,-3.185,3.395,-4.935,
39130710,-0.825,-0.022,0.619,-3.92,5.39,-5.792,
39130730,-0.851,-0.029,0.601,-3.08,5.04,-3.937,
39130730,-0.865,-0.018,0.601,-1.785,2.24,-1.365,
39130750,-0.867,-0.006,0.582,-0.175,-2.922,0.122,
39130750,-0.845,-0.01,0.553,2.1,-7.507,0.07,
39130760,-0.808,-0.015,0.545,3.115,-10.412,-0.647,
39130770,-0.757,0.001,0.621,1.102,-14.367,-1.872,
39130780,-0.653,0.01,0.668,-2.782,-12.792,-2.992,
39130790,-0.717,-0.024,0.624,-5.53,-9.117,-2.52,
39130800,-0.822,-0.045,0.624,-4.812,-4.392,-2.712,
39130810,-0.857,-0.035,0.635,-3.447,0.472,-2.782,
39130820,-0.844,-0.017,0.631,-0.875,-1.225,0.122,
39130830,-0.838,-0.007,0.625,2.52,-5.092,3.08,
39130840,-0.838,0,0.629,4.095,-6.387,3.045,
39130850,-0.801,0.008,0.625,3.535,-7.665,1.05,
39130860,-0.753,0.008,0.623,2.292,-8.365,-0.245,
39130870,-0.745,0.008,0.625,0.367,-7.122,-0.157,
39130880,-0.768,0.002,0.63,-2.292,-4.76,-0.07,
39130890,-0.785,-0.005,0.635,-3.167,-3.692,0,
39130900,-0.781,-0.006,0.647,-2.012,-3.587,0.332,
39130910,-0.778,0.001,0.651,-0.7,-4.392,0.892,
39130920,-0.791,0.007,0.655,-0.087,-4.672,1.242,
39130930,-0.8,0.01,0.657,0.245,-4.742,1.277,
39130940,-0.799,0.018,0.657,0.7,-6.177,0.735,
39130950,-0.792,0.022,0.671,0.28,-7.647,0.105,
39130960,-0.792,0.02,0.684,-1.242,-8.155,-0.28,
39130970,-0.782,0.021,0.656,-1.89,-8.662,-0.245,
39130980,-0.764,0.013,0.631,-1.242,-8.82,0.472,
39130990,-0.743,0.01,0.632,-0.805,-5.232,0.682,
39131000,-0.769,-0.012,0.573,-1.085,1.785,1.225,
39131010,-0.868,-0.02,0.581,-0.402,2.887,2.222,
39131010,-0.812,-0.001,0.66,-0.525,1.137,1.785,
39131030,-0.722,-0.012,0.628,-2.362,-3.027,2.135,
39131030,-0.721,-0.027,0.608,-2.222,-7.595,2.31,
39131050,-0.74,-0.036,0.61,-2.765,-2.8,0.717,
39131050,-0.746,-0.036,0.599,-3.027,2.66,-0.595,
39131070,-0.779,-0.026,0.585,-1.645,4.427,0.665,
39131070,-0.835,-0.012,0.598,-0.735,4.672,2.642,
39131080,-0.844,0.001,0.619,-1.242,2.905,2.677,
39131090,-0.812,0.011,0.612,-1.575,-0.262,2.047,
39131100,-0.771,0.016,0.6,-0.752,-1.207,1.54,
39131110,-0.752,0.009,0.605,-1.172,2.38,0.717,
39131120,-0.769,0,0.625,-2.362,5.862,-0.105,
39131130,-0.795,0.022,0.701,-2.695,5.197,-0.77,
39131140,-0.783,0.042,0.74,-2.52,4.672,-0.997,
39131150,-0.831,0.017,0.691,-1.907,3.01,-0.892,
39131160,-0.866,-0.011,0.653,-0.087,1.102,-1.295,
39131170,-0.838,-0.017,0.621,1.837,-0.997,-1.54,
39131180,-0.792,-0.014,0.619,3.15,-4.865,0.402,
39131190,-0.756,-0.011,0.637,3.675,-7.595,2.292,
39131200,-0.72,-0.005,0.657,3.01,-7.875,1.697,
39131210,-0.711,-0.007,0.669,1.33,-6.51,0.105,
39131220,-0.748,-0.014,0.658,-0.035,-3.605,-1.137,
39131230,-0.801,-0.018,0.647,-0.122,-0.962,-1.277,
39131240,-0.828,-0.009,0.637,1.032,-1.645,-0.542,
39131250,-0.819,0.002,0.614,3.01,-4.602,0.647,
39131260,-0.796,0.001,0.604,4.27,-5.127,1.61,
39131270,-0.833,-0.014,0.57,4.305,-4.025,1.785,
39131280,-0.848,-0.004,0.591,3.307,-4.392,1.47,
39131290,-0.792,0.012,0.617,0.98,-5.162,1.102,
39131300,-0.762,0.019,0.619,-1.172,-8.96,1.347,
39131310,-0.748,0.015,0.626,-2.852,-8.837,0.63,
39131320,-0.748,0.006,0.619,-3.482,-5.652,-1.015,
39131330,-0.751,0.002,0.6,-2.782,-1.54,-1.417,
39131340,-0.792,0.001,0.565,-1.732,2.905,0.21,
39131350,-0.847,-0.003,0.564,-1.19,4.567,1.627,
39131360,-0.87,-0.013,0.596,-1.907,3.71,1.47,
39131370,-0.85,-0.017,0.62,-3.167,1.382,0.7,
39131380,-0.811,-0.003,0.628,-4.13,-1.032,0.315,
39131390,-0.753,0.009,0.646,-5.075,-0.647,0.21,
39131400,-0.74,-0.002,0.635,-5.39,1.085,0.175,
39131410,-0.781,-0.008,0.66,-3.727,1.26,0.14,
39131420,-0.799,-0.013,0.674,-1.837,1.435,-0.367,
39131420,-0.813,-0.02,0.646,-0.227,0.017,0,
39131440,-0.814,-0.014,0.635,1.12,-1.207,1.242,
39131440,-0.804,-0.002,0.623,1.645,-2.17,2.292,
39131460,-0.791,0,0.613,1.697,-3.587,2.45,
39131460,-0.78,0,0.629,1.82,-4.9,1.505,
39131480,-0.775,0.008,0.656,1.277,-6.545,0.035,
39131480,-0.786,0.014,0.67,0.175,-7.647,-0.822,
39131500,-0.8,0.018,0.672,-0.28,-8.33,-0.892,
39131500,-0.797,0.014,0.677,-0.157,-8.575,-0.857,
39131510,-0.788,-0.004,0.638,0.332,-7.017,-0.542,
39131520,-0.813,-0.023,0.57,1.715,-7.157,0.542,
39131530,-0.757,-0.002,0.611,3.097,-6.982,1.347,
39131540,-0.69,0.003,0.588,2.187,-6.405,1.732,
39131550,-0.703,0,0.589,0.997,-5.985,1.837,
39131560,-0.728,0.008,0.619,-1.172,1.225,0.385,
39131570,-0.772,0.01,0.612,-3.815,6.702,-0.77,
39131580,-0.827,0.004,0.63,-4.812,8.942,-0.63,
39131590,-0.873,0.002,0.649,-4.637,11.252,-0.245,
39131600,-0.887,0.005,0.625,-3.097,9.8,-0.332,
39131610,-0.87,0.002,0.589,-0.472,6.265,0.227,
39131620,-0.83,-0.002,0.58,1.68,5.145,1.032,
39131630,-0.792,0.004,0.609,2.135,4.41,1.172,
39131640,-0.724,0.01,0.654,1.207,4.655,0.455,
39131650,-0.721,-0.017,0.626,-0.367,7.122,-0.07,
39131660,-0.747,-0.041,0.625,-1.172,11.445,-0.315,
39131670,-0.724,-0.043,0.627,-1.96,19.11,-0.262,
39131680,-0.712,-0.034,0.628,-1.452,25.795,1.995,
39131690,-0.746,-0.024,0.656,0.612,30.38,3.797,
39131700,-0.789,-0.015,0.66,2.94,35.07,3.57,
39131710,-0.803,-0.013,0.627,4.55,39.865,2.695,
39131720,-0.788,-0.019,0.636,6.265,47.04,2.677,
39131730,-0.771,-0.001,0.635,8.61,52.692,2.905,
39131740,-0.777,0.015,0.586,10.08,54.845,3.902,
39131750,-0.816,0.015,0.534,10.622,55.492,4.742,
39131760,-0.869,0.015,0.512,11.182,54.425,4.9,
39131760,-0.918,0.019,0.509,11.042,51.082,4.9,
39131780,-0.962,0.028,0.502,9.765,43.907,4.9,
39131780,-0.993,0.036,0.479,7.315,34.51,5.302,
39131800,-1.006,0.039,0.453,4.62,22.277,5.565,
39131800,-1.009,0.04,0.448,2.082,6.772,4.882,
39131820,-0.995,0.032,0.477,-0.595,-8.82,3.027,
39131820,-0.977,0.017,0.495,-3.115,-22.662,0.402,
39131830,-0.959,0.015,0.508,-4.602,-35.962,-1.68,
39131840,-0.907,0.018,0.536,-6.107,-45.587,-2.345,
39131850,-0.824,0.009,0.567,-7.665,-47.792,-1.75,
39131860,-0.754,-0.002,0.591,-8.225,-43.382,-0.717,
39131870,-0.716,-0.009,0.601,-7.157,-35.525,-0.315,
39131880,-0.706,-0.007,0.594,-5.005,-26.827,-0.332,
39131890,-0.711,-0.001,0.591,-2.835,-17.972,-0.297,
39131900,-0.725,0.003,0.606,-1.767,-9.8,0.105,
39131910,-0.767,0.003,0.625,-1.557,-1.89,0.752,
39131920,-0.848,0.01,0.633,-1.925,1.925,0.91,
39131930,-0.95,0.023,0.584,-2.327,-1.505,-0.175,
39131940,-0.999,0.038,0.553,-2.24,-10.517,-1.47,
39131950,-1.003,0.039,0.54,-2.292,-23.152,-2.275,
39131960,-0.972,0.027,0.53,-2.607,-35.945,-2.852,
39131970,-0.914,0.013,0.535,-4.165,-45.482,-2.485,
39131980,-0.829,0,0.558,-4.952,-50.207,-1.837,
39131990,-0.747,-0.009,0.563,-5.425,-49.455,-0.822,
39132000,-0.632,-0.023,0.619,-5.845,-39.585,-0.035,
39132010,-0.574,-0.034,0.669,-5.775,-22.925,-0.962,
39132020,-0.629,-0.015,0.607,-3.745,-12.792,-1.995,
39132030,-0.753,-0.009,0.596,-1.505,-2.765,-1.4,
39132040,-0.869,0.003,0.611,-0.122,4.69,-0.227,
39132050,-0.915,0.01,0.61,0.192,2.887,1.662,
39132060,-0.897,0.017,0.611,0.857,-3.92,3.43,
39132070,-0.841,0.028,0.591,0.245,-8.067,3.832,
39132080,-0.803,0.026,0.587,-1.4,-10.552,1.855,
39132090,-0.777,0.009,0.604,-3.22,-10.552,-0.28,
39132100,-0.753,-0.002,0.619,-3.85,-8.96,-1.12,
39132110,-0.761,-0.004,0.635,-3.657,-7.192,-0.77,
39132120,-0.787,0,0.629,-3.097,-6.195,0.087,
39132130,-0.814,0.005,0.625,-1.942,-6.352,0.385,
39132140,-0.826,0.01,0.644,-0.962,-6.685,0.122,
39132150,-0.826,0.012,0.661,-1.137,-6.737,-0.227,
39132160,-0.829,0.015,0.645,-1.102,-8.12,-0.157,
39132170,-0.816,0.009,0.611,-0.787,-9.502,0.472,
39132170,-0.79,-0.015,0.58,-0.7,-9.362,0.805,
39132190,-0.788,-0.042,0.543,-0.91,-6.352,1.347,
39132190,-0.835,-0.033,0.54,-0.752,-5.057,2.117,
39132210,-0.822,0.005,0.58,-0.892,-5.005,2.555,
39132210,-0.802,0.022,0.58,-2.205,-6.667,2.87,
39132220,-0.798,0.025,0.609,-2.975,-9.59,2.17,
39132230,-0.763,0.015,0.642,-3.972,-7.367,-0.07,
39132240,-0.761,-0.001,0.637,-4.305,-4.095,-1.872,
39132250,-0.804,-0.011,0.622,-3.587,-1.925,-2.222,
39132260,-0.836,-0.013,0.609,-2.73,0.7,-1.347,
39132270,-0.838,-0.009,0.604,-1.767,2.1,0.542,
39132280,-0.828,-0.006,0.58,-0.577,1.12,2.625,
39132290,-0.816,0.018,0.573,0.21,-1.54,3.272,
39132300,-0.765,0.029,0.621,-0.822,-0.367,2.52,
39132310,-0.771,0.007,0.636,-2.835,1.54,1.295,
39132320,-0.811,-0.006,0.631,-3.167,1.417,0.28,
39132330,-0.819,-0.008,0.622,-2.957,1.487,-0.21,
39132340,-0.794,0.005,0.615,-2.537,0.227,0.49,
39132350,-0.778,0.007,0.615,-1.96,-0.28,1.977,
39132360,-0.79,0.002,0.617,-0.717,1.277,2.817,
39132370,-0.801,0,0.63,0.595,3.08,1.977,
39132380,-0.799,0.007,0.637,1.015,1.925,0.857,
39132390,-0.803,0.009,0.637,0.42,-0.647,0.647,
39132400,-0.807,0.008,0.632,-0.192,-2.905,0.875,
39132410,-0.812,0.006,0.624,-0.367,-5.162,0.822,
39132420,-0.812,-0.001,0.617,-0.332,-7.945,0.017,
39132430,-0.801,-0.011,0.625,-0.28,-9.24,-0.787,
39132440,-0.787,-0.012,0.64,-0.402,-8.837,-0.577,
39132450,-0.78,-0.01,0.644,-0.717,-7.105,0.455,
39132460,-0.792,-0.018,0.59,-0.577,-4.13,1.68,
39132470,-0.838,-0.022,0.537,0.525,-2.957,2.52,
39132480,-0.829,-0.003,0.569,1.557,-2.257,2.677,
39132490,-0.791,0.001,0.568,0.875,-3.15,2.765,
39132500,-0.793,0,0.574,0.245,-7.577,2.747,
39132510,-0.789,0,0.603,-1.172,-8.435,1.067,
39132510,-0.776,0,0.632,-3.517,-6.352,-1.12,
39132530,-0.796,0.002,0.645,-5.075,-3.08,-1.82,
39132530,-0.845,0.009,0.625,-4.935,1.295,-0.647,
39132550,-0.884,0.018,0.613,-2.957,3.08,0.7,
39132550,-0.878,0.021,0.6,-0.647,0.98,1.19,
39132570,-0.829,0.019,0.569,1.47,-2.397,1.26,
39132570,-0.778,0.007,0.548,2.537,-2.45,1.68,
39132580,-0.759,-0.004,0.554,1.225,2.362,1.82,
39132590,-0.79,0,0.602,-1.855,7.035,1.592,
39132600,-0.793,0.009,0.651,-4.62,7.542,1.102,
39132610,-0.811,-0.008,0.646,-5.495,2.205,0.682,
39132620,-0.82,-0.021,0.632,-3.815,-3.92,0.105,
39132630,-0.801,-0.022,0.632,-1.872,-4.515,-0.612,
39132640,-0.785,-0.01,0.633,-0.157,-4.13,0.087,
39132650,-0.792,0,0.633,1.277,-4.112,1.575,
39132660,-0.799,0.012,0.624,2.135,-4.13,2.012,
39132670,-0.8,0.019,0.64,1.575,-4.917,1.137,
39132680,-0.793,0.015,0.653,-0.28,-5.915,-0.472,
39132690,-0.79,0.012,0.647,-1.522,-6.912,-0.962,
39132700,-0.795,0.011,0.632,-1.802,-7.07,-0.262,
39132710,-0.78,0.014,0.62,-1.085,-6.79,0.07,
39132720,-0.758,0.004,0.632,-0.14,-5.04,0.21,
39132730,-0.81,-0.032,0.563,0.787,-3.36,0.42,
39132740,-0.859,-0.022,0.521,2.467,-5.6,0.35,
39132750,-0.824,-0.009,0.56,2.1,-7.56,-0.297,
39132760,-0.807,-0.014,0.581,-0.122,-11.497,-0.665,
39132770,-0.807,-0.018,0.607,-1.89,-14.945,-1.33,
39132780,-0.804,-0.017,0.619,-2.852,-14.682,-2.905,
39132790,-0.811,-0.014,0.628,-3.377,-12.127,-3.762,
39132800,-0.837,-0.011,0.624,-3.08,-8.575,-2.397,
39132810,-0.848,0.001,0.613,-1.067,-5.425,-0.28,
39132820,-0.82,0.015,0.606,1.225,-4.147,1.207,
39132830,-0.777,0.018,0.598,2.222,-3.272,2.1,
39132840,-0.755,0.007,0.589,1.767,0.122,2.275,
39132850,-0.763,0.012,0.587,0.77,3.57,1.68,
39132860,-0.763,0.017,0.605,-1.05,5.915,1.12,
39132870,-0.792,0.005,0.602,-2.94,6.755,0.822,
39132880,-0.813,0.007,0.619,-3.605,5.967,0.647,
39132890,-0.819,0.005,0.646,-4.112,6.422,0.315,
39132890,-0.832,0.009,0.649,-3.57,4.112,0.49,
39132910,-0.833,0.005,0.653,-2.362,1.277,1.05,
39132910,-0.808,-0.002,0.648,-0.875,-1.137,1.225,
39132920,-0.77,-0.008,0.641,0.087,-3.08,1.365,
39132930,-0.743,-0.013,0.615,0.507,-3.57,1.872,
39132940,-0.751,-0.017,0.593,0.997,-4.235,2.432,
39132950,-0.768,-0.012,0.585,0.927,-5.442,2.555,
39132960,-0.773,-0.012,0.601,-0.402,-7.035,2.642,
39132970,-0.775,-0.014,0.664,-2.642,-8.207,2.292,
39132980,-0.784,0,0.684,-4.532,-7.735,1.855,
39132990,-0.792,0.001,0.668,-4.917,-5.722,1.662,
39133000,-0.843,-0.01,0.618,-3.64,-3.552,1.627,
39133010,-0.862,0.002,0.585,-1.085,-2.012,2.187,
39133020,-0.851,0.009,0.574,1.155,-0.77,3.727,
39133030,-0.827,0.021,0.592,2.852,-2.537,4.847,
39133040,-0.805,0.022,0.595,2.03,-3.972,3.972,
39133050,-0.813,0.013,0.587,-0.035,-5.127,1.715,
39133060,-0.798,0.003,0.613,-2.345,-5.18,-0.735,
39133070,-0.77,-0.008,0.593,-4.322,-4.252,-1.855,
39133080,-0.782,-0.021,0.573,-4.077,-3.64,-1.172,
39133090,-0.803,-0.021,0.594,-2.782,-0.192,-0.315,
39133100,-0.818,-0.014,0.609,-1.47,3.062,0.455,
39133110,-0.82,-0.006,0.615,0.227,3.972,1.522,
39133120,-0.806,0.002,0.587,1.54,4.935,2.432,
39133130,-0.786,0.015,0.552,2.012,7.612,2.607,
39133140,-0.749,0.024,0.588,1.277,12.985,2.327,
39133150,-0.736,0.015,0.642,-0.647,19.6,1.767,
39133160,-0.762,0.007,0.65,-1.942,24.482,1.522,
39133170,-0.785,0.003,0.661,-2.24,27.72,1.54,
39133180,-0.781,-0.002,0.656,-1.627,29.207,2.117,
39133190,-0.756,-0.013,0.636,-0.455,31.832,3.552,
39133200,-0.736,-0.037,0.624,1.435,39.672,4.952,
39133210,-0.772,-0.035,0.604,4.13,44.485,5.022,
39133220,-0.847,-0.012,0.58,6.44,42.98,4.27,
39133230,-0.935,0.013,0.553,7.612,36.785,3.64,
39133240,-0.998,0.026,0.541,6.895,27.16,3.727,
39133250,-1.006,0.028,0.53,4.882,15.662,4.235,
39133260,-0.967,0.027,0.525,2.852,3.71,4.112,
39133260,-0.912,0.027,0.525,1.05,-6.755,3.01,
39133280,-0.854,0.025,0.532,-0.35,-12.862,1.12,
39133280,-0.814,0.013,0.554,-1.295,-15.085,-0.385,
39133300,-0.813,0.001,0.584,-1.33,-15.435,-1.067,
39133300,-0.818,-0.002,0.592,-0.822,-14.14,-1.015,
39133320,-0.806,0,0.575,0.455,-12.232,-0.56,
39133320,-0.802,0.005,0.557,2.065,-10.92,0.42,
39133330,-0.804,0.015,0.555,2.852,-8.487,1.207,
39133340,-0.806,0.022,0.554,2.537,-4.655,1.697,
39133350,-0.83,0.027,0.558,1.627,-3.097,1.54,
39133360,-0.858,0.03,0.552,0.052,-4.007,0.682,
39133370,-0.872,0.024,0.544,-1.61,-6.825,-0.262,
39133380,-0.869,0.015,0.556,-2.8,-10.045,-0.787,
39133390,-0.853,0.006,0.567,-3.5,-12.232,-1.05,
39133400,-0.843,0.002,0.558,-3.185,-13.65,-0.945,
39133410,-0.838,0.004,0.556,-2.047,-14.63,-0.437,
39133420,-0.816,0.008,0.579,-1.505,-13.982,-0.315,
39133430,-0.807,0.003,0.591,-1.837,-11.97,-0.297,
39133440,-0.819,0.002,0.583,-1.75,-10.71,-0.157,
39133450,-0.821,0.005,0.579,-1.312,-9.957,0,
39133460,-0.812,0.007,0.576,-1.522,-8.942,0.262,
39133470,-0.807,0.003,0.578,-2.012,-7.84,0.682,
39133480,-0.813,0.002,0.577,-2.012,-6.597,1.137,
39133490,-0.824,0.008,0.581,-1.732,-5.215,1.4,
39133500,-0.829,0.011,0.584,-1.645,-4.392,1.295,
39133510,-0.82,0.01,0.585,-1.732,-3.605,1.33,
39133520,-0.805,0.009,0.594,-1.487,-2.66,1.417,
39133530,-0.802,0.009,0.597,-1.085,-1.767,1.435,
39133540,-0.814,0.011,0.602,-0.752,-0.63,1.4,
39133550,-0.837,0.01,0.607,-0.455,0.542,1.172,
39133560,-0.854,0.012,0.594,0,0.42,1.102,
39133570,-0.857,0.012,0.58,0.507,-0.315,1.435,
39133580,-0.851,0.012,0.564,0.77,-1.207,1.68,
39133580,-0.834,0.005,0.564,0.682,-1.225,1.697,
39133600,-0.818,0.002,0.557,0.612,-0.192,1.802,
39133600,-0.807,0.004,0.553,0.63,0.315,2.222,
39133620,-0.799,0.011,0.556,0.892,-1.155,2.31,
39133620,-0.795,0.016,0.572,0.787,-2.8,1.627,
39133640,-0.797,0.01,0.564,0.315,-3.272,0.647,
39133640,-0.815,0.001,0.56,0.245,-3.675,0.157,
39133660,-0.84,0.002,0.574,-0.122,-3.657,0.035,
39133660,-0.856,0.005,0.583,-1.155,-2.467,0.437,
39133670,-0.866,0.007,0.579,-1.505,-2.397,1.155,
39133680,-0.862,0.012,0.58,-0.7,-4.69,1.47,
39133690,-0.839,0.016,0.585,0.017,-7.332,1.067,
39133700,-0.824,0.006,0.576,0.42,-9.187,0.612,
39133710,-0.823,0.005,0.577,0.962,-11.147,0.437,
39133720,-0.808,0.011,0.585,0.647,-11.567,0.437,
39133730,-0.798,0.012,0.582,-0.35,-11.375,0.507,
39133740,-0.804,0.007,0.577,-0.875,-11.287,0.437,
39133750,-0.81,0.007,0.578,-0.997,-9.555,0.087,
39133760,-0.822,0.007,0.57,-1.12,-7.822,-0.087,
39133770,-0.841,0.006,0.562,-0.752,-7.472,0.367,
39133780,-0.844,0.012,0.557,-0.455,-8.172,0.752,
39133790,-0.837,0.019,0.556,-0.752,-10.43,0.7,
39133800,-0.819,0.022,0.571,-1.82,-12.04,0.332,
39133810,-0.832,0.013,0.581,-3.412,-11.287,-0.49,
39133820,-0.839,0.006,0.606,-4.515,-9.747,-1.487,
39133830,-0.836,0.005,0.608,-5.197,-7.455,-1.767,
39133840,-0.821,0.009,0.599,-4.742,-6.23,-0.875,
39133850,-0.808,0.011,0.584,-3.552,-3.745,0.647,
39133860,-0.81,0.013,0.561,-1.627,-1.557,1.575,
39133870,-0.807,0.016,0.562,0.28,0.332,1.715,
39133880,-0.792,0.024,0.584,0.612,1.207,1.225,
39133890,-0.78,0.027,0.609,-0.437,1.067,0.682,
39133900,-0.802,0.028,0.624,-1.96,-0.21,0.14,
39133910,-0.828,0.023,0.625,-3.115,-1.19,-0.507,
39133920,-0.835,0.015,0.612,-3.202,-2.712,-1.015,
39133930,-0.814,0.011,0.613,-2.275,-4.375,-0.84,
39133940,-0.791,0.007,0.615,-1.015,-3.325,-0.122,
39133950,-0.796,0.007,0.604,0.735,-1.277,0.787,
39133960,-0.81,0.006,0.603,2.467,-0.35,1.102,
39133970,-0.809,0.002,0.601,2.747,-0.262,0.822,
39133980,-0.803,-0.004,0.579,1.96,-0.595,0.997,
39133990,-0.808,-0.004,0.565,1.19,-1.505,1.452,
39134000,-0.819,-0.002,0.565,0.35,-2.135,1.26,
39134010,-0.823,0.002,0.571,-0.472,-3.237,0.577,
39134010,-0.827,0.004,0.59,-1.12,-4.655,0.175,
39134030,-0.835,0.006,0.609,-1.382,-6.527,-0.035,
39134030,-0.83,0.015,0.631,-1.575,-8.907,-0.28,
39134050,-0.815,0.012,0.627,-1.592,-11.427,-0.542,
39134050,-0.81,0.003,0.609,-0.875,-12.827,-0.665,
39134070,-0.807,-0.003,0.598,-0.49,-12.145,-0.525,
39134070,-0.788,-0.002,0.583,-0.402,-8.75,0.122,
39134080,-0.798,0.001,0.569,-0.262,-5.845,1.242,
39134090,-0.817,0.007,0.565,-0.315,-4.812,1.82,
39134100,-0.825,0.013,0.569,-1.19,-4.532,1.365,
39134110,-0.819,0.013,0.572,-2.31,-5.005,0.682,
39134120,-0.823,0.006,0.573,-3.027,-5.635,-0.052,
39134130,-0.833,0.003,0.572,-3.535,-5.425,-0.945,
39134140,-0.843,0.009,0.57,-3.85,-5.162,-1.452,
39134150,-0.835,0.016,0.574,-3.482,-6.09,-1.085,
39134160,-0.813,0.017,0.602,-3.097,-5.74,-0.227,
39134170,-0.784,0.021,0.623,-2.957,-3.517,0.017,
39134180,-0.773,0.016,0.623,-2.73,0.157,-0.262,
39134190,-0.794,0.014,0.597,-1.662,3.64,-0.42,
39134200,-0.823,0.014,0.577,-0.28,5.582,-0.14,
39134210,-0.837,0.02,0.596,0.262,6.142,0.49,
39134220,-0.84,0.021,0.619,0.14,5.197,1.05,
39134230,-0.849,0.017,0.611,0.367,1.732,0.892,
39134240,-0.846,0.005,0.607,0.42,-2.73,0.017,
39134250,-0.811,-0.002,0.614,-0.297,-4.97,-0.962,
39134260,-0.773,-0.008,0.613,-0.927,-5.617,-0.822,
39134270,-0.767,-0.014,0.605,-0.402,-5.425,0.017,
39134280,-0.782,-0.01,0.594,0.822,-5.81,0.297,
39134290,-0.791,-0.007,0.592,1.172,-6.317,-0.087,
39134300,-0.804,-0.008,0.616,0.63,-6.247,-0.297,
39134310,-0.825,-0.01,0.653,-0.472,-7.315,-0.14,
39134320,-0.834,-0.005,0.655,-1.4,-10.395,-0.087,
39134330,-0.819,0,0.636,-1.732,-13.615,-0.017,
39134330,-0.812,0.001,0.625,-1.872,-14.805,-0.21,
39134350,-0.8,0.014,0.582,-1.12,-15.61,-0.052,
39134350,-0.782,0.015,0.556,0.035,-14.577,1.277,
39134370,-0.803,0.005,0.523,0.577,-10.867,2.275,
39134370,-0.847,0.01,0.53,0.087,-8.557,1.82,
39134390,-0.851,0.022,0.6,-1.89,-8.19,0.455,
39134390,-0.809,0.022,0.621,-4.27,-12.215,-0.857,
39134410,-0.791,0.004,0.6,-5.565,-17.885,-1.627,
39134410,-0.796,-0.007,0.596,-5.687,-18.392,-2.695,
39134420,-0.797,-0.011,0.609,-5.11,-14.21,-3.657,
39134430,-0.8,-0.008,0.611,-3.5,-10.097,-2.905,
39134440,-0.804,-0.006,0.612,-1.505,-7.262,-1.032,
39134450,-0.798,-0.001,0.611,-0.262,-4.742,0.157,
39134460,-0.786,0,0.605,0.192,-2.362,0.682,
39134470,-0.789,0.003,0.593,0.577,-0.962,0.7,
39134480,-0.804,0.008,0.589,0.402,0.052,0.595,
39134490,-0.818,0.018,0.599,-0.77,1.085,0.507,
39134500,-0.808,0.028,0.629,-2.047,0.962,0.612,
39134510,-0.782,0.021,0.644,-2.817,1.172,0.647,
39134520,-0.781,0.009,0.629,-2.38,0.437,0.367,
39134530,-0.778,0.002,0.63,-1.365,1.172,-0.105,
39134540,-0.766,-0.003,0.631,-0.612,4.025,-0.192,
39134550,-0.763,-0.009,0.628,0.455,6.002,0.717,
39134560,-0.796,-0.011,0.628,1.47,6.09,1.627,
39134570,-0.841,-0.004,0.635,1.855,4.2,1.47,
39134580,-0.848,0.001,0.628,1.4,0.507,1.137,
39134590,-0.825,-0.001,0.619,1.137,-5.687,0.84,
39134600,-0.788,-0.007,0.609,0.63,-10.447,0.262,
39134610,-0.76,-0.012,0.628,-0.525,-10.92,-0.175,
39134620,-0.761,-0.012,0.66,-1.627,-10.377,-0.752,
39134630,-0.768,-0.017,0.648,-2.065,-9.31,-0.577,
39134640,-0.782,-0.017,0.624,-1.487,-7.385,0.717,
39134650,-0.793,-0.012,0.612,-0.542,-5.197,1.89,
39134660,-0.808,-0.003,0.597,0.315,-2.66,2.87,
39134670,-0.827,0.005,0.594,1.522,-1.33,3.29,
39134680,-0.838,0.014,0.593,2.17,-1.61,2.765,
39134690,-0.847,0.017,0.596,1.137,-2.502,1.907,
39134700,-0.851,0.017,0.545,-0.595,-3.657,1.575,
39134710,-0.881,0.002,0.587,-1.505,-8.662,1.505,
39134720,-0.824,0.001,0.63,-3.237,-10.535,0.157,
39134730,-0.766,-0.003,0.592,-4.532,-13.247,-0.315,
39134740,-0.752,-0.009,0.607,-3.5,-15.435,-0.052,
39134750,-0.73,-0.007,0.625,-3.57,-8.855,0.175,
39134760,-0.729,-0.002,0.638,-3.535,-0.98,0.77,
39134760,-0.772,0.013,0.641,-1.925,2.905,1.592,
39134780,-0.811,0.034,0.629,-0.612,6.702,2.187,
39134780,-0.821,0.043,0.608,0.105,8.592,2.012,
39134800,-0.815,0.037,0.592,0.7,7.857,1.697,
39134800,-0.806,0.026,0.587,1.015,7.367,1.155,
39134820,-0.805,0.02,0.589,0.35,7.91,0.507,
39134820,-0.807,0.012,0.593,-0.962,8.68,0.367,
39134830,-0.824,0.005,0.605,-1.89,7.542,0.49,
39134840,-0.84,0.001,0.643,-2.327,3.132,0.175,
39134850,-0.799,-0.002,0.677,-2.607,-1.225,-0.752,
39134860,-0.758,-0.01,0.653,-2.065,-3.535,-0.787,
39134870,-0.766,-0.022,0.634,-0.49,-4.917,-0.21,
39134880,-0.786,-0.02,0.63,0.49,-1.977,-0.157,
39134890,-0.797,-0.016,0.617,0.682,0.752,0.56,
39134900,-0.796,-0.016,0.621,1.137,-0.087,1.837,
39134910,-0.791,-0.016,0.621,0.875,-1.732,2.695,
39134920,-0.78,-0.017,0.602,-0.28,-2.572,2.555,
39134930,-0.77,-0.014,0.586,-1.015,-1.067,2.03,
39134940,-0.754,-0.003,0.561,-1.172,3.57,2.152,
39134950,-0.769,0.002,0.56,-1.505,11.777,3.097,
39134960,-0.802,0.016,0.572,-1.732,19.46,3.552,
39134970,-0.823,0.027,0.596,-1.907,23.922,3.482,
39134980,-0.846,0.034,0.613,-1.697,24.167,3.062,
39134990,-0.858,0.03,0.619,-1.61,22.242,2.38,
39135000,-0.844,0.008,0.628,-1.837,20.615,1.68,
39135010,-0.828,-0.006,0.614,-1.697,18.935,0.892,
39135020,-0.834,-0.001,0.574,-0.665,14.437,0.612,
39135030,-0.848,0.006,0.554,0.542,8.732,1.085,
39135040,-0.867,0.011,0.573,0.385,4.795,1.172,
39135050,-0.874,0.008,0.589,-0.682,1.312,0.77,
39135060,-0.872,0.004,0.582,-1.295,-2.992,0.42,
39135070,-0.851,0.006,0.589,-1.505,-6.37,0.122,
39135080,-0.83,0.003,0.602,-2.205,-8.557,-0.315,
39135080,-0.835,0,0.595,-2.065,-11.2,-0.7,
39135100,-0.849,0.003,0.588,-0.367,-13.72,-0.892,
39135100,-0.854,0.006,0.585,1.032,-16.345,-0.91,
39135120,-0.856,0.004,0.577,1.015,-19.827,-0.437,
39135120,-0.85,0.005,0.553,0.42,-23.012,-0.052,
39135140,-0.811,0.004,0.57,-0.455,-22.557,-0.385,
39135140,-0.777,0.003,0.598,-2.397,-17.097,-1.697,
39135160,-0.789,0.01,0.542,-3.01,-17.535,-2.52,
39135160,-0.827,0.011,0.542,-2.187,-16.222,-2.065,
39135170,-0.833,0.011,0.593,-2.257,-12.897,-1.837,
39135180,-0.799,0.002,0.628,-2.992,-12.827,-1.505,
39135190,-0.77,-0.003,0.628,-2.152,-13.475,-0.892,
39135200,-0.745,0.002,0.614,-0.35,-11.445,-0.91,
39135210,-0.754,0.008,0.606,0.612,-9.38,-2.1,
39135220,-0.771,0,0.599,0.892,-6.965,-3.29,
39135230,-0.799,-0.007,0.588,1.802,-4.06,-3.01,
39135240,-0.823,-0.01,0.594,2.52,-3.972,-1.715,
39135250,-0.83,-0.008,0.598,1.715,-4.917,-0.752,
39135260,-0.82,-0.007,0.618,0.122,-6.667,-0.437,
39135270,-0.796,-0.01,0.649,-1.487,-7.997,-0.717,
39135280,-0.764,-0.01,0.668,-2.432,-9.415,-1.347,
39135290,-0.734,-0.016,0.671,-2.59,-9.082,-1.19,
39135300,-0.736,-0.022,0.659,-2.047,-5.757,-0.14,
39135310,-0.758,-0.017,0.629,-0.857,-2.047,1.242,
39135320,-0.799,-0.009,0.61,0.665,0.122,2.66,
39135330,-0.823,0.002,0.588,1.89,0.157,3.675,
39135340,-0.823,0.009,0.574,2.38,-0.367,3.955,
39135350,-0.826,0.023,0.515,1.802,0.035,3.867,
39135360,-0.886,0.021,0.539,0.385,-1.855,3.64,
39135370,-0.861,0.018,0.625,-1.907,-3.097,1.662,
39135380,-0.794,0.023,0.604,-4.06,-6.58,0.717,
39135390,-0.78,0.004,0.621,-3.622,-11.882,0.332,
39135400,-0.772,-0.006,0.617,-3.517,-8.085,-0.945,
39135410,-0.778,-0.016,0.586,-2.607,-1.487,-0.997,
39135420,-0.815,-0.013,0.55,0.945,-0.07,0.28,
39135430,-0.847,-0.008,0.558,2.66,-0.21,1.855,
39135440,-0.864,0,0.582,1.277,-1.417,1.715,
39135450,-0.878,0.011,0.578,-0.507,-5.425,0.752,
39135460,-0.853,0.036,0.598,-1.68,-9.73,-0.892,
39135470,-0.797,0.034,0.629,-4.252,-9.327,-2.485,
39135480,-0.782,0.013,0.631,-6.072,-8.05,-3.045,
39135490,-0.784,0,0.637,-4.847,-6.317,-2.625,
39135500,-0.768,-0.007,0.645,-2.415,-4.322,-1.295,
39135510,-0.75,-0.017,0.639,-0.437,-3.552,0.315,
39135510,-0.743,-0.022,0.639,0.997,-1.767,1.662,
39135530,-0.756,-0.016,0.648,1.627,1.312,2.152,
39135530,-0.777,-0.006,0.637,1.347,3.237,1.925,
39135550,-0.8,0,0.62,0.805,3.745,1.802,
39135550,-0.817,0.006,0.617,0.192,3.097,2.327,
39135570,-0.823,0.01,0.617,-0.472,0.735,2.695,
39135570,-0.814,0.005,0.63,-0.84,-2.117,2.45,
39135580,-0.793,0,0.656,-0.98,-3.622,1.68,
39135590,-0.775,-0.005,0.68,-1.172,-3.5,0.927,
39135600,-0.786,-0.009,0.67,-1.05,-2.38,0.98,
39135610,-0.795,-0.005,0.641,-0.14,-1.82,2.1,
39135620,-0.796,-0.005,0.595,1.4,-1.802,3.64,
39135630,-0.797,0.006,0.572,2.765,-2.257,4.567,
39135640,-0.788,0.018,0.568,2.782,-1.977,4.392,
39135650,-0.819,0.015,0.562,1.627,-3.08,3.272,
39135660,-0.836,0.008,0.589,-0.437,-3.937,1.277,
39135670,-0.836,0.001,0.606,-3.272,-4.847,-0.542,
39135680,-0.851,-0.005,0.595,-5.127,-7.542,-1.19,
39135690,-0.866,-0.002,0.576,-5.127,-9.52,-1.19,
39135700,-0.858,0.002,0.557,-3.64,-11.795,-1.242,
39135710,-0.829,-0.004,0.554,-1.68,-14.192,-1.172,
39135720,-0.799,-0.013,0.57,-0.927,-14.507,-1.102,
39135730,-0.787,0.008,0.577,-1.732,-13.475,-0.63,
39135740,-0.746,0.038,0.633,-3.815,-10.552,0,
39135750,-0.72,0.004,0.678,-6.387,-5.425,-0.157,
39135760,-0.768,-0.024,0.643,-6.895,-1.522,-0.822,
39135770,-0.8,-0.022,0.64,-5.425,1.645,-1.242,
39135780,-0.79,-0.001,0.645,-2.87,2.432,-0.437,
39135790,-0.795,0.01,0.617,-0.525,1.68,2.362,
39135800,-0.814,0.016,0.617,1.995,1.68,3.972,
39135810,-0.804,0.02,0.622,2.87,1.767,2.94,
39135820,-0.791,0.016,0.63,1.995,0.77,1.295,
39135830,-0.792,0.008,0.649,0.315,0.542,0.192,
39135830,-0.797,0.001,0.638,-1.277,0.157,-0.122,
39135850,-0.789,-0.004,0.615,-1.19,-2.082,-0.21,
39135850,-0.778,-0.012,0.604,0.14,-3.395,0.157,
39135870,-0.777,-0.019,0.604,1.522,-2.747,0.805,
39135870,-0.793,-0.015,0.612,2.31,-2.275,1.295,
39135890,-0.807,-0.007,0.633,2.117,-2.922,1.522,
39135890,-0.799,-0.003,0.659,0.787,-3.377,1.225,
39135910,-0.793,-0.004,0.664,-0.595,-3.5,0.997,
39135910,-0.794,-0.015,0.635,-0.945,-4.007,1.067,
39135920,-0.802,-0.025,0.575,0,-3.885,1.627,
39135930,-0.802,-0.017,0.558,1.417,-3.412,2.712,
39135940,-0.789,0,0.572,1.715,-2.572,3.535,
39135950,-0.792,0.01,0.59,0.927,-3.062,3.622,
39135960,-0.811,0.011,0.595,-0.56,-4.025,2.485,
39135970,-0.819,0.009,0.588,-2.485,-5.46,0.647,
39135980,-0.809,0.005,0.586,-4.27,-6.282,-0.612,
39135990,-0.838,0.007,0.582,-5.25,-6.3,-0.752,
39136000,-0.857,0.021,0.604,-4.76,-6.685,-0.822,
39136010,-0.84,0.033,0.62,-3.762,-7.385,-1.137,
39136020,-0.793,0.03,0.625,-2.607,-8.68,-0.927,
39136030,-0.736,0.012,0.618,-2.345,-6.492,-0.525,
39136040,-0.723,0,0.61,-2.59,-1.785,-0.542,
39136050,-0.747,-0.001,0.622,-2.905,3.412,-0.612,
39136060,-0.799,0,0.63,-2.782,7.157,-0.28,
39136070,-0.847,0,0.633,-1.96,7.507,0.367,
39136080,-0.857,-0.005,0.637,-1.435,5.582,1.102,
39136090,-0.838,-0.009,0.626,-0.84,3.465,1.575,
39136100,-0.825,-0.006,0.62,0.14,1.277,1.89,
39136110,-0.811,-0.002,0.622,0.805,-0.385,1.505,
39136120,-0.794,-0.001,0.626,0.91,-1.715,0.735,
39136130,-0.776,-0.004,0.634,0.98,-3.237,0.315,
39136140,-0.766,-0.016,0.631,1.26,-5.11,0.052,
39136150,-0.756,-0.018,0.623,2.17,-8.05,-0.682,
39136160,-0.744,-0.019,0.632,2.572,-9.52,-0.612,
39136170,-0.732,-0.017,0.644,2.555,-9.712,-0.157,
39136180,-0.726,-0.017,0.659,2.1,-8.4,0.455,
39136190,-0.769,-0.038,0.602,1.05,-4.13,1.592,
39136200,-0.869,-0.023,0.566,1.12,-2.695,2.572,
39136210,-0.848,0.018,0.606,0.927,-0.14,3.167,
39136220,-0.81,0.04,0.576,0.07,-1.785,4.357,
39136230,-0.834,0.039,0.571,0.42,-7.455,4.375,
39136240,-0.825,0.031,0.595,-0.665,-7.262,1.365,
39136250,-0.78,0.027,0.603,-2.415,-5.32,-1.592,
39136260,-0.773,0.028,0.606,-3.325,-2.94,-1.452,
39136260,-0.801,0.024,0.609,-3.99,1.05,-0.35,
39136280,-0.82,0.011,0.616,-4.095,4.252,-0.927,
39136280,-0.804,0.001,0.584,-2.31,4.987,-1.522,
39136300,-0.777,0.004,0.548,0.647,5.46,-0.437,
39136300,-0.721,0.02,0.606,1.347,10.675,0.875,
39136310,-0.708,0.019,0.646,-0.875,18.235,0.892,
39136320,-0.764,-0.006,0.64,-1.977,23.887,0.367,
39136330,-0.808,-0.03,0.655,-1.855,31.115,-0.665,
39136340,-0.799,-0.028,0.678,-1.575,39.112,-1.26,
39136350,-0.794,-0.028,0.641,-0.21,39.532,0.787,
39136360,-0.79,-0.045,0.581,3.57,40.582,3.902,
39136370,-0.801,-0.029,0.572,7.805,41.895,5.197,
39136380,-0.817,-0.002,0.559,9.397,37.45,4.777,
39136390,-0.877,0.016,0.539,9.082,33.46,4.287,
39136400,-0.938,0.025,0.537,8.05,29.365,3.99,
39136410,-0.959,0.024,0.544,6.107,22.277,3.867,
39136420,-0.944,0.021,0.548,3.78,12.337,3.657,
39136430,-0.917,0.027,0.54,1.662,1.312,3.237,
39136440,-0.885,0.026,0.522,0.14,-7.035,2.38,
39136450,-0.869,0.014,0.532,-0.507,-11.795,0.892,
39136460,-0.858,0.014,0.533,-0.437,-14.245,-0.262,
39136470,-0.848,0.012,0.534,-0.28,-16.695,0.122,
39136480,-0.838,0.009,0.556,-0.315,-18.567,0.595,
39136490,-0.828,0.005,0.569,-1.102,-19.827,0.052,
39136500,-0.817,0.008,0.575,-2.135,-20.667,-0.717,
39136510,-0.808,0.01,0.577,-2.835,-19.162,-0.997,
39136520,-0.808,0.006,0.572,-3.255,-16.852,-0.665,
39136530,-0.804,0.005,0.574,-3.64,-15.015,0.07,
39136540,-0.789,0.003,0.584,-3.675,-13.387,0.507,
39136550,-0.76,-0.008,0.595,-3.622,-10.15,1.032,
39136560,-0.764,-0.016,0.611,-3.43,-5.897,1.067,
39136570,-0.808,-0.004,0.57,-2.52,-4.515,0.595,
39136580,-0.873,0.005,0.564,-1.925,-2.87,0.927,
39136580,-0.92,0.013,0.574,-2.012,-4.567,0.98,
39136600,-0.911,0.013,0.574,-2.45,-10.412,0.56,
39136600,-0.869,0.006,0.577,-2.59,-16.31,0.315,
39136620,-0.823,0.002,0.578,-3.29,-19.057,0.157,
39136620,-0.779,-0.001,0.582,-4.13,-17.342,0.017,
39136640,-0.763,0,0.579,-4.112,-12.985,0.402,
39136640,-0.779,0.008,0.586,-2.992,-8.522,0.857,
39136660,-0.803,0.02,0.598,-1.872,-5.127,0.717,
39136660,-0.827,0.022,0.612,-1.032,-4.042,0.56,
39136670,-0.839,0.017,0.632,-0.262,-3.885,0.385,
39136680,-0.831,0.016,0.64,0.175,-3.727,0.21,
39136690,-0.814,0.013,0.627,0.472,-4.34,0.227,
39136700,-0.798,0.003,0.599,0.927,-4.567,0.017,
39136710,-0.799,-0.001,0.579,1.557,-4.515,-0.105,
39136720,-0.807,0,0.582,1.715,-4.48,-0.035,
39136730,-0.824,-0.004,0.598,0.927,-5.582,0.105,
39136740,-0.831,-0.006,0.624,-0.35,-7.052,0.157,
39136750,-0.807,-0.008,0.63,-1.487,-8.155,0.052,
39136760,-0.8,-0.01,0.58,-1.785,-9.187,0.332,
39136770,-0.818,-0.011,0.554,-1.347,-8.347,0.805,
39136780,-0.829,-0.006,0.539,-0.682,-6.772,0.91,
39136790,-0.828,0,0.541,-0.21,-7.472,1.592,
39136800,-0.819,0.005,0.562,-0.665,-7.91,2.187,
39136810,-0.828,0.008,0.584,-2.485,-7.122,1.557,
39136820,-0.85,0.013,0.602,-4.252,-6.037,0.087,
39136830,-0.859,0.016,0.615,-5.267,-5.442,-0.787,
39136840,-0.839,0.018,0.615,-4.97,-6.912,-0.875,
39136850,-0.808,0.014,0.607,-3.972,-7.507,-0.017,
39136860,-0.785,0.008,0.6,-2.59,-6.072,1.067,
39136870,-0.774,0.008,0.608,-1.365,-3.22,1.557,
39136880,-0.78,0.012,0.615,-0.945,-0.21,1.522,
39136890,-0.801,0.012,0.602,-0.927,1.102,1.295,
39136900,-0.817,0.012,0.604,-1.05,1.47,0.98,
39136910,-0.82,0.016,0.607,-1.54,0.927,0.84,
39136920,-0.819,0.02,0.608,-1.557,-1.575,0.752,
39136930,-0.817,0.016,0.61,-1.295,-3.57,0.385,
39136940,-0.811,0.009,0.62,-1.26,-2.59,-0.07,
39136950,-0.819,0.001,0.622,-1.155,-1.015,-0.28,
39136960,-0.82,-0.001,0.611,-0.367,-1.61,0.07,
39136970,-0.803,-0.001,0.601,0.437,-1.19,0.875,
39136980,-0.787,-0.007,0.603,0.892,-1.382,1.592,
39136990,-0.778,-0.007,0.612,1.085,-1.942,1.645,
39137000,-0.779,-0.009,0.618,1.015,-1.172,1.557,
39137000,-0.792,-0.008,0.618,0.665,-0.682,1.575,
39137010,-0.813,-0.005,0.616,0.087,-0.525,1.54,
39137020,-0.833,0.001,0.601,-0.14,-1.26,1.382,
39137030,-0.843,0.001,0.575,0.437,-3.272,1.47,
39137040,-0.843,0,0.552,1.277,-5.967,1.627,
39137050,-0.822,0.003,0.563,1.295,-7.402,1.382,
39137060,-0.806,0.003,0.589,0.122,-8.12,0.927,
39137070,-0.793,0.002,0.612,-1.33,-8.75,0.245,
39137080,-0.801,-0.003,0.602,-2.8,-8.295,-0.35,
39137090,-0.807,-0.007,0.578,-3.447,-7.07,-0.577,
39137100,-0.811,-0.009,0.568,-3.185,-4.34,-0.14,
39137110,-0.83,-0.001,0.568,-2.222,-1.645,0.962,
39137120,-0.852,0.011,0.591,-1.225,0.105,1.942,
39137130,-0.862,0.02,0.612,-0.805,-0.157,1.837,
39137140,-0.855,0.02,0.598,-0.997,-2.607,0.875,
39137150,-0.825,0.026,0.583,-1.452,-4.742,0.157,
39137160,-0.781,0.033,0.609,-2.327,-4.252,-0.087,
39137170,-0.759,0.021,0.619,-3.43,-1.592,-0.105,
39137180,-0.768,0.004,0.591,-3.29,2.222,-0.105,
39137190,-0.772,0.002,0.59,-2.38,8.452,0,
39137200,-0.781,0.003,0.596,-2.24,14.822,1.207,
39137210,-0.818,0.012,0.608,-1.802,17.272,3.062,
39137220,-0.854,0.025,0.626,-1.12,16.87,4.06,
39137230,-0.879,0.031,0.63,-0.56,12.442,3.5,
39137240,-0.859,0.024,0.652,-0.385,5.18,2.082,
39137250,-0.795,-0.004,0.65,-0.56,0.017,1.032,
39137260,-0.757,-0.031,0.589,-0.437,-1.942,1.47,
39137270,-0.763,-0.027,0.544,0.595,-0.875,1.977,
39137280,-0.798,-0.015,0.541,1.137,2.87,2.117,
39137290,-0.842,-0.005,0.549,1.347,4.672,2.17,
39137300,-0.872,0.006,0.56,1.382,1.802,2.065,
39137310,-0.876,0.014,0.571,0.682,-3.22,1.54,
39137320,-0.86,0.016,0.6,-0.752,-7.56,0.595,
39137330,-0.831,0.007,0.621,-2.205,-9.38,-0.542,
39137330,-0.815,-0.003,0.601,-2.327,-10.342,-1.172,
39137350,-0.809,-0.008,0.598,-1.312,-10.167,-1.26,
39137350,-0.803,-0.012,0.589,-0.49,-8.767,-0.437,
39137370,-0.808,-0.019,0.564,0.49,-8.102,0.875,
39137370,-0.817,-0.021,0.559,1.417,-8.05,1.907,
39137390,-0.809,-0.01,0.56,0.962,-6.772,2.1,
39137390,-0.807,0.004,0.549,-0.175,-5.477,2.24,
39137410,-0.833,0.015,0.555,-1.207,-4.077,2.012,
39137410,-0.861,0.024,0.565,-2.537,-2.73,1.015,
39137420,-0.87,0.025,0.589,-3.692,-3.08,-0.017,
39137430,-0.86,0.012,0.605,-4.252,-4.795,-0.367,
39137440,-0.838,0.002,0.576,-4.182,-6.632,-0.052,
39137450,-0.794,0.005,0.572,-3.745,-5.162,0.315,
39137460,-0.732,0.002,0.589,-3.657,2.397,1.172,
39137470,-0.729,-0.004,0.591,-3.08,10.587,2.537,
39137480,-0.75,0.005,0.592,-1.575,16.362,3.465,
39137490,-0.771,0.016,0.617,-0.927,21.927,3.832,
39137500,-0.786,0.023,0.635,-1.19,26.337,4.252,
39137510,-0.799,0.011,0.658,-1.575,29.207,4.34,
39137520,-0.783,0.005,0.63,-0.7,31.552,3.78,
39137530,-0.761,-0.003,0.608,0.595,37.975,4.06,
39137540,-0.765,-0.005,0.593,1.732,43.645,4.497,
39137550,-0.805,0.004,0.567,3.15,44.415,4.637,
39137560,-0.889,0.016,0.554,4.83,41.86,4.847,
39137570,-0.959,0.031,0.548,5.32,37.24,4.69,
39137580,-0.979,0.038,0.538,4.585,29.47,4.042,
39137590,-0.966,0.036,0.534,3.465,20.002,3.36,
39137600,-0.944,0.036,0.528,2.432,11.27,2.852,
39137610,-0.925,0.039,0.507,1.732,3.465,2.135,
39137620,-0.91,0.035,0.488,1.435,-3.237,1.382,
39137630,-0.891,0.022,0.487,1.382,-7.297,0.612,
39137640,-0.876,0.009,0.497,1.382,-9.59,-0.087,
39137650,-0.869,0,0.506,1.33,-11.322,-0.192,
39137660,-0.862,-0.005,0.503,1.19,-12.932,0.122,
39137670,-0.847,-0.006,0.517,0.805,-13.597,0.262,
39137680,-0.835,-0.002,0.529,0.035,-12.81,0,
39137690,-0.841,0.004,0.538,-0.542,-11.322,-0.017,
39137690,-0.848,0.008,0.552,-0.997,-9.362,0.052,
39137710,-0.857,0.01,0.548,-1.26,-8.33,0.315,
39137710,-0.862,0.012,0.537,-0.962,-9.082,0.787,
39137730,-0.858,0.014,0.533,-0.367,-10.255,1.277,
39137730,-0.853,0.014,0.532,-0.122,-11.235,1.627,
39137750,-0.846,0.015,0.539,-0.28,-10.797,1.347,
39137750,-0.851,0.019,0.551,-0.717,-9.362,0.63,
39137760,-0.858,0.022,0.542,-1.067,-9.24,-0.087,
39137770,-0.871,0.022,0.54,-1.312,-10.272,-0.262,
39137780,-0.865,0.02,0.556,-1.732,-11.462,-0.385,
39137790,-0.864,0.016,0.551,-1.855,-12.74,-0.56,
39137800,-0.868,0.014,0.541,-1.085,-14.7,-0.682,
39137810,-0.861,0.012,0.541,-0.262,-16.135,-0.805,
39137820,-0.844,0.011,0.54,-0.157,-16.485,-0.84,
39137830,-0.829,0.01,0.552,-0.402,-16.345,-0.63,
39137840,-0.829,0.012,0.566,-0.682,-16.8,-0.735,
39137850,-0.839,0.015,0.57,-0.91,-17.535,-1.225,
39137860,-0.848,0.012,0.564,-1.137,-18.375,-1.627,
39137870,-0.832,0.012,0.567,-1.435,-18.742,-1.68,
39137880,-0.797,0,0.585,-2.135,-17.062,-1.47,
39137890,-0.799,-0.006,0.591,-2.677,-14,-1.627,
39137900,-0.835,0.005,0.561,-2.17,-13.93,-1.837,
39137910,-0.864,0.013,0.559,-1.312,-14.472,-1.662,
39137920,-0.865,0.016,0.565,-1.312,-14.752,-1.067,
39137930,-0.847,0.011,0.562,-1.785,-16.397,-0.7,
39137940,-0.819,0.009,0.56,-2.222,-17.675,-0.402,
39137950,-0.797,0.01,0.565,-2.66,-16.87,-0.052,
39137960,-0.787,0.008,0.578,-3.325,-12.635,0,
39137970,-0.795,0.012,0.576,-3.587,-6.965,0.087,
39137980,-0.823,0.015,0.577,-3.325,-2.87,0.14,
39137990,-0.842,0.019,0.578,-2.537,-1.207,0.157,
39138000,-0.841,0.014,0.588,-1.662,-1.627,0.35,
39138010,-0.815,0.005,0.608,-0.787,-3.36,0.402,
39138020,-0.777,0.001,0.587,-0.262,-3.097,0.42,
39138030,-0.78,-0.005,0.561,0.07,-1.365,0.752,
39138040,-0.818,-0.008,0.551,0.14,1.277,1.172,
39138050,-0.844,-0.002,0.547,-0.21,3.237,1.662,
39138060,-0.852,0.007,0.542,-0.402,1.715,2.24,
39138070,-0.852,0.011,0.551,-0.787,-1.907,2.257,
39138080,-0.848,0.014,0.571,-1.96,-4.847,1.312,
39138080,-0.841,0.016,0.591,-3.535,-7.157,0.315,
39138100,-0.838,0.021,0.606,-4.287,-10.535,-0.262,
39138100,-0.837,0.023,0.632,-4.305,-13.825,-0.945,
39138120,-0.819,0.018,0.617,-3.99,-16.345,-1.505,
39138120,-0.791,0.004,0.611,-3.202,-17.64,-1.61,
39138140,-0.777,-0.004,0.61,-2.292,-18.095,-1.872,
39138140,-0.783,-0.006,0.585,-1.785,-16.695,-1.382,
39138160,-0.811,-0.003,0.585,-1.225,-13.65,-0.49,
39138160,-0.84,0.013,0.554,-1.26,-10.657,0.017,
39138170,-0.881,0.025,0.58,-1.68,-10.92,0.087,
39138180,-0.876,0.012,0.668,-3.132,-12.057,-1.067,
39138190,-0.824,0.012,0.644,-4.322,-12.442,-1.435,
39138200,-0.783,-0.001,0.616,-3.78,-12.512,-0.787,
39138210,-0.768,0.003,0.597,-1.925,-12.722,-0.542,
39138220,-0.771,0.005,0.582,-1.382,-10.062,-0.402,
39138230,-0.798,-0.006,0.578,-0.77,-6.055,-0.402,
39138240,-0.837,-0.01,0.577,-0.052,-3.815,-0.402,
39138250,-0.872,-0.002,0.584,-0.595,-4.06,-0.14,
39138260,-0.868,0.009,0.6,-1.995,-6.527,0.315,
39138270,-0.834,0.01,0.6,-3.377,-8.645,1.067,
39138280,-0.785,0.01,0.599,-3.605,-9.31,1.19,
39138290,-0.757,0.007,0.601,-3.517,-5.355,0.647,
39138300,-0.764,0,0.58,-2.345,0.21,0.07,
39138310,-0.79,-0.003,0.571,-0.542,3.85,0.035,
39138320,-0.808,-0.004,0.586,0.525,4.48,0.245,
39138330,-0.792,-0.004,0.608,0.735,3.237,0.437,
39138340,-0.797,-0.004,0.612,0.525,1.785,0.77,
39138350,-0.822,-0.002,0.625,0.385,0.735,0.315,
39138360,-0.84,0.003,0.627,-0.262,2.1,-0.21,
39138370,-0.841,0.007,0.63,-0.56,2.065,0.595,
39138380,-0.819,0.008,0.627,0,1.032,1.715,
39138390,-0.793,0.012,0.601,1.085,0.647,2.397,
39138400,-0.777,0.013,0.609,2.187,0.682,2.205,
39138410,-0.787,0.003,0.609,2.397,1.452,1.102,
39138420,-0.82,-0.003,0.584,2.047,0.56,0.332,
39138420,-0.839,-0.005,0.579,1.715,-2.31,0.157,
39138440,-0.833,-0.006,0.599,0.612,-4.742,0.297,
39138440,-0.815,-0.009,0.611,-0.56,-7.07,0.035,
39138460,-0.809,-0.012,0.598,-0.682,-8.575,-0.105,
39138460,-0.811,-0.009,0.592,-0.192,-8.172,-0.035,
39138480,-0.82,-0.003,0.58,-0.017,-7.175,0.472,
39138480,-0.829,0.001,0.575,0.402,-7.175,1.505,
39138500,-0.819,0.008,0.585,1.085,-7.577,1.855,
39138500,-0.808,0.016,0.579,0.857,-7.875,1.312,
39138510,-0.825,0.013,0.591,0.07,-7.892,0.63,
39138520,-0.832,0.012,0.598,-0.892,-7.542,-0.332,
39138530,-0.832,0.01,0.588,-1.61,-8.942,-0.945,
39138540,-0.843,0.008,0.58,-1.942,-11.76,-1.277,
39138550,-0.839,0.004,0.586,-2.275,-13.265,-1.82,
39138560,-0.838,0.001,0.578,-2.432,-14.595,-2.17,
39138570,-0.826,0.001,0.583,-2.38,-15.365,-2.257,
39138580,-0.8,0,0.618,-2.905,-14.227,-2.397,
39138590,-0.756,-0.003,0.635,-3.447,-12.337,-2.082,
39138600,-0.749,-0.004,0.626,-2.695,-10.937,-1.05,
39138610,-0.759,0.001,0.625,-1.312,-8.697,-0.647,
39138620,-0.781,0.006,0.623,-0.717,-5.88,-0.7,
39138630,-0.818,0.011,0.621,-0.227,-4.62,-0.297,
39138640,-0.84,0.022,0.621,0.035,-4.76,0.35,
39138650,-0.835,0.023,0.626,-0.437,-5.477,0.56,
39138660,-0.815,0.02,0.628,-1.172,-7.122,0.35,
39138670,-0.781,0.008,0.638,-1.697,-8.505,-0.017,
39138680,-0.746,-0.008,0.629,-1.61,-10.307,-0.56,
39138690,-0.738,-0.01,0.607,-0.822,-12.215,-0.84,
39138700,-0.756,-0.003,0.63,-0.595,-12.25,-0.525,
39138710,-0.782,0.005,0.65,-1.155,-12.792,-0.332,
39138720,-0.774,0.017,0.671,-1.505,-14.612,0.35,
39138730,-0.771,0.025,0.679,-1.785,-17.465,0.875,
39138740,-0.772,0.032,0.662,-1.557,-20.405,0.315,
39138750,-0.783,0.024,0.655,-1.312,-19.18,-0.98,
39138760,-0.817,-0.008,0.62,-0.63,-15.05,-2.257,
39138770,-0.827,-0.021,0.591,0.91,-12.617,-2.905,
39138780,-0.791,-0.022,0.578,1.942,-9.8,-2.415,
39138790,-0.801,-0.032,0.555,2.135,-8.627,-1.592,
39138800,-0.792,-0.037,0.565,1.82,-7.245,-1.61,
39138810,-0.766,-0.049,0.606,0.647,-3.85,-2.17,
39138820,-0.8,-0.048,0.61,-0.245,-3.815,-2.712,
39138830,-0.839,-0.032,0.614,-0.752,-5.495,-2.345,
39138830,-0.838,-0.017,0.634,-1.015,-8.242,-1.207,
39138850,-0.812,-0.005,0.627,-0.805,-12.845,-0.105,
39138850,-0.787,0,0.629,-0.105,-16.03,0.245,
39138870,-0.761,0.007,0.653,0.105,-15.365,-0.157,
39138870,-0.749,0.015,0.656,-0.455,-13.177,-0.367,
39138890,-0.755,0.021,0.655,-0.647,-11.497,-0.227,
39138890,-0.76,0.016,0.667,-0.822,-9.292,-0.175,
39138910,-0.753,0.011,0.667,-1.172,-7.035,-0.507,
39138910,-0.747,0.006,0.662,-0.945,-4.917,-0.385,
39138920,-0.753,0.013,0.648,-0.14,-2.712,0.087,
39138930,-0.765,0.024,0.643,0.245,-0.122,0.577,
39138940,-0.783,0.021,0.647,-0.087,2.187,0.542,
39138950,-0.793,0.017,0.652,-0.402,3.185,0.017,
39138960,-0.789,0.014,0.655,-0.665,4.48,-0.437,
39138970,-0.775,0.011,0.64,-1.33,7.682,-0.175,
39138980,-0.778,-0.005,0.627,-1.785,12.46,0.805,
39138990,-0.781,-0.009,0.638,-1.295,17.517,1.855,
39139000,-0.767,-0.006,0.645,-0.245,19.932,3.167,
39139010,-0.763,0.013,0.683,1.26,15.312,3.85,
39139020,-0.759,0.01,0.674,1.785,8.61,3.097,
39139030,-0.766,-0.007,0.64,1.89,4.41,2.187,
39139040,-0.789,-0.015,0.62,2.327,1.89,1.032,
39139050,-0.821,-0.017,0.582,2.187,-0.175,0.717,
39139060,-0.851,-0.013,0.576,1.995,-3.062,0.927,
39139070,-0.829,-0.007,0.608,1.592,-7.717,0.84,
39139080,-0.765,-0.021,0.629,0.385,-11.882,0.14,
39139090,-0.732,-0.038,0.619,-0.752,-12.285,-0.385,
39139100,-0.758,-0.047,0.608,-1.417,-8.487,-0.42,
39139110,-0.8,-0.04,0.594,-1.155,-3.955,-0.122,
39139120,-0.829,-0.026,0.597,0.035,-3.202,1.085,
39139130,-0.824,-0.009,0.608,1.26,-4.13,2.17,
39139140,-0.814,0,0.607,1.925,-5.512,2.555,
39139150,-0.804,0.004,0.614,1.732,-6.545,1.977,
39139160,-0.794,0.012,0.637,0.105,-5.845,0.945,
39139170,-0.782,0.019,0.646,-2.065,-4.445,0.42,
39139170,-0.777,0.022,0.631,-3.395,-3.29,0.752,
39139190,-0.776,0.018,0.628,-3.29,-1.942,0.805,
39139190,-0.775,0.009,0.63,-2.555,0.507,0.35,
39139210,-0.776,0,0.634,-1.68,3.587,0.7,
39139210,-0.778,0,0.637,-0.542,6.44,1.715,
39139230,-0.787,0.012,0.62,0.192,8.452,2.695,
39139230,-0.796,0.02,0.595,0.402,7.577,2.94,
39139250,-0.781,0.029,0.593,0.472,4.83,1.977,
39139250,-0.773,0.025,0.615,-0.262,2.415,0.56,
39139260,-0.792,0.009,0.635,-1.61,0.962,-0.542,
39139270,-0.81,-0.005,0.646,-2.905,0.507,-1.067,
39139280,-0.808,-0.007,0.675,-3.692,-0.542,-1.102,
39139290,-0.8,0.002,0.672,-3.465,-2.082,-0.437,
39139300,-0.794,0,0.641,-1.82,-3.132,1.155,
39139310,-0.781,0,0.639,1.085,-2.992,1.925,
39139320,-0.768,0.001,0.643,2.887,-2.992,1.382,
39139330,-0.778,0.004,0.645,2.905,-3.307,0.997,
39139340,-0.791,0.003,0.649,2.082,-4.147,0.63,
39139350,-0.78,-0.004,0.646,0.577,-5.425,0.385,
39139360,-0.766,-0.013,0.622,-0.752,-6.142,0.402,
39139370,-0.77,-0.016,0.615,-1.067,-6.16,0.49,
39139380,-0.767,-0.014,0.633,-0.822,-5.302,0.49,
39139390,-0.754,-0.01,0.628,-0.28,-4.795,1.155,
39139400,-0.761,-0.01,0.608,0.525,-4.095,2.047,
39139410,-0.777,-0.008,0.6,0.84,-2.695,2.275,
39139420,-0.772,0,0.603,0.175,-0.962,1.767,
39139430,-0.741,0.02,0.612,-0.735,2.66,1.732,
39139440,-0.688,0.034,0.617,-1.96,12.95,2.555,
39139450,-0.662,0.038,0.602,-2.555,28.087,2.677,
39139460,-0.731,0.017,0.61,-1.802,42.402,1.26,
39139470,-0.841,0.016,0.619,0.052,53.095,-1.067,
39139480,-0.894,0.019,0.62,1.89,58.747,-1.242,
39139490,-0.844,0.011,0.631,4.392,59.885,0.402,
39139500,-0.763,-0.012,0.628,6.037,60.34,1.4,
39139510,-0.756,-0.025,0.583,7.35,58.782,0.507,
39139520,-0.787,-0.017,0.528,8.977,57.75,-0.98,
39139530,-0.845,-0.013,0.521,9.817,58.957,-1.977,
39139540,-0.892,-0.01,0.542,9.31,59.972,-1.54,
39139550,-0.924,-0.012,0.586,7.892,61.932,-0.752,
39139560,-0.951,-0.004,0.62,7.525,61.967,-0.21,
39139570,-0.984,0.014,0.6,7.77,55.93,0.262,
39139580,-1.009,0.03,0.519,8.347,44.625,1.085,
39139580,-0.997,0.036,0.447,9.467,30.572,2.607,
39139600,-0.953,0.027,0.41,10.377,16.065,3.972,
39139600,-0.932,0.013,0.397,10.185,3.447,4.217,
39139620,-0.936,0.006,0.418,8.89,-6.387,3.605,
39139620,-0.957,0.001,0.463,6.02,-13.597,2.66,
39139640,-0.971,0.001,0.497,2.327,-20.23,1.435,
39139640,-0.96,-0.005,0.519,-1.645,-25.392,0.542,
39139660,-0.932,-0.01,0.535,-4.112,-29.155,-0.157,
39139660,-0.894,-0.006,0.548,-4.165,-33.162,-0.087,
39139670,-0.845,0.004,0.555,-2.292,-36.645,1.19,
39139680,-0.808,0.015,0.558,-0.017,-38.797,2.765,
39139690,-0.783,0.023,0.555,1.12,-37.8,3.78,
39139700,-0.763,0.029,0.542,1.575,-33.792,4.165,
39139710,-0.739,0.036,0.545,1.47,-27.002,4.235,
39139720,-0.727,0.043,0.543,0.35,-18.9,3.71,
39139730,-0.731,0.045,0.542,-1.347,-12.67,2.52,
39139740,-0.764,0.037,0.541,-3.22,-8.19,1.26,
39139750,-0.81,0.024,0.536,-4.445,-4.602,0.63,
39139760,-0.863,0.011,0.543,-4.707,-4.077,0.437,
39139770,-0.909,0.008,0.552,-4.515,-7.035,0.017,
39139780,-0.934,0.008,0.539,-4.077,-12.722,-0.385,
39139790,-0.934,0.009,0.521,-3.045,-19.495,-0.157,
39139800,-0.921,0.011,0.523,-2.257,-25.602,0.14,
39139810,-0.905,0.008,0.523,-3.097,-30.117,0.437,
39139820,-0.853,-0.003,0.543,-4.305,-33.04,0.84,
39139830,-0.773,-0.014,0.589,-5.18,-31.342,1.207,
39139840,-0.72,-0.006,0.57,-5.145,-28.035,1.382,
39139850,-0.717,0.005,0.549,-4.812,-23.222,2.327,
39139860,-0.761,0.017,0.567,-4.567,-15.347,2.205,
39139870,-0.804,0.027,0.587,-4.497,-8.855,1.172,
39139880,-0.845,0.028,0.596,-4.042,-5.792,0.805,
39139890,-0.881,0.03,0.598,-2.975,-5.792,1.26,
39139900,-0.894,0.034,0.589,-2.415,-7.7,1.19,
39139910,-0.883,0.034,0.589,-2.485,-12.512,0.892,
39139920,-0.84,0.031,0.587,-2.817,-17.29,0.56,
39139920,-0.796,0.021,0.578,-3.062,-18.34,0.647,
39139940,-0.79,0.01,0.574,-3.272,-16.24,0.927,
39139940,-0.795,0.002,0.592,-3.64,-11.637,0.805,
39139960,-0.792,-0.005,0.602,-4.06,-5.792,0.612,
39139960,-0.804,-0.009,0.611,-3.692,-2.992,0.945,
39139980,-0.817,0,0.613,-2.712,-1.225,1.54,
39139980,-0.823,0.008,0.605,-1.575,-0.7,1.907,
39140000,-0.819,0.012,0.605,0.28,-1.855,1.942,
39140000,-0.811,0.019,0.603,1.872,-3.535,1.522,
39140010,-0.796,0.024,0.583,2.1,-4.812,1.137,
39140020,-0.801,0.023,0.585,1.207,-4.305,1.102,
39140030,-0.815,0.02,0.599,-0.035,-3.447,0.752,
39140040,-0.823,0.01,0.609,-1.172,-4.812,0.175,
39140050,-0.813,-0.002,0.591,-1.645,-6.632,-0.437,
39140060,-0.81,-0.011,0.569,-1.435,-6.457,-0.245,
39140070,-0.827,-0.013,0.556,-0.787,-5.057,0.945,
39140080,-0.84,-0.006,0.549,-0.035,-4.865,2.152,
39140090,-0.846,0,0.552,0.42,-5.547,2.765,
39140100,-0.833,0.008,0.583,0.21,-6.737,2.257,
39140110,-0.829,0.013,0.6,-1.4,-5.215,1.4,
39140120,-0.842,0.015,0.585,-2.625,-4.252,1.242,
39140130,-0.834,0.018,0.575,-2.625,-5.722,1.487,
39140140,-0.802,0.016,0.564,-2.31,-6.982,1.61,
39140150,-0.78,0.012,0.564,-1.942,-6.912,1.697,
39140160,-0.775,0.006,0.593,-2.012,-3.972,1.75,
39140170,-0.797,0.012,0.586,-2.362,0.227,1.802,
39140180,-0.815,0.023,0.557,-2.712,2.082,2.45,
39140190,-0.812,0.02,0.571,-3.412,0.927,2.94,
39140200,-0.799,0.015,0.592,-4.742,0.245,2.957,
39140210,-0.802,0.017,0.601,-5.425,1.54,3.185,
39140220,-0.838,0.032,0.618,-4.83,3.342,3.22,
39140230,-0.871,0.053,0.644,-4.252,3.832,2.187,
39140240,-0.869,0.061,0.631,-3.465,2.327,0.892,
39140250,-0.854,0.057,0.614,-1.435,-1.732,0.63,
39140260,-0.82,0.044,0.617,0.577,-4.655,0.315,
39140270,-0.783,0.003,0.662,0.962,-4.672,-0.332,
39140280,-0.744,-0.023,0.642,0.735,-2.52,-1.137,
39140290,-0.757,-0.013,0.574,1.12,0.192,-0.42,
39140300,-0.811,-0.007,0.565,1.925,2.275,0.787,
39140310,-0.859,0.001,0.558,1.907,4.76,1.627,
39140320,-0.881,0.008,0.556,2.327,2.485,2.065,
39140330,-0.874,0.018,0.581,2.852,-3.972,1.207,
39140330,-0.833,0.013,0.611,1.19,-8.942,-0.262,
39140350,-0.803,-0.005,0.591,-1.05,-11.497,-1.33,
39140350,-0.794,-0.02,0.555,-1.925,-11.742,-1.365,
39140370,-0.804,-0.025,0.536,-1.855,-9.555,-0.752,
39140370,-0.82,-0.01,0.498,-1.592,-7.332,0.63,
39140390,-0.856,-0.001,0.527,-0.717,-7.472,2.152,
39140390,-0.85,0.011,0.601,-0.717,-8.032,1.575,
39140410,-0.834,0.024,0.633,-2.975,-7.56,0.315,
39140410,-0.83,0.025,0.642,-4.725,-7.262,-0.35,
39140420,-0.828,0.029,0.624,-5.267,-6.44,-0.367,
39140430,-0.804,0.032,0.611,-4.952,-4.777,0.14,
39140440,-0.771,0.032,0.606,-3.185,-2.887,0.822,
39140450,-0.771,0.027,0.598,-0.56,-1.05,1.627,
39140460,-0.799,0.022,0.599,1.54,0.927,1.802,
39140470,-0.834,0.021,0.596,1.645,0.98,1.522,
39140480,-0.856,0.024,0.592,0.42,-0.157,1.05,
39140490,-0.878,0.03,0.582,-0.857,-1.82,0.525,
39140500,-0.877,0.03,0.588,-1.785,-4.147,-0.245,
39140510,-0.855,0.027,0.59,-2.117,-6.79,-1.102,
39140520,-0.822,0.023,0.602,-1.802,-8.645,-1.102,
39140530,-0.783,0.019,0.613,-1.137,-9.03,-0.595,
39140540,-0.757,0.012,0.615,-0.42,-8.435,-0.245,
39140550,-0.751,0.005,0.617,0.035,-6.23,-0.262,
39140560,-0.759,-0.006,0.639,0.227,-2.572,-0.455,
39140570,-0.766,-0.014,0.642,0.42,0.315,-0.42,
39140580,-0.783,-0.005,0.598,0.857,1.382,0.91,
39140590,-0.81,0,0.581,1.47,1.802,2.59,
39140600,-0.834,0.01,0.58,1.68,3.097,3.307,
39140610,-0.846,0.013,0.571,1.417,1.907,3.185,
39140620,-0.854,0.017,0.563,1.347,-1.592,2.327,
39140630,-0.848,0.021,0.556,0.35,-5.407,1.312,
39140640,-0.823,0.013,0.576,-1.225,-8.522,0.087,
39140650,-0.794,0,0.6,-2.45,-9.87,-1.032,
39140660,-0.79,-0.015,0.612,-3.045,-9.082,-1.172,
39140670,-0.797,-0.02,0.596,-2.782,-7.735,-0.945,
39140670,-0.802,-0.017,0.564,-1.697,-7.595,-0.052,
39140690,-0.808,-0.008,0.554,-0.472,-8.137,1.137,
39140690,-0.812,0.001,0.538,-0.14,-7.647,1.592,
39140710,-0.833,0.038,0.522,-0.507,-7.682,1.277,
39140710,-0.863,0.056,0.616,-2.485,-7.665,0.192,
39140730,-0.852,0.046,0.689,-5.67,-6.615,-1.54,
39140730,-0.812,0.051,0.684,-7.105,-6.807,-1.907,
39140750,-0.777,0.038,0.637,-5.582,-7.455,-1.277,
39140750,-0.761,0.022,0.574,-2.66,-5.145,-0.91,
39140760,-0.762,0.014,0.561,-0.035,-0.245,-0.665,
39140770,-0.789,0.009,0.594,1.785,3.535,-0.35,
39140780,-0.847,0.01,0.606,1.785,5.39,1.05,
39140790,-0.89,0.014,0.601,0.56,4.217,2.117,
39140800,-0.878,0.019,0.608,-1.015,-1.085,1.522,
39140810,-0.814,0.016,0.612,-2.52,-6.965,0.385,
39140820,-0.754,0.003,0.62,-2.607,-9.485,-0.332,
39140830,-0.743,-0.003,0.644,-1.155,-9.712,-0.56,
39140840,-0.743,-0.02,0.612,0.175,-8.242,-0.332,
39140850,-0.768,-0.025,0.577,1.522,-5.95,0.98,
39140860,-0.795,-0.023,0.553,2.24,-3.447,2.117,
39140870,-0.83,-0.014,0.52,1.907,-2.677,3.045,
39140880,-0.847,0.001,0.547,1.015,-5.285,3.01,
39140890,-0.832,0.007,0.586,-1.242,-10.745,1.697,
39140900,-0.809,-0.003,0.603,-4.235,-17.062,0.525,
39140910,-0.783,-0.017,0.617,-6.422,-20.125,0.157,
39140920,-0.766,-0.02,0.63,-7.437,-19.74,0.175,
39140930,-0.761,-0.008,0.637,-7.227,-17.64,0.945,
39140940,-0.773,0.007,0.621,-6.107,-13.282,1.925,
39140950,-0.807,0.042,0.582,-3.92,-8.26,2.292,
39140960,-0.845,0.063,0.618,-2.117,-4.077,2.24,
39140970,-0.857,0.05,0.669,-1.697,-1.61,1.592,
39140980,-0.863,0.052,0.643,-1.82,-1.767,1.575,
39140990,-0.864,0.044,0.621,-1.995,-5.67,1.172,
39141000,-0.833,0.038,0.609,-2.747,-9.047,-0.367,
39141010,-0.792,0.016,0.602,-4.217,-8.452,-1.207,
39141020,-0.772,-0.001,0.592,-3.867,-6.912,-0.91,
39141030,-0.766,-0.001,0.591,-2.677,-5.11,0.087,
39141040,-0.763,-0.004,0.608,-2.17,-2.8,0.63,
39141050,-0.769,-0.012,0.635,-2.222,-1.242,0.752,
39141060,-0.788,-0.01,0.653,-1.837,-0.507,0.455,
39141070,-0.816,-0.007,0.643,-1.12,-0.21,0.35,
39141080,-0.828,0,0.624,-0.227,-0.14,0.875,
39141080,-0.807,0.01,0.619,0.805,-0.035,1.82,
39141100,-0.769,0.02,0.633,1.47,0.787,2.975,
39141100,-0.746,0.022,0.65,1.855,2.082,3.167,
39141110,-0.758,0.021,0.654,2.17,2.625,2.1,
39141120,-0.781,0.015,0.656,1.977,4.497,1.015,
39141130,-0.811,0.007,0.638,1.82,5.11,0.612,
39141140,-0.84,0.007,0.595,2.362,2.87,0.91,
39141150,-0.853,0.008,0.569,3.062,0.28,1.417,
39141160,-0.837,0.011,0.57,3.237,-4.147,1.137,
39141170,-0.778,0.008,0.583,2.135,-8.032,0.175,
39141180,-0.756,-0.011,0.586,0.14,-10.395,-0.682,
39141190,-0.776,-0.022,0.587,-2.135,-10.78,-1.4,
39141200,-0.794,-0.019,0.587,-4.235,-8.855,-1.417,
39141210,-0.807,-0.014,0.587,-4.882,-7.892,-0.595,
39141220,-0.81,-0.011,0.589,-4.095,-7.98,0.56,
