#Format version: 1.0
time[ms],accX[g],accY[g],accZ[g],Value 1,Value 2,Value 3,
51170300,-0.36,-0.046,0.987,-14.192,-24.867,9.537,
51170310,-0.328,0.054,1.094,-13.177,-20.055,2.1,
51170320,-0.397,0.071,1.06,-18.025,-16.852,-5.722,
51170330,-0.396,0.056,0.996,-19.215,-16.817,-15.575,
51170340,-0.387,0.037,0.91,-15.82,-18.97,-20.492,
51170350,-0.406,0.027,0.889,-10.447,-19.302,-18.497,
51170360,-0.526,0.037,0.953,-6.842,-20.562,-17.01,
51170370,-0.521,0.023,0.946,-7.192,-24.132,-19.372,
51170380,-0.534,-0.011,0.875,-9.852,-27.877,-17.605,
51170390,-0.48,-0.001,0.87,-10.062,-33.267,-11.55,
51170400,-0.385,0,0.892,-8.627,-33.372,-4.742,
51170410,-0.309,0.017,0.892,-8.925,-31.115,-3.92,
51170420,-0.233,-0.008,0.902,-9.52,-24.29,-3.937,
51170430,-0.243,-0.044,0.913,-11.06,-14.962,-3.587,
51170440,-0.308,-0.099,0.955,-10.85,-5.67,-5.757,
51170450,-0.412,-0.063,0.935,-6.895,-3.78,-5.425,
51170460,-0.555,0.036,0.787,-6.615,-11.165,-1.137,
51170470,-0.394,-0.074,0.958,-6.457,-19.53,1.12,
51170480,-0.534,-0.137,0.974,3.027,-17.115,6.65,
51170490,-0.516,-0.035,0.978,6.09,-23.765,10.535,
51170500,-0.303,0.009,1.002,6.282,-27.475,9.87,
51170510,-0.212,-0.001,1.011,4.27,-20.807,7.542,
51170520,-0.086,0,1.015,1.942,-6.3,4.322,
51170530,0.001,0.015,1.016,-0.997,12.722,2.502,
51170540,0.026,-0.007,1.024,-5.127,33.53,4.077,
51170550,0.036,-0.036,1.036,-11.532,56.367,4.69,
51170560,0.09,-0.061,0.981,-18.655,82.197,2.047,
51170570,0.126,-0.102,0.883,-19.722,112.157,0.647,
51170580,0.162,-0.098,0.811,-13.457,145.74,1.26,
51170580,0.175,-0.094,0.725,-7.087,182.017,3.78,
51170600,0.091,-0.108,0.687,1.575,218.277,5.32,
51170600,-0.184,-0.154,0.602,10.622,241.045,4.847,
51170610,-0.334,-0.189,0.467,21.087,247.537,5.617,
51170620,-0.553,-0.228,0.402,45.15,240.555,38.01,
51170630,-1.088,-0.306,0.492,85.715,207.812,109.13,
51170640,-1.205,0.044,0.701,101.377,176.75,91.665,
51170650,-1.607,0.01,0.91,95.2,152.442,90.702,
51170660,-1.923,-0.132,1.051,85.995,108.657,63.805,
51170670,-1.528,-0.304,1.025,100.03,58.625,35.49,
51170680,-0.746,-0.165,0.983,134.33,54.757,31.185,
51170690,-0.493,0.043,0.852,167.387,116.76,49.77,
51170700,-0.608,0.234,0.709,201.145,198.31,72.537,
51170710,-0.768,0.308,0.61,224.175,248.447,116.532,
51170720,-0.987,0.349,0.535,235.13,257.232,168.14,
51170730,-1.087,0.58,0.53,230.667,236.39,173.197,
51170740,-1.087,0.607,0.459,204.767,195.965,151.025,
51170750,-0.923,0.521,0.325,170.45,146.755,119.7,
51170760,-0.789,0.414,0.206,149.607,96.985,93.362,
51170770,-0.72,0.423,0.181,142.397,48.965,72.625,
51170780,-0.678,0.473,0.19,130.83,6.37,51.45,
51170790,-0.659,0.493,0.215,112.49,-27.055,25.287,
51170800,-0.642,0.476,0.252,90.65,-49.735,-4.987,
51170810,-0.605,0.455,0.286,64.295,-64.155,-35.07,
51170820,-0.605,0.422,0.31,36.05,-74.76,-58.1,
51170830,-0.634,0.385,0.315,10.762,-85.085,-71.137,
51170840,-0.665,0.35,0.322,-8.732,-94.027,-74.515,
51170850,-0.694,0.339,0.371,-21.787,-100.572,-72.59,
51170860,-0.751,0.346,0.428,-32.077,-102.725,-71.242,
51170870,-0.842,0.355,0.481,-43.102,-102.392,-74.97,
51170880,-0.928,0.378,0.52,-56.7,-101.885,-83.737,
51170890,-1.009,0.32,0.537,-64.872,-104.265,-89.862,
51170900,-0.954,0.347,0.564,-70.91,-107.502,-96.635,
51170910,-0.816,0.388,0.537,-82.162,-108.867,-103.407,
51170920,-0.7,0.321,0.523,-85.732,-105.595,-103.617,
51170920,-0.651,0.279,0.533,-85.89,-101.132,-102.252,
51170940,-0.619,0.269,0.559,-88.025,-98.682,-97.405,
51170940,-0.681,0.159,0.557,-88.077,-97.772,-82.11,
51170960,-0.765,0.088,0.582,-77.787,-94.78,-61.845,
51170960,-0.767,0.152,0.665,-67.707,-88.322,-47.81,
51170980,-0.79,0.225,0.752,-64.627,-76.422,-34.212,
51170980,-0.812,0.256,0.807,-70.052,-60.007,-21.087,
51171000,-0.86,0.263,0.768,-95.095,-44.047,-5.355,
51171000,-0.758,0.134,0.649,-111.177,-32.287,-9.03,
51171010,-0.592,0.136,0.598,-107.52,-14.227,-10.01,
51171020,-0.744,-0.064,0.504,-90.632,1.225,17.867,
51171030,-0.761,0.098,0.606,-69.282,14.472,15.627,
51171040,-0.92,0.073,0.622,-59.727,17.657,15.75,
51171050,-1.002,0.02,0.677,-48.02,11.095,5.757,
51171060,-1.027,-0.015,0.709,-32.847,-5.705,-6.387,
51171070,-0.929,0.018,0.744,-18.322,-25.952,-16.572,
51171080,-0.79,0.086,0.733,-10.832,-40.022,-24.675,
51171090,-0.655,0.123,0.716,-9.957,-43.4,-29.137,
51171100,-0.596,0.111,0.708,-11.13,-37.1,-28.087,
51171110,-0.611,0.086,0.685,-13.527,-27.58,-23.38,
51171120,-0.633,0.043,0.632,-12.81,-18.41,-18.445,
51171130,-0.626,0.065,0.672,-2.887,-10.237,-16.38,
51171140,-0.692,0.12,0.685,-8.382,-3.115,-10.622,
51171150,-0.735,0.088,0.679,-17.167,-1.872,-9.24,
51171160,-0.753,0.061,0.678,-22.785,-4.305,-10.36,
51171170,-0.76,0.043,0.666,-25.812,-10.132,-10.605,
51171180,-0.747,0.045,0.657,-24.902,-17.29,-12.057,
51171190,-0.725,0.056,0.654,-22.977,-25.83,-13.965,
51171200,-0.706,0.062,0.661,-21.63,-34.317,-16.065,
51171210,-0.692,0.056,0.677,-21.157,-42.962,-18.025,
51171220,-0.684,0.056,0.715,-21.682,-50.225,-19.407,
51171230,-0.682,0.038,0.754,-24.272,-56.105,-21.105,
51171240,-0.682,-0.003,0.78,-26.215,-60.182,-22.767,
51171250,-0.615,-0.044,0.837,-28.262,-59.43,-22.855,
51171260,-0.506,-0.133,0.763,-30.205,-46.06,-18.725,
51171270,-0.514,-0.085,0.851,-14.157,-20.475,-9.152,
51171280,-0.59,-0.102,0.869,0.14,4.287,2.012,
51171280,-0.771,-0.123,0.874,8.872,18.48,12.162,
51171300,-0.796,-0.089,0.849,17.92,12.985,18.97,
51171300,-0.708,-0.098,0.762,26.547,2.782,26.442,
51171320,-0.578,0.029,0.764,34.44,4.34,35.122,
51171320,-0.568,0.05,0.744,30.1,16.03,36.837,
51171330,-0.525,0.015,0.68,25.795,34.23,32.76,
51171340,-0.509,0.027,0.661,28.665,58.94,31.657,
51171350,-0.579,0.091,0.676,30.677,84.682,36.872,
51171360,-0.667,0.107,0.665,29.592,106.942,43.207,
51171370,-0.764,0.093,0.65,27.352,122.22,45.955,
51171380,-0.893,0.087,0.629,26.197,127.802,48.195,
51171390,-1.011,0.043,0.603,34.405,117.88,50.295,
51171400,-0.993,0.157,0.639,39.585,101.71,42.28,
51171410,-0.998,0.173,0.593,29.347,81.585,46.217,
51171420,-0.942,0.126,0.556,27.317,63.63,54.057,
51171430,-0.873,0.158,0.577,29.785,51.887,60.62,
51171440,-0.843,0.216,0.585,24.832,47.495,63.245,
51171450,-0.887,0.235,0.601,13.667,44.117,61.232,
51171460,-0.866,0.203,0.587,4.83,36.907,55.422,
51171470,-0.838,0.17,0.584,-0.21,29.137,51.607,
51171480,-0.843,0.186,0.573,-3.937,20.405,50.032,
51171490,-0.826,0.181,0.566,-3.062,9.292,48.527,
51171500,-0.816,0.158,0.53,-3.325,-1.225,48.282,
51171510,-0.766,0.159,0.525,-0.455,-8.522,50.995,
51171520,-0.769,0.139,0.542,6.072,-13.72,57.522,
51171530,-0.763,0.145,0.576,17.115,-16.082,64.277,
51171540,-0.748,0.197,0.605,21.105,-14.017,71.47,
51171550,-0.788,0.191,0.696,20.492,-10.99,78.452,
51171560,-0.984,0.178,0.717,20.44,-17.622,80.867,
51171570,-0.854,0.212,0.703,7.245,-39.55,74.48,
51171580,-0.748,0.122,0.599,2.047,-55.86,73.832,
51171590,-0.656,0.131,0.642,10.22,-61.477,75.18,
51171600,-0.662,0.14,0.637,14.42,-64.505,82.127,
51171610,-0.661,0.162,0.685,23.117,-62.947,88.077,
51171620,-0.67,0.191,0.709,27.982,-59.062,91.262,
51171630,-0.646,0.228,0.764,32.077,-53.987,91.945,
51171640,-0.633,0.271,0.802,30.852,-49.297,90.58,
51171650,-0.614,0.35,0.685,26.11,-44.38,84.84,
51171660,-0.488,0.563,0.63,17.745,-26.775,74.935,
51171670,-0.747,0.531,0.657,3.447,-8.33,60.252,
51171670,-0.93,0.443,0.654,-10.902,-15.767,40.145,
51171690,-0.956,0.432,0.639,-21.105,-54.827,29.662,
51171690,-0.883,0.467,0.637,-23.537,-101.657,29.732,
51171710,-0.754,0.475,0.617,-29.82,-138.302,29.067,
51171710,-0.673,0.43,0.579,-37.975,-157.902,23.59,
51171730,-0.35,0.474,0.544,-41.825,-158.025,16.747,
51171730,0.158,0.291,0.486,-49.035,-100.24,28.945,
51171750,-0.23,0.113,0.618,-34.457,7.332,52.08,
51171750,-0.789,0.281,0.8,-16.222,67.2,64.942,
51171760,-0.961,0.4,0.857,-12.337,67.55,75.757,
51171770,-0.991,0.429,0.918,-12.25,37.52,82.565,
51171780,-1.027,0.408,0.899,-13.702,-1.575,81.27,
51171790,-0.964,0.473,0.933,-18.27,-40.267,62.247,
51171800,-0.875,0.442,0.881,-33.565,-78.942,34.685,
51171810,-0.749,0.397,0.866,-42.245,-112.542,9.012,
51171820,-0.687,0.366,0.734,-49.717,-140.315,-9.1,
51171830,-0.648,0.364,0.733,-42.507,-160.265,-28.84,
51171840,-0.563,0.417,0.854,-39.392,-186.847,-44.502,
51171850,-0.334,0.376,0.799,-41.177,-201.267,-46.34,
51171860,-0.17,0.376,0.824,-34.545,-192.657,-45.43,
51171870,0.049,0.434,0.931,-30.485,-161.192,-46.13,
51171880,0.009,0.329,0.936,-31.762,-121.362,-42,
51171890,0.068,0.3,0.993,-32.707,-78.68,-35.997,
51171900,-0.089,0.309,0.937,-34.877,-41.492,-24.71,
51171910,-0.311,0.295,0.955,-39.025,-24.132,-22.575,
51171920,-0.447,0.299,0.941,-43.085,-29.697,-25.777,
51171930,-0.421,0.302,0.899,-40.337,-45.185,-28.437,
51171940,-0.413,0.342,0.851,-35.665,-54.775,-29.645,
51171950,-0.372,0.401,0.851,-35.857,-58.012,-33.197,
51171960,-0.385,0.373,0.788,-41.772,-52.78,-37.992,
51171970,-0.374,0.402,0.805,-52.99,-45.325,-46.025,
51171980,-0.307,0.363,0.804,-66.342,-36.907,-53.795,
51171990,-0.351,0.297,0.864,-70.49,-28.402,-57.47,
51172000,-0.475,0.246,0.902,-81.445,-33.11,-51.94,
51172010,-0.632,0.194,0.92,-88.602,-53.567,-48.335,
51172010,-0.77,0.154,0.885,-93.45,-86.082,-52.92,
51172030,-0.816,0.083,0.807,-96.267,-128.45,-61.337,
51172030,-0.769,0.018,0.723,-89.355,-175.77,-69.912,
51172050,-0.573,0.046,0.665,-74.515,-215.862,-70.052,
51172050,-0.279,0.084,0.638,-57.82,-237.475,-59.867,
51172070,0.019,0.138,0.643,-43.872,-232.942,-47.005,
51172070,0.151,0.143,0.681,-40.95,-204.715,-29.4,
51172080,0.091,0.082,0.713,-42.122,-169.47,-15.61,
51172090,0.096,0.047,0.782,-38.587,-146.93,-12.88,
51172100,0.216,0.021,0.827,-35.927,-134.225,-9.38,
51172110,0.326,-0.002,0.862,-28.595,-118.615,-3.062,
51172120,0.331,-0.025,0.847,-21.805,-98.875,7.07,
51172130,0.339,-0.026,0.857,-12.407,-79.117,13.317,
51172140,0.271,-0.033,0.812,-3.097,-63.945,20.387,
51172150,0.216,-0.006,0.751,7.717,-54.39,24.29,
51172160,0.204,0.095,0.788,13.912,-46.48,25.55,
51172170,0.241,0.057,0.769,9.642,-35.91,24.22,
51172180,0.343,-0.032,0.797,13.107,-14.98,15.207,
51172190,0.238,-0.113,0.871,20.947,10.027,7.49,
51172200,0.077,-0.165,0.931,38.745,22.312,-3.412,
51172210,0.044,-0.141,0.996,66.552,16.922,-13.457,
51172220,0.139,0.012,1.093,89.95,9.607,-13.195,
51172230,0.117,0.163,1.234,94.815,10.325,-2.887,
51172240,-0.074,0.263,1.21,84.07,9.852,1.767,
51172250,-0.152,0.246,1.075,64.365,-4.515,-9.222,
51172260,0.182,0.161,0.956,50.242,-11.882,-24.5,
51172270,0.314,0.16,0.946,55.142,1.085,-21.437,
51172280,0.211,0.192,0.924,59.85,23.485,-5.617,
51172290,0.154,0.283,0.926,64.085,42.735,3.622,
51172300,0.084,0.307,0.887,60.427,58.677,12.127,
51172310,0.005,0.36,0.895,53.637,71.19,16.362,
51172320,-0.103,0.376,0.83,39.795,77.63,24.972,
51172330,-0.154,0.402,0.778,27.335,84.14,32.147,
51172340,-0.16,0.445,0.834,16.362,91.717,37.45,
51172350,-0.206,0.389,0.883,-0.84,90.737,44.66,
51172360,-0.267,0.209,0.968,-15.33,77.542,45.36,
51172370,-0.212,0.13,1.034,-13.457,51.642,39.217,
51172380,0.09,0.122,1.086,-0.122,38.115,40.005,
51172390,0.216,0.202,1.169,8.435,60.882,43.085,
51172400,0.207,0.279,1.176,4.55,107.66,31.465,
51172410,0.063,0.233,1.121,-7,158.322,12.687,
51172420,-0.156,0.162,1.023,-16.17,193.9,0.56,
51172420,-0.378,0.125,0.936,-14.77,206.01,3.955,
51172440,-0.509,0.148,0.887,-3.692,198.205,15.802,
51172440,-0.622,0.194,0.864,7.42,179.077,29.382,
51172460,-0.851,0.222,0.842,12.372,141.96,37.292,
51172460,-0.955,0.175,0.795,13.667,76.44,39.532,
51172480,-0.692,0.089,0.733,25.182,4.112,47.372,
51172480,-0.332,0.08,0.68,47.722,-49.542,57.172,
51172500,-0.092,0.086,0.69,66.605,-78.347,62.125,
51172500,0.075,0.119,0.719,77.577,-85.61,59.395,
51172510,0.348,0.214,0.762,85.487,-71.785,49.035,
51172520,0.438,0.334,0.848,87.115,-30.712,39.147,
51172530,0.132,0.365,0.869,76.737,18.497,29.4,
51172540,-0.106,0.311,0.856,66.92,53.112,14.507,
51172550,-0.403,0.258,0.823,65.957,63.017,9.415,
51172560,-0.808,0.174,0.765,69.58,44.922,16.555,
51172570,-0.9,0.209,0.739,83.02,-0.7,16.975,
51172580,-0.831,0.374,0.723,91.087,-59.01,17.097,
51172590,-0.737,0.39,0.682,83.055,-108.762,16.782,
51172600,-0.404,0.484,0.828,78.662,-130.287,6.002,
51172610,-0.231,0.525,0.914,70.595,-127.89,-4.41,
51172620,-0.057,0.498,0.991,58.065,-108.85,-13.842,
51172630,0.21,0.568,1.072,49.35,-74.55,-20.072,
51172640,0.169,0.523,1.102,43.172,-32.672,-17.377,
51172650,0.054,0.414,1.056,36.102,-8.12,-3.377,
51172660,0.093,0.446,1.01,31.167,7.087,-1.085,
51172670,0.113,0.472,0.947,25.025,24.045,-5.862,
51172680,0.213,0.464,0.907,17.115,48.615,-12.53,
51172690,0.275,0.365,0.868,13.23,85.767,-27.947,
51172700,0.008,0.33,0.952,24.99,132.177,-42.647,
51172710,-0.875,0.762,0.957,28.245,140.192,-30.73,
51172720,-0.742,0.655,0.868,7.245,88.025,-30.607,
51172730,-0.384,0.563,0.875,9.852,43.522,-31.64,
51172740,-0.206,0.701,0.935,10.482,29.96,-19.687,
51172750,-0.038,0.688,0.921,0.875,42.875,-17.465,
51172760,-0.253,0.632,0.888,-6.142,65.555,-18.62,
51172760,-0.313,0.646,0.893,-9.152,69.335,-15.05,
51172780,-0.412,0.618,0.858,-13.16,55.807,-6.72,
51172780,-0.425,0.537,0.848,-17.552,32.83,-2.695,
51172800,-0.239,0.507,0.849,-17.657,11.077,-3.342,
51172800,-0.186,0.5,0.906,-15.767,5.04,-2.502,
51172820,-0.179,0.47,0.936,-18.987,10.08,-9.24,
51172820,-0.195,0.429,0.941,-26.11,18.917,-18.882,
51172830,-0.224,0.425,0.994,-33.39,30.065,-26.512,
51172840,-0.255,0.425,1.052,-44.065,40.74,-35.997,
51172850,-0.055,0.315,1.154,-59.832,56.805,-49.385,
51172860,0.096,0.16,1.189,-76.702,92.452,-58.432,
51172870,0.032,0.116,1.329,-87.675,136.552,-63.962,
51172880,0.006,0.039,1.221,-93.695,160.825,-65.835,
51172890,-0.335,-0.143,0.894,-97.615,171.57,-47.372,
51172900,-0.679,-0.305,0.726,-92.277,191.975,-52.552,
51172910,-0.783,-0.147,0.842,-65.275,184.87,-102.69,
51172920,-0.775,-0.031,0.842,-43.977,147.227,-129.64,
51172930,-0.793,0.008,0.77,-34.282,107.8,-135.082,
51172940,-0.837,0.052,0.7,-27.737,71.645,-139.3,
51172950,-0.814,0.091,0.649,-26.232,37.747,-147.087,
51172960,-0.705,0.203,0.63,-27.44,11.497,-155.382,
51172970,-0.655,0.263,0.607,-35.35,-3.762,-154.35,
51172980,-0.624,0.278,0.57,-45.57,-9.17,-146.702,
51172990,-0.533,0.31,0.566,-55.212,-5.32,-138.687,
51173000,-0.47,0.347,0.566,-67.707,6.842,-126.472,
51173010,-0.574,0.375,0.584,-80.85,18.707,-111.23,
51173020,-0.653,0.415,0.638,-100.712,24.29,-97.632,
51173030,-0.73,0.287,0.522,-122.237,24.272,-85.837,
51173040,-0.659,0.189,0.504,-112.105,26.547,-89.11,
51173050,-0.659,0.132,0.516,-101.36,30.362,-83.51,
51173060,-0.683,0.134,0.522,-93.362,35.507,-72.555,
51173070,-0.752,0.117,0.555,-81.777,36.767,-63.91,
51173080,-0.81,0.095,0.559,-73.675,30.117,-58.012,
51173090,-0.828,0.008,0.541,-59.08,16.992,-47.372,
51173100,-0.883,-0.099,0.54,-39.41,1.4,-28.91,
51173110,-0.941,-0.143,0.512,-14.227,-13.37,-24.727,
51173120,-0.844,-0.108,0.652,20.702,-20.352,-37.24,
51173130,-0.996,-0.096,0.693,42.56,-34.352,-5.477,
51173140,-0.93,-0.005,0.745,47.53,-50.102,-8.522,
51173150,-0.847,0.043,0.774,50.452,-58.082,-15.26,
51173160,-0.738,0.065,0.784,43.557,-58.012,-17.867,
51173170,-0.647,0.058,0.783,34.65,-49.472,-16.117,
51173170,-0.578,0.065,0.752,25.287,-32.095,-10.727,
51173190,-0.544,0.058,0.707,17.745,-8.68,-2.905,
51173190,-0.552,0.098,0.691,12.547,15.557,6.195,
51173210,-0.587,0.13,0.648,4.34,36.557,16.835,
51173210,-0.636,0.137,0.611,-0.805,53.13,29.522,
51173230,-0.69,0.152,0.577,-5.705,62.685,36.802,
51173230,-0.702,0.166,0.562,-7.367,66.57,36.102,
51173250,-0.719,0.17,0.548,-7.962,65.905,37.415,
51173250,-0.743,0.178,0.544,-11.532,61.04,38.902,
51173260,-0.774,0.174,0.555,-18.9,54.705,37.24,
51173270,-0.818,0.147,0.554,-27.51,46.55,31.15,
51173280,-0.853,0.118,0.578,-34.335,39.042,21.805,
51173290,-0.918,0.077,0.602,-40.932,27.597,12.197,
51173300,-0.959,0.049,0.601,-45.727,11.672,1.067,
51173310,-0.949,0.027,0.629,-44.747,-10.64,-10.325,
51173320,-0.92,-0.004,0.622,-39.602,-36.715,-17.867,
51173330,-0.847,-0.044,0.623,-29.995,-63.91,-22.015,
51173340,-0.706,-0.08,0.621,-15.627,-81.742,-22.662,
51173350,-0.534,-0.068,0.705,6.23,-86.047,-17.552,
51173360,-0.465,0.036,0.764,8.365,-75.565,-1.032,
51173370,-0.505,-0.012,0.738,2.485,-62.965,11.112,
51173380,-0.475,-0.099,0.746,11.795,-49.28,9.957,
51173390,-0.48,-0.136,0.788,26.792,-37.607,7.7,
51173400,-0.501,-0.145,0.836,40.897,-29.19,8.05,
51173410,-0.455,-0.121,0.902,52.535,-20.545,12.722,
51173420,-0.428,-0.168,0.942,56.507,-8.645,23.152,
51173430,-0.291,-0.148,0.941,59.552,21.437,34.265,
51173440,-0.492,-0.112,1.053,54.565,52.5,50.802,
51173450,-0.713,0,1.071,52.202,64.942,53.585,
51173460,-0.61,0.035,1.029,41.807,71.96,51.345,
51173470,-0.607,-0.025,0.935,26.547,89.547,50.89,
51173480,-0.676,-0.039,0.834,21.717,110.302,47.88,
51173490,-0.754,-0.026,0.759,24.062,126.315,49.542,
51173500,-0.805,-0.004,0.704,28.525,136.955,52.78,
51173510,-0.894,0.005,0.637,32.532,143.412,61.67,
51173510,-0.898,0.008,0.619,49.262,145.197,62.737,
51173530,-0.903,0.099,0.613,56.875,150.937,64.697,
51173530,-0.969,0.106,0.585,59.167,155.855,74.76,
51173550,-1.004,0.148,0.608,65.712,160.142,74.935,
51173550,-0.966,0.246,0.627,62.947,164.43,68.53,
51173570,-0.985,0.277,0.577,51.152,165.462,63.122,
51173570,-0.979,0.271,0.499,40.582,164.097,54.46,
51173580,-0.918,0.25,0.427,32.585,166.145,45.99,
51173590,-0.928,0.198,0.376,29.155,171.097,38.605,
51173600,-0.844,0.21,0.301,30.66,182.035,22.382,
51173610,-0.749,0.265,0.356,32.69,203.997,6.317,
51173620,-0.802,0.272,0.373,27.055,229.46,-8.592,
51173630,-0.892,0.278,0.295,18.34,248.71,-26.425,
51173640,-1.138,0.156,0.298,12.477,246.68,-36.802,
51173650,-1.284,-0.01,0.255,16.467,211.47,-38.307,
51173660,-1.014,0.048,0.242,50.102,169.435,-29.33,
51173670,-0.767,0.255,0.343,75.915,158.497,-16.712,
51173680,-0.68,0.438,0.312,57.557,172.165,-14.175,
51173690,-0.768,0.363,0.187,27.072,195.86,-10.972,
51173700,-1.023,0.25,0.08,-1.032,211.435,-7.787,
51173710,-1.195,0.126,-0.055,-22.557,206.045,-7.245,
51173720,-1.206,0.045,-0.122,-19.442,192.517,-6.947,
51173730,-1.224,0.041,-0.159,-13.282,172.182,-3.08,
51173740,-1.176,0.082,-0.169,-6.877,154.192,-2.642,
51173750,-1.235,0.138,-0.185,2.432,133.962,1.05,
51173760,-1.303,0.205,-0.095,7.437,106.417,0.14,
51173770,-1.148,0.182,-0.145,0.612,77.297,-7.612,
51173780,-0.985,0.175,-0.109,-0.787,60.865,-12.285,
51173790,-0.928,0.159,-0.156,-9.782,54.477,-15.347,
51173800,-0.908,0.134,-0.178,-11.217,48.44,-18.165,
51173810,-0.88,0.172,-0.136,-4.9,38.045,-13.65,
51173820,-0.91,0.134,-0.166,-1.015,22.872,-0.315,
51173830,-0.993,0.15,-0.087,14.192,3.255,6.842,
51173840,-1.062,0.143,-0.039,22.732,-23.94,11.462,
51173850,-1.05,0.138,0.007,31.85,-57.015,19.197,
51173860,-0.969,0.175,0.05,36.592,-85.347,28.752,
51173870,-0.874,0.242,0.072,33.565,-97.055,35.175,
51173880,-0.842,0.234,0.054,27.072,-93.415,35.647,
51173890,-0.822,0.25,0.027,22.557,-78.925,28.017,
51173900,-0.796,0.279,0.01,17.745,-58.922,17.727,
51173910,-0.878,0.302,-0.208,7.385,-23.03,9.065,
51173920,-1.373,0.175,-0.314,-16.59,-21.805,-13.947,
51173920,-0.983,0.086,-0.31,-10.202,-43.47,-27.527,
51173940,-1.051,0.167,-0.251,11.13,-62.002,-6.282,
51173940,-1.489,0.197,-0.22,22.067,-96.845,10.01,
51173960,-1.499,0.194,-0.22,35.07,-163.73,17.395,
51173960,-1.182,0.161,-0.223,51.695,-229.967,36.715,
51173980,-1.019,0.186,-0.105,71.12,-270.83,60.69,
51173980,-0.955,0.24,0.004,82.022,-291.305,72.905,
51173990,-0.695,0.294,0.209,91.647,-292.092,78.365,
51174000,-0.54,0.36,0.375,94.605,-274.19,82.53,
51174010,-0.088,0.391,0.556,90.055,-211.942,86.362,
51174020,-0.748,0.357,0.75,64.557,-109.62,74.55,
51174030,-0.703,0.444,0.623,40.32,-54.092,30.905,
51174040,-0.608,0.515,0.448,26.985,-21.262,11.882,
51174050,-0.668,0.552,0.312,4.427,5.862,5.547,
51174060,-0.819,0.497,0.272,-19.18,22.207,-0.752,
51174070,-0.89,0.303,0.176,-42.595,26.495,-10.377,
51174080,-0.82,0.269,0.193,-51.432,33.652,-21.385,
51174090,-0.862,0.334,0.264,-60.042,41.002,-28,
51174100,-0.968,0.281,0.28,-75.337,37.607,-24.325,
51174110,-1.011,0.081,0.294,-83.405,25.182,-10.465,
51174120,-1.076,-0.02,0.236,-72.887,12.46,1.942,
51174130,-1.131,0.151,0.155,-53.095,-1.19,5.775,
51174140,-1.139,0.242,0.047,-47.425,-13.405,2.607,
51174150,-1.313,0.206,-0.034,-47.127,-36.662,-1.557,
51174160,-1.353,0.196,-0.069,-36.312,-78.977,-2.572,
51174170,-1.368,0.252,0.027,-26.355,-129.535,4.952,
51174180,-1.324,0.242,0.164,-22.225,-177.467,12.652,
51174190,-1.075,0.243,0.296,-19.95,-210.612,17.587,
51174200,-0.95,0.247,0.383,-21.297,-219.922,26.792,
51174210,-0.8,0.232,0.396,-26.11,-214.112,32.34,
51174220,-0.534,0.267,0.452,-24.622,-192.675,37.467,
51174230,-0.512,0.269,0.451,-22.155,-159.74,45.535,
51174240,-0.548,0.283,0.409,-15.54,-129.482,46.882,
51174250,-0.617,0.295,0.423,-5.39,-112.122,49.472,
51174260,-0.927,0.266,0.501,5.197,-116.69,51.817,
51174260,-1.125,0.361,0.517,13.615,-160.457,53.62,
51174280,-1.073,0.476,0.508,14.98,-214.27,62.212,
51174280,-0.992,0.415,0.544,10.395,-243.512,56.805,
51174300,-0.738,0.358,0.619,7.682,-251.317,38.482,
51174300,-0.502,0.321,0.752,12.127,-232.365,30.31,
51174320,-0.446,0.325,0.803,19.46,-195.212,26.687,
51174320,-0.487,0.488,0.825,23.625,-159.11,22.82,
51174330,-0.489,0.423,0.767,17.78,-129.255,16.292,
51174340,-0.552,0.389,0.747,18.252,-101.675,6.44,
51174350,-0.541,0.363,0.787,19.722,-79.17,-1.172,
51174360,-0.531,0.363,0.858,22.557,-56.07,-9.1,
51174370,-0.636,0.366,0.894,20.16,-40.285,-13.492,
51174380,-0.648,0.334,0.819,16.152,-39.462,-15.522,
51174390,-0.601,0.349,0.725,17.15,-46.935,-12.617,
51174400,-0.576,0.37,0.671,18.322,-59.745,-7.91,
51174410,-0.525,0.358,0.651,18.147,-80.867,-1.592,
51174420,-0.466,0.355,0.643,17.797,-101.71,8.137,
51174430,-0.238,0.383,0.683,16.852,-111.457,10.815,
51174440,-0.092,0.343,0.715,13.335,-98.682,9.1,
51174450,-0.267,0.341,0.779,9.117,-70.28,5.005,
51174460,-0.416,0.402,0.794,2.572,-50.522,0,
51174470,-0.387,0.366,0.762,-2.607,-37.345,-3.57,
51174480,-0.313,0.323,0.685,-4.725,-19.337,-10.727,
51174490,-0.316,0.29,0.724,-8.05,1.172,-15.732,
51174500,-0.31,0.368,0.726,-10.78,17.395,-16.275,
51174510,-0.242,0.319,0.676,-19.162,33.932,-18.655,
51174520,-0.4,0.22,0.586,-29.47,44.03,-22.417,
51174530,-0.4,0.187,0.57,-28.122,43.365,-17.762,
51174540,-0.364,0.2,0.653,-19.005,43.82,-4.707,
51174550,-0.451,0.304,0.742,-11.217,42.245,5.932,
51174560,-0.48,0.333,0.794,-13.142,42.122,9.537,
51174570,-0.49,0.131,0.944,-17.64,45.36,6.51,
51174580,0.703,-0.046,1.316,13.247,47.512,-15.61,
51174590,-0.228,0.73,1.176,34.405,86.345,-1.312,
51174600,-0.95,-0.118,0.802,-42.805,109.147,-42.175,
51174610,-0.59,0.039,0.886,-7.77,63.42,-67.585,
51174620,-0.539,0.201,0.76,16.94,28.927,-36.05,
51174630,-0.538,0.229,0.689,21.07,36.295,-34.212,
51174640,-0.569,0.42,0.634,19.74,64.855,-46.34,
51174650,-0.685,0.382,0.524,6.3,94.185,-42.805,
51174660,-0.82,0.414,0.495,-1.225,110.232,-29.382,
51174660,-0.837,0.421,0.486,-8.785,117.355,-20.65,
51174670,-0.814,0.487,0.539,-16.642,117.197,-16.695,
51174680,-1.012,0.446,0.586,-21.122,98.752,-12.39,
51174690,-1.125,0.55,0.734,-18.83,48.912,-3.867,
51174700,-0.91,0.621,0.774,-29.645,-14.455,7.892,
51174710,-0.58,0.676,0.803,-45.762,-56.56,12.197,
51174720,-0.418,0.667,0.806,-67.882,-72.8,7.087,
51174730,-0.318,0.595,0.79,-92.12,-78.54,-6.125,
51174740,-0.334,0.487,0.781,-107.905,-81.952,-18.41,
51174750,-0.478,0.283,0.662,-114.082,-90.317,-32.602,
51174760,-0.684,0.031,0.533,-104.16,-98.63,-60.515,
51174770,-0.813,0.009,0.592,-78.242,-110.705,-103.39,
51174780,-0.845,0.144,0.664,-60.007,-132.842,-147.14,
51174790,-0.765,0.248,0.707,-60.357,-158.917,-180.792,
51174800,-0.534,0.259,0.666,-70.192,-177.712,-198.257,
51174810,-0.34,0.196,0.599,-82.005,-182.91,-196.35,
51174820,-0.225,0.064,0.571,-84.402,-171.745,-175.21,
51174830,-0.314,-0.065,0.583,-76.405,-151.427,-140.98,
51174840,-0.404,-0.123,0.642,-60.462,-132.37,-101.605,
51174850,-0.566,-0.135,0.723,-44.03,-117.687,-59.535,
51174860,-0.709,-0.123,0.837,-29.207,-107.502,-29.12,
51174870,-0.756,-0.094,0.946,-16.555,-102.182,-12.6,
51174880,-0.833,-0.074,1.05,-10.885,-99.505,-4.532,
51174890,-0.855,-0.074,1.108,-15.47,-96.162,-8.085,
51174900,-0.807,-0.073,1.137,-23.467,-93.905,-16.065,
51174910,-0.767,-0.077,1.116,-32.515,-93.45,-20.86,
51174920,-0.607,-0.075,1.09,-38.92,-86.782,-21,
51174930,-0.381,-0.109,1.077,-38.955,-62.772,-11.795,
51174940,-0.23,-0.073,1.106,-33.302,-18.637,-11.742,
51174950,-0.34,-0.028,1.15,-25.55,24.412,-11.322,
51174960,-0.431,0.037,1.12,-26.162,52.237,-10.797,
51174970,-0.447,0.084,1.069,-36.312,64.592,-11.532,
51174980,-0.444,0.064,1.009,-51.712,69.842,-12.915,
51174990,-0.454,-0.055,0.845,-58.065,71.435,-15.365,
51175000,-0.415,-0.094,0.884,-34.51,71.19,-18.69,
51175010,-0.451,-0.039,0.833,-25.795,68.53,-10.237,
51175010,-0.5,-0.03,0.815,-14.962,60.76,-4.007,
51175030,-0.558,-0.056,0.807,-0.945,48.142,3.08,
51175030,-0.596,-0.087,0.782,15.33,30.012,17.395,
51175050,-0.602,-0.081,0.812,36.767,13.125,27.912,
51175050,-0.595,-0.01,0.864,53.9,-1.82,33.285,
51175070,-0.605,0.059,0.907,58.362,-12.53,35.962,
51175070,-0.591,0.094,0.911,53.007,-20.142,35.927,
51175080,-0.521,0.099,0.893,43.207,-24.552,35.35,
51175090,-0.468,0.078,0.885,37.047,-25.182,39.812,
51175100,-0.426,0.095,0.881,29.26,-21.892,50.032,
51175110,-0.394,0.134,0.859,19.18,-13.912,58.555,
51175120,-0.369,0.175,0.827,6.16,1.75,62.615,
51175130,-0.395,0.177,0.805,-6.842,20.125,64.592,
51175140,-0.415,0.179,0.791,-21.717,37.607,62.772,
51175150,-0.438,0.15,0.788,-34.825,50.872,58.765,
51175160,-0.467,0.131,0.742,-47.04,59.762,54.18,
51175170,-0.481,0.091,0.704,-52.745,65.73,50.26,
51175180,-0.487,0.072,0.683,-55.055,71.26,47.355,
51175190,-0.509,0.053,0.72,-52.937,72.362,42.262,
51175200,-0.542,0.035,0.757,-50.89,67.515,38.29,
51175210,-0.556,0.01,0.806,-48.002,57.732,34.79,
51175220,-0.562,0,0.852,-46.69,46.357,31.185,
51175230,-0.592,-0.004,0.867,-48.737,33.442,26.39,
51175240,-0.588,-0.023,0.871,-50.33,19.547,19.022,
51175250,-0.568,-0.033,0.867,-51.555,5.302,13.195,
51175260,-0.524,-0.034,0.86,-51.712,-7.42,9.817,
51175270,-0.489,-0.056,0.848,-50.085,-16.572,10.797,
51175280,-0.465,-0.07,0.868,-48.422,-20.982,11.83,
51175290,-0.434,-0.103,0.847,-47.46,-21.805,8.715,
51175300,-0.394,-0.148,0.814,-44.152,-15.785,0.507,
51175310,-0.376,-0.133,0.829,-41.3,-3.675,-7,
51175320,-0.401,-0.137,0.873,-38.01,7.56,-11.637,
51175330,-0.464,-0.156,0.87,-38.832,14.787,-13.125,
51175330,-0.513,-0.165,0.86,-37.87,18.55,-14.647,
51175350,-0.532,-0.181,0.861,-33.757,19.057,-13.632,
51175350,-0.582,-0.217,0.846,-33.18,15.68,-9.415,
51175370,-0.605,-0.292,0.851,-23.94,10.465,-6.09,
51175370,-0.608,-0.237,0.86,-8.802,7.787,-2.397,
51175390,-0.665,-0.155,0.942,0,0.017,-0.227,
51175390,-0.602,-0.143,0.955,0.892,-7.245,0.017,
51175410,-0.587,-0.167,0.916,-7.28,-8.855,-0.28,
51175410,-0.575,-0.18,0.867,-14.927,-5.04,-5.582,
51175420,-0.533,-0.165,0.825,-15.032,1.382,-10.867,
51175430,-0.562,-0.122,0.83,-14.84,5.985,-10.972,
51175440,-0.597,-0.107,0.828,-12.915,6.912,-7.84,
51175450,-0.546,-0.1,0.808,-11.917,4.095,-3.237,
51175460,-0.485,-0.095,0.802,-12.687,6.107,3.78,
51175470,-0.418,-0.063,0.816,-17.517,16.625,8.26,
51175480,-0.396,-0.085,0.717,-26.057,33.845,8.452,
51175490,-0.485,-0.055,0.799,-24.447,55.247,7.087,
51175500,-0.656,-0.16,0.674,-32.62,57.12,5.495,
51175510,-0.559,-0.271,0.805,-28.507,57.225,1.365,
51175520,-0.534,-0.216,0.833,-1.54,51.537,-1.802,
51175530,-0.569,-0.1,0.818,9.17,44.59,2.782,
51175540,-0.552,-0.074,0.81,7.892,47.722,0.245,
51175550,-0.586,-0.14,0.735,5.11,52.115,-6.562,
51175560,-0.574,-0.131,0.747,4.55,57.47,-13.492,
51175570,-0.638,-0.116,0.812,2.205,60.515,-14.805,
51175580,-0.856,-0.158,0.775,-7.332,53.235,-11.55,
51175590,-1.054,-0.24,0.769,-13.825,28.455,-12.04,
51175600,-0.989,-0.221,0.725,-9.31,-4.532,-11.077,
51175610,-1.008,-0.221,0.73,-3.99,-37.467,-1.89,
51175620,-0.845,-0.189,0.678,1.907,-57.54,2.397,
51175630,-0.883,-0.144,0.694,5.197,-73.01,7.717,
51175640,-0.792,-0.084,0.805,4.48,-83.44,10.955,
51175650,-0.769,-0.064,0.848,-1.33,-93.187,17.535,
51175660,-0.672,-0.026,0.88,-5.46,-99.137,25.865,
51175670,-0.584,0.077,1.006,-8.505,-102.847,28.332,
51175680,-0.411,0.086,1.036,-17.622,-95.287,27.527,
51175690,-0.401,0.039,0.995,-29.907,-84.875,28.98,
51175700,-0.427,-0.002,0.925,-40.075,-81.567,36.015,
51175710,-0.318,-0.002,0.925,-44.73,-73.937,37.17,
51175720,-0.311,0.046,0.891,-53.655,-63.402,27.527,
51175730,-0.35,0.09,1.015,-64.977,-49.612,14.14,
51175740,-0.594,0.011,0.983,-87.745,-36.89,6.79,
51175750,-0.693,-0.12,0.897,-101.43,-42.84,-2.275,
51175760,-0.642,-0.133,0.878,-105.14,-54.39,-0.717,
51175760,-0.641,-0.145,0.805,-107.852,-65.467,2.415,
51175780,-0.587,-0.13,0.737,-105.63,-79.152,1.837,
51175780,-0.432,-0.204,0.731,-103.95,-85.855,3.307,
51175800,-0.364,-0.264,0.76,-101.01,-79.66,0.927,
51175800,-0.354,-0.286,0.766,-96.267,-71.067,-6.317,
51175820,-0.426,-0.278,0.783,-93.73,-67.76,-9.642,
51175820,-0.509,-0.262,0.788,-96.635,-71.662,-12.285,
51175830,-0.582,-0.286,0.785,-100.642,-81.165,-16.59,
51175840,-0.536,-0.277,0.742,-100.922,-90.772,-26.547,
51175850,-0.598,-0.297,0.649,-103.775,-103.442,-35.56,
51175860,-0.515,-0.225,0.467,-93.292,-129.132,-46.935,
51175870,-0.28,-0.174,0.605,-84.315,-151.865,-47.127,
51175880,-0.2,-0.209,0.658,-91.402,-164.045,-39.235,
51175890,0.117,-0.418,0.922,-100.362,-156.345,-32.182,
51175900,0.049,-0.596,1.074,-95.865,-134.295,-24.062,
51175910,0.191,-0.511,1.147,-87.727,-106.102,-7.63,
51175920,0.32,-0.264,1.186,-91.595,-62.335,-5.635,
51175930,0.151,-0.424,1.166,-114.712,-9.765,-2.782,
51175940,0.371,-0.558,0.956,-121.73,33.617,-23.38,
51175950,0.23,-0.507,0.827,-113.715,74.445,-23.135,
51175960,-0.055,-0.454,0.706,-104.79,112.402,3.972,
51175970,-0.073,-0.42,0.637,-97.475,133.787,4.252,
51175980,-0.307,-0.568,0.532,-90.23,141.61,5.057,
51175990,-0.613,-0.617,0.468,-83.912,129.85,9.975,
51176000,-0.751,-0.74,0.389,-69.545,97.912,15.015,
51176010,-0.895,-0.808,0.405,-48.93,61.285,20.16,
51176020,-0.922,-0.841,0.445,-29.872,19.162,23.975,
51176030,-0.701,-0.846,0.606,-9.59,-17.307,25.655,
51176040,-0.426,-0.753,0.751,2.572,-33.705,20.335,
51176050,-0.241,-0.643,0.832,4.462,-31.395,13.44,
51176060,-0.154,-0.582,0.821,1.942,-23.205,9.8,
51176070,-0.027,-0.51,0.792,1.732,-10.36,10.5,
51176080,0.039,-0.477,0.761,1.015,11.042,15.015,
51176080,-0.013,-0.535,0.674,-6.965,38.115,19.32,
51176100,-0.19,-0.547,0.601,-10.255,53.602,27.86,
51176100,-0.293,-0.514,0.632,-1.26,55.3,34.825,
51176120,-0.572,-0.577,0.687,6.79,40.127,40.635,
51176120,-0.576,-0.535,0.764,12.652,13.142,39.97,
51176140,-0.517,-0.531,0.876,16.1,4.357,38.29,
51176140,-0.583,-0.507,0.941,11.357,10.36,26.425,
51176160,-0.452,-0.523,0.94,3.517,14.787,15.155,
51176160,-0.287,-0.51,0.925,-0.455,25.042,8.697,
51176170,-0.401,-0.499,0.926,-6.335,41.947,2.065,
51176180,-0.534,-0.455,0.822,-20.02,53.812,-8.715,
51176190,-0.698,-0.529,0.58,-24.937,36.295,-11.392,
51176200,-0.505,-0.545,0.52,-17.64,0.717,2.362,
51176210,-0.388,-0.504,0.607,-8.82,-20.142,11.987,
51176220,-0.418,-0.543,0.625,-6.65,-27.02,11.567,
51176230,-0.234,-0.617,0.702,-2.852,-29.89,15.802,
51176240,-0.254,-0.595,0.812,5.775,-18.742,21.385,
51176250,-0.425,-0.555,0.8,3.78,-10.237,25.077,
51176260,-0.455,-0.588,0.757,-0.175,-10.43,24.972,
51176270,-0.422,-0.58,0.77,0.892,-7.262,23.485,
51176280,-0.347,-0.569,0.822,0.945,6.667,18.515,
51176290,-0.361,-0.539,0.839,-0.927,26.827,12.985,
51176300,-0.442,-0.496,0.766,-5.775,36.137,9.012,
51176310,-0.502,-0.54,0.638,-8.505,22.785,10.482,
51176320,-0.63,-0.537,0.545,-5.88,-9.992,19.25,
51176330,-0.712,-0.547,0.505,-2.1,-51.625,25.987,
51176340,-0.821,-0.567,0.538,6.737,-89.127,26.232,
51176350,-1.144,-0.566,0.674,11.375,-142.205,29.767,
51176360,-1.011,-0.567,0.896,12.705,-206.605,30.59,
51176370,-0.274,-0.645,0.877,16.1,-243.967,27.177,
51176380,1.163,-0.697,0.862,30.87,-192.43,30.205,
51176390,1.017,-0.444,0.782,43.697,-65.817,36.435,
51176400,0.264,-0.473,0.626,23.24,23.082,43.242,
51176410,0.197,-0.57,0.603,17.867,59.885,48.842,
51176420,0.018,-0.505,0.67,30.327,101.885,48.09,
51176430,-0.5,-0.435,0.81,32.865,132.825,40.932,
51176440,-0.819,-0.436,0.755,34.632,123.042,42.42,
51176450,-0.71,-0.282,0.809,43.032,98.35,39.007,
51176460,-0.474,-0.251,0.812,43.155,87.237,34.702,
51176470,-0.537,-0.328,0.783,38.395,95.777,31.675,
51176480,-0.849,-0.416,0.71,38.325,82.6,36.925,
51176490,-0.799,-0.418,0.68,41.965,43.715,47.687,
51176500,-0.554,-0.404,0.714,45.045,14.752,51.38,
51176510,-0.743,-0.429,0.669,43.592,-8.19,54.88,
51176510,-0.736,-0.492,0.656,42.91,-44.712,65.625,
51176530,-0.399,-0.45,0.826,49.7,-63.542,66.797,
51176530,-0.121,-0.458,0.851,52.167,-44.1,61.705,
51176550,-0.186,-0.417,0.791,54.495,1.102,53.882,
51176550,-0.307,-0.335,0.761,54.495,35.507,47.11,
51176570,-0.264,-0.302,0.772,56.665,63.822,36.522,
51176570,-0.297,-0.342,0.704,60.812,100.38,25.287,
51176580,-0.57,-0.389,0.58,67.55,132.37,17.325,
51176590,-0.502,-0.355,0.516,73.377,147,9.712,
51176600,-0.533,-0.488,0.419,100.222,161.245,18.707,
51176610,-0.926,-0.101,0.732,129.43,159.495,40.53,
51176620,-1.753,-0.015,0.862,100.782,107.24,33.215,
51176630,-1.749,-0.023,1,61.005,9.66,17.08,
51176640,-1.424,0.09,1.151,29.697,-74.602,-8.925,
51176650,-0.971,-0.024,1.075,-7.98,-131.145,-30.555,
51176660,-0.868,-0.121,1.002,-31.675,-170.345,-33.022,
51176670,-0.823,-0.147,1.061,-36.732,-209.44,-15.662,
51176680,-0.996,-0.158,0.99,-34.16,-258.072,17.29,
51176690,0.165,-0.356,0.923,-33.897,-278.67,33.057,
51176700,0.566,-0.186,1.056,-15.155,-201.302,23.59,
51176710,0.244,-0.341,0.828,-38.36,-113.907,8.837,
51176720,0.33,-0.454,0.733,-43.767,-54.985,5.6,
51176730,0.167,-0.37,0.728,-34.58,5.845,3.307,
51176740,-0.177,-0.508,0.669,-32.147,59.71,-10.062,
51176750,-0.476,-0.47,0.555,-23.712,76.422,-14.525,
51176760,-0.511,-0.411,0.463,-11.007,66.762,-11.287,
51176770,-0.572,-0.383,0.519,3.605,48.912,-7.28,
51176780,-0.327,-0.29,0.607,17.85,40.302,-2.047,
51176790,-0.347,-0.166,0.787,29.015,64.505,-12.705,
51176800,-0.678,-0.317,0.865,21.017,73.587,-15.785,
51176810,-0.791,-0.311,0.904,24.99,53.69,-6.335,
51176820,-1.295,-0.229,0.97,28.35,10.972,3.045,
51176830,-1.508,-0.335,0.927,17.867,-71.487,13.772,
51176830,-0.813,-0.256,0.984,24.762,-150.027,21.49,
51176850,-0.64,-0.091,1.076,26.827,-197.627,31.64,
51176850,0.321,-0.141,0.882,14.14,-205.1,30.992,
51176870,0.32,-0.119,0.929,15.347,-137.515,12.092,
51176870,-0.333,-0.267,0.806,-2.87,-96.582,10.01,
51176890,0.041,-0.373,0.807,0.787,-92.592,25.077,
51176890,-0.113,-0.333,0.917,17.045,-60.305,33.705,
51176910,-0.017,-0.38,0.937,17.867,-25.34,30.572,
51176910,0.288,-0.261,0.995,15.96,24.447,17.132,
51176920,0.078,-0.312,0.743,6.79,96.985,-2.642,
51176930,-0.039,-0.31,0.568,8.4,157.307,-29.155,
51176940,0.067,-0.195,0.568,16.275,196.91,-36.767,
51176950,0.081,-0.018,0.635,18.007,241.36,-49.017,
51176960,0.042,0.093,0.822,1.365,298.2,-86.817,
51176970,-0.215,-0.303,0.584,-9.31,363.492,-110.88,
51176980,-1.715,-0.719,0.527,61.775,335.16,-23.695,
51176990,-1.998,0.032,0.65,33.232,162.067,15.155,
51177000,-1.489,-0.063,0.421,8.942,2.152,11.55,
51177010,-0.717,-0.246,0.773,37.38,-60.83,-11.427,
51177020,-0.531,-0.184,0.989,22.295,-50.085,-12.145,
51177030,-0.566,-0.231,1.247,16.782,-31.132,-19.127,
51177040,-0.434,-0.226,1.253,-1.172,-20.317,-24.902,
51177050,-0.4,-0.216,1.094,-16.45,-4.042,-24.675,
51177060,-0.578,-0.219,0.842,-24.71,6.965,-22.417,
51177070,-0.605,-0.344,0.54,-29.785,-6.755,-18.917,
51177080,-0.521,-0.35,0.514,-22.715,-11.987,-14.49,
51177090,-0.726,-0.296,0.626,-16.152,-14.822,-8.207,
51177100,-0.64,-0.249,0.604,-18.392,-32.585,-2.117,
51177110,-0.824,-0.327,0.78,-21.07,-45.167,12.53,
51177120,-0.836,-0.242,0.928,-15.995,-98.717,22.75,
51177130,-0.277,-0.328,1.051,-16.31,-149.817,49.42,
51177140,-0.359,-0.221,1.201,-11.62,-163.87,74.147,
51177150,-0.628,-0.067,1.131,-31.745,-184.17,87.202,
51177160,-0.001,-0.164,0.946,-48.265,-193.235,78.242,
51177170,0.692,-0.193,0.875,-34.895,-123.672,60.602,
51177180,0.11,-0.078,0.701,-27.685,-22.925,40.407,
51177190,0.071,-0.213,0.597,-37.537,53.357,24.395,
51177200,-0.483,-0.338,0.597,-38.185,109.987,8.067,
51177210,-0.915,-0.471,0.463,-33.215,118.09,5.565,
51177220,-1.205,-0.612,0.71,10.955,86.537,28.332,
51177230,-1.058,-0.276,0.786,11.217,41.58,19.145,
51177240,-0.906,-0.25,0.748,2.31,-0.385,8.767,
51177250,-0.785,-0.249,0.775,-1.785,-34.615,0.84,
51177260,-0.517,-0.269,0.832,-1.802,-54.495,1.4,
51177260,-0.421,-0.197,0.942,0.525,-56.577,-0.472,
51177280,-0.75,-0.33,0.988,-5.337,-73.867,3.552,
51177280,-0.697,-0.321,1.093,-4.62,-120.155,13.912,
51177300,-0.364,-0.258,1.121,1.435,-157.412,20.702,
51177300,0.033,-0.309,1.003,-0.472,-146.317,10.185,
51177320,0.151,-0.246,0.89,-4.287,-91.805,-8.767,
51177320,-0.122,-0.237,0.877,-15.89,-29.627,-24.937,
51177330,-0.124,-0.224,0.897,-28.157,10.395,-36.225,
51177340,-0.251,-0.167,0.994,-39.305,44.957,-44.362,
51177350,-0.438,-0.154,1.095,-60.672,71.977,-60.567,
51177360,-0.655,-0.267,1.067,-84.665,81.847,-72.502,
51177370,-0.817,-0.355,0.851,-99.697,74.742,-69.3,
51177380,-0.92,-0.441,0.801,-75.635,56.017,-66.762,
51177390,-0.806,-0.271,0.697,-68.425,31.64,-71.102,
51177400,-0.67,-0.245,0.609,-65.887,8.242,-71.767,
51177410,-0.594,-0.384,0.523,-52.745,-12.985,-57.33,
51177420,-0.465,-0.442,0.501,-32.41,-28.787,-41.825,
51177430,-0.346,-0.398,0.563,-9.45,-31.29,-32.34,
51177440,-0.293,-0.341,0.723,0.245,-23.957,-29.207,
51177450,-0.252,-0.37,0.812,-0.875,-14.297,-28.14,
51177460,-0.251,-0.443,0.858,-6.317,-3.745,-22.575,
51177470,-0.286,-0.5,0.882,-8.645,5.32,-20.002,
51177480,-0.339,-0.533,0.908,-6.947,13.422,-19.53,
51177490,-0.317,-0.544,0.954,-2.345,18.042,-23.135,
51177500,-0.316,-0.536,0.917,1.767,24.692,-28.052,
51177510,-0.329,-0.518,0.92,4.322,33.005,-32.34,
51177520,-0.341,-0.548,0.842,3.85,41.562,-36.925,
51177530,-0.288,-0.545,0.804,7.227,52.237,-43.487,
51177540,-0.297,-0.617,0.736,12.932,59.797,-39.165,
51177550,-0.272,-0.65,0.642,30.45,63.315,-28.665,
51177560,-0.196,-0.58,0.662,56.84,73.955,-3.64,
51177570,-0.329,-0.612,0.65,76.772,93.135,25.217,
51177580,-0.461,-0.594,0.72,103.267,99.365,32.602,
51177580,-0.512,-0.492,0.762,123.952,95.567,36.61,
51177600,-0.607,-0.399,0.794,138.407,87.377,41.825,
51177600,-0.614,-0.38,0.772,151.655,77.105,37.922,
51177620,-0.543,-0.391,0.744,166.005,68.547,29.592,
51177620,-0.526,-0.353,0.742,181.212,63.63,30.205,
51177640,-0.579,-0.249,0.78,190.365,60.69,30.502,
51177640,-0.614,-0.134,0.799,189.927,55.877,23.73,
51177660,-0.634,-0.08,0.814,179.41,48.142,14.28,
51177660,-0.666,-0.065,0.787,163.992,41.107,3.412,
51177670,-0.686,-0.055,0.733,150.605,31.727,-7.035,
51177680,-0.67,-0.022,0.697,140.84,18.025,-13.807,
51177690,-0.644,0.017,0.686,130.777,2.415,-15.977,
51177700,-0.622,0.04,0.709,117.25,-10.57,-16.607,
51177710,-0.593,0.048,0.712,103.302,-21.07,-19.145,
51177720,-0.557,0.048,0.709,92.785,-28.07,-21.84,
51177730,-0.521,0.052,0.718,84.875,-31.342,-23.432,
51177740,-0.47,0.076,0.749,75.092,-28.052,-24.36,
51177750,-0.45,0.07,0.785,63.455,-20.125,-26.757,
51177760,-0.443,0.039,0.804,53.217,-9.572,-31.99,
51177770,-0.401,0.03,0.803,40.547,0.98,-38.587,
51177780,-0.407,-0.015,0.8,33.792,9.292,-42.385,
51177790,-0.469,-0.038,0.794,31.167,11.672,-40.127,
51177800,-0.527,-0.05,0.793,30.485,8.435,-34.86,
51177810,-0.573,-0.057,0.819,36.855,1.242,-30.642,
51177820,-0.563,-0.048,0.816,40.985,-8.015,-29.96,
51177830,-0.564,-0.059,0.814,43.435,-13.492,-31.045,
51177840,-0.572,-0.064,0.83,44.065,-15.837,-34.545,
51177850,-0.594,-0.05,0.883,43.785,-19.022,-38.64,
51177860,-0.585,0.005,0.914,36.417,-21.752,-44.782,
51177870,-0.571,-0.012,0.914,27.055,-23.502,-49.682,
51177880,-0.511,-0.002,0.937,16.677,-20.177,-52.5,
51177890,-0.554,0.014,0.937,-2.397,-12.25,-54.67,
51177900,-0.622,-0.01,0.936,-17.885,-7.945,-60.637,
51177910,-0.589,-0.01,0.921,-28.42,-10.587,-67.655,
51177920,-0.511,0.023,0.864,-41.352,-14.192,-67.042,
51177930,-0.495,-0.027,0.813,-47.6,-14.105,-56.892,
51177940,-0.484,-0.054,0.771,-47.005,-9.677,-45.955,
51177950,-0.45,-0.048,0.746,-42.787,-2.362,-34.492,
51177960,-0.466,-0.044,0.73,-40.81,8.015,-24.92,
51177970,-0.502,0.012,0.711,-38.78,18.077,-18.2,
51177980,-0.549,-0.007,0.732,-36.575,25.742,-13.405,
51177990,-0.571,-0.026,0.728,-35,33.04,-12.845,
51178000,-0.602,-0.028,0.757,-29.505,38.132,-16.31,
51178010,-0.658,-0.028,0.771,-26.932,38.64,-19.74,
51178010,-0.741,-0.092,0.822,-14.507,31.587,-11.567,
51178030,-0.877,-0.116,0.795,-8.732,12.022,4.462,
51178030,-0.829,-0.091,0.843,2.082,-11.287,-6.317,
51178040,-0.78,-0.075,0.863,6.737,-30.73,-16.467,
51178050,-0.718,-0.084,0.855,6.282,-45.815,-25.112,
51178060,-0.652,-0.083,0.848,7.805,-54.477,-34.58,
51178070,-0.607,-0.071,0.856,10.657,-58.537,-39.427,
51178080,-0.565,-0.074,0.837,13.037,-60.077,-40.267,
51178090,-0.449,-0.049,0.872,16.187,-54.145,-36.82,
51178100,-0.498,-0.076,0.873,14.332,-44.415,-25.97,
51178110,-0.497,-0.109,0.864,10.115,-34.37,-21.7,
51178120,-0.415,-0.099,0.856,7.245,-18.375,-23.45,
51178130,-0.517,-0.087,0.836,6.3,-5.792,-18.427,
51178140,-0.536,-0.076,0.802,1.277,0.175,-17.307,
51178150,-0.512,-0.075,0.786,-1.557,5.04,-19.565,
51178160,-0.589,-0.081,0.768,-4.637,6.422,-20.545,
51178170,-0.642,-0.08,0.767,-6.422,2.047,-23.065,
51178180,-0.657,-0.102,0.752,-5.617,-8.855,-24.272,
51178190,-0.651,-0.134,0.751,-2.607,-22.137,-24.535,
51178200,-0.609,-0.161,0.741,4.06,-34.457,-23.52,
51178210,-0.555,-0.154,0.77,12.232,-42.91,-18.725,
51178220,-0.577,-0.178,0.789,19.775,-49.192,-11.06,
51178230,-0.578,-0.175,0.843,27.212,-54.337,-9.432,
51178240,-0.551,-0.15,0.904,27.387,-61.11,-9.397,
51178250,-0.586,-0.192,0.9,21.612,-70.455,-10.15,
51178260,-0.592,-0.2,0.889,18.707,-82.53,-15.907,
51178270,-0.529,-0.157,0.897,19.372,-95.69,-20.93,
51178280,-0.426,-0.118,0.909,15.015,-105.437,-22.417,
51178290,-0.32,-0.161,0.894,7.717,-106.33,-23.625,
51178300,-0.251,-0.212,0.884,9.695,-97.877,-25.497,
51178310,-0.115,-0.198,0.933,17.045,-83.037,-25.392,
51178320,-0.054,-0.185,0.993,21.14,-62.142,-16.38,
51178330,-0.137,-0.211,0.97,23.485,-41.895,-1.837,
51178330,-0.168,-0.216,0.978,32.042,-25.445,10.412,
51178350,-0.332,-0.167,1.001,37.03,-17.342,22.032,
51178350,-0.425,-0.163,0.999,37.117,-22.54,25.672,
51178370,-0.399,-0.162,0.963,36.067,-31.832,20.282,
51178370,-0.318,-0.137,0.939,35.332,-38.552,11.322,
51178390,-0.268,-0.126,0.927,33.11,-37.362,4.445,
51178390,-0.27,-0.068,0.941,29.382,-34.23,-3.727,
51178410,-0.244,-0.116,0.888,23.065,-31.377,-10.447,
51178410,-0.257,-0.148,0.878,27.545,-30.887,-7.122,
51178420,-0.285,-0.131,0.858,33.932,-34.72,5.95,
51178430,-0.29,-0.071,0.888,38.255,-39.97,19.845,
51178440,-0.266,-0.055,0.875,36.68,-39.217,26.582,
51178450,-0.224,-0.036,0.899,32.585,-28.682,26.6,
51178460,-0.286,-0.048,0.926,27.492,-13.965,29.242,
51178470,-0.301,-0.077,0.928,27.195,-4.532,33.18,
51178480,-0.331,-0.084,0.958,30.082,-1.452,39.427,
51178490,-0.295,-0.066,0.963,29.61,2.817,47.162,
51178500,-0.265,-0.043,0.969,30.642,14.017,55.422,
51178510,-0.297,-0.057,0.991,34.002,25.9,64.4,
51178520,-0.305,-0.032,0.991,37.677,39.375,70.507,
51178530,-0.28,0.038,0.985,38.885,57.575,76.282,
51178540,-0.245,0.007,0.952,39.952,83.755,84.787,
51178550,-0.236,0.075,0.943,49.455,113.155,100.397,
51178560,-0.184,0.202,0.912,46.707,148.977,103.985,
51178570,-0.142,0.235,0.86,34.177,199.92,102.182,
51178580,-0.26,0.21,0.802,17.01,253.715,95.445,
51178590,-0.367,0.215,0.769,4.865,296.555,90.3,
51178600,-0.492,0.212,0.695,-3.325,324.397,97.597,
51178610,-0.62,0.232,0.64,-8.435,340.83,106.032,
51178620,-0.752,0.224,0.568,-10.36,347.077,112.017,
51178630,-0.846,0.202,0.529,-9.695,346.587,114.765,
51178640,-0.923,0.197,0.491,-7.07,338.94,112.892,
51178650,-0.986,0.179,0.47,-1.347,323.207,110.407,
51178660,-1.013,0.195,0.477,4.112,303.24,105.98,
51178670,-1.083,0.228,0.494,3.622,277.795,99.487,
51178680,-1.086,0.22,0.463,4.497,250.67,90.37,
51178690,-1.083,0.243,0.486,6.965,223.335,78.942,
51178700,-1.083,0.254,0.443,4.182,195.125,71.382,
51178710,-0.967,0.252,0.38,3.5,173.145,65.765,
51178710,-0.842,0.261,0.335,6.247,163.572,61.67,
51178730,-0.853,0.258,0.338,3.535,162.575,55.23,
51178730,-0.905,0.208,0.298,-2.275,162.487,45.045,
51178750,-0.917,0.136,0.337,0.682,162.015,31.43,
51178750,-0.936,0.172,0.343,9.345,161.21,18.707,
51178760,-0.976,0.33,0.453,11.672,155.855,9.835,
51178770,-1.026,0.384,0.483,-6.107,141.592,0,
51178780,-0.962,0.408,0.363,-24.657,120.977,-11.935,
51178790,-0.797,0.357,0.216,-41.3,106.697,-10.815,
51178800,-0.647,0.311,0.191,-57.487,104.212,0.56,
51178810,-0.735,0.241,0.271,-66.727,102.147,12.057,
51178820,-0.937,0.195,0.3,-67.69,96.477,20.702,
51178830,-1.082,0.084,0.297,-51.555,87.675,32.077,
51178840,-1.03,0.014,0.327,-28.087,84.35,44.922,
51178850,-0.872,0.21,0.445,-2.957,90.212,46.112,
51178860,-0.947,0.346,0.43,-10.885,112.525,24.395,
51178870,-1.233,0.217,0.232,-41.492,115.535,-13.195,
51178880,-1.363,-0.015,0.083,-45.167,88.69,-29.575,
51178890,-1.312,-0.019,0.089,-14.822,35.49,-27.16,
51178900,-1.059,0.161,0.037,0.647,-8.155,-18.112,
51178910,-1.022,0.185,-0.082,8.977,-34.072,1.102,
51178920,-0.712,0.13,-0.019,29.767,-26.862,12.582,
51178930,-0.841,0.171,0.153,46.812,-4.095,24.622,
51178940,-0.963,0.219,0.322,39.497,5.687,31.307,
51178950,-1.021,0.324,0.347,38.99,20.632,38.99,
51178960,-1.142,0.346,0.349,26.18,26.845,39.97,
51178970,-1.232,0.25,0.228,3.64,12.6,35.035,
51178980,-1.171,0.199,0.149,9.677,-13.177,38.255,
51178990,-1.127,0.235,0.145,19.775,-39.48,46.917,
51179000,-1.044,0.337,0.132,23.52,-57.172,40.862,
51179010,-0.977,0.38,0.1,19.337,-58.607,23.345,
51179020,-0.999,0.312,0.083,7.21,-50.382,5.39,
51179030,-0.964,0.311,0.11,-1.68,-41.457,-9.082,
51179040,-0.996,0.302,0.131,-8.872,-38.482,-17.185,
51179050,-1.057,0.286,0.204,-12.092,-47.67,-22.802,
51179060,-1.092,0.313,0.249,-10.605,-68.005,-25.322,
51179070,-1.089,0.351,0.286,-7.962,-86.52,-27.352,
51179080,-1.099,0.379,0.278,-10.675,-103.757,-34.755,
51179080,-1.149,0.425,0.291,-19.075,-122.535,-45.167,
51179100,-0.862,0.616,-0.131,-36.47,-141.067,-58.8,
51179100,-0.106,0.505,0.076,-49.682,-85.12,-69.16,
51179120,-0.363,0.339,0.264,-65.695,-5.757,-83.667,
51179120,-0.918,0.358,0.134,-89.705,42.752,-92.032,
51179140,-0.968,0.325,0.074,-101.097,49.647,-80.517,
51179140,-1.017,0.192,0.063,-102.165,37.607,-43.837,
51179160,-1.101,0.237,-0.038,-92.557,16.45,-7.42,
51179160,-1.001,0.339,-0.097,-82.372,2.31,12.617,
51179170,-1.049,0.315,-0.066,-74.69,-0.297,21.49,
51179180,-1.241,0.286,0.037,-72.887,-4.095,17.465,
51179190,-1.41,0.185,0.121,-75.74,-30.765,12.092,
51179200,-1.437,-0.043,0.215,-57.365,-82.967,14.297,
51179210,-1.349,-0.184,0.273,-23.397,-144.095,31.255,
51179220,-1.301,-0.069,0.297,15.12,-207.13,59.832,
51179230,-0.931,0.185,0.251,43.732,-258.527,79.52,
51179240,-0.376,0.196,0.32,47.985,-253.697,91.752,
51179250,-0.1,0.264,0.53,38.692,-194.775,95.795,
51179260,-0.205,0.22,0.488,11.27,-117.04,107.502,
51179270,-0.318,0.249,0.548,5.53,-45.552,106.05,
51179280,-0.267,0.313,0.526,-16.257,21.175,103.477,
51179290,-0.305,0.229,0.356,-35.297,85.96,95.602,
51179300,-0.545,0.164,0.275,-32.287,138.915,80.57,
51179310,-0.692,0.238,0.277,-25.847,166.6,67.602,
51179320,-0.886,0.172,0.2,-24.815,173.862,63.647,
51179330,-1.117,0.095,0.205,-8.015,165.847,54.635,
51179340,-1.164,0.171,0.31,13.422,140.63,48.58,
51179350,-1.064,0.264,0.334,25.585,114.415,47.302,
51179360,-0.904,0.319,0.339,33.127,101.885,41.422,
51179370,-0.837,0.343,0.321,35.735,102.917,40.11,
51179380,-0.822,0.376,0.313,37.835,111.912,40.232,
51179390,-0.913,0.393,0.28,36.697,120.47,42.087,
51179400,-0.953,0.327,0.239,32.217,122.657,39.182,
51179410,-0.961,0.278,0.192,31.85,117.127,35.7,
51179420,-0.962,0.329,0.223,31.99,106.785,35.455,
51179420,-0.864,0.289,0.178,27.212,94.605,28.63,
51179440,-0.746,0.213,0.125,25.357,89.32,20.737,
51179440,-0.736,0.223,0.067,28.245,92.732,13.247,
51179460,-0.816,0.239,0.001,30.87,97.842,8.33,
51179460,-1.075,0.227,0.035,29.4,97.317,9.87,
51179480,-1.197,0.244,0.063,24.01,84.647,8.785,
51179480,-1.226,0.306,0.09,20.195,69.125,9.397,
51179500,-1.304,0.375,0.108,11.042,52.115,13.037,
51179500,-1.258,0.404,0.095,3.097,34.02,11.637,
51179510,-1.16,0.424,0.116,-0.577,17.622,10.955,
51179520,-1.015,0.442,0.139,0.14,2.992,14.735,
51179530,-0.775,0.48,0.152,-0.122,-8.155,18.585,
51179540,-0.688,0.479,0.155,0.385,-10.22,23.765,
51179550,-0.71,0.501,0.101,4.55,-2.467,25.655,
51179560,-0.839,0.508,0.068,12.127,12.775,24.045,
51179570,-1.018,0.579,0.043,19.845,23.502,25.935,
51179580,-1.176,0.655,-0.023,23.502,30.187,30.817,
51179590,-1.346,0.622,-0.115,19.67,27.895,28.437,
51179600,-1.236,0.635,-0.174,17.955,10.92,24.15,
51179610,-1.05,0.672,-0.088,14.052,-0.315,17.797,
51179620,-0.781,0.614,0.009,1.102,-0.35,-2.117,
51179630,-0.714,0.466,0.008,-9.625,-4.375,-6.737,
51179640,-0.641,0.337,0.036,-12.32,-11.427,3.342,
51179650,-0.623,0.25,0.135,-10.57,-10.867,5.792,
51179660,-0.77,0.219,0.184,-9.047,-1.627,3.465,
51179670,-0.958,0.28,0.141,-8.942,4.48,-2.065,
51179680,-1.01,0.316,0.062,-6.545,-0.787,-2.38,
51179690,-1.128,0.421,0.02,-0.14,-4.182,-1.085,
51179700,-1.202,0.533,0.021,1.277,-8.417,-5.862,
51179710,-1.096,0.482,0.002,-0.665,-16.905,-9.905,
51179720,-1.014,0.416,0.003,0.472,-23.065,0.42,
51179730,-0.988,0.439,0.077,2.065,-21.665,9.03,
51179740,-0.803,0.378,0.107,-0.945,-18.392,2.082,
51179750,-0.735,0.374,0.121,3.062,-8.19,-0.28,
51179760,-0.764,0.421,0.036,8.452,1.907,0.437,
51179770,-0.826,0.43,-0.104,13.632,8.312,3.64,
51179780,-0.895,0.509,-0.189,23.887,11.655,8.855,
51179790,-0.986,0.62,-0.157,29.837,13.632,8.225,
51179800,-1.087,0.656,-0.038,22.592,13.195,3.902,
51179810,-1.091,0.583,0.099,9.205,6.09,-5.81,
51179820,-0.971,0.516,0.233,-1.75,-6.352,-12.582,
51179830,-0.823,0.363,0.182,-13.002,-14.577,-17.78,
51179830,-0.707,0.189,-0.054,-15.155,-20.615,-13.65,
51179850,-0.698,0.284,-0.142,3.552,-10.465,-5.53,
51179850,-0.821,0.394,-0.118,10.08,6.475,-9.397,
51179870,-0.987,0.402,-0.084,4.235,15.61,-14.787,
51179870,-1.187,0.461,0.041,-2.012,10.78,-17.202,
51179890,-1.286,0.578,0.238,-15.82,-1.522,-28.227,
51179890,-1.312,0.601,0.412,-39.987,-11.112,-54.04,
51179910,-1.38,0.525,0.468,-69.79,-25.305,-86.782,
51179910,-1.585,0.446,0.529,-99.785,-65.135,-103.81,
51179920,-1.605,0.375,0.423,-126.857,-134.68,-100.275,
51179930,-1.546,0.294,0.218,-146.65,-207.672,-94.325,
51179940,-1.126,0.22,0.013,-151.655,-253.137,-90.895,
51179950,-0.682,0.205,-0.104,-136.885,-258.23,-90.317,
51179960,-0.531,0.216,-0.096,-116.725,-235.602,-82.337,
51179970,-0.549,0.282,-0.02,-109.305,-208.932,-74.847,
51179980,-0.653,0.222,0.021,-87.307,-193.27,-72.485,
51179990,-0.744,0.219,0.104,-50.505,-182.332,-63.157,
51180000,-1.024,0.242,0.223,-43.505,-167.755,-50.732,
51180010,-1.558,0.315,0.379,-31.027,-168.63,-62.107,
51180020,-1.955,0.368,0.416,-22.225,-209.44,-84.052,
51180030,-1.663,0.386,0.269,-16.45,-278.337,-102.042,
51180040,-1.137,0.26,0.127,0.035,-331.555,-100.222,
51180050,-0.843,0.11,0.081,26.32,-353.482,-75.04,
51180060,-0.723,0.162,0.218,65.047,-352.8,-53.742,
51180070,-0.784,0.305,0.327,90.597,-347.445,-40.915,
51180080,-0.791,0.456,0.379,96.372,-354.445,-39.602,
51180090,-0.576,0.393,0.325,80.167,-360.447,-35.14,
51180100,-0.296,0.289,0.368,68.302,-334.617,-15.172,
51180110,-0.244,0.324,0.633,57.872,-277.655,16.52,
51180120,-0.659,0.267,0.513,8.487,-224.875,38.762,
51180130,-0.607,0.217,0.482,-22.33,-209.037,30.992,
51180140,-0.439,0.133,0.501,-11.567,-209.055,37.625,
51180150,-0.452,0.179,0.692,3.885,-218.575,55.527,
51180160,-0.617,0.206,0.815,6.86,-242.795,68.88,
51180170,-0.334,0.077,1.002,8.347,-270.095,71.207,
51180170,-0.018,0.089,1.116,14.542,-276.57,66.377,
51180190,-0.026,0.1,1.023,4.252,-262.185,66.342,
51180190,0.104,0.118,0.838,-6.86,-238.332,58.135,
51180210,0.206,0.114,0.668,-5.6,-204.312,44.24,
51180210,0.236,0.119,0.52,10.01,-173.792,34.107,
51180230,0.299,0.18,0.428,41.982,-149.24,40.39,
51180230,0.343,0.191,0.512,88.55,-119.945,68.162,
51180250,0.366,0.405,1.001,140,-66.202,99.242,
51180250,-0.297,0.787,1.588,137.007,-6.002,105.63,
51180260,-0.745,0.699,1.569,48.265,-7.332,54.775,
51180270,-0.028,0.11,1.298,-17.167,-38.902,-10.745,
51180280,0.289,0.029,1.253,-0.087,-36.137,-35.892,
51180290,0.257,0.262,1.255,21.21,-22.4,-36.872,
51180300,0.26,0.365,1.122,12.67,-18.9,-46.235,
51180310,0.303,0.372,0.921,-3.57,-10.517,-71.05,
51180320,0.429,0.346,0.651,-10.727,9.362,-100.572,
51180330,0.622,0.369,0.582,-11.287,56.682,-113.505,
51180340,0.123,0.367,0.507,-13.177,113.977,-106.505,
51180350,-0.221,0.371,0.621,-17.097,138.967,-98.49,
51180360,-0.526,0.283,0.744,-19.092,135.677,-78.382,
51180370,-0.989,0.175,0.782,-19.687,92.61,-41.982,
51180380,-1.113,0.096,0.806,-6.615,22.995,1.505,
51180390,-0.881,0.167,0.868,21.787,-41.37,30.292,
51180400,-0.555,0.331,0.906,39.795,-83.37,36.942,
51180410,-0.237,0.435,0.906,37.922,-99.242,31.885,
51180420,-0.007,0.365,0.813,33.617,-96.372,25.567,
51180430,0.137,0.28,0.781,41.58,-87.797,30.012,
51180440,0.2,0.238,0.835,60.357,-78.89,49.35,
51180450,0.208,0.253,0.814,78.872,-66.447,63,
51180460,0.343,0.435,0.803,87.132,-35.84,57.12,
51180470,0.512,0.595,0.866,75.53,27.72,40.477,
51180480,0.195,0.549,0.832,54.022,102.952,13.667,
51180490,-0.067,0.421,0.841,42.77,138.862,-4.62,
51180500,-0.156,0.431,0.919,43.33,141.855,4.76,
51180510,-0.436,0.536,0.977,42.175,126.84,17.36,
51180520,-0.527,0.475,0.97,32.707,91.822,21.087,
51180530,-0.399,0.394,0.969,34.965,62.527,23.1,
51180540,-0.536,0.451,0.986,45.815,37.94,28.647,
51180550,-0.321,0.525,0.976,48.247,17.955,30.87,
51180560,-0.21,0.471,0.94,44.012,15.137,24.115,
51180570,-0.299,0.382,0.832,40.67,13.142,19.985,
51180580,-0.192,0.377,0.736,45.482,-0.717,23.8,
51180580,-0.153,0.428,0.697,49.157,-5.477,29.592,
51180600,-0.316,0.453,0.718,42.28,-5.652,24.57,
51180600,-0.3,0.409,0.754,32.2,-13.982,17.57,
51180620,-0.247,0.429,0.782,30.257,-17.99,10.92,
51180620,-0.25,0.502,0.81,28.682,-17.482,4.305,
51180640,-0.122,0.552,0.826,26.075,-11.532,-3.517,
51180640,-0.083,0.525,0.818,24.78,1.697,-11.725,
51180660,-0.141,0.532,0.858,25.13,7.14,-11.445,
51180660,-0.092,0.524,0.908,25.48,4.55,-5.722,
51180670,-0.074,0.518,0.933,23.94,3.43,-4.13,
51180680,-0.08,0.595,0.93,17.342,10.15,-6.265,
51180690,-0.188,0.564,0.879,7.98,21.997,-12.39,
51180700,-0.206,0.605,0.897,3.937,34.387,-15.732,
51180710,-0.244,0.625,0.962,1.417,43.47,-16.397,
51180720,-0.281,0.596,0.999,-7.087,36.592,-8.295,
51180730,-0.224,0.526,0.942,-15.172,27.352,-0.577,
51180740,-0.25,0.408,0.809,-19.635,21.91,-3.272,
51180750,-0.067,0.384,0.715,-16.642,11.48,-6.3,
51180760,0.033,0.353,0.621,-9.992,6.615,-6.667,
51180770,-0.013,0.418,0.653,-2.572,13.86,-9.45,
51180780,-0.126,0.417,0.66,-3.675,23.905,-18.305,
51180790,-0.282,0.44,0.704,-1.575,30.187,-22.067,
51180800,-0.383,0.517,0.748,1.575,30.572,-18.777,
51180810,-0.508,0.598,0.849,0.962,29.96,-17.64,
51180820,-0.622,0.618,0.945,-1.312,21.157,-13.93,
51180830,-0.582,0.56,0.911,-1.697,2.1,-6.562,
51180840,-0.467,0.59,0.845,5.11,-11.637,0.735,
51180850,-0.298,0.632,0.841,7.455,-14.56,1.96,
51180860,-0.165,0.554,0.774,3.57,-11.847,-0.087,
51180870,-0.036,0.524,0.778,6.037,-2.835,-0.752,
51180880,0.021,0.557,0.837,5.932,11.042,-3.5,
51180890,-0.157,0.431,0.766,-0.315,22.12,-9.8,
51180900,-0.354,0.08,1.043,4.392,20.387,-13.335,
51180910,0.841,-1.992,1.486,55.195,-28.997,-62.65,
51180920,1.194,-0.38,1.998,318.605,268.87,-62.107,
51180920,-1.998,1.087,1.998,359.362,472.587,-15.785,
51180940,-1.576,-1.343,1.894,231.175,183.4,-116.83,
51180940,-1.147,-0.254,1.482,389.182,-73.762,-47.005,
51180960,-0.284,0.221,0.519,441.717,-187.687,1.05,
51180960,-0.06,0.175,-0.593,382.217,-136.15,-44.432,
51180980,-0.404,0.54,-1.492,331.292,-49,-45.15,
51180980,-0.708,1.213,-1.92,274.855,-11.987,-15.05,
51181000,-0.874,1.421,-1.997,174.387,-23.45,1.89,
51181000,-0.1,1.805,-1.997,76.65,-41.685,-15.942,
51181010,0.106,1.86,-1.997,-23.362,-26.355,-2.817,
51181020,-0.046,1.857,-1.819,-131.53,20.09,-20.562,
51181030,-0.669,1.512,-1.471,-227.57,60.532,-51.66,
51181040,-1.322,1.315,-0.568,-277.602,59.027,-81.375,
51181050,-1.583,1.432,0.449,-286.16,30.205,-123.585,
51181060,-1.583,1.634,1.35,-334.215,4.375,-189.192,
51181070,-1.736,0.559,1.154,-413.455,-45.08,-176.207,
51181080,-0.978,0.156,1.261,-371,-96.32,-162.75,
51181090,-0.323,-0.006,1.067,-324.66,-122.202,-117.705,
51181100,0.27,-0.059,0.984,-262.307,-115.64,-73.08,
51181110,0.481,-0.137,0.903,-208.687,-78.68,-22.942,
51181120,0.305,-0.117,0.964,-155.715,-21.665,10.5,
51181130,0.017,0.019,1.01,-135.572,20.177,33.512,
51181140,-0.277,0.03,0.91,-145.215,37.887,40.04,
51181150,-0.466,-0.006,0.867,-147.875,32.06,20.597,
51181160,-0.553,-0.072,0.827,-137.515,9.467,-5.512,
51181170,-0.544,-0.083,0.808,-118.212,-17.08,-31.027,
51181180,-0.527,-0.041,0.813,-92.645,-40.197,-49.175,
51181190,-0.515,0.024,0.797,-71.155,-60.13,-60.13,
51181200,-0.499,0.093,0.881,-53.112,-74.69,-67.637,
51181210,-0.493,0.141,0.858,-47.32,-85.382,-71.505,
51181220,-0.391,0.186,0.896,-39.392,-90.23,-76.842,
51181230,-0.35,0.236,0.943,-41.755,-84.28,-74.865,
51181240,-0.369,0.318,0.955,-55.422,-68.407,-75.757,
51181250,-0.364,0.368,0.93,-66.272,-43.172,-82.827,
51181260,-0.35,0.387,0.831,-76.685,-16.957,-83.387,
51181270,-0.368,0.308,0.817,-78.207,3.132,-78.4,
51181280,-0.264,0.322,0.739,-78.68,21.297,-69.457,
51181290,-0.193,0.372,0.778,-77.875,43.645,-49.7,
51181300,-0.45,0.384,0.843,-86.012,60.55,-25.795,
51181310,-0.566,0.285,0.794,-98.21,62.527,-12.985,
51181320,-0.526,0.13,0.706,-93.31,55.562,-4.655,
51181330,-0.459,0.09,0.738,-74.06,54.512,6.247,
51181330,-0.515,0.087,0.732,-53.9,59.972,20.772,
51181350,-0.602,0.09,0.788,-37.17,66.395,24.902,
51181350,-0.638,0.086,0.839,-32.392,66.482,21.07,
51181370,-0.605,0.081,0.867,-33.915,71.26,17.167,
51181370,-0.714,0.069,0.951,-39.865,69.335,11.095,
51181390,-0.78,0.075,0.944,-57.977,53.97,0.56,
51181390,-0.639,0.026,0.9,-67.882,44.24,-10.377,
51181400,-0.559,-0.034,0.841,-64.61,40.32,-15.575,
51181410,-0.546,-0.064,0.78,-57.662,39.847,-9.66,
51181420,-0.547,-0.096,0.746,-45.797,43.855,3.465,
51181430,-0.59,-0.099,0.797,-29.12,48.16,15.12,
51181440,-0.686,-0.087,0.857,-16.572,50.68,20.755,
51181450,-0.65,-0.028,0.915,-10.5,55.352,20.807,
51181460,-0.64,0.044,0.929,-10.36,65.502,19.145,
51181470,-0.716,0.032,0.909,-11.97,73.342,19.127,
51181480,-0.757,-0.012,0.87,-12.897,72.975,21.227,
51181490,-0.765,-0.008,0.801,-15.452,63.892,25.655,
51181500,-0.669,-0.037,0.726,-10.832,57.085,30.502,
51181510,-0.543,-0.026,0.686,-0.805,60.9,33.022,
51181520,-0.498,0.012,0.698,13.65,73.71,35.927,
51181530,-0.547,0.017,0.696,28.945,90.772,42.017,
51181540,-0.601,0.097,0.769,36.522,107.397,45.132,
51181550,-0.696,0.078,0.744,32.06,117.39,44.1,
51181560,-0.739,0.124,0.792,27.23,125.107,38.552,
51181570,-0.825,0.072,0.739,17.465,123.322,38.167,
51181580,-0.843,0.046,0.74,22.102,116.427,34.107,
51181590,-0.853,0.059,0.762,25.2,103.04,30.747,
51181600,-0.87,0.078,0.778,25.252,85.137,28.315,
51181610,-0.954,0.125,0.748,21.42,67.725,24.692,
51181620,-0.9,0.144,0.713,5.827,37.835,16.467,
51181630,-0.646,0.059,0.566,0.297,28.402,13.3,
51181640,-0.601,0.05,0.576,13.72,39.935,12.32,
51181650,-0.757,0.093,0.529,8.522,48.667,13.457,
51181660,-0.816,0.079,0.513,7.017,47.477,10.132,
51181670,-0.817,0.091,0.523,12.88,41.895,11.76,
51181670,-0.793,0.084,0.54,20.317,37.117,17.832,
51181690,-0.745,0.145,0.556,23.03,40.04,17.937,
51181690,-0.722,0.167,0.566,16.747,50.085,13.282,
51181710,-0.758,0.159,0.568,6.825,62.195,9.625,
51181710,-0.821,0.128,0.527,-1.05,68.39,11.935,
51181730,-0.831,0.143,0.537,-2.187,72.17,17.99,
51181730,-0.838,0.138,0.521,-4.882,74.34,26.162,
51181750,-0.896,0.085,0.528,-0.927,75.67,29.627,
51181750,-0.949,0.107,0.541,1.47,70.56,28.577,
51181760,-0.99,0.077,0.505,9.432,59.552,32.567,
51181770,-1.007,0.096,0.51,26.39,47.442,40.425,
51181780,-0.979,0.134,0.51,41.615,35.087,46.357,
51181790,-0.901,0.202,0.514,47.057,26.512,46.97,
51181800,-0.895,0.216,0.515,43.382,20.755,42.07,
51181810,-0.85,0.261,0.524,35.63,18.34,32.97,
51181820,-0.824,0.244,0.485,27.072,15.575,30.66,
51181830,-0.783,0.278,0.47,19.355,13.545,30.065,
51181840,-0.778,0.258,0.424,10.535,17.972,31.832,
51181850,-0.755,0.204,0.413,12.39,25.795,32.865,
51181860,-0.713,0.219,0.409,16.45,37.502,34.422,
51181870,-0.723,0.229,0.433,20.387,52.867,36.522,
51181880,-0.786,0.221,0.409,21.087,66.797,36.207,
51181890,-0.843,0.23,0.43,27.072,72.397,32.602,
51181900,-0.87,0.222,0.42,30.852,72.345,33.722,
51181910,-0.882,0.235,0.429,37.817,69.247,33.6,
51181920,-0.887,0.297,0.444,39.97,63.507,31.99,
51181930,-0.898,0.303,0.419,38.762,57.19,31.972,
51181940,-0.891,0.312,0.422,41.352,52.517,31.43,
51181950,-0.876,0.315,0.427,40.722,49.385,32.655,
51181960,-0.872,0.309,0.421,38.78,49.332,32.55,
51181970,-0.853,0.331,0.431,35.595,53.952,27.002,
51181980,-0.875,0.333,0.428,30.1,59.867,21.997,
51181990,-0.931,0.305,0.409,25.392,62.282,17.937,
51182000,-0.95,0.29,0.403,23.852,59.29,13.457,
51182010,-0.983,0.276,0.441,23.677,52.64,12.722,
51182020,-0.968,0.29,0.422,25.707,41.405,11.777,
51182030,-0.864,0.32,0.415,25.007,39.287,10.78,
51182040,-0.902,0.3,0.409,16.415,42.84,4.55,
51182050,-0.948,0.301,0.344,4.882,39.515,-5.617,
51182060,-0.837,0.294,0.31,-1.592,35.49,-10.045,
51182070,-0.838,0.257,0.257,-2.712,38.78,-7.805,
51182070,-0.919,0.151,0.304,-1.452,37.747,-6.632,
51182080,-0.88,0.114,0.331,11.095,35.98,-2.502,
51182090,-0.782,0.272,0.459,32.305,46.637,5.547,
51182100,-0.944,0.396,0.449,26.88,62.772,5.04,
51182110,-0.99,0.327,0.397,1.785,75.215,-7.472,
51182120,-1.085,0.195,0.34,-10.605,79.992,-19.407,
51182130,-1.117,0.181,0.289,-9.1,66.43,-22.785,
51182140,-1.118,0.231,0.28,-1.925,44.205,-18.952,
51182150,-1.142,0.247,0.265,3.342,15.995,-13.842,
51182160,-1.13,0.216,0.232,10.955,-15.662,-11.34,
51182170,-1.08,0.221,0.231,28.07,-48.352,-10.832,
51182180,-1.071,0.253,0.232,47.915,-83.422,-11.725,
51182190,-1.008,0.366,0.203,61.162,-117.46,-16.485,
51182200,-0.917,0.436,0.152,69.387,-145.985,-22.592,
51182210,-0.827,0.492,0.154,75.827,-166.67,-29.225,
51182220,-0.773,0.525,0.14,71.767,-181.405,-37.292,
51182230,-0.73,0.596,0.205,63.035,-191.695,-53.882,
51182240,-0.787,0.6,0.251,44.625,-201.197,-63.805,
51182250,-0.805,0.598,0.309,22.942,-212.17,-73.605,
51182260,-0.809,0.581,0.361,2.082,-222.285,-83.23,
51182270,-0.826,0.54,0.381,-19.355,-229.705,-93.24,
51182280,-0.833,0.467,0.436,-39.462,-231.052,-101.64,
51182290,-0.821,0.421,0.513,-57.662,-226.922,-107.887,
51182300,-0.879,0.318,0.527,-75.215,-222.145,-110.442,
51182310,-0.911,0.191,0.528,-89.81,-214.917,-113.435,
51182320,-0.821,0.102,0.547,-94.955,-203.245,-112.42,
51182330,-0.732,0.042,0.568,-93.17,-184.397,-103.39,
51182340,-0.692,-0.017,0.599,-88.375,-157.797,-91.245,
51182350,-0.687,-0.064,0.622,-82.915,-126.822,-81.515,
51182360,-0.657,-0.118,0.626,-75.04,-95.602,-73.43,
51182370,-0.644,-0.154,0.633,-65.712,-66.132,-63,
51182380,-0.693,-0.16,0.665,-55.807,-40.425,-50.242,
51182390,-0.752,-0.143,0.702,-47.74,-21.577,-40.495,
51182400,-0.778,-0.137,0.714,-41.247,-12.337,-32.9,
51182410,-0.815,-0.139,0.73,-34.265,-11.375,-26.565,
51182420,-0.848,-0.124,0.757,-28.28,-14.63,-23.852,
51182420,-0.881,-0.087,0.792,-26.95,-21.98,-26.197,
51182440,-0.906,-0.087,0.818,-26.565,-35.56,-34.195,
51182440,-0.872,-0.075,0.835,-28.472,-50.067,-44.992,
51182460,-0.84,-0.061,0.837,-33.04,-65.327,-52.762,
51182460,-0.796,-0.035,0.844,-37.31,-79.52,-58.957,
51182480,-0.755,0.011,0.854,-43.96,-90.79,-65.992,
51182480,-0.716,0.03,0.873,-54.005,-98.332,-73.762,
51182500,-0.67,0.034,0.847,-70.42,-102.06,-83.282,
51182500,-0.57,0.028,0.826,-84.245,-100.607,-91.98,
51182510,-0.51,0.04,0.831,-97.405,-93.782,-97.475,
51182520,-0.481,0.051,0.844,-110.267,-87.272,-99.295,
51182530,-0.43,0.082,0.791,-131.022,-82.32,-97.755,
51182540,-0.386,0.11,0.703,-156.31,-70.84,-90.422,
51182550,-0.347,0.127,0.585,-179.182,-54.075,-83.492,
51182560,-0.339,0.082,0.492,-191.87,-35.035,-75.075,
51182570,-0.36,-0.013,0.461,-196.455,-18.112,-64.33,
51182580,-0.404,-0.111,0.417,-192.08,-6.44,-48.44,
51182590,-0.481,-0.251,0.379,-175.962,-0.525,-28.525,
51182600,-0.535,-0.342,0.395,-148.89,3.552,-9.572,
51182610,-0.563,-0.432,0.416,-114.345,10.062,3.045,
51182620,-0.69,-0.464,0.54,-78.47,16.52,9.887,
51182630,-0.871,-0.454,0.62,-53.357,9.835,8.452,
51182640,-0.914,-0.455,0.637,-36.592,-10.92,1.47,
51182650,-0.884,-0.452,0.626,-21.945,-37.03,-8.662,
51182660,-0.768,-0.431,0.632,-6.247,-59.08,-22.137,
51182670,-0.66,-0.414,0.679,6.65,-71.837,-33.862,
51182680,-0.289,-0.464,1.03,11.112,-66.272,-39.287,
51182690,0.052,-0.664,0.914,-1.085,-4.147,-23.1,
51182700,-0.858,-0.757,0.802,-1.155,21.42,2.485,
51182710,-0.877,-0.601,0.678,26.04,4.812,7.087,
51182720,-0.74,-0.513,0.702,59.202,-34.492,24.99,
51182730,-0.607,-0.453,0.658,85.47,-60.655,39.27,
51182740,-0.424,-0.367,0.748,104.317,-67.707,34.527,
51182750,-0.256,-0.301,0.837,103.267,-52.307,30.782,
51182760,-0.228,-0.319,0.891,86.555,-28.087,32.567,
51182760,-0.25,-0.303,0.94,59.78,-1.522,37.345,
51182780,-0.351,-0.358,0.87,34.65,22.522,52.22,
51182780,-0.382,-0.395,0.797,24.762,48.037,66.29,
51182800,-0.496,-0.399,0.756,23.082,72.747,82.057,
51182800,-0.64,-0.418,0.7,24.447,91.927,93.87,
51182820,-0.638,-0.426,0.638,31.745,108.657,100.642,
51182820,-0.656,-0.416,0.585,45.552,127.75,110.565,
51182830,-0.683,-0.355,0.545,61.792,146.37,122.815,
51182840,-0.73,-0.282,0.486,75.88,162.82,138.267,
51182850,-0.73,-0.201,0.443,89.32,178.255,155.417,
51182860,-0.739,-0.111,0.41,101.115,193.235,174.037,
51182870,-0.779,-0.021,0.39,108.71,206.57,189.595,
51182880,-0.869,0.05,0.404,109.322,212.922,197.365,
51182890,-0.788,0.154,0.405,103.232,216.895,195.02,
51182900,-0.752,0.226,0.37,90.545,224.63,191.8,
51182910,-0.858,0.228,0.373,75.355,230.002,187.477,
51182920,-0.976,0.235,0.367,60.585,226.66,177.852,
51182930,-1.025,0.212,0.363,50.207,209.562,164.797,
51182940,-1.017,0.179,0.354,48.177,180.652,156.66,
51182950,-0.917,0.164,0.353,55.597,152.915,155.627,
51182960,-0.827,0.207,0.35,65.485,136.132,157.99,
51182970,-0.753,0.265,0.375,71.347,132.352,152.915,
51182980,-0.73,0.33,0.419,70.052,144.515,139.055,
51182990,-0.743,0.391,0.47,58.24,161.735,120.575,
51183000,-0.862,0.341,0.393,41.387,176.26,108.325,
51183010,-0.963,0.333,0.382,35.14,181.457,91.385,
51183020,-1.048,0.31,0.356,28.42,172.34,81.077,
51183030,-1.091,0.28,0.33,22.732,150.097,74.445,
51183040,-1.098,0.302,0.325,27.247,120.977,73.517,
51183050,-1.081,0.279,0.308,27.737,102.515,80.727,
51183060,-1.259,0.349,0.383,26.215,82.11,72.292,
51183070,-1.286,0.349,0.339,15.347,56.175,41.615,
51183080,-1.074,0.358,0.324,1.995,37.625,0.192,
51183090,-1.188,0.27,0.239,-4.707,25.375,-16.45,
51183100,-1.148,0.32,0.259,-4.462,3.307,-29.732,
51183110,-1.028,0.34,0.209,-8.995,-24.29,-37.94,
51183120,-0.902,0.301,0.147,-8.715,-47.092,-37.747,
51183130,-0.765,0.265,0.084,-4.935,-58.432,-26.162,
51183140,-0.665,0.233,0.099,6.58,-48.282,-5.11,
51183150,-0.794,0.271,0.173,21.945,-27.895,8.767,
51183160,-0.818,0.261,0.164,28.962,-12.425,10.535,
51183170,-0.771,0.285,0.169,37.887,9.467,10.325,
51183170,-0.906,0.319,0.199,42.647,31.097,10.132,
51183190,-1.068,0.316,0.18,37.362,36.785,2.817,
51183190,-1.087,0.306,0.164,36.277,29.925,-4.025,
51183210,-1.093,0.341,0.187,38.92,18.445,-6.265,
51183210,-1.078,0.343,0.119,37.17,4.06,-8.207,
51183230,-0.978,0.431,0.165,37.887,1.627,-3.92,
51183230,-1.068,0.318,0.14,40.18,-1.12,11.06,
51183250,-0.873,0.443,0.186,35.35,1.295,-0.192,
51183250,-0.77,0.38,0.152,21.84,17.377,1.82,
51183260,-0.936,0.367,0.142,21.857,39.515,5.46,
51183270,-1.097,0.315,0.098,22.032,43.277,7.332,
51183280,-1.104,0.236,0.045,24.78,35.262,6.702,
51183290,-1.044,0.259,0.051,41.317,22.68,6.807,
51183300,-1.001,0.329,0.042,54.775,12.477,8.575,
51183310,-0.957,0.377,0.071,57.12,7,4.357,
51183320,-0.996,0.375,0.09,51.135,0.472,-1.54,
51183330,-0.966,0.399,0.121,44.467,-4.917,-5.88,
51183340,-0.895,0.404,0.176,36.365,-9.8,-8.155,
51183350,-0.82,0.345,0.203,24.097,-7.07,-4.935,
51183360,-0.852,0.331,0.228,15.977,6.825,2.082,
51183370,-0.979,0.347,0.233,8.715,19.25,6.667,
51183380,-1.088,0.313,0.21,0.35,21.192,5.827,
51183390,-1.121,0.305,0.188,-2.502,13.825,3.972,
51183400,-1.102,0.335,0.18,-3.325,1.907,2.03,
51183410,-1.082,0.329,0.14,-5.967,-10.43,-1.33,
51183420,-1.026,0.313,0.117,-5.04,-19.757,-3.587,
51183430,-0.952,0.339,0.1,-5.88,-23.992,-4.235,
51183440,-0.93,0.338,0.072,-11.515,-25.147,-4.865,
51183450,-0.888,0.319,0.072,-16.152,-23.957,-4.812,
51183460,-0.886,0.316,0.068,-19.477,-22.155,-2.205,
51183470,-0.96,0.302,0.082,-18.742,-20.037,1.505,
51183480,-1.058,0.296,0.076,-15.4,-25.602,4.165,
51183490,-1.099,0.303,0.065,-13.212,-41.737,5.53,
51183500,-1.029,0.304,0.048,-6.842,-58.082,5.46,
51183510,-1.008,0.329,0.076,7.98,-71.417,11.06,
51183510,-1.054,0.337,0.037,17.36,-90.912,25.095,
51183530,-1.059,0.252,0,27.667,-118.877,44.45,
51183530,-1.048,0.249,0.075,47.057,-151.06,64.837,
51183550,-1.093,0.299,0.135,61.285,-184.047,84.84,
51183550,-1.211,0.474,0.296,62.352,-217.122,93.782,
51183570,-1.02,0.577,0.295,42.297,-246.505,93.975,
51183570,-0.684,0.574,0.288,27.755,-241.937,91,
51183580,-0.543,0.482,0.317,6.142,-198.922,74.48,
51183590,-0.59,0.46,0.352,-11.795,-148.68,52.045,
51183600,-0.589,0.445,0.381,-15.155,-107.432,37.397,
51183610,-0.557,0.477,0.445,-13.3,-71.505,30.817,
51183620,-0.688,0.491,0.45,-16.677,-45.955,31.325,
51183630,-0.827,0.523,0.486,-15.365,-37.415,29.785,
51183640,-0.929,0.472,0.43,-22.785,-46.305,28.507,
51183650,-1.013,0.402,0.384,-23.17,-67.707,30.152,
51183660,-0.979,0.427,0.38,-15.277,-91.717,32.97,
51183670,-0.87,0.474,0.397,-10.237,-107.572,30.8,
51183680,-0.709,0.444,0.395,-14.997,-110.6,20.982,
51183690,-0.497,0.439,0.379,-14.262,-86.082,11.252,
51183700,-0.611,0.441,0.401,-11.165,-51.957,3.745,
51183710,-0.629,0.431,0.393,-16.38,-27.265,-5.862,
51183720,-0.63,0.493,0.441,-18.55,-6.475,-8.802,
51183730,-0.744,0.542,0.455,-29.242,8.312,-12.46,
51183740,-0.812,0.51,0.464,-51.292,10.902,-21.857,
51183750,-0.756,0.442,0.432,-69.772,5.792,-26.11,
51183760,-0.677,0.417,0.453,-75.075,6.825,-21.42,
51183770,-0.738,0.393,0.465,-76.825,11.095,-14.472,
51183780,-0.828,0.361,0.476,-74.672,7.822,-12.407,
51183790,-0.833,0.34,0.487,-68.232,-2.345,-9.38,
51183800,-0.836,0.333,0.491,-57.925,-15.05,-2.292,
51183810,-0.879,0.337,0.535,-46.865,-30.222,5.092,
51183820,-0.881,0.371,0.509,-42.437,-49.962,8.522,
51183830,-0.805,0.387,0.498,-38.342,-67.987,7.49,
51183840,-0.79,0.369,0.491,-37.012,-77.332,9.59,
51183850,-0.726,0.36,0.483,-33.67,-80.255,9.765,
51183860,-0.668,0.432,0.486,-28.105,-75.74,7.892,
51183870,-0.649,0.432,0.474,-33.722,-62.79,4.9,
51183880,-0.683,0.35,0.467,-35.315,-49.525,1.662,
51183890,-0.696,0.35,0.5,-26.635,-42.052,3.062,
51183900,-0.741,0.37,0.537,-18.2,-42.262,6.982,
51183910,-0.752,0.332,0.55,-10.937,-48.16,8.942,
51183920,-0.733,0.381,0.623,-0.717,-57.627,11.077,
51183920,-0.742,0.439,0.665,1.4,-69.545,11.952,
51183940,-0.724,0.442,0.673,-2.8,-80.797,10.237,
51183940,-0.651,0.436,0.681,-7.035,-85.872,7.595,
51183960,-0.582,0.462,0.64,-11.27,-84.647,7.98,
51183960,-0.67,0.364,0.609,-15.907,-80.097,15.732,
51183980,-0.561,0.225,0.589,-3.955,-75.075,23.1,
51183980,-0.431,0.289,0.609,25.252,-66.202,32.13,
51184000,-0.416,0.405,0.577,41.247,-44.275,36.68,
51184000,-0.497,0.421,0.51,46.41,-15.89,29.487,
51184010,-0.514,0.389,0.477,56.455,5.075,21.437,
51184020,-0.528,0.444,0.531,68.18,18.55,21.14,
51184030,-0.596,0.528,0.613,67.987,24.202,21.175,
51184040,-0.692,0.513,0.669,52.937,18.357,19.11,
51184050,-0.653,0.418,0.693,39.427,4.287,17.727,
51184060,-0.545,0.464,0.724,40.845,-2.8,20.737,
51184070,-0.578,0.547,0.758,36.995,1.417,21.087,
51184080,-0.637,0.527,0.711,25.287,6.422,15.12,
51184090,-0.583,0.559,0.69,20.912,11.41,11.847,
51184100,-0.661,0.501,0.654,13.247,16.31,13.037,
51184110,-0.679,0.48,0.61,9.397,15.382,12.897,
51184120,-0.689,0.493,0.628,10.062,12.075,17.797,
51184130,-0.663,0.494,0.642,8.89,9.765,23.817,
51184140,-0.666,0.506,0.666,7.28,10.727,25.13,
51184150,-0.667,0.49,0.648,3.482,12.39,21.7,
51184160,-0.636,0.47,0.608,2.625,13.282,20.737,
51184170,-0.63,0.477,0.573,5.547,15.767,23.467,
51184180,-0.679,0.453,0.542,7.787,18.392,25.707,
51184190,-0.658,0.448,0.457,14.14,18.025,26.582,
51184200,-0.653,0.583,0.556,21.577,24.307,28.875,
51184210,-0.726,0.501,0.519,13.737,24.587,27.597,
51184220,-0.677,0.497,0.515,16.992,19.267,29.225,
51184230,-0.687,0.587,0.527,15.172,12.25,34.982,
51184240,-0.698,0.57,0.516,4.97,5.32,35.07,
51184250,-0.619,0.515,0.559,-2.345,0.07,29.592,
51184260,-0.498,0.446,0.585,0.42,-1.33,27.755,
51184260,-0.458,0.508,0.582,5.985,7.035,25.602,
51184280,-0.528,0.495,0.528,6.055,20.125,23.345,
51184280,-0.6,0.444,0.513,8.155,31.115,21.84,
51184300,-0.699,0.49,0.565,14.717,31.395,23.467,
51184300,-0.805,0.637,0.588,15.767,22.4,26.197,
51184320,-0.699,0.65,0.624,11.445,10.832,21.98,
51184320,-0.653,0.504,0.672,8.697,8.732,19.442,
51184330,-0.672,0.597,0.7,15.942,8.592,18.847,
51184340,-0.67,0.564,0.676,15.89,6.562,14.787,
51184350,-0.655,0.598,0.606,18.147,-0.962,12.985,
51184360,-0.628,0.672,0.608,18.515,-2.817,12.145,
51184370,-0.475,0.557,0.559,13.405,1.68,3.692,
51184380,-0.499,0.586,0.565,15.68,16.94,-3.377,
51184390,-0.554,0.581,0.539,12.25,30.38,-13.055,
51184400,-0.501,0.609,0.525,13.265,43.102,-14.77,
51184410,-0.612,0.55,0.474,15.12,54.88,-14.035,
51184420,-0.717,0.574,0.463,19.145,60.305,-16.31,
51184430,-0.761,0.643,0.505,24.937,59.78,-13.282,
51184440,-0.765,0.691,0.587,25.217,61.302,-16.17,
51184450,-0.819,0.693,0.636,19.11,61.792,-22.977,
51184460,-0.856,0.684,0.649,14.437,52.115,-20.475,
51184470,-0.929,0.688,0.621,10.675,32.13,-10.29,
51184480,-0.8,0.677,0.556,8.277,7.857,-4.847,
51184490,-0.612,0.665,0.516,11.742,-0.805,-3.43,
51184500,-0.673,0.69,0.508,8.995,4.917,-5.32,
51184510,-0.773,0.634,0.504,4.655,5.477,-10.43,
51184520,-0.815,0.737,0.642,4.322,1.225,-26.057,
51184530,-0.862,0.759,0.729,-7.77,-3.972,-47.95,
51184540,-0.894,0.734,0.793,-21.892,-11.55,-77.087,
51184550,-0.866,0.683,0.797,-35.612,-24.832,-102.672,
51184560,-0.81,0.63,0.828,-47.25,-42.472,-119.332,
51184570,-0.821,0.548,0.795,-60.882,-62.737,-121.975,
51184580,-0.8,0.504,0.789,-69.527,-89.39,-118.982,
51184590,-0.651,0.515,0.766,-76.51,-112.857,-115.902,
51184600,-0.469,0.461,0.665,-82.32,-123.83,-109.235,
51184610,-0.325,0.381,0.6,-82.775,-118.685,-97.457,
51184620,-0.291,0.338,0.538,-85.137,-100.59,-83.37,
51184630,-0.344,0.276,0.482,-86.257,-73.832,-70.49,
51184640,-0.424,0.17,0.456,-80.465,-47.985,-63.07,
51184650,-0.449,0.007,0.529,-72.327,-18.182,-63.805,
51184660,-0.309,0.015,0.545,-49.91,22.102,-67.777,
51184670,-0.408,0.153,0.636,-28.805,72.537,-67.707,
51184670,-0.899,0.257,0.681,-35.805,95.41,-73.237,
51184690,-1.067,0.114,0.578,-50.837,79.187,-86.257,
51184690,-0.874,0.011,0.559,-36.767,49.647,-89.827,
51184710,-0.732,0.06,0.597,-17.517,19.775,-80.307,
51184710,-0.691,0.106,0.561,-10.587,-2.257,-69.475,
51184730,-0.56,0.09,0.549,0.122,-15.732,-65.695,
51184730,-0.491,0.143,0.5,8.155,-20.72,-65.485,
51184750,-0.553,0.112,0.457,18.515,-20.335,-59.342,
51184750,-0.623,0.104,0.428,30.887,-16.817,-44.45,
51184760,-0.649,0.166,0.429,39.042,-12.862,-38.832,
51184770,-0.705,0.21,0.447,40.635,-6.457,-40.897,
51184780,-0.785,0.26,0.493,36.715,-1.907,-47.897,
51184790,-0.848,0.302,0.488,22.4,-5.162,-61.092,
51184800,-0.88,0.29,0.496,9.135,-14.595,-73.675,
51184810,-0.879,0.308,0.512,-2.082,-28.105,-85.4,
51184820,-0.881,0.304,0.518,-13.842,-47.215,-95.34,
51184830,-0.865,0.284,0.526,-22.942,-69.772,-101.342,
51184840,-0.841,0.25,0.518,-30.922,-93.047,-101.517,
51184850,-0.813,0.206,0.527,-35.017,-111.877,-95.217,
51184860,-0.745,0.164,0.527,-35.437,-121.677,-87.272,
51184870,-0.692,0.134,0.547,-32.095,-122.045,-80.307,
51184880,-0.629,0.13,0.565,-29.085,-112.91,-77.577,
51184890,-0.603,0.177,0.6,-30.782,-96.197,-75.53,
51184900,-0.597,0.132,0.608,-34.107,-76.965,-78.067,
51184910,-0.602,0.119,0.637,-33.687,-55.79,-81.882,
51184920,-0.609,0.118,0.631,-41.247,-39.55,-82.46,
51184930,-0.619,0.102,0.61,-47.582,-27.982,-80.605,
51184940,-0.657,0.06,0.586,-49.42,-22.26,-72.292,
51184950,-0.679,0.004,0.553,-45.57,-19.39,-58.94,
51184960,-0.644,0.009,0.543,-35.63,-14.857,-41.982,
51184970,-0.64,0.021,0.557,-25.357,-6.755,-25.585,
51184980,-0.654,0.03,0.566,-19.582,5.285,-15.435,
51184990,-0.677,0.044,0.608,-18.69,21.7,-13.282,
51185000,-0.753,0.065,0.648,-24.062,35.927,-15.82,
51185010,-0.86,0.066,0.7,-34.527,41.23,-21.122,
51185010,-0.93,0.04,0.713,-46.357,34.667,-27.405,
51185030,-0.951,-0.012,0.671,-51.065,20.265,-29.96,
51185030,-0.938,-0.082,0.637,-45.99,5.425,-26.705,
51185050,-0.889,-0.072,0.637,-32.987,-4.392,-21.122,
51185050,-0.877,-0.042,0.645,-21.472,-9.642,-16.187,
51185070,-0.851,-0.012,0.664,-13.807,-9.432,-14.122,
51185070,-0.803,0.003,0.68,-9.835,-6.107,-14.227,
51185080,-0.782,-0.008,0.697,-7.035,-0.787,-11.847,
51185090,-0.808,-0.03,0.727,-3.92,3.22,-8.995,
51185100,-0.838,-0.015,0.762,-3.01,3.447,-9.345,
51185110,-0.851,-0.016,0.778,-2.257,-1.837,-11.935,
51185120,-0.818,-0.031,0.785,0.49,-9.065,-15.015,
51185130,-0.784,-0.041,0.794,5.267,-16.8,-17.64,
51185140,-0.751,-0.04,0.801,10.29,-23.362,-20.667,
51185150,-0.699,-0.026,0.817,13.755,-27.982,-21.997,
51185160,-0.656,-0.031,0.805,15.522,-29.662,-20.195,
51185170,-0.625,-0.05,0.807,18.025,-28.682,-18.217,
51185180,-0.603,-0.058,0.806,20.632,-25.2,-16.887,
51185190,-0.595,-0.063,0.806,22.785,-19.775,-15.89,
51185200,-0.599,-0.073,0.795,23.712,-12.985,-16.012,
51185210,-0.6,-0.075,0.795,27.422,-5.285,-19.39,
51185220,-0.618,-0.076,0.792,31.027,1.645,-22.54,
51185230,-0.635,-0.066,0.784,33.46,6.545,-23.52,
51185240,-0.66,-0.046,0.802,35.07,8.54,-22.382,
51185250,-0.713,-0.073,0.801,35.42,6.86,-18.025,
51185260,-0.698,-0.075,0.797,35.962,2.8,-15.837,
51185270,-0.634,-0.074,0.803,36.592,-0.472,-12.145,
51185280,-0.595,-0.078,0.792,37.432,0.332,-4.112,
51185290,-0.532,-0.031,0.755,32.865,6.86,-1.557,
51185300,-0.5,-0.01,0.71,27.037,19.897,-3.167,
51185310,-0.517,0.007,0.652,20.072,35.735,-3.57,
51185320,-0.574,0.015,0.606,13.055,49.105,-1.785,
51185330,-0.665,0.032,0.58,4.847,58.38,1.12,
51185340,-0.751,0.036,0.543,-5.74,60.077,2.485,
51185350,-0.817,0.01,0.517,-14,55.982,2.17,
51185360,-0.862,-0.01,0.53,-18.567,47.005,1.802,
51185370,-0.899,-0.008,0.553,-24.412,32.725,0.822,
51185380,-0.893,-0.023,0.564,-29.47,15.347,0.07,
51185390,-0.845,-0.034,0.576,-35.07,1.785,-0.962,
51185400,-0.807,-0.05,0.582,-41.037,-7.7,-3.01,
51185410,-0.8,-0.075,0.586,-45.307,-13.737,-5.005,
51185420,-0.804,-0.11,0.606,-45.692,-19.687,-7.612,
51185420,-0.804,-0.148,0.601,-44.835,-25.795,-7.245,
51185440,-0.782,-0.204,0.598,-37.345,-29.767,-6.422,
51185440,-0.735,-0.189,0.652,-26.197,-28.192,-8.82,
51185450,-0.762,-0.191,0.669,-18.2,-25.672,-9.45,
51185460,-0.76,-0.192,0.723,-7.647,-22.925,-13.02,
51185470,-0.774,-0.204,0.754,-1.242,-21.612,-13.842,
51185480,-0.788,-0.197,0.776,2.922,-21.665,-14.42,
51185490,-0.773,-0.178,0.795,4.917,-22.627,-15.557,
51185500,-0.758,-0.162,0.807,4.83,-22.75,-15.067,
51185510,-0.732,-0.147,0.798,1.942,-22.347,-13.09,
51185520,-0.687,-0.136,0.779,-1.207,-16.747,-11.095,
51185530,-0.669,-0.119,0.77,-4.305,-6.44,-9.03,
51185540,-0.679,-0.116,0.766,-8.155,6.317,-5.442,
51185550,-0.719,-0.124,0.775,-12.285,17.447,-0.735,
51185560,-0.743,-0.13,0.79,-16.467,24.92,4.305,
51185570,-0.782,-0.117,0.801,-20.895,25.865,8.732,
51185580,-0.82,-0.096,0.791,-26.687,20.475,12.74,
51185590,-0.819,-0.046,0.794,-36.54,13.002,15.995,
51185600,-0.827,-0.079,0.719,-51.677,5.88,18.392,
51185610,-0.787,-0.113,0.659,-56.122,4.515,12.407,
51185620,-0.781,-0.138,0.62,-52.097,5.862,4.882,
51185630,-0.784,-0.124,0.619,-42.927,6.702,-2.782,
51185640,-0.789,-0.106,0.63,-34.562,4.025,-8.435,
51185650,-0.775,-0.105,0.636,-27.527,-1.032,-12.617,
51185660,-0.751,-0.111,0.645,-21.822,-6.947,-14.332,
51185670,-0.736,-0.107,0.636,-16.047,-12.372,-13.982,
51185680,-0.729,-0.097,0.642,-10.167,-17.762,-13.772,
51185690,-0.738,-0.089,0.646,-6.317,-22.61,-12.95,
51185700,-0.721,-0.08,0.645,-4.48,-27.055,-12.932,
51185710,-0.687,-0.081,0.628,-4.62,-29.19,-10.325,
51185720,-0.668,-0.084,0.61,-4.62,-27.492,-4.462,
51185730,-0.681,-0.084,0.602,-4.445,-23.345,3.307,
51185740,-0.698,-0.062,0.631,-6.125,-20.457,8.61,
51185750,-0.722,-0.055,0.611,-14.822,-19.53,11.287,
51185760,-0.745,-0.068,0.578,-21.542,-20.405,10.972,
51185760,-0.756,-0.103,0.543,-22.347,-23.555,12.057,
51185780,-0.733,-0.128,0.524,-15.12,-26.88,17.745,
51185780,-0.715,-0.128,0.525,-3.255,-29.347,28,
51185800,-0.706,-0.107,0.546,6.545,-29.645,37.87,
51185800,-0.706,-0.057,0.586,8.767,-26.18,43.4,
51185820,-0.743,-0.05,0.582,4.532,-23.24,46.252,
51185820,-0.773,-0.046,0.617,-0.21,-23.1,47.145,
51185830,-0.796,-0.076,0.595,-9.415,-28.455,47.845,
51185840,-0.764,-0.096,0.57,-14.49,-35.595,48.335,
51185850,-0.727,-0.144,0.555,-13.055,-42.787,53.2,
51185860,-0.685,-0.141,0.586,-7.56,-46.462,61.495,
51185870,-0.699,-0.123,0.598,-5.075,-48.317,68.722,
51185880,-0.72,-0.147,0.624,1.855,-46.567,67.847,
51185890,-0.722,-0.083,0.724,4.147,-43.54,60.742,
51185900,-0.748,-0.067,0.784,-2.292,-42.875,52.36,
51185910,-0.745,-0.064,0.847,-12.32,-44.555,41.65,
51185920,-0.758,-0.083,0.858,-24.727,-49.77,31.342,
51185930,-0.725,-0.081,0.886,-31.36,-55.65,22.225,
51185940,-0.685,-0.088,0.873,-39.777,-61.11,17.342,
51185950,-0.662,-0.094,0.859,-45.867,-64.732,14.105,
51185960,-0.638,-0.11,0.841,-48.195,-66.29,11.322,
51185970,-0.613,-0.118,0.831,-50.242,-66.832,8.627,
51185980,-0.565,-0.109,0.839,-51.187,-65.485,6.72,
51185990,-0.524,-0.105,0.816,-51.502,-60.06,7.017,
51186000,-0.482,-0.122,0.876,-43.89,-51.66,8.225,
51186010,-0.477,-0.129,0.86,-43.627,-40.74,10.307,
51186020,-0.493,-0.164,0.88,-32.865,-28.63,6.02,
51186030,-0.516,-0.127,0.891,-28.735,-17.85,2.327,
51186040,-0.538,-0.164,0.857,-31.447,-11.375,-0.017,
51186050,-0.532,-0.198,0.861,-24.727,-6.212,-3.307,
51186060,-0.568,-0.186,0.858,-19.092,-4.27,-1.19,
51186070,-0.665,-0.206,0.863,-9.992,-12.722,1.137,
51186080,-0.686,-0.21,0.876,0.91,-29.26,0.315,
51186090,-0.65,-0.181,0.865,7.752,-46.917,-0.122,
51186100,-0.59,-0.155,0.862,10.64,-59.902,-1.82,
51186110,-0.56,-0.144,0.864,8.592,-67.795,-3.99,
51186120,-0.53,-0.178,0.839,5.477,-73.08,-6.195,
51186120,-0.482,-0.203,0.831,7.28,-76.825,-6.335,
51186140,-0.506,-0.198,0.827,9.747,-82.862,-0.14,
51186140,-0.507,-0.186,0.857,11.602,-88.725,2.555,
51186160,-0.476,-0.19,0.854,10.482,-94.307,2.555,
51186160,-0.428,-0.225,0.838,8.89,-96.46,3.185,
51186170,-0.356,-0.256,0.823,11.725,-94.482,5.04,
51186180,-0.346,-0.25,0.843,16.432,-86.905,9.695,
51186190,-0.277,-0.272,0.874,21.612,-76.632,10.867,
51186200,-0.171,-0.271,0.873,28.56,-59.412,16.555,
51186210,-0.069,-0.233,0.928,39.48,-26.845,28.21,
51186220,-0.179,-0.248,0.969,42.7,9.765,42.052,
51186230,-0.274,-0.232,0.982,40.11,41.825,50.12,
51186240,-0.335,-0.257,0.984,36.785,67.41,51.415,
51186250,-0.357,-0.26,0.984,38.552,89.442,51.502,
51186260,-0.386,-0.216,0.954,40.652,111.23,53.27,
51186270,-0.396,-0.088,1.02,36.627,136.5,51.222,
51186280,-0.479,-0.132,0.954,21.91,158.252,50.75,
51186290,-0.493,-0.226,0.912,20.597,176.102,49.542,
51186300,-0.622,-0.198,0.864,30.222,181.317,61.127,
51186310,-0.691,-0.048,0.875,38.657,173.915,67.952,
51186320,-0.718,0.022,0.856,35.262,162.89,67.287,
51186330,-0.736,-0.001,0.802,28.49,150.395,63.892,
51186340,-0.697,0.013,0.76,22.89,138.897,61.792,
51186350,-0.59,0.079,0.712,16.012,134.295,61.495,
51186360,-0.564,0.088,0.621,3.535,139.545,63.612,
51186370,-0.626,0.053,0.589,-8.697,145.372,63.892,
51186380,-0.649,0.074,0.569,-13.685,147.892,66.307,
51186390,-0.611,0.107,0.578,-17.832,149.45,73.465,
51186400,-0.693,0.119,0.567,-26.092,152.372,79.572,
51186410,-0.727,0.117,0.534,-34.562,153.842,80.692,
51186420,-0.76,0.114,0.515,-40.46,155.172,78.907,
51186430,-0.811,0.098,0.496,-45.36,154.7,75.897,
51186440,-0.85,0.066,0.457,-44.695,150.92,72.17,
51186450,-0.931,0.048,0.463,-35.367,142.275,67.882,
51186460,-0.953,0.097,0.466,-28.525,126.665,62.615,
51186470,-0.953,0.111,0.457,-23.642,106.662,57.12,
51186480,-0.952,0.103,0.446,-20.247,85.732,49.472,
51186490,-0.902,0.118,0.444,-20.317,68.477,44.537,
51186500,-0.882,0.116,0.429,-20.142,54.11,42.63,
51186510,-0.869,0.122,0.423,-20.737,44.327,42,
51186510,-0.885,0.106,0.419,-19.95,37.887,43.365,
51186530,-0.919,0.091,0.421,-17.727,33.582,42.735,
51186530,-0.923,0.103,0.425,-15.767,28.595,40.565,
51186550,-0.923,0.119,0.448,-15.067,25.812,37.94,
51186550,-1.034,0.132,0.466,-16.17,20.79,33.74,
51186570,-1.082,0.133,0.468,-19.792,6.895,28.525,
51186570,-1.052,0.089,0.475,-19.302,-9.765,22.732,
51186580,-1.024,0.084,0.483,-15.557,-25.13,13.23,
51186590,-0.998,0.099,0.483,-11.025,-39.62,5.372,
51186600,-0.933,0.108,0.49,-5.215,-50.4,2.94,
51186610,-0.857,0.12,0.489,2.537,-55.247,5.512,
51186620,-0.771,0.137,0.503,9.572,-52.832,10.972,
51186630,-0.739,0.133,0.521,11.812,-43.05,17.097,
51186640,-0.74,0.133,0.547,12.127,-28.49,22.085,
51186650,-0.78,0.149,0.594,11.602,-12.81,26.897,
51186660,-0.854,0.176,0.631,6.982,0.105,29.47,
51186670,-0.93,0.183,0.649,-1.032,7.49,28.735,
51186680,-0.993,0.148,0.649,-9.537,8.627,25.077,
51186690,-1.032,0.116,0.666,-13.825,2.835,18.217,
51186700,-1.101,0.104,0.651,-17.027,-13.037,9.817,
51186710,-1.001,0.082,0.622,-19.862,-35.595,0.63,
51186720,-0.966,0.004,0.618,-13.037,-52.622,-5.407,
51186730,-0.939,-0.026,0.624,-0.192,-70.28,-10.465,
51186740,-0.88,-0.02,0.654,14.56,-87.272,-15.697,
51186750,-0.841,-0.015,0.704,26.897,-101.307,-22.522,
51186760,-0.811,-0.009,0.745,35.297,-115.167,-31.08,
51186770,-0.799,-0.023,0.743,41.265,-130.865,-40.32,
51186780,-0.764,-0.039,0.709,48.457,-146.685,-52.71,
51186790,-0.671,-0.008,0.691,56.98,-157.15,-66.412,
51186800,-0.576,0.038,0.67,59.867,-158.882,-79.31,
51186810,-0.451,0.091,0.674,57.12,-147.7,-94.762,
51186820,-0.406,0.117,0.664,47.425,-125.807,-110.25,
51186830,-0.42,0.13,0.657,34.65,-97.702,-126.63,
51186830,-0.445,0.152,0.678,21.332,-68.81,-140.84,
51186850,-0.49,0.162,0.713,5.407,-43.61,-150.692,
51186850,-0.534,0.178,0.708,-16.17,-24.132,-157.535,
51186870,-0.555,0.14,0.685,-39.742,-6.615,-161.98,
51186870,-0.614,0.087,0.654,-61.425,7.192,-165.952,
51186890,-0.684,0.046,0.615,-80.395,13.317,-171.552,
51186890,-0.737,0.009,0.554,-94.99,11.865,-169.802,
51186910,-0.773,-0.028,0.492,-104.125,5.442,-162.645,
51186910,-0.765,-0.1,0.425,-105.91,-3.815,-154.14,
51186920,-0.731,-0.145,0.4,-98.542,-10.272,-144.672,
51186930,-0.709,-0.183,0.423,-81.777,-15.155,-133.087,
51186940,-0.69,-0.195,0.411,-59.832,-16.345,-119.227,
51186950,-0.684,-0.191,0.477,-29.505,-12.67,-106.68,
51186960,-0.728,-0.144,0.549,-2.66,-9.94,-96.215,
51186970,-0.776,-0.154,0.6,18.935,-12.215,-88.707,
51186980,-0.728,-0.092,0.646,34.422,-15.995,-85.067,
51186990,-0.695,-0.019,0.716,42.665,-19.792,-81.9,
51187000,-0.71,0.059,0.801,41.072,-21.052,-77.227,
51187010,-0.696,0.126,0.879,25.55,-22.382,-74.235,
51187020,-0.614,0.152,0.9,-2.835,-19.775,-73.675,
51187030,-0.519,0.101,0.863,-34.562,-6.405,-67.375,
51187040,-0.41,0.057,0.823,-71.767,20.965,-56.595,
51187050,-0.464,-0.002,0.769,-106.452,55.002,-40.197,
51187060,-0.705,-0.13,0.761,-130.742,76.3,-17.045,
51187070,-0.945,-0.439,0.585,-134.557,70.945,37.135,
51187080,-0.966,-0.697,0.468,-94.64,52.552,91.822,
51187090,-0.7,-0.605,0.478,-46.707,63.997,76.44,
51187100,-0.824,-0.535,0.603,-5.862,92.68,80.972,
51187110,-1.135,-0.544,0.655,3.605,114.782,83.265,
51187120,-1.339,-0.646,0.61,5.81,117.407,74.585,
51187130,-1.39,-0.711,0.594,19.04,105.052,52.045,
51187140,-1.324,-0.651,0.589,35.455,84.647,27.72,
51187150,-1.266,-0.649,0.513,55.51,61.652,16.222,
51187160,-1.099,-0.605,0.487,88.252,40.915,14.297,
51187170,-1.011,-0.547,0.437,124.11,20.177,40.075,
51187180,-0.963,-0.463,0.393,160.93,-0.21,67.287,
51187190,-0.793,-0.239,0.442,187.46,-9.31,66.552,
51187200,-0.705,-0.1,0.466,193.445,-6.825,58.292,
51187210,-0.691,-0.044,0.499,187.11,1.645,52.412,
51187220,-0.732,-0.023,0.499,174.072,6.58,49.315,
51187230,-0.744,-0.019,0.486,163.992,5.495,44.695,
51187240,-0.717,0.032,0.503,156.922,1.837,36.557,
51187250,-0.718,0.114,0.497,143.412,-2.625,27.387,
51187260,-0.729,0.115,0.476,130.655,-5.425,14.192,
51187260,-0.727,0.147,0.502,119.455,-4.777,2.59,
51187280,-0.786,0.168,0.482,100.24,-7.507,-5.215,
51187280,-0.863,0.155,0.531,84.997,-14.7,-14.227,
51187300,-0.938,0.183,0.512,59.71,-28.927,-23.467,
51187300,-0.958,0.141,0.481,41.335,-46.165,-40.215,
51187320,-0.916,0.083,0.47,37.24,-63.455,-55.37,
51187320,-0.842,0.093,0.482,35.647,-78.732,-62.737,
51187330,-0.751,0.116,0.477,32.48,-88.305,-65.747,
51187340,-0.673,0.148,0.494,28.367,-90.562,-64.487,
51187350,-0.622,0.182,0.498,18.672,-89.022,-63.105,
51187360,-0.592,0.163,0.522,13.02,-84.787,-62.825,
51187370,-0.554,0.15,0.549,7.245,-78.015,-59.43,
51187380,-0.536,0.133,0.57,0.56,-69.72,-51.362,
51187390,-0.555,0.099,0.595,-4.095,-60.34,-42.857,
51187400,-0.592,0.062,0.633,-6.422,-51.835,-36.995,
51187410,-0.652,0.035,0.678,-9.572,-46.41,-28.612,
51187420,-0.701,-0.016,0.677,-17.99,-43.68,-23.362,
51187430,-0.737,-0.09,0.673,-18.2,-42.28,-23.117,
51187440,-0.775,-0.116,0.697,-12.845,-43.137,-26.372,
51187450,-0.795,-0.106,0.738,-7.35,-47.372,-28.192,
51187460,-0.804,-0.102,0.765,-4.585,-55.002,-28.63,
51187470,-0.769,-0.117,0.764,-3.605,-62.842,-29.802,
51187480,-0.713,-0.124,0.772,-1.417,-66.587,-30.975,
51187490,-0.654,-0.117,0.761,0.07,-65.257,-32.935,
51187500,-0.625,-0.108,0.76,3.447,-60.182,-31.745,
51187510,-0.606,-0.092,0.754,4.725,-53.55,-27.23,
51187520,-0.604,-0.086,0.727,5.39,-46.62,-22.102,
51187530,-0.605,-0.083,0.697,8.242,-39.025,-18.917,
51187540,-0.607,-0.069,0.682,13.492,-32.2,-16.03,
51187550,-0.612,-0.05,0.701,17.5,-27.055,-12.04,
51187560,-0.634,-0.04,0.737,18.585,-24.797,-7.91,
51187570,-0.666,-0.052,0.77,16.327,-24.692,-4.935,
51187580,-0.671,-0.077,0.786,12.897,-26.285,-3.342,
51187580,-0.655,-0.096,0.784,8.785,-25.935,-1.75,
51187600,-0.639,-0.104,0.775,3.885,-22.172,0.245,
51187600,-0.628,-0.097,0.782,-1.802,-16.152,2.66,
51187620,-0.621,-0.106,0.783,-7.857,-11.2,6.405,
51187620,-0.62,-0.124,0.765,-12.985,-5.495,12.337,
51187640,-0.621,-0.124,0.767,-16.485,1.347,18.9,
51187640,-0.64,-0.109,0.776,-19.687,7.507,24.762,
51187660,-0.655,-0.102,0.792,-24.15,12.197,29.837,
51187660,-0.655,-0.113,0.795,-29.697,17.552,34.37,
51187670,-0.653,-0.125,0.796,-33.337,24.36,37.187,
51187680,-0.682,-0.13,0.818,-34.86,32.06,38.5,
51187690,-0.73,-0.142,0.829,-38.5,37.187,38.36,
51187700,-0.732,-0.171,0.815,-40.477,39.322,36.872,
51187710,-0.676,-0.105,0.913,-42.105,41.23,36.872,
51187720,-0.705,-0.093,0.886,-67.445,45.517,38.832,
51187730,-0.726,-0.202,0.817,-83.265,50.382,29.872,
51187740,-0.725,-0.264,0.8,-80.78,53.637,16.327,
51187750,-0.737,-0.266,0.808,-73.972,50.732,12.145,
51187760,-0.768,-0.277,0.799,-67.48,41.475,14.595,
51187770,-0.766,-0.282,0.783,-60.182,29.732,12.565,
51187780,-0.717,-0.246,0.763,-56.717,20.545,7.21,
51187790,-0.675,-0.228,0.728,-55.387,14.245,6.807,
51187800,-0.619,-0.223,0.698,-52.902,13.492,9.555,
51187810,-0.583,-0.21,0.678,-49.875,19.022,12.232,
51187820,-0.554,-0.184,0.672,-49.315,30.205,14.192,
51187830,-0.591,-0.177,0.68,-50.505,44.082,16.012,
51187840,-0.684,-0.205,0.689,-52.167,54.372,16.222,
51187850,-0.718,-0.19,0.697,-53.637,59.08,12.11,
51187860,-0.726,-0.146,0.698,-58.257,60.602,8.662,
51187870,-0.752,-0.118,0.676,-66.15,62.912,5.162,
51187880,-0.773,-0.101,0.65,-74.76,63.805,-4.865,
51187890,-0.804,-0.083,0.617,-84.945,60.707,-14.14,
51187900,-0.832,-0.094,0.579,-93.905,51.87,-21.437,
51187910,-0.882,-0.08,0.549,-100.765,36.61,-29.172,
51187920,-0.919,-0.097,0.527,-101.955,13.562,-35.455,
51187930,-0.916,-0.138,0.476,-96.46,-13.597,-38.92,
51187940,-0.84,-0.158,0.456,-81.392,-37.712,-44.45,
51187950,-0.752,-0.128,0.502,-67.795,-51.31,-49.087,
51187960,-0.758,-0.14,0.536,-61.442,-58.065,-50.277,
51187970,-0.79,-0.162,0.572,-60.095,-61.67,-54.95,
51187980,-0.817,-0.214,0.562,-61.705,-68.967,-59.185,
51187990,-0.771,-0.292,0.592,-60.27,-76.457,-64.242,
51188000,-0.685,-0.348,0.584,-59.412,-81.375,-65.8,
51188010,-0.676,-0.333,0.607,-54.635,-78.662,-62.65,
51188010,-0.712,-0.321,0.655,-49.717,-74.62,-59.78,
51188030,-0.479,-0.415,0.666,-52.412,-68.145,-55.58,
51188030,-0.286,-0.563,0.669,-42.84,-41.877,-30.467,
51188050,-0.569,-0.539,0.768,-34.807,-9.975,-10.867,
51188050,-0.635,-0.501,0.769,-35.472,6.51,2.625,
51188070,-0.627,-0.535,0.675,-37.467,14.402,14.682,
51188070,-0.758,-0.486,0.682,-35.735,15.925,32.62,
51188080,-0.718,-0.517,0.607,-38.535,12.232,45.92,
51188090,-0.773,-0.606,0.593,-23.747,8.907,50.487,
51188100,-0.639,-0.427,0.682,-11.095,6.86,41.475,
51188110,-0.549,-0.426,0.613,-10.955,9.782,52.972,
51188120,-0.528,-0.382,0.603,-9.905,24.902,56.262,
51188130,-0.606,-0.371,0.6,-8.26,38.412,62.457,
51188140,-0.604,-0.354,0.578,-8.872,48.002,67.182,
51188150,-0.602,-0.378,0.575,-9.17,58.467,78.102,
51188160,-0.677,-0.393,0.581,-8.977,69.51,92.172,
51188170,-0.754,-0.363,0.567,-11.392,75.652,105.42,
51188180,-0.78,-0.329,0.581,-12.25,80.692,116.095,
51188190,-0.837,-0.328,0.573,-13.405,85.312,124.477,
51188200,-0.91,-0.371,0.518,-10.43,83.842,129.43,
51188210,-0.96,-0.339,0.509,1.575,75.442,130.97,
51188220,-0.957,-0.267,0.474,10.517,64.295,136.185,
51188230,-0.93,-0.257,0.4,23.117,56.472,144.165,
51188240,-0.886,-0.206,0.405,39.567,55.51,144.375,
51188250,-0.941,-0.102,0.401,45.342,56,147.402,
51188260,-1.061,-0.107,0.332,48.842,51.012,151.445,
51188270,-1.024,-0.058,0.33,56.542,48.405,149.747,
51188280,-1.047,-0.06,0.295,58.292,47.005,156.17,
51188290,-1.055,-0.064,0.292,59.43,49.087,160.667,
51188300,-1.038,-0.086,0.257,61.442,52.377,166.197,
51188310,-0.848,-0.071,0.302,55.125,68.792,176.662,
51188320,-0.95,-0.09,0.341,36.382,96.267,188.16,
51188330,-1.132,-0.081,0.276,7.157,115.692,185.92,
51188330,-1.095,-0.012,0.267,-24.902,134.172,176.96,
51188350,-1.18,-0.043,0.221,-48.3,148.89,165.165,
51188350,-1.177,-0.063,0.095,-66.727,146.79,155.68,
51188370,-1.015,-0.068,0.05,-65.257,145.687,153.247,
51188370,-1,0.01,0.067,-52.99,142.047,154.892,
51188390,-0.973,0.102,0.07,-45.22,135.31,159.897,
51188390,-0.866,0.203,0.058,-37.31,129.972,158.865,
51188410,-0.809,0.258,0.109,-39.865,133.122,154.735,
51188410,-0.919,0.262,0.114,-45.167,137.41,144.462,
51188420,-0.976,0.277,0.199,-53.97,132.02,127.277,
51188430,-0.953,0.268,0.175,-67.007,117.792,111.877,
51188440,-0.919,0.287,0.152,-72.187,105.017,101.097,
51188450,-0.869,0.296,0.214,-74.812,93.555,97.755,
51188460,-0.844,0.234,0.093,-80.15,81.97,104.002,
51188470,-0.783,0.182,0.099,-59.692,77.665,102.27,
51188480,-0.717,0.262,0.168,-41.16,81.567,105.682,
51188490,-0.735,0.255,0.134,-27.177,91.98,111.37,
51188500,-0.716,0.328,0.246,-8.505,109.76,104.772,
51188510,-0.729,0.405,0.266,-7.665,124.022,99.487,
51188520,-0.776,0.409,0.268,-12.582,135.257,90.317,
51188530,-0.838,0.408,0.249,-18.34,136.815,86.905,
51188540,-0.881,0.351,0.2,-16.677,128.502,84.945,
51188550,-0.801,0.386,0.156,-6.212,121.485,80.815,
51188560,-0.844,0.388,0.224,-2.327,121.152,80.027,
51188570,-0.936,0.373,0.142,-1.312,115.902,76.632,
51188580,-0.876,0.399,0.233,12.022,104.475,70.157,
51188590,-0.83,0.425,0.195,11.41,94.185,73.832,
51188600,-0.843,0.425,0.129,13.02,92.435,74.97,
51188610,-0.867,0.392,0.097,14.735,96.162,73.202,
51188620,-0.834,0.453,0.106,17.132,100.59,63.84,
51188630,-0.938,0.387,-0.049,13.125,100.327,63.962,
51188640,-0.927,0.448,-0.038,23.922,91.717,57.557,
51188650,-0.819,0.547,-0.123,23.52,84.262,58.327,
51188660,-0.847,0.559,-0.174,28.875,89.39,60.777,
51188670,-0.869,0.607,-0.214,31.097,102.55,63.385,
51188680,-0.944,0.617,-0.226,31.92,109.917,58.59,
51188690,-0.958,0.616,-0.295,23.642,112.735,45.622,
51188700,-1.014,0.627,-0.323,18.392,110.25,37.765,
51188710,-1.049,0.602,-0.358,14.577,96.582,37.782,
51188720,-1.096,0.567,-0.343,16.257,72.31,41.65,
51188730,-1.105,0.554,-0.305,19.075,42.77,48.86,
51188740,-1.079,0.593,-0.272,23.415,18.025,50.802,
51188750,-1.052,0.586,-0.298,26.46,2.257,45.85,
51188760,-1.002,0.591,-0.208,30.765,-8.977,39.165,
51188760,-1.047,0.683,-0.065,26.162,-17.745,34.825,
51188780,-0.763,0.735,-0.179,5.775,-32.165,25.62,
51188780,-0.732,0.704,-0.105,-2.922,-11.305,23.8,
51188800,-0.953,0.574,-0.21,-19.827,-2.432,19.057,
51188800,-0.828,0.599,-0.166,-19.705,-1.242,15.767,
51188810,-0.862,0.615,-0.183,-18.392,-1.592,19.32,
51188820,-0.881,0.601,-0.151,-21.315,-2.957,14.735,
51188830,-0.89,0.575,-0.148,-18.917,-12.162,13.335,
51188840,-0.767,0.658,-0.11,-10.885,-14.052,14.262,
51188850,-0.832,0.678,-0.102,-16.397,-8.312,5.897,
51188860,-0.873,0.64,-0.065,-28.122,-4.165,-8.4,
51188870,-0.92,0.559,-0.048,-29.785,-10.745,-19.32,
51188880,-0.775,0.549,-0.109,-23.922,-21.157,-21.997,
51188890,-0.589,0.577,-0.154,-14.787,-16.012,-17.867,
51188900,-0.713,0.572,-0.136,-7.315,-1.295,-14.21,
51188910,-0.85,0.57,-0.159,-1.627,-1.68,-10.5,
51188920,-0.962,0.594,-0.108,5.285,-12.232,-2.695,
51188930,-0.891,0.606,-0.168,3.99,-37.187,-7.052,
51188940,-0.596,0.614,-0.267,1.365,-48.492,-15.137,
51188950,-0.647,0.564,-0.278,-1.015,-34.755,-17.815,
51188960,-0.752,0.55,-0.324,-3.272,-22.592,-25.48,
51188970,-0.777,0.564,-0.307,-0.752,-19.197,-26.057,
51188980,-0.862,0.572,-0.27,0.945,-20.195,-18.987,
51188990,-0.869,0.594,-0.254,0.892,-25.882,-14.595,
51189000,-0.81,0.61,-0.173,2.975,-26.512,-11.095,
51189010,-0.962,0.637,-0.107,-0.21,-24.885,-6.072,
51189020,-1.017,0.646,-0.081,-5.897,-31.045,-3.237,
51189030,-1.101,0.69,-0.081,-9.87,-41.037,-1.242,
51189040,-1.173,0.672,-0.21,-22.522,-66.78,-4.62,
51189050,-0.633,0.736,-0.206,-26.6,-88.06,-12.372,
51189060,-0.722,0.471,-0.232,-29.54,-60.532,-9.765,
51189070,-0.951,0.601,-0.257,-28.892,-50.837,-15.75,
51189080,-0.897,0.674,-0.274,-29.102,-66.587,-11.147,
51189080,-0.761,0.652,-0.276,-35.822,-80.482,-5.407,
51189100,-0.699,0.534,-0.269,-44.485,-81.077,-7.822,
51189100,-0.635,0.545,-0.203,-42,-71.767,-13.895,
51189120,-0.675,0.589,-0.096,-42.297,-54.022,-14.875,
51189120,-0.77,0.602,-0.093,-52.272,-38.342,-13.107,
51189140,-0.529,0.683,-0.222,-60.095,-15.33,-7.297,
51189140,-1.524,0.289,-0.01,-79.327,12.11,5.88,
51189160,-1.186,0.509,-0.128,-66.92,-40.722,-11.83,
51189160,-0.316,0.671,-0.212,-33.985,-63.35,-1.697,
51189170,-1.073,0.379,-0.179,-48.317,-29.19,17.64,
51189180,-1.262,0.405,-0.148,-31.85,-44.747,5.075,
51189190,-0.865,0.628,-0.061,10.657,-82.652,12.722,
51189200,-0.705,0.608,-0.033,14.07,-88.69,21.787,
51189210,-0.749,0.558,0.043,7.017,-74.935,9.87,
51189220,-0.751,0.523,0.013,0.84,-69.965,3.22,
51189230,-0.665,0.555,0.037,0.787,-61.442,4.952,
51189240,-0.68,0.571,-0.001,-4.375,-42.822,4.585,
51189250,-0.801,0.531,0.024,-9.555,-23.502,-1.715,
51189260,-0.882,0.522,0,-13.755,-17.972,-8.907,
51189270,-0.82,0.561,-0.004,-10.202,-20.002,-8.872,
51189280,-0.855,0.578,0,-10.885,-23.03,-1.505,
51189290,-0.862,0.573,-0.019,-10.5,-28.63,6.177,
51189300,-0.744,0.63,0,-8.592,-27.562,6.755,
51189310,-0.821,0.609,0.017,-14.472,-19.652,4.585,
51189320,-0.849,0.597,0.015,-20.597,-18.55,1.68,
51189330,-0.737,0.652,0.034,-19.11,-19.355,-0.63,
51189340,-0.881,0.62,0.192,-25.585,-12.915,-6.23,
51189350,-0.999,0.4,0.137,-40.74,-30.555,-19.985,
51189360,-0.218,0.483,-0.126,-20.457,-49.07,-19.81,
51189370,-0.852,0.73,0.117,-14.175,-16.31,3.71,
51189380,-0.962,0.618,0.019,-53.41,-4.515,-13.107,
51189390,-0.858,0.509,0.046,-47.215,-7.577,-24.342,
51189400,-0.873,0.621,0.091,-49.367,-6.93,-13.51,
51189410,-0.956,0.613,0.118,-60.41,0.787,-8.942,
51189420,-1.11,0.467,0.155,-64.172,0.857,-4.48,
51189430,-1.197,0.446,0.146,-58.187,-19.11,4.025,
51189440,-1.083,0.431,0.13,-42.56,-46.585,14.315,
51189450,-1.033,0.395,0.119,-25.27,-66.885,24.045,
51189460,-0.919,0.457,0.155,-4.655,-80.955,27.72,
51189470,-0.9,0.557,0.17,11.462,-85.225,27.562,
51189480,-0.882,0.736,0,6.282,-93.152,19.582,
51189480,-0.674,0.685,-0.055,-13.002,-103.775,5.232,
51189500,-0.437,0.605,-0.046,-21.665,-95.83,-5.11,
51189500,-0.43,0.574,0.106,-27.422,-71.435,-5.617,
51189510,-0.554,0.548,0.259,-30.712,-43.82,-8.855,
51189520,-0.668,0.51,0.31,-35.7,-27.457,-13.02,
51189530,-0.666,0.475,0.314,-36.82,-18.077,-14.525,
51189540,-0.69,0.461,0.308,-34.212,-6.527,-15.137,
51189550,-0.747,0.466,0.277,-31.885,3.552,-18.83,
51189560,-0.759,0.49,0.238,-27.387,11.252,-26.04,
51189570,-0.747,0.504,0.232,-24.78,18.585,-33.617,
51189580,-0.79,0.51,0.28,-26.81,27.965,-41.072,
51189590,-0.872,0.518,0.261,-33.582,27.632,-53.182,
51189600,-0.703,0.508,0.314,-36.907,24.237,-68.215,
51189610,-0.85,0.472,0.334,-42.77,14.227,-66.342,
51189620,-0.884,0.407,0.374,-38.167,-4.69,-63.962,
51189630,-0.829,0.349,0.462,-21.612,-24.5,-64.645,
51189640,-0.671,0.494,0.416,-9.17,-33.757,-68.18,
51189650,-0.641,0.612,0.358,-14.875,-19.635,-72.765,
51189660,-0.798,0.614,0.357,-33.705,-2.922,-84.717,
51189670,-0.86,0.512,0.225,-54.005,3.535,-97.23,
51189680,-0.854,0.521,0.155,-68.652,3.22,-99.715,
51189690,-0.845,0.528,0.069,-83.247,1.137,-91.927,
51189700,-0.915,0.497,0.075,-90.247,-4.725,-87.412,
51189710,-1.002,0.466,0.05,-100.975,-19.232,-79.257,
51189720,-0.943,0.417,0.074,-102.865,-37.59,-68.25,
51189730,-0.82,0.394,0.022,-91.91,-49.035,-54.302,
51189740,-0.708,0.397,0.181,-76.877,-42.63,-40.845,
51189750,-0.771,0.424,0.267,-71.365,-30.502,-32.55,
51189760,-0.811,0.392,0.279,-73.745,-19.477,-27.282,
51189770,-0.794,0.384,0.322,-75.11,-6.335,-27.895,
51189780,-0.884,0.327,0.35,-84.735,7.087,-26.792,
51189790,-1.002,0.281,0.385,-93.432,10.78,-30.362,
51189800,-0.95,0.254,0.423,-96.897,6.02,-31.745,
51189810,-0.893,0.204,0.437,-99.662,2.415,-24.132,
51189820,-0.925,0.154,0.391,-102.637,0.682,-13.142,
51189830,-0.894,0.101,0.323,-95.935,2.73,-2.117,
51189830,-0.906,0.128,0.288,-82.705,9.537,12.215,
51189850,-1.005,0.205,0.267,-72.957,10.99,28.612,
51189850,-0.996,0.276,0.287,-67.235,10.237,44.24,
51189870,-0.971,0.357,0.267,-69.737,14.035,60.217,
51189870,-1.045,0.405,0.258,-78.522,19.512,75.565,
51189890,-1.11,0.412,0.214,-90.807,22.715,87.885,
51189890,-1.151,0.39,0.174,-100.117,20.317,96.547,
51189910,-1.317,0.312,0.237,-102.06,4.707,102.585,
51189910,-1.544,0.011,0.3,-92.505,-37.835,94.255,
51189920,-0.883,-0.176,0.393,-53.06,-93.677,54.565,
51189930,-0.226,0.092,0.478,9.152,-117.565,26.495,
51189940,-0.179,0.216,0.547,32.147,-83.86,52.85,
51189950,-0.556,0.126,0.542,36.225,-31.535,70.227,
51189960,-0.832,0.217,0.464,40.897,-17.36,55.492,
51189970,-0.729,0.413,0.412,42.77,-27.597,41.3,
51189980,-0.622,0.432,0.3,38.412,-29.627,53.672,
51189990,-0.691,0.382,0.213,46.165,-23.642,73.657,
51190000,-0.731,0.438,0.267,61.652,-18.13,84.927,
51190010,-0.786,0.452,0.324,67.252,-16.975,95.41,
51190020,-0.739,0.406,0.317,70.805,-15.4,102.515,
51190030,-0.687,0.373,0.36,79.66,-9.852,109.2,
51190040,-0.615,0.411,0.388,87.377,-0.262,111.842,
51190050,-0.64,0.475,0.387,86.642,11.847,108.272,
51190060,-0.769,0.48,0.357,80.64,23.432,104.247,
51190070,-0.871,0.492,0.342,81.602,25.76,99.75,
51190080,-0.872,0.503,0.301,86.975,17.622,102.515,
51190090,-0.773,0.527,0.324,94.71,10.255,109.06,
51190100,-0.711,0.566,0.357,96.127,12.582,109.917,
51190110,-0.784,0.596,0.368,87.622,21.175,102.2,
51190120,-0.93,0.577,0.323,77.227,20.195,89.11,
51190130,-0.906,0.564,0.304,75.757,14.315,83.265,
51190140,-0.903,0.603,0.327,82.635,6.335,83.737,
51190150,-0.85,0.654,0.358,82.757,-0.49,83.597,
51190160,-0.754,0.701,0.374,75.022,-1.207,78.347,
51190170,-0.6,0.689,0.353,63.997,-0.437,70.297,
51190170,-0.549,0.673,0.302,57.067,3.482,66.342,
51190190,-0.605,0.749,0.292,53.655,10.535,67.322,
51190190,-0.625,0.752,0.284,48.212,15.312,67.375,
51190210,-0.655,0.73,0.332,41.212,21.7,60.707,
51190210,-0.763,0.728,0.356,34.212,22.89,50.155,
51190230,-0.821,0.765,0.38,26.862,17.325,43.645,
51190230,-0.847,0.769,0.38,19.845,3.447,41.195,
51190250,-0.854,0.694,0.275,11.917,-13.282,41.44,
51190250,-0.823,0.793,0.24,12.372,-21.647,41.44,
51190260,-0.797,0.848,0.239,16.957,-27.23,40.022,
51190270,-0.74,0.807,0.235,15.382,-39.847,33.197,
51190280,-0.466,0.792,0.272,14.35,-43.522,29.907,
51190290,-0.422,0.781,0.313,14.14,-30.327,31.027,
51190300,-0.481,0.725,0.355,8.172,-15.995,24.85,
51190310,-0.482,0.679,0.313,1.382,-5.005,18.585,
51190320,-0.631,0.685,0.263,-2.257,3.22,19.705,
51190330,-0.739,0.725,0.267,-4.637,3.115,17.622,
51190340,-0.684,0.676,0.234,-7.052,-2.887,14.472,
51190350,-0.354,0.59,0.421,-5.04,-5.722,12.897,
51190360,1.095,-1.152,1.179,14.087,58.065,35,
51190370,-0.535,-0.729,1.466,188.597,313.687,112.507,
51190380,-1.998,1.128,1.832,312.48,317.152,139.055,
51190390,-1.788,0.383,1.003,240.852,118.177,146.965,
51190400,-0.695,-0.059,0.17,262.43,-6.632,167.755,
51190410,-0.029,0.611,-0.053,320.827,-14.577,167.37,
51190420,-0.088,0.907,-0.362,290.692,28.192,141.207,
51190430,-0.304,1.106,-0.622,222.285,49.157,79.17,
51190440,-0.392,1.055,-1.227,139.79,16.065,31.937,
51190450,-0.314,1.128,-1.228,105.945,-39.865,-10.412,
51190460,-0.389,1.361,-1.199,38.902,-85.557,-50.995,
51190470,-0.593,1.432,-1.14,-34.492,-127.155,-125.37,
51190480,-0.761,1.332,-0.991,-90.352,-175.507,-188.65,
51190490,-0.886,1.215,-0.947,-134.872,-240.625,-210.21,
51190500,-0.934,0.985,-0.776,-147.7,-316.33,-182,
51190510,-0.64,0.845,-0.534,-125.842,-355.162,-135.73,
51190520,-0.378,0.929,-0.134,-92.137,-331.887,-117.757,
51190530,-0.501,0.858,0.207,-77.525,-271.46,-125.51,
51190540,-0.776,0.67,0.418,-69.422,-216.247,-137.672,
51190550,-1.036,0.574,0.655,-47.092,-192.482,-137.55,
51190560,-1.225,0.592,0.809,-32.427,-201.407,-133.927,
51190570,-1.229,0.659,0.836,-35.98,-236.827,-149.31,
51190580,-1.12,0.636,0.664,-54.495,-283.517,-173.985,
51190580,-0.981,0.55,0.453,-63.122,-328.02,-198.1,
51190600,-0.772,0.536,0.261,-57.19,-361.06,-220.377,
51190600,-0.528,0.599,0.175,-43.715,-373.677,-237.702,
51190620,-0.35,0.716,0.187,-36.155,-364.28,-252.017,
51190620,-0.298,0.78,0.263,-37.8,-340.55,-268.222,
51190640,-0.306,0.832,0.311,-51.817,-312.532,-283.902,
51190640,-0.318,0.79,0.362,-70.385,-288.05,-294.927,
51190660,-0.337,0.676,0.372,-90.09,-271.74,-296.117,
51190660,-0.364,0.625,0.408,-103.337,-260.347,-285.407,
51190670,-0.503,0.526,0.411,-105.42,-256.497,-267.295,
51190680,-0.599,0.42,0.39,-101.097,-261.66,-252.735,
51190690,-0.548,0.367,0.446,-87.272,-268.1,-244.457,
51190700,-0.436,0.363,0.515,-72.362,-269.885,-234.272,
51190710,-0.344,0.373,0.602,-62.86,-264.337,-220.167,
51190720,-0.244,0.38,0.7,-62.842,-249.34,-205.397,
51190730,-0.15,0.362,0.768,-73.272,-228.13,-188.457,
51190740,-0.097,0.294,0.777,-91.175,-201.582,-169.925,
51190750,-0.071,0.172,0.746,-104.965,-171.132,-151.357,
51190760,-0.093,-0.002,0.736,-104.562,-139.09,-131.232,
51190770,-0.113,-0.076,0.74,-93.87,-107.677,-109.795,
51190780,-0.198,-0.184,0.812,-76.072,-76.545,-90.212,
51190790,-0.313,-0.181,0.891,-55.877,-49.262,-74.55,
51190800,-0.416,-0.153,0.98,-42.35,-32.48,-65.765,
51190810,-0.536,-0.136,1.052,-37.345,-26.372,-60.305,
51190820,-0.62,-0.128,1.073,-43.977,-28.962,-60.41,
51190830,-0.629,-0.146,1.055,-50.732,-35.962,-65.135,
51190840,-0.59,-0.148,1.03,-55.615,-43.33,-70.332,
51190850,-0.556,-0.138,0.985,-59.587,-49.822,-71.382,
51190860,-0.513,-0.162,0.95,-57.19,-56.805,-67.095,
51190870,-0.448,-0.205,0.924,-47.74,-61.757,-57.645,
51190880,-0.357,-0.19,0.899,-35.385,-61.827,-46.585,
51190890,-0.3,-0.183,0.903,-23.31,-55.072,-35.437,
51190900,-0.241,-0.162,0.935,-14.42,-42.21,-26.985,
51190910,-0.214,-0.148,0.948,-10.885,-26.862,-20.387,
51190920,-0.211,-0.168,0.951,-6.02,-12.127,-12.565,
51190920,-0.219,-0.138,0.971,-2.992,1.592,-5.022,
51190940,-0.254,-0.107,0.936,-3.185,11.777,1.662,
51190940,-0.359,-0.21,0.948,9.45,15.347,18.217,
51190960,-0.421,-0.16,0.919,18.252,11.83,28.21,
51190960,-0.419,-0.094,0.953,25.252,6.597,19.932,
51190980,-0.467,-0.095,0.963,22.47,-0.63,12.477,
51190980,-0.486,-0.131,0.952,16.502,-10.412,2.135,
51191000,-0.479,-0.161,0.942,15.872,-22.33,-6.79,
51191000,-0.455,-0.17,0.938,20.807,-34.335,-11.9,
51191010,-0.401,-0.104,0.965,26.722,-44.292,-13.142,
51191020,-0.368,-0.074,0.967,24.045,-49.77,-9.835,
51191030,-0.296,-0.076,0.964,20.667,-50.61,-6.947,
51191040,-0.211,-0.066,0.93,15.697,-44.135,-4.69,
51191050,-0.146,-0.079,0.942,15.12,-31.22,-3.5,
51191060,-0.127,-0.049,0.923,16.432,-12.197,-0.437,
51191070,-0.126,-0.005,0.921,16.135,6.632,2.065,
51191080,-0.124,0.041,0.928,12.827,23.292,1.05,
51191090,-0.171,0.049,0.947,8.347,35.717,-0.857,
51191100,-0.276,0.035,0.937,0.315,40.74,-4.427,
51191110,-0.373,0.003,0.927,-4.2,36.522,-8.347,
51191120,-0.449,-0.023,0.898,-7.035,23.642,-9.73,
51191130,-0.459,-0.072,0.876,-4.112,5.302,-12.075,
51191140,-0.423,-0.102,0.888,5.057,-10.167,-9.555,
51191150,-0.32,-0.034,0.881,7.665,-17.237,-5.81,
51191160,-0.238,-0.066,0.936,16.922,-13.492,-1.68,
51191170,-0.171,-0.024,0.977,20.055,2.065,3.587,
51191180,-0.18,-0.009,0.984,15.347,20.405,11.707,
51191190,-0.228,-0.05,0.955,14.577,37.415,18.287,
51191200,-0.276,-0.06,0.952,18.007,52.097,28.77,
51191210,-0.302,-0.023,0.897,16.747,65.415,37.537,
51191220,-0.302,-0.016,0.969,24.955,84.122,40.757,
51191230,-0.497,0.022,1.05,30.625,93.607,43.645,
51191240,-0.766,-0.038,0.96,22.172,74.812,42.7,
51191250,-0.595,-0.09,0.944,29.662,61.67,41.055,
51191260,-0.459,-0.044,0.999,52.325,60.865,46.62,
51191270,-0.548,0.043,1.09,65.135,59.675,55.212,
51191280,-0.584,0.099,1.083,56.997,57.347,58.975,
51191290,-0.531,0.065,1.021,46.235,58.957,57.907,
51191300,-0.473,0.103,1.068,42.14,67.9,55.02,
51191310,-0.551,0.127,0.992,28.892,77.315,55.737,
51191320,-0.559,0.176,0.956,19.46,80.622,48.002,
51191330,-0.594,0.106,0.895,16.415,77.245,42.647,
51191330,-0.55,0.118,0.88,18.235,72.187,36.417,
51191350,-0.539,0.126,0.83,20.02,67.165,35.577,
51191350,-0.55,0.118,0.792,25.077,60.497,36.557,
51191370,-0.544,0.123,0.805,33.005,53.935,35.402,
51191370,-0.538,0.173,0.812,32.2,50.68,35.682,
51191390,-0.577,0.175,0.843,32.445,49.315,38.885,
51191390,-0.586,0.167,0.817,28.997,49.875,43.855,
51191410,-0.608,0.149,0.855,19.95,61.372,44.59,
51191410,-0.68,0.183,0.896,5.827,70.07,26.302,
51191420,-0.613,0.177,0.805,-13.737,73.482,3.22,
51191430,-0.644,0.097,0.762,-20.475,77.21,-7.717,
51191440,-0.698,0.051,0.734,-20.387,70.665,-10.307,
51191450,-0.675,0.001,0.657,-19.915,54.005,-5.845,
51191460,-0.628,-0.027,0.651,-9.817,38.377,3.062,
51191470,-0.597,0.02,0.693,5.285,27.37,11.287,
51191480,-0.636,0.11,0.739,11.322,20.947,14.192,
51191490,-0.718,0.171,0.747,6.58,18.06,6.772,
51191500,-0.75,0.168,0.747,-1.032,10.325,-5.477,
51191510,-0.709,0.141,0.75,-10.202,2.415,-13.615,
51191520,-0.708,0.137,0.697,-20.702,-0.647,-24.36,
51191530,-0.625,0.193,0.675,-26.407,1.872,-37.117,
51191540,-0.528,0.116,0.632,-34.142,5.442,-38.482,
51191550,-0.584,0.017,0.597,-30.957,6.125,-25.865,
51191560,-0.584,-0.008,0.584,-15.522,2.187,-6.527,
51191570,-0.482,0.035,0.628,5.337,7.682,13.772,
51191580,-0.507,0.148,0.701,20.37,22.19,29.68,
51191590,-0.611,0.192,0.74,20.247,38.885,38.395,
51191600,-0.588,0.185,0.759,12.687,55.842,40.005,
51191610,-0.614,0.201,0.766,-0.402,73.167,35.262,
51191620,-0.712,0.163,0.748,-16.292,84.035,29.382,
51191630,-0.734,0.097,0.666,-28.017,88.812,28.227,
51191640,-0.738,0.052,0.65,-25.847,89.862,32.147,
51191650,-0.821,0.023,0.671,-20.772,82.932,38.325,
51191660,-0.709,0.011,0.612,-16.415,74.9,42.997,
51191670,-0.648,0.014,0.638,1.767,84.507,50.662,
51191670,-0.686,0.077,0.707,14.612,97.265,53.585,
51191690,-0.692,0.102,0.693,14.647,108.867,52.395,
51191690,-0.667,0.103,0.734,16.852,120.96,48.457,
51191710,-0.753,0.147,0.725,14.892,128.66,50.732,
51191710,-0.808,0.159,0.726,8.662,126.14,50.54,
51191730,-0.781,0.186,0.677,-0.315,119.927,49.595,
51191730,-0.833,0.101,0.586,-3.78,111.667,51.66,
51191750,-0.81,0.102,0.593,4.62,104.632,47.407,
51191750,-0.766,0.126,0.597,4.602,96.425,49.49,
51191760,-0.799,0.177,0.622,6.527,91.455,51.8,
51191770,-0.805,0.192,0.645,6.825,87.027,55.405,
51191780,-0.827,0.191,0.608,4.252,82.127,59.587,
51191790,-0.798,0.174,0.599,5.687,75.985,64.12,
51191800,-0.747,0.185,0.573,12.355,75.145,64.365,
51191810,-0.766,0.214,0.575,15.47,79.695,64.225,
51191820,-0.704,0.24,0.561,16.31,87.395,57.172,
51191830,-0.665,0.233,0.522,11.917,99.575,52.15,
51191840,-0.679,0.256,0.497,7.49,115.325,45.097,
51191850,-0.85,0.248,0.453,-2.397,122.115,41.667,
51191860,-0.931,0.266,0.499,0.332,116.865,27.002,
51191870,-0.989,0.264,0.518,-1.12,101.132,22.015,
51191880,-1.035,0.229,0.474,-7.805,75.075,17.692,
51191890,-1.064,0.206,0.49,-9.24,47.67,10.657,
51191900,-1.061,0.2,0.472,-7.875,14.245,4.34,
51191910,-0.987,0.182,0.421,-3.202,-19.425,2.94,
51191920,-0.959,0.184,0.4,4.672,-47.792,3.482,
51191930,-0.891,0.172,0.341,8.522,-71.207,2.17,
51191940,-0.757,0.17,0.315,15.557,-83.23,-1.015,
51191950,-0.689,0.214,0.288,20.317,-80.885,1.155,
51191960,-0.725,0.21,0.328,21.63,-72.887,2.625,
51191970,-0.669,0.201,0.342,25.182,-62.125,0.507,
51191980,-0.69,0.223,0.365,29.155,-45.605,1.26,
51191990,-0.746,0.182,0.375,36.277,-26.845,3.447,
51192000,-0.784,0.222,0.414,49.612,-12.32,3.727,
51192010,-0.778,0.251,0.449,52.447,2.152,3.92,
51192020,-0.976,0.264,0.523,50.697,8.54,3.78,
51192030,-1.065,0.315,0.534,46.69,-4.182,4.585,
51192040,-1.003,0.386,0.578,42.56,-19.705,6.37,
51192050,-0.98,0.433,0.604,26.302,-29.295,3.5,
51192060,-1.017,0.366,0.522,5.355,-38.517,-2.87,
51192070,-0.966,0.287,0.47,-4.445,-46.795,-6.772,
51192080,-0.955,0.259,0.459,-5.74,-54.04,-4.252,
51192080,-0.97,0.207,0.484,-1.382,-63.735,0.192,
51192100,-0.848,0.203,0.512,9.642,-72.502,11.445,
51192100,-0.926,0.298,0.604,25.2,-70.91,25.462,
51192120,-1.024,0.352,0.658,30.135,-76.632,25.69,
51192120,-0.948,0.417,0.65,26.337,-87.325,19.967,
51192140,-0.91,0.412,0.66,19.512,-94.43,15.067,
51192140,-0.846,0.393,0.655,9.887,-96.565,11.2,
51192160,-0.861,0.423,0.673,1.102,-95.795,8.277,
51192160,-0.869,0.426,0.674,-11.287,-95.917,0.035,
51192170,-0.848,0.373,0.645,-23.677,-100.292,-9.765,
51192180,-0.719,0.345,0.604,-27.475,-107.397,-13.93,
51192190,-0.594,0.363,0.609,-24.482,-110.635,-9.747,
51192200,-0.531,0.327,0.591,-25.742,-107.275,-2.835,
51192210,-0.373,0.285,0.545,-23.52,-93.257,5.547,
51192220,-0.401,0.306,0.564,-17.027,-63.175,15.33,
51192230,-0.445,0.322,0.56,-17.447,-31.447,17.552,
51192240,-0.534,0.307,0.566,-20.335,-2.835,16.1,
51192250,-0.576,0.33,0.606,-21.997,17.377,11.935,
51192260,-0.52,0.38,0.633,-25.882,34.702,7.892,
51192270,-0.567,0.35,0.601,-35.297,52.78,3.657,
51192280,-0.598,0.283,0.562,-45.08,72.817,-4.812,
51192290,-0.602,0.243,0.512,-47.827,94.15,-15.015,
51192300,-0.683,0.279,0.473,-48.702,114.45,-23.957,
51192310,-0.915,0.216,0.512,-60.812,113.225,-33.372,
51192320,-0.977,0.081,0.538,-65.047,85.68,-36.207,
51192330,-0.999,0.156,0.632,-42.14,51.87,-25.025,
51192340,-0.912,0.301,0.696,-28.402,22.155,-18.13,
51192350,-0.878,0.229,0.618,-35.07,5.897,-19.757,
51192360,-0.934,0.091,0.547,-32.812,-2.555,-26.022,
51192370,-0.932,0.116,0.546,-19.687,-15.12,-24.5,
51192380,-0.92,0.159,0.511,-9.38,-32.725,-16.205,
51192390,-0.859,0.222,0.532,0.07,-45.692,-11.322,
51192400,-0.881,0.218,0.514,-2.152,-57.452,1.47,
51192410,-0.829,0.236,0.485,-4.69,-68.425,8.54,
51192420,-0.868,0.202,0.493,-6.422,-75.057,16.607,
51192420,-0.853,0.185,0.496,-6.107,-84.49,20.475,
51192440,-0.73,0.231,0.5,-2.782,-92.767,23.467,
51192440,-0.618,0.28,0.503,-2.957,-88.48,26.705,
51192460,-0.609,0.261,0.528,-6.93,-73.78,23.887,
51192460,-0.682,0.241,0.58,-7.875,-63.507,19.057,
51192480,-0.731,0.231,0.619,-6.702,-67.62,19.267,
51192480,-0.868,0.218,0.664,-4.69,-84.857,22.417,
51192500,-0.664,0.247,0.661,2.765,-112.157,18.165,
51192500,-0.379,0.283,0.644,8.33,-119.367,16.852,
51192510,-0.357,0.262,0.662,14.665,-98.612,21.84,
51192520,-0.456,0.275,0.719,19.985,-71.925,24.832,
51192530,-0.51,0.305,0.789,23.292,-48.335,28.105,
51192540,-0.562,0.348,0.862,22.837,-30.992,29.277,
51192550,-0.587,0.379,0.871,14.735,-18.83,26.967,
51192560,-0.614,0.366,0.855,4.287,-8.435,21.21,
51192570,-0.648,0.339,0.832,-3.447,-2.59,16.065,
51192580,-0.65,0.346,0.831,-8.435,-2.59,14.21,
51192590,-0.716,0.333,0.824,-13.86,-7.455,13.615,
51192600,-0.8,0.284,0.815,-19.547,-23.397,8.82,
51192610,-0.648,0.279,0.759,-17.36,-40.477,4.952,
51192620,-0.544,0.314,0.749,-10.71,-43.977,6.93,
51192630,-0.498,0.321,0.739,-10.972,-37.922,2.992,
51192640,-0.481,0.308,0.72,-14.612,-28.087,-5.18,
51192650,-0.513,0.284,0.706,-14.665,-22.172,-9.24,
51192660,-0.498,0.281,0.679,-12.81,-21.332,-7.42,
51192670,-0.45,0.282,0.685,-11.62,-19.757,-3.727,
51192680,-0.363,0.256,0.65,-11.637,-11.112,-0.577,
51192690,-0.445,0.258,0.672,-8.907,7.472,2.992,
51192700,-0.6,0.291,0.713,-9.117,16.275,2.677,
51192710,-0.688,0.316,0.739,-14.962,9.397,1.365,
51192720,-0.639,0.281,0.713,-22.417,-5.617,1.802,
51192730,-0.548,0.257,0.696,-26.512,-10.447,3.482,
51192740,-0.494,0.239,0.67,-29.312,-3.552,4.777,
51192750,-0.573,0.2,0.653,-29.82,10.22,6.737,
51192760,-0.663,0.156,0.666,-24.255,15.907,8.557,
51192770,-0.624,0.123,0.639,-10.045,10.78,14.612,
51192780,-0.668,0.14,0.658,13.965,0.315,27.737,
51192790,-0.709,0.153,0.659,36.767,-15.697,40.04,
51192800,-0.648,0.221,0.699,60.707,-33.005,46.655,
51192810,-0.586,0.284,0.705,75.827,-45.255,50.505,
51192820,-0.519,0.27,0.68,83.492,-50.802,52.045,
51192830,-0.422,0.254,0.653,94.342,-45.447,52.167,
51192830,-0.406,0.29,0.685,108.605,-26.985,48.072,
51192850,-0.325,0.456,0.731,115.64,8.067,36.767,
51192850,-0.474,0.538,0.792,101.325,52.027,21.332,
51192860,-0.567,0.436,0.712,72.432,76.51,2.887,
51192870,-0.594,0.354,0.673,65.432,91.402,1.365,
51192880,-0.784,0.426,0.712,68.285,89.67,13.737,
51192890,-0.839,0.498,0.755,61.845,72.607,23.397,
51192900,-0.825,0.485,0.765,51.537,52.255,28.63,
51192910,-0.758,0.45,0.744,45.08,35.087,32.917,
51192920,-0.673,0.453,0.718,42.14,25.725,37.922,
51192930,-0.616,0.469,0.704,40.495,25.655,40.512,
51192940,-0.614,0.485,0.7,37.415,32.025,38.395,
51192950,-0.613,0.492,0.731,32.462,38.622,32.445,
51192960,-0.614,0.481,0.753,26.705,40.985,25.48,
51192970,-0.593,0.461,0.786,21.7,41.125,19.442,
51192980,-0.595,0.505,0.797,19.25,40.512,14.665,
51192990,-0.587,0.542,0.807,13.825,39.812,11.725,
51193000,-0.62,0.489,0.769,4.13,36.015,8.05,
51193010,-0.624,0.46,0.703,-0.735,24.465,6.44,
51193020,-0.602,0.449,0.634,-1.995,11.952,8.26,
51193030,-0.565,0.467,0.567,-1.977,3.885,7.402,
51193040,-0.531,0.496,0.537,-3.92,5.512,3.605,
51193050,-0.609,0.491,0.511,-10.272,8.382,-2.047,
51193060,-0.634,0.493,0.497,-15.68,5.127,-7.192,
51193070,-0.687,0.508,0.489,-18.725,-3.5,-8.697,
51193080,-0.659,0.535,0.506,-22.12,-16.625,-10.692,
51193090,-0.566,0.493,0.547,-24.29,-25.357,-10.622,
51193100,-0.541,0.48,0.619,-21.665,-23.31,-8.417,
51193110,-0.579,0.489,0.711,-17.342,-15.82,-8.452,
51193120,-0.575,0.488,0.752,-13.16,-6.737,-8.47,
51193130,-0.655,0.49,0.786,-8.522,3.272,-7.7,
51193140,-0.734,0.48,0.774,-9.047,4.725,-10.727,
51193150,-0.735,0.427,0.687,-9.012,-0.35,-13.247,
51193160,-0.7,0.404,0.622,-1.697,-6.65,-11.27,
51193170,-0.677,0.406,0.569,6.492,-10.185,-5.477,
51193170,-0.691,0.413,0.482,12.81,-14.56,0.21,
51193190,-0.625,0.447,0.407,19.967,-8.82,5.775,
51193190,-0.72,0.439,0.528,23.712,-6.107,5.442,
51193210,-0.664,0.549,0.499,26.092,-13.842,8.68,
51193210,-0.763,0.494,0.525,22.785,-20.457,24.377,
51193230,-0.854,0.481,0.588,13.545,-34.912,27.912,
51193230,-0.701,0.51,0.624,10.517,-51.502,28.455,
51193250,-0.726,0.425,0.7,8.802,-58.082,34.877,
51193250,-0.675,0.41,0.753,14.122,-63.997,36.4,
51193260,-0.522,0.517,0.794,22.102,-60.76,32.567,
51193270,-0.455,0.55,0.741,18.777,-47.215,23.52,
51193280,-0.375,0.455,0.653,10.447,-24.64,9.957,
51193290,-0.429,0.39,0.553,12.74,-3.675,0.892,
51193300,-0.481,0.358,0.549,23.012,7.175,-0.682,
51193310,-0.739,0.31,0.678,37.152,-1.54,3.412,
51193320,-0.416,0.414,0.701,55.965,-26.547,-0.77,
51193330,-0.251,0.678,0.874,70.805,-16.66,-10.937,
51193340,-0.493,0.608,0.759,49.577,-2.03,-17.675,
51193350,-0.474,0.509,0.686,36.487,9.135,-25.41,
51193360,-0.557,0.573,0.722,34.527,14.262,-29.575,
51193370,-0.602,0.564,0.664,21.35,10.99,-29.207,
51193380,-0.612,0.51,0.584,13.737,8.085,-29.942,
51193390,-0.584,0.514,0.521,10.815,7.822,-28.192,
51193400,-0.593,0.551,0.46,7.367,12.74,-25.602,
51193410,-0.676,0.581,0.422,-0.122,16.555,-21.455,
51193420,-0.761,0.54,0.398,-9.52,10.22,-13.772,
51193430,-0.831,0.512,0.409,-17.325,-7.332,-4.462,
51193440,-0.659,0.387,0.355,-22.907,-23.17,8.155,
51193450,-0.725,0.412,0.567,-5.74,-26.285,12.932,
51193460,-0.747,0.532,0.681,-1.242,-41.335,13.965,
51193470,-0.612,0.531,0.663,-1.767,-56.945,17.045,
