#Format version: 1.0
time[ms],accX[g],accY[g],accZ[g],Value 1,Value 2,Value 3,
52162690,-1.009,0.156,0.194,2.03,24.027,-11.13,
52162700,-0.993,0.161,0.194,0.35,23.52,-9.992,
52162710,-0.984,0.194,0.178,-7.612,22.61,-5.302,
52162720,-1.038,0.161,0.163,-15.855,21.052,0.63,
52162730,-0.97,0.168,0.144,-22.137,20.72,-0.717,
52162730,-0.935,0.135,0.05,-29.207,21.21,5.967,
52162750,-1.021,0.165,0.027,-18.41,27.842,13.177,
52162750,-0.988,0.202,0.033,-11.147,28.332,17.762,
52162760,-0.992,0.268,0.067,-7.525,24.885,20.352,
52162770,-0.994,0.31,0.077,-4.462,22.382,19.88,
52162780,-0.982,0.312,0.068,-9.047,17.22,17.045,
52162790,-1.009,0.33,0.075,-11.532,12.267,11.427,
52162800,-0.999,0.316,0.071,-10.377,5.775,6.51,
52162810,-0.997,0.29,0.063,-9.257,-2.17,2.24,
52162820,-0.968,0.292,0.103,-6.335,-10.062,0.595,
52162830,-0.964,0.302,0.137,-3.447,-12.302,-0.49,
52162840,-0.963,0.276,0.137,-2.31,-10.062,-3.01,
52162850,-0.952,0.263,0.128,-0.507,-7.525,-3.885,
52162860,-0.961,0.278,0.123,-0.28,-6.807,-2.03,
52162870,-0.971,0.281,0.119,-0.07,-6.282,-0.735,
52162880,-0.968,0.277,0.13,-0.507,-7.035,-0.332,
52162890,-0.973,0.287,0.117,-1.312,-7.175,0.577,
52162900,-0.972,0.291,0.126,-2.03,-8.312,0.98,
52162910,-0.977,0.279,0.112,-2.975,-9.537,0.122,
52162920,-0.983,0.292,0.113,-2.94,-12.617,-0.297,
52162930,-0.967,0.298,0.123,-3.43,-15.96,-2.082,
52162940,-0.939,0.265,0.151,-4.655,-16.467,-4.2,
52162950,-0.948,0.259,0.149,-4.007,-13.002,-3.062,
52162960,-0.961,0.28,0.15,-2.66,-8.697,-0.665,
52162970,-0.963,0.272,0.137,-3.097,-5.162,0.035,
52162980,-0.962,0.277,0.166,-3.412,-5.39,0.525,
52162990,-0.959,0.277,0.166,-3.132,-5.145,-0.192,
52163000,-0.941,0.263,0.138,-1.872,-2.485,-0.227,
52163010,-0.968,0.271,0.127,-0.315,-0.35,1.05,
52163020,-0.966,0.282,0.13,0.017,-0.63,1.015,
52163030,-0.961,0.277,0.127,0.21,-1.417,0.087,
52163040,-0.977,0.285,0.129,-0.332,-2.87,0.332,
52163050,-0.975,0.289,0.141,-1.347,-5.18,0.595,
52163060,-0.974,0.278,0.142,-2.065,-6.685,-0.332,
52163070,-0.963,0.267,0.133,-1.872,-7.507,-0.892,
52163080,-0.963,0.276,0.127,-1.89,-8.452,-0.315,
52163080,-0.968,0.283,0.135,-2.047,-9.887,0.035,
52163100,-0.979,0.288,0.132,-2.065,-11.06,-0.595,
52163100,-1.035,0.261,0.152,-3.045,-14.227,-2.695,
52163120,-0.977,0.291,0.093,-4.97,-18.97,-8.26,
52163120,-0.959,0.29,0.149,-1.435,-23.275,-8.767,
52163140,-0.981,0.275,0.147,-2.8,-22.505,-8.855,
52163140,-0.973,0.26,0.15,-3.132,-22.75,-8.837,
52163160,-0.965,0.27,0.159,-3.115,-24.377,-8.225,
52163160,-0.94,0.266,0.174,-4.182,-23.712,-7.07,
52163170,-0.958,0.256,0.17,-5.127,-20.65,-5.32,
52163180,-0.956,0.261,0.166,-6.055,-19.617,-3.972,
52163190,-0.944,0.264,0.192,-6.23,-18.287,-3.167,
52163200,-0.95,0.265,0.186,-6.772,-16.432,-3.01,
52163210,-0.954,0.26,0.19,-7.192,-14.595,-2.502,
52163220,-0.955,0.26,0.198,-6.685,-13.02,-2.345,
52163230,-0.897,0.251,0.237,-6.177,-9.992,-1.855,
52163240,-0.887,0.234,0.229,-6.597,-1.05,0.962,
52163250,-0.95,0.243,0.194,-5.722,6.09,4.917,
52163260,-0.937,0.264,0.198,-5.6,6.947,6.93,
52163270,-0.982,0.259,0.169,-7,7.297,7.367,
52163280,-0.966,0.266,0.175,-5.88,6.405,6.387,
52163290,-0.974,0.276,0.177,-4.095,6.125,5.477,
52163300,-0.989,0.262,0.152,-3.727,5.04,4.112,
52163310,-0.984,0.26,0.138,-1.505,0.647,2.8,
52163320,-0.975,0.277,0.158,1.837,-3.325,1.61,
52163330,-1.014,0.278,0.146,2.327,-6.107,-0.367,
52163340,-1.033,0.26,0.131,1.54,-12.057,-3.045,
52163350,-0.993,0.25,0.133,2.012,-19.32,-4.9,
52163360,-0.965,0.261,0.145,1.662,-18.725,-4.637,
52163370,-1.12,0.277,0.066,-2.012,-25.2,-6.772,
52163380,-0.901,0.268,0.196,-1.96,-37.31,-12.582,
52163390,-0.838,0.251,0.207,4.62,-24.92,-12.827,
52163400,-0.909,0.292,0.289,0.28,-16.012,-7.385,
52163410,-0.95,0.251,0.237,-11.077,-16.257,-3.71,
52163420,-0.964,0.209,0.227,-4.97,-13.562,-4.725,
52163420,-0.905,0.245,0.254,1.277,-9.765,-2.17,
52163440,-0.903,0.278,0.25,-0.49,-5.425,1.837,
52163440,-0.952,0.266,0.214,-4.357,-2.275,2.135,
52163460,-0.953,0.251,0.208,-3.85,-1.907,0.91,
52163460,-0.962,0.265,0.21,-1.225,-1.575,0.752,
52163480,-0.96,0.266,0.208,-0.77,-1.172,-0.647,
52163480,-0.926,0.252,0.24,-0.735,0.315,-2.24,
52163500,-0.883,0.247,0.277,-1.347,8.33,0.052,
52163500,-0.957,0.24,0.206,-4.077,16.45,6.982,
52163510,-0.932,0.241,0.201,-6.475,13.615,9.695,
52163520,-0.936,0.242,0.19,-6.877,12.565,9.905,
52163530,-0.992,0.238,0.152,-5.652,13.265,9.94,
52163540,-1.004,0.263,0.157,-2.52,9.397,9.135,
52163550,-1.003,0.279,0.161,0.752,5.792,6.422,
52163560,-0.99,0.266,0.171,1.417,1.942,3.412,
52163570,-0.967,0.249,0.18,2.31,-0.28,1.82,
52163580,-0.967,0.247,0.195,3.342,-1.015,1.417,
52163590,-0.987,0.236,0.169,2.642,-1.085,1.33,
52163600,-1.005,0.248,0.144,2.922,-3.867,1.505,
52163610,-1.014,0.27,0.116,3.062,-10.045,1.032,
52163620,-1.039,0.308,0.078,4.62,-16.117,-2.59,
52163630,-1.094,0.298,0.076,1.33,-27.107,-9.187,
52163640,-1.029,0.254,0.055,1.785,-34.737,-18.34,
52163650,-0.921,0.287,0.111,15.067,-35.297,-21.42,
52163660,-0.864,0.321,0.223,21.175,-29.207,-20.527,
52163670,-0.897,0.285,0.227,19.022,-18.077,-19.442,
52163680,-0.917,0.165,0.194,25.322,-7.962,-16.607,
52163690,-0.86,0.237,0.35,36.557,-3.167,-8.575,
52163700,-0.913,0.304,0.369,21.35,2.135,-3.115,
52163710,-0.971,0.25,0.328,6.492,5.145,-4.742,
52163720,-0.915,0.212,0.312,1.137,4.235,-5.582,
52163730,-0.849,0.22,0.328,-1.067,5.862,-2.222,
52163740,-0.942,0.247,0.287,-4.777,9.765,3.43,
52163750,-0.912,0.215,0.341,-6.65,11.41,5.11,
52163760,-0.939,0.197,0.263,-11.865,16.52,9.047,
52163770,-0.95,0.217,0.24,-13.352,18.2,12.477,
52163780,-0.938,0.264,0.145,-23.625,12.46,15.277,
52163790,-0.928,0.236,0.062,-26.53,10.92,15.312,
52163800,-1.017,0.255,0.032,-20.807,10.342,18.55,
52163810,-1.051,0.306,0.054,-12.127,5.845,16.485,
52163820,-1.027,0.317,0.111,-8.855,-1.085,9.8,
52163830,-1.02,0.279,0.142,-7.735,-5.425,2.187,
52163830,-0.97,0.244,0.177,-5.075,-10.552,-1.627,
52163850,-0.943,0.241,0.201,-3.78,-13.632,-0.91,
52163850,-0.949,0.241,0.195,-3.08,-11.882,0.822,
52163870,-0.969,0.238,0.17,-3.99,-12.197,3.01,
52163870,-1.002,0.257,0.152,-4.34,-16.362,5.285,
52163890,-1.038,0.239,0.15,-4.357,-22.732,3.325,
52163890,-1.077,0.277,0.078,0.175,-28.28,-3.272,
52163910,-1.085,0.268,0.121,5.985,-40.285,-11.69,
52163910,-0.925,0.261,0.213,16.695,-39.375,-17.43,
52163920,-0.875,0.325,0.281,14.56,-34.02,-16.24,
52163930,-0.816,0.277,0.283,4.427,-22.925,-15.697,
52163940,-0.885,0.202,0.287,2.66,-12.04,-10.92,
52163950,-0.909,0.215,0.287,1.89,-6.387,-3.657,
52163960,-0.904,0.245,0.31,1.802,-1.295,0.962,
52163970,-0.912,0.255,0.282,-2.275,4.392,2.695,
52163980,-0.888,0.243,0.256,-4.777,8.592,4.27,
52163990,-1.032,0.256,0.228,-5.005,13.02,5.67,
52164000,-0.915,0.261,0.242,-4.812,12.88,3.85,
52164010,-0.892,0.273,0.338,-4.812,18.007,4.112,
52164020,-0.945,0.25,0.264,-6.387,28.805,6.86,
52164030,-0.949,0.223,0.217,-11.62,26.88,9.8,
52164040,-0.947,0.207,0.181,-14.665,23.677,11.34,
52164050,-0.971,0.215,0.139,-14.945,21.805,12.547,
52164060,-0.993,0.238,0.14,-11.375,18.235,13.09,
52164070,-1.036,0.255,0.103,-8.925,12.442,11.427,
52164080,-1.014,0.261,0.095,-6.317,5.005,8.155,
52164090,-1.025,0.28,0.104,-2.8,-3.325,5.967,
52164100,-0.996,0.276,0.144,-3.237,-13.597,3.202,
52164110,-1.003,0.246,0.144,-4.27,-18.725,-0.822,
52164120,-1.051,0.21,0.114,-4.952,-24.762,-2.555,
52164130,-1.05,0.216,0.118,0.857,-33.215,-4.182,
52164140,-1.038,0.255,0.109,9.31,-38.552,-5.355,
52164150,-1.075,0.252,0.092,16.66,-46.375,-10.062,
52164160,-0.867,0.301,0.309,24.675,-52.447,-14.385,
52164170,-0.811,0.318,0.322,16.24,-41.475,-11.077,
52164170,-0.853,0.265,0.332,8.522,-27.107,-9.835,
52164190,-0.812,0.241,0.359,7.717,-16.31,-6.142,
52164190,-0.861,0.245,0.327,5.127,-5.985,-0.192,
52164210,-0.909,0.254,0.289,2.117,1.592,3.78,
52164210,-0.919,0.269,0.259,-0.14,6.93,5.022,
52164230,-0.984,0.27,0.211,-2.695,9.485,5.145,
52164230,-0.991,0.264,0.198,-3.255,7.77,3.692,
52164250,-0.942,0.268,0.213,-0.805,6.16,1.802,
52164250,-0.984,0.259,0.235,-0.962,6.352,0.98,
52164260,-0.904,0.228,0.29,-3.482,6.317,-0.017,
52164270,-0.915,0.216,0.274,-4.445,15.557,2.852,
52164280,-0.944,0.223,0.237,-5.67,21.262,7.157,
52164290,-0.951,0.241,0.212,-6.93,19.74,11.095,
52164300,-0.97,0.272,0.217,-5.32,18.69,12.18,
52164310,-0.976,0.266,0.213,-9.03,16.8,10.972,
52164320,-0.978,0.249,0.191,-10.5,14.612,8.452,
52164330,-0.953,0.252,0.198,-9.485,11.83,7.227,
52164340,-0.967,0.261,0.208,-7,12.512,6.562,
52164350,-0.953,0.254,0.213,-7.612,9.432,6.247,
52164360,-0.969,0.245,0.142,-8.995,6.265,5.39,
52164370,-0.977,0.245,0.137,-0.122,4.165,5.022,
52164380,-0.989,0.288,0.124,0.63,-2.205,6.562,
52164390,-1.014,0.292,0.124,0.525,-6.982,4.602,
52164400,-1.013,0.267,0.155,-1.75,-15.785,2.222,
52164410,-1.045,0.24,0.118,-3.097,-22.137,-3.57,
52164420,-1.142,0.184,0.005,2.94,-34.475,-10.43,
52164430,-0.883,0.241,0.198,23.047,-45.412,-16.135,
52164440,-0.854,0.36,0.349,31.482,-38.255,-10.027,
52164450,-0.919,0.358,0.325,9.17,-26.705,-10.815,
52164460,-0.937,0.223,0.24,1.732,-17.43,-14.49,
52164470,-0.874,0.203,0.253,4.69,-14.07,-9.1,
52164480,-0.884,0.257,0.251,7.752,-7.035,-0.385,
52164490,-0.945,0.293,0.257,5.477,-0.507,3.482,
52164500,-0.943,0.268,0.235,-0.105,3.36,2.012,
52164510,-0.932,0.236,0.222,-1.487,5.355,0.717,
52164520,-0.907,0.249,0.242,-0.752,6.93,1.75,
52164530,-0.911,0.263,0.261,-1.102,9.345,3.517,
52164540,-1.031,0.262,0.28,-4.235,9.537,3.412,
52164550,-0.844,0.264,0.325,-6.072,13.475,2.572,
52164560,-0.971,0.279,0.275,-7.735,28.42,6.65,
52164570,-0.983,0.239,0.229,-13.702,25.2,8.12,
52164580,-0.936,0.209,0.172,-19.215,19.39,7.017,
52164580,-0.939,0.218,0.158,-13.895,19.635,7.63,
52164600,-0.985,0.257,0.139,-10.36,15.102,10.202,
52164600,-1.006,0.27,0.115,-9.957,7.822,9.222,
52164620,-1.03,0.259,0.078,-5.617,1.627,5.792,
52164620,-1.006,0.305,0.126,-0.612,-9.222,5.372,
52164640,-0.989,0.302,0.133,-4.305,-17.832,1.732,
52164640,-0.993,0.245,0.143,-9.467,-22.767,-3.185,
52164660,-1.031,0.179,0.149,-7.35,-26.18,-5.81,
52164660,-1.012,0.178,0.145,5.022,-28.77,-7.49,
52164670,-1.051,0.15,0.091,23.135,-37.677,-7.63,
52164680,-0.835,0.337,0.374,37.852,-47.442,-3.552,
52164690,-0.859,0.424,0.385,16.922,-38.167,-2.38,
52164700,-0.937,0.265,0.294,1.837,-22.015,-9.38,
52164710,-0.878,0.204,0.243,3.552,-12.757,-8.277,
52164720,-0.867,0.254,0.266,6.912,-7.577,-0.77,
52164730,-0.906,0.297,0.272,3.342,-0.822,4.515,
52164740,-0.966,0.271,0.253,-1.4,5.075,3.972,
52164750,-0.94,0.251,0.231,-3.71,6.422,2.327,
52164760,-0.881,0.268,0.241,-1.242,8.872,2.712,
52164770,-0.934,0.272,0.249,-1.225,14.122,5.145,
52164780,-1.001,0.265,0.28,-3.71,16.695,3.342,
52164790,-0.909,0.267,0.264,-4.077,23.87,3.29,
52164800,-0.961,0.285,0.232,-5.407,27.86,4.847,
52164810,-0.959,0.267,0.195,-11.672,21.945,5.722,
52164820,-0.957,0.238,0.191,-13.895,18.812,4.62,
52164830,-0.979,0.237,0.172,-13.02,15.68,5.162,
52164840,-0.995,0.246,0.163,-11.83,11.06,4.847,
52164850,-1.004,0.226,0.118,-9.397,3.167,3.762,
52164860,-0.97,0.254,0.15,-2.397,-1.75,3.132,
52164870,-1.012,0.292,0.151,0.28,-6.632,2.572,
52164880,-0.968,0.27,0.161,-3.832,-15.592,0.822,
52164890,-0.976,0.254,0.168,-4.462,-20.195,0.28,
52164900,-1.035,0.183,0.164,-7.647,-22.137,0.017,
52164910,-1.083,0.161,0.046,-0.875,-25.585,-5.67,
52164920,-1.023,0.243,0.148,18.76,-42.35,-7.192,
52164920,-0.912,0.362,0.283,22.942,-50.05,-5.722,
52164940,-0.903,0.323,0.275,12.582,-41.212,-12.565,
52164940,-0.851,0.243,0.258,12.39,-25.602,-15.277,
52164960,-0.81,0.247,0.287,14.577,-13.107,-7.525,
52164960,-0.894,0.286,0.285,10.237,-2.957,1.767,
52164980,-0.979,0.271,0.285,3.325,1.417,3.132,
52164980,-0.94,0.245,0.272,-0.21,1.295,1.032,
52165000,-0.883,0.253,0.29,1.067,2.765,1.312,
52165000,-0.882,0.277,0.302,0.035,6.65,3.815,
52165010,-0.915,0.265,0.307,-3.902,11.112,5.775,
52165020,-0.8,0.242,0.336,-7.227,18.532,8.015,
52165030,-0.905,0.255,0.269,-6.58,36.697,15.715,
52165040,-1.139,0.291,0.24,-5.232,43.33,13.737,
52165050,-0.98,0.234,0.195,-4.217,27.16,9.52,
52165060,-0.918,0.269,0.238,0,24.255,6.895,
52165070,-0.95,0.312,0.231,-5.792,23.257,8.172,
52165080,-0.958,0.314,0.254,-12.967,22.767,5.302,
52165090,-1.001,0.313,0.3,-22.96,15.277,3.552,
52165100,-0.951,0.206,0.108,-39.567,8.137,-0.437,
52165110,-0.898,0.165,0.14,-15.627,13.685,-3.307,
52165120,-0.974,0.283,0.121,-6.65,10.447,6.44,
52165130,-1.008,0.272,0.027,-10.85,5.687,4.707,
52165140,-1.038,0.242,0.067,-0.612,6.037,-0.91,
52165150,-1.035,0.255,0.077,-0.665,-3.85,0.525,
52165160,-1.012,0.285,0.125,-0.332,-13.037,1.54,
52165170,-1.058,0.237,0.074,-3.797,-25.62,0.297,
52165180,-1.069,0.183,0.049,-3.15,-47.95,-7.595,
52165190,-0.884,0.251,0.262,14.577,-55.93,-10.815,
52165200,-0.956,0.299,0.306,20.51,-40.967,-10.01,
52165210,-0.861,0.269,0.304,16.187,-25.27,-11.147,
52165220,-0.845,0.281,0.311,14.927,-12.757,-4.917,
52165230,-0.941,0.275,0.257,1.785,-7.647,2.502,
52165240,-0.94,0.249,0.229,-2.31,-3.955,2.747,
52165250,-0.942,0.269,0.23,0.647,0.087,2.625,
52165260,-0.951,0.272,0.215,-1.05,1.995,1.452,
52165270,-0.947,0.262,0.227,-0.647,2.642,0.262,
52165280,-0.955,0.27,0.228,0.035,4.497,-0.227,
52165290,-0.946,0.277,0.23,0.087,6.352,-1.4,
52165300,-0.883,0.28,0.269,-0.56,9.31,-1.452,
52165310,-0.88,0.268,0.287,-4.672,19.407,2.117,
52165320,-0.959,0.26,0.202,-8.96,29.802,4.567,
52165330,-0.954,0.26,0.19,-13.282,26.985,6.807,
52165330,-0.987,0.26,0.174,-16.24,22.172,8.12,
52165350,-0.937,0.277,0.2,-14.07,18.567,4.952,
52165350,-0.999,0.255,0.183,-15.557,14.56,7.525,
52165370,-0.992,0.207,0.114,-15.137,9.992,4.217,
52165370,-1.039,0.228,0.101,-4.445,3.5,3.552,
52165390,-0.988,0.272,0.136,1.032,-5.705,2.572,
52165390,-1.029,0.299,0.131,-0.087,-13.037,1.172,
52165410,-1.01,0.248,0.139,-3.307,-22.33,-1.767,
52165410,-1.107,0.182,0.066,-4.27,-29.19,-5.932,
52165420,-1.133,0.172,-0.014,7.14,-46.305,-11.357,
52165430,-0.889,0.237,0.176,27.072,-56.91,-13.965,
52165440,-0.879,0.324,0.324,36.47,-50.505,-12.355,
52165450,-0.906,0.339,0.338,22.102,-41.72,-13.247,
52165460,-0.818,0.267,0.311,13.44,-28,-13.912,
52165470,-0.83,0.238,0.292,11.62,-14,-7.315,
52165480,-0.96,0.24,0.258,6.16,-8.067,0.175,
52165490,-0.929,0.262,0.277,3.902,-7.997,1.732,
52165500,-0.873,0.283,0.302,4.637,-1.837,1.382,
52165510,-0.914,0.268,0.277,0.14,5.67,2.555,
52165520,-0.935,0.246,0.247,-3.395,8.312,3.622,
52165530,-1.009,0.256,0.241,-1.715,10.22,3.5,
52165540,-0.934,0.271,0.23,-1.225,11.917,1.785,
52165550,-0.938,0.285,0.231,-1.645,12.32,0.332,
52165560,-0.952,0.267,0.229,-4.532,10.552,-0.017,
52165570,-0.891,0.253,0.286,-5.162,11.637,1.207,
52165580,-0.939,0.289,0.251,-5.95,23.012,3.622,
52165590,-0.969,0.244,0.208,-11.9,20.702,5.985,
52165600,-0.94,0.217,0.195,-16.187,16.852,6.93,
52165610,-1.003,0.223,0.14,-15.137,17.377,8.96,
52165620,-1.018,0.241,0.134,-12.302,12.18,6.877,
52165630,-1.003,0.239,0.132,-6.72,5.127,4.165,
52165640,-0.983,0.259,0.157,-2.992,-1.137,3.692,
52165650,-0.978,0.269,0.182,-1.96,-6.072,2.415,
52165660,-0.96,0.252,0.196,-2.275,-9.24,0.98,
52165670,-0.97,0.256,0.187,-1.68,-10.447,1.522,
52165670,-0.973,0.255,0.177,-2.047,-13.177,2.415,
52165690,-1.047,0.238,0.117,-3.78,-17.395,1.872,
52165690,-1.169,0.176,-0.011,-2.047,-32.812,-8.417,
52165710,-1.008,0.165,0.045,21.507,-47.18,-17.08,
52165710,-0.939,0.308,0.258,48.86,-44.87,-16.625,
52165730,-0.841,0.403,0.331,32.235,-41.037,-14.14,
52165730,-0.777,0.288,0.311,19.145,-22.05,-17.885,
52165750,-0.869,0.203,0.304,18.655,-5.705,-11.217,
52165750,-0.894,0.236,0.335,13.877,0.385,-0.647,
52165760,-0.926,0.289,0.347,11.252,5.197,3.675,
52165770,-0.92,0.275,0.336,2.362,6.492,2.222,
52165780,-0.835,0.251,0.297,-4.847,9.73,2.362,
52165790,-0.902,0.274,0.28,-5.285,14.892,7.857,
52165800,-1.066,0.29,0.262,-5.705,17.57,9.1,
52165810,-0.892,0.251,0.293,-0.402,23.922,3.972,
52165820,-1,0.276,0.262,1.592,28.735,2.765,
52165830,-0.928,0.267,0.231,-6.125,21.21,2.047,
52165840,-0.929,0.273,0.192,-16.642,17.902,1.365,
52165850,-1.003,0.209,0.083,-18.655,18.62,-0.577,
52165860,-1.009,0.204,0.114,-7.455,15.89,-1.032,
52165870,-0.988,0.27,0.141,-5.547,8.662,2.065,
52165880,-1.009,0.246,0.107,-6.492,6.457,-1.697,
52165890,-1.007,0.217,0.123,-1.89,3.71,-4.637,
52165900,-0.972,0.227,0.153,-0.385,-2.275,-2.94,
52165910,-0.973,0.247,0.172,0.28,-5.705,-0.612,
52165920,-0.962,0.241,0.176,-2.485,-8.54,0.472,
52165930,-0.954,0.234,0.187,-4.76,-10.57,2.047,
52165940,-0.954,0.24,0.209,-5.915,-10.622,4.112,
52165950,-0.96,0.239,0.204,-6.615,-9.45,5.372,
52165960,-0.978,0.245,0.175,-6.125,-10.045,6.475,
52165970,-1.008,0.236,0.159,-5.81,-15.785,5.88,
52165980,-0.983,0.243,0.16,-3.202,-20.282,-0.227,
52165990,-0.924,0.266,0.237,2.94,-20.825,-1.522,
52166000,-0.941,0.279,0.263,0.7,-17.465,-0.962,
52166010,-0.935,0.256,0.252,1.347,-10.622,-0.997,
52166020,-0.924,0.252,0.26,1.487,-4.637,0.437,
52166030,-0.938,0.245,0.228,-1.225,0.192,2.45,
52166040,-0.937,0.245,0.227,-1.4,2.432,3.307,
52166050,-0.956,0.257,0.207,-1.347,4.13,3.552,
52166060,-0.972,0.27,0.203,-0.665,4.655,2.782,
52166070,-0.975,0.274,0.202,-1.032,4.357,0.7,
52166080,-0.963,0.263,0.211,-0.805,2.835,-1.557,
52166080,-0.913,0.255,0.262,0.385,5.6,-2.117,
52166100,-0.9,0.316,0.252,0.577,14.035,-0.7,
52166100,-0.973,0.249,0.214,-8.785,10.867,4.865,
52166110,-0.954,0.197,0.157,-12.092,10.535,2.817,
52166120,-0.978,0.219,0.167,-6.002,9.205,3.36,
52166130,-1,0.248,0.149,-3.272,5.355,4.322,
52166140,-1.003,0.253,0.135,-0.07,0.437,2.485,
52166150,-0.986,0.263,0.155,1.05,-5.302,1.225,
52166160,-0.977,0.26,0.167,-0.367,-11.357,1.05,
52166170,-0.958,0.242,0.174,-2.082,-14.105,0.542,
52166180,-1.005,0.24,0.139,-4.987,-14.84,0.91,
52166190,-1.096,0.167,0.09,-5.652,-24.675,-1.697,
52166200,-0.978,0.187,0.14,4.725,-31.64,-8.12,
52166210,-0.972,0.251,0.18,19.757,-29.4,-7.21,
52166220,-0.869,0.249,0.262,27.422,-24.395,-6.912,
52166230,-0.89,0.34,0.362,27.335,-15.382,-0.962,
52166240,-0.943,0.311,0.276,4.602,-10.342,0.665,
52166250,-0.869,0.213,0.235,-2.905,-5.897,-1.33,
52166260,-0.902,0.235,0.264,2.187,0.682,2.765,
52166270,-0.963,0.294,0.268,0.122,3.675,7.087,
52166280,-0.96,0.309,0.241,-2.73,4.217,4.532,
52166290,-0.957,0.273,0.219,-4.13,4.55,0.717,
52166300,-0.943,0.262,0.219,-4.375,4.987,-0.385,
52166310,-0.904,0.239,0.28,-3.605,7.98,-0.105,
52166320,-0.933,0.24,0.242,-1.452,16.135,3.29,
52166330,-0.928,0.268,0.254,-0.91,17.272,5.932,
52166340,-0.94,0.256,0.226,-8.505,16.992,7.595,
52166350,-0.985,0.242,0.175,-13.247,17.272,8.557,
52166360,-0.993,0.242,0.159,-11.322,15.452,7.612,
52166370,-0.993,0.25,0.144,-9.87,11.655,6.947,
52166380,-1.006,0.246,0.13,-9.817,5.495,5.775,
52166390,-0.973,0.23,0.128,-5.11,-1.295,4.025,
52166400,-0.957,0.268,0.176,-0.087,-5.162,3.622,
52166410,-0.983,0.273,0.172,-0.805,-6.107,2.345,
52166420,-0.973,0.255,0.177,-0.875,-9.835,1.767,
52166420,-0.991,0.275,0.143,-1.592,-13.807,2.485,
52166440,-1.046,0.224,0.115,-4.025,-23.047,0.332,
52166440,-1.059,0.183,0.059,-3.01,-30.712,-10.377,
52166460,-0.925,0.202,0.176,20.615,-33.705,-12.005,
52166460,-0.895,0.282,0.266,29.627,-27.475,-7.525,
52166480,-0.988,0.336,0.294,20.772,-23.905,-3.167,
52166480,-0.943,0.291,0.258,8.085,-22.417,-6.422,
52166500,-0.889,0.218,0.234,4.795,-18.34,-7.245,
52166500,-0.878,0.237,0.255,6.667,-11.357,-1.977,
52166510,-0.9,0.284,0.273,5.792,-4.462,3.535,
52166520,-0.933,0.291,0.263,0.577,0.647,4.445,
52166530,-0.95,0.269,0.251,-3.867,1.505,2.8,
52166540,-0.911,0.275,0.252,-3.745,2.047,1.907,
52166550,-0.912,0.278,0.268,-3.692,5.862,2.24,
52166560,-0.864,0.243,0.29,-6.65,12.985,3.605,
52166570,-1.034,0.25,0.202,-4.41,25.27,7.332,
52166580,-0.942,0.239,0.22,-1.872,24.43,6.125,
52166590,-0.971,0.269,0.203,-4.427,19.932,6.982,
52166600,-0.975,0.269,0.197,-2.397,18.252,5.46,
52166610,-0.968,0.256,0.182,-6.72,14.77,4.585,
52166620,-0.977,0.249,0.172,-7.017,12.582,3.902,
52166630,-1.005,0.235,0.146,-6.037,8.085,3.5,
52166640,-0.985,0.228,0.14,-3.307,1.05,2.712,
52166650,-0.962,0.264,0.165,0.595,-3.955,3.237,
52166660,-0.981,0.273,0.159,-0.595,-6.195,2.45,
52166670,-0.98,0.258,0.164,-1.54,-11.077,1.96,
52166680,-0.963,0.259,0.181,-2.345,-15.347,3.08,
52166690,-1.111,0.18,0.138,-4.917,-15.715,1.54,
52166700,-1.046,0.2,0.024,-2.992,-27.597,-8.155,
52166710,-0.922,0.281,0.179,13.772,-39.217,-8.347,
52166720,-0.945,0.341,0.278,18.69,-32.795,-6.597,
52166730,-0.904,0.294,0.248,5.46,-26.582,-9.905,
52166740,-0.856,0.231,0.265,7.455,-16.695,-10.57,
52166750,-0.882,0.24,0.267,8.225,-9.065,-2.94,
52166760,-0.938,0.265,0.267,5.495,-5.127,2.607,
52166770,-0.94,0.275,0.274,4.147,-2.887,2.432,
52166780,-0.914,0.273,0.258,0.84,0.245,2.117,
52166780,-0.927,0.263,0.246,-1.26,3.237,2.957,
52166800,-0.934,0.257,0.244,-3.867,3.36,4.007,
52166800,-0.898,0.262,0.252,-5.407,3.972,5.267,
52166820,-0.938,0.277,0.238,-7.7,7.98,7.56,
52166820,-0.942,0.275,0.259,-10.15,11.375,7.682,
52166830,-0.885,0.277,0.231,-11.182,19.88,8.645,
52166840,-1.105,0.273,0.172,-10.762,25.952,8.697,
52166850,-0.94,0.217,0.172,-10.797,19.477,5.495,
52166860,-0.961,0.246,0.199,-7.735,14.927,4.917,
52166870,-0.955,0.254,0.221,-5.967,15.26,4.375,
52166880,-0.968,0.244,0.192,-7.017,14.962,4.217,
52166890,-0.994,0.224,0.147,-4.795,10.955,4.095,
52166900,-0.971,0.253,0.14,-2.24,3.692,7.157,
52166910,-0.991,0.296,0.143,-0.612,-1.575,8.19,
52166920,-0.981,0.284,0.149,-1.96,-6.58,5.127,
52166930,-0.974,0.27,0.169,-2.292,-11.62,3.202,
52166940,-0.96,0.267,0.187,-3.675,-15.032,3.272,
52166950,-0.973,0.264,0.186,-4.532,-15.47,3.412,
52166960,-1.098,0.174,0.154,-5.145,-17.377,2.03,
52166970,-0.992,0.193,0.1,2.345,-27.632,-8.067,
52166980,-0.843,0.302,0.247,17.71,-33.635,-3.517,
52166990,-0.937,0.357,0.286,19.057,-22.505,-0.42,
52167000,-0.965,0.281,0.216,6.282,-17.832,-4.112,
52167010,-0.917,0.225,0.203,7.962,-16.012,-5.337,
52167020,-0.912,0.268,0.23,12.372,-13.317,-0.595,
52167030,-0.926,0.303,0.257,10.132,-9.852,1.172,
52167040,-0.925,0.289,0.253,5.985,-4.602,-0.175,
52167050,-0.914,0.271,0.24,2.765,-0.472,-0.105,
52167060,-0.938,0.27,0.225,0.647,2.135,1.82,
52167070,-0.946,0.273,0.231,-1.155,2.24,2.205,
52167080,-0.916,0.272,0.241,-2.362,3.675,2.205,
52167090,-0.906,0.264,0.262,-4.48,7.525,3.5,
52167100,-0.952,0.263,0.216,-7.07,14.385,6.527,
52167110,-0.998,0.279,0.183,-7.665,16.572,6.772,
52167120,-0.977,0.314,0.177,-10.815,12.792,7.455,
52167130,-0.975,0.305,0.176,-14.647,9.432,5.355,
52167140,-0.957,0.28,0.201,-20.86,5.25,2.187,
52167150,-0.954,0.237,0.195,-21.035,4.62,0.227,
52167160,-0.981,0.204,0.176,-15.995,2.397,0.105,
52167170,-0.973,0.236,0.185,-7.63,-2.187,1.855,
52167170,-0.981,0.282,0.186,-2.52,-6.457,2.082,
52167190,-1.005,0.289,0.169,-3.64,-12.617,0.437,
52167190,-1.072,0.314,0.169,-9.782,-19.845,-3.762,
52167210,-1.095,0.255,0.093,-14.28,-28.14,-11.165,
52167210,-1.038,0.193,0.166,-5.005,-43.715,-17.272,
52167230,-0.751,0.254,0.304,3.675,-44.59,-15.225,
52167230,-0.812,0.283,0.346,8.645,-25.515,-10.71,
52167250,-0.887,0.229,0.28,0.35,-11.847,-5.967,
52167250,-0.87,0.204,0.256,1.137,-5.88,-0.367,
52167260,-0.874,0.267,0.281,6.195,1.61,5.932,
52167270,-0.9,0.298,0.268,3.465,10.29,8.19,
52167280,-0.937,0.27,0.231,-1.347,15.242,7,
52167290,-0.946,0.258,0.227,-2.905,16.485,6.667,
52167300,-0.951,0.266,0.243,-2.397,17.622,7.42,
52167310,-0.939,0.276,0.246,-2.747,20.72,7.56,
52167320,-1.046,0.268,0.213,-1.085,25.55,4.515,
52167330,-0.943,0.244,0.191,0.717,25.497,3.885,
52167340,-0.965,0.273,0.194,-0.262,21.857,4.48,
52167350,-0.983,0.275,0.192,-2.187,18.532,3.902,
52167360,-0.996,0.242,0.168,-3.325,12.967,3.272,
52167370,-0.969,0.242,0.165,-3.605,7.087,3.465,
52167380,-0.979,0.258,0.173,-3.762,4.795,4.13,
52167390,-0.968,0.264,0.19,-3.272,2.765,3.867,
52167400,-0.978,0.262,0.149,-3.92,0.84,3.237,
52167410,-0.943,0.266,0.159,-4.392,-4.97,3.692,
52167420,-0.975,0.291,0.158,-2.8,-6.667,3.115,
52167430,-0.981,0.271,0.163,-2.8,-10.972,1.102,
52167440,-0.983,0.258,0.187,-3.5,-17.062,0.84,
52167450,-1.081,0.254,0.187,-6.125,-19.775,-2.607,
52167460,-1.021,0.224,0.093,-9.205,-27.317,-10.027,
52167470,-0.971,0.26,0.178,2.625,-37.38,-12.442,
52167480,-0.86,0.285,0.268,8.33,-34.405,-9.87,
52167490,-0.871,0.273,0.286,4.497,-23.362,-8.627,
52167500,-0.858,0.252,0.293,3.675,-10.745,-6.055,
52167510,-0.909,0.246,0.262,1.732,-3.972,0.262,
52167510,-0.914,0.266,0.259,0.385,0.49,4.322,
52167530,-0.942,0.275,0.241,0.367,5.32,5.267,
52167530,-0.911,0.267,0.226,-2.135,7.787,4.795,
52167550,-0.93,0.27,0.219,-3.027,9.905,5.827,
52167550,-0.968,0.288,0.22,-5.722,10.605,6.352,
52167570,-1.02,0.271,0.222,-7.21,11.182,3.937,
52167570,-0.934,0.234,0.229,-4.777,15.015,2.607,
52167580,-0.995,0.259,0.194,-2.905,16.047,4.27,
52167590,-0.943,0.251,0.202,-3.272,10.762,4.007,
52167600,-0.945,0.256,0.192,-2.555,9.625,3.692,
52167610,-0.971,0.238,0.178,-2.17,8.767,3.762,
52167620,-0.982,0.254,0.158,-1.347,6.02,3.675,
52167630,-0.969,0.263,0.18,0.875,-0.07,4.112,
52167640,-0.967,0.283,0.167,0.455,-2.45,4.462,
52167650,-0.988,0.278,0.153,0.682,-4.917,2.625,
52167660,-0.96,0.268,0.18,-1.382,-10.832,1.575,
52167670,-0.964,0.264,0.18,-1.505,-11.392,1.085,
52167680,-1.07,0.214,0.157,-3.71,-13.02,-0.682,
52167690,-1.01,0.237,0.113,-3.447,-23.152,-8.05,
52167700,-0.903,0.295,0.227,4.655,-29.417,-8.872,
52167710,-0.954,0.289,0.249,6.825,-20.772,-5.74,
52167720,-0.933,0.258,0.223,0.927,-16.975,-6.597,
52167730,-0.9,0.244,0.227,3.832,-14.612,-5.827,
52167740,-0.917,0.261,0.234,4.13,-11.777,-0.805,
52167750,-0.931,0.281,0.251,2.467,-9.03,1.085,
52167760,-0.94,0.279,0.245,0.577,-5.985,0.402,
52167770,-0.936,0.258,0.221,-1.785,-4.672,-0.087,
52167780,-0.932,0.254,0.225,-0.455,-3.027,0.892,
52167790,-0.945,0.273,0.233,0.227,-1.592,2.065,
52167800,-0.942,0.271,0.243,-2.205,-0.857,1.925,
52167810,-0.924,0.251,0.24,-4.462,0.875,2.065,
52167820,-0.91,0.249,0.24,-5.285,3.955,4.025,
52167830,-0.93,0.259,0.229,-5.757,7.035,7,
52167840,-0.954,0.265,0.222,-6.737,8.067,8.19,
52167850,-0.954,0.26,0.213,-5.057,9.502,7.437,
52167860,-1.011,0.262,0.192,-3.85,10.325,6.317,
52167870,-0.977,0.252,0.178,-1.19,8.785,3.535,
52167880,-0.987,0.269,0.18,-0.122,3.5,2.8,
52167890,-0.961,0.268,0.195,0.752,-0.455,1.82,
52167900,-0.968,0.266,0.19,-0.612,-3.132,1.417,
52167910,-0.964,0.264,0.194,-0.63,-6.037,1.575,
52167920,-0.98,0.26,0.19,-1.015,-8.225,1.522,
52167920,-1.018,0.224,0.154,0.7,-11.025,-1.767,
52167940,-0.987,0.273,0.203,6.282,-15.802,-1.837,
52167940,-0.992,0.293,0.194,3.447,-19.81,-1.68,
52167960,-0.931,0.261,0.225,1.067,-22.96,-5.355,
52167960,-0.897,0.261,0.247,3.552,-18.655,-4.655,
52167980,-0.906,0.27,0.258,1.82,-12.232,-1.347,
52167980,-0.893,0.275,0.254,-0.157,-7.087,0.227,
52168000,-0.902,0.274,0.26,-1.417,-1.942,1.452,
52168000,-0.911,0.272,0.251,-2.38,2.922,2.24,
52168010,-0.906,0.26,0.263,-2.45,7.437,2.992,
52168020,-0.883,0.238,0.255,-3.01,13.965,5.25,
52168030,-0.906,0.245,0.234,-1.137,21.105,9.642,
52168040,-1.106,0.282,0.194,-0.98,23.607,11.025,
52168050,-0.957,0.243,0.177,1.207,19.74,7.367,
52168060,-0.967,0.294,0.193,1.872,15.732,6.457,
52168070,-0.944,0.296,0.183,-0.875,14.507,6.107,
52168080,-0.971,0.278,0.18,-5.355,12.932,4.935,
52168090,-0.978,0.264,0.17,-4.97,11.62,3.867,
52168100,-0.971,0.248,0.189,-5.74,6.755,2.642,
52168110,-0.964,0.259,0.182,-3.797,4.672,2.712,
52168120,-0.967,0.262,0.181,-3.097,1.505,3.447,
52168130,-0.95,0.268,0.177,-3.185,-1.575,4.987,
52168140,-0.972,0.287,0.171,-1.767,-1.995,5.337,
52168150,-0.965,0.274,0.175,-2.87,-4.112,4.06,
52168160,-0.963,0.274,0.176,-3.395,-4.9,3.727,
52168170,-0.976,0.268,0.164,-5.81,-5.967,3.447,
52168180,-1.15,0.177,0.105,-6.755,-11.812,0.245,
52168190,-0.931,0.218,0.129,2.257,-27.562,-11.217,
52168200,-0.8,0.346,0.268,16.432,-26.95,-3.465,
52168210,-0.973,0.371,0.272,10.517,-13.37,0.21,
52168220,-0.907,0.274,0.226,-2.87,-10.552,-4.34,
52168230,-0.895,0.234,0.222,2.187,-3.202,-2.66,
52168240,-0.979,0.276,0.213,0.84,-0.42,3.307,
52168250,-0.929,0.292,0.215,-0.455,-0.542,2.957,
52168260,-0.948,0.285,0.209,-1.295,2.782,1.575,
52168260,-0.951,0.269,0.194,-3.745,3.08,1.207,
52168280,-0.942,0.283,0.213,-2.222,2.17,1.627,
52168280,-0.94,0.302,0.229,-3.29,1.907,1.452,
52168300,-0.91,0.287,0.242,-6.055,5.005,0.717,
52168300,-0.959,0.27,0.211,-7.455,12.46,1.627,
52168320,-0.953,0.229,0.212,-5.915,15.907,1.26,
52168320,-0.955,0.253,0.211,-6.09,15.12,3.377,
52168330,-0.968,0.26,0.211,-5.46,14.875,4.462,
52168340,-0.947,0.257,0.218,-7.56,10.412,4.882,
52168350,-0.973,0.262,0.196,-6.387,10.202,6.055,
52168360,-0.964,0.266,0.169,-7.017,7.192,5.862,
52168370,-0.965,0.284,0.16,-7.367,5.267,6.492,
52168380,-1.006,0.307,0.183,-8.172,2.852,4.34,
52168390,-0.954,0.282,0.133,-14.962,-2.975,1.155,
52168400,-0.952,0.261,0.104,-11.427,-5.512,0.105,
52168410,-0.97,0.279,0.121,-3.762,-7.717,1.662,
52168420,-0.991,0.304,0.148,-2.52,-13.09,1.942,
52168430,-0.979,0.291,0.16,-4.165,-19.005,-0.105,
52168440,-0.982,0.264,0.157,-6.597,-22.872,-1.47,
52168450,-1.226,0.221,0.169,-8.417,-29.417,-4.2,
52168460,-0.979,0.267,0.051,-14.437,-49.787,-17.622,
52168470,-0.838,0.252,0.257,5.88,-49.49,-18.06,
52168480,-0.92,0.271,0.28,13.3,-34.755,-11.672,
52168490,-0.87,0.279,0.268,2.695,-28.525,-8.33,
52168500,-0.862,0.25,0.288,4.637,-20.037,-6.405,
52168510,-0.854,0.254,0.284,1.785,-10.29,-0.28,
52168520,-0.916,0.263,0.252,0.63,-1.82,4.182,
52168530,-0.916,0.287,0.259,-0.577,2.17,5.565,
52168540,-0.943,0.278,0.242,-3.342,4.375,5.372,
52168550,-0.948,0.267,0.236,-4.567,4.48,4.55,
52168560,-0.917,0.282,0.248,-3.815,5.705,4.06,
52168570,-0.891,0.282,0.286,-5.442,9.45,4.602,
52168580,-0.868,0.266,0.256,-9.152,19.302,7.227,
52168590,-0.952,0.251,0.206,-10.132,26.985,10.832,
52168600,-1.073,0.259,0.162,-7.997,27.842,8.557,
52168610,-0.99,0.267,0.179,-5.232,19.442,7.595,
52168620,-0.956,0.296,0.197,-3.692,15.855,4.847,
52168630,-0.988,0.266,0.167,-7.962,11.445,2.31,
52168640,-0.958,0.247,0.175,-7.245,6.352,1.82,
52168650,-0.983,0.252,0.183,-4.69,3.272,2.572,
52168660,-0.977,0.266,0.165,-1.872,0.875,1.925,
52168670,-0.972,0.282,0.16,-0.192,-4.235,1.855,
52168670,-0.996,0.294,0.141,-1.575,-10.482,0.91,
52168690,-0.982,0.285,0.174,-3.097,-18.41,-0.437,
52168690,-1.046,0.236,0.189,-5.022,-21.192,-2.432,
52168710,-1.075,0.247,0.127,-8.627,-27.107,-10.972,
52168710,-0.988,0.22,0.144,-0.647,-38.797,-13.125,
52168730,-0.864,0.267,0.275,9.817,-41.632,-11.112,
52168730,-0.884,0.309,0.288,8.452,-32.83,-8.05,
52168750,-0.929,0.277,0.277,5.267,-23.975,-8.925,
52168750,-0.864,0.232,0.256,1.68,-18.042,-6.405,
52168760,-0.874,0.245,0.26,3.622,-11.777,-1.05,
52168770,-0.917,0.279,0.279,3.255,-5.687,2.94,
52168780,-0.914,0.286,0.264,-0.542,-0.105,3.535,
52168790,-0.925,0.257,0.244,-2.975,3.832,3.342,
52168800,-0.896,0.252,0.246,-2.782,6.825,4.655,
52168810,-0.889,0.271,0.271,-0.525,11.812,7.42,
52168820,-0.916,0.288,0.263,-3.535,17.097,9.205,
52168830,-0.895,0.267,0.292,-7.84,23.187,9.852,
52168840,-1.059,0.267,0.176,-9.835,33.46,11.602,
52168850,-0.972,0.232,0.201,-5.53,31.587,8.33,
52168860,-0.979,0.309,0.175,-7.297,24.78,7.91,
52168870,-0.976,0.291,0.188,-6.422,22.225,5.075,
52168880,-0.993,0.24,0.159,-10.78,17.587,2.572,
52168890,-0.96,0.237,0.161,-7.49,11.48,1.33,
52168900,-0.986,0.266,0.155,-3.832,6.335,2.817,
52168910,-0.977,0.277,0.175,-1.19,1.19,2.38,
52168920,-0.982,0.286,0.17,-0.577,-2.205,1.225,
52168930,-0.964,0.272,0.17,-1.242,-6.93,0.035,
52168940,-0.972,0.273,0.163,-2.17,-11.48,0.28,
52168950,-0.971,0.274,0.177,-3.587,-16.712,0.402,
52168960,-0.978,0.266,0.188,-4.847,-18.987,-0.175,
52168970,-1.109,0.212,0.181,-6.037,-20.825,-4.27,
52168980,-0.986,0.236,0.095,-2.957,-28.717,-9.957,
52168990,-0.97,0.25,0.2,9.327,-38.57,-8.592,
52169000,-0.919,0.286,0.229,10.937,-40.162,-7.822,
52169010,-0.93,0.297,0.267,12.88,-35.245,-9.835,
52169010,-0.891,0.267,0.27,11.602,-28.297,-10.447,
52169030,-0.859,0.249,0.27,9.117,-22.26,-7.315,
52169030,-0.878,0.268,0.281,9.047,-14.437,-2.432,
52169050,-0.918,0.286,0.262,6.387,-6.912,1.067,
52169050,-0.961,0.27,0.245,1.82,-3.99,0.98,
52169070,-0.903,0.26,0.245,0.472,-2.712,0.35,
52169070,-0.921,0.264,0.265,1.225,0.192,1.715,
52169080,-0.955,0.263,0.245,-3.167,0.892,2.992,
52169090,-0.921,0.262,0.248,-5.022,1.47,3.307,
52169100,-0.941,0.272,0.245,-5.792,3.832,4.672,
52169110,-0.935,0.277,0.256,-7.07,6.177,4.987,
52169120,-0.877,0.299,0.239,-7.35,12.722,5.81,
52169130,-0.977,0.279,0.217,-9.625,16.835,6.755,
52169140,-0.927,0.249,0.218,-12.547,15.207,5.407,
52169150,-0.906,0.256,0.24,-8.155,18.48,6.23,
52169160,-0.957,0.265,0.235,-9.222,20.65,7.315,
52169170,-1.027,0.237,0.178,-10.605,21,6.422,
52169180,-1.001,0.227,0.18,-3.045,17.832,3.447,
52169190,-1.006,0.265,0.175,1.207,8.89,4.935,
52169200,-0.979,0.286,0.177,4.707,4.042,2.292,
52169210,-0.968,0.277,0.165,1.102,-2.187,-0.07,
52169220,-0.96,0.262,0.182,-0.315,-6.492,-0.892,
52169230,-0.993,0.254,0.178,-2.047,-10.395,-0.035,
52169240,-1.063,0.236,0.161,-2.765,-15.54,-2.835,
52169250,-0.997,0.241,0.149,1.907,-22.225,-5.862,
52169260,-0.908,0.255,0.234,6.737,-30.345,-5.932,
52169270,-0.816,0.31,0.303,7.577,-25.742,-4.287,
52169280,-0.931,0.309,0.298,4.48,-13.125,-2.66,
52169290,-0.929,0.25,0.214,-3.097,-5.687,-2.152,
52169300,-0.952,0.236,0.206,0.647,-4.812,-0.665,
52169310,-0.972,0.284,0.215,3.832,-5.932,0.805,
52169320,-1.019,0.283,0.2,3.955,-7.962,-2.345,
52169330,-0.996,0.261,0.18,3.43,-13.002,-7.105,
52169340,-0.955,0.259,0.212,5.46,-17.15,-8.977,
52169350,-0.884,0.274,0.267,6.195,-16.38,-8.19,
52169360,-0.876,0.268,0.263,2.642,-9.415,-5.372,
52169370,-0.88,0.237,0.272,-1.575,-1.05,-1.365,
52169380,-0.958,0.225,0.254,-1.855,5.442,3.342,
52169390,-0.919,0.253,0.259,-2.187,5.215,5.162,
52169400,-0.893,0.272,0.248,-2.432,7.98,6.457,
52169410,-0.949,0.276,0.225,-3.692,11.182,7.56,
52169420,-0.949,0.274,0.236,-4.322,12.162,6.545,
52169420,-0.927,0.269,0.254,-4.357,16.257,6.527,
52169440,-0.968,0.262,0.212,-4.602,21.297,7.455,
52169440,-1.029,0.25,0.205,-5.197,20.23,6.545,
52169460,-0.951,0.218,0.217,-1.925,16.782,5.81,
52169460,-0.98,0.264,0.197,0.262,13.982,7.595,
52169480,-0.952,0.276,0.205,0.385,11.707,7.367,
52169480,-0.97,0.277,0.18,-4.48,10.867,6.597,
52169490,-0.972,0.255,0.163,-4.935,8.662,4.427,
52169500,-0.963,0.266,0.158,-3.15,3.78,4.9,
52169510,-0.968,0.284,0.157,-1.645,-1.155,4.48,
52169520,-0.957,0.287,0.16,-1.12,-6.002,2.73,
52169530,-0.977,0.287,0.166,-1.452,-9.17,0.962,
52169540,-0.995,0.264,0.173,-2.835,-13.335,-0.577,
52169550,-1.1,0.25,0.173,-6.545,-17.115,-5.88,
52169560,-1.024,0.241,0.034,-6.335,-29.61,-14.262,
52169570,-0.931,0.254,0.186,11.48,-40.46,-15.365,
52169580,-0.873,0.298,0.257,14.63,-39.917,-11.445,
52169590,-0.956,0.297,0.269,11.34,-32.55,-11.095,
52169600,-0.941,0.265,0.27,11.147,-26.18,-12.565,
52169610,-0.904,0.243,0.232,9.38,-22.067,-10.92,
52169620,-0.885,0.249,0.264,11.095,-19.705,-7.49,
52169630,-0.884,0.272,0.29,11.777,-14.297,-3.99,
52169640,-0.902,0.275,0.285,8.837,-6.212,-1.487,
52169650,-0.906,0.255,0.263,6.457,1.12,0.122,
52169660,-0.885,0.245,0.277,5.425,6.247,2.38,
52169670,-0.909,0.248,0.27,4.532,11.112,5.687,
52169680,-0.926,0.264,0.253,3.062,13.93,7.612,
52169690,-0.957,0.282,0.23,2.485,14.717,7.77,
52169700,-0.98,0.283,0.229,0.927,13.895,6.475,
52169710,-0.956,0.267,0.215,0,15.435,4.917,
52169720,-0.972,0.252,0.2,0.175,17.027,5.005,
52169730,-0.992,0.251,0.179,-1.907,14.087,4.952,
52169740,-0.985,0.255,0.186,-3.115,10.097,4.305,
52169750,-0.981,0.265,0.195,-2.922,8.102,3.552,
52169760,-0.973,0.258,0.2,-3.937,6.282,2.817,
52169760,-0.974,0.254,0.185,-3.745,4.952,2.66,
52169780,-0.946,0.256,0.213,-3.675,2.66,3.027,
52169780,-0.948,0.256,0.207,-3.132,4.217,3.5,
52169800,-0.981,0.241,0.194,-3.552,3.692,3.43,
52169800,-0.971,0.246,0.178,-3.185,-1.382,3.307,
52169820,-0.951,0.271,0.168,-1.732,-5.775,3.027,
52169820,-0.96,0.287,0.178,0.122,-8.19,2.642,
52169830,-1.026,0.28,0.164,0.297,-10.29,1.26,
52169840,-1.041,0.253,0.131,0.07,-15.925,-2.117,
52169850,-0.979,0.238,0.12,1.907,-19.407,-5.197,
52169860,-1.012,0.261,0.081,5.407,-21.455,-6.142,
52169870,-0.966,0.302,0.144,9.712,-30.047,-8.977,
52169880,-0.884,0.309,0.215,10.342,-32.025,-11.55,
52169890,-0.914,0.273,0.248,10.255,-23.502,-11.69,
52169900,-0.934,0.253,0.266,10.587,-15.697,-10.185,
52169910,-0.927,0.255,0.267,11.025,-12.722,-8.4,
52169920,-0.896,0.246,0.274,9.835,-10.377,-6.58,
52169930,-0.916,0.244,0.271,10.552,-6.545,-4.497,
52169940,-0.915,0.258,0.286,10.272,-4.445,-2.52,
52169950,-0.938,0.268,0.275,8.767,-1.435,-0.98,
52169960,-0.98,0.265,0.245,6.037,-0.262,-0.84,
52169970,-0.983,0.259,0.227,4.882,-2.012,-1.96,
52169980,-0.973,0.262,0.222,5.687,-3.185,-2.765,
52169990,-0.956,0.263,0.204,5.792,-2.24,-3.99,
52170000,-0.956,0.254,0.205,5.302,-1.697,-5.022,
52170010,-0.942,0.247,0.223,6.195,-1.487,-5.372,
52170020,-0.945,0.245,0.251,5.477,-1.627,-3.955,
52170030,-0.924,0.237,0.288,3.447,0.28,-2.555,
52170040,-0.927,0.23,0.295,1.68,7.437,-0.035,
52170050,-0.982,0.241,0.266,-2.03,10.605,1.505,
52170060,-0.932,0.237,0.26,-5.985,8.137,1.697,
52170070,-0.906,0.241,0.259,-7.507,8.557,3.797,
52170080,-0.951,0.264,0.247,-10.115,10.325,6.597,
52170090,-1.005,0.265,0.232,-12.81,7.98,6.317,
52170100,-0.977,0.275,0.224,-12.687,3.657,3.692,
52170110,-0.947,0.293,0.224,-11.865,0.455,1.522,
52170120,-0.934,0.301,0.213,-12.635,-0.315,-0.087,
52170130,-0.973,0.288,0.178,-13.335,-0.472,-1.767,
52170140,-0.97,0.277,0.136,-12.127,-3.202,-3.762,
52170150,-0.908,0.284,0.121,-8.61,-4.917,-4.97,
52170160,-0.906,0.286,0.128,-6.387,-2.152,-4.637,
52170160,-0.96,0.258,0.129,-6.247,0.297,-3.955,
52170170,-1.026,0.217,0.152,-3.57,0.227,-3.937,
52170180,-1.059,0.204,0.194,0.892,-4.55,-5.547,
52170190,-1.025,0.205,0.228,3.99,-10.272,-8.68,
52170200,-0.98,0.188,0.236,4.147,-14.647,-10.57,
52170210,-0.953,0.174,0.223,3.447,-16.747,-9.1,
52170220,-0.96,0.175,0.198,4.41,-21.455,-6.002,
52170230,-0.847,0.207,0.233,6.002,-24.22,-1.19,
52170240,-0.848,0.255,0.269,8.977,-16.8,5.145,
52170250,-0.974,0.295,0.263,4.917,-5.88,8.785,
52170260,-1.066,0.278,0.213,0.122,-3.167,5.985,
52170270,-1.019,0.262,0.224,0,-6.492,0.507,
52170280,-0.964,0.274,0.228,0.42,-7.665,-2.467,
52170290,-0.962,0.265,0.24,-0.927,-7.822,-3.395,
52170300,-0.935,0.25,0.241,-2.082,-8.75,-4.445,
52170310,-0.899,0.243,0.266,-1.732,-8.925,-4.025,
52170320,-0.886,0.246,0.279,-3.377,-7.56,-2.117,
52170330,-0.889,0.246,0.273,-5.512,-5.302,0.052,
52170340,-0.89,0.242,0.276,-7.297,-3.185,1.977,
52170350,-0.883,0.241,0.294,-8.592,0.892,4.27,
52170360,-0.926,0.249,0.275,-10.465,6.86,7.385,
52170370,-0.985,0.248,0.234,-14,7.07,8.645,
52170380,-0.956,0.237,0.195,-16.1,0.332,8.032,
52170390,-0.915,0.235,0.166,-15.015,-5.827,9.222,
52170400,-0.929,0.237,0.167,-15.452,-10.902,11.392,
52170410,-0.912,0.231,0.185,-14.315,-14.945,12.652,
52170420,-0.846,0.247,0.22,-10.675,-11.952,14.892,
52170430,-0.952,0.254,0.264,-10.377,-6.79,18.252,
52170440,-0.987,0.249,0.298,-10.185,-6.58,17.5,
52170450,-0.948,0.26,0.3,-6.317,-6.23,16.082,
52170460,-0.97,0.279,0.269,-6.405,-4.935,15.277,
52170470,-0.997,0.274,0.214,-7.245,-4.76,13.405,
52170480,-1.042,0.27,0.186,-5.11,-7.175,10.78,
52170490,-1.071,0.275,0.167,-2.642,-12.302,6.895,
52170500,-1.079,0.278,0.168,0.42,-19.372,0.857,
52170510,-1.048,0.27,0.181,2.835,-28,-6.352,
52170510,-1.04,0.241,0.178,4.655,-36.417,-11.69,
52170530,-1.03,0.223,0.195,7.735,-49.63,-15.872,
52170530,-0.808,0.24,0.303,13.825,-54.285,-15.645,
52170550,-0.784,0.269,0.348,17.377,-39.13,-8.4,
52170550,-0.84,0.28,0.362,12.967,-19.18,-3.027,
52170570,-0.88,0.253,0.332,5.74,-6.02,-0.682,
52170570,-0.897,0.235,0.314,1.505,-1.172,1.295,
52170580,-0.895,0.255,0.307,1.47,1.942,4.48,
52170590,-0.926,0.283,0.313,0.997,5.11,5.792,
52170600,-0.923,0.29,0.31,-1.645,5.792,4.375,
52170610,-0.901,0.272,0.307,-2.537,6.335,2.992,
52170620,-0.886,0.265,0.3,-3.395,8.785,3.307,
52170630,-0.892,0.264,0.3,-3.85,12.967,4.55,
52170640,-0.872,0.264,0.306,-4.952,17.29,5.32,
52170650,-0.871,0.255,0.308,-7.105,22.942,6.965,
52170660,-0.884,0.248,0.317,-8.75,28,8.82,
52170670,-0.851,0.249,0.303,-10.71,36.102,13.055,
52170680,-0.991,0.266,0.267,-14.91,40.565,18.357,
52170690,-1.085,0.259,0.188,-21.245,32.41,18.9,
52170700,-1.038,0.257,0.137,-19.915,22.907,14.717,
52170710,-1.02,0.276,0.136,-16.502,15.522,11.042,
52170720,-1.078,0.275,0.127,-13.685,7.332,7.28,
52170730,-1.042,0.272,0.172,-8.855,-4.13,1.767,
52170740,-0.984,0.288,0.204,-3.272,-10.57,-2.8,
52170750,-0.98,0.261,0.217,-3.657,-14.91,-6.597,
52170760,-0.933,0.236,0.214,-0.577,-16.642,-8.4,
52170770,-0.966,0.245,0.224,4.462,-17.85,-7.052,
52170780,-1.019,0.271,0.193,5.985,-21.647,-6.597,
52170790,-1.024,0.28,0.198,7.98,-26.67,-9.152,
52170800,-1.003,0.265,0.202,7.367,-32.357,-12.617,
52170810,-0.973,0.223,0.187,6.685,-36.872,-14.105,
52170820,-0.965,0.222,0.229,8.977,-43.575,-14.997,
52170830,-0.821,0.245,0.307,13.947,-46.69,-12.652,
52170830,-0.804,0.269,0.354,17.272,-35.962,-7.192,
52170850,-0.861,0.285,0.352,13.107,-24.202,-4.69,
52170850,-0.853,0.264,0.335,9.082,-14.787,-2.117,
52170870,-0.929,0.24,0.306,7.052,-7.682,0.385,
52170870,-0.932,0.248,0.296,5.18,-7.052,1.277,
52170890,-0.882,0.271,0.304,6.492,-5.162,2.66,
52170890,-0.932,0.288,0.302,3.255,-1.452,3.57,
52170910,-0.944,0.271,0.289,-1.645,-0.752,2.03,
52170910,-0.913,0.262,0.301,-0.962,-0.455,1.242,
52170920,-0.909,0.269,0.33,-1.855,-0.105,1.54,
52170930,-0.892,0.257,0.323,-4.585,1.767,1.995,
52170940,-0.867,0.244,0.311,-5.81,5.95,3.675,
52170950,-0.902,0.244,0.291,-6.772,10.587,7.21,
52170960,-0.924,0.255,0.283,-6.702,12.827,9.73,
52170970,-0.929,0.278,0.287,-7.472,13.93,10.727,
52170980,-0.917,0.303,0.273,-10.92,17.605,11.287,
52170990,-1.012,0.291,0.238,-16.485,20.072,9.59,
52171000,-1.035,0.242,0.207,-21.945,13.825,4.672,
52171010,-0.941,0.234,0.228,-18.847,7.875,2.187,
52171020,-0.973,0.257,0.247,-14.717,5.302,2.607,
52171030,-0.965,0.244,0.249,-15.907,0.297,1.4,
52171040,-0.9,0.256,0.27,-9.205,0.56,1.452,
52171050,-0.923,0.282,0.291,-8.75,2.135,2.607,
52171060,-0.958,0.255,0.258,-10.902,4.095,2.065,
52171070,-0.949,0.221,0.259,-8.312,3.745,0.84,
52171080,-0.93,0.231,0.265,-1.785,2.782,2.03,
52171090,-0.948,0.27,0.249,2.205,0.682,3.36,
52171100,-0.986,0.283,0.219,2.572,-2.38,1.995,
52171110,-1.029,0.273,0.203,3.272,-6.44,-0.857,
52171120,-1.049,0.265,0.205,5.46,-13.405,-4.917,
52171130,-1.001,0.259,0.216,6.912,-21.63,-9.1,
52171140,-1.032,0.221,0.216,7.822,-31.43,-12.722,
52171150,-0.885,0.212,0.266,10.482,-42.682,-15.347,
52171160,-0.774,0.255,0.332,17.062,-39.725,-10.5,
52171170,-0.922,0.308,0.339,12.862,-30.957,-5.705,
52171180,-0.909,0.285,0.34,3.412,-25.165,-7.332,
52171190,-0.819,0.261,0.342,1.33,-12.897,-5.932,
52171200,-0.892,0.278,0.318,-1.89,0.997,-0.21,
52171210,-0.976,0.261,0.291,-8.295,5.827,1.085,
52171220,-0.945,0.212,0.297,-10.92,5.775,-1.557,
52171230,-0.899,0.208,0.293,-9.012,7,-1.995,
52171240,-0.872,0.241,0.293,-5.775,9.205,1.995,
52171250,-0.89,0.269,0.293,-4.025,11.812,5.512,
52171260,-0.905,0.277,0.301,-6.212,13.422,6.807,
52171260,-0.89,0.269,0.312,-8.645,16.957,7.647,
52171280,-0.972,0.28,0.237,-14.017,23.397,9.222,
52171280,-1.078,0.253,0.195,-20.527,20.195,6.387,
52171300,-1.04,0.227,0.179,-22.785,10.307,0.647,
52171300,-0.962,0.238,0.213,-17.115,2.747,-2.52,
52171320,-0.887,0.278,0.25,-13.02,3.237,-3.01,
52171320,-0.895,0.286,0.282,-13.545,5.6,-3.955,
52171330,-0.86,0.266,0.344,-14.157,9.642,-4.165,
52171340,-0.994,0.199,0.351,-8.12,10.045,-2.152,
52171350,-0.92,0.168,0.285,-0.752,8.435,-1.015,
52171360,-0.835,0.244,0.263,7.98,10.692,5.005,
52171370,-0.976,0.28,0.264,7.612,13.527,9.187,
52171380,-1.054,0.241,0.21,2.222,11.76,6.055,
52171390,-1.037,0.212,0.198,3.185,4.322,2.047,
52171400,-1.031,0.213,0.188,6.352,-8.032,-0.647,
52171410,-0.877,0.259,0.253,12.285,-16.957,-2.012,
52171420,-0.883,0.306,0.313,14.297,-12.6,-0.577,
52171430,-1.014,0.278,0.248,7.332,-7.875,-1.12,
52171440,-0.98,0.235,0.204,7.49,-12.407,-4.357,
52171450,-0.914,0.259,0.257,13.93,-14.21,-4.567,
52171460,-0.95,0.277,0.273,13.93,-13.597,-4.375,
52171470,-0.902,0.264,0.27,11.357,-10.36,-5.6,
52171480,-0.964,0.238,0.248,9.87,-8.417,-4.567,
52171490,-0.932,0.239,0.27,8.732,-8.12,-3.57,
52171500,-0.939,0.25,0.265,8.522,-4.532,-2.205,
52171510,-0.966,0.243,0.259,4.637,-3.43,-2.082,
52171520,-0.958,0.218,0.247,1.715,-4.48,-2.94,
52171530,-0.921,0.217,0.266,2.345,-6.002,-2.187,
52171540,-0.909,0.242,0.299,1.75,-5.792,0.455,
52171550,-0.902,0.262,0.314,-1.645,-3.57,2.572,
52171560,-0.867,0.261,0.316,-6.265,1.68,4.462,
52171570,-0.878,0.279,0.276,-10.955,11.025,8.68,
52171580,-0.984,0.292,0.239,-15.855,18.27,10.5,
52171580,-1.015,0.258,0.216,-22.277,16.922,5.827,
52171600,-0.993,0.225,0.22,-23.765,12.88,0.367,
52171600,-0.959,0.216,0.242,-18.515,9.502,-1.435,
52171620,-0.955,0.21,0.279,-13.282,6.247,-0.84,
52171620,-0.906,0.223,0.277,-8.82,5.932,0.997,
52171640,-0.899,0.249,0.294,-6.685,8.557,3.972,
52171640,-0.949,0.248,0.273,-8.96,8.592,4.935,
52171660,-0.973,0.231,0.252,-6.965,7.805,5.022,
52171660,-0.976,0.268,0.248,-4.462,3.762,4.637,
52171670,-0.943,0.264,0.259,-4.235,1.942,2.397,
52171680,-0.991,0.242,0.211,-3.727,1.015,1.102,
52171690,-0.99,0.238,0.17,-1.102,-3.482,0.56,
52171700,-0.983,0.243,0.192,2.852,-7.927,-0.262,
52171710,-1.111,0.227,0.193,4.567,-17.465,-4.007,
52171720,-0.897,0.208,0.216,11.462,-30.852,-9.73,
52171730,-0.747,0.258,0.305,19.915,-25.06,-6.072,
52171740,-0.947,0.281,0.291,11.795,-13.23,1.715,
52171750,-1.019,0.26,0.246,6.422,-9.537,1.977,
52171760,-0.958,0.271,0.263,7.525,-9.012,-0.192,
52171770,-0.965,0.276,0.234,5.775,-7.735,-1.802,
52171780,-0.892,0.265,0.252,3.325,-6.615,-3.675,
52171790,-0.889,0.249,0.265,0.805,-1.19,-2.222,
52171800,-0.955,0.228,0.277,-3.535,1.977,-0.49,
52171810,-0.912,0.218,0.293,-5.442,0.98,0.542,
52171820,-0.873,0.228,0.298,-6.65,2.222,3.972,
52171830,-0.926,0.242,0.3,-9.327,6.755,8.382,
52171840,-0.942,0.27,0.293,-11.497,12.092,10.307,
52171850,-0.952,0.291,0.234,-15.032,19.39,9.817,
52171860,-1.006,0.26,0.191,-21.892,20.65,6.265,
52171870,-0.967,0.235,0.164,-22.645,17.272,3.132,
52171880,-0.965,0.25,0.214,-17.255,14.647,2.397,
52171890,-0.979,0.255,0.252,-16.537,10.937,0.647,
52171900,-0.985,0.216,0.263,-15.697,7.297,-1.802,
52171910,-0.973,0.184,0.27,-11.725,2.66,-2.135,
52171920,-0.94,0.226,0.28,-5.127,1.47,0.07,
52171930,-1.018,0.257,0.239,-3.115,-2.905,0.647,
52171940,-0.954,0.262,0.207,-0.21,-6.737,-2.59,
52171950,-0.917,0.271,0.199,3.167,-6.3,-4.042,
52171960,-0.977,0.255,0.18,2.73,-5.232,-3.937,
52171970,-0.996,0.241,0.18,4.515,-7.332,-4.987,
52171980,-1.016,0.23,0.21,7.857,-11.147,-6.737,
52171990,-1.049,0.207,0.236,11.182,-22.68,-10.395,
52172000,-0.86,0.225,0.312,18.305,-32.287,-12.407,
52172010,-0.713,0.257,0.395,22.54,-24.902,-6.72,
52172010,-0.882,0.27,0.409,13.912,-8.032,1.732,
52172030,-0.998,0.237,0.349,4.13,-0.227,4.812,
52172030,-1.009,0.236,0.279,3.08,1.732,4.007,
52172050,-0.975,0.272,0.247,1.872,4.532,1.4,
52172050,-1.015,0.282,0.192,-2.572,6.562,-3.045,
52172070,-1.023,0.263,0.151,-4.41,3.167,-9.117,
52172070,-0.948,0.246,0.136,-1.172,-1.96,-13.16,
52172080,-0.887,0.245,0.161,1.732,-6.65,-12.827,
52172090,-0.879,0.226,0.207,1.26,-8.907,-10.307,
52172100,-0.905,0.195,0.234,-0.315,-10.955,-7.21,
52172110,-0.902,0.177,0.268,-1.505,-13.895,-3.045,
52172120,-0.885,0.174,0.3,-3.36,-14.017,2.59,
52172130,-0.913,0.187,0.294,-5.722,-9.205,8.697,
52172140,-0.961,0.211,0.296,-8.557,-2.992,12.495,
52172150,-1.021,0.233,0.278,-10.78,0.927,12.512,
52172160,-1.01,0.274,0.221,-12.005,0.472,9.117,
52172170,-0.864,0.34,0.164,-14.805,7.332,6.002,
52172180,-1.04,0.281,0.138,-23.59,14.945,3.377,
52172190,-1.139,0.192,0.137,-23.257,11.76,-2.625,
52172200,-1.027,0.223,0.25,-9.345,1.767,-9.117,
52172210,-0.952,0.248,0.331,-7.98,-3.605,-12.757,
52172220,-0.954,0.204,0.352,-12.757,-4.935,-13.772,
52172230,-0.915,0.173,0.36,-12.355,-5.39,-10.832,
52172240,-0.877,0.198,0.36,-8.942,-2.432,-4.9,
52172250,-0.94,0.214,0.337,-8.697,-2.327,0.035,
52172260,-0.883,0.221,0.236,-8.995,-5.232,1.75,
52172270,-0.809,0.241,0.185,-0.472,-3.132,2.905,
52172280,-0.893,0.254,0.169,2.905,1.977,7.962,
52172290,-0.988,0.247,0.136,3.325,4.077,9.73,
52172300,-1.034,0.229,0.165,8.767,-0.525,7.472,
52172310,-1.106,0.194,0.218,12.565,-15.715,1.907,
52172320,-0.947,0.166,0.253,19.635,-33.162,-3.395,
52172330,-0.715,0.229,0.337,31.097,-34.457,0.157,
52172330,-0.781,0.277,0.383,26.18,-18.025,10.325,
52172350,-1.022,0.263,0.3,11.602,-4.042,14.84,
52172350,-1.099,0.25,0.261,7.105,0.087,11.515,
52172370,-1.074,0.267,0.242,5.197,-2.852,4.917,
52172370,-1,0.283,0.224,0.717,-2.485,-2.187,
52172390,-1.026,0.238,0.222,-3.745,-2.957,-8.295,
52172390,-0.97,0.186,0.239,-5.372,-7.595,-12.092,
52172410,-0.871,0.176,0.266,-2.502,-10.587,-10.115,
52172410,-0.859,0.197,0.289,-3.482,-9.152,-3.815,
52172420,-0.898,0.208,0.25,-6.685,-6.125,2.047,
52172430,-0.861,0.226,0.234,-7.367,-0.577,6.772,
52172440,-0.908,0.272,0.227,-10.762,8.715,11.182,
52172450,-1.081,0.268,0.224,-20.02,10.307,9.852,
52172460,-1.04,0.239,0.232,-22.785,3.587,3.027,
52172470,-0.894,0.242,0.273,-17.395,1.277,-0.77,
52172480,-0.879,0.241,0.297,-17.57,5.495,0.157,
52172490,-0.949,0.183,0.324,-18.445,5.757,0.98,
52172500,-0.943,0.142,0.34,-12.705,-0.752,3.237,
52172510,-0.895,0.191,0.331,-2.87,-8.12,9.24,
52172520,-0.852,0.266,0.296,1.102,-8.172,14.315,
52172530,-0.922,0.291,0.221,-1.645,-1.487,16.03,
52172540,-1.028,0.277,0.178,-2.1,3.57,13.597,
52172550,-1.097,0.265,0.199,2.817,3.08,7.98,
52172560,-1.158,0.246,0.25,8.837,-9.467,-1.435,
52172570,-0.935,0.233,0.309,16.432,-23.327,-10.972,
52172580,-0.751,0.256,0.321,22.365,-22.347,-10.185,
52172590,-0.796,0.263,0.326,16.817,-9.415,-1.75,
52172600,-0.953,0.236,0.285,9.747,1.137,4.602,
52172610,-1.024,0.23,0.259,7.857,0.717,4.725,
52172620,-0.912,0.263,0.266,7.14,1.05,2.415,
52172630,-0.944,0.282,0.243,1.12,7.087,2.012,
52172640,-1.068,0.233,0.226,-8.032,5.32,-0.805,
52172650,-0.981,0.184,0.276,-8.277,-4.707,-4.952,
52172660,-0.856,0.201,0.31,-6.247,-12.495,-2.695,
52172670,-0.801,0.236,0.298,-10.08,-8.802,4.392,
52172680,-0.797,0.269,0.245,-15.225,7.647,11.637,
52172690,-0.978,0.288,0.187,-21.577,21.367,15.627,
52172700,-1.104,0.268,0.18,-24.867,19.932,11.112,
52172710,-1.062,0.253,0.196,-18.375,11.76,2.292,
52172720,-1.023,0.236,0.253,-12.407,2.782,-4.637,
52172730,-0.981,0.204,0.289,-8.382,-4.532,-8.61,
52172740,-0.887,0.201,0.297,-1.872,-5.88,-7.612,
52172750,-0.895,0.222,0.295,1.19,-2.012,-3.342,
52172760,-0.919,0.227,0.265,1.47,3.15,0.105,
52172760,-0.951,0.236,0.221,3.5,6.247,2.205,
52172780,-0.993,0.238,0.191,3.097,4.935,3.027,
52172780,-1.025,0.233,0.219,4.917,0.56,1.295,
52172800,-1.118,0.204,0.255,6.825,-13.737,-3.885,
52172800,-0.88,0.21,0.306,12.845,-27.3,-8.785,
52172820,-0.709,0.274,0.338,20.737,-23.187,-3.937,
52172820,-0.852,0.297,0.312,12.005,-12.617,4.06,
52172830,-0.942,0.25,0.261,2.975,-6.667,6.387,
52172840,-0.952,0.243,0.251,4.55,-4.707,6.335,
52172850,-0.942,0.269,0.267,3.115,-2.73,5.985,
52172860,-0.943,0.269,0.251,-1.54,-0.087,3.937,
52172870,-0.983,0.248,0.242,-4.97,2.835,1.872,
52172880,-1.068,0.225,0.253,-7.647,1.137,-0.945,
52172890,-1.07,0.215,0.255,-6.492,-5.005,-5.18,
52172900,-0.997,0.236,0.276,-3.867,-11.847,-9.047,
52172910,-0.921,0.243,0.267,-5.407,-15.032,-10.832,
52172920,-0.862,0.232,0.247,-7.577,-13.475,-9.537,
52172930,-0.766,0.25,0.229,-8.33,-1.05,-3.657,
52172940,-0.905,0.273,0.247,-12.915,15.26,2.695,
52172950,-1.07,0.239,0.234,-20.072,19.162,1.662,
52172960,-1.021,0.202,0.239,-18.357,14.122,-3.675,
52172970,-0.992,0.203,0.252,-14.14,7.612,-6.125,
52172980,-0.967,0.21,0.269,-11.48,2.905,-6.702,
52172990,-0.973,0.193,0.287,-9.222,-1.995,-7.035,
52173000,-0.932,0.202,0.256,-6.702,-5.372,-6.107,
52173010,-0.928,0.227,0.267,-1.855,-7.35,-4.707,
52173020,-0.892,0.215,0.284,-1.102,-5.092,-3.815,
52173030,-0.933,0.233,0.23,3.36,0.77,-0.892,
52173040,-0.951,0.246,0.215,5.145,2.1,-0.175,
52173050,-0.948,0.228,0.189,5.092,1.575,-0.84,
52173060,-0.952,0.216,0.213,7.105,-0.262,-0.875,
52173070,-1.046,0.189,0.237,8.155,-7.437,-1.89,
52173080,-0.94,0.168,0.287,12.547,-21.385,-3.937,
52173080,-0.721,0.214,0.362,22.05,-22.4,1.172,
52173100,-0.822,0.253,0.38,19.197,-11.9,11.392,
52173100,-0.983,0.236,0.33,9.572,-4.357,15.82,
52173120,-1.038,0.229,0.281,8.68,-3.097,15.032,
52173120,-1.027,0.261,0.274,9.31,-3.587,11.69,
52173140,-1.029,0.277,0.247,5.985,-3.657,6.177,
52173140,-0.949,0.27,0.231,2.625,-3.01,0.192,
52173160,-0.912,0.246,0.222,-1.557,-1.242,-2.467,
52173160,-0.948,0.19,0.255,-4.882,-2.065,-1.732,
52173170,-0.931,0.185,0.288,-1.452,-3.115,1.137,
52173180,-0.902,0.225,0.315,0.56,-3.902,4.935,
52173190,-0.893,0.241,0.291,-3.57,-0.91,7.525,
52173200,-0.859,0.248,0.252,-7.28,8.907,10.202,
52173210,-0.996,0.25,0.194,-13.002,18.987,12.127,
52173220,-1.123,0.217,0.161,-17.622,16.327,8.26,
52173230,-1.035,0.202,0.19,-12.25,6.982,2.257,
52173240,-0.946,0.234,0.219,-7.542,-0.227,-0.087,
52173250,-0.894,0.245,0.25,-8.26,-0.997,0.157,
52173260,-0.939,0.23,0.268,-7.735,0.087,1.295,
52173270,-0.98,0.208,0.284,-6.615,-2.135,2.17,
52173280,-0.938,0.226,0.284,-0.7,-5.005,3.01,
52173290,-0.875,0.281,0.256,4.375,-2.835,4.795,
52173300,-0.925,0.29,0.197,3.902,1.487,5.845,
52173310,-0.971,0.268,0.188,4.13,3.255,4.55,
52173320,-0.978,0.254,0.223,6.807,2.642,2.205,
52173330,-1.065,0.235,0.248,7.857,-2.45,-0.647,
52173340,-1.094,0.207,0.257,10.885,-21.28,-7.245,
52173350,-0.719,0.237,0.324,20.632,-27.195,-9.1,
52173360,-0.797,0.26,0.327,21.805,-14.7,-0.052,
52173370,-1.003,0.238,0.274,12.425,-6.02,5.652,
52173380,-0.994,0.218,0.277,13.545,-5.635,5.197,
52173390,-0.979,0.257,0.265,12.46,-4.987,3.99,
52173400,-1.013,0.278,0.21,6.125,-2.537,0.91,
52173410,-1.012,0.256,0.188,2.292,-2.94,-4.147,
52173420,-1.007,0.23,0.202,1.417,-6.737,-7.77,
52173430,-1.001,0.223,0.228,1.96,-13.755,-9.765,
52173440,-0.949,0.233,0.295,3.465,-19.775,-10.43,
52173450,-0.925,0.238,0.33,0.507,-24.132,-9.695,
52173460,-0.856,0.235,0.332,-5.127,-23.135,-7.735,
52173470,-0.801,0.245,0.276,-8.347,-10.22,-2.537,
52173480,-0.953,0.266,0.244,-14.227,3.22,0.805,
52173490,-1.029,0.248,0.226,-19.04,6.685,-2.17,
52173500,-0.989,0.213,0.252,-16.082,6.195,-6.265,
52173510,-0.954,0.2,0.277,-12.075,3.92,-7.402,
52173510,-0.928,0.207,0.286,-9.047,1.417,-5.11,
52173530,-0.95,0.191,0.304,-8.417,-2.082,-2.415,
52173530,-0.928,0.189,0.289,-6.125,-3.552,-0.332,
52173540,-0.883,0.239,0.312,-0.875,1.417,7,
52173550,-0.921,0.276,0.258,-7.682,7.402,8.207,
52173560,-0.987,0.225,0.211,-5.355,9.625,2.31,
52173570,-0.988,0.216,0.193,-1.4,4.69,1.015,
52173580,-1.001,0.234,0.223,-0.63,-3.115,0.332,
52173590,-1.072,0.231,0.235,0.507,-19.46,-4.287,
52173600,-0.789,0.241,0.294,5.74,-28.157,-7.07,
52173610,-0.732,0.252,0.351,9.73,-16.467,-0.84,
52173620,-0.91,0.255,0.336,3.447,-1.382,5.617,
52173630,-1.011,0.228,0.298,0.105,2.1,6.51,
52173640,-0.92,0.228,0.309,2.537,0.245,5.302,
52173650,-0.859,0.252,0.308,3.902,6.037,6.562,
52173660,-0.927,0.254,0.276,-0.175,12.092,8.347,
52173670,-0.965,0.237,0.248,-2.765,13.842,8.435,
52173680,-1.009,0.235,0.253,-2.835,11.042,7.612,
52173690,-1.032,0.24,0.258,-3.99,5.565,4.707,
52173700,-1.012,0.242,0.258,-4.532,0.07,0.717,
52173710,-0.972,0.241,0.259,-5.46,-4.147,-2.485,
52173720,-0.869,0.244,0.242,-7.28,-1.4,-3.045,
52173730,-0.89,0.246,0.214,-10.815,9.135,0.052,
52173740,-0.998,0.22,0.178,-16.887,14.927,1.977,
52173750,-1.003,0.199,0.172,-16.73,13.877,0.56,
52173760,-0.976,0.212,0.209,-12.215,10.08,-0.087,
52173770,-0.965,0.231,0.231,-9.975,7.402,-0.017,
52173780,-1.001,0.228,0.26,-9.152,3.605,-0.542,
52173790,-1.011,0.214,0.279,-9.362,-0.595,3.062,
52173800,-0.981,0.213,0.274,-10.045,-5.355,2.415,
52173810,-0.931,0.192,0.236,-5.267,-5.407,-3.097,
52173820,-0.902,0.194,0.227,2.642,-3.307,-2.625,
52173830,-0.891,0.237,0.229,6.475,-2.065,0.577,
52173830,-0.912,0.249,0.238,5.46,-0.945,3.097,
52173850,-0.953,0.236,0.222,2.747,-0.752,3.657,
52173850,-0.994,0.218,0.226,3.01,-2.66,3.202,
52173870,-1.193,0.221,0.171,5.74,-17.535,-0.84,
52173870,-0.888,0.227,0.294,13.492,-37.135,-8.4,
52173890,-0.679,0.27,0.359,25.147,-29.68,-4.777,
52173890,-0.886,0.283,0.358,18.112,-15.015,3.202,
52173910,-0.962,0.239,0.307,9.625,-8.942,4.497,
52173910,-0.951,0.224,0.316,11.025,-6.877,4.55,
52173920,-0.961,0.25,0.295,7.682,-1.995,5.057,
52173930,-1.001,0.252,0.258,3.5,1.487,3.115,
52173940,-0.974,0.25,0.229,0.105,3.272,-0.175,
52173950,-1.014,0.221,0.221,-4.165,1.19,-2.31,
52173960,-0.992,0.204,0.235,-6.195,-4.462,-4.952,
52173970,-0.918,0.208,0.3,-4.427,-8.942,-5.057,
52173980,-0.884,0.223,0.294,-8.4,-10.412,-2.292,
52173990,-0.802,0.232,0.259,-13.002,-2.135,2.537,
52174000,-0.908,0.246,0.185,-17.692,12.337,8.522,
52174010,-1.065,0.229,0.154,-22.697,16.502,8.855,
52174020,-1.069,0.221,0.153,-16.765,9.187,3.692,
52174030,-1.035,0.243,0.192,-8.26,-2.24,-1.837,
52174040,-0.993,0.249,0.216,-4.13,-11.882,-7.192,
52174050,-0.94,0.214,0.254,-0.665,-15.242,-10.272,
52174060,-0.912,0.204,0.283,3.255,-11.655,-8.75,
52174070,-0.984,0.196,0.28,6.335,-8.645,-6.125,
52174080,-0.94,0.213,0.273,9.275,-5.512,-4.69,
52174090,-0.916,0.252,0.272,11.795,-4.252,-2.975,
52174100,-0.919,0.253,0.261,6.37,-3.552,-2.362,
52174110,-0.939,0.238,0.276,2.957,-3.272,0.91,
52174120,-0.973,0.2,0.26,-5.495,-6.422,7.087,
52174130,-1.023,0.174,0.245,3.99,-16.292,-1.417,
52174140,-0.794,0.219,0.358,18.305,-19.6,-1.627,
52174150,-0.838,0.286,0.364,16.73,-10.727,4.847,
52174160,-1.011,0.248,0.35,8.347,-8.172,5.285,
52174170,-0.949,0.206,0.312,7.857,-11.077,2.117,
52174180,-0.89,0.214,0.325,11.567,-13.37,3.902,
52174190,-0.894,0.254,0.301,10.657,-9.135,6.72,
52174200,-0.947,0.256,0.292,8.47,-4.76,7.542,
52174210,-0.938,0.251,0.269,5.722,-1.067,6.282,
52174210,-0.985,0.249,0.24,3.71,2.607,5.39,
52174230,-1.008,0.254,0.213,-0.122,3.115,2.905,
52174230,-1.017,0.247,0.212,-3.115,0.735,-0.857,
52174250,-1.021,0.217,0.243,-6.527,-5.722,-5.04,
52174250,-0.947,0.202,0.269,-6.685,-10.395,-7.07,
52174260,-0.898,0.212,0.304,-5.81,-12.95,-5.04,
52174270,-0.828,0.236,0.279,-7.98,-9.607,-0.612,
52174280,-0.815,0.282,0.244,-11.375,3.762,5.127,
52174290,-1.02,0.26,0.228,-19.512,11.217,7.087,
52174300,-1.068,0.217,0.192,-21.122,6.3,2.1,
52174310,-0.983,0.214,0.228,-14.122,-2.677,-2.345,
52174320,-0.96,0.235,0.247,-10.867,-7.49,-3.867,
52174330,-0.974,0.22,0.271,-9.345,-8.75,-5.04,
52174340,-0.988,0.181,0.298,-5.687,-10.937,-6.265,
52174350,-0.946,0.186,0.306,0.525,-11.007,-4.917,
52174360,-0.915,0.232,0.314,6.632,-9.94,-3.15,
52174370,-0.891,0.244,0.292,4.76,-7.017,-2.362,
52174380,-0.898,0.219,0.259,3.185,-3.272,-1.697,
52174390,-0.917,0.203,0.264,4.515,-1.54,0.84,
52174400,-0.927,0.219,0.287,6.685,-3.132,4.287,
52174410,-0.925,0.231,0.337,7.14,-3.797,6.09,
52174420,-1.054,0.216,0.287,5.425,-10.867,4.655,
52174430,-0.879,0.203,0.337,9.572,-20.422,2.1,
52174440,-0.756,0.247,0.351,17.622,-17.045,6.807,
52174450,-0.888,0.286,0.33,13.265,-7.805,13.037,
52174460,-0.954,0.27,0.3,6.667,-0.542,13.3,
52174470,-1.039,0.252,0.253,5.617,1.365,10.587,
52174480,-1.039,0.259,0.241,4.252,-1.032,5.617,
52174490,-0.979,0.269,0.236,4.077,-1.522,0.857,
52174500,-0.991,0.264,0.213,0.84,-0.507,-3.045,
52174510,-0.981,0.234,0.218,-2.922,-1.207,-6.702,
52174520,-0.958,0.197,0.272,-4.322,-5.005,-8.347,
52174530,-0.926,0.189,0.302,-5.74,-8.487,-6.772,
52174540,-0.912,0.201,0.321,-7.175,-9.52,-3.57,
52174550,-0.917,0.207,0.319,-9.835,-7.332,-0.682,
52174560,-0.88,0.236,0.265,-11.427,-1.085,1.837,
52174570,-0.856,0.294,0.227,-13.667,11.987,4.865,
52174580,-1.078,0.263,0.18,-21.017,17.552,4.182,
52174580,-1.089,0.19,0.177,-20.072,9.957,-3.465,
52174600,-0.975,0.195,0.244,-8.085,-0.402,-7.402,
52174600,-0.917,0.218,0.286,-4.252,-5.792,-6.912,
52174620,-0.907,0.206,0.325,-4.025,-3.097,-5.11,
52174620,-0.948,0.2,0.35,-1.137,-0.14,-2.467,
52174640,-0.979,0.208,0.314,-1.067,-1.96,3.237,
52174640,-0.9,0.221,0.221,-0.35,-4.567,4.007,
52174660,-0.866,0.246,0.203,7.63,-4.567,-0.245,
52174660,-0.935,0.248,0.224,10.342,-4.427,2.327,
52174670,-1.024,0.248,0.265,7.997,-7.472,1.4,
52174680,-1.062,0.239,0.288,10.482,-20.807,-4.812,
52174690,-0.782,0.258,0.408,16.03,-27.23,-7.98,
52174700,-0.717,0.268,0.464,15.627,-12.6,-1.452,
52174710,-0.964,0.243,0.425,3.867,2.485,3.85,
52174720,-0.979,0.184,0.38,-1.592,1.365,3.482,
52174730,-0.83,0.2,0.364,1.225,0.63,6.282,
52174740,-0.862,0.256,0.325,-0.717,7.822,11.322,
52174750,-0.95,0.258,0.258,-6.562,14.122,12.547,
52174760,-1.01,0.235,0.211,-8.68,13.247,10.64,
52174770,-1.025,0.233,0.194,-7.21,8.4,8.05,
52174780,-0.998,0.256,0.22,-4.445,3.937,4.952,
52174790,-0.981,0.259,0.257,-4.83,1.365,1.067,
52174800,-0.951,0.229,0.27,-6.702,0.192,-2.205,
52174810,-0.932,0.21,0.282,-6.72,0.14,-2.397,
52174820,-0.894,0.204,0.301,-6.685,1.347,0.157,
52174830,-0.876,0.199,0.263,-8.645,9.677,5.18,
52174840,-1.074,0.188,0.191,-12.022,9.782,7.91,
52174850,-1.059,0.181,0.145,-9.957,-5.6,4.672,
52174860,-0.867,0.223,0.184,0.647,-15.767,3.5,
52174870,-0.905,0.273,0.244,3.902,-12.967,6.475,
52174880,-1.025,0.263,0.269,-0.84,-8.89,4.882,
52174890,-1.037,0.227,0.276,-1.225,-9.695,0.297,
52174900,-0.985,0.232,0.291,1.977,-11.34,-2.887,
52174910,-0.942,0.252,0.302,2.52,-11.287,-4.322,
52174920,-0.936,0.249,0.294,0.857,-10.482,-5.232,
52174920,-0.92,0.233,0.284,-0.525,-10.517,-5.687,
52174940,-0.9,0.229,0.284,-0.035,-9.765,-4.655,
52174940,-0.91,0.238,0.29,0.875,-8.802,-2.852,
52174960,-0.927,0.238,0.298,0.577,-7.822,-1.54,
52174960,-0.949,0.231,0.302,0.542,-7.682,-1.47,
52174980,-0.985,0.271,0.198,0.997,-8.645,-2.345,
52174980,-0.956,0.348,0.268,1.557,-16.852,-6.597,
52175000,-0.938,0.234,0.302,-4.007,-17.745,-12.425,
52175000,-0.902,0.172,0.331,1.592,-7.157,-13.335,
52175010,-0.917,0.21,0.412,7.315,-2.152,-8.487,
52175020,-0.886,0.22,0.407,0.07,-1.977,-4.532,
52175030,-0.885,0.193,0.371,-3.43,2.607,-1.575,
52175040,-0.9,0.206,0.346,-5.075,7.402,1.872,
52175050,-0.899,0.229,0.312,-6.737,9.73,5.11,
52175060,-0.909,0.247,0.272,-8.54,10.64,7.63,
52175070,-0.927,0.252,0.254,-10.08,10.92,8.347,
52175080,-0.94,0.239,0.271,-10.535,9.887,7.49,
52175090,-0.914,0.202,0.336,-11.077,9.695,7.385,
52175100,-0.913,0.163,0.274,-10.972,16.415,10.097,
52175110,-0.966,0.202,0.269,-10.097,18.41,13.912,
52175120,-0.957,0.239,0.234,-11.742,13.545,15.295,
52175130,-0.955,0.237,0.209,-14.035,11.392,14.665,
52175140,-0.985,0.243,0.195,-13.405,12.932,12.53,
52175150,-1.028,0.24,0.218,-10.622,11.217,9.187,
52175160,-1.005,0.23,0.224,-7.682,4.847,5.04,
52175170,-0.955,0.22,0.224,-1.855,-0.035,2.695,
52175180,-0.929,0.233,0.237,2.887,-1.452,2.835,
52175190,-0.973,0.23,0.215,3.902,-0.717,3.08,
52175200,-0.985,0.211,0.191,5.04,-1.715,1.785,
52175210,-0.981,0.207,0.177,7.262,-5.197,1.225,
52175220,-1.05,0.253,0.155,8.54,-13.825,0.122,
52175230,-1.02,0.31,0.196,8.592,-29.592,-5.162,
52175240,-0.869,0.271,0.302,7.77,-32.305,-10.517,
52175250,-0.943,0.233,0.322,6.912,-18.602,-11.025,
52175260,-1.052,0.228,0.345,5.425,-14.14,-11.235,
52175270,-0.949,0.217,0.337,4.83,-18.41,-12.407,
52175280,-0.83,0.224,0.363,4.725,-18.392,-10.5,
52175290,-0.84,0.223,0.348,1.19,-10.57,-6.282,
52175300,-0.879,0.209,0.352,-2.205,-3.22,-2.257,
52175310,-0.917,0.215,0.328,-2.397,1.015,1.54,
52175320,-0.937,0.241,0.325,-2.782,2.275,3.92,
52175330,-0.939,0.258,0.315,-4.41,3.43,3.447,
52175330,-0.955,0.257,0.295,-6.212,4.952,1.347,
52175350,-0.956,0.248,0.274,-7.472,4.357,-1.12,
52175350,-0.937,0.244,0.265,-7.42,2.8,-2.625,
52175370,-0.917,0.245,0.259,-7.017,2.047,-2.835,
52175370,-0.861,0.208,0.351,-6.597,4.252,-1.557,
52175390,-0.899,0.155,0.327,-6.492,14.927,3.36,
52175390,-1.002,0.193,0.333,-6.247,15.96,8.155,
52175410,-0.947,0.226,0.292,-8.61,8.417,8.995,
52175410,-0.883,0.223,0.26,-9.8,8.015,9.66,
52175420,-0.96,0.227,0.228,-10.272,11.742,11.2,
52175430,-1.01,0.236,0.19,-10.342,9.187,10.08,
52175440,-0.97,0.243,0.181,-7.455,3.657,7.7,
52175450,-0.984,0.25,0.172,-4.76,0.35,5.46,
52175460,-0.976,0.243,0.185,-2.712,-4.235,2.327,
52175470,-0.953,0.217,0.227,0.805,-5.705,0.332,
52175480,-0.983,0.204,0.245,2.1,-6.545,0.385,
52175490,-0.974,0.201,0.244,2.8,-8.802,0.612,
52175500,-0.944,0.209,0.262,4.83,-10.01,1.137,
52175510,-0.971,0.239,0.23,5.18,-10.045,1.645,
52175520,-0.989,0.282,0.2,5.372,-14.752,-0.367,
52175530,-0.935,0.286,0.235,5.932,-17.99,-4.147,
52175540,-0.958,0.253,0.275,6.545,-12.617,-6.755,
52175550,-1.02,0.236,0.296,7.892,-6.755,-8.855,
52175560,-1.017,0.234,0.313,10.185,-7.052,-11.322,
52175570,-0.954,0.235,0.334,9.765,-9.905,-13.492,
52175580,-0.899,0.212,0.334,7.245,-8.995,-13.772,
52175590,-0.9,0.198,0.319,5.635,-5.81,-10.937,
52175600,-0.898,0.207,0.338,4.427,-3.027,-6.842,
52175610,-0.9,0.216,0.329,2.432,-0.787,-3.78,
52175620,-0.892,0.213,0.32,0.35,1.662,-1.487,
52175630,-0.904,0.213,0.316,-0.647,4.427,0.717,
52175640,-0.913,0.218,0.309,-1.662,6.37,2.87,
52175650,-0.921,0.226,0.292,-2.485,7.42,4.515,
52175660,-0.915,0.233,0.271,-3.08,8.277,5.932,
52175670,-0.922,0.245,0.246,-3.832,8.487,6.807,
52175670,-0.945,0.247,0.216,-4.812,8.47,6.842,
52175690,-0.973,0.244,0.199,-4.06,6.93,5.547,
52175690,-0.987,0.246,0.201,-2.1,5.127,3.43,
52175710,-0.981,0.255,0.211,-0.052,3.57,0.7,
52175710,-0.975,0.258,0.221,0.822,2.205,-2.38,
52175730,-0.973,0.249,0.232,1.12,0.105,-5.232,
52175730,-0.954,0.238,0.245,1.575,-1.575,-7.455,
52175750,-0.939,0.224,0.261,1.942,-2.712,-8.522,
52175750,-0.935,0.209,0.278,1.68,-2.782,-8.032,
52175760,-0.918,0.192,0.324,1.155,-2.817,-6.527,
52175770,-0.91,0.115,0.36,-0.262,2.152,-2.327,
52175780,-0.96,0.13,0.306,0.63,6.125,3.78,
52175790,-0.953,0.205,0.312,0.35,-0.385,9.607,
52175800,-0.917,0.227,0.269,-4.865,-0.735,11.322,
52175810,-0.974,0.226,0.248,-8.225,3.272,11.025,
52175820,-1.014,0.232,0.208,-9.992,2.415,9.1,
52175830,-0.962,0.248,0.22,-8.592,-0.665,7.262,
52175840,-0.963,0.261,0.222,-7.14,-1.33,5.057,
52175850,-0.96,0.251,0.234,-8.487,-1.645,2.047,
52175860,-0.948,0.227,0.25,-6.667,-3.202,-0.175,
52175870,-0.917,0.218,0.276,-4.165,-3.465,0.105,
52175880,-0.916,0.214,0.282,-3.727,-2.467,2.047,
52175890,-0.925,0.203,0.283,-4.182,-0.875,4.06,
52175900,-0.938,0.199,0.27,-3.692,0.315,6.387,
52175910,-0.947,0.202,0.242,-2.38,0.577,8.47,
52175920,-0.958,0.215,0.207,-0.752,-0.245,9.66,
52175930,-0.981,0.234,0.172,1.225,-1.505,9.747,
52175940,-1.02,0.274,0.12,3.097,-6.947,7.945,
52175950,-1.014,0.294,0.132,5.25,-15.785,3.272,
52175960,-0.98,0.288,0.152,7.822,-21.035,-3.045,
52175970,-0.961,0.27,0.235,10.412,-21.787,-7.98,
52175980,-0.968,0.253,0.29,11.69,-17.237,-10.832,
52175990,-1.002,0.237,0.354,10.605,-13.37,-12.442,
52176000,-1,0.216,0.38,7.875,-12.775,-14.455,
52176010,-0.915,0.2,0.383,4.882,-12.88,-14.997,
52176020,-0.851,0.184,0.364,1.61,-8.54,-11.515,
52176030,-0.861,0.185,0.335,-1.085,-3.185,-5.6,
52176040,-0.884,0.207,0.294,-3.01,0.63,0.157,
52176050,-0.91,0.24,0.272,-4.27,2.1,3.745,
52176060,-0.933,0.262,0.242,-5.32,3.027,4.357,
52176070,-0.959,0.265,0.226,-5.39,3.342,2.817,
52176080,-0.952,0.247,0.276,-4.007,3.675,0.437,
52176080,-0.936,0.188,0.325,-2.117,7.07,-0.262,
52176100,-0.96,0.193,0.311,-0.297,10.202,1.785,
52176100,-0.935,0.23,0.327,-1.82,5.88,3.447,
52176120,-0.877,0.219,0.32,-6.335,6.65,4.427,
52176120,-0.899,0.195,0.292,-9.135,12.722,7.035,
52176140,-0.976,0.2,0.268,-10.727,16.082,10.062,
52176140,-0.997,0.213,0.257,-11.655,12.705,11.165,
52176160,-1.005,0.223,0.206,-11.585,9.73,10.01,
52176160,-0.997,0.232,0.208,-10.57,6.86,7.525,
52176170,-1.013,0.236,0.166,-9.257,4.2,4.62,
52176180,-0.974,0.239,0.167,-6.982,-0.437,1.487,
52176190,-0.944,0.226,0.149,-4.042,-4.427,-0.087,
52176200,-0.919,0.205,0.213,-1.102,-7.07,0.402,
52176210,-0.948,0.191,0.224,1.295,-5.985,2.397,
52176220,-0.971,0.188,0.249,2.327,-7.332,4.235,
52176230,-0.975,0.199,0.228,3.395,-8.855,5.39,
52176240,-1.013,0.253,0.165,4.235,-15.26,4.707,
52176250,-0.934,0.287,0.196,4.585,-23.362,1.575,
52176260,-0.887,0.272,0.228,4.847,-18.97,0.245,
52176270,-1.039,0.27,0.251,4.182,-13.562,-0.595,
52176280,-1.025,0.262,0.294,4.2,-17.132,-6.055,
52176290,-0.939,0.244,0.303,5.04,-17.622,-10.552,
52176300,-0.923,0.234,0.323,3.57,-15.767,-11.305,
52176310,-0.89,0.206,0.329,1.172,-10.255,-9.87,
52176320,-0.899,0.189,0.333,1.085,-3.797,-5.897,
52176330,-0.927,0.206,0.312,0.752,0.84,-1.662,
52176340,-0.925,0.228,0.295,-0.595,1.662,0.84,
52176350,-0.907,0.239,0.273,-2.117,1.82,1.662,
52176360,-0.918,0.242,0.273,-3.36,3.36,2.485,
52176370,-0.948,0.251,0.272,-4.252,3.955,2.362,
52176380,-0.95,0.25,0.251,-5.267,2.362,0.962,
52176390,-0.921,0.239,0.228,-5.897,1.137,-0.087,
52176400,-0.871,0.214,0.294,-4.987,3.815,1.032,
52176410,-0.914,0.161,0.315,-5.04,14.77,5.757,
52176420,-1.055,0.17,0.297,-5.39,17.115,9.467,
52176420,-0.963,0.21,0.3,-5.582,7.717,9.38,
52176440,-0.87,0.226,0.29,-7.035,6.195,10.255,
52176440,-0.941,0.226,0.243,-10.447,12.302,12.547,
52176460,-1.03,0.221,0.21,-11.987,13.177,11.935,
52176460,-1.031,0.22,0.22,-9.747,4.34,8.4,
52176480,-0.952,0.223,0.253,-5.372,-2.065,6.055,
52176480,-0.925,0.222,0.283,-3.15,-0.297,6.037,
52176500,-0.969,0.209,0.285,-5.792,3.062,6.86,
52176500,-0.981,0.188,0.254,-7.577,3.15,7.56,
52176510,-0.98,0.203,0.195,-6.545,0.56,8.68,
52176520,-0.946,0.269,0.134,-4.725,-5.337,8.715,
52176530,-0.909,0.298,0.144,-4.515,-8.172,7.962,
52176540,-0.941,0.291,0.158,-5.285,-8.995,6.212,
52176550,-0.983,0.272,0.178,-2.73,-8.837,4.305,
52176560,-1.052,0.279,0.197,2.1,-12.355,1.207,
52176570,-1.017,0.292,0.237,5.005,-19.897,-5.162,
52176580,-0.908,0.263,0.29,5.897,-20.79,-10.92,
52176590,-0.953,0.234,0.276,5.582,-13.79,-11.777,
52176600,-0.92,0.219,0.33,6.597,-9.572,-10.692,
52176610,-0.912,0.216,0.305,6.125,-4.2,-7.682,
52176620,-0.899,0.215,0.322,4.007,0.087,-4.322,
52176630,-0.934,0.219,0.283,2.59,5.512,-1.417,
52176640,-0.971,0.23,0.256,1.155,4.182,-0.315,
52176650,-0.934,0.242,0.238,1.697,0.42,-0.665,
52176660,-0.923,0.254,0.237,2.432,-1.015,-0.455,
52176670,-0.939,0.248,0.243,1.26,-0.682,-0.735,
52176680,-0.936,0.231,0.261,0.91,-0.612,-0.822,
52176690,-0.946,0.228,0.278,1.505,-0.997,0.052,
52176700,-0.953,0.23,0.314,1.277,-1.855,0.542,
52176710,-0.912,0.188,0.364,-0.875,2.03,1.26,
52176720,-1.006,0.181,0.29,-3.167,6.842,3.57,
52176730,-0.966,0.216,0.283,-5.477,0.962,4.62,
52176740,-0.911,0.236,0.237,-6.667,2.31,5.25,
52176750,-0.973,0.244,0.234,-8.522,6.387,5.915,
52176760,-1.024,0.245,0.213,-9.432,6.825,3.902,
52176770,-1.022,0.242,0.187,-7.787,3.412,-0.35,
52176780,-0.987,0.239,0.198,-4.287,-1.015,-4.077,
52176790,-0.967,0.235,0.198,-1.225,-2.87,-6.405,
52176800,-0.95,0.224,0.209,0.28,-6.195,-7.682,
52176810,-0.923,0.203,0.219,2.257,-7.962,-7.245,
52176820,-0.939,0.191,0.242,2.94,-7.822,-4.865,
52176830,-0.973,0.19,0.245,3.045,-9.852,-2.625,
52176830,-0.971,0.189,0.264,3.22,-13.755,-1.172,
52176850,-0.957,0.195,0.266,2.782,-17.43,-0.035,
52176850,-0.974,0.204,0.259,1.785,-19.722,1.225,
52176870,-1.018,0.261,0.198,1.242,-27.825,-0.035,
52176870,-0.905,0.288,0.241,2.152,-34.02,-2.905,
52176890,-0.864,0.266,0.288,0.91,-26.687,-4.305,
52176890,-1.01,0.254,0.282,-1.312,-17.325,-4.97,
52176900,-1.018,0.25,0.334,0.997,-17.395,-7.98,
52176910,-0.939,0.255,0.338,2.992,-18.812,-11.025,
52176920,-0.848,0.232,0.353,1.96,-13.072,-11.655,
52176930,-0.913,0.213,0.298,-0.087,-5.162,-9.992,
52176940,-0.864,0.2,0.289,0.402,-1.715,-7.28,
52176950,-0.871,0.21,0.285,1.872,2.782,-2.817,
52176960,-0.902,0.225,0.282,0.175,6.072,0.647,
52176970,-0.934,0.219,0.27,-1.662,8.067,1.925,
52176980,-0.955,0.214,0.262,-2.922,7.315,2.345,
52176990,-0.961,0.219,0.267,-3.29,6.16,2.712,
52177000,-0.963,0.233,0.278,-4.322,5.372,2.187,
52177010,-0.953,0.235,0.275,-5.915,5.285,0.542,
52177020,-0.877,0.2,0.363,-6.912,6.947,-0.245,
52177030,-0.859,0.136,0.345,-8.12,17.867,3.745,
52177040,-0.938,0.184,0.317,-7.525,23.1,10.762,
52177050,-0.947,0.237,0.262,-10.517,18.69,14.245,
52177060,-0.906,0.231,0.241,-12.652,14.367,14.157,
52177070,-0.917,0.234,0.229,-10.605,17.5,14.875,
52177080,-1.041,0.243,0.215,-9.695,19.53,14.665,
52177090,-1.075,0.249,0.192,-8.732,13.807,10.237,
52177100,-1.024,0.246,0.169,-5.967,5.827,4.497,
52177110,-0.964,0.228,0.187,-3.22,0.56,0.49,
52177120,-0.938,0.199,0.227,-0.42,0.087,-0.42,
52177130,-0.947,0.18,0.262,0.77,0.857,1.435,
52177140,-0.936,0.174,0.272,-0.63,0.542,4.147,
52177150,-0.936,0.176,0.265,-2.59,0.472,7.315,
52177160,-0.967,0.191,0.23,-3.815,-0.052,10.15,
52177170,-1.05,0.251,0.116,-2.8,-4.987,10.237,
52177170,-1.049,0.317,0.117,0.262,-18.27,4.707,
52177190,-0.959,0.307,0.141,1.172,-23.765,-3.342,
52177190,-0.999,0.269,0.175,2.31,-18.27,-7.63,
52177210,-1.088,0.265,0.227,5.372,-17.657,-11.882,
52177210,-0.988,0.246,0.299,6.93,-21.437,-18.69,
52177230,-0.927,0.208,0.312,5.302,-17.85,-21.245,
52177230,-0.953,0.185,0.327,3.36,-13.702,-19.232,
52177250,-0.927,0.184,0.325,2.292,-13.02,-16.45,
52177250,-0.869,0.195,0.331,1.522,-10.675,-12.547,
52177260,-0.867,0.201,0.309,-0.227,-5.582,-7.735,
52177270,-0.904,0.21,0.276,-1.435,-2.24,-3.832,
52177280,-0.912,0.224,0.262,-0.822,-2.082,-1.662,
52177290,-0.932,0.23,0.235,-0.332,-2.082,-0.245,
52177300,-0.951,0.235,0.219,0.997,-2.59,-0.052,
52177310,-0.96,0.242,0.22,2.992,-3.657,-0.98,
52177320,-0.964,0.248,0.227,3.622,-5.18,-2.38,
52177330,-0.958,0.243,0.247,3.99,-6.825,-4.532,
52177340,-0.898,0.177,0.365,3.132,-7.035,-5.197,
52177350,-0.958,0.131,0.311,1.312,-0.91,-2.047,
52177360,-0.959,0.172,0.361,1.767,-2.485,1.102,
52177370,-0.939,0.202,0.322,-2.905,-3.342,3.167,
52177380,-0.924,0.196,0.316,-7.385,-1.452,4.06,
52177390,-0.945,0.198,0.263,-7.367,3.202,5.67,
52177400,-0.954,0.222,0.259,-4.62,3.43,6.667,
52177410,-0.95,0.236,0.238,-2.992,2.065,6.3,
52177420,-0.946,0.223,0.226,-1.47,-0.507,4.935,
52177430,-0.929,0.187,0.236,-0.052,-1.172,4.69,
52177440,-0.979,0.17,0.223,1.68,-1.61,6.597,
52177450,-0.998,0.184,0.214,3.325,-4.287,7.84,
52177460,-1.015,0.207,0.203,4.445,-7.227,6.982,
52177470,-1.09,0.241,0.152,4.952,-16.17,2.537,
52177480,-0.973,0.25,0.191,6.93,-27.545,-4.69,
52177490,-0.906,0.243,0.233,10.692,-29.487,-7.997,
52177500,-0.928,0.251,0.272,10.955,-25.707,-7.787,
52177510,-0.954,0.229,0.327,9.8,-20.562,-7.542,
52177520,-1.078,0.207,0.264,7.35,-19.477,-8.75,
52177530,-1.037,0.22,0.291,8.015,-30.59,-14.087,
52177540,-0.842,0.217,0.314,10.377,-30.362,-15.645,
52177550,-0.915,0.211,0.323,8.295,-22.925,-12.512,
52177560,-0.952,0.203,0.303,4.882,-17.115,-11.235,
52177570,-0.872,0.184,0.346,6.492,-15.225,-9.922,
52177570,-0.846,0.184,0.343,5.215,-6.825,-4.882,
52177580,-0.943,0.188,0.317,2.66,-0.84,-0.875,
52177590,-0.93,0.193,0.302,1.417,-1.382,-0.07,
52177600,-0.879,0.211,0.313,1.907,-2.642,1.68,
52177610,-0.891,0.236,0.317,1.452,-0.875,4.217,
52177620,-0.922,0.241,0.317,-0.752,1.155,4.795,
52177630,-0.918,0.235,0.337,-1.837,3.307,4.06,
52177640,-0.895,0.228,0.373,-2.31,4.287,4.427,
52177650,-0.795,0.187,0.396,-5.267,14.595,8.505,
52177660,-0.953,0.174,0.297,-9.012,28.665,14.857,
52177670,-1.009,0.176,0.255,-12.582,23.17,16.152,
52177680,-0.868,0.191,0.269,-8.452,17.535,16.835,
52177690,-0.92,0.229,0.285,-5.285,20.387,19.197,
52177700,-1.004,0.221,0.265,-8.61,21.42,18.41,
52177710,-1.079,0.205,0.219,-5.81,16.082,15.382,
52177720,-1.046,0.233,0.187,-0.035,3.867,10.552,
52177730,-0.957,0.261,0.184,5.53,-1.207,6.142,
52177740,-1.012,0.242,0.186,5.705,-0.542,2.572,
52177750,-1.077,0.21,0.197,5.022,-2.327,-1.645,
52177760,-1.063,0.199,0.218,8.4,-8.662,-6.352,
52177770,-1.063,0.214,0.196,9.432,-16.8,-11.147,
52177780,-1.001,0.214,0.212,11.007,-30.835,-16.66,
52177790,-0.811,0.221,0.253,15.347,-32.042,-16.555,
52177800,-0.904,0.233,0.304,16.222,-28.087,-11.935,
52177810,-0.894,0.238,0.337,12.897,-21.962,-9.677,
52177820,-0.898,0.228,0.364,11.83,-14.262,-7.262,
52177830,-0.983,0.211,0.306,6.86,-9.485,-5.932,
52177840,-0.958,0.183,0.298,5.652,-12.477,-6.632,
52177850,-0.848,0.196,0.31,8.82,-11.55,-4.025,
52177860,-0.868,0.238,0.333,8.435,-4.952,0.595,
52177870,-0.935,0.248,0.319,4.112,0.63,1.592,
52177880,-0.931,0.224,0.297,1.155,0.945,0.087,
52177890,-0.911,0.209,0.307,-0.63,-1.172,0.14,
52177900,-0.903,0.206,0.327,-2.59,-3.64,1.977,
52177910,-0.895,0.207,0.349,-5.04,-5.582,4.602,
52177920,-0.91,0.202,0.337,-9.03,-6.352,7.542,
52177920,-0.916,0.198,0.309,-11.025,-5.005,9.992,
52177940,-0.839,0.217,0.312,-9.607,1.417,12.757,
52177940,-0.858,0.242,0.268,-10.272,20.23,17.447,
52177960,-1.112,0.227,0.243,-15.347,25.252,17.377,
52177960,-1.066,0.198,0.215,-14.262,16.66,11.375,
52177980,-1.003,0.209,0.24,-5.04,8.872,7.665,
52177980,-0.998,0.24,0.24,-2.082,2.275,4.742,
52178000,-0.939,0.229,0.236,0.122,-1.137,1.645,
52178000,-0.923,0.214,0.221,3.885,-1.085,1.207,
52178010,-0.955,0.21,0.198,5.932,-0.857,2.415,
52178020,-0.979,0.213,0.217,8.032,-2.292,3.132,
52178030,-1.042,0.226,0.23,8.277,-5.827,1.977,
52178040,-1.163,0.24,0.237,8.032,-20.072,-4.112,
52178050,-0.899,0.251,0.345,12.145,-32.34,-12.81,
52178060,-0.701,0.264,0.413,15.54,-23.275,-11.935,
52178070,-0.824,0.244,0.384,8.102,-1.89,-3.657,
52178080,-0.986,0.187,0.324,1.75,7.175,2.082,
52178090,-0.973,0.197,0.301,2.817,3.692,3.552,
52178100,-0.852,0.24,0.296,4.095,2.59,4.217,
52178110,-0.88,0.252,0.281,0.297,7.35,6.055,
52178120,-0.947,0.222,0.293,-4.952,9.117,7.262,
52178130,-0.968,0.21,0.321,-5.967,5.792,8.102,
52178140,-0.943,0.228,0.33,-6.597,2.17,8.68,
52178150,-0.927,0.243,0.309,-7.49,2.817,8.365,
52178160,-0.895,0.247,0.291,-8.085,5.74,7.682,
52178170,-0.781,0.242,0.29,-8.61,18.217,10.43,
52178180,-1.029,0.25,0.198,-12.967,31.605,13.702,
52178190,-1.179,0.188,0.145,-17.43,19.547,9.765,
52178200,-0.943,0.212,0.174,-7.787,6.107,5.075,
52178210,-0.941,0.265,0.228,-3.377,3.797,4.812,
52178220,-1.041,0.234,0.202,-8.47,3.15,1.925,
52178230,-1.024,0.182,0.243,-5.407,-3.167,-1.995,
52178240,-0.948,0.197,0.275,0.595,-7.122,-2.415,
52178250,-0.936,0.242,0.259,2.642,-5.582,-0.752,
52178260,-0.966,0.246,0.249,0.367,-4.62,-0.857,
52178260,-0.971,0.231,0.245,-0.07,-5.582,-2.275,
52178280,-0.963,0.231,0.241,0.875,-7.157,-2.835,
52178280,-0.947,0.241,0.234,1.522,-8.452,-3.307,
52178300,-0.944,0.242,0.248,2.31,-8.767,-3.727,
52178300,-0.956,0.236,0.24,2.607,-8.942,-3.937,
52178320,-1.017,0.247,0.198,4.55,-13.947,-5.775,
52178320,-0.863,0.249,0.29,8.102,-21.892,-8.715,
52178330,-0.806,0.256,0.324,8.75,-15.137,-6.177,
52178340,-0.937,0.24,0.341,2.87,-5.757,-2.782,
52178350,-1.028,0.202,0.301,-0.542,-4.637,-2.94,
52178360,-0.975,0.197,0.309,1.382,-11.655,-4.147,
52178370,-0.833,0.225,0.326,4.707,-11.935,-3.097,
52178380,-0.845,0.265,0.318,3.482,0.087,1.802,
52178390,-1.06,0.247,0.269,-4.375,5.11,3.115,
52178400,-0.986,0.207,0.24,-4.602,0.752,-1.242,
52178410,-0.88,0.223,0.272,1.802,-0.822,-1.365,
52178420,-0.908,0.254,0.295,-0.14,1.522,0.98,
52178430,-0.929,0.226,0.338,-3.815,3.097,1.33,
52178440,-0.881,0.161,0.371,-6.475,7.017,3.255,
52178450,-0.893,0.164,0.343,-8.155,13.895,9.677,
52178460,-0.966,0.204,0.247,-12.11,13.125,15.4,
52178470,-0.87,0.208,0.247,-14.105,8.645,17.395,
52178480,-0.869,0.228,0.227,-12.355,15.435,21.105,
52178490,-1.026,0.247,0.218,-15.47,17.027,22.68,
52178500,-1.008,0.228,0.231,-16.642,11.9,19.32,
52178510,-1.003,0.244,0.223,-12.46,8.505,16.975,
52178520,-1,0.277,0.213,-11.427,2.17,13.965,
52178530,-0.973,0.275,0.215,-9.467,-1.925,9.8,
52178540,-0.97,0.266,0.225,-6.16,-3.482,6.457,
52178550,-0.975,0.254,0.217,-3.552,-3.867,4.2,
52178560,-0.986,0.243,0.227,-0.717,-5.267,2.187,
52178570,-1.001,0.243,0.225,0.997,-8.277,-0.035,
52178580,-1.088,0.262,0.155,2.695,-17.745,-4.217,
52178590,-0.903,0.269,0.221,6.317,-33.67,-11.55,
52178600,-0.745,0.268,0.274,8.557,-24.57,-10.377,
52178610,-0.987,0.263,0.303,3.78,-7.787,-2.625,
52178620,-1.052,0.239,0.287,0.017,-4.305,-3.675,
52178630,-0.948,0.217,0.297,1.102,-4.742,-7.28,
52178640,-0.917,0.222,0.308,0.7,-3.29,-6.912,
52178650,-0.898,0.229,0.303,-0.35,-1.995,-4.725,
52178660,-0.88,0.237,0.289,-1.4,-0.647,-1.977,
52178670,-0.877,0.251,0.284,-1.417,3.132,1.155,
52178670,-0.915,0.262,0.284,-1.75,7.402,3.762,
52178690,-0.942,0.268,0.296,-2.432,9.537,4.06,
52178690,-0.913,0.234,0.377,-3.272,12.197,3.272,
52178710,-0.975,0.188,0.333,-5.477,19.512,4.532,
52178710,-1.017,0.204,0.335,-6.632,15.96,5.057,
52178730,-0.915,0.225,0.289,-9.082,9.065,4.655,
52178730,-0.875,0.224,0.27,-11.795,8.155,6.475,
52178750,-0.934,0.223,0.196,-14.665,9.852,9.082,
52178750,-0.966,0.236,0.159,-14.052,7.77,10.027,
52178760,-1.001,0.25,0.143,-11.34,3.867,9.24,
52178770,-1.033,0.259,0.142,-6.72,-0.717,6.405,
52178780,-1.023,0.252,0.175,-1.942,-5.652,1.697,
52178790,-1.009,0.228,0.199,-0.665,-8.872,-2.397,
52178800,-0.99,0.199,0.209,-0.21,-12.32,-4.602,
52178810,-0.971,0.194,0.21,1.575,-15.522,-4.637,
52178820,-1.035,0.263,0.119,3.377,-21.525,-4.812,
52178830,-0.906,0.302,0.231,4.637,-32.095,-9.152,
52178840,-0.867,0.258,0.211,3.482,-23.187,-10.115,
52178850,-1.026,0.232,0.266,4.252,-13.51,-7.752,
52178860,-1.013,0.246,0.332,6.142,-13.702,-9.607,
52178870,-0.935,0.249,0.339,5.582,-13.405,-11.935,
52178880,-0.892,0.222,0.34,1.505,-11.375,-12.302,
52178890,-0.834,0.194,0.332,-0.105,-4.76,-9.135,
52178900,-0.886,0.22,0.313,0.315,0.542,-2.625,
52178910,-0.884,0.27,0.298,-0.315,3.097,1.592,
52178920,-0.887,0.288,0.277,-1.347,6.44,2.45,
52178930,-0.92,0.266,0.29,-3.08,9.835,1.837,
52178940,-0.942,0.203,0.323,-3.272,13.037,2.152,
52178950,-0.965,0.194,0.33,-0.647,15.382,3.675,
52178960,-0.955,0.226,0.304,-1.172,11.007,4.602,
52178970,-0.867,0.227,0.29,-4.357,9.502,5.215,
52178980,-0.883,0.21,0.274,-7.087,14.63,8.627,
52178990,-0.955,0.204,0.268,-8.47,19.32,12.407,
52179000,-1.012,0.231,0.234,-8.557,18.287,13.107,
52179010,-0.992,0.242,0.212,-9.537,12.477,10.675,
52179010,-0.946,0.231,0.209,-9.31,10.29,8.47,
52179030,-0.998,0.219,0.176,-8.627,11.077,8.417,
52179030,-1.059,0.226,0.132,-7.892,3.71,6.755,
52179050,-0.944,0.23,0.151,-3.535,-7.28,3.5,
52179050,-0.859,0.213,0.202,1.172,-8.225,4.2,
52179070,-0.92,0.193,0.229,1.19,-4.672,8.802,
52179070,-0.967,0.204,0.246,1.872,-2.957,12.81,
52179080,-0.975,0.244,0.273,3.237,-1.96,14.297,
52179090,-1.026,0.267,0.229,0.717,-1.767,13.055,
52179100,-1.048,0.277,0.168,0.367,-8.33,8.452,
52179110,-0.899,0.285,0.228,3.727,-12.39,4.095,
52179120,-0.894,0.284,0.206,5.635,-7.787,4.322,
52179130,-0.96,0.27,0.21,4.375,-5.005,5.897,
52179140,-0.939,0.24,0.238,6.51,-6.877,5.355,
52179150,-0.833,0.251,0.292,11.55,-4.655,6.895,
52179160,-0.85,0.263,0.323,11.532,4.095,11.917,
52179170,-0.949,0.248,0.288,7.98,10.57,15.085,
52179180,-0.953,0.265,0.291,8.102,12.512,14.927,
52179190,-0.977,0.293,0.289,5.705,13.807,13.825,
52179200,-1.006,0.289,0.244,1.172,12.932,10.237,
52179210,-0.969,0.288,0.202,-0.402,10.447,6.142,
52179220,-0.972,0.267,0.187,-2.117,5.88,3.85,
52179230,-0.966,0.23,0.227,-1.697,1.732,2.59,
52179240,-0.945,0.231,0.258,-0.157,-2.292,2.677,
52179250,-0.932,0.238,0.25,-2.082,-3.797,4.357,
52179260,-0.948,0.243,0.214,-3.727,-2.835,6.02,
52179270,-0.983,0.266,0.185,-3.132,-2.642,7,
52179280,-1.005,0.349,0.146,-1.96,-2.327,6.177,
52179290,-1.022,0.386,0.115,-6.23,-3.535,1.347,
52179300,-1.094,0.294,0.092,-12.355,-5.407,-8.942,
52179310,-0.967,0.246,0.159,-5.88,-8.172,-16.52,
52179320,-0.937,0.248,0.202,-1.68,-10.797,-16.572,
52179330,-0.92,0.24,0.238,-1.557,-9.467,-14.927,
52179340,-0.944,0.244,0.282,-1.242,-10.15,-12.547,
52179350,-0.975,0.189,0.305,-5.18,-10.657,-11.305,
52179360,-0.937,0.176,0.333,-0.822,-11.375,-9.922,
52179370,-0.889,0.215,0.349,1.89,-10.99,-4.935,
52179380,-0.883,0.258,0.284,0.017,-8.12,-0.14,
52179390,-0.898,0.282,0.261,-1.347,-4.987,2.59,
52179400,-0.946,0.279,0.226,-2.87,-0.857,3.36,
52179410,-0.97,0.282,0.217,-1.172,0.682,2.152,
52179420,-0.967,0.27,0.234,0.595,-0.7,0.017,
52179420,-0.927,0.229,0.252,3.027,-3.517,-1.837,
52179440,-0.817,0.231,0.279,8.54,-2.38,0.7,
52179440,-0.832,0.259,0.287,9.607,2.642,8.067,
52179460,-0.969,0.249,0.256,5.057,5.25,12.967,
52179460,-0.968,0.254,0.251,4.847,5.88,12.95,
52179480,-1,0.272,0.254,5.075,4.2,11.655,
52179480,-0.998,0.275,0.209,3.395,2.572,8.505,
52179500,-0.974,0.294,0.196,3.727,1.417,5.25,
52179500,-0.998,0.277,0.151,0.017,-1.032,2.555,
52179510,-0.995,0.26,0.146,-0.017,-3.815,-0.805,
52179520,-1.004,0.258,0.171,0.84,-8.137,-3.29,
52179530,-0.992,0.242,0.205,-0.245,-12.232,-5.985,
52179540,-0.958,0.229,0.244,0.367,-15.067,-7.717,
52179550,-0.939,0.228,0.255,-0.017,-15.767,-6.737,
52179560,-0.938,0.251,0.243,-0.7,-15.505,-4.62,
52179570,-0.888,0.313,0.194,-2.257,-11.585,-2.957,
52179580,-0.927,0.345,0.16,-8.54,-4.532,-2.817,
52179590,-1.047,0.26,0.117,-15.365,-2.397,-6.895,
52179600,-0.983,0.233,0.168,-7.945,-4.987,-10.902,
52179610,-0.936,0.282,0.241,-0.875,-7.752,-10.99,
52179620,-1.003,0.228,0.263,-4.847,-7.472,-11.427,
52179630,-0.992,0.185,0.276,-0.28,-8.242,-12.827,
52179640,-0.946,0.2,0.308,4.777,-12.74,-10.92,
52179650,-0.917,0.215,0.293,4.095,-12.582,-7.192,
52179660,-0.91,0.235,0.315,4.987,-10.762,-4.41,
52179670,-0.9,0.244,0.302,3.955,-8.417,-1.855,
52179680,-0.909,0.259,0.32,2.345,-6.93,0.35,
52179690,-0.926,0.263,0.292,0.087,-5.915,1.015,
52179700,-0.921,0.252,0.25,-0.717,-5.81,0.507,
52179710,-0.905,0.242,0.237,1.47,-5.267,1.522,
52179720,-1.013,0.264,0.19,4.795,-10.745,2.065,
52179730,-0.873,0.28,0.279,8.89,-20.737,-0.91,
52179740,-0.769,0.287,0.32,9.695,-15.207,0.035,
52179750,-0.939,0.273,0.314,2.502,-0.805,3.815,
52179760,-1.086,0.225,0.272,-2.065,2.8,3.202,
52179760,-0.998,0.21,0.277,0.455,-2.45,0.315,
52179780,-0.905,0.238,0.269,2.625,-2.38,0.455,
52179780,-0.945,0.249,0.238,0.595,0.157,1.645,
52179800,-0.93,0.233,0.21,-1.627,-0.052,1.33,
52179800,-0.937,0.224,0.213,-0.437,-1.557,2.24,
52179820,-0.961,0.24,0.219,0.192,-2.887,3.675,
52179820,-0.972,0.253,0.223,0.892,-3.99,3.535,
52179830,-1.006,0.256,0.229,0.77,-5.197,1.627,
52179840,-0.973,0.247,0.25,1.505,-7.14,-1.4,
52179850,-0.951,0.242,0.259,1.82,-6.545,-2.66,
52179860,-0.954,0.241,0.263,0.402,-6.632,-2.66,
52179870,-0.899,0.241,0.282,-0.91,-5.95,-2.03,
52179880,-0.912,0.241,0.28,-2.782,-2.502,0.28,
52179890,-0.963,0.248,0.266,-4.69,-0.735,1.942,
52179900,-0.95,0.257,0.26,-4.182,-1.872,1.452,
52179910,-0.943,0.269,0.249,-3.307,-1.68,0.612,
52179920,-0.945,0.273,0.236,-3.097,-1.662,-0.717,
52179930,-0.919,0.265,0.238,-3.097,-1.89,-2.03,
52179940,-0.874,0.239,0.269,-2.712,0.42,-1.085,
52179950,-0.895,0.228,0.27,-2.345,7.49,2.975,
52179960,-0.991,0.242,0.266,-3.552,9.432,6.282,
52179970,-0.992,0.243,0.249,-5.635,5.862,5.005,
52179980,-0.987,0.229,0.238,-5.022,3.132,2.45,
52179990,-0.982,0.212,0.247,-2.642,-0.875,0.717,
52180000,-0.916,0.23,0.244,1.242,-4.112,0.752,
52180010,-0.922,0.244,0.234,1.715,-5.25,2.73,
52180020,-0.968,0.234,0.214,0.752,-4.987,4.042,
52180030,-1.032,0.245,0.218,3.01,-7.28,3.36,
52180040,-1.044,0.271,0.196,3.955,-11.637,-0.42,
52180050,-1.032,0.295,0.185,4.672,-16.835,-6.965,
52180060,-0.988,0.282,0.192,3.832,-22.452,-13.79,
52180070,-0.947,0.247,0.224,4.357,-24.325,-17.027,
52180080,-1.002,0.249,0.229,6.825,-24.762,-16.852,
52180090,-0.982,0.259,0.27,7.665,-32.69,-18.497,
52180100,-0.819,0.227,0.333,8.767,-31.325,-18.602,
52180110,-0.882,0.217,0.328,9.275,-20.02,-14.385,
52180120,-0.942,0.223,0.331,6.965,-16.467,-11.55,
52180130,-0.854,0.205,0.341,5.425,-13.982,-8.61,
52180140,-0.875,0.208,0.348,4.305,-7.98,-4.252,
52180150,-0.899,0.226,0.344,1.662,-1.68,-1.102,
52180160,-0.929,0.227,0.315,-1.155,2.502,0.682,
52180170,-0.945,0.23,0.279,-3.377,3.902,1.4,
52180170,-0.941,0.235,0.274,-3.22,4.322,1.802,
52180190,-0.937,0.25,0.271,-2.467,4.445,1.75,
52180190,-0.933,0.253,0.279,-2.345,4.742,0.875,
52180210,-0.884,0.205,0.342,-2.765,7.875,0.84,
52180210,-0.906,0.183,0.324,-2.1,17.167,4.567,
52180230,-0.97,0.218,0.323,-3.465,19.617,9.17,
52180230,-1.003,0.242,0.245,-8.557,16.012,9.555,
52180250,-0.958,0.236,0.222,-9.852,10.955,6.807,
52180250,-0.95,0.238,0.201,-8.627,12.145,5.442,
52180260,-0.986,0.238,0.208,-9.257,11.287,4.637,
52180270,-1.01,0.223,0.164,-8.89,7.665,2.572,
52180280,-0.968,0.21,0.188,-4.882,-0.63,0.21,
52180290,-0.898,0.23,0.229,0.315,-3.517,0.56,
52180300,-0.975,0.228,0.251,0.77,-3.657,1.75,
52180310,-0.98,0.206,0.235,0.49,-6.177,0.77,
52180320,-0.961,0.213,0.241,4.41,-8.785,0.857,
52180330,-0.988,0.238,0.233,4.672,-10.325,1.277,
52180340,-1.03,0.261,0.184,4.865,-13.23,-1.05,
52180350,-1.031,0.287,0.191,6.142,-20.055,-6.545,
52180360,-0.968,0.267,0.232,5.88,-24.78,-12.915,
52180370,-0.942,0.245,0.26,6.195,-23.747,-15.855,
52180380,-0.953,0.231,0.279,5.687,-22.26,-15.767,
52180390,-0.947,0.222,0.313,4.672,-23.257,-14.7,
52180400,-0.912,0.208,0.348,4.305,-23.345,-12.95,
52180410,-0.909,0.208,0.373,2.905,-20.895,-10.92,
52180420,-0.889,0.214,0.398,-0.052,-19.092,-8.977,
52180430,-0.878,0.213,0.376,-3.237,-16.38,-6.23,
52180440,-0.877,0.215,0.345,-5.232,-14.14,-3.447,
52180450,-0.87,0.217,0.307,-5.11,-11.2,-0.875,
52180460,-0.888,0.225,0.272,-3.78,-6.685,1.977,
52180470,-0.942,0.232,0.249,-2.712,-2.485,3.955,
52180480,-0.994,0.239,0.222,-1.855,-1.085,3.377,
52180490,-0.995,0.239,0.188,-1.032,-1.855,0.332,
52180500,-0.973,0.229,0.206,-0.262,-3.132,-2.992,
52180510,-0.974,0.209,0.249,-0.717,-4.602,-5.127,
52180510,-0.942,0.193,0.315,-0.49,-6.107,-5.81,
52180530,-0.871,0.174,0.356,-0.875,-3.202,-3.71,
52180530,-0.871,0.165,0.36,-3.85,4.165,1.54,
52180550,-0.925,0.174,0.334,-7.367,8.452,7.122,
52180550,-0.912,0.203,0.317,-7.84,10.307,11.235,
52180570,-0.943,0.228,0.31,-6.912,13.16,13.282,
52180570,-1.011,0.24,0.29,-7.892,12.337,11.567,
52180580,-0.935,0.241,0.309,-6.965,9.747,8.435,
52180590,-0.951,0.239,0.297,-5.652,10.867,7.735,
52180600,-1.032,0.233,0.249,-6.965,6.562,5.372,
52180610,-0.947,0.226,0.235,-2.117,0.402,1.75,
52180620,-0.914,0.232,0.238,3.132,-2.415,0.91,
52180630,-0.942,0.221,0.202,1.75,-3.132,0.945,
52180640,-0.977,0.19,0.179,2.66,-5.162,0.892,
52180650,-0.999,0.189,0.172,5.81,-10.36,1.295,
52180660,-0.979,0.204,0.187,8.277,-16.66,1.277,
52180670,-1.007,0.221,0.188,9.257,-22.575,0.21,
52180680,-1.041,0.247,0.218,10.307,-36.26,-4.375,
52180690,-0.866,0.253,0.3,13.72,-43.872,-8.697,
52180700,-0.859,0.253,0.379,16.135,-39.55,-8.295,
52180710,-0.92,0.247,0.4,13.212,-29.277,-6.72,
52180720,-0.943,0.221,0.425,12.075,-22.102,-6.265,
52180730,-0.862,0.225,0.428,10.29,-9.432,-4.252,
52180740,-1.007,0.225,0.371,5.547,-0.472,-1.802,
52180750,-1.014,0.202,0.295,-0.175,-3.412,-4.077,
52180760,-0.898,0.199,0.277,3.342,-6.335,-5.162,
52180770,-0.872,0.237,0.288,5.162,-3.097,-2.642,
52180780,-0.931,0.258,0.279,1.47,2.677,-1.645,
52180790,-0.977,0.234,0.271,-1.312,4.025,-3.727,
52180800,-0.958,0.212,0.28,-0.91,2.24,-5.792,
52180810,-0.929,0.213,0.298,1.172,1.12,-5.757,
52180820,-0.912,0.219,0.327,1.4,0.49,-4.882,
52180830,-0.902,0.215,0.344,-0.91,-0.105,-3.552,
52180840,-0.893,0.206,0.354,-4.48,-1.242,-1.767,
52180850,-0.802,0.178,0.4,-7.682,2.275,1.977,
52180860,-0.836,0.18,0.314,-10.622,20.387,10.167,
52180870,-1.062,0.198,0.256,-15.61,25.655,15.19,
52180880,-1.055,0.19,0.208,-16.59,17.57,12.005,
52180890,-0.987,0.219,0.221,-8.575,10.552,8.032,
52180900,-0.952,0.257,0.278,-6.597,8.155,5.145,
52180910,-0.997,0.233,0.263,-8.365,7.7,1.47,
52180920,-1.012,0.193,0.241,-6.387,2.625,-2.222,
52180920,-0.923,0.197,0.27,0.507,-4.305,-3.08,
52180940,-0.89,0.235,0.291,5.932,-4.287,-0.945,
52180940,-0.957,0.243,0.262,4.637,-1.575,-0.455,
52180950,-1.005,0.208,0.23,3.045,-3.325,-2.1,
52180960,-0.984,0.193,0.22,4.917,-9.152,-3.447,
52180970,-0.986,0.2,0.241,6.387,-14.595,-3.815,
52180980,-1.049,0.215,0.238,6.895,-25.305,-5.915,
52180990,-0.907,0.236,0.32,9.852,-36.942,-8.995,
52181000,-0.798,0.245,0.374,11.462,-34.195,-7.822,
52181010,-0.921,0.235,0.375,6.912,-23.747,-5.355,
52181020,-0.98,0.208,0.352,3.762,-21.577,-6.195,
52181030,-0.878,0.195,0.367,6.265,-21.98,-5.897,
52181040,-0.804,0.215,0.373,7.385,-14.35,-1.505,
52181050,-0.897,0.246,0.351,3.115,-1.312,3.307,
52181060,-1.035,0.211,0.296,-3.57,2.03,3.167,
52181070,-0.989,0.191,0.279,-2.047,-1.75,-0.385,
52181080,-0.922,0.221,0.29,2.73,-2.555,-1.015,
52181090,-0.947,0.25,0.272,0.997,0.542,-1.4,
52181100,-0.968,0.234,0.263,-1.732,1.155,-4.41,
52181110,-0.95,0.195,0.283,-2.082,-1.767,-6.615,
52181120,-0.899,0.188,0.311,-0.787,-3.937,-5.67,
52181130,-0.881,0.204,0.344,-0.42,-3.062,-2.485,
52181140,-0.832,0.202,0.399,-3.57,1.137,1.015,
52181150,-0.82,0.177,0.355,-8.715,16.275,7.087,
52181160,-0.999,0.176,0.29,-14.525,23.257,12.827,
52181170,-1.001,0.192,0.223,-17.237,16.992,12.792,
52181180,-0.901,0.201,0.251,-12.687,11.935,11.462,
52181190,-0.899,0.229,0.241,-11.042,15.995,12.722,
52181200,-1.065,0.238,0.213,-13.002,16.73,12.267,
52181210,-1.137,0.188,0.188,-11.375,3.727,5.075,
52181220,-0.915,0.153,0.267,-0.402,-11.707,-1.4,
52181230,-0.81,0.212,0.251,10.605,-10.045,3.762,
52181240,-0.941,0.264,0.288,11.007,-3.64,8.96,
52181250,-1.016,0.238,0.288,5.337,-1.505,7,
52181260,-1.105,0.214,0.252,5.74,-6.982,1.995,
52181260,-1.003,0.231,0.283,10.237,-22.855,-4.27,
52181280,-0.891,0.246,0.31,14.857,-28.052,-6.335,
52181280,-0.994,0.26,0.3,15.312,-32.515,-7.98,
52181300,-0.805,0.238,0.36,15.05,-35.63,-10.902,
52181300,-0.816,0.215,0.36,15.295,-24.64,-6.177,
52181320,-0.963,0.223,0.381,10.167,-15.925,-1.872,
52181320,-0.914,0.217,0.373,7.192,-10.675,-2.135,
52181330,-0.909,0.217,0.375,5.39,-0.822,-0.595,
52181340,-1.028,0.221,0.334,-0.367,2.887,-0.84,
52181350,-0.951,0.207,0.3,-2.362,2.187,-3.325,
52181360,-0.929,0.204,0.3,-1.925,0.7,-3.832,
52181370,-0.899,0.205,0.315,-3.78,-0.507,-3.482,
52181380,-0.878,0.197,0.321,-4.392,-0.98,-1.295,
52181390,-0.88,0.2,0.351,-5.985,-0.822,1.837,
52181400,-0.909,0.2,0.355,-8.96,0.385,5.25,
52181410,-0.874,0.222,0.343,-10.517,4.305,7.822,
52181420,-0.825,0.25,0.293,-13.58,19.302,11.847,
52181430,-1.065,0.228,0.224,-21.857,27.895,13.02,
52181440,-1.077,0.198,0.168,-22.592,20.457,7.56,
52181450,-0.945,0.204,0.213,-13.877,11.182,3.762,
52181460,-0.925,0.236,0.254,-10.395,8.802,3.115,
52181470,-0.952,0.24,0.281,-9.817,10.29,2.607,
52181480,-1.019,0.184,0.299,-8.942,8.312,0.455,
52181490,-1.009,0.149,0.329,-1.837,1.645,-0.7,
52181500,-0.886,0.203,0.357,10.132,-2.345,1.487,
52181510,-0.865,0.266,0.355,12.775,0.262,5.005,
52181520,-0.923,0.257,0.337,8.417,4.34,5.092,
52181530,-0.955,0.217,0.292,6.387,5.635,4.13,
52181540,-0.971,0.199,0.241,6.492,1.89,4.41,
52181550,-0.942,0.21,0.217,9.1,-1.032,4.952,
52181560,-0.975,0.223,0.229,10.657,-2.695,5.215,
52181570,-1.155,0.218,0.19,10.447,-17.027,0.525,
52181580,-0.886,0.217,0.303,18.025,-36.925,-6.93,
52181590,-0.698,0.277,0.378,26.897,-34.93,-4.13,
52181600,-0.841,0.287,0.373,17.202,-19.915,2.1,
52181610,-0.969,0.218,0.336,8.225,-10.692,3.447,
52181620,-0.968,0.194,0.339,9.992,-8.365,4.13,
52181620,-0.936,0.233,0.352,10.307,-3.412,5.197,
52181640,-0.987,0.246,0.32,4.987,0.665,3.797,
52181640,-0.949,0.229,0.278,-0.052,3.447,0.927,
52181660,-0.957,0.211,0.247,-2.065,5.372,0.49,
52181660,-0.979,0.207,0.238,-3.167,3.867,0.472,
52181670,-0.946,0.21,0.271,-1.365,0.227,-0.385,
52181680,-0.91,0.219,0.334,-1.96,-2.94,-0.507,
52181690,-0.921,0.217,0.348,-6.072,-3.587,0.577,
52181700,-0.88,0.221,0.352,-8.837,-2.135,2.572,
52181710,-0.765,0.235,0.327,-12.862,15.33,8.522,
52181720,-1.038,0.26,0.217,-22.925,30.765,12.617,
52181730,-1.121,0.226,0.139,-30.24,21.56,6.247,
52181740,-0.946,0.189,0.149,-20.755,7.735,0.49,
52181750,-0.891,0.253,0.237,-9.695,4.76,1.557,
52181760,-1.016,0.246,0.272,-9.887,4.865,0.665,
52181770,-1.045,0.188,0.307,-7.14,-1.102,-3.71,
52181780,-0.94,0.2,0.353,3.167,-8.417,-4.672,
52181790,-0.885,0.242,0.358,6.265,-9.8,-2.047,
52181800,-0.908,0.261,0.328,4.725,-5.775,-0.595,
52181810,-0.962,0.251,0.303,2.117,-4.357,-1.277,
52181820,-0.953,0.23,0.274,0.525,-6.247,-3.097,
52181830,-0.926,0.228,0.268,1.435,-7.84,-4.025,
52181840,-0.927,0.224,0.257,2.292,-7.735,-3.5,
52181850,-1.025,0.204,0.25,4.287,-10.01,-3.255,
52181860,-1.039,0.187,0.276,8.417,-25.62,-7.14,
52181870,-0.786,0.219,0.308,17.22,-33.022,-7.665,
52181880,-0.789,0.269,0.355,19.372,-26.337,-2.187,
52181890,-0.886,0.249,0.356,10.85,-14.192,1.75,
52181900,-0.979,0.213,0.338,9.03,-6.895,3.535,
52181910,-0.977,0.217,0.326,8.05,-6.317,3.447,
52181920,-0.965,0.219,0.314,5.372,-6.615,2.275,
52181930,-0.938,0.223,0.304,3.57,-4.865,1.12,
52181940,-0.944,0.219,0.28,1.417,-2.905,0.647,
52181950,-0.944,0.213,0.252,-0.035,-0.49,0.927,
52181960,-0.958,0.225,0.251,0.35,0.752,1.295,
52181970,-0.969,0.24,0.265,-1.312,-0.315,0.087,
52181980,-0.965,0.215,0.276,-4.095,-3.062,-2.502,
52181990,-0.932,0.202,0.319,-4.287,-5.407,-3.395,
52182000,-0.909,0.213,0.348,-5.705,-5.827,-1.61,
52182010,-0.835,0.227,0.339,-9.485,-1.942,1.89,
52182010,-0.872,0.246,0.26,-15.015,13.002,7.122,
52182030,-1.041,0.237,0.216,-23.152,17.92,7.14,
52182030,-0.982,0.198,0.207,-24.097,12.162,1.855,
52182050,-0.916,0.209,0.241,-16.572,7.42,0.735,
52182050,-0.959,0.24,0.275,-14.56,6.632,1.435,
52182070,-1.042,0.194,0.299,-15.032,3.325,-1.365,
52182070,-1.036,0.166,0.338,-7.612,-2.625,-3.5,
52182080,-0.966,0.205,0.355,2.065,-9.012,-3.22,
52182090,-0.867,0.258,0.366,6.23,-8.68,-1.417,
52182100,-0.898,0.278,0.35,4.97,-4.742,-0.945,
52182110,-0.94,0.247,0.318,1.435,-2.187,-2.275,
52182120,-0.956,0.22,0.271,2.992,-3.727,-3.517,
52182130,-0.927,0.242,0.27,4.865,-7.28,-3.307,
52182140,-1.091,0.231,0.302,0.77,-16.257,2.59,
52182150,-0.933,0.198,0.288,-4.287,-34.212,-1.19,
52182160,-0.655,0.18,0.318,15.575,-31.272,-5.25,
52182170,-0.742,0.241,0.437,20.597,-11.112,2.327,
52182180,-0.986,0.247,0.356,5.88,4.462,9.485,
52182190,-1.03,0.202,0.32,2.415,2.905,6.685,
52182200,-0.933,0.189,0.293,2.082,-0.577,4.515,
52182210,-0.943,0.191,0.266,1.837,-1.995,5.092,
52182220,-0.929,0.217,0.261,3.465,-0.402,6.387,
52182230,-0.961,0.24,0.255,3.902,0.49,6.562,
52182240,-0.968,0.248,0.235,1.242,2.362,4.812,
52182250,-1.02,0.235,0.234,-1.347,1.522,1.645,
52182260,-1.02,0.212,0.247,-1.68,-3.832,-2.485,
52182270,-0.941,0.204,0.285,0.77,-8.732,-5.425,
52182280,-0.911,0.217,0.321,1.015,-9.747,-5.18,
52182290,-0.933,0.224,0.338,-1.802,-9.94,-3.622,
52182300,-0.927,0.224,0.356,-5.705,-10.5,-2.887,
52182310,-0.81,0.231,0.356,-8.54,-4.935,-0.892,
52182320,-0.851,0.247,0.284,-12.827,10.885,4.602,
52182330,-1.049,0.227,0.252,-18.812,15.26,6.3,
52182330,-1.019,0.193,0.261,-15.19,9.45,1.96,
52182350,-0.921,0.206,0.318,-6.02,4.287,-0.122,
52182350,-0.885,0.242,0.328,-3.972,4.007,0.875,
52182370,-0.928,0.228,0.303,-5.407,4.777,1.855,
52182370,-0.969,0.2,0.286,-4.987,2.712,1.855,
52182390,-0.944,0.209,0.304,-0.56,-0.892,2.012,
52182390,-0.936,0.254,0.314,2.502,-0.472,2.222,
52182410,-0.972,0.259,0.305,-0.262,0.997,-0.245,
52182410,-0.975,0.227,0.288,-2.327,0.875,-3.867,
52182420,-0.945,0.208,0.296,-0.682,-1.312,-5.057,
52182430,-0.924,0.216,0.31,0.63,-2.66,-4.095,
52182440,-0.919,0.22,0.317,0.455,-2.852,-3.272,
52182450,-0.914,0.212,0.318,-1.067,-2.59,-2.8,
52182460,-0.911,0.2,0.317,-2.625,-2.45,-1.47,
52182470,-0.922,0.201,0.311,-3.465,-1.89,0.98,
52182480,-0.93,0.212,0.312,-3.867,-1.487,2.957,
52182490,-0.934,0.221,0.314,-4.935,-0.857,3.85,
52182500,-0.943,0.219,0.306,-6.247,-0.437,3.675,
52182510,-0.951,0.211,0.282,-6.86,-0.385,3.237,
52182520,-0.947,0.208,0.273,-6.317,-1.557,3.167,
52182530,-0.938,0.212,0.271,-5.652,-2.992,3.552,
52182540,-0.943,0.213,0.269,-5.81,-4.375,3.972,
52182550,-0.95,0.212,0.273,-6.037,-5.985,3.937,
52182560,-0.942,0.209,0.29,-6.405,-7.052,3.762,
52182570,-0.925,0.215,0.303,-6.702,-5.6,4.322,
52182580,-0.95,0.225,0.311,-8.557,-3.115,5.25,
52182590,-0.976,0.228,0.299,-12.477,-2.257,4.76,
52182600,-0.967,0.219,0.288,-14.245,-2.275,3.062,
52182610,-0.962,0.201,0.291,-13.93,-3.972,1.522,
52182620,-0.929,0.217,0.275,-11.025,-4.27,1.715,
52182630,-0.952,0.228,0.305,-7.437,-4.672,2.327,
52182640,-0.953,0.236,0.312,-6.142,-5.232,1.19,
52182650,-0.923,0.237,0.324,-3.867,-6.002,-0.175,
52182660,-0.904,0.232,0.318,-3.832,-4.83,-0.315,
52182670,-0.921,0.221,0.313,-3.237,-1.855,0.542,
52182680,-0.934,0.219,0.305,-1.767,1.067,1.382,
52182690,-0.945,0.222,0.304,-0.735,1.75,1.68,
52182700,-0.936,0.219,0.292,-0.052,2.012,1.26,
52182710,-0.916,0.213,0.275,0.227,2.59,1.522,
52182720,-0.919,0.212,0.274,1.592,4.392,2.765,
52182730,-0.943,0.212,0.277,2.747,6.02,4.322,
52182740,-0.958,0.219,0.279,3.43,5.705,4.077,
52182750,-0.957,0.212,0.273,3.185,4.077,3.342,
52182760,-0.953,0.209,0.269,3.325,2.17,3.027,
52182760,-1.002,0.196,0.288,4.69,-2.082,2.765,
52182780,-0.987,0.184,0.29,7.63,-10.57,1.61,
52182780,-0.837,0.232,0.327,13.86,-13.65,2.117,
52182800,-0.905,0.264,0.327,13.317,-8.942,5.53,
52182800,-1.027,0.242,0.296,7.525,-9.94,4.182,
52182820,-0.985,0.223,0.267,9.502,-15.382,0.105,
52182820,-0.859,0.25,0.322,13.055,-15.225,-1.19,
52182830,-0.922,0.258,0.317,8.19,-6.632,0.315,
52182840,-1.015,0.228,0.283,1.837,-4.427,-1.19,
52182850,-0.942,0.205,0.281,1.785,-5.547,-3.745,
52182860,-0.937,0.204,0.293,2.38,-5.635,-3.202,
52182870,-0.939,0.209,0.284,1.05,-5.53,-2.432,
52182880,-0.913,0.208,0.285,1.82,-5.845,-1.697,
52182890,-0.911,0.215,0.287,1.295,-5.705,-0.157,
52182900,-0.929,0.218,0.304,-0.63,-5.232,1.417,
52182910,-0.964,0.214,0.325,-3.08,-6.912,2.117,
52182920,-0.956,0.212,0.346,-6.615,-11.375,1.627,
52182930,-0.909,0.208,0.354,-10.255,-15.505,1.802,
52182940,-0.91,0.204,0.342,-14.787,-15.977,4.095,
52182950,-0.871,0.227,0.307,-16.537,-11.62,6.405,
52182960,-0.756,0.318,0.276,-16.642,3.972,9.905,
52182970,-0.953,0.333,0.253,-25.742,21.332,11.182,
52182980,-1.146,0.233,0.212,-29.505,23.712,4.182,
52182990,-1.112,0.166,0.302,-13.527,10.587,-3.902,
52183000,-0.957,0.185,0.387,0.63,-1.767,-7.507,
52183010,-0.876,0.233,0.367,6.632,-5.18,-7.245,
52183020,-0.867,0.217,0.318,5.215,-3.797,-5.022,
52183030,-0.887,0.203,0.267,6.475,-0.332,-2.135,
52183040,-0.942,0.21,0.247,8.872,-0.122,0.682,
52183050,-0.946,0.224,0.234,9.8,-1.435,1.172,
52183060,-0.995,0.222,0.248,10.412,-2.94,-0.087,
52183070,-1.125,0.189,0.248,8.872,-12.932,-4.602,
52183080,-0.96,0.194,0.278,14.42,-26.215,-10.412,
52183080,-0.806,0.25,0.34,22.05,-26.162,-9.1,
52183100,-0.897,0.253,0.349,16.362,-16.362,-5.46,
52183100,-0.997,0.21,0.306,11.357,-12.197,-5.81,
52183120,-0.936,0.191,0.309,14.297,-16.082,-6.65,
52183120,-0.88,0.21,0.325,17.027,-17.535,-4.777,
52183140,-0.873,0.228,0.361,16.012,-16.117,-2.59,
52183140,-0.859,0.237,0.38,12.827,-10.64,-0.647,
52183160,-0.908,0.233,0.364,8.015,-2.922,1.96,
52183160,-1.008,0.224,0.335,2.94,-0.385,2.432,
52183170,-0.961,0.218,0.314,1.575,-2.66,0.052,
52183180,-0.911,0.235,0.293,2.555,-1.925,-1.19,
52183190,-0.951,0.221,0.28,-0.245,-2.24,-1.82,
52183200,-0.919,0.202,0.277,-0.21,-4.305,-2.555,
52183210,-0.905,0.203,0.316,2.45,-5.127,-0.927,
52183220,-0.927,0.217,0.326,1.295,-5.18,0.91,
52183230,-0.937,0.222,0.333,0.14,-5.197,1.627,
52183240,-0.936,0.217,0.34,-1.837,-6.16,1.33,
52183250,-0.927,0.211,0.34,-3.692,-6.615,1.417,
52183260,-0.914,0.21,0.362,-5.04,-7.052,2.327,
52183270,-0.907,0.213,0.353,-8.102,-6.947,4.147,
52183280,-0.886,0.227,0.322,-10.15,-5.635,6.177,
52183290,-0.801,0.268,0.28,-11.462,5.407,8.995,
52183300,-0.956,0.275,0.244,-16.66,18.305,11.182,
52183310,-1.11,0.226,0.242,-19.127,17.482,6.772,
52183320,-1.044,0.188,0.289,-11.042,8.067,-0.192,
52183330,-0.941,0.203,0.347,-3.097,0.332,-3.867,
52183340,-0.888,0.214,0.352,-1.102,-0.157,-3.535,
52183350,-0.909,0.206,0.34,-0.7,1.435,-1.277,
52183360,-0.922,0.213,0.333,2.38,2.572,0.98,
52183370,-0.92,0.241,0.312,5.267,4.69,1.925,
52183380,-0.94,0.25,0.284,4.2,6.107,1.05,
52183390,-0.958,0.232,0.269,3.727,5.565,-0.56,
52183400,-0.971,0.218,0.271,4.62,3.272,-1.627,
52183410,-0.98,0.208,0.29,5.127,-0.402,-2.66,
52183420,-1.008,0.188,0.316,6.107,-6.3,-4.532,
52183430,-0.897,0.194,0.337,8.995,-12.127,-6.16,
52183440,-0.786,0.227,0.365,11.41,-8.907,-2.747,
52183450,-0.881,0.23,0.338,6.545,-1.89,3.045,
52183460,-0.942,0.212,0.309,2.957,1.137,5.74,
52183470,-0.951,0.213,0.314,4.987,-0.297,6.3,
52183480,-0.914,0.245,0.311,5.425,0.245,6.265,
52183490,-0.927,0.267,0.296,3.272,3.955,5.827,
52183500,-1.009,0.239,0.272,-1.015,5.162,3.5,
52183510,-0.997,0.198,0.274,-0.735,1.89,0.017,
52183510,-0.931,0.198,0.299,3.885,-0.91,-0.98,
52183530,-0.889,0.233,0.299,4.025,-0.525,0.49,
52183530,-0.922,0.235,0.29,0.56,1.715,1.785,
52183550,-0.974,0.212,0.279,-1.82,2.187,1.925,
52183550,-0.966,0.212,0.301,-0.787,1.47,1.417,
52183570,-0.946,0.218,0.32,-0.472,0.717,1.05,
52183570,-0.914,0.218,0.329,-2.572,1.032,1.225,
52183580,-0.903,0.215,0.329,-4.882,1.75,2.712,
52183590,-0.894,0.212,0.351,-7.087,2.345,5.057,
52183600,-0.9,0.212,0.339,-8.487,3.605,7.91,
52183610,-0.917,0.226,0.316,-9.695,4.025,10.272,
52183620,-0.904,0.236,0.294,-11.287,4.077,11.392,
52183630,-0.907,0.233,0.29,-11.077,6.632,12.04,
52183640,-0.952,0.232,0.28,-9.852,9.187,12.197,
52183650,-0.993,0.234,0.274,-7.927,6.51,10.552,
52183660,-0.965,0.23,0.27,-5.267,1.767,8.085,
52183670,-0.938,0.227,0.275,-3.29,0.175,6.825,
52183680,-0.952,0.228,0.268,-3.185,1.225,6.842,
52183690,-0.983,0.232,0.256,-3.342,2.03,6.842,
52183700,-1.015,0.235,0.239,-3.325,0.385,5.687,
52183710,-1.004,0.228,0.225,-2.642,-3.237,3.15,
52183720,-0.968,0.224,0.222,-0.77,-6.825,0.717,
52183730,-0.945,0.217,0.227,0.7,-9.467,0.035,
52183740,-0.952,0.217,0.234,1.802,-11.725,0.472,
52183750,-0.949,0.22,0.251,3.22,-14.192,0.787,
52183760,-0.928,0.224,0.293,3.78,-14.7,1.05,
52183770,-0.948,0.237,0.311,3.342,-13.457,1.697,
52183780,-0.976,0.268,0.283,1.907,-13.422,1.137,
52183790,-0.949,0.333,0.274,1.225,-20.86,-2.817,
52183800,-0.795,0.282,0.365,-0.77,-16.747,-5.022,
52183810,-0.952,0.239,0.33,-0.892,-2.817,-3.377,
52183820,-0.974,0.253,0.369,0.42,-2.642,-3.972,
52183830,-0.902,0.245,0.335,0.192,-5.792,-4.725,
52183830,-0.867,0.233,0.337,-0.612,-3.202,-4.042,
52183850,-0.897,0.223,0.327,-0.875,1.785,-1.715,
52183850,-0.925,0.229,0.307,-1.925,3.325,0.805,
52183870,-0.923,0.245,0.282,-2.415,3.185,2.1,
52183870,-0.934,0.252,0.275,-2.8,4.077,2.467,
52183890,-0.955,0.252,0.287,-3.01,4.147,1.452,
52183890,-0.973,0.25,0.296,-2.625,3.762,-0.192,
52183910,-0.953,0.247,0.312,-2.555,2.87,-2.38,
52183910,-0.875,0.224,0.367,-3.272,5.075,-3.272,
52183920,-0.882,0.193,0.347,-5.88,14.245,-0.017,
52183930,-0.991,0.189,0.314,-9.59,15.732,3.395,
52183940,-0.942,0.183,0.28,-11.305,8.417,4.2,
52183950,-0.865,0.199,0.285,-7.315,8.05,6.51,
52183960,-0.95,0.237,0.264,-6.965,10.465,9.852,
52183970,-1.008,0.232,0.216,-9.677,7.035,9.117,
52183980,-0.989,0.222,0.198,-5.687,0.14,6.23,
52183990,-0.948,0.242,0.228,0.122,-5.057,4.637,
52184000,-0.946,0.249,0.254,2.135,-5.32,3.71,
52184010,-0.986,0.23,0.262,1.61,-5.495,1.715,
52184020,-0.984,0.206,0.258,1.697,-9.17,-0.297,
52184030,-0.942,0.205,0.276,4.48,-12.705,-0.385,
52184040,-0.926,0.228,0.277,6.195,-12.687,0.822,
52184050,-1.017,0.279,0.188,6.335,-15.032,0.56,
52184060,-0.922,0.314,0.271,7.07,-24.43,-4.375,
52184070,-0.839,0.283,0.296,6.65,-18.392,-6.72,
52184080,-0.984,0.254,0.317,4.865,-6.982,-5.827,
52184090,-1.019,0.238,0.334,4.042,-6.79,-8.102,
52184100,-0.927,0.227,0.345,5.215,-9.292,-9.957,
52184110,-0.901,0.224,0.352,4.305,-6.912,-9.24,
52184120,-0.903,0.214,0.339,2.17,-2.52,-7.455,
52184130,-0.914,0.217,0.314,0.805,-0.857,-5.022,
52184140,-0.904,0.235,0.299,0.105,-0.857,-2.887,
52184150,-0.891,0.247,0.288,-0.525,0.21,-1.382,
52184160,-0.91,0.249,0.3,-1.225,3.202,-0.542,
52184170,-0.957,0.241,0.302,-1.767,4.48,-0.542,
52184180,-0.978,0.23,0.304,-2.222,2.66,-1.662,
52184190,-0.958,0.225,0.307,-1.907,-0.07,-3.307,
52184200,-0.885,0.2,0.367,-2.8,1.05,-3.272,
52184210,-0.944,0.165,0.287,-5.985,8.242,-0.227,
52184220,-0.996,0.17,0.258,-7.017,4.497,1.697,
52184230,-0.895,0.194,0.242,-3.815,-1.102,3.045,
52184240,-0.907,0.224,0.258,-1.155,-0.735,5.95,
52184250,-0.971,0.24,0.235,-3.29,-1.75,6.562,
52184260,-0.963,0.235,0.264,-3.15,-5.652,4.935,
52184260,-0.939,0.249,0.304,-1.365,-7.42,3.535,
52184280,-0.957,0.252,0.303,-1.417,-7.035,2.415,
52184280,-0.939,0.24,0.308,-1.452,-7.752,0.507,
52184300,-0.921,0.229,0.315,-0.77,-7.017,-0.07,
52184300,-0.94,0.22,0.286,-0.542,-5.967,0.665,
52184320,-0.931,0.221,0.27,1.015,-5.705,1.33,
52184320,-0.95,0.222,0.255,2.572,-5.915,2.065,
52184330,-0.969,0.217,0.255,3.132,-6.02,1.767,
52184340,-0.99,0.214,0.27,3.395,-6.632,0.49,
52184350,-0.996,0.211,0.278,3.307,-7.682,-1.33,
52184360,-0.971,0.214,0.273,3.272,-8.697,-2.59,
52184370,-0.94,0.222,0.286,4.025,-7.77,-2.66,
52184380,-0.933,0.236,0.294,3.902,-6.597,-2.205,
52184390,-0.937,0.241,0.328,3.377,-6.772,-2.082,
52184400,-0.975,0.231,0.345,2.047,-9.922,-3.325,
52184410,-0.84,0.244,0.344,3.465,-9.152,-3.99,
52184420,-0.854,0.268,0.343,2.922,-3.902,-0.997,
52184430,-0.926,0.256,0.322,-3.5,-1.365,0.752,
52184440,-0.909,0.238,0.347,-3.552,-1.575,0.122,
52184450,-0.877,0.244,0.371,-2.747,-1.19,0.682,
52184460,-0.875,0.236,0.356,-5.39,1.05,2.38,
52184470,-0.887,0.218,0.33,-6.912,3.027,4.637,
52184480,-0.87,0.195,0.345,-6.72,6.632,7.875,
52184490,-0.959,0.193,0.275,-6.44,12.442,11.847,
52184500,-1.038,0.221,0.238,-6.387,8.33,12.145,
52184510,-0.998,0.238,0.211,-4.917,1.505,9.24,
52184520,-0.99,0.246,0.212,-2.345,-1.05,5.985,
52184530,-1.016,0.243,0.223,-2.17,-3.325,2.17,
52184540,-0.989,0.225,0.245,-1.627,-7.332,-1.662,
52184550,-0.932,0.214,0.276,-0.122,-9.415,-3.325,
52184560,-0.923,0.219,0.301,-0.157,-7.962,-2.292,
52184570,-0.95,0.223,0.311,-1.627,-5.897,-0.945,
52184580,-0.965,0.224,0.301,-2.082,-5.67,-1.172,
52184580,-0.927,0.232,0.306,-1.68,-6.737,-1.82,
52184600,-0.924,0.236,0.312,-2.432,-7.105,-1.505,
52184600,-0.919,0.229,0.319,-2.957,-7.017,-1.277,
52184620,-0.907,0.231,0.332,-2.117,-6.107,-0.507,
52184620,-0.924,0.236,0.32,-1.785,-5.547,0.35,
52184640,-0.917,0.248,0.313,-0.927,-4.865,0.577,
52184640,-0.925,0.257,0.311,-0.595,-3.745,0.385,
52184660,-0.948,0.251,0.295,-1.575,-2.502,-0.42,
52184660,-0.949,0.237,0.259,-0.472,-2.625,-1.977,
52184670,-0.928,0.232,0.251,1.662,-3.377,-2.485,
52184680,-0.922,0.227,0.261,3.517,-2.94,-2.275,
52184690,-0.939,0.215,0.267,4.27,-2.24,-1.785,
52184700,-0.939,0.21,0.285,5.302,-2.52,-1.242,
52184710,-0.943,0.213,0.3,5.6,-3.097,-0.367,
52184720,-1.004,0.213,0.29,4.602,-5.635,-0.262,
52184730,-0.959,0.217,0.334,5.337,-14.07,-2.922,
52184740,-0.813,0.244,0.361,7.245,-11.235,-2.572,
52184750,-0.96,0.239,0.339,1.977,-3.955,0.997,
52184760,-0.99,0.211,0.306,-2.38,-2.852,0.122,
52184770,-0.94,0.216,0.308,1.592,-4.9,-0.595,
52184780,-0.918,0.248,0.302,1.61,-4.585,-0.262,
52184790,-0.937,0.245,0.299,-0.42,-3.22,-0.7,
52184800,-0.951,0.227,0.297,-2.047,-3.22,-1.662,
52184810,-0.942,0.216,0.308,-1.977,-4.48,-2.03,
52184820,-0.934,0.22,0.326,-2.205,-5.985,-1.575,
52184830,-0.928,0.221,0.349,-4.725,-7.752,-1.295,
52184840,-0.921,0.203,0.355,-8.015,-8.592,-0.752,
52184850,-0.931,0.184,0.3,-10.01,-8.872,1.015,
52184860,-0.927,0.19,0.267,-7.402,-7.437,3.43,
52184870,-0.947,0.229,0.271,-2.485,-6.107,5.11,
52184880,-0.899,0.284,0.263,-0.28,-3.15,5.057,
52184890,-1.003,0.29,0.257,-1.89,1.382,3.36,
52184900,-1.049,0.216,0.273,-5.337,-3.395,-3.71,
52184910,-0.861,0.192,0.312,2.8,-8.12,-7.857,
52184920,-0.825,0.226,0.344,6.877,-5.81,-3.29,
52184930,-0.88,0.235,0.309,3.01,-0.21,1.172,
52184940,-0.945,0.216,0.302,2.45,3.167,3.167,
52184950,-0.97,0.224,0.304,4.427,3.622,3.307,
52184960,-0.969,0.246,0.31,5.495,2.712,1.89,
52184970,-0.954,0.239,0.307,3.517,1.207,-0.525,
52184980,-0.933,0.217,0.305,2.03,0.122,-1.942,
52184990,-0.925,0.209,0.316,2.135,-1.33,-1.277,
52185000,-0.921,0.218,0.329,2.03,-2.345,0.315,
52185000,-0.92,0.226,0.326,0.682,-3.482,1.487,
52185010,-0.919,0.23,0.326,-0.577,-3.255,2.24,
52185020,-0.941,0.234,0.317,-1.19,-2.975,2.695,
52185030,-0.957,0.234,0.3,-1.645,-3.447,2.187,
52185040,-0.948,0.23,0.286,-0.962,-4.672,1.155,
52185050,-0.978,0.222,0.296,-0.052,-6.597,0.105,
52185060,-0.975,0.2,0.307,1.505,-13.212,-2.362,
52185070,-0.801,0.234,0.318,6.702,-13.16,-2.222,
52185080,-0.879,0.254,0.311,5.005,-5.897,2.87,
52185090,-0.983,0.232,0.273,-1.277,-1.767,4.287,
52185100,-0.99,0.212,0.286,1.54,-4.007,2.38,
52185110,-0.924,0.24,0.319,4.182,-6.492,1.015,
52185120,-0.916,0.247,0.319,2.362,-4.952,0.577,
52185130,-0.946,0.218,0.301,-0.717,-4.077,0.122,
52185140,-0.942,0.201,0.311,0,-5.897,0.192,
52185150,-0.904,0.228,0.34,2.012,-7.402,1.33,
52185160,-0.878,0.247,0.348,-0.367,-3.622,2.957,
52185170,-0.947,0.228,0.319,-5.582,0.857,3.832,
52185180,-0.95,0.204,0.297,-7,1.715,3.675,
52185190,-0.932,0.21,0.297,-3.552,1.47,4.515,
52185200,-0.941,0.227,0.275,-1.907,1.347,5.565,
52185210,-0.965,0.227,0.249,-1.015,-0.507,5.022,
52185220,-0.955,0.241,0.251,1.837,-3.307,4.007,
52185230,-0.939,0.268,0.289,4.252,-3.937,2.485,
52185240,-0.951,0.258,0.323,2.817,-2.082,0.122,
52185250,-0.948,0.233,0.347,0.665,-1.12,-2.205,
52185260,-0.924,0.22,0.358,-0.7,-1.067,-2.747,
52185270,-0.92,0.214,0.354,-2.082,-0.42,-1.487,
52185280,-0.917,0.218,0.347,-2.52,1.172,0.052,
52185290,-0.91,0.222,0.332,-3.185,1.575,1.54,
52185300,-0.912,0.228,0.285,-4.042,1.907,3.15,
52185310,-0.931,0.231,0.259,-3.57,1.855,4.322,
52185320,-0.955,0.239,0.258,-2.607,1.697,4.34,
52185330,-0.977,0.248,0.262,-1.715,0.63,2.747,
52185330,-0.978,0.249,0.258,-1.487,-1.365,0,
52185350,-0.958,0.244,0.269,-0.612,-3.377,-2.555,
52185350,-0.951,0.241,0.278,-0.507,-4.41,-4.165,
52185370,-0.925,0.239,0.313,-0.857,-4.34,-5.18,
52185370,-0.917,0.224,0.348,-2.397,-3.115,-5.197,
52185390,-0.912,0.203,0.364,-4.41,-1.697,-4.13,
52185390,-0.928,0.188,0.361,-5.6,-0.875,-2.222,
52185410,-0.936,0.183,0.347,-5.25,-1.645,0.017,
52185410,-0.909,0.206,0.331,-2.87,-2.485,2.135,
52185420,-0.911,0.238,0.311,-1.942,-2.38,4.06,
52185430,-0.933,0.251,0.295,-2.712,-1.96,4.322,
52185440,-0.936,0.253,0.294,-2.047,-1.155,3.272,
52185450,-0.947,0.252,0.283,-1.557,0.262,1.785,
52185460,-0.95,0.245,0.278,-1.05,1.067,-0.122,
52185470,-0.943,0.242,0.291,-0.332,0.997,-1.767,
52185480,-0.928,0.232,0.294,-0.822,0.507,-2.87,
52185490,-0.935,0.202,0.315,-1.47,-0.822,-3.167,
52185500,-0.915,0.176,0.32,0.122,-2.31,-1.872,
52185510,-0.897,0.194,0.342,3.99,-3.5,1.925,
52185520,-0.896,0.231,0.356,4.655,-2.415,5.845,
52185530,-0.955,0.234,0.365,1.47,-0.77,7.052,
52185540,-0.991,0.202,0.315,-0.735,-1.662,5.477,
52185550,-0.933,0.22,0.298,2.607,-1.19,4.865,
52185560,-0.989,0.248,0.277,1.872,-1.19,5.407,
52185570,-0.974,0.253,0.231,-1.452,-3.43,2.87,
52185580,-0.925,0.25,0.221,-1.347,-3.745,0.35,
52185590,-0.963,0.231,0.246,-3.307,-4.62,-0.77,
52185600,-0.963,0.197,0.312,-2.415,-6.037,-2.047,
52185610,-0.925,0.192,0.362,0.385,-7.157,-2.24,
52185620,-0.901,0.194,0.354,-0.595,-7.56,-0.017,
52185630,-0.898,0.195,0.315,-1.225,-6.842,3.132,
52185640,-0.9,0.216,0.268,0.017,-5.127,6.37,
52185650,-0.895,0.265,0.211,1.155,-2.555,8.47,
52185660,-0.956,0.31,0.172,-0.752,0.332,8.522,
52185670,-1.055,0.298,0.185,-4.55,-1.522,4.025,
52185670,-1.053,0.236,0.251,-3.115,-6.107,-4.217,
52185690,-0.972,0.256,0.3,2.642,-9.502,-10.29,
52185690,-0.949,0.257,0.316,0.157,-11.777,-13.335,
52185710,-0.918,0.205,0.336,-3.062,-11.392,-15.05,
52185710,-0.928,0.169,0.369,-0.77,-9.782,-13.002,
52185730,-0.922,0.183,0.389,1.155,-9.8,-9.415,
52185730,-0.877,0.206,0.371,0.945,-8.505,-6.195,
52185750,-0.841,0.217,0.319,-0.962,-4.007,-2.817,
52185750,-0.775,0.204,0.277,-1.75,4.462,1.75,
52185760,-0.728,0.186,0.258,1.645,17.342,10.377,
52185770,-0.767,0.197,0.303,6.772,30.765,22.067,
52185780,-0.885,0.227,0.359,8.155,39.655,30.117,
52185790,-0.994,0.238,0.388,6.632,43.155,30.765,
52185800,-1.09,0.225,0.393,5.302,37.87,25.497,
52185810,-0.996,0.193,0.396,5.967,29.592,20.545,
52185820,-0.889,0.201,0.368,9.87,28.087,21.577,
52185830,-0.858,0.208,0.297,10.447,33.53,26.53,
52185840,-0.806,0.186,0.264,11.462,47.18,34.125,
52185850,-0.933,0.193,0.244,17.972,64.61,44.712,
52185860,-1.112,0.236,0.246,24.92,71.417,50.05,
52185870,-1.154,0.273,0.25,28.035,64.032,47.32,
52185880,-1.11,0.27,0.246,29.82,50.802,40.67,
52185890,-1.054,0.257,0.218,31.92,37.905,33.897,
52185900,-0.997,0.246,0.199,35.752,28.14,30.52,
52185910,-0.939,0.235,0.163,39.865,23.765,28.7,
52185920,-0.856,0.297,0.162,47.005,27.947,23.52,
52185930,-0.883,0.347,0.183,49.91,36.645,25.812,
52185940,-0.93,0.379,0.163,40.477,42.997,28.122,
52185950,-1.02,0.372,0.14,32.76,45.202,30.03,
52185960,-1.056,0.398,0.102,27.51,39.567,26.442,
52185970,-1,0.398,0.081,22.96,32.952,17.097,
52185980,-0.974,0.369,0.051,19.967,29.032,10.78,
52185990,-0.978,0.374,0.049,19.95,24.622,5.652,
52186000,-0.962,0.411,0.062,16.24,18.637,0.595,
52186010,-0.946,0.423,0.059,6.492,13.09,-3.062,
52186020,-0.921,0.406,0.049,-5.005,8.855,-6.65,
52186030,-0.903,0.402,0.041,-11.83,7.437,-10.64,
52186040,-0.903,0.398,0.05,-17.955,7.14,-12.495,
52186050,-0.92,0.402,0.055,-24.692,6.02,-14.21,
52186060,-0.921,0.396,0.051,-31.36,4.305,-17.377,
52186070,-0.916,0.371,0.058,-36.295,0.997,-20.195,
52186080,-0.897,0.361,0.064,-39.987,-2.695,-21.63,
52186080,-0.892,0.352,0.088,-41.16,-5.407,-21.77,
52186100,-0.926,0.343,0.132,-42.07,-9.38,-22.662,
52186100,-0.918,0.351,0.151,-44.782,-16.345,-25.917,
52186120,-0.863,0.321,0.146,-46.147,-19.985,-28.017,
52186120,-0.824,0.287,0.181,-50.4,-17.85,-25.2,
52186140,-0.921,0.264,0.21,-53.34,-15.575,-20.877,
52186140,-0.99,0.267,0.22,-54.67,-20.055,-20.387,
52186160,-0.967,0.267,0.245,-55.055,-27.527,-21.63,
52186160,-0.95,0.244,0.241,-52.29,-32.287,-21.665,
52186170,-0.923,0.202,0.218,-47.547,-34.282,-18.882,
52186180,-0.873,0.157,0.197,-39.672,-30.257,-10.937,
52186190,-0.838,0.153,0.201,-28.262,-18.095,1.452,
52186200,-0.898,0.18,0.22,-18.165,-1.067,15.382,
52186210,-1.013,0.218,0.204,-11.952,12.95,24.885,
52186220,-1.074,0.247,0.195,-8.277,18.777,26.845,
52186230,-1.076,0.264,0.158,-5.862,18.287,23.905,
52186240,-1.071,0.269,0.12,-4.375,13.37,19.407,
52186250,-1.055,0.279,0.088,-2.59,5.337,14.647,
52186260,-1.038,0.295,0.076,-0.087,-3.325,9.677,
52186270,-1.021,0.316,0.066,1.505,-11.305,4.497,
52186280,-1.017,0.334,0.057,2.712,-17.237,-0.717,
52186290,-0.999,0.342,0.056,5.005,-20.72,-6.125,
52186300,-1.001,0.33,0.054,7.752,-21.787,-10.29,
52186310,-1.011,0.3,0.072,12.967,-22.557,-14.385,
52186320,-1.026,0.266,0.122,20.58,-24.062,-17.92,
52186330,-1.024,0.263,0.159,24.412,-28.017,-21.315,
52186340,-0.986,0.255,0.154,24.535,-31.57,-23.187,
52186350,-0.995,0.225,0.16,27.597,-32.532,-23.625,
52186360,-1.006,0.202,0.149,30.922,-34.37,-22.68,
52186370,-0.975,0.185,0.131,36.015,-35.717,-20.65,
52186380,-0.94,0.158,0.166,42.227,-33.425,-17.797,
52186390,-0.934,0.121,0.189,43.032,-28.647,-13.72,
52186400,-0.945,0.074,0.173,39.34,-20.44,-10.132,
52186410,-0.92,0.03,0.109,40.057,-11.112,-7.385,
52186420,-0.891,0.026,0.11,48.387,-2.8,-2.345,
52186420,-0.924,0.103,0.103,50.61,6.16,3.552,
52186440,-0.977,0.165,0.088,52.412,12.582,3.972,
52186440,-0.977,0.244,0.135,53.742,14.14,1.347,
52186460,-0.963,0.25,0.105,46.48,10.5,-1.61,
52186460,-0.996,0.188,0.072,48.387,4.952,-1.4,
52186480,-0.976,0.212,0.096,54.74,-3.937,-3.465,
52186480,-0.984,0.221,0.135,60.515,-12.267,-8.732,
52186500,-0.93,0.299,0.244,61.915,-15.872,-17.937,
52186500,-0.876,0.261,0.287,55.37,-18.287,-18.235,
52186510,-0.872,0.287,0.302,51.572,-16.887,-15.557,
52186520,-0.911,0.366,0.332,42.14,-11.2,-12.67,
52186530,-0.958,0.415,0.286,25.392,-5.25,-13.527,
52186540,-0.93,0.403,0.227,13.667,1.592,-18.585,
52186550,-0.915,0.404,0.165,7.91,4.952,-18.34,
52186560,-1.087,0.365,0.143,19.512,5.74,-8.435,
52186570,-1.022,0.385,0.132,28.7,0.682,-11.462,
52186580,-0.83,0.379,0.142,32.217,1.522,-10.902,
52186590,-0.873,0.416,0.212,40.372,7.875,-5.372,
52186600,-0.911,0.454,0.224,36.19,9.992,-8.225,
52186610,-0.916,0.378,0.213,31.587,5.145,-8.015,
52186620,-0.909,0.366,0.24,33.74,-0.647,-7.84,
52186630,-0.903,0.457,0.347,32.305,-2.992,-9.432,
52186640,-0.968,0.432,0.325,15.872,-2.94,-6.002,
52186650,-0.995,0.347,0.247,7.7,-0.297,-6.23,
52186660,-0.968,0.252,0.205,2.432,1.75,-1.645,
52186670,-0.927,0.223,0.189,1.137,6.842,1.505,
52186680,-0.994,0.217,0.119,1.872,10.605,4.13,
52186690,-0.916,0.192,0.073,5.425,11.235,3.622,
52186700,-0.955,0.205,-0.02,10.99,18.322,6.09,
52186710,-1.018,0.264,0.03,18.917,21.332,5.46,
52186720,-1.073,0.275,-0.007,26.635,20.23,3.552,
52186730,-1.029,0.277,0.026,35.612,14.367,-1.54,
52186740,-0.961,0.304,0.109,41.37,7.245,-4.865,
52186750,-1.006,0.312,0.123,38.64,1.452,-8.627,
52186760,-1.015,0.283,0.082,38.815,-4.585,-17.29,
52186770,-1.022,0.276,0.087,36.82,-14.84,-19.25,
52186780,-1.069,0.263,-0.017,25.69,-34.825,-12.547,
52186790,-1.075,0.249,-0.011,30.187,-53.217,-12.32,
52186800,-1.011,0.298,0.066,41.282,-61.005,-11.427,
52186810,-0.896,0.364,0.169,43.032,-59.5,-12.547,
52186820,-0.815,0.357,0.268,35.437,-48.982,-12.652,
52186830,-0.792,0.324,0.325,21.7,-31.115,-12.95,
52186830,-0.906,0.265,0.308,8.487,-16.537,-12.477,
52186850,-0.983,0.19,0.304,1.522,-15.365,-12.477,
52186850,-0.932,0.164,0.285,1.015,-19.897,-10.64,
52186870,-0.865,0.194,0.273,1.4,-18.987,-5.565,
52186870,-0.942,0.235,0.239,-0.192,-8.015,0.507,
52186890,-1.039,0.243,0.188,-1.295,-2.24,2.782,
52186890,-0.976,0.231,0.167,0,-2.152,2.52,
52186910,-0.97,0.242,0.146,0.49,-0.63,3.36,
52186910,-1.009,0.241,0.127,-2.66,-0.77,1.26,
