#Format version: 1.0
time[ms],accX[g],accY[g],accZ[g],Value 1,Value 2,Value 3,
47741730,-0.563,0.377,0.717,-31.552,13.562,11.672,
47741740,-0.422,0.411,0.766,-28.525,27.842,7.227,
47741750,-0.531,0.427,0.731,-32.795,55.492,9.642,
47741760,-0.498,0.417,0.709,-40.512,69.335,13.422,
47741770,-0.557,0.328,0.688,-47.162,77,17.797,
47741780,-0.605,0.413,0.721,-43.925,82.022,17.78,
47741790,-0.762,0.358,0.685,-42.997,77.595,17.885,
47741800,-0.785,0.355,0.613,-36.82,64.522,9.292,
47741810,-0.808,0.407,0.562,-26.6,47.442,3.937,
47741820,-0.803,0.436,0.518,-21.315,27.317,-1.82,
47741830,-0.839,0.436,0.483,-17.062,10.132,-7.542,
47741840,-0.838,0.417,0.51,-10.78,-0.717,-14.157,
47741850,-0.799,0.441,0.546,-5.46,-10.587,-14.752,
47741860,-0.793,0.526,0.598,-9.152,-23.52,-11.987,
47741870,-0.69,0.385,0.629,-20.317,-38.692,-7.612,
47741880,-0.654,0.308,0.624,-19.705,-41.702,0.14,
47741890,-0.586,0.29,0.64,-14.315,-42.507,5.635,
47741900,-0.659,0.282,0.63,-10.92,-45.447,9.485,
47741910,-0.629,0.286,0.659,-6.737,-47.407,11.585,
47741920,-0.646,0.306,0.681,-7.892,-40.95,15.155,
47741930,-0.644,0.262,0.694,-11.9,-28.577,14.437,
47741940,-0.623,0.238,0.7,-11.672,-11.06,10.272,
47741950,-0.678,0.251,0.657,-8.137,1.785,4.48,
47741960,-0.682,0.244,0.603,-3.885,5.792,2.52,
47741970,-0.691,0.276,0.571,2.1,5.11,4.375,
47741980,-0.734,0.317,0.571,6.58,1.68,6.16,
47741990,-0.725,0.3,0.662,9.03,-5.005,8.452,
47742000,-0.65,0.254,0.685,16.87,-8.505,10.657,
47742010,-0.533,0.383,0.693,23.765,-7.682,11.305,
47742010,-0.573,0.337,0.682,20.317,-2.905,9.135,
47742030,-0.62,0.403,0.684,22.382,1.33,9.835,
47742030,-0.66,0.405,0.649,20.335,1.4,9.905,
47742050,-0.701,0.397,0.64,18.97,-0.455,10.955,
47742050,-0.727,0.42,0.659,18.672,-4.445,10.99,
47742070,-0.696,0.408,0.637,16.45,-8.47,9.59,
47742070,-0.676,0.433,0.617,14.297,-13.107,10.447,
47742080,-0.663,0.436,0.625,9.677,-16.677,9.66,
47742090,-0.644,0.417,0.695,4.392,-19.337,7.315,
47742100,-0.611,0.422,0.714,1.242,-16.992,7.21,
47742110,-0.557,0.428,0.73,-6.055,-13.037,7.052,
47742120,-0.593,0.432,0.77,-14.717,-9.467,10.465,
47742130,-0.599,0.49,0.683,-25.34,-8.452,13.825,
47742140,-0.598,0.515,0.566,-38.22,-7.14,10.815,
47742150,-0.762,0.451,0.603,-46.952,-11.025,6.02,
47742160,-0.795,0.418,0.669,-46.445,-19.04,3.972,
47742170,-0.689,0.418,0.702,-44.66,-22.365,5.46,
47742180,-0.557,0.313,0.702,-41.825,-17.972,9.187,
47742190,-0.477,0.233,0.72,-32.55,-9.432,9.415,
47742200,-0.444,0.205,0.747,-18.9,2.082,7.822,
47742210,-0.47,0.235,0.72,-5.267,14.087,7.56,
47742220,-0.505,0.273,0.667,5.6,25.445,3.307,
47742230,-0.595,0.325,0.648,12.705,34.09,0.7,
47742240,-0.731,0.384,0.723,14.192,38.115,1.82,
47742250,-0.822,0.301,0.701,14.315,34.58,4.305,
47742260,-0.639,0.28,0.623,26.53,27.405,3.955,
47742270,-0.641,0.283,0.597,41.107,20.475,0.175,
47742280,-0.604,0.419,0.627,51.887,15.505,-0.962,
47742290,-0.68,0.45,0.668,47.11,16.782,1.19,
47742300,-0.691,0.463,0.627,35.752,15.277,4.812,
47742310,-0.705,0.443,0.596,26.565,11.322,5.74,
47742320,-0.674,0.46,0.607,22.942,8.487,4.27,
47742330,-0.668,0.465,0.635,18.76,5.53,2.782,
47742340,-0.638,0.458,0.641,13.947,2.73,1.925,
47742350,-0.635,0.449,0.654,8.68,3.255,0.997,
47742360,-0.631,0.435,0.662,4.497,5.215,0.577,
47742370,-0.601,0.43,0.669,1.435,6.86,1.365,
47742380,-0.609,0.414,0.669,-2.38,10.447,2.17,
47742390,-0.619,0.411,0.679,-5.057,15.505,2.17,
47742390,-0.628,0.405,0.671,-7.157,19.53,0.98,
47742410,-0.618,0.382,0.648,-8.47,22.277,-0.385,
47742410,-0.655,0.376,0.622,-7,24.307,-1.75,
47742420,-0.694,0.475,0.53,-5.442,25.935,-3.762,
47742430,-0.863,0.521,0.539,-15.68,19.565,-5.897,
47742440,-0.919,0.441,0.558,-25.182,-0.262,-13.037,
47742450,-0.75,0.421,0.651,-23.835,-13.562,-10.867,
47742460,-0.701,0.396,0.669,-26.162,-15.942,-4.882,
47742470,-0.549,0.308,0.657,-25.847,-14.682,-2.8,
47742480,-0.569,0.248,0.645,-20.93,-4.375,-3.115,
47742490,-0.618,0.296,0.628,-10.955,5.127,-1.295,
47742500,-0.679,0.351,0.595,-5.757,9.835,-0.122,
47742510,-0.762,0.396,0.571,-4.952,9.467,2.467,
47742520,-0.737,0.414,0.657,-7.105,5.722,6.16,
47742530,-0.641,0.352,0.721,-6.02,7.612,6.02,
47742540,-0.489,0.419,0.767,-2.59,20.877,3.15,
47742550,-0.467,0.345,0.751,-5.81,39.655,0.577,
47742560,-0.498,0.375,0.706,-6.93,57.942,2.187,
47742570,-0.565,0.324,0.616,-10.902,67.287,5.092,
47742580,-0.684,0.344,0.542,-8.47,69.335,7.437,
47742590,-0.834,0.382,0.466,-3.867,62.737,8.907,
47742600,-0.908,0.406,0.413,-0.84,45.115,9.187,
47742610,-0.935,0.403,0.357,2.957,22.627,7.647,
47742620,-0.942,0.422,0.466,5.932,3.657,3.937,
47742630,-0.913,0.392,0.558,5.6,-11.602,2.572,
47742640,-0.767,0.34,0.56,6.86,-23.205,3.955,
47742650,-0.717,0.275,0.575,10.517,-28.805,3.622,
47742660,-0.925,0.272,0.559,13.195,-34.475,0,
47742670,-0.578,0.468,0.479,13.16,-64.557,-10.307,
47742680,-0.633,0.528,0.635,15.19,-62.842,-10.027,
47742690,-0.842,0.467,0.753,10.675,-39.532,-4.112,
47742700,-0.764,0.368,0.686,0.192,-33.705,-4.077,
47742710,-0.531,0.41,0.609,-0.21,-29.435,-4.725,
47742720,-0.559,0.423,0.587,-3.85,-17.272,-1.067,
47742730,-0.644,0.446,0.64,-8.12,-8.417,3.115,
47742740,-0.654,0.438,0.649,-11.777,-4.375,1.977,
47742750,-0.565,0.421,0.713,-13.807,1.085,1.645,
47742760,-0.586,0.361,0.729,-14.07,18.13,2.712,
47742760,-0.561,0.411,0.691,-12.547,36.365,6.177,
47742780,-0.663,0.396,0.68,-19.897,47.617,6.37,
47742780,-0.716,0.378,0.633,-24.22,52.325,4.97,
47742800,-0.695,0.415,0.606,-27.265,50.347,1.995,
47742800,-0.763,0.318,0.543,-28.63,49.28,0.227,
47742820,-0.8,0.33,0.481,-21.175,39.112,0.56,
47742820,-0.802,0.318,0.445,-15.785,22.4,1.592,
47742830,-0.795,0.294,0.442,-8.505,0.507,0.28,
47742840,-0.665,0.296,0.467,3.167,-9.065,1.54,
47742850,-0.844,0.32,0.524,10.885,-5.32,-0.595,
47742860,-0.824,0.351,0.544,18.007,-12.355,0.647,
47742870,-0.855,0.323,0.521,20.072,-19.25,0.332,
47742880,-1.008,0.255,0.441,23.065,-32.742,-4.427,
47742890,-0.685,0.494,0.433,30.292,-70.647,-15.312,
47742900,-0.745,0.522,0.684,22.697,-73.36,-7.717,
47742910,-0.805,0.454,0.754,3.832,-57.4,-4.27,
47742920,-0.647,0.318,0.698,-6.807,-42.997,-3.552,
47742930,-0.547,0.331,0.686,-5.215,-25.025,-8.907,
47742940,-0.527,0.418,0.681,-6.002,-14.385,-6.947,
47742950,-0.49,0.455,0.706,-13.685,-6.912,-2.712,
47742960,-0.491,0.434,0.728,-19.075,2.992,3.377,
47742970,-0.474,0.418,0.772,-22.977,26.25,6.422,
47742980,-0.591,0.414,0.739,-26.985,56.315,4.357,
47742990,-0.683,0.365,0.661,-30.485,64.015,3.535,
47743000,-0.77,0.348,0.53,-26.547,54.95,7.052,
47743010,-0.764,0.353,0.46,-18.13,37.222,7.56,
47743020,-0.813,0.37,0.467,-8.942,25.585,3.307,
47743030,-0.868,0.379,0.457,-2.17,9.957,0.07,
47743040,-0.829,0.319,0.465,1.802,-6.947,-2.065,
47743050,-0.842,0.254,0.487,9.205,-16.082,-2.817,
47743060,-0.837,0.25,0.515,18.935,-25.602,-0.542,
47743070,-0.849,0.255,0.52,27.335,-35.227,1.312,
47743080,-0.914,0.274,0.42,37.992,-60.112,-0.647,
47743080,-0.916,0.231,0.49,52.22,-95.672,-7.42,
47743100,-0.757,0.285,0.516,65.1,-121.87,-24.447,
47743100,-0.413,0.403,0.789,77.997,-112.175,-24.622,
47743120,-0.778,0.532,0.879,66.78,-70.192,-12.477,
47743120,-0.582,0.447,0.751,40.18,-56.122,-6.597,
47743140,-0.515,0.385,0.636,23.747,-40.425,-6.807,
47743140,-0.606,0.368,0.599,20.457,-19.932,-10.867,
47743160,-0.677,0.386,0.649,26.705,-15.225,-15.05,
47743160,-0.646,0.455,0.667,28.315,-15.837,-13.072,
47743170,-0.612,0.5,0.696,19.95,-13.317,-8.417,
47743180,-0.571,0.477,0.746,5.442,-6.65,-2.94,
47743190,-0.4,0.45,0.773,-7.35,8.032,4.725,
47743200,-0.355,0.427,0.766,-19.372,36.137,12.617,
47743210,-0.333,0.341,0.699,-29.137,59.57,14.052,
47743220,-0.46,0.328,0.626,-26.81,78.435,14.14,
47743230,-0.624,0.318,0.515,-17.237,74.672,13.825,
47743240,-0.743,0.423,0.466,0.63,62.79,15.47,
47743250,-0.945,0.491,0.42,12.582,44.31,12.827,
47743260,-1.058,0.558,0.438,17.237,18.252,6.65,
47743270,-1.081,0.529,0.513,12.775,-9.52,1.295,
47743280,-0.964,0.444,0.523,7.7,-32.025,-0.735,
47743290,-0.795,0.332,0.525,7.157,-49.227,-1.155,
47743300,-0.8,0.252,0.51,13.562,-62.055,-2.887,
47743310,-0.484,0.344,0.588,29.575,-92.015,-13.807,
47743320,-0.349,0.55,0.778,34.65,-69.895,-17.972,
47743330,-0.644,0.504,0.783,20.317,-38.955,-11.042,
47743340,-0.52,0.433,0.692,2.065,-24.36,-2.8,
47743350,-0.596,0.415,0.663,-3.185,-9.135,3.902,
47743360,-0.527,0.451,0.673,-7.752,-2.537,6.685,
47743370,-0.575,0.474,0.699,-14.035,3.587,9.835,
47743380,-0.568,0.464,0.68,-23.012,9.467,12.81,
47743390,-0.569,0.436,0.652,-28.052,15.855,13.982,
47743400,-0.528,0.463,0.666,-27.825,24.307,13.107,
47743410,-0.41,0.508,0.731,-31.57,46.357,18.025,
47743420,-0.654,0.479,0.71,-41.002,83.667,27.37,
47743430,-0.634,0.338,0.622,-47.582,87.237,23.432,
47743440,-0.662,0.272,0.529,-37.432,82.88,16.397,
47743450,-0.738,0.376,0.536,-21.997,76.825,8.925,
47743460,-0.927,0.356,0.473,-15.312,68.652,5.512,
47743470,-0.955,0.351,0.426,-6.895,45.185,1.382,
47743480,-0.945,0.351,0.408,5.25,18.9,-3.727,
47743490,-0.944,0.392,0.48,13.86,-1.872,-7.332,
47743500,-0.925,0.353,0.508,14.665,-19.81,-8.61,
47743510,-0.866,0.306,0.505,17.675,-34.44,-8.26,
47743510,-0.983,0.252,0.367,28.35,-61.565,-12.845,
47743530,-0.67,0.404,0.473,47.74,-102.865,-26.477,
47743530,-0.745,0.559,0.653,57.575,-105.087,-34.195,
47743550,-0.661,0.629,0.75,41.055,-97.615,-35.56,
47743550,-0.591,0.481,0.7,9.45,-76.79,-19.547,
47743570,-0.559,0.319,0.637,-7.84,-56.577,-5.057,
47743570,-0.424,0.338,0.686,-6.09,-41.51,0.157,
47743580,-0.413,0.402,0.762,-1.872,-17.92,-1.137,
47743590,-0.432,0.439,0.764,-3.342,2.8,-1.207,
47743600,-0.404,0.454,0.763,-11.077,22.19,-0.49,
47743610,-0.475,0.452,0.721,-21.507,39.602,7.962,
47743620,-0.45,0.47,0.744,-31.447,69.947,18.655,
47743630,-0.637,0.437,0.705,-36.732,106.015,18.952,
47743640,-0.656,0.371,0.629,-45.535,116.952,11.637,
47743650,-0.756,0.3,0.511,-43.12,109.252,12.565,
47743660,-0.777,0.345,0.452,-33.565,90.527,13.02,
47743670,-0.911,0.361,0.456,-23.94,70.262,10.36,
47743680,-0.972,0.35,0.381,-13.457,42.157,6.65,
47743690,-0.884,0.388,0.372,-0.14,13.702,2.275,
47743700,-0.973,0.373,0.437,9.397,-5.442,-1.33,
47743710,-0.919,0.359,0.511,12.95,-23.94,-1.452,
47743720,-0.824,0.322,0.531,12.495,-35.875,-1.067,
47743730,-0.728,0.276,0.521,15.995,-41.265,-3.482,
47743740,-0.918,0.286,0.411,24.867,-50.925,-6.702,
47743750,-0.653,0.423,0.49,39.585,-91.7,-16.415,
47743760,-0.766,0.567,0.739,46.62,-83.562,-18.935,
47743770,-0.8,0.521,0.667,34.44,-76.912,-20.282,
47743780,-0.635,0.378,0.598,21.21,-77.227,-17.027,
47743790,-0.525,0.432,0.666,17.237,-69.072,-12.985,
47743800,-0.601,0.418,0.706,6.457,-49.77,-4.06,
47743810,-0.431,0.406,0.701,0.297,-37.38,-1.557,
47743820,-0.454,0.406,0.727,-2.992,-14.735,1.872,
47743830,-0.477,0.409,0.705,-7.017,2.992,4.532,
47743830,-0.52,0.436,0.703,-10.937,17.99,6.335,
47743850,-0.614,0.427,0.672,-16.695,28.84,10.745,
47743850,-0.506,0.467,0.661,-20.3,38.675,14.297,
47743870,-0.58,0.544,0.707,-31.482,71.645,20.947,
47743870,-0.701,0.458,0.638,-46.357,92.995,25.13,
47743890,-0.687,0.342,0.562,-50.452,92.942,23.712,
47743890,-0.75,0.32,0.5,-39.375,84.857,17.762,
47743910,-0.833,0.344,0.477,-24.43,69.667,10.99,
47743910,-0.93,0.376,0.472,-13.212,49.21,4.725,
47743920,-0.922,0.379,0.443,-5.67,25.602,-2.205,
47743930,-0.886,0.336,0.436,1.732,6.772,-8.732,
47743940,-0.886,0.293,0.458,11.217,-6.16,-11.655,
47743950,-0.865,0.291,0.486,18.882,-19.285,-9.52,
47743960,-1.012,0.212,0.427,24.64,-39.707,-8.12,
47743970,-0.783,0.273,0.447,41.965,-82.985,-19.582,
47743980,-0.802,0.439,0.584,59.972,-97.615,-29.715,
47743990,-0.795,0.552,0.667,58.012,-104.107,-39.27,
47744000,-0.609,0.583,0.708,33.127,-98.42,-34.825,
47744010,-0.627,0.453,0.674,-2.432,-73.062,-13.72,
47744020,-0.582,0.313,0.655,-21.875,-54.005,4.095,
47744030,-0.391,0.396,0.722,-24.832,-39.165,12.197,
47744040,-0.38,0.395,0.751,-25.69,-17.815,15.435,
47744050,-0.331,0.403,0.759,-23.047,7.367,16.345,
47744060,-0.317,0.478,0.749,-25.655,38.92,19.407,
47744070,-0.576,0.508,0.762,-37.555,87.85,29.75,
47744080,-0.657,0.473,0.703,-46.375,108.167,36.067,
47744090,-0.637,0.51,0.663,-51.555,116.585,37.047,
47744100,-0.813,0.415,0.549,-56.437,117.355,32.777,
47744110,-0.894,0.254,0.408,-50.452,97.597,21.367,
47744120,-0.806,0.329,0.347,-25.707,60.13,6.107,
47744130,-0.863,0.466,0.46,-7.612,35.98,1.137,
47744140,-1.013,0.373,0.462,-5.32,13.09,-4.27,
47744150,-0.833,0.238,0.429,1.697,-11.637,-10.937,
47744160,-0.853,0.229,0.475,13.177,-10.727,-16.572,
47744170,-0.984,0.221,0.421,20.72,-17.955,-14.962,
47744180,-0.912,0.251,0.311,27.947,-55.807,-21.63,
47744190,-0.776,0.345,0.501,41.002,-86.852,-30.572,
47744200,-0.902,0.417,0.606,47.845,-90.51,-37.817,
47744210,-0.714,0.488,0.733,38.027,-97.965,-39.305,
47744220,-0.683,0.462,0.739,17.99,-82.792,-27.405,
47744230,-0.559,0.35,0.672,-0.805,-64.365,-11.55,
47744240,-0.477,0.309,0.673,-6.492,-47.687,-1.347,
47744250,-0.446,0.396,0.757,-4.847,-24.377,1.347,
47744260,-0.487,0.429,0.736,-7,-0.122,3.132,
47744260,-0.446,0.466,0.731,-14.665,19.722,5.232,
47744280,-0.598,0.481,0.715,-27.597,35.892,10.412,
47744280,-0.464,0.56,0.873,-40.635,61.39,17.815,
47744300,-0.709,0.571,0.916,-57.225,110.477,29.365,
47744300,-0.801,0.432,0.736,-78.172,127.207,22.295,
47744320,-0.782,0.243,0.524,-79.817,109.725,7.56,
47744320,-0.629,0.158,0.268,-61.95,82.897,0.857,
47744330,-0.777,0.32,0.258,-30.187,56.647,-5.477,
47744340,-0.953,0.405,0.324,-11.69,34.912,-11.182,
47744350,-1.024,0.286,0.416,-5.547,19.022,-22.33,
47744360,-1.057,0.25,0.497,2.135,9.835,-30.905,
47744370,-1.066,0.236,0.459,4.707,-7.91,-33.04,
47744380,-0.808,0.219,0.372,9.187,-47.46,-37.432,
47744390,-0.67,0.269,0.438,24.43,-63.875,-41.51,
47744400,-0.733,0.333,0.535,29.977,-61.915,-46.147,
47744410,-0.706,0.36,0.689,22.522,-58.502,-40.355,
47744420,-0.791,0.366,0.76,4.812,-40.25,-24.78,
47744430,-0.72,0.274,0.703,-7.385,-26.022,-13.685,
47744440,-0.632,0.272,0.665,-11.147,-14.752,-6.965,
47744450,-0.584,0.291,0.647,-13.825,-6.16,-4.217,
47744460,-0.604,0.275,0.613,-15.872,2.852,-0.262,
47744470,-0.643,0.311,0.594,-14.245,10.255,3.92,
47744480,-0.722,0.357,0.595,-13.737,16.397,6.597,
47744490,-0.706,0.348,0.645,-15.33,25.48,8.837,
47744500,-0.86,0.302,0.599,-16.607,39.025,10.447,
47744510,-0.761,0.255,0.509,-14.595,29.925,7.087,
47744520,-0.738,0.207,0.439,-4.147,21.227,2.8,
47744530,-0.818,0.27,0.426,12.232,15.925,-2.625,
47744540,-0.866,0.292,0.471,21.175,7.105,-7.962,
47744550,-0.908,0.227,0.509,25.235,-1.715,-10.64,
47744560,-0.979,0.17,0.508,34.16,-14.997,-15.382,
47744570,-0.705,0.277,0.541,49.647,-35.875,-26.215,
47744580,-0.839,0.361,0.573,52.552,-39.935,-30.852,
47744580,-0.673,0.387,0.653,40.757,-42.857,-26.127,
47744600,-0.84,0.411,0.717,18.69,-26.897,-8.82,
47744600,-0.801,0.332,0.666,-1.977,-18.462,-2.73,
47744620,-0.651,0.3,0.626,-7.472,-17.307,-1.75,
47744620,-0.65,0.373,0.639,-10.937,-10.675,-0.927,
47744640,-0.65,0.353,0.641,-18.602,-5.67,3.85,
47744640,-0.595,0.344,0.653,-24.465,0,10.605,
47744660,-0.543,0.334,0.74,-30.8,21.175,17.727,
47744660,-0.716,0.349,0.708,-38.587,50.435,21.98,
47744670,-0.722,0.307,0.622,-48.772,59.29,20.93,
47744680,-0.819,0.183,0.481,-48.947,61.11,17.027,
47744690,-0.825,0.233,0.416,-32.182,50.137,10.605,
47744700,-0.857,0.265,0.387,-16.502,34.282,4.9,
47744710,-0.867,0.282,0.4,-2.782,17.797,1.295,
47744720,-0.87,0.27,0.452,8.382,6.055,-3.307,
47744730,-0.903,0.236,0.502,15.452,-2.012,-6.457,
47744740,-0.898,0.219,0.52,19.092,-9.397,-6.195,
47744750,-0.94,0.162,0.433,23.66,-20.615,-7.28,
47744760,-0.802,0.159,0.338,37.712,-50.155,-12.25,
47744770,-0.725,0.195,0.356,58.852,-66.605,-16.765,
47744780,-0.704,0.286,0.51,74.515,-67.795,-17.29,
47744790,-0.822,0.432,0.71,70.367,-60.462,-3.587,
47744800,-0.886,0.468,0.77,42.997,-47.232,13.947,
47744810,-0.803,0.294,0.668,13.527,-42.017,20.352,
47744820,-0.564,0.245,0.597,9.205,-39.602,18.55,
47744830,-0.595,0.315,0.597,15.207,-30.1,20.702,
47744840,-0.648,0.393,0.635,16.695,-24.027,24.062,
47744850,-0.658,0.45,0.699,9.24,-20.842,28.297,
47744860,-0.592,0.464,0.775,-6.44,-10.482,37.607,
47744870,-0.607,0.443,0.76,-23.782,16.52,45.185,
47744880,-0.572,0.403,0.72,-36.225,40.215,43.417,
47744890,-0.613,0.347,0.668,-41.09,56.14,39.865,
47744900,-0.702,0.327,0.579,-37.625,61.04,36.89,
47744910,-0.77,0.299,0.506,-28.752,57.207,31.867,
47744920,-0.841,0.308,0.431,-15.627,44.467,25.655,
47744930,-0.8,0.312,0.369,-2.065,26.512,20.86,
47744940,-0.816,0.292,0.355,13.055,10.832,20.282,
47744950,-0.814,0.288,0.469,27.142,-3.132,22.277,
47744960,-0.843,0.268,0.556,36.855,-12.18,24.255,
47744970,-0.945,0.189,0.516,45.307,-25.672,25.147,
47744980,-0.798,0.327,0.579,62.912,-51.677,14.647,
47744990,-0.893,0.538,0.63,72.94,-52.657,0.245,
47745000,-0.776,0.53,0.604,64.575,-52.727,-14.105,
47745010,-0.742,0.543,0.576,47.162,-45.937,-9.222,
47745010,-0.744,0.499,0.54,23.992,-41.387,4.025,
47745030,-0.692,0.461,0.58,6.667,-39.34,12.845,
47745030,-0.637,0.449,0.635,-3.167,-32.777,14.525,
47745050,-0.504,0.412,0.649,-8.872,-23.94,12.442,
47745050,-0.506,0.435,0.652,-11.672,-9.432,12.092,
47745070,-0.553,0.454,0.649,-14.385,6.737,10.482,
47745070,-0.615,0.467,0.618,-16.362,19.425,9.065,
47745080,-0.584,0.539,0.658,-19.495,39.69,12.022,
47745090,-0.795,0.384,0.556,-30.59,56.91,15.242,
47745100,-0.723,0.277,0.486,-26.53,46.165,9.205,
47745110,-0.822,0.379,0.528,-11.55,35.21,7.455,
47745120,-0.841,0.403,0.527,-6.387,24.447,4.305,
47745130,-0.869,0.347,0.479,-2.117,14.105,-0.717,
47745140,-0.836,0.345,0.479,5.022,-0.122,-5.722,
47745150,-0.875,0.357,0.524,11.077,-10.71,-7.787,
47745160,-0.848,0.335,0.509,13.965,-20.37,-6.352,
47745170,-0.849,0.316,0.495,18.077,-30.38,-6.16,
47745180,-0.866,0.275,0.465,28.822,-50.872,-11.025,
47745190,-0.656,0.447,0.555,45.71,-68.617,-16.817,
47745200,-0.752,0.502,0.613,43.89,-57.802,-16.065,
47745210,-0.658,0.471,0.577,31.272,-53.112,-14.612,
47745220,-0.688,0.452,0.605,18.865,-41.492,-6.65,
47745230,-0.627,0.43,0.623,9.275,-34.247,0.805,
47745240,-0.588,0.422,0.627,4.182,-28.787,5.04,
47745250,-0.497,0.487,0.694,1.417,-21.507,5.95,
47745260,-0.532,0.49,0.697,-10.57,-10.727,12.302,
47745270,-0.491,0.418,0.65,-20.632,-0.7,18.217,
47745280,-0.357,0.521,0.735,-22.855,27.615,21.437,
47745290,-0.637,0.504,0.675,-38.097,73.85,28,
47745300,-0.637,0.317,0.548,-46.13,80.255,27.107,
47745310,-0.725,0.389,0.516,-34.107,75.005,28.07,
47745320,-0.853,0.44,0.506,-29.172,65.992,24.885,
47745330,-0.948,0.337,0.474,-27.457,49.105,16.17,
47745330,-0.894,0.352,0.452,-14.297,25.987,6.44,
47745350,-0.831,0.42,0.488,-1.89,8.575,-0.455,
47745350,-0.909,0.371,0.485,2.607,-0.14,-5.372,
47745370,-0.841,0.375,0.508,8.085,-10.797,-8.417,
47745370,-0.897,0.339,0.466,9.257,-22.207,-8.627,
47745390,-0.798,0.326,0.425,16.817,-50.942,-14.262,
47745390,-0.775,0.462,0.57,29.137,-65.222,-19.862,
47745410,-0.743,0.475,0.57,29.365,-71.75,-25.637,
47745410,-0.703,0.419,0.581,24.097,-72.117,-23.222,
47745420,-0.682,0.423,0.608,21.472,-69.125,-18.252,
47745430,-0.634,0.414,0.611,18.077,-64.522,-13.895,
47745440,-0.576,0.415,0.635,14.472,-56.245,-10.465,
47745450,-0.554,0.415,0.67,9.135,-41.212,-4.567,
47745460,-0.577,0.402,0.673,3.255,-23.012,1.487,
47745470,-0.535,0.411,0.654,0.612,-13.09,5.74,
47745480,-0.561,0.443,0.657,-1.417,-2.275,8.522,
47745490,-0.548,0.447,0.669,-5.11,7.595,9.94,
47745500,-0.563,0.422,0.699,-12.075,28.122,16.135,
47745510,-0.639,0.39,0.596,-16.695,47.145,24.482,
47745520,-0.661,0.388,0.546,-17.342,48.615,28.262,
47745530,-0.775,0.422,0.546,-15.697,43.557,28.735,
47745540,-0.809,0.444,0.543,-14.595,35.087,26.565,
47745550,-0.776,0.433,0.538,-15.295,23.537,23.222,
47745560,-0.796,0.418,0.548,-15.172,14.752,20.72,
47745570,-0.768,0.381,0.546,-13.475,1.47,15.277,
47745580,-0.685,0.432,0.583,-6.107,-6.317,8.295,
47745590,-0.68,0.446,0.597,-2.8,-4.742,3.167,
47745600,-0.678,0.418,0.586,-2.257,-1.837,0.507,
47745610,-0.679,0.416,0.591,-0.665,-0.63,-1.137,
47745620,-0.701,0.413,0.582,0.455,0.612,-3.167,
47745630,-0.718,0.415,0.573,2.502,0.595,-4.847,
47745640,-0.752,0.411,0.552,4.41,-0.455,-5.39,
47745650,-0.764,0.421,0.512,7.087,-10.395,-7.77,
47745660,-0.748,0.453,0.574,8.242,-19.285,-10.832,
47745670,-0.743,0.422,0.584,6.737,-22.33,-10.955,
47745680,-0.674,0.411,0.601,4.602,-22.627,-7.735,
47745690,-0.677,0.394,0.592,2.8,-20.72,-4.742,
47745700,-0.655,0.392,0.595,3.57,-19.18,-3.08,
47745710,-0.678,0.41,0.605,4.445,-16.87,-1.837,
47745720,-0.673,0.415,0.598,4.34,-15.172,-1.417,
47745730,-0.677,0.421,0.594,3.885,-13.055,-0.787,
47745740,-0.689,0.43,0.595,3.395,-11.357,-0.175,
47745750,-0.682,0.436,0.594,2.712,-9.835,0,
47745760,-0.68,0.43,0.599,1.592,-8.977,0.42,
47745760,-0.677,0.424,0.603,0.315,-8.12,1.102,
47745780,-0.668,0.415,0.599,-0.647,-7.42,1.155,
47745780,-0.663,0.408,0.592,-0.98,-5.757,1.19,
47745800,-0.672,0.417,0.595,-0.682,-4.235,0.962,
47745800,-0.691,0.426,0.596,-0.542,-3.342,0.472,
47745820,-0.698,0.436,0.594,-0.577,-3.99,-0.84,
47745820,-0.711,0.439,0.585,-1.33,-5.075,-3.01,
47745830,-0.73,0.437,0.58,-1.33,-8.242,-5.915,
47745840,-0.704,0.444,0.59,-0.787,-11.427,-8.75,
47745850,-0.686,0.439,0.589,-1.33,-13.247,-10.57,
47745860,-0.708,0.415,0.597,-2.047,-12.985,-11.952,
47745870,-0.735,0.387,0.581,-0.122,-15.19,-11.812,
47745880,-0.734,0.407,0.573,5.722,-20.93,-13.615,
47745890,-0.745,0.415,0.581,11.305,-28.245,-19.057,
47745900,-0.714,0.432,0.585,16.275,-32.515,-25.252,
47745910,-0.668,0.445,0.629,16.975,-33.495,-26.355,
47745920,-0.671,0.433,0.668,8.872,-26.32,-19.162,
47745930,-0.612,0.38,0.652,-0.052,-19.337,-11.112,
47745940,-0.557,0.364,0.655,-4.445,-12.11,-4.165,
47745950,-0.5,0.373,0.664,-5.722,-4.06,-0.595,
47745960,-0.455,0.362,0.669,-3.29,8.802,0.787,
47745970,-0.503,0.42,0.674,1.032,24.01,0.542,
47745980,-0.582,0.471,0.649,1.697,37.397,-2.275,
47745990,-0.692,0.506,0.617,-1.225,43.995,-8.102,
47746000,-0.788,0.498,0.588,-7,42.875,-14.665,
47746010,-0.805,0.495,0.579,-12.25,35.822,-16.205,
47746020,-0.847,0.501,0.582,-21.017,32.357,-16.17,
47746030,-0.832,0.416,0.558,-31.255,22.085,-17.762,
47746040,-0.753,0.363,0.55,-32.305,12.425,-19.057,
47746050,-0.766,0.391,0.574,-28.857,6.44,-18.515,
47746060,-0.748,0.429,0.571,-28.98,-0.122,-16.555,
47746070,-0.786,0.367,0.591,-30.73,-8.47,-13.212,
47746080,-0.732,0.354,0.63,-35,-14.507,-16.642,
47746080,-0.645,0.304,0.64,-33.092,-13.965,-17.325,
47746100,-0.584,0.319,0.641,-27.282,-7.822,-15.925,
47746100,-0.544,0.28,0.649,-23.275,2.17,-12.845,
47746120,-0.568,0.297,0.653,-18.917,15.172,-8.715,
47746120,-0.606,0.302,0.654,-18.9,25.865,-7.315,
47746140,-0.686,0.276,0.624,-19.932,33.635,-6.562,
47746140,-0.729,0.289,0.6,-18.515,35.787,-4.235,
47746160,-0.755,0.311,0.588,-17.622,34.912,-1.277,
47746160,-0.74,0.324,0.589,-18.357,32.76,2.03,
47746170,-0.709,0.324,0.592,-18.637,32.567,3.762,
47746180,-0.697,0.331,0.593,-16.747,37.205,2.432,
47746190,-0.71,0.345,0.598,-13.247,44.38,0.017,
47746200,-0.602,0.342,0.628,-12.285,54.565,-1.172,
47746210,-0.604,0.333,0.668,-15.067,80.342,-0.175,
47746220,-0.643,0.328,0.678,-20.667,103.372,-0.805,
47746230,-0.555,0.231,0.626,-25.69,120.68,-0.665,
47746240,-0.578,0.226,0.626,-23.117,143.745,4.287,
47746250,-0.558,0.225,0.589,-19.6,163.66,14.367,
47746260,-0.566,0.223,0.536,-14.087,188.912,25.322,
47746270,-0.647,0.319,0.491,-2.467,212.152,34.667,
47746280,-0.806,0.401,0.449,1.75,223.405,38.902,
47746290,-0.994,0.423,0.365,-2.117,217.682,39.235,
47746300,-1.108,0.481,0.289,-10.167,199.045,37.677,
47746310,-1.187,0.492,0.208,-21.822,167.702,33.635,
47746320,-1.224,0.487,0.113,-35.595,134.61,27.055,
47746330,-1.236,0.446,0.089,-44.065,99.26,20.352,
47746340,-1.191,0.426,0.092,-48.86,61.092,16.607,
47746350,-1.135,0.442,0.078,-51.66,25.497,14.14,
47746360,-1.138,0.428,0.115,-52.027,-5.197,11.987,
47746370,-1.183,0.407,0.153,-53.62,-38.92,9.31,
47746380,-0.978,0.393,0.16,-48.055,-70.595,11.252,
47746390,-0.912,0.382,0.211,-38.482,-91.787,17.972,
47746400,-0.93,0.439,0.285,-33.722,-108.955,22.557,
47746410,-0.781,0.401,0.349,-38.727,-119.28,26.635,
47746420,-0.722,0.418,0.386,-46.042,-113.715,22.942,
47746430,-0.745,0.428,0.429,-51.642,-105.542,26.285,
47746440,-0.733,0.339,0.432,-58.502,-92.102,28.437,
47746450,-0.727,0.393,0.461,-54.372,-73.325,24.465,
47746460,-0.73,0.459,0.498,-51.747,-53.025,21.367,
47746470,-0.764,0.47,0.523,-61.687,-36.365,18.182,
47746480,-0.808,0.455,0.516,-75.827,-27.37,20.545,
47746490,-0.811,0.46,0.506,-87.92,-22.715,23.397,
47746500,-0.778,0.438,0.484,-96.04,-19.337,22.82,
47746510,-0.748,0.393,0.455,-98.297,-12.565,21.647,
47746510,-0.734,0.356,0.458,-94.482,-2.905,16.992,
47746520,-0.723,0.351,0.475,-88.445,6.895,10.675,
47746530,-0.756,0.36,0.488,-84.472,13.107,6.317,
47746540,-0.77,0.393,0.498,-87.395,17.867,1.645,
47746550,-0.783,0.382,0.483,-94.99,22.05,-5.092,
47746560,-0.849,0.355,0.481,-100.765,25.042,-11.165,
47746570,-0.875,0.306,0.476,-100.677,22.032,-14.647,
47746580,-0.921,0.265,0.475,-92.225,13.755,-13.282,
47746590,-0.865,0.279,0.51,-80.342,0.77,-13.072,
47746600,-0.835,0.267,0.518,-75.775,-6.755,-13.912,
47746610,-0.887,0.292,0.513,-78.417,-13.405,-19.25,
47746620,-0.856,0.24,0.457,-82.495,-25.34,-21.472,
47746630,-0.888,0.229,0.421,-79.852,-39.515,-15.505,
47746640,-0.877,0.139,0.376,-73.447,-56.997,-2.38,
47746650,-0.765,0.035,0.327,-60.795,-71.242,14.56,
47746660,-0.614,0.036,0.345,-40.827,-71.172,27.3,
47746670,-0.515,0.079,0.453,-29.417,-49.052,29.925,
47746680,-0.674,0.125,0.565,-32.69,-17.482,28.927,
47746690,-0.859,0.101,0.58,-45.22,-1.19,31.57,
47746700,-0.932,0.023,0.6,-47.53,1.68,30.572,
47746710,-0.933,0.01,0.596,-39.707,-3.307,34.335,
47746720,-0.898,0.034,0.547,-31.43,-6.457,41.755,
47746730,-0.832,0.072,0.517,-21.227,-8.802,47.337,
47746740,-0.742,0.079,0.45,-11.917,-10.185,50.837,
47746750,-0.65,0.06,0.377,3.272,-10.097,56.945,
47746760,-0.58,0.091,0.362,22.925,-5.477,63.035,
47746770,-0.597,0.106,0.384,36.137,7.402,60.76,
47746780,-0.773,0.181,0.482,40.232,28.595,48.825,
47746790,-1.086,0.285,0.6,31.745,41.405,35.49,
47746800,-1.265,0.307,0.625,17.937,31.605,28.472,
47746810,-1.228,0.32,0.589,10.045,11.427,25.287,
47746820,-1.064,0.321,0.532,8.137,-4.812,24.937,
47746830,-0.889,0.299,0.463,4.707,-13.352,25.34,
47746830,-0.67,0.276,0.421,-0.21,-10.307,21.017,
47746850,-0.703,0.339,0.485,-3.08,-2.975,15.172,
47746850,-0.748,0.324,0.563,-8.68,-5.565,12.512,
47746870,-0.801,0.329,0.636,-9.747,-15.032,8.61,
47746870,-0.748,0.335,0.666,-7.245,-25.532,1.907,
47746890,-0.733,0.368,0.683,-5.775,-21.437,-7.192,
47746890,-0.818,0.344,0.656,-2.625,-13.597,-14.945,
47746910,-0.762,0.338,0.607,3.64,-13.772,-18.147,
47746910,-0.735,0.35,0.567,9.485,-16.17,-23.677,
47746920,-0.779,0.34,0.545,10.465,-19.705,-28.892,
47746930,-0.802,0.312,0.554,9.012,-25.427,-30.852,
47746940,-0.819,0.334,0.586,5.565,-30.292,-30.572,
47746950,-0.824,0.316,0.62,-3.36,-32.305,-28.787,
47746960,-0.807,0.242,0.615,-12.32,-31.132,-22.102,
47746970,-0.734,0.195,0.608,-16.695,-27.3,-12.687,
47746980,-0.642,0.177,0.612,-17.307,-17.955,-5.197,
47746990,-0.645,0.179,0.579,-16.03,-6.86,0.752,
47747000,-0.639,0.245,0.597,-12.425,3.185,4.025,
47747010,-0.694,0.323,0.653,-13.877,12.425,5.127,
47747020,-0.714,0.262,0.699,-21.822,22.015,7.822,
47747030,-0.704,0.27,0.664,-22.085,38.01,13.842,
47747040,-0.722,0.29,0.589,-25.252,46.095,17.482,
47747050,-0.742,0.249,0.544,-26.862,48.615,18.007,
47747060,-0.779,0.257,0.52,-23.66,48.772,16.362,
47747070,-0.84,0.256,0.507,-20.037,44.012,13.212,
47747080,-0.857,0.251,0.497,-14.962,33.967,9.537,
47747090,-0.86,0.283,0.533,-7.455,21.805,4.847,
47747100,-0.863,0.293,0.56,-2.152,12.775,-0.07,
47747110,-0.85,0.297,0.579,-0.56,7.525,-2.712,
47747120,-0.854,0.259,0.543,-3.657,4.41,-3.272,
47747130,-0.834,0.232,0.473,-4.007,-0.647,-4.83,
47747140,-0.888,0.22,0.46,-0.787,-10.377,-9.555,
47747150,-0.903,0.229,0.447,7.56,-25.235,-16.537,
47747160,-0.931,0.295,0.508,15.61,-39.042,-22.942,
47747170,-0.903,0.315,0.578,12.915,-49.105,-25.935,
47747180,-0.867,0.272,0.617,3.675,-48.86,-18.06,
47747190,-0.775,0.194,0.589,-6.457,-45.482,-6.475,
47747200,-0.639,0.155,0.594,-9.082,-39.952,-1.435,
47747210,-0.578,0.167,0.625,-7.7,-26.46,4.76,
47747210,-0.66,0.17,0.657,-7.245,-11.882,12.215,
47747230,-0.639,0.261,0.643,-10.062,-3.727,15.802,
47747230,-0.701,0.309,0.626,-12.67,4.602,20.09,
47747250,-0.663,0.376,0.687,-15.155,14.735,20.667,
47747250,-0.849,0.335,0.661,-23.45,33.127,24.587,
47747260,-0.757,0.382,0.591,-30.852,35.21,18.27,
47747270,-0.784,0.313,0.518,-32.865,33.057,14.98,
47747280,-0.803,0.26,0.532,-29.767,29.12,11.235,
47747290,-0.815,0.251,0.541,-24.552,22.487,7.297,
47747300,-0.826,0.221,0.553,-18.97,18.725,3.185,
47747310,-0.858,0.168,0.55,-14.262,15.295,-0.525,
47747320,-0.887,0.107,0.515,-7.665,9.205,-4.777,
47747330,-0.892,0.112,0.472,4.217,1.207,-10.902,
47747340,-0.967,0.112,0.446,14.315,-2.94,-15.715,
47747350,-1.023,0.083,0.404,21.087,-14.297,-19.565,
47747360,-0.908,0.197,0.423,29.82,-36.4,-20.825,
47747370,-0.945,0.23,0.477,32.445,-51.467,-23.047,
47747380,-0.861,0.233,0.55,29.785,-58.73,-27.107,
47747390,-0.808,0.248,0.588,21.49,-61.95,-24.955,
47747400,-0.798,0.161,0.604,9.94,-53.392,-16.887,
47747410,-0.765,0.102,0.603,7.157,-40.95,-13.247,
47747420,-0.706,0.134,0.631,10.237,-31.325,-10.622,
47747430,-0.69,0.173,0.628,9.782,-26.495,-6.667,
47747440,-0.648,0.231,0.634,8.47,-24.762,-2.59,
47747450,-0.634,0.29,0.658,7.84,-20.825,-0.612,
47747460,-0.569,0.378,0.705,6.072,-13.23,2.065,
47747470,-0.626,0.323,0.726,-1.155,7.875,7.98,
47747480,-0.649,0.36,0.731,-6.51,25.322,7.21,
47747490,-0.668,0.335,0.683,-14.892,27.93,9.572,
47747500,-0.643,0.313,0.64,-16.817,26.862,10.237,
47747510,-0.672,0.267,0.573,-12.25,26.407,8.417,
47747520,-0.749,0.305,0.563,-3.85,27.86,4.637,
47747530,-0.866,0.266,0.525,0.455,23.485,1.155,
47747540,-0.879,0.29,0.511,6.072,11.095,-1.942,
47747550,-0.931,0.231,0.52,7.262,2.537,-4.095,
47747560,-0.964,0.168,0.525,8.12,-4.497,-5.547,
47747570,-0.899,0.138,0.481,13.44,-17.955,-7.927,
47747580,-0.806,0.213,0.493,22.487,-32.217,-13.387,
47747580,-0.831,0.198,0.539,26.407,-36.75,-17.36,
47747600,-0.849,0.208,0.57,27.387,-42.735,-22.662,
47747600,-0.834,0.206,0.568,24.535,-50.33,-24.412,
47747620,-0.784,0.194,0.613,20.195,-48.142,-23.17,
47747620,-0.785,0.173,0.627,12.145,-31.867,-16.362,
47747640,-0.876,0.098,0.566,4.76,-15.172,-10.902,
47747640,-0.851,0.151,0.564,3.972,-16.555,-10.447,
47747660,-0.782,0.165,0.574,2.1,-20.055,-9.572,
47747660,-0.804,0.183,0.571,1.82,-19.757,-9.642,
47747670,-0.676,0.227,0.624,1.837,-19.18,-6.79,
47747680,-0.718,0.184,0.629,-3.272,-3.342,0.035,
47747690,-0.734,0.153,0.623,-6.685,8.085,4.182,
47747700,-0.707,0.174,0.608,-6.335,3.045,9.502,
47747710,-0.671,0.154,0.613,0.577,-2.012,11.41,
47747720,-0.656,0.203,0.646,13.51,-5.582,11.147,
47747730,-0.654,0.271,0.659,23.047,-8.785,10.657,
47747740,-0.652,0.317,0.66,27.475,-11.515,7.682,
47747750,-0.637,0.37,0.643,30.975,-14.07,9.467,
47747760,-0.625,0.435,0.628,32.025,-14.21,12.915,
47747770,-0.682,0.411,0.639,32.497,-13.667,11.392,
47747780,-0.723,0.386,0.701,30.852,-10.08,7.717,
47747790,-0.785,0.405,0.734,23.782,-6.3,6.16,
47747800,-0.809,0.307,0.677,12.075,-3.675,0.017,
47747810,-0.71,0.248,0.572,10.955,-10.325,-10.045,
47747820,-0.709,0.266,0.549,17.92,-18.217,-14.332,
47747830,-0.786,0.263,0.577,23.66,-22.855,-17.115,
47747840,-0.84,0.292,0.613,24.412,-26.145,-18.567,
47747850,-0.864,0.337,0.684,16.8,-25.69,-16.677,
47747860,-0.875,0.269,0.64,2.712,-22.785,-12.32,
47747870,-0.742,0.232,0.642,-4.777,-23.257,-7.7,
47747880,-0.76,0.176,0.624,-7.542,-21.105,-3.202,
47747890,-0.671,0.236,0.633,-1.855,-21.105,-2.52,
47747900,-0.632,0.324,0.677,1.785,-14.997,-1.54,
47747910,-0.703,0.368,0.752,-3.412,4.112,2.082,
47747920,-0.701,0.28,0.696,-13.16,22.907,4.305,
47747920,-0.58,0.223,0.603,-18.882,31.587,4.76,
47747940,-0.729,0.317,0.653,-14.227,45.027,5.967,
47747940,-0.814,0.252,0.615,-18.602,39.13,7.262,
47747960,-0.729,0.185,0.558,-18.095,23.275,3.185,
47747960,-0.752,0.205,0.546,-9.572,14.735,1.627,
47747980,-0.77,0.187,0.521,-1.75,4.375,-2.677,
47747980,-0.699,0.191,0.552,6.23,-3.57,-3.675,
47748000,-0.79,0.189,0.632,11.41,-1.05,-3.115,
47748000,-0.84,0.152,0.61,12.95,0.472,-4.637,
47748010,-0.804,0.161,0.51,19.18,-7.7,-8.61,
47748020,-0.812,0.216,0.498,31.045,-19.127,-13.772,
47748030,-0.814,0.26,0.548,42.577,-29.977,-19.95,
47748040,-0.867,0.296,0.575,49.157,-40.915,-25.917,
47748050,-0.831,0.352,0.655,48.195,-49.157,-30.205,
47748060,-0.801,0.367,0.689,37.012,-45.062,-28.035,
47748070,-0.774,0.338,0.661,18.13,-36.785,-19.39,
47748080,-0.677,0.209,0.578,4.2,-28.122,-11.76,
47748090,-0.649,0.192,0.606,5.46,-12.005,-11.06,
47748100,-0.712,0.274,0.677,8.855,-6.265,-9.135,
47748110,-0.628,0.364,0.757,1.645,-2.905,-6.93,
47748120,-0.645,0.373,0.79,-14.402,9.782,-4.252,
47748130,-0.553,0.444,0.85,-31.762,29.627,-3.097,
47748140,-0.697,0.323,0.807,-50.102,62.457,0.017,
47748150,-0.783,0.288,0.76,-57.592,73.43,-1.767,
47748160,-0.742,0.277,0.679,-59.85,65.852,2.03,
47748170,-0.733,0.23,0.6,-59.71,58.572,-0.14,
47748180,-0.706,0.187,0.534,-54.372,50.68,-6.965,
47748190,-0.711,0.185,0.507,-42.332,44.502,-12.092,
47748200,-0.747,0.223,0.48,-28.577,36.172,-13.685,
47748210,-0.746,0.254,0.474,-15.067,25.2,-16.45,
47748220,-0.804,0.234,0.523,-2.432,25.217,-20.895,
47748230,-1.006,0.17,0.55,5.302,22.872,-26.95,
47748240,-0.914,0.202,0.486,12.932,-4.917,-33.04,
47748250,-0.699,0.249,0.437,21.77,-25.97,-35.542,
47748260,-0.723,0.183,0.437,27.895,-24.22,-37.625,
47748270,-0.747,0.238,0.54,32.287,-24.01,-38.045,
47748280,-0.835,0.229,0.643,24.08,-16.257,-27.772,
47748290,-0.886,0.178,0.663,10.797,-8.68,-17.097,
47748300,-0.88,0.135,0.625,-0.245,-5.355,-8.872,
47748310,-0.787,0.122,0.607,-5.915,-2.59,-4.497,
47748320,-0.78,0.083,0.582,-10.097,1.715,-0.297,
47748330,-0.732,0.101,0.559,-10.85,0.91,4.62,
47748330,-0.694,0.14,0.56,-10.097,0.822,10.517,
47748350,-0.718,0.171,0.579,-8.312,3.972,14.35,
47748350,-0.726,0.226,0.62,-6.422,7.822,17.097,
47748370,-0.745,0.233,0.69,-10.027,18.077,20.65,
47748370,-0.888,0.16,0.651,-17.762,26.512,19.722,
47748390,-0.773,0.192,0.585,-20.02,15.732,18.462,
47748390,-0.731,0.174,0.555,-16.537,13.912,15.75,
47748410,-0.793,0.167,0.537,-8.785,14.052,11.602,
47748410,-0.802,0.178,0.525,1.155,7,9.222,
47748420,-0.823,0.177,0.516,12.075,-0.105,5.722,
47748430,-0.858,0.198,0.527,21.84,-1.855,3.657,
47748440,-0.941,0.183,0.483,26.022,-1.015,2.257,
47748450,-0.95,0.186,0.413,30.415,-12.39,2.205,
47748460,-0.906,0.188,0.402,38.202,-33.88,0.927,
47748470,-0.832,0.247,0.528,45.885,-44.52,1.155,
47748480,-0.883,0.262,0.644,39.795,-42.367,10.202,
47748490,-0.902,0.238,0.674,19.442,-35.857,11.602,
47748500,-0.786,0.054,0.642,7.805,-29.505,9.38,
47748510,-0.733,0.13,0.583,9.59,-23.817,14.192,
47748520,-0.714,0.182,0.556,7.175,-20.422,17.395,
47748530,-0.749,0.21,0.568,3.727,-18.882,17.027,
47748540,-0.782,0.216,0.666,4.427,-16.73,16.065,
47748550,-0.705,0.241,0.681,6.492,-11.462,11.952,
47748560,-0.677,0.318,0.688,3.202,3.167,8.225,
47748570,-0.696,0.31,0.689,-7.28,19.267,4.742,
47748580,-0.731,0.292,0.682,-17.43,31.36,2.782,
47748590,-0.739,0.253,0.625,-23.607,37.362,-1.102,
47748600,-0.767,0.272,0.598,-21.21,35.805,-2.292,
47748610,-0.764,0.316,0.556,-20.002,33.88,-3.535,
47748620,-0.783,0.347,0.534,-19.792,31.99,-7.84,
47748630,-0.839,0.357,0.511,-17.64,27.982,-11.795,
47748640,-0.816,0.356,0.54,-15.172,20.632,-17.43,
47748650,-0.863,0.304,0.59,-14.472,16.275,-22.312,
47748660,-0.84,0.212,0.529,-14.717,10.99,-22.505,
47748670,-0.832,0.164,0.371,-10.01,4.41,-21.7,
47748670,-0.857,0.167,0.388,1.172,-11.672,-21.63,
47748690,-0.855,0.15,0.463,12.932,-22.61,-22.925,
47748690,-0.905,0.205,0.533,19.81,-32.48,-26.162,
47748710,-0.817,0.238,0.675,17.815,-36.592,-26.687,
47748710,-0.899,0.215,0.741,5.075,-22.82,-17.307,
47748730,-0.816,0.143,0.672,-10.097,-15.907,-8.732,
47748730,-0.733,0.017,0.583,-17.552,-11.077,-5.88,
47748750,-0.697,0.017,0.511,-14.682,-4.69,-4.112,
47748750,-0.738,0.088,0.491,-7.157,-0.07,0.63,
47748760,-0.828,0.152,0.627,-3.727,3.517,4.515,
47748770,-0.824,0.174,0.687,-7.087,1.487,6.142,
47748780,-0.776,0.247,0.684,-15.155,11.76,8.155,
47748790,-0.769,0.147,0.607,-27.142,15.19,8.89,
47748800,-0.697,0.179,0.596,-27.037,20.072,10.517,
47748810,-0.732,0.189,0.587,-25.795,24.675,10.727,
47748820,-0.759,0.225,0.56,-24.447,24.097,10.29,
47748830,-0.737,0.218,0.496,-22.225,21.805,9.817,
47748840,-0.764,0.213,0.444,-14.612,20.527,8.54,
47748850,-0.821,0.241,0.463,-3.097,14.245,6.877,
47748860,-0.886,0.268,0.56,4.865,9.222,5.267,
47748870,-0.926,0.237,0.605,4.672,6.02,1.942,
47748880,-0.902,0.198,0.565,1.242,3.045,-1.575,
47748890,-0.874,0.137,0.431,0.98,-2.852,-4.445,
47748900,-0.821,0.154,0.405,10.115,-17.202,-4.06,
47748910,-0.822,0.166,0.454,22.277,-30.642,-4.025,
47748920,-0.808,0.198,0.518,30.257,-39.392,-6.772,
47748930,-0.866,0.22,0.645,29.225,-36.365,-5.39,
47748940,-0.926,0.198,0.697,16.52,-26.81,0.56,
47748950,-0.873,0.131,0.639,2.59,-22.54,2.222,
47748960,-0.761,0.084,0.567,-3.605,-19.932,1.785,
47748970,-0.728,0.067,0.512,-1.662,-15.4,4.042,
47748980,-0.754,0.162,0.54,4.9,-9.345,6.44,
47748990,-0.801,0.237,0.592,7,-7.42,7.262,
47749000,-0.783,0.262,0.699,1.732,-5.145,7.717,
47749010,-0.717,0.244,0.695,-7.682,6.23,8.26,
47749020,-0.692,0.253,0.687,-17.202,17.64,9.677,
47749030,-0.685,0.209,0.644,-23.152,25.48,12.18,
47749040,-0.658,0.237,0.611,-22.995,29.645,14.542,
47749050,-0.699,0.232,0.56,-21.787,32.025,14.945,
47749060,-0.764,0.225,0.499,-17.115,29.977,14.402,
47749070,-0.828,0.218,0.448,-9.362,25.55,12.32,
47749080,-0.878,0.226,0.453,-0.122,15.645,9.502,
47749080,-0.917,0.21,0.521,5.915,7.927,8.015,
47749100,-0.947,0.183,0.555,7.262,2.362,5.775,
47749100,-0.911,0.155,0.461,7.157,-2.572,4.182,
47749120,-0.862,0.193,0.456,10.045,-11.742,1.242,
47749120,-0.911,0.157,0.482,15.522,-22.12,-0.892,
47749140,-0.825,0.219,0.496,23.94,-30.607,-4.217,
47749140,-0.899,0.262,0.569,27.212,-35.98,-6.597,
47749160,-0.88,0.304,0.624,22.19,-36.155,-6.177,
47749160,-0.843,0.251,0.594,13.842,-32.795,-5.057,
47749170,-0.771,0.182,0.564,10.885,-29.382,-5.46,
47749180,-0.698,0.138,0.528,15.33,-25.305,-4.812,
47749190,-0.685,0.091,0.524,23.817,-18.672,-2.047,
47749200,-0.775,0.07,0.531,31.762,-11.935,0.77,
47749210,-0.851,0.115,0.579,37.8,-12.95,2.73,
47749220,-0.858,0.134,0.618,38.64,-13.51,3.22,
47749230,-0.867,0.118,0.595,38.43,-10.71,2.607,
47749240,-0.805,0.126,0.528,40.932,-7.367,1.19,
47749250,-0.792,0.149,0.488,46.9,-5.162,0.262,
47749260,-0.818,0.236,0.534,52.43,-6.142,0.857,
47749270,-0.841,0.303,0.569,52.535,-13.772,3.045,
47749280,-0.773,0.391,0.609,48.212,-20.265,2.45,
47749290,-0.796,0.408,0.631,37.992,-19.845,0.385,
47749300,-0.777,0.435,0.65,27.317,-16.432,-1.435,
47749310,-0.802,0.434,0.651,14.717,-14.472,-3.045,
47749320,-0.777,0.404,0.622,3.482,-12.757,-5.145,
47749330,-0.788,0.373,0.6,-3.237,-13.615,-8.767,
47749340,-0.78,0.342,0.569,-7.017,-15.015,-12.95,
47749350,-0.799,0.316,0.537,-7.507,-16.45,-17.832,
47749360,-0.804,0.271,0.517,-6.51,-16.415,-21.682,
47749370,-0.834,0.249,0.531,-3.692,-15.102,-23.345,
47749380,-0.852,0.227,0.548,-2.047,-14.157,-23.537,
47749390,-0.837,0.193,0.563,-2.642,-15.067,-22.995,
47749400,-0.803,0.165,0.577,-4.042,-15.05,-22.75,
47749410,-0.793,0.15,0.593,-5.407,-12.95,-23.327,
47749420,-0.79,0.134,0.607,-6.09,-11.147,-23.712,
47749420,-0.791,0.117,0.588,-4.97,-10.517,-23.012,
47749440,-0.773,0.135,0.581,-0.157,-9.117,-22.33,
47749440,-0.72,0.157,0.551,4.532,-4.13,-22.435,
47749460,-0.725,0.148,0.521,7.052,6.755,-23.992,
47749460,-0.788,0.132,0.497,8.365,18.637,-25.252,
47749480,-0.812,0.125,0.486,9.782,29.61,-26.775,
47749480,-0.848,0.102,0.47,12.39,40.547,-27.965,
47749500,-0.864,0.08,0.44,19.565,53.235,-32.55,
47749500,-0.871,0.11,0.459,31.412,67.41,-41.755,
47749510,-0.98,0.137,0.496,43.907,74.095,-51.765,
47749520,-0.986,0.214,0.556,54.757,69.37,-66.29,
47749530,-0.927,0.306,0.636,61.022,54.775,-76.177,
47749540,-0.879,0.386,0.715,54.652,35.227,-76.86,
47749550,-0.829,0.398,0.741,34.737,15.207,-72.485,
47749560,-0.763,0.37,0.732,8.067,2.922,-65.695,
47749570,-0.743,0.31,0.703,-18.585,-1.557,-58.817,
47749580,-0.73,0.219,0.658,-39.83,0.507,-51.8,
47749590,-0.719,0.132,0.595,-51.24,4.83,-44.502,
47749600,-0.714,0.084,0.557,-52.342,12.705,-38.745,
47749610,-0.707,0.08,0.539,-46.305,20.545,-34.527,
47749620,-0.719,0.094,0.533,-37.817,24.885,-28.542,
47749630,-0.752,0.129,0.539,-29.242,21.507,-20.807,
47749640,-0.763,0.17,0.539,-23.747,12.652,-14.332,
47749650,-0.775,0.189,0.535,-20.65,-0.14,-9.712,
47749660,-0.759,0.189,0.509,-18.252,-11.725,-3.99,
47749670,-0.691,0.191,0.478,-14.017,-15.207,2.607,
47749680,-0.652,0.198,0.455,-8.365,-5.88,10.885,
47749690,-0.67,0.194,0.439,-2.957,11.795,20.965,
47749700,-0.699,0.199,0.454,1.347,34.247,28.507,
47749710,-0.796,0.231,0.474,4.375,54.46,32.62,
47749720,-0.937,0.247,0.506,4.917,66.815,33.302,
47749730,-1.034,0.227,0.521,2.73,67.007,29.19,
47749740,-1.052,0.195,0.505,0.91,59.36,21.122,
47749750,-1.051,0.175,0.501,-1.645,52.902,9.922,
47749760,-1.026,0.202,0.474,-8.907,52.132,-4.847,
47749770,-1.064,0.24,0.472,-22.032,54.075,-18.55,
47749780,-1.169,0.332,0.618,-47.897,56.017,-32.585,
47749790,-1.305,0.468,0.731,-92.12,49.21,-48.895,
47749800,-1.277,0.467,0.763,-151.76,34.387,-66.552,
47749810,-1.143,0.333,0.7,-211.697,18.462,-78.715,
47749820,-0.95,0.184,0.564,-252.56,11.48,-84.245,
47749830,-0.745,-0.006,0.395,-271.81,22.82,-95.182,
47749830,-0.624,-0.171,0.235,-266.017,48.282,-102.235,
47749850,-0.573,-0.241,0.139,-240.327,77.91,-100.747,
47749850,-0.547,-0.267,0.085,-205.555,97.58,-91.07,
47749870,-0.605,-0.232,0.062,-166.67,101.657,-77.84,
47749870,-0.715,-0.227,0.054,-128.187,86.1,-59.342,
47749890,-0.758,-0.302,0.115,-88.2,64.82,-37.135,
47749890,-0.851,-0.289,0.172,-52.71,48.877,-26.215,
47749910,-0.983,-0.35,0.18,-30.677,47.022,-30.607,
47749910,-1.024,-0.444,0.157,-18.935,56.647,-35.717,
47749920,-1.182,-0.369,0.205,-13.65,67.007,-41.09,
47749930,-1.377,-0.196,0.287,-13.947,59.902,-49.857,
47749940,-1.165,-0.164,0.251,-26.302,35.647,-53.182,
47749950,-0.878,-0.263,0.154,-39.707,17.57,-46.9,
47749960,-0.942,-0.319,0.125,-42.735,17.972,-42.735,
47749970,-0.988,-0.385,0.083,-34.51,14.84,-38.552,
47749980,-0.894,-0.456,-0.016,-9.747,6.037,-27.177,
47749990,-0.848,-0.445,-0.106,31.377,-7.367,-7.945,
47750000,-0.816,-0.5,-0.199,82.407,-23.817,19.372,
47750010,-0.81,-0.51,-0.222,139.212,-34.877,41.947,
47750020,-1.003,-0.482,-0.179,201.915,-40.932,63.262,
47750030,-1.216,-0.485,0.071,254.835,-60.357,83.895,
47750040,-1.274,-0.123,0.65,285.722,-88.567,102.48,
47750050,-1.159,0.176,0.928,256.2,-105.56,114.537,
47750060,-0.948,-0.146,0.565,205.59,-108.815,144.672,
47750070,-0.56,-0.385,0.279,217.542,-99.907,183.312,
47750080,-0.183,-0.335,0.196,276.36,-66.867,212.835,
47750090,-0.299,-0.118,0.215,330.032,-1.295,235.165,
47750100,-0.436,0.189,0.245,359.012,54.127,230.125,
47750110,-0.554,0.446,0.34,352.292,78.925,208.32,
47750120,-0.661,0.613,0.325,302.155,69.947,180.985,
47750130,-0.71,0.569,0.192,234.325,38.255,142.642,
47750140,-0.683,0.497,0.141,173.302,-0.595,101.062,
47750150,-0.633,0.445,0.096,120.855,-37.38,65.205,
47750160,-0.626,0.421,0.113,84.087,-68.547,37.887,
47750170,-0.535,0.482,0.153,59.675,-87.202,17.78,
47750170,-0.399,0.565,0.335,35.735,-74.077,1.942,
47750190,-1.954,1.106,0.766,32.637,-46.952,13.51,
47750190,-1.996,0.78,0.547,14.21,-91.192,82.04,
47750210,-0.979,0.438,0.26,-14.962,-109.76,89.022,
47750210,-0.538,0.394,0.196,-5.442,-93.117,67.62,
47750230,-0.45,0.607,0.39,-2.485,-57.102,31.797,
47750230,-0.786,0.945,0.63,-51.047,-48.422,4.532,
47750250,-0.967,0.865,0.645,-103.11,-67.2,-12.197,
47750250,-0.92,0.63,0.579,-137.2,-89.162,-42.84,
47750260,-0.808,0.532,0.604,-144.795,-87.325,-71.96,
47750270,-0.784,0.488,0.694,-145.635,-65.607,-87.465,
47750280,-0.811,0.391,0.672,-143.902,-39.235,-82.022,
47750290,-0.743,0.392,0.668,-127.435,-11.725,-81.27,
47750300,-0.761,0.379,0.601,-128.992,10.692,-84.735,
47750310,-0.877,0.335,0.542,-139.212,20.65,-99.907,
47750320,-0.999,0.342,0.558,-153.3,11.62,-116.357,
47750330,-1.041,0.383,0.507,-167.212,-16.887,-118.44,
47750340,-0.955,0.2,0.387,-184.257,-46.935,-112.857,
47750350,-0.793,0.163,0.345,-193.007,-54.915,-118.475,
47750360,-0.785,0.09,0.359,-197.137,-46.917,-118.317,
47750370,-0.734,-0.008,0.368,-201.04,-33.88,-118.002,
47750380,-0.79,-0.079,0.382,-199.78,-20.562,-109.375,
47750390,-0.847,-0.158,0.433,-191.66,-14.07,-104.16,
47750400,-0.752,-0.238,0.452,-179.69,-7.7,-94.062,
47750410,-0.586,-0.206,0.44,-163.485,9.1,-86.607,
47750420,-0.541,-0.186,0.418,-157.167,33.495,-84.28,
47750430,-0.559,-0.228,0.407,-157.027,53.375,-81.567,
47750440,-0.59,-0.32,0.396,-150.587,65.695,-72.292,
47750450,-0.616,-0.361,0.395,-137.007,72.852,-61.477,
47750460,-0.639,-0.434,0.366,-121.257,77.77,-53.252,
47750470,-0.686,-0.493,0.348,-95.2,78.26,-42.892,
47750480,-0.733,-0.531,0.356,-61.617,71.242,-28.91,
47750490,-0.689,-0.514,0.298,-20.387,58.17,-8.4,
47750500,-0.528,-0.43,0.268,18.007,53.48,15.977,
47750510,-0.56,-0.395,0.276,39.497,69.982,29.295,
47750520,-0.643,-0.442,0.255,54.162,87.342,40.407,
47750530,-0.73,-0.368,0.322,73.272,92.19,51.345,
47750540,-0.777,-0.317,0.341,76.09,94.272,56.84,
47750550,-0.899,-0.316,0.277,67.375,100.432,62.265,
47750560,-0.998,-0.328,0.203,65.555,98.91,71.557,
47750570,-0.974,-0.338,0.18,76.247,93.03,85.435,
47750580,-0.98,-0.305,0.171,93.31,89.355,99.347,
47750580,-1.001,-0.3,0.16,112.665,85.382,112.63,
47750600,-0.936,-0.312,0.127,133.84,85.26,124.372,
47750600,-0.896,-0.25,0.127,154.455,91.245,131.827,
47750620,-0.96,-0.152,0.17,167.685,92.242,136.22,
47750620,-1.063,-0.082,0.173,168.892,84.105,137.847,
47750640,-1.146,-0.021,0.143,165.83,68.18,136.587,
47750640,-1.215,0.024,0.088,159.267,47.355,136.867,
47750650,-1.198,0.031,0.05,155.347,20.282,141.085,
47750660,-1.101,0.133,0.062,153.212,-2.292,145.092,
47750670,-1.039,0.23,0.097,143.412,-15.785,142.59,
47750680,-1,0.293,0.121,127.627,-24.605,140.227,
47750690,-0.993,0.292,0.129,113.522,-34.72,144.252,
47750700,-0.992,0.276,0.134,104.947,-47.705,151.725,
47750710,-1.029,0.373,0.177,106.505,-67.217,160.09,
47750720,-1.045,0.443,0.207,109.637,-86.94,161.315,
47750730,-0.958,0.681,0.284,110.53,-105.227,156.135,
47750740,-0.947,0.87,0.323,96.477,-121.537,157.395,
47750750,-1.027,0.869,0.325,68.215,-134.54,156.012,
47750760,-1.053,0.809,0.299,33.652,-143.552,137.76,
47750770,-1.096,0.802,0.309,5.005,-151.182,103.267,
47750780,-1.017,0.884,0.355,-21.07,-154.402,55.65,
47750790,-0.935,0.828,0.379,-47.25,-151.305,2.415,
47750800,-0.838,0.706,0.39,-71.137,-147.385,-38.097,
47750810,-0.749,0.634,0.451,-87.832,-144.095,-60.007,
47750820,-0.692,0.536,0.502,-95.112,-139.825,-68.005,
47750830,-0.571,0.383,0.578,-92.365,-128.257,-70.262,
47750840,-0.545,0.238,0.535,-84.262,-111.177,-63.052,
47750850,-0.503,0.153,0.595,-48.282,-92.487,-51.415,
47750860,-0.502,0.236,0.619,-18.252,-73.43,-40.6,
47750870,-0.476,0.253,0.61,-3.92,-51.975,-31.062,
47750880,-0.602,0.286,0.632,2.38,-27.457,-23.572,
47750890,-0.732,0.34,0.641,0.21,-2.642,-22.4,
47750900,-0.826,0.358,0.638,-11.497,16.905,-24.447,
47750910,-0.901,0.343,0.604,-27.387,31.902,-27.965,
47750920,-0.915,0.318,0.573,-43.96,38.99,-32.655,
47750920,-0.924,0.314,0.562,-58.922,42.35,-35.14,
47750940,-0.953,0.337,0.558,-72.52,42.542,-36.592,
47750940,-0.976,0.368,0.574,-86.38,38.622,-38.955,
47750960,-0.923,0.341,0.565,-100.642,32.97,-41.65,
47750960,-0.893,0.322,0.561,-111.247,29.837,-43.312,
47750980,-0.79,0.295,0.55,-120.61,29.89,-44.625,
47750980,-0.806,0.267,0.575,-127.96,33.53,-45.01,
47751000,-0.93,0.386,0.642,-135.502,22.312,-44.695,
47751000,-0.814,0.072,0.557,-145.372,1.242,-40.355,
47751010,-0.766,0.155,0.506,-140.07,9.922,-60.357,
47751020,-0.866,0.125,0.489,-133.315,23.345,-71.067,
47751030,-0.841,0.088,0.434,-123.34,27.44,-76.842,
47751040,-0.853,0.077,0.392,-108.36,26.88,-76.265,
47751050,-0.867,0.098,0.37,-94.08,18.952,-70.262,
47751060,-0.824,0.107,0.351,-87.272,11.637,-65.012,
47751070,-0.816,0.027,0.344,-89.967,12.582,-57.137,
47751080,-0.868,-0.068,0.377,-91.875,15.592,-47.425,
47751090,-0.863,-0.102,0.429,-87.99,11.252,-41.685,
47751100,-0.823,-0.154,0.431,-85.015,7.892,-37.94,
47751110,-0.773,-0.201,0.421,-78.347,9.275,-29.907,
47751120,-0.733,-0.209,0.419,-69.457,13.737,-22.295,
47751130,-0.7,-0.224,0.414,-58.45,17.5,-14.017,
47751140,-0.691,-0.255,0.388,-46.007,20.23,-4.322,
47751150,-0.672,-0.279,0.354,-29.697,23.415,6.457,
47751160,-0.696,-0.279,0.354,-11.305,30.502,17.185,
47751170,-0.781,-0.257,0.384,3.377,38.622,25.515,
47751180,-0.857,-0.24,0.376,11.9,41.615,33.88,
47751190,-0.826,-0.207,0.339,19.355,41.212,47.285,
47751200,-0.89,-0.181,0.31,31.01,36.89,64.382,
47751210,-0.893,-0.176,0.285,46.462,22.522,82.845,
47751220,-0.879,-0.173,0.26,69.352,3.237,103.985,
47751230,-0.88,-0.169,0.263,96.897,-16.257,125.982,
47751240,-0.797,-0.168,0.274,125.685,-28.402,147.175,
47751250,-0.87,-0.102,0.341,147.175,-23.1,151.165,
47751260,-1.103,0.061,0.442,151.917,-10.99,137.13,
47751270,-1.183,0.245,0.452,140.735,-8.4,118.002,
47751280,-1.093,0.276,0.403,112.77,-10.097,99.872,
47751290,-0.955,0.211,0.306,87.955,-16.922,93.257,
47751300,-0.76,0.172,0.256,83.072,-29.505,94.185,
47751310,-0.682,0.095,0.265,99.855,-45.36,108.097,
47751320,-0.903,0.256,0.505,126.717,-65.73,128.73,
47751330,-1.172,0.557,0.642,143.097,-81.445,131.687,
47751330,-1.359,0.67,0.682,135.555,-103.145,114.38,
47751340,-1.061,0.655,0.573,111.492,-121.712,85.96,
47751350,-0.786,0.673,0.456,85.452,-127.172,67.462,
47751360,-0.717,0.636,0.375,58.905,-117.267,57.785,
47751370,-0.762,0.624,0.383,42.332,-107.31,49.14,
47751380,-0.83,0.603,0.434,27.912,-105.297,43.137,
47751390,-0.79,0.625,0.496,15.54,-110.215,23.537,
47751400,-0.773,0.686,0.539,1.662,-117.11,2.485,
47751410,-0.709,0.705,0.598,-15.365,-121.362,-15.925,
47751420,-0.662,0.664,0.631,-35.437,-117.617,-26.057,
47751430,-0.579,0.563,0.663,-53.252,-108.377,-28,
47751440,-0.419,0.496,0.693,-64.12,-91.122,-28.017,
47751450,-0.361,0.398,0.717,-68.6,-66.342,-29.067,
47751460,-0.422,0.323,0.747,-66.377,-38.92,-32.27,
47751470,-0.476,0.207,0.746,-59.325,-15.557,-30.835,
47751480,-0.433,0.138,0.794,-38.797,11.287,-22.592,
47751490,-0.526,0.293,0.749,-15.89,37.012,-13.685,
47751500,-0.567,0.302,0.693,-15.995,52.657,-13.737,
47751510,-0.655,0.234,0.622,-20.142,64.785,-13.527,
47751520,-0.693,0.229,0.594,-16.625,71.067,-8.277,
47751530,-0.73,0.295,0.625,-9.275,78.365,-5.25,
47751540,-0.767,0.389,0.631,-8.68,84.07,-4.2,
47751550,-0.803,0.393,0.599,-16.782,86.17,-6.667,
47751560,-0.823,0.391,0.576,-24.325,83.702,-10.062,
47751570,-0.842,0.384,0.559,-28.7,78.977,-17.115,
47751580,-0.84,0.376,0.537,-29.47,73.64,-23.292,
47751590,-0.861,0.371,0.523,-30.957,67.147,-28.525,
47751600,-0.92,0.387,0.521,-32.935,55.282,-32.812,
47751610,-0.97,0.406,0.517,-37.205,35.402,-35.612,
47751620,-0.948,0.346,0.479,-44.047,11.06,-36.382,
47751630,-1.002,0.365,0.474,-48.125,-8.697,-40.442,
47751640,-0.965,0.296,0.427,-51.012,-32.375,-40.162,
47751650,-0.912,0.266,0.425,-50.645,-51.03,-39.497,
47751660,-0.924,0.284,0.472,-53.007,-63.997,-39.252,
47751670,-0.931,0.262,0.495,-62.282,-75.18,-36.855,
47751670,-0.915,0.182,0.494,-71.732,-86.73,-34.825,
47751690,-0.759,0.081,0.491,-74.725,-93.187,-31.885,
47751690,-0.555,-0.173,0.59,-65.8,-70.577,-23.502,
47751710,-0.622,-0.009,0.605,-35.297,-45.255,-16.8,
47751710,-0.517,0,0.601,-21.805,-33.827,-13.877,
47751730,-0.576,0.017,0.585,-13.597,-18.182,-8.295,
47751730,-0.589,0.103,0.598,-8.557,-7.595,-0.315,
47751750,-0.675,0.147,0.667,-7.752,1.207,3.71,
47751750,-0.822,0.172,0.712,-8.645,3.097,10.045,
47751760,-0.857,0.185,0.692,-10.325,2.607,10.885,
47751770,-0.856,0.194,0.636,-10.535,-2.065,8.487,
47751780,-0.823,0.2,0.613,-8.872,-5.477,5.477,
47751790,-0.834,0.226,0.61,-6.142,-8.347,1.767,
47751800,-0.785,0.169,0.59,-6.58,-11.62,-0.402,
47751810,-0.744,0.151,0.551,-4.847,-13.597,0.192,
47751820,-0.684,0.13,0.559,-1.26,-13.615,2.135,
47751830,-0.689,0.101,0.571,5.95,-13.965,4.217,
47751840,-0.6,0.124,0.564,14.332,-12.705,8.19,
47751850,-0.632,0.179,0.627,18.76,-6.195,9.257,
47751860,-0.689,0.189,0.656,18.515,1.82,8.452,
47751870,-0.677,0.209,0.647,17.272,6.09,8.627,
47751880,-0.668,0.222,0.625,16.292,10.482,9.432,
47751890,-0.679,0.228,0.637,16.257,14.367,10.517,
47751900,-0.713,0.23,0.647,16.502,16.432,12.722,
47751910,-0.733,0.222,0.63,17.535,14.805,14.98,
47751920,-0.743,0.235,0.568,19.915,11.112,14.98,
47751930,-0.731,0.294,0.462,21.332,9.065,15.295,
47751940,-0.782,0.327,0.498,19.635,2.065,14.77,
47751950,-0.879,0.351,0.617,18.48,-5.582,12.985,
47751960,-0.925,0.36,0.755,16.24,-10.727,8.995,
47751970,-0.921,0.278,0.71,9.992,-8.767,4.025,
47751980,-0.806,0.226,0.677,5.18,-13.755,-1.277,
47751990,-0.811,0.117,0.626,6.335,-12.04,-1.435,
47752000,-0.817,0.158,0.62,9.24,-15.505,-1.312,
47752010,-0.8,0.116,0.649,10.517,-18.287,-1.26,
47752010,-0.786,0.091,0.611,11.637,-15.312,1.155,
47752030,-0.764,0.12,0.579,16.1,-15.05,4.497,
47752030,-0.842,0.127,0.553,19.967,-16.082,9.327,
47752050,-0.827,0.203,0.578,24.045,-17.395,12.477,
47752050,-0.872,0.193,0.693,21.437,-15.4,12.547,
47752070,-0.758,0.114,0.684,22.26,-17.08,7.805,
47752070,-0.499,0.289,0.653,30.747,-6.545,7.77,
47752080,-0.692,0.278,0.652,21.752,6.72,7.14,
47752090,-0.622,0.227,0.672,18.375,16.065,8.242,
47752100,-0.645,0.287,0.671,17.36,20.772,13.37,
47752110,-0.68,0.284,0.632,11.917,20.335,17.43,
47752120,-0.685,0.373,0.627,11.847,22.12,16.975,
47752130,-0.722,0.384,0.576,10.57,19.652,17.535,
47752140,-0.743,0.414,0.564,9.94,11.13,16.887,
47752150,-0.766,0.424,0.586,8.732,4.812,10.71,
47752160,-0.816,0.437,0.658,5.652,1.662,3.99,
47752170,-0.769,0.382,0.648,-1.032,0.262,-2.012,
47752180,-0.733,0.315,0.623,-5.722,0.927,-5.862,
47752190,-0.718,0.268,0.577,-5.565,1.61,-7.875,
47752200,-0.722,0.304,0.542,-3.727,0.805,-9.607,
47752210,-0.845,0.269,0.565,-4.69,-5.862,-12.022,
47752220,-0.799,0.266,0.56,-3.43,-13.562,-14.262,
47752230,-0.82,0.262,0.595,-2.852,-20.3,-16.065,
47752240,-0.85,0.262,0.625,-4.2,-22.995,-14.332,
47752250,-0.813,0.241,0.633,-6.527,-24.307,-12.81,
47752260,-0.788,0.153,0.64,-8.452,-22.33,-9.905,
47752270,-0.709,0.124,0.614,-7.192,-19.425,-7.385,
47752280,-0.726,0.106,0.599,-2.905,-15.697,-3.745,
47752290,-0.735,0.14,0.568,4.62,-12.88,2.677,
47752300,-0.795,0.207,0.565,10.202,-13.947,7.665,
47752310,-0.818,0.237,0.574,12.04,-17.587,9.292,
47752320,-0.799,0.291,0.611,11.497,-19.757,9.24,
47752330,-0.736,0.255,0.749,7.21,-17.815,8.277,
47752340,-0.578,0.154,0.693,8.96,-7.07,8.067,
47752350,-0.475,0.259,0.667,16.572,9.712,10.517,
47752360,-0.64,0.266,0.636,15.085,18.952,15.575,
47752370,-0.655,0.306,0.625,17.36,21.98,21.805,
47752380,-0.733,0.333,0.556,18.69,18.672,24.552,
47752390,-0.791,0.398,0.581,17.412,13.195,23.712,
47752400,-0.813,0.363,0.553,14.787,6.37,20.912,
47752410,-0.802,0.41,0.586,13.195,-0.962,16.047,
47752420,-0.808,0.396,0.63,7.42,-5.792,11.13,
47752420,-0.761,0.372,0.638,1.785,-6.405,4.322,
47752440,-0.717,0.312,0.618,-1.347,-5.635,-2.555,
47752440,-0.703,0.295,0.613,0.612,-3.972,-6.055,
47752460,-0.741,0.304,0.604,3.605,-2.135,-8.75,
47752460,-0.787,0.314,0.535,5.6,-4.287,-12.337,
47752480,-0.813,0.337,0.581,7.735,-15.575,-16.362,
47752480,-0.821,0.293,0.552,6.912,-23.327,-17.727,
47752500,-0.785,0.305,0.603,8.015,-31.867,-18.48,
47752500,-0.819,0.25,0.629,3.622,-32.602,-13.982,
47752510,-0.719,0.224,0.632,0.997,-31.622,-9.362,
47752520,-0.658,0.225,0.655,0.455,-28.332,-3.43,
47752530,-0.655,0.217,0.66,2.03,-21.455,-0.402,
47752540,-0.656,0.241,0.654,5.915,-13.072,3.027,
47752550,-0.712,0.293,0.651,7.577,-7.525,6.142,
47752560,-0.73,0.319,0.629,5.967,-4.515,6.877,
47752570,-0.771,0.339,0.61,3.482,-5.005,6.02,
47752580,-0.777,0.359,0.606,0.525,-8.067,5.355,
47752590,-0.771,0.352,0.62,-3.5,-12.407,3.885,
47752600,-0.721,0.319,0.639,-6.86,-14.857,2.152,
47752610,-0.614,0.241,0.741,-7.56,-10.552,2.222,
47752620,-0.564,0.178,0.652,-2.52,2.31,3.955,
47752630,-0.597,0.266,0.662,5.355,9.747,5.74,
47752640,-0.716,0.244,0.639,7.455,16.922,7.542,
47752650,-0.74,0.273,0.58,10.237,18.637,8.925,
47752660,-0.842,0.29,0.551,11.62,12.652,9.765,
47752670,-0.875,0.31,0.542,12.477,1.19,11.532,
47752680,-0.86,0.33,0.565,10.762,-13.72,13.912,
47752690,-0.785,0.336,0.599,7,-24.272,14.56,
47752700,-0.712,0.336,0.637,3.552,-27.737,11.147,
47752710,-0.647,0.329,0.659,0.997,-24.745,6.562,
47752720,-0.623,0.33,0.673,0.245,-17.92,2.765,
47752730,-0.643,0.336,0.662,-0.035,-9.432,-0.63,
47752740,-0.675,0.326,0.643,-0.21,-4.672,-2.432,
47752750,-0.706,0.314,0.627,-0.717,-3.517,-2.695,
47752760,-0.741,0.287,0.566,0.035,-6.387,-3.027,
47752760,-0.781,0.355,0.545,1.785,-15.68,-4.112,
47752780,-0.883,0.39,0.602,-2.152,-30.152,-6.965,
47752780,-0.859,0.367,0.617,-9.397,-42.647,-10.097,
47752800,-0.821,0.339,0.631,-14.577,-54.075,-12.477,
47752800,-0.743,0.236,0.681,-15.697,-57.715,-12.547,
47752820,-0.626,0.217,0.63,-10.097,-52.535,-9.03,
47752820,-0.602,0.229,0.675,-4.532,-45.115,-8.47,
47752830,-0.63,0.21,0.69,-0.367,-35.577,-6.685,
47752840,-0.595,0.254,0.702,2.205,-28.07,-4.217,
47752850,-0.642,0.264,0.688,2.117,-18.987,-2.817,
47752860,-0.651,0.275,0.673,2.555,-11.865,-3.062,
47752870,-0.641,0.253,0.645,3.482,-5.232,-5.81,
47752880,-0.74,0.301,0.683,5.722,0.227,-7.157,
47752890,-0.688,0.282,0.667,4.532,-3.57,-3.657,
47752900,-0.635,0.276,0.685,4.865,-2.765,-0.472,
47752910,-0.628,0.251,0.69,3.43,5.11,2.537,
47752920,-0.598,0.249,0.703,2.94,13.545,3.885,
47752930,-0.629,0.226,0.699,3.552,19.757,7.927,
47752940,-0.604,0.254,0.69,7.07,19.705,10.587,
47752950,-0.594,0.315,0.693,9.625,20.09,12.267,
47752960,-0.682,0.305,0.665,9.712,21.56,11.76,
47752970,-0.722,0.355,0.632,12.18,15.417,9.59,
47752980,-0.733,0.413,0.648,12.985,7.612,9.065,
47752990,-0.767,0.414,0.644,9.065,3.412,7.507,
47753000,-0.783,0.398,0.641,5.057,-2.135,3.552,
47753010,-0.691,0.408,0.622,2.8,-9.502,-0.437,
47753020,-0.688,0.356,0.638,2.38,-14.42,-0.122,
47753030,-0.671,0.323,0.655,2.992,-15.26,-1.067,
47753040,-0.654,0.285,0.648,4.427,-14.875,-1.487,
47753050,-0.633,0.242,0.635,7.577,-11.34,-2.625,
47753060,-0.677,0.31,0.6,12.372,-8.102,-3.692,
47753070,-0.737,0.367,0.665,12.075,-10.867,-6.317,
47753080,-0.739,0.32,0.689,7.192,-14.14,-8.697,
47753090,-0.682,0.328,0.67,8.925,-6.545,-14.857,
47753100,-0.715,0.301,0.671,8.977,-3.447,-17.762,
47753110,-0.623,0.302,0.701,8.662,-5.25,-13.51,
47753120,-0.583,0.312,0.713,8.067,-4.2,-7.857,
47753130,-0.533,0.296,0.732,6.492,0.175,-3.412,
47753140,-0.486,0.276,0.732,8.435,11.357,-0.21,
47753150,-0.528,0.282,0.73,13.37,28.542,2.047,
47753160,-0.609,0.302,0.709,17.92,43.347,3.482,
47753170,-0.662,0.305,0.669,21.542,53.392,4.13,
47753170,-0.699,0.313,0.659,23.992,59.57,6.3,
47753190,-0.701,0.306,0.631,23.782,66.902,11.69,
47753190,-0.691,0.308,0.599,24.99,71.172,15.12,
47753210,-0.739,0.331,0.572,24.937,71.33,16.467,
47753210,-0.805,0.357,0.552,22.435,66.36,17.92,
47753230,-0.866,0.384,0.531,17.622,57.137,19.635,
47753230,-0.866,0.391,0.517,12.127,44.31,19.862,
47753250,-0.864,0.402,0.509,6.825,31.57,18.83,
47753250,-0.852,0.386,0.496,0.805,18.55,15.382,
47753260,-0.844,0.348,0.46,-5.425,9.345,6.037,
47753270,-0.935,0.363,0.486,-7.385,-6.265,1.242,
47753280,-0.899,0.312,0.483,-8.592,-26.81,-0.525,
47753290,-0.851,0.37,0.509,-6.387,-45.412,-5.442,
47753300,-0.856,0.406,0.518,-10.045,-63.525,-8.697,
47753310,-0.712,0.35,0.59,-18.935,-77.105,-8.855,
47753320,-0.77,0.314,0.601,-23.117,-75.005,-4.357,
47753330,-0.668,0.258,0.621,-25.27,-69.86,1.312,
47753340,-0.588,0.193,0.655,-15.54,-60.41,3.202,
47753350,-0.646,0.205,0.658,-1.522,-47.95,5.477,
47753360,-0.707,0.247,0.646,14.385,-43.855,7.087,
47753370,-0.625,0.33,0.678,26.18,-44.677,8.872,
47753380,-0.531,0.397,0.687,27.3,-38.027,12.88,
47753390,-0.509,0.428,0.689,21.56,-20.755,16.17,
47753400,-0.598,0.413,0.688,17.57,-3.78,21.595,
47753410,-0.618,0.441,0.684,19.197,7.507,23.695,
47753420,-0.603,0.47,0.686,21.997,15.872,23.24,
47753430,-0.619,0.494,0.676,23.03,23.292,19.337,
47753440,-0.647,0.498,0.644,19.967,27.072,14.735,
47753450,-0.693,0.462,0.595,12.985,28.455,8.592,
47753460,-0.769,0.445,0.566,7.14,24.307,2.94,
47753470,-0.768,0.456,0.545,2.03,16.205,-1.505,
47753480,-0.694,0.472,0.546,-2.275,10.465,-0.91,
47753490,-0.689,0.452,0.547,-6.737,11.305,3.465,
47753500,-0.707,0.44,0.565,-11.97,14.91,6.58,
47753510,-0.71,0.421,0.567,-17.885,17.797,9.17,
47753510,-0.704,0.381,0.589,-22.155,18.777,11.672,
47753530,-0.709,0.356,0.608,-24.762,18.672,13.667,
47753530,-0.697,0.325,0.63,-22.592,15.925,13.265,
47753550,-0.685,0.299,0.654,-19.022,12.53,11.655,
47753550,-0.694,0.282,0.675,-14.262,7.35,6.755,
47753570,-0.623,0.288,0.642,-8.89,3.29,-1.592,
47753570,-0.605,0.306,0.633,0.507,6.352,-6.3,
47753580,-0.72,0.358,0.627,8.767,13.352,-6.265,
47753590,-0.739,0.408,0.584,14.577,14.315,-6.702,
47753600,-0.806,0.401,0.548,11.76,8.802,-8.505,
47753610,-0.859,0.441,0.542,7.98,-1.592,-9.607,
47753620,-0.856,0.364,0.545,1.137,-12.127,-8.872,
47753630,-0.796,0.377,0.594,0.787,-20.912,-6.562,
47753640,-0.708,0.346,0.605,0.367,-23.922,-3.237,
47753650,-0.662,0.35,0.603,5.267,-23.152,-2.397,
47753660,-0.644,0.382,0.624,10.447,-18.2,-1.33,
47753670,-0.649,0.38,0.63,12.057,-12.162,-1.732,
47753680,-0.636,0.407,0.603,13.475,-4.76,-0.822,
47753690,-0.694,0.42,0.592,12.512,1.47,-0.875,
47753700,-0.712,0.388,0.574,10.29,2.765,-3.167,
47753710,-0.733,0.375,0.558,9.957,2.922,-2.24,
47753720,-0.728,0.352,0.583,6.545,-0.21,0.367,
47753730,-0.707,0.305,0.603,2.73,-1.855,1.995,
47753740,-0.661,0.277,0.611,2.835,-1.732,3.57,
47753750,-0.655,0.28,0.628,3.937,-0.245,5.6,
47753760,-0.608,0.319,0.61,6.125,2.572,5.775,
47753770,-0.691,0.362,0.613,7.612,7.752,5.757,
47753780,-0.743,0.401,0.61,7.367,10.36,4.13,
47753790,-0.756,0.411,0.585,6.037,10.692,1.487,
47753800,-0.751,0.405,0.574,4.917,8.837,-1.05,
47753810,-0.734,0.407,0.58,3.64,6.09,-3.115,
47753820,-0.712,0.398,0.582,3.132,3.64,-5.18,
47753830,-0.736,0.433,0.538,3.517,1.085,-8.662,
47753840,-0.632,0.497,0.593,4.585,-6.352,-14.927,
47753850,-0.747,0.486,0.615,-0.507,-3.937,-19.355,
47753860,-0.658,0.436,0.622,-2.642,-1.4,-26.95,
47753870,-0.711,0.405,0.63,-6.93,3.815,-28.822,
47753880,-0.702,0.351,0.631,-13.405,8.505,-26.897,
47753890,-0.682,0.29,0.629,-18.322,16.047,-19.757,
47753900,-0.672,0.275,0.591,-17.885,24.972,-10.762,
47753910,-0.685,0.359,0.575,-14.56,31.955,-6.212,
47753920,-0.774,0.395,0.574,-13.72,33.985,-7.07,
47753920,-0.734,0.435,0.628,-15.68,34.527,-5.687,
47753940,-0.816,0.421,0.609,-24.955,40.6,0.017,
47753940,-0.704,0.307,0.538,-29.12,42.262,2.31,
47753960,-0.738,0.31,0.547,-26.722,41.825,3.43,
47753960,-0.745,0.209,0.448,-20.317,38.762,4.217,
47753980,-0.797,0.349,0.497,-6.16,31.587,4.007,
47753980,-0.937,0.311,0.448,-3.657,23.537,4.462,
47754000,-0.881,0.308,0.446,1.907,5.25,4.795,
47754000,-0.856,0.344,0.499,7.595,-12.197,4.76,
47754010,-0.818,0.336,0.537,8.872,-20.877,4.532,
47754020,-0.767,0.299,0.53,8.68,-23.415,5.197,
47754030,-0.761,0.278,0.518,11.235,-24.99,5.74,
47754040,-0.782,0.32,0.528,17.342,-27.457,7.017,
47754050,-0.842,0.361,0.492,21.875,-32.077,6.86,
47754060,-0.798,0.412,0.483,27.615,-46.725,-0.997,
47754070,-0.86,0.543,0.586,28.98,-59.237,-10.307,
47754080,-0.738,0.489,0.629,20.212,-62.282,-19.617,
47754090,-0.644,0.42,0.638,11.742,-54.74,-21.787,
47754100,-0.609,0.35,0.652,6.737,-41.405,-19.88,
47754110,-0.595,0.307,0.629,8.435,-28.332,-18.06,
47754120,-0.659,0.389,0.663,9.17,-16.642,-15.872,
47754130,-0.732,0.346,0.598,1.12,-5.53,-11.55,
47754140,-0.747,0.331,0.562,-3.832,-3.867,-8.75,
47754150,-0.775,0.346,0.57,-6.877,-6.65,-7.035,
47754160,-0.712,0.267,0.655,-7.717,-5.477,-1.75,
47754170,-0.612,0.248,0.545,-1.68,7,4.9,
47754180,-0.704,0.344,0.597,1.33,15.207,8.312,
47754190,-0.762,0.318,0.56,-2.222,13.09,17.132,
47754200,-0.678,0.326,0.573,-3.92,6.615,24.237,
47754210,-0.686,0.324,0.573,-1.89,5.477,25.41,
47754220,-0.726,0.363,0.578,4.287,8.19,23.94,
47754230,-0.781,0.338,0.531,7.612,8.942,20.65,
47754240,-0.853,0.385,0.534,13.86,0.402,17.447,
47754250,-0.848,0.413,0.555,15.767,-7.315,13.107,
47754260,-0.794,0.374,0.541,12.915,-11.13,6.335,
47754260,-0.753,0.355,0.545,12.705,-13.65,1.487,
47754280,-0.735,0.376,0.569,15.907,-16.345,-0.14,
47754280,-0.726,0.396,0.573,18.007,-16.345,-1.487,
47754300,-0.725,0.39,0.568,18.34,-17.132,-4.042,
47754300,-0.77,0.413,0.52,18.76,-19.197,-7.647,
47754320,-0.761,0.488,0.554,19.46,-32.97,-11.812,
47754320,-0.752,0.479,0.603,15.715,-42.962,-16.1,
47754330,-0.715,0.42,0.594,9.957,-41.51,-19.6,
47754340,-0.671,0.403,0.618,7.612,-34.93,-20.072,
47754350,-0.672,0.462,0.64,6.685,-32.305,-15.995,
47754360,-0.591,0.401,0.669,0.07,-30.73,-12.862,
47754370,-0.606,0.35,0.649,-3.867,-17.395,-13.055,
47754380,-0.624,0.356,0.638,-2.45,-7.595,-10.937,
47754390,-0.7,0.34,0.608,-3.115,-1.662,-7.245,
47754400,-0.611,0.394,0.676,-5.267,1.085,-2.905,
47754410,-0.616,0.327,0.645,-9.397,9.782,-1.295,
47754420,-0.612,0.354,0.655,-5.775,20.335,-0.42,
47754430,-0.746,0.398,0.623,-8.54,31.395,5.197,
47754440,-0.708,0.32,0.562,-13.825,34.16,9.012,
47754450,-0.706,0.336,0.575,-11.34,31.535,10.745,
47754460,-0.757,0.333,0.556,-6.282,30.082,10.692,
47754470,-0.748,0.355,0.54,3.255,27.422,7.122,
47754480,-0.817,0.371,0.489,9.187,20.86,4.165,
47754490,-0.795,0.423,0.55,12.722,8.627,0.28,
47754500,-0.814,0.395,0.553,9.24,1.942,-1.172,
47754510,-0.729,0.361,0.539,8.05,-2.8,-3.22,
47754520,-0.74,0.368,0.57,11.182,-6.755,-3.622,
47754530,-0.73,0.378,0.583,12.215,-7.122,-4.112,
47754540,-0.74,0.363,0.569,10.412,-6.877,-5.635,
47754550,-0.78,0.333,0.544,10.447,-8.435,-5.67,
47754560,-0.789,0.347,0.539,13.79,-13.772,-4.13,
47754570,-0.834,0.365,0.49,16.397,-20.23,-3.85,
47754580,-0.793,0.409,0.49,19.565,-37.292,-9.677,
47754590,-0.815,0.524,0.614,17.552,-49.315,-16.625,
47754600,-0.753,0.391,0.576,4.83,-48.912,-16.677,
47754610,-0.661,0.32,0.568,5.74,-48.387,-20.335,
47754620,-0.677,0.393,0.617,13.195,-49.192,-17.727,
47754630,-0.683,0.414,0.632,13.002,-43.26,-16.257,
47754640,-0.669,0.392,0.616,10.43,-36.295,-14.122,
47754650,-0.706,0.358,0.596,5.25,-27.562,-10.867,
47754660,-0.693,0.343,0.592,6.475,-25.48,-8.032,
47754670,-0.707,0.383,0.602,8.837,-22.4,-4.742,
47754670,-0.695,0.388,0.613,8.417,-20.86,-3.902,
47754690,-0.684,0.391,0.636,6.912,-19.442,-2.642,
47754690,-0.64,0.377,0.66,5.425,-18.147,-1.4,
47754710,-0.55,0.381,0.695,4.602,-11.83,1.102,
47754710,-0.573,0.346,0.709,2.695,3.692,5.705,
47754730,-0.541,0.345,0.661,1.837,13.737,8.54,
47754730,-0.618,0.365,0.631,1.26,22.487,7.84,
47754750,-0.753,0.305,0.544,0.245,27.387,7.577,
47754750,-0.833,0.352,0.539,3.255,18.935,9.03,
47754760,-0.798,0.386,0.59,3.395,8.54,10.535,
47754770,-0.709,0.354,0.597,1.365,3.045,11.725,
47754780,-0.669,0.344,0.595,2.415,1.557,14.14,
47754790,-0.688,0.367,0.607,5.215,0.84,14.647,
47754800,-0.705,0.429,0.64,8.155,1.872,13.667,
47754810,-0.714,0.442,0.613,6.965,4.882,12.285,
47754820,-0.692,0.453,0.604,5.81,5.635,8.697,
47754830,-0.713,0.47,0.595,4.532,5.477,3.71,
47754840,-0.728,0.442,0.579,3.115,3.78,-2.642,
47754850,-0.727,0.395,0.565,2.765,0.612,-7.77,
47754860,-0.729,0.359,0.555,4.602,-3.552,-9.66,
47754870,-0.737,0.351,0.557,8.522,-7.962,-8.872,
47754880,-0.752,0.34,0.549,12.127,-12.285,-6.895,
47754890,-0.743,0.353,0.546,18.13,-19.915,-7.192,
47754900,-0.792,0.432,0.596,22.032,-25.672,-6.055,
47754910,-0.757,0.388,0.572,17.08,-28.087,-3.692,
47754920,-0.773,0.369,0.576,14.262,-32.077,0.822,
47754930,-0.713,0.382,0.569,13.737,-37.905,2.782,
47754940,-0.723,0.434,0.611,13.352,-40.46,5.022,
47754950,-0.741,0.413,0.571,7.7,-42.805,8.032,
47754960,-0.756,0.425,0.58,5.442,-50.207,9.31,
47754970,-0.78,0.381,0.545,3.797,-56.105,10.185,
47754980,-0.759,0.385,0.548,6.265,-56.7,6.405,
47754990,-0.757,0.379,0.573,9.205,-56.63,5.04,
47755000,-0.655,0.35,0.611,8.452,-60.375,4.2,
47755010,-0.591,0.388,0.665,8.12,-54.775,3.85,
47755010,-0.428,0.365,0.676,8.75,-43.207,4.462,
47755030,-0.502,0.423,0.705,11.865,-24.15,0.682,
47755030,-0.479,0.488,0.765,11.585,-14.98,-1.662,
47755050,-0.449,0.526,0.755,7.647,-7.507,-0.402,
47755050,-0.46,0.533,0.745,2.362,1.365,2.222,
47755070,-0.442,0.506,0.738,-2.957,15.05,1.785,
47755070,-0.573,0.436,0.694,-8.155,36.89,-1.225,
47755080,-0.715,0.417,0.636,-7.017,41.23,-5.46,
47755090,-0.667,0.425,0.607,-3.745,30.625,-7.56,
47755100,-0.717,0.441,0.629,-3.605,25.375,-10.762,
47755110,-0.698,0.383,0.614,-5.705,21.875,-13.562,
47755120,-0.675,0.345,0.603,-3.745,19.145,-14.42,
47755130,-0.677,0.353,0.612,0.77,17.482,-13.72,
47755140,-0.689,0.365,0.607,3.867,19.845,-15.96,
47755150,-0.696,0.359,0.597,6.772,25.847,-22.33,
47755160,-0.709,0.349,0.595,10.482,31.132,-29.522,
47755170,-0.771,0.26,0.57,14.595,32.742,-36.032,
47755180,-0.783,0.307,0.555,20.737,35.262,-47.582,
47755190,-0.821,0.295,0.516,27.44,31.465,-49.28,
47755200,-0.828,0.363,0.49,29.172,21.402,-46.13,
47755210,-0.833,0.32,0.521,26.932,2.677,-36.96,
47755220,-0.798,0.384,0.581,25.2,-8.435,-27.93,
47755230,-0.775,0.292,0.54,18.322,-13.265,-21.892,
47755240,-0.765,0.294,0.53,21.42,-18.007,-21.035,
47755250,-0.765,0.355,0.556,28.07,-20.422,-21.945,
47755260,-0.719,0.41,0.583,28.14,-19.11,-20.142,
47755270,-0.691,0.403,0.579,21.875,-19.022,-13.632,
47755280,-0.657,0.422,0.598,18.375,-24.325,-5.827,
47755290,-0.602,0.48,0.63,16.922,-26.74,0.385,
47755300,-0.592,0.52,0.643,13.947,-26.04,3.832,
47755310,-0.624,0.527,0.652,9.887,-24.272,5.565,
47755320,-0.611,0.532,0.67,6.947,-22.522,4.69,
47755330,-0.582,0.531,0.664,3.325,-18.375,6.3,
47755340,-0.568,0.472,0.633,0.805,-15.085,9.485,
47755350,-0.617,0.442,0.61,3.027,-8.522,5.32,
47755360,-0.689,0.448,0.603,5.897,-3.115,-2.485,
47755370,-0.751,0.435,0.584,5.67,-1.995,-6.737,
47755380,-0.752,0.406,0.563,5.11,-6.317,-7.49,
47755390,-0.733,0.372,0.552,4.97,-11.97,-6.58,
47755400,-0.708,0.348,0.57,6.107,-16.992,-5.635,
47755410,-0.69,0.364,0.628,7.962,-18.672,-3.377,
47755420,-0.744,0.409,0.624,6.58,-19.722,-0.28,
47755420,-0.708,0.421,0.573,3.29,-28.892,-2.345,
47755440,-0.81,0.512,0.682,-1.75,-29.68,-6.685,
47755440,-0.661,0.455,0.696,-11.165,-28.297,-8.417,
47755450,-0.601,0.324,0.698,-22.19,-24.535,-6.755,
47755460,-0.65,0.312,0.632,-27.667,-11.182,-8.242,
47755470,-0.538,0.383,0.638,-21.7,-0.927,-11.462,
47755480,-0.454,0.445,0.641,-19.127,9.94,-1.907,
47755490,-0.537,0.431,0.656,-27.3,21.91,11.235,
47755500,-0.539,0.448,0.739,-34.142,35.98,17.5,
47755510,-0.538,0.43,0.755,-43.137,59.797,21.175,
47755520,-0.558,0.332,0.67,-49.052,79.135,23.012,
47755530,-0.54,0.352,0.608,-47.88,89.092,24.762,
47755540,-0.609,0.326,0.566,-47.985,95.987,27.685,
47755550,-0.781,0.261,0.471,-43.575,94.465,30.502,
47755560,-1.003,0.295,0.394,-31.955,73.237,29.855,
47755570,-1.14,0.362,0.304,-16.485,35.122,20.877,
47755580,-1.064,0.576,0.412,-0.682,1.802,7.682,
47755590,-1.095,0.569,0.541,-8.05,-19.337,-0.367,
47755600,-0.824,0.437,0.59,-19.792,-38.762,-6.912,
47755610,-0.576,0.315,0.638,-21.665,-41.947,-12.302,
47755620,-0.562,0.308,0.526,-15.417,-33.005,-17.062,
47755630,-0.545,0.305,0.58,-6.545,-30.642,-22.365,
47755640,-0.694,0.346,0.652,1.12,-24.43,-25.41,
47755650,-0.687,0.348,0.643,6.177,-16.8,-26.162,
47755660,-0.704,0.335,0.634,11.375,-10.097,-28.735,
47755670,-0.742,0.388,0.648,14.385,-1.61,-29.785,
47755680,-0.755,0.392,0.605,10.325,0.735,-29.61,
47755690,-0.854,0.378,0.576,1.015,2.817,-24.745,
47755700,-0.855,0.351,0.557,-7.507,-2.59,-19.337,
47755710,-0.768,0.335,0.591,-13.37,-10.097,-14.962,
47755720,-0.739,0.324,0.603,-17.92,-12.565,-9.765,
47755730,-0.697,0.341,0.637,-19.547,-12.687,-5.862,
47755740,-0.654,0.338,0.667,-22.277,-7.927,-2.677,
47755750,-0.629,0.37,0.678,-25.007,1.452,-0.56,
47755760,-0.594,0.384,0.703,-31.867,18.987,0.822,
47755760,-0.684,0.361,0.688,-40.232,42.157,2.187,
47755780,-0.753,0.254,0.575,-42.752,47.985,2.38,
47755780,-0.693,0.197,0.517,-35.472,41.265,2.1,
47755800,-0.656,0.232,0.491,-24.325,36.89,2.257,
47755800,-0.755,0.26,0.507,-13.562,34.632,2.747,
47755820,-0.828,0.28,0.502,-5.967,25.882,2.45,
47755820,-0.83,0.271,0.453,2.275,15.032,-1.225,
47755830,-0.842,0.301,0.475,11.55,3.622,-5.617,
47755840,-0.898,0.274,0.483,16.94,-4.445,-7.77,
47755850,-0.857,0.276,0.51,22.872,-14.735,-8.942,
47755860,-0.818,0.242,0.531,26.425,-22.312,-9.415,
47755870,-0.847,0.238,0.437,32.585,-32.252,-11.865,
47755880,-0.659,0.296,0.489,44.852,-53.427,-20.65,
47755890,-0.718,0.419,0.63,48.335,-56.805,-22.855,
47755900,-0.774,0.521,0.769,35.122,-51.415,-17.99,
47755910,-0.785,0.482,0.761,9.222,-47.32,-9.765,
47755920,-0.678,0.347,0.693,-12.232,-38.745,-5.145,
47755930,-0.61,0.207,0.647,-15.697,-25.2,-3.255,
47755940,-0.6,0.269,0.647,-6.982,-9.607,2.747,
47755950,-0.617,0.322,0.653,-3.15,1.085,4.235,
47755960,-0.679,0.347,0.648,-6.352,7.91,7.332,
47755970,-0.692,0.426,0.701,-13.545,15.767,10.307,
47755980,-0.702,0.458,0.764,-26.075,23.957,11.252,
47755990,-0.662,0.403,0.783,-39.357,39.025,15.155,
47756000,-0.649,0.379,0.702,-44.345,60.182,15.33,
47756010,-0.663,0.31,0.613,-46.165,66.797,11.69,
47756020,-0.725,0.288,0.545,-42.945,68.18,13.3,
47756030,-0.764,0.244,0.467,-37.52,62.58,14.822,
47756040,-0.792,0.229,0.421,-27.947,46.532,10.64,
47756050,-0.827,0.28,0.432,-16.572,29.032,9.537,
47756060,-0.87,0.292,0.444,-8.61,14.35,9.467,
47756070,-0.861,0.272,0.452,-1.855,-0.35,8.26,
47756080,-0.814,0.222,0.489,4.672,-9.975,5.232,
47756090,-0.78,0.208,0.542,12.792,-10.99,7.735,
47756100,-0.751,0.227,0.563,16.047,-12.092,12.092,
47756110,-0.763,0.185,0.51,15.82,-11.287,12.967,
47756120,-0.755,0.191,0.417,24.727,-26.145,12.32,
47756130,-0.696,0.235,0.424,41.387,-48.807,13.51,
47756140,-0.872,0.317,0.488,54.6,-51.87,13.912,
47756140,-1.01,0.468,0.632,57.347,-59.115,12.845,
47756160,-0.942,0.457,0.677,42.227,-67.655,18.97,
47756160,-0.8,0.415,0.6,23.765,-68.652,22.872,
47756170,-0.716,0.358,0.628,9.31,-62.457,25.987,
47756180,-0.627,0.336,0.638,3.342,-56.56,30.852,
47756190,-0.573,0.341,0.66,4.515,-49.017,33.46,
47756200,-0.616,0.397,0.677,5.337,-36.47,31.43,
47756210,-0.628,0.375,0.623,6.772,-27.195,29.522,
47756220,-0.693,0.406,0.629,7.07,-20.755,25.672,
47756230,-0.721,0.358,0.651,6.632,-18.952,25.095,
47756240,-0.732,0.384,0.618,7.157,-17.955,26.057,
47756250,-0.751,0.409,0.589,5.722,-20.212,26.617,
47756260,-0.709,0.419,0.618,3.71,-26.127,24.797,
47756270,-0.722,0.419,0.64,0.91,-28.595,24.01,
47756280,-0.658,0.396,0.637,-0.927,-28.7,23.187,
47756290,-0.609,0.39,0.659,-1.295,-26.845,20.842,
47756300,-0.605,0.394,0.671,-1.767,-20.825,17.535,
47756310,-0.589,0.392,0.662,-1.382,-13.475,14.507,
47756320,-0.614,0.388,0.651,-0.735,-6.807,12.53,
47756330,-0.645,0.399,0.641,0.14,-2.327,10.237,
47756340,-0.668,0.403,0.635,0.56,-0.385,8.137,
47756350,-0.694,0.403,0.631,0.157,-0.315,7.245,
47756360,-0.703,0.404,0.621,0.087,-2.642,6.667,
47756370,-0.713,0.397,0.615,0.122,-5.88,6.072,
47756380,-0.71,0.391,0.614,0.927,-10.552,5.81,
47756390,-0.706,0.388,0.611,2.187,-14.77,5.985,
47756400,-0.698,0.386,0.606,4.217,-18.532,6.072,
47756410,-0.725,0.391,0.606,6.177,-22.277,6.265,
47756420,-0.731,0.395,0.613,7.122,-28.717,6.632,
47756430,-0.72,0.398,0.635,7.77,-34.282,7.157,
47756440,-0.734,0.38,0.629,8.19,-41.772,5.985,
47756450,-0.688,0.381,0.631,9.59,-46.427,4.305,
47756460,-0.874,0.334,0.684,9.292,-53.445,1.242,
47756470,-0.575,0.424,0.675,9.432,-68.075,-8.172,
47756480,-0.587,0.383,0.639,13.335,-65.957,-9.275,
47756490,-0.625,0.402,0.649,13.772,-59.132,-14.035,
47756500,-0.653,0.401,0.647,13.597,-59.132,-19.495,
47756510,-0.687,0.412,0.642,14.192,-60.795,-26.757,
47756510,-0.653,0.41,0.648,14.665,-65.8,-36.995,
47756530,-0.554,0.408,0.613,13.615,-52.325,-52.045,
47756530,-0.703,0.439,0.657,15.557,-26.11,-68.985,
47756550,-0.763,0.441,0.614,15.312,-14.577,-81.812,
47756550,-0.724,0.402,0.539,19.705,-12.915,-88.585,
47756570,-0.634,0.425,0.561,26.915,-13.475,-82.18,
47756570,-0.674,0.476,0.649,24.815,-21.49,-61.792,
47756580,-0.623,0.455,0.709,12.285,-35.822,-42,
47756590,-0.533,0.336,0.71,0.945,-39.322,-31.377,
47756600,-0.432,0.303,0.631,-0.07,-24.867,-31.5,
47756610,-0.71,0.152,0.705,7.28,-10.115,-37.31,
47756620,-0.68,0.258,0.711,29.347,-30.345,-45.465,
47756630,-0.494,0.362,0.688,45.062,-52.325,-44.485,
47756640,-0.449,0.308,0.687,51.782,-52.815,-48.177,
47756650,-0.474,0.391,0.758,58.747,-43.102,-51.45,
47756660,-0.481,0.41,0.775,56.997,-35.595,-50.557,
47756670,-0.464,0.433,0.784,53.585,-29.925,-46.445,
47756680,-0.479,0.44,0.775,47.477,-25.235,-39.935,
47756690,-0.483,0.449,0.761,42.472,-24.027,-32.76,
47756700,-0.48,0.457,0.746,37.922,-22.172,-25.427,
47756710,-0.501,0.457,0.732,33.635,-19.775,-18.287,
47756720,-0.506,0.464,0.722,30.397,-18.602,-11.392,
47756730,-0.525,0.478,0.727,26.617,-17.57,-2.73,
47756740,-0.546,0.465,0.738,21.42,-17.552,4.585,
47756750,-0.541,0.44,0.742,17.185,-15.225,7.192,
47756760,-0.534,0.423,0.743,14.472,-11.252,6.457,
47756770,-0.541,0.412,0.73,12.757,-6.702,5.407,
47756780,-0.551,0.401,0.711,11.812,-4.147,5.372,
47756790,-0.571,0.393,0.708,11.497,-2.957,6.86,
47756800,-0.574,0.403,0.714,11.252,-3.29,9.345,
47756810,-0.58,0.404,0.708,9.712,-3.185,12.075,
47756820,-0.578,0.4,0.705,8.207,-3.92,14.402,
47756830,-0.59,0.398,0.702,7.262,-4.882,17.15,
47756830,-0.602,0.401,0.69,7.052,-8.347,20.125,
47756850,-0.619,0.408,0.697,7.122,-11.76,22.837,
47756850,-0.661,0.406,0.688,6.335,-16.485,24.517,
47756870,-0.672,0.405,0.675,6.37,-22.767,23.677,
47756870,-0.662,0.416,0.684,8.592,-29.82,21.577,
47756890,-0.684,0.407,0.679,10.027,-36.767,19.32,
47756890,-0.689,0.414,0.684,12.705,-47.11,16.1,
47756910,-0.639,0.442,0.696,16.187,-56.07,12.705,
47756910,-0.59,0.451,0.706,17.71,-61.827,11.497,
47756920,-0.545,0.449,0.706,16.817,-64.295,12.46,
47756930,-0.505,0.444,0.709,15.312,-65.012,14.175,
47756940,-0.483,0.448,0.728,13.65,-62.895,15.627,
47756950,-0.46,0.45,0.739,11.55,-59.867,15.855,
47756960,-0.437,0.451,0.748,10.202,-54.985,15.925,
47756970,-0.419,0.471,0.754,9.537,-49.595,15.855,
47756980,-0.389,0.49,0.759,7.665,-42.175,14.822,
47756990,-0.369,0.489,0.748,5.355,-34.072,13.195,
47757000,-0.394,0.49,0.745,4.427,-25.427,11.287,
47757010,-0.409,0.5,0.749,4.147,-19.355,8.732,
47757020,-0.412,0.504,0.75,3.342,-14.262,4.602,
47757030,-0.424,0.5,0.743,3.202,-10.097,-0.385,
47757040,-0.422,0.507,0.746,3.745,-6.072,-5.18,
47757050,-0.42,0.509,0.74,4.077,-2.485,-8.505,
47757060,-0.422,0.512,0.739,4.147,0.367,-9.782,
47757070,-0.431,0.514,0.746,3.622,3.045,-10.132,
47757080,-0.439,0.515,0.754,1.767,5.442,-10.71,
47757090,-0.433,0.503,0.753,-0.735,8.102,-11.007,
47757100,-0.435,0.486,0.749,-2.835,10.622,-10.745,
47757110,-0.445,0.473,0.749,-4.13,12.635,-10.22,
47757120,-0.458,0.462,0.74,-4.655,13.405,-10.307,
47757130,-0.465,0.449,0.723,-4.427,13.737,-10.762,
47757140,-0.494,0.433,0.718,-2.73,13.16,-12.127,
47757150,-0.514,0.43,0.72,-0.262,12.407,-14.717,
47757160,-0.544,0.416,0.712,2.607,10.325,-17.22,
47757170,-0.55,0.42,0.713,6.825,7.175,-21.997,
47757180,-0.602,0.425,0.724,10.552,-0.402,-27.825,
47757190,-0.54,0.435,0.708,11.97,-14.087,-32.2,
47757200,-0.514,0.438,0.728,11.882,-23.45,-30.922,
47757210,-0.48,0.464,0.726,10.745,-24.727,-27.195,
47757220,-0.522,0.436,0.729,8.82,-21.49,-18.235,
47757230,-0.533,0.441,0.736,7.437,-21.35,-10.43,
47757240,-0.486,0.449,0.736,4.165,-23.467,-3.342,
47757250,-0.422,0.448,0.737,-0.647,-15.785,5.635,
47757260,-0.416,0.437,0.759,-4.13,-3.36,14.63,
47757260,-0.338,0.435,0.785,-8.417,8.172,21.997,
47757280,-0.286,0.46,0.802,-11.9,21,31.115,
47757280,-0.308,0.424,0.822,-10.92,38.272,31.902,
47757300,-0.312,0.422,0.78,-4.147,57.452,22.225,
47757300,-0.358,0.459,0.731,5.372,71.19,9.572,
47757320,-0.483,0.497,0.671,12.95,74.62,-2.31,
47757320,-0.646,0.557,0.646,18.445,68.39,-14.035,
47757330,-0.716,0.588,0.649,18.095,54.162,-22.697,
47757340,-0.756,0.571,0.636,10.43,41.65,-24.132,
47757350,-0.755,0.528,0.648,2.852,28.577,-22.855,
47757360,-0.756,0.489,0.637,-3.08,12.88,-17.832,
47757370,-0.704,0.464,0.633,-9.555,-5.46,-9.24,
47757380,-0.617,0.412,0.651,-15.085,-18.235,-4.077,
47757390,-0.578,0.338,0.683,-16.502,-20.055,-0.84,
47757400,-0.564,0.325,0.707,-11.637,-18.707,2.765,
47757410,-0.503,0.355,0.725,-6.335,-18.812,7.647,
47757420,-0.464,0.4,0.739,-4.182,-14.962,12.775,
47757430,-0.447,0.441,0.745,-4.095,-7.752,16.275,
47757440,-0.478,0.47,0.732,-6.02,-2.152,17.78,
47757450,-0.478,0.505,0.721,-7.175,1.137,15.61,
47757460,-0.454,0.544,0.722,-7.805,4.34,11.742,
47757470,-0.49,0.552,0.728,-10.605,9.695,8.732,
47757480,-0.517,0.507,0.699,-12.827,12.512,4.795,
47757490,-0.518,0.485,0.693,-10.955,13.51,0.315,
47757500,-0.54,0.476,0.687,-8.155,13.037,-3.377,
47757510,-0.526,0.461,0.681,-6.23,12.057,-7.157,
47757520,-0.501,0.438,0.685,-4.55,13.475,-9.8,
47757530,-0.5,0.398,0.696,-2.467,19.897,-12.74,
47757540,-0.536,0.374,0.694,2.467,26.897,-17.342,
47757550,-0.595,0.362,0.673,9.992,29.767,-23.45,
47757560,-0.601,0.402,0.7,17.815,24.412,-28.612,
47757570,-0.661,0.419,0.694,21.472,21.035,-30.275,
47757580,-0.547,0.472,0.691,22.942,20.79,-28.245,
47757580,-0.562,0.519,0.695,15.312,35.525,-19.53,
47757600,-0.677,0.495,0.679,0.612,40.967,-11.585,
47757600,-0.66,0.458,0.661,-8.75,32.532,-5.862,
47757620,-0.609,0.472,0.675,-11.69,27.877,-2.59,
47757620,-0.602,0.468,0.676,-15.925,26.897,-1.382,
47757640,-0.556,0.441,0.68,-18.777,27.86,-2.135,
47757640,-0.459,0.453,0.684,-19.95,36.802,-2.065,
47757660,-0.568,0.417,0.647,-24.535,50.295,3.92,
47757660,-0.645,0.376,0.613,-25.672,52.237,7.49,
47757670,-0.645,0.388,0.609,-21.752,47.897,7.56,
47757680,-0.77,0.336,0.589,-18.742,40.267,6.965,
47757690,-0.723,0.351,0.574,-10.78,23.52,3.552,
47757700,-0.714,0.392,0.595,-2.397,14.507,0.962,
47757710,-0.775,0.407,0.607,0.805,7.017,-0.857,
47757720,-0.785,0.413,0.607,2.975,-3.675,-1.89,
47757730,-0.721,0.441,0.628,5.74,-14.7,-2.082,
47757740,-0.69,0.442,0.637,5.512,-20.107,-2.887,
47757750,-0.613,0.427,0.634,6.755,-22.19,-8.155,
47757760,-0.56,0.428,0.645,11.165,-18.69,-13.685,
47757770,-0.624,0.405,0.643,15.277,-14.472,-16.52,
47757780,-0.65,0.384,0.619,22.802,-23.135,-21.962,
47757790,-0.519,0.481,0.694,30.205,-25.34,-24.815,
47757800,-0.631,0.484,0.693,24.832,-16.502,-21.577,
47757810,-0.587,0.473,0.663,14.437,-12.372,-16.73,
47757820,-0.595,0.453,0.663,5.81,-3.185,-10.377,
47757830,-0.637,0.438,0.655,-1.697,2.607,-4.777,
47757840,-0.637,0.417,0.64,-6.72,2.065,-0.052,
47757850,-0.639,0.424,0.651,-7.472,2.24,1.487,
47757860,-0.626,0.422,0.65,-8.89,1.54,3.062,
47757870,-0.636,0.417,0.645,-11.235,2.1,6.597,
47757880,-0.64,0.414,0.647,-11.97,2.257,10.097,
47757890,-0.607,0.427,0.658,-12.53,2.992,12.04,
47757900,-0.529,0.46,0.668,-14.997,8.067,15.015,
47757910,-0.596,0.458,0.677,-22.732,22.19,21.21,
47757920,-0.661,0.388,0.637,-28.945,28,22.435,
47757930,-0.661,0.341,0.608,-24.237,23.887,18.917,
47757940,-0.577,0.425,0.648,-11.777,18.987,13.317,
47757950,-0.67,0.436,0.627,-6.772,22.102,8.452,
47757960,-0.666,0.45,0.625,-4.882,19.635,2.607,
47757970,-0.732,0.415,0.608,-2.8,17.517,-2.012,
47757980,-0.697,0.414,0.59,1.75,9.1,-7.822,
47757990,-0.651,0.421,0.601,4.742,4.9,-12.95,
47758000,-0.692,0.389,0.576,7.472,2.52,-17.01,
47758010,-0.729,0.378,0.557,15.102,-1.645,-23.502,
47758010,-0.83,0.373,0.568,26.827,-6.65,-31.57,
47758030,-0.918,0.341,0.539,40.827,-31.535,-43.662,
47758030,-0.676,0.499,0.617,57.102,-64.155,-54.985,
47758050,-0.532,0.594,0.703,49.752,-59.027,-50.522,
47758050,-0.679,0.51,0.687,23.66,-40.53,-39.445,
47758070,-0.623,0.408,0.649,3.727,-34.632,-26.932,
47758070,-0.545,0.366,0.667,-2.607,-25.637,-17.675,
47758080,-0.573,0.373,0.685,-4.48,-15.575,-12.565,
47758090,-0.554,0.374,0.686,-7.227,-9.992,-7.962,
47758100,-0.561,0.388,0.679,-10.255,-4.147,-3.045,
47758110,-0.562,0.404,0.673,-13.702,-0.315,5.04,
47758120,-0.565,0.4,0.665,-18.182,3.482,16.03,
47758130,-0.597,0.404,0.677,-20.65,7.245,24.57,
47758140,-0.504,0.43,0.691,-22.277,14.455,28.507,
47758150,-0.488,0.449,0.703,-28.682,36.26,34.282,
47758160,-0.595,0.4,0.663,-37.345,55.352,37.957,
47758170,-0.642,0.362,0.63,-39.357,62.772,35.542,
47758180,-0.753,0.339,0.618,-34.352,61.775,31.867,
47758190,-0.815,0.317,0.579,-24.902,49.805,26.215,
47758200,-0.752,0.374,0.527,-11.48,31.937,18.777,
47758210,-0.805,0.403,0.529,-2.31,22.19,12.757,
47758220,-0.903,0.382,0.534,1.487,9.677,7.7,
47758230,-0.871,0.368,0.511,7.612,-9.117,3.307,
47758240,-0.761,0.408,0.557,15.417,-24.692,-1.662,
47758250,-0.767,0.392,0.571,17.832,-29.365,-5.53,
47758260,-0.776,0.376,0.575,21.315,-36.19,-11.462,
47758270,-0.753,0.391,0.571,28.892,-52.325,-19.775,
47758280,-0.688,0.461,0.607,37.257,-72.327,-30.485,
47758290,-0.589,0.514,0.689,38.272,-76.02,-36.417,
47758300,-0.494,0.51,0.727,31.185,-64.33,-34.142,
47758310,-0.552,0.474,0.701,20.895,-43.925,-25.305,
47758320,-0.533,0.448,0.687,12.582,-33.25,-18.375,
47758330,-0.515,0.452,0.693,5.67,-24.29,-12.197,
47758330,-0.543,0.447,0.697,-0.857,-15.12,-7.945,
47758350,-0.535,0.431,0.699,-7.472,-5.372,-4.83,
47758350,-0.54,0.41,0.686,-13.02,1.312,-1.172,
47758370,-0.567,0.398,0.675,-16.275,7.07,3.272,
47758370,-0.597,0.399,0.671,-16.38,11.602,5.407,
47758390,-0.605,0.424,0.671,-15.522,15.785,5.932,
47758390,-0.512,0.439,0.69,-17.85,23.327,7.945,
47758410,-0.53,0.426,0.678,-24.675,40.897,14.525,
47758410,-0.555,0.396,0.647,-30.695,52.92,20.562,
47758420,-0.539,0.388,0.642,-33.967,63.455,23.327,
47758430,-0.654,0.348,0.635,-35.28,72.467,23.887,
47758440,-0.792,0.298,0.593,-30.03,70.157,20.422,
47758450,-0.855,0.286,0.545,-17.115,55.527,13.58,
47758460,-0.832,0.377,0.519,-1.505,38.15,6.825,
47758470,-0.946,0.391,0.489,7.542,21.595,0.402,
47758480,-0.898,0.448,0.514,13.755,-2.66,-5.25,
47758490,-0.844,0.427,0.569,13.195,-18.935,-5.687,
47758500,-0.824,0.367,0.559,12.757,-30.45,-8.872,
47758510,-0.804,0.332,0.523,18.865,-47.162,-15.89,
47758520,-0.748,0.363,0.562,31.815,-72.397,-26.355,
47758530,-0.752,0.416,0.609,44.677,-84.262,-36.085,
47758540,-0.611,0.453,0.678,52.552,-87.692,-44.135,
47758550,-0.582,0.46,0.664,49.42,-82.267,-41.475,
47758560,-0.572,0.452,0.651,39.532,-69.422,-32.882,
47758570,-0.569,0.432,0.669,26.897,-54.057,-22.207,
47758580,-0.606,0.404,0.668,13.755,-42.437,-12.897,
47758590,-0.612,0.372,0.669,4.182,-36.505,-4.427,
47758600,-0.557,0.413,0.697,-1.627,-34.93,2.1,
47758610,-0.554,0.463,0.721,-10.675,-31.622,10.237,
47758620,-0.533,0.443,0.732,-20.265,-26.897,17.342,
47758630,-0.414,0.42,0.734,-22.82,-17.465,21.105,
47758640,-0.352,0.45,0.783,-22.855,15.137,24.937,
47758650,-0.363,0.441,0.701,-26.005,48.965,28.175,
47758660,-0.399,0.403,0.662,-31.132,64.47,30.905,
47758670,-0.528,0.412,0.652,-31.395,76.457,34.702,
47758680,-0.675,0.365,0.647,-30.135,82.722,35.315,
47758690,-0.887,0.283,0.598,-24.587,75.285,27.457,
47758700,-0.91,0.352,0.541,-7.787,51.362,12.967,
47758710,-0.926,0.415,0.553,5.915,28.735,2.047,
47758720,-0.888,0.448,0.544,11.795,8.015,-6.405,
47758730,-0.791,0.413,0.57,14.385,-7.787,-13.002,
47758740,-0.7,0.368,0.603,18.13,-16.94,-17.71,
47758750,-0.595,0.368,0.65,22.96,-17.955,-21.752,
47758760,-0.645,0.357,0.622,26.705,-14.262,-24.395,
47758760,-0.697,0.366,0.597,34.895,-21.805,-30.975,
47758780,-0.651,0.42,0.627,45.622,-35.647,-40.617,
47758780,-0.643,0.506,0.673,50.137,-31.5,-41.842,
47758800,-0.607,0.476,0.645,43.522,-22.925,-39.567,
47758800,-0.647,0.442,0.604,34.282,-17.762,-34.947,
47758820,-0.634,0.441,0.623,25.865,-15.295,-28,
47758820,-0.63,0.43,0.643,17.517,-11.9,-20.247,
47758830,-0.609,0.423,0.66,8.68,-6.282,-13.475,
47758840,-0.583,0.408,0.672,-0.7,1.172,-7.367,
47758850,-0.586,0.389,0.662,-8.067,7.507,-0.892,
47758860,-0.585,0.401,0.662,-11.392,13.422,6.02,
47758870,-0.611,0.429,0.644,-15.295,19.582,11.83,
47758880,-0.572,0.448,0.65,-21.017,26.267,16.73,
47758890,-0.523,0.492,0.673,-30.537,42.665,24.815,
47758900,-0.609,0.43,0.643,-44.047,63.21,34.002,
47758910,-0.617,0.391,0.62,-50.785,71.137,37.292,
47758920,-0.711,0.352,0.617,-49.945,74.725,38.535,
47758930,-0.785,0.311,0.575,-42.175,71.732,33.687,
47758940,-0.807,0.349,0.526,-28.805,61.32,24.832,
47758950,-0.813,0.393,0.517,-17.29,47.53,16.485,
47758960,-0.909,0.397,0.493,-10.587,33.355,11.41,
47758970,-0.93,0.386,0.463,-3.237,14.647,4.742,
47758980,-0.872,0.432,0.483,5.6,-7.612,-1.837,
47758990,-0.838,0.407,0.539,8.19,-22.645,-7.892,
47759000,-0.795,0.37,0.551,10.01,-32.392,-12.985,
47759010,-0.745,0.331,0.549,14.472,-38.202,-15.4,
47759020,-0.737,0.321,0.54,21.647,-43.47,-18.007,
47759030,-0.722,0.362,0.583,33.372,-55.632,-24.342,
47759040,-0.706,0.406,0.634,38.097,-63.752,-24.447,
47759050,-0.645,0.419,0.619,39.06,-66.22,-22.995,
47759060,-0.611,0.472,0.646,35.822,-59.675,-16.397,
47759070,-0.613,0.455,0.633,24.85,-50.995,-6.142,
47759080,-0.645,0.447,0.62,13.475,-40.932,4.147,
47759080,-0.657,0.408,0.613,4.76,-33.39,8.767,
47759100,-0.598,0.424,0.647,0.91,-28.98,9.38,
47759100,-0.575,0.431,0.658,-3.675,-22.295,12.057,
47759120,-0.589,0.434,0.663,-8.872,-16.24,15.662,
47759120,-0.602,0.447,0.668,-13.877,-10.71,18.742,
47759140,-0.62,0.447,0.656,-18.777,-6.597,21.945,
47759140,-0.586,0.447,0.644,-22.75,-1.417,24.78,
47759160,-0.593,0.435,0.65,-26.915,3.937,28.857,
47759160,-0.559,0.43,0.643,-29.96,9.642,31.57,
47759170,-0.534,0.493,0.661,-33.617,24.15,34.912,
47759180,-0.642,0.411,0.639,-42.035,39.112,38.342,
47759190,-0.721,0.338,0.626,-42.315,40.775,37.292,
47759200,-0.678,0.331,0.614,-32.2,34.387,32.48,
47759210,-0.697,0.379,0.611,-19.967,29.522,25.13,
47759220,-0.745,0.402,0.598,-13.09,23.082,16.59,
47759230,-0.759,0.403,0.596,-6.807,13.895,10.045,
47759240,-0.698,0.409,0.588,0.595,3.482,4.69,
47759250,-0.692,0.44,0.603,7.455,-3.325,-1.277,
47759260,-0.681,0.429,0.621,11.445,-5.022,-9.38,
47759270,-0.679,0.412,0.617,14.752,-5.04,-13.825,
47759280,-0.675,0.402,0.599,18.147,-5.827,-14.735,
47759290,-0.696,0.379,0.613,21.385,-6.352,-15.855,
47759300,-0.714,0.297,0.607,27.527,-10.5,-20.3,
47759310,-0.669,0.324,0.605,42.105,-18.445,-25.602,
47759320,-0.612,0.402,0.614,54.11,-24.15,-28.42,
47759330,-0.62,0.482,0.641,55.405,-21.997,-27.667,
47759340,-0.687,0.491,0.612,46.935,-15.47,-24.115,
47759350,-0.672,0.515,0.606,34.825,-10.85,-21.087,
47759360,-0.682,0.523,0.598,20.842,-6.387,-15.295,
47759370,-0.664,0.524,0.596,6.422,-0.035,-9.485,
47759380,-0.681,0.486,0.627,-7.437,4.095,-4.427,
47759390,-0.606,0.455,0.632,-17.01,4.427,0.367,
47759400,-0.578,0.432,0.634,-21.087,8.802,4.305,
47759410,-0.562,0.436,0.64,-21.122,16.257,4.69,
47759420,-0.538,0.455,0.619,-19.705,23.835,5.302,
47759430,-0.486,0.544,0.653,-23.747,43.067,12.827,
47759440,-0.659,0.417,0.622,-37.502,63.28,22.837,
47759450,-0.695,0.352,0.567,-39.777,64.452,26.74,
47759460,-0.773,0.3,0.557,-32.76,59.482,23.782,
47759470,-0.839,0.342,0.542,-20.475,48.615,17.692,
47759480,-0.865,0.346,0.517,-12.057,34.457,12.547,
47759490,-0.901,0.337,0.469,-4.637,17.78,9.222,
47759500,-0.929,0.34,0.454,5.267,-4.952,6.632,
47759510,-0.962,0.403,0.507,13.387,-27.877,5.495,
47759510,-0.96,0.377,0.528,13.685,-48.002,5.985,
47759530,-0.842,0.379,0.532,16.345,-65.275,6.632,
47759530,-0.846,0.378,0.527,20.842,-77.56,6.72,
47759550,-0.756,0.428,0.533,29.47,-105.665,4.322,
47759550,-0.522,0.576,0.649,34.877,-116.27,3.832,
47759570,-0.455,0.554,0.686,23.467,-89.705,5.215,
47759570,-0.541,0.436,0.641,11.69,-68.81,6.405,
47759580,-0.39,0.465,0.668,11.445,-58.555,4.147,
47759590,-0.404,0.485,0.696,9.957,-38.097,2.292,
47759600,-0.415,0.518,0.72,4.007,-17.85,1.802,
47759610,-0.436,0.487,0.726,-6.23,0.577,3.377,
47759620,-0.419,0.458,0.699,-14.927,14.77,7.402,
47759630,-0.486,0.444,0.667,-20.737,28.507,12.722,
47759640,-0.59,0.457,0.653,-23.747,37.712,15.33,
47759650,-0.546,0.482,0.633,-24.115,44.712,15.75,
47759660,-0.541,0.53,0.633,-28.857,63.507,20.58,
47759670,-0.734,0.432,0.581,-39.69,73.727,25.882,
47759680,-0.78,0.343,0.566,-39.305,61.46,26.932,
47759690,-0.724,0.402,0.599,-26.162,47.495,23.205,
47759700,-0.801,0.382,0.563,-18.34,37.887,17.832,
47759710,-0.753,0.417,0.567,-11.27,26.057,12.39,
47759720,-0.885,0.346,0.548,-5.372,15.75,8.942,
47759730,-0.852,0.356,0.52,6.16,-6.93,3.15,
47759740,-0.752,0.425,0.584,17.57,-22.05,-4.55,
47759750,-0.776,0.409,0.571,20.65,-28.157,-8.767,
47759760,-0.802,0.393,0.54,25.935,-39.042,-13.632,
47759770,-0.765,0.408,0.577,36.102,-60.427,-23.257,
47759780,-0.631,0.487,0.641,44.625,-75.652,-32.287,
47759790,-0.587,0.511,0.647,44.537,-74.287,-34.142,
47759800,-0.507,0.522,0.656,36.05,-65.537,-29.592,
47759810,-0.533,0.492,0.664,26.145,-51.66,-21.245,
47759820,-0.437,0.518,0.658,16.607,-35.105,-11.917,
47759830,-0.533,0.506,0.658,4.777,-15.085,-1.855,
47759830,-0.493,0.502,0.684,-9.38,0,3.78,
47759850,-0.528,0.478,0.682,-21.857,11.97,11.83,
47759850,-0.566,0.482,0.664,-31.22,19.407,22.54,
47759870,-0.56,0.456,0.63,-35.437,25.97,25.287,
47759870,-0.461,0.53,0.645,-34.317,42.472,24.447,
47759890,-0.575,0.45,0.643,-39.13,61.442,28.42,
47759890,-0.597,0.43,0.613,-40.092,66.727,32.48,
47759910,-0.659,0.382,0.607,-37.87,68.932,32.602,
47759910,-0.752,0.371,0.592,-30.362,63.595,29.26,
47759920,-0.799,0.357,0.556,-21.98,52.43,24.325,
47759930,-0.792,0.415,0.56,-11.865,36.907,18.182,
47759940,-0.897,0.371,0.529,-5.477,21.735,13.702,
47759950,-0.846,0.408,0.512,4.742,-3.08,6.912,
47759960,-0.762,0.459,0.565,12.477,-18.917,0.35,
47759970,-0.798,0.432,0.569,13.16,-27.317,-4.515,
47759980,-0.75,0.403,0.562,16.292,-37.502,-7.105,
47759990,-0.812,0.367,0.57,24.202,-48.947,-10.815,
47760000,-0.701,0.427,0.601,36.697,-71.82,-20.772,
47760010,-0.508,0.517,0.656,41.93,-75.32,-23.887,
47760020,-0.53,0.516,0.643,34.265,-60.2,-20.457,
47760030,-0.465,0.545,0.64,21.647,-45.675,-14.577,
47760040,-0.533,0.563,0.647,4.847,-23.222,-4.742,
47760050,-0.632,0.513,0.644,-12.232,-10.325,1.242,
47760060,-0.548,0.497,0.666,-22.067,-7.77,3.762,
47760070,-0.509,0.477,0.685,-29.925,1.505,8.697,
47760080,-0.563,0.432,0.677,-35,11.812,11.935,
47760090,-0.482,0.4,0.682,-29.715,20.405,7.367,
47760100,-0.264,0.573,0.691,-22.172,39.812,6.965,
47760110,-0.594,0.462,0.675,-35.507,76.597,17.57,
47760120,-0.793,0.295,0.576,-40.092,73.5,17.5,
47760130,-0.736,0.347,0.549,-22.067,54.845,10.902,
47760140,-0.772,0.46,0.588,-6.79,43.47,2.45,
47760150,-0.853,0.403,0.515,-5.827,30.642,-2.38,
47760160,-0.816,0.389,0.519,0.402,11.2,-6.352,
47760170,-0.828,0.412,0.559,8.382,-3.78,-7.91,
47760180,-0.805,0.406,0.562,10.867,-15.452,-8.295,
47760190,-0.762,0.36,0.546,12.95,-24.622,-8.96,
47760200,-0.734,0.368,0.565,18.935,-32.672,-9.52,
47760210,-0.706,0.412,0.605,22.907,-36.942,-9.38,
47760220,-0.806,0.348,0.61,22.347,-45.01,-9.642,
47760230,-0.629,0.444,0.604,29.382,-64.312,-13.125,
47760240,-0.506,0.556,0.664,30.257,-60.515,-11.935,
47760250,-0.648,0.472,0.643,18.585,-49.717,-8.4,
47760260,-0.551,0.495,0.636,15.207,-48.667,-7.07,
47760260,-0.487,0.536,0.661,13.02,-36.54,-5.687,
47760270,-0.528,0.517,0.669,3.132,-21.332,-3.15,
47760280,-0.511,0.482,0.681,-6.037,-9.66,-0.717,
47760290,-0.528,0.457,0.681,-11.865,-0.77,4.165,
47760300,-0.543,0.471,0.673,-17.447,6.615,9.012,
47760310,-0.576,0.451,0.66,-23.275,12.53,12.092,
47760320,-0.54,0.454,0.654,-26.057,18.742,16.362,
47760330,-0.606,0.454,0.657,-29.4,24.675,24.71,
47760340,-0.471,0.531,0.625,-32.112,31.255,29.767,
47760350,-0.513,0.53,0.662,-43.102,60.865,37.38,
47760360,-0.761,0.321,0.609,-53.2,71.137,37.537,
47760370,-0.704,0.305,0.599,-41.212,59.64,33.617,
47760380,-0.687,0.391,0.591,-23.73,52.167,24.062,
47760390,-0.792,0.393,0.555,-16.222,44.73,14.997,
47760400,-0.79,0.439,0.553,-10.22,29.417,8.347,
47760410,-0.835,0.391,0.547,-3.955,17.412,4.97,
47760420,-0.775,0.429,0.559,4.987,2.187,-1.627,
47760430,-0.724,0.44,0.587,10.202,-7.472,-8.872,
47760440,-0.724,0.42,0.586,12.092,-12.862,-13.947,
47760450,-0.731,0.392,0.562,14.997,-18.112,-17.587,
47760460,-0.711,0.388,0.594,20.965,-22.382,-22.4,
47760470,-0.922,0.294,0.534,28.735,-36.697,-28.822,
47760480,-0.776,0.423,0.557,46.795,-75.897,-41.912,
47760490,-0.615,0.545,0.672,55.16,-87.517,-46.2,
47760500,-0.557,0.593,0.682,43.75,-79.555,-41.86,
47760510,-0.467,0.56,0.66,18.462,-56.42,-23.73,
47760520,-0.661,0.412,0.64,0.822,-36.347,-10.36,
47760530,-0.512,0.42,0.655,-1.61,-33.285,-6.422,
47760540,-0.489,0.467,0.7,-4.655,-21.017,-3.202,
47760550,-0.509,0.434,0.69,-11.637,-6.002,-0.297,
47760560,-0.462,0.428,0.688,-16.152,4.952,5.092,
47760570,-0.534,0.433,0.679,-18.97,16.66,13.562,
47760580,-0.561,0.435,0.674,-17.937,24.955,14.087,
47760580,-0.477,0.492,0.648,-14.017,35,10.43,
47760600,-0.419,0.586,0.648,-21.035,61.232,16.87,
47760600,-0.647,0.467,0.612,-38.167,83.702,25.235,
47760620,-0.71,0.35,0.593,-44.8,82.915,29.4,
47760620,-0.746,0.32,0.585,-37.642,72.17,30.327,
47760640,-0.745,0.36,0.568,-26.057,60.357,24.412,
47760640,-0.892,0.367,0.537,-16.817,49.122,15.172,
47760660,-0.939,0.366,0.502,-6.965,24.062,6.422,
47760660,-0.86,0.416,0.51,4.655,-0.735,1.592,
47760670,-0.868,0.41,0.53,11.952,-18.182,-5.425,
47760680,-0.824,0.386,0.546,16.782,-32.97,-13.072,
47760690,-0.823,0.347,0.554,22.137,-46.095,-15.872,
47760700,-0.904,0.302,0.533,34.265,-70.63,-25.322,
47760710,-0.699,0.436,0.596,54.197,-103.11,-43.382,
47760720,-0.571,0.503,0.654,63.84,-109.2,-54.792,
47760730,-0.548,0.496,0.682,63.157,-102.427,-56.21,
47760740,-0.423,0.548,0.734,50.837,-86.765,-45.605,
47760750,-0.378,0.553,0.656,27.37,-58.24,-21.63,
47760760,-0.543,0.503,0.657,6.79,-26.04,-2.205,
47760770,-0.604,0.449,0.671,-9.397,-10.622,4.795,
47760780,-0.514,0.44,0.691,-15.697,-7.542,6.772,
47760790,-0.484,0.419,0.695,-19.25,3.64,12.827,
47760800,-0.442,0.46,0.703,-21.21,19.792,17.92,
47760810,-0.468,0.472,0.709,-26.285,49.682,22.89,
47760820,-0.459,0.452,0.661,-31.622,70.857,26.635,
47760830,-0.51,0.455,0.609,-36.522,83.947,34.23,
47760840,-0.635,0.426,0.603,-40.285,93.03,38.99,
47760850,-0.872,0.317,0.548,-38.832,88.287,34.247,
47760860,-0.889,0.338,0.541,-23.537,63.805,22.12,
47760870,-0.886,0.417,0.533,-7.49,40.075,12.18,
47760880,-0.923,0.417,0.492,0.682,15.382,3.867,
47760890,-0.852,0.437,0.516,8.33,-9.17,-5.162,
47760900,-0.823,0.393,0.56,12.932,-25.602,-11.392,
47760910,-0.758,0.362,0.565,17.377,-36.75,-13.755,
47760920,-0.881,0.275,0.524,25.182,-50.155,-18.41,
47760930,-0.847,0.361,0.56,42.682,-85.33,-31.92,
47760940,-0.672,0.514,0.628,56.262,-108.85,-41.877,
47760950,-0.568,0.568,0.661,54.075,-109.672,-45.937,
47760960,-0.564,0.54,0.703,36.452,-99.75,-39.9,
47760960,-0.45,0.493,0.66,17.01,-83.65,-25.602,
47760980,-0.488,0.471,0.653,8.89,-62.037,-12.057,
47760980,-0.505,0.457,0.684,2.59,-42,-5.39,
47761000,-0.476,0.443,0.702,-4.567,-28,-1.872,
47761000,-0.43,0.449,0.739,-9.94,-12.022,2.8,
47761010,-0.438,0.449,0.725,-17.832,3.43,12.652,
47761020,-0.5,0.424,0.698,-23.695,17.202,22.435,
47761030,-0.324,0.507,0.707,-22.295,37.957,28.192,
47761040,-0.309,0.563,0.715,-31.43,82.407,40.232,
47761050,-0.502,0.427,0.653,-45.447,113.697,44.87,
47761060,-0.713,0.315,0.59,-47.285,116.83,41.265,
47761070,-0.859,0.343,0.569,-32.637,100.73,30.835,
47761080,-0.92,0.385,0.537,-14.647,76.72,17.36,
47761090,-0.931,0.422,0.503,-3.797,46.235,7.63,
47761100,-0.951,0.407,0.489,2.467,17.307,1.47,
47761110,-0.86,0.427,0.527,10.902,-10.027,-5.495,
47761120,-0.763,0.402,0.582,14.42,-25.182,-10.5,
47761130,-0.749,0.347,0.577,16.152,-32.672,-12.32,
47761140,-0.795,0.312,0.582,23.117,-40.355,-14.682,
47761150,-0.848,0.307,0.57,36.995,-63.945,-24.167,
47761160,-0.645,0.472,0.647,52.78,-89.547,-33.302,
47761170,-0.497,0.55,0.685,52.902,-88.235,-33.687,
47761180,-0.5,0.561,0.675,39.567,-75.39,-24.605,
47761190,-0.53,0.518,0.664,20.195,-59.902,-13.492,
47761200,-0.478,0.489,0.635,6.37,-44.45,-4.847,
47761210,-0.544,0.482,0.648,0.017,-27.492,2.502,
47761220,-0.549,0.493,0.678,-8.452,-14.175,7.822,
47761230,-0.581,0.422,0.664,-16.257,-6.23,12.232,
47761240,-0.603,0.402,0.662,-14.455,-4.147,14.84,
47761250,-0.643,0.423,0.67,-9.187,-2.73,17.255,
47761260,-0.635,0.419,0.682,-4.882,-3.307,16.485,
47761270,-0.64,0.402,0.647,-1.155,-2.747,15.12,
47761280,-0.598,0.43,0.637,1.645,-5.512,12.967,
47761290,-0.592,0.452,0.66,1.732,-4.287,11.007,
47761300,-0.684,0.375,0.687,-0.875,-6.895,9.485,
47761310,-0.433,0.446,0.639,2.327,-8.435,6.23,
47761320,-0.633,0.484,0.646,6.02,4.025,5.582,
47761330,-0.803,0.402,0.645,3.465,0.332,0.665,
47761330,-0.632,0.429,0.593,6.702,-18.007,-5.6,
47761350,-0.688,0.491,0.631,12.845,-22.12,-5.232,
47761350,-0.711,0.465,0.627,10.36,-28.035,-4.235,
47761370,-0.644,0.445,0.612,8.19,-36.085,-4.69,
47761370,-0.568,0.465,0.64,9.52,-38.657,-7.525,
47761390,-0.46,0.541,0.642,5.932,-31.325,-9.59,
47761390,-0.488,0.588,0.682,-5.285,-12.18,-8.032,
47761410,-0.576,0.539,0.688,-21.927,2.905,-7.77,
47761410,-0.55,0.458,0.676,-30.152,7.542,-8.715,
47761420,-0.579,0.414,0.68,-27.93,10.412,-8.26,
47761430,-0.566,0.447,0.697,-21.542,11.34,-11.095,
47761440,-0.526,0.448,0.693,-18.462,14.927,-14.157,
47761450,-0.515,0.427,0.683,-16.887,21.332,-16.012,
47761460,-0.492,0.436,0.698,-15.207,30.187,-16.59,
47761470,-0.485,0.444,0.703,-15.557,41.912,-16.712,
47761480,-0.485,0.461,0.715,-17.815,55.09,-17.745,
47761490,-0.512,0.487,0.724,-22.067,68.337,-20.44,
47761500,-0.462,0.491,0.795,-27.912,81.97,-22.382,
47761510,-0.711,0.393,0.784,-35.787,100.24,-18.077,
47761520,-0.858,0.422,0.714,-38.185,87.745,-18.882,
47761530,-0.794,0.459,0.772,-42.245,65.905,-17.64,
47761540,-0.896,0.384,0.55,-53.112,35.052,-8.977,
47761550,-0.568,0.253,0.399,-59.482,25.637,-6.44,
47761560,-0.768,0.265,0.424,-41.457,37.887,-9.957,
47761570,-0.77,0.269,0.426,-27.842,37.135,-13.912,
47761580,-0.807,0.268,0.426,-18.165,28.245,-10.325,
47761590,-0.839,0.248,0.479,-9.887,18.777,-6.072,
47761600,-0.848,0.274,0.537,-3.272,8.102,-2.205,
47761610,-0.858,0.257,0.566,-0.455,-4.007,-0.647,
47761620,-0.736,0.265,0.552,3.202,-21.735,0.175,
47761630,-0.629,0.328,0.541,7.297,-34.51,2.607,
47761640,-0.637,0.393,0.623,7.402,-33.267,6.125,
47761650,-0.74,0.434,0.696,3.552,-25.007,9.992,
47761660,-0.696,0.473,0.744,-2.082,-19.635,11.27,
47761670,-0.675,0.43,0.705,-10.85,-10.972,10.57,
47761670,-0.573,0.378,0.622,-13.58,-5.827,7.07,
47761690,-0.562,0.37,0.608,-10.167,1.697,6.65,
47761690,-0.617,0.396,0.629,-5.512,9.415,7.402,
47761710,-0.651,0.421,0.655,-3.342,16.73,5.565,
47761710,-0.678,0.436,0.665,-4.34,22.26,2.222,
47761730,-0.689,0.446,0.659,-7.997,26.81,-0.455,
47761730,-0.715,0.452,0.651,-13.527,27.405,-1.015,
47761750,-0.72,0.439,0.656,-19.337,24.535,1.085,
47761750,-0.681,0.442,0.648,-24.71,17.167,6.982,
47761760,-0.565,0.369,0.682,-31.85,22.522,11.865,
47761770,-0.662,0.264,0.623,-30.695,39.462,11.847,
47761780,-0.609,0.26,0.567,-23.782,43.872,7.91,
47761790,-0.7,0.265,0.54,-17.482,47.792,7.682,
47761800,-0.793,0.266,0.514,-11.847,45.99,7.682,
47761810,-0.897,0.249,0.453,-5.547,36.925,7.332,
47761820,-0.92,0.286,0.422,2.38,21.437,5.442,
47761830,-0.954,0.328,0.49,6.895,7.35,4.585,
47761840,-0.95,0.359,0.565,6.352,-6.09,5.477,
47761850,-0.817,0.326,0.573,2.94,-18.935,5.967,
47761860,-0.684,0.293,0.568,3.097,-25.41,7.437,
47761870,-0.645,0.335,0.501,6.09,-26.722,10.115,
47761880,-0.627,0.394,0.519,9.397,-33.6,9.87,
47761890,-0.77,0.442,0.593,11.287,-36.627,7.7,
47761900,-0.801,0.491,0.641,10.762,-38.587,3.57,
47761910,-0.74,0.472,0.673,5.39,-38.22,-1.592,
47761920,-0.716,0.433,0.691,-0.017,-29.82,-1.487,
47761930,-0.659,0.381,0.647,-5.022,-21.472,-1.19,
47761940,-0.595,0.349,0.643,-5.6,-13.912,-2.415,
47761950,-0.607,0.338,0.649,-7.087,-4.182,-2.205,
47761960,-0.656,0.331,0.635,-7.945,4.655,-1.505,
47761970,-0.712,0.368,0.625,-9.17,9.712,-0.28,
47761980,-0.776,0.406,0.626,-13.51,9.38,1.067,
47761990,-0.763,0.412,0.65,-18.742,6.527,2.275,
47762000,-0.679,0.385,0.72,-24.167,11.41,5.67,
47762010,-0.665,0.351,0.687,-28.315,24.675,7.437,
47762020,-0.585,0.341,0.651,-30.66,28.07,3.99,
47762030,-0.654,0.347,0.657,-29.592,32.742,3.22,
47762040,-0.712,0.39,0.657,-30.292,25.34,4.462,
47762050,-0.64,0.289,0.521,-33.11,24.237,2.712,
47762060,-0.783,0.299,0.507,-23.642,26.81,0.63,
47762070,-0.763,0.303,0.476,-15.067,21.07,0.192,
47762080,-0.789,0.298,0.457,-8.102,13.93,1.26,
47762080,-0.806,0.279,0.508,-3.202,7.525,1.645,
47762100,-0.801,0.293,0.576,-0.437,3.045,0.052,
47762100,-0.786,0.276,0.602,0.087,1.487,-1.802,
47762120,-0.807,0.298,0.6,-0.805,0.315,-2.975,
47762120,-0.842,0.29,0.564,-2.257,-10.027,-6.212,
47762140,-0.735,0.315,0.54,-0.927,-27.79,-9.8,
47762140,-0.752,0.355,0.579,1.435,-30.45,-10.325,
47762160,-0.72,0.413,0.669,-2.537,-28.14,-7.455,
47762160,-0.808,0.387,0.703,-15.12,-18.445,0,
47762170,-0.753,0.328,0.662,-27.545,-17.185,2.555,
47762180,-0.657,0.302,0.63,-36.015,-17.412,4.847,
47762190,-0.653,0.301,0.613,-41.58,-12.442,10.902,
47762200,-0.652,0.294,0.612,-45.167,-6.562,17.605,
47762210,-0.633,0.3,0.637,-46.725,0.665,20.877,
47762220,-0.651,0.283,0.649,-47.6,16.66,23.485,
47762230,-0.722,0.274,0.638,-46.952,39.252,23.712,
47762240,-0.781,0.256,0.598,-45.552,50.522,20.79,
47762250,-0.768,0.258,0.557,-39.76,50.312,22.977,
47762260,-0.77,0.289,0.533,-37.065,44.555,27.265,
47762270,-0.759,0.257,0.546,-33.127,35.105,26.687,
47762280,-0.765,0.249,0.566,-23.555,23.957,24.885,
47762290,-0.706,0.333,0.584,-11.182,12.547,20.685,
47762300,-0.708,0.324,0.566,-1.872,4.55,16.59,
47762310,-0.712,0.381,0.564,9.695,-1.907,11.252,
47762320,-0.754,0.434,0.58,17.622,-8.54,6.282,
47762330,-0.731,0.475,0.603,18.847,-14.63,4.322,
47762340,-0.775,0.386,0.567,15.487,-17.745,4.41,
47762350,-0.75,0.33,0.535,18.357,-21.752,1.855,
47762360,-0.877,0.282,0.531,24.272,-25.252,-0.14,
47762370,-0.851,0.228,0.474,36.015,-49.892,-9.765,
47762380,-0.734,0.399,0.576,48.09,-68.582,-14.035,
47762390,-0.751,0.424,0.701,41.72,-62.807,-10.64,
47762400,-0.761,0.414,0.717,25.06,-56.892,-6.79,
47762410,-0.691,0.319,0.676,5.792,-50.33,3.85,
47762420,-0.625,0.28,0.689,-2.677,-40.967,11.252,
47762420,-0.559,0.264,0.699,-6.65,-31.097,15.627,
47762440,-0.515,0.316,0.724,-8.015,-19.092,20.702,
47762440,-0.528,0.343,0.72,-13.615,-3.097,24.272,
47762460,-0.51,0.343,0.68,-17.027,11.655,25.042,
47762460,-0.496,0.483,0.708,-20.142,37.73,29.715,
47762480,-0.722,0.389,0.704,-30.24,64.855,36.347,
47762480,-0.755,0.346,0.644,-31.972,64.627,34.615,
47762500,-0.661,0.358,0.573,-26.635,57.855,32.62,
47762500,-0.726,0.325,0.531,-19.862,52.85,27.93,
47762510,-0.778,0.31,0.501,-10.412,39.322,21.227,
47762520,-0.791,0.389,0.55,-0.63,27.772,16.537,
47762530,-0.852,0.352,0.556,3.465,17.132,12.267,
47762540,-0.849,0.368,0.538,9.397,4.567,7.157,
47762550,-0.816,0.372,0.563,13.772,-6.282,1.75,
47762560,-0.815,0.337,0.576,14.49,-13.597,-0.245,
47762570,-0.795,0.297,0.555,16.012,-20.65,-1.19,
47762580,-0.904,0.253,0.558,21.63,-28.087,-3.36,
47762590,-0.824,0.225,0.53,34.405,-55.142,-13.58,
47762600,-0.707,0.459,0.64,46.305,-71.662,-17.902,
47762610,-0.683,0.449,0.673,38.64,-69.02,-16.642,
47762620,-0.659,0.42,0.651,25.9,-62.44,-10.15,
47762630,-0.655,0.414,0.619,13.335,-56.42,-2.1,
47762640,-0.656,0.401,0.634,3.605,-50.592,3.482,
47762650,-0.583,0.399,0.653,-2.817,-45.535,5.39,
47762660,-0.55,0.414,0.698,-9.642,-34.65,8.977,
47762670,-0.528,0.404,0.721,-17.465,-19.6,11.357,
47762680,-0.529,0.427,0.696,-25.06,-5.74,15.575,
47762690,-0.535,0.483,0.688,-33.18,11.847,19.425,
47762700,-0.612,0.394,0.69,-39.392,30.257,21.245,
47762710,-0.622,0.381,0.677,-35.892,42.84,20.895,
47762720,-0.567,0.376,0.64,-32.27,49.822,19.495,
47762730,-0.591,0.294,0.631,-28.367,55.982,18.497,
47762740,-0.585,0.364,0.627,-20.825,59.272,17.85,
47762750,-0.783,0.32,0.603,-21.157,61.25,18.06,
47762760,-0.802,0.257,0.568,-14.84,46.672,12.18,
47762770,-0.81,0.323,0.553,-3.062,30.257,10.132,
47762780,-0.837,0.351,0.536,4.077,14.07,5.635,
47762790,-0.874,0.389,0.543,9.66,0.822,0.367,
47762800,-0.858,0.383,0.575,12.442,-9.975,-5.25,
47762810,-0.848,0.366,0.562,11.042,-19.95,-6.44,
47762820,-0.793,0.316,0.551,12.512,-30.17,-6.16,
47762830,-0.779,0.325,0.593,17.412,-35.997,-7.857,
47762830,-0.91,0.225,0.586,23.52,-50.347,-13.475,
47762850,-0.589,0.351,0.662,38.5,-75.932,-23.537,
47762850,-0.549,0.459,0.712,38.692,-69.58,-19.775,
47762870,-0.649,0.364,0.659,28.157,-59.43,-17.447,
47762870,-0.597,0.418,0.639,23.03,-56.385,-12.18,
47762890,-0.658,0.434,0.648,17.692,-47.162,-7.332,
47762890,-0.648,0.439,0.626,11.287,-42.49,-4.48,
47762910,-0.617,0.48,0.647,1.382,-33.022,1.4,
47762910,-0.659,0.391,0.66,-10.43,-24.902,6.247,
47762920,-0.584,0.378,0.694,-16.117,-21.7,9.467,
47762930,-0.549,0.377,0.708,-20.947,-16.275,13.632,
47762940,-0.535,0.331,0.707,-22.785,-8.33,15.697,
47762950,-0.476,0.381,0.703,-20.125,3.132,15.89,
47762960,-0.459,0.482,0.673,-23.677,24.062,18.707,
47762970,-0.567,0.444,0.694,-34.44,50.155,22.995,
47762980,-0.674,0.343,0.666,-38.552,60.287,22.907,
47762990,-0.631,0.321,0.659,-34.895,59.92,23.275,
47763000,-0.595,0.377,0.654,-27.615,59.22,20.317,
47763010,-0.738,0.285,0.629,-24.29,59.587,19.11,
47763020,-0.82,0.273,0.607,-15.102,47.495,12.74,
47763030,-0.709,0.314,0.579,-1.645,27.79,6.457,
47763040,-0.76,0.409,0.59,5.985,17.727,3.43,
47763050,-0.847,0.364,0.573,7.822,9.887,-0.315,
47763060,-0.824,0.404,0.582,10.832,-1.102,-1.767,
47763070,-0.844,0.373,0.584,8.33,-11.76,-1.207,
47763080,-0.809,0.351,0.586,8.522,-22.067,-0.455,
47763090,-0.765,0.343,0.609,11.462,-27.142,-1.47,
47763100,-0.864,0.214,0.632,16.415,-37.887,-4.06,
47763110,-0.52,0.322,0.667,31.22,-59.78,-9.415,
47763120,-0.484,0.473,0.723,31.867,-47.915,-1.645,
47763130,-0.63,0.361,0.656,21.472,-33.827,-3.027,
47763140,-0.616,0.417,0.64,18.095,-27.125,-1.75,
47763150,-0.651,0.449,0.631,14.525,-21.875,1.172,
47763160,-0.651,0.48,0.612,6.37,-17.08,5.95,
47763170,-0.655,0.471,0.629,-4.55,-12.495,7.612,
47763170,-0.635,0.412,0.662,-13.72,-11.76,7.805,
47763190,-0.582,0.372,0.689,-16.065,-10.972,6.72,
47763190,-0.556,0.371,0.702,-15.645,-6.93,6.457,
47763210,-0.547,0.374,0.689,-13.352,0.63,5.827,
47763210,-0.537,0.479,0.638,-13.685,12.355,7.525,
47763230,-0.633,0.482,0.62,-24.325,25.602,9.905,
47763230,-0.759,0.398,0.619,-33.6,27.002,10.675,
47763250,-0.769,0.33,0.617,-33.862,18.97,12.967,
47763250,-0.652,0.392,0.625,-29.05,11.987,13.755,
47763260,-0.745,0.323,0.671,-29.435,11.812,15.277,
47763270,-0.687,0.266,0.658,-25.812,4.515,13.265,
47763280,-0.599,0.363,0.666,-18.165,3.727,13.632,
47763290,-0.662,0.323,0.651,-19.267,7.105,12.897,
47763300,-0.715,0.317,0.653,-15.645,6.982,12.6,
47763310,-0.695,0.333,0.644,-10.675,3.045,10.552,
47763320,-0.705,0.344,0.643,-5.022,-1.697,6.895,
47763330,-0.665,0.365,0.643,1.732,-6.825,2.747,
47763340,-0.672,0.427,0.659,6.352,-7.647,-0.63,
47763350,-0.658,0.4,0.656,4.515,-7.927,-1.435,
47763360,-0.671,0.404,0.643,2.87,-8.19,0.07,
47763370,-0.657,0.394,0.634,2.152,-8.452,-0.087,
47763380,-0.655,0.401,0.639,3.955,-6.685,-2.397,
47763390,-0.678,0.385,0.678,5.145,-3.307,-3.885,
47763400,-0.699,0.206,0.693,9.73,-6.615,-6.597,
47763410,-0.516,0.354,0.667,24.237,-6.387,-10.272,
47763420,-0.609,0.357,0.668,22.697,-1.802,-9.415,
47763430,-0.709,0.377,0.649,18.427,0.157,-5.407,
47763440,-0.685,0.435,0.61,11.707,-0.805,-1.05,
47763450,-0.73,0.364,0.615,4.27,-2.485,0.455,
47763460,-0.69,0.404,0.626,2.24,-7.28,2.852,
47763470,-0.671,0.404,0.641,-0.875,-8.96,4.34,
47763480,-0.64,0.377,0.669,-4.13,-11.235,4.392,
47763490,-0.573,0.389,0.686,-6.23,-7.595,4.742,
47763500,-0.579,0.358,0.685,-8.172,-1.575,5.337,
47763510,-0.549,0.37,0.688,-7.385,5.46,4.287,
47763520,-0.596,0.38,0.678,-7.245,12.477,3.045,
47763530,-0.624,0.493,0.603,-8.452,19.022,3.115,
47763540,-0.799,0.485,0.581,-19.285,20.405,7.035,
47763550,-0.928,0.389,0.588,-26.88,8.54,7.56,
47763560,-0.774,0.35,0.631,-22.855,-7.28,6.702,
47763570,-0.639,0.353,0.667,-18.217,-13.807,6.02,
47763580,-0.585,0.283,0.689,-13.965,-12.6,3.832,
47763580,-0.576,0.329,0.689,-6.335,-6.877,2.625,
47763600,-0.603,0.306,0.669,-1.855,-2.222,0.297,
47763600,-0.648,0.355,0.65,6.3,1.312,-3.062,
47763620,-0.703,0.388,0.625,10.535,1.417,-4.34,
47763620,-0.736,0.398,0.617,10.867,-1.872,-4.917,
47763640,-0.77,0.411,0.607,9.922,-8.032,-5.302,
47763640,-0.76,0.394,0.611,9.275,-14.542,-6.65,
47763660,-0.71,0.371,0.649,11.042,-19.687,-8.942,
47763660,-0.62,0.241,0.72,13.282,-19.705,-9.362,
47763670,-0.526,0.278,0.675,23.747,-14.437,-10.167,
47763680,-0.549,0.268,0.706,28.787,-12.425,-10.517,
47763690,-0.586,0.321,0.694,35.157,-11.567,-11.515,
47763700,-0.638,0.355,0.669,38.867,-10.587,-12.005,
47763710,-0.625,0.412,0.644,40.722,-9.17,-15.592,
47763720,-0.748,0.424,0.641,38.762,-8.032,-15.54,
47763730,-0.715,0.452,0.577,36.802,-15.662,-16.642,
47763740,-0.8,0.452,0.59,32.13,-16.572,-13.632,
47763750,-0.756,0.441,0.604,26.897,-26.092,-13.79,
47763760,-0.664,0.457,0.62,20.422,-29.802,-10.675,
47763770,-0.598,0.426,0.629,12.845,-26.32,-9.292,
47763780,-0.597,0.407,0.66,6.982,-18.025,-7.962,
47763790,-0.6,0.369,0.683,4.62,-13.107,-8.417,
47763800,-0.549,0.41,0.703,3.955,-9.52,-6.195,
47763810,-0.585,0.404,0.695,-1.085,-1.68,-2.24,
47763820,-0.573,0.403,0.674,-5.565,4.585,-0.262,
47763830,-0.582,0.408,0.674,-9.765,11.165,2.292,
47763840,-0.607,0.417,0.667,-14.822,16.887,5.162,
47763850,-0.612,0.399,0.661,-17.99,21.962,6.335,
47763860,-0.584,0.43,0.659,-18.865,27.125,6.702,
47763870,-0.538,0.551,0.602,-24.027,38.692,10.097,
47763880,-0.655,0.438,0.64,-37.432,54.652,15.085,
47763890,-0.668,0.387,0.629,-39.147,57.715,14.017,
47763900,-0.667,0.364,0.619,-37.17,60.567,17.237,
47763910,-0.794,0.245,0.607,-33.495,55.037,15.802,
47763920,-0.754,0.215,0.592,-18.55,39.69,11.357,
47763920,-0.665,0.367,0.593,-1.627,27.282,6.09,
47763940,-0.838,0.339,0.581,2.415,22.802,6.02,
47763940,-0.898,0.341,0.547,6.02,6.265,2.992,
47763960,-0.905,0.419,0.549,10.832,-10.937,0.227,
47763960,-0.903,0.389,0.541,10.937,-25.095,-1.855,
47763980,-0.83,0.373,0.564,12.88,-38.902,-2.887,
47763980,-0.755,0.354,0.606,15.05,-46.077,-4.077,
47764000,-0.838,0.225,0.601,21.297,-59.727,-10.657,
47764000,-0.536,0.372,0.691,40.442,-80.902,-23.117,
47764010,-0.501,0.417,0.722,48.615,-71.26,-25.077,
47764020,-0.503,0.432,0.681,47.075,-55.44,-28.035,
47764030,-0.487,0.531,0.647,39.025,-37.432,-23.065,
47764040,-0.701,0.485,0.627,21.437,-17.745,-13.072,
47764050,-0.704,0.409,0.605,10.08,-21.035,-9.537,
47764060,-0.597,0.444,0.64,4.935,-21.175,-7,
47764070,-0.611,0.385,0.664,-2.782,-14.297,-5.355,
47764080,-0.578,0.371,0.685,-6.667,-8.487,-3.78,
47764090,-0.56,0.366,0.688,-7.332,-2.17,-1.54,
47764100,-0.561,0.393,0.685,-8.96,5.67,-0.262,
47764110,-0.602,0.397,0.683,-12.005,14.14,-0.63,
47764120,-0.588,0.418,0.684,-14.035,21.682,-2.292,
47764130,-0.609,0.421,0.691,-17.64,28.507,-2.992,
47764140,-0.607,0.432,0.69,-20.02,33.302,-3.762,
47764150,-0.445,0.524,0.61,-21.525,41.772,-3.587,
47764160,-0.524,0.682,0.657,-39.427,75.81,7.542,
47764170,-0.944,0.213,0.607,-64.19,85.277,14.42,
47764180,-0.775,0.212,0.557,-45.99,60.042,13.177,
47764190,-0.738,0.24,0.551,-23.047,41.247,8.68,
47764200,-0.72,0.312,0.579,-5.985,27.982,0.577,
47764210,-0.796,0.336,0.56,1.137,20.755,-1.12,
47764220,-0.816,0.309,0.55,6.702,11.865,-6.247,
47764230,-0.874,0.291,0.536,13.422,5.145,-8.295,
47764240,-0.911,0.312,0.521,19.285,-5.74,-8.592,
47764250,-1.025,0.278,0.486,21.875,-21.192,-8.032,
47764260,-0.942,0.257,0.473,30.94,-55.037,-16.222,
47764270,-0.824,0.392,0.576,45.185,-81.795,-23.117,
47764280,-0.733,0.424,0.634,48.177,-89.04,-27.685,
47764290,-0.718,0.413,0.637,42.822,-88.83,-26.897,
47764300,-0.591,0.436,0.643,35.56,-93.17,-23.012,
47764310,-0.599,0.396,0.656,24.605,-86.45,-15.89,
47764320,-0.56,0.386,0.679,17.78,-76.51,-10.972,
47764330,-0.493,0.39,0.693,14.612,-66.885,-8.172,
47764330,-0.424,0.452,0.742,8.102,-49.315,-1.697,
47764350,-0.501,0.427,0.748,-5.04,-27.37,8.295,
47764350,-0.405,0.408,0.752,-12.617,-12.967,13.527,
47764370,-0.344,0.452,0.792,-20.195,5.25,20.3,
47764370,-0.438,0.386,0.752,-28.945,25.777,24.885,
47764390,-0.29,0.405,0.718,-23.467,47.39,20.51,
47764390,-0.453,0.424,0.709,-22.837,90.772,20.86,
47764400,-0.668,0.356,0.613,-23.94,112.122,22.295,
47764410,-0.799,0.409,0.549,-23.467,108.027,22.662,
47764420,-0.987,0.419,0.508,-25.585,94.797,19.967,
47764430,-1.113,0.262,0.479,-23.222,65.135,13.737,
47764440,-0.931,0.364,0.504,-9.065,23.502,6.125,
47764450,-0.869,0.371,0.544,-3.202,-1.522,1.592,
47764460,-0.772,0.336,0.586,1.627,-14.595,-3.535,
47764470,-0.735,0.347,0.61,5.53,-18.707,-4.357,
47764480,-0.734,0.315,0.592,6.562,-22.207,-4.83,
47764490,-0.725,0.327,0.595,10.342,-24.307,-5.722,
47764500,-0.786,0.323,0.574,14.857,-27.335,-8.172,
47764510,-0.806,0.352,0.557,21.175,-41.055,-12.565,
47764520,-0.737,0.442,0.634,25.025,-56.787,-15.4,
47764530,-0.755,0.437,0.64,21.665,-61.81,-15.592,
47764540,-0.678,0.407,0.617,18.655,-73.815,-19.53,
47764550,-0.537,0.466,0.689,15.452,-77.07,-20.317,
47764560,-0.47,0.43,0.729,6.807,-63.962,-13.842,
47764570,-0.544,0.373,0.707,-1.487,-40.705,-4.445,
47764580,-0.435,0.348,0.696,-1.925,-26.617,-3.745,
47764590,-0.491,0.382,0.742,-1.435,-6.335,-2.24,
47764600,-0.543,0.364,0.706,-2.747,8.137,-0.28,
47764610,-0.537,0.394,0.708,-3.325,17.255,0.805,
47764620,-0.568,0.394,0.698,-4.952,24.412,2.275,
47764630,-0.513,0.398,0.675,-2.992,31.727,3.745,
47764640,-0.427,0.509,0.741,-4.725,57.977,9.222,
47764650,-0.688,0.36,0.634,-16.047,84.997,14.367,
47764660,-0.776,0.35,0.555,-16.922,77.91,12.687,
47764670,-0.942,0.378,0.552,-13.947,64.732,12.897,
47764670,-0.924,0.304,0.512,-11.095,39.427,7.35,
47764690,-0.822,0.375,0.523,-2.992,15.732,0.98,
47764690,-0.83,0.313,0.535,-0.315,-0.63,-3.325,
47764710,-0.8,0.294,0.583,3.185,-10.535,-3.5,
47764710,-0.769,0.287,0.61,6.44,-16.835,-2.135,
47764730,-0.744,0.286,0.609,8.627,-20.3,-0.665,
47764730,-0.826,0.261,0.546,14.332,-28.105,-2.38,
47764750,-0.718,0.359,0.566,25.375,-48.177,-9.94,
47764750,-0.81,0.396,0.612,32.2,-57.347,-14.91,
47764760,-0.796,0.442,0.581,37.152,-74.655,-22.05,
47764770,-0.586,0.583,0.714,34.982,-82.495,-25.375,
47764780,-0.589,0.528,0.72,16.135,-63.14,-14.42,
47764790,-0.546,0.367,0.652,1.592,-47.022,-6.02,
47764800,-0.423,0.408,0.715,-1.19,-35.017,-3.272,
47764810,-0.469,0.378,0.724,-5.372,-16.625,-0.98,
47764820,-0.45,0.403,0.716,-4.62,-1.347,-2.38,
47764830,-0.459,0.446,0.735,-8.172,15.015,-1.505,
47764840,-0.543,0.444,0.717,-18.13,29.19,3.745,
47764850,-0.518,0.427,0.748,-25.76,46.567,9.887,
47764860,-0.598,0.347,0.668,-28.822,67.725,13.3,
47764870,-0.583,0.379,0.599,-29.19,78.015,15.732,
47764880,-0.672,0.339,0.542,-32.095,80.762,21.77,
47764890,-0.83,0.323,0.542,-35.035,77.84,27.405,
47764900,-0.901,0.219,0.55,-32.707,60.025,26.232,
47764910,-0.813,0.286,0.564,-17.255,39.357,19.757,
47764920,-0.734,0.369,0.597,-8.102,27.755,13.475,
47764930,-0.818,0.343,0.609,-6.16,23.975,12.915,
47764940,-0.801,0.347,0.588,-1.855,14.927,10.85,
47764950,-0.776,0.378,0.569,4.637,6.492,5.95,
47764960,-0.81,0.392,0.566,9.432,-0.175,-1.05,
47764970,-0.821,0.375,0.542,12.582,-8.032,-4.69,
47764980,-0.905,0.374,0.506,16.432,-18.2,-5.74,
47764990,-0.805,0.403,0.515,22.33,-43.89,-14.14,
47765000,-0.8,0.458,0.623,25.427,-61.337,-19.74,
47765010,-0.715,0.426,0.628,23.712,-67.865,-21.98,
47765020,-0.573,0.466,0.653,18.672,-72.52,-24.64,
47765030,-0.577,0.446,0.702,3.255,-60.182,-17.972,
47765040,-0.55,0.327,0.657,-8.855,-48.632,-12.215,
47765050,-0.54,0.326,0.678,-9.607,-34.142,-6.93,
47765060,-0.508,0.344,0.688,-9.625,-20.195,-3.92,
47765070,-0.567,0.343,0.703,-10.867,-5.582,-1.015,
47765080,-0.606,0.35,0.684,-13.107,5.302,2.625,
47765080,-0.63,0.357,0.66,-13.632,12.005,4.165,
47765090,-0.613,0.397,0.665,-13.58,16.257,4.812,
47765100,-0.538,0.432,0.659,-15.295,24.342,6.23,
47765110,-0.534,0.495,0.708,-22.907,46.287,11.847,
47765120,-0.685,0.35,0.676,-32.025,64.61,13.912,
47765130,-0.684,0.318,0.621,-26.145,65.047,8.47,
47765140,-0.797,0.365,0.566,-15.102,59.255,4.585,
47765150,-0.881,0.397,0.565,-8.365,46.13,-1.382,
47765160,-0.862,0.361,0.534,-4.62,27.807,-9.065,
47765170,-0.8,0.345,0.547,1.767,12.18,-14.245,
47765180,-0.813,0.304,0.521,7.367,-0.91,-17.972,
47765190,-0.798,0.279,0.536,13.615,-11.515,-19.18,
47765200,-0.635,0.22,0.382,25.34,-14.717,-17.937,
47765210,-1.06,0.28,0.527,52.185,-19.512,-16.887,
47765220,-0.827,0.423,0.642,53.182,-54.757,-31.955,
47765230,-0.744,0.405,0.642,45.78,-67.777,-36.452,
47765240,-0.725,0.404,0.641,37.642,-65.66,-33.687,
47765250,-0.646,0.376,0.651,29.47,-62.72,-27.545,
47765260,-0.623,0.4,0.681,22.26,-55.405,-19.722,
47765270,-0.506,0.374,0.702,12.092,-42.332,-11.742,
47765280,-0.543,0.334,0.697,5.145,-20.982,-2.782,
47765290,-0.553,0.353,0.695,1.925,-5.547,-0.752,
47765300,-0.55,0.377,0.687,-2.17,1.837,-0.175,
47765310,-0.608,0.38,0.662,-6.317,9.992,2.362,
47765320,-0.614,0.402,0.66,-7.822,15.697,4.795,
47765330,-0.677,0.395,0.693,-8.277,28.682,6.772,
47765340,-0.684,0.407,0.667,-8.96,38.255,7.227,
47765350,-0.693,0.333,0.581,-12.425,37.38,7.77,
