#Format version: 1.0
time[ms],accX[g],accY[g],accZ[g],Value 1,Value 2,Value 3,
32274460,0.134,-0.272,0.937,-0.35,-0.227,-0.227,
32274470,0.137,-0.273,0.937,-0.297,-0.49,-0.35,
32274480,0.138,-0.273,0.939,-0.385,-0.14,-0.35,
32274490,0.139,-0.275,0.937,-0.315,-0.245,-0.42,
32274500,0.141,-0.275,0.935,-0.245,0.21,-0.437,
32274510,0.141,-0.275,0.935,0,0.332,-0.455,
32274520,0.141,-0.276,0.935,0.157,0.805,-0.402,
32274530,0.14,-0.276,0.935,0.42,1.05,-0.297,
32274540,0.14,-0.275,0.935,0.647,1.487,-0.245,
32274550,0.14,-0.275,0.935,0.892,1.61,-0.227,
32274560,0.14,-0.274,0.935,1.085,1.942,-0.122,
32274570,0.14,-0.272,0.94,1.26,2.152,0,
32274580,0.137,-0.272,0.939,1.19,2.38,0.105,
32274590,0.135,-0.271,0.94,1.155,2.362,0.087,
32274600,0.134,-0.271,0.94,1.102,2.275,0.087,
32274610,0.133,-0.271,0.942,1.015,2.257,0,
32274620,0.133,-0.269,0.946,0.787,1.977,-0.052,
32274630,0.134,-0.269,0.949,0.42,1.75,-0.07,
32274640,0.129,-0.27,0.957,-0.175,1.12,-0.07,
32274650,0.13,-0.256,0.967,-1.12,0.157,0.017,
32274660,0.112,-0.248,0.983,-3.377,-2.135,1.085,
32274670,0.106,-0.273,0.986,-6.825,-5.092,1.155,
32274680,0.13,-0.218,0.988,-10.08,-8.627,-0.787,
32274690,0.154,-0.368,0.982,-18.392,-10.902,-3.482,
32274700,0.182,-0.355,0.986,-13.3,-11.375,-6.685,
32274710,0.207,-0.349,0.992,-10.675,-9.817,-6.755,
32274720,0.179,-0.377,0.979,-11.217,-6.632,-9.327,
32274730,0.141,-0.371,0.989,-9.257,-3.08,-14.21,
32274740,0.13,-0.416,0.97,-7.752,-3.482,-18.69,
32274750,0.142,-0.458,0.963,-0.367,-3.657,-24.29,
32274760,0.236,-0.353,0.94,5.74,1.715,-29.26,
32274760,0.153,-0.375,0.931,-0.63,9.94,-35.612,
32274780,0.175,-0.445,0.975,-4.655,15.522,-44.905,
32274780,0.199,-0.566,0.898,-7.787,21.735,-53.707,
32274790,0.176,-0.522,0.754,-17.395,7.63,-68.005,
32274800,0.37,-0.472,0.872,-32.707,1.155,-82.722,
32274810,0.301,-0.575,0.907,-55.072,11.392,-91.717,
32274820,0.09,-0.591,0.899,-58.8,23.082,-99.907,
32274830,-0.015,-0.459,0.913,-59.552,21.7,-104.632,
32274840,0.054,-0.452,0.914,-67.357,19.862,-105.175,
32274850,-0.005,-0.409,0.921,-71.732,22.4,-104.317,
32274860,-0.042,-0.332,0.924,-71.347,25.235,-106.645,
32274870,-0.065,-0.285,0.885,-79.782,23.765,-104.265,
32274880,0,-0.225,0.881,-83.317,23.205,-103.827,
32274890,0.021,-0.196,0.886,-88.917,25.987,-102.322,
32274900,0.049,-0.2,0.935,-92.365,30.38,-102.077,
32274910,0.134,-0.242,0.977,-92.295,35.805,-103.67,
32274920,0.21,-0.23,0.965,-84.192,45.097,-106.785,
32274930,0.258,-0.148,0.918,-74.182,55.44,-112.315,
32274940,0.282,-0.117,0.874,-69.755,62.23,-120.89,
32274950,0.34,-0.104,0.849,-69.282,63.822,-132.387,
32274960,0.407,-0.121,0.864,-67.602,63.28,-145.932,
32274970,0.444,-0.148,0.874,-61.407,63.017,-158.83,
32274980,0.436,-0.172,0.841,-49.297,63.507,-168.91,
32274990,0.369,-0.087,0.807,-32.847,61.652,-175.822,
32275000,0.332,-0.069,0.793,-25.287,55.65,-177.835,
32275010,0.294,-0.157,0.8,-20.562,48.317,-174.195,
32275020,0.252,-0.19,0.832,-8.75,41.037,-163.8,
32275030,0.197,-0.248,0.843,3.937,35.332,-147.787,
32275040,0.104,-0.288,0.824,17.202,29.715,-124.53,
32275050,0.015,-0.324,0.819,31.447,24.535,-91.892,
32275060,-0.033,-0.443,0.759,40.162,17.027,-56.385,
32275070,-0.053,-0.475,0.595,53.515,9.992,-19.267,
32275080,-0.108,-0.511,0.382,68.372,4.445,16.695,
32275080,-0.454,-0.178,0.348,65.362,-10.587,50.575,
32275100,-0.437,-0.31,0.289,34.3,-42.315,77.315,
32275100,-0.292,-0.349,0.673,17.815,-65.59,85.015,
32275120,1.109,-1.382,1.726,6.002,-22.26,80.71,
32275120,1.004,-1.688,0.697,109.55,21.297,20.335,
32275140,-0.178,-0.043,1.263,191.397,52.99,2.695,
32275140,0.524,-0.262,1.306,119.21,60.97,-33.302,
32275160,0.604,0.393,1.389,110.127,67.83,-36.347,
32275160,0.268,0.283,1.34,66.447,70.7,-11.2,
32275170,-0.282,-0.033,1.205,25.252,55.23,4.777,
32275180,-0.172,-0.171,1.135,21.735,27.807,6.055,
32275190,-0.04,-0.151,1.035,4.585,5.617,-0.052,
32275200,0.016,-0.305,0.964,-3.832,-6.422,-4.672,
32275210,0.106,-0.239,0.945,-2.17,-13.562,-6.58,
32275220,0.221,-0.277,0.911,-4.235,-14.91,-9.555,
32275230,0.304,-0.26,0.894,-1.557,-11.13,-8.12,
32275240,0.286,-0.268,0.892,1.522,-3.36,-4.935,
32275250,0.281,-0.256,0.9,2.87,4.217,-3.08,
32275260,0.248,-0.249,0.912,4.077,11.217,-1.68,
32275270,0.233,-0.244,0.912,5.075,16.292,-0.315,
32275280,0.173,-0.233,0.935,5.6,20.212,1.207,
32275290,0.107,-0.25,0.95,6.02,20.755,1.767,
32275300,0.102,-0.209,0.963,7.157,18.62,2.345,
32275310,0.063,-0.2,0.983,6.58,14.7,3.307,
32275320,0.063,-0.159,0.992,5.582,8.732,3.745,
32275330,0.065,-0.186,0.985,0.42,2.66,2.012,
32275340,0.073,-0.231,0.972,-3.08,-2.765,0.752,
32275350,0.113,-0.231,0.959,-3.745,-6.72,-0.175,
32275360,0.152,-0.244,0.948,-4.865,-8.487,-1.172,
32275370,0.179,-0.25,0.939,-4.9,-7.84,-0.77,
32275380,0.181,-0.256,0.934,-3.99,-6.265,0.805,
32275390,0.172,-0.259,0.935,-3.36,-4.042,1.942,
32275400,0.183,-0.253,0.934,-2.485,-2.59,2.8,
32275410,0.187,-0.264,0.927,-1.61,-0.612,4.287,
32275420,0.185,-0.239,0.936,0.402,1.067,6.09,
32275430,0.151,-0.223,0.953,0.752,2.607,7.997,
32275440,0.13,-0.234,0.957,0.192,1.907,8.977,
32275440,0.137,-0.234,0.953,-0.21,1.032,9.222,
32275460,0.145,-0.24,0.954,-0.735,-0.227,9.047,
32275460,0.143,-0.226,0.96,-0.892,-0.7,9.135,
32275480,0.16,-0.242,0.953,-2.03,-1.592,8.347,
32275480,0.185,-0.242,0.951,-3.29,-0.752,7.35,
32275500,0.205,-0.235,0.955,-4.655,-0.017,7.157,
32275500,0.206,-0.186,0.985,-7.997,1.382,7.892,
32275510,0.161,-0.194,0.988,-16.87,-0.682,10.78,
32275520,0.119,-0.239,0.986,-24.902,-3.78,12.687,
32275530,0.06,-0.258,0.994,-28.857,-9.502,12.582,
32275540,0.04,-0.287,0.999,-30.975,-17.272,12.04,
32275550,-0.023,-0.276,1.032,-30.415,-28.052,11.812,
32275560,-0.105,-0.326,1.022,-30.8,-43.365,11.112,
32275570,-0.119,-0.363,0.99,-27.247,-60.76,7.892,
32275580,-0.099,-0.474,0.956,-17.255,-75.39,3.517,
32275590,-0.034,-0.481,0.927,0.157,-86.87,-0.63,
32275600,0.137,-0.511,0.879,18.865,-91.367,-6.457,
32275610,0.366,-0.396,0.79,41.755,-86.257,-8.802,
32275620,0.302,-0.324,0.926,56.472,-73.097,-6.177,
32275630,0.09,-0.578,0.77,68.355,-68.25,-4.672,
32275640,-0.227,-0.14,0.977,87.71,-65.257,8.662,
32275650,1.124,0.159,0.559,101.5,-59.272,31.43,
32275660,0.846,0.417,0.74,72.712,-33.512,42.63,
32275670,0.595,-0.03,0.668,22.767,-5.652,39.637,
32275680,0.821,-0.226,0.389,19.285,28.612,54.005,
32275690,0.804,-0.032,0.409,29.225,79.695,73.762,
32275700,0.866,-0.203,0.761,8.312,131.022,71.172,
32275710,0.17,-0.227,1.099,-13.405,148.662,35.175,
32275720,-0.235,-0.328,1.202,-19.74,134.575,26.092,
32275730,-0.16,-0.155,1.164,-3.36,101.832,28.56,
32275740,-0.223,-0.195,1.126,-9.362,72.012,23.187,
32275750,-0.175,-0.212,1.071,-17.202,44.817,16.275,
32275760,0.01,1.149,1.023,11.707,33.057,43.855,
32275770,-0.074,-1.909,1.077,-32.48,61.477,112.77,
32275780,0.788,-0.73,0.555,-34.055,-19.757,56.017,
32275790,-1.111,0.088,0.993,-18.322,-15.627,2.485,
32275800,0.49,-0.073,1.041,-10.377,-41.755,16.747,
32275810,0.268,0.05,1.025,-16.66,-44.852,7.805,
32275820,0.552,-0.378,0.877,-24.85,-33.915,12.127,
32275830,-0.03,-0.316,0.956,-15.802,-23.45,21.735,
32275830,-0.117,-0.384,0.97,-13.58,-28.892,22.347,
32275850,-0.1,-0.352,1.004,-9.94,-38.902,7.822,
32275850,0.448,-0.306,0.89,-15.085,-46.935,-11.112,
32275870,0.523,-0.228,0.903,-20.405,-35.665,-14.14,
32275870,0.33,-0.294,0.902,-20.335,-22.277,-4.427,
32275890,0.163,-0.247,0.981,-17.43,-14.35,1.802,
32275890,0.087,-0.203,1.104,-23.537,-16.905,-0.91,
32275910,0.107,-0.177,1.201,-37.59,-27.737,-5.145,
32275910,0.067,-0.083,1.336,-58.24,-44.257,-10.377,
32275920,0.096,-0.092,1.416,-89.705,-61.635,-15.802,
32275930,-0.005,-0.143,1.464,-127.89,-75.88,-22.347,
32275940,0.062,-0.286,1.286,-165.287,-92.277,-37.992,
32275950,-0.08,-0.345,1.169,-180.722,-99.837,-51.082,
32275960,-0.176,-0.332,1.064,-188.247,-115.692,-69.51,
32275970,-0.152,-0.253,1.065,-193.182,-135.642,-75.932,
32275980,-0.1,-0.268,1.095,-198.94,-161.175,-69.247,
32275990,-0.154,-0.705,0.961,-217.175,-191.607,-71.575,
32276000,0.062,-1.028,0.83,-220.465,-193.025,-102.462,
32276010,0.581,-1.955,0.666,-209.23,-147.402,-140.262,
32276020,0.678,-1.977,0.378,-166.512,-15.382,-115.272,
32276030,-0.785,-1.998,0.595,-129.622,145.442,-41.107,
32276040,-0.596,-1.998,0.248,-58.835,220.57,6.877,
32276050,-0.167,-1.28,0.177,25.445,246.487,46.812,
32276060,-0.164,-0.158,-0.043,42.262,289.275,80.097,
32276070,-0.832,0.892,-0.218,30.292,276.517,58.345,
32276080,-0.877,1.924,-0.437,37.992,229.722,30.765,
32276090,-0.477,1.984,-0.424,32.655,185.447,6.86,
32276100,-0.043,1.59,-0.901,28.98,172.41,-31.867,
32276110,0.227,1.822,-0.843,79.677,179.427,-87.972,
32276120,-0.522,-0.004,0.462,12.862,152.565,-134.785,
32276130,1.903,-1.998,0.525,40.372,-2.467,-324.327,
32276140,0.082,-1.644,0.64,356.895,204.75,-439.057,
32276150,0.566,1.749,1.658,484.767,114.887,-108.132,
32276160,1.996,0.925,1.997,405.142,101.325,60.637,
32276170,0.097,-0.719,1.998,141.225,254.537,87.325,
32276170,-1.998,1.921,1.998,120.645,175.42,111.667,
32276190,-1.543,0.04,1.71,-62.842,-19.81,34.65,
32276190,0.019,-0.362,1.273,-112.612,-120.277,-23.012,
32276210,0.738,0.04,1.057,-107.975,-110.162,-36.715,
32276210,0.62,-0.597,0.507,-143.045,-74.41,-35.787,
32276230,0.683,-0.975,0.279,-96.652,-39.06,-18.9,
32276230,0.56,-0.721,0.128,-44.082,-15.207,1.872,
32276250,0.324,-0.755,0.28,9.152,4.567,22.592,
32276250,0.164,-0.683,0.633,52.535,20.947,25.655,
32276260,0.37,-0.309,0.986,81.042,36.995,25.777,
32276270,0.185,-0.145,1.221,73.15,51.625,23.59,
32276280,-0.169,-0.041,1.303,50.277,50.26,19.757,
32276290,-0.184,-0.009,1.326,23.537,31.22,11.532,
32276300,-0.075,-0.026,1.344,-3.097,9.397,3.99,
32276310,0.03,-0.004,1.402,-36.785,-5.932,-6.352,
32276320,0.082,-0.132,1.562,-78.277,-12.057,-19.425,
32276330,0.343,-0.082,1.605,-121.292,-13.37,-29.365,
32276340,0.171,-0.096,1.535,-164.727,-13.387,-36.137,
32276350,0.283,-0.178,1.392,-199.412,-26.005,-33.862,
32276360,0.447,-0.291,1.214,-211.592,-33.11,-20.72,
32276370,0.35,-0.257,1.271,-222.005,-39.655,1.312,
32276380,0.175,-0.207,1.317,-235.375,-52.36,22.365,
32276390,-0.143,-0.193,1.45,-255.307,-79.38,35.962,
32276400,-0.019,-1.033,1.336,-273.805,-97.527,30.38,
32276410,0.1,-1.686,0.928,-226.257,-92.435,18.06,
32276420,0.226,-1.459,0.544,-142.327,-52.325,29.312,
32276430,0.121,-1.219,1.211,-92.277,19.162,53.812,
32276440,0.064,-1.092,1.129,-19.04,59.272,37.135,
32276450,0.457,0.656,0.609,138.932,124.775,87.675,
32276460,-0.09,1.547,0.573,210.455,130.287,97.93,
32276470,0.35,1.015,0.394,194.582,95.795,30.73,
32276480,0.37,0.379,-0.386,123.287,80.15,-6.37,
32276490,-0.016,0.33,-0.469,216.702,73.465,-66.745,
32276500,0.026,0.34,-0.57,114.205,37.135,-84.927,
32276510,0.35,-0.43,-0.536,12.582,-1.365,-148.417,
32276520,0.161,-0.741,-0.625,-42.945,-6.387,-179.847,
32276530,-0.214,-0.936,-0.826,-61.477,0.367,-169.4,
32276540,-0.427,-0.882,-1.001,-45.5,-8.995,-137.305,
32276550,-0.207,-0.529,-0.987,-67.602,-29.207,-121.957,
32276560,-0.023,-0.885,-0.918,-148.19,-47.81,-116.655,
32276570,0.243,-1.535,-0.951,-184.852,-54.88,-120.89,
32276580,0.207,-0.886,0.562,-134.82,-69.247,-94.535,
32276580,-0.143,-1.998,0.84,4.952,-145.792,-193.357,
32276600,1.098,-0.422,-0.639,484.452,174.422,-112.542,
32276600,1.006,1.948,1.274,502.302,152.687,-20.562,
32276620,0.378,0.642,1.658,326.952,130.322,-116.655,
32276620,1.933,-1.052,1.669,288.732,173.53,4.27,
32276640,1.404,0.556,1.998,267.417,272.527,3.57,
32276640,-1.972,1.997,1.964,106.715,204.47,24.5,
32276660,-0.949,-0.189,1.757,-57.26,10.937,64.137,
32276660,-0.284,-0.121,1.372,-103.81,-86.292,43.627,
32276670,-0.165,0.199,1.113,-97.72,-89.215,28.105,
32276680,0.309,-1.468,0.234,-159.897,-77.227,-18.077,
32276690,0.287,-1.054,0.23,-77.175,-46.462,-36.785,
32276700,0.538,-0.743,0.306,-16.047,-18.62,-40.495,
32276710,0.919,-0.62,0.411,11.27,-10.237,-15.715,
32276720,0.467,-0.194,0.964,62.142,19.792,24.92,
32276730,0.022,-0.188,1.21,49.262,38.552,27.037,
32276740,-0.158,-0.133,1.186,32.375,32.357,19.74,
32276750,-0.122,-0.172,1.148,14.42,15.12,10.972,
32276760,-0.01,-0.145,1.121,1.312,-2.03,7.612,
32276770,-0.055,-0.222,1.126,-8.417,-16.187,8.872,
32276780,-0.036,-0.121,1.2,-23.135,-29.802,3.08,
32276790,0.301,-0.132,1.204,-47.075,-39.025,-6.107,
32276800,0.34,-0.123,1.286,-67.567,-34.772,-5.705,
32276810,0.365,-0.22,1.22,-96.372,-34.142,-2.03,
32276820,0.314,-0.222,1.174,-117.005,-34.037,5.32,
32276830,0.204,-0.294,1.138,-129.692,-38.045,10.36,
32276840,0.187,-0.387,1.078,-143.01,-50.487,14.332,
32276850,0.147,-0.459,1.046,-147.14,-64.837,22.627,
32276860,0.06,-0.402,1.09,-148.575,-84.42,32.27,
32276870,0.036,-0.227,1.165,-155.382,-109.48,40.687,
32276880,-0.097,-0.181,1.21,-174.65,-139.16,55.177,
32276890,-0.193,-0.414,1.217,-198.59,-186.795,63.052,
32276900,-0.167,-0.892,1.126,-212.695,-241.815,56.245,
32276910,0.147,-1.363,0.992,-190.802,-292.915,26.495,
32276920,0.659,-1.9,0.662,-142.03,-311.272,-7.297,
32276920,1.22,-1.772,1.057,-94.307,-236.652,27.982,
32276940,1.168,-1.471,0.78,-1.662,-79.292,63.21,
32276940,0.35,-0.726,0.346,66.342,60.725,63.175,
32276960,0.057,-0.133,0.428,55.265,117.442,73.605,
32276960,0.173,0.099,0.266,43.785,118.947,61.652,
32276980,0.435,0.45,0.198,34.23,122.885,35.21,
32276980,0.131,0.772,0.068,23.572,139.65,-2.555,
32277000,-0.359,0.866,0.071,0.612,129.762,-49.962,
32277000,-0.339,0.608,0.094,-28.787,93.397,-95.007,
32277010,-0.032,0.292,0.075,-42.577,73.115,-129.062,
32277020,-0.073,-0.123,-0.027,-39.112,90.895,-154.052,
32277030,-0.601,-0.049,-0.105,-14.525,111.23,-162.417,
32277040,-0.694,0.122,-0.183,-10.955,106.942,-165.147,
32277050,-0.63,-0.145,-0.275,-34.405,87.657,-152.705,
32277060,-0.468,-0.248,-0.261,-42.227,70.525,-125.405,
32277070,-0.194,-0.314,-0.233,-26.057,62.667,-104.65,
32277080,-0.148,-0.009,-0.175,-3.885,64.837,-95.41,
32277090,-0.349,-1.02,0.994,-12.897,60.935,-101.517,
32277100,1.87,-1.998,0.064,-10.447,110.285,-197.662,
32277110,-0.346,-1.038,0.038,383.967,328.842,-230.912,
32277120,-0.642,1.997,0.908,524.86,161.98,-91.595,
32277130,1.998,1.327,0.418,382.497,94.167,-37.047,
32277140,1.998,-1.778,1.144,241.5,179.147,59.64,
32277150,1.093,0.077,1.998,346.377,360.062,128.485,
32277160,-1.864,1.694,1.965,183.417,315.787,87.57,
32277170,-1.444,0.671,1.7,2.432,69.212,51.345,
32277180,-0.843,0.183,1.836,-104.352,-100.415,2.975,
32277190,0.858,-0.203,1.43,-130.9,-149.905,-5.95,
32277200,0.624,0.46,1.31,-170.555,-109.34,-12.25,
32277210,0.473,-0.928,0.1,-207.83,-72.625,-7.857,
32277220,0.558,-1.403,0.067,-127.907,-50.592,8.347,
32277230,0.306,-1.015,0.08,-78.452,-25.427,8.47,
32277240,0.299,-0.576,0.056,-11.882,-11.445,18.847,
32277250,0.128,-1.071,0.083,33.687,0.262,20.825,
32277260,0.126,-0.719,0.439,103.495,9.975,31.622,
32277270,0.348,-0.305,1.169,138.775,22.172,34.212,
32277280,0.34,0.247,1.646,120.312,45.29,30.345,
32277290,-0.229,0.277,1.506,63.717,46.13,28.787,
32277300,-0.283,-0.21,1.215,23.817,21.122,25.007,
32277310,-0.205,-0.064,1.294,8.47,-1.12,11.025,
32277320,-0.255,-0.012,1.33,-16.59,-24.867,-4.427,
32277330,0.038,-0.15,1.23,-46.025,-44.94,-17.36,
32277330,0.39,-0.229,1.144,-68.11,-47.635,-23.52,
32277350,0.353,-0.168,1.247,-87.22,-37.292,-20.807,
32277350,0.21,-0.107,1.276,-111.317,-29.312,-17.482,
32277370,0.161,-0.294,1.215,-139.527,-34.772,-16.887,
32277370,0.14,-0.374,1.146,-154.752,-51.082,-15.347,
32277390,0.249,-0.324,1.11,-162.26,-66.517,-10.062,
32277390,0.366,-0.245,1.062,-162.837,-84.682,2.782,
32277410,0.436,-0.349,1.101,-176.207,-109.182,24.08,
32277410,0.497,-0.408,1.167,-195.632,-140.56,52.395,
32277420,0.225,-0.446,1.34,-213.745,-184.065,82.722,
32277430,0.015,-0.538,1.452,-232.4,-251.72,98.297,
32277440,0.304,-1.168,1.58,-244.265,-312.672,105,
32277450,1.131,-1.927,1.123,-218.977,-316.575,96.39,
32277460,0.527,-1.083,0.765,-114.1,-240.24,95.147,
32277470,-0.109,-0.463,1.069,-28.262,-163.45,123.48,
32277480,0.351,-0.732,1.327,-6.265,-138.127,109.042,
32277490,1.792,-0.01,0.494,69.877,-47.075,154.77,
32277500,1.069,1.38,0.56,118.755,57.68,151.392,
32277510,0.431,1.159,0.412,70,58.047,29.89,
32277520,0.871,1.255,0.559,2.327,16.292,-63.49,
32277530,0.648,0.939,0.617,26.442,22.085,-170.012,
32277540,-0.044,0.692,0.515,36.47,58.537,-237.3,
32277550,-0.807,0.172,0.241,53.112,82.285,-199.85,
32277560,-0.977,0.215,-0.029,80.447,77.63,-168.84,
32277570,-0.746,-0.369,-0.433,35.367,77.77,-143.045,
32277580,-0.739,-1.397,-1.013,-4.252,91.14,-129.045,
32277590,-0.99,-1.777,-1.382,44.45,94.85,-115.727,
32277600,-1.084,-1.501,-1.68,50.575,66.255,-103.355,
32277610,-1.216,-1.804,-1.766,-5.232,19.932,-86.87,
32277620,-1.063,-1.967,-1.652,-50.61,-28.612,-82.215,
32277630,-1.1,-1.998,-1.327,-74.55,-57.382,-23.432,
32277640,0.662,-1.998,0.964,-91.7,-47.512,-3.955,
32277650,1.998,-1.998,0.488,-19.705,275.607,-27.142,
32277660,-0.67,1.386,0.285,445.707,466.532,-313.74,
32277670,-1.118,1.243,1.028,382.585,298.847,-261.765,
32277670,1.959,-0.248,-0.033,343.577,238.752,-31.43,
32277690,1.45,1.466,1.182,457.747,444.307,49.052,
32277690,-1.321,-0.93,1.985,204.452,499.222,102.865,
32277710,-1.418,1.921,1.928,116.882,175.472,90.265,
32277710,0.167,-1.058,1.322,-84.962,-36.907,59.045,
32277730,-0.74,-0.417,1.064,-97.352,-74.69,18.427,
32277730,0.713,-0.785,0.672,-88.2,-78.207,14.437,
32277750,-0.054,-0.991,0.516,-68.81,-49.682,-13.79,
32277750,0.834,-0.617,0.549,-23.94,-33.232,-15.102,
32277760,0.721,-0.216,0.83,-0.595,-2.817,-1.225,
32277770,0.033,-0.196,1.032,5.687,14.017,29.505,
32277780,-0.434,-0.346,0.955,-0.612,8.61,33.53,
32277790,-0.118,-0.344,0.957,2.765,-6.09,12.372,
32277800,0.261,-0.073,1.1,1.925,-13.247,-0.927,
32277810,0.136,-0.098,1.107,-12.547,-17.395,3.587,
32277820,0.016,-0.167,1.1,-26.425,-24.92,8.47,
32277830,-0.05,-0.297,1.019,-35.752,-34.597,4.935,
32277840,0.173,-0.334,0.971,-38.99,-39.147,-4.777,
32277850,0.31,-0.356,1.021,-40.372,-36.75,-11.095,
32277860,0.334,-0.073,1.078,-41.317,-29.54,-10.535,
32277870,0.246,-0.305,1.02,-59.237,-20.37,-10.027,
32277880,0.2,-0.383,0.991,-66.78,-13.44,-13.107,
32277890,0.168,-0.304,1.04,-72.1,-9.695,-18.847,
32277900,0.178,-0.271,1.147,-83.632,-8.417,-24.377,
32277910,0.089,-0.27,1.273,-100.31,-16.8,-27.44,
32277920,0.07,-0.281,1.341,-123.707,-34.615,-31.115,
32277930,0.131,-0.304,1.316,-151.69,-52.115,-36.085,
32277940,0.125,-0.297,1.258,-171.815,-66.29,-41.3,
32277950,0.248,-0.277,1.2,-186.62,-81.287,-42.332,
32277960,0.332,-0.373,1.166,-199.255,-100.467,-36.505,
32277970,0.211,-0.46,1.491,-211.907,-127.015,-29.085,
32277980,0.505,-0.861,1.213,-227.395,-157.762,-36.785,
32277990,0.454,-1.631,0.759,-205.275,-136.027,-20.055,
32278000,0.851,-1.998,0.61,-149.817,-72.187,-23.852,
32278010,0.916,-1.998,0.206,-48.23,49.805,-57.995,
32278020,-0.369,-1,-0.638,137.357,153.737,-79.835,
32278030,-1.085,-0.144,-0.333,129.972,168.84,-64.837,
32278040,-0.348,-1.038,-0.315,5.127,125.702,-56.455,
32278050,0.025,-1.188,-0.313,17.342,116.655,-40.005,
32278060,-0.128,-0.436,-0.41,57.47,129.01,-30.59,
32278070,-0.339,-0.02,-0.536,40.25,134.645,-31.202,
32278080,-0.387,0,-0.419,-16.257,114.31,-43.82,
32278080,-0.162,-0.213,-0.132,-81.952,80.815,-60.9,
32278090,0.233,-0.445,0.107,-122.132,61.407,-77.805,
32278100,0.336,-0.265,0.253,-125.457,67.585,-97.23,
32278110,0.134,0.016,0.179,-128.765,76.86,-122.097,
32278120,-0.075,0.203,-0.029,-143.972,71.085,-146.58,
32278130,-0.259,0.547,-0.148,-160.317,46.48,-159.337,
32278140,-0.501,0.919,-0.197,-181.51,4.357,-160.912,
32278150,-0.497,0.894,0.317,-205.502,-51.1,-156.415,
32278160,1.176,-1.288,1.923,-64.12,-54.792,-140.752,
32278170,1.95,-1.481,-1.524,441.42,302.19,-65.187,
32278180,-1.624,-0.358,1.397,402.71,235.655,-73.045,
32278190,0.999,-0.01,1.159,265.982,107.747,-59.29,
32278200,0.886,1.095,1.085,380.24,109.935,93.292,
32278210,-0.229,-0.99,1.305,288.155,94.57,90.125,
32278220,0.996,-0.037,1.342,322.612,119.402,138.407,
32278230,-0.81,0.827,1.998,284.375,188.282,94.535,
32278240,-1.515,1.515,1.959,98.49,109.095,26.285,
32278250,-0.667,0.23,1.539,4.322,1.47,17.745,
32278260,-0.257,-0.168,1.13,-55.79,-53.69,-7.665,
32278270,0.309,-0.684,0.68,-82.075,-64.977,-21.542,
32278280,0.625,-0.602,0.545,-49.297,-48.737,-16.17,
32278290,0.482,-0.543,0.658,-19.582,-24.71,-0.682,
32278300,0.262,-0.365,0.825,4.532,-5.25,12.6,
32278310,0.104,-0.34,0.948,13.842,3.797,16.415,
32278320,-0.039,-0.261,1.017,14.052,3.36,13.002,
32278330,0.025,-0.284,0.989,7.77,-2.257,3.85,
32278340,0.166,-0.288,0.977,3.762,-6.247,-1.732,
32278350,0.145,-0.182,1.051,1.715,-6.335,-2.012,
32278360,0.079,-0.174,1.09,-5.442,-9.572,-1.575,
32278370,0.058,-0.224,1.077,-15.435,-14.577,-4.165,
32278380,0.156,-0.212,1.093,-28.105,-18.112,-12.495,
32278390,0.281,-0.168,1.141,-42.175,-15.837,-20.405,
32278400,0.322,-0.093,1.24,-61.337,-9.45,-24.622,
32278410,0.359,-0.103,1.373,-87.71,0.56,-25.637,
32278420,0.259,-0.109,1.428,-123.077,6.685,-30.082,
32278420,0.224,-0.207,1.345,-151.83,1.82,-28.752,
32278440,0.157,-0.403,1.274,-177.152,-16.852,-23.66,
32278440,0.03,-0.415,1.217,-190.452,-45.115,-13.09,
32278460,-0.061,-0.385,1.145,-191.205,-82.88,-4.112,
32278460,-0.045,-0.291,1.138,-202.212,-122.745,4.06,
32278480,-0.084,-0.394,1.216,-215.757,-153.807,14.49,
32278480,-0.098,-0.68,1.289,-226.31,-189.577,12.915,
32278500,0.103,-1.492,1.438,-216.247,-208.967,2.152,
32278500,0.698,-1.998,1.166,-150.885,-182.962,1.68,
32278510,1.62,-1.998,0.628,-32.007,-74.567,-7.647,
32278520,0.749,-1.182,-0.053,141.347,71.61,-22.907,
32278530,-0.723,-0.004,-0.164,190.802,152.022,-38.99,
32278540,-1.268,-0.23,-0.231,106.522,128.082,-12.53,
32278550,-0.857,-0.524,-0.481,70.542,59.36,21.542,
32278560,-0.121,-0.063,-0.457,95.13,32.917,68.372,
32278570,0.098,0.296,-0.321,71.715,48.842,106.365,
32278580,-0.02,-0.016,-0.268,11.655,59.85,109.865,
32278590,0.088,-0.287,-0.332,-7.875,52.972,97.807,
32278600,0.318,-0.101,-0.438,-0.962,46.34,79.887,
32278610,0.197,0.035,-0.41,-24.692,37.957,40.88,
32278620,0.03,-0.228,-0.388,-81.48,19.39,-17.587,
32278630,-0.145,-0.664,-0.27,-121.45,0.945,-64.54,
32278640,-0.304,-0.89,-0.181,-126.752,-12.705,-94.535,
32278650,-0.493,-0.816,-0.221,-113.942,-17.027,-104.755,
32278660,-0.733,-0.647,-0.192,-113.697,-21.787,-88.917,
32278670,-0.632,-0.788,1.332,-134.61,-48.737,-56.105,
32278680,1.789,-1.539,0.001,45.692,-80.325,-115.5,
32278690,-0.017,1.778,0.513,526.067,272.615,-147.595,
32278700,-0.84,-0.563,0.855,279.002,169.015,-209.282,
32278710,1.998,-1.744,0.12,326.34,115.202,-55.16,
32278720,1.993,1.421,1.247,502.897,154.997,41.317,
32278730,1.466,0.231,1.998,366.205,277.025,85.837,
32278740,-1.421,0.921,1.983,137.69,262.465,106.47,
32278750,-1.083,1.017,1.875,55.912,66.412,110.652,
32278760,-1.003,-1.202,1.114,-151.077,-62.79,30.922,
32278760,0.376,0.209,0.931,-74.217,-95.392,-0.122,
32278780,0.639,-1.46,0.325,-124.775,-73.412,-18.83,
32278780,0.572,-0.396,0.573,-35.507,-37.415,2.537,
32278800,0.528,-0.764,0.56,-22.47,-9.817,13.37,
32278800,0.209,-0.384,0.79,13.51,9.012,33.372,
32278820,-0.161,-0.448,0.886,25.742,15.417,34.632,
32278820,-0.118,-0.321,0.979,32.532,16.205,15.61,
32278830,0.171,-0.145,1.075,30.187,12.95,-1.242,
32278840,0.108,-0.017,1.136,18.392,13.055,-0.962,
32278850,-0.159,-0.129,1.123,3.675,7.805,3.972,
32278860,-0.165,-0.18,1.058,-6.492,-5.862,1.505,
32278870,0,-0.295,0.986,-14.42,-19.005,-7.875,
32278880,0.164,-0.258,0.982,-15.277,-21.385,-14.507,
32278890,0.189,-0.251,0.969,-17.097,-17.185,-17.605,
32278900,0.136,-0.303,0.956,-19.18,-10.657,-19.495,
32278910,0.13,-0.286,0.971,-18.427,-6.125,-24.097,
32278920,0.181,-0.232,1.043,-20.195,-1.68,-30.135,
32278930,0.199,-0.188,1.096,-29.207,1.575,-34.352,
32278940,0.123,-0.163,1.165,-41.982,4.375,-36.26,
32278950,0.076,-0.189,1.27,-61.827,5.425,-40.792,
32278960,-0.046,-0.16,1.42,-89.302,5.32,-48.562,
32278970,0.005,-0.172,1.431,-125.317,-7.577,-53.48,
32278980,0.081,-0.235,1.372,-159.162,-27.492,-51.432,
32278990,0.172,-0.237,1.333,-179.795,-50.19,-40.897,
32279000,0.178,-0.234,1.272,-191.642,-72.292,-25.147,
32279010,0.129,-0.317,1.244,-204.575,-92.365,-12.775,
32279020,-0.038,-0.377,1.269,-219.1,-109.83,-1.61,
32279030,0.053,-0.786,1.211,-228.707,-135.852,-6.615,
32279040,0.431,-1.421,0.965,-214.147,-131.267,6.09,
32279050,0.655,-1.985,0.578,-161.28,-94.815,36.785,
32279060,0.427,-1.998,0.486,-90.86,0.105,67.007,
32279070,-1.198,-1.979,0.351,37.607,70.945,110.267,
32279080,0.531,-0.84,-0.217,159.232,82.372,175.455,
32279090,0.843,-0.176,-0.033,121.677,76.982,201.74,
32279100,1.027,-0.281,0.038,39.235,58.905,114.047,
32279110,1.063,-0.38,0.045,23.817,61.075,61.425,
32279120,0.835,0.187,-0.058,41.667,55.58,-1.05,
32279130,0.586,0.801,-0.135,34.58,31.605,-81.812,
32279140,0.177,1.08,-0.159,-0.297,-5.162,-144.9,
32279150,-0.16,1.136,-0.231,-23.205,-44.38,-191.73,
32279160,-0.395,1.133,-0.298,-38.885,-78.942,-215.897,
32279170,-0.763,1.1,-0.37,-53.567,-100.432,-220.132,
32279170,-1.083,0.923,-0.401,-73.482,-127.225,-202.702,
32279190,-1.094,0.58,-0.364,-94.307,-163.852,-161.315,
32279190,-0.639,0.15,-0.34,-99.015,-195.737,-121.66,
32279210,0.488,-0.919,0.124,-89.39,-196.805,-96.477,
32279210,1.998,-1.702,1.728,-96.162,90.895,-24.027,
32279230,1.534,-1.998,-0.531,254.03,504,84.945,
32279230,-1.926,-0.519,1.432,473.55,236.53,-59.517,
32279250,1.511,1.997,1.034,551.6,170.94,17.5,
32279250,0.574,0.723,1.998,367.395,200.165,108.482,
32279260,-0.441,-1.746,1.998,128.222,205.432,99.417,
32279270,-1.768,1.782,1.998,251.755,169.452,113.61,
32279280,-1.616,0.715,1.979,9.275,42.402,15.872,
32279290,-0.506,-0.681,1.63,-135.222,-59.727,-31.657,
32279300,-0.188,0.829,0.99,-109.97,-93.625,-50.557,
32279310,0.473,-0.838,0.278,-171.167,-97.492,-52.045,
32279320,0.7,-1.138,0.363,-113.487,-73.22,-26.32,
32279330,0.764,-0.495,0.427,-59.675,-50.05,-6.107,
32279340,0.709,-0.483,0.497,-28.595,-24.745,20.545,
32279350,0.238,-0.548,0.641,-2.415,-11.445,43.33,
32279360,-0.006,-0.478,0.776,16.87,-5.495,46.567,
32279370,-0.063,-0.553,0.889,25.165,-1.4,32.322,
32279380,0.078,-0.348,0.917,34.055,0.665,20.142,
32279390,0.18,-0.31,1.047,33.88,2.275,13.09,
32279400,0.199,-0.188,1.222,29.19,4.462,12.915,
32279410,0.03,-0.208,1.228,8.697,2.87,8.662,
32279420,0.014,-0.267,1.12,-7.612,-2.765,1.89,
32279430,0.08,-0.211,1.091,-22.085,-7.612,-7.927,
32279440,0.15,-0.286,1.129,-38.552,-10.517,-14.805,
32279450,0.171,-0.218,1.268,-50.505,-11.83,-17.325,
32279460,0.17,-0.26,1.452,-76.265,-15.627,-19.95,
32279470,0.2,-0.245,1.599,-109.375,-25.812,-18.76,
32279480,0.217,-0.227,1.616,-143.395,-47.022,-10.342,
32279490,0.167,-0.24,1.57,-178.447,-83.982,2.17,
32279500,0.241,-0.175,1.694,-213.045,-139.667,16.922,
32279510,0.194,-0.336,1.938,-258.055,-192.727,38.255,
32279510,-0.125,-1.047,1.891,-295.662,-264.425,46.952,
32279530,-0.49,-1.63,1.259,-276.692,-344.032,40.25,
32279530,-1.136,-1.603,0.766,-224.035,-411.88,69.492,
32279550,-0.244,-1.134,0.333,-155.645,-418.722,99.855,
32279550,0.434,-1.655,-0.267,-108.097,-328.755,114.66,
32279570,0.839,-1.744,0.254,-88.2,-184.152,133.595,
32279570,0.898,-1.337,0.578,-58.922,-53.865,128.327,
32279580,1.032,-0.552,0.646,-9.73,95.69,114.625,
32279590,0.861,0.27,0.772,12.53,215.862,92.977,
32279600,0.147,0.671,0.594,7.035,273.665,48.912,
32279610,-0.137,0.84,0.756,3.465,270.935,21.332,
32279620,-0.166,0.849,0.645,19.022,245.805,4.847,
32279630,-0.097,0.972,0.461,59.5,227.062,-3.832,
32279640,-0.088,1.024,0.166,94.325,226.397,0.297,
32279650,-0.508,0.947,-0.078,106.872,221.13,5.442,
32279660,-0.706,0.754,-0.265,99.505,180.6,4.515,
32279670,-0.303,0.5,-0.35,82.057,121.852,3.43,
32279680,0.169,0.173,-0.455,55.632,83.265,2.905,
32279690,0.257,-0.187,-0.503,37.31,63.21,1.067,
32279700,0.223,-0.46,-0.522,30.782,35.927,-7.122,
32279710,0.411,-0.785,-0.575,28.017,5.18,-14.822,
32279720,0.405,-1.139,-0.656,33.827,-13.37,-15.505,
32279730,0.002,-1.37,-0.801,75.355,-29.662,-8.715,
32279740,-0.305,-0.436,-0.908,107.187,-56.367,11.2,
32279750,-0.384,-1.348,-0.694,66.535,-73.885,-9.765,
32279760,1.858,-1.998,1.437,5.267,-86.432,-62.387,
32279770,1.528,-1.998,0.593,167.212,-91.402,-167.86,
32279780,-0.155,0.767,1.309,536.025,201.215,-69.877,
32279790,-0.04,1.997,1.328,556.867,111.037,-67.777,
32279800,1.998,0.067,1.55,250.985,85.085,-81.445,
32279810,1.562,-1.933,1.601,143.272,163.922,44.1,
32279820,0.103,1.624,1.998,432.372,242.83,110.582,
32279830,-1.862,1.852,1.689,127.312,135.817,67.06,
32279840,-1.108,0.55,1.852,-61.862,-19.862,49.507,
32279850,-0.194,-0.301,1.413,-146.597,-98.245,16.52,
32279860,0.259,-0.595,0.988,-171.832,-98.752,-7.455,
32279870,0.256,-0.322,0.805,-160.825,-92.172,-9.817,
32279880,0.382,-0.95,0.514,-140.122,-75.932,-5.39,
32279890,0.344,-0.922,0.113,-112.997,-55.37,-8.522,
32279900,0.372,-0.679,0.106,-34.667,-35.962,12.355,
32279910,0.197,-0.724,0.177,13.737,-17.552,16.817,
32279920,0.309,-0.955,0.519,58.45,-0.017,20.51,
32279920,0.482,-0.075,1.102,102.567,17.097,35.542,
32279940,0.23,0.022,1.462,85.61,29.557,40.6,
32279940,-0.117,-0.086,1.31,44.24,25.917,39.742,
32279960,-0.165,-0.206,1.168,20.58,11.077,31.29,
32279960,-0.191,-0.211,1.192,3.01,-1.067,15.697,
32279980,-0.151,-0.138,1.233,-10.237,-13.51,0.56,
32279980,0.181,-0.129,1.211,-31.85,-21.21,-14.21,
32280000,0.369,-0.132,1.134,-50.032,-20.615,-15.89,
32280000,0.376,-0.256,1.148,-65.835,-14.35,-9.065,
32280010,0.332,-0.246,1.268,-80.342,-10.447,-4.147,
32280020,0.413,-0.34,1.397,-100.642,-9.94,0.507,
32280030,0.459,-0.349,1.496,-128.975,-11.287,11.147,
32280040,0.556,-0.409,1.441,-160.37,-18.182,25.305,
32280050,0.467,-0.299,1.438,-181.247,-44.415,44.695,
32280060,0.602,-0.159,1.564,-207.077,-80.937,64.855,
32280070,0.269,-0.438,1.503,-240.66,-131.792,84.752,
32280080,0.272,-1.043,1.467,-252.805,-221.042,72.66,
32280090,0.163,-1.921,0.97,-234.255,-316.015,69.352,
32280100,-0.02,-1.857,0.177,-157.99,-369.827,78.82,
32280110,0.801,-1.977,0.61,-53.375,-373.24,117.302,
32280120,1.188,-1.908,-0.024,5.197,-307.737,75.022,
32280130,0.922,-0.82,0.302,105.262,-132.877,34.58,
32280140,0.116,-0.26,0.143,87.097,39.585,-1.085,
32280150,-0.823,-0.362,0.185,17.307,134.47,-34.09,
32280160,-1.149,-0.495,0.229,-7.07,145.425,-47.827,
32280170,-0.871,-0.16,0.224,17.517,128.432,-46.147,
32280180,-0.515,0.265,0.232,30.362,123.532,-40.652,
32280190,-0.374,0.376,0.172,16.835,133.21,-36.89,
32280200,-0.423,0.402,0.118,9.905,142.817,-35.805,
32280210,-0.491,0.53,0.069,12.197,143.955,-39.445,
32280220,-0.42,0.573,0.003,2.467,136.657,-49.017,
32280230,-0.328,0.426,-0.051,-20.982,127.085,-67.445,
32280240,-0.305,0.2,-0.086,-48.72,117.792,-90.475,
32280250,-0.289,-0.051,-0.075,-69.562,109.48,-103.565,
32280260,-0.33,-0.244,-0.063,-78.942,103.18,-103.197,
32280260,-0.409,-0.351,-0.024,-82.18,93.625,-84.472,
32280280,-0.493,-0.552,-0.035,-83.422,79.047,-42.315,
32280280,-0.395,-0.753,-0.069,-73.605,55.79,17.885,
32280300,-0.283,-0.821,-0.196,-50.4,26.967,82.792,
32280300,0.013,-0.694,-0.388,-29.837,-4.2,127.47,
32280320,0.208,-0.522,-0.347,-27.09,-24.972,146.72,
32280320,1.517,-1.43,0.891,-56.682,-55.527,143.045,
32280330,1.961,-1.984,1.997,197.732,-143.64,-81.672,
32280340,0.543,-0.945,1.401,464.065,-134.47,-307.23,
32280350,-1.512,0.085,0.597,471.485,119.437,-13.23,
32280360,0.947,0.619,1.442,471.957,74.235,87.202,
32280370,0.993,0.218,1.535,412.93,84.735,9.712,
32280380,1.114,0.037,1.998,383.95,125.037,86.432,
32280390,0.753,1.573,1.998,271.862,220.307,105.7,
32280400,-1.841,1.856,1.998,45.202,133.227,102.865,
32280410,0.16,-0.121,1.802,-121.8,-58.24,99.54,
32280420,-0.717,-0.198,1.245,-190.26,-96.565,32.235,
32280430,-0.274,-0.732,0.335,-180.67,-65.922,-16.695,
32280440,-0.169,-1.38,0.057,-141.137,-39.707,-49.735,
32280450,0.181,-0.982,-0.034,-71.312,-15.592,-68.67,
32280460,0.874,-0.686,0.176,-1.942,-3.605,-47.81,
32280470,0.732,-0.621,0.607,41.72,3.832,-9.082,
32280480,0.557,-0.093,1.084,63.595,18.48,26.88,
32280490,0.116,-0.272,1.247,49.56,28.227,40.337,
32280500,-0.207,-0.21,1.15,29.785,22.382,37.852,
32280510,-0.317,-0.163,1.263,17.727,11.62,25.55,
32280520,-0.372,-0.168,1.302,0.157,-2.73,5.687,
32280530,-0.206,-0.266,1.125,-18.847,-18.637,-17.43,
32280540,0.087,-0.303,1.102,-28.98,-29.05,-32.725,
32280550,0.247,-0.187,1.135,-35.805,-24.377,-42.735,
32280560,0.277,-0.255,1.047,-48.947,-13.23,-48.125,
32280570,0.321,-0.304,1.077,-58.24,-4.462,-46.707,
32280580,0.212,-0.269,1.173,-68.092,2.66,-45.955,
32280590,0.246,-0.205,1.336,-83.877,6.282,-43.82,
32280600,0.301,-0.188,1.48,-114.992,6.51,-42.017,
32280610,0.298,-0.252,1.524,-154.857,0.962,-32.025,
32280620,0.267,-0.355,1.424,-190.715,-26.302,-11.637,
32280630,0.311,-0.231,1.396,-209.16,-67.882,17.5,
32280640,0.226,-0.177,1.512,-229.022,-118.772,43.82,
32280650,-0.036,-0.372,1.544,-259.157,-182.717,65.38,
32280660,-0.363,-0.706,1.673,-273.472,-258.002,82.512,
32280670,-0.688,-1.611,1.737,-276.937,-343.875,89.477,
32280670,0.157,-1.998,0.921,-237.265,-408.555,74.62,
32280690,0.079,-1.92,-0.141,-67.235,-373.992,120.33,
32280690,0.734,-1.998,0.618,10.815,-250.32,146.632,
32280710,-0.003,-1.75,0.357,57.067,-102.83,134.662,
32280710,0.599,-0.518,-0.048,180.197,33.845,163.8,
32280720,0.195,0.295,-0.017,170.17,125.072,161.35,
32280730,0.198,0.068,-0.059,72.222,137.007,95.06,
32280740,0.544,-0.211,0.023,41.737,129.762,39.462,
32280750,0.873,0.119,0.1,61.932,151.357,9.66,
32280760,0.88,0.47,0.117,63.927,179.48,-33.162,
32280770,0.638,0.518,0.054,54.11,196.63,-92.872,
32280780,0.274,0.51,-0.106,60.41,195.037,-146.492,
32280790,0,0.661,-0.353,77.017,173.88,-183.172,
32280800,-0.222,0.895,-0.447,74.532,143.465,-201.722,
32280810,-0.443,0.849,-0.462,27.265,104.317,-209.037,
32280820,-0.515,0.385,-0.331,-33.722,63.367,-205.642,
32280830,-0.525,-0.061,-0.172,-73.097,31.517,-179.935,
32280840,-0.493,-0.378,-0.173,-78.89,9.572,-140,
32280850,-0.566,-0.434,-0.258,-56.542,-15.417,-91.787,
32280860,-0.7,-0.226,-0.376,-32.147,-52.29,-48.86,
32280870,-0.535,-0.256,-0.476,-36.715,-96.705,-19.81,
32280880,-0.292,-0.607,-0.531,-61.687,-134.68,-4.235,
32280890,-0.221,-0.867,-0.573,-70.665,-160.667,-6.09,
32280900,-0.55,-1.351,-0.62,-67.637,-181.195,-25.917,
32280910,1.99,-1.938,1.796,-138.285,-123.952,-88.48,
32280920,1.436,-1.822,-1.675,199.692,234.412,-260.277,
32280930,-1.993,1.887,1.203,567.525,248.867,-127.802,
32280940,1.554,1.997,0.9,531.912,102.2,-61.407,
32280950,1.998,-0.473,0.972,198.467,183.767,38.447,
32280960,0.563,-1.644,1.42,172.725,301.297,124.827,
32280970,0.226,1.744,1.998,386.61,379.452,133.927,
32280980,-1.995,1.888,1.981,79.327,233.467,107.397,
32280990,-1.203,0.271,1.915,-67.235,14.577,69.772,
32281000,-0.395,0.46,1.983,-132.37,-98.315,18.882,
32281010,0.999,0.155,1.603,-267.557,-146.16,-0.157,
32281010,0.1,0.12,0.714,-259.385,-123.2,17.535,
32281030,-0.389,-1.132,0.013,-250.547,-110.11,22.085,
32281030,-0.088,-1.736,-0.266,-205.397,-92.102,-2.555,
32281050,-0.008,-1.116,-0.249,-103.425,-63.227,-18.287,
32281050,0.343,-0.593,-0.167,-26.775,-37.03,-28.927,
32281070,0.739,-0.891,0.124,10.622,-11.48,-37.082,
32281070,0.913,-0.576,0.538,58.712,12.022,-11.865,
32281080,0.826,-0.126,0.939,83.912,31.517,20.807,
32281090,0.393,-0.328,1.138,67.585,38.535,41.93,
32281100,0.009,-0.326,1.244,52.727,36.295,50.522,
32281110,-0.207,-0.18,1.47,36.295,30.467,41.002,
32281120,-0.391,-0.249,1.589,4.55,21.42,17.08,
32281130,-0.167,-0.094,1.441,-28.175,10.097,-7.542,
32281140,0.031,-0.237,1.296,-62.755,0.14,-30.607,
32281150,0.245,-0.293,1.202,-86.537,-6.37,-36.05,
32281160,0.23,-0.334,1.213,-104.877,-12.652,-30.887,
32281170,0.18,-0.32,1.235,-127.732,-25.637,-21.157,
32281180,0.159,-0.427,1.237,-155.242,-43.47,-11.882,
32281190,0.121,-0.406,1.288,-174.002,-65.31,-1.977,
32281200,0.143,-0.385,1.388,-193.322,-90.492,5.565,
32281210,0.179,-0.321,1.435,-217.735,-116.41,14.892,
32281220,0.149,-0.509,1.421,-243.355,-142.782,21.542,
32281230,0.217,-0.702,1.275,-255.412,-175.472,16.712,
32281240,0.208,-0.977,0.998,-249.305,-203.682,11.917,
32281250,0.516,-0.795,0.991,-226.782,-224.385,20.912,
32281260,0.861,-0.622,0.966,-202.387,-221.532,38.85,
32281270,0.637,-0.756,0.791,-175.525,-175.787,30.607,
32281280,1.034,-0.889,0.435,-142.712,-107.502,10.57,
32281290,1.267,-1.49,0.84,-99.207,-14.787,19.722,
32281300,0.779,-1.779,0.278,-33.442,73.937,2.765,
32281310,0.19,-1.071,0.181,106.47,126.297,-14.157,
32281320,-0.344,-0.38,0.023,205.66,112.542,-23.572,
32281330,-0.035,-0.233,-0.436,206.237,90.615,-21.14,
32281340,0.334,-0.232,-0.413,186.672,104.755,-7.665,
32281350,0.235,-0.204,-0.427,170.432,139.79,-7.927,
32281360,-0.055,-0.185,-0.757,154.297,161.157,-23.275,
32281370,-0.24,0.089,-0.985,142.992,157.692,-36.26,
32281380,-0.426,0.43,-0.925,100.432,127.837,-44.59,
32281390,-0.41,0.249,-0.64,4.672,79.45,-56.77,
32281390,-0.015,-0.437,-0.301,-90.3,37.712,-62.877,
32281410,0.211,-1.001,-0.003,-98.42,29.575,-56.7,
32281410,-0.1,-0.769,0.175,-24.272,36.032,-47.302,
32281420,-0.467,-0.164,0.097,42.612,28.297,-38.045,
32281430,-0.626,0.285,-0.104,52.605,2.117,-27.527,
32281440,-0.617,0.455,-0.113,18.55,-22.715,-1.54,
32281450,-0.554,0.285,-0.035,-30.782,-36.68,31.097,
32281460,-0.441,0.117,0.204,-56.525,-46.095,53.847,
32281470,-0.365,-0.108,0.24,-59.465,-49.787,65.222,
32281480,1.251,-1.702,1.25,-59.587,-25.287,77.105,
32281490,1.997,-1.998,0.527,136.832,-27.632,-63.017,
32281500,0.793,-1.113,-0.853,502.057,319.707,-391.842,
32281510,-1.998,1.964,1.133,570.587,226.152,-7.192,
32281520,1.433,1.805,0.346,462.997,64.942,-34.16,
32281530,1.804,-1.401,0.877,257.722,167.65,41.527,
32281540,0.147,-0.54,1.998,301.927,298.235,60.567,
32281550,-0.75,1.911,1.998,241.447,285.67,116.567,
32281560,-1.554,1.433,1.979,-1.557,104.09,137.515,
32281570,-0.897,0.347,1.998,-178.237,-84.192,78.68,
32281580,0.484,0.409,1.626,-310.152,-151.725,21.84,
32281590,-0.518,-0.618,0.654,-302.365,-121.905,6.3,
32281600,-0.396,-1.829,0.025,-294.437,-119.21,-3.937,
32281610,-0.258,-1.175,-0.092,-209.825,-102.795,-9.275,
32281620,0.105,-0.572,-0.19,-131.145,-72.87,-29.645,
32281630,0.419,-0.728,-0.362,-81.812,-51.275,-36.382,
32281640,0.57,-0.913,-0.25,-31.71,-38.15,-35.21,
32281650,0.773,-1,0.084,26.792,-21.805,-26.6,
32281660,0.89,-0.598,0.53,72.66,-0.315,8.592,
32281670,0.752,-0.215,1.06,91.787,16.415,38.237,
32281680,0.364,-0.239,1.156,77.962,20.685,60.007,
32281690,-0.057,-0.386,1.091,68.652,14.91,68.792,
32281700,-0.317,-0.326,1.197,62.912,5.18,61.88,
32281710,-0.473,-0.358,1.224,52.395,-3.325,42,
32281720,-0.247,-0.412,1.105,33.145,-10.832,8.82,
32281730,0.332,-0.382,0.947,24.272,-15.855,-5.652,
32281740,0.592,-0.411,0.94,19.512,-13.195,-0.105,
32281750,0.349,-0.392,0.981,16.642,-8.33,17.745,
32281760,0.149,-0.365,1,14.997,-11.55,32.007,
32281760,-0.024,-0.34,1.069,6.65,-21.332,34.002,
32281780,0.027,-0.327,1.207,-8.347,-33.162,27.352,
32281780,0.079,-0.361,1.306,-31.885,-43.837,22.295,
32281800,0.111,-0.246,1.377,-55.562,-60.48,23.415,
32281800,0.214,-0.209,1.39,-90.142,-83.615,23.205,
32281820,0.284,-0.322,1.38,-129.482,-116.777,28.437,
32281820,0.382,-0.363,1.349,-161.647,-152.407,44.467,
32281830,0.293,-0.296,1.261,-184.852,-187.67,64.662,
32281840,0.127,-0.47,1.224,-209.492,-230.44,77.297,
32281850,0.318,-0.853,1.131,-229.215,-272.16,71.365,
32281860,0.098,-1.101,1.213,-215.425,-309.68,60.112,
32281870,0.219,-1.871,0.902,-193.882,-344.4,32.112,
32281880,0.133,-1.738,0.539,-115.482,-349.702,39.165,
32281890,0.297,-1.79,0.534,16.152,-324.555,75.285,
32281900,0.473,-1.782,0.408,107.415,-238.945,88.235,
32281910,0.795,-1.309,0.012,158.637,-87.552,109.672,
32281920,1.023,-0.785,0.113,160.807,105.49,120.732,
32281930,0.541,-0.566,0.104,128.747,225.067,46.865,
32281940,0.195,-0.571,-0.126,89.6,283.307,-33.95,
32281950,-0.16,-0.343,-0.094,62.492,300.72,-84.175,
32281960,-0.498,-0.059,-0.004,37.1,286.212,-127.102,
32281970,-0.627,0.084,0.07,8.312,250.897,-167.44,
32281980,-0.691,0.169,0.094,-19.46,210.21,-197.225,
32281990,-0.688,0.309,0.146,-36.557,179.41,-213.01,
32282000,-0.81,0.326,0.112,-50.627,160.685,-205.555,
32282010,-1.175,0.266,0.057,-57.592,137.585,-179.13,
32282020,-1.407,0.219,0.05,-53.322,101.657,-135.852,
32282030,-1.308,0.095,0.142,-55.387,65.082,-71.907,
32282040,-0.876,-0.192,0.144,-55.107,48.265,-4.41,
32282050,-0.569,-0.297,0.078,-28.822,59.885,52.045,
32282060,-0.452,0.056,-0.087,6.195,80.517,91.035,
32282070,-0.367,0.535,-0.264,15.697,90.212,118.44,
32282080,-0.207,0.975,-0.51,0.227,80.395,124.582,
32282080,-0.269,1.285,-0.635,-26.477,48.475,105.437,
32282100,0.648,-0.394,1.134,-82.057,-0.682,36.435,
32282100,1.998,-1.998,-0.667,22.085,-8.435,-275.17,
32282120,-1.153,0.606,0.289,532.647,400.697,-401.17,
32282120,0.423,1.997,1.266,545.457,156.607,-32.025,
32282140,1.35,-0.962,1.407,317.065,135.187,162.417,
32282140,1.447,-0.438,1.998,298.935,247.45,193.935,
32282160,-1.935,1.996,1.998,286.51,287.42,263.707,
32282160,-1.367,0.659,1.691,-19.985,14.49,134.155,
32282170,-0.5,0.343,1.688,-117.005,-146.93,2.292,
32282180,1.118,-0.461,1.017,-192.692,-160.562,-26.145,
32282190,0.573,-0.442,0.719,-159.775,-118.632,2.117,
32282200,0.442,-0.913,0.36,-150.885,-82.145,6.947,
32282210,0.381,-0.893,0.131,-106.575,-58.852,14.07,
32282220,0.182,-0.751,0.159,-39.322,-39.007,33.232,
32282230,-0.103,-0.811,0.176,17.832,-16.887,31.64,
32282240,-0.119,-0.868,0.453,67.007,-0.385,18.725,
32282250,0.218,-0.293,1.054,103.897,4.112,16.485,
32282260,0.411,0.185,1.399,96.565,11.97,20.107,
32282270,0.079,-0.079,1.258,59.482,19.11,20.282,
32282280,-0.068,-0.339,1.129,31.64,16.905,14.455,
32282290,-0.076,-0.066,1.3,21.717,8.155,4.357,
32282300,-0.176,-0.14,1.231,-5.442,-4.532,-10.552,
32282310,0.066,-0.222,1.152,-28.122,-16.012,-26.267,
32282320,0.433,-0.132,1.065,-40.757,-14.14,-32.025,
32282330,0.401,-0.177,1.122,-53.987,0.245,-26.18,
32282340,0.371,-0.244,1.18,-74.917,12.337,-19.127,
32282350,0.306,-0.269,1.31,-97.265,17.272,-11.497,
32282360,0.256,-0.287,1.403,-123.865,10.99,-3.395,
32282370,-0.092,-0.335,1.487,-150.99,-27.912,7.56,
32282380,0.674,-0.362,1.364,-179.287,-94.237,19.687,
32282390,0.208,-0.28,1.537,-204.032,-119.507,56.612,
32282400,0.039,-0.224,1.601,-233.152,-187.95,70.7,
32282410,0.273,-0.798,1.598,-283.727,-260.26,76.107,
32282420,0.327,-1.088,1.518,-293.755,-337.032,76.825,
32282430,-0.43,-1.988,0.478,-292.53,-382.795,80.255,
32282440,0.943,-1.998,-0.913,-191.222,-316.067,76.895,
32282450,-0.436,-1.998,-0.533,-40.495,-180.897,118.58,
32282460,0.839,-1.998,-0.461,3.955,-86.905,145.792,
32282470,0.744,-1.422,-0.127,55.282,-4.392,179.707,
32282480,1.157,-0.789,0.269,12.302,57.522,174.02,
32282490,1.217,-0.467,0.411,-25.515,91.192,156.975,
32282500,1.126,0.103,0.403,-37.1,105.175,115.64,
32282510,1.069,1.091,0.411,-52.605,102.34,70.332,
32282510,0.654,1.96,0.45,-72.94,88.672,21.262,
32282530,0.041,1.997,0.691,-93.257,53.952,-65.66,
32282530,0.042,1.997,0.736,-122.622,16.257,-178.01,
32282550,0.093,1.852,0.654,-119.647,7.682,-237.142,
32282550,0.331,1.379,0.705,-78.137,35.525,-241.85,
32282570,0.256,0.767,0.626,-38.535,84.035,-232.33,
32282570,-0.047,0.144,0.189,6.702,121.677,-229.337,
32282580,-0.301,-0.091,-0.081,50.365,124.32,-205.082,
32282590,-0.313,-0.931,-0.34,63.875,92.26,-167.16,
32282600,-0.092,-0.475,-0.638,105.857,43.137,-143.815,
32282610,-0.025,-0.15,-0.627,72.642,1.102,-107.94,
32282620,0.109,-1.057,-0.763,-22.242,-31.377,-116.34,
32282630,-0.116,-1.384,-0.878,-36.645,-64.942,-117.407,
32282640,-0.318,-1.997,-1.163,-8.137,-104.212,-104.247,
32282650,0.621,-1.992,-0.091,21.962,-143.027,-110.967,
32282660,1.798,-1.957,1.93,-41.755,75.565,-43.435,
32282670,-0.242,-1.998,-1.238,206.22,426.265,45.325,
32282680,-1.199,0.865,1.209,563.99,180.547,-29.05,
32282690,1.486,1.997,0.469,561.312,157.237,-30.38,
32282700,0.308,-0.061,0.969,416.867,189.91,8.785,
32282710,1.968,-1.593,1.716,378.052,372.155,13.65,
32282720,1.18,0.74,1.998,377.16,556.237,39.777,
32282730,-1.998,1.997,1.133,110.635,368.182,76.912,
32282740,0.165,-0.712,1.838,-54.022,-18.987,132.685,
32282750,-0.497,-1.355,1.432,-177.782,-135.45,31.062,
32282760,-0.041,-0.319,0.88,-79.765,-139.755,8.715,
32282770,0.679,-0.466,0.422,-123.217,-108.972,-37.24,
32282780,0.883,-1.337,0.101,-109.13,-62.405,-41.475,
32282790,1.319,-0.65,0.458,-19.967,-17.692,2.17,
32282800,0.512,-0.058,0.72,8.715,20.965,35.507,
32282810,-0.056,-0.555,0.847,13.037,37.87,52.465,
32282820,-0.235,-0.427,0.974,32.34,34.055,55.895,
32282830,-0.233,-0.144,1.134,35.91,26.302,37.572,
32282830,0.048,-0.074,1.17,21.507,14.175,20.825,
32282850,0.061,-0.226,1.084,5.617,5.67,12.565,
32282850,-0.006,-0.215,1.05,-3.377,-1.015,7.192,
32282870,0.03,-0.337,0.97,-10.657,-6.125,-1.417,
32282870,0.26,-0.335,0.903,-5.722,-6.685,-4.462,
32282890,0.227,-0.356,0.857,-0.682,0.682,-4.602,
32282890,0.171,-0.413,0.862,5.127,6.93,-2.975,
32282910,0.035,-0.316,0.947,14.42,10.045,-0.542,
32282910,0.032,-0.248,1.023,15.872,5.652,-3.272,
32282920,0.077,-0.176,1.064,8.872,-0.437,-6.597,
32282930,0.064,-0.178,1.072,-0.682,-7.087,-6.09,
32282940,0.089,-0.168,1.166,-13.51,-13.475,-4.62,
32282950,0.097,-0.092,1.306,-31.867,-20.825,-4.375,
32282960,0.136,-0.033,1.499,-62.545,-33.04,-2.17,
32282970,0.303,-0.079,1.591,-109.182,-43.907,2.24,
32282980,0.108,-0.163,1.551,-162.277,-59.01,2.45,
32282990,-0.125,-0.218,1.476,-197.557,-102.83,9.747,
32283000,0.288,-0.261,1.416,-223.405,-149.66,22.942,
32283010,0.241,-0.247,1.426,-245.122,-172.235,39.69,
32283020,0.312,-0.304,1.742,-271.67,-211.645,45.395,
32283030,1.049,-1.229,1.822,-315.665,-255.605,68.88,
32283040,1.457,-1.998,0.912,-298.025,-269.36,83.23,
32283050,0.147,-1.998,0.574,-145.442,-194.267,99.085,
32283060,-1.293,-1.997,-0.152,161.525,-108.622,267.155,
32283070,0.767,-0.552,-0.992,437.377,-71.015,442.382,
32283080,0.833,0.506,-0.812,343.647,-57.015,456.907,
32283090,1.338,-0.026,-0.344,108.395,-66.465,324.625,
32283100,1.652,-0.988,-0.206,-3.885,-22.19,226.31,
32283110,1.328,-0.766,-0.259,33.565,40.407,167.317,
32283120,0.939,0.222,-0.203,65.887,69.422,90.545,
32283130,0.881,0.653,-0.185,1.96,71.4,-7.017,
32283140,0.817,0.638,-0.07,-91.717,63.542,-117.32,
32283150,0.345,0.466,0.007,-150.027,57.19,-208.442,
32283160,-0.114,0.474,0.231,-153.265,41.545,-268.922,
32283170,-0.293,0.537,0.322,-145.005,20.545,-302.277,
32283180,-0.407,0.538,0.333,-131.53,5.757,-317.117,
32283190,-0.839,0.527,0.225,-112.087,-7.962,-319.725,
32283200,-1.301,0.54,0.104,-97.282,-37.607,-301.7,
32283210,-1.408,0.578,0.058,-97.702,-81.9,-251.527,
32283220,-1.128,0.553,0.007,-106.54,-120.767,-178.885,
32283230,-0.973,0.465,0.069,-115.867,-146.3,-99.382,
32283240,-0.984,0.171,0.071,-114.45,-178.447,-40.25,
32283250,-0.888,-0.06,0.191,-88.515,-227.15,-9.31,
32283260,-0.72,-0.961,0.18,-25.305,-284.655,18.41,
32283260,-0.438,1.657,-0.134,96.512,-350.455,55.055,
32283280,1.998,-1.285,0.456,102.287,-41.93,24.482,
32283280,0.333,-1.998,-1.32,44.642,476.175,-165.795,
32283300,-1.914,1.215,1.413,537.985,328.37,-38.01,
32283300,1.883,1.997,0.31,532.84,280.945,164.185,
32283320,0.359,-0.894,0.832,210.087,373.45,207.97,
32283320,-0.406,-1.873,1.02,269.167,296.432,98.717,
32283330,0.182,1.732,1.995,537.285,356.562,184.135,
32283340,-1.365,0.962,1.998,258.545,313.67,94.622,
32283350,-1.365,1.715,1.778,26.495,94.36,66.832,
32283360,-1.537,0.01,1.719,-59.342,-66.465,13.895,
32283370,0.324,-0.581,1.308,-153.492,-127.837,-53.795,
32283380,0.489,-0.202,0.744,-156.135,-110.617,-69.65,
32283390,0.714,-0.767,0.075,-126.175,-75.005,-51.765,
32283400,0.787,-1.188,0.093,-74.165,-42.962,-21.297,
32283410,0.638,-0.38,0.482,7.84,-17.902,22.925,
32283420,0.242,-0.422,0.906,34.562,2.275,44.59,
32283430,-0.005,-0.224,1.114,38.885,4.742,56.14,
32283440,-0.141,-0.186,1.112,30.992,-1.102,45.412,
32283450,-0.057,-0.28,1.102,13.912,-9.275,24.202,
32283460,0.016,-0.155,1.218,3.395,-17.237,11.515,
32283470,0.146,-0.151,1.082,-12.565,-25.707,3.447,
32283480,0.29,-0.4,0.856,-24.325,-25.777,-2.397,
32283490,0.385,-0.462,0.789,-17.482,-12.722,-4.585,
32283500,0.384,-0.321,0.883,-8.61,3.36,-6.09,
32283510,0.329,-0.307,0.969,-5.407,16.8,-3.167,
32283520,0.248,-0.209,1.05,-9.677,23.765,-1.925,
32283530,0.224,-0.196,1.198,-23.642,23.362,-1.19,
32283540,0.185,-0.114,1.431,-45.01,13.457,2.117,
32283550,0.139,-0.06,1.601,-83.282,-8.487,8.802,
32283560,0.036,-0.08,1.667,-134.732,-50.347,20.387,
32283570,0.024,-0.098,1.632,-186.97,-103.337,37.642,
32283580,-0.033,-0.068,1.542,-220.622,-163.695,60.742,
32283580,-0.04,-0.095,1.564,-253.05,-221.445,87.5,
32283600,-0.121,-0.219,1.36,-283.815,-282.835,108.237,
32283600,0.35,-0.879,1.193,-325.867,-343.735,120.662,
32283620,0.562,-1.686,1.521,-333.847,-409.797,122.097,
32283620,1.395,-1.998,0.913,-299.005,-436.835,102.69,
32283640,1.562,-1.856,-0.165,-135.327,-322.612,146.352,
32283640,-0.248,-1.488,0.392,38.132,-177.1,220.797,
32283660,-1.047,-1.716,0.99,80.08,-126.227,230.615,
32283660,0.79,-1.238,-0.036,164.71,-72.415,301.56,
32283670,1.885,0.351,-0.062,267.925,39.357,336.507,
32283680,1.695,0.874,0.144,192.657,159.547,258.212,
32283690,1.051,0.506,-0.102,69.125,200.112,72.275,
32283700,0.902,0.197,-0.053,21.752,217.962,-74.2,
32283710,0.423,0.385,-0.108,28.49,227.902,-150.237,
32283720,0.031,0.669,-0.111,25.847,216.72,-219.922,
32283730,-0.114,0.606,-0.05,-8.102,193.795,-270.462,
32283740,-0.44,0.361,-0.055,-33.372,165.952,-288.68,
32283750,-0.763,0.239,-0.041,-26.827,131.477,-280.42,
32283760,-0.927,0.288,0.015,-12.67,92.26,-253.627,
32283770,-0.929,0.3,-0.045,-8.89,58.24,-209.405,
32283780,-0.905,0.272,-0.008,-13.02,32.445,-151.34,
32283790,-0.79,0.173,-0.01,-17.57,11.445,-95.182,
32283800,-0.449,0.179,-0.098,-20.702,-0.577,-48.93,
32283810,-0.337,0.167,-0.135,-36.89,-11.602,-41.58,
32283820,-0.503,0.004,-0.176,-54.845,-32.112,-41.002,
32283830,-0.419,-0.915,-0.009,-63.14,-67.987,-34.142,
32283840,-0.06,-0.43,-0.447,-21.105,-113.242,-52.727,
32283850,-0.691,1.638,0.023,75.792,-150.972,-52.29,
32283860,0.172,-0.948,0.432,43.382,-165.375,-118.422,
32283870,1.998,-1.998,-0.076,-256.585,47.95,-238.875,
32283880,-0.315,-1.078,-0.984,300.02,246.102,-264.145,
32283890,-1.362,1.997,0.56,573.02,247.922,19.302,
32283900,1.992,1.997,-0.027,477.435,121.362,-129.85,
32283910,1.945,-0.485,1.476,72.275,298.165,-82.022,
32283920,1.547,-1.449,1.953,142.327,423.5,78.977,
32283930,-0.161,1.782,1.998,360.587,446.67,195.527,
32283940,-1.998,1.858,1.939,92.575,266.297,158.987,
32283950,-1.48,0.925,1.803,-43.085,10.815,95.847,
32283960,-0.041,-0.458,1.7,-114.292,-134.872,39.935,
32283970,1.166,1.337,1.736,-151.62,-172.55,50.12,
32283980,0.386,-0.358,0.704,-248.78,-129.325,49.542,
32283990,-0.163,-1.547,0.185,-232.592,-89.18,31.5,
32284000,0.009,-1.256,0.125,-159.285,-72.485,38.045,
32284010,0.007,-0.692,0.125,-83.79,-51.047,31.15,
32284010,0.148,-0.736,0.051,-31.15,-29.33,10.675,
32284020,0.319,-0.903,0.098,26.162,-5.232,-0.612,
32284030,0.576,-0.604,0.6,80.237,15.82,5.215,
32284040,0.554,-0.169,1.067,101.64,31.29,17.5,
32284050,0.188,-0.023,1.396,86.607,36.4,31.062,
32284060,-0.099,-0.179,1.263,57.067,34.282,29.785,
32284070,-0.192,-0.261,1.202,32.515,25.095,14.437,
32284080,-0.124,-0.166,1.236,17.762,14.192,-0.962,
32284090,-0.046,-0.291,1.174,-3.745,1.47,-16.257,
32284100,0.078,-0.079,1.25,-18.165,-5.425,-27.055,
32284110,0.226,-0.117,1.133,-42.56,-8.417,-35.192,
32284120,0.231,-0.339,0.971,-62.842,-9.555,-32.952,
32284130,0.086,-0.377,0.963,-63.227,-13.44,-25.9,
32284140,0.075,-0.31,1.034,-66.745,-19.46,-24.762,
32284150,0.065,-0.313,1.128,-78.977,-29.067,-26.74,
32284160,0.11,-0.273,1.176,-94.5,-40.6,-25.637,
32284170,0.108,-0.319,1.21,-112.63,-55.072,-24.43,
32284180,0.211,-0.331,1.25,-134.557,-74.55,-19.425,
32284190,0.3,-0.294,1.281,-157.99,-96.547,-9.432,
32284200,0.231,-0.222,1.307,-177.555,-127.312,3.027,
32284210,0.003,-0.397,1.301,-210.98,-190.82,20.107,
32284220,-0.231,-0.604,1.258,-239.942,-282.345,48.72,
32284230,-0.322,-0.861,1.3,-250.302,-392.105,78.05,
32284240,-0.163,-1.466,0.573,-232.4,-496.667,73.832,
32284250,0.463,-1.998,0.6,-209.912,-551.075,59.062,
32284260,1.109,-1.998,0.344,-106.47,-401.957,121.94,
32284270,-1.244,-1.841,0.269,155.837,-183.47,162.907,
32284280,-0.928,-1.237,0.549,223.72,-35.647,243.74,
32284290,0.546,-0.233,0.645,196.07,168.962,342.02,
32284300,1.237,-0.121,-0.24,148.872,265.037,254.537,
32284310,1.55,-0.285,-0.118,69.142,290.027,203.42,
32284320,1.269,0.406,-0.043,78.977,280.997,159.075,
32284330,1.649,1.074,0.083,65.152,272.352,53.322,
32284330,1.307,1.212,0.117,-22.312,266.087,-90.195,
32284350,0.568,0.942,0.065,-77.997,264.215,-267.26,
32284350,-0.119,0.795,-0.05,-90.055,263.13,-355.81,
32284370,-0.508,0.989,0.055,-86.555,247.835,-366.432,
32284370,-0.826,0.703,0.048,-102.095,214.41,-354.847,
32284390,-0.923,0.233,0.024,-102.287,176.015,-310.8,
32284390,-0.661,-0.456,-0.027,-40.25,139.685,-233.677,
32284410,-0.781,0.614,0.048,19.81,101.202,-141.242,
32284410,-0.078,0.172,-0.025,56.857,63,-58.73,
32284420,0.06,0.652,-0.061,106.802,23.047,-13.3,
32284430,0.307,0.093,-0.365,65.747,2.502,34.055,
32284440,0.956,-1.394,-0.088,18.742,2.747,1.872,
32284450,1.998,-1.998,0.911,30.187,-36.102,-190.435,
32284460,0.649,-1.249,0.333,311.01,127.312,-284.742,
32284470,-1.332,1.997,-0.449,571.27,164.605,62.405,
32284480,1.998,1.782,1.041,436.572,53.497,-109.62,
32284490,0.845,-1.906,1.483,72.1,174.86,-57.155,
32284500,1.809,0.271,1.826,405.125,231.875,38.675,
32284510,0.016,1.997,1.975,373.835,305.672,73.167,
32284520,-1.972,1.352,1.675,-21.192,159.337,80.465,
32284530,-1.427,0.852,1.915,-65.03,-43.242,70.157,
32284540,0.545,-0.047,1.817,-177.695,-147.297,27.982,
32284550,1.23,-0.346,0.894,-269.097,-152.022,23.222,
32284560,0.085,-0.053,-0.039,-175.962,-101.342,69.247,
32284570,-0.065,-1.605,-0.047,-132.177,-65.957,27.58,
32284580,0.287,-1.653,0.093,-98.805,-34.335,2.502,
32284590,0.221,-0.215,0.446,24.727,-8.557,30.45,
32284600,0.286,-0.474,0.759,39.007,2.345,13.142,
32284610,0.326,-0.41,0.825,62.125,11.812,27.947,
32284620,0.298,-0.251,0.98,77.84,20.702,37.607,
32284630,-0.009,-0.204,1.192,71.942,27.125,36.54,
32284640,-0.224,0.004,1.392,52.465,19.46,29.487,
32284650,-0.29,-0.165,1.245,14.052,2.03,8.82,
32284660,-0.162,-0.332,1.048,-9.467,-16.502,-11.69,
32284670,0.257,-0.292,1.027,-15.837,-25.9,-24.675,
32284680,0.411,-0.198,1.055,-18.55,-22.505,-25.935,
32284690,0.33,-0.141,1.045,-27.212,-13.562,-20.317,
32284690,0.24,-0.329,1.068,-41.335,-6.965,-17.745,
32284710,0.163,-0.192,1.207,-52.622,-4.445,-17.36,
32284710,0.126,-0.13,1.413,-76.545,-11.795,-20.44,
32284730,0.002,-0.158,1.54,-114.747,-32.707,-22.61,
32284730,0.062,-0.211,1.526,-152.547,-67.69,-18.672,
32284750,0.025,-0.145,1.502,-182.28,-105.297,-6.335,
32284750,-0.021,-0.085,1.493,-209.055,-153.37,6.09,
32284760,-0.223,-0.177,1.395,-242.165,-210.525,16.73,
32284770,-0.426,-0.338,1.325,-275.747,-272.142,22.61,
32284780,-0.634,-0.605,1.276,-292.39,-345.117,16.502,
32284790,-0.631,-1.386,1.282,-304.867,-420.577,-3.92,
32284800,0.05,-1.925,0.939,-273.927,-476,-26.565,
32284810,0.19,-1.588,0.788,-181.265,-427.77,2.1,
32284820,0.829,-1.258,0.852,-80.167,-287.087,58.677,
32284830,0.497,-1.085,0.475,-21.997,-127.61,67.217,
32284840,-0.57,-1.019,1.306,8.942,4.13,74.76,
32284850,0.118,-0.835,0.898,61.705,127.68,121.695,
32284860,0.351,0.17,0.73,152.565,222.705,139.545,
32284870,0.38,0.648,0.436,158.165,278.687,118.86,
32284880,0.455,0.583,0.386,133.612,304.027,102.217,
32284890,0.417,0.547,0.125,141.4,315.437,82.232,
32284900,0.2,0.819,-0.159,172.865,305.2,50.697,
32284910,0.04,1.033,-0.56,171.972,272.562,7.822,
32284920,-0.204,1.111,-0.61,118.492,216.23,-32.2,
32284930,-0.231,0.671,-0.317,19.337,133.577,-74.025,
32284940,0.377,-0.294,0.053,-72.502,66.465,-117.74,
32284950,0.723,-1.06,0.21,-70.367,59.955,-143.622,
32284960,0.483,-0.897,0.047,14.507,101.465,-153.142,
32284970,-0.288,-0.127,-0.118,74.042,129.185,-142.432,
32284980,-0.902,-0.249,-0.28,59.29,91.787,-133.7,
32284990,-0.619,-0.717,-0.233,63.42,34.212,-93.03,
32285000,-0.117,0.489,-0.3,102.305,9.555,-34.422,
32285010,0.686,-1.121,-0.268,60.742,10.307,-73.92,
32285020,1.998,-1.998,0.923,-13.895,43.365,-235.147,
32285030,0.028,-1.998,1.554,92.26,119.91,-486.272,
32285040,-0.358,-0.623,-0.534,390.985,267.452,-195.545,
32285050,1.922,1.997,-0.294,568.907,127.417,-68.53,
32285060,1.843,0.957,1.146,394.555,187.285,-13.825,
32285070,0.721,-1.958,1.998,101.482,395.57,65.257,
32285080,-1.395,1.545,0.718,184.467,246.032,165.06,
32285080,0.16,0.941,1.769,57.505,-4.935,172.042,
32285100,-1.117,-1.119,1.428,-251.58,-104.247,-9.537,
32285100,1.324,-0.314,0.831,-134.802,-115.937,60.287,
32285120,-0.523,-1.037,0.353,-104.93,-63.945,45.867,
32285120,0.282,-1.009,0.352,-39.305,-39.672,-6.125,
32285140,0.668,-1.008,0.458,-35.42,-17.307,-18.725,
32285140,0.479,0.189,1.133,50.435,12.25,15.96,
32285160,-0.075,-0.127,1.103,18.217,21.017,19.687,
32285160,-0.197,-0.462,0.834,7.245,14.122,15.19,
32285170,-0.099,-0.457,0.906,26.897,7.262,9.205,
32285180,0.145,-0.084,1.113,38.097,2.065,3.29,
32285190,0.16,-0.01,1.132,23.415,-1.96,2.082,
32285200,-0.002,-0.181,1.032,6.387,-7.49,4.585,
32285210,-0.042,-0.34,0.957,1.54,-14.14,4.322,
32285220,-0.02,-0.216,1.042,3.36,-20.247,0,
32285230,0.111,-0.072,1.096,-2.152,-28.77,-3.605,
32285240,0.229,-0.142,1.041,-13.755,-33.6,-0.315,
32285250,0.204,-0.253,0.999,-24.85,-32.217,2.607,
32285260,0.234,-0.237,1.05,-29.452,-30.38,6.965,
32285270,0.391,-0.177,1.208,-39.165,-35.052,12.81,
32285280,0.33,-0.06,1.394,-59.412,-34.247,18.41,
32285290,0.348,-0.125,1.575,-101.762,-37.712,14.665,
32285300,0.479,-0.177,1.597,-149.52,-42.875,9.275,
32285310,0.462,-0.241,1.705,-185.325,-54.495,19.127,
32285320,0.447,-0.313,1.589,-222.967,-89.985,42.595,
32285330,0.281,-0.454,1.672,-261.87,-141.505,70.98,
32285340,-0.216,-0.55,1.664,-303.817,-225.54,97.965,
32285350,0.031,-1.506,1.4,-344.89,-315.35,110.985,
32285360,-0.033,-1.998,0.002,-333.777,-324.66,92.645,
32285370,-0.485,-1.998,0.135,-227.867,-234.15,99.365,
32285380,-0.824,-1.998,0.164,-154.612,-139.055,103.25,
32285390,1.058,-1.998,0.354,-105.437,-37.047,115.045,
32285400,0.932,-1.485,0.205,22.015,120.12,104.072,
32285410,0.534,-0.54,0.044,60.952,227.797,65.485,
32285420,0.414,-0.167,-0.065,37.817,256.795,17.64,
32285420,0.397,0.118,-0.068,1.12,247.275,-32.41,
32285440,0.605,0.247,0.081,-38.657,225.82,-79.117,
32285440,0.804,0.338,0.081,-72.047,211.05,-127.995,
32285460,0.695,0.627,0.099,-68.67,200.83,-167.895,
32285460,0.276,1.151,0.131,-56.297,181.16,-204.627,
32285480,-0.12,1.397,0.127,-56.56,141.557,-233.03,
32285480,-0.102,1.289,0.145,-60.06,94.272,-246.435,
32285500,-0.066,1.121,0.206,-50.925,58.975,-234.867,
32285500,-0.104,0.966,0.192,-31.657,36.522,-214.742,
32285510,-0.201,0.709,0.107,-14.245,18.06,-187.722,
32285520,-0.366,0.41,-0.007,0.612,-11.007,-156.257,
32285530,-0.385,0.193,-0.152,17.902,-54.845,-123.672,
32285540,-0.284,0.009,-0.327,26.197,-101.115,-84.402,
32285550,-0.084,-0.255,-0.333,20.422,-143.307,-43.242,
32285560,0.1,-0.887,-0.486,11.165,-177.73,-12.04,
32285570,0.056,-0.845,-0.287,78.977,-208.022,17.57,
32285580,0.026,0.309,-0.138,219.31,-224.035,29.977,
32285590,1.998,-1.796,1.788,69.02,-90.282,-90.44,
32285600,1.605,-1.998,-0.028,6.335,414.855,16.502,
32285610,-1.883,-0.469,0.225,503.737,388.535,90.282,
32285620,0.359,1.997,-0.16,573.37,215.897,53.217,
32285630,1.165,1.524,1.823,465.867,242.27,93.66,
32285640,0.945,-1.99,1.998,67.567,302.12,32.182,
32285650,0.192,0.286,1.966,266.84,332.43,79.695,
32285660,-1.883,1.979,1.45,228.48,157.71,99.54,
32285670,-0.997,-0.855,1.405,-160.142,-45.902,25.567,
32285680,-0.323,0.611,1.008,-75.232,-106.452,22.995,
32285690,0.674,-1.135,0.605,-116.235,-95.042,-9.695,
32285700,0.381,-1.194,0.517,-82.547,-57.732,-24.64,
32285710,1.494,-0.321,0.683,-13.755,-24.185,-13.545,
32285720,0.627,-0.054,1.059,-22.452,18.777,17.552,
32285730,-0.414,-0.429,1.004,-31.097,35.542,34.527,
32285740,-0.721,-0.376,0.779,-16.047,16.887,17.43,
32285750,-0.11,-0.449,0.783,0.682,-5.127,-1.487,
32285760,0.291,-0.427,0.908,10.71,-9.835,-10.517,
32285770,0.365,-0.193,0.965,22.89,-1.085,-2.03,
32285780,0.238,-0.231,1.008,20.37,7.035,4.532,
32285790,0.023,-0.179,1.041,15.662,10.482,7.857,
32285800,-0.042,-0.25,1.005,11.322,5.915,2.747,
32285810,0.035,-0.256,0.999,10.08,1.137,-4.585,
32285820,0.097,-0.249,0.974,9.555,-1.347,-10.535,
32285830,0.173,-0.302,0.929,9.555,0.192,-13.93,
32285830,0.192,-0.263,0.941,13.107,4.445,-15.19,
32285850,0.184,-0.242,0.962,14,8.907,-13.51,
32285850,0.08,-0.211,0.992,12.967,9.87,-9.835,
32285870,-0.008,-0.224,1.014,9.24,7.052,-7.997,
32285870,0.007,-0.166,1.079,3.027,0.017,-9.485,
32285890,0.077,-0.096,1.152,-9.117,-6.737,-10.08,
32285890,0.118,-0.076,1.245,-27.142,-13.335,-8.4,
32285910,0.215,-0.06,1.415,-53.427,-17.307,-8.137,
32285910,0.198,-0.034,1.531,-91.49,-12.967,-10.5,
32285920,0.073,-0.12,1.52,-137.095,-9.467,-14.437,
32285930,0.192,-0.132,1.406,-172.217,-19.95,-13.16,
32285940,0.178,-0.167,1.314,-190.015,-38.132,-6.072,
32285950,0.174,-0.264,1.201,-198.87,-56.665,3.78,
32285960,0.393,-0.422,1.193,-213.955,-68.95,16.975,
32285970,0.477,-0.518,1.389,-229.127,-65.677,25.9,
32285980,0.769,-0.858,1.447,-237.737,-59.832,28.507,
32285990,0.519,-1.798,0.982,-216.755,-59.412,60.287,
32286000,0.631,-1.998,0.774,-152.477,-46.707,67.392,
32286010,-0.01,-1.998,0.389,-28.84,39.9,121.45,
32286020,-0.322,-1.371,-0.442,197.627,52.482,180.582,
32286030,0.433,0.014,-0.395,252.647,41.475,204.032,
32286040,0.609,-0.25,-0.263,80.255,13.825,187.757,
32286050,0.774,-0.958,-0.188,-48.93,-17.745,122.342,
32286060,0.967,-1.014,-0.092,-50.347,-27.072,92.732,
32286070,0.944,-0.413,-0.004,-21.77,-22.942,64.505,
32286080,0.858,0.053,0.032,-47.88,-21.63,7.157,
32286090,0.583,0.04,0.017,-105.227,-33.25,-62.527,
32286100,0.259,-0.08,0,-140.717,-52.78,-129.745,
32286110,-0.193,-0.057,-0.077,-142.24,-74.987,-171.325,
32286120,-0.755,0.299,-0.137,-127.977,-103.232,-191.66,
32286130,-1.012,1.214,-0.336,-117.407,-131.092,-194.635,
32286140,-1.63,1.956,-0.535,-108.867,-159.32,-166.757,
32286150,-1.827,1.997,-0.615,-130.917,-190.05,-137.025,
32286160,-1.62,1.997,-0.505,-151.725,-199.535,-84.665,
32286170,-1.334,1.997,-0.168,-135.03,-180.845,-28.752,
32286170,-0.902,-0.196,-0.073,-120.802,-137.252,20.265,
32286190,1.998,-0.415,1.56,-146.37,66.115,65.835,
32286190,1.878,-1.998,-1.944,232.61,404.915,-279.457,
32286210,-1.479,1.54,-0.366,571.777,415.782,-23.992,
32286210,0.907,1.997,1.212,536.602,189.052,33.372,
32286230,1.613,-0.325,1.596,143.902,238.752,23.695,
32286230,-0.037,-0.845,1.998,127.837,272.265,93.345,
32286250,-1.626,1.997,1.998,354.777,229.967,126.245,
32286250,-1.923,-0.011,1.995,-82.232,60.392,44.817,
32286260,-0.91,-0.204,1.821,-153.247,-69.65,16.187,
32286270,0.006,0.859,0.748,-153.842,-101.832,-41.79,
32286280,0.454,-1.422,0.263,-205.59,-78.61,-65.835,
32286290,0.463,-1.254,0.1,-143.272,-49.367,-58.695,
32286300,0.945,-0.533,0.097,-51.537,-30.852,-28.7,
32286310,0.602,-0.94,0.141,-16.922,-11.585,4.602,
32286320,0.116,-0.843,0.461,41.265,4.147,28.437,
32286330,0.193,-0.386,0.921,81.182,10.92,33.775,
32286340,0.099,-0.121,1.241,80.885,15.382,28.787,
32286350,-0.055,-0.067,1.198,62.23,16.152,21.017,
32286360,-0.081,-0.186,1.224,41.982,10.535,8.645,
32286370,-0.072,-0.047,1.383,20.475,1.242,-3.412,
32286380,0.031,-0.137,1.371,-13.685,-10.447,-19.88,
32286390,0.271,-0.004,1.345,-44.957,-10.377,-32.97,
32286400,0.266,-0.119,1.338,-80.64,1.575,-42.945,
32286410,0.364,-0.234,1.305,-110.355,13.142,-47.145,
32286420,0.479,-0.189,1.274,-136.622,21.84,-46.987,
32286430,0.509,-0.162,1.305,-159.88,31.745,-33.775,
32286440,0.512,-0.184,1.265,-184.887,31.08,-17.29,
32286450,0.585,-0.284,1.232,-209.247,29.575,1.102,
32286460,0.546,-0.399,1.266,-227.185,26.915,20.65,
32286470,0.411,-0.427,1.318,-241.062,16.415,33.25,
32286480,0.285,-0.539,1.09,-254.065,-0.105,41.142,
32286490,-0.182,-1.213,1.273,-275.432,-34.282,39.532,
32286500,0.255,-1.19,1.159,-299.022,-94.29,31.587,
32286510,0.699,-0.338,1.007,-221.182,-86.8,61.215,
32286520,0.421,-0.555,0.685,-224.297,-61.477,44.782,
32286530,0.944,-1.489,0.762,-301.052,-49.122,-0.875,
32286540,1.414,-1.649,0.734,-311.762,-0.63,-22.295,
32286550,1.607,-0.548,0.941,-246.557,76.405,-49.822,
32286560,1.044,0.336,1.216,-196.245,107.59,-119.21,
32286570,-0.139,0.861,1.696,-93.205,88.707,-244.457,
32286580,-1.268,1.293,1.403,26.67,57.697,-284.55,
32286580,-1.34,1.559,1.24,124.022,27.387,-187.617,
32286600,-1.073,1.202,0.993,195.002,8.75,-58.31,
32286600,-0.696,0.897,0.589,284.62,15.697,52.062,
32286620,-0.69,0.713,-0.061,392.577,37.695,167.072,
32286620,0.043,0.907,-0.763,452.935,54.39,234.377,
32286640,-0.605,0.507,-0.878,298.357,41.877,255.342,
32286640,-0.264,-0.195,-0.955,161.28,-5.162,227.22,
32286660,0.567,-1.294,-0.781,52.605,-48.825,157.272,
32286660,0.534,-1.984,-0.636,47.845,-61.127,111.702,
32286670,0.488,-1.854,-0.85,101.237,-64.19,45.22,
32286680,0.216,-1.369,-1.016,136.062,-63.857,-0.595,
32286690,-0.158,-1.773,-1.235,109.9,-71.312,-41.982,
32286700,-1.512,-1.998,1.149,76.65,-131.722,-107.012,
32286710,-0.247,-1.998,0.821,194.355,-166.705,-33.215,
32286720,1.703,0.378,-0.237,514.29,193.865,146.702,
32286730,-1.954,1.997,0.632,571.462,123.322,28.805,
32286740,-0.18,-0.005,1.998,277.795,83.597,-67.567,
32286750,1.404,-1.269,1.998,-16.835,162.785,38.43,
32286760,-1.432,1.997,1.926,304.745,116.375,31.692,
32286770,-0.566,-0.151,1.842,-77.315,-1.767,39.672,
32286780,-1.004,-0.706,1.411,-192.657,-63.577,17.465,
32286790,-0.18,0.145,1.36,-169.977,-86.065,-25.62,
32286800,-0.037,-0.571,0.632,-200.97,-78.137,-50.487,
32286810,0.156,0.132,0.528,-115.657,-53.217,-57.26,
32286820,0.35,-1.475,0.131,-169.837,-37.852,-71.032,
32286830,0.895,-0.936,0.161,-75.915,-31.062,-38.5,
32286840,0.878,-0.515,0.201,-4.042,-25.515,-0.367,
32286850,0.647,-0.733,0.518,27.93,-7.28,25.952,
32286860,0.358,-0.394,0.922,63.875,4.952,52.727,
32286870,0.139,-0.175,1.144,67.2,5.932,60.165,
32286880,-0.08,-0.163,1.219,51.94,3.622,55.195,
32286890,-0.131,-0.108,1.29,34.09,-1.54,46.06,
32286900,-0.083,-0.074,1.357,10.29,-10.902,33.53,
32286910,-0.058,-0.112,1.376,-18.935,-22.067,20.825,
32286920,0.137,0.022,1.34,-52.342,-33.092,11.602,
32286920,0.25,-0.152,1.286,-91.787,-42.717,12.337,
32286940,0.217,-0.306,1.259,-115.29,-53.777,24.64,
32286940,0.151,-0.251,1.224,-133.735,-70.192,33.827,
32286960,0.146,-0.254,1.148,-157.797,-91.437,40.88,
32286960,0.15,-0.428,1.083,-179.9,-110.88,47.932,
32286980,0.265,-0.422,1.073,-187.32,-136.535,58.765,
32286980,0.399,-0.445,1.038,-195.685,-160.86,72.52,
32287000,0.487,-0.451,0.906,-203.42,-190.802,86.537,
32287000,0.518,-0.917,0.847,-210.49,-221.952,104.93,
32287010,0.472,-1.532,1.129,-226.03,-264.39,108.027,
32287020,0.892,-1.998,0.845,-178.972,-303.607,90.527,
32287030,1.289,-1.998,0.742,-70.56,-282.975,106.54,
32287040,-0.057,-1.998,0.704,51.502,-201.25,149.625,
32287050,0.038,-1.972,0.227,136.01,-66.307,192.307,
32287060,0.228,-1.111,-0.176,207.392,41.58,243.67,
32287070,0.436,-0.396,-0.376,208.792,93.66,208.687,
32287080,0.387,-0.349,-0.284,116.322,109.34,138.95,
32287090,0.264,-0.406,-0.2,54.792,112.857,74.322,
32287100,0.238,-0.138,-0.115,40.617,118.912,17.517,
32287110,0.245,0.211,0.01,19.407,129.22,-36.312,
32287120,0.19,0.495,0.077,-29.382,136.587,-92.592,
32287130,-0.003,0.742,0.151,-75.967,139.352,-145.582,
32287140,-0.138,0.956,0.204,-97.387,138.355,-197.277,
32287150,-0.316,1.123,0.314,-107.695,134.61,-235.235,
32287160,-0.468,1.02,0.433,-117.39,129.955,-251.23,
32287170,-0.793,0.782,0.529,-110.6,114.047,-247.415,
32287180,-1.06,0.899,0.466,-70.49,84.385,-219.24,
32287190,-1.088,1.175,0.383,-29.522,56.63,-152.057,
32287200,-0.943,1.042,0.41,-14.822,37.345,-52.657,
32287210,-0.585,0.613,0.375,-5.11,30.852,54.25,
32287220,-0.436,-0.811,0.288,53.48,28.525,156.642,
32287230,-0.042,1.124,-0.215,245.84,4.445,243.827,
32287240,-0.103,0.366,0.211,302.365,-15.627,221.27,
32287250,1.998,-1.998,0.946,-131.302,-98.28,-224.595,
32287260,-0.751,-1.101,0.761,261.835,189.822,-132.632,
32287270,-0.679,1.997,-0.906,573.002,160.685,374.185,
32287280,1.411,1.424,1.97,327.862,2.712,135.012,
32287290,-0.933,-1.98,1.942,-89.6,33.197,-130.375,
32287300,1.355,0.389,1.836,297.902,45.552,64.61,
32287310,-0.019,1.324,1.998,280.857,70.49,75.127,
32287320,-0.521,-0.563,1.979,-110.967,39.34,-2.555,
32287320,-0.486,0.514,1.953,-78.662,-8.75,26.18,
32287330,-0.433,1.173,1.784,-187.792,-47.617,-23.485,
32287340,-0.158,-0.059,1.165,-284.847,-60.077,-57.312,
32287350,-0.125,-0.981,0.574,-316.365,-69.142,-68.232,
32287360,0.117,-0.663,0.12,-240.432,-58.117,-55.842,
32287370,0.179,-0.807,-0.319,-192.552,-46.182,-59.342,
32287380,0.453,-1.283,-0.256,-123.077,-34.282,-54.652,
32287390,0.7,-1.065,-0.174,-45.675,-21.542,-38.202,
32287400,0.833,-0.878,-0.102,25.76,-7.682,-12.687,
32287410,0.742,-0.929,0.204,75.967,0.087,15.172,
32287420,0.539,-0.556,0.667,119.402,5.442,47.792,
32287430,0.241,-0.191,1.064,132.37,8.785,66.447,
32287440,-0.166,-0.126,1.265,125.44,13.58,68.39,
32287450,-0.387,-0.205,1.366,103.285,13.265,47.652,
32287460,-0.328,-0.142,1.481,71.837,5.845,18.095,
32287470,-0.246,-0.087,1.45,34.072,-4.76,-12.372,
32287480,0.094,-0.24,1.362,-5.6,-13.142,-36.4,
32287490,0.303,-0.025,1.341,-32.515,-12.302,-44.957,
32287500,0.402,-0.155,1.327,-66.517,-10.99,-42.84,
32287510,0.381,-0.311,1.353,-99.347,-13.93,-31.692,
32287520,0.381,-0.252,1.35,-129.01,-18.9,-18.025,
32287530,0.312,-0.324,1.343,-161.525,-30.362,-6.615,
32287540,0.236,-0.291,1.356,-186.13,-54.337,3.587,
32287550,0.291,-0.203,1.367,-210.682,-85.365,16.94,
32287560,0.111,-0.225,1.405,-240.94,-119.14,37.975,
32287570,-0.09,-0.56,1.293,-259.91,-164.867,54.285,
32287580,-0.245,-1.199,0.978,-255.43,-230.405,47.705,
32287590,-0.317,-1.666,0.937,-225.732,-292.32,35.42,
32287600,-0.249,-1.896,0.569,-207.532,-312.952,54.197,
32287610,0.282,-1.406,-0.033,-131.302,-304.167,67.707,
32287620,0.565,-1.312,0.034,-87.78,-234.92,70.857,
32287630,-0.538,-1.326,0.607,-90.037,-145.565,60.637,
32287640,0.053,-1.252,0.698,-88.147,-61.232,79.257,
32287650,0.252,-0.613,0.589,-21.77,14.717,84.472,
32287660,0.052,0.104,0.355,32.322,80.482,51.45,
32287670,-0.03,0.167,0.224,16.66,122.92,23.38,
32287670,-0.047,-0.007,0.193,-17.01,148.785,6.807,
32287690,-0.124,-0.117,0.119,-28.385,161.962,-2.17,
32287690,-0.183,0.319,0.131,-21.052,165.62,-9.852,
32287710,-0.218,1.112,0.211,-11.707,160.755,-15.802,
32287710,-0.157,1.415,0.477,-21.682,149.922,-22.207,
32287730,-0.189,1.153,0.629,-41.947,139.37,-27.93,
32287730,0.07,0.971,0.738,-23.432,131.652,-61.057,
32287750,-0.119,0.554,0.699,39.322,129.29,-78.102,
32287750,-0.213,0.951,0.595,128.695,125.212,-78.085,
32287760,-0.159,0.851,0.181,202.09,114.152,-110.057,
32287770,-0.42,0.435,-0.244,176.225,91.455,-114.1,
32287780,-0.325,0.095,-1.391,155.785,77.822,-91.28,
32287790,1.373,-1.852,-0.617,71.75,90.562,-141.137,
32287800,1.875,-1.998,0.484,-161.805,-122.395,-475.562,
32287810,-1.74,0.829,0.304,475.037,244.912,-34.107,
32287820,1.354,1.997,0.232,554.487,137.13,94.85,
32287830,1.92,0.687,0.727,117.757,234.272,-93.397,
32287840,0.933,-1.998,1.46,-89.845,201.215,-95.882,
32287850,0.954,0.235,1.278,303.047,162.382,212.03,
32287860,-0.058,1.75,1.947,330.277,119.035,225.277,
32287870,-1.871,-1.326,1.919,14.122,72.117,152.39,
32287880,-1.685,0.749,1.792,55.51,23.24,123.182,
32287890,-1.357,0.739,1.636,-9.012,-13.055,4.637,
32287900,-0.148,-0.641,1.043,-155.522,-47.337,-84.63,
32287910,0.369,-0.431,0.75,-119.21,-48.02,-83.51,
32287920,0.657,-0.471,0.552,-108.517,-41.772,-69.737,
32287930,0.781,-0.804,0.38,-84.245,-35.07,-43.645,
32287940,0.707,-0.678,0.337,-29.697,-28.84,-6.247,
32287950,0.434,-0.629,0.502,9.467,-16.642,16.66,
32287960,0.244,-0.573,0.708,37.135,-7.577,28.577,
32287970,0.137,-0.371,0.887,55.317,-1.592,32.27,
32287980,0.078,-0.338,1.017,55.667,-0.542,28.665,
32287990,0.057,-0.257,1.103,50.33,-1.295,23.835,
32288000,0.071,-0.194,1.199,36.452,-5.057,17.43,
32288010,0.18,-0.145,1.282,14.437,-10.097,12.915,
32288010,0.16,-0.178,1.291,-10.167,-17.92,12.547,
32288030,0.147,-0.101,1.245,-35.227,-28.052,14.262,
32288030,0.146,-0.254,1.221,-64.54,-40.04,14.157,
32288050,0.158,-0.298,1.201,-87.92,-52.622,17.587,
32288050,0.122,-0.285,1.225,-107.782,-73.062,22.575,
32288070,0.238,-0.298,1.15,-128.66,-100.047,30.73,
32288070,0.229,-0.256,1.039,-142.73,-123.97,46.357,
32288080,0.168,-0.392,0.958,-154.717,-156.467,60.567,
32288090,0.243,-0.422,0.904,-163.257,-182.647,75.32,
32288100,0.064,-0.427,0.803,-157.762,-202.65,83.93,
32288110,-0.11,-0.635,0.899,-161.787,-223.772,80.08,
32288120,-0.227,-0.984,0.92,-162.242,-256.13,59.307,
32288130,0.005,-1.393,0.527,-137.147,-292.407,31.937,
32288140,0.622,-1.991,0.457,-102.795,-284.602,16.572,
32288150,0.513,-1.998,0.923,-29.277,-180.757,60.165,
32288160,-1.362,-1.773,0.646,128.135,-51.502,138.985,
32288170,-1.147,-0.966,0.968,211.242,32.55,241.955,
32288180,0.016,-0.976,0.583,210.052,81.76,307.912,
32288190,1.179,-0.393,0.435,227.99,160.44,251.16,
32288200,0.047,0.053,0.412,217,248.92,183.802,
32288210,-0.098,0.228,0.102,183.995,285.95,85.732,
32288220,0.295,0.377,-0.169,162.242,308.122,28.087,
32288230,0.024,0.86,-0.239,134.102,304.36,-3.43,
32288240,-0.361,1.049,-0.288,76.72,239.89,-52.22,
32288250,-0.008,1.094,-0.415,16.782,159.407,-105.157,
32288260,0.177,1.408,-0.162,-24.517,119.525,-129.027,
32288270,-0.182,1.336,0.099,-73.237,95.672,-150.815,
32288280,-0.337,-0.826,0.144,-60.76,60.585,-153.597,
32288290,-0.684,1.825,0.539,83.387,42.175,-93.467,
32288300,1.155,-1.493,1.297,62.51,-32.55,-293.807,
32288310,1.967,-1.998,0.997,-36.522,-97.912,-523.635,
32288320,-0.824,-0.665,-0.617,367.815,127.575,-200.532,
32288330,1.562,1.997,1.184,533.435,25.252,-60.375,
32288340,1.892,0.519,1.699,233.327,54.67,-55.685,
32288350,1.791,-1.725,1.975,34.335,134.12,77.472,
32288360,-0.602,1.738,1.984,241.885,170.712,233.502,
32288370,-1.958,1.029,1.921,43.33,60.007,176.12,
32288380,-1.448,0.008,1.7,-102.9,-57.522,84.612,
32288390,-0.34,0.223,1.537,-132.895,-99.382,12.792,
32288400,-0.097,-0.589,1.049,-198.765,-100.485,-44.152,
32288410,0.172,-0.176,0.682,-149.572,-92.942,-40.18,
32288420,0.518,-0.36,0.286,-123.602,-80.64,-51.782,
32288420,0.754,-1.182,0.11,-127.855,-58.887,-45.15,
32288440,0.627,-0.91,0.274,-50.575,-30.782,-13.09,
32288440,0.494,-0.416,0.472,6.86,-6.807,12.337,
32288460,0.297,-0.547,0.735,27.317,6.667,23.817,
32288460,0.148,-0.39,0.962,44.572,13.177,32.847,
32288480,-0.015,-0.188,1.093,46.392,12.845,32.2,
32288480,-0.08,-0.307,1.116,30.835,8.295,21.665,
32288500,-0.056,-0.206,1.246,18.655,3.237,11.952,
32288500,0.03,-0.179,1.287,-3.535,-3.027,0.665,
32288510,0.1,-0.142,1.261,-25.987,-7.927,-5.285,
32288520,0.236,-0.164,1.204,-50.487,-9.537,-12.285,
32288530,0.339,-0.271,1.106,-73.167,-6.265,-11.567,
32288540,0.33,-0.326,1.039,-85.802,-4.077,-5.302,
32288550,0.323,-0.39,1.017,-96.425,-4.515,0.822,
32288560,0.29,-0.428,1.022,-102.847,-7.805,6.632,
32288570,0.458,-0.437,1.097,-109.427,-8.295,12.705,
32288580,0.372,-0.362,1.121,-115.045,-3.062,22.715,
32288590,0.351,-0.341,1.105,-125.16,-6.58,28.577,
32288600,0.368,-0.396,1.069,-140.035,-13.142,39.882,
32288610,0.271,-0.428,1.011,-150.15,-26.267,49.542,
32288620,0.299,-0.615,0.971,-156.327,-51.502,55.842,
32288630,0.251,-0.72,0.959,-157.605,-80.115,64.137,
32288640,0.053,-0.6,1.044,-143.132,-111.002,73.15,
32288650,0.592,-0.899,0.83,-149.607,-124.32,82.932,
32288660,0.778,-1.151,0.603,-130.935,-105.262,91.297,
32288670,0.692,-1.001,0.543,-91.472,-71.697,93.677,
32288680,0.172,-0.975,0.394,-57.12,-35.822,99.82,
32288690,0.364,-1.227,0.552,-15.417,-35.735,72.765,
32288700,1.294,-0.726,0.49,15.767,-31.955,36.942,
32288710,0.39,-0.164,0.393,59.552,2.782,9.082,
32288720,-0.369,0.405,0.286,71.662,2.8,-42.07,
32288730,-0.484,0.58,0.304,66.36,-8.96,-64.557,
32288740,-0.318,0.541,0.158,55.002,-4.27,-73.132,
32288750,-0.534,0.613,-0.074,62.93,16.572,-74.742,
32288760,-0.915,0.78,-0.372,79.607,31.902,-75.512,
32288760,-1.128,0.846,-0.439,74.042,28.472,-65.852,
32288780,-0.972,0.588,-0.414,48.44,20.09,-45.517,
32288780,-0.771,0.485,-0.338,38.727,21.472,-19.74,
32288800,-0.672,0.566,-0.271,54.075,24.675,-22.102,
32288800,-0.436,-0.665,0.957,46.602,17.605,-47.845,
32288820,0.413,-1.998,0.51,19.6,-77.035,-263.462,
32288820,0.807,-1.361,0.098,359.24,234.902,-305.97,
32288830,-1.741,1.981,-0.492,570.64,190.225,11.917,
32288840,1.985,1.914,1.511,401.782,77.42,-112.157,
32288850,1.77,-1.643,1.998,95.69,168.577,-8.19,
32288860,0.409,0.788,1.998,193.655,245.472,98.367,
32288870,-1.993,1.711,1.972,127.75,169.26,166.005,
32288880,-1.547,-0.183,1.767,-130.55,-6.107,81.83,
32288890,-0.515,0.218,1.448,-148.277,-90.457,23.817,
32288900,0.101,-0.504,0.863,-155.697,-97.125,-8.47,
32288910,0.298,-0.168,0.797,-146.335,-88.322,-45.097,
32288920,0.398,-0.898,0.372,-180.022,-75.162,-35.857,
32288930,0.42,-0.882,0.417,-102.812,-57.75,-13.842,
32288940,0.424,-0.644,0.409,-58.957,-40.985,1.697,
32288950,0.378,-0.648,0.434,-27.755,-24.045,4.375,
32288960,0.418,-0.656,0.635,4.322,-9.135,10.062,
32288970,0.498,-0.403,0.872,29.33,2.082,26.53,
32288980,0.287,-0.213,0.973,35.402,4.41,42.857,
32288990,0.031,-0.272,1.086,29.977,2.975,47.302,
32289000,-0.103,-0.194,1.263,19.617,-2.047,43.155,
32289010,-0.14,-0.154,1.31,-2.485,-10.727,30.59,
32289020,-0.094,-0.183,1.338,-29.61,-20.562,15.61,
32289030,0.037,-0.144,1.303,-56.052,-27.387,1.435,
32289040,0.139,-0.201,1.221,-86.117,-33.687,-9.082,
32289050,0.286,-0.273,1.164,-110.862,-35.49,-11.375,
32289060,0.379,-0.328,1.121,-130.515,-34.65,-11.042,
32289070,0.503,-0.303,1.056,-142.992,-25.427,-8.032,
32289080,0.504,-0.305,1.023,-149.922,-13.02,-1.365,
32289090,0.527,-0.323,1.028,-158.655,-5.075,4.847,
32289100,0.534,-0.379,1.043,-171.29,-0.245,13.545,
32289110,0.436,-0.42,1.046,-182.577,-2.992,21.962,
32289120,0.471,-0.447,1.007,-187.74,-15.312,28.192,
32289130,0.378,-0.51,0.893,-184.1,-30.275,31.99,
32289140,0.244,-0.758,0.827,-179.165,-62.44,17.36,
32289150,-0.073,-0.75,0.938,-174.352,-94.797,11.515,
32289160,0.421,-1.123,0.851,-173.6,-108.22,26.652,
32289170,0.505,-1.211,0.44,-135.73,-94.272,33.81,
32289170,0.511,-0.785,0.518,-79.52,-69.965,13.3,
32289190,-0.293,-1.109,0.783,-61.04,-24.395,-11.392,
32289190,0.386,-1.003,0.286,-11.97,-2.065,-34.947,
32289210,0.747,-0.171,0.601,60.27,51.135,-31.045,
32289210,-1.191,0.075,0.329,61.407,84.35,-88.69,
32289230,-1.576,-0.042,0.319,55.072,76.982,-102.427,
32289230,-1.217,-0.124,0.011,69.807,83.44,-21.945,
32289250,-1.526,0.442,-0.075,100.187,90.107,59.605,
32289250,-1.247,0.701,-0.005,92.225,68.617,106.837,
32289260,-0.542,0.448,0.084,51.52,44.992,140.455,
32289270,-0.094,0.138,0.183,55.405,41.807,165.025,
32289280,0.399,0.576,0.169,104.09,53.795,143.815,
32289290,0.373,0.848,0.061,129.937,68.407,81.917,
32289300,-0.032,0.62,0.376,113.732,71.732,24.447,
32289310,0.105,-1.803,0.129,48.965,-18.497,-156.922,
32289320,1.976,-1.998,-0.285,36.837,-28.595,-518.28,
32289330,-1.642,-1.05,1.839,309.89,139.335,-312.497,
32289340,-0.099,1.987,-0.553,500.08,118.667,-5.862,
32289350,1.998,1.8,1.001,350.402,14.385,-22.19,
32289360,0.364,-1.236,0.784,132.107,114.03,-173.652,
32289370,1.89,-1.315,1.017,219.712,111.545,3.465,
32289380,0.785,1.821,1.945,410.077,177.38,207.97,
32289390,-0.183,0.656,1.978,167.527,196.28,164.062,
32289400,-1.998,0.941,1.947,36.592,115.482,142.432,
32289410,-1.589,0.255,1.757,-32.795,-18.025,87.097,
32289420,-0.228,0.862,1.716,-99.225,-97.3,5.32,
32289430,0.549,-0.01,1.198,-211.26,-110.145,-38.08,
32289440,0.475,-0.52,0.734,-206.412,-81.865,-23.73,
32289450,0.301,-0.848,0.218,-173.215,-64.907,-3.657,
32289460,0.176,-1.106,0.145,-119.332,-52.57,3.832,
32289470,0.155,-0.902,0.23,-54.617,-35.192,8.172,
32289480,0.184,-0.61,0.472,1.137,-17.5,5.25,
32289490,0.288,-0.501,0.831,23.537,-3.43,1.137,
32289500,0.431,-0.225,1.061,34.44,4.655,9.31,
32289510,0.304,-0.179,1.134,21.787,5.705,19.967,
32289510,0.176,-0.262,1.097,6.597,-1.085,29.977,
32289530,0.04,-0.24,1.212,-3.027,-6.65,34.685,
32289530,-0.042,-0.184,1.359,-17.885,-11.567,31.64,
32289550,-0.053,-0.052,1.339,-45.78,-16.747,20.16,
32289550,-0.011,-0.186,1.291,-81.952,-25.445,5.372,
32289570,0.062,-0.299,1.244,-111.352,-31.99,-1.89,
32289570,0.23,-0.352,1.156,-129.727,-39.637,-1.592,
32289580,0.366,-0.327,1.12,-142.66,-45.605,7.315,
32289590,0.38,-0.37,1.085,-154.07,-52.64,20.282,
32289600,0.451,-0.4,1.082,-165.007,-66.885,39.13,
32289610,0.517,-0.438,1.071,-176.942,-74.567,64.557,
32289620,0.525,-0.41,1.087,-177.152,-87.832,85.382,
32289630,0.482,-0.567,1.05,-192.972,-105.42,99.907,
32289640,0.594,-1.296,0.961,-198.695,-119.525,108.027,
32289650,0.851,-1.77,0.791,-159.81,-141.225,89.197,
32289660,0.637,-1.687,0.84,-93.135,-147.052,85.61,
32289670,0.633,-1.382,0.981,-8.155,-111.055,122.045,
32289680,1.466,-1.126,0.295,120.82,-67.532,117.197,
32289690,1.174,0.066,0.04,193.69,19.407,112.035,
32289700,0.353,0.34,-0.048,142.712,63.192,78.085,
32289710,-0.052,0.02,-0.206,80.22,29.96,-26.512,
32289720,-0.135,-0.058,-0.358,68.407,-7.35,-101.115,
32289730,-0.249,0.325,-0.345,71.242,-14.35,-130.375,
32289740,-0.599,0.464,-0.272,23.782,-14.665,-153.107,
32289750,-0.93,-0.009,-0.174,-51.117,-24.955,-171.482,
32289760,-0.938,-0.552,-0.07,-73.99,-38.237,-164.325,
32289770,-0.803,-0.675,0.014,-44.8,-35.595,-128.66,
32289780,-0.841,-0.531,0.062,-11.847,-24.377,-93.905,
32289790,-0.834,-0.501,-0.001,-0.612,-18.2,-78.137,
32289800,-0.879,-0.495,-0.032,-0.122,-22.54,-71.522,
32289810,-0.831,-0.371,-0.099,-0.752,-35.63,-72.52,
32289820,-0.754,-0.193,-0.086,-6.877,-50.102,-71.715,
32289830,-0.115,-0.934,1.197,-30.695,-55.965,-52.01,
32289840,1.998,-1.944,0.864,41.335,171.99,-25.742,
32289850,0.389,-1.654,-0.397,445.655,336.77,-237.912,
32289860,-1.359,1.288,0.72,456.96,209.982,-131.355,
32289870,1.816,1.452,-0.334,396.322,157.395,-48.895,
32289880,1.998,0.77,1.294,426.562,242.042,43.697,
32289890,0.384,-0.639,1.998,283.167,400.68,87.045,
32289900,-1.948,1.886,1.804,134.68,278.897,147.682,
32289910,-1.278,0.925,1.771,17.85,52.99,142.835,
32289920,-1.551,-0.845,1.404,-134.732,-82.145,21.77,
32289920,0.898,0.408,1.066,-92.067,-126.28,2.31,
32289940,0.679,-0.76,0.606,-145.722,-95.69,-20.23,
32289940,0.836,-1.089,0.44,-95.812,-56.14,12.53,
32289960,0.483,-0.63,0.457,-44.362,-30.747,41.3,
32289960,0.238,-0.729,0.486,-6.457,-19.53,59.062,
32289970,-0.061,-0.641,0.714,34.002,-7.035,61.337,
32289980,-0.077,-0.253,1.098,52.465,7.7,44.905,
32289990,0.047,-0.029,1.223,42.315,9.362,26.425,
32290000,0.128,-0.114,1.156,17.587,1.05,17.71,
32290010,0.06,-0.063,1.144,2.94,-9.117,20.825,
32290020,0.134,-0.126,1.214,-14.647,-21.402,20.842,
32290030,0.118,-0.022,1.29,-35.437,-34.615,20.51,
32290040,0.306,0.048,1.312,-64.172,-43.802,16.205,
32290050,0.321,0.034,1.353,-101.15,-41.947,8.102,
32290060,0.203,-0.155,1.343,-142.397,-39.515,0.332,
32290070,0.084,-0.246,1.293,-175.175,-46.515,-1.855,
32290080,0.06,-0.225,1.255,-195.422,-64.697,-2.905,
32290090,0.119,-0.25,1.202,-206.342,-79.345,-3.57,
32290100,0.106,-0.24,1.109,-211.505,-83.982,-6.527,
32290110,0.076,-0.287,1.064,-216.352,-82.355,-12.88,
32290120,0.058,-0.41,1.039,-221.637,-89.582,-21.28,
32290130,0.056,-0.537,0.978,-221.847,-106.68,-22.907,
32290140,-0.114,-0.608,1.194,-217.105,-136.657,-17.36,
32290150,-0.174,-1.041,1.411,-219.765,-180.127,-19.495,
32290160,0.488,-1.571,1.162,-194.705,-196.105,-35.77,
32290170,0.95,-1.61,0.856,-115.447,-126.385,-39.322,
32290180,0.388,-1.048,1.039,-21.997,-3.57,-40.092,
32290190,-0.337,-0.577,0.818,68.022,74.27,-66.027,
32290200,-0.442,-0.324,0.614,101.062,124.985,-72.607,
32290210,-0.514,-0.414,0.445,99.365,151.41,-43.102,
32290220,-0.601,-0.415,0.235,112.875,145.302,-29.82,
32290230,-0.366,-0.254,0.004,143.325,141.33,-3.517,
32290240,-0.233,0.012,-0.446,170.782,146.685,42.595,
32290250,-0.188,0.485,-0.589,174.72,152.792,84,
32290260,-0.357,0.593,-0.52,113.855,139.387,120.575,
32290260,-0.361,0.134,-0.377,22.96,88.147,136.78,
32290280,0.258,-0.307,-0.332,-15.627,23.432,129.867,
32290280,0.871,-0.335,-0.26,4.06,-5.827,112.175,
32290300,0.867,-0.159,-0.274,11.252,-5.53,72.642,
32290300,0.711,-0.068,-0.331,-13.527,-2.992,10.85,
32290320,0.602,0.043,-0.459,-40.407,-0.35,-44.747,
32290320,0.206,0.342,-0.534,-49.665,-1.82,-77.682,
32290330,-0.212,-0.941,0.529,-60.76,-31.202,-84.122,
32290340,-0.364,-1.998,0.578,-3.272,-124.215,-113.925,
32290350,1.753,-1.781,-0.521,470.61,236.547,-327.967,
32290360,-1.955,1.58,0.133,541.31,193.847,-0.997,
32290370,1.613,1.995,0.872,524.212,99.767,-20.527,
32290380,1.342,-0.837,1.998,307.842,300.282,86.52,
32290390,-1.584,1.047,1.539,150.605,313.915,65.187,
32290400,-0.722,1.213,1.552,89.687,72.397,161.665,
32290410,-1.352,-0.069,1.413,-186.742,-94.412,45.5,
32290420,0.837,-0.889,1.013,-159.95,-143.482,12.967,
32290430,0.562,-0.525,0.561,-128.502,-104.23,22.61,
32290440,0.466,-1.128,0.422,-92.155,-68.81,24.395,
32290450,0.469,-0.716,0.387,-30.765,-39.515,31.027,
32290460,0.283,-0.565,0.606,-1.26,-24.237,34.457,
32290470,0.156,-0.599,0.811,28.245,-12.162,49.962,
32290480,0.024,-0.188,1.031,54.32,2.257,54.04,
32290490,0.042,-0.145,1.131,46.585,9.17,39.112,
32290500,0.006,-0.081,1.142,33.232,7.315,32.34,
32290510,-0.022,-0.11,1.112,19.232,0.35,27.282,
32290520,0.058,-0.087,1.182,3.29,-8.155,20.65,
32290530,0.162,-0.101,1.189,-14.665,-14.98,13.912,
32290540,0.309,-0.075,1.211,-36.96,-20.79,10.727,
32290550,0.502,-0.086,1.236,-62.632,-24.29,12.145,
32290560,0.421,-0.199,1.26,-88.2,-21.787,20.93,
32290570,0.352,-0.323,1.208,-118.737,-23.887,28.7,
32290580,0.238,-0.408,1.192,-141.26,-36.855,44.275,
32290590,0.351,-0.382,1.153,-154.192,-47.915,60.707,
32290600,0.331,-0.253,1.098,-154.63,-60.795,74.742,
32290610,0.322,-0.318,1.219,-168.542,-77.42,77.892,
32290620,0.31,-0.381,1.176,-192.097,-93.082,76.072,
32290620,0.316,-0.573,1.145,-201.722,-108.675,81.287,
32290640,0.463,-0.75,1.249,-221.55,-123.042,81.427,
32290640,0.585,-1.333,0.939,-233.467,-131.39,76.825,
32290660,1.551,-1.965,1.058,-215.197,-124.477,49.262,
32290660,0.691,-1.998,-0.851,-165.83,-52.36,20.37,
32290670,0.981,-1.998,0.262,-140.21,25.567,-45.412,
32290680,0.766,-1.87,0.29,-150.762,47.932,-128.397,
32290690,-0.209,-0.837,0.22,-85.942,65.625,-186.952,
32290700,-1.006,-0.137,0.421,-96.162,57.032,-171.167,
32290710,-1.088,-0.14,0.533,-133.612,8.067,-144.392,
32290720,-0.559,-0.109,0.508,-110.635,-14.735,-92.382,
32290730,-0.32,0.335,0.429,-50.505,10.377,-28.35,
32290740,-0.413,0.861,0.356,-4.935,46.357,4.462,
32290750,-0.557,1.188,0.281,17.377,66.342,8.155,
32290760,-0.611,1.264,0.183,33.425,64.277,-1.207,
32290770,-0.455,1.258,0.092,48.79,55.755,-14.157,
32290780,-0.338,1.197,-0.033,61.197,55.247,-25.112,
32290790,-0.329,1.131,-0.129,66.027,62.72,-34.877,
32290800,-0.491,0.89,-0.121,54.687,65.03,-38.185,
32290810,-0.512,0.075,-0.352,32.935,47.337,-36.452,
32290820,-0.741,-0.855,-0.021,80.062,20.492,29.855,
32290830,-0.313,1.422,-0.146,164.115,-9.415,89.495,
32290840,1.005,-0.566,0.968,156.345,-3.342,-92.382,
32290850,0.955,-1.998,0.829,-143.92,-69.93,-331.502,
32290860,1.122,-1.285,-0.907,306.88,260.33,-308.962,
32290870,-1.998,1.985,-0.866,572.862,194.897,137.165,
32290880,1.296,1.994,0.99,487.707,-14.122,-68.215,
32290890,1.851,-1.411,1.998,89.022,177.345,2.87,
32290900,1.053,-0.109,1.998,221.427,319.742,20.177,
32290910,-1.859,1.968,1.979,231.805,224.525,140.157,
32290920,-1.268,0.036,1.562,-113.207,20.125,124.95,
32290930,-1.222,-0.551,1.151,-124.372,-94.535,73.255,
32290940,0.571,-0.41,0.546,-76.3,-113.977,32.935,
32290950,0.417,-1.057,0.471,-87.08,-78.417,-16.38,
32290960,0.846,-0.795,0.641,-45.412,-45.395,-0.385,
32290970,0.443,-0.093,0.869,9.66,-14.892,25.672,
32290980,0.063,-0.468,0.966,-9.327,-3.657,30.292,
32290990,-0.051,-0.101,1.04,10.237,-6.387,36.085,
32291000,0.087,-0.297,1.027,-4.882,-14.892,19.827,
32291010,0.058,-0.112,1.158,-7.91,-19.95,17.29,
32291010,0.166,0.031,1.187,-17.815,-29.295,18.602,
32291030,0.279,-0.061,1.272,-44.502,-36.207,16.135,
32291030,0.202,-0.104,1.207,-66.902,-38.167,16.782,
32291050,0.211,-0.233,1.036,-88.112,-30.817,5.81,
32291050,0.104,-0.394,0.983,-98.017,-17.307,-6.352,
32291070,-0.025,-0.349,0.968,-101.08,-8.417,-19.81,
32291070,-0.002,-0.303,1.001,-103.32,-9.502,-32.462,
32291080,0.139,-0.318,1.004,-109.865,-12.197,-43.452,
32291090,0.208,-0.326,0.957,-116.34,-13.65,-48.352,
32291100,0.273,-0.38,0.919,-120.925,-16.485,-49.367,
32291110,0.28,-0.494,0.873,-122.08,-20.86,-43.96,
32291120,0.256,-0.54,0.88,-116.305,-25.9,-35.945,
32291130,0.098,-0.511,1.018,-113.837,-36.085,-29.312,
32291140,0.111,-0.475,1.129,-115.43,-47.687,-31.255,
32291150,0.263,-0.736,1.191,-118.597,-48.737,-22.837,
32291160,0.38,-1.247,1.133,-109.76,-35.525,-17.552,
32291170,0.582,-1.99,1.478,-85.907,-11.602,-41.755,
32291180,0.362,-1.998,1.128,-7.175,43.312,-65.065,
32291190,-0.237,-1.92,-0.718,210.42,112,-35.542,
32291200,-1.12,-0.609,-0.36,288.697,91.682,27.247,
32291210,-0.036,-0.772,0.049,111.37,19.005,19.985,
32291220,0.989,-1.871,-0.075,-19.705,4.567,13.002,
32291230,0.595,-1.422,-0.302,8.277,39.06,35.157,
32291240,0.061,-0.013,-0.215,18.777,52.902,57.085,
32291250,0.358,0.563,-0.225,-78.015,39.497,52.22,
32291260,0.2,0.841,-0.146,-175.21,14.525,32.042,
32291270,-0.024,1.307,-0.058,-190.207,-13.825,3.832,
32291280,-0.014,1.904,-0.099,-162.785,-31.08,-23.345,
32291290,-0.42,1.997,-0.116,-153.177,-32.112,-43.19,
32291300,-0.715,1.997,-0.108,-133.577,-33.565,-53.042,
32291310,-0.561,0.898,-0.251,-83.177,-28.98,-34.737,
32291320,-0.794,0.87,0.768,90.072,-16.17,54.757,
32291330,1.486,-1.838,0.425,269.255,4.375,-141.82,
32291330,0.061,-1.917,0.739,327.95,307.79,-252.052,
32291350,-0.775,1.663,0.547,546.525,133.525,60.375,
32291350,1.738,1.802,1.493,468.825,76.212,56.07,
32291370,0.575,-1.754,1.998,104.982,174.562,35.175,
32291370,-1.582,1.752,1.998,146.965,161.647,101.745,
32291390,-1.16,0.591,1.868,-31.5,25.567,78.015,
32291390,-0.793,-0.038,1.612,-151.952,-55.965,24.307,
32291410,0.065,-0.07,1.003,-166.722,-69.352,-11.847,
32291410,0.064,-0.415,0.31,-144.147,-50.627,-35.157,
32291420,0.419,-0.738,0.329,-92.4,-38.78,-30.782,
32291430,0.512,-1.207,0.328,-83.107,-26.512,-27.597,
32291440,0.573,-0.572,0.404,-7.332,-13.317,2.117,
32291450,0.335,-0.628,0.579,27.02,-2.432,21.962,
32291460,0.186,-0.444,0.884,53.025,2.415,35.455,
32291470,0.064,-0.195,1.142,64.662,6.912,39.672,
32291480,-0.043,-0.102,1.213,49.63,7.28,31.482,
32291490,-0.089,-0.096,1.229,28.735,2.502,22.155,
32291500,-0.01,-0.051,1.358,5.635,-3.815,12.582,
32291510,0.059,-0.018,1.384,-23.38,-8.837,3.045,
32291520,0.088,-0.069,1.288,-56.28,-13.16,-4.865,
32291530,0.21,-0.234,1.229,-85.487,-14.42,-9.642,
32291540,0.23,-0.251,1.171,-102.865,-14.367,-8.627,
32291550,0.267,-0.281,1.187,-121.082,-19.372,-6.632,
32291560,0.404,-0.297,1.222,-146.282,-21.997,-1.96,
32291570,0.4,-0.243,1.214,-166.337,-16.1,8.155,
32291580,0.386,-0.227,1.266,-184.135,-21.385,16.782,
32291590,0.483,-0.119,1.252,-205.537,-24.115,34.492,
32291600,0.345,-0.146,1.234,-221.007,-35.525,50.05,
32291610,0.211,-0.51,1.134,-247.082,-48.492,52.815,
32291620,0.35,-0.889,1.123,-256.322,-56.595,52.22,
32291630,0.347,-1.293,0.992,-243.95,-50.96,60.795,
32291640,0.827,-1.817,1.101,-202.72,-31.867,56.21,
32291650,0.95,-1.998,0.993,-167.527,-32.9,2.572,
32291660,1.765,-1.857,0.614,-87.692,8.137,-53.725,
32291670,0.563,-0.766,0.24,-7.21,85.627,-94.727,
32291680,-0.674,0.032,0.352,7.77,88.48,-158.305,
32291690,-0.995,0.047,0.386,-25.9,48.107,-157.867,
32291700,-0.834,0.174,0.387,-12.687,0.49,-110.95,
32291710,-0.476,0.683,0.314,47.18,-3.727,-52.605,
32291720,-0.46,1.196,0.147,100.992,26.46,9.1,
32291730,-0.693,1.422,0.145,121.922,44.45,41.895,
32291740,-0.58,1.203,0.055,118.23,37.187,46.847,
32291750,-0.216,0.757,0.015,180.197,28.665,37.1,
32291760,-0.077,1.021,-0.074,192.447,32.2,25.777,
32291760,-0.229,0.846,-0.215,178.255,39.357,17.132,
32291780,-0.301,0.736,-0.246,147.017,33.127,17.29,
32291780,-0.232,0.571,-0.209,91.28,13.195,25.375,
32291800,-0.116,-0.542,-0.115,72.94,-8.662,43.382,
32291800,0.038,0.443,-0.091,93.572,-27.247,47.862,
32291820,0.253,0.152,-0.09,91.787,-36.102,-3.972,
32291820,-0.354,-0.708,1.216,43.522,-60.007,-41.737,
32291830,-0.152,-1.998,0.57,47.74,-132.247,-217.805,
32291840,0.175,-0.77,0.357,360.5,217.787,-131.25,
32291850,-1.054,1.997,0.602,565.495,92.26,114.467,
32291860,1.985,0.938,1.62,282.117,7.035,6.842,
32291870,0.547,-1.951,1.832,-162.487,81.655,-67.952,
32291880,0.147,1.703,1.685,185.307,101.832,80.062,
32291890,-0.854,0.777,1.676,17.202,49.682,81.9,
32291900,-0.885,-0.68,1.236,-153.055,-22.435,37.135,
32291910,-0.052,0.162,1.052,-71.102,-54.985,30.59,
32291920,0.249,-0.749,0.622,-88.112,-53.585,3.447,
32291930,0.449,-0.016,0.788,-30.52,-38.57,-5.04,
32291940,0.415,-1.066,0.515,-84.525,-22.715,-3.377,
32291950,0.209,-0.293,0.763,8.225,-7,23.572,
32291960,0.06,-0.461,0.852,5.897,-2.397,22.207,
32291970,0.011,-0.276,0.988,19.967,-2.24,16.205,
32291980,0.06,-0.172,1.038,22.47,-4.147,9.082,
32291990,0.185,-0.236,1.019,10.045,-5.845,-0.56,
32292000,0.23,-0.173,1.049,7.157,-4.917,2.38,
32292010,0.154,-0.132,1.133,-1.4,-4.41,6.072,
32292020,0.125,-0.084,1.182,-16.607,-7.822,6.912,
32292030,0.15,-0.1,1.174,-34.965,-10.885,5.145,
32292040,0.162,-0.164,1.175,-54.862,-11.585,1.75,
32292050,0.166,-0.196,1.176,-73.745,-9.712,-3.167,
32292060,0.144,-0.225,1.165,-92.557,-10.727,-8.12,
32292070,0.147,-0.251,1.14,-110.407,-14.962,-10.762,
32292080,0.194,-0.276,1.096,-125.44,-23.03,-11.147,
32292080,0.279,-0.314,1.066,-134.33,-29.522,-7.297,
32292100,0.446,-0.374,1.091,-140.84,-37.817,1.715,
32292100,0.601,-0.222,1.313,-153.387,-39.76,21.192,
32292120,0.74,-0.441,1.028,-178.185,-36.242,48.58,
32292120,0.943,-0.887,0.908,-181.335,-22.382,75.407,
32292140,0.94,-0.906,0.812,-162.505,-2.887,92.137,
32292140,0.345,-1.726,1.002,-131.425,-7.507,91.77,
32292160,0.448,-1.998,0.833,-84.892,-65.415,59.99,
32292160,1.94,-1.591,-0.214,47.075,-68.6,63.437,
32292170,0.215,-0.116,0.011,134.942,-33.95,98.612,
32292180,-0.187,-0.094,0.294,22.575,-82.285,23.432,
32292190,0.408,-1.079,0.347,-61.127,-117.915,24.22,
32292200,0.299,-0.851,0.316,-19.477,-115.465,61.407,
32292210,-0.096,0.004,0.187,30.642,-109.48,77.77,
32292220,-0.396,0.344,0.029,18.987,-114.712,82.39,
32292230,-0.518,0.413,0.037,-19.145,-122.342,69.982,
32292240,-0.466,0.324,0.08,-38.832,-113.33,50.592,
32292250,-0.652,0.387,-0.015,-40.145,-86.992,26.372,
32292260,-1.11,0.835,-0.175,-27.825,-58.817,1.75,
32292270,-1.601,1.469,-0.3,-27.107,-40.775,-8.295,
32292280,-1.617,1.819,-0.476,-44.45,-24.185,2.415,
32292290,-1.314,1.008,-0.722,-43.4,8.137,26.722,
32292300,-1.589,0.836,0.895,44.292,47.67,132.422,
32292310,1.398,-1.895,0.01,206.78,46.795,-75.11,
32292320,0.158,-1.964,0.321,442.89,350.77,-433.23,
32292330,-1.104,1.495,0.491,568.557,151.165,-68.757,
32292340,1.994,1.611,1.541,500.85,75.355,38.832,
32292350,0.559,-1.708,1.998,41.387,209.79,19.67,
32292360,-1.204,1.608,1.998,101.045,164.29,125.352,
32292370,-0.515,0.761,1.804,-18.27,8.68,82.477,
32292380,-0.374,-0.149,1.335,-158.62,-65.135,28.105,
32292390,0.337,-0.809,0.746,-141.802,-75.67,24.57,
32292400,-0.228,-0.305,0.379,-97.107,-63.7,8.417,
32292410,-0.182,-0.804,0.463,-60.077,-56.98,-5.67,
32292420,0.545,-1.072,0.416,-47.582,-53.585,-23.24,
32292430,0.683,-0.434,0.648,15.032,-34.37,-16.467,
32292440,0.617,-0.215,0.905,29.417,-11.865,-1.732,
32292450,0.259,-0.224,1.071,29.347,7.35,10.605,
32292460,0.072,-0.224,1.071,18.777,11.445,10.92,
32292470,0.045,-0.115,1.153,9.432,7.035,5.845,
32292480,0.161,-0.155,1.241,-6.055,-0.595,0.752,
32292490,0.168,-0.003,1.273,-29.26,-6.667,-3.132,
32292500,0.238,-0.076,1.262,-60.147,-11.637,-6.492,
32292510,0.218,-0.128,1.215,-88.27,-16.24,-7.735,
32292510,0.204,-0.174,1.258,-111.125,-25.76,-4.742,
32292530,0.164,-0.184,1.236,-138.827,-43.347,-2.117,
32292530,0.296,-0.241,1.252,-161.157,-62.002,0.84,
32292550,0.252,-0.3,1.211,-177.012,-76.44,9.362,
32292550,0.191,-0.342,1.145,-185.955,-99.767,21.665,
32292570,0.247,-0.352,1.2,-199.5,-130.97,45.5,
32292570,-0.006,-0.342,1.243,-207.917,-171.675,74.9,
32292580,-0.149,-0.493,1.135,-214.55,-222.775,89.845,
32292590,0.234,-0.884,1.084,-223.632,-261.17,95.76,
32292600,0.693,-1.278,1.026,-217.77,-255.045,97.23,
32292610,1.156,-1.395,0.569,-173.04,-214.322,73.902,
32292620,0.464,-1.248,0.081,-111.755,-120.802,89.687,
32292630,-0.109,-1.505,0.742,-64.925,-50.995,98.297,
32292640,-1.388,-1.992,1.025,-26.53,-28.122,100.362,
32292650,-0.796,-1.89,0.747,94.43,22.26,184.1,
32292660,0.709,-0.59,-0.06,266.315,111.807,270.217,
32292670,-0.007,0.63,-0.07,286.09,168.735,223.212,
32292680,-0.298,0.474,0.009,141.137,151.812,113.645,
32292690,0.067,-0.297,-0.105,37.187,133.035,57.12,
32292700,-0.113,-0.178,-0.372,66.167,124.792,27.072,
32292710,-0.563,0.602,-0.376,86.607,113.312,1.82,
32292720,-0.619,0.609,-0.321,21.665,94.062,-12.25,
32292730,-0.364,0.273,-0.19,-50.697,75.337,-26.67,
32292740,-0.139,0.223,-0.114,-56,74.655,-34.597,
32292750,-0.017,0.597,-0.138,-12.687,92.627,-40.915,
32292760,0.059,1.107,-0.293,13.597,111.982,-59.097,
32292770,0.011,1.445,-0.353,1.172,117.932,-85.312,
32292780,-0.119,0.123,-0.376,-27.912,107.17,-109.795,
32292790,-0.125,-0.238,0.604,-13.737,108.867,16.8,
32292800,0.861,-1.998,0.426,47.775,-35.385,-210.717,
32292810,1.476,-1.998,1.383,203.875,-18.182,-537.95,
32292820,-1.998,0.947,-1.23,517.247,204.155,-132.002,
32292830,1.644,1.997,1.428,516.355,95.427,-14.297,
32292830,0.655,-0.929,1.89,125.772,133.717,-74.602,
32292850,0.996,-1.369,1.9,115.657,103.302,42.035,
32292850,0.651,1.967,1.998,346.902,92.505,284.515,
32292870,-1.87,1.088,1.99,78.155,62.58,205.24,
32292870,-1.53,-0.285,1.733,-75.442,-14.122,121.695,
32292890,-1.488,-0.04,1.333,-62.93,-47.162,53.585,
32292890,-0.464,-0.17,0.869,-115.307,-68.88,-54.057,
32292910,0.263,-0.765,0.629,-145.775,-75.617,-83.037,
32292910,0.846,-0.534,0.719,-88.235,-60.235,-61.32,
32292920,0.968,-0.384,0.807,-70.56,-48.037,-31.482,
32292930,0.707,-0.44,0.809,-65.187,-38.797,5.792,
32292940,0.401,-0.499,0.835,-50.68,-31.622,34.16,
32292950,0.111,-0.43,0.927,-36.907,-25.077,44.957,
32292960,-0.048,-0.323,1.084,-35.945,-31.01,43.05,
32292970,0.134,-0.278,1.225,-57.697,-39.2,34.737,
32292980,0.057,-0.219,1.3,-80.15,-44.712,31.815,
32292990,0.1,-0.216,1.307,-109.917,-54.267,28.787,
32293000,0.116,-0.259,1.255,-138.792,-69.09,26.617,
32293010,0.269,-0.29,1.197,-158.76,-77.77,26.635,
32293020,0.26,-0.316,1.094,-169.067,-77.665,30.887,
32293030,0.354,-0.47,1.029,-186.567,-80.622,32.27,
32293040,0.424,-0.627,0.817,-194.302,-80.307,36.435,
32293050,0.386,-0.806,0.902,-187.11,-83.475,33.407,
32293060,0.69,-1.064,0.986,-189.805,-79.187,21.455,
32293070,0.731,-1.264,0.285,-156.012,-46.795,20.755,
32293080,-0.085,-1.189,0.25,-95.357,-5.232,-0.892,
32293090,-0.425,-1.103,0.291,-85.61,-10.132,1.137,
32293100,0.026,-1.33,0.198,-51.887,-5.145,26.092,
32293110,-0.08,-1.144,0.087,-7.367,-8.802,17.535,
32293120,-0.09,-0.812,0.102,27.072,-4.952,10.535,
32293130,-0.066,-0.465,0.07,47.792,0.997,11.882,
32293140,-0.078,-0.138,0.201,45.867,10.08,-5.775,
32293150,-0.071,-0.157,0.321,22.26,27.282,-20.947,
32293160,-0.157,-0.16,0.268,16.415,44.555,-35.437,
32293170,-0.29,0.084,0.141,36.4,51.852,-47.81,
32293180,-0.349,0.376,-0.006,52.01,46.62,-56,
32293190,-0.398,0.485,-0.208,45.587,38.797,-52.412,
32293200,-0.355,0.445,-0.146,52.727,34.72,-47.057,
32293210,-0.524,0.506,-0.091,22.995,38.062,-16.292,
32293220,-0.743,0.527,0.067,19.267,32.637,10.675,
32293230,-0.62,-0.728,1.934,16.17,-63.752,-26.897,
32293240,1.751,-1.998,-0.396,37.852,-216.755,-222.88,
32293250,1.614,-1.724,1.192,325.482,91.84,-282.607,
32293260,-1.638,0.695,0.119,382.515,208.285,-30.17,
32293260,1.638,1.997,0.691,401.502,124.652,-108.937,
32293270,1.796,0.419,1.072,222.932,191.887,-22.645,
32293280,0.083,-1.841,1.514,112.507,188.37,51.975,
32293290,0.668,0.399,1.82,247.38,145.267,153.282,
32293300,-0.78,1.234,1.927,217.717,112.665,164.587,
32293310,-1.416,0.195,1.939,59.692,71.295,95.025,
32293320,-1.308,-0.078,1.639,-23.87,15.347,29.26,
32293330,-0.417,0.054,1.322,-61.74,-33.442,-32.707,
32293340,0.338,-0.259,0.868,-97.947,-48.405,-66.517,
32293350,0.619,-0.612,0.62,-90.09,-31.5,-65.362,
32293360,0.612,-0.647,0.641,-58.187,-17.92,-35.63,
32293370,0.615,-0.462,0.794,-30.87,-12.162,-4.742,
32293380,0.315,-0.297,0.939,-17.272,-5.81,18.742,
32293390,0.146,-0.335,1.047,-23.695,-9.205,26.845,
32293400,0.123,-0.275,1.139,-31.85,-12.197,27.597,
32293410,0.098,-0.163,1.162,-44.782,-15.645,24.29,
32293420,0.172,-0.243,1.211,-66.15,-24.78,20.772,
32293430,0.228,-0.259,1.242,-87.71,-31.115,22.452,
32293440,0.224,-0.271,1.258,-106.33,-39.847,27.072,
32293450,0.271,-0.265,1.197,-129.552,-48.055,31.64,
32293460,0.239,-0.368,1.092,-148.417,-49.402,39.252,
32293470,0.311,-0.411,1.018,-156.625,-49.892,47.372,
32293480,0.438,-0.431,0.925,-158.76,-31.342,51.747,
32293490,0.256,-0.445,0.88,-148.995,-18.41,46.462,
32293500,0.398,-0.41,0.999,-156.992,-8.207,32.917,
32293510,0.588,-0.766,0.802,-161.805,7.332,33.722,
32293520,0.584,-1.192,0.555,-134.557,33.057,32.427,
32293530,0.21,-1.148,0.553,-90.632,35.052,20.02,
32293540,0.358,-1.47,0.301,-65.1,44.117,11.182,
32293550,0.438,-1.682,0.442,-41.055,68.022,5.302,
32293560,0.709,-1.339,0.136,8.977,82.95,-20.877,
32293570,0.271,-0.345,0.115,68.565,86.642,-49.752,
32293580,-0.596,0.464,0.04,71.365,58.59,-89.757,
32293580,-0.828,0.786,-0.011,40.635,15.82,-105.717,
32293600,-0.915,0.922,-0.087,24.85,-22.382,-85.89,
32293600,-0.824,0.721,-0.316,34.09,-51.432,-54.897,
32293620,-0.935,1.44,-0.403,70.787,-70.437,9.415,
32293620,-0.596,1.515,-0.166,57.907,-88.497,43.715,
32293640,-0.358,1.339,0.057,6.405,-94.902,65.24,
32293640,0.32,-1.18,1.494,-20.282,-74.095,-1.225,
32293660,1.901,-1.998,0.669,-8.697,0.595,-331.572,
32293660,-1.177,-0.385,-0.362,341.075,167.405,-87.92,
32293670,-0.025,1.997,0.34,555.24,64.522,54.337,
32293680,1.648,0.872,1.33,251.055,80.832,-18.497,
32293690,-0.15,-1.998,1.782,10.78,83.737,-76.422,
32293700,1.415,0.825,1.724,280.805,86.047,99.207,
32293710,-0.176,1.508,1.998,241.902,97.982,137.725,
32293720,-1.001,-0.28,1.843,-42.262,51.047,70.997,
32293730,-0.914,0.355,1.672,-26.652,-6.772,65.73,
32293740,-0.492,-0.064,1.326,-66.605,-43.54,8.82,
32293750,0.098,-0.159,1.102,-119.717,-59.5,-52.815,
32293760,0.493,-0.592,0.79,-150.552,-51.537,-54.53,
32293770,0.518,-0.437,0.702,-111.107,-36.382,-36.155,
32293780,0.518,-0.453,0.615,-96.792,-27.982,-17.045,
32293790,0.406,-0.639,0.596,-78.155,-20.37,-1.557,
32293800,0.297,-0.661,0.639,-48.825,-13.352,9.572,
32293810,0.215,-0.498,0.709,-22.785,-7.28,13.807,
32293820,0.146,-0.424,0.788,-12.372,-3.727,10.955,
32293830,0.159,-0.479,0.839,-8.172,0,9.362,
32293840,0.176,-0.418,0.852,-1.627,1.645,8.855,
32293850,0.189,-0.356,0.876,1.225,4.427,8.172,
32293860,0.175,-0.372,0.917,1.435,5.25,7.647,
32293870,0.181,-0.341,0.914,1.26,4.935,8.225,
32293880,0.141,-0.339,0.895,1.575,2.975,8.942,
32293890,0.099,-0.363,0.859,1.522,0.612,8.207,
32293900,0.094,-0.434,0.797,3.255,-1.225,5.81,
32293910,0.089,-0.448,0.709,11.602,-0.472,3.57,
32293920,0.101,-0.458,0.668,26.442,0.14,1.295,
32293920,0.121,-0.531,0.622,40.827,1.242,-0.507,
32293940,0.147,-0.524,0.581,63.63,2.065,0.962,
32293940,0.186,-0.48,0.592,92.4,4.217,5.425,
32293960,0.099,-0.497,0.565,119.77,6.457,9.065,
32293960,0.127,-0.508,0.647,150.902,5.267,12.792,
32293980,0.168,-0.407,0.864,180.477,12.46,18.305,
32293980,0.442,-0.151,1.161,194.355,36.155,16.572,
32294000,0.516,-0.143,1.456,174.492,71.767,9.887,
32294000,0.659,0.001,1.361,134.277,87.29,3.692,
32294010,-0.029,0.402,1.349,104.597,85.47,11.287,
32294020,-0.473,0.313,1.21,48.405,60.182,20.457,
32294030,-0.37,0.059,1.097,13.492,19.162,15.102,
32294040,-0.152,-0.037,1.033,-0.14,-13.142,8.312,
32294050,-0.018,-0.164,0.988,-9.922,-31.727,0.192,
32294060,0.148,-0.188,0.965,-9.87,-39.532,-5.215,
32294070,0.193,-0.134,0.974,-9.572,-39.235,-9.8,
32294080,0.24,-0.139,0.971,-14.63,-36.417,-12.197,
32294090,0.298,-0.167,0.954,-18.882,-30.8,-11.742,
32294100,0.357,-0.16,0.934,-20.772,-22.4,-8.785,
32294110,0.364,-0.179,0.924,-21.507,-11.147,-3.132,
32294120,0.302,-0.168,0.932,-19.512,-0.455,3.36,
32294130,0.237,-0.202,0.931,-17.657,8.19,8.785,
32294140,0.161,-0.229,0.927,-14.717,13.947,11.305,
32294150,0.103,-0.227,0.927,-9.695,17.342,11.76,
32294160,0.05,-0.236,0.927,-4.742,17.5,9.887,
32294170,0.02,-0.223,0.945,-0.192,15.977,5.985,
32294180,0.032,-0.2,0.964,3.185,11.742,1.102,
32294190,0.079,-0.178,0.975,3.535,7.7,-2.905,
32294200,0.096,-0.156,0.984,2.327,3.99,-5.267,
32294210,0.12,-0.172,0.98,-0.927,1.575,-6.387,
32294220,0.143,-0.171,0.976,-3.325,-0.35,-6.527,
32294230,0.156,-0.156,0.98,-5.722,-0.7,-5.495,
32294240,0.176,-0.158,0.988,-9.205,-1.277,-3.832,
32294250,0.188,-0.127,1.013,-13.562,-1.172,-0.892,
32294260,0.173,-0.104,1.041,-20.825,-2.31,1.627,
32294270,0.152,-0.099,1.085,-32.375,-4.025,2.975,
32294280,0.162,-0.073,1.164,-46.777,-6.667,3.797,
32294290,0.196,0,1.262,-69.317,-8.767,3.08,
32294300,0.231,-0.278,1.308,-97.527,-7.14,3.727,
32294310,0.046,0.158,1.375,-105.105,-5.302,10.692,
32294320,0.111,0.119,1.38,-151.515,-15.487,-0.017,
32294330,-0.097,-0.03,1.429,-195.055,-40.757,10.43,
32294330,0.156,-0.199,1.411,-230.527,-87.307,27.51,
32294350,0.495,-0.123,1.412,-267.645,-115.062,61.075,
32294350,0.348,-0.04,1.254,-273.157,-133.122,87.797,
32294370,0.398,-0.199,1.278,-276.307,-153.072,102.042,
32294370,0.526,-0.519,1.335,-292.355,-165.217,115.15,
32294390,0.42,-0.773,1.395,-282.695,-180.162,126.805,
32294390,0.767,-0.959,1.226,-233.38,-166.95,115.22,
32294410,1.101,-0.053,0.844,-143.132,-123.76,104.597,
32294410,-0.379,0.701,1.487,-51.992,-85.662,108.885,
32294420,0.264,1.136,0.853,8.785,-78.907,76.457,
32294430,0.497,1.141,0.843,58.432,-20.002,91.665,
32294440,-0.132,1.189,0.562,95.672,8.68,72.292,
32294450,-0.099,1.242,0.623,145.705,4.725,25.882,
32294460,0.241,0.85,0.476,148.732,3.29,-13.195,
32294470,0.213,0.517,0.379,169.487,18.812,-59.08,
32294480,0.062,0.239,0.291,185.885,41.912,-106.785,
32294490,-0.079,-0.193,0.245,178.045,59.552,-145.04,
32294500,-0.176,-0.724,0.165,176.54,70.63,-165.55,
32294510,-0.203,-0.986,0.097,203.07,82.74,-166.705,
32294520,-0.277,-1.174,-0.071,218.96,91.035,-176.82,
32294530,-0.351,-1.487,-0.268,208.932,94.097,-198.52,
32294540,-0.415,-1.869,-0.628,175.787,94.552,-190.977,
32294550,-1.127,-1.981,-1.037,135.31,70.28,-171.202,
32294560,0.965,-1.998,1.997,40.897,83.212,-122.622,
32294570,1.419,-1.998,0.29,170.082,278.145,-92.4,
32294580,1.535,1.719,1.131,541.73,275.485,-45.832,
32294590,-1.998,1.997,0.651,401.275,250.862,79.327,
32294600,0.31,-0.585,1.332,-270.007,-0.087,-21.892,
32294610,1.024,-1.821,0.538,-285.915,-44.31,20.457,
32294620,-1.025,1.387,1.205,167.807,-13.44,51.94,
32294630,1.049,-0.027,0.973,-28.315,-38.885,10.885,
32294640,0.067,-0.72,0.882,-61.897,-20.93,2.485,
32294650,0.163,-0.092,1.006,19.792,-11.445,27.86,
32294660,0.017,-0.19,0.987,-5.022,-12.442,20.405,
32294670,0.195,-0.301,0.954,-12.267,-13.037,10.465,
32294670,0.164,-0.102,0.989,-0.682,-11.112,8.627,
32294690,0.268,-0.292,0.895,-11.41,-7.595,5.985,
32294690,0.182,-0.062,1.031,7.297,-1.89,8.33,
32294710,0.035,-0.322,0.963,-14.175,-0.665,6.632,
32294710,0.065,-0.122,0.994,0.997,-3.535,6.405,
32294730,0.118,-0.198,0.976,-4.795,-6.632,1.82,
32294730,0.191,-0.192,0.962,-4.637,-6.737,0.542,
32294750,0.18,-0.163,0.968,-2.765,-4.182,1.347,
32294750,0.196,-0.202,0.96,-6.86,-1.365,0.49,
32294760,0.17,-0.175,0.972,-6.737,1.33,0.647,
32294770,0.196,-0.178,0.963,-10.325,3.097,-0.962,
32294780,0.196,-0.215,0.946,-13.982,6.037,-1.172,
32294790,0.186,-0.229,0.937,-14.07,9.765,-1.295,
32294800,0.157,-0.228,0.938,-12.6,12.617,-0.49,
32294810,0.095,-0.204,0.952,-10.325,14.367,1.977,
32294820,0.029,-0.191,0.961,-8.82,12.565,4.445,
32294830,-0.029,-0.197,0.967,-7.77,8.067,5.005,
32294840,-0.047,-0.202,0.966,-6.23,1.032,3.675,
32294850,-0.004,-0.211,0.984,-4.795,-5.932,2.1,
32294860,0,-0.233,0.987,-4.97,-12.932,1.715,
32294870,0.094,-0.218,0.925,-3.622,-18.147,3.605,
32294880,0.323,-0.079,0.928,0.577,-18.672,9.205,
32294890,0.348,0.032,0.978,-1.242,-14.927,18.83,
32294900,0.317,-0.081,0.991,-14.367,-13.387,29.452,
32294910,0.31,-0.182,0.989,-23.66,-12.862,42.875,
32294920,0.077,-0.219,0.908,-23.922,-17.745,57.417,
32294930,0.367,-0.291,1.087,-40.967,-30.782,59.132,
32294940,-0.051,0.097,0.935,-31.482,-23.537,56.367,
32294950,-0.09,-0.356,0.946,-32.742,-21.052,46.007,
32294960,-0.106,-0.339,0.904,-34.527,-19.827,19.512,
32294970,0.036,-0.335,0.89,-18.952,-17.692,10.587,
32294980,0.215,-0.236,0.894,-12.845,-15.697,-1.802,
32294990,0.387,-0.249,0.951,-13.842,-9.205,-3.902,
32295000,0.322,-0.174,1.031,-16.012,-0.7,0.245,
32295010,0.228,-0.18,1.043,-25.725,3.465,5.967,
32295020,0.057,-0.238,1.014,-37.205,1.47,5.862,
32295030,0.017,-0.254,1.036,-45.097,-3.447,1.837,
32295040,0.031,-0.216,1.02,-50.365,-7.665,-4.182,
32295050,0.036,-0.233,0.968,-54.372,-10.342,-9.712,
32295060,0.049,-0.305,0.917,-56.402,-13.387,-15.837,
32295070,0.082,-0.343,0.875,-53.392,-15.522,-18.795,
32295080,0.109,-0.344,0.881,-47.127,-17.097,-20.702,
32295080,0.137,-0.348,0.928,-41.51,-17.867,-21.752,
32295100,0.154,-0.316,0.962,-38.657,-18.55,-21.84,
32295100,0.148,-0.295,0.985,-39.69,-19.232,-22.557,
32295120,0.153,-0.291,0.983,-45.307,-19.985,-25.795,
32295120,0.181,-0.341,0.992,-50.155,-20.755,-27.667,
32295140,0.197,-0.316,1.006,-52.71,-20.947,-27.842,
32295140,0.244,-0.299,0.993,-58.415,-22.54,-28.56,
32295160,0.268,-0.335,0.968,-64.942,-23.59,-27.58,
32295160,0.281,-0.37,0.972,-68.775,-25.585,-25.532,
32295170,0.297,-0.335,0.983,-72.502,-28.857,-22.977,
32295180,0.355,-0.337,1.01,-80.867,-33.075,-20.352,
32295190,0.395,-0.349,1.035,-91.525,-36.925,-13.965,
32295200,0.423,-0.326,1.042,-99.802,-43.26,-5.25,
32295210,0.457,-0.345,1.029,-107.747,-49.84,7.105,
32295220,0.482,-0.39,0.976,-115.64,-57.61,20.492,
32295230,0.549,-0.414,0.957,-122.692,-70.752,36.697,
32295240,0.642,-0.411,0.902,-127.54,-91.752,69.65,
32295250,0.59,-0.615,0.843,-140.577,-104.037,105.21,
32295260,0.94,-0.948,0.676,-145.705,-84.175,110.687,
32295270,0.97,-1.135,0.61,-116.62,-25.165,105.997,
32295280,0.577,-1.4,0.339,-64.855,14.997,63.77,
32295290,0.538,-1.978,0.706,-36.225,7.402,15.732,
32295300,1.839,-1.544,-0.124,12.827,36.96,23.87,
32295310,1.075,-0.769,-0.086,92.697,129.097,50.855,
32295320,0.121,-0.229,-0.101,70.525,141.4,-26.302,
32295330,-0.176,-0.375,-0.028,10.64,101.867,-81.357,
32295340,-0.366,-0.353,-0.063,-13.195,47.11,-98.77,
32295350,-0.629,0.077,-0.109,-5.862,5.39,-110.057,
32295360,-0.828,0.476,-0.088,-23.012,-17.482,-114.59,
32295370,-1.163,0.284,-0.019,-69.335,-29.452,-99.435,
32295380,-1.418,0.628,0.14,-82.512,-44.712,-50.907,
32295390,-1.165,0.671,0.233,-30.345,-49.752,18.917,
32295400,-0.981,0.875,0.134,6.562,-39.795,88.952,
32295410,-0.766,0.961,1.313,46.462,-25.585,138.495,
32295420,1.268,-1.977,0.531,20.37,-41.79,-6.895,
32295420,1.507,-1.998,0.008,361.287,271.915,-276.587,
32295440,-1.998,0.426,0.338,466.83,201.46,-88.007,
32295440,0.985,1.997,1.002,500.71,95.375,-29.89,
32295460,1.031,0.557,1.652,323.312,113.417,41.86,
32295460,0.796,-0.721,1.998,216.317,126.245,29.785,
32295480,0.204,1.629,1.998,251.3,154.682,128.817,
32295480,-1.468,1.163,1.961,80.832,92.592,114.222,
32295500,-0.999,0.226,1.585,-64.89,-14.612,76.405,
32295500,-0.366,-0.606,1.153,-84.647,-64.26,32.252,
32295510,0.154,-0.16,0.599,-70.63,-68.407,-5.372,
32295520,0.526,-0.873,0.345,-86.992,-56.385,-38.202,
32295530,0.737,-0.81,0.456,-24.43,-29.19,-5.442,
32295540,0.57,-0.438,0.607,29.627,-1.645,21.84,
32295550,0.35,-0.567,0.757,49.927,17.99,33.705,
32295560,0.036,-0.191,1.01,77.14,30.502,43.242,
32295570,-0.143,-0.131,1.167,70.875,31.78,34.895,
32295580,-0.058,-0.111,1.161,48.947,21.857,20.737,
32295590,0.03,-0.058,1.139,31.71,10.745,14.087,
32295600,0.076,-0.083,1.157,11.9,0.437,10.797,
32295610,0.137,-0.048,1.188,-6.825,-8.33,8.837,
32295620,0.23,-0.112,1.237,-30.59,-22.96,9.572,
32295630,0.236,-0.112,1.274,-52.29,-33.25,16.975,
32295640,0.311,-0.138,1.342,-80.045,-44.8,20.317,
32295650,0.202,-0.143,1.309,-112.42,-61.127,29.172,
32295660,-0.016,-0.307,1.211,-143.692,-94.132,45.5,
32295670,0.079,-0.547,1.159,-165.34,-130.112,52.5,
32295680,0.307,-0.666,1.243,-163.765,-151.357,48.737,
32295690,0.275,-1.33,1.532,-162.802,-167.982,41.72,
32295700,-0.529,-1.998,1.456,-141.645,-218.4,20.265,
32295710,1.673,-1.998,0.891,-33.722,-166.425,38.692,
32295720,1.16,-1.995,-0.66,183.242,34.3,164.027,
32295730,-1.766,-0.757,-1.163,299.39,41.79,194.845,
32295740,-1.126,-0.028,-0.409,172.165,-61.95,119.315,
32295750,0.928,-1.349,0.055,-63.105,-68.81,95.34,
32295760,0.833,-1.929,0.27,-129.36,-3.675,72.607,
32295770,0.111,-1.1,0.355,-30.03,58.362,72.94,
32295780,0.035,0.109,0.292,1.435,74.322,87.342,
32295790,0.288,0.484,0.284,-69.895,56,60.13,
32295800,0.411,0.2,0.34,-151.165,39.917,16.782,
32295810,0.334,0.015,0.405,-187.967,36.627,-22.925,
32295820,0.17,0.148,0.434,-175.752,37.677,-55.842,
32295830,-0.03,0.509,0.298,-162.382,38.797,-85.75,
32295830,-0.299,0.72,0.195,-160.58,35.595,-111.877,
32295850,-0.558,1.023,0.006,-179.392,22.802,-128.765,
32295850,-0.792,1.403,-0.143,-177.712,6.177,-118.72,
32295870,-0.956,1.937,-0.208,-154.927,-11.48,-91.717,
32295870,-0.907,1.421,-0.423,-147.122,-28.875,-54.53,
32295890,-0.119,0.82,1.524,51.765,-53.2,-33.197,
32295890,1.998,-1.998,-0.527,166.547,52.727,-251.44,
32295900,0.076,-1.94,0.447,513.59,428.925,-216.562,
32295910,-0.806,1.336,0.88,469.91,157.272,-54.442,
32295920,1.836,1.794,0.934,488.757,116.48,54.652,
32295930,0.405,-1.179,1.998,228.305,192.675,85.785,
32295940,-0.992,1.409,1.998,198.905,195.422,142.397,
32295950,-1.981,1.485,1.941,76.335,81.06,132.405,
32295960,-1.392,0.349,1.534,-64.54,-32.847,54.407,
32295970,-0.242,-0.354,1.066,-116.165,-81.217,-22.207,
32295980,0.379,-0.729,0.525,-129.377,-80.185,-56.332,
32295990,0.773,-0.627,0.512,-79.31,-57.207,-46.515,
32296000,0.742,-0.572,0.606,-48.65,-32.007,-20.457,
32296010,0.462,-0.577,0.625,-18.235,-13.44,10.237,
32296020,0.186,-0.629,0.61,13.195,-5.407,29.032,
32296030,0.006,-0.621,0.675,40.565,0.332,31.08,
32296040,0.059,-0.476,0.864,64.26,7.84,21.857,
32296050,0.178,-0.184,1.093,72.187,14.455,12.232,
32296060,0.15,0.012,1.193,60.13,15.802,9.905,
32296070,0.082,-0.005,1.214,36.627,11.585,10.902,
32296080,-0.004,-0.037,1.211,10.587,0.927,10.692,
32296090,-0.012,-0.117,1.242,-15.19,-15.662,7.612,
32296100,-0.074,-0.131,1.272,-41.002,-33.092,0.822,
32296110,-0.048,-0.185,1.236,-67.48,-49.91,-11.287,
32296120,0.051,-0.228,1.181,-89.827,-65.327,-22.925,
32296130,0.11,-0.108,1.126,-107.135,-78.837,-25.55,
32296140,-0.014,-0.126,1.118,-123.095,-96.04,-21.472,
32296150,-0.03,-0.351,1.052,-135.572,-120.032,-24.902,
32296160,0.177,-0.618,0.935,-134.015,-131.862,-37.695,
32296170,0.366,-0.847,0.976,-117.81,-120.417,-46.06,
32296170,0.365,-1.44,0.812,-99.54,-107.292,-63.157,
32296190,0.649,-1.931,0.202,-46.147,-94.08,-70.367,
32296190,-0.028,-1.998,-0.013,-17.307,-36.382,-59.78,
32296210,0.072,-1.998,0.277,-2.555,27.072,-28.49,
32296210,-0.084,-1.622,0.314,31.412,82.915,9.117,
32296230,-0.099,-0.957,0.397,15.855,119.052,17.937,
32296230,-0.205,-0.993,0.571,-48.352,152.722,38.185,
32296250,-0.351,-0.965,0.562,-77.49,164.465,67.935,
32296250,-0.475,-0.405,0.531,-62.44,144.077,107.31,
32296260,-0.311,0.156,0.469,-62.352,104.615,143.062,
32296270,-0.03,0.26,0.304,-84.49,72.94,165.182,
32296280,0.04,0.347,-0.085,-99.855,56.665,179.497,
32296290,0.09,0.918,-0.46,-91.385,51.625,197.505,
32296300,0.08,1.756,-0.591,-93.03,34.09,195.755,
32296310,0.232,1.449,1.811,-119.227,-86.292,139.23,
32296320,1.987,1.568,1.154,128.362,-202.23,-11.095,
32296330,-0.675,-0.139,0.786,485.835,32.165,-242.025,
32296340,-0.207,-1.998,1.865,225.032,5.827,-265.877,
32296350,1.602,0.241,0.595,348.652,14.297,-2.922,
32296360,1.668,1.81,1.82,488.53,32.76,124.512,
32296370,1.133,-0.49,1.998,101.325,101.15,55.807,
32296380,-1.187,1.435,1.998,88.357,107.887,121.38,
32296390,-1.131,0.927,1.717,-23.432,12.862,107.94,
32296400,-0.791,-0.218,1.147,-112.822,-55.457,40.705,
32296410,-0.237,-0.117,0.969,-89.827,-74.48,-8.26,
32296420,0.149,-0.946,0.499,-140.525,-73.132,-37.607,
32296430,0.414,-0.645,0.461,-71.785,-61.127,-31.937,
32296440,0.606,-0.647,0.528,-32.952,-43.067,-18.515,
32296450,0.637,-0.563,0.654,-8.05,-21.595,-1.417,
32296460,0.433,-0.377,0.861,19.25,0.262,15.05,
32296470,0.18,-0.274,0.982,29.872,12.302,27.247,
32296480,0.093,-0.277,1.079,28.192,15.645,27.737,
32296490,-0.004,-0.152,1.138,19.757,15.015,22.417,
32296500,0.093,-0.114,1.178,4.847,10.78,13.737,
32296510,0.189,-0.079,1.339,-16.31,8.645,6.772,
32296520,0.237,0.006,1.494,-48.055,6.685,0.542,
32296530,0.183,-0.032,1.556,-95.655,-0.997,-1.61,
32296540,0.172,-0.191,1.503,-146.982,-20.142,-1.61,
32296550,0.119,-0.21,1.338,-186.585,-28.42,-0.315,
32296560,0.068,-0.161,1.273,-198.345,-36.592,-0.157,
32296570,0.155,-0.062,1.352,-214.007,-48.37,-0.84,
32296570,0.242,-0.064,1.366,-233.677,-52.447,-2.065,
32296580,0.223,-0.221,1.357,-251.527,-60.48,-3.5,
32296590,0.132,-0.62,1.151,-273.455,-71.487,-10.377,
32296600,-0.016,-1.457,1.103,-289.187,-93.432,-26.005,
32296610,0.12,-1.456,1.483,-316.662,-126.122,-36.75,
32296620,0.534,-1.718,0.692,-224.455,-79.817,-0.927,
32296630,0.95,-1.774,0.365,-163.957,9.222,-7.42,
32296640,0.693,-1.559,0.898,-179.725,45.692,-50.505,
32296650,0.236,-0.791,0.864,-124.057,52.902,-118.825,
32296660,-0.441,0.272,0.613,-26.687,72.152,-135.695,
32296670,-1.039,0.979,0.684,-2.905,59.01,-110.495,
32296680,-1.121,1.259,0.826,-19.302,20.16,-84.84,
32296690,-0.716,1.116,0.819,3.587,-1.33,-37.432,
32296700,-0.401,1.098,0.833,68.267,12.057,22.155,
32296710,-0.335,1.085,0.499,183.925,42.49,57.137,
32296720,-0.25,1.304,0.342,295.54,68.285,67.445,
32296730,-0.103,1.289,0.039,235.13,75.775,48.772,
32296740,0.128,0.493,-0.352,163.572,85.4,33.862,
32296750,0.033,-0.21,-0.47,136.675,88.042,58.03,
32296760,0.244,-0.31,-0.546,124.862,60.987,46.427,
32296770,0.458,-0.696,-0.531,64.732,21.07,4.935,
32296780,0.74,-1.11,-0.491,25.165,3.132,-54.442,
32296790,0.639,-1.432,-0.531,10.185,4.637,-131.057,
32296800,-0.156,-1.598,-0.64,26.18,4.06,-158.602,
32296810,-0.694,-1.69,-0.657,48.212,-23.975,-153.265,
32296820,-1.099,-1.518,1.826,1.557,-90.422,-137.375,
32296830,1.733,-1.998,-1.426,31.045,56.612,-293.895,
32296840,-0.61,0.233,0.593,497.49,247.8,-118.615,
32296850,0.337,1.997,-0.257,569.24,89.285,-76.545,
32296860,1.998,0.467,1.216,327.547,138.985,13.037,
32296870,0.69,-1.974,1.998,14.437,300.545,25.83,
32296880,-0.956,1.47,1.734,255.5,279.93,112.682,
32296890,-1.736,1.186,1.804,104.877,91.612,131.32,
32296900,-1.352,-0.719,1.217,-204.855,-82.67,11.83,
32296910,0.765,-0.677,0.858,-107.257,-128.52,5.757,
32296920,0.754,-0.796,0.539,-71.417,-87.937,3.272,
32296920,0.825,-0.609,0.569,-57.767,-47.215,-9.607,
32296940,0.559,-0.74,0.643,-33.425,-9.432,20.37,
32296940,0.17,-0.323,0.862,19.022,11.865,45.132,
32296960,-0.119,-0.377,0.956,18.602,13.51,43.295,
32296960,-0.053,-0.226,1.081,24.815,10.762,26.915,
32296980,0.054,-0.045,1.128,18.217,4.655,14.28,
32296980,0.216,-0.119,1.106,0.542,-3.832,9.485,
32297000,0.224,-0.166,1.122,-13.825,-9.152,12.687,
32297000,0.309,-0.115,1.142,-23.922,-13.912,19.337,
32297010,0.355,-0.007,1.157,-42.647,-13.072,19.25,
32297020,0.229,-0.179,1.218,-63.962,-3.605,16.782,
32297030,0.039,-0.214,1.29,-86.677,7.84,5.652,
32297040,-0.04,-0.14,1.34,-111.755,10.71,-12.32,
32297050,0.061,-0.089,1.38,-141.33,11.882,-31.972,
32297060,0.285,-0.113,1.39,-167.387,17.482,-46.287,
32297070,0.5,-0.185,1.341,-192.78,22.627,-52.937,
32297080,0.435,-0.214,1.349,-212.485,12.285,-41.632,
32297090,0.305,-0.204,1.367,-225.767,-14.472,-11.322,
32297100,0.304,-0.174,1.448,-250.005,-51.695,23.187,
32297110,0.383,-0.838,1.361,-278.442,-81.235,52.482,
32297120,0.073,-1.65,1.276,-265.527,-111.335,46.532,
32297130,0.153,-1.995,0.76,-193.427,-105.297,19.775,
32297140,1.083,-1.998,0.445,-123.445,-35.91,-7.56,
32297150,1.132,-1.194,0.181,-44.047,56.035,-45.447,
32297160,-0.781,-0.08,-0.159,26.25,99.662,-99.82,
32297170,-0.917,0.141,0.256,-39.777,56.875,-120.26,
32297180,-0.126,-0.161,0.284,-101.22,12.985,-70.105,
32297190,0,0.282,0.389,-32.462,-1.715,-26.512,
32297200,0.083,0.909,0.452,39.935,-6.02,-8.19,
32297210,0.287,1.042,0.397,57.295,-2.555,2.73,
32297220,0.312,0.918,0.27,69.912,4.34,-2.292,
32297230,0.154,0.77,0.113,97.667,7.315,-16.1,
32297240,0.096,0.552,-0.152,135.047,5.337,-39.725,
32297250,-0.024,0.44,-0.195,148.942,2.73,-59.377,
32297260,-0.09,0.204,-0.326,93.135,-0.892,-55.125,
32297260,-0.128,-0.115,-0.309,59.29,-2.677,-43.557,
32297280,0.05,-1.11,-0.288,46.69,-2.747,-39.725,
32297280,-0.143,-0.208,-0.231,80.185,2.922,-27.16,
32297300,-0.135,-0.125,-0.126,64.295,6.352,-44.047,
32297300,-0.147,-0.843,-0.009,-3.377,1.522,-59.272,
32297320,-0.095,-1.365,1.468,-32.182,-5.88,-52.797,
