#Format version: 1.0
time[ms],accX[g],accY[g],accZ[g],Value 1,Value 2,Value 3,
60648900,0.237,-0.142,0.957,-2.1,-5.757,1.995,
60648910,0.226,-0.157,0.961,-4.112,-4.357,2.432,
60648920,0.211,-0.157,0.965,-5.057,-6.615,1.627,
60648930,0.208,-0.158,0.967,-6.807,-7.665,0.927,
60648940,0.22,-0.159,0.962,-8.54,-10.92,-0.315,
60648950,0.258,-0.151,0.96,-10.832,-11.06,-0.7,
60648960,0.293,-0.151,0.96,-14.105,-10.587,-0.402,
60648970,0.299,-0.147,0.96,-17.325,-6.3,0.91,
60648980,0.285,-0.156,0.966,-20.702,-2.992,2.327,
60648990,0.286,-0.173,0.973,-24.727,0.35,3.832,
60649000,0.275,-0.176,0.981,-28.647,2.677,4.69,
60649010,0.289,-0.182,0.99,-33.39,4.83,5.53,
60649010,0.325,-0.236,0.968,-37.502,7.245,6.772,
60649030,0.348,-0.279,0.925,-36.4,11.812,6.055,
60649030,0.366,-0.225,0.896,-30.345,19.267,2.485,
60649050,0.303,-0.271,0.889,-24.5,27.265,-1.242,
60649050,0.26,-0.308,0.889,-17.727,33.022,-4.952,
60649070,0.197,-0.262,0.877,-10.045,33.635,-9.555,
60649070,0.052,-0.297,0.842,0.367,30.345,-14.56,
60649080,-0.251,-0.347,0.786,17.972,14.612,-21.682,
60649090,-0.157,-0.314,0.971,37.397,-12.722,-28.28,
60649100,0.114,-0.195,0.99,45.937,-36.4,-34.142,
60649110,0.186,-0.154,1.026,42.035,-42.892,-37.782,
60649120,0.269,-0.057,1.023,33.967,-43.855,-36.085,
60649130,0.383,-0.054,0.988,21.14,-38.15,-32.182,
60649140,0.443,-0.074,0.959,10.237,-28.875,-26.145,
60649150,0.431,-0.047,0.945,3.902,-13.72,-17.937,
60649160,0.331,-0.15,0.955,-3.167,-2.835,-10.622,
60649170,0.238,-0.227,0.952,-4.462,3.745,-8.225,
60649180,0.231,-0.178,0.958,-2.695,1.61,-10.15,
60649190,0.25,-0.177,0.961,-2.73,2.38,-8.907,
60649200,0.211,-0.208,0.965,-2.87,0.77,-6.86,
60649210,0.239,-0.198,0.964,-2.835,0.297,-5.617,
60649220,0.262,-0.169,0.962,-3.202,-1.89,-5.092,
60649230,0.3,-0.15,0.962,-5.145,1.435,-1.662,
60649240,0.255,-0.152,0.98,-8.452,3.762,1.977,
60649250,0.21,-0.168,0.998,-13.685,6.422,4.165,
60649260,0.246,-0.147,1.013,-19.355,4.917,3.955,
60649270,0.289,-0.122,1.055,-28.647,8.295,4.847,
60649280,0.316,-0.106,1.131,-42.315,11.182,6.142,
60649290,0.275,-0.079,1.272,-59.92,16.257,2.432,
60649300,0.154,-0.141,1.307,-75.232,14.875,-16.24,
60649310,0.429,-0.345,1.352,-87.797,5.512,-38.902,
60649320,0.947,-0.511,1.312,-94.745,28.91,-78.68,
60649330,0.133,-0.818,1.298,-116.322,54.687,-117.46,
60649340,0.652,-1.699,1.139,-143.727,115.255,-127.277,
60649350,0.404,-1.998,0.773,-112.612,162.207,-142.345,
60649360,-0.997,-1.998,-0.167,-69.16,98.665,-182.437,
60649370,-0.235,-1.661,-0.293,-45.867,43.487,-194.092,
60649380,-0.345,-1.744,0.078,-100.52,29.61,-132.982,
60649390,-0.346,-1.702,0.256,-116.41,-4.182,-91.297,
60649400,-0.382,-0.873,0.193,-94.115,-36.102,-59.85,
60649410,-0.472,-0.325,0.371,-97.65,-42.245,0.315,
60649420,-0.349,-0.081,0.536,-107.117,-35.542,71.592,
60649420,0.145,0.437,0.37,-88.637,-26.862,135.782,
60649440,0.686,1.066,0.04,-73.482,-13.545,165.357,
60649440,0.987,1.614,-0.351,-68.127,2.782,161.542,
60649460,1.274,1.997,-0.53,-73.255,17.22,115.92,
60649460,1.56,1.524,0.764,-73.762,52.552,66.115,
60649480,-0.918,0.665,0.767,103.162,57.26,56.035,
60649480,-1.179,-0.827,1.209,401.607,10.85,59.85,
60649500,-0.16,-1.141,1.87,255.307,-109.06,-14.35,
60649500,-0.064,1.733,1.181,299.337,-119.665,-129.762,
60649510,0.171,-0.117,1.817,182.612,-153.755,-153.65,
60649520,1.446,0.703,1.436,116.322,-160.895,-152.337,
60649530,1.722,0.585,1.119,16.03,-79.905,-88.602,
60649540,1.159,0.257,1.213,-51.17,20.772,-15.207,
60649550,0.582,0.119,1.353,-111.002,82.022,42.297,
60649560,0.252,0.156,1.219,-159.932,94.307,71.697,
60649570,0.036,-0.342,0.833,-175.577,85.365,67.48,
60649580,-0.201,-0.719,0.599,-151.305,72.117,41.212,
60649590,-0.27,-0.772,0.469,-105.892,58.152,8.522,
60649600,-0.229,-0.877,0.479,-56.297,37.555,-22.837,
60649610,-0.13,-0.827,0.515,-10.115,21.56,-46.865,
60649620,-0.163,-0.765,0.585,33.057,4.112,-65.957,
60649630,-0.087,-0.568,0.721,76.965,-14.735,-82.88,
60649640,0.097,-0.342,0.931,104.965,-37.222,-90.877,
60649650,0.253,-0.026,1.091,110.057,-49.192,-86.502,
60649660,0.319,0.065,1.185,94.342,-54.53,-77.297,
60649670,0.482,0.114,1.228,64.505,-50.19,-66.745,
60649680,0.632,0.103,1.185,25.042,-34.597,-47.215,
60649690,0.585,-0.017,1.097,-13.685,-8.61,-19.092,
60649700,0.456,-0.098,1.092,-42.017,12.407,5.442,
60649710,0.312,-0.1,1.124,-64.47,25.725,19.022,
60649720,0.33,-0.11,1.2,-87.937,34.562,20.212,
60649730,0.322,-0.07,1.264,-114.45,50.96,12.932,
60649740,0.311,-0.023,1.293,-146.492,71.365,4.882,
60649750,0.248,-0.026,1.213,-182.49,91.49,-2.205,
60649760,0.352,-0.086,1.154,-224.07,110.985,-8.925,
60649760,0.495,-0.193,1.168,-265.09,133.052,-10.15,
60649780,0.891,-0.521,1.32,-306.127,175.14,-1.557,
60649780,1.266,-1.474,1.373,-336.717,291.077,6.597,
60649800,0.904,-1.998,1.162,-313.617,443.572,-3.797,
60649800,-0.573,-1.998,0.804,-238.805,478.135,-48.702,
60649820,-0.512,-1.998,-0.106,-138.81,376.915,-124.46,
60649820,-1.035,-1.747,-0.27,-101.342,268.59,-144.935,
60649830,-1.028,-0.718,0.197,-133.927,139.072,-137.217,
60649840,-0.341,-0.197,0.552,-148.452,49.35,-75.705,
60649850,-0.071,0.394,0.937,-137.077,-18.095,-28.297,
60649860,-0.116,1.02,1.121,-118.002,-73.342,9.52,
60649870,-0.005,1.447,1.132,-99.732,-124.232,52.08,
60649880,0.275,1.352,1.174,-82.862,-171.797,81.042,
60649890,0.33,0.959,1.09,-50.697,-205.327,84.577,
60649900,0.272,0.591,0.839,12.442,-218.487,74.69,
60649910,0.144,0.291,0.427,81.585,-206.377,63.367,
60649920,-0.009,-0.494,-0.048,135.082,-179.287,60.042,
60649930,-0.035,0.706,-0.579,171.22,-143.447,48.877,
60649940,-0.578,0.069,-0.928,153.877,-115.937,110.582,
60649950,-0.406,-0.595,-1.079,86.1,-106.137,148.61,
60649960,0.159,-0.386,-1.019,38.395,-108.167,137.62,
60649970,0.422,-0.579,-0.879,-4.165,-87.797,134.575,
60649980,0.686,-1.021,-0.663,-39.707,-51.677,117.337,
60649990,0.286,-1.613,-1.035,-28.577,-21.192,68.862,
60650000,-1.998,-1.998,1.854,-22.942,-108.587,48.142,
60650010,-0.099,-1.998,0.071,238.42,-70.98,179.532,
60650020,-0.095,0.017,-0.753,549.797,-18.725,49.437,
60650030,-1.441,1.966,1.555,430.062,-127.33,-93.677,
60650040,1.375,-0.114,1.31,236.32,-23.852,13.422,
60650050,-1.678,-0.076,0.869,322.752,-79.117,-101.78,
60650060,-1.589,0.608,0.918,321.387,-225.312,-187.512,
60650070,0.662,-0.436,1.767,230.947,-340.725,-229.425,
60650080,1.084,-0.301,1.363,187.25,-350.752,-257.425,
60650090,1.998,0.824,1.275,113.242,-253.137,-190.295,
60650100,1.986,1.066,1.26,20.265,-90.65,-45.78,
60650110,1.034,0.33,1.28,-72.537,38.535,76.842,
60650120,0.169,-0.447,0.972,-119.91,80.64,122.5,
60650130,-0.248,-0.482,0.591,-103.932,68.757,109.042,
60650140,-0.384,-0.838,0.624,-67.095,45.045,72.502,
60650150,-0.391,-0.486,0.75,-19.215,18.357,17.255,
60650160,-0.172,-0.542,0.778,10.185,-5.915,-28.455,
60650170,0.166,-0.407,0.915,31.832,-25.34,-57.12,
60650170,0.511,-0.178,0.968,40.18,-30.047,-61.495,
60650190,0.485,-0.215,0.975,33.74,-19.88,-45.15,
60650190,0.376,-0.061,1.108,23.17,-6.895,-29.837,
60650210,0.446,-0.003,1.233,-1.137,-0.297,-20.125,
60650210,0.463,0.101,1.299,-40.337,9.66,-5.81,
60650220,0.336,-0.001,1.328,-85.137,14.472,16.922,
60650230,0.16,-0.062,1.336,-122.5,3.71,40.53,
60650240,-0.08,-0.027,1.4,-155.785,-22.365,53.217,
60650250,-0.247,0.017,1.407,-194.022,-48.545,53.305,
60650260,-0.116,-0.042,1.386,-240.117,-67.882,40.845,
60650270,0.241,-0.055,1.284,-292.18,-55.86,14.7,
60650280,0.735,-0.249,1.399,-368.795,2.362,-19.915,
60650290,1.211,-1.389,1.917,-443.992,153.597,-41.86,
60650300,1.429,-1.974,1.74,-417.865,357.997,-53.165,
60650310,0.525,-0.726,0.977,-319.672,448.297,-64.05,
60650320,0.951,-0.798,1.003,-297.517,372.242,-100.17,
60650330,0.763,-1.313,1.198,-270.69,234.517,-65.327,
60650340,0.393,-0.849,1.023,-175.507,52.15,-65.327,
60650350,0.319,-0.555,0.91,-93.835,-86.397,-51.59,
60650360,0.398,-0.05,0.91,-14.542,-141.365,-40.565,
60650370,-0.037,0.51,0.58,49.542,-123.462,-29.032,
60650380,-0.348,0.882,0.264,67.042,-87.99,-5.232,
60650390,-0.337,0.85,0.176,52.727,-44.52,28.385,
60650400,-0.297,0.623,0.259,28.437,-17.272,46.025,
60650410,0.037,0.185,0.275,7.157,-7.035,48.177,
60650420,0.243,-0.236,0.186,12.915,6.615,30.257,
60650430,0.088,-0.459,0.042,38.097,30.817,-1.907,
60650440,-0.24,-0.568,-0.193,62.877,49.612,-28.42,
60650450,-0.498,-0.649,-0.55,79.852,63.822,-36.855,
60650460,-0.663,-0.74,-0.883,87.675,78.697,-31.185,
60650470,-0.64,-0.828,-1.138,84.262,88.025,-12.075,
60650480,-0.612,-0.938,-1.364,69.457,87.395,18.742,
60650490,-0.481,-0.944,-1.421,40.005,61.915,45.815,
60650500,-0.08,-1.051,-1.408,-2.275,22.487,70.787,
60650510,0.323,-1.065,-1.333,-26.967,-2.38,82.005,
60650510,0.437,-1.21,-1.186,-37.817,-3.027,78.137,
60650530,-0.154,-1.266,-0.537,-64.645,-4.707,53.322,
60650530,-0.383,-1.998,1.998,-1.75,-96.705,17.412,
60650550,-0.557,-1.998,1.998,282.415,-282.17,-40.337,
60650550,1.56,-1.83,1.894,501.147,-285.005,-12.757,
60650570,0.828,0.592,1.04,560.647,-122.587,-2.852,
60650570,-1.355,1.431,1.135,473.48,-90.282,-42.14,
60650580,0.016,0.08,1.089,401.292,-92.277,-28.752,
60650590,-1.318,0.282,1.594,384.072,-103.425,-74.725,
60650600,0.251,0.589,1.977,310.66,-186.725,-112.42,
60650610,1.527,0.498,1.7,207.27,-198.52,-125.02,
60650620,1.97,1.078,1.119,57.417,-123.322,-80.552,
60650630,1.322,0.409,1.296,-54.197,-25.532,6.405,
60650640,0.664,-0.089,1.793,-137.427,24.99,75.88,
60650650,0.198,0.56,1.521,-212.817,18.952,106.207,
60650660,0.016,0.042,0.981,-254.292,-18.497,89.985,
60650670,-0.105,-0.158,0.487,-238.087,-23.187,63.21,
60650680,-0.015,-1.086,0.229,-214.672,-5.302,39.847,
60650690,0.268,-1.122,-0.038,-123.62,11.042,6.072,
60650700,0.303,-1.273,0.158,-60.55,25.55,0.315,
60650710,0.18,-0.837,0.333,2.975,25.287,0.822,
60650720,-0.011,-0.586,0.687,49.227,28.07,-4.602,
60650730,-0.116,-0.386,0.984,70.542,27.807,-20.947,
60650740,0.039,-0.197,1.201,66.552,15.715,-44.485,
60650750,0.246,-0.111,1.23,42.7,5.127,-56.822,
60650760,0.449,-0.133,1.271,11.357,-4.305,-52.937,
60650770,0.505,-0.078,1.187,-19.39,-10.71,-39.427,
60650780,0.524,-0.142,1.075,-45.36,-20.562,-12.722,
60650790,0.358,-0.299,1.027,-64.207,-27.02,11.97,
60650800,0.226,-0.308,1.013,-75.775,-35.28,20.912,
60650810,0.174,-0.344,1.034,-89.565,-39.007,21.717,
60650820,0.11,-0.357,1.078,-109.252,-37.24,12.215,
60650830,0.117,-0.303,1.137,-132.107,-28.63,-2.327,
60650840,0.086,-0.33,1.148,-157.885,-18.147,-17.272,
60650850,0.185,-0.415,1.116,-184.52,0.175,-31.727,
60650860,0.434,-0.485,1.084,-209.037,42.402,-44.835,
60650870,0.269,-0.744,1.38,-242.427,107.135,-63.21,
60650880,0.255,-0.812,1.308,-263.602,177.555,-82.565,
60650890,0.191,-1.149,1.176,-282.782,251.842,-91.682,
60650900,-0.247,-1.145,0.92,-277.567,327.11,-115.36,
60650910,0.201,-1.323,0.557,-278.39,367.377,-168.787,
60650910,0.375,-1.886,0.265,-253.137,396.217,-196.052,
60650920,-1.666,-1.554,-0.328,-185.552,385.297,-193.952,
60650930,-1.336,-1.101,0.096,-177.695,335.79,-177.415,
60650940,-1.122,-0.901,0.525,-141.102,305.007,-85.645,
60650950,-1.093,-0.453,0.63,-88.392,263.917,-20.02,
60650960,-0.876,0.291,0.877,-47.162,210.927,25.602,
60650970,-0.155,0.563,0.957,-17.237,168.577,77,
60650980,0.48,0.699,0.835,32.095,138.862,104.597,
60650990,0.743,0.587,0.652,79.625,120.662,113.085,
60651000,0.788,0.353,0.418,114.117,99.907,95.322,
60651010,0.524,0.266,0.022,135.52,58.467,69.23,
60651020,0.561,0.171,-0.45,132.632,8.732,64.96,
60651030,0.602,-0.064,-0.595,109.9,-25.077,71.96,
60651040,0.434,-0.262,-0.575,66.587,-56.245,66.167,
60651050,0.287,-0.445,-0.392,25.322,-77.28,61.67,
60651060,0.141,-0.83,-0.496,12.705,-90.055,70.21,
60651070,0.403,-1.979,0.618,37.73,-116.322,55.755,
60651080,0.996,-1.998,1.704,103.88,-157.902,28.805,
60651090,1.606,-1.998,0.739,257.022,-160.877,7.175,
60651100,-0.901,0.624,-0.581,448.455,-111.002,-47.6,
60651110,-0.71,1.921,1.555,342.702,-153.562,-85.96,
60651120,-0.366,-0.422,0.417,245.577,-116.707,18.917,
60651130,-1.206,-0.3,1.164,255.535,-185.955,-44.1,
60651140,-0.324,0.327,1.215,278.687,-208.46,-109.795,
60651150,0,0.181,1.417,228.252,-228.357,-178.237,
60651160,0.722,-0.461,1.451,172.305,-239.627,-204.925,
60651170,1.954,0.206,1.288,121.205,-208.11,-174.702,
60651180,1.845,0.244,1.369,63.63,-111.125,-79.415,
60651190,1.347,0.343,1.481,-14.175,-14.717,25.83,
60651200,0.58,0.313,1.331,-98.612,42.385,87.762,
60651210,-0.105,-0.258,0.78,-136.727,54.25,93.012,
60651220,-0.365,-1.027,0.304,-107.065,40.652,64.295,
60651230,-0.472,-0.897,0.401,-37.31,23.537,19.74,
60651240,-0.16,-0.525,0.751,15.627,2.887,-15.4,
60651250,-0.226,-0.436,0.826,39.34,-16.695,-41.632,
60651260,0.14,-0.401,0.897,57.487,-33.6,-70.122,
60651260,0.404,-0.249,0.976,66.412,-34.58,-81.007,
60651280,0.429,-0.226,0.958,61.915,-29.137,-68.915,
60651280,0.434,-0.078,1.09,53.2,-23.957,-51.222,
60651300,0.483,0,1.168,29.435,-15.015,-34.737,
60651300,0.429,-0.007,1.15,-5.057,-3.64,-17.885,
60651320,0.406,-0.075,1.045,-33.95,8.505,-7.332,
60651320,0.282,-0.265,0.986,-50.435,17.832,4.427,
60651330,0.17,-0.37,0.9,-52.307,18.077,9.765,
60651340,0.154,-0.368,0.891,-44.467,11.252,7.875,
60651350,0.172,-0.356,0.945,-38.622,7.77,5.355,
60651360,0.255,-0.307,1.025,-40.005,3.272,4.025,
60651370,0.344,-0.207,1.127,-52.517,5.197,7.087,
60651380,0.404,-0.143,1.197,-75.25,10.447,12.442,
60651390,0.377,-0.143,1.218,-106.295,24.692,17.815,
60651400,0.288,-0.146,1.258,-142.45,40.477,14.56,
60651410,0.407,-0.03,1.24,-181.422,62.702,0.28,
60651420,0.845,0.164,1.215,-227.745,107.31,-14.77,
60651430,1.402,-0.067,1.33,-287.752,194.267,-20.492,
60651440,1.7,-0.859,1.259,-331.852,347.795,-21.42,
60651450,0.781,-1.809,0.935,-336.42,524.597,-23.467,
60651460,0.572,-1.998,0.935,-318.412,573.212,-42.647,
60651470,0.861,-1.998,0.721,-239.557,572.215,-118.37,
60651480,1.938,-1.998,0.323,-115.832,571.34,-184.975,
60651490,0.623,-1.819,0.042,32.655,513.082,-255.85,
60651500,-1.022,-1.504,0.279,76.527,300.107,-332.202,
60651510,-1.594,-0.585,0.228,96.547,46.655,-357.945,
60651520,-0.996,0.515,0.13,98.822,-133.385,-320.39,
60651530,-1.211,0.768,-0.218,28.822,-191.817,-238.962,
60651540,-1.441,0.998,-0.444,-17.43,-182,-158.392,
60651550,-1.489,1.106,-0.208,-51.362,-132.72,-55.562,
60651560,-1.547,0.602,0.214,-107.257,-86.292,70.437,
60651570,-1.029,-0.072,0.492,-131.11,-86.362,175.577,
60651580,-0.272,-0.514,0.467,-94.587,-126.315,226.765,
60651580,0.426,-0.656,0.164,-39.707,-170.66,225.732,
60651600,0.966,-0.796,-0.305,16.905,-197.627,210.77,
60651600,1.421,-0.714,-0.733,64.19,-199.447,180.302,
60651620,1.483,-0.725,-0.914,72.327,-174.422,133.805,
60651620,1.16,-0.817,-0.824,50.995,-139.387,79.572,
60651640,0.612,-0.907,-0.663,31.482,-117.197,30.975,
60651640,0.028,-1.037,-0.487,16.03,-119.385,4.27,
60651660,-0.219,-0.542,-0.712,-13.212,-144.585,-9.432,
60651660,-1.595,-1.387,0.823,16.94,-165.305,90.44,
60651670,-1.998,-1.998,1.998,19.162,-220.832,141.767,
60651680,0.465,-1.413,1.115,371.84,-307.562,262.377,
60651690,1.998,-0.133,1.848,417.62,-82.652,305.602,
60651700,-0.508,-0.422,1.848,372.242,153.51,275.712,
60651710,-1.998,-1.094,-0.307,326.795,29.89,256.76,
60651720,-0.222,1.538,1.537,309.12,-189.997,234.657,
60651730,-0.442,1.457,1.414,243.565,-248.185,146.982,
60651740,-1.21,0.208,1.522,197.96,-278.827,20.632,
60651750,-0.446,-0.237,1.452,177.975,-271.25,-111.527,
60651760,0.542,0.063,1.375,152.32,-244.195,-225.295,
60651770,1.534,-0.347,1.247,100.415,-199.115,-235.952,
60651780,1.603,-0.135,0.74,79.24,-131.232,-160.562,
60651790,0.874,-0.723,0.594,91.28,-75.04,-69.282,
60651800,0.239,-0.417,0.927,128.835,-46.392,-14.367,
60651810,-0.144,0.071,1.329,134.487,-45.762,-4.41,
60651820,0.091,0.393,1.277,88.935,-56.297,-16.782,
60651830,0.351,0.055,1.017,26.092,-58.625,-35.122,
60651840,0.829,-0.095,0.87,-1.68,-51.555,-43.732,
60651850,0.799,-0.184,0.82,-8.715,-16.222,-25.165,
60651860,0.534,-0.15,0.905,-6.037,17.43,0.42,
60651870,0.047,-0.13,1.024,-7.98,34.23,12.967,
60651880,0.003,-0.161,1.026,-15.207,20.93,1.452,
60651890,0.255,-0.165,0.975,-20.597,7.577,-14.227,
60651900,0.37,-0.182,0.95,-24.64,6.282,-16.047,
60651910,0.36,-0.205,0.931,-25.865,14.857,-8.382,
60651920,0.251,-0.264,0.946,-25.865,19.512,0.367,
60651930,0.222,-0.192,0.99,-26.162,20.597,6.16,
60651940,0.211,-0.125,1.045,-31.08,18.935,7.402,
60651950,0.246,-0.092,1.123,-43.312,19.985,5.512,
60651960,0.327,-0.058,1.227,-66.727,21.7,4.707,
60651970,0.377,-0.206,1.359,-103.897,26.302,10.027,
60651980,0.391,0.332,1.462,-142.782,37.1,10.675,
60651990,0.453,0.04,1.49,-203.84,47.862,26.53,
60652000,0.452,0.159,1.407,-257.355,62.912,20.562,
60652010,0.572,0.273,1.27,-308.332,94.99,9.572,
60652010,0.765,-0.065,1.155,-362.53,143.675,4.812,
60652030,1.372,-0.896,1.493,-414.82,245.07,3.027,
60652030,1.258,-1.992,1.956,-423.412,455,22.347,
60652050,0.676,-1.998,1.209,-337.05,561.015,-25.287,
60652050,1.204,-1.998,0.419,-192.447,568.312,-140.192,
60652070,0.923,-1.998,0.535,-55.842,501.445,-211.312,
60652070,-1.38,-1.945,0.435,64.627,335.79,-262.762,
60652080,-1.346,-0.83,-0.108,138.285,79.957,-262.377,
60652090,-0.915,-0.197,-0.306,117.057,-117.197,-177.065,
60652100,-0.664,-0.356,-0.611,49.945,-208.792,-85.452,
60652110,-0.526,-0.17,-1.009,20.002,-227.972,-24.552,
60652120,-0.612,0.222,-1.167,-7.017,-203.122,14.21,
60652130,-0.761,0.417,-0.951,-62.247,-149.467,63.752,
60652140,-0.853,0.2,-0.482,-129.29,-99.382,134.067,
60652150,-0.701,-0.065,-0.017,-165.725,-73.762,204.487,
60652160,-0.405,-0.313,0.28,-166.355,-84.437,251.457,
60652170,-0.084,-0.363,0.348,-145.215,-111.247,273.892,
60652180,0.217,-0.324,0.31,-114.712,-137.34,286.177,
60652190,0.502,-0.316,0.178,-87.08,-145.005,287.192,
60652200,0.788,-0.297,-0.014,-63.175,-133.21,273.577,
60652210,0.867,-0.247,-0.152,-47.39,-103.845,246.75,
60652220,0.821,-0.157,-0.183,-45.902,-74.637,206.482,
60652230,0.593,-0.185,-0.133,-58.712,-54.04,160.317,
60652240,0.384,-0.188,0.01,-78.872,-54.6,108.132,
60652250,0.185,-0.229,0.122,-91.84,-65.24,64.242,
60652260,0.173,-0.207,0.223,-92.627,-70.472,33.372,
60652270,0.127,-0.356,0.039,-95.27,-55.405,15.995,
60652280,-0.08,-0.314,0.243,-43.645,-25.917,26.022,
60652290,-0.714,-0.824,0.434,102.497,1.417,106.12,
60652300,-1.453,-1.849,1.998,14.63,-93.765,86.187,
60652310,0.448,-1.998,1.998,214.865,-94.167,179.987,
60652320,0.82,-1.998,0.28,442.715,-9.047,198.345,
60652330,0.5,-0.531,-1.118,491.505,14.665,204.137,
60652330,-1.984,1.997,0.708,370.475,-219.38,84.157,
60652350,0.414,0.505,1.027,213.447,-208.95,144.305,
60652350,-1.144,1.469,1.669,208.95,-297.272,93.17,
60652370,-1.565,1.562,1.186,172.427,-369.757,-52.412,
60652370,0.918,-1.461,1.852,72.817,-337.312,-157.272,
60652390,0.013,-0.631,1.052,113.995,-208.372,-254.292,
60652390,0.963,-0.56,1.042,74.777,-149.397,-250.757,
60652410,1.515,0.268,1.123,43.61,-117.722,-198.73,
60652410,1.305,-0.172,1.109,5.057,-79.17,-98.21,
60652420,1.044,-0.127,0.898,-8.452,-36.96,-17.64,
60652430,0.413,-0.364,0.959,-15.645,2.957,35.805,
60652440,0.1,-0.299,1.084,-24.902,13.317,51.502,
60652450,-0.001,-0.289,1.045,-41.93,12.32,46.34,
60652460,0.003,-0.434,0.918,-52.167,12.232,34.002,
60652470,0.028,-0.472,0.885,-50.102,13.737,20.58,
60652480,0.098,-0.469,0.914,-46.34,12.372,11.742,
60652490,0.186,-0.401,0.947,-47.897,13.825,9.45,
60652500,0.229,-0.426,0.929,-53.952,14.49,13.09,
60652510,0.129,-0.418,0.952,-59.955,19.495,16.852,
60652520,0.095,-0.417,0.975,-66.202,20.475,15.802,
60652530,0.073,-0.391,0.977,-75.127,23.502,12.32,
60652540,0.063,-0.403,0.993,-85.155,24.482,6.562,
60652550,0.076,-0.418,0.984,-98.07,30.397,-1.662,
60652560,0.095,-0.407,1.002,-112.91,37.817,-10.447,
60652570,0.117,-0.395,0.961,-132.58,53.882,-19.39,
60652580,0.062,-0.463,0.931,-159.53,73.727,-32.672,
60652590,0.108,-0.545,0.908,-191.17,107.345,-45.99,
60652600,0.094,-0.576,0.961,-223.755,153.265,-60.235,
60652610,0.168,-0.732,0.944,-260.54,204.19,-78.785,
60652620,0.463,-1.328,0.871,-287.56,275.45,-88.322,
60652630,0.512,-1.987,0.879,-291.305,383.687,-75.757,
60652640,0.588,-1.994,1.29,-267.995,473.917,-108.535,
60652650,0.813,-1.998,0.437,-230.335,535.57,-155.785,
60652660,0.874,-1.998,0.392,-165.567,524.807,-207.69,
60652670,1.255,-1.998,1.347,-152.495,451.745,-297.29,
60652680,0.15,-1.546,1.524,-102.27,306.32,-364.122,
60652690,-0.998,-0.231,1.47,5.477,95.427,-402.027,
60652700,-1.268,0.932,1.21,58.257,-97.965,-351.102,
60652710,-1.326,1.582,0.993,63.227,-212.73,-247.152,
60652720,-1.392,1.916,1.019,45.272,-279.317,-152.495,
60652730,-1.323,1.564,1.065,26.722,-299.267,-49.367,
60652740,-0.91,0.311,0.854,42.227,-276.657,14.945,
60652750,-0.987,1.023,1.474,71.82,-213.115,22.872,
60652760,-1.107,-0.136,1.271,191.817,-195.335,168.647,
60652760,-0.82,0.154,1.022,254.852,-203.07,244.265,
60652780,-0.94,-0.412,0.637,313.145,-236.95,358.207,
60652780,-0.581,-1.263,0.001,337.207,-246.452,389.917,
60652800,0.118,-1.189,-0.33,308.315,-207.41,306.792,
60652800,0.264,-0.603,-0.619,297.815,-158.077,246.05,
60652820,0.252,-0.427,-0.904,288.557,-97.702,258.842,
60652820,0.296,-0.509,-0.928,241.132,-58.502,258.142,
60652830,0.398,-0.542,-0.775,161.665,-65.257,209.37,
60652840,0.645,-0.732,-0.463,88.375,-98.332,151.725,
60652850,0.927,-0.924,-0.203,38.797,-114.695,93.782,
60652860,0.809,-0.903,-0.23,18.97,-106.4,46.235,
60652870,0.133,-1.477,-1.082,-8.68,-83.807,11.97,
60652880,-1.787,-1.998,1.06,94.167,100.432,226.537,
60652890,0.764,-1.405,-0.531,429.537,53.025,258.422,
60652900,-1.934,1.997,1.42,396.042,-153.982,-96.88,
60652910,-1.018,1.109,0.331,170.047,-171.342,135.695,
60652920,0.385,-0.418,1.554,96.547,-233.082,60.095,
60652930,-1.089,0.48,1.626,157.15,-184.152,-118.335,
60652940,0.587,-0.481,1.665,53.637,-171.255,-154.332,
60652950,0.82,-0.115,1.509,-23.642,-143.867,-194.127,
60652960,1.831,0.515,1.382,-124.915,-83.615,-154.332,
60652970,1.26,0.1,1.118,-201.25,-15.61,-74.06,
60652980,0.925,-0.234,0.775,-224.21,5.915,11.935,
60652990,0.648,-0.578,0.239,-190.767,5.775,76.16,
60653000,0.183,-1.126,0.158,-138.18,13.037,105.647,
60653010,-0.099,-1.032,0.22,-67.76,19.915,92.872,
60653020,-0.327,-0.829,0.456,-7.35,19.74,68.687,
60653030,-0.479,-0.952,0.58,32.427,14.84,38.78,
60653040,-0.354,-0.607,0.725,64.207,5.565,-3.22,
60653050,-0.175,-0.486,0.94,77.962,-6.58,-34.422,
60653060,-0.003,-0.33,1.05,74.217,-17.255,-55.492,
60653070,0.159,-0.328,0.977,61.355,-22.767,-65.187,
60653080,0.514,-0.232,1.08,50.925,-22.4,-65.222,
60653080,0.655,-0.221,1.116,29.907,-14.245,-47.582,
60653100,0.687,-0.321,1.049,2.66,-2.607,-15.12,
60653100,0.444,-0.288,0.945,-13.93,11.025,12.53,
60653120,0.303,-0.363,1.019,-27.755,22.137,35.455,
60653120,0.198,-0.33,1.049,-40.512,23.38,44.275,
60653140,0.21,-0.338,1.063,-56.507,20.772,47.215,
60653140,0.197,-0.328,1.074,-74.672,22.242,46.935,
60653160,0.198,-0.371,1.083,-95.165,27.23,47.95,
60653160,0.254,-0.407,1.087,-114.695,34.825,49.525,
60653170,0.333,-0.41,1.128,-136.255,49.315,54.267,
60653180,0.353,-0.485,1.292,-163.712,66.92,62.265,
60653190,0.742,-0.619,1.589,-195.947,97.475,72.047,
60653200,1.002,-0.983,1.211,-226.03,160.422,72.8,
60653210,0.728,-1.37,1.381,-248.377,257.442,73.342,
60653220,1.014,-1.543,1.139,-250.337,352.8,40.652,
60653230,0.402,-1.718,0.364,-235.497,377.51,22.12,
60653240,-0.256,-1.759,0.119,-242.375,343.612,1.26,
60653250,-0.123,-1.469,0.978,-264.372,274.54,-2.887,
60653260,-0.062,-0.611,1.32,-238.332,182.927,15.347,
60653270,-0.128,0.668,1.762,-183.12,23.712,7.77,
60653280,0.039,1.437,1.998,-171.815,-169.155,13.09,
60653290,1.148,1.517,1.998,-128.677,-297.762,60.165,
60653300,1.962,1.625,1.88,-11.532,-324.695,54.46,
60653310,1.628,1.443,1.665,103.757,-291.882,-2.485,
60653320,1.137,0.796,1.383,180.425,-232.47,-42.577,
60653330,0.831,0.066,0.9,223.37,-178.622,-100.8,
60653340,0.189,-0.486,0.225,256.322,-129.08,-168.77,
60653350,-0.578,-0.61,-0.398,267.925,-81.375,-207.917,
60653360,-1.268,-0.538,-0.781,234.272,-62.877,-201.11,
60653370,-1.207,-0.432,-0.762,166.285,-46.515,-153.912,
60653380,-0.99,-0.712,-0.504,109.917,-25.41,-66.377,
60653390,-0.925,-1.096,-0.361,77.945,-12.565,26.582,
60653400,-0.659,-1.447,-0.335,72.275,-23.625,81.427,
60653410,-0.339,-1.575,-0.553,85.592,-56.77,106.907,
60653420,0.28,-1.488,-1.083,106.12,-85.995,100.397,
60653430,0.473,-1.626,-1.577,120.977,-76.247,95.077,
60653440,-1.998,-1.998,0.619,68.18,-192.745,105.35,
60653450,0.196,-1.998,1.998,107.642,-181.405,254.87,
60653460,1.339,-1.942,-1.224,499.03,144.165,401.695,
60653470,-1.952,1.399,0.693,461.807,-6.492,208.635,
60653480,-1.301,1.906,0.224,354.532,-56.665,136.5,
60653490,-0.381,0.698,1.758,263.777,-199.832,164.85,
60653500,-1.535,0.226,1.598,330.032,-235.095,-41.562,
60653510,-0.472,-0.834,0.738,249.497,-160.807,-224.21,
60653510,1.574,-0.336,1.814,220.185,-276.99,-242.917,
60653530,1.998,1.34,0.92,108.5,-247.817,-189.017,
60653530,1.867,0.753,0.994,-1.102,-47.145,-25.2,
60653550,0.272,0.257,1.45,-84.822,77.175,95.305,
60653550,-0.372,-0.23,1.047,-141.575,72.555,112.91,
60653570,-0.298,-0.791,0.612,-125.142,17.937,80.115,
60653570,-0.26,-0.841,0.627,-65.275,-17.657,32.917,
60653580,-0.049,-0.432,0.869,-25.497,-23.607,-12.617,
60653590,0.262,-0.369,0.836,-11.672,-35.105,-38.097,
60653600,0.529,-0.309,0.834,-0.91,-26.022,-40.145,
60653610,0.522,-0.322,0.853,4.602,-6.597,-22.277,
60653620,0.427,-0.255,0.908,7.122,6.86,-0.105,
60653630,0.128,-0.132,1.091,3.622,18.025,6.807,
60653640,0.165,-0.097,1.196,-15.645,11.917,-4.427,
60653650,0.338,-0.018,1.116,-42.84,13.107,-17.64,
60653660,0.445,-0.159,1.036,-67.077,26.32,-18.41,
60653670,0.515,-0.204,1.005,-78.82,42.332,-15.995,
60653680,0.534,-0.226,1.014,-88.305,55.457,-7.315,
60653690,0.499,-0.28,1.09,-101.622,67.97,9.082,
60653700,0.325,-0.265,1.176,-122.132,72.135,26.547,
60653710,0.024,-0.252,1.213,-150.482,71.82,38.552,
60653720,-0.192,-0.132,1.279,-182.875,64.522,32.917,
60653730,-0.236,0.006,1.272,-217.087,69.212,12.25,
60653740,-0.04,-0.131,1.205,-268.1,101.482,-18.707,
60653750,0.514,-0.658,1.393,-324.555,176.05,-54.18,
60653760,0.936,-1.487,1.43,-346.15,326.2,-78.365,
60653770,0.699,-1.998,1.666,-340.13,477.47,-86.275,
60653780,0.217,-1.998,1.371,-264.46,510.51,-117.337,
60653790,0.341,-1.991,0.324,-131.582,479.552,-151.655,
60653800,-0.157,-1.998,0.282,-25.48,360.202,-142.887,
60653810,-1.936,-1.563,0.475,-1.575,130.83,-148.12,
60653820,-1.361,-0.46,0.234,33.53,-137.9,-133.035,
60653830,-0.232,0.126,0.213,37.835,-271.32,-35.612,
60653830,0.008,0.059,0.053,-1.802,-293.65,36.26,
60653850,0.11,0.186,0.01,-1.592,-265.387,65.065,
60653850,-0.044,0.465,0.035,19.477,-235.077,74.69,
60653870,-0.193,0.664,0.095,22.12,-226.275,84.525,
60653870,-0.152,0.684,0.149,13.615,-235.445,106.155,
60653890,-0.02,0.592,0.209,4.235,-255.15,126.525,
60653890,0.196,0.497,0.18,2.222,-269.395,138.267,
60653910,0.3,0.47,0.141,5.95,-259.875,147.647,
60653910,0.241,0.403,0.017,6.37,-238.997,153.055,
60653920,0.129,0.365,-0.133,10.885,-215.442,155.452,
60653930,-0.006,0.348,-0.178,8.855,-185.622,162.137,
60653940,-0.07,0.17,-0.134,-4.935,-155.54,173.355,
60653950,-0.099,-0.098,0.147,-15.75,-126.315,185.587,
60653960,-0.001,-0.793,0.329,-14.875,-98.175,186.777,
60653970,0.278,-0.056,0.339,29.557,-73.955,100.87,
60653980,-0.015,0.517,0.184,165.287,-44.835,65.782,
60653990,-0.991,-0.979,-0.547,251.807,8.995,273.367,
60654000,-0.835,-1.789,-0.703,158.76,11.742,183.347,
60654010,-0.016,-1.998,1.879,132.405,-137.725,111.825,
60654020,1.998,-1.998,1.732,337.347,-202.912,39.952,
60654030,-0.811,-0.068,-0.959,513.467,41.44,4.847,
60654040,-1.828,1.993,1.022,526.68,11.357,-52.902,
60654050,-0.653,-0.876,1.507,365.435,-140.945,77.227,
60654060,-0.528,-0.501,1.521,396.252,-177.187,-32.2,
60654070,-0.757,0.759,1.768,415.712,-273,-161.14,
60654080,0.817,-1.554,1.945,255.587,-348.355,-169.19,
60654090,1.589,1.944,-0.628,166.022,-239.155,-148.592,
60654100,1.151,-0.036,1.146,-65.712,-5.477,36.155,
60654110,0.04,0.153,1.592,-127.47,66.377,66.027,
60654120,-0.175,-0.409,1.273,-176.242,24.797,31.762,
60654130,0.181,-0.752,0.736,-155.872,-16.887,8.207,
60654140,0.109,-0.995,0.682,-112.262,-26.057,-15.102,
60654150,0.493,-0.457,0.646,-74.83,-25.34,-17.027,
60654160,0.437,-0.342,0.658,-55.527,-5.775,-12.512,
60654170,0.422,-0.493,0.528,-24.132,10.027,-2.887,
60654180,0.232,-0.611,0.647,11.987,29.207,3.622,
60654190,0.119,-0.23,0.998,39.112,36.82,-9.975,
60654200,0.248,-0.073,1.177,34.37,24.622,-16.415,
60654210,0.389,0.012,1.137,10.64,15.715,-17.517,
60654220,0.414,-0.127,1.086,-14.7,17.85,-9.59,
60654230,0.499,-0.073,1.094,-33.845,23.572,4.55,
60654240,0.459,-0.114,1.113,-54.04,31.115,27.475,
60654250,0.258,-0.192,1.061,-72.8,32.602,46.62,
60654260,0.178,-0.27,1.008,-83.492,27.16,54.442,
60654260,0.21,-0.281,1.01,-87.937,14.052,54.302,
60654280,0.259,-0.28,1.059,-95.655,3.01,56.437,
60654280,0.267,-0.237,1.102,-106.977,-7.875,60.235,
60654300,0.318,-0.174,1.096,-124.022,-13.072,67.27,
60654300,0.234,-0.171,1.106,-145.022,-16.52,74.06,
60654320,0.335,-0.348,1.093,-166.985,-24.045,76.912,
60654320,0.358,-0.25,1.096,-186.375,-22.33,72.835,
60654330,0.419,-0.196,1.122,-207.095,-13.632,73.325,
60654340,0.704,-0.448,1.13,-234.167,1.347,73.5,
60654350,0.977,-0.908,1.441,-249.602,43.085,74.48,
60654360,0.817,-0.993,1.25,-231.402,106.505,65.467,
60654370,0.588,-0.692,1.099,-183.365,111.177,40.39,
60654380,0.633,-0.205,1.27,-148.645,71.12,7,
60654390,1.531,-0.281,0.952,-123.725,104.352,-17.622,
60654400,0.482,0.206,1.67,-65.712,51.03,-68.267,
60654410,1.859,0.681,0.839,-20.755,14.472,-137.83,
60654420,0.299,0.943,1.12,49,29.47,-167.282,
60654430,0.248,1.328,0.815,66.115,30.625,-211.557,
60654440,0.073,1.281,0.844,109.007,50.54,-162.47,
60654450,0.092,0.752,0.976,137.147,65.257,-135.17,
60654460,0.065,0.443,0.547,168.472,83.335,-115.92,
60654470,0.096,0.449,-0.321,182.577,124.197,-105.227,
60654480,0.1,0.484,-0.917,140.087,191.047,-88.847,
60654490,-0.329,-0.098,-1.545,66.482,261.782,-62.65,
60654500,-0.747,-0.708,-1.356,-0.84,308.507,-26.285,
60654510,-0.945,-1.739,-0.948,-103.985,321.947,21.192,
60654520,-1.836,-1.998,1.222,-152.145,285.127,71.505,
60654530,-0.405,-1.998,-0.327,47.267,-56.315,0.752,
60654540,-0.96,-1.998,-1.97,355.232,-334.845,-43.05,
60654550,-0.156,-1.998,1.097,192.045,-255.657,124.075,
60654560,0.056,-0.541,1.163,275.975,-148.592,116.917,
60654570,1.53,1.997,1.256,377.545,-122.937,34.475,
60654580,-1.692,-0.916,1.469,172.042,-112.577,83.737,
60654580,-0.255,-0.807,1.242,210.052,-145.04,-3.29,
60654600,-0.555,0.148,1.274,270.217,-194.04,-79.555,
60654600,0.26,-0.033,1.819,226.38,-242.952,-90.16,
60654620,1.796,0.063,1.281,180.845,-199.115,-66.29,
60654620,1.15,1.718,0.601,77.595,-90.352,-39.917,
60654640,0.967,-0.095,0.93,-38.745,-8.435,18.55,
60654640,0.297,-0.077,1.051,-65.52,24.92,19.74,
60654660,0.159,-0.136,1.043,-87.412,24.622,4.392,
60654660,0.159,-0.497,1.194,-100.082,17.832,0.665,
60654670,0.38,-0.229,1.004,-100.695,22.12,2.957,
60654680,0.157,-0.254,0.829,-101.64,19.32,12.792,
60654690,-0.112,-0.532,0.416,-68.267,3.902,16.957,
60654700,-0.02,-1.042,0.219,6.492,-16.082,-1.627,
60654710,-0.129,-1.08,0.646,87.675,-5.11,-34.597,
60654720,-0.003,-0.162,1.332,142.8,-25.795,-57.89,
60654730,0.452,0.532,1.408,120.417,-42.682,-48.895,
60654740,0.817,0.817,0.891,37.187,-35.63,-32.252,
60654750,0.46,-0.416,0.969,-22.82,-11.69,-13.86,
60654760,0.666,0.115,0.877,-16.905,0.437,-13.86,
60654770,0.242,-0.34,0.959,-28.612,23.012,5.162,
60654780,0.127,-0.311,0.959,-19.547,21.525,7.507,
60654790,0.039,-0.234,0.993,-13.597,12.04,1.312,
60654800,0.188,-0.168,1.012,-14.105,-2.257,-8.102,
60654810,0.262,-0.101,1.019,-23.485,-6.825,-12.915,
60654820,0.301,-0.132,1.041,-34.895,-10.115,-14.56,
60654830,0.165,-0.149,1.085,-42.297,-9.03,-19.092,
60654840,0.202,-0.222,1.272,-61.985,-16.257,-21.927,
60654850,0.381,-0.061,1.34,-93.852,-19.25,-31.57,
60654860,0.087,-0.062,1.523,-138.005,-3.307,-54.915,
60654870,0.142,0.036,1.334,-191.677,5.197,-63.315,
60654880,0.446,0.056,1.158,-248.885,40.005,-79.24,
60654890,0.702,-0.267,1.041,-297.535,114.257,-94.08,
60654900,0.426,-0.729,1.137,-341.88,197.382,-89.81,
60654910,1.338,-1.618,1.263,-384.93,278.092,-101.185,
60654920,0.615,-1.998,1.277,-375.742,420.472,-59.465,
60654930,0.378,-1.998,0.053,-270.497,434.087,-80.307,
60654940,-0.308,-1.998,-0.246,-133.735,296.87,-116.112,
60654950,-1.836,-1.998,-0.315,-71.575,91.14,-77.455,
60654960,-1.998,-1.667,-0.653,0.35,-105.577,-54.267,
60654970,-1.49,-0.504,-0.538,37.345,-224.525,17.237,
60654980,-0.906,-0.352,-0.585,-10.867,-250.127,136.412,
60654990,-0.68,-0.366,-0.592,-20.142,-207.9,230.492,
60655000,-0.437,-0.08,-0.434,-17.185,-161.315,276.762,
60655010,-0.1,0.266,-0.297,-39.007,-136.097,286.107,
60655010,0.234,0.48,-0.087,-77.805,-112.385,280.98,
60655030,0.374,0.532,0.37,-121.292,-91.77,258.895,
60655030,0.428,0.35,0.924,-161.35,-89.477,229.547,
60655040,0.883,-0.028,1.112,-154.245,-100.1,205.03,
60655050,1.665,0.122,0.743,-94.027,-82.635,161.91,
60655060,1.613,0.725,0.244,-47.04,-26.88,101.097,
60655070,1.379,0.87,0.166,54.95,24.412,22.855,
60655080,0.625,0.403,0.287,-27.93,61.74,5.6,
60655090,0.732,0.172,0.346,-4.025,52.675,-43.942,
60655100,-0.404,0.213,0.49,71.662,25.095,-55.457,
60655110,1.833,-1.922,1.998,111.282,0.525,-49.857,
60655120,-0.242,-1.97,-1.658,374.36,-49.56,-6.965,
60655130,-0.431,1.474,1.325,409.622,-95.445,-146.597,
60655140,1.47,1.038,0.422,331.17,-53.585,-56.192,
60655150,-1.561,-0.838,0.863,411.32,-44.415,18.305,
60655160,-0.814,0.158,0.881,411.18,-156.082,-34.51,
60655170,-0.059,0.118,1.454,433.632,-160.632,-53.777,
60655180,-0.236,0.158,1.814,376.565,-179.655,-118.352,
60655190,0.562,0.083,1.947,277.217,-219.835,-136.01,
60655200,1.864,1.556,0.951,147.14,-187.11,-108.412,
60655210,1.584,1.222,0.927,4.655,-61.932,-26.337,
60655220,0.693,0.3,1.336,-103.67,35.945,41.79,
60655230,0.177,-0.366,0.981,-162.645,57.592,58.922,
60655240,0.001,-0.661,0.571,-141.977,53.515,41.527,
60655250,-0.13,-0.904,0.688,-87.955,43.925,19.04,
60655260,-0.096,-0.65,0.617,-45.605,26.25,2.45,
60655270,-0.085,-0.691,0.699,0.91,12.162,-21.647,
60655280,0.093,-0.453,0.82,43.837,-2.59,-47.652,
60655290,0.213,-0.24,1.032,62.702,-13.51,-52.482,
60655300,0.349,0.035,1.1,53.725,-19.512,-46.182,
60655310,0.351,-0.008,1.074,30.31,-16.345,-33.442,
60655320,0.353,-0.001,1.054,7.402,-9.87,-26.95,
60655330,0.415,-0.071,1.034,-13.107,-2.467,-21.192,
60655330,0.362,-0.073,0.988,-29.172,8.312,-9.572,
60655350,0.231,-0.332,0.989,-38.22,14.577,3.167,
60655350,0.168,-0.246,0.994,-40.302,12.775,10.062,
60655370,0.287,-0.249,1.025,-45.92,6.702,14.665,
60655370,0.36,-0.161,1.086,-58.432,8.032,21.647,
60655390,0.427,-0.161,1.144,-78.067,11.76,34.09,
60655390,0.448,-0.151,1.233,-107.835,19.127,49.542,
60655410,0.504,-0.092,1.246,-146.335,26.932,61.022,
60655410,0.623,-0.147,1.269,-193.165,49.087,66.342,
60655420,0.492,-0.06,1.306,-235.55,77.21,59.01,
60655430,0.512,0.082,1.148,-268.485,105.052,50.662,
60655440,0.848,-0.187,1.056,-314.51,133.927,44.782,
60655450,1.637,-1.527,0.611,-340.217,173.512,55.37,
60655460,1.998,-1.998,0.87,-311.325,296.765,80.342,
60655470,1.435,-1.998,0.498,-213.622,396.112,-3.115,
60655480,-1.302,-1.597,-0.978,-90.02,373.362,-90.825,
60655490,-0.026,-1.896,-0.368,-134.855,270.182,-66.955,
60655500,0.062,-1.633,0.759,-125.527,109.287,-78.102,
60655510,-0.588,-0.425,0.957,-101.64,-35.63,-101.15,
60655520,-0.681,0.205,0.996,-83.895,-131.67,-49.35,
60655530,-0.045,1.173,0.807,-48.912,-184.187,6.072,
60655540,-0.06,1.665,0.82,-42.997,-188.16,48.842,
60655550,-0.303,1.766,1.059,-51.327,-170.135,76.58,
60655560,-0.446,1.666,1.218,-31.15,-176.382,87.57,
60655570,-0.458,1.419,1.136,16.572,-195.562,100.012,
60655580,-0.264,1.015,0.82,66.29,-198.17,117.337,
60655590,-0.292,0.673,0.433,97.422,-176.977,128.817,
60655600,-0.305,0.341,0.073,106.872,-152.635,135.94,
60655610,-0.322,0.086,-0.168,100.45,-133.35,139.492,
60655620,-0.372,-0.468,-0.296,83.37,-127.505,126.945,
60655630,-0.05,0.401,-0.425,57.4,-120.662,106.802,
60655640,-0.365,-1.307,-0.281,23.502,-90.947,117.197,
60655650,-0.123,-0.651,-0.328,8.102,-73.815,64.627,
60655660,-0.279,-0.842,-0.312,15.522,-44.555,48.877,
60655670,-0.334,-1.113,-0.344,21.822,-14.227,34.965,
60655680,-0.453,-1.433,0.978,45.57,8.05,10.167,
60655690,-1.243,-1.998,0.453,106.172,210.472,156.38,
60655700,-1.508,-0.745,-0.509,492.835,38.062,74.375,
60655710,-0.459,1.997,1.171,357.472,-154.42,-301.367,
60655720,-0.159,-0.416,0.444,277.742,-31.955,-37.712,
60655730,-1.59,-0.538,1.44,371.315,-100.485,-54.775,
60655730,-1.291,0.043,1.012,414.89,-242.987,-170.642,
60655750,0.568,-0.155,1.733,370.44,-319.235,-215.845,
60655750,1.795,-0.097,1.848,290.71,-310.432,-214.742,
60655760,1.94,1.757,0.733,143.64,-189.07,-148.522,
60655770,1.395,0.996,0.876,-3.342,-23.152,-16.45,
60655780,0.341,0.107,1.251,-85.732,65.31,68.53,
60655790,0.096,-0.841,0.794,-113.977,64.242,71.417,
60655800,0.019,-0.823,0.713,-73.465,48.685,39.445,
60655810,-0.033,-0.426,0.941,-32.427,40.11,17.937,
60655820,-0.122,-0.319,0.986,-20.685,19.005,-2.625,
60655830,0.061,-0.231,0.985,-15.242,-0.262,-34.055,
60655840,0.429,-0.264,0.933,-12.057,-9.677,-48.387,
60655850,0.419,-0.09,1.029,-18.76,2.887,-35.612,
60655860,0.313,-0.025,1.131,-35.332,9.59,-17.85,
60655870,0.262,-0.022,1.233,-63.42,16.222,-9.782,
60655880,0.18,-0.045,1.309,-100.537,13.702,-10.027,
60655890,0.165,0.039,1.132,-134.19,6.632,-8.522,
60655900,0.213,-0.267,1.076,-161.77,-3.132,0.472,
60655910,0.265,-0.216,1,-169.137,-9.1,4.235,
60655920,0.237,-0.225,1.011,-182.735,-7.682,11.795,
60655930,0.228,-0.311,1.022,-201.215,0.402,14.682,
60655940,0.253,-0.251,1.024,-219.94,15.662,8.47,
60655950,0.175,-0.35,0.905,-237.37,51.747,-2.205,
60655960,0.042,-0.259,0.828,-255.22,82.932,-24.5,
60655970,0.439,-0.486,0.819,-280.665,75.267,-60.602,
60655980,0.613,-1.09,0.917,-272.335,102.672,-73.622,
60655990,1.702,-1.9,1.77,-217.017,134.242,-84.892,
60656000,0.607,-1.998,1.629,-97.195,278.442,-93.275,
60656010,-1.774,-1.237,0.775,6.702,258.86,-164.867,
60656020,-0.326,-0.909,0.075,44.94,139.422,-115.552,
60656030,0.112,-0.734,-0.017,62.09,65.537,-81.095,
60656040,-0.732,-0.284,-0.09,74.532,53.76,-80.972,
60656050,-1.044,0.368,-0.046,88.2,39.427,-39.41,
60656060,-0.88,0.618,-0.038,78.662,26.057,35.945,
60656070,-0.636,0.518,0.173,60.252,20.755,114.17,
60656080,-0.589,0.258,0.263,54.547,21.84,176.627,
60656080,-0.457,0.153,0.212,58.852,6.737,215.215,
60656100,0.104,0.008,-0.033,50.54,-10.972,236.827,
60656100,0.574,-0.158,-0.167,30.852,-5.792,228.007,
60656120,0.732,-0.247,-0.096,1.312,18.672,194.267,
60656120,0.765,-0.613,-0.134,-22.54,33.442,150.587,
60656140,1.094,-0.054,0,-29.452,13.615,68.827,
60656140,1.798,-1.56,1.998,-45.412,-63.647,-27.212,
60656160,-0.208,-1.998,-0.005,112.297,-1.067,-44.537,
60656160,-1.998,0.642,0.098,295.732,-34.79,-150.22,
60656170,-0.846,1.553,0.877,228.462,-116.217,-150.85,
60656180,1.187,-0.167,1.182,238.98,-106.802,-40.075,
60656190,-1.325,-0.418,1.077,256.025,-175.507,-139.3,
60656200,0.257,-0.656,1.341,245.192,-222.46,-158.112,
60656210,1.219,0.208,1.249,214.532,-216.772,-164.885,
60656220,1.629,0.409,1.282,146.86,-155.19,-118.825,
60656230,1.364,0.477,1.256,73.85,-64.785,-47.075,
60656240,0.877,0.357,1.221,-2.8,7.297,11.147,
60656250,0.423,0.027,1.183,-66.99,52.745,45.902,
60656260,0.058,-0.257,1.057,-104.737,62.107,59.622,
60656270,-0.092,-0.31,0.822,-107.87,49.227,50.732,
60656280,-0.292,-0.776,0.704,-82.862,26.512,34.527,
60656290,-0.172,-0.605,0.655,-39.41,3.097,3.01,
60656300,0.021,-0.524,0.77,-0.735,-15.295,-20.177,
60656310,0.161,-0.405,0.866,22.907,-23.397,-34.265,
60656320,0.354,-0.284,0.934,33.232,-24.71,-36.907,
60656330,0.372,-0.199,0.993,29.4,-16.257,-25.812,
60656340,0.24,-0.233,0.991,18.532,-10.202,-14.665,
60656350,0.289,-0.127,1.102,8.61,-8.032,-11.462,
60656360,0.462,-0.009,1.155,-14.332,-4.847,-4.357,
60656370,0.435,-0.046,1.098,-48.422,5.687,16.397,
60656380,0.231,-0.24,1.037,-70.665,11.497,36.277,
60656390,0.132,-0.292,0.99,-77.297,7.525,42.577,
60656400,0.098,-0.316,1.015,-80.272,-0.665,42.402,
60656410,0.155,-0.287,1.047,-85.995,-9.73,39.952,
60656420,0.205,-0.261,1.104,-99.085,-17.08,39.987,
60656420,0.243,-0.198,1.163,-120.33,-22.855,40.95,
60656440,0.276,-0.278,1.227,-148.435,-24.36,43.05,
60656440,0.355,-0.193,1.255,-180.775,-15.89,40.932,
60656460,0.344,-0.104,1.417,-233.502,6.457,32.97,
60656460,0.499,-0.224,1.597,-299.302,47.285,19.022,
60656480,1.201,-1.021,1.85,-357.525,126.315,11.777,
60656480,0.983,-1.988,1.249,-335.772,235.777,26.477,
60656500,1.324,-1.998,1.828,-278.53,253.592,3.167,
60656500,-0.333,-1.726,0.183,-176.312,240.555,-92.47,
60656510,-1.215,-0.601,0.427,-129.29,150.587,-128.555,
60656520,-0.727,-0.876,0.726,-128.345,67.287,-43.785,
60656530,-0.823,-0.642,0.92,-66.097,5.337,18.672,
60656540,-0.664,0.118,0.785,11.655,-49.752,64.347,
60656550,-0.249,0.452,0.562,48.545,-75.792,122.902,
60656560,-0.016,0.504,0.35,60.76,-82.6,158.602,
60656570,0.057,0.445,0.238,69.02,-73.692,173.617,
60656580,0.114,0.398,0.13,72.38,-75.617,163.835,
60656590,0.24,0.331,-0.205,67.48,-85.942,136.185,
60656600,0.56,0.271,-0.464,52.57,-83.685,108.325,
60656610,0.776,0.063,-0.527,22.155,-57.102,75.792,
60656620,0.597,-0.219,-0.52,-1.312,-20.825,37.012,
60656630,0.192,-0.369,-0.4,-11.917,9.73,8.26,
60656640,-0.185,-0.499,-0.298,-20.37,11.077,-6.387,
60656650,-0.381,-0.573,-0.229,-21.227,-7.245,-7.857,
60656660,-0.375,-0.51,-0.09,-17.64,-33.302,0.052,
60656670,-0.265,-0.458,0.044,-19.46,-58.38,10.202,
60656680,0.025,-0.442,0.097,-13.702,-81.917,13.825,
60656690,0.313,-0.549,-0.121,0.052,-90.002,-6.527,
60656700,0.477,0.559,-0.065,81.637,-77.157,5.897,
60656710,0.136,-0.036,-0.17,95.095,-55.72,28.682,
60656720,0.313,-0.297,-0.397,35.21,-39.462,1.032,
60656730,-1.446,-1.685,1.115,103.302,-94.027,9.38,
60656740,1.577,-1.998,0.128,191.747,14.28,159.652,
60656750,-1.628,0.141,0.118,522.55,-62.422,-33.005,
60656760,0.274,1.997,0.456,435.977,-54.162,-154.192,
60656770,0.296,-0.909,1.434,248.115,-31.115,52.517,
60656780,-1.824,-0.79,1.197,343.577,-133.437,-66.027,
60656790,-0.609,0.817,1.031,388.692,-231.892,-162.785,
60656800,0.542,-0.585,1.832,302.085,-273.997,-191.222,
60656810,1.855,0.854,1.57,216.317,-258.317,-174.86,
60656820,1.966,1.463,1.002,70.192,-133.595,-70.665,
60656830,1.21,0.469,1.339,-54.11,-0.35,35.787,
60656830,0.521,0.11,1.166,-130.235,53.585,99.067,
60656850,-0.112,-0.713,0.801,-150.045,54.582,108.167,
60656850,-0.345,-0.647,0.721,-119.91,31.272,80.115,
60656870,-0.181,-0.553,0.716,-76.177,0,42.805,
60656870,-0.296,-0.752,0.693,-41.947,-14.315,5.11,
60656890,0.044,-0.548,0.648,0.402,-30.24,-35.875,
60656890,0.368,-0.483,0.766,34.3,-28.682,-53.83,
60656910,0.436,-0.239,0.952,47.565,-25.27,-48.58,
60656910,0.468,-0.062,1.014,40.145,-19.18,-33.792,
60656920,0.454,-0.092,1.052,24.412,-13.737,-19.705,
60656930,0.461,-0.022,1.124,2.065,-4.182,-8.487,
60656940,0.452,-0.037,1.128,-27.632,0.857,5.022,
60656950,0.385,-0.119,1.09,-54.11,6.912,17.342,
60656960,0.297,-0.231,1.099,-75.827,4.917,29.417,
60656970,0.236,-0.171,1.075,-91.805,1.452,34.177,
60656980,0.222,-0.246,1.087,-108.587,-3.5,36.54,
60656990,0.237,-0.238,1.062,-124.425,-3.027,35.455,
60657000,0.272,-0.284,1.052,-141.715,-4.672,34.212,
60657010,0.227,-0.282,0.954,-161.07,-3.01,31.237,
60657020,0.3,-0.409,0.935,-172.217,8.417,24.955,
60657030,0.292,-0.338,0.917,-170.66,47.915,20.212,
60657040,0.119,-0.113,0.841,-197.12,62.65,1.382,
60657050,0.237,-0.543,0.873,-230.947,44.94,-9.135,
60657060,0.606,-0.901,1.051,-208.635,30.8,-10.08,
60657070,1.093,-1.196,1.265,-173.005,56.49,-14.192,
60657080,0.82,-1.818,1.708,-125.387,130.567,-2.065,
60657090,0.476,-1.998,1.362,-37.012,170.52,-27.93,
60657100,-1.182,-1.489,0.647,61.162,89.25,-91.98,
60657110,-0.161,-1.068,0.171,90.562,2.31,-90.527,
60657120,0.033,-0.789,-0.335,125.3,-2.17,-51.555,
60657130,-0.413,-0.309,-0.725,134.155,15.242,-43.592,
60657140,-0.184,-0.029,-1.301,124.46,53.13,-14.945,
60657150,-0.43,0.426,-0.929,87.937,80.412,14.595,
60657160,-0.274,0.104,-0.077,-0.84,65.38,33.722,
60657170,0.089,-0.636,0.347,-42.752,34.23,39.532,
60657170,0.249,-0.329,0.143,-19.127,7.56,4.077,
60657190,0.041,0.197,-0.148,-24.78,13.16,-23.485,
60657190,-0.249,-0.087,-0.039,-68.757,34.737,-11.725,
60657210,-0.018,-0.519,0.21,-92.802,43.767,3.78,
60657210,0.061,-0.693,0.268,-80.815,63.017,10.64,
60657230,-0.088,0.05,0.711,-40.565,77.945,1.277,
60657230,1.246,-0.951,1.53,47.827,27.475,5.932,
60657250,1.06,-0.757,-0.165,329.577,54.582,-1.662,
60657250,-1.33,-0.704,1.154,273.752,55.93,-63.035,
60657260,-0.78,-1.033,0.359,272.562,-8.977,-109.095,
60657270,-1.763,0.734,0.904,346.115,-85.995,-143.027,
60657280,0.137,0.272,1.43,310.765,-210.367,-148.102,
60657290,0.224,-0.32,1.798,270.987,-276.587,-159.162,
60657300,1.228,-0.19,1.572,227.99,-257.792,-177.975,
60657310,1.871,1.881,0.602,100.257,-163.537,-142.835,
60657320,1.461,0.384,0.793,-12.267,-25.007,-21.087,
60657330,0.704,-0.001,0.998,-53.147,64.137,60.515,
60657340,-0.036,-0.25,1.083,-77.14,84.262,81.392,
60657350,-0.367,-0.673,0.877,-69.3,58.152,61.092,
60657360,-0.283,-0.767,0.861,-28.525,14.7,22.575,
60657370,-0.152,-0.43,0.93,4.935,-17.36,-14.77,
60657380,0.129,-0.324,0.936,21.612,-43.417,-43.925,
60657390,0.565,-0.118,0.865,30.765,-50.085,-56.542,
60657400,0.665,-0.081,0.875,28.892,-33.302,-40.512,
60657410,0.443,-0.074,0.945,20.597,-6.615,-17.132,
60657420,0.259,-0.105,0.986,10.412,3.622,-9.992,
60657430,0.33,-0.069,0.969,1.05,4.917,-12.127,
60657440,0.403,-0.003,0.979,-7.91,6.737,-11.375,
60657450,0.338,-0.107,0.973,-20.842,14.927,-4.602,
60657460,0.149,-0.168,0.992,-26.845,18.095,-1.82,
60657470,0.055,-0.281,0.991,-25.077,11.462,-6.86,
60657480,0.178,-0.25,0.955,-23.327,-3.237,-13.737,
60657490,0.281,-0.233,0.933,-22.26,-11.34,-13.842,
60657500,0.294,-0.243,0.926,-21.157,-14.35,-7.245,
60657510,0.284,-0.204,0.967,-20.755,-14.875,0.84,
60657520,0.335,-0.112,1.034,-26.6,-14.752,7.07,
60657530,0.388,-0.04,1.135,-44.065,-12.232,15.627,
60657540,0.395,0.012,1.242,-75.145,-8.592,26.827,
60657550,0.528,0.041,1.308,-118.842,-8.102,37.975,
60657560,0.302,-0.302,1.454,-173.11,2.24,44.59,
60657570,0.393,0.393,1.218,-209.3,0.227,29.47,
60657580,0.516,0.128,1.229,-270.427,27.44,34.475,
60657580,0.602,-0.048,1.063,-317.992,67.305,25.48,
60657600,0.816,-0.421,1.517,-366.17,124.162,16.59,
60657600,1.139,-1.035,1.756,-376.617,242.935,12.915,
60657620,1.308,-1.924,1.712,-359.817,369.512,13.195,
60657620,0.642,-1.998,1.348,-275.607,434.63,-20.002,
60657640,1.541,-1.998,0.629,-155.575,412.422,-157.867,
60657640,1.178,-1.989,0.099,16.905,324.73,-288.312,
60657660,-0.713,-1.048,-0.042,157.342,190.19,-386.102,
60657660,-1.054,-0.345,-0.57,165.375,86.38,-368.322,
60657670,-1.315,-0.334,-0.517,121.975,-5.18,-298.725,
60657680,-1.483,-0.166,-0.173,92.54,-59.657,-228.025,
60657690,-1.427,0.211,-0.139,59.08,-80.115,-155.89,
60657700,-1.719,0.225,-0.132,12.932,-86.642,-81.62,
60657710,-1.67,0.163,0.037,-12.652,-83.475,-3.027,
60657720,-1.289,0.132,0.202,-14.175,-88.777,88.672,
60657730,-0.619,0,0.219,-1.837,-89.215,178.185,
60657740,-0.09,-0.099,0.006,24.01,-84.542,241.797,
60657750,0.179,-0.052,-0.297,54.337,-74.515,275.887,
60657760,0.353,0.074,-0.563,60.06,-57.365,298.182,
60657770,0.621,0.102,-0.493,36.61,-27.527,316.05,
60657780,0.747,-0.064,-0.163,-7.717,-13.177,310.327,
60657790,0.874,-0.212,0.104,-42.612,-29.33,275.835,
60657800,1.2,-0.031,0.157,-53.06,-55.37,226.992,
60657810,1.363,0.333,0.122,-57.925,-62.545,173.495,
60657820,1.112,0.308,0.121,-68.757,-52.377,121.03,
60657830,0.952,0.267,0.157,-78.487,-41.772,24.867,
60657840,0.587,0.74,0.344,157.167,-74.025,-27.265,
60657850,-1.483,-1.998,0.775,17.57,17.342,209.79,
60657860,-0.338,-1.369,-1.035,424.147,-8.4,112.875,
60657870,-0.333,1.997,1.194,486.902,-201.95,-248.202,
60657880,0.296,0.471,-0.179,324.117,-92.872,-39.322,
60657890,-1.982,-1.624,1.49,358.645,-191.327,-15.75,
60657900,0.568,0.345,1.802,500.045,-366.695,-161.507,
60657910,0.632,-0.138,1.078,281.015,-360.167,-207.777,
60657920,0.269,1.403,-0.29,62.475,-153.72,-117.705,
60657920,1.1,-0.286,1.164,-107.572,46.147,36.26,
60657940,-0.299,-0.84,1.094,-75.705,60.165,46.34,
60657940,-0.269,-1.225,0.914,-49.91,23.555,26.46,
60657960,0.11,-0.64,0.876,-7.7,-8.4,-4.987,
60657960,-0.124,-0.361,1.046,13.142,-28.98,-30.555,
60657980,0.679,-0.014,0.878,16.327,-45.657,-44.905,
60657980,0.642,0,0.831,10.43,-23.852,-27.317,
60658000,0.328,-0.059,0.97,8.557,2.817,-3.255,
60658000,0.241,-0.13,0.979,1.032,5.775,-1.802,
60658010,0.296,-0.116,0.948,-6.982,4.445,-6.002,
60658020,0.299,-0.086,0.971,-13.16,2.992,-10.167,
60658030,0.371,-0.064,0.954,-22.382,7.91,-8.89,
60658040,0.341,-0.097,0.974,-32.322,13.685,-2.625,
60658050,0.403,0.022,1.037,-42.542,23.905,2.292,
60658060,0.117,-0.028,1.146,-55.65,33.267,-0.612,
60658070,0.218,-0.207,1.232,-86.257,32.025,-3.307,
60658080,0.517,-0.016,1.129,-118.702,33.74,-9.485,
60658090,0.226,-0.026,1.341,-160.037,53.69,-5.267,
60658100,0.46,-0.313,1.194,-189.192,45.167,2.03,
60658110,0.459,0.206,0.933,-194.862,49.665,6.335,
60658120,0.513,-0.21,1.036,-225.767,70.035,18.392,
60658130,0.421,-0.168,0.997,-232.557,88.637,17.202,
60658140,0.355,-0.33,1.025,-240.94,107.257,17.325,
60658150,0.331,-0.433,1.06,-248.045,124.46,17.412,
60658160,0.408,-0.619,1.159,-253.225,150.535,21.297,
60658170,0.473,-0.941,1.231,-244.755,190.015,20.545,
60658180,0.733,-1.274,1.253,-224.945,218.505,8.452,
60658190,0.11,-1.551,1.367,-195.772,199.447,-11.62,
60658200,0.559,-1.869,1.47,-157.36,132.527,-64.102,
60658210,1.144,-1.869,0.507,-64.557,69.737,-145.232,
60658220,0.249,-0.918,0.819,0.087,0.28,-238.77,
60658230,-0.262,-0.513,0.612,35.63,-29.137,-274.277,
60658240,-0.741,0.038,0.218,84.49,-53.532,-268.397,
60658250,-1.212,0.769,0.121,97.475,-77.07,-240.397,
60658260,-1.263,1.261,0.173,71.557,-75.022,-177.607,
60658270,-1.042,1.416,0.102,51.24,-76.44,-97.737,
60658280,-0.775,1.373,0.152,36.242,-73.92,-27.002,
60658290,-0.383,1.019,0.267,12.932,-59.57,27.51,
60658300,-0.134,0.521,0.444,8.05,-34.72,56.945,
60658310,-0.022,0.06,0.482,33.652,-10.605,67.62,
60658320,0.143,-0.22,0.407,72.397,2.205,74.97,
60658330,0.514,-0.534,0.188,101.22,8.47,80.71,
60658330,0.489,-1.12,-0.291,133.892,25.165,80.85,
60658350,0.339,-0.307,-0.541,166.232,31.692,44.922,
60658350,0,-0.93,-0.608,140.875,28.542,66.797,
60658370,0.204,-1.325,-0.555,87.307,24.675,57.155,
60658370,1.339,-1.757,0.449,80.85,93.887,70,
60658390,-1.085,-1.998,-0.757,163.695,45.71,171.78,
60658390,-0.578,0.419,1.296,527.117,-130.585,-124.88,
60658410,0.988,1.997,1.259,430.08,-173.372,-146.492,
60658410,-0.344,-0.023,1.762,275.117,-156.065,-10.675,
60658420,-0.999,-1.766,1.963,245.367,-220.255,-93.065,
60658430,1.94,1.479,-0.307,163.73,-233.327,-114.975,
60658440,-0.174,0.753,0.362,-4.217,-34.877,-14.752,
60658450,0.347,-1.85,1.396,-130.322,32.077,74.095,
60658460,0.985,-0.142,0.683,-16.905,12.11,29.417,
60658470,-0.332,-0.382,1.105,-27.772,28.822,5.18,
60658480,0.469,-0.334,0.931,-18.252,8.347,-5.267,
60658490,0.189,-0.209,0.94,-21.122,11.532,-16.642,
60658500,0.354,-0.381,0.91,-14.927,8.207,-13.79,
60658510,0.312,-0.271,0.929,-2.992,10.815,-10.15,
60658520,0.233,-0.224,0.954,2.852,10.15,-6.86,
60658530,0.146,-0.175,0.97,4.707,8.172,-7.682,
60658540,0.175,-0.144,0.976,4.235,-1.365,-14.647,
60658550,0.42,-0.001,0.927,-1.277,-4.322,-20.37,
60658560,0.414,-0.076,0.92,-7.98,4.007,-13.877,
60658570,0.297,-0.107,0.952,-9.415,14.192,-2.607,
60658580,0.193,-0.14,0.983,-10.867,15.225,2.205,
60658590,0.178,-0.189,0.979,-12.67,10.675,-0.21,
60658600,0.246,-0.143,0.965,-12.827,4.252,-4.97,
60658610,0.284,-0.13,0.963,-13.632,3.36,-5.302,
60658620,0.251,-0.095,0.981,-16.152,4.147,-5.372,
60658630,0.22,-0.152,0.976,-19.565,3.727,-7.297,
60658640,0.263,-0.174,0.975,-22.032,2.45,-9.082,
60658650,0.278,-0.151,0.996,-26.337,3.22,-9.31,
60658660,0.316,-0.225,1.016,-35.105,6.825,-8.067,
60658670,0.403,-0.179,1.082,-51.695,12.705,-5.197,
60658670,0.418,-0.048,1.179,-75.512,25.165,-5.915,
60658690,0.401,-0.086,1.31,-114.555,36.697,1.75,
60658690,0.655,-0.027,1.311,-162.417,57.05,1.435,
60658710,0.047,0.084,1.51,-213.5,82.495,-5.355,
60658710,0.511,0.163,1.17,-251.562,74.445,-8.365,
60658730,0.904,0.027,1.07,-287.297,114.73,-7.21,
60658730,1.101,-0.416,1.336,-328.755,194.967,-2.24,
60658750,1.431,-1.327,1.657,-357.997,346.657,5.057,
60658750,1.309,-1.998,1.629,-328.772,524.02,20.317,
60658760,0.869,-1.998,1.178,-204.872,573.177,-46.322,
60658770,0.573,-1.998,0.347,-7.612,547.26,-159.775,
60658780,-1.393,-1.575,-0.198,149.817,407.802,-211.435,
60658790,-1.802,-0.675,0.312,153.825,185.307,-210.245,
60658800,-1.06,-0.596,0.097,94.5,-64.907,-147.472,
60658810,-0.487,-0.507,-0.027,71.977,-238.665,-82.495,
60658820,-0.417,-0.397,-0.29,50.225,-324.8,-44.38,
60658830,-0.43,-0.272,-0.548,50.12,-343.997,-24.587,
60658840,-0.361,-0.078,-0.631,56.752,-311.832,-2.065,
60658850,-0.606,-0.007,-0.916,53.69,-247.275,36.662,
60658860,-0.814,0.191,-1.079,39.182,-172.322,91.262,
60658870,-0.931,0.363,-0.811,-13.055,-112.07,163.852,
60658880,-0.732,0.029,-0.384,-83.422,-89.81,243.547,
60658890,-0.181,-0.532,-0.041,-114.537,-91.385,305.865,
60658900,0.54,-0.84,0.11,-93.327,-96.022,321.247,
60658910,1.266,-0.627,-0.047,-51.607,-84.227,291.095,
60658920,1.712,-0.028,-0.22,-26.95,-47.582,240.222,
60658930,1.617,0.258,-0.187,-51.397,-2.117,184.275,
60658940,1.367,0.062,0.061,-101.062,17.097,111.79,
60658950,1.164,-0.303,0.53,-121.432,14.875,32.2,
60658960,1.241,-0.145,0.688,-64.82,9.31,-82.582,
60658970,-1.83,-1.932,1.461,205.257,-65.222,65.31,
60658980,1.682,-1.974,-1.385,471.397,92.802,191.432,
60658990,-1.101,1.096,0.634,480.112,-88.55,24.99,
60659000,-1.342,1.766,0.956,332.955,-227.412,-195.79,
60659010,-1.823,0.739,0.369,344.96,-185.657,-44.24,
60659020,0.399,0.953,1.686,326.9,-334.39,-140.245,
60659030,0.965,-0.997,1.992,247.03,-354.865,-239.487,
60659040,1.998,0.814,0.766,110.617,-292.022,-243.932,
60659050,1.724,1.11,0.668,-13.177,-80.325,-86.45,
60659060,0.993,0.14,1.503,-99.032,72.345,93.747,
60659070,-0.051,-0.002,1.245,-156.782,101.57,132.107,
60659080,-0.546,-0.851,0.617,-151.742,61.845,102.865,
60659080,-0.293,-1.057,0.585,-91.175,18.182,50.68,
60659100,-0.324,-0.512,0.759,-49.315,-4.637,-1.662,
60659100,0.109,-0.615,0.678,-15.33,-27.702,-43.802,
60659120,0.408,-0.572,0.67,16.362,-20.65,-67.27,
60659120,0.498,-0.294,0.737,47.845,-9.625,-71.96,
60659140,0.403,-0.463,0.725,75.46,0.472,-55.702,
60659140,0.059,-0.577,0.893,108.727,-1.242,-51.257,
60659160,-0.236,-0.135,1.364,126.945,-21.822,-63.647,
60659160,0.301,0.611,1.297,90.352,-52.097,-69.195,
60659170,0.766,0.374,0.944,18.777,-40.617,-46.62,
60659180,0.602,-0.151,0.864,-15.137,-9.205,-18.585,
60659190,0.34,-0.435,0.861,-11.27,13.16,4.34,
60659200,0.009,-0.275,0.992,6.002,12.092,12.6,
60659210,-0.038,-0.21,1.032,10.395,-3.622,5.565,
60659220,0.199,-0.193,0.969,6.965,-22.662,-7.21,
60659230,0.392,-0.187,0.909,5.11,-25.357,-10.482,
60659240,0.496,-0.11,0.904,4.76,-16.992,-3.167,
60659250,0.397,-0.119,0.943,-0.14,-0.21,8.172,
60659260,0.348,-0.16,0.956,-6.335,8.505,14.472,
60659270,0.428,-0.171,0.978,-13.265,17.57,18.007,
60659280,0.487,-0.144,1.034,-22.872,29.54,20.457,
60659290,0.505,-0.21,1.133,-36.155,47.827,23.52,
60659300,0.727,-0.389,1.269,-47.425,66.097,25.602,
60659310,0.813,-0.515,1.352,-49.157,86.625,28.315,
60659320,1.17,-0.569,1.898,-47.39,100.817,32.935,
60659330,1.385,-1.556,1.645,-34.51,195.93,53.952,
60659340,0.77,-1.997,1.368,53.952,228.427,81.707,
60659350,-1.895,-1.998,0.251,84.367,170.327,99.102,
60659360,-1.661,-1.998,1.601,-33.477,-51.677,92.277,
60659370,0.101,-1.998,-0.087,-11.112,-155.977,101.132,
60659380,0.025,-0.879,-1.018,-3.255,-92.05,62.247,
60659390,-0.659,0.359,0.069,-128.852,28.7,67.952,
60659400,-1.278,0.646,0.316,-195.282,39.602,113.4,
60659410,-0.045,1.814,-0.209,-137.357,-15.032,130.917,
60659420,0.805,1.997,0.01,-118.877,5.582,146.387,
60659420,0.389,1.819,0.235,-111.107,28.542,141.697,
60659440,-0.045,1.65,0.168,-57.242,-0.227,102.305,
60659440,0.007,1.558,0.135,-17.902,-14.385,83.527,
60659460,-0.069,0.948,0.121,3.097,11.322,98.315,
60659460,-0.391,0.359,0.185,24.237,29.435,101.447,
60659480,0.011,0.205,1.989,3.08,-63.07,66.517,
60659480,1.188,-1.984,1.475,80.552,-259.787,46.322,
60659500,-1.087,-0.467,1.358,361.112,-212.835,-72.975,
60659500,0.538,1.913,1.087,355.302,-239.75,-133.735,
60659510,0.628,-1.316,1.994,202.02,-226.397,-60.165,
60659520,1.622,1.001,0.733,170.485,-192.132,-90.737,
60659530,1.19,0.88,0.535,30.327,-63.577,-27.352,
60659540,0.91,0,0.943,-58.8,40.337,28.875,
60659550,0.3,-0.408,1.012,-61.18,69.37,30.117,
60659560,0.01,-0.543,0.955,-50.4,63.945,16.065,
60659570,-0.098,-0.598,0.951,-30.957,51.24,14.822,
60659580,-0.182,-0.48,0.986,-10.885,28.367,7.14,
60659590,0.039,-0.239,0.993,0.7,5.985,-8.627,
60659600,0.175,-0.211,0.967,3.605,-8.54,-16.625,
60659610,0.079,-0.329,0.96,6.335,-13.055,-13.947,
60659620,0.156,-0.217,0.986,14.962,-23.327,-13.79,
60659630,0.365,-0.025,0.96,13.702,-25.06,-13.457,
60659640,0.379,-0.024,0.952,3.867,-18.182,-5.25,
60659650,0.358,-0.105,0.957,-6.177,-7.665,1.96,
60659660,0.353,-0.067,0.983,-15.277,-1.102,7.052,
60659670,0.4,-0.049,1.014,-28.367,8.4,13.212,
60659680,0.41,-0.02,1.086,-46.357,19.687,20.265,
60659690,0.401,-0.001,1.168,-70.49,34.51,25.497,
60659700,0.353,-0.166,1.174,-98.892,49.402,30.117,
60659710,0.33,-0.129,1.192,-128.432,60.235,32.375,
60659720,0.377,-0.09,1.225,-157.517,58.695,33.215,
60659730,0.335,-0.134,1.154,-182.91,51.205,36.032,
60659740,0.36,-0.348,1.057,-201.32,49.787,36.557,
60659750,0.231,-0.054,0.976,-196.525,53.375,33.74,
60659760,0.17,-0.222,0.945,-213.08,59.307,37.555,
60659770,0.102,-0.345,0.919,-213.535,55.125,34.527,
60659780,0.149,-0.471,0.964,-208.11,47.81,27.51,
60659790,0.343,-0.693,1.148,-203.28,60.375,23.38,
60659800,0.588,-1.005,1.395,-185.815,94.22,21.28,
60659810,0.662,-1.144,1.679,-141.977,108.097,6.212,
60659820,1.954,-1.758,1.822,-85.697,113.155,-76.947,
60659830,0.628,-1.42,1.352,3.797,71.12,-201.827,
60659830,-0.742,-0.572,0.653,63.752,-31.552,-283.342,
60659850,-1.757,-0.416,0.166,109.987,-60.602,-249.007,
60659850,-1.998,-0.214,0.188,119.437,-71.96,-157.465,
60659860,-1.998,-0.112,-0.28,130.672,-64.382,-6.685,
60659870,-1.934,0.065,-0.627,147.192,-69.3,179.637,
60659880,-0.997,-0.105,-0.433,95.48,-69.667,304.64,
60659890,0.263,-0.777,-0.081,35.892,-27.405,360.115,
60659900,0.851,-1.132,0.148,45.832,22.382,344.61,
60659910,0.97,-0.717,-0.06,66.99,34.65,265.072,
60659920,0.787,-0.185,-0.246,49.402,16.625,197.312,
60659930,0.745,0.016,-0.183,-13.947,-7.385,163.467,
60659940,0.858,0.056,0.05,-63.98,-27.615,153.825,
60659950,0.995,0.373,0.087,-84,-42.612,141.05,
60659960,0.951,0.593,-0.054,-80.43,-63.525,126.542,
60659970,1.445,0.084,0.102,-62.02,-40.652,121.362,
60659980,-1.623,-1.359,1.149,-30.747,-98.822,163.625,
60659990,-1.485,-1.903,-1.312,309.645,-42.455,228.672,
60660000,-0.863,1.792,1.263,378.735,-212.625,-69.422,
60660010,1.488,0.607,0.336,218.872,-158.497,-19.74,
60660020,-1.907,-1.403,1.471,208.267,-176.68,-32.83,
60660030,1.251,0.743,1.433,303.467,-224.385,-163.555,
60660040,0.251,-0.509,1.788,214.2,-229.95,-229.197,
60660050,1.885,0.563,1.281,141.172,-206.937,-212.047,
60660060,1.931,0.655,0.858,58.502,-113.032,-102.41,
60660070,1.176,0.322,0.991,-7.56,4.445,19.792,
60660080,0.253,-0.082,1.098,-47.407,60.165,78.942,
60660090,-0.297,-0.5,0.986,-62.947,55.177,71.505,
60660100,-0.261,-0.52,0.81,-54.635,27.405,19.582,
60660110,-0.065,-0.511,0.833,-23.8,2.975,-35.087,
60660120,0.216,-0.357,0.895,-1.242,-8.855,-67.725,
60660130,0.394,-0.216,0.91,5.862,-6.79,-74.515,
60660140,0.495,-0.163,0.947,6.002,-1.645,-58.887,
60660150,0.38,-0.173,0.961,-0.805,7.997,-34.947,
60660160,0.232,-0.15,1.018,-7.122,14.682,-20.44,
60660170,0.32,-0.048,1.074,-17.447,16.695,-22.522,
60660170,0.27,-0.005,1.143,-39.865,29.61,-26.897,
60660190,0.234,-0.051,1.128,-67.48,41.72,-30.467,
60660190,0.234,-0.073,1.091,-90.51,52.64,-34.702,
60660210,0.294,-0.229,1.085,-107.31,56.017,-32.392,
60660210,0.378,-0.222,1.076,-124.495,57.837,-28.35,
60660230,0.475,-0.216,1.05,-136.412,56.945,-14.28,
60660230,0.451,-0.255,1.044,-149.905,61.565,5.88,
60660250,0.43,-0.24,1.035,-162.89,63.647,24.412,
60660250,0.373,-0.226,1.101,-178.815,70.21,42.77,
60660260,0.277,-0.237,1.163,-191.065,70.42,58.922,
60660270,0.215,-0.336,1.249,-208.127,74.287,65.905,
60660280,0.174,-0.613,1.338,-222.32,102.077,63,
60660290,0.387,-0.986,1.365,-218.662,148.015,52.867,
60660300,0.585,-1.332,0.961,-191.432,199.097,34.37,
60660310,0.281,-1.459,1.079,-158.392,242.97,-6.212,
60660320,0.603,-1.36,1.319,-126.892,234.062,-72.292,
60660330,-0.641,-1.651,0.447,-58.537,222.127,-97.527,
60660340,-0.636,-0.985,0.467,-16.292,170.03,-107.975,
60660350,-0.079,-0.658,0.476,19.267,81.515,-76.597,
60660360,-0.166,-0.422,0.465,48.125,-19.775,-42.49,
60660370,0.071,-0.244,0.066,78.505,-80.797,2.187,
60660380,0.338,0.01,-0.012,84.735,-105.945,42.822,
60660390,0.252,0.025,0.02,73.202,-113.82,71.312,
60660400,-0.017,0.073,-0.001,69.527,-131.11,86.52,
60660410,-0.117,0.193,-0.16,64.365,-157.395,85.085,
60660420,0.074,0.492,-0.247,45.045,-170.152,71.627,
60660430,0.186,0.661,-0.274,7.892,-154.472,65.765,
60660440,0.244,0.594,-0.1,-29.837,-113.242,70.507,
60660450,0.242,0.367,0.141,-55.02,-68.075,76.072,
60660460,0.324,0.189,0.336,-57.242,-38.255,77.21,
60660470,0.49,0.098,0.389,-44.135,-27.72,73.22,
60660480,0.802,0.062,0.272,-24.745,-24.08,61.845,
60660490,1.035,0,0.003,-8.592,-11.112,21.56,
60660500,1.72,0.884,-0.517,136.657,-10.64,-20.16,
60660510,-1.2,-1.779,1.605,55.16,196.227,191.38,
60660520,-1.099,-1.974,-1.517,256.2,3.937,285.67,
60660530,-0.348,1.74,0.695,511.7,-244.562,-100.38,
60660540,1.712,0.689,0.439,279.282,-163.677,-51.135,
60660550,-1.874,-1.684,0.822,212.17,-95.655,11.112,
60660550,0.551,1.471,1.295,408.852,-284.935,-109.235,
60660570,-0.45,-0.043,1.957,312.357,-320.775,-201.512,
60660570,1.969,-0.222,1.105,152.46,-312.427,-240.45,
60660580,1.251,1.652,0.563,43.82,-116.707,-132.527,
60660590,1.131,-0.306,1.039,-41.37,43.785,50.05,
60660600,-0.295,-0.072,1.19,-55.597,74.742,77.21,
60660610,-0.253,-0.733,0.94,-65.66,39.602,44.607,
60660620,-0.045,-0.368,0.878,-34.457,9.467,-2.625,
60660630,0.129,-0.551,0.921,-11.392,-7.035,-30.047,
60660640,0.426,-0.332,0.863,3.132,-18.235,-40.425,
60660650,0.463,-0.329,0.842,15.592,-10.307,-34.23,
60660660,0.197,-0.355,0.955,28.717,-4.077,-24.955,
60660670,0.068,-0.108,1.038,33.792,-6.09,-25.41,
60660680,0.427,0.232,0.978,19.355,-10.675,-27.195,
60660690,0.337,-0.17,0.925,-4.27,3.482,-16.432,
60660700,0.229,-0.194,0.949,-4.392,9.345,-7.665,
60660710,0.11,-0.185,0.983,-4.497,10.272,-0.997,
60660720,0.087,-0.288,0.959,-3.57,0.63,-0.875,
60660730,0.131,-0.245,0.963,2.817,-8.12,-1.47,
60660740,0.191,-0.157,0.972,6.807,-16.625,-1.33,
60660750,0.223,-0.176,0.96,5.547,-18.252,1.12,
60660760,0.253,-0.164,0.957,4.725,-20.037,5.337,
60660770,0.238,-0.149,0.974,2.695,-17.535,12.827,
60660780,0.251,-0.151,0.999,-1.435,-18.077,20.51,
60660790,0.335,-0.1,1.047,-9.87,-14.017,29.225,
60660800,0.358,-0.097,1.126,-26.075,-5.792,40.075,
60660810,0.466,-0.235,1.235,-47.215,7.35,52.832,
60660820,0.483,-0.59,1.224,-62.265,16.38,64.96,
60660830,0.769,-0.532,1.422,-56.49,14.665,71.33,
60660840,1.751,-0.74,1.388,-44.24,84.787,76.527,
60660850,1.558,-1.27,1.225,3.832,176.767,70.49,
60660860,0.542,-1.154,0.592,65.817,214.62,70.052,
60660870,1.442,-1.551,-0.3,50.785,217.787,63.245,
60660880,1.998,-1.998,0.262,-15.26,96.635,-38.815,
60660890,1.998,-1.964,-0.722,-14.21,-53.445,-209.247,
60660900,1.998,-0.697,-1.163,18.48,-129.64,-360.22,
60660910,1.311,-0.194,-0.707,-55.825,-183.225,-442.925,
60660920,0.021,-0.128,-0.244,-67.445,-207.445,-414.75,
60660920,-0.622,0.175,-0.44,-29.33,-205.607,-342.562,
60660940,-0.993,0.394,-0.896,-20.037,-178.727,-248.29,
60660940,-0.411,0.276,-0.677,-55.142,-115.482,-139.93,
60660960,0.738,-0.374,1.119,-115.29,219.257,26.232,
60660960,-1.998,-1.226,1.474,274.89,231.297,166.162,
60660980,1.551,1.997,-0.194,319.427,-215.215,167.51,
60660980,0.087,-0.615,0.915,-124.04,-39.602,-62.212,
60661000,-1.956,-1.542,1.534,-182.052,19.127,-215.005,
60661000,1.734,-0.222,0.706,-6.772,-30.485,44.782,
60661010,0.119,-0.673,1.101,-1.382,2.677,43.102,
60661020,-0.648,0.042,1.112,21.49,-5.932,17.36,
60661030,1.039,-0.273,0.858,7.56,-29.907,29.54,
60661040,-0.133,-0.3,1.042,7.822,-20.107,9.485,
60661050,0.448,0.024,0.907,16.187,-24.797,18.252,
60661060,0.327,-0.133,0.946,8.347,-21.595,19.88,
60661070,0.351,-0.161,0.945,6.562,-15.697,21.035,
60661080,0.471,-0.157,0.909,1.522,-14.192,13.632,
60661090,0.359,-0.113,0.922,-3.185,-3.745,9.397,
60661100,0.376,-0.164,0.93,-5.057,1.54,10.902,
60661110,0.35,-0.174,0.932,-4.97,8.505,8.942,
60661120,0.3,-0.17,0.94,-3.5,11.655,7.14,
60661130,0.254,-0.166,0.954,-2.87,15.522,6.65,
60661140,0.23,-0.159,0.961,-3.342,13.895,4.69,
60661150,0.212,-0.161,0.961,-4.532,13.125,2.87,
60661160,0.197,-0.173,0.961,-4.252,9.275,1.242,
60661170,0.198,-0.18,0.96,-3.15,7.122,0.42,
60661180,0.206,-0.181,0.958,-1.365,3.045,-1.435,
60661190,0.222,-0.192,0.955,0.402,1.102,-2.8,
60661200,0.237,-0.172,0.953,2.782,-1.54,-4.707,
60661210,0.237,-0.145,0.952,4.322,-1.89,-4.882,
60661220,0.22,-0.167,0.956,5.302,-2.817,-4.077,
60661230,0.244,-0.149,0.952,7.035,-3.762,-4.427,
60661240,0.218,-0.13,0.953,7.595,-4.602,-4.672,
60661250,0.281,-0.116,0.949,7.577,-4.97,-3.78,
60661260,0.313,-0.185,0.954,6.825,-2.467,-1.645,
60661260,0.268,-0.126,0.942,9.275,0.035,-1.347,
60661280,0.287,-0.128,0.943,9.765,2.45,0.017,
60661280,0.273,-0.176,0.965,8.872,3.272,0.857,
60661300,0.295,-0.17,0.964,10.185,3.902,-0.28,
60661300,0.199,-0.104,0.903,11.235,3.482,-2.817,
60661320,0.026,0.172,0.844,8.54,2.52,-8.54,
60661320,0.158,0.102,0.877,-9.87,-2.38,-9.712,
60661330,0.223,0.129,0.959,-30.1,-1.015,-14.367,
60661340,0.126,0.088,1.079,-50.522,1.54,-24.01,
60661350,0.213,0.135,1.142,-77.14,-1.47,-39.497,
60661360,0.17,-0.182,1.214,-104.772,-6.615,-53.41,
60661370,0.051,-0.327,1.297,-119.297,-8.522,-65.94,
60661380,0.142,-0.764,1.322,-150.307,-3.465,-80.132,
60661390,0,0.403,1.261,-198.712,-13.912,-98.7,
60661400,0.327,0.298,1.191,-241.535,-15.907,-83.23,
60661410,0.138,-0.096,1.327,-291.305,4.2,-57.54,
60661420,-0.042,-0.099,1.286,-312.917,-3.307,-42.84,
60661430,0.307,-0.835,1.425,-334.845,-40.6,-68.442,
60661440,-0.906,0.454,1.571,-285.74,-121.572,-81.48,
60661450,-0.689,0.015,1.321,-308.035,-244.807,-61.302,
60661460,-0.082,-0.049,0.851,-281.872,-376.932,-61.897,
60661470,-0.057,-0.114,0.956,-231.717,-383.705,-21.14,
60661480,0.218,0.571,1.795,-205.922,-303.887,-14.052,
60661490,-1.091,-0.037,1.998,-158.34,-50.68,49.175,
60661500,-1.345,0.647,1.925,48.317,78.785,159.232,
60661510,-1.25,0.84,0.615,315,-31.22,253.102,
60661520,0.243,0.402,0.743,336.297,15.505,350.297,
60661530,0.916,-0.023,0.599,284.9,30.677,281.575,
60661540,0.831,0.214,0.749,292.285,38.727,207.217,
60661550,0.678,-0.101,0.778,286.177,14.595,147.245,
60661560,0.662,-0.087,0.807,286.842,-14.945,82.302,
60661570,0.245,-0.177,0.9,276.01,-21.525,45.517,
60661580,0.123,-0.43,1.049,264.407,-17.202,31.92,
60661590,0.065,-0.619,1.11,260.19,-10.657,18.305,
60661600,-0.133,-0.78,1.091,249.235,9.73,37.467,
60661610,-0.309,-1.088,0.983,244.002,26.827,84.892,
60661620,-0.222,-1.278,0.666,239.96,29.75,137.55,
60661630,0.012,-1.348,0.31,224.857,42.122,181.475,
60661640,0.064,-1.418,-0.007,186.095,77,209.615,
60661650,0.019,-1.347,-0.316,133.595,118.912,218.82,
60661660,0.087,-1.316,-0.543,75.11,163.345,224.507,
60661670,0.231,-1.287,-0.856,33.722,204.662,230.615,
60661670,-0.291,-1.356,-0.704,7.455,231.577,230.632,
60661690,0.134,-1.657,0.08,-103.81,-86.45,164.71,
60661690,1.678,-1.998,1.962,-209.107,-284.585,139.527,
60661710,-1.968,-0.577,-0.206,239.785,-50.627,-139.335,
60661710,0.776,1.364,1.297,335.895,-245.822,-142.747,
60661730,1.882,0.478,0.476,16.082,-152.407,4.305,
60661730,-1.13,-0.568,1.216,-4.655,-1.26,-13.335,
60661750,1.42,-0.065,0.754,-4.077,-6.125,-2.835,
60661750,-0.079,-0.232,0.992,-7.857,25.322,-8.242,
60661760,0.339,-0.32,0.958,-6.475,26.39,-4.182,
60661770,0.206,-0.2,0.972,-2.432,28.805,-4.76,
60661780,0.185,-0.196,0.969,-3.36,24.027,-4.445,
60661790,0.122,-0.149,0.987,-2.555,21.56,-4.06,
60661800,0.186,-0.204,0.974,-3.027,12.407,-5.652,
60661810,0.178,-0.156,0.979,-2.047,9.047,-4.305,
60661820,0.188,-0.133,0.98,-3.797,2.817,-3.692,
60661830,0.229,-0.142,0.974,-8.242,1.295,-3.36,
60661840,0.266,-0.157,0.967,-12.442,-0.402,-2.94,
60661850,0.254,-0.152,0.975,-17.062,3.167,-0.42,
60661860,0.233,-0.133,0.979,-23.24,3.902,0.822,
60661870,0.205,-0.151,0.988,-31.36,7.122,1.417,
60661880,0.211,-0.155,0.991,-39.025,7.157,-0.105,
60661890,0.213,-0.139,1.012,-47.162,10.605,-2.152,
60661900,0.238,-0.15,1.015,-57.347,12.337,-4.69,
60661910,0.246,-0.19,1.013,-63.28,17.202,-6.562,
60661920,0.245,-0.208,0.999,-66.01,18.27,-11.462,
60661930,0.255,-0.223,0.96,-63.525,20.107,-14.647,
60661940,0.241,-0.293,0.955,-61.512,19.407,-16.187,
60661950,0.243,-0.332,0.941,-55.282,17.36,-17.745,
60661960,0.157,-0.361,0.888,-44.257,12.337,-21.945,
60661970,0.085,-0.373,0.842,-30.712,4.357,-27.877,
60661980,0.144,-0.389,0.746,-8.085,-3.132,-33.215,
60661990,-0.091,-0.365,0.841,13.58,-6.58,-39.585,
60662000,0.036,-0.346,0.746,31.325,-32.917,-47.932,
60662010,0.195,-0.243,0.744,57.452,-48.632,-50.225,
60662010,0.111,-0.345,0.88,75.302,-54.565,-49.14,
60662030,-0.052,-0.286,0.959,109.445,-64.172,-44.03,
60662030,0.146,-0.224,1.22,128.992,-80.867,-52.64,
60662050,-0.154,-0.059,1.332,118.825,-108.097,-54.652,
60662050,0.822,0.58,0.732,67.725,-119.56,-56.682,
60662070,0.965,0.947,0.385,13.317,-65.205,-32.97,
60662070,0.283,-0.229,1.029,-34.545,3.727,19.845,
60662080,0.588,0.048,0.933,-37.24,13.212,15.015,
60662090,0.752,-0.159,0.865,-51.8,35.437,21.21,
60662100,0.28,-0.581,0.947,-52.29,56.612,33.162,
60662110,0.195,-0.351,0.986,-30.222,54.337,33.827,
60662120,-0.073,-0.172,0.947,-11.357,38.29,30.397,
60662130,-0.143,-0.39,1.043,4.462,14.945,22.225,
60662140,-0.024,-0.228,1.064,16.502,-16.887,-1.19,
60662150,0.265,-0.049,1.005,10.815,-35.98,-19.827,
60662160,0.535,-0.047,0.904,-0.892,-38.657,-23.992,
60662170,0.61,-0.158,0.857,-7.63,-20.457,-14.455,
60662180,0.398,-0.139,0.925,-5.635,-1.487,-2.905,
60662190,0.247,-0.148,0.976,-6.107,8.68,2.94,
60662200,0.251,-0.124,0.988,-9.1,4.777,-2.187,
60662210,0.376,-0.067,0.966,-15.75,4.725,-5.95,
60662220,0.368,-0.113,0.966,-24.832,9.537,-1.557,
60662230,0.289,-0.179,0.979,-31.727,16.887,3.027,
60662240,0.222,-0.175,1.015,-36.487,15.96,3.447,
60662250,0.186,-0.181,1.054,-43.645,13.37,1.137,
60662260,0.221,-0.136,1.042,-52.22,7.14,-5.302,
60662270,0.17,-0.219,1.113,-66.867,12.95,-11.777,
60662280,0.146,-0.228,1.157,-87.255,13.825,-22.732,
60662290,0.174,0.057,1.151,-106.26,9.957,-28.787,
60662300,0.261,-0.184,1.175,-139.965,10.027,-24.255,
60662310,0.228,-0.187,1.142,-166.215,17.692,-25.182,
60662320,0.313,-0.081,1.142,-192.412,29.277,-30.73,
60662330,0.4,-0.098,1.116,-217.91,56.822,-33.582,
60662340,0.281,-0.329,1.216,-250.232,95.62,-35.507,
60662350,0.447,-0.351,1.133,-259.122,122.412,-48.107,
60662360,0.514,-0.608,1.21,-269.465,164.062,-59.57,
60662370,0.616,-0.99,1.231,-266,218.855,-72.642,
60662380,0.218,-1.405,1.247,-237.002,256.672,-70.612,
60662390,-0.369,-1.698,1.089,-181.195,231.175,-95.112,
60662400,0.048,-1.998,0.656,-140.822,140.07,-132.475,
60662410,0.811,-1.998,0.63,-75.582,36.452,-196.437,
60662420,-0.136,-1.64,0.623,19.775,-43.715,-260.207,
60662420,-0.591,-1.008,-0.007,86.205,-73.71,-247.87,
60662440,-0.867,-0.281,-0.336,120.977,-90.545,-188.965,
60662440,-0.967,0.217,-0.316,118.965,-95.2,-108.272,
60662460,-1.082,0.381,-0.16,96.162,-101.167,-4.112,
60662460,-0.891,0.25,-0.068,78.96,-109.655,102.865,
60662480,-0.374,0.105,0.007,82.967,-110.04,192.675,
60662480,0.112,-0.053,-0.085,100.012,-103.495,246.592,
60662500,0.482,-0.122,-0.234,115.045,-73.29,274.347,
60662500,0.696,-0.004,-0.5,120.575,-27.702,286.492,
60662510,0.743,0.228,-0.634,108.307,10.062,288.435,
60662520,0.752,0.299,-0.539,63.892,12.11,276.587,
60662530,0.924,0.184,-0.365,5.845,-16.817,249.392,
60662540,1.241,0.099,-0.274,-34.895,-52.342,206.78,
60662550,1.42,0.306,-0.285,-53.445,-65.94,151.252,
60662560,1.604,0.238,0.706,-63.262,-14.28,78.277,
60662570,0.662,-1.997,0.114,146.492,306.005,169.225,
60662580,-1.998,-0.926,-0.074,514.902,69.93,70.192,
60662590,-0.566,1.984,0.552,391.195,-186.952,-114.152,
60662600,0.411,0.397,1.661,401.695,-220.587,-30.205,
60662610,-0.271,0.094,1.998,348.967,-339.08,-174.02,
60662620,1.871,1.009,0.643,163.887,-313.355,-167.282,
60662630,0.971,1.123,0.259,-16.345,-84.962,-92.697,
60662640,1.374,-0.458,1.076,-105.927,74.952,45.937,
60662650,-0.486,-0.365,1.266,-91.647,103.845,54.74,
60662660,-0.164,-0.305,1.024,-85.872,69.37,37.625,
60662670,-0.386,-0.999,0.895,-69.79,36.697,11.427,
60662680,-0.215,-0.324,0.841,-44.922,0.542,-26.04,
60662690,0.128,-0.589,0.906,-21.91,-23.992,-51.1,
60662700,0.447,-0.303,0.874,-10.412,-33.95,-58.607,
60662710,0.486,-0.259,0.924,-5.88,-25.462,-41.3,
60662720,0.403,-0.061,1.026,-7.297,-13.3,-20.422,
60662730,0.255,-0.043,1.119,-23.397,-4.55,-8.417,
60662740,0.154,-0.046,1.225,-49.735,2.292,-12.915,
60662750,0.159,-0.011,1.333,-84.122,4.83,-22.785,
60662760,0.183,0.056,1.357,-127.067,2.957,-27.125,
60662760,0.228,0.029,1.218,-165.007,-1.872,-24.675,
60662780,0.268,-0.194,1.111,-195.877,-2.117,-19.32,
60662780,0.205,-0.235,1.143,-214.847,-13.895,-17.22,
60662800,0.034,-0.262,1.101,-223.212,-29.347,-14.945,
60662800,-0.061,-0.486,1.1,-230.86,-46.235,-14.805,
60662820,0.2,-0.566,1.245,-216.685,-65.065,-24.797,
60662820,0.458,-0.799,1.419,-211.137,-77.455,-40.635,
60662830,0.992,-1.562,1.749,-194.985,-44.065,-43.54,
60662840,1.654,-1.998,1.861,-98.787,40.477,-48.3,
60662850,-1.051,-1.399,0.047,103.775,77.612,-119.437,
60662860,-1.792,0.274,-0.456,142.537,12.495,-151.917,
60662870,-0.617,0.098,-0.766,69.79,25.795,-60.235,
60662880,-0.572,-0.666,-0.422,33.442,85.102,51.887,
60662890,-0.434,-0.745,-0.473,49.7,113.68,92.4,
60662900,0.234,-0.395,-0.785,90.58,113.05,123.235,
60662910,0.729,-0.172,-0.899,66.692,117.845,133.21,
60662920,0.888,-0.268,-0.657,5.757,114.607,124.792,
60662930,0.905,-0.384,-0.468,-44.922,88.952,97.912,
60662940,0.91,-0.182,-0.548,-74.55,53.27,61.495,
60662950,0.874,0.121,-0.579,-98.157,42.122,36.522,
60662960,0.481,0.434,-0.096,-112.98,60.847,28.805,
60662970,1.765,-1.443,1.042,-22.61,93.03,66.5,
60662980,-0.944,-0.741,-0.224,467.075,68.687,120.312,
60662990,-1.774,0.766,0.856,327.862,-123.357,-59.027,
60663000,1.327,0.099,1.415,326.305,-146.212,-6.702,
60663010,-1.442,0.409,1.588,367.272,-187.617,-115.36,
60663020,0.902,-0.343,1.99,257.337,-243.25,-152.53,
60663030,1.796,1.654,0.79,128.555,-194.442,-132.072,
60663040,1.529,0.824,0.686,4.9,-58.765,-44.817,
60663050,0.691,-0.049,0.944,-36.295,47.495,35.875,
60663060,-0.209,-0.627,1.02,-38.202,65.222,48.002,
60663070,-0.14,-0.513,0.99,-21.56,38.325,23.782,
60663080,0.037,-0.233,1.002,-11.515,15.347,1.522,
60663090,0.142,-0.222,0.981,-13.055,3.167,-11.13,
60663100,0.376,-0.22,0.922,-12.355,-1.05,-10.43,
60663110,0.224,-0.236,0.974,-6.737,3.587,5.915,
60663120,0.151,-0.081,1.049,-7.245,4.585,14.105,
60663130,0.193,0.017,1.103,-23.695,0.752,12.67,
60663140,0.3,0.012,1.161,-51.257,0.822,12.757,
60663150,0.26,0.027,1.266,-84.175,3.972,17.115,
60663160,0.249,0.02,1.298,-120.102,2.24,25.217,
60663170,0.225,-0.051,1.288,-156.957,-14.612,38.587,
60663170,0.344,-0.127,1.146,-197.487,-21.28,50.347,
60663190,0.245,-0.044,1.116,-219.432,-12.32,47.582,
60663190,0.337,-0.081,0.999,-232.33,-4.305,44.817,
60663210,0.284,-0.284,0.902,-240.222,4.077,39.637,
60663210,0.262,-0.455,0.931,-242.147,10.115,30.082,
60663230,0.514,-0.486,0.922,-245.49,16.24,18.987,
60663230,0.398,-0.821,1.125,-235.217,35.297,24.202,
60663250,0.449,-1.064,1.095,-189.21,31.412,26.897,
60663250,0.221,-1.204,0.949,-139.702,15.995,35.56,
60663260,0.364,-0.7,1.181,-89.32,-32.707,27.772,
60663270,0.538,-0.131,1.395,-45.377,-65.345,13.282,
60663280,0.871,0.452,1.253,29.68,-71.435,-22.715,
60663290,0.179,1.271,0.714,136.692,-48.195,-64.33,
60663300,0.243,1.502,0.745,171.885,-6.125,-79.66,
60663310,-0.294,0.986,0.275,172.497,22.627,-63.665,
60663320,-0.581,0.739,-0.35,209.072,28.437,-58.607,
60663330,-0.567,0.457,-0.571,195.475,40.617,-23.52,
60663340,-0.454,-0.447,-0.576,126.56,44.117,18.217,
60663350,-0.191,-1.292,-0.662,92.47,41.982,35.455,
60663360,0.09,-1.432,-0.89,99.995,34.002,32.742,
60663370,0.443,-1.545,-1.292,87.15,29.715,27.212,
60663380,1.996,-1.987,1.346,0.892,175.84,76.09,
60663390,-1.003,-1.998,-1.005,217.385,122.71,127.68,
60663400,-1.698,0.989,1.139,534.94,-92.75,-98.087,
60663410,1.39,1.997,1.956,436.345,-198.362,-4.427,
60663420,-0.069,-0.607,1.923,262.22,-198.415,20.65,
60663430,-0.482,0.305,0.682,125.982,-265.545,-95.392,
60663440,1.794,1.952,-0.921,97.142,-210.84,-66.342,
60663450,0.738,-0.805,1.305,-163.87,-34.125,38.78,
60663460,1.278,-0.722,0.749,-98.682,2.502,9.625,
60663470,-0.002,-1.106,0.995,-32.48,51.047,20.212,
60663480,-0.374,-0.456,1.124,-5.302,43.032,17.01,
60663490,-0.31,-0.357,1.154,1.837,-3.797,-6.842,
60663500,0.262,-0.227,0.958,-0.262,-44.835,-36.085,
60663510,0.647,0.002,0.827,0.385,-49.262,-39.235,
60663510,0.61,-0.062,0.857,-0.28,-23.152,-19.127,
60663530,0.322,-0.056,0.947,-2.572,-2.397,-4.042,
60663530,0.173,-0.079,1.013,-8.54,0.787,0.577,
60663550,0.196,-0.131,1.009,-17.902,-10.937,-4.935,
60663550,0.317,-0.088,1.003,-27.3,-19.127,-9.905,
60663570,0.302,0.009,1.058,-37.537,-23.467,-9.432,
60663570,0.178,0.018,1.19,-51.537,-27.79,-9.117,
60663580,0.071,0.017,1.278,-68.985,-43.977,-20.545,
60663590,0.354,-0.313,1.075,-100.485,-39.847,-43.977,
60663600,0.053,-0.469,1.407,-149.747,4.375,-68.407,
60663610,0.526,-0.283,0.907,-177.642,15.837,-96.915,
60663620,0.4,-0.217,0.88,-193.462,84.105,-112.875,
60663630,0.091,-0.298,1.243,-227.727,132.772,-124.932,
60663640,0.351,-0.27,0.958,-218.05,129.517,-156.642,
60663650,1.321,-0.872,1.116,-257.407,173.215,-171.412,
60663660,1.984,-1.881,1.025,-272.702,264.95,-166.302,
60663670,0.465,-1.998,1.448,-209.352,358.487,-119.227,
60663680,0.393,-1.983,0.487,-4.147,257.215,-217.997,
60663690,0.101,-0.892,-0.271,107.712,97.107,-288.557,
60663700,0.864,-0.557,-0.712,76.79,33.46,-243.565,
60663710,-0.006,-0.881,-0.444,52.762,42.997,-140.857,
60663720,-0.415,-0.682,-0.217,52.36,17.062,-75.512,
60663730,-0.213,-0.338,-0.136,43.295,-21.7,-20.282,
60663740,0.065,-0.263,-0.18,13.457,-46.917,30.432,
60663750,0.118,-0.237,-0.36,-4.497,-52.395,76.247,
60663760,0.316,-0.071,-0.557,-10.237,-51.17,115.78,
60663770,0.652,0.091,-0.615,-29.977,-38.01,152.827,
60663780,0.932,0.114,-0.546,-63.122,-20.37,183.207,
60663790,1.28,0.148,-0.634,-85.82,-3.71,194.845,
60663800,1.809,1.114,-0.134,-88.252,36.26,179.077,
60663810,-0.192,1.496,1.27,-94.517,211.05,243.25,
60663820,-1.905,0.963,-0.146,403.217,-31.605,304.115,
60663830,1.531,0.532,1.521,357.14,-239.417,292.32,
60663840,-0.799,-0.866,1.928,233.94,-136.692,155.785,
60663850,-0.173,1.527,1.767,282.8,-154.297,-103.197,
60663860,0.922,0.207,1.538,11.41,-171.727,-167.545,
60663870,1.546,0.703,0.748,-34.685,-120.4,-176.767,
60663880,1.21,-0.39,0.747,-56.402,-15.435,-82.687,
60663890,0.305,-0.459,0.937,-35.77,38.745,0.542,
60663900,0.099,-0.383,0.974,-26.32,44.502,29.89,
60663910,-0.161,-0.285,1.021,-18.375,29.172,24.5,
60663920,-0.006,-0.263,0.993,-17.377,10.167,0.315,
60663920,0.154,-0.243,0.965,-15.697,-3.675,-21.717,
60663940,0.279,-0.36,0.92,-13.562,-5.652,-22.557,
60663940,0.33,-0.245,0.95,-9.117,-5.53,-10.657,
60663960,0.29,-0.112,1.043,-12.372,1.645,0.542,
60663960,0.2,-0.106,1.098,-26.057,5.81,3.01,
60663980,0.2,-0.044,1.153,-40.897,9.73,-0.665,
60663980,0.226,-0.123,1.195,-64.242,9.555,-5.267,
60663990,0.267,-0.136,1.194,-85.802,11.34,-14.227,
60664000,0.427,-0.253,1.201,-104.877,25.865,-23.397,
60664010,0.32,-0.249,1.145,-119.367,36.242,-37.187,
60664020,0.818,-0.338,1.515,-130.007,24.22,-47.355,
60664030,1.329,-1.119,1.426,-147.385,83.405,-51.047,
60664040,1.244,-1.789,1.449,-97.667,157.29,-63.437,
60664050,-0.708,-1.998,1.033,14.367,107.135,-134.96,
60664060,0.624,-1.931,0.027,52.325,-101.255,-225.802,
60664070,1.317,-1.069,-0.982,94.85,-135.957,-256.532,
60664080,-0.543,-0.915,-0.62,58.187,-23.765,-203.455,
60664090,-1.139,-0.975,-0.746,1.872,-27.982,-153.387,
60664100,-0.026,-0.553,-0.707,-19.775,-51.852,-96.95,
60664110,0.282,-0.541,-0.377,-60.077,-12.827,-46.602,
60664120,-0.146,-0.585,-0.142,-78.382,31.64,-7.07,
60664130,0.227,0,-0.2,-72.765,37.922,16.047,
60664140,0.611,0.364,-0.314,-83.422,45.552,39.217,
60664150,1.448,1.35,0.772,-97.86,141.155,54.74,
60664160,-1.87,1.494,-0.052,41.02,117.547,71.452,
60664170,0.582,1.033,1.334,464.187,-8.26,142.467,
60664180,-0.601,-1.589,1.943,242.305,-102.445,162.697,
60664190,0.357,1.827,1.141,231.665,-149.765,-88.497,
60664200,1.59,0.353,1.069,-3.15,-142.275,-109.655,
60664210,1.679,0.894,0.572,-47.915,-67.182,-97.37,
60664220,0.75,-0.419,0.963,-65.73,35.315,-11.777,
60664230,-0.112,-0.333,1.068,-44.625,65.415,5.81,
60664240,0.027,-0.398,1.021,-41.107,48.562,-7.595,
60664250,0.085,-0.281,1.014,-38.885,32.935,-19.687,
60664260,0.045,-0.37,0.993,-37.415,24.587,-28.507,
60664260,0.211,-0.418,0.926,-37.24,14.42,-32.27,
60664280,0.284,-0.424,0.917,-32.305,12.075,-19.11,
60664280,0.264,-0.305,0.986,-26.005,11.095,-0.857,
60664300,0.234,-0.131,1.092,-28.07,14.927,9.625,
60664300,0.222,-0.067,1.153,-45.745,16.572,10.342,
60664320,0.319,-0.148,1.19,-70.227,20.51,8.295,
60664320,0.436,-0.264,1.201,-90.877,24.202,5.6,
60664330,0.52,-0.413,1.2,-103.74,35.035,3.78,
60664340,0.468,-0.465,1.144,-100.73,34.037,1.155,
60664350,0.799,-0.536,1.671,-95.357,51.187,12.53,
60664360,1.206,-1.275,1.304,-81.97,117.967,20.335,
60664370,-0.5,-1,0.772,35.175,111.09,-6.545,
60664380,0.131,-1.545,-0.119,65.485,49.087,-4.952,
60664390,1.089,-1.55,-0.366,26.25,-89.372,-21.56,
60664400,0.952,-1.028,-0.479,29.015,-78.645,-34.93,
60664410,-0.067,-0.06,-0.749,45.272,-70.402,-30.66,
60664420,0.144,0.608,-0.313,-15.785,-80.15,-13.982,
60664430,0.255,0.077,0.133,-79.765,-59.657,51.642,
60664440,0.199,0.204,0.288,-64.855,-51.362,75.722,
60664450,0.736,1.425,1.56,-31.08,43.435,106.12,
60664460,-1.998,0.615,1.312,54.477,48.02,168.332,
60664470,0.383,0.385,0.744,268.765,-148.05,227.097,
60664480,0.907,-1.901,1.22,203.7,-157.815,229.617,
60664490,-1.618,0.148,1.607,308.507,-132.072,27.51,
60664500,0.429,-0.059,1.997,266.052,-158.847,-36.767,
60664510,1.93,1.148,0.643,121.047,-158.935,-49.997,
60664520,-0.244,1.196,0.579,29.26,-85.872,-43.977,
60664530,0.767,-0.257,0.922,-61.775,-57.592,11.217,
60664540,1.069,0.166,0.822,-46.095,-32.112,8.452,
60664550,0.514,-0.566,0.97,-68.057,0.577,0.577,
60664560,0.723,-0.49,0.819,-45.482,19.005,-0.822,
60664570,0.175,-0.438,0.942,-29.767,39.655,-3.762,
60664580,0.185,-0.425,0.93,-9.625,36.627,-0.49,
60664590,0.263,-0.411,0.944,9.975,30.765,5.862,
60664600,0.015,-0.339,1.031,25.847,27.58,7.07,
60664610,0.039,-0.216,1.034,34.212,13.44,4.83,
60664620,0.272,-0.129,0.987,34.737,1.382,1.365,
60664630,0.274,-0.341,1.021,34.72,-6.002,-3.832,
60664640,0.521,0.044,0.916,37.52,-3.605,-11.952,
60664650,0.427,0.399,0.741,32.69,13.737,-9.222,
60664660,-0.036,-0.162,0.987,3.605,35.542,15.557,
60664670,0.215,-0.143,0.959,7.682,28.962,22.68,
60664670,0.076,-0.141,0.978,7.157,22.785,16.975,
60664680,0.012,-0.051,0.967,7.245,11.375,12.512,
60664690,0.182,-0.108,0.963,1.942,1.907,11.62,
60664700,0.274,-0.13,0.951,-0.385,-5.302,6.16,
60664710,0.27,-0.104,0.94,-0.857,-3.762,2.905,
60664720,0.293,-0.128,0.945,-1.872,-2.205,3.64,
60664730,0.275,-0.156,0.953,-1.592,2.94,4.497,
60664740,0.21,-0.128,0.955,0.507,3.5,3.78,
60664750,0.183,-0.089,0.948,0.49,4.217,3.85,
60664760,0.2,-0.106,0.949,-1.592,1.435,4.305,
60664770,0.187,-0.124,0.954,-3.552,1.452,4.462,
60664780,0.171,-0.118,0.959,-4.217,-2.467,3.29,
60664790,0.187,-0.112,0.954,-5.967,-4.287,2.415,
60664800,0.206,-0.109,0.951,-8.032,-8.295,0.455,
60664810,0.242,-0.121,0.953,-10.465,-8.68,-1.207,
60664820,0.273,-0.138,0.952,-11.707,-9.66,-3.115,
60664830,0.294,-0.14,0.955,-11.865,-5.932,-2.992,
60664840,0.308,-0.168,0.965,-10.937,-2.117,-0.262,
60664850,0.253,-0.147,0.961,-8.925,3.377,3.307,
60664860,0.224,-0.094,0.959,-8.417,5.092,5.845,
60664870,0.201,-0.111,0.962,-11.69,6.527,8.067,
60664880,0.18,-0.095,0.971,-15.47,4.515,7.017,
60664890,0.195,-0.133,0.975,-20.79,2.362,5.057,
60664900,0.182,-0.13,0.976,-25.007,-0.28,2.065,
60664910,0.212,-0.131,0.978,-29.172,-2.24,0.052,
60664920,0.249,-0.129,0.987,-33.425,-2.712,-0.892,
60664930,0.287,-0.125,0.998,-38.255,-1.172,-0.157,
60664940,0.301,-0.137,1.006,-44.8,3.027,2.415,
60664950,0.252,-0.14,1.016,-52.272,7.437,5.092,
60664960,0.258,-0.211,1.047,-61.215,11.357,7.787,
60664970,0.241,-0.203,1.049,-65.59,11.375,8.067,
60664980,0.185,-0.207,1.073,-75.512,10.92,10.622,
60664990,0.22,-0.245,1.057,-85.242,5.495,13.527,
60665000,0.227,-0.209,1.058,-91,2.59,14.28,
60665010,0.209,-0.189,1.033,-97.352,-2.625,15.645,
60665010,0.177,-0.194,1.005,-103.057,-6.667,17.605,
60665030,0.174,-0.174,0.995,-106.855,-16.135,19.232,
60665030,0.188,-0.214,0.957,-112.052,-23.8,21.875,
60665050,0.195,-0.608,0.983,-111.247,-32.637,19.827,
60665050,0.273,-0.002,0.973,-87.745,-37.695,7.665,
60665070,0.205,-0.288,0.974,-110.862,-37.17,20.16,
60665070,0.269,-0.437,1.041,-107.625,-34.807,24.307,
60665080,0.4,-0.418,1.113,-92.837,-32.287,19.355,
60665090,0.693,-0.275,1.32,-72.905,-9.975,4.06,
60665100,0.403,-0.094,1.005,-38.92,4.007,-6.72,
60665110,0.227,0.064,1.564,-25.83,3.57,-23.607,
60665120,0.16,0.334,0.883,25.532,9.887,-22.75,
60665130,0.324,0.734,0.386,52.447,-20.58,-23.695,
60665140,0.313,0.381,0.699,7.472,0.63,-17.587,
60665150,0.272,0.004,0.886,13.055,6.44,-9.38,
60665160,0.254,0.147,0.823,39.882,-8.137,-31.36,
60665170,0.263,0.309,0.787,57.942,-11.637,-37.222,
60665180,0.217,0.218,0.845,53.13,-12.635,-34.825,
60665190,0.196,0.039,0.931,52.15,-11.83,-32.042,
60665200,0.205,-0.038,0.988,64.277,-13.055,-31.78,
60665210,0.168,-0.093,1.033,78.487,-9.362,-28.297,
60665220,0.124,-0.164,1.032,91.7,-7.35,-21.997,
60665230,0.092,-0.222,1.003,103.705,-6.597,-12.862,
60665240,0.119,-0.268,0.96,113.225,-6.895,-3.185,
60665250,0.15,-0.317,0.922,117.302,-3.972,7.507,
60665260,0.175,-0.428,0.917,120.067,-0.91,16.397,
60665270,0.221,-0.366,0.897,118.685,1.015,21.21,
60665280,0.247,-0.474,0.891,116.305,2.1,28.84,
60665290,0.338,-0.534,0.835,109.357,1.662,26.407,
60665300,0.383,-0.562,0.699,104.002,3.482,25.34,
60665310,0.372,-0.593,0.392,91.56,4.445,23.257,
60665320,0.335,-0.527,0.121,67.97,7.437,20.37,
60665330,0.358,-0.587,0.013,20.51,15.785,20.16,
60665340,0.412,-0.958,-0.157,-36.12,42.857,26.775,
60665350,0.417,-1.33,0.252,-83.142,100.1,26.757,
60665360,0.298,-1.892,1.591,-150.937,72.712,37.87,
60665370,-0.562,-1.998,1.703,-104.685,124.792,74.392,
60665370,-1.659,-0.868,0.968,130.515,27.79,-9.415,
60665390,0.117,1.88,0.751,183.4,-42.105,-60.27,
60665390,0.989,0.964,0.943,69.317,-35.682,17.937,
60665410,0.12,-0.655,1.091,-8.067,-27.247,22.242,
60665410,-0.228,-0.223,1.015,31.71,-39.76,-3.255,
60665420,0.409,0.012,0.942,26.687,-51.922,-11.532,
60665430,0.507,-0.161,0.958,-1.47,-38.36,-8.505,
60665440,0.345,-0.138,0.954,-4.865,-24.132,-8.172,
60665450,0.35,-0.147,0.961,-7.472,-12.442,-5.477,
60665460,0.3,-0.159,0.968,-5.88,-6.3,-2.205,
60665470,0.246,-0.177,0.974,-4.55,0.56,1.452,
60665480,0.234,-0.191,0.974,-2.467,0.875,2.8,
60665490,0.219,-0.185,0.977,-1.96,2.065,1.89,
60665500,0.207,-0.173,0.975,-2.642,-0.77,-0.402,
60665510,0.197,-0.192,0.972,-4.445,-1.33,-2.17,
60665520,0.205,-0.207,0.971,-3.342,-4.987,-3.92,
60665530,0.215,-0.19,0.967,-0.542,-5.267,-4.147,
60665540,0.227,-0.188,0.965,1.75,-6.807,-3.535,
60665550,0.24,-0.181,0.965,3.237,-5.25,-2.327,
60665560,0.249,-0.164,0.963,4.287,-5.25,-1.452,
60665570,0.256,-0.16,0.961,3.185,-2.432,0.052,
60665580,0.269,-0.144,0.955,2.8,-0.927,0.192,
60665590,0.263,-0.148,0.955,1.365,2.712,0.332,
60665600,0.253,-0.139,0.954,0.577,5.285,1.015,
60665610,0.237,-0.148,0.956,-0.28,8.295,1.785,
60665620,0.225,-0.148,0.955,-0.63,9.607,2.117,
60665630,0.21,-0.15,0.957,-1.417,10.762,2.572,
60665640,0.205,-0.149,0.957,-2.047,10.972,2.765,
60665650,0.186,-0.143,0.958,-2.8,10.36,2.66,
60665660,0.177,-0.145,0.956,-4.375,9.362,2.992,
60665670,0.171,-0.146,0.956,-4.182,6.947,2.747,
60665680,0.177,-0.159,0.959,-3.745,4.83,2.275,
60665690,0.178,-0.153,0.954,-2.8,1.907,1.452,
60665700,0.15,-0.136,0.95,-2.38,0.262,1.12,
60665710,0.154,-0.133,0.95,-2.135,-4.095,0.052,
60665720,0.161,-0.144,0.955,-2.415,-6.755,-0.927,
60665730,0.171,-0.141,0.953,-2.222,-10.99,-2.992,
60665740,0.187,-0.141,0.954,-3.517,-12.232,-4.637,
60665750,0.198,-0.138,0.955,-4.865,-14.665,-6.422,
60665760,0.211,-0.135,0.954,-6.632,-13.475,-6.387,
60665760,0.208,-0.145,0.959,-7.385,-13.737,-5.32,
60665780,0.198,-0.146,0.964,-8.68,-11.445,-3.867,
60665780,0.219,-0.116,0.964,-10.36,-12.022,-2.905,
60665800,0.258,-0.082,0.968,-15.26,-8.54,-0.77,
60665800,0.264,-0.065,0.979,-23.537,-6.055,0.892,
60665820,0.225,-0.141,0.983,-34.965,-0.647,0.42,
60665820,0.195,-0.222,0.987,-42.157,-0.542,-2.327,
60665830,0.333,-0.207,0.959,-43.365,2.17,-3.657,
60665840,0.317,-0.191,0.967,-42.822,6.93,-2.957,
60665850,0.261,-0.159,0.989,-43.662,14.472,2.275,
60665860,0.186,-0.256,1.034,-46.375,15.312,7.857,
60665870,0.167,-0.011,0.903,-44.607,13.93,9.012,
60665880,0.194,-0.41,0.937,-50.89,10.377,17.325,
60665890,0.172,-0.259,0.846,-35.892,6.195,12.67,
60665900,0.152,-0.407,0.834,-22.82,1.155,14.84,
60665910,0.092,-0.363,0.853,-1.697,-3.29,11.865,
60665920,0.09,-0.304,0.929,13.352,-10.237,6.16,
60665930,0.154,-0.176,0.985,17.832,-13.982,-3.727,
60665940,0.24,-0.167,1.012,11.655,-15.697,-10.22,
60665950,0.3,-0.122,0.977,2.852,-11.602,-11.585,
60665960,0.313,-0.196,0.97,-5.95,-5.53,-6.965,
60665970,0.288,-0.17,0.99,-11.112,1.96,-2.572,
60665980,0.261,-0.151,1.011,-19.337,7.682,0.157,
60665990,0.245,-0.157,1.012,-29.96,12.285,1.33,
60666000,0.231,-0.196,0.977,-39.76,15.312,2.817,
60666010,0.198,-0.297,0.954,-44.082,16.695,4.427,
60666020,0.184,-0.308,0.918,-42.157,15.82,4.2,
60666030,0.154,-0.317,0.917,-36.54,13.65,3.115,
60666040,0.134,-0.308,0.934,-30.695,11.165,0.91,
60666050,0.149,-0.297,0.957,-26.932,6.93,-2.922,
60666060,0.215,-0.254,1.001,-28.577,5.162,-5.687,
60666070,0.265,-0.219,1.05,-35.595,5.372,-6.09,
60666080,0.354,-0.179,1.103,-49.577,10.71,-2.257,
60666080,0.32,-0.138,1.16,-70.49,16.625,4.725,
60666100,0.324,-0.139,1.178,-95.83,21.665,14.052,
60666100,0.272,-0.107,1.167,-124.687,24.062,22.155,
60666120,0.26,-0.131,1.142,-153.702,27.492,31.36,
60666120,0.181,-0.091,1.081,-178.57,27.615,36.12,
60666140,0.15,-0.151,1.034,-201.057,30.502,39.27,
60666140,0.204,-0.334,1.007,-217.665,34.125,37.695,
60666160,0.338,-0.548,1.019,-230.177,52.237,33.145,
60666160,0.373,-0.905,1.298,-236.022,79.45,27.352,
60666170,0.388,-1.26,1.496,-207.55,102.34,32.042,
60666180,0.464,-1.525,1.204,-154.49,123.445,51.17,
60666190,0.069,-1.998,0.813,-107.555,104.667,62.772,
60666200,0.369,-1.859,0.514,-70.245,-13.615,-24.797,
60666210,0.61,-1.294,-0.137,12.792,-86.345,-69.947,
60666220,-0.196,-0.325,-0.21,59.727,-105.472,-89.302,
60666230,-0.82,-0.133,0.111,8.662,-112.437,-71.872,
60666240,-0.977,-0.37,0.305,-6.492,-116.252,-15.942,
60666250,-0.863,-0.162,0.232,35.087,-116.112,51.362,
60666260,-0.567,0.378,0.095,65.992,-111.79,108.99,
60666270,-0.357,0.699,0.064,55.125,-98.437,148.715,
60666280,0.053,0.874,0.14,32.235,-75.827,164.657,
60666290,0.294,0.947,0.239,17.045,-48.265,165.392,
60666300,0.402,0.963,0.437,0.42,-30.712,144.795,
60666310,0.362,0.097,0.617,-10.167,-28.752,116.847,
60666320,0.681,1.358,0.591,3.272,-44.205,42.7,
60666330,0.199,1.363,0.19,125.615,-68.075,44.817,
60666340,0.352,0.182,0.383,45.307,-32.532,116.375,
60666350,0.79,-1.685,1.176,23.975,78.925,153.597,
60666360,-1.368,-1.998,-1.134,189.647,41.912,224.315,
60666370,0.653,1.435,1.602,378.525,-27.58,-190.207,
60666380,-0.224,1.815,-0.254,279.947,-0.56,-131.565,
60666390,-1.751,-1.546,1.528,109.27,-10.29,62.93,
60666400,-0.709,-0.427,1.339,227.552,-135.8,-28.875,
60666410,-0.033,0.674,1.053,262.097,-162.697,-98.262,
60666420,0.396,-0.413,1.468,159.67,-144.235,-121.257,
60666430,0.722,0.207,1.366,128.8,-126.63,-132.002,
60666440,1.172,0.223,1.289,53.917,-96.11,-97.492,
60666450,1.053,0.062,1.155,-2.922,-57.75,-44.817,
60666460,0.773,0.066,1.019,-38.692,-25.882,9.275,
60666470,0.423,-0.386,0.954,-63.087,-4.182,52.745,
60666480,0.055,-0.417,0.742,-62.09,4.567,56.7,
60666490,-0.059,-0.651,0.674,-42.192,1.767,36.015,
60666500,-0.033,-0.569,0.74,-13.58,1.715,-0.542,
60666510,0.201,-0.47,0.802,10.675,-2.327,-29.592,
60666510,0.291,-0.334,0.91,21.472,4.882,-42.455,
60666530,0.387,-0.219,0.996,20.422,8.907,-42.14,
60666530,0.415,-0.169,1.024,9.205,16.642,-34.877,
60666550,0.396,-0.217,1.002,-3.097,20.947,-25.007,
60666550,0.35,-0.193,1.1,-14.927,28.07,-17.745,
60666570,0.295,-0.089,1.162,-33.057,28.507,-12.53,
60666570,0.233,-0.094,1.176,-58.642,28.717,-6.177,
60666580,0.191,-0.151,1.143,-85.207,23.852,-0.857,
60666590,0.116,-0.208,1.093,-108.325,20.177,2.852,
60666600,0.09,-0.264,1.046,-125.317,11.182,4.69,
60666610,0.031,-0.293,1.011,-140.35,2.572,6.667,
60666620,0.021,-0.348,1.012,-153.702,-8.33,5.6,
60666630,0.028,-0.344,1.017,-161.087,-16.59,2.467,
60666640,0.055,-0.309,1.03,-164.622,-23.992,-2.205,
60666650,0.132,-0.447,1.042,-176.085,-19.197,-5.845,
60666660,0.178,-0.693,1.236,-178.605,-7.84,-5.565,
60666670,0.243,-0.883,1.616,-162.907,6.422,-4.462,
60666680,0.17,-1.234,1.763,-140.385,24.412,-4.62,
60666690,-0.401,-1.422,1.231,-92.645,11.217,2.537,
60666700,-1.529,-1.333,0.556,-24.01,-42.315,-2.555,
60666710,-0.894,-1.345,0.526,4.952,-97.947,-2.152,
60666720,-1.982,-1.043,0.921,50.067,-86.187,52.78,
60666730,-1.21,-0.755,0.347,124.757,-102.007,121.065,
60666740,-0.395,-0.508,-0.174,178.412,-67.83,193.147,
60666750,0.253,-0.372,-0.165,193.917,7.28,238.647,
60666760,0.679,-0.319,-0.439,204.242,77.63,246.172,
60666770,0.742,-0.059,-0.745,202.842,141.872,238.262,
60666780,0.661,0.162,-0.84,160.125,179.445,208.792,
60666790,0.581,0.162,-0.563,60.217,159.985,141.802,
60666800,0.509,-0.113,-0.189,-42.227,114.38,68.127,
60666810,0.566,-0.33,0.017,-91.35,88.55,15.05,
60666820,0.23,-0.334,0.157,-79.922,88.497,-23.432,
60666830,-0.739,-0.131,1.157,-80.272,-14.437,-94.57,
60666830,1.695,-1.047,1.988,21.332,-245.28,-172.287,
60666850,1.232,-1.998,0.28,241.045,-60.83,-96.302,
60666850,-1.705,-0.808,0.861,324.24,-31.342,-171.867,
60666870,0.668,0.404,0.264,307.72,-88.602,-170.572,
60666870,-0.095,0.566,1.239,322.56,-118.755,-100.905,
60666890,0.235,-0.29,1.511,276.78,-181.51,-75.267,
60666890,0.19,0.1,1.968,267.365,-185.447,-67.27,
60666910,1.015,1.456,1.262,153.247,-146.597,-85.627,
60666910,1.325,1.109,0.865,-5.162,-76.72,-65.992,
60666920,1.153,-0.068,0.979,-85.802,-0.997,-16.94,
60666930,0.682,-0.288,0.968,-101.64,59.29,28.752,
60666940,0.067,-0.534,0.839,-93.695,85.557,53.585,
60666950,-0.318,-0.782,0.814,-58.677,71.96,49.315,
60666960,-0.439,-0.505,0.879,-20.09,34.387,14.262,
60666970,-0.319,-0.53,0.902,7.542,-3.535,-31.377,
60666980,0.123,-0.308,0.946,34.055,-39.532,-71.155,
60666990,0.508,-0.045,1.008,40.95,-45.885,-77.262,
60667000,0.598,0.021,0.996,22.785,-28.56,-56.455,
60667010,0.5,0.034,1.011,-0.367,-2.8,-29.82,
60667020,0.27,-0.067,1.077,-20.93,15.085,-15.487,
60667030,0.167,-0.053,1.103,-41.93,22.382,-12.81,
60667040,0.141,-0.075,1.153,-62.02,20.842,-19.88,
60667050,0.295,-0.176,1.207,-85.085,22.592,-30.38,
60667060,0.14,0.215,1.24,-113.575,33.757,-42.997,
60667070,0.232,-0.081,1.238,-157.902,40.355,-47.477,
60667080,0.219,-0.105,1.075,-186.322,44.292,-56.997,
60667090,0.227,-0.196,0.979,-213.692,59.675,-66.202,
60667100,0.266,-0.261,0.981,-237.107,78.575,-74.007,
60667110,0.221,-0.37,1.021,-259.367,96.827,-81.287,
60667120,0.476,-0.57,1.409,-278.057,111.807,-90.457,
60667130,1.207,-0.977,1.871,-270.707,195.405,-102.287,
60667140,0.927,-1.535,1.574,-225.802,333.62,-126.42,
60667150,0.305,-1.891,0.927,-147.332,374.675,-180.74,
60667160,1.926,-1.991,1.54,-113.032,301.087,-323.277,
60667170,-0.074,-1.998,1.237,-44.327,216.65,-451.605,
60667180,-1.997,-1.699,0.4,96.845,62.16,-535.29,
60667190,-1.74,-0.302,-0.497,147.595,-40.232,-486.692,
60667200,-1.843,-0.212,-0.791,99.242,-40.39,-335.632,
60667210,-1.998,-0.505,-0.388,54.74,-17.22,-161.77,
60667220,-1.931,-0.485,-0.287,37.852,-24.692,-16.327,
60667230,-1.407,-0.357,-0.195,31.08,-28.665,121.73,
60667240,-0.884,-0.588,-0.153,18.987,-32.025,231.822,
60667250,-0.261,-0.809,-0.096,10.745,-35.857,278.722,
60667260,0.434,-0.672,-0.179,6.86,-29.505,276.255,
60667260,0.841,-0.358,-0.227,-3.92,-4.602,258.335,
60667280,0.892,-0.159,-0.21,-30.52,19.057,234.482,
60667280,0.842,-0.149,-0.018,-65.397,25.9,206.395,
60667300,0.868,-0.166,0.172,-95.62,17.552,177.31,
60667300,0.956,-0.097,0.367,-110.46,-1.942,148.452,
60667320,1.052,0.102,0.447,-105.367,-20.212,129.605,
60667320,1.316,0.322,0.43,-94.115,-33.81,106.417,
60667330,1.662,0.603,0.42,-78.732,-19.355,80.097,
60667340,1.741,0.388,0.574,-80.255,4.672,39.515,
60667350,1.683,0.918,0.527,-54.425,-1.837,-40.145,
60667360,-0.732,-0.336,1.857,106.575,-84,-69.58,
60667370,-0.079,-1.998,-0.025,145.18,-57.925,132.632,
60667380,-0.663,-0.434,-0.667,466.235,-75.162,48.895,
60667390,-0.571,1.814,0.823,284.305,-163.17,-134.715,
60667400,-1.664,-0.775,0.939,236.845,-148.242,-72.922,
60667410,0.812,0.124,1.646,222.407,-192.5,-130.042,
60667420,0.205,0.513,1.584,194.162,-175.297,-187.582,
60667430,1.396,-0.289,1.374,98,-139.912,-182.385,
60667440,1.32,0.325,1.139,58.467,-90.317,-161.507,
60667450,1.19,0.156,1.075,14.402,-54.81,-89.442,
60667460,0.975,0.066,0.916,-8.137,-28.542,-12.127,
60667470,0.466,-0.303,0.881,-34.212,2.345,44.66,
60667480,0.046,-0.367,0.742,-25.112,20.002,43.75,
60667490,-0.204,-0.686,0.755,3.01,17.132,15.802,
60667500,-0.073,-0.422,0.848,36.47,-0.91,-21.752,
60667510,0.195,-0.238,0.995,52.85,-17.202,-45.972,
60667520,0.43,-0.11,0.998,46.41,-21.542,-46.497,
60667530,0.424,-0.14,0.995,29.995,-13.492,-35.07,
60667540,0.313,-0.17,0.972,16.187,-3.272,-20.825,
60667550,0.288,-0.119,1.032,8.54,-1.015,-15.172,
60667560,0.32,-0.116,1.022,-4.585,0.752,-11.725,
60667570,0.241,-0.203,0.974,-16.222,1.61,-7.962,
60667580,0.199,-0.288,0.93,-19.897,2.887,-7.892,
60667580,0.236,-0.272,0.911,-16.45,-0.665,-10.972,
60667600,0.296,-0.261,0.918,-13.405,0,-8.977,
60667600,0.372,-0.23,0.935,-12.617,1.12,-1.137,
60667620,0.414,-0.149,0.993,-17.465,8.785,11.672,
60667620,0.378,-0.107,1.061,-30.012,14.98,26.407,
60667640,0.314,-0.125,1.11,-49.14,20.492,38.78,
60667640,0.339,-0.106,1.166,-71.435,17.937,47.705,
60667660,0.353,-0.052,1.251,-101.342,16.905,58.87,
60667660,0.366,-0.199,1.233,-138.582,12.407,70.63,
60667670,0.537,0.073,1.207,-169.522,20.93,76.002,
60667680,0.565,0.026,1.138,-204.452,48.755,79.73,
60667690,0.629,-0.139,1.182,-238.542,89.39,82.53,
60667700,0.846,-0.298,1.22,-263.252,132.405,86.065,
60667710,1.11,-0.678,1.4,-283.272,189.875,99.015,
60667720,1.155,-1.415,1.243,-277.13,257.197,119.525,
60667730,1.424,-1.823,1.175,-242.182,320.215,137.69,
60667740,1.687,-1.362,0.973,-193.235,372.207,121.712,
60667750,1.053,-0.696,0.184,-150.22,377.842,106.26,
60667760,-0.12,-0.848,0.368,-138.337,314.037,85.715,
60667770,0.606,-0.576,0.835,-148.417,208.162,93.52,
60667780,0.567,-0.205,1.409,-118.16,83.825,82.67,
60667790,0.228,0.341,1.932,-91.122,-67.252,42.7,
60667800,0.452,1.064,1.702,-32.235,-222.022,18.935,
60667810,1.208,1.496,1.366,29.067,-319.41,-5.967,
60667820,1.23,1.862,1.203,79.362,-333.97,-30.695,
60667830,1.158,1.431,1.099,112.087,-307.632,-60.882,
60667840,0.937,1.006,0.98,136.272,-275.012,-130.532,
60667850,0.464,0.439,0.599,173.11,-231.105,-181.982,
60667860,-0.081,-0.065,0.176,190.61,-186.76,-218.102,
60667870,-0.811,-0.439,-0.106,171.167,-160.44,-243.81,
60667880,-1.397,-0.708,-0.235,146.807,-136.342,-239.4,
60667890,-1.946,-0.883,-0.164,132.895,-106.032,-184.975,
60667900,-1.998,-1.244,-0.01,115.57,-86.502,-103.285,
60667910,-1.998,-1.497,-0.035,110.022,-68.11,13.597,
60667920,-1.739,-1.585,-0.545,116.305,-55.125,136.167,
60667930,-1.226,-1.861,-1.182,116.042,-48.702,212.415,
60667940,-0.513,-1.998,0.399,105.087,70.21,288.68,
60667950,-0.132,-1.998,-0.413,270.602,243.005,399.21,
60667960,-1.414,0.988,1.095,524.615,-132.055,16.817,
60667970,0.107,1.997,0.192,409.867,-144.742,-96.285,
60667980,-0.347,-0.544,0.864,173.687,-5.25,74.515,
60667990,0.104,0.177,1.935,210.192,-112.297,-99.68,
60668000,1.541,0.803,1.242,164.622,-214.795,-153.457,
60668010,1.996,1.648,0.461,-8.89,-106.032,-76.02,
60668010,0.778,-0.027,1.168,-86.695,50.697,34.877,
60668030,-0.208,-0.639,1.173,-99.085,82.635,59.185,
60668030,-0.317,-0.271,0.816,-69.825,50.96,19.582,
60668050,0.051,-0.625,0.933,-73.657,24.587,12.81,
60668050,0.048,-0.353,0.828,-53.532,9.887,-16.03,
60668070,0.267,-0.501,0.785,-34.755,-3.027,-18.987,
60668070,0.445,-0.422,0.85,-12.39,-0.962,-13.335,
60668080,0.295,-0.231,0.956,1.347,7.42,0.262,
60668090,0.253,-0.121,1.043,-0.945,14.752,8.207,
60668100,0.195,-0.106,1.075,-15.26,15.855,9.135,
60668110,0.193,-0.13,1.091,-34.632,16.922,4.392,
60668120,0.237,-0.126,1.129,-53.917,13.265,0.28,
60668130,0.372,-0.083,1.166,-75.915,12.355,-0.752,
60668140,0.427,-0.061,1.211,-103.197,19.18,4.182,
60668150,0.466,-0.06,1.188,-134.172,25.637,20.615,
60668160,0.344,-0.137,1.152,-167.65,30.625,41.825,
60668170,0.296,-0.501,1.149,-190.715,34.65,49.735,
60668180,0.018,0.249,1.024,-176.155,36.802,47.092,
60668190,0.059,-0.188,1.101,-217.315,42.315,65.257,
60668200,0.034,-0.488,1.267,-230.842,40.25,58.345,
60668210,0.158,-0.734,1.522,-226.292,33.967,46.322,
60668220,0.686,-1.507,1.788,-228.865,77.437,45.937,
60668230,-0.312,-1.998,1.27,-183.19,139.037,79.87,
60668240,-1.833,-1.998,1.004,-95.48,111.842,72.03,
60668250,-1.596,-1.746,0.149,45.062,-40.722,50.645,
60668260,-0.051,-0.677,-0.436,115.815,-136.342,89.11,
60668270,0.742,-0.377,-0.181,82.67,-59.5,136.115,
60668280,0.356,-0.526,0.303,65.17,38.867,141.68,
60668290,-0.057,0.245,0.097,107.222,57.96,102.602,
60668300,0.267,1.258,-0.261,150.36,49.35,67.952,
60668310,0.799,1.903,-0.184,118.72,62.93,21.245,
60668320,0.555,1.669,0.14,52.43,105.91,-22.662,
60668330,-0.08,1.117,0.166,48.265,130.725,-52.937,
60668330,-0.246,1.065,-0.132,89.6,110.722,-75.827,
60668350,-0.156,0.975,-0.357,92.452,83.055,-71.75,
60668350,-0.122,0.423,-0.35,43.575,85.522,-42.192,
60668370,-0.22,-0.241,-0.225,14.945,96.162,-4.06,
60668370,-0.018,-0.534,-0.344,5.302,98.455,7.752,
60668390,-0.55,-1.104,-0.552,2.187,96.285,48.755,
60668390,-1.651,-1.686,0.789,-124.355,-151.025,-1.907,
60668410,0.858,-1.993,1.197,115.99,-329.752,81.795,
60668410,1.65,1.576,1.054,461.702,-221.97,-117.145,
60668420,-0.62,1.784,0.274,401.52,-211.19,-129.552,
60668430,-0.296,-1.768,1.764,69.877,-216.055,-33.635,
60668440,0.337,0.518,1.409,213.237,-264.057,-145.88,
60668450,1.932,0.267,1.404,123.007,-205.45,-135.537,
60668460,1.889,0.651,1.057,10.972,-83.982,-60.025,
60668470,0.993,0.032,1.081,-45.272,22.75,12.705,
60668480,0.042,-0.132,1.053,-68.407,68.25,54.127,
60668490,-0.509,-0.559,0.969,-69.93,57.75,57.47,
60668500,-0.349,-0.443,0.868,-58.24,20.895,23.03,
60668510,-0.14,-0.44,0.876,-38.43,-8.312,-18.06,
60668520,0.171,-0.428,0.815,-19.232,-27.545,-40.967,
60668530,0.344,-0.459,0.77,0.28,-27.982,-45.272,
60668540,0.355,-0.356,0.846,22.82,-20.02,-38.692,
60668550,0.257,-0.193,0.976,34.107,-12.582,-27.125,
60668560,0.184,-0.122,1.042,29.75,-10.43,-21.612,
60668570,0.204,-0.105,1.052,16.66,-9.66,-22.942,
60668580,0.33,-0.022,1.078,0.402,-6.772,-26.232,
60668590,0.448,-0.025,1.057,-21.262,4.55,-24.5,
60668600,0.38,-0.153,1.014,-41.405,20.72,-13.965,
60668610,0.207,-0.221,0.983,-51.135,29.575,-3.587,
60668620,0.145,-0.23,1.01,-54.775,28.787,0.962,
60668630,0.192,-0.296,1.064,-59.885,23.852,1.732,
60668640,0.246,-0.12,1.032,-66.85,21.682,4.042,
60668650,0.292,-0.295,1.078,-80.902,21.052,16.467,
60668660,0.258,-0.275,1.099,-91.227,21.455,26.285,
60668670,0.215,-0.257,1.167,-104.597,19.652,33.932,
60668680,0.148,-0.215,1.253,-125.125,21.105,38.727,
60668690,0.153,-0.196,1.375,-153.615,17.815,37.712,
60668700,0.177,-0.289,1.523,-184.012,23.712,33.652,
60668710,0.336,-0.436,1.538,-208.547,47.285,27.527,
60668720,0.957,-0.87,1.109,-217.77,123.305,28.577,
60668730,0.216,-1.929,1.146,-229.6,226.327,40.845,
60668740,0.578,-1.998,1.068,-183.12,266.227,-1.785,
60668750,-0.557,-1.996,-0.128,-94.167,302.102,-4.497,
60668760,-1.174,-1.323,0.003,-43.452,275.87,-1.4,
60668760,-0.644,-1.167,0.258,-50.68,237.055,61.18,
60668780,-0.214,-1.178,0.635,-40.617,154.892,104.002,
60668780,0.34,-0.793,0.759,-8.89,42.262,111.51,
60668800,0.58,-0.474,0.55,10.587,-65.467,112.367,
60668800,0.752,-0.38,0.373,-1.137,-157.325,96.092,
60668810,0.881,-0.395,0.343,-11.042,-223.475,67.445,
60668820,0.987,-0.387,0.248,-6.265,-261.747,30.625,
60668830,0.946,-0.397,0.077,9.817,-264.075,-9.065,
60668840,0.807,-0.332,-0.094,25.427,-241.675,-46.987,
60668850,0.402,-0.072,-0.298,42.595,-213.972,-78.102,
60668860,-0.045,0.424,-0.368,42.437,-203.752,-98.105,
60668870,-0.325,0.68,-0.362,17.342,-201.407,-95.007,
60668880,-0.295,0.813,-0.144,-10.99,-187.53,-68.11,
60668890,-0.209,0.871,0.037,-27.107,-159.267,-28.332,
60668900,-0.045,0.903,0.014,-19.775,-133.332,8.015,
60668910,0.235,1.021,-0.275,8.015,-106.767,32.305,
60668920,0.461,1.18,-0.482,21.017,-83.86,35.647,
60668930,0.543,0.984,-0.486,-5.95,-68.617,15.312,
60668940,0.663,-0.343,-0.555,-49.21,-57.942,-38.815,
60668950,0.908,-1.64,1.717,62.195,73.15,-61.11,
60668960,-1.131,-1.998,0.437,378.577,369.372,389.2,
60668970,1.084,0.731,1.275,488.6,-89.46,22.977,
60668980,-0.134,1.97,0.274,457.31,-83.737,-103.985,
60668990,-1.699,-1.377,1.836,314.982,-69.65,-12.705,
60669000,0.227,1.13,1.998,291.112,-204.347,-152.617,
60669010,1.719,1.002,1.309,107.17,-203.857,-158.917,
60669020,1.963,1.184,0.772,-31.972,-92.732,-88.287,
60669030,0.941,-0.066,1.061,-91.647,47.232,18.112,
60669040,-0.055,-0.427,1.024,-99.732,84.507,71.732,
60669050,-0.404,-0.726,0.915,-89.145,59.062,77.682,
60669060,-0.432,-0.473,0.905,-67.795,21.507,44.24,
60669070,-0.26,-0.375,0.985,-49.91,-16.485,0,
60669080,0.223,-0.393,0.922,-40.512,-43.54,-29.207,
60669080,0.497,-0.416,0.89,-35.717,-45.325,-27.93,
60669100,0.456,-0.181,1.011,-37.152,-30.257,-14.402,
60669100,0.357,-0.035,1.173,-52.22,-21.735,-1.732,
60669120,0.306,-0.018,1.248,-84.962,-15.242,9.502,
60669120,0.194,-0.05,1.322,-120.96,-16.73,9.817,
60669140,0.268,-0.026,1.302,-163.135,-16.905,6.58,
60669140,0.483,-0.013,1.113,-206.85,-6.93,0.35,
60669160,0.62,-0.039,1.045,-250.32,43.732,-6.685,
60669160,0.045,-0.227,1.112,-291.34,68.967,-17.99,
60669170,0.258,-0.349,0.922,-309.452,65.695,-34.457,
60669180,0.479,-0.841,1.467,-325.745,71.26,-38.465,
60669190,0.944,-1.519,1.906,-320.162,141.085,-31.85,
60669200,0.377,-1.839,1.378,-240.117,193.76,-35.175,
60669210,0.213,-1.911,0.8,-187.162,135.695,-112.262,
60669220,1.936,-1.814,0.454,-134.015,48.93,-204.575,
60669230,-0.532,-1.165,0.487,-13.685,5.04,-293.212,
60669240,-1.998,-0.429,0.922,-28.98,-125.79,-406.227,
60669250,-1.998,0.291,0.394,-28.577,-148.732,-343.822,
60669260,-1.998,0.982,0.221,44.205,-106.172,-158.567,
60669270,-1.686,1.115,0.689,70.577,-20.387,42.105,
60669280,-0.686,0.586,0.836,92.172,43.715,188.282,
60669290,0,0.196,0.606,140.525,84.035,247.922,
60669300,0.586,-0.332,0.284,208.915,127.207,236.11,
60669310,0.958,0.604,-0.369,274.802,172.847,163.432,
60669320,0.378,0.184,-0.692,245.315,213.85,119.735,
60669330,0.047,-0.385,-0.507,152.845,221.9,97.93,
60669340,-0.056,-0.967,-0.267,93.38,177.467,71.312,
60669350,0.066,-1.154,-0.217,62.65,132.44,47.512,
60669360,0.377,-1.112,-0.363,43.767,116.025,25.445,
60669370,-0.615,-1.28,-0.894,26.775,106.312,-0.227,
60669380,0.615,-1.6,1.998,-41.912,-174.51,-118.387,
60669390,0.24,-1.998,1.395,190.417,-173.95,-125.755,
60669400,-1.113,0.396,1.409,373.52,-116.865,-221.987,
60669410,1.98,1.667,0.358,317.537,-201.565,-206.045,
60669420,-0.033,-1.43,1.559,204.715,-124.005,-102.217,
60669430,1.217,0.329,1.38,237.3,-127.96,-94.517,
60669440,0.714,0.982,1.518,151.007,-77.892,-44.292,
60669450,0.6,0.725,1.281,40.127,-28.647,-5.355,
60669460,0.564,0.117,1.132,-45.937,2.922,12.092,
60669470,0.33,-0.284,0.935,-80.062,20.755,20.825,
60669480,0.139,-0.545,0.798,-72.905,27.685,23.887,
60669490,0.108,-0.557,0.816,-45.762,20.667,16.572,
60669500,0.144,-0.25,0.923,-26.407,15.207,7.647,
60669500,0.085,-0.274,0.955,-19.932,8.102,0.122,
60669510,0.201,-0.283,0.947,-17.01,2.555,-5.705,
60669520,0.276,-0.297,0.922,-15.155,-1.295,-5.32,
60669530,0.28,-0.298,0.926,-13.335,2.205,0.525,
60669540,0.282,-0.21,0.968,-11.865,3.43,6.615,
60669550,0.213,-0.138,1.049,-17.307,7.21,10.272,
60669560,0.219,-0.082,1.09,-31.237,4.27,12.11,
60669570,0.275,-0.142,1.072,-49.28,3.36,18.357,
60669580,0.318,-0.172,1.06,-64.312,0.56,28.612,
60669590,0.302,-0.205,1.081,-74.025,1.645,36.067,
60669600,0.217,-0.143,1.084,-86.747,-0.227,51.292,
60669610,0.195,-0.241,1.161,-109.847,-7.455,65.31,
60669620,0.196,-0.129,1.18,-130.182,-17.325,63.892,
60669630,0.072,-0.17,1.185,-158.847,-20.562,62.702,
60669640,0.07,-0.052,1.135,-186.917,-25.042,53.602,
60669650,0.076,-0.286,1.052,-212.642,-17.622,45.36,
60669660,0.412,-0.353,1.02,-237.107,9.975,25.672,
60669670,0.682,-0.509,1.262,-265.212,80.15,13.615,
60669680,0.584,-0.96,1.507,-266.682,156.59,9.485,
60669690,1.098,-1.401,1.731,-234.482,199.762,14.017,
60669700,0.632,-1.955,1.722,-193.235,273.997,41.79,
60669710,0.061,-1.876,1.033,-90.632,294.682,-6.422,
60669720,-0.852,-1.262,-0.42,68.075,199.657,-99.015,
60669730,-0.762,-0.269,0.121,33.617,44.257,-101.15,
60669740,0.215,-0.767,0.273,-13.44,-32.252,-17.867,
60669750,0.132,-1.047,0.33,25.462,-68.652,27.265,
60669760,-0.198,-0.674,0.373,71.137,-112.455,22.102,
60669770,-0.439,-0.447,0.208,94.237,-149.695,43.522,
60669780,-0.344,-0.227,-0.009,105.21,-177.87,57.225,
60669790,-0.291,0.022,-0.066,101.71,-172.165,68.11,
60669800,-0.373,0.081,-0.136,87.132,-140.77,83.772,
60669810,-0.471,0.151,-0.198,75.985,-103.687,107.117,
60669820,-0.502,0.323,-0.241,62.72,-73.552,136.657,
60669830,-0.35,0.415,-0.233,47.53,-51.607,171.36,
60669830,0.05,0.502,-0.351,32.602,-29.207,204.505,
60669850,0.416,0.464,-0.561,32.497,0.052,233.887,
60669850,0.491,0.45,-0.748,21.682,23.275,238.472,
60669870,0.335,0.617,-0.714,-22.61,11.182,214.585,
60669870,0.275,0.504,-0.256,-92.61,-26.145,188.142,
60669890,0.381,-0.316,-0.114,-133.752,-58.607,171.517,
60669890,-0.285,-1.649,0.885,-111.387,-42.98,116.305,
60669910,1.294,-1.998,-0.844,178.517,-88.69,206.972,
60669910,-1.908,0.655,1.065,492.152,-128.975,18.515,
60669920,1.297,1.973,0.105,268.73,-217.612,-228.357,
60669930,0.18,-1.097,1.941,128.642,-176.767,41.737,
60669940,-0.626,-0.658,1.462,187.88,-193.585,-124.39,
60669950,0.93,0.232,1.197,199.08,-172.252,-186.147,
60669960,1.231,-0.048,1.286,106.19,-133.21,-151.165,
60669970,1.318,0.279,1.056,76.79,-88.392,-99.102,
60669980,1.134,-0.178,1.041,26.88,-37.135,-20.702,
60669990,0.486,-0.111,1.15,0.052,9.572,33.022,
60670000,0.122,-0.088,1.143,-31.622,16.975,50.61,
60670010,0.049,-0.279,1.062,-58.117,6.177,46.182,
60670020,0.046,-0.364,0.99,-68.862,-3.395,28.682,
60670030,0.176,-0.345,0.971,-72.922,-5.985,11.76,
60670040,0.347,-0.298,1.019,-78.89,-7.07,4.69,
60670050,0.446,-0.224,1.071,-91.77,1.312,9.607,
60670060,0.409,-0.196,1.054,-110.04,9.94,21.402,
60670070,0.362,-0.22,1.051,-129.657,19.495,32.025,
60670080,0.314,-0.27,1.027,-148.487,26.04,36.4,
60670090,0.184,-0.301,1.026,-167.72,30.327,35.472,
60670100,0.099,-0.318,1.008,-187.652,23.38,32.392,
60670110,0.109,-0.332,1.029,-203.595,15.242,30.66,
60670120,0.241,-0.473,1.064,-213.045,20.615,33.022,
60670130,0.574,-0.744,1.031,-219.345,42.7,35.017,
60670140,0.335,-1.057,1.132,-216.65,72.362,30.975,
60670150,0.7,-1.178,1.459,-194.635,86.607,17.202,
60670160,0.226,-1.27,1.702,-172.882,91.805,6.807,
60670170,-0.429,-1.093,0.991,-107.817,68.915,-20.055,
60670170,0.195,-1.125,0.789,-45.552,19.565,-18.007,
60670190,0.529,-0.964,0.284,10.412,-35.49,-53.375,
60670190,-1.354,-0.071,0.457,51.73,-73.762,-99.54,
60670210,-1.574,0.433,0.555,21.525,-110.267,-106.487,
60670210,-1.665,0.51,0.46,59.99,-108.955,-5.092,
60670230,-1.127,0.62,0.458,109.795,-79.52,107.257,
60670230,-0.516,0.669,0.383,135.712,-47.495,188.737,
60670250,0.019,0.701,0.317,154.49,-20.265,219.45,
60670250,0.634,0.515,0.077,175.962,7.962,216.457,
60670260,1.286,0.432,-0.574,204.75,49.472,186.952,
60670270,1.511,0.486,-1.009,215.74,110.04,136.797,
60670280,1.018,0.146,-0.976,159.862,115.237,52.097,
60670290,0.506,0.027,-0.727,93.957,39.462,-41.545,
60670300,1.06,-1.365,-0.526,54.145,12.267,-64.627,
60670310,-1.223,-1.998,0.089,8.242,76.877,125.317,
60670320,-1.203,-0.361,0.584,439.792,-94.185,-84.315,
60670330,-0.26,1.997,-0.603,441.402,-218.225,-338.502,
60670340,0.797,0.879,1.561,250.792,-129.482,14.927,
60670350,-1.527,-1.604,1.761,224,-131.512,-45.22,
60670360,1.115,1.001,1.57,318.867,-227.185,-165.585,
60670370,1.334,0.115,1.637,159.862,-202.982,-130.515,
60670380,1.811,1.005,0.955,72.8,-120.767,-78.872,
60670390,1.407,0.397,1.078,-18.427,-10.955,7.385,
60670400,0.573,0.129,1.192,-80.622,58.712,63.49,
60670410,-0.188,-0.251,1.122,-115.08,75.215,87.377,
60670420,-0.272,-0.526,0.831,-115.5,45.5,71.207,
60670430,-0.261,-0.694,0.687,-86.397,15.172,34.545,
60670440,-0.091,-0.554,0.735,-46.182,-6.72,-2.992,
60670450,0.109,-0.481,0.745,-10.027,-21.402,-24.727,
60670460,0.27,-0.446,0.79,22.645,-29.627,-28.927,
60670470,0.234,-0.379,0.853,43.032,-27.527,-24.762,
60670480,0.19,-0.234,0.984,55.895,-26.985,-24.587,
60670490,0.273,-0.113,1.04,50.802,-29.05,-25.392,
60670500,0.35,-0.043,1.063,35.437,-27.807,-23.502,
60670510,0.438,0.09,1.132,13.667,-20.912,-16.905,
60670520,0.479,0.083,1.142,-21.07,-9.642,-4.147,
60670530,0.425,-0.09,1.062,-53.672,2.31,11.62,
60670540,0.321,-0.179,1.016,-71.47,9.905,24.377,
60670550,0.251,-0.244,1.039,-77.91,9.73,28.98,
60670560,0.198,-0.126,1.018,-81.27,5.145,27.947,
60670570,0.215,-0.328,1.03,-94.78,0.367,30.31,
60670580,0.233,-0.248,1.026,-99.295,-2.957,24.202,
60670580,0.217,-0.28,1.036,-112.595,-4.917,23.467,
60670600,0.187,-0.253,1.035,-126.735,0.63,19.775,
60670600,0.172,-0.235,1.087,-147.245,6.597,13.317,
60670620,0.172,-0.172,1.132,-173.442,18.235,1.207,
60670620,0.328,-0.224,0.982,-198.555,36.872,-12.792,
60670640,0.53,-0.341,1.088,-223.597,78.155,-18.2,
60670640,0.663,-0.596,1.38,-262.71,134.295,-37.415,
60670660,0.704,-1.324,1.357,-278.705,227.045,-49.262,
60670660,0.742,-1.983,1.22,-247.047,322.245,-57.697,
60670670,0.435,-1.987,0.754,-201.512,407.977,-107.765,
60670680,0.067,-1.998,-0.063,-86.292,418.705,-205.887,
60670690,0.631,-1.724,0.035,3.272,352.012,-277.865,
60670700,-0.895,-1.251,-0.176,58.275,234.01,-323.68,
60670710,-1.333,-0.632,0.149,59.15,91.682,-315.297,
60670720,-0.785,-0.592,0.101,57.75,-28.122,-242.76,
60670730,-0.909,-0.387,-0.103,90.65,-93.8,-171.325,
60670740,-1.122,-0.02,-0.125,94.535,-124.862,-92.925,
60670750,-1.252,-0.021,-0.249,68.197,-135.765,11.585,
60670760,-1.065,-0.006,-0.223,43.82,-139.212,106.032,
60670770,-0.628,-0.04,-0.067,16.59,-121.362,187.372,
60670780,-0.147,-0.236,0.037,-2.152,-90.44,253.085,
60670790,0.253,-0.319,-0.059,5.25,-61.757,294.017,
60670800,0.649,-0.2,-0.392,25.06,-50.61,310.415,
60670810,1.216,-0.084,-0.694,36.54,-37.257,306.477,
60670820,1.772,-0.017,-0.906,22.575,-14.525,276.15,
60670830,1.972,0.039,-0.895,-7.875,9.992,221.217,
60670840,1.075,0.158,0.15,-47.95,-5.04,135.87,
60670850,-0.174,-1.295,1.998,-69.422,-159.897,47.04,
60670860,0.939,-1.98,-1.639,429.24,55.195,164.552,
60670870,-1.598,1.647,1.382,462.035,-197.365,-6.422,
60670880,1.958,0.881,0.791,211.557,-179.427,-96.967,
60670890,-1.232,-1.403,1.643,233.747,-159.547,-101.535,
60670900,1.068,1.304,1.502,269.062,-214.165,-243.915,
60670910,1.577,-0.227,1.5,138.022,-181.58,-212.975,
60670920,1.894,0.309,1.07,67.9,-108.132,-131.232,
60670920,1.307,0.17,1.043,14.875,-17.412,-15.277,
60670940,0.412,-0.042,1.053,-22.505,47.897,54.057,
60670940,-0.262,-0.383,1.001,-37.992,57.102,64.557,
60670960,-0.275,-0.437,0.945,-34.475,34.685,31.675,
60670960,-0.031,-0.313,0.937,-23.94,10.15,-3.552,
60670980,0.224,-0.323,0.934,-19.88,-0.175,-20.44,
60670980,0.393,-0.325,0.935,-18.69,-0.84,-17.15,
60671000,0.373,-0.246,0.973,-20.23,9.327,-0.962,
60671000,0.213,-0.208,1.058,-26.635,15.855,12.95,
60671010,0.117,-0.138,1.126,-40.425,17.587,15.312,
60671020,0.155,-0.1,1.21,-60.305,9.555,10.22,
60671030,0.354,-0.046,1.286,-89.687,9.065,11.795,
60671040,0.372,-0.043,1.258,-125.825,18.165,21.56,
60671050,0.308,-0.094,1.192,-164.657,32.41,34.44,
60671060,0.297,-0.053,1.182,-198.887,42.157,41.72,
60671070,0.443,-0.222,1.171,-226.362,60.62,47.11,
60671080,0.599,-0.235,1.294,-236.757,79.17,46.042,
60671090,1.301,-0.664,1.903,-247.257,149.8,53.865,
60671100,1.51,-1.128,1.838,-213.465,276.657,62.16,
60671110,0.827,-1.81,1.294,-164.622,401.327,46.217,
60671120,-0.445,-1.998,1.333,-103.897,340.165,-22.295,
60671130,1.1,-1.962,0.644,13.86,116.2,-136.447,
60671140,1.611,-0.785,-0.305,126.525,-26.407,-229.092,
60671150,0.549,-0.257,-0.701,107.362,-44.135,-265.247,
60671160,-0.468,-0.161,-0.59,52.745,-48.44,-270.812,
60671170,-0.736,0.035,-0.634,44.38,-34.982,-246.242,
60671180,-0.94,0.566,-0.806,53.41,-18.637,-211.487,
60671190,-1.144,1.088,-0.525,14.735,5.372,-168.542,
60671200,-1.038,0.758,-0.109,-56.98,35.857,-106.662,
60671210,-1.028,0.193,0.474,-82.407,61.442,-46.41,
60671220,-0.953,-0.141,0.585,-49.945,55.632,-14,
60671230,-0.749,-0.179,0.214,2.1,39.042,14.105,
60671240,-0.489,-0.201,-0.27,31.045,34.492,54.25,
60671250,-0.309,-0.461,-0.527,23.327,36.47,107.8,
60671260,0.067,-0.968,-0.549,1.295,38.762,158.55,
60671270,0.251,-1.599,-0.482,-9.975,28,173.792,
60671280,-0.283,-1.987,1.787,-30.275,-59.36,152.495,
60671290,-1.972,-1.998,0.854,116.882,-203.455,157.395,
60671300,0.306,0.476,-0.32,458.745,-170.327,105.577,
60671310,1.439,1.75,1.592,350.577,-181.282,-39.427,
60671320,-1.887,-1.155,0.907,201.075,-90.09,-14.332,
60671330,-0.546,0.071,1.309,301.402,-167.195,-134.89,
60671330,0.331,0.415,1.575,283.85,-258.597,-214.27,
60671350,1.871,-0.17,1.466,159.967,-242.9,-206.132,
60671350,1.961,0.81,0.909,93.66,-122.762,-103.547,
60671370,1.144,0.498,1.024,15.802,15.75,5.81,
60671370,0.245,-0.025,1.113,-36.907,81.445,61.477,
60671390,-0.373,-0.481,1.023,-55.405,78.68,62.597,
60671390,-0.324,-0.497,0.919,-45.797,49.297,33.81,
60671410,-0.07,-0.312,0.93,-28.77,18.147,1.12,
60671410,0.114,-0.359,0.918,-18.672,3.255,-18.375,
60671420,0.243,-0.32,0.927,-6.72,-4.41,-24.29,
60671430,0.356,-0.161,0.991,-3.307,-0.595,-16.45,
60671440,0.302,-0.093,1.065,-12.915,8.697,-5.757,
60671450,0.256,-0.037,1.115,-33.127,20.37,-0.052,
60671460,0.185,-0.157,1.135,-56,24.622,-1.33,
60671470,0.23,0.056,1.169,-74.41,27.265,-8.925,
60671480,0.187,-0.168,1.252,-105.297,31.832,-4.777,
60671490,0.265,-0.053,1.183,-130.76,27.475,-3.692,
60671500,0.282,-0.132,1.135,-159.075,23.922,4.777,
60671510,0.157,-0.162,1.022,-180.267,34.265,10.535,
60671520,0.137,-0.209,1.021,-198.887,36.155,11.182,
60671530,0.131,-0.189,0.999,-212.817,40.95,9.835,
60671540,0.022,-0.344,1.057,-224.892,38.307,5.04,
60671550,0.103,-0.38,1.083,-236.88,28.577,-3.797,
60671560,0.241,-0.497,1.175,-253.4,37.345,-7.262,
60671570,0.168,-0.831,1.4,-255.867,64.977,-6.475,
60671580,0.071,-1.137,1.543,-246.295,95.777,-2.8,
60671590,-0.253,-1.03,1.745,-213.045,94.167,-9.782,
60671600,-0.576,-0.6,1.531,-181.475,58.03,-35.84,
60671610,-0.693,-0.477,1.193,-149.502,15.47,-50.802,
60671620,-0.696,-0.526,1.23,-117.162,-18.97,-30.747,
60671630,-0.728,-0.351,1.268,-59.395,-42.507,-11.112,
60671640,-1.715,-0.026,1.216,10.972,-56.647,2.817,
60671650,-0.867,0.583,1.084,76.72,-78.277,64.155,
60671660,-0.081,0.667,0.479,162.067,-61.18,192.36,
60671670,0.127,0.41,-0.135,214.742,-40.617,265.615,
60671670,0.424,0.473,-0.73,225.33,-26.197,286.037,
60671690,0.675,0.516,-1.036,209.3,-30.992,302.05,
60671690,1.1,0.176,-0.829,138.635,-61.32,290.727,
60671710,1.246,-0.476,-0.413,54.215,-106.417,243.6,
60671710,1.01,-0.906,-0.122,14.07,-150.815,176.75,
60671730,0.874,-0.814,-0.139,25.13,-177.555,122.237,
60671730,0.626,-0.93,-0.4,32.952,-171.22,93.03,
60671750,0.301,0.278,-0.397,34.895,-152.687,72.887,
60671750,0.537,-1.066,-0.868,129.167,-129.85,94.552,
60671760,-1.427,-1.998,0.666,40.215,9.187,190.487,
60671770,0.208,-1.998,-1.271,136.832,52.692,297.99,
60671780,-0.157,0.701,0.242,531.492,-44.572,3.622,
60671790,-1.225,1.997,0.722,443.38,-155.155,-87.22,
60671800,-0.665,-0.815,1.15,78.347,-79.327,105.7,
