#Format version: 1.0
time[ms],accX[g],accY[g],accZ[g],Value 1,Value 2,Value 3,
51889800,-0.972,0.208,0.117,0.927,-7.7,-3.29,
51889810,-0.965,0.203,0.114,0.945,-7.297,-2.73,
51889820,-0.974,0.206,0.108,1.645,-6.072,-1.452,
51889830,-1.007,0.205,0.101,2.012,-6.16,-0.157,
51889830,-1.032,0.213,0.106,2.572,-7.227,0.087,
51889850,-1.052,0.24,0.12,3.622,-9.765,-0.7,
51889850,-1.042,0.25,0.114,2.66,-11.9,-4.025,
51889870,-0.965,0.216,0.1,1.05,-12.075,-9.397,
51889870,-0.893,0.21,0.086,0.192,-10.517,-11.83,
51889890,-0.863,0.188,0.101,0.525,-9.677,-5.197,
51889890,-1.048,0.209,0.124,-0.98,-9.887,3.15,
51889910,-1.161,0.214,0.162,-2.8,-13.685,-0.28,
51889910,-1.011,0.246,0.143,-4.707,-19.652,-9.537,
51889920,-0.886,0.214,0.131,-5.337,-16.765,-11.06,
51889930,-1.022,0.147,0.098,-6.877,-13.562,-6.265,
51889940,-0.991,0.164,0.125,-3.85,-15.592,-7.787,
51889950,-0.836,0.221,0.134,-0.962,-14.77,-6.667,
51889960,-0.877,0.2,0.144,-0.805,-7.07,-0.017,
51889970,-1.113,0.159,0.127,-2.59,-2.327,5.302,
51889980,-1.063,0.222,0.156,0.542,-7.542,1.12,
51889990,-0.942,0.25,0.156,1.067,-7.087,-3.972,
51890000,-0.943,0.179,0.107,-2.432,-3.132,-4.217,
51890010,-0.959,0.158,0.111,-1.225,-4.865,-1.697,
51890020,-0.928,0.223,0.15,1.487,-6.86,1.54,
51890030,-0.999,0.224,0.146,-0.122,-4.27,4.13,
51890040,-1.075,0.19,0.132,-2.24,-4.55,2.94,
51890050,-1.015,0.208,0.149,-1.172,-8.365,-1.47,
51890060,-0.951,0.208,0.152,-1.61,-8.82,-3.237,
51890070,-0.955,0.188,0.136,-2.66,-6.545,-1.942,
51890080,-0.96,0.207,0.132,-2.222,-4.795,-1.05,
51890090,-0.946,0.199,0.135,-2.625,-3.815,0.35,
51890100,-1.018,0.179,0.146,-3.325,-3.797,2.642,
51890110,-1.076,0.199,0.15,-2.66,-6.282,1.155,
51890120,-0.961,0.219,0.15,-2.555,-7.857,-3.027,
51890130,-0.928,0.197,0.135,-3.027,-4.637,-2.572,
51890140,-0.997,0.182,0.133,-3.692,-2.432,0.175,
51890150,-1.008,0.195,0.137,-3.622,-4.095,-0.367,
51890160,-0.937,0.196,0.142,-3.517,-5.022,-1.33,
51890170,-0.955,0.176,0.145,-3.115,-3.255,0.875,
51890170,-1.028,0.184,0.151,-1.557,-2.607,3.15,
51890190,-1.001,0.228,0.158,-0.577,-3.937,1.82,
51890190,-0.976,0.221,0.136,-1.872,-2.537,0.297,
51890210,-0.996,0.182,0.11,-3.255,-2.222,-0.612,
51890210,-0.981,0.177,0.12,-1.452,-4.235,-0.875,
51890230,-0.959,0.204,0.139,0.385,-5.372,0.21,
51890230,-0.994,0.2,0.131,0.122,-3.867,1.54,
51890250,-1.013,0.187,0.119,0.21,-3.92,1.277,
51890250,-0.985,0.191,0.132,1.522,-5.04,0.577,
51890260,-0.983,0.187,0.156,2.537,-6.492,0.472,
51890270,-0.914,0.188,0.183,3.027,-7.297,0.682,
51890280,-0.87,0.213,0.225,3.465,-1.137,3.535,
51890290,-0.954,0.22,0.216,-0.735,4.182,8.96,
51890300,-0.997,0.223,0.193,-4.952,6.405,10.36,
51890310,-0.995,0.215,0.163,-6.895,7.735,8.417,
51890320,-0.956,0.2,0.139,-7.84,8.715,6.737,
51890330,-0.964,0.194,0.134,-5.617,11.62,7.315,
51890340,-1.005,0.206,0.127,-3.692,13.387,7.927,
51890350,-1.017,0.215,0.109,-3.272,12.04,6.807,
51890360,-1.023,0.211,0.093,-2.852,9.03,4.847,
51890370,-1.059,0.206,0.08,-2.817,3.78,2.765,
51890380,-1.053,0.209,0.079,-2.765,-3.675,-0.665,
51890390,-1.022,0.206,0.086,-2.835,-9.94,-3.657,
51890400,-1.016,0.19,0.092,-3.185,-13.072,-4.69,
51890410,-1.009,0.19,0.116,-2.432,-15.155,-5.057,
51890420,-0.969,0.206,0.143,-1.19,-15.627,-5.477,
51890430,-0.95,0.198,0.155,-1.207,-13.422,-4.917,
51890440,-0.948,0.187,0.162,-0.84,-10.5,-3.482,
51890450,-0.948,0.198,0.168,0.14,-8.732,-1.68,
51890460,-0.957,0.206,0.161,-0.122,-6.387,-0.192,
51890470,-0.978,0.199,0.145,-0.577,-4.48,0.665,
51890480,-0.992,0.201,0.137,-0.245,-4.357,0.84,
51890490,-0.986,0.207,0.134,-0.035,-5.88,0.385,
51890500,-0.988,0.2,0.125,-0.332,-6.562,-0.017,
51890510,-0.992,0.192,0.123,-0.035,-7.91,-0.28,
51890520,-0.985,0.195,0.134,0.682,-9.1,-0.28,
51890530,-0.985,0.201,0.154,0.857,-9.747,-0.017,
51890540,-0.987,0.205,0.166,0.122,-9.572,0.21,
51890550,-0.986,0.204,0.167,-0.787,-9.695,-0.087,
51890560,-0.973,0.199,0.162,-1.575,-8.872,-0.262,
51890570,-0.963,0.195,0.171,-1.435,-7.192,0.017,
51890580,-0.969,0.202,0.175,-1.365,-5.162,0.735,
51890580,-0.967,0.205,0.17,-2.065,-4.235,1.032,
51890600,-0.972,0.201,0.165,-3.22,-2.992,1.645,
51890600,-0.989,0.226,0.177,-5.127,-1.96,2.625,
51890620,-1.078,0.239,0.176,-11.077,-3.43,2.135,
51890620,-1.062,0.215,0.149,-19.267,-11.427,-1.295,
51890640,-1.012,0.181,0.124,-22.522,-17.307,-3.937,
51890640,-0.965,0.155,0.106,-21.857,-21.28,-3.867,
51890660,-0.902,0.163,0.113,-17.605,-19.915,-1.4,
51890660,-0.933,0.17,0.139,-12.162,-16.467,1.995,
51890670,-0.96,0.179,0.153,-8.697,-13.02,4.655,
51890680,-0.975,0.179,0.172,-4.707,-11.69,5.057,
51890690,-0.94,0.193,0.177,-0.437,-8.662,4.882,
51890700,-0.963,0.211,0.189,3.15,-3.465,5.267,
51890710,-0.998,0.216,0.186,3.85,-0.77,4.812,
51890720,-0.987,0.22,0.176,4.27,-0.402,2.8,
51890730,-0.988,0.212,0.16,4.13,-0.017,0.98,
51890740,-0.99,0.198,0.148,3.675,-0.297,-0.105,
51890750,-0.998,0.2,0.159,4.112,-1.715,-0.612,
51890760,-0.996,0.204,0.168,3.727,-3.045,-1.312,
51890770,-0.996,0.195,0.168,2.8,-3.99,-2.135,
51890780,-0.98,0.192,0.169,3.01,-4.305,-2.642,
51890790,-0.967,0.191,0.171,3.727,-3.955,-2.537,
51890800,-0.969,0.186,0.17,4.567,-3.482,-1.96,
51890810,-0.977,0.168,0.175,6.125,-5.635,-1.435,
51890820,-0.887,0.194,0.193,9.397,-5.197,-0.402,
51890830,-0.941,0.231,0.219,10.675,2.117,2.59,
51890840,-1.033,0.218,0.184,4.707,4.112,3.78,
51890850,-0.992,0.202,0.158,1.837,2.012,1.557,
51890860,-0.988,0.196,0.147,2.292,1.435,0.822,
51890870,-0.986,0.193,0.151,1.802,-0.052,1.015,
51890880,-0.976,0.201,0.162,2.66,-1.557,0.997,
51890890,-0.977,0.206,0.17,1.942,-2.047,1.015,
51890900,-0.989,0.194,0.158,0.175,-2.415,1.155,
51890910,-0.989,0.194,0.159,0.122,-3.465,1.155,
51890920,-0.984,0.206,0.173,-0.052,-4.06,1.26,
51890920,-0.99,0.209,0.178,-1.592,-5.04,0.98,
51890940,-0.985,0.2,0.171,-3.465,-6.037,0.42,
51890940,-0.973,0.192,0.177,-4.462,-6.51,0.175,
51890960,-0.967,0.199,0.185,-4.497,-5.617,0.612,
51890960,-0.967,0.203,0.185,-4.375,-4.637,0.98,
51890980,-0.964,0.199,0.182,-5.005,-3.622,1.242,
51890980,-0.952,0.211,0.185,-5.652,-1.627,1.82,
51891000,-0.992,0.234,0.176,-8.365,2.45,2.66,
51891000,-1.104,0.201,0.143,-13.702,-0.612,1.05,
51891010,-1.012,0.175,0.122,-14.21,-8.575,-3.762,
51891020,-0.931,0.175,0.151,-9.03,-10.535,-5.215,
51891030,-0.935,0.195,0.175,-6.352,-7.402,-2.765,
51891040,-0.984,0.2,0.179,-6.422,-5.11,-0.612,
51891050,-0.985,0.172,0.182,-6.772,-7.157,-0.56,
51891060,-0.906,0.188,0.185,-3.237,-4.76,-0.332,
51891070,-0.969,0.207,0.185,-1.155,0.77,2.17,
51891080,-1,0.196,0.162,-2.625,1.907,2.747,
51891090,-0.988,0.186,0.132,-0.245,1.592,1.82,
51891100,-0.996,0.187,0.121,2.922,1.89,1.592,
51891110,-1.014,0.194,0.119,5.18,1.032,1.032,
51891120,-1.01,0.195,0.128,7.315,-1.487,-0.385,
51891130,-1.001,0.197,0.142,8.26,-4.217,-1.505,
51891140,-1,0.2,0.163,8.225,-6.09,-2.257,
51891150,-1.001,0.195,0.174,7.56,-7.84,-3.342,
51891160,-0.977,0.167,0.18,8.19,-10.395,-4.602,
51891170,-0.879,0.177,0.187,11.9,-10.937,-3.937,
51891180,-0.87,0.217,0.228,15.855,-3.447,-0.245,
51891190,-0.994,0.209,0.209,13.44,4.007,3.57,
51891200,-1.005,0.205,0.197,11.077,3.832,2.817,
51891210,-0.968,0.209,0.193,11.042,3.045,0.595,
51891220,-0.959,0.208,0.187,9.257,5.11,0.507,
51891230,-1.004,0.21,0.171,7.035,6.597,1.452,
51891240,-1.024,0.217,0.171,3.57,5.022,0.857,
51891250,-1.004,0.204,0.16,0.035,0.735,-1.295,
51891260,-0.974,0.186,0.152,-1.47,-1.907,-2.467,
51891270,-0.968,0.181,0.159,-2.012,-3.43,-1.575,
51891280,-0.977,0.189,0.167,-2.59,-4.147,0.035,
51891290,-0.983,0.196,0.172,-3.185,-4.672,0.682,
51891300,-0.977,0.199,0.183,-4.41,-4.777,0.84,
51891310,-0.979,0.196,0.18,-6.405,-5.792,1.26,
51891320,-0.956,0.203,0.183,-8.47,-5.18,2.082,
51891330,-0.972,0.23,0.176,-11.725,0.84,3.692,
51891330,-1.124,0.192,0.138,-18.497,-1.032,3.36,
51891350,-0.992,0.169,0.119,-20.457,-10.605,-1.75,
51891350,-0.925,0.167,0.142,-14.052,-9.695,-3.01,
51891370,-0.963,0.183,0.163,-10.517,-6.142,-0.402,
51891370,-0.996,0.189,0.169,-8.26,-5.88,0.612,
51891390,-0.926,0.187,0.179,-5.442,-7.77,0,
51891390,-0.926,0.203,0.19,-2.065,-2.17,1.487,
51891410,-1.004,0.205,0.186,-1.96,1.767,2.975,
51891410,-0.985,0.197,0.161,-2.31,1.61,1.715,
51891420,-0.978,0.185,0.141,0.21,1.89,0.735,
51891430,-0.995,0.19,0.13,2.17,2.467,0.962,
51891440,-1.006,0.193,0.12,4.2,1.592,0.455,
51891450,-0.989,0.184,0.113,6.405,0.367,-0.472,
51891460,-0.988,0.183,0.127,8.347,-0.752,-0.35,
51891470,-1.006,0.18,0.129,9.345,-3.517,-0.07,
51891480,-0.998,0.166,0.149,11.217,-8.54,-1.015,
51891490,-0.881,0.184,0.186,15.907,-11.392,-1.96,
51891500,-0.899,0.222,0.234,19.267,-1.137,0.997,
51891510,-1.071,0.205,0.198,15.26,3.272,4.147,
51891520,-0.984,0.218,0.19,11.935,-0.14,0.997,
51891530,-0.985,0.216,0.191,10.535,0.857,-0.91,
51891540,-1.013,0.208,0.169,5.582,1.155,-0.875,
51891550,-1.016,0.208,0.165,2.45,-1.802,-1.61,
51891560,-0.988,0.194,0.157,-1.26,-5.25,-2.747,
51891570,-0.967,0.174,0.162,-3.272,-7.595,-2.695,
51891580,-0.959,0.189,0.189,-2.66,-7.49,-1.137,
51891590,-0.958,0.206,0.218,-4.322,-7.122,0.227,
51891600,-0.946,0.204,0.232,-8.102,-6.212,1.592,
51891610,-0.93,0.209,0.221,-12.302,-5.18,3.675,
51891620,-0.938,0.24,0.208,-16.975,5.39,6.772,
51891630,-1.149,0.197,0.154,-24.5,7.822,7.577,
51891640,-1.016,0.177,0.122,-27.667,-1.26,1.225,
51891650,-0.921,0.146,0.123,-20.44,-4.182,-2.467,
51891660,-0.827,0.163,0.144,-11.375,-0.42,0.577,
51891670,-0.965,0.222,0.162,-4.532,10.71,7.14,
51891670,-1.14,0.195,0.124,-6.58,8.137,7.752,
51891690,-0.972,0.169,0.099,-4.06,0.157,0.63,
51891690,-0.922,0.188,0.12,5.582,2.957,-0.735,
51891710,-1.01,0.189,0.098,7.367,4.41,2.345,
51891710,-1.016,0.185,0.085,9.117,0.525,2.625,
51891730,-1.02,0.195,0.098,12.145,-3.517,1.575,
51891730,-1.051,0.182,0.105,12.53,-8.54,-0.297,
51891750,-0.978,0.169,0.141,16.205,-18.06,-4.042,
51891750,-0.811,0.218,0.22,22.802,-14.035,-4.987,
51891760,-0.996,0.207,0.229,22.225,-2.03,0.717,
51891770,-1.042,0.208,0.206,18.165,-0.052,0.997,
51891780,-0.954,0.213,0.197,18.025,-1.33,-2.502,
51891790,-0.961,0.2,0.171,15.207,2.327,-2.45,
51891800,-1.012,0.19,0.154,12.267,1.487,-0.857,
51891810,-0.978,0.209,0.164,10.832,-0.49,-0.875,
51891820,-1.016,0.215,0.172,8.12,-0.262,-0.84,
51891830,-1.008,0.211,0.173,3.587,-2.415,-1.75,
51891840,-0.979,0.206,0.175,0.787,-3.307,-2.835,
51891850,-0.957,0.189,0.171,-1.207,-4.182,-2.765,
51891860,-0.913,0.191,0.176,-1.68,-2.992,-1.225,
51891870,-0.935,0.192,0.173,-1.33,-0.315,1.942,
51891880,-0.955,0.196,0.157,-2.87,0.752,4.567,
51891890,-0.96,0.192,0.147,-3.517,1.137,5.845,
51891900,-0.984,0.183,0.125,-3.465,0.402,7.105,
51891910,-0.999,0.189,0.125,-2.887,-3.097,8.435,
51891920,-1,0.206,0.151,-3.552,-7.035,9.082,
51891930,-0.992,0.206,0.159,-6.02,-10.64,8.907,
51891940,-0.964,0.193,0.159,-7.647,-11.76,9.222,
51891950,-1.02,0.213,0.188,-7.77,-10.465,11.095,
51891960,-0.936,0.232,0.166,-8.662,-10.272,11.2,
51891970,-1.077,0.186,0.126,-12.652,-6.615,9.047,
51891980,-1.032,0.197,0.119,-11.06,-8.977,5.985,
51891990,-1.005,0.216,0.155,-7.665,-11.147,2.572,
51892000,-0.964,0.211,0.163,-8.505,-11.847,0.665,
51892010,-0.954,0.226,0.187,-7.315,-9.905,0.63,
51892020,-0.983,0.206,0.194,-9.065,-8.592,1.172,
51892030,-0.945,0.208,0.191,-9.292,-6.86,0.98,
51892040,-0.978,0.21,0.205,-8.05,-4.042,1.68,
51892050,-0.958,0.198,0.184,-9.642,-4.042,1.785,
51892060,-0.963,0.21,0.172,-6.877,-0.84,2.065,
51892070,-1.006,0.206,0.167,-6.615,0.28,2.362,
51892080,-0.988,0.208,0.165,-6.79,-0.332,1.102,
51892080,-0.978,0.21,0.158,-6.107,-0.77,0.157,
51892100,-0.975,0.184,0.137,-6.527,-1.645,0.227,
51892100,-0.962,0.169,0.123,-2.852,-2.397,0.98,
51892110,-0.984,0.195,0.136,2.922,-1.505,2.275,
51892120,-1.013,0.209,0.132,5.6,-1.47,1.977,
51892130,-1.004,0.204,0.127,6.965,-2.52,0.245,
51892140,-0.992,0.199,0.136,8.522,-4.882,-0.997,
51892150,-0.993,0.186,0.147,9.922,-7.14,-1.452,
51892160,-0.926,0.167,0.18,14.21,-12.11,-2.292,
51892170,-0.829,0.23,0.244,21.262,-5.705,-0.822,
51892180,-0.976,0.246,0.245,20.755,4.69,3.517,
51892190,-1.033,0.23,0.188,14.245,4.62,3.64,
51892200,-0.987,0.23,0.168,11.27,2.432,1.242,
51892210,-1.033,0.213,0.151,7.297,1.207,0.595,
51892220,-0.997,0.221,0.163,4.287,-2.03,-0.577,
51892230,-0.99,0.221,0.17,1.505,-4.06,-1.137,
51892240,-0.976,0.202,0.171,-2.397,-5.372,-1.505,
51892250,-0.975,0.195,0.179,-3.71,-6.3,-0.857,
51892260,-0.954,0.207,0.183,-4.34,-6.282,0.105,
51892270,-0.955,0.209,0.188,-5.022,-5.057,0.945,
51892280,-0.95,0.214,0.198,-6.317,-3.727,2.117,
51892290,-0.941,0.24,0.209,-9.1,0.157,3.797,
51892300,-1.069,0.252,0.185,-15.802,6.562,5.075,
51892310,-1.103,0.206,0.146,-24.815,0.875,0.98,
51892320,-1,0.207,0.107,-26.757,-3.99,-4.637,
51892330,-1.02,0.16,0.11,-23.975,-7.875,-7.14,
51892340,-0.887,0.18,0.14,-17.675,-8.75,-7.14,
51892350,-0.987,0.206,0.198,-9.17,-4.707,-4.795,
51892360,-0.911,0.182,0.196,-10.325,-6.335,-3.92,
51892370,-0.886,0.205,0.205,-4.235,-0.28,-1.82,
51892380,-0.966,0.191,0.188,-2.73,4.392,1.347,
51892390,-0.934,0.191,0.161,-1.225,5.145,2.52,
51892400,-0.953,0.216,0.166,3.43,7.805,3.815,
51892410,-1.003,0.2,0.115,2.345,8.137,4.585,
51892420,-1.029,0.19,0.097,4.147,5.565,3.955,
51892420,-1.049,0.203,0.109,5.652,0.315,2.782,
51892440,-1.044,0.175,0.113,5.407,-8.33,-0.14,
51892440,-0.862,0.16,0.157,10.727,-14.945,-2.747,
51892460,-0.859,0.203,0.213,19.022,-6.335,1.4,
51892460,-0.973,0.223,0.23,19.075,0.822,6.195,
51892480,-1.011,0.233,0.194,15.942,4.252,6.02,
51892480,-1.019,0.226,0.171,13.195,3.097,3.762,
51892500,-1.004,0.224,0.151,9.852,2.17,1.837,
51892500,-1.037,0.222,0.155,7.472,0.402,0.77,
51892510,-1.014,0.227,0.16,3.062,-2.502,-0.752,
51892520,-1.019,0.215,0.169,-0.752,-4.76,-2.625,
51892530,-0.965,0.189,0.168,-3.972,-7.525,-4.025,
51892540,-0.93,0.195,0.192,-3.325,-7.332,-2.922,
51892550,-0.946,0.21,0.198,-4.06,-5.302,-0.472,
51892560,-0.964,0.203,0.184,-6.037,-3.36,0.892,
51892570,-0.98,0.22,0.185,-6.842,-1.837,1.75,
51892580,-1.016,0.25,0.169,-10.605,1.977,2.012,
51892590,-1.112,0.209,0.126,-17.447,-1.032,-0.087,
51892600,-0.992,0.191,0.106,-20.65,-9.1,-4.235,
51892610,-0.975,0.19,0.111,-18.55,-11.777,-4.655,
51892620,-0.923,0.18,0.167,-17.85,-13.072,-3.342,
51892630,-0.952,0.22,0.196,-15.697,-8.417,-0.49,
51892640,-1.018,0.21,0.225,-18.06,-8.312,0.017,
51892650,-0.934,0.173,0.199,-21.017,-9.555,-1.12,
51892660,-0.876,0.177,0.213,-14.297,-4.812,-0.105,
51892670,-0.901,0.209,0.201,-10.465,3.745,3.43,
51892680,-1.024,0.19,0.155,-10.097,7.822,6.055,
51892690,-0.997,0.182,0.119,-7.7,4.427,4.532,
51892700,-0.966,0.196,0.114,-2.222,3.185,3.097,
51892710,-1.025,0.2,0.107,0.787,2.555,3.167,
51892720,-1.055,0.198,0.091,2.135,-0.962,1.505,
51892730,-1.027,0.194,0.114,3.412,-6.982,-1.382,
51892740,-0.979,0.187,0.142,4.497,-11.042,-2.975,
51892750,-0.962,0.179,0.159,6.23,-12.827,-2.625,
51892760,-0.962,0.149,0.174,9.257,-17.815,-1.767,
51892770,-0.745,0.201,0.248,15.925,-15.102,0.28,
51892780,-0.947,0.236,0.254,19.617,0.63,7.752,
51892780,-1.061,0.215,0.216,13.562,3.605,8.855,
51892800,-0.991,0.208,0.178,12.897,0.962,4.917,
51892800,-0.958,0.225,0.18,14.245,1.155,2.59,
51892820,-0.975,0.222,0.165,11.34,4.9,3.045,
51892820,-1.054,0.214,0.155,8.26,2.852,3.465,
51892830,-1.008,0.219,0.156,4.672,-1.61,1.05,
51892840,-0.994,0.201,0.157,2.467,-3.272,-0.647,
51892850,-0.992,0.204,0.163,1.19,-3.605,-0.805,
51892860,-0.987,0.203,0.169,-0.157,-5.145,-0.857,
51892870,-0.97,0.197,0.169,-1.137,-6.125,-0.735,
51892880,-0.966,0.2,0.168,-0.98,-6.265,-0.105,
51892890,-0.978,0.204,0.168,-0.98,-5.617,0.472,
51892900,-0.982,0.205,0.169,-1.067,-5.372,0.192,
51892910,-0.982,0.206,0.182,-1.68,-5.81,0.07,
51892920,-0.991,0.211,0.191,-3.71,-7.07,0.472,
51892930,-0.97,0.213,0.203,-6.79,-8.767,0.49,
51892940,-0.94,0.229,0.196,-10.36,-7.927,1.207,
51892950,-1.024,0.234,0.181,-16.012,-3.447,2.73,
51892960,-1.098,0.188,0.149,-21.7,-7.035,0.717,
51892970,-0.917,0.193,0.174,-19.932,-11.235,-3.027,
51892980,-0.918,0.218,0.204,-15.732,-5.845,-2.082,
51892990,-0.939,0.181,0.189,-17.552,-3.587,0.035,
51893000,-0.906,0.189,0.199,-13.247,-0.332,2.257,
51893010,-0.97,0.199,0.206,-9.397,2.607,4.165,
51893020,-0.932,0.215,0.186,-8.522,5.197,4.235,
51893030,-1.015,0.206,0.173,-6.212,7.455,4.322,
51893040,-0.989,0.192,0.147,-6.265,3.5,3.08,
51893050,-0.938,0.205,0.16,-1.54,3.535,2.012,
51893060,-0.992,0.208,0.166,0.245,5.845,2.695,
51893070,-1.01,0.201,0.147,-0.157,5.005,2.082,
51893080,-1.01,0.2,0.147,0.91,2.94,0.525,
51893090,-1.011,0.193,0.125,0.91,0.857,-0.962,
51893100,-1.019,0.187,0.119,2.117,-1.382,-2.17,
51893110,-1.04,0.171,0.097,4.55,-8.33,-3.71,
51893120,-0.871,0.172,0.144,9.8,-17.342,-5.547,
51893130,-0.853,0.207,0.201,17.097,-10.237,-1.907,
51893140,-1.046,0.221,0.209,17.08,-1.89,2.992,
51893150,-1.045,0.216,0.19,12.215,-5.565,1.085,
51893160,-0.974,0.211,0.189,10.185,-5.355,-2.38,
51893170,-1.029,0.199,0.177,7.052,-3.412,-2.642,
51893170,-0.975,0.204,0.183,3.64,-5.285,-3.36,
51893190,-0.972,0.21,0.187,2.117,-4.357,-3.307,
51893190,-0.979,0.194,0.172,-1.977,-4.445,-2.45,
51893210,-0.96,0.19,0.184,-3.272,-6.09,-1.75,
51893210,-0.949,0.209,0.204,-3.675,-5.95,-0.525,
51893230,-0.96,0.211,0.203,-5.477,-4.777,0.56,
51893230,-0.959,0.21,0.205,-6.177,-2.957,0.997,
51893250,-0.936,0.24,0.211,-7.63,4.007,1.925,
51893250,-1.114,0.207,0.162,-13.23,8.295,2.502,
51893260,-1.042,0.21,0.118,-18.427,0.035,-1.75,
51893270,-0.996,0.194,0.136,-17.885,-7.07,-5.232,
51893280,-0.955,0.181,0.139,-19.67,-9.485,-5.127,
51893290,-1.009,0.183,0.171,-16.73,-10.167,-3.832,
51893300,-1.012,0.177,0.185,-16.73,-14.21,-4.375,
51893310,-0.91,0.173,0.206,-14.875,-17.255,-4.847,
51893320,-0.93,0.203,0.202,-11.095,-11.55,-2.782,
51893330,-0.998,0.155,0.189,-11.077,-10.99,-1.68,
51893340,-0.886,0.167,0.184,-5.827,-10.045,-1.19,
51893350,-0.902,0.197,0.201,0.647,-4.375,1.347,
51893360,-0.955,0.183,0.161,-0.437,-0.822,4.392,
51893370,-0.991,0.181,0.151,2.712,0.105,5.705,
51893380,-1.02,0.195,0.148,4.567,-1.33,5.95,
51893390,-1.029,0.197,0.147,4.375,-4.27,4.165,
51893400,-0.989,0.19,0.156,5.285,-7.157,1.61,
51893410,-0.965,0.186,0.168,5.617,-8.96,1.277,
51893420,-1.028,0.161,0.162,6.58,-13.247,1.68,
51893430,-0.868,0.146,0.215,11.882,-22.295,0.297,
51893440,-0.762,0.247,0.29,22.19,-11.27,3.552,
51893450,-1.046,0.265,0.29,18.515,3.552,9.03,
51893460,-1.093,0.218,0.206,8.015,1.54,6.195,
51893470,-0.992,0.214,0.183,7.28,-1.435,0.56,
51893480,-1.002,0.203,0.163,4.987,-0.612,-1.085,
51893490,-0.992,0.191,0.169,3.342,-2.817,-1.75,
51893500,-0.967,0.192,0.19,3.325,-4.305,-1.872,
51893510,-0.965,0.195,0.207,2.345,-3.552,-1.33,
51893510,-0.97,0.195,0.213,1.207,-1.26,-0.665,
51893530,-0.973,0.193,0.199,0,-0.42,-0.105,
51893530,-0.971,0.195,0.189,-0.717,-0.647,0.595,
51893550,-0.983,0.199,0.176,-1.54,-1.802,1.172,
51893550,-0.973,0.194,0.185,-2.152,-2.712,0.98,
51893570,-0.96,0.204,0.206,-2.765,-2.887,1.627,
51893570,-0.982,0.221,0.213,-5.477,-0.315,2.8,
51893580,-1.04,0.211,0.187,-10.412,-0.07,2.415,
51893590,-1.01,0.179,0.184,-14.175,-3.902,0.157,
51893600,-0.947,0.206,0.194,-12.985,-3.692,-0.822,
51893610,-0.997,0.201,0.181,-14.262,-2.502,-0.56,
51893620,-0.968,0.174,0.162,-16.712,-5.04,-1.085,
51893630,-0.947,0.177,0.195,-12.967,-6.79,-0.455,
51893640,-0.958,0.214,0.197,-11.655,-4.69,1.032,
51893650,-1.011,0.171,0.196,-11.34,-4.48,0.385,
51893660,-0.905,0.172,0.208,-7.192,-6.265,-0.315,
51893670,-0.894,0.225,0.226,-0.997,-1.137,2.257,
51893680,-0.991,0.194,0.185,-2.117,2.66,4.235,
51893690,-0.978,0.191,0.16,0.35,2.975,3.535,
51893700,-1.004,0.209,0.156,3.622,2.59,2.957,
51893710,-1.017,0.197,0.135,2.8,0.367,1.487,
51893720,-1.006,0.188,0.142,4.34,-2.292,-0.262,
51893730,-0.994,0.185,0.153,4.847,-5.197,-0.7,
51893740,-1.058,0.152,0.146,6.335,-12.792,-1.785,
51893750,-0.792,0.161,0.215,12.687,-21.28,-4.06,
51893760,-0.777,0.229,0.273,22.47,-6.002,1.715,
51893770,-1.073,0.205,0.244,19.652,5.232,8.085,
51893780,-1.019,0.205,0.233,15.89,2.747,5.547,
51893790,-1.014,0.243,0.218,16.397,3.64,2.222,
51893800,-1.014,0.216,0.178,8.697,2.345,-0.542,
51893810,-0.991,0.196,0.161,5.005,1.942,-1.715,
51893820,-1.062,0.202,0.169,1.627,-0.437,-0.822,
51893830,-1.003,0.18,0.163,-3.482,-7.805,-2.957,
51893840,-0.921,0.178,0.2,-2.152,-9.94,-3.92,
51893850,-0.931,0.199,0.235,-2.31,-8.032,-0.875,
51893860,-0.941,0.209,0.251,-4.62,-6.177,1.855,
51893870,-0.924,0.236,0.247,-6.877,-2.292,3.255,
51893880,-1.028,0.246,0.215,-12.407,6.58,4.357,
51893890,-1.148,0.205,0.142,-19.005,5.512,0.805,
51893900,-0.992,0.167,0.129,-19.74,-3.22,-6.177,
51893910,-0.9,0.188,0.151,-14.595,-3.885,-6.632,
51893920,-0.971,0.181,0.179,-14.262,-3.01,-2.887,
51893920,-0.985,0.171,0.169,-15.855,-6.422,-1.067,
51893940,-0.956,0.192,0.203,-13.457,-6.65,-0.402,
51893940,-1.009,0.182,0.203,-12.88,-5.46,-0.35,
51893960,-0.948,0.17,0.188,-11.322,-6.842,-1.452,
51893960,-0.897,0.182,0.2,-5.11,-5.582,-0.63,
51893980,-0.923,0.19,0.198,-1.19,-1.487,1.837,
51893980,-0.952,0.202,0.198,1.942,1.4,3.5,
51894000,-0.982,0.207,0.179,3.237,2.887,3.71,
51894000,-1.012,0.195,0.156,3.29,2.117,2.607,
51894010,-1.005,0.189,0.14,4.287,0.105,1.19,
51894020,-1.012,0.186,0.133,5.46,-2.922,0.315,
51894030,-0.99,0.18,0.147,6.387,-7.035,-0.542,
51894040,-1.031,0.14,0.182,9.59,-15.102,-1.75,
51894050,-0.744,0.186,0.256,15.977,-17.762,-2.117,
51894060,-0.878,0.237,0.298,21.77,-2.817,4.777,
51894070,-1.05,0.192,0.248,14.577,2.415,7.892,
51894080,-0.973,0.199,0.222,15.137,0.192,5.145,
51894090,-0.967,0.231,0.221,16.625,4.322,3.815,
51894100,-1.034,0.205,0.176,10.937,6.615,3.255,
51894110,-0.991,0.209,0.188,8.89,3.097,1.277,
51894120,-0.99,0.234,0.199,4.48,3.885,1.26,
51894130,-1.062,0.201,0.178,-3.115,2.45,0.647,
51894140,-0.974,0.163,0.175,-6.09,-3.64,-1.732,
51894150,-0.902,0.183,0.208,-4.27,-5.18,-0.245,
51894160,-0.944,0.202,0.225,-6.072,-3.045,4.112,
51894170,-0.947,0.241,0.213,-9.87,1.785,6.44,
51894180,-1.091,0.256,0.165,-17.307,7.332,7.017,
51894190,-1.124,0.202,0.112,-27.3,-0.385,2.1,
51894200,-0.987,0.182,0.123,-29.19,-8.802,-3.027,
51894210,-0.977,0.173,0.152,-26.705,-12.057,-3.36,
51894220,-0.94,0.173,0.182,-25.13,-13.965,-2.695,
51894230,-0.919,0.16,0.229,-19.88,-12.53,-1.435,
51894240,-0.907,0.15,0.237,-14.087,-10.482,0.997,
51894250,-0.874,0.214,0.24,-7.367,-2.485,4.357,
51894260,-1.027,0.211,0.236,-6.737,4.917,6.527,
51894260,-1.014,0.185,0.182,-7.822,1.697,3.867,
51894280,-0.948,0.217,0.181,-2.24,0.875,1.295,
51894280,-0.97,0.219,0.178,-0.77,2.94,0.245,
51894300,-0.996,0.19,0.148,-0.77,3.36,-0.892,
51894300,-0.996,0.183,0.143,2.135,0.595,-1.47,
51894320,-0.991,0.187,0.142,3.552,-2.415,-1.54,
51894320,-0.989,0.18,0.15,4.305,-5.477,-1.662,
51894330,-1.062,0.152,0.147,5.302,-11.112,-1.802,
51894340,-0.93,0.121,0.198,10.517,-24.412,-4.585,
51894350,-0.647,0.222,0.312,22.365,-14.35,-1.907,
51894360,-1.002,0.244,0.298,22.277,6.772,8.347,
51894370,-1.09,0.215,0.223,12.127,6.44,8.417,
51894380,-0.993,0.235,0.205,9.52,2.887,3.832,
51894390,-1.039,0.228,0.177,3.202,2.87,1.89,
51894400,-1.03,0.201,0.147,-3.01,-0.35,-0.612,
51894410,-0.962,0.161,0.181,-4.847,-6.947,-2.117,
51894420,-0.875,0.181,0.222,-4.34,-9.117,0.91,
51894430,-0.887,0.238,0.252,-6.352,-2.8,6.755,
51894440,-1.083,0.235,0.207,-14.35,5.722,9.397,
51894450,-1.124,0.19,0.166,-20.632,2.187,4.13,
51894460,-0.971,0.194,0.173,-18.952,-2.485,-2.362,
51894470,-0.96,0.179,0.175,-16.135,-3.482,-3.57,
51894480,-0.892,0.166,0.192,-13.632,-4.812,-1.785,
51894490,-0.913,0.192,0.196,-8.627,-0.35,1.907,
51894500,-1.019,0.186,0.188,-8.067,1.575,4.252,
51894510,-0.991,0.188,0.177,-6.877,-0.682,3.15,
51894520,-1,0.221,0.187,-3.36,0.087,1.715,
51894530,-1.035,0.208,0.174,-4.917,-1.365,-0.472,
51894540,-1.005,0.195,0.174,-4.585,-4.462,-3.36,
51894550,-0.965,0.204,0.181,-2.957,-6.86,-4.795,
51894560,-0.95,0.192,0.179,-3.692,-7.735,-4.602,
51894570,-0.941,0.178,0.188,-3.185,-8.242,-3.465,
51894580,-0.941,0.176,0.191,-2.117,-7.98,-1.207,
51894590,-0.951,0.175,0.186,-0.525,-7.91,0.962,
51894600,-0.963,0.18,0.181,1.575,-7.595,2.502,
51894610,-0.976,0.194,0.181,3.727,-7.84,3.377,
51894620,-0.989,0.198,0.187,5.11,-8.085,3.22,
51894630,-1.033,0.17,0.179,6.387,-11.707,1.767,
51894640,-0.839,0.17,0.231,11.077,-15.277,0.14,
51894650,-0.837,0.24,0.286,17.027,-3.675,5.022,
51894660,-1.064,0.227,0.263,10.5,3.342,9.485,
51894670,-1.026,0.205,0.227,4.427,-0.805,5.967,
51894670,-0.951,0.228,0.235,3.885,-0.262,3.08,
51894690,-1.016,0.221,0.212,-2.1,2.152,2.94,
51894690,-1.004,0.188,0.201,-6.982,-2.065,1.347,
51894710,-0.918,0.191,0.22,-7.84,-5.442,0.997,
51894710,-0.923,0.2,0.25,-9.957,-4.13,4.147,
51894730,-0.928,0.227,0.23,-13.825,0.507,7.682,
51894730,-1.083,0.237,0.162,-19.39,7.717,8.855,
51894750,-1.145,0.187,0.111,-25.025,3.15,3.447,
51894750,-1.016,0.166,0.137,-20.807,-4.935,-4.077,
51894760,-0.915,0.186,0.166,-12.792,-8.365,-6.3,
51894770,-0.887,0.196,0.187,-9.712,-5.565,-4.235,
51894780,-0.973,0.149,0.178,-9.747,-4.742,-0.77,
51894790,-0.954,0.131,0.171,-5.582,-7.962,2.17,
51894800,-0.915,0.208,0.226,3.027,-5.407,4.725,
51894810,-0.994,0.229,0.223,3.342,-0.507,5.407,
51894820,-1.015,0.202,0.18,2.1,0.14,2.8,
51894830,-0.998,0.206,0.177,4.795,-1.172,0.315,
51894840,-0.985,0.216,0.188,5.512,-2.275,-1.312,
51894850,-0.981,0.203,0.196,5.635,-4.165,-2.887,
51894860,-0.999,0.149,0.205,6.755,-10.307,-4.095,
51894870,-0.784,0.181,0.241,12.932,-11.637,-3.325,
51894880,-0.875,0.246,0.286,17.885,0.332,3.622,
51894890,-1.069,0.211,0.234,9.817,3.5,7.227,
51894900,-0.981,0.204,0.209,7.997,-0.14,4.305,
51894910,-0.987,0.221,0.206,8.505,0.087,2.887,
51894920,-1.002,0.207,0.207,2.87,-0.227,2.31,
51894930,-0.973,0.215,0.209,-0.175,-2.432,1.837,
51894940,-0.998,0.207,0.211,-5.757,-6.072,2.187,
51894950,-0.948,0.179,0.23,-11.06,-11.987,2.432,
51894960,-0.946,0.191,0.207,-12.302,-13.545,5.267,
51894970,-0.959,0.208,0.182,-13.125,-10.535,6.895,
51894980,-0.985,0.261,0.174,-13.055,0.385,6.877,
51894990,-1.17,0.206,0.12,-18.55,-1.277,3.692,
51895000,-0.98,0.185,0.105,-17.78,-12.635,-3.745,
51895010,-0.929,0.209,0.142,-10.552,-15.085,-5.862,
51895010,-0.996,0.159,0.185,-10.605,-18.007,-4.725,
51895030,-0.926,0.166,0.234,-6.86,-20.107,-2.747,
51895030,-0.943,0.195,0.269,-3.185,-17.045,-0.717,
51895050,-0.977,0.149,0.259,-5.232,-17.237,0.332,
51895050,-0.937,0.162,0.268,-0.14,-15.732,1.907,
51895070,-0.906,0.244,0.297,5.512,-9.1,3.377,
51895070,-0.971,0.233,0.265,1.925,-2.502,2.257,
51895080,-0.982,0.199,0.21,2.1,-0.192,-0.367,
51895090,-0.969,0.205,0.202,5.477,-0.367,-1.277,
51895100,-1.025,0.176,0.21,7.542,-3.692,-2.222,
51895110,-0.898,0.14,0.235,14.245,-10.727,-4.217,
51895120,-0.793,0.235,0.304,24.237,-7.402,-0.367,
51895130,-0.997,0.253,0.272,17.937,-2.677,6.125,
51895140,-1.067,0.223,0.216,8.47,-2.817,5.022,
51895150,-1.027,0.222,0.219,5.722,-3.71,0,
51895160,-0.984,0.224,0.202,0.647,-4.357,-2.922,
51895170,-0.998,0.191,0.197,-4.742,-7.175,-3.657,
51895180,-0.945,0.172,0.225,-6.352,-11.235,-3.29,
51895190,-0.925,0.181,0.249,-5.635,-12.302,-0.997,
51895200,-0.93,0.189,0.238,-6.142,-9.87,1.277,
51895210,-0.929,0.191,0.241,-4.935,-6.685,2.817,
51895220,-0.956,0.202,0.234,-3.43,-3.622,4.375,
51895230,-0.989,0.207,0.233,-3.08,-2.117,4.41,
51895240,-0.959,0.221,0.255,-3.272,-2.03,3.062,
51895250,-0.949,0.259,0.244,-8.365,3.5,3.482,
51895260,-1.138,0.199,0.164,-20.265,2.31,2.835,
51895270,-1.02,0.182,0.137,-24.465,-9.205,-2.152,
51895280,-0.992,0.201,0.161,-20.387,-13.072,-4.182,
51895290,-1.023,0.175,0.2,-18.672,-17.307,-6.282,
51895300,-0.934,0.175,0.288,-10.78,-22.435,-7.822,
51895310,-0.866,0.177,0.33,-5.337,-21.402,-6.317,
51895320,-0.813,0.169,0.303,-2.502,-12.547,-2.642,
51895330,-0.856,0.194,0.274,1.575,0.385,3.01,
51895340,-1.001,0.185,0.211,0.332,8.26,7.175,
51895350,-1.046,0.178,0.185,2.38,8.925,5.81,
51895360,-1.088,0.168,0.175,7.122,1.75,1.05,
51895370,-0.837,0.177,0.275,13.125,-4.637,-3.255,
51895380,-0.857,0.2,0.317,18.55,1.662,1.785,
51895390,-0.963,0.221,0.282,14.227,6.177,7.752,
51895400,-0.981,0.213,0.258,9.1,4.602,8.312,
51895410,-0.963,0.214,0.227,7.105,3.29,6.615,
51895420,-0.956,0.227,0.221,6.317,4.357,5.582,
51895420,-0.983,0.215,0.218,3.675,3.237,4.97,
51895440,-0.987,0.204,0.229,2.66,0.49,4.165,
51895440,-0.965,0.219,0.242,3.237,-1.05,3.132,
51895450,-0.967,0.223,0.233,2.275,-0.455,1.872,
51895460,-0.966,0.203,0.224,0.717,-0.455,0.402,
51895470,-0.95,0.192,0.225,0.875,-0.332,0.35,
51895480,-0.952,0.196,0.225,1.855,0.857,1.242,
51895490,-0.967,0.195,0.226,1.627,1.907,2.187,
51895500,-0.986,0.194,0.217,1.085,1.575,2.747,
51895510,-0.993,0.192,0.206,0.595,0.122,2.73,
51895520,-0.986,0.201,0.204,0.402,-1.995,2.187,
51895530,-0.984,0.205,0.203,-0.647,-4.725,1.662,
51895540,-0.982,0.203,0.21,-2.082,-7.595,1.312,
51895550,-0.991,0.2,0.225,-3.587,-10.57,0.857,
51895560,-0.976,0.198,0.241,-5.302,-12.652,0.017,
51895570,-0.947,0.204,0.255,-6.16,-13.002,-0.157,
51895580,-0.882,0.222,0.252,-7.262,-8.82,1.207,
51895590,-1.031,0.219,0.2,-10.36,-1.172,3.552,
51895600,-1.061,0.183,0.185,-13.51,-7.192,1.295,
51895610,-0.905,0.219,0.218,-9.712,-10.902,-1.767,
51895620,-0.962,0.222,0.253,-9.205,-8.19,-1.435,
51895630,-0.962,0.176,0.251,-10.937,-9.31,-1.925,
51895640,-0.88,0.184,0.291,-5.39,-8.54,-0.962,
51895650,-0.91,0.214,0.289,-1.837,-2.975,2.31,
51895660,-0.941,0.198,0.256,-1.19,1.837,3.43,
51895670,-0.924,0.215,0.251,2.222,6.79,3.64,
51895680,-0.991,0.228,0.238,2.327,11.13,3.955,
51895690,-1.009,0.212,0.205,0.21,12.075,1.837,
51895700,-1.01,0.204,0.195,1.277,12.267,-1.137,
51895710,-0.996,0.188,0.203,2.135,9.59,-3.272,
51895720,-0.987,0.14,0.219,5.022,3.552,-4.287,
51895730,-0.806,0.188,0.256,12.81,2.292,-2.817,
51895740,-0.877,0.228,0.279,16.187,8.557,2.94,
51895750,-0.975,0.202,0.229,11.795,10.482,6.352,
51895760,-0.978,0.206,0.216,12.442,9.38,6.895,
51895760,-1.023,0.225,0.217,11.742,7.665,6.23,
51895780,-0.988,0.222,0.192,8.68,3.535,4.007,
51895780,-0.986,0.22,0.192,6.755,1.96,2.94,
51895800,-1.026,0.194,0.188,2.852,-1.207,2.747,
51895800,-0.971,0.21,0.207,2.957,-3.447,1.505,
51895820,-0.968,0.219,0.228,1.12,-3.517,1.242,
51895820,-0.975,0.196,0.211,-3.045,-4.637,1.592,
51895830,-0.975,0.194,0.222,-3.325,-6.3,2.117,
51895840,-0.961,0.207,0.219,-3.29,-6.545,2.205,
51895850,-0.964,0.21,0.21,-2.817,-5.477,1.82,
51895860,-0.966,0.21,0.212,-2.922,-5.74,1.837,
51895870,-0.962,0.21,0.223,-4.812,-7.56,2.677,
51895880,-0.952,0.205,0.219,-7.91,-10.342,4.042,
51895890,-0.923,0.201,0.206,-10.01,-11.515,5.915,
51895900,-0.907,0.26,0.15,-11.83,-6.37,9.047,
51895910,-1.183,0.221,0.132,-18.935,-5.67,9.397,
51895920,-1.053,0.174,0.159,-20.02,-17.255,1.697,
51895930,-0.918,0.237,0.277,-9.59,-18.865,-3.097,
51895940,-0.929,0.208,0.311,-11.567,-15.575,-3.465,
51895950,-0.842,0.153,0.306,-8.942,-12.442,-2.52,
51895960,-0.818,0.198,0.332,-0.332,-4.007,3.902,
51895970,-0.948,0.24,0.23,1.575,6.282,9.31,
51895980,-1.013,0.232,0.204,3.447,10.377,7.437,
51895990,-1.068,0.234,0.147,5.46,7.665,3.675,
51896000,-1.075,0.18,0.155,7.962,-0.91,-1.977,
51896010,-0.862,0.175,0.232,16.24,-6.072,-6.44,
51896020,-0.802,0.25,0.356,23.117,-0.35,-3.062,
51896030,-0.923,0.248,0.299,13.842,6.37,4.182,
51896040,-1.026,0.204,0.206,5.337,6.895,7.105,
51896050,-1.011,0.218,0.2,4.13,6.037,5.757,
51896060,-1.012,0.221,0.22,2.782,4.375,3.517,
51896070,-0.947,0.225,0.202,1.907,2.695,1.68,
51896080,-0.969,0.216,0.2,0.14,2.117,2.17,
51896090,-0.974,0.211,0.228,-1.26,0.297,2.502,
51896100,-0.973,0.224,0.233,-1.89,-1.592,2.625,
51896110,-0.964,0.212,0.211,-4.095,-2.94,2.275,
51896120,-0.964,0.205,0.21,-3.867,-2.607,2.345,
51896120,-0.982,0.22,0.215,-3.167,-2.992,2.835,
51896140,-1.006,0.222,0.194,-3.972,-4.567,1.977,
51896140,-0.992,0.213,0.184,-4.287,-7.49,0.035,
51896160,-0.966,0.229,0.2,-3.972,-8.995,-0.717,
51896160,-1.012,0.263,0.188,-7.192,-6.492,-0.332,
51896170,-1.095,0.182,0.175,-14.07,-11.76,-3.01,
51896180,-0.856,0.185,0.22,-9.975,-16.817,-6.177,
51896190,-0.904,0.223,0.267,-5.215,-11.585,-2.572,
51896200,-0.931,0.203,0.258,-7.595,-7.962,-0.105,
51896210,-0.929,0.196,0.261,-4.83,-5.95,1.155,
51896220,-0.924,0.221,0.251,-2.047,-3.01,2.87,
51896230,-0.928,0.228,0.233,-0.017,-0.14,3.395,
51896240,-0.937,0.232,0.224,1.382,2.607,3.955,
51896250,-1.017,0.229,0.213,0.787,2.852,4.165,
51896260,-1.014,0.226,0.207,0.542,-0.455,1.155,
51896270,-0.964,0.224,0.216,1.592,-1.557,-2.24,
51896280,-0.958,0.211,0.214,1.855,-0.682,-2.887,
51896290,-0.952,0.201,0.22,2.45,-1.032,-1.995,
51896300,-0.99,0.158,0.237,4.357,-4.165,-1.225,
51896310,-0.751,0.188,0.3,11.69,-5.092,-0.21,
51896320,-0.832,0.28,0.33,15.452,8.067,7.525,
51896330,-1.051,0.233,0.246,4.252,14.385,12.022,
51896340,-1.04,0.213,0.205,2.572,11.27,8.592,
51896350,-0.968,0.262,0.213,4.637,9.73,4.812,
51896360,-1.023,0.254,0.173,-0.507,9.31,2.782,
51896370,-1.044,0.198,0.134,-4.55,4.13,0.14,
51896380,-1.003,0.192,0.157,-2.8,-1.435,-1.575,
51896390,-0.976,0.21,0.2,-1.312,-4.97,-2.275,
51896400,-0.956,0.205,0.207,-2.555,-6.702,-2.03,
51896410,-0.957,0.199,0.211,-2.94,-7.367,-0.682,
51896420,-0.967,0.21,0.233,-2.817,-7.402,0.787,
51896430,-0.977,0.227,0.236,-4.06,-7.472,0.945,
51896440,-0.964,0.222,0.223,-5.53,-6.562,-0.175,
51896450,-0.919,0.235,0.22,-5.302,-4.917,-0.875,
51896460,-0.987,0.282,0.193,-8.137,3.027,0.682,
51896470,-1.191,0.187,0.15,-15.96,-2.537,-2.24,
51896480,-0.86,0.178,0.193,-11.34,-12.512,-8.697,
51896490,-0.887,0.241,0.254,-3.867,-6.86,-5.897,
51896500,-0.958,0.177,0.215,-9.852,-4.952,-2.38,
51896510,-0.897,0.18,0.24,-4.55,-4.83,-0.472,
51896510,-0.938,0.222,0.259,-1.015,-1.47,2.922,
51896530,-0.942,0.221,0.221,-1.417,1.33,3.412,
51896530,-0.97,0.223,0.205,0.84,3.43,3.395,
51896550,-1.007,0.222,0.18,0.805,2.275,3.22,
51896550,-0.997,0.228,0.187,2.59,-0.14,0.875,
51896570,-0.992,0.217,0.184,3.167,-3.01,-1.382,
51896570,-1.002,0.193,0.201,3.57,-6.562,-2.835,
51896580,-0.905,0.159,0.231,7.717,-12.425,-4.217,
51896590,-0.768,0.251,0.314,15.33,-3.885,-0.875,
51896600,-1.03,0.257,0.296,10.29,6.772,5.687,
51896610,-1.028,0.209,0.218,1.89,4.602,3.867,
51896620,-0.956,0.244,0.23,3.412,3.937,1.015,
51896630,-1.019,0.244,0.205,-1.995,3.185,0.56,
51896640,-0.976,0.21,0.206,-6.615,-2.082,-1.627,
51896650,-0.926,0.202,0.237,-7.437,-4.707,-1.487,
51896660,-0.916,0.204,0.255,-8.96,-2.852,1.225,
51896670,-0.952,0.221,0.233,-10.395,2.817,4.06,
51896680,-1.071,0.223,0.151,-14.017,5.53,4.567,
51896690,-1.054,0.189,0.124,-16.152,-1.452,0.77,
51896700,-0.972,0.216,0.162,-11.077,-5.792,-2.607,
51896710,-0.984,0.213,0.199,-9.957,-8.487,-3.605,
51896720,-0.915,0.18,0.205,-9.327,-10.027,-4.077,
51896730,-0.907,0.203,0.22,-4.952,-7.56,-1.417,
51896740,-1.004,0.212,0.211,-5.337,-5.74,1.627,
51896750,-0.987,0.195,0.213,-4.812,-7.21,0.14,
51896760,-0.958,0.22,0.213,-0.7,-5.792,-1.295,
51896770,-0.991,0.205,0.205,-0.63,-5.53,-1.925,
51896780,-0.951,0.205,0.194,1.155,-5.635,-2.607,
51896790,-0.978,0.217,0.199,2.695,-6.09,-2.31,
51896800,-1.028,0.206,0.165,1.05,-9.327,-2.905,
51896810,-0.945,0.203,0.226,3.36,-16.695,-5.18,
51896820,-0.914,0.214,0.258,5.215,-15.96,-4.427,
51896830,-0.94,0.211,0.286,5.53,-13.65,-3.08,
51896830,-0.884,0.21,0.296,5.512,-10.237,-2.135,
51896850,-0.91,0.22,0.297,5.6,-4.392,0.577,
51896850,-0.922,0.215,0.265,3.5,0.42,2.922,
51896870,-0.979,0.221,0.239,2.31,3.377,4.287,
51896870,-1.011,0.21,0.221,-0.35,2.432,3.465,
51896890,-0.957,0.218,0.225,-0.21,1.242,1.382,
51896890,-0.991,0.211,0.214,-1.977,0.752,1.277,
51896910,-0.968,0.183,0.214,-3.955,-2.135,0.682,
51896910,-0.924,0.194,0.24,-1.225,-2.047,1.312,
51896920,-0.951,0.205,0.24,-1.522,-0.297,3.552,
51896930,-0.966,0.205,0.233,-2.537,0.717,4.55,
51896940,-0.964,0.218,0.235,-2.677,1.662,4.76,
51896950,-0.958,0.256,0.219,-5.127,4.97,5.127,
51896960,-1.165,0.208,0.15,-12.215,4.042,3.797,
51896970,-0.992,0.169,0.152,-14.577,-7.997,-2.677,
51896980,-0.887,0.218,0.227,-7.35,-9.222,-3.937,
51896990,-0.954,0.218,0.234,-9.432,-5.477,-1.085,
51897000,-0.969,0.185,0.219,-10.115,-5.862,-0.542,
51897010,-0.933,0.178,0.239,-6.405,-7.14,-0.035,
51897020,-0.919,0.201,0.239,-1.557,-4.375,1.33,
51897030,-0.95,0.216,0.225,2.117,-0.91,2.327,
51897040,-0.984,0.216,0.192,2.73,0.385,2.38,
51897050,-1.015,0.208,0.172,3.342,-2.1,1.33,
51897060,-1.011,0.206,0.176,4.462,-6.807,-0.665,
51897070,-1.018,0.201,0.198,5.757,-13.002,-3.115,
51897080,-0.9,0.198,0.277,7.98,-19.967,-5.722,
51897090,-0.785,0.233,0.352,11.112,-13.58,-3.64,
51897100,-0.922,0.231,0.336,7.997,-0.63,2.625,
51897110,-0.957,0.197,0.262,2.275,1.995,5.162,
51897120,-0.926,0.204,0.233,3.062,4.217,6.282,
51897130,-0.967,0.228,0.234,3.08,9.1,7.63,
51897140,-1.007,0.233,0.223,-1.277,9.572,7.437,
51897150,-1.051,0.212,0.188,-6.44,5.53,5.74,
51897160,-1.018,0.185,0.192,-8.872,-0.052,2.677,
51897170,-0.957,0.202,0.222,-7.087,-2.572,1.067,
51897180,-0.948,0.226,0.233,-7.315,-0.647,1.715,
51897190,-1.016,0.233,0.209,-9.747,3.132,2.047,
51897200,-1.04,0.195,0.204,-12.477,0.7,-0.7,
51897210,-0.894,0.209,0.22,-9.502,-2.135,-3.587,
51897220,-0.944,0.217,0.214,-7.735,0.297,-1.785,
51897230,-0.957,0.189,0.196,-9.187,-1.102,-0.175,
51897240,-0.973,0.192,0.223,-5.04,-1.662,0.612,
51897250,-0.965,0.214,0.234,-2.922,-2.065,0.665,
51897260,-0.967,0.22,0.224,-2.362,-1.085,-0.035,
51897260,-0.988,0.198,0.197,-3.01,-1.75,-0.56,
51897280,-0.956,0.194,0.203,-1.33,-3.57,-1.05,
51897280,-0.944,0.211,0.216,1.295,-3.5,-0.717,
51897300,-0.957,0.204,0.21,1.137,-3.237,0.122,
51897300,-0.956,0.197,0.209,1.557,-3.78,1.137,
51897320,-0.974,0.199,0.201,3.255,-4.252,1.942,
51897320,-0.988,0.194,0.193,5.582,-6.44,1.417,
51897330,-0.916,0.207,0.234,10.71,-8.907,-0.192,
51897340,-0.867,0.237,0.273,14.402,-4.987,0.787,
51897350,-0.951,0.233,0.263,11.847,-0.962,4.2,
51897360,-0.983,0.219,0.229,6.265,-3.132,6.002,
51897370,-0.988,0.213,0.224,2.397,-6.422,6.457,
51897380,-0.986,0.225,0.233,-1.505,-7.49,6.422,
51897390,-0.997,0.226,0.244,-5.985,-7.28,5.792,
51897400,-0.985,0.195,0.246,-10.202,-9.922,5.075,
51897410,-0.863,0.191,0.272,-9.905,-10.307,5.687,
51897420,-0.89,0.219,0.273,-7.91,-3.185,10.237,
51897430,-0.911,0.254,0.279,-7.805,7.735,12.95,
51897440,-1.077,0.251,0.224,-10.622,14.402,12.425,
51897450,-1.009,0.207,0.19,-13.65,9.642,6.632,
51897460,-0.952,0.218,0.171,-9.17,7.735,3.692,
51897470,-1.014,0.218,0.168,-8.68,4.76,3.92,
51897480,-1.02,0.2,0.159,-8.435,-0.28,2.31,
51897490,-0.991,0.195,0.189,-4.182,-5.127,-0.262,
51897500,-0.962,0.214,0.211,0,-5.897,-1.592,
51897510,-0.998,0.218,0.21,1.837,-6.072,-2.327,
51897520,-0.993,0.209,0.191,2.047,-6.93,-3.762,
51897530,-1.003,0.212,0.193,3.255,-8.54,-4.865,
51897540,-0.98,0.217,0.204,3.867,-10.465,-6.492,
51897550,-0.956,0.211,0.217,2.87,-12.932,-7.07,
51897560,-0.968,0.193,0.21,1.995,-16.38,-5.967,
51897570,-0.918,0.184,0.218,3.797,-21.42,-4.795,
51897580,-0.885,0.219,0.263,9.52,-18.76,-2.712,
51897580,-0.954,0.242,0.275,10.99,-12.67,-1.085,
51897600,-0.972,0.231,0.259,8.4,-10.587,-1.837,
51897600,-0.954,0.215,0.242,7.98,-9.432,-3.097,
51897620,-0.939,0.208,0.235,8.907,-7.385,-2.922,
51897620,-0.926,0.215,0.26,10.08,-5.792,-2.17,
51897640,-0.922,0.23,0.27,9.607,-2.292,-0.91,
51897640,-0.971,0.217,0.257,7.122,0.35,0.245,
51897660,-0.948,0.214,0.248,5.862,0.595,0.14,
51897660,-0.944,0.23,0.261,6.02,2.59,0.437,
51897670,-0.993,0.221,0.238,3.045,3.937,0.717,
51897680,-0.981,0.21,0.214,1.33,2.432,-0.367,
51897690,-0.972,0.209,0.217,0.647,0.315,-0.682,
51897700,-0.947,0.208,0.228,-0.385,-1.312,-0.402,
51897710,-0.926,0.207,0.248,-1.225,-1.54,1.032,
51897720,-0.907,0.209,0.267,-3.377,-1.067,3.85,
51897730,-0.879,0.222,0.307,-6.422,1.365,8.19,
51897740,-0.99,0.241,0.258,-12.722,8.12,13.177,
51897750,-1.088,0.236,0.215,-19.442,8.295,11.585,
51897760,-0.991,0.23,0.211,-21.63,3.535,5.495,
51897770,-1.025,0.2,0.175,-19.862,2.625,1.82,
51897780,-0.94,0.181,0.191,-15.067,-1.522,-0.822,
51897790,-0.846,0.204,0.233,-6.125,-2.222,-0.07,
51897800,-0.918,0.212,0.228,-2.817,2.555,4.48,
51897810,-0.982,0.202,0.188,-1.085,3.85,6.737,
51897820,-1.03,0.228,0.16,3.097,3.447,5.757,
51897830,-1.112,0.228,0.133,4.042,-1.68,1.907,
51897840,-1.096,0.199,0.116,5.705,-12.232,-5.425,
51897850,-0.936,0.193,0.183,11.83,-22.872,-11.532,
51897860,-0.858,0.237,0.277,17.832,-19.722,-11.567,
51897870,-0.931,0.236,0.326,15.837,-11.41,-8.33,
51897880,-0.941,0.209,0.288,10.29,-8.085,-6.107,
51897890,-0.897,0.207,0.269,8.26,-5.88,-4.025,
51897900,-0.946,0.203,0.248,7.192,-2.24,-1.12,
51897910,-0.912,0.22,0.254,7.385,-0.157,0.315,
51897920,-0.982,0.237,0.249,7.192,3.57,1.627,
51897930,-0.987,0.225,0.232,3.692,2.17,0.647,
51897940,-0.945,0.231,0.244,3.307,1.662,-0.682,
51897950,-0.97,0.233,0.245,1.767,3.272,-0.927,
51897960,-0.967,0.212,0.228,-0.525,3.307,-1.715,
51897970,-0.94,0.205,0.221,0.105,2.765,-1.837,
51897980,-0.951,0.208,0.214,0.227,3.167,-0.402,
51897990,-0.96,0.209,0.214,0.402,3.01,0.455,
51898000,-0.977,0.212,0.211,0.42,2.362,1.015,
51898010,-0.983,0.214,0.214,0.157,0.612,0.892,
51898010,-0.98,0.215,0.22,-0.84,-1.032,0.542,
51898030,-0.959,0.208,0.216,-2.03,-2.327,0.28,
51898030,-0.957,0.204,0.212,-2.152,-2.642,0.892,
51898050,-0.953,0.209,0.218,-1.662,-2.485,1.715,
51898050,-0.958,0.216,0.241,-1.645,-1.155,2.502,
51898070,-0.978,0.219,0.241,-2.817,-0.192,2.852,
51898070,-0.963,0.215,0.229,-4.357,-0.052,2.275,
51898080,-0.952,0.203,0.219,-4.742,0.052,2.222,
51898090,-0.947,0.213,0.226,-3.535,1.085,3.097,
51898100,-0.976,0.224,0.218,-3.097,2.117,3.482,
51898110,-0.966,0.223,0.212,-3.535,1.137,2.572,
51898120,-0.972,0.216,0.21,-3.15,1.12,1.785,
51898130,-0.979,0.215,0.212,-3.08,0.245,1.575,
51898140,-0.994,0.211,0.201,-3.115,-0.822,0.962,
51898150,-0.966,0.209,0.204,-1.925,-2.327,-0.49,
51898160,-0.946,0.211,0.21,-0.28,-2.1,-0.91,
51898170,-0.963,0.206,0.216,0.192,-1.627,-0.035,
51898180,-0.966,0.205,0.219,0.595,-1.522,0.577,
51898190,-0.961,0.209,0.215,1.032,-1.4,0.91,
51898200,-0.967,0.202,0.197,0.822,-1.4,1.575,
51898210,-0.97,0.206,0.196,1.977,-1.855,1.977,
51898220,-0.975,0.215,0.2,2.712,-2.625,2.327,
51898230,-0.984,0.214,0.196,2.047,-4.462,2.45,
51898240,-0.985,0.22,0.211,1.942,-6.037,2.065,
51898250,-0.975,0.224,0.22,1.662,-6.982,0.84,
51898260,-0.965,0.221,0.22,1.05,-6.79,-0.017,
51898270,-0.954,0.22,0.227,0.997,-6.352,-0.577,
51898280,-0.947,0.219,0.23,1.295,-4.48,-0.525,
51898290,-0.956,0.225,0.235,1.452,-2.66,-0.175,
51898300,-0.98,0.229,0.217,0.805,-1.837,-0.315,
51898310,-0.892,0.213,0.244,0.455,-3.36,-1.225,
51898320,-0.959,0.229,0.232,1.085,2.31,1.26,
51898330,-1.002,0.228,0.228,-1.347,2.012,1.785,
51898330,-0.96,0.22,0.217,-3.955,-0.087,0.437,
51898350,-0.97,0.216,0.216,-4.375,-0.98,0.245,
51898350,-0.943,0.213,0.221,-5.285,-1.732,0.437,
51898370,-0.942,0.217,0.245,-4.795,-1.592,1.102,
51898370,-0.93,0.216,0.26,-6.177,0.052,2.152,
51898390,-0.912,0.206,0.28,-7.157,4.375,3.867,
51898390,-0.966,0.213,0.248,-8.522,9.817,6.65,
51898410,-0.927,0.218,0.229,-10.01,10.447,6.825,
51898410,-0.964,0.204,0.183,-10.272,12.985,7.717,
51898420,-1.007,0.202,0.148,-7.892,11.812,7.927,
51898430,-1.012,0.216,0.142,-4.41,7.735,6.405,
51898440,-1.049,0.209,0.129,-1.05,2.117,3.43,
51898450,-0.977,0.223,0.174,2.222,-3.5,1.662,
51898460,-0.988,0.214,0.187,1.732,-4.497,0.98,
51898470,-0.983,0.174,0.169,1.75,-5.477,-0.665,
51898480,-0.95,0.194,0.175,6.982,-5.617,-0.315,
51898490,-0.991,0.239,0.197,8.277,-4.847,2.397,
51898500,-1.04,0.245,0.114,5.11,-7.752,0.892,
51898510,-0.969,0.242,0.214,5.512,-13.44,-3.377,
51898520,-1.017,0.222,0.212,4.34,-12.6,-4.252,
51898530,-0.939,0.239,0.254,5.232,-14,-6.86,
51898540,-0.879,0.22,0.261,3.097,-11.13,-6.492,
51898550,-0.958,0.188,0.214,1.137,-6.37,-2.205,
51898560,-0.92,0.218,0.243,3.115,-5.985,-0.367,
51898570,-0.946,0.244,0.261,2.625,-2.415,0.595,
51898580,-0.98,0.23,0.225,-1.032,-0.245,0.385,
51898590,-0.939,0.218,0.223,-1.802,-0.21,-0.385,
51898600,-0.971,0.225,0.233,-1.82,0.752,0.682,
51898610,-0.968,0.232,0.223,-3.097,0.63,0.49,
51898620,-0.963,0.227,0.219,-3.57,1.417,-0.665,
51898630,-0.957,0.219,0.216,-4.217,1.435,-1.312,
51898640,-0.945,0.22,0.218,-4.252,1.837,-0.945,
51898650,-0.939,0.215,0.25,-4.235,4.165,-0.017,
51898660,-0.983,0.2,0.228,-5.337,8.802,1.435,
51898670,-0.959,0.209,0.223,-5.88,7.857,1.592,
51898680,-0.96,0.208,0.18,-7.087,7.647,2.467,
51898690,-0.995,0.203,0.162,-7.175,6.772,3.5,
51898700,-0.996,0.21,0.157,-5.757,4.095,2.905,
51898710,-0.997,0.214,0.157,-4.497,0.752,1.522,
51898720,-0.995,0.214,0.166,-3.727,-2.117,0.612,
51898730,-0.989,0.211,0.186,-2.257,-4.882,-0.49,
51898740,-0.964,0.204,0.198,-1.277,-6.317,-1.277,
51898750,-0.952,0.201,0.215,-0.105,-5.687,-0.997,
51898760,-0.946,0.203,0.218,0.577,-3.465,0.332,
51898760,-0.945,0.199,0.2,0.647,-1.82,1.732,
51898780,-0.951,0.193,0.178,1.54,-0.77,3.412,
51898780,-0.978,0.193,0.16,3.22,-1.137,5.372,
51898800,-1.029,0.209,0.141,4.865,-3.482,6.072,
51898800,-1.052,0.259,0.106,6.597,-12.425,2.852,
51898810,-0.969,0.254,0.213,5.355,-18.76,-2.117,
51898820,-1.031,0.212,0.213,4.13,-16.397,-3.622,
51898830,-0.906,0.225,0.282,4.97,-15.715,-6.265,
51898840,-0.895,0.212,0.274,2.905,-11.392,-4.375,
51898850,-0.885,0.21,0.262,1.015,-5.915,-0.262,
51898860,-0.948,0.226,0.248,0.752,-0.297,3.29,
51898870,-0.963,0.242,0.23,-1.347,1.68,3.43,
51898880,-0.974,0.237,0.194,-3.15,2.047,2.45,
51898890,-1.005,0.223,0.177,-4.095,0.367,1.75,
51898900,-1.01,0.226,0.193,-3.552,-3.307,0.017,
51898910,-0.985,0.228,0.215,-3.325,-6.107,-2.555,
51898920,-0.939,0.216,0.234,-3.832,-6.23,-3.972,
51898930,-0.936,0.195,0.213,-4.742,-3.692,-2.555,
51898940,-0.935,0.195,0.195,-4.952,-3.08,0.367,
51898950,-0.957,0.212,0.211,-4.497,-2.59,3.15,
51898960,-1.024,0.215,0.199,-5.075,-2.485,3.937,
51898970,-0.978,0.215,0.21,-5.565,-5.127,1.312,
51898980,-0.957,0.206,0.223,-5.39,-5.39,0.42,
51898990,-0.94,0.207,0.235,-5.46,-4.55,1.592,
51899000,-0.947,0.207,0.228,-5.215,-2.835,3.15,
51899010,-0.937,0.202,0.219,-4.97,-2.152,4.182,
51899020,-0.942,0.197,0.217,-3.185,-0.507,5.18,
51899030,-0.951,0.205,0.223,-0.507,1.522,6.072,
51899040,-0.956,0.214,0.219,1.05,3.675,6.755,
51899050,-0.994,0.221,0.195,1.277,4.62,7.14,
51899060,-1.014,0.234,0.187,2.205,4.06,5.81,
51899070,-1.002,0.255,0.138,0.7,0.822,3.675,
51899080,-1.003,0.222,0.168,-2.012,-3.535,0.262,
51899080,-0.98,0.19,0.181,-2.31,-6.737,0.332,
51899100,-0.946,0.214,0.217,3.465,-5.162,-2.1,
51899100,-0.945,0.245,0.242,4.042,-4.2,-0.297,
51899120,-0.969,0.219,0.205,-0.262,-3.185,0.245,
51899120,-0.984,0.216,0.215,1.155,-3.22,-0.122,
51899140,-0.981,0.229,0.21,0.472,-3.745,-0.49,
51899140,-0.956,0.232,0.219,0.315,-4.655,-1.855,
51899160,-0.943,0.211,0.218,-1.19,-3.29,-1.54,
51899160,-0.96,0.206,0.214,-0.962,-1.837,-0.105,
51899170,-0.959,0.226,0.232,-0.595,-1.557,0.717,
51899180,-0.976,0.226,0.21,-1.89,-0.892,0.682,
51899190,-0.969,0.222,0.194,-2.1,-0.787,-0.087,
51899200,-0.974,0.225,0.196,-1.785,-1.767,-0.472,
51899210,-0.968,0.229,0.198,-1.925,-2.975,-0.875,
51899220,-0.971,0.225,0.199,-2.03,-3.692,-1.522,
51899230,-0.975,0.223,0.214,-2.082,-4.165,-2.292,
51899240,-0.962,0.214,0.232,-2.415,-4.322,-2.87,
51899250,-0.943,0.201,0.23,-2.467,-2.695,-2.537,
51899260,-0.92,0.199,0.238,-1.225,0.297,-1.015,
51899270,-0.935,0.207,0.217,-1.242,3.255,1.645,
51899280,-0.966,0.213,0.203,-1.452,4.655,3.5,
51899290,-0.99,0.218,0.208,-1.365,4.252,3.71,
51899300,-0.993,0.22,0.202,-1.435,3.552,2.607,
51899310,-0.984,0.221,0.19,-0.717,2.362,0.962,
51899320,-0.978,0.219,0.192,-0.367,1.19,0.28,
51899330,-0.976,0.217,0.187,-1.015,0.017,0.157,
51899340,-0.972,0.22,0.201,-1.61,-1.137,-0.525,
51899350,-0.967,0.214,0.201,-2.695,-2.135,-1.032,
51899360,-0.962,0.206,0.194,-1.802,-1.75,-1.172,
51899370,-0.967,0.205,0.194,-0.595,-1.662,-0.49,
51899380,-0.971,0.215,0.201,0.297,-1.382,0.332,
51899390,-0.97,0.211,0.198,0.157,-1.365,0.542,
51899400,-0.97,0.203,0.196,0.122,-1.242,0.7,
51899410,-0.965,0.2,0.195,0.402,-1.61,1.015,
51899420,-0.958,0.206,0.199,0.98,-1.207,1.942,
51899430,-0.971,0.213,0.191,0.962,-1.4,3.15,
51899440,-0.979,0.215,0.168,1.207,-2.905,2.922,
51899450,-0.976,0.224,0.194,2.327,-4.777,2.17,
51899460,-0.984,0.228,0.208,2.24,-4.515,1.82,
51899470,-0.966,0.228,0.215,1.837,-4.182,0.56,
51899480,-0.955,0.23,0.224,0.857,-2.905,0.105,
51899480,-0.967,0.224,0.216,-0.875,-1.557,0.42,
51899500,-0.968,0.22,0.207,-1.347,-1.05,0.28,
51899500,-0.969,0.224,0.207,-1.662,-1.015,-0.07,
51899510,-0.976,0.227,0.2,-2.205,-0.857,-0.315,
51899520,-0.979,0.231,0.199,-2.975,-1.435,-1.085,
51899530,-0.977,0.227,0.197,-3.99,-2.292,-2.047,
51899540,-0.97,0.216,0.197,-4.882,-3.237,-2.835,
51899550,-0.955,0.2,0.217,-4.865,-3.08,-2.835,
51899560,-0.944,0.192,0.216,-3.622,-0.892,-1.89,
51899570,-0.942,0.21,0.215,-2.502,1.225,-0.017,
51899580,-0.966,0.211,0.198,-3.535,1.662,1.662,
51899590,-0.986,0.204,0.185,-4.2,1.435,2.1,
51899600,-0.979,0.209,0.189,-2.152,1.172,1.4,
51899610,-0.974,0.226,0.212,-2.38,0.28,1.12,
51899620,-0.978,0.219,0.205,-4.147,0.472,0.682,
51899630,-0.97,0.208,0.194,-5.005,0.262,0.332,
51899640,-0.964,0.209,0.186,-4.637,-0.227,0.385,
51899650,-0.959,0.206,0.188,-3.097,-0.297,0.437,
51899660,-0.974,0.213,0.185,-1.155,0.857,0.595,
51899670,-0.98,0.218,0.18,-0.997,-0.63,0.63,
51899680,-0.971,0.204,0.175,-1.33,-2.012,0.175,
51899690,-0.978,0.205,0.182,0.122,-2.52,0.77,
51899700,-0.976,0.21,0.184,-0.262,-3.167,1.68,
51899710,-0.969,0.202,0.184,-0.875,-4.13,1.82,
51899720,-0.97,0.197,0.183,-1.522,-4.987,2.852,
51899730,-0.992,0.182,0.167,-0.98,-6.072,2.415,
51899740,-0.961,0.215,0.197,2.082,-7.087,2.625,
51899750,-0.976,0.237,0.207,1.277,-6.562,3.482,
51899760,-0.971,0.224,0.207,-0.98,-6.002,2.66,
51899770,-0.97,0.228,0.22,-0.49,-5.547,1.662,
51899780,-0.978,0.243,0.222,-1.592,-4.812,1.155,
51899790,-0.972,0.247,0.219,-3.01,-4.095,-0.577,
51899800,-0.97,0.228,0.209,-4.882,-3.272,-2.31,
51899810,-0.963,0.22,0.203,-5.372,-3.167,-3.167,
51899820,-0.957,0.226,0.2,-5.127,-2.45,-3.202,
51899830,-0.975,0.221,0.196,-5.355,-2.117,-3.29,
51899830,-0.978,0.216,0.204,-5.547,-2.73,-3.692,
51899850,-0.968,0.176,0.238,-5.6,-2.572,-3.832,
51899850,-0.917,0.195,0.212,-2.695,1.05,-3.045,
51899870,-0.929,0.215,0.223,-2.625,1.732,-0.927,
51899870,-0.976,0.187,0.18,-6.93,2.152,2.222,
51899890,-0.979,0.199,0.194,-4.585,1.172,2.922,
51899890,-0.968,0.214,0.214,-4.392,0.402,2.765,
51899910,-0.971,0.202,0.212,-5.845,-0.332,2.642,
51899910,-0.968,0.195,0.189,-6.142,-1.102,3.132,
51899920,-0.982,0.193,0.172,-4.672,-0.717,3.745,
51899930,-0.989,0.202,0.189,-1.417,-0.315,3.447,
51899940,-0.983,0.22,0.167,-2.66,-2.555,2.975,
51899950,-0.983,0.21,0.147,-2.73,-3.377,2.38,
51899960,-0.99,0.209,0.165,-3.115,-5.652,3.115,
51899970,-0.982,0.214,0.19,-3.43,-7.245,2.572,
51899980,-0.979,0.204,0.192,-2.152,-7.245,0.962,
51899990,-0.963,0.201,0.183,-0.577,-7.035,0.595,
51900000,-0.97,0.222,0.194,1.12,-6.877,1.61,
51900010,-0.984,0.223,0.196,-0.017,-7.28,1.68,
51900020,-0.98,0.215,0.196,-0.682,-7.665,0.647,
51900030,-0.967,0.215,0.203,-0.595,-8.26,-0.105,
51900040,-0.955,0.216,0.206,-0.577,-8.295,-0.122,
51900050,-0.969,0.211,0.196,-0.56,-8.102,0.315,
51900060,-0.963,0.219,0.217,0.385,-7.822,0.315,
51900070,-0.972,0.23,0.225,0.332,-6.632,-0.035,
51900080,-0.97,0.227,0.218,-1.032,-5.582,-0.98,
51900090,-0.956,0.212,0.209,-1.872,-4.952,-1.837,
51900100,-0.945,0.208,0.211,-1.032,-3.727,-1.505,
51900110,-0.947,0.216,0.223,0.192,-2.572,-0.682,
51900120,-0.96,0.212,0.227,0,-1.12,-0.14,
51900130,-0.952,0.195,0.221,0.157,-0.665,-0.035,
51900140,-0.919,0.209,0.218,1.907,1.557,1.12,
51900150,-0.98,0.212,0.219,1.575,3.342,3.255,
51900160,-0.997,0.21,0.206,-0.07,3.605,3.272,
51900170,-0.999,0.218,0.196,0.227,2.45,1.557,
51900170,-0.991,0.213,0.179,-1.435,0.717,0.297,
51900190,-0.991,0.207,0.181,-2.17,-1.645,-0.402,
51900190,-0.989,0.211,0.204,-2.695,-3.465,-0.717,
51900210,-0.972,0.211,0.213,-4.217,-6.055,-1.207,
51900210,-0.949,0.201,0.217,-6.072,-7.332,-0.962,
51900230,-0.929,0.198,0.229,-7.087,-6.072,0.752,
51900230,-0.954,0.213,0.227,-8.837,-2.66,3.885,
51900250,-1.038,0.204,0.183,-12.53,-3.08,5.547,
51900250,-0.972,0.182,0.17,-12.705,-9.537,3.587,
51900260,-0.896,0.203,0.186,-7.105,-9.03,3.115,
51900270,-0.995,0.201,0.182,-5.547,-7.647,5.792,
51900280,-0.973,0.209,0.188,-5.18,-10.902,6.16,
51900290,-0.967,0.22,0.2,-2.572,-11.62,5.25,
51900300,-0.953,0.205,0.183,-1.68,-11.06,4.952,
51900310,-0.962,0.203,0.176,2.047,-9.485,5.285,
51900320,-1.008,0.212,0.172,3.99,-9.957,6.02,
51900330,-1.025,0.215,0.167,5.372,-11.97,4.637,
51900340,-1.018,0.216,0.193,7.122,-14.892,1.785,
51900350,-1.041,0.243,0.164,8.837,-21.052,-2.397,
51900360,-0.815,0.245,0.306,9.502,-22.697,-6.825,
51900370,-1.004,0.231,0.283,8.452,-9.852,-3.412,
51900380,-0.966,0.211,0.29,4.55,-10.272,-4.48,
51900390,-0.826,0.23,0.283,5.687,-6.282,-5.04,
51900400,-0.976,0.232,0.275,3.36,1.802,-0.7,
51900410,-0.965,0.207,0.235,-2.362,0.84,-0.087,
51900420,-0.921,0.225,0.26,-0.507,1.102,-0.927,
51900430,-0.937,0.217,0.252,-3.395,2.082,0.577,
51900440,-0.923,0.202,0.258,-4.217,2.257,2.24,
51900450,-0.932,0.208,0.272,-3.5,2.642,4.532,
51900460,-0.91,0.222,0.273,-5.18,6.895,6.58,
51900470,-1.088,0.223,0.186,-8.592,14.367,8.312,
51900480,-1.09,0.17,0.131,-13.125,4.55,3.955,
51900490,-0.881,0.207,0.145,-6.51,-0.595,-0.157,
51900500,-1.046,0.241,0.17,-4.13,1.242,2.555,
51900510,-1.051,0.192,0.159,-9.327,-7.542,0.647,
51900520,-0.928,0.213,0.209,-3.325,-11.217,-3.01,
51900530,-0.983,0.225,0.222,-2.38,-8.715,-2.327,
51900540,-0.964,0.187,0.206,-3.395,-8.977,-2.957,
51900550,-0.881,0.2,0.207,1.942,-6.79,-2.695,
51900560,-0.903,0.205,0.186,3.482,-1.015,1.032,
51900570,-0.872,0.182,0.174,4.882,4.62,4.812,
51900580,-0.794,0.171,0.207,10.29,13.422,10.15,
51900580,-1.056,0.255,0.312,14.105,23.957,17.185,
51900600,-0.964,0.24,0.342,10.097,23.887,14.927,
51900600,-0.969,0.216,0.285,6.457,22.365,5.932,
51900620,-0.851,0.194,0.26,11.637,31.92,2.38,
51900620,-0.912,0.223,0.302,17.255,48.212,7.14,
51900640,-0.925,0.198,0.213,11.585,65.397,9.345,
51900640,-0.939,0.166,0.187,17.657,77.49,10.64,
51900660,-0.95,0.225,0.145,24.937,84.49,12.04,
51900660,-1.052,0.261,0.145,26.862,86.292,17.972,
51900670,-1.084,0.271,0.099,21.927,82.582,17.482,
51900680,-1.059,0.291,0.066,20.002,73.185,10.377,
51900690,-1.086,0.249,0.074,16.73,63.945,6.335,
51900700,-0.931,0.192,0.015,16.607,48.23,13.492,
51900710,-1.054,0.281,0.075,22.102,39.217,17.097,
51900720,-0.987,0.208,-0.007,20.44,28.402,15.085,
51900730,-1.001,0.229,0.016,25.06,15.26,19.967,
51900740,-1.1,0.223,0.04,26.145,7.507,21.63,
51900750,-1.04,0.209,-0.037,23.8,-4.55,10.832,
51900760,-1.02,0.174,-0.01,32.952,-16.957,6.16,
51900770,-0.966,0.285,0.024,41.282,-25.865,10.22,
51900780,-0.971,0.331,0.05,33.967,-28.525,11.97,
51900790,-0.96,0.325,0.047,27.58,-22.855,4.217,
51900800,-0.949,0.302,0.064,26.25,-14.577,-0.49,
51900810,-0.974,0.292,0.07,22.102,-9.362,0.822,
51900820,-0.983,0.298,0.058,16.695,-7.49,1.855,
51900830,-1.151,0.131,-0.026,14.927,-6.597,-3.062,
51900840,-0.898,0.301,0.046,28.665,-10.797,-13.912,
51900850,-0.935,0.359,0.075,25.567,-17.43,2.152,
51900860,-1.01,0.352,0.07,10.552,-18.27,0.262,
51900870,-1.049,0.288,0.052,4.252,-24.185,-6.772,
51900880,-1.022,0.236,0.088,-1.155,-35.84,-11.462,
51900890,-1.016,0.253,0.114,-1.557,-43.382,-10.955,
51900900,-1.034,0.329,0.105,-3.64,-49.315,-13.807,
51900910,-0.845,0.337,0.089,-18.567,-47.057,-18.025,
51900920,-0.972,0.203,0.039,-22.977,-32.095,-14.822,
51900920,-1.194,0.186,0.112,-6.72,-28.665,-15.855,
51900940,-1.118,0.251,0.122,-3.36,-40.267,-16.362,
51900940,-0.91,0.238,0.078,-10.325,-45.85,-15.102,
51900960,-0.864,0.208,0.097,-5.092,-33.81,-12.18,
51900960,-0.934,0.213,0.131,3.517,-19.25,-6.86,
51900980,-0.994,0.235,0.144,6.265,-10.727,-1.4,
51900980,-1.029,0.241,0.146,7.315,-6.597,1.417,
51901000,-1.022,0.269,0.154,9.747,-6.65,0.91,
51901000,-1.045,0.246,0.156,13.982,-9.117,3.692,
51901010,-1.021,0.293,0.198,17.692,-11.497,3.255,
51901020,-0.965,0.343,0.183,12.88,-11.567,2.187,
51901030,-0.964,0.283,0.13,8.75,-8.4,7.735,
51901040,-0.916,0.248,0.105,9.485,-1.26,8.207,
51901050,-0.894,0.264,0.072,11.602,9.082,3.342,
51901060,-0.912,0.304,0.079,15.295,18.497,-0.017,
51901070,-0.955,0.345,0.086,13.667,24.325,0.752,
51901080,-0.986,0.305,0.087,8.067,26.74,4.48,
51901090,-0.977,0.303,0.092,3.587,26.88,7.577,
51901100,-0.993,0.284,0.115,-2.257,24.202,12.18,
51901110,-0.96,0.3,0.1,-7.525,19.512,13.685,
51901120,-0.975,0.257,0.093,-13.632,16.52,13.335,
51901130,-0.955,0.257,0.104,-14.857,14.035,9.59,
51901140,-0.974,0.245,0.081,-15.925,9.8,8.365,
51901150,-0.954,0.224,0.03,-13.947,2.852,8.102,
51901160,-0.942,0.217,0.073,-8.522,-5.512,11.27,
51901170,-0.999,0.195,0.049,-5.197,-16.747,16.397,
51901180,-0.961,0.207,0.047,-4.427,-26.635,20.247,
51901190,-1.008,0.184,0.103,6.002,-35.437,26.547,
51901200,-0.981,0.208,0.177,18.095,-43.26,26.495,
51901210,-0.838,0.302,0.184,18.742,-41.667,15.627,
51901220,-0.765,0.332,0.175,13.737,-24.99,4.427,
51901230,-0.825,0.33,0.19,10.692,-6.895,-3.692,
51901240,-0.889,0.341,0.198,5.39,1.557,-7.122,
51901250,-0.919,0.366,0.195,0.77,2.922,-8.435,
51901260,-0.926,0.382,0.2,-4.095,1.032,-9.012,
51901270,-0.936,0.381,0.203,-7.945,-2.45,-9.327,
51901280,-0.934,0.383,0.188,-13.545,-3.71,-12.267,
51901290,-0.901,0.379,0.201,-18.69,-1.942,-19.32,
51901300,-0.893,0.369,0.185,-27.265,2.555,-27.527,
51901310,-0.877,0.331,0.17,-32.55,7.647,-35.367,
51901320,-0.847,0.331,0.144,-37.66,13.737,-40.565,
51901330,-0.855,0.278,0.124,-38.412,20.335,-42.77,
51901330,-0.837,0.32,0.164,-41.037,30.205,-47.25,
51901350,-0.853,0.427,0.174,-52.797,38.57,-51.957,
51901350,-1.159,0.137,0.083,-59.867,37.065,-35.28,
51901370,-0.984,0.246,0.138,-55.037,26.757,-43.697,
51901370,-1.019,0.238,0.127,-55.51,17.815,-46.27,
51901390,-1.035,0.202,0.096,-60.147,5.792,-49.332,
51901390,-1.034,0.153,0.096,-58.1,-7.787,-48.282,
51901410,-0.968,0.17,0.149,-53.602,-16.082,-43.172,
51901410,-0.863,0.204,0.15,-52.885,-11.375,-38.867,
51901420,-0.884,0.076,0.075,-51.065,6.09,-36.505,
51901430,-0.981,-0.072,0.107,-25.987,21.332,-19.845,
51901440,-1.049,0.1,0.11,-15.645,27.492,3.045,
51901450,-1.094,0.188,0.151,-9.852,28.945,5.39,
51901460,-1.114,0.181,0.106,-15.802,27.79,-2.625,
51901470,-1.099,0.14,0.125,-21.507,26.267,-10.045,
51901480,-1.123,0.136,0.137,-20.825,24.325,-14.21,
51901490,-1.135,0.155,0.125,-22.4,20.65,-18.567,
51901500,-1.107,0.15,0.114,-27.79,15.925,-26.46,
51901510,-1.062,0.102,0.073,-33.845,11.41,-33.687,
51901520,-1.023,0.04,0.047,-31.692,11.147,-34.387,
51901530,-0.982,0.054,0.053,-25.322,14.455,-30.327,
51901540,-0.999,0.064,0.058,-17.237,17.465,-21.42,
51901550,-1.035,-0.027,0.047,-9.117,17.482,-11.06,
51901560,-0.972,-0.005,0.05,-8.54,19.547,-14.21,
51901570,-0.999,-0.001,0.055,-7.525,21.612,-13.37,
51901580,-1.01,-0.028,0.066,-2.275,20.58,-10.115,
51901590,-1.004,-0.041,0.082,0.857,19.005,-7.385,
51901600,-1.028,-0.062,0.091,-0.087,17.675,-3.902,
51901610,-1.042,-0.054,0.107,-0.875,16.572,-1.697,
51901620,-1.092,-0.078,0.129,-1.785,14.997,1.085,
51901630,-1.112,-0.053,0.166,-6.422,11.707,0.21,
51901640,-1.146,-0.058,0.199,-17.342,9.065,-4.392,
51901650,-1.185,-0.115,0.151,-34.51,7.35,-13.037,
51901660,-1.183,-0.129,0.12,-43.645,4.095,-15.172,
51901670,-1.183,-0.169,0.073,-44.625,-0.28,-4.777,
51901670,-1.177,-0.232,0.003,-40.372,-3.447,10.657,
51901690,-1.1,-0.053,0.03,-36.47,-2.03,9.572,
51901690,-1.135,-0.064,-0.007,-35.472,-1.365,4.217,
51901710,-1.139,-0.099,0.025,-23.31,-2.817,3.552,
51901710,-1.14,-0.063,-0.018,-20.265,-10.01,6.16,
51901730,-1.071,0.001,0.02,-14.402,-14.192,9.502,
51901730,-1.057,0.018,0.022,-7.192,-18.445,7.7,
51901750,-0.961,0.034,-0.013,-3.447,-22.382,1.697,
51901750,-0.851,0.05,0,3.657,-19.845,1.26,
51901760,-0.784,0.121,0.034,3.517,-15.032,8.225,
51901770,-0.792,0.093,-0.034,-1.872,-10.395,15.837,
51901780,-0.753,0.151,-0.074,-2.695,-4.55,13.842,
51901790,-0.77,0.17,-0.004,0.717,-0.402,8.925,
51901800,-0.863,0.162,-0.065,-2.467,-0.84,6.457,
51901810,-0.902,0.176,-0.072,3.955,-7.07,1.802,
51901820,-0.866,0.215,0.009,17.132,-17.99,5.145,
51901830,-0.893,0.232,-0.07,11.042,-30.065,24.045,
51901840,-0.841,0.255,-0.025,11.97,-36.907,13.737,
51901850,-0.845,0.266,0.018,9.922,-37.66,10.535,
51901860,-0.872,0.292,0.046,-0.787,-37.712,8.382,
51901870,-0.94,0.288,0.101,-7.752,-37.712,5.722,
51901880,-0.993,0.289,0.114,-18.76,-39.76,2.905,
51901890,-1.034,0.284,0.13,-31.342,-44.467,3.85,
51901900,-1.062,0.263,0.088,-44.765,-52.08,5.372,
51901910,-0.997,0.291,0.109,-49.28,-55.79,-4.235,
51901920,-1.021,0.255,0.156,-50.522,-57.872,-12.53,
51901930,-1.049,0.231,0.171,-56.647,-64.347,-13.177,
51901940,-0.958,0.193,0.133,-56.822,-65.222,-14.63,
51901950,-0.886,0.149,0.174,-38.692,-59.01,-16.922,
51901960,-0.88,0.132,0.197,-21.997,-51.047,-14.192,
51901970,-0.826,0.142,0.186,-13.877,-40.46,-3.867,
51901980,-0.768,0.125,0.192,-1.085,-25.042,9.677,
51901990,-0.748,0.147,0.185,15.067,-2.677,17.57,
51902000,-0.86,0.188,0.289,27.755,17.307,26.582,
51902010,-0.9,0.183,0.273,26.11,29.575,30.975,
51902020,-0.926,0.139,0.231,15.487,46.62,34.737,
51902030,-1.054,0.122,0.216,13.142,52.57,34.93,
51902040,-1.114,0.112,0.185,15.732,48.457,34.142,
51902050,-1.114,0.133,0.185,11.007,36.505,32.935,
51902060,-1.122,0.125,0.145,6.947,25.217,28.175,
51902070,-1.044,0.094,0.15,7.035,18.042,20.055,
51902080,-0.968,0.042,0.104,8.137,23.187,18.497,
51902080,-1.026,0.043,0.065,14.42,37.975,25.042,
51902100,-1.18,0.107,0.103,21.595,46.2,29.995,
51902100,-1.218,0.164,0.092,19.827,44.17,30.187,
51902120,-1.223,0.17,0.067,10.885,36.382,26.425,
51902120,-1.194,0.169,0.018,6.107,24.22,18.165,
51902140,-1.133,0.179,-0.003,5.32,10.587,9.975,
51902140,-1.036,0.187,-0.032,4.375,-1.522,6.475,
51902160,-0.946,0.191,-0.053,5.95,-6.86,6.755,
51902160,-0.968,0.176,-0.017,9.66,-6.51,10.167,
51902170,-1.035,0.19,0.03,12.075,-7.787,13.947,
51902180,-1.053,0.224,0.102,12.285,-11.97,14.385,
51902190,-1.108,0.243,0.106,7.56,-15.522,11.392,
51902200,-1.091,0.246,0.195,1.137,-22.907,4.445,
51902210,-0.994,0.223,0.195,-4.077,-26.722,-4.497,
51902220,-1.004,0.176,0.16,-11.777,-24.815,-5.425,
51902230,-0.973,0.146,0.133,-13.685,-21.472,-5.775,
51902240,-0.92,0.144,0.136,-7.28,-17.64,-7.07,
51902250,-0.906,0.156,0.119,-3.307,-13.265,-3.692,
51902260,-0.933,0.159,0.12,0.105,-8.977,0.192,
51902270,-0.965,0.17,0.117,2.922,-7.052,2.59,
51902280,-1.002,0.184,0.121,3.465,-6.597,3.78,
51902290,-1.026,0.197,0.116,3.185,-6.58,2.415,
51902300,-1.008,0.188,0.146,1.242,-6.195,0.63,
51902310,-1.093,0.225,0.104,-2.047,-10.622,-1.067,
51902320,-1.071,0.21,0.126,-6.877,-15.575,-5.897,
51902330,-0.981,0.152,0.112,-12.092,-17.85,-7.945,
51902340,-0.928,0.131,0.103,-9.292,-12.337,-5.81,
51902350,-0.972,0.149,0.129,-3.01,-7.087,-2.835,
51902360,-0.99,0.173,0.129,-1.242,-8.172,-0.63,
51902370,-0.971,0.165,0.114,-1.872,-10.062,0.192,
51902380,-1.002,0.162,0.12,0.14,-9.082,0.35,
51902390,-1.04,0.188,0.131,1.592,-10.045,-0.472,
51902400,-1.035,0.202,0.126,-0.385,-11.655,-2.642,
51902410,-1.03,0.185,0.121,-2.677,-12.95,-4.9,
51902420,-1.011,0.179,0.127,-3.465,-14.437,-6.247,
51902420,-0.991,0.178,0.124,-4.007,-15.662,-6.737,
51902440,-0.986,0.167,0.135,-4.532,-16.047,-6.755,
51902440,-0.966,0.158,0.144,-4.06,-14.962,-6.615,
51902460,-0.955,0.155,0.153,-2.432,-12.862,-5.897,
51902460,-0.953,0.159,0.162,-0.122,-9.45,-4.882,
51902480,-0.98,0.163,0.161,1.12,-6.737,-3.465,
51902480,-0.971,0.165,0.161,0.927,-6.597,-2.73,
51902500,-0.963,0.164,0.156,1.015,-5.18,-2.362,
51902500,-0.977,0.161,0.152,1.575,-4.217,-1.925,
51902510,-0.982,0.165,0.156,1.54,-3.5,-1.242,
51902520,-0.985,0.171,0.166,1.207,-2.747,-0.98,
51902530,-1.01,0.171,0.165,-0.525,-1.575,-0.612,
51902540,-1.02,0.168,0.16,-2.59,-2.31,-1.347,
51902550,-0.994,0.164,0.155,-4.007,-3.22,-2.747,
51902560,-0.998,0.157,0.14,-5.232,-3.972,-2.8,
51902570,-0.995,0.157,0.153,-5.705,-4.672,-2.537,
51902580,-0.987,0.159,0.157,-6.282,-4.497,-2.555,
51902590,-0.983,0.157,0.157,-7.122,-3.727,-2.485,
51902600,-0.984,0.157,0.162,-7.752,-3.71,-2.117,
51902610,-0.989,0.166,0.171,-9.17,-4.935,-1.435,
51902620,-1.014,0.173,0.17,-12.845,-8.4,-0.595,
51902630,-1.011,0.169,0.141,-17.342,-12.18,-0.595,
51902640,-0.978,0.138,0.136,-18.497,-16.065,-1.347,
51902650,-0.895,0.108,0.135,-14.49,-15.47,-0.77,
51902660,-0.889,0.097,0.126,-5.512,-8.4,2.432,
51902670,-0.938,0.124,0.13,3.447,-3.132,7.42,
51902680,-0.971,0.142,0.128,7.7,-2.065,11.48,
51902690,-0.993,0.14,0.108,10.395,-3.745,13.3,
51902700,-1.039,0.163,0.108,13.615,-4.812,13.37,
51902710,-1.096,0.193,0.153,14.612,-8.137,11.077,
51902720,-1.089,0.205,0.166,11.077,-10.885,6.597,
51902730,-1.07,0.203,0.171,7.315,-11.917,0.997,
51902740,-1.028,0.197,0.182,4.865,-12.705,-4.235,
51902750,-0.966,0.182,0.155,1.925,-10.255,-6.335,
51902760,-0.981,0.16,0.152,0.437,-8.575,-5.232,
51902770,-0.926,0.17,0.181,1.522,-7.175,-4.515,
51902780,-0.956,0.179,0.203,1.89,-2.415,-3.01,
51902790,-1.009,0.171,0.228,-0.927,-1.82,-1.872,
51902800,-0.959,0.143,0.231,-3.43,-2.835,-3.36,
51902810,-0.904,0.144,0.255,-2.397,-1.242,-4.392,
51902820,-0.902,0.157,0.27,-5.81,0.192,-0.227,
51902830,-0.913,0.146,0.205,-12.67,0.682,5.407,
51902830,-0.899,0.135,0.205,-14.017,3.517,8.802,
51902840,-1.01,0.134,0.136,-12.355,6.545,11.777,
51902850,-1.014,0.159,0.116,-8.522,6.405,11.795,
51902860,-1.054,0.179,0.121,-3.325,5.95,8.942,
51902870,-1.075,0.195,0.132,-1.977,3.342,5.967,
51902880,-1.019,0.195,0.141,-2.625,-0.28,1.452,
51902890,-1,0.173,0.125,-2.992,-0.437,-1.96,
51902900,-0.994,0.151,0.111,-2.502,-1.155,-2.275,
51902910,-0.984,0.141,0.106,-0.105,-2.345,-1.172,
51902920,-1.007,0.139,0.118,3.115,-3.815,0.647,
51902930,-1.016,0.156,0.108,5.425,-5.547,1.855,
51902940,-1.039,0.18,0.113,6.965,-9.257,1.872,
51902950,-1.027,0.172,0.14,6.125,-13.58,0.962,
51902960,-1.016,0.153,0.118,6.265,-14.175,-0.805,
51902970,-1.004,0.167,0.148,9.537,-15.627,-2.467,
51902980,-0.982,0.179,0.168,9.94,-16.66,-2.555,
51902990,-0.949,0.174,0.213,9.677,-14.192,-3.01,
51903000,-0.987,0.165,0.207,9.502,-9.537,-3.185,
51903010,-0.943,0.188,0.233,6.895,-8.942,-2.257,
51903020,-0.975,0.194,0.211,2.975,-4.935,-1.592,
51903030,-1.005,0.188,0.204,-1.435,-4.025,-1.487,
51903040,-0.962,0.192,0.192,-3.797,-4.217,-3.045,
51903050,-0.966,0.17,0.213,-4.795,-2.782,-3.797,
51903060,-0.946,0.149,0.217,-5.845,-0.227,-3.377,
51903070,-0.949,0.15,0.208,-5.075,2.975,-2.747,
51903080,-0.968,0.148,0.199,-6.055,4.392,-1.032,
51903090,-0.953,0.14,0.201,-7.192,4.725,0.28,
51903100,-0.96,0.148,0.191,-7.175,6.65,1.207,
51903110,-0.984,0.15,0.169,-8.032,6.72,2.485,
51903120,-0.969,0.151,0.143,-8.12,5.302,3.587,
51903130,-0.986,0.148,0.128,-5.757,5.81,4.602,
51903140,-1.043,0.138,0.126,-3.85,3.097,5.827,
51903150,-0.954,0.157,0.134,-0.21,0.875,4.41,
51903160,-1.016,0.146,0.123,3.29,1.785,3.972,
51903170,-1.014,0.154,0.094,3.465,-1.732,5.722,
51903170,-1.029,0.182,0.088,6.142,-6.37,5.46,
51903190,-1.034,0.191,0.074,6.807,-11.847,5.425,
51903190,-1.013,0.203,0.12,7.595,-17.657,4.882,
51903210,-0.992,0.209,0.185,7.612,-19.005,3.22,
51903210,-0.992,0.2,0.23,4.795,-17.587,1.522,
51903230,-0.951,0.193,0.231,2.52,-13.037,-1.505,
51903230,-0.971,0.174,0.247,1.715,-7.875,-3.622,
51903250,-0.957,0.181,0.236,0.577,-2.765,-4.532,
51903250,-0.95,0.171,0.24,-0.98,0.927,-4.83,
51903260,-0.965,0.169,0.197,-3.027,4.305,-4.865,
51903270,-0.981,0.15,0.169,-4.322,5.845,-4.515,
51903280,-0.983,0.138,0.165,-4.462,6.51,-3.797,
51903290,-0.997,0.145,0.163,-3.08,7.105,-3.43,
51903300,-1.018,0.152,0.165,-4.725,5.25,-2.17,
51903310,-1.011,0.138,0.147,-6.772,2.695,-1.89,
51903320,-0.983,0.134,0.145,-6.23,0.245,-1.715,
51903330,-0.984,0.142,0.155,-4.742,-0.647,-0.437,
51903340,-1.007,0.147,0.151,-4.165,-1.592,0.717,
51903350,-0.983,0.148,0.155,-3.447,-3.132,0.56,
51903360,-0.984,0.14,0.157,-2.31,-3.815,0.787,
51903370,-0.973,0.147,0.175,-1.242,-4.34,1.89,
51903380,-0.982,0.162,0.171,-1.697,-4.112,3.5,
51903390,-1.008,0.173,0.162,-4.497,-3.832,5.04,
51903400,-1.027,0.173,0.165,-7.875,-5.81,5.18,
51903410,-0.997,0.182,0.174,-11.83,-8.907,5.145,
51903420,-0.992,0.166,0.194,-14.56,-10.307,4.62,
51903430,-0.956,0.176,0.176,-14.017,-8.802,2.852,
51903440,-0.992,0.169,0.166,-11.917,-6.807,1.697,
51903450,-0.976,0.153,0.143,-9.765,-7.367,1.61,
51903460,-0.971,0.171,0.124,-4.165,-7.56,0.525,
51903470,-1.014,0.182,0.105,-0.35,-8.907,0.157,
51903480,-1.035,0.178,0.111,0.175,-11.9,0.227,
51903490,-1.048,0.175,0.132,1.295,-14.787,-1.627,
51903500,-1.013,0.18,0.182,1.417,-17.395,-4.147,
51903510,-0.935,0.166,0.216,0.787,-15.907,-6.317,
51903510,-0.959,0.129,0.21,0.227,-11.637,-5.442,
51903530,-0.93,0.133,0.208,1.19,-10.097,-3.045,
51903530,-0.923,0.155,0.22,2.782,-6.72,-0.735,
51903550,-0.979,0.165,0.229,1.872,-2.397,0.962,
51903550,-0.999,0.164,0.255,-0.28,0.14,0.192,
51903570,-0.968,0.176,0.242,-2.992,2.782,-1.662,
51903570,-1.01,0.163,0.227,-6.142,5.11,-2.572,
51903580,-0.981,0.144,0.167,-8.662,5.145,-2.887,
51903590,-0.946,0.146,0.183,-6.947,4.69,-2.607,
51903600,-0.973,0.142,0.186,-6.3,6.072,-1.277,
51903610,-0.992,0.147,0.163,-6.842,5.355,-0.28,
51903620,-0.974,0.146,0.172,-6.475,2.17,-0.21,
51903630,-0.98,0.133,0.177,-5.32,2.012,0.07,
51903640,-0.985,0.126,0.172,-2.835,2.082,0.052,
51903650,-0.976,0.132,0.144,-1.312,1.522,1.487,
51903660,-0.998,0.142,0.126,0.525,-0.017,3.202,
51903670,-0.989,0.157,0.113,2.362,-2.38,3.99,
51903680,-1.006,0.166,0.128,3.727,-4.497,4.9,
51903690,-1.053,0.164,0.129,4.427,-7.21,4.847,
51903700,-1.01,0.163,0.162,5.635,-10.85,2.45,
51903710,-1.002,0.166,0.144,7.245,-10.57,0.63,
51903720,-1.025,0.185,0.175,7.717,-12.932,0.21,
51903730,-1.016,0.185,0.164,5.285,-14.56,-0.84,
51903740,-0.99,0.184,0.205,4.567,-15.225,-3.675,
51903750,-0.971,0.193,0.192,4.287,-11.427,-6.685,
51903760,-1.012,0.154,0.18,1.242,-11.305,-6.352,
51903770,-0.913,0.133,0.189,2.03,-11.97,-6.387,
51903780,-0.939,0.134,0.213,5.635,-7.63,-4.69,
51903790,-1.005,0.147,0.232,3.045,-5.32,-0.525,
51903800,-1.024,0.142,0.233,-1.645,-6.615,-0.472,
51903810,-0.977,0.126,0.212,-4.777,-7.332,-2.485,
51903820,-0.963,0.119,0.202,-4.427,-6.492,-2.275,
51903830,-0.971,0.131,0.192,-3.587,-6.177,0.227,
51903840,-0.974,0.15,0.21,-3.552,-5.862,2.415,
51903850,-0.995,0.16,0.209,-4.55,-4.777,2.432,
51903860,-1.017,0.148,0.179,-6.317,-5.232,1.312,
51903870,-0.955,0.13,0.171,-5.127,-8.715,0.21,
51903880,-0.905,0.127,0.181,0.315,-7.612,0.35,
51903890,-0.947,0.137,0.191,4.69,-4.532,3.045,
51903900,-0.984,0.159,0.193,5.88,-3.5,5.302,
51903910,-1.009,0.165,0.198,6.142,-4.69,4.69,
51903920,-1.004,0.178,0.152,5.46,-5.617,3.57,
51903920,-0.986,0.189,0.167,6.317,-9.117,1.925,
51903940,-0.977,0.183,0.185,5.512,-10.36,1.785,
51903940,-0.985,0.173,0.206,5.127,-9.695,1.067,
51903960,-1.022,0.169,0.186,4.882,-9.257,-0.385,
51903960,-0.971,0.174,0.231,4.27,-11.147,-1.977,
51903980,-0.969,0.162,0.233,3.43,-8.557,-3.22,
51903980,-0.975,0.16,0.226,1.82,-5.302,-3.01,
51904000,-0.979,0.167,0.217,0.14,-2.975,-2.66,
51904000,-0.984,0.168,0.216,-2.467,-1.452,-2.257,
51904010,-0.964,0.16,0.225,-4.392,0.577,-2.485,
51904020,-0.985,0.141,0.238,-6.282,2.135,-1.995,
51904030,-0.969,0.133,0.232,-7.35,3.395,-2.082,
51904040,-0.958,0.126,0.211,-6.86,3.535,-1.942,
51904050,-0.964,0.128,0.207,-6.142,2.87,-0.28,
51904060,-0.946,0.14,0.22,-5.145,2.502,0.857,
51904070,-0.951,0.146,0.232,-5.302,4.48,1.785,
51904080,-0.995,0.14,0.198,-7.297,6.177,3.062,
51904090,-0.976,0.127,0.172,-7.332,5.355,3.412,
51904100,-1.001,0.113,0.156,-3.622,4.725,3.412,
51904110,-0.938,0.127,0.17,1.96,3.955,3.447,
51904120,-0.964,0.151,0.162,5.897,7.752,4.76,
51904130,-1.038,0.157,0.141,5.197,8.855,6.895,
51904140,-1.053,0.175,0.144,3.99,5.792,6.597,
51904150,-1.07,0.171,0.138,2.537,2.24,4.287,
51904160,-1.058,0.177,0.155,1.12,-1.732,1.47,
51904170,-1.034,0.17,0.169,0.087,-6.772,-1.505,
51904180,-1.023,0.154,0.113,-2.17,-10.657,-2.38,
51904190,-0.965,0.165,0.173,0.42,-15.68,-3.307,
51904200,-0.905,0.181,0.25,0.892,-13.895,-2.52,
51904210,-0.918,0.18,0.277,-0.98,-4.252,-1.767,
51904220,-0.99,0.174,0.253,-4.007,4.41,-1.785,
51904230,-1.014,0.159,0.248,-7.297,5.215,-2.87,
51904240,-0.928,0.157,0.227,-7.77,5.95,-4.952,
51904250,-0.928,0.156,0.234,-5.442,10.255,-5.967,
51904260,-0.959,0.151,0.203,-6.352,14.105,-4.375,
51904260,-0.951,0.138,0.191,-7.875,13.93,-2.922,
51904280,-0.942,0.12,0.179,-7.577,14.472,-1.505,
51904280,-0.975,0.121,0.177,-6.072,14.857,0.945,
51904300,-1.015,0.138,0.164,-6.107,13.387,3.36,
51904300,-1.029,0.144,0.146,-7.63,10.955,3.797,
51904320,-1.047,0.145,0.127,-7.262,7.91,1.785,
51904320,-1.013,0.156,0.152,-6.44,3.535,-0.087,
51904330,-0.99,0.157,0.161,-6.86,2.712,-1.032,
51904340,-1.04,0.131,0.129,-7.77,1.382,-1.575,
51904350,-0.981,0.108,0.145,-7.245,-5.005,-1.592,
51904360,-0.924,0.111,0.156,-2.87,-5.477,-0.682,
51904370,-0.996,0.112,0.159,0.42,-3.062,2.205,
51904380,-0.997,0.124,0.133,0.682,-5.425,4.725,
51904390,-0.971,0.136,0.116,3.5,-6.842,4.987,
51904400,-1.006,0.158,0.118,6.352,-6.86,6.23,
51904410,-1.054,0.173,0.149,6.755,-9.082,6.597,
51904420,-1.03,0.18,0.147,5.757,-11.077,3.727,
51904430,-1.013,0.175,0.171,5.495,-13.352,0.227,
51904440,-1.004,0.156,0.154,4.427,-13.51,-1.172,
51904450,-0.988,0.153,0.177,5.775,-14.28,-2.17,
51904460,-0.969,0.161,0.2,7.367,-13.912,-3.202,
51904470,-0.946,0.174,0.211,7.227,-9.905,-3.657,
51904480,-0.977,0.175,0.206,5.932,-5.127,-3.815,
51904490,-1.004,0.174,0.168,2.59,-1.365,-3.377,
51904500,-1.025,0.141,0.183,0.175,-2.362,-3.535,
51904510,-0.968,0.127,0.197,0.28,-1.75,-4.445,
51904520,-1.001,0.147,0.21,1.785,0.805,-5.04,
51904530,-1.007,0.158,0.225,-2.31,-0.997,-4.97,
51904540,-0.921,0.124,0.233,-7.822,-3.22,-5.285,
51904550,-0.905,0.086,0.216,-7.822,-1.242,-3.342,
51904560,-0.933,0.102,0.205,-5.372,0.595,1.382,
51904570,-0.931,0.14,0.224,-3.36,2.31,4.76,
51904580,-0.996,0.153,0.188,-4.217,5.46,6.597,
51904590,-1.025,0.15,0.178,-5.74,4.55,5.985,
51904600,-1.035,0.144,0.137,-5.705,1.26,3.447,
51904610,-0.975,0.13,0.14,-4.147,-3.727,1.592,
51904620,-0.947,0.131,0.122,-1.05,-3.517,2.66,
51904630,-0.993,0.132,0.146,1.54,-3.5,5.845,
51904640,-0.979,0.146,0.154,2.52,-3.64,7.455,
51904650,-0.976,0.153,0.138,5.092,-3.062,6.755,
51904660,-0.977,0.149,0.124,6.387,-3.57,7.857,
51904670,-0.979,0.151,0.113,9.205,-4.007,8.75,
51904670,-1.028,0.162,0.121,12.81,-4.62,9.292,
51904690,-1.018,0.186,0.174,14.35,-6.09,7.927,
51904690,-1.007,0.187,0.193,13.405,-3.762,5.11,
51904710,-1.06,0.161,0.186,10.745,-3.465,2.835,
51904710,-0.977,0.158,0.19,8.82,-8.12,0.945,
51904730,-0.932,0.166,0.209,8.732,-7.805,0.612,
51904730,-1.017,0.157,0.203,6.405,-5.285,2.257,
51904750,-0.985,0.174,0.186,3.395,-5.075,2.065,
51904750,-1,0.165,0.19,1.382,-4.935,1.207,
51904760,-0.983,0.158,0.205,-1.102,-4.602,1.155,
51904770,-0.99,0.153,0.216,-1.662,-3.36,0.525,
51904780,-0.986,0.152,0.227,-3.202,-2.31,-0.017,
51904790,-0.965,0.153,0.217,-5.495,-1.89,-0.367,
51904800,-0.971,0.14,0.204,-7.297,0.367,0.157,
51904810,-0.982,0.14,0.205,-7.962,2.607,0.7,
51904820,-0.973,0.156,0.203,-8.435,4.812,1.032,
51904830,-1.006,0.158,0.162,-9.957,7.437,1.242,
51904840,-1.001,0.137,0.144,-9.66,5.232,0.07,
51904850,-0.964,0.13,0.119,-6.335,2.59,0,
51904860,-0.955,0.144,0.119,-1.26,0.822,1.907,
51904870,-0.994,0.168,0.119,1.855,0.28,4.147,
51904880,-1.04,0.164,0.121,2.992,-2.03,4.427,
51904890,-0.997,0.156,0.125,3.727,-4.865,3.255,
51904900,-1.024,0.152,0.113,6.79,-5.67,2.257,
51904910,-1.021,0.173,0.122,8.61,-8.837,2.345,
51904920,-1.015,0.174,0.14,9.205,-11.76,1.452,
51904930,-1.01,0.175,0.181,9.625,-11.042,-0.472,
51904940,-1.017,0.182,0.217,8.767,-11.427,-2.73,
51904950,-0.927,0.189,0.237,5.197,-11.445,-4.27,
51904960,-0.946,0.173,0.204,2.047,-6.405,-3.605,
51904970,-0.996,0.151,0.194,-0.21,-4.06,-1.89,
51904980,-0.985,0.15,0.203,-1.487,-5.967,-1.33,
51904990,-0.972,0.166,0.214,-1.627,-5.932,-2.415,
51905000,-0.967,0.155,0.228,-3.675,-4.952,-3.01,
51905010,-0.93,0.132,0.226,-5.932,-4.515,-2.467,
51905010,-0.911,0.126,0.233,-6.177,-2.24,0.28,
51905030,-0.959,0.127,0.227,-7.192,1.557,4.305,
51905030,-1.011,0.146,0.206,-8.785,3.132,5.827,
51905050,-1.003,0.163,0.192,-10.815,2.345,4.515,
51905050,-1.013,0.161,0.14,-11.2,4.795,2.415,
51905070,-1.024,0.145,0.117,-8.54,3.552,0.402,
51905070,-0.974,0.145,0.123,-3.92,-0.752,-0.56,
51905080,-0.936,0.153,0.129,1.19,-1.277,0.297,
51905090,-1.024,0.151,0.088,4.795,0.105,1.925,
51905100,-1.023,0.145,0.05,6.912,-1.925,3.062,
51905110,-1.02,0.148,0.064,12.145,-6.912,3.167,
51905120,-0.937,0.166,0.156,17.097,-9.957,3.815,
51905130,-0.91,0.165,0.236,18.795,-3.045,5.232,
51905140,-0.844,0.157,0.298,17.605,5.967,7,
51905150,-0.791,0.134,0.261,12.547,18.55,14,
51905160,-0.814,0.101,0.291,12.022,30.87,21.84,
51905170,-0.842,0.128,0.326,14.525,45.605,27.352,
51905180,-0.854,0.159,0.277,12.232,64.715,31.955,
51905190,-0.961,0.129,0.2,8.277,86.8,36.82,
51905200,-1.037,0.151,0.12,11.34,93.502,36.732,
51905210,-1.081,0.233,0.059,14.402,84.822,34.317,
51905220,-1.193,0.281,0.025,11.62,68.285,26.057,
51905230,-1.168,0.366,-0.025,1.032,51.817,7.612,
51905240,-1.211,0.258,-0.082,-2.222,34.492,-0.665,
51905250,-1.141,0.256,-0.056,-1.295,13.02,-4.13,
51905260,-1.101,0.277,-0.011,-6.65,-4.882,-4.987,
51905270,-1.113,0.259,0.042,-11.795,-17.99,-10.622,
51905280,-1.15,0.233,0.05,-18.882,-31.08,-15.68,
51905290,-1.071,0.195,0.04,-23.31,-42.35,-22.995,
51905300,-0.965,0.149,0.039,-21.735,-44.625,-27.282,
51905310,-0.952,0.117,0.024,-17.832,-42.962,-23.905,
51905320,-0.934,0.132,0.072,-10.43,-42.385,-19.075,
51905330,-0.973,0.166,0.122,-5.827,-40.74,-15.295,
51905340,-1.034,0.178,0.128,-7.437,-40.722,-13.562,
51905350,-1.002,0.176,0.125,-9.38,-43.085,-14.945,
51905360,-0.974,0.16,0.105,-9.152,-41.86,-15.925,
51905370,-0.965,0.15,0.111,-6.947,-40.127,-14.437,
51905380,-0.976,0.165,0.118,-3.412,-38.78,-13.212,
51905390,-0.878,0.149,0.174,-1.855,-33.215,-12.197,
51905400,-0.927,0.093,0.155,-1.26,-18.305,-7.437,
51905410,-0.946,0.123,0.156,4.672,-14.157,-4.602,
51905420,-0.902,0.158,0.187,6.597,-11.025,-0.91,
51905420,-0.982,0.147,0.18,6.002,-5.285,2.012,
51905440,-1.009,0.179,0.18,6.58,-3.5,2.065,
51905440,-1.025,0.198,0.164,3.675,-4.602,0.735,
51905460,-1.025,0.175,0.15,-0.087,-6.317,-1.61,
51905460,-0.999,0.17,0.162,-0.437,-6.772,-4.27,
51905480,-1.029,0.179,0.183,-1.137,-6.44,-5.565,
51905480,-1.003,0.172,0.187,-4.217,-8.225,-7.105,
51905500,-0.956,0.148,0.172,-6.002,-8.295,-8.365,
51905500,-0.951,0.127,0.161,-5.372,-6.842,-7.63,
51905510,-0.949,0.13,0.156,-3.78,-4.882,-5.145,
51905520,-0.978,0.141,0.167,-2.975,-3.657,-2.625,
51905530,-0.99,0.141,0.179,-3.99,-3.237,-1.312,
51905540,-0.975,0.13,0.175,-5.74,-3.552,-0.665,
51905550,-0.948,0.126,0.2,-6.247,-4.025,0.577,
51905560,-0.927,0.132,0.211,-6.93,-2.817,2.817,
51905570,-0.938,0.137,0.206,-9.047,-0.017,6.107,
51905580,-0.97,0.135,0.163,-10.78,4.095,8.4,
51905590,-0.99,0.12,0.134,-8.75,5.46,8.627,
51905600,-0.976,0.128,0.118,-2.415,5.407,8.12,
51905610,-0.995,0.152,0.106,4.41,6.317,7.717,
51905620,-1.057,0.173,0.084,7.595,5.215,7.192,
51905630,-1.061,0.19,0.055,7.735,0.07,5.827,
51905640,-1.049,0.183,0.053,7.892,-6.107,3.972,
51905650,-1.065,0.168,0.046,9.187,-10.535,2.607,
51905660,-1.033,0.186,0.135,12.827,-14.35,-0.087,
51905670,-1.052,0.195,0.159,12.88,-12.075,-3.307,
51905680,-1.051,0.191,0.188,8.907,-11.83,-6.492,
51905690,-0.982,0.165,0.178,5.022,-12.39,-9.677,
51905700,-0.959,0.134,0.168,2.87,-12.127,-8.977,
51905710,-0.924,0.132,0.168,4.917,-12.092,-7.28,
51905720,-0.907,0.15,0.176,6.615,-8.085,-3.797,
51905730,-0.986,0.139,0.188,6.107,-6.737,0.035,
51905740,-0.965,0.154,0.214,5.11,-7.017,1.732,
51905750,-0.969,0.167,0.246,2.222,-5.355,2.047,
51905760,-0.985,0.158,0.273,-3.622,-1.942,2.222,
51905760,-0.975,0.141,0.288,-9.397,1.225,1.662,
51905780,-0.93,0.139,0.269,-14.612,3.552,1.382,
51905780,-0.882,0.144,0.261,-19.355,6.142,3.342,
51905800,-0.909,0.138,0.176,-20.3,12.722,5.617,
51905800,-0.915,0.132,0.152,-16.292,18.69,6.737,
51905820,-1.008,0.139,0.087,-9.625,23.222,7.402,
51905820,-1.056,0.147,0.066,-3.08,16.677,6.527,
51905830,-0.985,0.154,0.08,2.59,9.485,5.18,
51905840,-1.016,0.142,0.064,7.315,8.732,4.48,
51905850,-1.059,0.144,0.031,8.662,5.897,5.95,
51905860,-1.081,0.174,0.017,9.292,-1.417,7.087,
51905870,-1.084,0.176,0.063,8.767,-9.695,6.422,
51905880,-1.078,0.167,0.059,8.4,-14.07,4.252,
51905890,-1.062,0.174,0.118,10.377,-19.425,1.12,
51905900,-0.981,0.177,0.189,9.415,-23.52,-0.84,
51905910,-0.97,0.148,0.173,6.632,-20.457,-0.91,
51905920,-0.976,0.137,0.176,5.582,-20.037,0.367,
51905930,-0.913,0.153,0.188,5.355,-18.812,2.275,
51905940,-0.949,0.159,0.191,5.705,-14.56,4.41,
51905950,-0.971,0.188,0.196,4.655,-10.972,6.09,
51905960,-0.999,0.204,0.205,2.607,-9.065,5.285,
51905970,-1.003,0.211,0.222,-0.56,-7.42,2.957,
51905980,-1.02,0.189,0.22,-3.447,-6.195,-0.875,
51905990,-0.938,0.182,0.195,-5.005,-3.937,-4.41,
51906000,-0.967,0.167,0.163,-5.53,-0.017,-4.497,
51906010,-0.976,0.146,0.172,-6.212,1.907,-2.782,
51906020,-0.978,0.126,0.171,-5.565,3.482,-1.785,
51906030,-0.986,0.131,0.172,-3.29,5.74,-1.995,
51906040,-0.996,0.148,0.163,-3.237,6.265,-1.067,
51906050,-1.002,0.152,0.178,-4.672,5.215,0.017,
51906060,-0.991,0.16,0.188,-6.51,3.43,0.035,
51906070,-0.968,0.171,0.203,-9.327,0.525,-0.122,
51906080,-0.933,0.161,0.194,-12.95,0.787,0.385,
51906090,-0.929,0.131,0.179,-13.737,2.677,1.347,
51906100,-0.888,0.133,0.169,-10.657,5.845,3.64,
51906110,-0.922,0.152,0.143,-7.157,11.812,7.542,
51906120,-1.05,0.138,0.088,-5.18,12.32,10.57,
51906130,-1.047,0.13,0.08,-1.627,4.252,11.27,
51906140,-0.991,0.164,0.039,5.057,-0.49,9.607,
51906150,-1.069,0.196,0.038,9.59,-5.39,9.275,
51906160,-1.093,0.174,0,8.715,-15.82,10.482,
51906170,-1.072,0.165,-0.012,11.532,-29.225,10.902,
51906170,-1.063,0.191,0.047,17.692,-38.937,9.607,
51906190,-1.016,0.226,0.151,18.462,-40.022,8.172,
51906190,-1.091,0.212,0.229,13.912,-35.297,5.145,
51906200,-1.014,0.208,0.298,7.647,-34.09,-0.245,
51906210,-0.913,0.199,0.285,-0.472,-28.752,-3.342,
51906220,-0.932,0.158,0.243,-8.452,-22.872,-1.61,
51906230,-0.865,0.134,0.243,-9.922,-18.69,1.19,
51906240,-0.862,0.145,0.277,-6.877,-11.812,4.462,
51906250,-0.889,0.158,0.295,-4.882,-3.22,6.212,
51906260,-0.917,0.151,0.284,-3.78,4.007,6.387,
51906270,-0.957,0.159,0.217,-2.782,9.59,7.7,
51906280,-0.984,0.196,0.193,-2.117,11.917,8.347,
51906290,-1.009,0.227,0.195,-1.697,13.212,6.44,
51906300,-1.034,0.216,0.197,-5.092,13.195,3.342,
51906310,-1.035,0.196,0.171,-8.452,10.062,-0.822,
51906320,-0.977,0.186,0.161,-10.797,5.617,-2.817,
51906330,-0.964,0.172,0.16,-11.042,3.972,-2.642,
51906340,-0.979,0.163,0.162,-10.867,5.162,-1.242,
51906350,-1.014,0.144,0.134,-11.235,4.777,-0.035,
51906360,-0.982,0.123,0.128,-8.627,2.24,1.05,
51906370,-0.957,0.14,0.134,-1.68,0.105,1.89,
51906380,-0.955,0.166,0.14,3.185,-0.245,3.605,
51906390,-0.995,0.164,0.106,5.11,-0.56,4.987,
51906400,-1.025,0.178,0.092,8.697,-4.9,5.11,
51906410,-1.031,0.193,0.118,10.36,-10.43,5.495,
51906420,-1.067,0.201,0.126,11.2,-12.582,3.57,
51906430,-1.054,0.212,0.155,11.165,-17.255,-0.157,
51906440,-1.014,0.218,0.175,8.802,-20.177,-3.115,
51906450,-0.981,0.192,0.198,6.58,-20.177,-5.81,
51906460,-0.966,0.171,0.207,4.69,-17.237,-6.23,
51906470,-0.914,0.178,0.237,5.74,-14.892,-6.667,
51906480,-0.914,0.191,0.216,4.34,-9.275,-4.252,
51906490,-0.962,0.178,0.228,2.047,-6.912,-1.365,
51906500,-0.95,0.172,0.243,1.452,-6.422,-0.875,
51906510,-0.944,0.203,0.228,0.787,-1.155,-0.577,
51906510,-1.036,0.188,0.229,-3.307,1.312,-0.787,
51906530,-0.971,0.155,0.227,-6.912,0.962,-2.415,
51906530,-0.933,0.147,0.225,-5.32,4.305,-3.552,
51906550,-0.91,0.159,0.226,-5.495,7.56,-0.735,
51906550,-0.933,0.156,0.224,-7.7,9.887,3.325,
51906570,-0.942,0.163,0.215,-8.505,11.725,5.32,
51906570,-0.919,0.184,0.23,-8.645,17.202,6.195,
51906580,-1.041,0.191,0.187,-9.835,24.045,5.39,
51906590,-1.08,0.181,0.123,-12.18,19.967,2.485,
51906600,-1.011,0.153,0.092,-11.077,9.835,-0.087,
51906610,-0.974,0.16,0.081,-4.357,4.567,-0.612,
51906620,-1.004,0.174,0.08,1.295,1.085,0.122,
51906630,-1.013,0.176,0.059,3.29,-2.992,1.47,
51906640,-1.04,0.179,0.067,5.687,-8.487,1.837,
51906650,-1.042,0.179,0.086,7.7,-13.807,1.995,
51906660,-1.041,0.19,0.134,8.907,-16.397,1.435,
51906670,-1.046,0.194,0.153,7.787,-17.972,-0.087,
51906680,-1.017,0.199,0.175,4.252,-20.002,-1.382,
51906690,-0.946,0.177,0.206,2.047,-19.582,-3.377,
51906700,-0.947,0.152,0.199,1.155,-14.735,-2.59,
51906710,-0.936,0.157,0.227,2.327,-13.247,-0.945,
51906720,-0.929,0.162,0.218,3.167,-11.375,0.472,
51906730,-0.948,0.157,0.224,4.585,-8.592,1.557,
51906740,-0.932,0.198,0.234,5.6,-3.657,2.38,
51906750,-1.034,0.226,0.213,1.102,1.137,2.975,
51906760,-1.033,0.193,0.212,-5.722,-1.207,0.455,
51906770,-0.94,0.162,0.211,-6.195,-1.907,-3.78,
51906780,-0.919,0.167,0.254,-2.957,2.327,-4.707,
51906790,-0.926,0.167,0.249,-5.302,5.635,-1.872,
51906800,-0.939,0.164,0.25,-8.925,7.63,1.12,
51906810,-0.976,0.172,0.202,-13.702,7.105,3.622,
51906820,-0.955,0.18,0.175,-15.452,9.31,3.605,
51906830,-1.013,0.179,0.133,-13.79,14.35,2.135,
51906840,-1.075,0.174,0.128,-12.985,11.725,1.435,
51906850,-1.021,0.168,0.094,-11.077,4.287,-0.49,
51906850,-0.994,0.141,0.115,-5.565,-2.047,-2.887,
51906870,-0.914,0.136,0.116,0.91,-3.587,-2.887,
51906870,-0.966,0.151,0.086,6.072,0.105,0.682,
51906890,-1.066,0.171,0.047,7.682,-1.68,4.847,
51906890,-1.072,0.184,0.048,9.695,-10.5,4.987,
51906910,-1.052,0.184,0.108,11.917,-17.22,3.062,
51906910,-1.029,0.202,0.182,12.687,-18.287,0.49,
51906920,-1.021,0.222,0.263,9.992,-18.217,-2.992,
51906930,-0.982,0.197,0.247,2.485,-15.015,-5.775,
51906940,-0.934,0.161,0.24,-0.77,-11.9,-7.91,
51906950,-0.887,0.173,0.235,0,-4.742,-7.07,
51906960,-0.966,0.176,0.22,-0.735,0.805,-4.095,
51906970,-0.938,0.168,0.219,-1.312,2.922,-3.797,
51906980,-0.918,0.177,0.203,-0.35,6.545,-3.5,
51906990,-0.994,0.175,0.183,-1.767,9.117,-1.295,
51907000,-0.991,0.159,0.177,-3.43,7.595,-0.332,
51907010,-0.974,0.15,0.191,-2.992,6.492,-0.42,
51907020,-0.98,0.152,0.205,-3.5,5.705,0.087,
51907030,-0.981,0.154,0.183,-5.302,3.342,0.892,
51907040,-0.925,0.163,0.22,-6.545,1.12,1.837,
51907050,-0.944,0.159,0.196,-8.015,3.237,3.237,
51907060,-0.994,0.148,0.174,-9.642,3.797,5.372,
51907070,-0.962,0.151,0.163,-8.417,2.975,5.67,
51907080,-0.962,0.168,0.158,-5.6,5.635,5.862,
51907090,-1.022,0.176,0.133,-3.745,7.577,5.652,
51907100,-0.998,0.184,0.132,-2.73,4.935,4.182,
51907110,-1.002,0.16,0.126,-1.05,1.137,2.59,
51907120,-0.95,0.149,0.121,3.57,-1.505,1.872,
51907130,-0.953,0.173,0.113,9.52,-0.77,2.45,
51907140,-1.031,0.189,0.078,12.635,-0.297,3.745,
51907150,-1.067,0.206,0.098,13.492,-4.112,3.325,
51907160,-1.064,0.199,0.104,12.127,-8.872,0.997,
51907170,-1.045,0.189,0.153,10.99,-11.322,-2.135,
51907180,-1.052,0.179,0.193,9.642,-12.81,-4.9,
51907190,-0.996,0.185,0.202,5.407,-13.562,-6.265,
51907200,-0.988,0.157,0.213,2.957,-12.985,-8.4,
51907210,-0.892,0.168,0.183,1.68,-6.58,-7.7,
51907220,-1.011,0.174,0.172,0,0.927,-3.885,
51907230,-1.031,0.181,0.204,-3.377,-0.472,-2.957,
51907240,-0.996,0.189,0.219,-5.355,-0.612,-5.775,
51907250,-1.005,0.182,0.223,-7.507,0.332,-8.855,
51907260,-0.957,0.162,0.193,-10.727,-0.21,-10.272,
51907260,-0.906,0.131,0.202,-11.725,0.157,-8.61,
51907280,-0.924,0.126,0.175,-10.815,3.115,-4.882,
51907280,-0.908,0.145,0.206,-9.502,4.847,-1.365,
51907300,-0.933,0.154,0.191,-10.062,9.17,1.592,
51907300,-0.969,0.152,0.158,-10.815,11.357,3.307,
51907320,-0.978,0.152,0.144,-9.73,11.147,3.867,
51907320,-1.002,0.148,0.14,-6.912,10.797,3.587,
51907330,-1.014,0.154,0.118,-4.042,9.677,3.15,
51907340,-1.041,0.141,0.112,-1.907,4.025,2.572,
51907350,-0.93,0.168,0.07,0.682,1.942,2.17,
51907360,-1.031,0.175,0.106,2.695,2.205,4.06,
51907370,-1.091,0.137,0.106,0.297,-0.927,6.055,
51907380,-1.014,0.157,0.09,3.272,-6.702,3.01,
51907390,-0.997,0.161,0.097,6.387,-8.82,1.627,
51907400,-1.012,0.143,0.097,6.737,-11.375,3.64,
51907410,-0.99,0.182,0.153,10.587,-13.02,3.797,
51907420,-1.061,0.193,0.158,8.977,-13.142,2.835,
51907430,-1.031,0.176,0.148,5.337,-17.08,-0.122,
51907440,-0.939,0.174,0.164,6.58,-19.95,-3.115,
51907450,-0.941,0.18,0.173,7.035,-15.925,-1.225,
51907460,-1,0.185,0.216,5.652,-13.387,0.91,
51907470,-0.96,0.216,0.221,2.1,-10.36,-0.227,
51907480,-1.016,0.199,0.228,-3.78,-6.195,-2.327,
51907490,-1.006,0.168,0.234,-8.785,-4.742,-5.11,
51907500,-0.932,0.153,0.258,-10.43,-2.1,-7.7,
51907510,-0.906,0.118,0.228,-11.97,4.672,-7.017,
51907520,-0.909,0.103,0.179,-12.232,7.787,-2.8,
51907530,-0.88,0.13,0.166,-10.762,8.837,3.972,
51907540,-0.963,0.147,0.147,-9.485,14.577,8.82,
51907550,-1.062,0.159,0.14,-7.857,15.627,8.68,
51907560,-1.044,0.171,0.155,-7.665,10.255,6.335,
51907570,-1.044,0.168,0.115,-6.79,4.97,2.887,
51907580,-0.982,0.143,0.13,-3.29,-0.315,0.052,
51907580,-0.956,0.134,0.107,1.225,0.297,-0.14,
51907600,-1.021,0.137,0.071,5.302,0.665,2.187,
51907600,-1.021,0.163,0.011,7.612,-3.57,4.392,
51907620,-1.049,0.178,0.025,10.972,-9.572,5.39,
51907620,-1.062,0.186,0.106,13.895,-18.025,4.742,
51907640,-1.05,0.194,0.156,13.912,-19.092,2.257,
51907640,-1.091,0.192,0.196,12.04,-20.912,-2.415,
51907660,-0.96,0.188,0.212,7.385,-23.187,-6.527,
51907660,-0.916,0.171,0.211,4.812,-17.832,-6.93,
51907670,-0.951,0.174,0.208,1.715,-9.765,-4.077,
51907680,-1.019,0.155,0.213,-2.957,-9.87,-2.397,
51907690,-0.889,0.177,0.209,-4.445,-7.665,-3.622,
51907700,-0.969,0.175,0.223,-4.462,-1.417,-3.605,
51907710,-0.98,0.152,0.219,-6.807,0.385,-3.132,
51907720,-0.913,0.14,0.222,-5.11,0.315,-3.937,
51907730,-0.901,0.143,0.244,-2.765,3.587,-2.24,
51907740,-0.951,0.14,0.203,-4.812,8.242,1.085,
51907750,-0.981,0.141,0.177,-6.125,9.345,2.572,
51907760,-0.977,0.169,0.169,-6.562,9.432,3.202,
51907770,-1.022,0.185,0.172,-7.437,11.795,2.24,
51907780,-1.093,0.184,0.116,-10.797,12.635,0.192,
51907790,-1.102,0.141,0.096,-13.965,5.232,-2.065,
51907800,-0.98,0.13,0.073,-12.46,-3.815,-3.342,
51907810,-0.932,0.129,0.104,-5.757,-5.372,-3.027,
51907820,-0.979,0.116,0.12,-1.277,-4.69,0.017,
51907830,-0.959,0.124,0.112,2.992,-5.232,2.1,
51907840,-0.982,0.134,0.108,7.367,-5.057,4.357,
51907850,-1.016,0.149,0.095,9.502,-6.947,7.122,
51907860,-1.044,0.181,0.114,11.882,-12.652,7.997,
51907870,-1.029,0.224,0.167,12.39,-16.992,5.74,
51907880,-1.052,0.221,0.189,9.082,-17.745,1.015,
51907890,-0.98,0.19,0.204,4.672,-17.99,-4.025,
51907900,-0.955,0.161,0.184,3.027,-14.805,-5.757,
51907910,-0.99,0.133,0.175,2.432,-15.015,-3.465,
51907920,-0.865,0.155,0.204,5.232,-13.965,-2.17,
51907930,-0.95,0.163,0.196,7.315,-6.51,0.035,
51907940,-1.007,0.15,0.213,5.092,-5.337,1.995,
51907950,-0.919,0.196,0.203,4.077,-1.732,0.962,
51907960,-1.088,0.191,0.203,0.7,3.22,0.665,
51907970,-1.045,0.167,0.206,-6.037,-0.875,-1.662,
51907980,-0.94,0.142,0.219,-7.577,-1.61,-5.11,
51907990,-0.94,0.13,0.233,-7.28,1.592,-4.865,
51908000,-0.927,0.135,0.213,-10.517,2.887,-0.997,
51908010,-0.89,0.132,0.224,-13.702,3.57,3.412,
51908010,-0.926,0.141,0.213,-15.032,11.252,7.332,
51908030,-1.027,0.159,0.173,-15.19,19.145,7.735,
51908030,-1.113,0.145,0.143,-15.855,15.995,4.777,
51908050,-1.018,0.137,0.1,-13.195,7.192,1.4,
51908050,-0.967,0.154,0.082,-5.302,2.747,-1.61,
51908070,-0.986,0.15,0.061,-0.577,0.752,0.227,
51908070,-1.006,0.156,0.039,2.205,-2.957,3.01,
51908080,-1.011,0.166,0.052,6.667,-6.895,3.552,
51908090,-1.064,0.151,0.054,9.012,-10.955,4.97,
51908100,-1.049,0.162,0.07,13.492,-18.112,3.797,
51908110,-1.01,0.208,0.169,17.08,-21.875,2.047,
51908120,-1.073,0.209,0.195,13.65,-22.19,0.017,
51908130,-0.992,0.191,0.206,7.927,-21.385,-3.99,
51908140,-0.966,0.146,0.223,6.125,-19.547,-7.192,
51908150,-0.909,0.143,0.222,4.322,-15.645,-5.337,
51908160,-0.896,0.143,0.224,3.062,-11.2,-2.327,
51908170,-0.941,0.147,0.203,0.91,-3.115,1.295,
51908180,-1.011,0.131,0.225,-0.927,-0.735,3.78,
51908190,-0.955,0.156,0.252,-0.682,0.21,2.817,
51908200,-0.956,0.176,0.252,-0.105,4.55,0.857,
51908210,-0.958,0.172,0.236,-1.942,8.207,-0.087,
51908220,-0.953,0.164,0.214,-3.202,10.307,-0.35,
51908230,-0.965,0.162,0.214,-4.042,12.25,-0.052,
51908240,-0.966,0.166,0.231,-6.002,15.137,-0.035,
51908250,-0.983,0.172,0.224,-9.485,18.69,-0.332,
51908260,-1.012,0.169,0.162,-14.017,19.022,-0.682,
51908270,-0.99,0.166,0.159,-17.447,16.625,-0.455,
51908280,-1.022,0.169,0.177,-18.97,17.727,-1.627,
51908290,-1.083,0.182,0.144,-22.977,17.132,-3.955,
51908300,-1.078,0.159,0.12,-28.927,7.892,-6.282,
51908310,-0.965,0.123,0.069,-29.085,-0.63,-8.312,
51908320,-0.955,0.088,0.049,-19.495,-2.537,-8.295,
51908330,-0.948,0.096,0.13,-9.38,-6.177,-4.182,
51908330,-0.956,0.13,0.144,-3.885,-4.112,-0.98,
51908350,-1.017,0.134,0.097,-1.032,-2.887,-1.032,
51908350,-1.01,0.15,0.031,0.42,-5.232,-0.14,
51908370,-1.06,0.166,0.07,4.462,-11.795,1.12,
51908370,-1.02,0.191,0.09,6.86,-15.487,0.56,
51908390,-1.039,0.177,0.141,7.892,-16.362,-1.995,
51908390,-1.023,0.171,0.158,5.6,-16.782,-3.867,
51908410,-1.013,0.136,0.141,2.415,-19.442,-5.005,
51908410,-0.892,0.121,0.171,3.482,-18.882,-4.69,
51908420,-0.963,0.127,0.165,6.947,-11.62,-2.047,
51908430,-1.004,0.147,0.198,6.982,-10.447,0.962,
51908440,-0.986,0.17,0.195,4.9,-9.555,0.63,
51908450,-1.016,0.155,0.218,2.397,-7.14,-1.452,
51908460,-0.997,0.156,0.2,-1.102,-5.215,-3.062,
51908470,-1,0.148,0.218,-3.29,-4.812,-4.48,
51908480,-0.954,0.126,0.224,-5.302,-4.042,-5.425,
51908490,-0.912,0.109,0.218,-4.025,-0.805,-5.617,
51908500,-0.903,0.117,0.207,-2.117,3.15,-2.992,
51908510,-0.918,0.132,0.208,-1.837,5.67,1.522,
51908520,-0.93,0.134,0.221,-2.257,9.415,4.497,
51908530,-0.96,0.133,0.223,-2.537,14.77,5.39,
51908540,-0.975,0.15,0.211,-4.13,18.585,5.862,
51908550,-1.014,0.154,0.163,-7.455,20.02,6.72,
51908560,-1.059,0.164,0.102,-11.095,16.747,6.632,
51908570,-1.043,0.154,0.082,-12.355,9.537,4.83,
51908580,-1.021,0.143,0.082,-10.097,5.722,2.187,
51908590,-1.045,0.123,0.112,-7.297,2.082,0.857,
51908600,-0.982,0.113,0.131,-5.337,-1.33,0.455,
51908610,-0.941,0.098,0.13,-1.225,-1.47,0.752,
51908620,-0.977,0.104,0.087,3.202,0.14,3.885,
51908630,-1.02,0.139,0.061,7.087,-2.047,7.455,
51908640,-1.051,0.162,0.063,9.152,-6.807,9.012,
51908650,-1.047,0.158,0.08,10.937,-10.71,7.315,
51908660,-1.042,0.164,0.094,13.51,-13.965,5.04,
51908670,-1.058,0.191,0.127,13.44,-17.115,4.375,
51908680,-1.066,0.197,0.153,10.115,-21.997,2.502,
51908690,-0.964,0.197,0.181,7.472,-24.517,-1.89,
51908700,-0.953,0.173,0.192,6.982,-19.74,-4.532,
51908710,-0.968,0.154,0.186,4.97,-16.765,-3.097,
51908720,-0.927,0.163,0.2,3.692,-12.53,-1.977,
51908730,-1.028,0.163,0.2,1.82,-6.947,-1.33,
51908740,-1.032,0.156,0.226,-3.605,-6.65,-2.117,
51908750,-0.961,0.141,0.244,-6.475,-6.212,-5.81,
51908760,-0.921,0.12,0.239,-7.367,-2.695,-7.21,
51908760,-0.871,0.107,0.257,-7.542,0.805,-4.515,
51908780,-0.881,0.104,0.254,-7.175,7.997,0.595,
51908780,-0.949,0.116,0.205,-7.525,13.02,4.865,
51908800,-0.959,0.143,0.193,-7.525,16.625,6.93,
51908800,-1.064,0.149,0.118,-6.86,20.177,5.792,
51908820,-1.064,0.16,0.103,-4.952,14.455,2.712,
51908820,-1.026,0.163,0.075,-4.182,5.897,0.84,
51908830,-1.003,0.138,0.082,-2.52,2.485,0.227,
51908840,-1.02,0.13,0.093,0.262,0.56,0.665,
51908850,-1.023,0.145,0.124,0.682,-1.557,1.855,
51908860,-1.02,0.148,0.136,-0.087,-3.972,1.26,
51908870,-0.974,0.134,0.114,0.28,-6.492,0.385,
51908880,-0.952,0.123,0.069,3.797,-8.417,2.047,
51908890,-0.99,0.131,0.059,9.327,-14.402,6.685,
51908900,-0.971,0.139,0.101,11.602,-22.697,12.372,
51908910,-1.037,0.139,0.095,13.475,-23.03,13.545,
51908920,-1.065,0.183,0.187,16.905,-25.952,10.517,
51908930,-1.047,0.221,0.207,12.967,-26.25,6.527,
51908940,-0.996,0.191,0.192,7.245,-22.487,1.837,
51908950,-0.936,0.165,0.211,5.985,-16.625,-0.052,
51908960,-0.986,0.182,0.216,4.235,-9.625,2.117,
51908970,-1.005,0.184,0.245,-0.7,-8.032,1.75,
51908980,-0.938,0.168,0.264,-3.675,-5.74,-2.852,
51908990,-0.917,0.148,0.269,-5.162,-0.577,-4.83,
51909000,-0.929,0.138,0.237,-6.86,5.197,-2.94,
51909010,-0.964,0.141,0.229,-7.507,9.362,-0.227,
51909020,-1.022,0.152,0.2,-8.907,11.865,0.927,
51909030,-0.993,0.169,0.207,-10.535,11.357,-1.12,
51909040,-0.991,0.171,0.166,-13.107,11.76,-2.887,
51909050,-0.975,0.159,0.171,-15.242,10.185,-3.465,
51909060,-0.996,0.141,0.101,-15.085,8.995,-3.132,
51909070,-0.974,0.116,0.12,-11.392,3.307,-2.31,
51909080,-0.929,0.118,0.122,-5.792,1.347,-0.752,
51909080,-0.992,0.117,0.107,-1.172,2.905,2.03,
51909100,-1.052,0.126,0.087,1.68,1.295,4.322,
51909100,-1.043,0.148,0.099,5.162,-3.482,3.43,
51909120,-1.04,0.165,0.081,7.21,-6.177,1.347,
51909120,-1.045,0.169,0.102,9.257,-9.555,-0.63,
51909140,-1.047,0.159,0.121,9.45,-12.565,-1.89,
51909140,-1.023,0.153,0.088,11.357,-14.35,-4.637,
51909160,-1.01,0.168,0.135,15.522,-19.512,-6.3,
51909160,-0.97,0.177,0.165,15.837,-22.347,-6.23,
51909170,-0.961,0.152,0.175,15.137,-21.56,-6.107,
51909180,-0.912,0.148,0.201,14.35,-18.567,-4.445,
51909190,-0.996,0.14,0.174,10.745,-12.547,0.56,
51909200,-1.023,0.126,0.201,6.755,-15.05,3.71,
51909210,-0.927,0.145,0.222,5.687,-15.382,3.395,
51909220,-0.976,0.153,0.26,4.007,-11.147,4.077,
51909230,-0.975,0.164,0.281,-0.297,-8.89,4.27,
51909240,-0.911,0.177,0.289,-3.36,-6.772,2.187,
51909250,-0.876,0.158,0.313,-7.017,-1.277,1.96,
51909260,-0.893,0.124,0.3,-9.817,8.47,4.2,
51909270,-0.944,0.123,0.233,-11.06,18.13,6.965,
51909280,-0.991,0.156,0.224,-10.097,21.402,7.647,
51909290,-0.983,0.202,0.211,-10.99,24.92,5.915,
51909300,-1.085,0.194,0.131,-14.595,27.825,2.345,
51909310,-1.118,0.152,0.042,-16.52,19.652,-3.01,
51909320,-0.998,0.11,0.032,-12.075,5.547,-6.807,
51909330,-0.932,0.107,0.023,-0.735,1.837,-7.997,
51909340,-1.039,0.081,-0.024,9.38,1.417,-4.06,
51909350,-1.052,0.104,-0.008,16.187,-6.72,1.715,
51909360,-1.082,0.145,0.077,20.125,-14.087,4.672,
51909370,-1.089,0.167,0.142,19.285,-18.375,3.447,
51909380,-1.02,0.176,0.208,16.275,-21.122,-0.367,
51909390,-0.937,0.163,0.245,12.67,-20.037,-2.817,
51909400,-0.899,0.148,0.23,10.867,-13.965,-2.047,
51909410,-0.916,0.147,0.214,12.092,-9.31,0.35,
51909420,-0.887,0.173,0.216,14.087,-5.827,2.747,
51909430,-0.912,0.205,0.226,15.4,1.12,3.762,
51909440,-1.04,0.227,0.209,10.482,8.277,4.847,
51909450,-1.114,0.222,0.205,2.222,6.615,2.17,
51909460,-1.059,0.216,0.191,-3.815,2.257,-4.777,
51909470,-1.011,0.19,0.197,-7.157,0.262,-10.92,
51909480,-0.987,0.16,0.187,-11.305,-0.192,-12.425,
51909490,-0.951,0.133,0.191,-13.86,0.402,-11.987,
51909500,-0.928,0.113,0.187,-14.542,3.92,-10.027,
51909510,-0.944,0.109,0.193,-15.522,7.455,-6.492,
51909510,-0.961,0.109,0.195,-17.167,8.68,-3.22,
51909530,-0.957,0.108,0.167,-17.692,10.272,-0.805,
51909530,-1.021,0.111,0.123,-16.047,11.585,0.997,
51909540,-1.029,0.122,0.117,-14.577,6.457,2.292,
51909550,-0.964,0.123,0.096,-11.252,1.732,2.31,
51909560,-0.925,0.117,0.089,-5.407,-0.035,3.132,
51909570,-0.964,0.105,0.088,-0.437,-0.892,7.262,
51909580,-0.962,0.101,0.119,3.395,-3.482,11.935,
51909590,-0.953,0.109,0.096,8.592,-2.415,14.35,
51909600,-1.001,0.15,0.108,15.995,-0.35,15.085,
51909610,-1.072,0.195,0.15,17.132,-3.762,16.03,
51909620,-1.052,0.199,0.161,13.685,-7.122,12.197,
51909630,-1.037,0.195,0.168,13.02,-5.915,5.547,
51909640,-1.044,0.197,0.162,10.237,-7.385,2.24,
51909650,-1.005,0.181,0.126,6.247,-8.54,0.595,
51909660,-1.001,0.153,0.161,6.282,-9.607,-0.315,
51909670,-0.973,0.185,0.175,6.125,-8.19,-0.192,
51909680,-1.013,0.186,0.176,2.432,-5.46,-0.262,
51909690,-0.992,0.173,0.175,-1.627,-4.252,-1.085,
51909700,-1.003,0.165,0.188,-4.182,-3.115,-1.732,
51909710,-0.98,0.158,0.204,-6.16,-2.607,-2.432,
51909720,-0.953,0.146,0.212,-7.332,-0.77,-3.062,
51909730,-0.95,0.142,0.168,-7.98,2.642,-2.327,
51909740,-0.97,0.141,0.184,-8.347,4.602,-0.07,
51909750,-0.977,0.149,0.191,-9.782,5.53,1.085,
51909760,-0.999,0.152,0.193,-11.952,6.16,0.91,
51909770,-0.994,0.144,0.189,-14.63,4.777,-0.017,
51909780,-0.962,0.141,0.181,-15.89,4.322,-0.245,
51909790,-0.99,0.135,0.151,-15.417,4.602,0.227,
51909800,-1.018,0.125,0.096,-14.192,2.555,0.507,
51909810,-0.971,0.117,0.081,-9.327,-1.452,0.367,
51909820,-0.983,0.139,0.083,-2.45,-1.82,1.452,
51909830,-1.036,0.154,0.072,1.207,-3.08,2.8,
51909830,-1.052,0.173,0.089,2.922,-6.16,2.1,
51909850,-1.086,0.151,0.069,2.292,-10.727,0.665,
51909850,-1.043,0.141,0.053,3.465,-17.097,-1.347,
51909870,-1.015,0.14,0.067,8.225,-21.735,-2.642,
51909870,-1.021,0.143,0.092,11.165,-25.672,-1.365,
51909890,-0.981,0.168,0.175,13.842,-28.332,-1.732,
51909890,-1.021,0.152,0.206,12.127,-27.492,-2.362,
51909910,-0.924,0.148,0.255,10.43,-27.667,-3.622,
51909910,-0.873,0.164,0.269,9.52,-20.51,-2.03,
51909920,-0.958,0.16,0.214,3.99,-10.622,2.957,
51909930,-0.98,0.147,0.209,1.417,-7.892,4.392,
51909940,-0.943,0.189,0.215,2.537,-4.462,3.097,
51909950,-1.033,0.211,0.233,-0.245,-0.542,1.837,
51909960,-1.009,0.197,0.232,-6.457,-0.927,-2.047,
51909970,-0.95,0.163,0.23,-9.642,-0.84,-5.67,
51909980,-0.946,0.142,0.252,-10.15,2.152,-5.722,
51909990,-0.954,0.141,0.228,-11.287,6.895,-4.847,
51910000,-0.954,0.142,0.193,-13.072,9.31,-4.077,
51910010,-0.952,0.138,0.161,-14.77,9.957,-1.977,
51910020,-1.001,0.132,0.125,-14.402,11.287,-0.42,
51910030,-1.033,0.137,0.155,-12.862,9.66,-0.665,
51910040,-1.035,0.156,0.158,-12.582,7.525,-1.785,
51910050,-1.055,0.139,0.11,-13.72,4.322,-4.007,
51910060,-0.992,0.091,0.095,-12.18,-2.135,-5.267,
51910070,-0.923,0.088,0.093,-5.652,-5.775,-2.992,
51910080,-0.946,0.1,0.117,1.47,-5.477,1.627,
51910090,-0.957,0.119,0.115,5.547,-4.007,5.722,
51910100,-0.959,0.123,0.103,9.205,-1.732,8.032,
51910110,-0.896,0.119,0.111,12.407,2.065,11.935,
51910120,-0.826,0.106,0.15,17.027,8.4,18.217,
51910130,-0.755,0.099,0.194,22.82,19.652,26.792,
51910140,-0.869,0.132,0.237,29.382,32.217,34.3,
51910150,-1.007,0.207,0.27,29.82,39.9,36.96,
51910160,-1.006,0.216,0.221,21.682,46.182,34.37,
51910170,-0.966,0.172,0.212,15.382,58.397,31.517,
51910180,-1.071,0.188,0.154,14.122,66.675,30.73,
51910190,-1.091,0.25,0.095,11.287,58.537,28.192,
51910200,-1.103,0.266,0.037,4.602,44.852,22.785,
51910210,-1.14,0.254,0.013,1.802,32.795,13.44,
51910210,-1.115,0.252,0.033,0.56,22.855,4.742,
51910230,-1.092,0.242,0.049,-4.392,11.76,0.665,
51910230,-1.084,0.244,0.07,-9.66,0.84,-2.047,
51910250,-1.105,0.258,0.093,-15.417,-10.692,-5.11,
51910250,-1.102,0.245,0.083,-25.112,-22.592,-8.855,
51910260,-1.07,0.204,0.05,-32.042,-30.327,-15.242,
51910270,-1.039,0.152,0.023,-30.555,-33.757,-21.28,
51910280,-1.001,0.132,0.028,-23.397,-38.062,-22.102,
51910290,-0.944,0.142,0.055,-17.115,-40.897,-18.935,
51910300,-0.93,0.139,0.09,-11.83,-38.78,-15.365,
51910310,-0.966,0.142,0.107,-7.857,-35.805,-11.305,
51910320,-0.895,0.143,0.157,-5.81,-33.372,-8.207,
51910330,-0.93,0.127,0.155,-4.2,-23.94,-3.99,
51910340,-0.998,0.169,0.173,-1.452,-21.56,-2.275,
51910350,-1.019,0.167,0.143,-4.375,-21.507,-1.96,
51910360,-1.034,0.145,0.12,-5.74,-22.47,-2.747,
51910370,-1.003,0.173,0.119,-2.537,-23.66,-4.217,
51910380,-1.013,0.188,0.141,-1.54,-22.452,-4.987,
51910390,-1.001,0.183,0.145,-3.132,-21.542,-6.195,
51910400,-0.965,0.179,0.151,-2.87,-20.72,-7.77,
51910410,-0.947,0.165,0.183,-3.132,-19.005,-7.105,
51910420,-0.949,0.167,0.215,-3.412,-14.735,-6.02,
51910430,-0.966,0.174,0.226,-4.637,-10.482,-5.18,
51910440,-0.942,0.147,0.203,-8.05,-6.107,-4.2,
51910450,-0.928,0.127,0.194,-7.577,-0.98,-3.132,
51910460,-0.954,0.139,0.192,-6.772,2.922,-0.157,
51910470,-0.974,0.147,0.16,-9.082,3.08,3.01,
51910480,-0.967,0.133,0.159,-9.24,2.8,3.745,
51910490,-0.973,0.127,0.15,-6.492,3.342,3.762,
51910500,-0.978,0.134,0.166,-2.765,4.27,4.672,
51910510,-0.998,0.158,0.151,-0.595,5.162,5.582,
51910520,-1.043,0.165,0.135,-1.155,4.445,5.442,
51910530,-1.034,0.156,0.112,-2.537,0.175,4.13,
51910540,-0.998,0.154,0.088,-0.875,-3.15,2.38,
51910550,-1.016,0.165,0.074,2.397,-4.97,2.257,
51910560,-1.04,0.175,0.092,4.252,-8.54,2.8,
51910570,-1.013,0.172,0.128,4.865,-11.935,2.187,
51910580,-1.043,0.172,0.152,5.215,-11.952,0.507,
51910580,-1.048,0.175,0.154,3.955,-14.087,-1.96,
51910600,-0.984,0.171,0.155,2.782,-16.467,-4.83,
51910600,-0.951,0.158,0.164,3.71,-15.172,-6.002,
51910620,-0.944,0.153,0.16,4.83,-12.897,-4.34,
51910620,-0.917,0.159,0.185,8.225,-9.992,-3.255,
51910640,-0.946,0.178,0.219,8.575,-4.97,-0.367,
51910640,-1.02,0.189,0.23,4.392,-2.187,0.595,
51910660,-1.016,0.175,0.227,-1.242,-1.487,-1.715,
51910660,-0.97,0.149,0.21,-3.622,-0.245,-5.057,
51910670,-0.945,0.144,0.198,-3.167,1.487,-5.127,
51910680,-0.937,0.147,0.188,-3.447,3.377,-2.66,
51910690,-0.97,0.149,0.179,-3.692,5.46,-0.752,
51910700,-1.004,0.155,0.169,-4.532,4.725,0.035,
51910710,-0.989,0.161,0.173,-5.477,2.45,-0.525,
51910720,-0.999,0.156,0.149,-5.915,2.66,-1.487,
51910730,-1.017,0.159,0.158,-5.915,2.397,-1.942,
51910740,-1.012,0.164,0.157,-7.105,1.225,-2.31,
51910750,-1.001,0.155,0.144,-8.715,0.017,-2.957,
51910760,-0.999,0.136,0.125,-10.15,-1.592,-2.362,
51910770,-0.995,0.111,0.105,-9.502,-5.197,-0.875,
51910780,-0.957,0.107,0.108,-4.55,-7.717,0.612,
51910790,-0.986,0.119,0.107,1.505,-8.82,3.167,
51910800,-1.024,0.143,0.089,4.812,-11.2,5.95,
51910810,-1.056,0.151,0.063,6.422,-17.097,6.912,
51910820,-1.045,0.155,0.075,7.455,-23.572,7.175,
51910830,-1.041,0.179,0.128,8.54,-29.435,6.79,
51910840,-0.995,0.202,0.25,6.79,-31.675,4.777,
51910850,-0.964,0.179,0.252,2.1,-26.005,1.382,
51910860,-0.924,0.166,0.271,1.277,-19.652,-1.557,
51910870,-0.873,0.165,0.265,2.38,-11.252,-1.96,
51910880,-0.913,0.155,0.244,2.957,-2.275,0.42,
51910890,-0.934,0.163,0.227,5.092,2.415,0.98,
51910900,-0.953,0.189,0.199,5.652,5.582,1.102,
51910910,-1.046,0.189,0.172,2.677,5.11,1.522,
51910920,-1.038,0.188,0.166,-0.717,1.207,-0.577,
51910920,-1.019,0.182,0.179,-3.43,-2.012,-3.587,
51910940,-1.002,0.148,0.194,-6.142,-3.412,-5.197,
51910940,-0.953,0.116,0.199,-6.247,-3.937,-5.46,
51910960,-0.938,0.117,0.211,-4.007,-3.115,-3.937,
51910960,-0.955,0.123,0.212,-4.2,-3.29,-1.05,
51910980,-0.952,0.116,0.215,-5.232,-3.5,1.575,
51910980,-0.944,0.118,0.216,-4.2,-1.155,3.097,
51911000,-0.981,0.135,0.218,-3.237,3.99,4.602,
51911000,-1.046,0.156,0.177,-4.655,7,5.197,
51911010,-1.041,0.165,0.138,-6.79,4.865,3.885,
51911020,-0.993,0.172,0.117,-6.545,2.24,1.89,
51911030,-1.017,0.167,0.113,-5.39,0.385,1.715,
51911040,-0.991,0.157,0.131,-3.85,-3.202,1.54,
51911050,-0.939,0.154,0.142,-0.35,-4.165,0.805,
51911060,-0.913,0.136,0.154,2.467,-1.785,3.115,
51911070,-0.874,0.119,0.136,5.95,2.73,7.805,
51911080,-0.767,0.095,0.142,12.95,11.83,14.455,
51911090,-0.759,0.094,0.16,22.855,25.725,24.517,
51911100,-0.916,0.137,0.227,33.547,38.535,32.567,
51911110,-0.999,0.191,0.283,37.082,47.18,33.162,
51911120,-0.853,0.159,0.299,35.017,64.61,29.942,
51911130,-0.92,0.097,0.216,36.995,91.98,32.392,
51911140,-1.054,0.18,0.195,45.167,105.49,34.877,
51911150,-1.117,0.33,0.145,44.065,105.367,28.507,
51911160,-1.041,0.265,0.082,33.25,105.227,15.592,
51911170,-1.123,0.191,-0.004,27.702,101.78,8.102,
51911180,-1.119,0.202,0.016,27.79,86.047,7.07,
51911190,-1.214,0.158,0.033,19.372,60.392,8.347,
51911200,-1.139,0.174,0.051,15.995,30.152,7.122,
51911210,-1.091,0.199,0.098,11.497,10.115,5.407,
51911220,-1.129,0.215,0.152,1.575,0.175,0.455,
51911230,-1.225,0.192,0.193,-16.292,-12.407,-7.98,
51911240,-1.199,0.197,0.19,-31.535,-35.315,-17.85,
51911250,-1.151,0.167,0.128,-45.832,-54.95,-20.842,
51911260,-1.049,0.118,0.021,-48.79,-61.582,-27.895,
51911270,-0.903,0.065,-0.03,-33.075,-53.76,-33.862,
51911280,-0.781,0.07,-0.061,-12.442,-39.322,-31.832,
51911290,-0.717,0.148,-0.021,3.64,-22.767,-24.202,
51911300,-0.776,0.23,-0.048,2.292,-8.96,-7.49,
51911310,-0.841,0.252,-0.095,-0.122,3.552,0.7,
51911320,-0.924,0.264,-0.111,1.032,11.865,2.292,
51911330,-0.934,0.351,-0.154,1.627,13.877,0.437,
51911330,-0.983,0.424,-0.114,-1.102,14.77,4.655,
51911350,-1.203,0.395,-0.117,-13.597,9.747,7.945,
51911350,-1.272,0.295,-0.115,-23.1,-8.19,-1.452,
51911370,-1.189,0.222,-0.065,-25.742,-31.43,-10.605,
51911370,-1.104,0.215,-0.003,-25.112,-48.422,-16.1,
51911390,-1.022,0.223,0.046,-24.272,-55.912,-21.665,
51911390,-0.962,0.206,0.126,-25.007,-55.37,-26.53,
51911410,-0.919,0.119,0.141,-30.275,-51.765,-26.46,
51911410,-0.876,0.041,0.16,-30.082,-44.38,-19.95,
51911420,-0.867,0.038,0.165,-24.115,-31.972,-11.987,
51911430,-0.892,0.064,0.158,-16.135,-18.427,-5.145,
51911440,-0.893,0.096,0.156,-8.837,-7.227,0.49,
51911450,-0.908,0.118,0.142,-4.375,1.715,5.775,
51911460,-0.947,0.152,0.13,-1.82,8.54,9.257,
51911470,-0.986,0.181,0.114,-1.907,11.795,9.992,
51911480,-1.027,0.184,0.093,-3.342,12.565,7.7,
51911490,-1.046,0.167,0.077,-3.92,10.657,4.427,
51911500,-1.054,0.157,0.07,-2.572,7.56,1.75,
51911510,-1.035,0.162,0.081,-0.56,3.99,-0.122,
51911520,-1.023,0.173,0.1,0.315,1.575,-1.942,
51911530,-0.991,0.185,0.116,-0.56,1.015,-3.92,
51911540,-0.992,0.169,0.12,-2.922,2.03,-4.567,
51911550,-0.971,0.161,0.127,-3.692,2.87,-4.917,
51911560,-0.943,0.156,0.114,-4.287,7.087,-5.075,
51911570,-1.08,0.169,0.139,-2.852,8.19,-2.345,
51911580,-0.989,0.186,0.093,-5.932,1.995,1.837,
51911590,-0.963,0.153,0.058,-4.62,2.625,-3.237,
51911600,-1.018,0.142,0.045,-0.542,5.967,-7.35,
51911610,-1.062,0.159,0.045,1.732,3.552,-6.965,
51911620,-1.078,0.183,0.07,2.835,-1.12,-8.925,
51911630,-1.097,0.195,0.089,-0.42,-7.77,-10.815,
51911640,-1.099,0.156,0.057,-5.845,-16.572,-12.145,
51911650,-1.056,0.14,0.075,-8.295,-24.657,-13.947,
51911660,-1.002,0.093,0.059,-8.435,-25.06,-13.632,
51911670,-1.074,0.109,0.057,-6.23,-21.91,-16.59,
51911670,-1.077,0.164,0.101,-8.855,-25.042,-18.2,
51911690,-1.019,0.104,0.052,-16.432,-29.312,-18.725,
51911690,-0.934,0.047,0.008,-13.02,-28.227,-19.355,
51911710,-0.913,0.044,0.044,-0.84,-22.067,-15.732,
51911710,-0.936,0.084,0.08,9.94,-16.362,-10.622,
51911730,-0.941,0.121,0.087,13.37,-14.542,-4.917,
51911730,-0.975,0.104,0.092,13.37,-15.977,0.49,
51911750,-0.951,0.092,0.092,17.062,-20.09,2.275,
51911750,-0.904,0.138,0.137,22.89,-16.905,3.797,
51911760,-1.012,0.153,0.167,23.45,-12.845,4.97,
51911770,-1.039,0.156,0.183,16.66,-12.635,6.282,
51911780,-1.032,0.147,0.184,10.185,-13.947,4.935,
51911790,-0.998,0.139,0.182,6.195,-13.335,2.222,
51911800,-0.98,0.125,0.185,3.167,-10.622,0.84,
51911810,-0.945,0.116,0.176,1.96,-8.067,0.157,
51911820,-0.891,0.117,0.166,2.117,-4.935,1.627,
51911830,-0.903,0.101,0.161,2.73,-2.012,5.425,
51911840,-0.918,0.093,0.158,3.185,-0.682,10.325,
51911850,-0.936,0.103,0.171,4.165,-0.577,14.77,
51911860,-0.949,0.113,0.183,4.497,2.87,17.99,
51911870,-0.979,0.116,0.169,4.112,9.327,19.95,
51911880,-1,0.138,0.137,4.427,13.72,21.052,
51911890,-1.001,0.163,0.117,4.427,17.64,22.592,
51911900,-1.082,0.174,0.06,3.185,17.99,21.822,
51911910,-1.121,0.161,0.058,3.412,11.235,16.485,
51911920,-1.041,0.157,0.06,6.177,5.11,10.675,
51911930,-1.082,0.16,0.062,13.772,2.467,5.582,
51911940,-1.104,0.192,0.036,18.462,-1.592,0.717,
51911950,-1.098,0.203,-0.011,19.057,-10.78,-4.532,
51911960,-0.972,0.198,-0.017,23.012,-14.14,-8.61,
51911970,-1.042,0.176,-0.013,29.435,-15.627,-9.31,
51911980,-0.941,0.242,0.112,30.415,-19.302,-9.782,
51911990,-0.944,0.191,0.132,19.39,-15.715,-4.095,
51912000,-1.033,0.122,0.157,16.187,-9.747,-4.042,
51912010,-1.084,0.136,0.236,13.457,-13.545,-3.027,
51912020,-0.979,0.174,0.262,4.392,-18.095,-1.977,
51912030,-0.916,0.155,0.261,-3.185,-13.79,-4.34,
51912040,-0.935,0.119,0.252,-6.457,-6.527,-6.107,
51912050,-0.885,0.111,0.229,-7.087,-0.927,-5.215,
51912060,-0.908,0.102,0.191,-5.67,5.022,-2.887,
51912070,-0.955,0.119,0.175,-2.66,9.345,-1.837,
51912080,-1,0.142,0.149,-2.397,9.87,-1.452,
51912080,-1.031,0.149,0.089,-4.952,8.05,-0.612,
51912100,-1.09,0.143,0.078,-4.952,5.565,-1.68,
51912100,-1.111,0.171,0.092,-5.25,-0.105,-3.902,
51912120,-1.099,0.193,0.105,-9.87,-5.6,-6.335,
51912120,-1.046,0.159,0.117,-15.33,-10.325,-10.29,
51912140,-0.95,0.121,0.137,-18.847,-12.827,-11.077,
51912140,-0.894,0.113,0.17,-19.407,-9.8,-8.435,
51912160,-0.964,0.1,0.191,-21.087,-4.497,-3.815,
51912160,-0.971,0.084,0.155,-22.995,-1.505,-0.735,
51912170,-0.935,0.071,0.094,-18.847,0.437,-0.315,
51912180,-0.951,0.108,0.038,-8.12,4.445,0.35,
51912190,-1.039,0.145,0.004,-0.07,1.33,3.972,
51912200,-1.024,0.159,-0.025,2.852,-5.74,7.98,
51912210,-1.094,0.135,-0.029,8.382,-12.95,8.592,
51912220,-1.032,0.149,0.085,14.332,-20.247,6.93,
51912230,-1.025,0.167,0.137,13.475,-20.072,5.932,
51912240,-1.054,0.182,0.211,8.347,-16.905,2.992,
51912250,-1.025,0.156,0.19,1.505,-13.125,-1.925,
51912260,-0.991,0.116,0.192,-1.925,-11.76,-3.78,
51912270,-0.946,0.132,0.183,-1.715,-10.202,-3.395,
51912280,-0.938,0.159,0.183,-0.805,-6.982,-3.132,
51912290,-0.956,0.173,0.166,-2.1,-3.832,-3.325,
51912300,-0.961,0.166,0.141,-3.237,-1.452,-4.462,
51912310,-0.971,0.157,0.149,-3.255,0.63,-4.287,
51912320,-1.015,0.157,0.147,-2.782,3.535,-4.112,
51912330,-1.037,0.157,0.148,-3.045,3.587,-5.18,
51912340,-1.034,0.153,0.15,-5.355,2.642,-6.632,
51912350,-1.037,0.14,0.133,-8.19,2.1,-9.17,
51912360,-1.05,0.102,0.118,-11.62,-0.385,-9.817,
51912370,-1.008,0.065,0.098,-13.037,-4.987,-8.365,
51912380,-0.933,0.057,0.113,-9.625,-7.962,-5.67,
51912390,-0.933,0.063,0.149,-5.617,-7.28,-1.26,
51912400,-0.94,0.072,0.149,-3.885,-5.46,3.36,
51912410,-0.932,0.09,0.172,-2.712,-4.987,6.755,
51912420,-0.924,0.1,0.171,-0.542,-0.227,7.525,
51912420,-0.987,0.092,0.181,-0.542,2.66,11.06,
51912440,-0.983,0.128,0.187,0.035,2.397,11.427,
51912440,-1.007,0.145,0.157,-1.435,2.24,10.482,
51912460,-1.019,0.145,0.112,-2.835,1.627,9.275,
51912460,-1.015,0.148,0.101,-0.525,-0.297,6.737,
51912480,-0.992,0.165,0.099,2.257,-1.487,5.897,
51912480,-1.006,0.19,0.114,3.395,-0.472,5.53,
51912500,-1.044,0.195,0.104,2.537,0.227,3.395,
51912500,-1.047,0.171,0.108,0.21,-2.1,1.067,
51912510,-1.01,0.139,0.089,-0.28,-4.865,-0.857,
51912520,-0.993,0.127,0.071,3.395,-6.09,-1.855,
51912530,-0.984,0.15,0.091,8.015,-7.507,-1.137,
51912540,-1.019,0.156,0.095,9.432,-9.152,-0.087,
51912550,-0.992,0.155,0.151,8.872,-11.497,0.332,
51912560,-0.974,0.157,0.187,8.155,-7.262,-1.312,
51912570,-1.014,0.148,0.19,5.985,-0.507,-2.642,
51912580,-1.051,0.131,0.175,1.872,2.117,-2.572,
51912590,-1.01,0.13,0.144,-0.91,0.49,-2.835,
51912600,-0.962,0.148,0.15,-0.997,2.975,-4.462,
51912610,-1.014,0.15,0.163,-2.852,7.035,-5.092,
51912620,-1.058,0.128,0.192,-9.275,6.072,-4.917,
51912630,-1.027,0.096,0.174,-15.242,3.43,-6.877,
51912640,-0.98,0.075,0.181,-16.24,3.605,-8.82,
51912650,-0.95,0.083,0.15,-14.49,4.515,-7.962,
51912660,-0.917,0.111,0.151,-12.792,6.79,-4.165,
51912670,-0.94,0.112,0.158,-11.375,10.605,-2.187,
51912680,-0.966,0.113,0.116,-10.167,14.245,-1.82,
51912690,-0.992,0.105,0.112,-7.647,13.51,-2.03,
51912700,-0.997,0.111,0.081,-4.777,11.217,-1.242,
51912710,-1.004,0.119,0.051,-1.102,7.595,-0.42,
51912720,-1.012,0.109,0.047,2.222,4.375,1.12,
51912730,-0.991,0.109,0.041,5.022,1.925,3.272,
51912740,-1.016,0.131,0.018,9.065,0.787,4.76,
51912750,-1.048,0.141,0.041,11.392,-3.64,5.232,
51912760,-1.012,0.122,0.061,11.48,-8.505,6.125,
51912770,-1.015,0.118,0.078,14.07,-11.06,6.352,
51912780,-1.044,0.132,0.15,15.96,-12.88,6.352,
51912790,-1.043,0.134,0.174,12.67,-13.755,6.195,
51912800,-1.026,0.147,0.159,9.555,-12.845,3.447,
51912810,-1.018,0.157,0.142,7.332,-11.707,0.437,
51912820,-1.009,0.154,0.114,4.112,-11.34,-0.315,
51912830,-0.992,0.141,0.111,3.342,-11.252,-0.822,
51912830,-0.973,0.144,0.128,4.235,-9.502,-0.612,
51912850,-0.971,0.151,0.144,3.972,-6.142,0.087,
51912850,-0.988,0.141,0.126,2.082,-2.537,0.822,
51912870,-0.996,0.118,0.128,1.4,-1.907,1.505,
51912870,-0.967,0.136,0.144,2.572,-1.715,1.627,
51912890,-1.004,0.142,0.164,2.485,-0.14,0.892,
51912890,-1.005,0.131,0.161,-0.752,-0.192,0.35,
51912900,-0.991,0.12,0.153,-2.992,-0.122,0.017,
51912910,-0.997,0.117,0.15,-3.587,0.927,-0.402,
51912920,-1.01,0.114,0.151,-5.022,1.732,-0.052,
51912930,-1.018,0.119,0.143,-6.93,0.577,0.035,
51912940,-0.992,0.122,0.148,-9.765,-0.997,0.122,
51912950,-0.984,0.113,0.152,-11.55,-0.595,0.122,
51912960,-0.966,0.099,0.159,-11.795,1.505,0.017,
51912970,-0.958,0.101,0.172,-10.535,3.027,0.35,
51912980,-0.967,0.119,0.155,-10.325,5.617,1.487,
51912990,-1,0.115,0.135,-10.937,5.932,1.907,
51913000,-0.952,0.128,0.096,-10.937,5.46,2.17,
51913010,-1.017,0.103,0.081,-6.65,5.092,4.602,
51913020,-1.033,0.164,0.094,-4.672,3.115,5.792,
51913030,-1.04,0.143,0.073,-4.725,-0.857,2.152,
51913040,-0.981,0.12,0.042,-1.47,-2.782,0.665,
51913050,-1.014,0.144,0.016,3.29,-3.867,3.465,
51913060,-1.024,0.183,0.02,7.087,-4.672,4.2,
51913070,-1.027,0.17,0.042,7.297,-7.262,3.85,
51913080,-1.003,0.156,0.09,7.962,-8.592,3.202,
51913090,-0.982,0.174,0.152,10.64,-6.947,0.805,
51913100,-0.988,0.175,0.168,8.032,-1.33,-0.227,
51913110,-1.055,0.137,0.138,2.572,1.277,-0.192,
51913120,-1.028,0.111,0.131,0.105,-1.995,-0.962,
51913130,-0.951,0.111,0.113,0.962,-3.64,-1.312,
51913140,-0.936,0.126,0.113,4.637,0.227,-0.822,
51913150,-0.998,0.134,0.115,5.39,3.395,1.522,
51913160,-1.041,0.139,0.13,2.992,2.747,2.922,
51913170,-1.064,0.133,0.133,-0.21,0.455,1.487,
51913170,-1.055,0.13,0.145,-3.29,-1.207,-0.997,
51913190,-1.044,0.132,0.145,-5.705,-2.1,-3.605,
51913190,-1.021,0.137,0.14,-8.137,-3.255,-5.757,
51913210,-0.986,0.139,0.139,-10.605,-5.652,-6.72,
51913210,-0.956,0.128,0.156,-13.3,-6.895,-6.352,
51913230,-0.938,0.109,0.168,-15.032,-5.495,-6.002,
51913230,-0.918,0.106,0.169,-15.347,-1.557,-4.9,
51913250,-0.938,0.102,0.173,-14.875,5.267,-2.975,
51913250,-0.97,0.103,0.159,-13.195,11.025,-2.345,
51913260,-0.985,0.106,0.131,-10.36,13.457,-2.992,
51913270,-0.996,0.102,0.111,-7.087,12.005,-3.727,
51913280,-0.954,0.124,0.074,-3.745,11.2,-3.255,
51913290,-0.987,0.128,0.03,-0.35,12.39,-2.642,
51913300,-1.027,0.125,-0.006,1.837,11.357,-0.857,
51913310,-1.085,0.118,-0.041,3.342,4.34,2.625,
51913320,-1.086,0.114,-0.002,6.79,-5.25,4.077,
51913330,-1.058,0.144,-0.002,10.395,-10.097,3.01,
51913340,-1.082,0.157,0.097,11.2,-14,1.452,
51913350,-1.086,0.143,0.071,3.832,-14.805,0.752,
51913360,-1.074,0.116,0.136,0.63,-18.007,-2.887,
51913370,-1.011,0.116,0.118,-1.54,-18.095,-5.897,
51913380,-0.994,0.114,0.149,-2.345,-17.185,-6.212,
51913390,-0.974,0.122,0.147,-4.48,-15.225,-5.005,
51913400,-0.959,0.118,0.127,-5.827,-12.337,-4.2,
51913410,-0.964,0.113,0.122,-4.76,-9.677,-3.692,
51913420,-0.96,0.119,0.139,-2.922,-7.42,-2.59,
51913430,-0.967,0.118,0.169,-2.205,-4.55,-1.505,
51913440,-0.966,0.122,0.217,-3.167,-0.35,-2.047,
51913450,-0.976,0.117,0.257,-8.137,4.532,-3.15,
51913460,-0.966,0.09,0.214,-15.715,10.29,-4.042,
51913470,-0.93,0.057,0.17,-18.55,16.642,-4.515,
51913480,-0.935,0.062,0.091,-16.87,23.362,-2.607,
51913490,-0.964,0.073,0.071,-12.985,25.147,0.682,
51913500,-0.977,0.092,-0.006,-8.575,25.725,3.832,
51913510,-1.036,0.094,0.008,-1.225,19.845,5.915,
51913520,-1.012,0.129,-0.007,4.077,11.812,9.327,
51913530,-1.068,0.11,0.014,7.875,5.407,9.817,
51913540,-1.056,0.089,0.052,11.585,-0.122,8.435,
51913550,-1.032,0.109,0.027,13.86,-4.007,7.56,
51913560,-1.047,0.126,0.013,15.26,-8.592,8.207,
51913570,-1.067,0.134,0.002,15.505,-17.92,9.8,
51913570,-0.983,0.135,0.05,16.222,-26.057,10.57,
51913580,-1.007,0.12,0.09,18.095,-24.955,10.815,
51913590,-1.043,0.156,0.16,18.777,-22.977,9.957,
51913600,-1.08,0.173,0.179,12.967,-22.75,7.175,
51913610,-1.017,0.162,0.165,5.88,-23.87,2.887,
51913620,-0.964,0.141,0.135,2.275,-20.545,0.122,
51913630,-0.963,0.127,0.147,2.975,-16.135,-0.297,
51913640,-0.924,0.149,0.147,3.867,-10.465,0.507,
51913650,-0.973,0.15,0.137,2.87,-3.657,1.435,
51913660,-1.03,0.134,0.129,0.35,-1.382,1.907,
51913670,-1.01,0.127,0.126,-1.242,-2.677,1.207,
51913680,-1.006,0.127,0.126,-0.402,-1.767,-0.367,
51913690,-1.016,0.135,0.125,0,-0.612,-1.207,
51913700,-1.024,0.138,0.127,-1.802,-0.472,-1.295,
51913710,-1.016,0.126,0.1,-3.535,-0.682,-2.432,
51913720,-1.01,0.113,0.103,-3.797,-1.12,-2.992,
51913730,-0.996,0.108,0.104,-3.395,-1.557,-2.695,
51913740,-0.994,0.106,0.116,-3.185,-1.662,-1.435,
51913750,-0.987,0.114,0.141,-3.132,-2.292,-0.385,
51913760,-0.985,0.128,0.171,-5.477,-3.202,1.207,
51913770,-0.969,0.132,0.162,-9.502,-2.082,2.082,
51913780,-0.97,0.12,0.138,-12.39,-0.542,3.027,
51913790,-0.961,0.103,0.119,-12.477,1.435,3.85,
51913800,-0.947,0.091,0.114,-8.837,5.495,4.392,
51913810,-0.968,0.116,0.09,-3.64,7.98,5.477,
51913820,-0.998,0.138,0.101,-1.54,6.982,7.7,
51913830,-1.002,0.113,0.073,-1.732,4.812,9.712,
51913840,-0.978,0.125,0.077,2.555,3.972,9.292,
51913850,-1.037,0.138,0.075,6.352,3.937,9.432,
51913860,-1.08,0.152,0.059,5.757,0.752,9.607,
51913870,-1.066,0.157,0.06,5.705,-4.725,6.247,
51913880,-1.059,0.147,0.053,5.6,-8.662,3.465,
51913890,-1.09,0.134,0.03,6.842,-15.172,1.312,
51913900,-1.03,0.153,0.033,9.66,-24.062,-1.382,
51913910,-0.992,0.163,0.058,12.197,-28.332,-2.345,
51913920,-0.978,0.169,0.152,12.127,-27.317,-2.38,
51913920,-0.997,0.171,0.181,7.805,-20.65,-2.45,
51913940,-1.05,0.157,0.214,1.855,-16.135,-3.78,
51913940,-0.995,0.17,0.222,-6.107,-13.492,-5.425,
51913960,-0.987,0.148,0.184,-12.057,-8.277,-7.962,
51913960,-0.981,0.124,0.176,-14.367,-4.567,-8.89,
51913980,-0.95,0.113,0.165,-14.402,-0.63,-9.45,
51913980,-0.924,0.113,0.165,-11.707,5.04,-9.572,
51914000,-0.926,0.129,0.152,-10.062,10.132,-8.382,
51914000,-0.969,0.121,0.142,-10.255,12.39,-6.772,
51914010,-0.958,0.105,0.128,-11.27,12.792,-4.777,
51914020,-0.989,0.081,0.13,-10.412,14.455,-3.167,
51914030,-1.028,0.095,0.116,-8.697,14.367,-2.695,
