#Format version: 1.0
time[ms],accX[g],accY[g],accZ[g],Value 1,Value 2,Value 3,
54487490,0.689,0.322,0.63,-4.69,-3.92,0.56,
54487500,0.682,0.327,0.636,-4.515,-3.185,-0.192,
54487510,0.69,0.325,0.635,-4.462,-3.027,-0.892,
54487510,0.7,0.335,0.649,-4.392,-2.1,-2.03,
54487530,0.67,0.329,0.629,-5.442,-0.875,-1.942,
54487530,0.648,0.313,0.637,-5.635,-0.577,-3.92,
54487550,0.728,0.368,0.66,-4.69,-1.505,-4.147,
54487550,0.689,0.334,0.631,-6.002,-0.42,-1.767,
54487570,0.644,0.262,0.61,-6.125,0.017,-2.992,
54487570,0.698,0.37,0.645,-3.832,2.1,-3.045,
54487580,0.7,0.365,0.654,-3.605,4.34,-1.26,
54487590,0.671,0.324,0.633,-6.597,7.35,-3.097,
54487600,0.69,0.308,0.617,-8.33,9.835,-3.22,
54487610,0.732,0.34,0.631,-5.862,14.157,-4.025,
54487620,0.78,0.329,0.627,-6.247,19.355,-1.522,
54487630,0.8,0.298,0.61,-6.475,28.822,-2.415,
54487640,0.849,0.294,0.612,-3.395,41.02,-6.755,
54487650,0.87,0.292,0.608,0.35,59.657,-11.252,
54487660,0.877,0.288,0.571,3.097,82.495,-16.292,
54487670,0.882,0.307,0.515,8.05,106.61,-22.312,
54487680,0.956,0.334,0.543,15.032,132.527,-34.072,
54487690,1.005,0.293,0.494,15.155,169.19,-37.59,
54487700,1.042,0.345,0.482,15.19,214.952,-41.352,
54487710,1.091,0.37,0.489,13.3,271.932,-52.955,
54487720,1.124,0.377,0.449,3.535,339.99,-66.99,
54487730,0.952,0.4,0.453,-13.352,407.4,-83.597,
54487740,0.762,0.435,0.502,-35.297,461.562,-101.657,
54487750,0.2,0.449,0.676,-62.247,480.27,-114.852,
54487760,-0.271,0.426,0.853,-87.5,446.757,-126.175,
54487770,-0.629,0.177,0.92,-95.217,360.692,-114.222,
54487780,-0.62,0.084,1.011,-64.68,250.687,-104.055,
54487790,-0.451,0.134,1.054,-26.582,153.23,-93.1,
54487800,-0.218,0.24,1.06,9.38,87.15,-76.125,
54487810,0.041,0.268,1.005,37.397,55.422,-41.527,
54487820,0.346,0.297,0.942,56.262,65.747,-29.102,
54487830,0.409,0.266,0.893,77.122,117.302,-24.587,
54487830,0.268,0.304,0.84,95.217,185.185,-23.292,
54487850,0.079,0.375,0.789,106.645,241.832,-27.37,
54487850,-0.105,0.419,0.738,110.512,279.247,-29.487,
54487870,-0.312,0.432,0.702,105.385,294.28,-31.08,
54487870,-0.527,0.404,0.698,94.377,286.877,-36.925,
54487890,-0.677,0.411,0.691,82.267,258.002,-47.582,
54487890,-0.813,0.449,0.701,73.36,207.83,-52.762,
54487910,-0.863,0.49,0.7,64.522,144.06,-48.16,
54487910,-0.833,0.516,0.694,53.112,78.732,-36.487,
54487920,-0.72,0.52,0.683,40.232,22.715,-24.325,
54487930,-0.538,0.525,0.685,27.23,-12.057,-14.612,
54487940,-0.518,0.574,0.681,10.71,-28.542,-7.63,
54487950,-0.449,0.683,0.665,-17.027,-37.625,-10.307,
54487960,-0.328,0.63,0.605,-46.672,-33.635,-11.952,
54487970,-0.319,0.535,0.614,-68.512,-22.767,-10.062,
54487980,-0.276,0.419,0.626,-78.767,-5.127,-10.115,
54487990,-0.29,0.403,0.656,-76.492,13.615,-18.9,
54488000,-0.372,0.444,0.693,-74.672,27.807,-30.467,
54488010,-0.448,0.442,0.716,-79.8,37.345,-38.15,
54488020,-0.508,0.408,0.765,-82.39,38.22,-45.115,
54488030,-0.538,0.383,0.799,-77.962,29.435,-49.927,
54488040,-0.552,0.369,0.83,-71.225,13.195,-49.28,
54488050,-0.546,0.356,0.853,-65.31,-6.282,-44.852,
54488060,-0.537,0.337,0.872,-59.99,-27.195,-39.777,
54488070,-0.524,0.305,0.928,-53.777,-46.742,-36.242,
54488080,-0.488,0.282,0.931,-43.907,-66.43,-35.14,
54488090,-0.462,0.264,0.979,-28.192,-80.99,-31.85,
54488100,-0.353,0.256,0.966,-14.087,-93.327,-28.052,
54488110,-0.249,0.255,0.949,1.172,-93.24,-25.62,
54488120,-0.206,0.25,0.945,16.345,-84.105,-28.962,
54488130,-0.201,0.257,0.945,31.5,-70.385,-35.472,
54488140,-0.253,0.281,0.961,45.255,-57.61,-41.335,
54488150,-0.318,0.333,0.965,54.407,-54.74,-43.715,
54488160,-0.354,0.377,0.944,57.855,-60.305,-40.757,
54488170,-0.334,0.405,0.913,56.752,-69.685,-36.137,
54488180,-0.293,0.42,0.876,51.677,-76.51,-31.447,
54488190,-0.251,0.414,0.84,43.435,-76.23,-27.492,
54488200,-0.218,0.405,0.812,34.195,-68.722,-25.567,
54488210,-0.204,0.391,0.786,26.635,-55.667,-24.29,
54488220,-0.247,0.363,0.77,21.315,-40.302,-25.095,
54488230,-0.316,0.355,0.789,18.357,-29.19,-29.662,
54488240,-0.398,0.356,0.805,16.38,-28.875,-33.18,
54488250,-0.457,0.355,0.827,15.47,-38.657,-34.772,
54488260,-0.479,0.364,0.845,14.245,-55.142,-37.835,
54488260,-0.449,0.37,0.843,11.847,-73.92,-43.05,
54488280,-0.441,0.337,0.853,9.082,-92.505,-47.512,
54488280,-0.393,0.332,0.841,9.87,-112.595,-51.922,
54488300,-0.315,0.363,0.838,13.965,-129.535,-52.202,
54488300,-0.217,0.429,0.853,16.8,-140.647,-49.997,
54488320,-0.135,0.506,0.873,12.267,-143.587,-45.255,
54488320,-0.061,0.54,0.89,-1.75,-139.527,-38.29,
54488330,-0.013,0.526,0.897,-21.227,-129.622,-32.812,
54488340,-0.014,0.509,0.888,-43.557,-116.025,-31.307,
54488350,0.017,0.491,0.876,-62.475,-101.535,-35.35,
54488360,-0.025,0.461,0.862,-78.942,-91.49,-37.747,
54488370,-0.05,0.41,0.834,-93.362,-86.38,-38.255,
54488380,-0.029,0.351,0.793,-101.01,-85.715,-37.52,
54488390,0.037,0.306,0.754,-97.44,-82.897,-33.88,
54488400,0.088,0.319,0.761,-88.952,-73.727,-29.452,
54488410,0.112,0.314,0.779,-82.635,-59.185,-24.08,
54488420,0.068,0.265,0.778,-79.957,-42.157,-15.19,
54488430,0.08,0.228,0.908,-67.252,-28.472,-12.145,
54488440,-0.019,0.391,0.999,-74.462,-24.622,-22.557,
54488450,0.09,0.168,1.248,-92.995,-18.672,-6.475,
54488460,-0.202,0.244,1.131,-115.745,-11.882,1.242,
54488470,0.031,-0.192,1.171,-68.267,-21.402,-17.535,
54488480,-0.091,-0.003,1.328,17.622,-16.187,-4.025,
54488490,0.003,0.474,1.306,8.487,-12.915,5.092,
54488500,0.03,0.391,1.139,-32.06,-13.492,0.315,
54488510,-0.003,0.108,1.017,-41.422,-7.717,1.68,
54488520,0.021,0.124,0.955,-25.62,-1.05,-1.715,
54488530,0.054,0.207,0.941,-9.555,5.827,-9.38,
54488540,0.035,0.186,0.918,-2.327,10.657,-15.75,
54488550,-0.019,0.167,0.884,0.385,14.35,-20.632,
54488560,-0.084,0.177,0.88,6.527,11.637,-23.572,
54488570,-0.09,0.197,0.897,9.607,1.015,-21.245,
54488580,-0.048,0.238,0.862,4.235,-10.815,-17.64,
54488580,0.001,0.195,0.861,0.63,-17.675,-14.962,
54488600,0.038,0.193,0.866,1.33,-20.947,-12.197,
54488600,0.056,0.245,0.867,-2.975,-20.965,-9.45,
54488620,0.015,0.23,0.913,-13.212,-17.465,-6.737,
54488620,0.049,0.194,1.002,-36.26,-11.2,-5.687,
54488640,0.027,0.128,1.028,-53.252,-2.24,-9.257,
54488640,0.021,0.025,1.074,-63.297,9.187,-15.732,
54488660,0.005,0.009,1.157,-64.732,25.62,-17.745,
54488660,-0.039,-0.012,1.188,-58.835,40.39,-17.045,
54488670,-0.11,0.007,1.117,-41.37,46.742,-16.642,
54488680,-0.146,0.076,1.069,-26.6,48.912,-13.072,
54488690,-0.221,0.148,1.012,-32.077,50.242,-7.822,
54488700,-0.359,0.028,0.995,-45.85,41.702,-9.345,
54488710,-0.324,-0.074,1.036,-43.172,20.265,-12.057,
54488720,-0.247,0.009,0.95,-15.96,5.425,-13.51,
54488730,-0.352,0.224,0.993,1.802,-12.337,-13.195,
54488740,-0.214,0.244,0.954,-9.975,-31.01,-9.17,
54488750,-0.102,0.145,0.908,-17.85,-36.242,-9.712,
54488760,-0.113,0.159,0.922,-18.602,-31.605,-11.9,
54488770,-0.144,0.178,0.946,-21,-30.187,-7.822,
54488780,-0.116,0.166,0.97,-26.722,-34.072,-1.102,
54488790,-0.092,0.117,0.982,-30.24,-38.01,5.162,
54488800,-0.071,0.067,1.014,-30.222,-39.76,8.137,
54488810,-0.053,0.029,0.986,-24.5,-43.12,7.84,
54488820,0.043,-0.004,1.052,-12.88,-44.975,10.535,
54488830,0.002,-0.047,1.007,-0.577,-37.327,15.382,
54488840,-0.029,-0.035,1.023,7.857,-35.192,18.287,
54488850,-0.065,-0.125,0.985,10.64,-38.202,23.275,
54488860,-0.041,-0.21,0.951,18.2,-44.187,22.295,
54488870,-0.065,-0.196,0.939,35.402,-49.665,15.82,
54488880,-0.08,-0.173,1.003,51.537,-60.392,11.392,
54488890,-0.031,-0.231,1.041,59.622,-70.455,10.972,
54488900,0.041,-0.264,1.073,72.887,-77.997,9.187,
54488910,0.166,-0.252,1.083,93.275,-73.255,9.642,
54488920,0.216,-0.19,1.118,111.895,-54.355,12.232,
54488930,0.273,-0.109,1.141,122.745,-27.562,14.612,
54488940,0.209,-0.013,1.126,128.59,3.255,22.347,
54488950,0.207,0.001,1.105,133.455,30.17,25.462,
54488960,0.179,0.054,1.069,144.322,54.775,19.302,
54488970,0.105,0.133,1.043,149.257,76.457,29.575,
54488980,0.144,0.189,0.977,148.697,95.497,34.755,
54488990,0.108,0.221,0.918,151.112,112.717,34.492,
54489000,0.114,0.297,0.864,158.095,127.907,37.275,
54489010,0.116,0.358,0.813,159.022,145.39,42.77,
54489010,0.193,0.405,0.726,153.23,168.752,42.14,
54489030,0.33,0.451,0.653,145.372,207.427,38.762,
54489030,0.331,0.466,0.56,133.175,263.462,34.58,
54489050,0.217,0.492,0.482,125.58,320.547,28.297,
54489050,0.045,0.556,0.436,110.53,371.962,23.957,
54489070,-0.081,0.613,0.355,82.67,401.152,19.197,
54489070,-0.075,0.562,0.318,59.657,436.205,15.942,
54489080,-0.321,0.477,0.333,51.66,459.392,11.55,
54489090,-0.429,0.521,0.412,44.94,455.227,-1.627,
54489100,-0.511,0.606,0.421,35.21,438.042,-5.11,
54489110,-0.53,0.613,0.431,15.68,412.195,-3.85,
54489120,-0.561,0.511,0.36,1.155,387.642,-2.87,
54489130,-0.711,0.471,0.433,9.712,363.842,3.517,
54489140,-0.658,0.654,0.415,17.412,326.165,6.405,
54489150,-0.694,0.644,0.43,2.152,289.852,5.215,
54489160,-0.67,0.608,0.393,-22.207,254.345,-5.022,
54489170,-0.519,0.602,0.352,-43.452,235.9,-10.727,
54489180,-0.557,0.567,0.314,-52.832,230.492,-7.787,
54489190,-0.631,0.6,0.329,-65.03,226.975,-2.327,
54489200,-0.713,0.644,0.303,-87.517,217.945,4.077,
54489210,-0.803,0.568,0.284,-110.372,210.175,7.717,
54489220,-0.858,0.462,0.267,-121.397,202.93,-1.645,
54489230,-0.995,0.418,0.275,-122.255,189.857,-15.19,
54489240,-1.092,0.385,0.292,-116.462,169.627,-30.082,
54489250,-1.135,0.364,0.315,-103.932,142.572,-40.127,
54489260,-1.193,0.415,0.343,-89.477,109.287,-38.64,
54489270,-1.141,0.457,0.332,-80.045,74.952,-31.71,
54489280,-0.994,0.426,0.347,-75.565,54.477,-23.957,
54489290,-0.992,0.418,0.333,-70.875,44.03,-16.31,
54489300,-0.979,0.407,0.326,-67.62,41.562,-11.76,
54489310,-0.892,0.348,0.317,-62.142,47.022,-9.467,
54489320,-0.887,0.318,0.296,-54.81,57.295,-0.682,
54489330,-0.966,0.358,0.294,-45.5,69.177,7.91,
54489330,-1.017,0.45,0.28,-39.06,66.395,7.752,
54489350,-0.865,0.415,0.263,-33.6,71.155,13.842,
54489350,-0.882,0.386,0.212,-28.245,80.255,15.592,
54489370,-1.126,0.457,0.248,-21.927,76.457,15.522,
54489370,-1.034,0.521,0.187,-22.067,53.287,18.97,
54489390,-1.057,0.414,0.142,-21.105,31.517,15.137,
54489390,-0.958,0.404,0.155,-9.572,8.295,0.91,
54489410,-0.978,0.445,0.141,-3.08,-14.49,-4.112,
54489410,-0.968,0.445,0.061,-0.28,-34.02,0.875,
54489420,-0.808,0.373,0.105,5.915,-36.61,9.975,
54489430,-0.745,0.461,0.112,9.975,-24.185,17.972,
54489440,-0.791,0.53,0.105,11.235,0.192,17.43,
54489450,-0.926,0.526,0.123,3.535,23.712,12.915,
54489460,-1.001,0.533,0.131,-7.402,32.34,10.797,
54489470,-1.057,0.546,0.156,-13.37,27.93,11.357,
54489480,-1.061,0.52,0.146,-21.192,17.08,14.927,
54489490,-0.965,0.513,0.169,-28.945,6.23,13.282,
54489500,-0.902,0.468,0.146,-29.505,-1.172,5.092,
54489510,-0.912,0.468,0.156,-30.94,-6.895,1.207,
54489520,-0.781,0.439,0.146,-32.672,-8.575,2.065,
54489530,-0.743,0.399,0.139,-33.687,-2.537,3.412,
54489540,-0.696,0.389,0.191,-39.445,12.372,3.272,
54489550,-0.811,0.379,0.193,-38.955,28.385,-5.495,
54489560,-0.867,0.387,0.175,-37.695,35.612,-15.33,
54489570,-0.944,0.428,0.254,-42.717,35.507,-21.245,
54489580,-1.151,0.286,0.199,-53.952,26.162,-7.49,
54489590,-1.05,0.44,0.238,-51.345,4.655,-5.285,
54489600,-0.926,0.315,0.216,-54.197,-10.692,-7.84,
54489610,-0.892,0.288,0.209,-51.467,-7.507,-9.555,
54489620,-0.975,0.342,0.244,-45.132,-3.115,-9.45,
54489630,-1.067,0.321,0.277,-38.5,-7.997,-3.71,
54489640,-1.061,0.314,0.309,-29.872,-19.145,4.602,
54489650,-0.984,0.307,0.32,-23.17,-26.652,10.78,
54489660,-0.925,0.316,0.326,-14.927,-25.27,13.125,
54489670,-0.857,0.307,0.319,-7.017,-17.71,15.172,
54489680,-0.799,0.321,0.312,0.91,-5.302,16.765,
54489690,-0.81,0.363,0.302,7.28,7.227,16.222,
54489700,-0.843,0.405,0.275,8.19,15.645,15.312,
54489710,-0.928,0.44,0.253,2.502,15.75,14.98,
54489720,-0.963,0.455,0.222,-2.677,9.257,12.6,
54489730,-0.983,0.449,0.182,-4.375,1.435,10.237,
54489740,-0.988,0.47,0.182,-5.565,-6.352,9.222,
54489750,-0.988,0.475,0.186,-7.7,-12.53,8.277,
54489760,-0.969,0.466,0.183,-8.225,-17.57,7.595,
54489760,-0.994,0.464,0.172,-10.29,-25.375,11.777,
54489780,-0.876,0.45,0.185,-12.757,-30.922,17.902,
54489780,-0.822,0.438,0.184,-12.442,-27.422,18.567,
54489800,-0.868,0.425,0.199,-10.272,-19.827,17.132,
54489800,-0.903,0.442,0.254,-6.912,-16.59,15.907,
54489820,-0.901,0.421,0.234,-8.015,-16.397,13.405,
54489820,-0.898,0.445,0.257,-6.282,-14.875,10.605,
54489830,-0.913,0.405,0.252,-6.44,-14.227,9.607,
54489840,-0.866,0.419,0.254,-7.49,-13.107,8.785,
54489850,-0.844,0.376,0.25,-9.38,-9.345,9.065,
54489860,-0.836,0.384,0.253,-9.03,-5.582,8.925,
54489870,-0.83,0.377,0.247,-11.007,-2.782,7.157,
54489880,-0.826,0.369,0.242,-12.827,-1.907,3.867,
54489890,-0.818,0.362,0.24,-16.03,-2.485,1.277,
54489900,-0.801,0.352,0.243,-20.282,-3.745,-0.087,
54489910,-0.814,0.341,0.258,-22.837,-4.042,-1.662,
54489920,-0.865,0.333,0.295,-22.4,-4.55,-2.817,
54489930,-0.948,0.353,0.361,-20.02,-7.42,-3.255,
54489940,-0.989,0.331,0.411,-17.132,-14.525,-3.325,
54489950,-0.875,0.324,0.384,-10.01,-18.742,-3.482,
54489960,-0.782,0.337,0.367,0.595,-9.012,-1.61,
54489970,-0.814,0.367,0.339,6.807,7.507,-1.155,
54489980,-0.868,0.393,0.301,7.105,20.037,0.945,
54489990,-0.9,0.421,0.264,5.215,24.447,2.922,
54490000,-0.91,0.44,0.23,1.242,22.872,2.415,
54490010,-0.925,0.442,0.212,-3.29,17.43,0.245,
54490020,-0.951,0.445,0.214,-6.335,9.922,-0.857,
54490030,-0.955,0.442,0.226,-8.942,1.487,-1.802,
54490040,-0.925,0.418,0.243,-9.94,-4.602,-2.31,
54490050,-0.877,0.394,0.267,-9.135,-6.457,-2.257,
54490060,-0.856,0.375,0.29,-7.245,-3.745,-1.417,
54490070,-0.839,0.363,0.297,-3.867,1.68,-0.35,
54490080,-0.845,0.36,0.296,0.455,8.575,0.542,
54490080,-0.849,0.36,0.284,4.917,14.682,1.697,
54490100,-0.861,0.372,0.273,9.31,20.877,2.66,
54490100,-0.875,0.374,0.262,13.072,25.865,3.552,
54490120,-0.878,0.381,0.256,17.447,30.485,4.182,
54490120,-0.876,0.387,0.252,22.312,34.23,3.43,
54490140,-0.891,0.384,0.242,27.37,37.66,2.187,
54490140,-0.939,0.363,0.244,33.092,39.392,1.032,
54490160,-1.099,0.408,0.343,36.12,30.45,-1.785,
54490160,-1.063,0.371,0.349,35.63,10.045,-0.525,
54490170,-0.99,0.351,0.357,40.687,-9.31,-0.63,
54490180,-0.982,0.356,0.371,46.375,-26.022,-2.642,
54490190,-0.939,0.348,0.355,47.617,-39.55,-6.65,
54490200,-0.932,0.35,0.339,51.852,-48.265,-8.662,
54490210,-0.885,0.38,0.299,52.167,-53.725,-11.112,
54490220,-0.821,0.384,0.259,50.767,-53.637,-13.79,
54490230,-0.786,0.392,0.225,49.98,-45.99,-13.895,
54490240,-0.759,0.436,0.182,45.272,-33.53,-14.98,
54490250,-0.802,0.437,0.149,40.04,-16.94,-17.99,
54490260,-0.841,0.442,0.111,33.267,-2.52,-16.975,
54490270,-0.854,0.48,0.092,23.957,8.417,-15.05,
54490280,-0.889,0.474,0.062,15.382,15.802,-10.745,
54490290,-0.897,0.479,0.041,6.352,20.405,-8.277,
54490300,-0.887,0.482,0.025,-0.507,21.525,-7.507,
54490310,-0.886,0.477,0.019,-5.687,20.51,-7.017,
54490320,-0.899,0.472,0.025,-11.41,17.517,-5.845,
54490330,-0.933,0.474,0.048,-17.43,11.515,-4.147,
54490340,-0.966,0.469,0.076,-22.942,2.117,-2.957,
54490350,-0.989,0.457,0.11,-26.757,-9.345,-2.082,
54490360,-0.992,0.432,0.149,-28.315,-21.525,-1.155,
54490370,-0.945,0.398,0.193,-26.11,-30.555,-0.14,
54490380,-0.91,0.386,0.253,-20.51,-33.145,0.262,
54490390,-0.908,0.371,0.287,-14.945,-30.31,0.21,
54490400,-0.883,0.357,0.296,-10.605,-24.605,-0.052,
54490410,-0.865,0.354,0.298,-6.93,-18.182,0.787,
54490420,-0.863,0.359,0.298,-4.567,-11.392,1.277,
54490430,-0.911,0.398,0.278,-4.392,-6.597,1.452,
54490440,-0.898,0.375,0.252,-7.157,-7.385,2.222,
54490450,-0.894,0.385,0.234,-6.685,-9.8,1.505,
54490460,-0.883,0.399,0.22,-5.425,-12.285,1.557,
54490470,-0.906,0.401,0.215,-5.215,-14.105,0.157,
54490480,-0.923,0.41,0.226,-4.882,-16.485,-0.49,
54490490,-0.924,0.407,0.229,-4.62,-19.932,-1.452,
54490500,-0.921,0.409,0.228,-3.202,-21.997,-3.78,
54490500,-0.913,0.399,0.229,-1.505,-24.745,-4.655,
54490510,-0.897,0.406,0.236,-0.122,-26.827,-4.55,
54490520,-0.906,0.407,0.242,-0.665,-29.242,-4.952,
54490530,-0.926,0.411,0.247,-2.555,-33.197,-5.477,
54490540,-0.924,0.404,0.258,-4.602,-37.852,-5.477,
54490550,-0.91,0.378,0.254,-5.775,-40.25,-5.46,
54490560,-0.838,0.339,0.248,-3.465,-37.87,-5.285,
54490570,-0.877,0.343,0.295,3.395,-24.762,-4.025,
54490580,-0.954,0.408,0.301,7.927,-23.572,-2.485,
54490590,-0.819,0.39,0.302,5.04,-27.177,-2.187,
54490600,-0.813,0.364,0.29,1.61,-21.822,-3.325,
54490610,-0.887,0.374,0.311,0.735,-15.207,-1.557,
54490620,-0.885,0.398,0.327,-2.345,-13.545,1.68,
54490630,-0.843,0.387,0.334,-6.055,-11.725,2.905,
54490640,-0.831,0.369,0.33,-7.752,-8.12,3.622,
54490650,-0.827,0.375,0.334,-8.102,-3.552,4.462,
54490660,-0.836,0.385,0.33,-9.677,1.067,5.635,
54490670,-0.841,0.395,0.332,-14.385,5.792,7.735,
54490680,-0.89,0.387,0.317,-21.192,10.465,9.59,
54490690,-0.909,0.362,0.303,-25.427,12.477,10.5,
54490700,-0.856,0.377,0.274,-24.202,13.562,9.73,
54490710,-0.905,0.384,0.243,-21.7,15.907,7.07,
54490720,-0.958,0.358,0.223,-17.832,11.392,4.707,
54490730,-0.899,0.393,0.227,-11.69,2.572,3.605,
54490740,-0.891,0.379,0.243,-5.582,-7.595,5.425,
54490750,-0.855,0.388,0.281,1.05,-12.232,5.67,
54490760,-0.896,0.39,0.318,5.512,-14.665,4.2,
54490770,-0.862,0.388,0.312,9.205,-14.7,2.747,
54490780,-0.898,0.398,0.298,11.34,-13.317,1.155,
54490790,-0.913,0.409,0.294,10.972,-14.577,0.997,
54490800,-0.97,0.419,0.303,8.557,-22.592,1.347,
54490810,-0.782,0.404,0.33,10.412,-33.127,2.52,
54490820,-0.741,0.429,0.361,12.25,-23.257,0,
54490830,-0.903,0.401,0.366,9.362,-11.147,-2.835,
54490830,-0.882,0.389,0.352,8.277,-11.165,-1.155,
54490850,-0.8,0.386,0.33,10.885,-9.975,-1.05,
54490850,-0.873,0.4,0.32,12.197,-2.695,-3.255,
54490870,-0.92,0.397,0.296,10.535,-1.645,-3.202,
54490870,-0.885,0.395,0.284,8.12,-3.43,-1.977,
54490890,-0.886,0.387,0.267,6.072,-4.357,-1.365,
54490890,-0.881,0.403,0.275,3.01,-2.31,-0.7,
54490910,-0.954,0.403,0.3,-2.87,-4.427,-0.052,
54490910,-0.885,0.371,0.306,-6.072,-9.887,2.432,
54490920,-0.835,0.375,0.312,-6.107,-11.2,4.935,
54490930,-0.846,0.373,0.297,-8.137,-6.125,5.81,
54490940,-0.894,0.382,0.288,-9.782,-1.907,5.302,
54490950,-0.913,0.401,0.288,-10.692,-2.205,4.322,
54490960,-0.922,0.402,0.286,-12.215,-4.567,3.605,
54490970,-0.884,0.413,0.293,-13.44,-6.807,3.71,
54490980,-0.843,0.416,0.315,-14.962,-6.93,3.675,
54490990,-0.836,0.386,0.361,-15.697,-5.057,2.66,
54491000,-0.82,0.358,0.411,-11.97,-3.15,2.747,
54491010,-0.762,0.349,0.395,-1.225,-0.42,1.347,
54491020,-0.756,0.367,0.384,8.295,7.612,-0.402,
54491030,-0.777,0.397,0.356,13.405,17.552,-3.465,
54491040,-0.882,0.405,0.319,15.54,25.9,-7.035,
54491050,-0.934,0.408,0.279,18.147,26.845,-9.887,
54491060,-1.016,0.413,0.247,20.125,16.187,-11.322,
54491070,-0.898,0.388,0.242,24.727,-3.29,-10.325,
54491080,-0.821,0.406,0.245,28.805,-8.61,-10.43,
54491090,-0.895,0.394,0.255,28.192,-5.442,-11.97,
54491100,-0.921,0.382,0.269,26.46,-4.2,-10.587,
54491110,-0.909,0.39,0.274,24.657,-4.41,-8.925,
54491120,-0.908,0.399,0.276,21.017,-3.045,-8.4,
54491130,-0.898,0.407,0.285,14.437,-2.012,-8.295,
54491140,-0.909,0.404,0.288,6.23,-0.525,-6.3,
54491150,-0.917,0.402,0.305,-2.747,-1.522,-3.29,
54491160,-0.9,0.381,0.308,-10.027,-5.845,1.295,
54491170,-0.824,0.379,0.312,-13.58,-8.732,6.475,
54491170,-0.804,0.403,0.298,-18.847,-1.067,10.5,
54491190,-0.924,0.413,0.273,-29.382,8.715,11.777,
54491190,-0.893,0.395,0.279,-35,10.395,11.042,
54491210,-0.888,0.397,0.294,-34.597,11.707,8.68,
54491210,-0.895,0.36,0.306,-31.185,11.41,6.37,
54491230,-0.865,0.378,0.315,-23.747,8.277,6.125,
54491230,-0.872,0.353,0.317,-17.097,3.867,4.882,
54491250,-0.873,0.363,0.315,-8.435,0.455,3.955,
54491250,-0.88,0.385,0.289,-0.017,-1.732,1.75,
54491260,-0.904,0.4,0.258,6.825,-1.225,-2.485,
54491270,-0.944,0.407,0.243,9.8,-1.627,-6.195,
54491280,-0.954,0.39,0.229,10.202,-5.617,-8.102,
54491290,-0.992,0.4,0.225,11.567,-14.63,-9.17,
54491300,-0.88,0.385,0.273,13.895,-30.065,-8.592,
54491310,-0.826,0.393,0.309,15.557,-32.655,-8.715,
54491320,-0.851,0.385,0.324,15.942,-26.46,-9.485,
54491330,-0.905,0.369,0.324,14.297,-20.737,-8.295,
54491340,-0.866,0.362,0.316,13.177,-22.627,-4.095,
54491350,-0.823,0.374,0.317,12.6,-20.877,-1.522,
54491360,-0.842,0.366,0.304,12.075,-15.715,-1.522,
54491370,-0.867,0.39,0.312,11.34,-9.8,-1.732,
54491380,-0.901,0.4,0.316,7.945,-7.227,-1.907,
54491390,-0.887,0.405,0.317,4.27,-5.425,-1.802,
54491400,-0.91,0.404,0.322,0.245,-5.967,-1.382,
54491410,-0.879,0.39,0.322,-3.062,-7.84,-0.262,
54491420,-0.851,0.378,0.317,-3.815,-7.927,0.245,
54491430,-0.847,0.379,0.318,-4.532,-6.317,1.102,
54491440,-0.864,0.387,0.323,-8.382,-4.707,4.392,
54491450,-0.917,0.399,0.322,-15.872,-4.532,9.397,
54491460,-0.915,0.392,0.302,-22.715,-6.282,11.935,
54491470,-0.907,0.383,0.311,-24.5,-7.682,10.867,
54491480,-0.898,0.394,0.311,-23.222,-7.665,9.222,
54491490,-0.922,0.381,0.318,-23.117,-10.272,7.087,
54491500,-0.878,0.361,0.327,-18.235,-14.735,5.6,
54491510,-0.826,0.36,0.33,-11.13,-18.13,6.877,
54491520,-0.792,0.395,0.334,-7.087,-14.35,7.14,
54491530,-0.867,0.383,0.329,-8.365,-9.712,4.392,
54491540,-0.88,0.371,0.333,-6.912,-8.557,1.697,
54491550,-0.873,0.37,0.339,-2.38,-9.432,0.647,
54491560,-0.843,0.377,0.317,-0.525,-7.945,-0.595,
54491570,-0.859,0.363,0.309,1.802,-6.387,-2.31,
54491580,-0.854,0.364,0.312,4.567,-5.635,-2.782,
54491580,-0.873,0.38,0.307,7.14,-5.792,-3.92,
54491600,-0.895,0.398,0.308,9.187,-10.097,-5.197,
54491600,-0.818,0.388,0.336,11.217,-16.24,-5.39,
54491620,-0.841,0.403,0.359,13.037,-12.39,-6.142,
54491620,-0.895,0.398,0.366,13.282,-11.025,-6.755,
54491640,-0.848,0.399,0.362,12.985,-12.215,-5.477,
54491640,-0.824,0.396,0.359,11.48,-11.06,-4.952,
54491660,-0.849,0.388,0.351,9.747,-6.755,-4.585,
54491660,-0.84,0.378,0.331,7.577,-4.007,-3.745,
54491670,-0.883,0.37,0.316,5.215,0.402,-2.642,
54491680,-0.902,0.369,0.314,3.57,0.21,-1.382,
54491690,-0.889,0.39,0.326,1.942,-0.157,0.157,
54491700,-0.909,0.394,0.341,-1.925,-1.487,1.067,
54491710,-0.872,0.384,0.362,-5.775,-4.007,2.695,
54491720,-0.825,0.388,0.376,-8.172,-5.512,4.847,
54491730,-0.788,0.382,0.385,-10.657,-3.99,7.192,
54491740,-0.773,0.368,0.386,-12.11,1.61,9.03,
54491750,-0.819,0.368,0.363,-12.722,9.957,10.815,
54491760,-0.837,0.391,0.343,-14.35,15.225,12.442,
54491770,-0.874,0.388,0.32,-17.605,18.34,12.792,
54491780,-0.855,0.363,0.297,-16.625,19.46,11.812,
54491790,-0.859,0.362,0.29,-11.532,19.39,9.59,
54491800,-0.898,0.383,0.293,-4.882,17.22,8.015,
54491810,-0.923,0.38,0.302,-0.105,10.867,6.475,
54491820,-0.91,0.392,0.305,5.372,5.88,5.617,
54491830,-0.902,0.384,0.303,9.782,1.54,3.36,
54491840,-0.881,0.379,0.291,13.842,0.437,0.805,
54491850,-0.918,0.383,0.285,17.465,-0.35,-1.435,
54491860,-0.911,0.39,0.28,19.46,-3.29,-2.03,
54491870,-0.927,0.407,0.291,18.55,-8.715,-2.03,
54491880,-0.899,0.404,0.296,18.707,-16.432,-2.887,
54491890,-0.866,0.4,0.325,18.042,-20.737,-2.712,
54491900,-0.872,0.414,0.339,16.485,-20.737,-3.132,
54491910,-0.883,0.41,0.343,13.58,-17.885,-4.095,
54491920,-0.881,0.418,0.352,10.027,-16.765,-4.97,
54491920,-0.845,0.416,0.352,4.217,-13.142,-3.92,
54491940,-0.876,0.398,0.341,-2.205,-7.91,-2.327,
54491940,-0.838,0.384,0.335,-4.9,-5.337,-1.312,
54491960,-0.821,0.385,0.342,-4.095,-2.345,-1.05,
54491960,-0.847,0.392,0.345,-3.517,0.192,-0.84,
54491980,-0.862,0.4,0.339,-3.045,0.875,-0.21,
54491980,-0.875,0.415,0.337,-2.835,0.227,0,
54492000,-0.877,0.412,0.334,-4.637,-0.262,0.052,
54492000,-0.863,0.405,0.333,-6.51,-1.295,0.175,
54492010,-0.837,0.4,0.34,-7.962,-0.647,0.665,
54492020,-0.84,0.392,0.344,-10.272,4.287,1.085,
54492030,-0.889,0.37,0.33,-12.04,8.067,0.28,
54492040,-0.878,0.355,0.309,-10.045,6.422,-0.315,
54492050,-0.897,0.363,0.29,-6.037,3.622,-0.7,
54492060,-0.905,0.366,0.282,-1.225,-1.172,-1.295,
54492070,-0.898,0.378,0.289,3.64,-5.477,-2.012,
54492080,-0.913,0.375,0.287,7.42,-8.837,-4.06,
54492090,-0.91,0.377,0.293,11.13,-10.745,-6.72,
54492100,-0.924,0.402,0.313,13.107,-12.757,-8.54,
54492110,-0.911,0.41,0.319,11.865,-14.647,-9.992,
54492120,-0.89,0.408,0.328,9.782,-14.892,-12.127,
54492130,-0.88,0.407,0.321,7.91,-14.297,-13.545,
54492140,-0.877,0.401,0.312,5.757,-16.957,-14.017,
54492150,-0.858,0.398,0.327,4.217,-18.935,-13.65,
54492160,-0.884,0.41,0.335,2.73,-15.575,-13.895,
54492170,-0.937,0.407,0.328,-0.262,-13.912,-14.857,
54492180,-0.927,0.376,0.309,-2.73,-17.587,-14.665,
54492190,-0.896,0.351,0.297,-2.117,-21.542,-14.07,
54492200,-0.886,0.346,0.295,0.84,-24.115,-13.72,
54492210,-0.886,0.352,0.311,2.835,-26.127,-13.23,
54492220,-0.883,0.357,0.332,2.8,-27.755,-11.795,
54492230,-0.889,0.36,0.339,1.207,-29.627,-9.712,
54492240,-0.885,0.364,0.363,0.542,-30.292,-8.627,
54492250,-0.891,0.365,0.381,-0.21,-30.747,-8.575,
54492260,-0.85,0.376,0.369,-0.7,-30.012,-9.082,
54492270,-0.794,0.368,0.364,-0.192,-24.955,-8.645,
54492280,-0.917,0.348,0.379,0.245,-22.522,-12.057,
54492290,-0.869,0.345,0.404,2.642,-26.845,-14.945,
54492300,-0.844,0.355,0.407,4.812,-27.475,-16.065,
54492310,-0.869,0.356,0.401,5.232,-27.475,-18.112,
54492320,-0.861,0.348,0.39,3.762,-28.122,-18.637,
54492330,-0.873,0.349,0.384,2.397,-29.505,-17.78,
54492330,-0.881,0.348,0.384,0.455,-31.045,-15.925,
54492350,-0.869,0.34,0.39,-1.995,-32.987,-14.035,
54492350,-0.865,0.357,0.385,-3.885,-33.67,-11.865,
54492370,-0.832,0.371,0.374,-8.382,-40.162,-10.412,
54492370,-0.761,0.257,0.458,-12.215,-34.142,-9.817,
54492390,-0.885,0.299,0.453,-4.76,-25.112,-4.812,
54492390,-0.76,0.362,0.482,-3.255,-25.655,-3.535,
54492410,-0.769,0.301,0.471,-9.257,-19.95,-1.032,
54492410,-0.757,0.314,0.463,-9.87,-12.985,-1.172,
54492420,-0.747,0.323,0.443,-10.675,-7.315,-1.487,
54492430,-0.755,0.299,0.426,-10.272,-0.822,0,
54492440,-0.777,0.32,0.423,-7.122,4.235,0.297,
54492450,-0.806,0.326,0.41,-5.687,7.7,1.89,
54492460,-0.813,0.327,0.41,-3.01,9.467,3.85,
54492470,-0.834,0.35,0.414,-1.295,11.532,4.602,
54492480,-0.852,0.357,0.42,-1.68,12.127,5.267,
54492490,-0.849,0.352,0.417,-1.942,11.97,5.565,
54492500,-0.844,0.347,0.417,-1.732,11.795,5.88,
54492510,-0.853,0.35,0.415,-2.117,12.022,5.862,
54492520,-0.858,0.349,0.413,-3.29,11.497,6.405,
54492530,-0.859,0.353,0.41,-5.005,10.99,7.455,
54492540,-0.864,0.352,0.409,-7.857,11.077,8.907,
54492550,-0.869,0.352,0.42,-11.182,11.322,10.395,
54492560,-0.849,0.356,0.43,-14.455,11.042,12.092,
54492570,-0.824,0.347,0.426,-17.132,12.705,13.44,
54492580,-0.825,0.337,0.427,-18.48,16.59,12.6,
54492590,-0.825,0.33,0.429,-17.92,19.285,11.322,
54492600,-0.834,0.326,0.417,-16.17,20.37,10.342,
54492610,-0.811,0.329,0.407,-13.247,22.47,8.592,
54492620,-0.86,0.331,0.389,-11.48,26.355,6.247,
54492630,-0.895,0.326,0.367,-9.135,26.652,3.692,
54492640,-0.899,0.324,0.36,-5.862,24.412,2.397,
54492650,-0.889,0.314,0.345,-2.17,20.23,1.96,
54492660,-0.865,0.307,0.333,1.68,18.007,1.715,
54492670,-0.877,0.3,0.328,5.827,17.745,0.962,
54492670,-0.893,0.31,0.332,9.257,17.64,0.7,
54492690,-0.899,0.316,0.335,11.077,16.082,0.84,
54492690,-0.92,0.314,0.314,12.932,13.982,0.962,
54492710,-0.928,0.337,0.303,15.557,8.942,1.977,
54492710,-0.946,0.349,0.316,16.485,2.275,1.767,
54492730,-0.949,0.35,0.326,18.112,-2.712,1.417,
54492730,-0.936,0.377,0.347,18.007,-5.215,0.752,
54492750,-0.909,0.399,0.369,13.947,-7.945,0.402,
54492750,-0.894,0.387,0.38,6.615,-8.242,1.172,
54492760,-0.864,0.365,0.392,1.067,-7.735,1.452,
54492770,-0.833,0.363,0.394,-0.927,-4.987,1.452,
54492780,-0.837,0.368,0.385,-1.977,-1.382,0.822,
54492790,-0.859,0.368,0.367,-3.132,1.067,0.49,
54492800,-0.881,0.367,0.357,-4.025,1.365,0.49,
54492810,-0.903,0.368,0.345,-4.76,0.717,0.052,
54492820,-0.907,0.36,0.345,-5.022,-1.54,-0.472,
54492830,-0.917,0.343,0.346,-4.672,-4.795,-0.542,
54492840,-0.875,0.342,0.344,-3.657,-6.562,-0.472,
54492850,-0.871,0.35,0.349,-4.182,-7.192,-0.77,
54492860,-0.869,0.347,0.364,-6.597,-7.42,0.63,
54492870,-0.861,0.344,0.377,-9.047,-7.227,2.66,
54492880,-0.855,0.341,0.388,-11.252,-6.58,4.48,
54492890,-0.846,0.334,0.393,-13.755,-4.97,6.405,
54492900,-0.844,0.322,0.389,-15.61,-3.412,7.822,
54492910,-0.824,0.306,0.379,-14.682,-2.187,8.645,
54492920,-0.809,0.304,0.368,-10.657,0.56,8.557,
54492930,-0.843,0.304,0.358,-5.197,3.115,6.895,
54492940,-0.848,0.306,0.34,1.592,4.375,4.567,
54492950,-0.883,0.314,0.32,8.155,6.3,2.135,
54492960,-0.953,0.334,0.312,12.355,6.317,-0.21,
54492970,-0.988,0.36,0.269,14.385,1.347,-2.047,
54492980,-0.976,0.374,0.287,14.752,-10.342,-2.747,
54492990,-0.917,0.381,0.314,13.615,-19.407,-2.817,
54493000,-0.905,0.389,0.365,10.097,-17.797,-4.112,
54493010,-0.911,0.395,0.406,4.34,-16.047,-4.707,
54493020,-0.857,0.386,0.422,-2.87,-16.082,-2.747,
54493030,-0.809,0.357,0.416,-8.207,-12.022,-1.417,
54493040,-0.816,0.339,0.402,-8.68,-6.37,-0.612,
54493050,-0.795,0.365,0.396,-6.422,-3.535,-0.087,
54493060,-0.81,0.379,0.388,-5.74,-1.015,0.262,
54493070,-0.831,0.365,0.382,-6.16,0.49,0.77,
54493080,-0.835,0.358,0.394,-4.847,1.96,1.312,
54493080,-0.838,0.351,0.401,-3.29,5.18,0.98,
54493100,-0.842,0.361,0.392,-3.36,10.972,0.49,
54493100,-0.866,0.368,0.385,-6.405,12.6,0.822,
54493120,-0.845,0.351,0.374,-11.392,12.635,3.01,
54493120,-0.834,0.33,0.362,-14.91,13.527,5.635,
54493140,-0.831,0.317,0.36,-15.557,15.26,7.752,
54493140,-0.855,0.313,0.353,-14.315,16.957,8.802,
54493160,-0.893,0.307,0.341,-12.6,16.607,9.292,
54493160,-0.921,0.312,0.33,-8.697,14.507,8.627,
54493170,-0.946,0.319,0.312,-3.57,11.462,5.722,
54493180,-0.924,0.329,0.297,1.907,7.56,2.45,
54493190,-0.936,0.328,0.294,5.127,4.672,-0.122,
54493200,-0.925,0.322,0.303,7.385,1.102,-0.91,
54493210,-0.908,0.331,0.318,8.89,-1.995,-0.472,
54493220,-0.898,0.341,0.321,9.187,-6.125,0.105,
54493230,-0.835,0.342,0.342,9.467,-10.465,0.962,
54493240,-0.847,0.346,0.353,10.29,-7.77,1.312,
54493250,-0.878,0.358,0.364,10.71,-4.147,0.875,
54493260,-0.905,0.378,0.363,9.012,-2.1,0.997,
54493270,-0.9,0.377,0.351,6.317,-2.695,1.277,
54493280,-0.889,0.376,0.344,4.305,-2.712,1.435,
54493290,-0.893,0.375,0.343,2.922,-2.87,1.295,
54493300,-0.872,0.379,0.344,1.54,-3.465,1.61,
54493310,-0.87,0.38,0.35,-0.21,-3.902,1.487,
54493320,-0.872,0.375,0.352,-1.925,-4.27,1.96,
54493330,-0.869,0.379,0.354,-3.447,-4.9,2.87,
54493340,-0.857,0.38,0.365,-5.11,-5.005,3.15,
54493350,-0.859,0.364,0.375,-6.877,-3.167,3.71,
54493360,-0.84,0.352,0.368,-8.067,0.595,4.287,
54493370,-0.849,0.346,0.356,-8.925,4.41,4.077,
54493380,-0.86,0.338,0.358,-9.257,6.212,4.077,
54493390,-0.883,0.328,0.347,-8.697,7.385,4.042,
54493400,-0.909,0.333,0.332,-6.877,7.402,3.01,
54493410,-0.908,0.34,0.318,-4.637,5.005,1.82,
54493420,-0.928,0.332,0.302,-2.817,2.572,0.875,
54493420,-0.921,0.327,0.297,0.945,-1.435,-0.385,
54493440,-0.914,0.326,0.307,4.585,-3.937,-1.61,
54493440,-0.905,0.322,0.315,6.632,-6.072,-2.222,
54493460,-0.883,0.326,0.32,7.98,-7.682,-1.855,
54493460,-0.878,0.34,0.31,9.415,-9.432,-1.26,
54493480,-0.862,0.354,0.329,9.87,-11.515,-0.14,
54493480,-0.873,0.363,0.36,9.065,-12.127,0.98,
54493500,-0.864,0.374,0.374,8.207,-9.502,1.557,
54493500,-0.873,0.394,0.381,6.265,-4.97,0.455,
54493510,-0.892,0.398,0.366,1.855,-1.155,-0.717,
54493520,-0.879,0.392,0.344,-2.467,0,-0.91,
54493530,-0.886,0.389,0.332,-4.9,0.297,-0.857,
54493540,-0.885,0.397,0.337,-6.055,-0.91,-0.875,
54493550,-0.884,0.404,0.358,-7.91,-1.767,-0.857,
54493560,-0.873,0.384,0.372,-11.392,-1.82,-0.332,
54493570,-0.843,0.357,0.372,-14.017,0.717,-0.122,
54493580,-0.841,0.339,0.367,-14.805,4.2,-0.262,
54493590,-0.852,0.331,0.354,-14.91,5.267,0.472,
54493600,-0.826,0.326,0.353,-14.14,4.69,2.082,
54493610,-0.846,0.321,0.347,-12.32,6.65,2.8,
54493620,-0.867,0.324,0.342,-9.817,8.347,2.835,
54493630,-0.897,0.324,0.336,-7.98,8.907,2.677,
54493640,-0.914,0.314,0.325,-5.407,6.527,2.45,
54493650,-0.892,0.319,0.313,-0.91,3.762,1.82,
54493660,-0.9,0.323,0.307,2.31,2.66,0.927,
54493670,-0.909,0.308,0.295,3.605,1.26,0.857,
54493680,-0.894,0.298,0.291,6.002,-0.612,1.365,
54493690,-0.902,0.31,0.289,9.852,-1.907,1.54,
54493700,-0.914,0.352,0.281,12.337,-4.375,1.96,
54493710,-0.924,0.38,0.32,11.34,-9.8,2.835,
54493720,-0.909,0.371,0.336,9.397,-12.722,3.255,
54493730,-0.894,0.378,0.346,10.132,-12.372,1.155,
54493740,-0.876,0.396,0.362,10.797,-11.182,-1.907,
54493750,-0.883,0.404,0.363,7.927,-8.907,-3.132,
54493760,-0.857,0.388,0.358,4.532,-8.487,-3.237,
54493770,-0.843,0.373,0.357,3.342,-7.262,-3.167,
54493780,-0.859,0.366,0.346,3.675,-4.252,-3.062,
54493790,-0.89,0.371,0.329,3.552,-3.57,-2.397,
54493800,-0.912,0.366,0.321,2.187,-6.37,-0.35,
54493810,-0.893,0.359,0.317,0.192,-10.097,1.767,
54493820,-0.88,0.362,0.323,-1.347,-10.71,2.52,
54493830,-0.904,0.366,0.341,-4.27,-11.462,3.552,
54493830,-0.873,0.355,0.36,-8.557,-13.055,6.177,
54493850,-0.828,0.342,0.367,-11.357,-11.917,8.137,
54493850,-0.822,0.339,0.386,-11.725,-6.44,8.295,
54493870,-0.815,0.338,0.393,-11.13,-0.017,8.032,
54493870,-0.826,0.35,0.394,-10.797,6.195,7.997,
54493880,-0.853,0.353,0.38,-11.515,9.992,7.962,
54493890,-0.847,0.35,0.362,-11.007,12.32,7.07,
54493900,-0.855,0.357,0.341,-8.015,13.58,5.442,
54493910,-0.89,0.369,0.336,-5.232,14.07,3.972,
54493920,-0.93,0.355,0.325,-3.745,10.587,2.572,
54493930,-0.893,0.336,0.308,0.472,5.215,1.067,
54493940,-0.897,0.335,0.298,6.65,4.165,-1.767,
54493950,-0.953,0.344,0.261,10.832,2.205,-4.182,
54493960,-0.955,0.362,0.253,13.282,-6.3,-4.952,
54493970,-0.946,0.343,0.269,15.47,-16.905,-5.39,
54493980,-0.915,0.346,0.288,19.845,-22.855,-6.772,
54493990,-0.868,0.375,0.339,23.012,-24.99,-9.047,
54494000,-0.883,0.393,0.366,19.32,-21.63,-8.837,
54494010,-0.875,0.395,0.389,10.115,-18.48,-5.862,
54494020,-0.872,0.378,0.385,-0.122,-13.107,-3.395,
54494030,-0.838,0.352,0.372,-5.582,-9.625,-2.38,
54494040,-0.821,0.35,0.357,-7,-4.987,-1.715,
54494050,-0.862,0.358,0.35,-7.14,-2.415,0.105,
54494060,-0.862,0.371,0.351,-8.102,-2.642,2.24,
54494070,-0.88,0.378,0.356,-8.837,-3.22,3.552,
54494080,-0.882,0.368,0.37,-10.29,-4.095,4.305,
54494090,-0.848,0.356,0.359,-10.867,-2.625,4.795,
54494100,-0.855,0.357,0.354,-10.605,0.035,3.955,
54494110,-0.871,0.354,0.36,-10.64,1.767,2.922,
54494120,-0.871,0.349,0.359,-11.445,3.885,2.992,
54494130,-0.87,0.35,0.356,-12.425,5.845,2.485,
54494140,-0.88,0.336,0.347,-13.597,5.705,2.345,
54494150,-0.881,0.32,0.338,-12.372,4.76,2.59,
54494160,-0.9,0.304,0.326,-7.77,2.59,1.697,
54494170,-0.869,0.31,0.323,-0.402,-0.14,0.507,
54494170,-0.894,0.322,0.325,5.11,0.472,-1.277,
54494190,-0.917,0.322,0.314,7.962,0.28,-2.73,
54494190,-0.9,0.338,0.282,10.167,-2.397,-2.957,
54494210,-0.911,0.35,0.285,12.145,-7.717,-3.657,
54494210,-0.917,0.348,0.306,14.612,-12.932,-4.217,
54494230,-0.892,0.36,0.324,18.532,-15.225,-5.442,
54494230,-0.892,0.393,0.361,19.88,-15.277,-6.877,
54494250,-0.892,0.393,0.375,15.785,-14.21,-6.965,
54494250,-0.865,0.373,0.381,10.57,-11.882,-6.405,
54494260,-0.881,0.364,0.373,6.177,-7.98,-5.477,
54494270,-0.85,0.35,0.361,3.15,-6.615,-4.392,
54494280,-0.832,0.342,0.352,1.33,-4.462,-3.027,
54494290,-0.861,0.337,0.351,1.207,-2.012,-1.907,
54494300,-0.872,0.351,0.354,1.33,-0.98,-0.717,
54494310,-0.881,0.357,0.362,0.175,-0.647,0.262,
54494320,-0.872,0.356,0.361,-1.487,-0.98,0.945,
54494330,-0.864,0.352,0.359,-2.887,-1.015,1.837,
54494340,-0.847,0.345,0.364,-3.325,-0.402,2.555,
54494350,-0.839,0.344,0.365,-2.31,1.19,2.905,
54494360,-0.826,0.354,0.354,-0.962,4.305,2.765,
54494370,-0.858,0.368,0.351,-1.522,9.012,1.715,
54494380,-0.91,0.344,0.33,-3.622,10.202,1.557,
54494390,-0.902,0.334,0.306,-3.255,8.295,2.187,
54494400,-0.91,0.33,0.279,-1.05,4.83,2.117,
54494410,-0.935,0.345,0.252,0.962,-0.175,2.38,
54494420,-0.945,0.337,0.265,2.117,-8.347,2.817,
54494430,-0.948,0.328,0.289,4.077,-14.752,3.115,
54494440,-0.921,0.339,0.312,6.895,-18.847,3.08,
54494450,-0.877,0.368,0.366,7.14,-19.25,2.607,
54494460,-0.881,0.364,0.406,2.852,-16.66,2.677,
54494470,-0.826,0.353,0.403,-0.262,-12.652,3.395,
54494480,-0.785,0.358,0.385,-0.507,-8.347,3.552,
54494490,-0.804,0.373,0.379,-0.735,-3.325,3.587,
54494500,-0.854,0.368,0.365,-2.257,-0.157,5.705,
54494510,-0.867,0.382,0.351,-1.75,1.26,5.6,
54494520,-0.897,0.388,0.341,-0.665,1.645,4.322,
54494530,-0.906,0.384,0.337,-0.997,-0.245,3.412,
54494540,-0.896,0.37,0.336,-1.487,-2.695,2.992,
54494550,-0.883,0.363,0.339,-0.647,-4.847,2.24,
54494550,-0.87,0.361,0.34,-0.367,-5.932,1.942,
54494570,-0.868,0.357,0.338,-1.242,-7.665,2.677,
54494570,-0.861,0.351,0.343,-2.327,-8.137,3.78,
54494580,-0.855,0.33,0.36,-2.292,-7.822,3.255,
54494590,-0.9,0.356,0.36,-0.56,-4.34,3.307,
54494600,-0.873,0.372,0.343,-1.487,-5.39,4.952,
54494610,-0.865,0.353,0.346,-3.71,-3.5,3.062,
54494620,-0.897,0.343,0.349,-3.57,-2.327,3.08,
54494630,-0.853,0.37,0.341,-3.255,-1.365,2.992,
54494640,-0.898,0.357,0.344,-5.197,0.35,2.94,
54494650,-0.864,0.323,0.355,-4.427,-2.03,3.36,
54494660,-0.818,0.352,0.365,2.065,0.192,1.557,
54494670,-0.866,0.377,0.349,5.95,2.677,0.997,
54494680,-0.869,0.368,0.347,5.215,1.645,0.105,
54494690,-0.897,0.373,0.331,6.107,1.26,-0.56,
54494700,-0.921,0.386,0.331,7.752,-0.315,-2.887,
54494710,-0.921,0.391,0.326,7.367,-2.047,-5.967,
54494720,-0.904,0.394,0.325,7.105,-4.235,-9.205,
54494730,-0.89,0.391,0.34,7.437,-8.382,-10.99,
54494740,-0.782,0.389,0.369,7.98,-11.41,-11.34,
54494750,-0.832,0.398,0.384,6.107,-6.09,-12.547,
54494760,-0.891,0.377,0.378,3.867,-2.03,-13.562,
54494770,-0.879,0.372,0.382,4.13,-0.91,-13.597,
54494780,-0.839,0.321,0.318,7.402,2.362,-11.707,
54494790,-0.908,0.388,0.332,7.192,4.042,-10.867,
54494800,-0.912,0.341,0.313,3.587,2.87,-9.24,
54494810,-0.915,0.335,0.32,1.592,0.875,-6.702,
54494820,-0.895,0.347,0.33,0.402,-0.945,-5.127,
54494830,-0.882,0.356,0.343,-3.377,-1.645,-4.042,
54494840,-0.881,0.333,0.357,-8.417,-2.275,-2.1,
54494850,-0.835,0.316,0.365,-9.922,-1.662,0,
54494860,-0.824,0.318,0.371,-9.625,1.12,1.347,
54494870,-0.814,0.296,0.37,-9.205,5.862,1.82,
54494880,-0.828,0.292,0.346,-6.195,11.952,2.327,
54494890,-0.865,0.316,0.333,-3.36,15.207,2.957,
54494900,-0.899,0.336,0.315,-2.87,16.117,3.71,
54494910,-0.957,0.344,0.318,-4.235,16.59,4.952,
54494920,-0.939,0.353,0.293,-5.74,13.3,5.687,
54494920,-0.925,0.354,0.294,-7.455,8.592,6.037,
54494940,-0.919,0.347,0.289,-7.84,5.355,5.617,
54494940,-0.897,0.365,0.318,-6.667,2.047,4.812,
54494960,-0.904,0.366,0.335,-7.245,1.277,4.462,
54494960,-0.888,0.357,0.335,-8.172,0.525,3.92,
54494980,-0.868,0.358,0.339,-8.015,0.35,3.237,
54494980,-0.871,0.349,0.338,-7.875,1.137,2.87,
54495000,-0.868,0.35,0.335,-7.035,2.205,2.397,
54495000,-0.882,0.346,0.327,-6.055,2.397,1.767,
54495010,-0.881,0.344,0.319,-4.847,2.292,1.365,
54495020,-0.887,0.345,0.318,-3.535,1.662,1.172,
54495030,-0.893,0.343,0.319,-2.467,1.61,0.875,
54495040,-0.889,0.34,0.317,-1.732,1.382,0.542,
54495050,-0.887,0.34,0.314,-1.155,1.452,0.595,
54495060,-0.886,0.338,0.315,-0.962,0.997,0.962,
54495070,-0.886,0.333,0.314,-0.77,0.892,1.452,
54495080,-0.883,0.333,0.312,0.262,1.067,1.627,
54495090,-0.895,0.342,0.314,1.295,1.505,1.382,
54495100,-0.901,0.351,0.316,1.26,1.347,1.19,
54495110,-0.907,0.358,0.31,0.227,0.892,1.417,
54495120,-0.905,0.357,0.305,-1.05,-0.052,1.54,
54495130,-0.9,0.354,0.304,-2.012,-0.787,1.645,
54495140,-0.903,0.352,0.302,-2.625,-1.662,1.785,
54495150,-0.915,0.35,0.302,-2.975,-3.85,2.205,
54495160,-0.904,0.342,0.306,-2.24,-8.067,2.747,
54495170,-0.885,0.34,0.307,0.28,-10.692,2.625,
54495180,-0.897,0.335,0.303,3.22,-11.27,2.17,
54495190,-0.895,0.348,0.31,4.672,-11.165,2.31,
54495200,-0.943,0.356,0.313,1.925,-10.587,2.747,
54495210,-0.925,0.339,0.312,-1.33,-12.827,3.587,
54495220,-0.871,0.348,0.323,-1.942,-13.072,3.465,
54495230,-0.897,0.366,0.338,-3.045,-10.937,2.555,
54495240,-0.89,0.36,0.344,-5.267,-10.5,3.202,
54495250,-0.862,0.366,0.354,-6.02,-10.15,3.64,
54495260,-0.857,0.366,0.353,-6.072,-8.225,3.395,
54495260,-0.856,0.366,0.348,-5.827,-6.457,3.045,
54495280,-0.868,0.369,0.345,-5.565,-4.83,2.607,
54495280,-0.879,0.367,0.343,-5.792,-4.252,2.467,
54495300,-0.871,0.358,0.336,-6.527,-3.902,2.677,
54495300,-0.86,0.344,0.35,-6.702,-3.045,2.87,
54495320,-0.876,0.336,0.35,-6.877,-0.07,3.5,
54495320,-0.874,0.338,0.345,-7.28,1.347,3.885,
54495330,-0.869,0.339,0.338,-8.225,2.03,4.41,
54495340,-0.869,0.338,0.334,-8.82,2.922,4.882,
54495350,-0.883,0.343,0.326,-8.68,4.077,4.847,
54495360,-0.878,0.347,0.323,-7.875,3.605,4.637,
54495370,-0.887,0.355,0.323,-7,3.797,4.235,
54495380,-0.905,0.361,0.322,-6.86,3.272,3.797,
54495390,-0.897,0.363,0.319,-7.402,1.767,3.587,
54495400,-0.887,0.368,0.331,-8.19,0.297,3.727,
54495410,-0.874,0.346,0.322,-7.402,-0.98,3.185,
54495420,-0.866,0.342,0.322,-5.425,-0.595,2.852,
54495430,-0.887,0.356,0.332,-3.237,-0.822,2.187,
54495440,-0.875,0.352,0.333,-1.925,-1.732,2.397,
54495450,-0.862,0.363,0.339,-0.175,-1.382,2.135,
54495460,-0.885,0.371,0.344,-0.105,0.175,1.54,
54495470,-0.892,0.362,0.337,-1.82,1.435,1.487,
54495480,-0.884,0.358,0.328,-3.237,2.205,1.68,
54495490,-0.888,0.351,0.321,-4.445,2.485,2.135,
54495500,-0.892,0.341,0.313,-5.337,1.732,2.887,
54495510,-0.896,0.338,0.309,-5.285,0.962,3.867,
54495520,-0.899,0.34,0.309,-4.847,-0.245,4.165,
54495530,-0.911,0.347,0.307,-3.937,-2.275,3.99,
54495540,-0.9,0.352,0.315,-2.607,-6.37,4.112,
54495550,-0.878,0.355,0.324,-1.54,-9.555,4.655,
54495560,-0.876,0.359,0.34,-1.47,-8.802,4.567,
54495570,-0.902,0.367,0.351,-2.765,-6.807,3.727,
54495580,-0.878,0.365,0.349,-4.13,-5.477,3.15,
54495590,-0.857,0.362,0.345,-4.725,-3.657,2.45,
54495600,-0.877,0.366,0.339,-4.865,-1.435,1.785,
54495610,-0.895,0.362,0.328,-4.812,-1.155,1.347,
54495620,-0.891,0.362,0.32,-4.48,-1.995,1.032,
54495630,-0.896,0.364,0.321,-4.462,-3.29,0.752,
54495640,-0.901,0.36,0.331,-5.075,-4.427,0.717,
54495650,-0.884,0.351,0.334,-5.617,-5.705,0.857,
54495660,-0.868,0.345,0.336,-5.67,-6.265,1.277,
54495670,-0.866,0.345,0.335,-5.407,-6.51,2.065,
54495670,-0.864,0.351,0.345,-5.915,-6.387,3.29,
54495690,-0.853,0.347,0.356,-6.895,-4.76,4.182,
54495690,-0.874,0.343,0.346,-7.665,-0.822,4.602,
54495710,-0.876,0.354,0.343,-7.91,0.332,4.637,
54495710,-0.868,0.353,0.342,-9.17,0.84,5.18,
54495730,-0.886,0.357,0.33,-10.255,2.607,5.232,
54495730,-0.914,0.362,0.325,-11.025,3.237,4.69,
54495750,-0.891,0.347,0.324,-10.902,0.787,4.06,
54495750,-0.876,0.345,0.328,-8.75,0.28,3.325,
54495760,-0.9,0.35,0.335,-5.705,-0.647,2.117,
54495770,-0.881,0.352,0.335,-3.062,-2.362,1.155,
54495780,-0.872,0.349,0.332,-0.84,-2.87,0.157,
54495790,-0.883,0.353,0.326,1.347,-2.59,-0.98,
54495800,-0.892,0.353,0.325,2.485,-2.73,-1.61,
54495810,-0.901,0.351,0.322,2.712,-3.727,-1.732,
54495820,-0.896,0.353,0.333,2.572,-5.582,-1.785,
54495830,-0.888,0.338,0.328,2.537,-6.212,-2.205,
54495840,-0.895,0.36,0.349,2.747,-7.665,-2.45,
54495850,-0.875,0.357,0.343,4.865,-12.95,-3.027,
54495860,-0.825,0.343,0.358,7.49,-15.662,-2.625,
54495870,-0.87,0.372,0.349,9.327,-14.997,-2.8,
54495880,-0.874,0.366,0.348,9.1,-13.195,-2.695,
54495890,-0.912,0.366,0.341,6.387,-10.71,-2.45,
54495900,-0.915,0.37,0.333,1.89,-9.345,-1.225,
54495910,-0.922,0.359,0.335,-3.832,-7.927,-0.892,
54495920,-0.898,0.341,0.331,-6.737,-8.032,-0.875,
54495930,-0.88,0.343,0.333,-6.545,-8.662,-0.21,
54495940,-0.875,0.357,0.344,-6.16,-9.117,0.087,
54495950,-0.888,0.354,0.347,-6.002,-10.045,0.245,
54495960,-0.902,0.368,0.356,-4.935,-11.847,0.7,
54495970,-0.889,0.375,0.369,-5.285,-14.017,1.102,
54495980,-0.857,0.359,0.375,-7.735,-12.162,1.277,
54495990,-0.87,0.354,0.37,-11.095,-7.472,1.382,
54496000,-0.882,0.351,0.367,-15.645,-5.915,2.765,
54496010,-0.828,0.332,0.352,-19.687,-5.792,5.372,
54496010,-0.863,0.333,0.35,-21.927,-2.1,6.387,
54496030,-0.855,0.323,0.363,-21.245,-2.362,6.44,
54496030,-0.83,0.336,0.374,-18.725,-0.822,7.21,
54496050,-0.821,0.343,0.364,-16.747,2.747,7.105,
54496050,-0.902,0.361,0.397,-17.675,5.232,5.267,
54496070,-0.837,0.32,0.372,-14,2.012,2.537,
54496070,-0.828,0.345,0.37,-8.015,2.345,2.117,
54496080,-0.88,0.348,0.374,-6.037,1.907,0.682,
54496090,-0.864,0.327,0.348,-2.8,-1.435,0.367,
54496100,-0.857,0.357,0.336,2.275,-1.627,-0.402,
54496110,-0.927,0.366,0.341,1.977,-0.735,-1.837,
54496120,-0.935,0.338,0.331,0.227,-3.745,-2.152,
54496130,-0.909,0.332,0.325,1.365,-7.472,-1.977,
54496140,-0.924,0.344,0.328,2.257,-11.69,-2.572,
54496150,-0.903,0.348,0.34,2.835,-19.197,-2.817,
54496160,-0.83,0.344,0.359,4.532,-23.45,-2.66,
54496170,-0.863,0.354,0.386,4.655,-20.125,-2.677,
54496180,-0.867,0.357,0.403,2.8,-16.607,-2.45,
54496190,-0.88,0.357,0.404,-0.49,-12.985,-1.89,
54496200,-0.862,0.352,0.401,-3.657,-10.552,-1.68,
54496210,-0.849,0.341,0.389,-5.915,-8.015,-1.505,
54496220,-0.846,0.338,0.379,-5.617,-5.897,-1.277,
54496230,-0.848,0.343,0.374,-4.147,-4.602,-1.015,
54496240,-0.865,0.353,0.377,-3.01,-3.71,-0.315,
54496250,-0.884,0.36,0.379,-3.972,-3.99,-0.262,
54496260,-0.893,0.36,0.383,-5.005,-6.09,0.07,
54496270,-0.873,0.355,0.405,-7.472,-8.33,1.732,
54496280,-0.87,0.334,0.398,-11.357,-6.772,4.27,
54496290,-0.839,0.334,0.387,-13.86,-3.902,6.282,
54496300,-0.82,0.331,0.379,-16.905,0.105,7.56,
54496310,-0.821,0.318,0.378,-18.795,4.27,7.315,
54496320,-0.8,0.32,0.386,-17.535,9.397,6.895,
54496330,-0.886,0.322,0.412,-16.59,11.952,6.055,
54496340,-0.824,0.305,0.405,-12.88,7.962,5.88,
54496350,-0.793,0.333,0.392,-7.752,9.397,5.792,
54496360,-0.889,0.342,0.381,-5.005,11.952,3.395,
54496370,-0.888,0.336,0.372,-1.767,9.03,2.345,
54496380,-0.877,0.343,0.364,1.977,6.055,1.382,
54496390,-0.866,0.343,0.343,4.9,4.375,-0.122,
54496400,-0.889,0.334,0.332,6.405,4.322,-1.102,
54496410,-0.906,0.326,0.329,7.98,2.24,-1.102,
54496420,-0.908,0.326,0.337,9.24,-0.525,-0.472,
54496420,-0.93,0.331,0.35,9.8,-4.462,-0.612,
54496440,-0.916,0.325,0.354,10.902,-12.057,-1.015,
54496440,-0.806,0.325,0.356,13.667,-17.255,-1.382,
54496460,-0.852,0.342,0.36,15.295,-11.235,-1.382,
54496460,-0.921,0.346,0.369,15.47,-8.032,-1.575,
54496480,-0.89,0.356,0.375,14.91,-10.29,-0.91,
54496480,-0.882,0.372,0.379,12.757,-9.765,-0.63,
54496500,-0.904,0.369,0.379,7.84,-7.087,-0.822,
54496500,-0.894,0.353,0.385,2.712,-6.895,-0.367,
54496510,-0.859,0.339,0.386,0.612,-7.367,0.49,
54496520,-0.824,0.341,0.386,1.697,-6.982,1.365,
54496530,-0.832,0.358,0.394,2.502,-5.46,2.24,
54496540,-0.867,0.368,0.406,1.085,-5.53,3.972,
54496550,-0.879,0.372,0.411,-1.347,-7.507,6.79,
54496560,-0.852,0.37,0.4,-3.622,-9.152,9.415,
54496570,-0.803,0.362,0.394,-6.09,-2.59,13.825,
54496580,-0.866,0.383,0.391,-15.872,7.682,13.562,
54496590,-0.888,0.315,0.386,-21.315,7.7,7.892,
54496600,-0.775,0.291,0.377,-11.515,6.387,6.807,
54496610,-0.812,0.376,0.374,-7.42,11.62,5.302,
54496620,-0.893,0.339,0.356,-10.027,12.95,3.5,
54496630,-0.903,0.332,0.352,-5.005,9.747,2.765,
54496640,-0.92,0.36,0.359,0.84,5.162,1.155,
54496650,-0.875,0.354,0.326,2.922,0.805,-0.98,
54496660,-0.868,0.345,0.319,5.74,0.682,-1.995,
54496670,-0.884,0.352,0.329,7.49,0.875,-1.89,
54496680,-0.885,0.344,0.336,7.385,-0.35,-1.05,
54496690,-0.901,0.346,0.349,7.962,-2.695,-1.785,
54496700,-0.902,0.34,0.355,10.185,-9.555,-2.327,
54496710,-0.813,0.341,0.357,14.035,-16.642,-2.8,
54496720,-0.8,0.358,0.374,17.062,-13.247,-3.587,
54496730,-0.903,0.379,0.388,17.027,-6.65,-4.445,
54496740,-0.901,0.375,0.381,15.33,-5.862,-4.095,
54496750,-0.892,0.376,0.369,11.97,-7.245,-2.87,
54496760,-0.86,0.373,0.357,7.612,-6.527,-1.872,
54496760,-0.891,0.374,0.358,2.747,-3.447,-1.487,
54496780,-0.926,0.36,0.362,-1.715,-3.22,-0.927,
54496780,-0.899,0.348,0.364,-3.972,-6.737,0.315,
54496800,-0.88,0.358,0.365,-5.442,-9.835,1.242,
54496800,-0.905,0.363,0.38,-8.172,-13.755,3.272,
54496820,-0.86,0.358,0.383,-11.952,-16.677,7.192,
54496820,-0.83,0.341,0.367,-15.785,-10.517,10.062,
54496830,-0.913,0.353,0.357,-20.615,-2.765,11.637,
54496840,-0.881,0.331,0.361,-24.517,-4.9,8.085,
54496850,-0.783,0.318,0.365,-19.862,-3.517,7.647,
54496860,-0.807,0.341,0.382,-14.122,2.747,7.682,
54496870,-0.823,0.368,0.398,-14.105,6.3,4.83,
54496880,-0.844,0.325,0.412,-14.682,5.582,1.907,
54496890,-0.8,0.314,0.414,-7.63,6.545,2.1,
54496900,-0.892,0.378,0.409,0.56,6.667,-0.315,
54496910,-0.85,0.351,0.368,4.287,4.13,-1.68,
54496920,-0.822,0.376,0.339,7.77,4.935,-4.025,
54496930,-0.901,0.369,0.338,8.925,8.137,-4.97,
54496940,-0.911,0.362,0.335,7.612,5.915,-4.497,
54496950,-0.928,0.357,0.35,6.51,2.572,-3.99,
54496960,-0.951,0.329,0.365,7.927,-6.562,-4.462,
54496970,-0.814,0.315,0.371,14.21,-15.732,-4.287,
54496980,-0.773,0.359,0.363,19.635,-16.992,-6.195,
54496990,-0.828,0.374,0.361,18.112,-10.272,-6.947,
54497000,-0.882,0.364,0.362,14.192,-2.975,-7.63,
54497010,-0.984,0.387,0.379,10.202,-1.155,-5.285,
54497020,-0.911,0.367,0.373,2.537,-5.407,-2.31,
54497030,-0.865,0.35,0.356,-2.03,-5.11,0.717,
54497040,-0.931,0.355,0.384,-7.63,-7.122,2.31,
54497050,-0.889,0.342,0.386,-11.252,-15.627,7.56,
54497060,-0.822,0.339,0.384,-13.842,-17.43,14.892,
54497070,-0.878,0.352,0.368,-19.407,-10.307,21.175,
54497080,-0.848,0.352,0.357,-23.485,-5.547,18.375,
54497090,-0.807,0.328,0.349,-23.572,0.297,12.215,
54497100,-0.809,0.354,0.349,-21.402,11.13,8.89,
54497110,-0.854,0.373,0.36,-22.61,17.71,5.932,
54497120,-0.914,0.356,0.376,-25.9,17.272,4.182,
54497130,-0.892,0.312,0.387,-22.75,10.745,5.372,
54497140,-0.855,0.307,0.394,-12.722,6.405,8.33,
54497150,-0.938,0.364,0.431,-4.235,-0.157,5.425,
54497160,-0.827,0.34,0.385,0.84,-7.717,2.8,
54497170,-0.789,0.383,0.364,7.192,-6.3,1.312,
54497170,-0.84,0.395,0.351,5.512,-0.945,-1.015,
54497190,-0.834,0.378,0.357,3.5,0.472,-5.565,
54497190,-0.866,0.354,0.374,3.08,1.61,-5.302,
54497210,-0.953,0.35,0.408,4.515,-4.62,-3.657,
54497210,-0.821,0.317,0.405,11.62,-17.675,-1.61,
54497230,-0.736,0.349,0.385,21.665,-18.637,-2.66,
54497230,-0.81,0.371,0.371,23.485,-10.097,-3.43,
54497250,-0.898,0.378,0.375,20.597,-7.42,-5.425,
54497250,-0.87,0.356,0.357,16.607,-7.385,-3.885,
54497260,-0.896,0.355,0.347,13.58,-4.532,-0.735,
54497270,-0.907,0.379,0.344,8.575,-1.47,0.105,
54497280,-0.933,0.364,0.347,0.647,-1.522,-0.542,
54497290,-0.949,0.321,0.358,-2.817,-6.3,1.172,
54497300,-0.879,0.343,0.371,-0.035,-12.652,3.972,
54497310,-0.889,0.361,0.384,-1.067,-16.292,8.207,
54497320,-0.869,0.369,0.391,-3.797,-20.37,10.097,
54497330,-0.793,0.379,0.364,-8.015,-16.94,11.27,
54497340,-0.864,0.383,0.355,-16.17,-4.9,10.465,
54497350,-0.89,0.372,0.357,-23.59,0.682,5.285,
54497360,-0.854,0.352,0.343,-26.057,4.025,2.8,
54497370,-0.894,0.332,0.371,-23.66,3.99,3.85,
54497380,-0.816,0.355,0.378,-18.112,1.557,4.637,
54497390,-0.846,0.348,0.42,-15.417,1.96,4.917,
54497400,-0.843,0.319,0.452,-10.727,-1.172,3.307,
54497410,-0.778,0.336,0.457,-1.837,-4.13,1.82,
54497420,-0.738,0.367,0.431,4.55,0.262,1.277,
54497430,-0.759,0.398,0.411,5.425,8.382,-2.695,
54497440,-0.829,0.385,0.381,2.887,15.4,-8.295,
54497450,-0.889,0.359,0.355,2.765,17.57,-9.607,
54497460,-0.934,0.333,0.321,6.265,13.597,-1.627,
54497470,-0.928,0.376,0.332,8.33,8.207,-2.047,
54497480,-1,0.312,0.33,8.785,-6.527,-3.15,
54497490,-0.698,0.294,0.336,20.142,-19.46,-2.327,
54497500,-0.789,0.363,0.349,29.102,-11.69,-4.445,
54497510,-0.875,0.383,0.355,26.04,-3.447,-6.615,
54497510,-0.936,0.358,0.373,19.845,-3.202,-5.18,
54497530,-0.872,0.346,0.361,13.405,-4.567,-2.747,
54497530,-0.844,0.339,0.366,8.575,-1.365,0.665,
54497550,-0.847,0.322,0.375,5.582,1.277,1.645,
54497550,-0.903,0.328,0.4,9.992,2.065,4.2,
54497570,-0.909,0.361,0.414,11.287,-3.43,8.417,
54497570,-0.846,0.387,0.425,10.71,-6.755,10.727,
54497580,-0.894,0.402,0.424,8.767,-8.277,11.917,
54497590,-0.793,0.421,0.402,3.885,-6.737,13.317,
54497600,-0.841,0.426,0.364,-5.582,2.87,14.455,
54497610,-0.877,0.435,0.363,-15.242,11.322,8.837,
54497620,-0.877,0.371,0.374,-22.802,12.32,2.677,
54497630,-0.844,0.318,0.345,-19.425,13.142,5.197,
54497640,-0.851,0.393,0.371,-11.76,13.405,4.13,
54497650,-0.883,0.356,0.374,-11.62,10.22,3.202,
54497660,-0.869,0.365,0.366,-7.962,7.437,2.747,
54497670,-0.885,0.4,0.362,-3.552,7.63,0.525,
54497680,-0.878,0.404,0.333,-5.18,8.47,-3.185,
54497690,-0.896,0.393,0.31,-7.7,9.537,-6.247,
54497700,-0.897,0.368,0.315,-7.7,8.505,-7.35,
54497710,-0.874,0.352,0.321,-6.772,6.475,-6.912,
54497720,-0.858,0.343,0.329,-5.075,5.565,-6.352,
54497730,-0.854,0.335,0.335,-3.395,6.125,-5.6,
54497740,-0.861,0.329,0.34,-2.38,6.615,-4.567,
54497750,-0.895,0.322,0.354,-1.312,4.287,-3.167,
54497760,-0.838,0.302,0.354,4.025,-1.75,-1.645,
54497770,-0.802,0.351,0.345,12.53,-0.997,-0.63,
54497780,-0.897,0.388,0.346,13.86,1.645,-1.627,
54497790,-0.908,0.384,0.345,9.957,0.665,-0.122,
54497800,-0.921,0.387,0.351,6.65,-1.172,1.277,
54497810,-0.872,0.388,0.344,4.27,-1.837,1.82,
54497820,-0.878,0.387,0.346,0.507,-0.875,1.54,
54497830,-0.878,0.368,0.345,-2.1,-0.98,1.82,
54497840,-0.86,0.36,0.351,-1.855,-1.225,2.257,
54497850,-0.858,0.36,0.359,-0.805,-0.315,2.012,
54497860,-0.859,0.365,0.358,-0.525,1.54,1.697,
54497870,-0.881,0.375,0.353,-1.365,2.87,1.54,
54497880,-0.913,0.378,0.341,-3.955,2.992,1.557,
54497890,-0.901,0.37,0.331,-6.335,1.4,1.645,
54497900,-0.883,0.359,0.33,-7.105,0.35,1.417,
54497910,-0.878,0.343,0.328,-6.667,-0.052,1.382,
54497920,-0.887,0.347,0.32,-6.405,-1.26,2.24,
54497920,-0.876,0.357,0.336,-7.297,-4.217,3.062,
54497930,-0.878,0.346,0.363,-8.12,-5.495,3.552,
54497940,-0.874,0.341,0.375,-6.685,-5.81,3.115,
54497950,-0.849,0.344,0.383,-4.427,-5.057,2.537,
54497960,-0.831,0.335,0.374,-3.955,-2.975,2.31,
54497970,-0.826,0.361,0.358,-3.482,1.05,2.835,
54497980,-0.868,0.341,0.335,-3.552,3.885,2.677,
54497990,-0.893,0.355,0.319,-2.887,5.267,2.31,
54498000,-0.917,0.385,0.3,-2.73,4.882,0.665,
54498010,-0.943,0.382,0.307,-3.885,2.957,-0.577,
54498020,-0.914,0.368,0.313,-3.92,-0.787,-1.05,
54498030,-0.874,0.375,0.337,-2.502,-1.785,-2.205,
54498040,-0.875,0.363,0.343,-2.712,-1.575,-3.36,
54498050,-0.846,0.369,0.343,-2.642,-0.332,-3.92,
54498060,-0.869,0.358,0.362,-2.205,1.54,-4.2,
54498070,-0.867,0.365,0.344,-1.277,2.485,-4.987,
54498080,-0.868,0.395,0.323,-0.665,4.392,-5.495,
54498090,-0.906,0.394,0.313,-2.835,5.81,-5.652,
54498100,-0.904,0.388,0.311,-5.722,4.62,-5.302,
54498110,-0.891,0.384,0.311,-7.997,2.712,-5.267,
54498120,-0.864,0.397,0.316,-9.887,1.295,-4.847,
54498130,-0.847,0.365,0.32,-11.812,0.822,-3.937,
54498140,-0.846,0.346,0.342,-12.267,1.522,-3.587,
54498150,-0.883,0.288,0.379,-10.762,2.415,-2.292,
54498160,-0.833,0.285,0.342,-3.675,4.76,-1.12,
54498170,-0.862,0.33,0.341,-1.015,3.517,0,
54498180,-0.866,0.311,0.302,-2.59,3.727,2.817,
54498190,-0.926,0.318,0.305,-1.837,2.38,4.392,
54498200,-0.899,0.335,0.309,1.365,0.822,5.355,
54498210,-0.921,0.357,0.333,1.61,-0.472,4.777,
54498220,-0.89,0.355,0.335,0.892,-2.222,4.97,
54498230,-0.868,0.321,0.338,2.135,-3.29,4.637,
54498240,-0.888,0.338,0.355,4.637,-2.52,3.675,
54498250,-0.867,0.338,0.359,7.052,-1.382,3.132,
54498260,-0.854,0.348,0.357,8.19,0.245,2.8,
54498260,-0.859,0.352,0.362,5.827,0.595,3.99,
54498280,-0.859,0.352,0.358,3.465,1.68,5.355,
54498280,-0.844,0.387,0.368,2.695,4.305,5.915,
54498300,-0.865,0.374,0.356,-0.21,6.615,6.79,
54498300,-0.851,0.395,0.277,-2.45,9.047,6.125,
54498320,-0.899,0.445,0.309,-6.527,11.445,4.462,
54498320,-0.976,0.378,0.3,-13.002,9.642,3.657,
54498330,-0.93,0.374,0.321,-13.02,8.015,3.237,
54498340,-0.907,0.355,0.306,-10.972,6.685,-0.017,
54498350,-0.9,0.339,0.291,-10.272,6.055,-1.47,
54498360,-0.897,0.321,0.28,-7.98,3.692,-1.172,
54498370,-0.904,0.323,0.289,-4.392,2.695,-0.07,
54498380,-0.914,0.338,0.294,-2.24,1.925,0.297,
54498390,-0.914,0.345,0.295,-1.487,1.172,0.332,
54498400,-0.92,0.357,0.282,-0.42,-0.262,0.052,
54498410,-0.936,0.366,0.268,-0.157,-3.36,0.262,
54498420,-0.953,0.384,0.267,-0.892,-7.28,0.297,
54498430,-0.953,0.396,0.272,-3.045,-11.392,-0.122,
54498440,-0.932,0.402,0.288,-6.51,-15.137,-0.945,
54498450,-0.902,0.389,0.318,-9.992,-17.167,-1.487,
54498460,-0.879,0.312,0.353,-10.657,-16.607,-2.572,
54498470,-0.826,0.332,0.358,-5.04,-13.247,-3.57,
54498480,-0.823,0.362,0.347,-3.29,-10.552,-4.34,
54498490,-0.876,0.363,0.338,-7.612,-7.21,-3.167,
54498500,-0.901,0.338,0.331,-10.307,-7.192,-2.292,
54498510,-0.895,0.335,0.321,-7.875,-7.542,-2.292,
54498520,-0.903,0.348,0.32,-5.95,-9.17,-2.887,
54498530,-0.883,0.341,0.325,-6.107,-10.902,-2.45,
54498540,-0.893,0.34,0.347,-5.985,-11.812,-2.012,
54498550,-0.877,0.33,0.366,-5.617,-13.247,-1.697,
54498560,-0.812,0.313,0.367,-4.322,-13.09,-1.277,
54498570,-0.779,0.306,0.381,-1.487,-9.537,-0.84,
54498580,-0.818,0.306,0.386,1.452,-3.447,-0.175,
54498590,-0.872,0.325,0.378,3.412,0.122,0.402,
54498600,-0.912,0.345,0.35,3.202,0.245,1.365,
54498600,-0.916,0.341,0.323,1.452,-2.66,1.995,
54498620,-0.893,0.333,0.311,1.067,-5.722,2.485,
54498620,-0.893,0.348,0.33,1.715,-8.225,3.78,
54498640,-0.877,0.347,0.331,-0.192,-9.31,4.812,
54498640,-0.818,0.386,0.261,-2.747,-7.805,5.582,
54498660,-0.887,0.39,0.31,-8.662,-5.705,5.075,
54498660,-0.947,0.329,0.357,-11.725,-4.83,5.67,
54498670,-0.883,0.361,0.365,-5.635,-3.797,5.25,
54498680,-0.86,0.364,0.377,-4.2,-2.59,2.1,
54498690,-0.852,0.326,0.349,-7.105,-0.56,2.082,
54498700,-0.832,0.297,0.362,-3.167,0.28,3.36,
54498710,-0.834,0.35,0.343,3.622,3.99,3.5,
54498720,-0.898,0.366,0.346,2.905,5.232,2.485,
54498730,-0.908,0.343,0.33,2.292,5.25,2.712,
54498740,-0.887,0.358,0.336,6.265,4.445,2.257,
54498750,-0.875,0.352,0.331,8.697,3.097,1.365,
54498760,-0.867,0.346,0.319,10.36,1.942,1.277,
54498770,-0.9,0.371,0.317,12.442,1.837,1.417,
54498780,-0.92,0.383,0.312,10.395,-0.122,1.872,
54498790,-0.918,0.379,0.291,6.912,-2.94,2.275,
54498800,-0.902,0.398,0.299,5.32,-4.795,2.257,
54498810,-0.946,0.373,0.36,1.365,-6.545,2.257,
54498820,-0.863,0.326,0.358,0.262,-8.837,2.625,
54498830,-0.819,0.362,0.368,4.935,-5.215,0.315,
54498840,-0.88,0.366,0.347,3.43,-2.38,-0.787,
54498850,-0.904,0.363,0.314,-2.38,-2.887,1.12,
54498860,-0.916,0.368,0.322,-4.147,-4.357,2.625,
54498870,-0.955,0.35,0.307,-5.985,-7.315,2.047,
54498880,-0.939,0.371,0.329,-7.647,-10.01,2.065,
54498890,-0.942,0.366,0.348,-10.482,-14.577,1.925,
54498900,-0.893,0.328,0.372,-12.512,-18.742,2.292,
54498910,-0.828,0.292,0.398,-9.45,-20.422,2.415,
54498920,-0.753,0.283,0.406,-3.185,-16.275,2.292,
54498930,-0.708,0.315,0.35,1.592,-4.795,1.732,
54498940,-0.843,0.335,0.337,0.35,7.647,1.277,
54498950,-0.911,0.299,0.312,1.067,8.452,3.272,
54498960,-0.87,0.351,0.276,8.382,6.317,4.812,
54498970,-0.949,0.391,0.312,11.795,3.92,3.797,
54498980,-0.924,0.377,0.311,10.622,-2.047,2.642,
54498990,-0.918,0.38,0.328,11.987,-5.967,1.942,
54499000,-0.923,0.381,0.342,13.09,-7.717,0.262,
54499010,-0.883,0.376,0.342,12.075,-8.557,-0.63,
54499010,-0.87,0.383,0.331,11.585,-7.875,-1.925,
54499030,-0.891,0.378,0.336,10.307,-6.982,-2.817,
54499030,-0.886,0.398,0.333,8.557,-6.44,-3.675,
54499050,-0.912,0.4,0.322,4.2,-6.72,-3.605,
54499050,-0.895,0.396,0.313,-0.595,-8.242,-2.852,
54499070,-0.869,0.387,0.304,-4.725,-10.71,-2.94,
54499070,-0.863,0.37,0.298,-6.72,-12.547,-2.607,
54499080,-0.862,0.38,0.319,-7.472,-12.967,-1.067,
54499090,-0.874,0.377,0.349,-9.327,-13.44,0.245,
54499100,-0.868,0.356,0.368,-10.115,-14.192,0.927,
54499110,-0.892,0.319,0.438,-8.575,-15.102,1.137,
54499120,-0.782,0.29,0.412,-2.922,-15.732,1.155,
54499130,-0.773,0.349,0.389,2.257,-10.675,-0.402,
54499140,-0.858,0.377,0.381,-0.192,-4.06,-0.507,
54499150,-0.926,0.356,0.372,-6.86,-3.132,1.19,
54499160,-0.886,0.353,0.346,-8.767,-3.36,0.927,
54499170,-0.882,0.378,0.345,-9.835,-3.71,-0.192,
54499180,-0.88,0.359,0.348,-13.86,-5.232,-0.017,
54499190,-0.853,0.331,0.361,-15.365,-4.34,-0.28,
54499200,-0.881,0.319,0.365,-12.39,-3.132,-1.627,
54499210,-0.899,0.336,0.361,-7.052,-6.51,-2.135,
54499220,-0.845,0.36,0.354,-2.905,-7.175,-2.047,
54499230,-0.869,0.385,0.346,-1.26,-7.42,-3.78,
54499240,-0.9,0.385,0.368,-5.092,-7.385,-4.252,
54499250,-0.93,0.378,0.369,-10.29,-7.105,-4.515,
54499260,-0.918,0.362,0.362,-12.897,-8.767,-5.39,
54499270,-0.879,0.351,0.365,-13.58,-10.99,-5.862,
54499280,-0.867,0.334,0.371,-13.79,-11.935,-5.81,
54499290,-0.865,0.316,0.372,-12.565,-11.9,-5.162,
54499300,-0.863,0.326,0.384,-9.502,-11.847,-4.602,
54499310,-0.87,0.332,0.38,-7.245,-12.705,-3.885,
54499320,-0.909,0.349,0.368,-6.002,-14.98,-4.025,
54499330,-0.899,0.379,0.333,-0.805,-24.937,-6.125,
54499330,-0.724,0.281,0.274,7.595,-26.897,-10.552,
54499350,-0.938,0.293,0.479,7.472,-16.03,-8.627,
54499350,-0.856,0.321,0.423,6.72,-4.112,-2.817,
54499370,-0.766,0.302,0.463,8.452,5.197,-6.37,
54499370,-0.777,0.266,0.453,8.995,17.64,-6.44,
54499390,-0.802,0.279,0.434,7.35,24.867,-3.22,
54499390,-0.799,0.294,0.413,9.117,29.435,0.857,
54499410,-0.835,0.314,0.38,10.272,33.092,3.675,
54499410,-0.869,0.329,0.34,9.817,34.737,5.985,
54499420,-0.889,0.342,0.324,9.852,32.83,7.857,
54499430,-0.948,0.362,0.317,10.517,29.26,8.68,
54499440,-1.044,0.374,0.302,10.307,18.637,8.855,
54499450,-1.084,0.378,0.262,8.785,-0.105,10.272,
54499460,-1.102,0.364,0.227,7.84,-23.905,16.52,
54499470,-1.08,0.324,0.213,10.955,-46.2,32.305,
54499480,-1.192,0.251,0.265,14.595,-73.71,63.122,
54499490,-1.258,0.221,0.294,31.465,-125.09,90.79,
54499500,-1.177,0.279,0.375,57.435,-179.27,110.81,
54499510,-1.217,0.375,0.426,74.112,-234.535,129.027,
54499520,-1.085,0.407,0.42,76.702,-284.62,145.565,
54499530,-1.005,0.445,0.441,70.752,-314.93,158.76,
54499540,-0.948,0.488,0.499,69.597,-332.377,169.942,
54499550,-0.786,0.48,0.519,78.75,-332.605,180.792,
54499560,-0.453,0.499,0.577,88.287,-304.745,184.747,
54499570,-0.233,0.521,0.609,104.002,-248.115,182.385,
54499580,-0.127,0.548,0.602,128.03,-177.467,167.982,
54499590,0.019,0.553,0.589,150.657,-103.267,143.972,
54499600,-0.065,0.559,0.536,169.732,-37.327,119.56,
54499610,-0.117,0.607,0.528,185.29,10.115,95.725,
54499620,-0.232,0.656,0.522,190.522,33.32,71.242,
54499630,-0.368,0.681,0.518,184.047,33.005,52.92,
54499640,-0.474,0.719,0.515,168.577,11.532,42.77,
54499650,-0.516,0.781,0.485,147.087,-22.312,40.075,
54499660,-0.508,0.836,0.48,121.747,-55.807,41.142,
54499670,-0.49,0.855,0.443,91.49,-81.97,42.227,
54499680,-0.442,0.82,0.408,61.162,-96.81,42.402,
54499690,-0.427,0.775,0.391,36.96,-101.815,43.085,
54499700,-0.459,0.744,0.381,21.21,-101.377,44.695,
54499710,-0.458,0.712,0.373,14.245,-101.36,47.232,
54499720,-0.441,0.733,0.383,14.14,-98.245,51.275,
54499730,-0.431,0.781,0.419,16.397,-100.152,53.62,
54499740,-0.369,0.808,0.362,18.2,-101.342,57.505,
54499750,-0.257,0.851,0.505,21.262,-95.62,58.992,
54499760,-0.253,0.889,0.435,14.175,-91.84,56.717,
54499760,-0.27,0.897,0.459,11.62,-86.502,52.272,
54499780,-0.203,0.859,0.451,6.912,-81.83,48.055,
54499780,-0.182,0.846,0.454,3.937,-77.962,45.902,
54499800,-0.183,0.842,0.451,5.232,-75.25,43.925,
54499800,-0.15,0.854,0.442,6.93,-74.392,40.25,
54499820,-0.119,0.864,0.473,7.91,-70.787,35.227,
54499820,-0.099,0.884,0.451,5.687,-66.255,28.577,
54499830,-0.134,0.864,0.447,3.412,-59.08,21.052,
54499840,-0.148,0.851,0.443,0.787,-54.6,15.085,
54499850,-0.15,0.856,0.441,-3.43,-51.625,12.057,
54499860,-0.144,0.846,0.417,-9.082,-49.28,10.85,
54499870,-0.16,0.833,0.423,-15.347,-45.902,10.395,
54499880,-0.147,0.825,0.435,-20.352,-43.417,8.802,
54499890,-0.078,0.859,0.442,-23.502,-37.135,6.965,
54499900,-0.151,0.872,0.46,-27.772,-30.135,7.42,
54499910,-0.16,0.838,0.477,-37.24,-27.16,8.487,
54499920,-0.189,0.804,0.489,-45.92,-28.035,13.212,
54499930,-0.249,0.779,0.492,-47.81,-34.247,18.392,
54499940,-0.252,0.778,0.508,-45.22,-46.34,21.367,
54499950,-0.179,0.783,0.52,-43.662,-57.785,21.962,
54499960,-0.092,0.783,0.524,-42.017,-61.057,19.25,
54499970,-0.064,0.774,0.531,-39.147,-55.685,15.12,
54499980,0.032,0.674,0.512,-36.085,-43.855,11.427,
54499990,0.12,0.699,0.552,-28.245,-18.672,6.23,
54500000,-0.114,0.77,0.564,-10.15,1.61,-5.932,
54500010,-0.151,0.755,0.562,-0.385,-0.21,-18.427,
54500020,-0.018,0.77,0.606,-1.575,-0.577,-18.602,
54500030,-0.092,0.783,0.596,4.235,2.047,-17.325,
54500040,-0.111,0.831,0.585,11.445,1.347,-18.41,
54500050,-0.137,0.868,0.582,8.015,-0.787,-14.752,
54500060,-0.183,0.825,0.549,0.175,-5.88,-11.602,
54500070,-0.153,0.797,0.527,-1.907,-11.812,-11.62,
54500080,-0.134,0.796,0.517,-2.047,-13.335,-9.835,
54500080,-0.128,0.808,0.522,-2.957,-10.307,-7.63,
54500100,-0.152,0.837,0.539,-4.497,-2.432,-4.812,
54500100,-0.266,0.879,0.55,-6.93,2.117,1.295,
54500120,-0.354,0.906,0.556,-11.847,-3.92,10.99,
54500120,-0.306,0.884,0.547,-18.917,-15.417,20.877,
54500140,-0.217,0.844,0.524,-25.06,-22.12,28.175,
54500140,-0.143,0.81,0.502,-27.405,-20.37,30.817,
54500160,-0.099,0.784,0.499,-25.83,-10.762,29.662,
54500160,-0.052,0.776,0.522,-21.595,2.345,25.34,
54500170,0.058,0.756,0.513,-13.842,21.542,13.982,
54500180,0.016,0.713,0.561,-5.775,40.67,-3.377,
54500190,-0.06,0.772,0.599,-1.19,52.762,-14.087,
54500200,-0.105,0.802,0.652,-0.35,57.505,-14.49,
54500210,-0.121,0.804,0.674,2.117,55.947,-10.71,
54500220,-0.163,0.786,0.68,3.097,50.435,-5.32,
54500230,-0.159,0.773,0.673,0.087,40.67,-0.087,
54500240,-0.125,0.74,0.654,-2.59,32.567,3.412,
54500250,-0.09,0.725,0.632,0.542,31.027,3.045,
54500260,-0.093,0.744,0.62,6.055,33.215,0.157,
54500270,-0.109,0.762,0.599,8.82,37.66,-4.217,
54500280,-0.095,0.778,0.586,8.872,41.667,-9.03,
54500290,-0.107,0.788,0.574,7.507,49.84,-13.545,
54500300,-0.156,0.788,0.568,5.897,59.237,-18.462,
54500310,-0.225,0.779,0.559,4.707,66.78,-22.942,
54500320,-0.298,0.766,0.538,4.847,68.075,-25.252,
54500330,-0.299,0.767,0.531,6.09,64.627,-24.097,
54500340,-0.271,0.791,0.511,8.067,63.875,-21.07,
54500350,-0.257,0.822,0.487,11.165,69.002,-18.935,
54500360,-0.293,0.839,0.456,14.367,78.942,-19.74,
54500370,-0.345,0.841,0.419,14.035,86.992,-22.102,
54500380,-0.368,0.827,0.385,9.922,90.125,-22.312,
54500390,-0.353,0.831,0.371,4.287,87.342,-18.987,
54500400,-0.312,0.841,0.377,-2.905,82.127,-14,
54500410,-0.259,0.846,0.389,-12.81,75.617,-10.692,
54500420,-0.217,0.846,0.41,-24.482,70.91,-11.06,
54500430,-0.199,0.833,0.429,-35.752,69.51,-15.225,
54500440,-0.2,0.806,0.449,-45.097,71.837,-20.475,
54500450,-0.212,0.774,0.464,-50.592,77.14,-25.41,
54500460,-0.252,0.747,0.483,-51.992,85.242,-28.297,
54500470,-0.317,0.729,0.504,-49.752,92.295,-29.75,
54500480,-0.37,0.704,0.516,-45.465,97.002,-30.94,
54500490,-0.418,0.701,0.531,-40.197,97.352,-31.272,
54500500,-0.461,0.713,0.537,-36.592,93.66,-29.68,
54500510,-0.47,0.712,0.55,-35.612,86.94,-26.67,
54500510,-0.466,0.706,0.552,-35.49,79.292,-23.677,
54500530,-0.437,0.702,0.561,-34.772,73.15,-21.56,
54500530,-0.406,0.697,0.567,-32.427,72.572,-22.19,
54500550,-0.389,0.723,0.568,-31.972,76.912,-27.475,
54500550,-0.416,0.706,0.564,-30.572,84.63,-30.782,
54500570,-0.447,0.725,0.556,-30.94,92.015,-35.752,
54500570,-0.514,0.709,0.555,-32.62,96.267,-37.765,
54500580,-0.62,0.64,0.536,-30.922,91.227,-29.312,
54500590,-0.615,0.653,0.533,-22.855,79.397,-22.96,
54500600,-0.606,0.654,0.525,-14.7,65.975,-16.765,
54500610,-0.563,0.678,0.524,-9.415,54.722,-14.017,
54500620,-0.522,0.679,0.505,-7.892,46.287,-13.44,
54500630,-0.503,0.685,0.498,-5.267,41.335,-14.175,
54500640,-0.5,0.696,0.489,-7.245,38.132,-14.997,
54500650,-0.507,0.687,0.473,-11.392,35.175,-17.29,
54500660,-0.508,0.674,0.461,-16.975,30.362,-19.215,
54500670,-0.5,0.661,0.457,-23.292,26.635,-20.58,
54500680,-0.503,0.654,0.462,-28.087,25.182,-21.822,
54500690,-0.509,0.643,0.468,-30.467,24.885,-22.767,
54500700,-0.546,0.626,0.469,-30.047,25.112,-24.815,
54500710,-0.581,0.619,0.466,-26.897,25.76,-27.527,
54500720,-0.599,0.611,0.465,-22.312,25.602,-29.47,
54500730,-0.627,0.615,0.462,-17.377,23.502,-29.732,
54500740,-0.646,0.621,0.455,-12.425,19.04,-27.265,
54500750,-0.616,0.615,0.453,-8.26,13.93,-22.995,
54500760,-0.587,0.633,0.458,-4.69,11.882,-20.79,
54500770,-0.577,0.657,0.467,-2.66,12.81,-21.105,
54500780,-0.587,0.673,0.473,-3.762,17.027,-22.802,
54500790,-0.59,0.661,0.465,-6.02,21.665,-24.727,
54500800,-0.624,0.644,0.463,-6.335,25.357,-26.512,
54500810,-0.683,0.65,0.47,-5.092,24.465,-26.495,
54500820,-0.706,0.657,0.482,-4.742,19.46,-25.48,
54500830,-0.672,0.639,0.496,-3.097,15.032,-25.637,
54500830,-0.654,0.642,0.505,3.535,16.502,-26.88,
54500850,-0.555,0.644,0.496,14.682,25.795,-28.595,
54500850,-0.706,0.634,0.483,20.37,32.672,-27.492,
54500870,-0.719,0.64,0.493,14.787,27.055,-21.245,
54500870,-0.658,0.581,0.477,9.555,25.655,-16.887,
54500890,-0.689,0.609,0.466,7.542,21.122,-17.202,
54500890,-0.691,0.556,0.471,9.502,17.482,-19.722,
54500910,-0.716,0.584,0.462,12.652,12.477,-18.34,
54500910,-0.734,0.581,0.453,14.035,3.657,-19.092,
54500920,-0.75,0.536,0.442,16.38,-7.98,-21.192,
54500930,-0.725,0.51,0.408,24.132,-21.42,-25.287,
54500940,-0.694,0.516,0.416,36.592,-35.192,-28.997,
54500950,-0.625,0.537,0.391,46.55,-44.17,-31.272,
54500960,-0.564,0.558,0.4,57.54,-41.405,-37.59,
54500970,-0.612,0.657,0.405,63.192,-37.94,-47.897,
54500980,-0.607,0.653,0.399,54.775,-34.02,-54.285,
54500990,-0.607,0.66,0.395,42.035,-28.63,-55.422,
54501000,-0.677,0.641,0.39,29.12,-24.395,-52.412,
54501010,-0.748,0.613,0.377,16.922,-23.45,-55.247,
54501020,-0.833,0.549,0.366,10.08,-31.36,-56.49,
54501030,-0.835,0.456,0.336,15.767,-47.145,-54.932,
54501040,-0.762,0.543,0.366,32.795,-58.327,-44.87,
54501050,-0.726,0.555,0.392,43.697,-64.697,-41.982,
54501060,-0.72,0.576,0.41,48.615,-62.545,-37.485,
54501070,-0.649,0.605,0.416,48.527,-55.755,-33.53,
54501080,-0.622,0.627,0.396,44.152,-43.015,-33.092,
54501090,-0.569,0.626,0.375,41.265,-27.177,-30.66,
54501100,-0.575,0.637,0.37,38.64,-9.047,-28.752,
54501110,-0.618,0.678,0.352,31.325,7.035,-27.37,
54501120,-0.67,0.685,0.334,18.9,16.975,-27.965,
54501130,-0.693,0.638,0.31,3.29,20.247,-29.61,
54501140,-0.72,0.614,0.296,-11.165,16.835,-28.612,
54501150,-0.691,0.493,0.303,-22.207,9.87,-27.93,
54501160,-0.692,0.454,0.338,-22.925,9.502,-20.352,
54501170,-0.726,0.518,0.361,-12.005,14.56,-13.877,
54501180,-0.777,0.576,0.396,-0.682,20.16,-14.647,
54501190,-0.808,0.603,0.413,-0.227,22.05,-15.715,
54501200,-0.817,0.599,0.397,-6.387,20.685,-16.432,
54501210,-0.778,0.61,0.405,-12.652,19.075,-15.627,
54501220,-0.748,0.577,0.375,-19.95,20.58,-12.67,
54501230,-0.755,0.574,0.36,-22.75,23.502,-7.35,
54501240,-0.791,0.572,0.373,-28.017,25.655,-4.497,
54501250,-0.837,0.56,0.34,-33.162,21.787,-5.88,
54501260,-0.907,0.537,0.364,-36.715,14.49,-10.657,
54501260,-0.925,0.515,0.379,-36.33,-2.345,-13.405,
54501280,-0.887,0.532,0.371,-35.787,-21.14,-12.32,
54501280,-0.822,0.487,0.383,-31.255,-37.362,-6.195,
54501300,-0.76,0.49,0.398,-27.02,-45.08,1.435,
54501300,-0.718,0.501,0.41,-24.815,-45.797,4.305,
54501310,-0.685,0.515,0.426,-24.815,-38.867,2.187,
54501320,-0.681,0.516,0.437,-26.582,-28.035,-1.032,
54501330,-0.7,0.494,0.446,-27.965,-16.8,-3.5,
54501340,-0.73,0.476,0.447,-27.632,-8.802,-4.042,
54501350,-0.759,0.466,0.445,-25.095,-6.02,-1.767,
54501360,-0.762,0.45,0.437,-21.437,-8.417,1.207,
54501370,-0.762,0.484,0.452,-15.487,-13.44,4.795,
54501380,-0.752,0.516,0.466,-15.505,-19.687,5.232,
54501390,-0.723,0.519,0.478,-19.635,-24.325,2.082,
54501400,-0.706,0.516,0.487,-25.235,-26.267,-1.645,
54501410,-0.698,0.503,0.494,-31.552,-24.675,-4.252,
54501420,-0.707,0.474,0.509,-38.43,-20.002,-5.617,
54501430,-0.7,0.474,0.546,-43.225,-10.867,-6.265,
54501440,-0.775,0.518,0.551,-47.617,-1.067,-7.122,
54501450,-0.823,0.462,0.549,-51.31,5.495,-2.695,
54501460,-0.811,0.437,0.54,-50.575,8.102,6.335,
54501470,-0.709,0.411,0.535,-43.68,16.537,10.202,
54501480,-0.607,0.394,0.506,-29.54,30.782,6.125,
54501490,-0.731,0.447,0.526,-13.195,47.862,1.347,
54501500,-0.773,0.474,0.515,-2.975,55.317,1.68,
54501510,-0.804,0.455,0.505,3.692,53.655,5.565,
54501520,-0.819,0.477,0.49,7.857,45.885,9.555,
54501530,-0.805,0.494,0.474,6.877,36.452,11.585,
54501540,-0.773,0.481,0.45,2.275,27.982,12.075,
54501550,-0.722,0.471,0.428,-2.257,22.347,10.885,
54501560,-0.709,0.462,0.406,-6.265,19.652,9.8,
54501570,-0.72,0.452,0.388,-10.762,16.327,8.715,
54501580,-0.707,0.448,0.386,-15.19,12.775,6.195,
54501580,-0.687,0.452,0.386,-19.145,10.605,2.852,
54501600,-0.67,0.454,0.386,-23.205,12.6,0.087,
54501600,-0.688,0.457,0.377,-26.04,18.13,-3.272,
54501620,-0.755,0.47,0.394,-27.335,23.292,-7.56,
54501620,-0.833,0.474,0.412,-29.102,21.91,-9.467,
54501640,-0.854,0.469,0.427,-30.345,16.887,-7.035,
54501640,-0.874,0.451,0.457,-28.087,11.41,-2.765,
54501660,-0.839,0.453,0.473,-22.715,8.907,1.382,
54501660,-0.805,0.44,0.474,-14.682,10.885,4.025,
54501670,-0.791,0.43,0.466,-6.002,16.485,5.145,
54501680,-0.801,0.43,0.454,2.467,21.717,5.53,
54501690,-0.829,0.437,0.446,10.395,24.167,5.775,
54501700,-0.845,0.454,0.451,15.82,22.26,6.317,
54501710,-0.846,0.48,0.447,17.36,17.745,7.682,
54501720,-0.834,0.489,0.464,16.31,11.672,9.502,
54501730,-0.822,0.478,0.455,15.452,5.285,9.52,
54501740,-0.799,0.477,0.449,14.577,2.1,8.207,
54501750,-0.79,0.457,0.44,13.125,0.402,8.592,
54501760,-0.775,0.444,0.437,13.667,-0.787,10.027,
54501770,-0.77,0.437,0.441,16.397,-1.767,11.375,
54501780,-0.783,0.445,0.451,19.967,-3.377,11.602,
54501790,-0.767,0.458,0.447,23.59,-5.985,11.515,
54501800,-0.77,0.455,0.457,28.35,-6.667,11.13,
54501810,-0.741,0.462,0.461,33.81,-5.057,10.465,
54501820,-0.764,0.471,0.468,40.425,-2.432,9.887,
54501830,-0.795,0.497,0.478,45.78,-0.052,9.222,
54501840,-0.779,0.519,0.475,47.495,1.575,9.8,
54501850,-0.785,0.537,0.425,44.52,3.64,12.302,
54501860,-0.736,0.51,0.408,39.007,10.955,13.387,
54501870,-0.739,0.489,0.384,37.782,18.375,12.32,
54501880,-0.757,0.495,0.356,39.62,27.23,12.32,
54501890,-0.808,0.515,0.338,41.02,33.04,13.51,
54501900,-0.819,0.524,0.32,41.037,33.582,14.07,
54501910,-0.801,0.524,0.301,41.44,30.59,14.315,
54501920,-0.82,0.541,0.32,40.95,26.88,14.647,
54501930,-0.809,0.548,0.267,36.19,15.452,14.262,
54501940,-0.799,0.572,0.331,29.242,11.882,16.24,
54501950,-0.857,0.568,0.245,21.315,3.22,16.205,
54501960,-0.76,0.518,0.246,9.485,1.155,15.452,
54501970,-0.757,0.516,0.257,6.09,5.687,15.12,
54501980,-0.737,0.493,0.289,11.427,14.157,10.255,
54501980,-0.802,0.538,0.31,15.452,19.687,9.712,
54502000,-0.8,0.61,0.299,17.535,21.717,10.202,
54502000,-0.736,0.62,0.274,16.765,24.202,13.195,
54502010,-0.666,0.6,0.245,13.475,32.252,19.197,
54502020,-0.574,0.562,0.224,14.35,48.37,21.227,
54502030,-0.621,0.583,0.236,19.25,71.82,19.705,
54502040,-0.75,0.619,0.256,23.887,85.802,15.627,
54502050,-0.806,0.586,0.257,25.445,87.622,12.232,
54502060,-0.819,0.544,0.236,26.337,81.077,12.162,
54502070,-0.783,0.531,0.21,28.087,71.557,12.95,
54502080,-0.76,0.533,0.202,30.082,61.897,12.985,
54502090,-0.756,0.533,0.181,29.085,53.9,9.835,
54502100,-0.764,0.545,0.148,26.127,47.967,4.83,
54502110,-0.823,0.55,0.188,23.66,40.407,1.277,
54502120,-0.842,0.575,0.173,18.112,28.857,-1.172,
54502130,-0.755,0.627,0.167,10.657,24.395,-2.73,
54502140,-0.847,0.68,0.149,4.392,19.442,-4.637,
54502150,-0.91,0.681,0.145,-4.812,10.43,-7.735,
54502160,-0.839,0.633,0.116,-13.615,0.542,-7.945,
54502170,-0.806,0.584,0.089,-15.907,-7.087,-5.547,
54502180,-0.811,0.583,0.082,-16.327,-10.762,-4.2,
54502190,-0.81,0.584,0.089,-19.477,-13.825,-5.075,
54502200,-0.779,0.569,0.105,-22.662,-15.54,-7.245,
54502210,-0.777,0.584,0.136,-24.482,-15.89,-9.205,
54502220,-0.79,0.596,0.159,-28.122,-15.96,-10.902,
54502230,-0.786,0.586,0.172,-33.705,-16.922,-13.51,
54502240,-0.793,0.569,0.184,-38.36,-18.095,-16.292,
54502250,-0.806,0.567,0.216,-40.547,-20.352,-19.565,
54502260,-0.786,0.573,0.22,-41.807,-23.45,-22.977,
54502270,-0.752,0.566,0.228,-42.35,-23.765,-26.197,
54502280,-0.794,0.545,0.256,-41.317,-23.047,-29.452,
54502290,-0.849,0.498,0.236,-37.817,-26.74,-30.1,
54502300,-0.913,0.489,0.254,-29.662,-34.492,-24.22,
54502310,-0.814,0.521,0.321,-18.847,-43.767,-15.47,
54502320,-0.786,0.493,0.367,-4.777,-41.667,-13.632,
54502330,-0.721,0.51,0.376,8.225,-40.022,-19.88,
54502330,-0.723,0.577,0.33,10.517,-34.16,-22.645,
54502350,-0.694,0.593,0.24,2.152,-18.865,-19.425,
54502350,-0.723,0.562,0.203,-7.927,6.125,-19.967,
54502370,-0.894,0.517,0.176,-12.477,21.035,-27.09,
54502370,-0.959,0.521,0.162,-15.837,19.355,-30.887,
54502390,-0.992,0.509,0.178,-17.29,6.492,-22.75,
54502390,-1.047,0.499,0.153,-12.95,-11.182,-8.925,
54502410,-0.974,0.521,0.244,-9.905,-35.192,1.242,
54502410,-0.747,0.485,0.254,-4.55,-45.062,-1.592,
54502420,-0.631,0.445,0.298,1.68,-43.855,-6.3,
54502430,-0.676,0.451,0.331,7,-31.465,-12.932,
54502440,-0.785,0.5,0.378,9.485,-24.92,-21.857,
54502450,-0.876,0.508,0.393,6.037,-25.007,-26.267,
54502460,-0.855,0.461,0.391,6.247,-29.557,-27.93,
54502470,-0.772,0.47,0.391,9.677,-29.96,-29.785,
54502480,-0.716,0.475,0.379,12.652,-21.507,-31.36,
54502490,-0.683,0.482,0.359,15.015,-5.337,-34.072,
54502500,-0.645,0.471,0.327,16.677,14.91,-33.862,
54502510,-0.661,0.473,0.301,16.17,39.305,-31.57,
54502520,-0.718,0.548,0.242,8.785,65.275,-33.337,
54502530,-0.83,0.513,0.208,-0.385,85.68,-36.785,
54502540,-0.913,0.5,0.168,-15.032,97.545,-39.83,
54502550,-0.963,0.477,0.143,-29.68,97.965,-43.137,
54502560,-0.912,0.443,0.102,-43.645,91.367,-46.602,
54502570,-0.886,0.397,0.077,-51.31,85.435,-49.857,
54502580,-0.931,0.368,0.092,-53.322,76.982,-56.105,
54502590,-0.856,0.371,0.087,-54.6,70.805,-64.96,
54502600,-1.073,0.463,0.081,-59.202,63.875,-67.655,
54502610,-0.988,0.439,0.102,-77.962,45.465,-66.29,
54502620,-1.001,0.402,0.063,-97.545,31.867,-54.967,
54502630,-1.135,0.374,0.134,-95.2,16.835,-15.662,
54502640,-1.113,0.529,0.188,-92.977,-1.697,-7.98,
54502650,-0.919,0.233,0.171,-95.76,-0.91,6.3,
54502660,-1.024,0.27,0.258,-79.957,9.275,16.922,
54502670,-0.901,0.341,0.209,-66.692,16.712,23.275,
54502670,-0.903,0.363,0.241,-53.235,17.15,20.475,
54502690,-0.854,0.315,0.236,-46.322,11.112,17.745,
54502690,-0.86,0.318,0.246,-39.497,8.732,15.977,
54502710,-0.904,0.341,0.249,-32.952,-0.595,9.047,
54502710,-0.842,0.31,0.223,-27.562,-10.272,4.83,
54502730,-0.9,0.36,0.224,-21.525,-15.365,4.62,
54502730,-0.948,0.436,0.242,-15.715,-19.792,6.405,
54502750,-0.945,0.286,0.229,-10.43,-21.21,9.975,
54502750,-0.918,0.374,0.25,1.102,-15.645,11.042,
54502760,-0.923,0.442,0.251,7.49,-7.962,13.387,
54502770,-0.897,0.431,0.263,5.495,-3.605,13.492,
54502780,-0.959,0.362,0.217,-2.852,-1.977,12.757,
54502790,-0.977,0.439,0.208,-7.822,-8.47,10.377,
54502800,-0.943,0.423,0.194,-13.002,-17.657,11.462,
54502810,-0.906,0.313,0.211,-19.687,-24.622,9.38,
54502820,-0.898,0.358,0.236,-17.325,-18.462,9.17,
54502830,-0.966,0.374,0.241,-9.957,-10.92,9.292,
54502840,-1.028,0.42,0.273,-3.885,-14.367,8.505,
54502850,-0.878,0.353,0.174,-1.925,-29.82,5.897,
54502860,-0.852,0.36,0.242,-4.76,-27.877,11.83,
54502870,-0.914,0.407,0.262,-1.68,-32.935,6.965,
54502880,-0.877,0.38,0.219,1.137,-32.27,4.55,
54502890,-0.856,0.397,0.247,4.34,-28.262,5.39,
54502900,-0.943,0.421,0.257,3.307,-25.445,4.567,
54502910,-0.911,0.407,0.266,0.84,-25.707,5.827,
54502920,-0.854,0.391,0.276,-0.98,-23.415,6.615,
54502930,-0.832,0.387,0.29,-4.025,-17.36,5.722,
54502940,-0.842,0.371,0.3,-7.262,-9.94,4.76,
54502950,-0.857,0.365,0.315,-8.4,-5.722,4.2,
54502960,-0.871,0.376,0.316,-7.717,-2.677,3.255,
54502970,-0.879,0.383,0.303,-5.407,-1.347,2.257,
54502980,-0.9,0.399,0.286,-4.077,-1.277,1.575,
54502990,-0.915,0.41,0.258,-5.127,-3.517,1.067,
54503000,-0.889,0.401,0.252,-6.825,-5.232,1.137,
54503010,-0.909,0.399,0.228,-7.367,-6.632,0.297,
54503020,-0.873,0.401,0.279,-10.972,-7.192,0.175,
54503030,-0.905,0.384,0.279,-7.07,-1.732,-0.087,
54503040,-0.91,0.389,0.292,-2.94,-1.225,-0.455,
54503050,-0.869,0.397,0.295,-2.485,-3.185,-0.122,
54503060,-0.863,0.377,0.277,-4.252,-3.867,-0.192,
54503070,-0.873,0.383,0.28,-2.187,-3.395,-0.63,
54503080,-0.898,0.399,0.279,-0.717,-3.43,-1.452,
54503080,-0.896,0.404,0.277,-1.855,-4.882,-1.802,
54503100,-0.889,0.387,0.28,-3.272,-4.847,-2.047,
54503100,-0.904,0.374,0.292,-2.31,-2.712,-2.117,
54503120,-0.912,0.39,0.285,0.087,-2.572,-2.082,
54503120,-0.885,0.394,0.281,-0.28,-4.602,-2.117,
54503140,-0.903,0.384,0.282,-3.045,-5.425,-1.61,
54503140,-0.919,0.382,0.275,-3.482,-7.052,-0.927,
54503160,-0.914,0.386,0.267,-1.645,-10.185,-1.12,
54503160,-0.897,0.388,0.272,-0.367,-13.702,-1.837,
54503170,-0.902,0.381,0.281,0.525,-15.75,-1.627,
54503180,-0.875,0.379,0.287,2.677,-15.4,-0.98,
54503190,-0.881,0.397,0.299,3.377,-12.95,-1.802,
54503200,-0.876,0.391,0.295,1.382,-11.2,-2.712,
54503210,-0.85,0.376,0.289,0.017,-9.03,-2.135,
54503220,-0.87,0.387,0.29,0,-6.02,-0.91,
54503230,-0.874,0.394,0.297,-1.627,-4.392,-0.42,
54503240,-0.858,0.381,0.29,-3.377,-3.097,-0.262,
54503250,-0.855,0.378,0.29,-3.29,-1.26,0.07,
54503260,-0.872,0.385,0.293,-3.535,0.437,0.997,
54503270,-0.871,0.38,0.294,-4.515,1.435,1.47,
54503280,-0.866,0.362,0.313,-3.955,3.36,1.732,
54503290,-0.874,0.403,0.311,-1.697,6.562,1.89,
54503300,-0.898,0.343,0.294,-2.17,7.98,1.575,
54503310,-0.888,0.376,0.285,-3.325,7.49,0.945,
54503320,-0.885,0.392,0.276,-4.147,6.947,2.607,
54503330,-0.895,0.381,0.282,-4.917,5.845,2.59,
54503340,-0.901,0.422,0.28,-5.337,6.125,3.027,
54503350,-0.904,0.352,0.276,-4.777,4.62,3.5,
54503360,-0.894,0.386,0.26,-2.887,3.272,0.892,
54503370,-0.892,0.398,0.268,-1.75,0.245,0.752,
54503380,-0.894,0.358,0.275,-0.892,-2.362,0.297,
54503390,-0.893,0.365,0.291,3.395,-2.852,-0.052,
54503400,-0.887,0.366,0.298,7.7,-2.922,-1.33,
54503410,-0.884,0.384,0.271,8.977,-2.817,-2.03,
54503420,-0.885,0.424,0.24,6.44,-2.362,-2.642,
54503420,-0.935,0.368,0.266,0.735,-6.002,-2.38,
54503440,-0.909,0.385,0.272,2.327,-7.087,0.07,
54503440,-0.914,0.398,0.296,4.305,-6.982,-1.33,
54503460,-0.919,0.393,0.298,2.275,-6.807,-3.237,
54503460,-0.881,0.385,0.308,-0.157,-6.982,-4.27,
54503480,-0.871,0.384,0.346,0.017,-3.745,-6.72,
54503480,-0.863,0.405,0.359,-0.63,1.592,-9.52,
54503500,-0.848,0.4,0.328,-3.622,5.932,-11.917,
54503500,-0.874,0.391,0.29,-6.65,8.732,-14.017,
54503510,-0.883,0.381,0.264,-8.207,8.715,-14.332,
54503520,-0.916,0.356,0.265,-7.14,7.455,-11.777,
54503530,-0.898,0.379,0.247,-4.27,7.14,-9.327,
54503540,-0.882,0.403,0.228,-4.235,6.475,-7.77,
54503550,-0.894,0.361,0.252,-5.792,5.04,-4.55,
54503560,-0.867,0.33,0.221,-5.092,4.27,-3.867,
54503570,-0.903,0.367,0.246,-1.662,2.52,-2.082,
54503580,-0.876,0.337,0.256,-1.47,0.875,-0.997,
54503590,-0.904,0.337,0.263,-0.91,1.47,-0.175,
54503600,-0.916,0.345,0.269,-0.227,1.75,-0.052,
54503610,-0.914,0.351,0.278,-1.645,1.295,0.717,
54503620,-0.907,0.339,0.273,-2.852,0.682,1.68,
54503630,-0.889,0.335,0.269,-0.367,0.297,1.75,
54503640,-0.893,0.336,0.281,2.94,0.91,1.487,
54503650,-0.901,0.348,0.284,5.127,1.19,1.277,
54503660,-0.916,0.359,0.28,5.967,0.822,2.1,
54503670,-0.927,0.366,0.269,5.6,-0.122,2.397,
54503680,-0.958,0.394,0.2,4.497,-1.645,2.327,
54503690,-0.92,0.451,0.203,0.105,-4.62,1.102,
54503700,-1.01,0.381,0.211,-8.277,-9.905,1.295,
54503710,-0.961,0.369,0.253,-8.855,-14.052,2.45,
54503720,-0.913,0.386,0.265,-6.072,-15.925,0.297,
54503730,-0.908,0.356,0.306,-8.487,-16.642,-0.717,
54503740,-0.847,0.356,0.324,-10.15,-15.12,0.927,
54503750,-0.869,0.382,0.367,-9.432,-11.095,1.627,
54503760,-0.862,0.359,0.346,-8.277,-7.507,0.857,
54503770,-0.867,0.372,0.289,-5.687,-7.21,1.907,
54503780,-0.85,0.402,0.236,-3.605,-8.015,4.06,
54503790,-0.884,0.391,0.229,-4.987,-7.892,6.807,
54503800,-0.894,0.38,0.236,-7.052,-8.75,7.14,
54503810,-0.851,0.366,0.262,-6.37,-8.96,7.595,
54503820,-0.855,0.326,0.321,-4.322,-5.95,7.752,
54503830,-0.828,0.299,0.332,0.98,-1.837,8.242,
54503830,-0.789,0.337,0.323,7.157,3.675,7.052,
54503850,-0.868,0.366,0.309,8.155,8.61,5.495,
54503850,-0.916,0.349,0.291,7.647,10.797,6.352,
54503870,-0.926,0.399,0.281,7.945,11.567,5.005,
54503870,-0.96,0.389,0.257,5.197,11.707,3.447,
54503890,-0.958,0.399,0.255,3.01,8.365,2.012,
54503890,-0.939,0.39,0.233,2.31,4.567,1.592,
54503910,-0.925,0.398,0.237,1.96,2.205,0.315,
54503910,-0.937,0.387,0.242,-0.28,-0.752,-0.472,
54503920,-0.911,0.381,0.231,-1.19,-3.692,-0.49,
54503930,-0.913,0.374,0.278,-1.295,-6.772,-1.452,
54503940,-0.91,0.327,0.305,-0.682,-9.8,-0.91,
54503950,-0.866,0.331,0.321,3.972,-9.677,-1.12,
54503960,-0.863,0.35,0.332,7.595,-7.227,-1.872,
54503970,-0.882,0.355,0.31,6.282,-5.04,-0.105,
54503980,-0.882,0.38,0.199,4.48,-4.042,1.557,
54503990,-0.783,0.451,0.206,-0.595,0.787,0.315,
54504000,-1.003,0.381,0.203,-11.847,2.065,-1.26,
54504010,-0.997,0.39,0.251,-11.812,-2.8,2.205,
54504020,-0.917,0.393,0.284,-6.265,-7.7,1.487,
54504030,-0.885,0.38,0.307,-6.3,-8.172,-0.367,
54504040,-0.857,0.339,0.32,-6.685,-7.752,-0.017,
54504050,-0.834,0.346,0.32,-0.717,-4.935,-0.035,
54504060,-0.86,0.382,0.304,3.517,-0.612,-1.207,
54504070,-0.899,0.384,0.276,2.275,1.54,-1.54,
54504080,-0.926,0.402,0.247,1.89,1.837,-1.47,
54504090,-0.933,0.41,0.245,0.087,-0.665,-1.592,
54504100,-0.92,0.394,0.244,-3.937,-3.937,-0.875,
54504110,-0.878,0.393,0.253,-5.827,-5.092,-0.997,
54504120,-0.88,0.4,0.278,-8.12,-2.712,-1.137,
54504130,-0.897,0.344,0.312,-12.897,-0.84,-0.35,
54504140,-0.86,0.307,0.317,-10.762,0.857,1.312,
54504150,-0.858,0.328,0.316,-2.432,3.657,0.945,
54504160,-0.89,0.354,0.298,2.24,6.562,0.42,
54504170,-0.913,0.371,0.264,1.4,7.245,0.735,
54504170,-0.934,0.374,0.249,0.052,6.79,1.085,
54504190,-0.926,0.386,0.211,-0.647,4.2,1.312,
54504190,-0.924,0.389,0.231,-3.902,1.575,0.91,
54504210,-0.932,0.371,0.221,-6.055,-1.732,1.47,
54504210,-0.925,0.381,0.26,-6.527,-5.495,1.557,
54504230,-0.91,0.349,0.295,-6.982,-10.255,1.82,
54504230,-0.879,0.324,0.305,-4.987,-12.897,2.73,
54504250,-0.846,0.322,0.317,-0.315,-12.617,2.73,
54504250,-0.859,0.326,0.315,4.795,-10.01,1.82,
54504260,-0.884,0.343,0.299,9.082,-7.21,1.26,
54504270,-0.906,0.373,0.265,10.657,-5.792,1.155,
54504280,-0.859,0.464,0.147,7.997,-3.937,1.155,
54504290,-0.965,0.429,0.215,-5.302,-3.692,-0.595,
54504300,-1.015,0.344,0.23,-9.835,-10.885,2.922,
54504310,-0.903,0.394,0.282,-2.17,-14.07,1.75,
54504320,-0.907,0.403,0.334,-2.59,-14.087,-2.415,
54504330,-0.879,0.335,0.343,-8.12,-13.51,-0.14,
54504340,-0.794,0.342,0.34,-2.537,-10.15,-0.49,
54504350,-0.828,0.349,0.352,2.712,-3.832,-1.47,
54504360,-0.852,0.377,0.314,2.852,0.262,-1.032,
54504370,-0.877,0.403,0.273,3.202,3.115,-1.592,
54504380,-0.911,0.417,0.254,2.415,4.252,-1.925,
54504390,-0.934,0.42,0.24,-2.45,3.815,-1.907,
54504400,-0.935,0.404,0.25,-6.737,1.907,-2.572,
54504410,-0.925,0.362,0.299,-8.557,-1.312,-1.295,
54504420,-0.855,0.324,0.297,-5.67,-2.415,0.35,
54504430,-0.83,0.336,0.305,0.472,-0.28,-0.56,
54504440,-0.873,0.335,0.294,3.167,1.715,0.21,
54504450,-0.897,0.343,0.285,3.535,2.712,2.117,
54504460,-0.928,0.36,0.267,4.935,3.43,1.96,
54504470,-0.927,0.388,0.245,4.585,2.782,0.84,
54504480,-0.957,0.38,0.243,-0.437,0.595,0.35,
54504490,-0.923,0.369,0.24,-3.097,-3.027,0.822,
54504500,-0.923,0.353,0.285,-3.395,-7.875,0.402,
54504510,-0.884,0.322,0.31,-1.907,-11.48,1.697,
54504520,-0.849,0.328,0.317,2.415,-12.127,2.432,
54504530,-0.858,0.34,0.32,5.81,-10.5,2.31,
54504540,-0.856,0.398,0.234,6.02,-5.81,2.275,
54504550,-0.892,0.41,0.239,-1.225,-1.767,0.612,
54504560,-0.965,0.372,0.213,-6.615,-2.59,1.662,
54504570,-0.94,0.4,0.253,-5.372,-5.197,1.75,
54504580,-0.928,0.384,0.288,-4.602,-6.51,-0.122,
54504580,-0.903,0.368,0.292,-6.545,-7.735,-0.297,
54504600,-0.85,0.343,0.335,-5.722,-7.49,-0.227,
54504600,-0.867,0.323,0.328,-1.54,-4.742,-0.542,
54504620,-0.859,0.4,0.318,3.185,-1.102,-1.172,
54504620,-0.878,0.387,0.281,2.555,0.525,-2.397,
54504640,-0.879,0.395,0.249,1.312,1.925,-2.205,
54504640,-0.922,0.404,0.251,0.087,1.172,-2.152,
54504660,-0.923,0.402,0.255,-2.082,-1.102,-2.1,
54504660,-0.923,0.401,0.256,-4.095,-3.097,-2.327,
54504670,-0.911,0.367,0.299,-6.457,-5.25,-1.75,
54504680,-0.859,0.323,0.31,-6.335,-6.807,0.49,
54504690,-0.835,0.303,0.345,-0.735,-5.722,1.172,
54504700,-0.831,0.317,0.325,8.085,-4.62,1.12,
54504710,-0.852,0.364,0.301,12.162,-0.77,0.7,
54504720,-0.948,0.378,0.277,9.73,2.677,0.822,
54504730,-0.978,0.393,0.237,5.845,0.857,1.575,
54504740,-0.946,0.407,0.229,1.242,-0.682,0.787,
54504750,-0.959,0.384,0.233,-4.602,-1.75,0.035,
54504760,-0.95,0.368,0.257,-7.892,-4.795,0.63,
54504770,-0.917,0.355,0.27,-7.77,-8.925,0.805,
54504780,-0.912,0.36,0.296,-7.735,-12.442,1.242,
54504790,-0.891,0.354,0.315,-8.487,-16.327,3.08,
54504800,-0.887,0.332,0.341,-8.295,-19.162,4.2,
54504810,-0.895,0.383,0.315,-5.075,-21.875,5.18,
54504820,-0.8,0.335,0.322,-3.885,-27.597,2.607,
54504830,-0.832,0.274,0.348,0.49,-17.815,2.152,
54504840,-0.907,0.376,0.262,11.375,-10.342,4.147,
54504850,-0.748,0.464,0.204,9.677,-7.735,0.945,
54504860,-0.934,0.381,0.207,-6.807,-0.35,-2.415,
54504870,-1.031,0.351,0.211,-10.395,-2.747,0.892,
54504880,-0.95,0.418,0.316,-7.63,-8.435,2.1,
54504890,-0.924,0.35,0.327,-13.055,-11.83,-0.402,
54504900,-0.861,0.337,0.338,-14.437,-11.025,2.467,
54504910,-0.837,0.32,0.396,-8.96,-9.362,2.485,
54504920,-0.791,0.347,0.388,-4.235,-4.777,2.922,
54504920,-0.799,0.358,0.357,-2.8,-0.945,2.17,
54504940,-0.817,0.357,0.315,0.857,3.867,2.03,
54504940,-0.853,0.385,0.285,4.987,7.49,1.155,
54504960,-0.901,0.41,0.276,6.492,8.61,0.07,
54504960,-0.92,0.398,0.278,6.16,6.947,-1.925,
54504980,-0.913,0.384,0.271,6.755,5.04,-2.992,
54504980,-0.887,0.376,0.267,7.28,3.307,-2.905,
54505000,-0.879,0.375,0.277,5.792,2.852,-2.257,
54505000,-0.901,0.365,0.292,2.327,2.152,-0.56,
54505010,-0.93,0.343,0.313,0.787,-0.315,1.452,
54505020,-0.886,0.355,0.331,2.362,-2.677,2.835,
54505030,-0.896,0.365,0.324,2.572,-2.24,3.167,
54505040,-0.896,0.369,0.327,0.28,0.192,2.537,
54505050,-0.927,0.379,0.32,-1.382,2.065,2.922,
54505060,-0.927,0.386,0.298,-1.505,2.327,2.17,
54505070,-0.901,0.386,0.245,-1.102,1.032,0.84,
54505080,-0.899,0.392,0.242,-3.727,1.487,-0.98,
54505090,-0.944,0.4,0.245,-7.665,0.175,0.735,
54505100,-0.905,0.356,0.26,-11.375,-1.785,1.102,
54505110,-0.895,0.344,0.292,-12.547,-4.007,1.47,
54505120,-0.869,0.319,0.308,-11.76,-5.862,3.412,
54505130,-0.84,0.314,0.316,-8.242,-7.332,4.602,
54505140,-0.838,0.313,0.326,-2.765,-7.35,5.145,
54505150,-0.843,0.338,0.324,3.395,-5.547,5.46,
54505160,-0.871,0.373,0.337,6.037,-2.047,4.165,
54505170,-0.897,0.366,0.344,5.705,-0.402,2.642,
54505180,-0.887,0.376,0.343,5.932,0.525,2.257,
54505190,-0.886,0.385,0.279,5.617,2.222,1.522,
54505200,-0.827,0.443,0.227,1.645,5.232,0.875,
54505210,-0.922,0.401,0.218,-8.137,6.562,0.437,
54505220,-1.005,0.379,0.236,-12.53,4.795,2.765,
54505230,-0.977,0.412,0.261,-10.22,-0.14,3.255,
54505240,-0.921,0.378,0.283,-11.637,-5.022,1.295,
54505250,-0.887,0.351,0.296,-11.55,-6.475,0.927,
54505260,-0.868,0.355,0.315,-8.05,-6.667,1.015,
54505270,-0.865,0.348,0.339,-5.372,-6.247,0.647,
54505280,-0.883,0.336,0.34,-2.747,-4.62,0.367,
54505290,-0.853,0.365,0.304,2.397,-2.362,-0.28,
54505300,-0.869,0.393,0.288,3.92,-0.367,-2.17,
54505310,-0.903,0.383,0.276,1.435,-0.385,-2.345,
54505320,-0.898,0.396,0.271,0.91,-0.612,-1.61,
54505330,-0.899,0.404,0.289,0.245,-0.42,-2.31,
54505330,-0.915,0.357,0.31,-2.135,-1.417,-2.257,
54505350,-0.886,0.323,0.311,0.507,-3.727,-0.577,
54505350,-0.863,0.338,0.307,7.42,-7.087,0.945,
54505360,-0.869,0.35,0.303,11.847,-9.642,1.715,
54505370,-0.902,0.362,0.309,13.72,-10.657,1.662,
54505380,-0.933,0.385,0.272,14.35,-13.282,1.68,
54505390,-0.897,0.413,0.272,11.182,-12.267,1.61,
54505400,-0.959,0.409,0.285,2.922,-9.31,-0.21,
54505410,-0.985,0.381,0.307,-3.307,-10.937,-0.455,
54505420,-0.921,0.366,0.311,-5.04,-12.897,-0.192,
54505430,-0.865,0.372,0.314,-5.057,-12.197,-1.767,
54505440,-0.834,0.355,0.298,-4.987,-11.48,-1.627,
54505450,-0.828,0.364,0.288,-2.905,-10.342,-0.49,
54505460,-0.857,0.37,0.305,-2.03,-9.625,-0.735,
54505470,-0.896,0.345,0.337,-2.712,-10.885,-0.367,
54505480,-0.883,0.331,0.349,-0.682,-12.967,1.225,
54505490,-0.832,0.327,0.345,2.502,-14.455,2.502,
54505500,-0.814,0.325,0.332,4.2,-11.637,3.867,
54505510,-0.846,0.332,0.256,5.775,-7.35,4.76,
54505520,-0.781,0.403,0.25,5.775,-1.925,4.2,
54505530,-0.917,0.354,0.264,-2.73,2.642,3.815,
54505540,-0.96,0.369,0.272,-4.847,5.74,5.845,
54505550,-0.954,0.421,0.314,-5.53,5.827,5.267,
54505560,-0.944,0.394,0.302,-10.342,5.267,3.185,
54505570,-0.914,0.4,0.288,-13.842,3.955,3.29,
54505580,-0.899,0.392,0.298,-16.1,0.857,3.377,
54505590,-0.898,0.354,0.338,-15.19,-3.657,4.077,
54505600,-0.862,0.363,0.342,-8.155,-6.265,4.305,
54505610,-0.841,0.377,0.34,-0.717,-6.79,1.942,
54505620,-0.855,0.384,0.314,3.412,-4.55,-0.77,
54505630,-0.882,0.396,0.297,4.865,-3.43,-2.345,
54505640,-0.88,0.397,0.287,5.267,-3.482,-3.185,
54505650,-0.874,0.398,0.276,4.847,-3.832,-3.22,
54505660,-0.865,0.371,0.259,5.197,-4.112,-3.202,
54505670,-0.859,0.36,0.282,8.19,-4.917,-2.677,
54505670,-0.867,0.309,0.294,14.332,-7.892,-1.365,
54505690,-0.82,0.335,0.287,24.64,-8.785,-0.56,
54505690,-0.878,0.4,0.32,27.352,-4.112,-1.47,
54505710,-0.983,0.402,0.351,19.337,-2.222,-2.1,
54505710,-0.93,0.383,0.344,11.357,-3.237,-1.207,
54505730,-0.918,0.373,0.355,6.475,-2.747,-0.472,
54505730,-0.876,0.361,0.345,0.91,-2.292,0.28,
54505750,-0.837,0.348,0.348,-0.28,-1.05,0.857,
54505750,-0.843,0.348,0.346,1.715,0.892,0.385,
54505760,-0.854,0.36,0.334,2.87,2.817,0.857,
54505770,-0.877,0.39,0.304,2.485,3.64,1.102,
54505780,-0.906,0.401,0.296,-0.035,3.325,1.102,
54505790,-0.939,0.397,0.281,-2.8,0.63,1.382,
54505800,-0.924,0.395,0.291,-3.832,-3.447,1.172,
54505810,-0.915,0.382,0.303,-3.955,-6.86,0.455,
54505820,-0.861,0.356,0.294,-2.59,-8.487,-0.507,
54505830,-0.833,0.35,0.296,0.595,-8.05,-0.98,
54505840,-0.859,0.354,0.309,1.995,-5.372,-0.35,
54505850,-0.893,0.355,0.312,1.33,-3.43,0.682,
54505860,-0.894,0.363,0.303,0.577,-2.187,1.19,
54505870,-0.858,0.407,0.214,-0.332,-0.297,1.312,
54505880,-0.883,0.402,0.257,-7.805,5.075,0.21,
54505890,-1.001,0.346,0.25,-11.672,3.71,1.015,
54505900,-0.886,0.408,0.258,-6.387,0.035,3.307,
54505910,-0.938,0.39,0.298,-8.855,-1.89,0.315,
54505920,-0.928,0.347,0.308,-11.112,-4.672,1.54,
54505930,-0.87,0.364,0.328,-6.212,-7.63,2.345,
54505940,-0.839,0.358,0.354,-1.907,-6.72,0.122,
54505950,-0.834,0.364,0.354,-0.367,-3.535,-0.7,
54505960,-0.854,0.371,0.356,1.505,-0.542,-2.047,
54505970,-0.865,0.383,0.352,3.657,1.872,-3.167,
54505980,-0.877,0.398,0.319,2.992,3.57,-3.5,
54505990,-0.893,0.405,0.287,1.347,3.972,-4.025,
54506000,-0.908,0.397,0.27,-0.752,3.43,-3.85,
54506010,-0.905,0.395,0.269,-2.905,1.942,-3.132,
54506020,-0.908,0.392,0.265,-4.935,0.437,-2.957,
54506030,-0.879,0.37,0.308,-6.982,-1.225,-1.802,
54506030,-0.879,0.324,0.333,-7.122,-1.68,-0.14,
54506050,-0.831,0.319,0.33,-2.012,-0.385,0.385,
54506050,-0.833,0.352,0.335,2.187,2.59,0.472,
54506070,-0.907,0.327,0.296,1.592,4.567,0.665,
54506070,-0.933,0.364,0.28,3.255,4.077,2.17,
54506080,-0.919,0.38,0.249,4.147,0.7,1.452,
54506090,-0.9,0.383,0.244,1.242,0.84,1.33,
54506100,-0.96,0.383,0.245,-2.957,0.21,1.645,
54506110,-0.925,0.372,0.275,-4.76,-2.765,2.065,
54506120,-0.901,0.364,0.294,-5.67,-5.267,1.627,
54506130,-0.891,0.36,0.303,-7.262,-7.192,1.54,
54506140,-0.859,0.347,0.309,-7.7,-9.765,2.1,
54506150,-0.862,0.341,0.324,-7.315,-10.657,3.132,
54506160,-0.883,0.361,0.335,-8.312,-11.357,4.812,
54506170,-0.893,0.364,0.331,-11.76,-12.6,6.965,
54506180,-0.907,0.379,0.325,-16.415,-13.527,9.38,
54506190,-0.877,0.381,0.3,-19.46,-10.99,9.257,
54506200,-0.824,0.416,0.22,-19.985,-6.352,7.21,
54506210,-0.855,0.418,0.255,-25.322,0.052,5.477,
54506220,-0.928,0.358,0.282,-29.242,2.695,6.125,
54506230,-0.915,0.361,0.355,-24.132,1.907,7.577,
54506240,-0.851,0.342,0.369,-17.027,-0.157,5.827,
54506250,-0.828,0.351,0.383,-12.425,0.892,4.27,
54506260,-0.83,0.321,0.372,-8.575,1.19,3.535,
54506270,-0.808,0.347,0.36,0.577,1.75,3.885,
54506280,-0.829,0.382,0.319,8.435,6.09,2.38,
54506290,-0.905,0.386,0.267,11.69,8.032,-0.63,
54506300,-0.941,0.391,0.227,15.802,5.39,-2.117,
54506310,-0.966,0.408,0.231,19.022,0.945,-3.377,
54506320,-0.979,0.414,0.263,16.31,-2.975,-3.972,
54506330,-0.962,0.379,0.278,11.375,-6.58,-3.342,
54506340,-0.919,0.344,0.339,9.1,-9.345,-3.272,
54506350,-0.917,0.29,0.372,11.305,-14.35,-2.747,
54506360,-0.786,0.328,0.382,19.495,-16.205,-1.295,
54506370,-0.78,0.364,0.339,21.21,-10.902,-2.292,
54506380,-0.869,0.419,0.311,15.785,-0.525,-2.117,
54506390,-0.957,0.401,0.278,6.912,1.75,-0.717,
54506400,-0.969,0.397,0.306,4.725,-3.29,0.297,
54506410,-0.904,0.363,0.302,6.772,-9.502,-0.035,
54506420,-0.88,0.386,0.283,9.432,-11.042,-0.787,
54506420,-0.84,0.38,0.274,9.73,-10.377,-1.4,
54506440,-0.866,0.363,0.281,8.102,-6.912,-2.275,
54506440,-0.895,0.355,0.282,7.805,-6.457,-2.152,
54506460,-0.874,0.351,0.297,9.642,-8.12,-1.155,
54506460,-0.862,0.358,0.312,11.497,-8.592,-1.19,
54506480,-0.863,0.365,0.313,10.465,-6.317,-0.735,
54506480,-0.892,0.371,0.318,7.927,-3.832,-0.262,
54506500,-0.903,0.364,0.307,5.775,-4.042,0.402,
54506500,-0.889,0.383,0.3,4.515,-4.392,1.505,
54506510,-0.905,0.391,0.3,1.715,-5.565,2.205,
54506520,-0.909,0.384,0.312,-1.61,-8.207,3.29,
54506530,-0.904,0.383,0.327,-3.255,-11.06,4.55,
54506540,-0.889,0.387,0.344,-4.165,-12.985,5.722,
54506550,-0.876,0.395,0.349,-6.335,-12.88,6.23,
54506560,-0.863,0.389,0.341,-8.47,-11.095,5.547,
54506570,-0.85,0.383,0.315,-8.277,-9.065,4.952,
54506580,-0.744,0.43,0.204,-9.887,-2.222,5.512,
54506590,-0.856,0.409,0.254,-20.457,10.185,1.242,
54506600,-0.983,0.336,0.27,-23.345,10.22,0.927,
54506610,-0.868,0.409,0.301,-17.622,8.592,6.352,
54506620,-0.966,0.382,0.339,-20.79,8.68,3.78,
54506630,-0.934,0.333,0.336,-19.425,2.1,4.48,
54506640,-0.863,0.362,0.347,-12.46,-2.275,6.3,
54506650,-0.867,0.339,0.356,-7.192,-4.655,4.602,
54506660,-0.815,0.343,0.356,-1.207,-5.53,4.69,
54506670,-0.76,0.353,0.323,6.142,-0.98,3.36,
54506680,-0.846,0.382,0.328,10.727,7.962,0.77,
54506690,-0.905,0.41,0.305,8.645,11.76,-0.385,
54506700,-0.919,0.401,0.28,8.662,12.022,-1.837,
54506710,-0.923,0.4,0.265,8.365,10.395,-3.01,
54506720,-1.024,0.367,0.322,7.787,1.75,-2.677,
54506730,-0.858,0.33,0.315,16.537,-16.467,-0.087,
54506740,-0.733,0.388,0.287,25.34,-19.25,1.715,
54506750,-0.843,0.411,0.276,23.782,-8.89,0.402,
54506760,-0.97,0.403,0.285,16.275,-6.58,0.192,
54506760,-0.932,0.386,0.29,13.79,-11.567,2.835,
54506780,-0.898,0.392,0.309,13.125,-11.882,3.745,
54506780,-0.89,0.373,0.311,10.727,-11.76,4.217,
54506800,-0.841,0.372,0.302,9.292,-10.552,4.725,
54506800,-0.839,0.377,0.313,6.615,-6.352,4.235,
54506820,-0.866,0.375,0.327,3.535,-4.112,2.677,
54506820,-0.885,0.389,0.338,1.295,-4.357,3.57,
54506830,-0.902,0.4,0.33,-2.205,-5.915,8.172,
54506840,-0.89,0.396,0.315,-6.44,-8.995,11.217,
54506850,-0.877,0.4,0.313,-9.065,-9.66,10.57,
54506860,-0.839,0.409,0.266,-10.92,-7.297,9.327,
54506870,-0.826,0.424,0.238,-15.505,3.657,6.965,
54506880,-0.937,0.411,0.255,-23.922,8.47,0.542,
54506890,-0.886,0.391,0.261,-25.672,6.807,-3.272,
54506900,-0.918,0.353,0.311,-23.152,5.74,1.54,
54506910,-0.889,0.348,0.341,-17.745,2.502,5.95,
54506920,-0.849,0.384,0.377,-11.252,-0.332,5.127,
54506930,-0.89,0.353,0.427,-8.015,-2.747,2.082,
54506940,-0.794,0.363,0.392,0.647,-5.285,1.172,
54506950,-0.764,0.414,0.344,8.172,0.14,-0.455,
54506960,-0.851,0.43,0.298,7.84,6.72,-4.97,
54506970,-0.9,0.393,0.272,9.45,7.455,-7.07,
54506980,-0.89,0.437,0.278,12.547,6.93,-6.23,
54506990,-0.929,0.414,0.316,9.485,4.48,-7.105,
54507000,-0.923,0.338,0.361,10.395,-4.707,-6.667,
54507010,-0.769,0.361,0.369,19.005,-13.195,-4.83,
54507020,-0.719,0.387,0.353,22.452,-8.662,-5.582,
54507030,-0.804,0.364,0.311,22.417,2.817,-6.422,
54507040,-0.879,0.402,0.286,22.295,7.84,-4.357,
54507050,-0.909,0.413,0.251,17.132,10.727,-1.75,
54507060,-0.914,0.396,0.24,13.58,13.492,-2.397,
54507070,-1.11,0.341,0.314,9.905,7.017,-4.322,
54507080,-0.906,0.344,0.311,11.532,-10.22,-1.435,
54507090,-0.816,0.346,0.259,19.372,-10.482,1.715,
54507100,-0.881,0.392,0.231,23.117,-5.11,-1.452,
54507110,-0.874,0.43,0.184,18.007,-0.84,-0.682,
54507120,-0.982,0.433,0.218,7.262,4.935,-0.052,
54507130,-1.111,0.421,0.263,-5.757,-5.722,3.605,
54507140,-0.93,0.397,0.272,-15.75,-19.46,12.092,
54507150,-0.864,0.395,0.291,-18.462,-22.837,11.865,
54507160,-0.843,0.376,0.31,-18.69,-19.372,9.607,
54507170,-0.738,0.393,0.256,-18.217,-12.495,10.255,
54507170,-0.779,0.403,0.271,-23.327,7,8.855,
54507190,-0.918,0.399,0.282,-25.585,15.155,2.625,
54507190,-0.876,0.396,0.316,-20.58,16.922,4.55,
54507210,-0.843,0.428,0.318,-20.807,18.322,3.885,
54507210,-0.93,0.377,0.358,-22.977,17.097,1.89,
54507230,-0.865,0.333,0.38,-14.717,7.98,2.975,
54507230,-0.775,0.382,0.374,-2.677,6.282,3.202,
54507250,-0.813,0.376,0.34,4.9,10.255,-2.327,
54507250,-0.841,0.375,0.285,10.85,13.387,-4.777,
54507260,-0.9,0.412,0.252,15.487,13.667,-5.617,
54507270,-0.961,0.419,0.228,16.222,10.57,-6.142,
54507280,-0.967,0.416,0.21,14.157,4.585,-5.652,
54507290,-0.985,0.403,0.242,12.477,-2.45,-4.935,
54507300,-0.944,0.367,0.277,14.245,-15.067,-3.535,
54507310,-0.836,0.386,0.29,19.46,-21.752,-1.05,
54507320,-0.842,0.406,0.286,21.542,-20.65,-2.31,
54507330,-0.894,0.409,0.292,19.022,-14.647,-3.01,
54507340,-0.936,0.419,0.281,15.522,-15.067,-2.922,
54507350,-0.897,0.412,0.276,11.287,-14.822,-1.522,
54507360,-0.922,0.388,0.273,7.927,-14.017,-0.962,
54507370,-0.913,0.389,0.264,4.532,-14.665,-0.175,
54507380,-0.905,0.387,0.253,2.957,-15.645,0.595,
54507390,-0.903,0.391,0.249,1.697,-15.33,1.4,
54507400,-0.898,0.392,0.258,-2.012,-14.49,1.995,
54507410,-0.91,0.38,0.271,-5.197,-15.12,2.712,
54507420,-0.887,0.369,0.298,-6.16,-17.237,5.04,
54507430,-0.844,0.405,0.341,-8.155,-19.215,7.525,
54507440,-0.851,0.406,0.364,-14.262,-18.83,13.3,
54507450,-0.818,0.397,0.364,-20.09,-16.957,18.427,
54507460,-0.726,0.394,0.356,-20.842,-8.82,16.117,
54507470,-0.747,0.404,0.328,-21.07,9.292,10.097,
54507480,-0.82,0.397,0.314,-22.96,22.242,2.397,
54507490,-0.887,0.378,0.319,-22.242,25.48,0.07,
54507500,-0.894,0.387,0.32,-14.56,20.79,7.35,
54507510,-0.899,0.394,0.316,-9.45,12.39,5.25,
54507510,-0.905,0.377,0.293,-3.202,5.547,2.555,
54507530,-0.886,0.394,0.258,7.437,-0.525,0.367,
54507530,-0.903,0.412,0.23,14.822,-2.59,-2.292,
54507550,-0.921,0.395,0.215,17.045,-5.792,-4.777,
54507550,-0.914,0.374,0.22,20.317,-7.927,-5.022,
54507570,-1.024,0.396,0.252,22.102,-15.645,-4.952,
54507570,-0.938,0.377,0.264,24.745,-34.79,-3.412,
54507580,-0.826,0.377,0.256,28.472,-43.697,-0.14,
54507590,-0.886,0.407,0.25,29.102,-40.985,-0.035,
54507600,-0.88,0.434,0.286,27.055,-36.54,0.087,
54507610,-0.915,0.47,0.354,17.185,-27.002,0.822,
54507620,-0.895,0.432,0.371,3.937,-20.807,0.945,
54507630,-0.796,0.364,0.36,-3.097,-16.362,2.205,
54507640,-0.739,0.344,0.358,-1.942,-10.272,3.902,
54507650,-0.761,0.386,0.365,1.155,-3.64,2.537,
54507660,-0.802,0.421,0.347,2.152,1.505,-0.857,
54507670,-0.858,0.439,0.338,2.222,5.425,-2.782,
54507680,-0.895,0.454,0.324,0.7,5.775,-3.465,
54507690,-0.9,0.454,0.307,-2.94,4.025,-3.535,
54507700,-0.886,0.439,0.299,-6.247,2.205,-3.36,
54507710,-0.912,0.407,0.303,-7.052,0.98,-0.63,
54507720,-0.877,0.425,0.311,-6.492,-0.787,0.105,
54507730,-0.866,0.41,0.33,-10.885,-1.4,0.945,
54507740,-0.884,0.354,0.34,-13.23,-0.857,2.327,
54507750,-0.843,0.365,0.325,-10.727,0.805,3.937,
54507760,-0.825,0.398,0.33,-10.815,1.75,3.832,
54507770,-0.868,0.377,0.316,-13.72,3.78,4.637,
54507780,-0.875,0.378,0.299,-12.652,5.74,4.602,
54507790,-0.858,0.391,0.304,-8.802,5.932,2.975,
54507800,-0.894,0.388,0.298,-6.65,5.775,2.415,
54507810,-0.892,0.381,0.296,-4.515,1.942,2.502,
54507820,-0.891,0.369,0.306,0.297,-2.695,2.922,
54507830,-0.887,0.36,0.307,7.245,-4.9,1.067,
54507840,-0.925,0.376,0.295,13.615,-6.912,-0.98,
54507850,-0.923,0.379,0.268,17.85,-13.317,-1.802,
54507860,-0.904,0.396,0.228,20.282,-18.392,-0.367,
54507870,-0.913,0.435,0.226,21,-27.072,1.242,
54507880,-0.832,0.429,0.293,20.79,-33.127,5.057,
54507890,-0.905,0.466,0.347,17.202,-27.142,2.677,
54507900,-0.912,0.452,0.352,10.972,-22.382,-1.47,
54507910,-0.827,0.419,0.362,5.022,-22.505,-1.102,
54507920,-0.775,0.393,0.368,0.805,-18.007,2.45,
54507920,-0.777,0.399,0.373,-0.56,-9.94,2.975,
54507940,-0.764,0.422,0.378,-1.452,-1.837,0.472,
54507940,-0.801,0.427,0.356,-3.255,4.9,-1.592,
54507960,-0.812,0.435,0.341,-4.672,9.555,-3.22,
54507960,-0.846,0.442,0.336,-6.177,11.847,-4.287,
54507980,-0.87,0.441,0.321,-7.542,12.005,-5.232,
54507980,-0.883,0.442,0.309,-8.172,10.657,-5.267,
54508000,-0.867,0.427,0.302,-8.26,8.89,-4.34,
54508000,-0.854,0.366,0.327,-7.28,8.68,-0.77,
54508010,-0.859,0.37,0.325,-5.722,12.407,-0.035,
54508020,-0.866,0.362,0.324,-5.477,13.16,-0.385,
54508030,-0.871,0.36,0.315,-5.687,11.375,1.102,
54508040,-0.875,0.365,0.305,-5.425,10.5,3.115,
54508050,-0.888,0.378,0.289,-3.937,10.587,2.922,
54508060,-0.916,0.392,0.275,-2.415,10.01,2.187,
54508070,-0.923,0.4,0.267,-1.662,6.772,1.75,
54508080,-0.924,0.413,0.277,-1.89,2.502,1.837,
54508090,-0.909,0.406,0.285,-2.397,-1.382,2.03,
54508100,-0.881,0.399,0.297,-2.24,-3.972,1.89,
54508110,-0.865,0.395,0.313,-1.68,-4.795,1.802,
54508120,-0.868,0.389,0.322,-0.525,-4.532,1.47,
54508130,-0.862,0.395,0.325,1.295,-4.147,0.805,
54508140,-0.863,0.397,0.324,2.31,-3.062,0.262,
54508150,-0.867,0.393,0.318,2.817,-3.5,0.21,
54508160,-0.859,0.404,0.255,4.322,-4.042,0.717,
54508170,-0.824,0.436,0.257,5.32,-5.232,0.192,
54508180,-0.909,0.415,0.284,3.902,-5.862,0.385,
54508190,-0.935,0.44,0.318,3.622,-4.742,0.77,
54508200,-0.885,0.441,0.335,1.102,-6.58,-0.192,
54508210,-0.864,0.4,0.335,-4.287,-5.6,-0.42,
54508220,-0.851,0.387,0.319,-5.547,-3.902,0.402,
54508230,-0.833,0.404,0.32,-3.832,-2.292,0.84,
54508240,-0.845,0.409,0.308,-5.04,0.42,0.752,
54508250,-0.854,0.409,0.294,-6.387,2.012,0.77,
54508260,-0.883,0.42,0.287,-6.37,2.642,1.12,
54508260,-0.894,0.427,0.276,-7.385,0.717,1.592,
54508280,-0.887,0.431,0.277,-8.225,-0.542,1.715,
54508280,-0.884,0.453,0.291,-8.697,-1.242,1.207,
54508300,-0.859,0.395,0.336,-11.795,-0.682,2.52,
54508300,-0.86,0.358,0.324,-13.755,2.765,2.73,
54508320,-0.802,0.358,0.324,-10.692,4.497,3.272,
54508320,-0.801,0.363,0.352,-8.417,7,3.762,
54508330,-0.869,0.363,0.347,-7.805,11.585,5.022,
54508340,-0.877,0.373,0.339,-5.985,11.97,3.867,
54508350,-0.886,0.371,0.326,-1.435,9.152,3.027,
54508360,-0.894,0.38,0.289,3.482,5.267,2.362,
54508370,-0.898,0.386,0.249,8.907,3.377,0.647,
54508380,-0.973,0.389,0.233,13.947,-1.452,-1.68,
54508390,-0.981,0.415,0.206,17.92,-10.412,-1.225,
54508400,-0.951,0.446,0.209,19.775,-24.657,-1.102,
54508410,-0.809,0.421,0.237,19.862,-33.372,-0.42,
54508420,-0.872,0.432,0.289,18.427,-24.692,-0.91,
54508430,-0.932,0.458,0.344,15.575,-18.672,-3.99,
54508440,-0.878,0.434,0.36,7.7,-16.677,-3.85,
54508450,-0.827,0.402,0.361,1.12,-12.617,-2.87,
54508460,-0.796,0.382,0.355,-1.925,-6.527,-0.665,
54508470,-0.787,0.409,0.352,-3.325,-0.28,-0.962,
54508480,-0.784,0.417,0.33,-6.107,5.705,-3.902,
54508490,-0.848,0.387,0.302,-6.737,11.007,-4.655,
54508500,-0.868,0.427,0.304,-3.43,11.2,-2.695,
54508510,-0.886,0.449,0.292,-5.495,9.642,-1.837,
54508520,-0.885,0.44,0.292,-8.435,8.872,-3.167,
54508530,-0.859,0.429,0.364,-9.817,10.482,-3.85,
54508540,-0.871,0.39,0.342,-14.857,17.395,-3.797,
54508550,-0.796,0.376,0.334,-18.97,23.135,-5.11,
54508560,-0.8,0.349,0.3,-21.385,26.53,-6.195,
54508570,-0.835,0.32,0.275,-18.865,28.997,-3.937,
54508580,-0.891,0.362,0.261,-13.387,30.852,-2.87,
54508590,-0.96,0.372,0.246,-9.765,27.755,-5.197,
54508600,-1.003,0.366,0.22,-5.827,19.39,-5.46,
54508610,-0.988,0.367,0.213,0.28,7.945,-3.815,
54508620,-0.95,0.378,0.232,5.372,-0.332,-3.5,
54508630,-0.912,0.353,0.255,7.35,-5.075,-3.167,
54508640,-0.891,0.341,0.273,9.1,-8.137,-2.047,
54508650,-0.857,0.357,0.235,12.74,-10.167,-0.49,
54508660,-0.833,0.403,0.244,15.942,-12.215,-0.56,
54508670,-0.933,0.424,0.257,16.59,-13.842,1.89,
54508670,-0.941,0.416,0.274,16.782,-14.682,1.277,
54508690,-1.014,0.447,0.288,14.997,-13.562,-0.892,
54508690,-0.984,0.444,0.286,9.292,-16.152,-5.005,
54508710,-0.893,0.433,0.277,3.29,-19.057,-4.777,
54508710,-0.856,0.418,0.262,-1.435,-17.132,-5.355,
54508730,-0.831,0.392,0.262,-3.657,-14.402,-3.885,
54508730,-0.826,0.39,0.259,-4.06,-10.517,-3.412,
54508740,-0.847,0.409,0.268,-3.202,-7.157,-2.992,
54508750,-0.864,0.411,0.282,-3.465,-5.757,-2.205,
54508760,-0.885,0.382,0.343,-5.057,-6.422,-0.787,
54508770,-0.907,0.371,0.325,-5.057,-7.262,1.837,
54508780,-0.903,0.426,0.338,-10.867,-8.557,4.567,
54508790,-0.892,0.404,0.323,-26.67,-10.395,11.007,
54508800,-0.853,0.367,0.309,-40.827,-9.1,19.302,
54508810,-0.788,0.362,0.285,-46.9,0.682,21.35,
54508820,-0.765,0.348,0.314,-46.602,12.932,15.61,
54508830,-0.757,0.308,0.326,-40.267,23.047,10.605,
54508840,-0.843,0.314,0.329,-29.872,30.362,7.56,
54508850,-0.923,0.342,0.329,-15.802,24.43,4.987,
54508860,-0.933,0.365,0.3,-4.077,12.512,6.772,
54508870,-0.897,0.394,0.263,5.985,1.085,6.09,
54508880,-0.933,0.413,0.214,12.355,-3.325,4.62,
54508890,-0.959,0.396,0.18,18.41,-9.905,2.94,
54508900,-0.936,0.439,0.214,23.52,-14.367,3.202,
54508910,-1.04,0.451,0.275,21.752,-22.032,0.735,
54508920,-0.904,0.4,0.3,20.247,-32.83,1.522,
54508930,-0.837,0.389,0.298,21.192,-34.23,1.365,
54508940,-0.8,0.396,0.306,22.347,-28.017,-0.052,
54508950,-0.869,0.415,0.323,17.675,-18.69,-0.682,
54508960,-0.899,0.425,0.329,10.29,-12.827,-0.875,
54508970,-0.898,0.424,0.322,2.52,-9.695,-1.102,
54508980,-0.876,0.411,0.317,-4.602,-5.827,-1.26,
54508990,-0.848,0.386,0.316,-8.977,-4.042,-0.42,
54509000,-0.838,0.394,0.341,-10.01,-2.52,1.435,
54509010,-0.849,0.404,0.387,-13.352,-1.05,3.465,
54509010,-0.841,0.392,0.364,-20.632,3.955,6.982,
54509030,-0.796,0.38,0.308,-26.617,14.035,7.665,
54509030,-0.812,0.364,0.308,-28.157,23.065,2.73,
54509050,-0.824,0.354,0.285,-26.985,29.347,1.75,
54509050,-0.887,0.367,0.297,-24.692,30.642,1.33,
54509070,-0.891,0.328,0.282,-19.197,24.167,0.122,
54509070,-0.918,0.364,0.284,-9.31,17.517,2.835,
54509080,-0.937,0.375,0.278,-0.595,8.522,2.905,
54509090,-0.933,0.391,0.257,5.652,0.822,2.52,
54509100,-0.893,0.403,0.232,11.305,-5.39,1.54,
54509110,-0.904,0.419,0.229,14.875,-8.4,0,
54509120,-0.872,0.439,0.254,14.367,-9.502,-0.227,
54509130,-0.892,0.436,0.288,9.362,-7.507,-0.682,
54509140,-0.955,0.401,0.337,6.895,-12.512,-1.732,
54509150,-0.792,0.383,0.327,14.122,-21.472,-0.84,
54509160,-0.793,0.407,0.298,21.682,-16.975,-1.645,
54509170,-0.897,0.407,0.286,25.41,-12.215,-4.427,
54509180,-0.905,0.438,0.262,23.327,-10.185,-2.38,
54509190,-0.953,0.447,0.26,13.562,-6.107,-1.295,
54509200,-0.939,0.389,0.245,0.77,-4.952,-1.732,
54509210,-0.932,0.363,0.288,-7.472,-5.6,0.49,
54509220,-0.887,0.351,0.327,-11.252,-9.747,3.867,
54509230,-0.86,0.379,0.348,-18.06,-10.64,10.202,
54509240,-0.849,0.393,0.314,-26.337,-5.547,13.947,
54509250,-0.763,0.426,0.262,-31.22,9.747,10.377,
54509260,-0.863,0.407,0.242,-37.642,25.847,2.677,
54509270,-0.883,0.369,0.274,-39.515,30.607,1.505,
54509280,-0.894,0.368,0.316,-35,29.172,2.135,
54509290,-0.957,0.349,0.314,-26.285,19.6,1.26,
54509300,-0.86,0.364,0.325,-13.51,6.842,2.187,
54509310,-0.83,0.394,0.321,-3.465,0.77,1.33,
54509320,-0.835,0.392,0.335,3.185,-0.122,0.07,
54509330,-0.817,0.371,0.308,11.34,-2.03,-1.977,
54509340,-0.8,0.399,0.289,22.155,-1.33,-4.34,
54509350,-0.891,0.419,0.263,26.81,-0.07,-5.705,
54509360,-1.002,0.43,0.245,26.74,-9.8,-4.97,
54509370,-0.89,0.343,0.265,35.91,-27.212,-3.115,
54509380,-0.85,0.409,0.262,50.592,-31.535,0.052,
54509390,-0.904,0.442,0.287,55.107,-27.142,-0.945,
54509400,-0.994,0.447,0.265,47.46,-27.352,-3.045,
54509410,-0.938,0.431,0.258,37.8,-27.79,0.402,
54509410,-0.989,0.438,0.285,26.582,-24.71,0.682,
54509420,-0.889,0.403,0.286,15.767,-27.44,1.085,
54509430,-0.771,0.398,0.285,11.62,-21.472,1.785,
54509440,-0.812,0.387,0.263,6.632,-9.432,-1.19,
54509450,-0.871,0.38,0.288,0,-0.367,-2.905,
54509460,-0.903,0.345,0.303,-4.62,-2.012,-1.435,
54509470,-0.861,0.389,0.318,-3.43,-4.007,4.602,
54509480,-0.899,0.425,0.338,-8.907,-4.532,6.562,
54509490,-0.831,0.399,0.285,-19.705,-1.662,10.132,
54509500,-0.807,0.421,0.232,-29.067,11.795,11.935,
54509510,-0.861,0.427,0.229,-39.445,21.682,8.067,
54509520,-0.849,0.357,0.233,-40.057,26.512,5.897,
54509530,-0.897,0.414,0.305,-35.63,27.632,7.35,
54509540,-0.906,0.396,0.335,-34.212,23.625,8.312,
54509550,-0.919,0.371,0.341,-29.592,17.832,8.592,
54509560,-0.883,0.376,0.345,-17.762,11.112,7,
54509570,-0.855,0.413,0.32,-6.912,6.265,5.355,
54509580,-0.885,0.416,0.311,-0.42,1.942,2.117,
54509590,-0.844,0.402,0.265,7.945,-0.332,-0.892,
54509600,-0.877,0.449,0.253,15.47,-0.997,-4.62,
54509610,-0.906,0.431,0.249,15.067,-2.87,-5.897,
54509620,-0.951,0.416,0.277,12.582,-7.035,-4.725,
54509630,-0.842,0.376,0.295,16.38,-14.017,-3.692,
54509640,-0.834,0.402,0.296,21.49,-12.442,-3.5,
54509650,-0.892,0.392,0.314,22.837,-13.475,-4.655,
54509660,-0.827,0.408,0.308,22.837,-13.055,-2.397,
54509670,-0.915,0.43,0.292,18.987,-8.767,-2.59,
54509680,-0.91,0.389,0.279,14.735,-8.33,-2.73,
54509690,-0.885,0.4,0.256,11.725,-8.015,-2.205,
54509700,-0.893,0.401,0.244,8.19,-5.32,-1.82,
54509710,-0.906,0.408,0.233,3.587,-2.905,-0.892,
54509720,-0.934,0.401,0.25,-2.66,-3.43,0.84,
54509730,-0.903,0.374,0.265,-5.547,-8.225,3.447,
54509740,-0.898,0.404,0.295,-6.002,-12.705,6.37,
54509750,-0.923,0.404,0.313,-10.57,-17.815,11.357,
54509760,-0.913,0.408,0.318,-16.572,-20.51,17.412,
54509760,-0.833,0.432,0.262,-18.427,-17.955,16.87,
54509780,-0.864,0.434,0.231,-21.122,-5.477,14.035,
54509780,-0.974,0.466,0.225,-31.972,-2.1,8.68,
54509800,-0.932,0.418,0.24,-37.537,-5.705,2.345,
54509800,-0.898,0.383,0.273,-29.155,-7.805,8.785,
54509820,-0.868,0.431,0.327,-22.137,-10.29,10.132,
54509820,-0.862,0.347,0.387,-21.052,-14.49,12.617,
54509830,-0.778,0.331,0.401,-3.937,-17.727,13.195,
54509840,-0.774,0.375,0.393,13.09,-15.907,11.567,
54509850,-0.731,0.423,0.332,22.89,-9.415,5.95,
54509860,-0.77,0.464,0.301,24.64,1.505,-3.447,
54509870,-0.945,0.42,0.341,20.352,7.805,-9.957,
54509880,-0.874,0.388,0.326,24.692,-0.98,-11.27,
54509890,-0.823,0.443,0.316,30.905,-5.092,-5.477,
54509900,-0.88,0.446,0.326,27.3,-8.015,-1.575,
54509910,-0.855,0.434,0.294,21.787,-13.072,-1.855,
54509920,-0.866,0.428,0.274,18.602,-10.815,1.312,
54509930,-0.877,0.436,0.263,15.645,-9.117,3.045,
54509940,-0.866,0.42,0.262,10.15,-9.765,1.365,
54509950,-0.842,0.411,0.269,6.265,-8.365,-0.612,
54509960,-0.875,0.419,0.288,2.642,-6.055,-0.035,
54509970,-0.901,0.422,0.309,-2.38,-5.232,0.297,
54509980,-0.889,0.41,0.315,-5.022,-6.51,-0.962,
54509990,-0.86,0.404,0.313,-5.32,-7.262,-0.367,
54510000,-0.862,0.418,0.312,-5.67,-7.367,1.102,
54510010,-0.846,0.425,0.304,-7.77,-8.067,1.487,
54510020,-0.869,0.416,0.291,-10.097,-8.89,2.397,
54510030,-0.848,0.425,0.298,-10.972,-9.38,3.325,
54510040,-0.836,0.442,0.284,-13.807,-4.515,3.237,
54510050,-0.88,0.453,0.289,-22.977,0.017,1.312,
54510060,-0.816,0.424,0.277,-32.795,3.57,-0.105,
54510070,-0.822,0.411,0.284,-35.367,13.475,-0.7,
54510080,-0.885,0.405,0.331,-35.122,19.005,-3.465,
54510090,-0.89,0.363,0.366,-32.112,15.242,-5.127,
54510100,-0.893,0.352,0.394,-22.785,8.977,-0.42,
54510100,-0.834,0.346,0.398,-8.592,1.732,4.812,
54510120,-0.796,0.426,0.359,3.412,1.82,1.487,
54510120,-0.825,0.421,0.296,4.987,4.55,-3.115,
54510140,-0.858,0.428,0.267,8.12,7.245,-9.677,
54510140,-0.909,0.409,0.26,12.25,7.175,-7.542,
54510160,-0.979,0.424,0.324,14.63,1.487,-7.472,
54510160,-0.901,0.371,0.337,19.565,-12.215,-6.195,
54510170,-0.763,0.418,0.332,26.32,-16.677,-5.215,
54510180,-0.873,0.442,0.31,23.24,-13.37,-6.842,
54510190,-0.891,0.421,0.293,17.447,-12.162,-5.757,
54510200,-0.908,0.415,0.277,13.352,-10.71,-1.277,
54510210,-0.946,0.415,0.271,9.17,-11.462,2.747,
54510220,-0.946,0.376,0.297,5.32,-19.04,4.707,
54510230,-0.775,0.385,0.289,4.9,-22.05,9.467,
54510240,-0.787,0.422,0.244,6.3,-12.792,14.385,
54510250,-0.857,0.456,0.273,-3.587,-4.795,13.772,
54510260,-0.913,0.419,0.306,-20.93,-4.287,10.972,
54510270,-0.927,0.371,0.314,-25.06,-4.847,11.55,
54510280,-0.924,0.397,0.315,-21.227,-6.65,16.152,
54510290,-0.814,0.423,0.253,-21.262,-6.982,18.952,
54510300,-0.784,0.441,0.223,-25.34,7.052,17.272,
54510310,-0.851,0.42,0.264,-32.077,17.885,11.2,
54510320,-0.811,0.404,0.308,-35.14,23.31,7.735,
54510330,-0.81,0.378,0.358,-32.882,27.58,8.33,
54510340,-0.863,0.39,0.416,-27.387,26.792,7.28,
54510350,-0.899,0.407,0.483,-20.562,18.952,2.03,
54510360,-0.923,0.388,0.453,-9.59,5.337,-2.17,
54510370,-0.726,0.453,0.366,11.83,1.032,-3.605,
54510380,-0.855,0.496,0.281,15.225,4.392,-9.45,
54510390,-0.824,0.439,0.194,10.657,3.08,-14.227,
54510400,-1.004,0.386,0.231,16.467,2.94,-11.672,
54510410,-1.08,0.422,0.31,20.597,-15.82,-7.122,
54510420,-0.816,0.413,0.314,25.322,-34.317,-3.395,
54510430,-0.791,0.414,0.298,25.585,-31.675,-4.707,
54510440,-0.828,0.389,0.278,22.645,-23.625,-2.555,
54510450,-0.871,0.41,0.302,18.287,-17.5,-0.42,
54510460,-0.862,0.41,0.296,12.6,-11.515,1.05,
54510470,-0.891,0.415,0.3,7.14,-6.037,1.365,
54510480,-0.884,0.4,0.294,1.785,-6.02,1.015,
54510490,-0.858,0.389,0.277,0.192,-5.32,1.837,
54510500,-0.916,0.407,0.297,0.49,-5.232,3.57,
54510510,-0.905,0.429,0.314,-2.292,-8.68,4.532,
54510510,-0.904,0.416,0.31,-5.792,-12.267,6.72,
54510530,-0.907,0.424,0.322,-9.38,-15.68,10.64,
54510530,-0.872,0.423,0.338,-11.812,-17.255,11.672,
54510550,-0.766,0.426,0.3,-12.687,-12.81,9.572,
54510550,-0.789,0.438,0.277,-18.007,2.1,6.702,
54510570,-0.819,0.404,0.279,-23.695,11.235,1.015,
54510570,-0.791,0.393,0.314,-23.975,16.345,-1.82,
54510580,-0.843,0.387,0.351,-20.72,18.427,0.857,
54510590,-0.87,0.389,0.384,-14.822,13.44,1.732,
54510600,-0.863,0.394,0.386,-6.615,6.02,0.892,
54510610,-0.852,0.41,0.368,2.467,1.645,0.525,
54510620,-0.892,0.41,0.329,9.992,-1.54,-0.665,
54510630,-0.869,0.426,0.271,16.52,-4.55,-4.217,
54510640,-0.865,0.442,0.226,20.247,-6.72,-6.615,
54510650,-0.917,0.464,0.25,18.69,-7.752,-7.525,
54510660,-0.909,0.463,0.303,14.875,-13.3,-7.945,
54510670,-0.859,0.436,0.34,10.902,-12.792,-4.637,
54510680,-0.884,0.416,0.358,7.315,-9.52,-1.032,
54510690,-0.857,0.414,0.341,4.48,-8.907,-0.98,
54510700,-0.825,0.406,0.335,1.837,-6.79,-0.525,
54510710,-0.853,0.399,0.327,-1.05,-2.257,2.135,
54510720,-0.806,0.385,0.318,-2.432,1.487,3.937,
54510730,-0.785,0.352,0.322,-1.592,6.457,4.48,
54510740,-0.791,0.362,0.333,1.067,10.64,3.64,
54510750,-0.782,0.393,0.321,4.042,13.475,1.837,
54510760,-0.801,0.427,0.335,4.777,15.312,0.455,
54510770,-0.856,0.429,0.323,4.147,16.345,-1.872,
54510780,-0.869,0.444,0.32,6.352,18.077,-4.41,
54510790,-0.883,0.462,0.306,6.492,18.042,-3.937,
54510800,-0.89,0.458,0.284,3.185,16.712,-2.45,
54510810,-0.877,0.449,0.247,0.42,14.175,-2.87,
54510820,-0.805,0.458,0.207,-2.765,15.785,-2.992,
54510830,-0.956,0.474,0.232,-8.015,18.27,-5.215,
54510830,-0.933,0.381,0.264,-7.525,12.425,-0.612,
54510850,-0.906,0.452,0.303,-2.992,8.295,-0.297,
54510850,-0.905,0.425,0.315,-4.62,5.775,-2.607,
54510870,-0.913,0.383,0.331,-4.725,1.767,-4.025,
54510870,-0.867,0.371,0.325,-0.437,-0.857,-4.147,
54510890,-0.843,0.389,0.309,3.692,1.767,-4.042,
54510890,-0.877,0.413,0.288,2.625,3.955,-4.287,
54510910,-0.887,0.391,0.27,-0.77,3.325,-2.327,
54510910,-0.894,0.403,0.27,-0.857,2.852,-1.277,
54510920,-0.912,0.416,0.263,0.332,1.662,-1.925,
54510930,-0.897,0.418,0.266,0.63,-0.017,-2.835,
54510940,-0.887,0.411,0.265,0.21,-2.152,-2.66,
54510950,-0.856,0.405,0.277,0.35,-3.78,-2.415,
54510960,-0.852,0.398,0.288,0.245,-4.882,-2.152,
54510970,-0.839,0.393,0.289,0.7,-4.62,-2.345,
54510980,-0.813,0.401,0.294,1.802,-2.45,-3.237,
54510990,-0.839,0.417,0.298,1.907,1.925,-3.972,
54511000,-0.856,0.428,0.294,0.787,5.057,-4.182,
54511010,-0.864,0.432,0.302,-0.56,8.347,-4.445,
54511020,-0.88,0.416,0.285,-0.997,10.325,-5.285,
54511030,-0.889,0.413,0.264,-0.577,10.762,-5.967,
54511040,-0.915,0.408,0.25,-0.77,10.22,-6.107,
54511050,-0.941,0.411,0.234,-1.207,8.452,-5.775,
54511060,-0.94,0.406,0.224,-2.17,4.777,-5.127,
54511070,-0.942,0.386,0.227,-2.712,0.927,-4.427,
54511080,-0.937,0.39,0.224,-2.135,-2.572,-3.64,
54511090,-0.927,0.389,0.236,-2.887,-5.845,-2.905,
54511100,-0.927,0.387,0.24,-4.462,-7.822,-1.417,
54511110,-0.907,0.395,0.255,-5.827,-9.38,-0.332,
54511120,-0.888,0.39,0.267,-7.367,-9.187,-0.157,
54511130,-0.89,0.394,0.263,-8.505,-8.085,-0.192,
54511140,-0.895,0.381,0.263,-10.027,-7.385,-0.402,
54511150,-0.921,0.417,0.271,-11.182,-5.95,-0.315,
54511160,-0.897,0.368,0.274,-12.53,-7.35,-0.63,
54511170,-0.866,0.365,0.264,-8.47,-5.792,-1.575,
54511180,-0.868,0.396,0.279,-4.427,-3.517,-2.135,
54511190,-0.863,0.388,0.28,-4.357,-2.59,-2.012,
54511200,-0.869,0.393,0.29,-4.935,-1.435,-0.84,
54511210,-0.847,0.408,0.297,-5.127,-0.682,0.525,
54511220,-0.816,0.403,0.297,-6.51,2.012,1.837,
54511230,-0.801,0.385,0.292,-6.737,6.405,2.607,
54511240,-0.804,0.377,0.291,-4.375,11.865,3.272,
54511250,-0.82,0.379,0.287,-0.49,17.622,3.955,
54511260,-0.864,0.391,0.284,2.275,21.77,4.847,
54511260,-0.903,0.388,0.276,2.94,23.222,4.357,
54511280,-0.904,0.402,0.248,3.185,25.34,2.975,
54511280,-1.011,0.397,0.265,1.225,24.237,0.28,
54511300,-0.912,0.341,0.24,1.732,18.077,-1.19,
54511300,-0.793,0.36,0.247,6.982,24.377,-1.592,
54511320,-0.936,0.401,0.251,11.83,38.01,-2.502,
54511320,-0.969,0.41,0.229,10.937,41.142,-2.152,
54511330,-0.968,0.42,0.194,8.995,36.26,-1.067,
54511340,-0.955,0.427,0.169,7.595,28.122,-0.472,
54511350,-0.985,0.446,0.159,5.355,18.515,-0.542,
54511360,-0.997,0.453,0.15,0.577,5.722,-0.28,
54511370,-1.003,0.454,0.16,-5.162,-8.925,-0.28,
54511380,-0.946,0.446,0.125,-11.13,-23.922,-0.595,
54511390,-0.92,0.454,0.207,-18.27,-30.59,0,
54511400,-1,0.432,0.211,-22.645,-40.81,-1.977,
54511410,-0.934,0.416,0.24,-24.622,-51.432,-1.522,
54511420,-0.825,0.398,0.266,-26.687,-54.652,-0.612,
54511430,-0.741,0.321,0.263,-25.287,-45.552,0.962,
54511440,-0.736,0.338,0.282,-18.795,-25.27,1.82,
54511450,-0.813,0.381,0.293,-11.725,-8.557,1.242,
54511460,-0.886,0.354,0.315,-9.922,-1.557,4.62,
54511470,-0.935,0.38,0.328,-11.515,-6.405,5.022,
54511480,-0.839,0.359,0.382,-13.125,-13.3,5.897,
54511490,-0.793,0.282,0.237,-8.89,-7.752,6.107,
54511500,-0.856,0.365,0.311,1.785,-6.055,0.297,
54511510,-0.896,0.372,0.272,4.742,-3.727,2.73,
54511520,-0.908,0.39,0.266,4.06,-5.39,0.787,
54511530,-0.922,0.398,0.24,5.302,-7.455,0.122,
