#Format version: 1.0
time[ms],accX[g],accY[g],accZ[g],Value 1,Value 2,Value 3,
40004930,-0.688,0.176,0.194,105.56,-110.127,-67.97,
40004940,-0.706,0.087,0.178,101.99,-102.865,-47.547,
40004950,-0.677,0.046,0.149,105.98,-93.047,-30.17,
40004960,-0.586,0.04,0.12,117.32,-75.652,-7.332,
40004970,-0.452,0.024,0.138,123.9,-52.955,10.062,
40004980,-0.486,0.021,0.172,126.07,-34.195,18.445,
40004990,-0.523,-0.106,0.123,130.392,-25.585,23.397,
40005000,-0.35,-0.19,0.062,135.782,-18.392,33.897,
40005010,-0.187,-0.183,0.114,131.127,-6.492,42.805,
40005020,-0.299,-0.281,0.231,117.95,5.74,38.745,
40005030,-0.312,-0.445,0.296,99.837,21.787,36.977,
40005040,-0.138,-0.632,0.43,87.745,46.025,56.402,
40005050,0.208,-0.932,0.515,80.535,78.645,69.877,
40005060,0.472,-1.141,0.674,74.987,118.387,58.502,
40005070,0.485,-1.33,0.778,65.555,149.222,38.71,
40005080,0.46,-1.379,1.047,54.162,166.582,6.702,
40005090,0.315,-1.452,1.318,28.07,171.237,-32.375,
40005100,0.219,-1.711,1.483,3.482,168.052,-47.687,
40005110,0.246,-1.878,1.628,11.567,155.697,-35.647,
40005120,0.324,-1.785,1.75,3.552,140.945,-24.64,
40005130,0.153,-1.916,1.893,9.59,118.807,9.555,
40005140,0.012,-1.789,1.985,20.58,77.7,18.112,
40005150,0.032,-1.724,1.972,7.752,33.127,18.935,
40005160,0.162,-1.861,1.854,12.39,2.1,24.71,
40005170,0.231,-1.871,1.711,30.817,-3.885,25.637,
40005170,0.098,-1.887,1.55,37.677,4.497,17.132,
40005190,-0.001,-1.968,1.369,34.107,12.057,11.462,
40005190,0.211,-1.998,1.253,25.707,21.35,9.905,
40005210,0.392,-1.998,1.18,18.147,39.532,9.782,
40005210,0.406,-1.998,1.111,7.332,56.315,6.492,
40005220,0.435,-1.998,1.097,-4.865,63.77,5.267,
40005230,0.528,-1.998,1.075,-21.77,58.695,5.302,
40005240,0.649,-1.998,1.04,-42.14,45.71,2.782,
40005250,0.717,-1.998,1.018,-57.942,27.282,-6.16,
40005260,0.67,-1.998,0.966,-71.54,4.69,-22.907,
40005270,0.561,-1.963,0.859,-83.947,-22.225,-38.622,
40005280,0.516,-1.76,0.72,-94.36,-48.58,-49.927,
40005290,0.422,-1.413,0.572,-102.042,-74.97,-64.19,
40005300,0.326,-1.132,0.487,-117.372,-97.737,-69.44,
40005310,0.247,-0.862,0.438,-132.685,-122.867,-78.33,
40005320,0.107,-0.613,0.382,-140.7,-149.467,-81.27,
40005330,-0.007,-0.381,0.293,-142.835,-175.997,-81.865,
40005340,-0.127,-0.181,0.185,-139.702,-194.932,-79.065,
40005350,-0.307,0.009,0.056,-134.715,-206.64,-70.84,
40005360,-0.495,0.189,-0.084,-133.105,-213.377,-57.54,
40005370,-0.603,0.34,-0.222,-135.922,-217.262,-39.165,
40005380,-0.602,0.462,-0.337,-142.257,-215.442,-16.782,
40005390,-0.54,0.586,-0.357,-150.167,-205.642,6.195,
40005400,-0.441,0.678,-0.295,-155.802,-185.85,26.32,
40005410,-0.359,0.717,-0.151,-156.625,-160.492,40.215,
40005420,-0.282,0.717,-0.038,-151.112,-135.065,47.67,
40005430,-0.211,0.715,0.054,-137.497,-116.34,52.237,
40005440,-0.22,0.693,0.103,-120.557,-113.61,51.1,
40005450,-0.252,0.646,0.069,-104.265,-132.702,41.37,
40005460,-0.177,0.636,-0.011,-89.407,-164.622,28.297,
40005470,-0.034,0.596,-0.035,-80.71,-180.477,19.39,
40005480,-0.034,0.506,0.009,-76.895,-173.46,16.642,
40005490,-0.085,0.405,0.049,-71.26,-148.732,19.617,
40005500,-0.079,0.296,0.145,-59.605,-111.142,35.787,
40005510,-0.097,0.117,0.277,-45.955,-74.27,53.287,
40005510,-0.094,-0.084,0.396,-28.997,-44.8,63.612,
40005530,-0.052,-0.2,0.363,-5.845,-21.21,70.997,
40005530,0.038,-0.26,0.246,15.942,-2.467,76.93,
40005550,0.185,-0.363,0.146,28.017,15.68,77.927,
40005550,0.304,-0.505,0.087,33.46,29.032,68.302,
40005570,0.362,-0.613,0.12,34.965,38.99,50.75,
40005570,0.303,-0.699,0.23,26.897,45.22,31.185,
40005580,0.087,-0.829,0.336,13.177,44.73,10.377,
40005590,-0.007,-1.005,0.444,2.905,42.297,-6.107,
40005600,0.254,-0.784,0.755,-5.915,54.652,-16.887,
40005610,-0.206,-0.735,0.739,-83.51,67.06,11.935,
40005620,0.006,-1.685,0.903,-22.837,53.847,20.405,
40005630,0.465,-1.435,1.03,-1.015,45.762,-39.41,
40005640,0.135,-1.675,1.263,-8.662,56.857,-27.912,
40005650,-0.084,-1.984,1.473,37.94,58.257,-31.745,
40005660,-0.111,-1.99,1.597,78.435,67.042,-46.865,
40005670,-0.17,-1.998,1.536,89.18,95.9,-49.28,
40005680,-0.091,-1.998,1.337,97.65,137.585,-53.235,
40005690,0.08,-1.998,1.301,107.117,181.895,-53.865,
40005700,0.157,-1.998,1.305,98.315,221.865,-55.895,
40005710,0.251,-1.998,1.241,92.12,245.28,-46.06,
40005720,0.554,-1.998,1.153,96.845,248.517,-24.92,
40005730,0.867,-1.998,1.113,101.465,242.97,-6.457,
40005740,1.067,-1.998,1.098,102.935,233.397,5.635,
40005750,1.223,-1.995,1.097,101.535,214.655,12.442,
40005760,1.294,-1.969,1.019,98.525,185.867,8.225,
40005770,1.373,-1.905,0.843,98.07,152.197,5.232,
40005780,1.531,-1.787,0.697,101.08,120.085,3.675,
40005790,1.505,-1.684,0.551,96.407,89.845,-8.382,
40005800,1.473,-1.516,0.341,84.175,58.835,-26.32,
40005810,1.303,-1.261,0.071,80.08,23.642,-34.685,
40005820,1.481,-0.81,-0.128,78.592,-8.12,-36.592,
40005830,1.461,-0.765,-0.041,52.167,-20.107,-7.647,
40005840,1.117,-0.874,0.005,17.167,-46.357,42.997,
40005850,1.151,-1.063,-0.152,16.782,-104.002,51.817,
40005860,1.067,-1.019,-0.323,31.657,-155.732,7.717,
40005870,0.491,-0.742,-0.488,28.122,-182.612,-48.177,
40005880,-0.07,-0.565,-0.586,13.667,-195.23,-85.697,
40005890,-0.368,-0.522,-0.559,-3.657,-200.2,-102.357,
40005890,-0.466,-0.492,-0.478,-20.632,-193.97,-96.285,
40005910,-0.6,-0.389,-0.32,-41.527,-178.22,-79.52,
40005910,-0.758,-0.404,-0.261,-66.885,-161.542,-68.372,
40005920,-0.563,-0.447,-0.172,-84.122,-123.69,-58.52,
40005930,-0.439,-0.472,-0.019,-83.895,-60.725,-49.087,
40005940,-0.634,-0.397,-0.003,-70.227,-12.81,-53.165,
40005950,-0.699,-0.276,-0.009,-58.905,5.04,-63.472,
40005960,-0.581,-0.293,0.049,-54.74,14.962,-68.687,
40005970,-0.662,-0.327,0.138,-53.847,24.412,-71.487,
40005980,-0.78,-0.338,0.21,-53.287,34.965,-71.33,
40005990,-0.822,-0.374,0.268,-52.5,46.812,-57.487,
40006000,-0.823,-0.476,0.352,-53.55,57.137,-34.055,
40006010,-0.749,-0.721,0.476,-60.34,70.21,-6.702,
40006020,-0.656,-1.001,0.515,-65.712,86.905,26.827,
40006030,-0.532,-1.268,0.495,-67.847,99.137,62.982,
40006040,-0.369,-1.6,0.429,-77.35,106.942,95.882,
40006050,-0.182,-1.769,0.408,-90.58,104.86,115.692,
40006060,-0.101,-1.804,0.537,-109.427,93.765,115.762,
40006070,-0.133,-1.901,0.66,-139.527,81.392,100.94,
40006080,-0.178,-1.827,0.694,-162.242,69.107,79.257,
40006090,-0.183,-1.674,0.817,-174.142,70.77,62.09,
40006100,-0.258,-1.509,0.958,-181.142,88.567,56.28,
40006110,-0.3,-1.345,0.856,-172.847,107.905,63.052,
40006120,0.155,-1.091,0.722,-157.797,136.027,81.935,
40006130,0.807,-0.863,1.226,-156.642,191.31,98.752,
40006140,0.464,-1.111,1.829,-178.937,237.755,90.912,
40006150,0.164,-1.204,1.665,-167.055,215.827,63.822,
40006160,0.956,-0.946,1.235,-110.46,186.76,62.37,
40006170,1.293,-0.813,0.995,-74.9,194.372,68.215,
40006180,0.996,-0.96,1.106,-75.897,196.472,53.427,
40006190,0.853,-0.835,1.075,-75.635,168.927,41.615,
40006200,1.067,-1.308,0.979,-12.582,130.462,35.77,
40006210,1.102,-1.039,0.64,-23.625,117.11,41.475,
40006220,0.818,-1.236,0.474,-50.715,113.015,43.61,
40006230,0.729,-1.462,0.474,-16.292,101.062,39.935,
40006240,0.854,-1.474,0.423,13.37,91.262,37.922,
40006250,0.909,-1.345,0.327,37.03,87.955,40.005,
40006260,1.134,-1.295,0.244,44.24,91.507,31.447,
40006260,1.478,-1.357,0.175,49.91,100.082,29.89,
40006280,1.926,-1.377,0.286,48.79,108.972,31.622,
40006280,1.884,-1.416,0.602,33.46,95.2,15.435,
40006300,1.582,-1.424,0.613,25.252,40.442,-26.582,
40006300,1.568,-1.191,0.421,43.4,-5.862,-62.16,
40006320,1.278,-0.798,0.205,57.925,-33.372,-87.552,
40006320,0.901,-0.579,0.107,54.127,-53.235,-105.227,
40006330,0.75,-0.602,0.121,44.292,-71.295,-109.375,
40006340,0.587,-0.624,0.142,42.192,-83.247,-106.855,
40006350,0.399,-0.49,0.107,46.672,-94.43,-99.05,
40006360,0.366,-0.395,0.159,49.63,-102.935,-85.592,
40006370,0.363,-0.419,0.199,51.502,-106.715,-72.38,
40006380,0.24,-0.378,0.154,66.097,-113.102,-64.925,
40006390,0.109,-0.222,0.125,82.075,-124.04,-63.595,
40006400,-0.026,-0.097,0.089,74.182,-130.952,-58.957,
40006410,-0.114,-0.158,0.046,67.34,-134.19,-51.292,
40006420,-0.154,-0.151,0.002,57.995,-134.47,-41.58,
40006430,-0.123,-0.124,0.003,38.815,-132.947,-40.88,
40006440,-0.105,-0.261,0.076,34.282,-130.34,-48.44,
40006450,-0.171,-0.331,0.142,46.742,-129.342,-58.747,
40006460,-0.342,-0.283,0.151,67.672,-133.577,-63.98,
40006470,-0.406,-0.249,0.152,80.71,-139.142,-61.6,
40006480,-0.457,-0.264,0.213,80.57,-140.07,-53.427,
40006490,-0.652,-0.292,0.279,78.312,-137.882,-38.885,
40006500,-0.738,-0.299,0.324,74.655,-130.83,-16.38,
40006510,-0.701,-0.356,0.424,62.125,-117.88,12.827,
40006520,-0.633,-0.496,0.541,43.855,-98.7,36.382,
40006530,-0.569,-0.602,0.698,27.37,-73.57,50.085,
40006540,-0.507,-0.706,0.876,11.025,-45.5,52.447,
40006550,-0.457,-0.883,1.017,-1.312,-19.145,43.592,
40006560,-0.445,-1.057,1.083,-5.547,3.465,25.9,
40006570,-0.463,-1.155,1.045,-3.885,21.49,5.39,
40006580,-0.433,-1.144,1.049,4.357,37.362,-6.93,
40006580,-0.497,-1.069,1.212,14.14,51.73,-4.952,
40006600,-0.718,-1.112,1.406,22.26,58.957,12.705,
40006600,-0.732,-1.384,1.527,31.867,62.247,45.15,
40006620,-0.427,-1.645,1.484,48.09,68.775,78.645,
40006620,-0.138,-1.679,1.411,64.435,83.3,90.055,
40006640,-0.003,-1.702,1.242,75.092,96.897,74.182,
40006640,0.145,-1.708,1.008,89.722,108.237,52.185,
40006660,0.273,-1.627,0.822,105.175,116.06,34.142,
40006660,0.311,-1.651,0.645,111.422,122.955,23.397,
40006670,0.331,-1.728,0.467,116.427,127.05,28.77,
40006680,0.402,-1.624,0.402,129.78,126.385,43.382,
40006690,0.419,-1.632,0.066,96.372,133.175,82.162,
40006700,0.711,-1.998,0.149,100.922,127.715,121.012,
40006710,1.183,-1.884,0,44.117,113.295,84.962,
40006720,0.995,-1.998,0.095,15.855,109.375,91.997,
40006730,0.949,-1.998,0.111,46.69,81.445,64.067,
40006740,0.752,-1.849,-0.032,64.662,51.817,53.217,
40006750,0.59,-1.72,-0.1,60.357,29.96,50.382,
40006760,0.464,-1.418,-0.115,34.02,12.337,53.252,
40006770,0.307,-1.166,-0.12,9.625,-0.49,66.692,
40006780,0.229,-0.965,-0.151,3.517,-8.487,89.267,
40006790,0.196,-0.724,-0.206,3.535,-16.082,112.087,
40006800,0.199,-0.531,-0.244,-0.455,-23.432,127.925,
40006810,0.256,-0.422,-0.196,-9.117,-29.417,136.955,
40006820,0.313,-0.338,-0.095,-9.73,-33.442,136.657,
40006830,0.364,-0.215,0.019,-1.907,-38.85,126.227,
40006840,0.45,-0.139,0.2,3.167,-40.81,109.165,
40006850,0.514,-0.122,0.396,6.457,-38.972,86.17,
40006860,0.482,-0.086,0.528,16.38,-35.507,58.625,
40006870,0.339,-0.062,0.537,30.94,-31.972,32.182,
40006880,0.139,-0.043,0.441,47.967,-34.51,13.002,
40006890,0.049,0.02,0.387,59.64,-43.05,1.47,
40006900,-0.007,0.03,0.364,61.705,-49.997,-5.285,
40006910,-0.124,0.061,0.393,62.632,-52.587,-7.997,
40006920,-0.296,0.088,0.473,66.08,-55.562,-3.867,
40006930,-0.454,0.136,0.509,62.545,-59.762,13.055,
40006940,-0.56,0.029,0.539,63.56,-61.792,47.792,
40006950,-0.512,0.015,0.493,69.982,-64.172,75.827,
40006960,-0.474,-0.062,0.42,68.967,-62.737,108.22,
40006970,-0.341,-0.208,0.382,71.452,-60.655,136.412,
40006980,-0.185,-0.294,0.353,73.552,-60.462,148.067,
40006990,-0.064,-0.324,0.356,68.652,-57.522,138.897,
40007000,-0.142,-0.388,0.397,62.772,-55.545,118.212,
40007010,-0.209,-0.487,0.444,59.57,-51.887,106.277,
40007010,-0.346,-0.529,0.439,56.945,-48.422,93.537,
40007030,-0.593,-0.695,0.427,45.85,-40.495,87.71,
40007030,-0.614,-1.014,0.312,29.855,-22.995,95.06,
40007050,-0.411,-1.279,0.322,16.012,0.805,101.92,
40007050,-0.184,-1.599,0.337,-2.327,24.815,93.922,
40007070,-0.089,-1.772,0.437,-16.625,43.837,59.465,
40007070,-0.102,-1.804,0.671,-38.745,63.385,5.81,
40007080,-0.373,-1.983,0.729,-61.88,80.325,-50.522,
40007090,-0.714,-1.998,0.9,-74.882,79.257,-96.967,
40007100,-0.695,-1.998,1.184,-87.412,72.887,-119.192,
40007110,-0.597,-1.998,1.348,-88.095,74.812,-115.342,
40007120,-0.552,-1.977,1.518,-89.652,86.555,-95.025,
40007130,-0.414,-1.847,1.75,-104.107,96.32,-68.617,
40007140,0.24,-1.395,1.989,-121.94,104.912,-64.085,
40007150,1.899,-1.512,1.998,-126.927,128.187,-116.567,
40007160,1.155,-1.998,1.728,-81.182,60.077,-201.862,
40007170,-1.381,-1.539,1.354,-45.832,-59.605,-230.352,
40007180,-1.117,-0.613,1.423,-92.505,1.907,-140.472,
40007190,-0.324,-1.601,1.461,-121.24,59.797,-46.847,
40007200,0.157,-1.998,1.551,-104.352,55.072,-30.572,
40007210,0.467,-1.743,1.329,-87.972,48.387,-30.642,
40007220,0.462,-1.734,1.173,-82.355,41.387,-38.71,
40007230,0.209,-1.839,0.981,-85.12,15.365,-67.357,
40007240,0.072,-1.599,0.766,-71.207,-6.51,-88.077,
40007250,-0.185,-1.451,0.495,-57.277,-16.257,-90.702,
40007260,-0.343,-1.331,0.232,-53.865,-22.592,-79.8,
40007270,-0.292,-1.208,0.011,-45.955,-27.37,-57.312,
40007280,-0.221,-1.036,-0.211,-40.04,-28.175,-36.435,
40007290,-0.266,-0.844,-0.38,-43.89,-26.145,-23.467,
40007300,-0.322,-0.645,-0.484,-54.355,-23.17,-12.81,
40007310,-0.335,-0.51,-0.477,-69.912,-20.842,1.925,
40007320,-0.297,-0.467,-0.467,-82.775,-21.595,15.75,
40007330,-0.23,-0.397,-0.477,-86.87,-21.875,25.952,
40007330,-0.134,-0.274,-0.518,-85.61,-18.445,33.32,
40007350,-0.026,-0.164,-0.51,-85.47,-11.83,37.415,
40007350,0.084,-0.083,-0.433,-90.125,-5.95,35.017,
40007370,0.145,-0.034,-0.325,-97.195,-1.732,27.877,
40007370,0.163,-0.027,-0.209,-102.655,1.995,22.417,
40007390,0.17,-0.027,-0.1,-105.822,5.285,24.605,
40007390,0.211,0.023,-0.022,-105.42,3.167,32.042,
40007410,0.276,0.09,0.02,-101.342,-2.572,38.482,
40007410,0.336,0.125,0.06,-92.907,-8.82,38.552,
40007420,0.358,0.131,0.113,-80.605,-12.11,30.87,
40007430,0.343,0.15,0.208,-66.867,-14.91,15.89,
40007440,0.262,0.125,0.305,-53.76,-18.795,-3.097,
40007450,0.16,0.085,0.376,-37.012,-26.197,-22.505,
40007460,0.076,0.057,0.416,-17.325,-33.617,-37.52,
40007470,-0.039,0.008,0.423,0.892,-40.337,-47.512,
40007480,-0.188,-0.106,0.416,16.047,-47.11,-53.672,
40007490,-0.312,0.098,0.45,30.257,-54.25,-52.255,
40007500,-0.429,-0.1,0.451,31.482,-53.97,-32.112,
40007510,-0.225,-0.25,0.489,24.622,-50.505,-22.172,
40007520,-0.089,-0.331,0.538,5.582,-37.135,-13.457,
40007530,-0.068,-0.477,0.735,11.06,-20.405,-16.047,
40007540,-0.3,-0.64,0.917,12.565,-10.395,-33.267,
40007550,-0.455,-0.743,0.889,8.312,-7.35,-46.042,
40007560,-0.37,-0.772,0.737,15.33,0.21,-47.32,
40007570,-0.354,-0.752,0.548,23.712,13.422,-46.637,
40007580,-0.207,-0.648,0.4,24.22,31.902,-38.027,
40007590,-0.024,-0.595,0.396,17.167,48.002,-22.925,
40007600,0.028,-0.655,0.517,2.87,62.737,-23.642,
40007610,-0.038,-0.705,0.661,-10.045,71.487,-21.525,
40007620,0.051,-0.742,0.845,-11.83,75.215,-15.785,
40007630,0.211,-0.864,1.094,-2.222,81.655,-9.415,
40007640,0.317,-1.139,1.441,9.17,97.037,4.13,
40007650,0.254,-1.365,1.859,25.865,100.047,14.245,
40007660,0.024,-1.512,1.998,38.71,79.992,13.685,
40007670,-0.044,-1.628,1.998,58.047,50.312,16.957,
40007680,0.133,-1.7,1.913,86.8,33.127,30.747,
40007690,0.308,-1.689,1.608,110.687,35.017,44.257,
40007700,0.412,-1.788,1.41,123.672,44.24,43.417,
40007710,0.307,-1.637,1.248,121.94,47.565,38.027,
40007720,0.27,-1.842,1.141,114.292,45.64,12.775,
40007730,0.274,-1.969,0.978,139.142,44.03,-7.612,
40007740,0.257,-1.995,0.716,147.367,53.025,-17.71,
40007750,0.236,-1.998,0.548,153.72,64.837,-25.655,
40007760,0.23,-1.998,0.541,158.917,68.337,-17.535,
40007760,0.117,-1.996,0.544,144.287,63,3.675,
40007780,0.064,-1.969,0.479,119.402,52.885,27.23,
40007780,0.205,-1.998,0.428,110.547,46.217,54.495,
40007800,0.342,-1.998,0.329,101.727,41.597,75.425,
40007800,0.31,-1.97,0.049,105.07,28.017,75.88,
40007820,0.15,-1.692,-0.322,110.267,-0.402,64.89,
40007820,-0.148,-1.335,-0.686,100.45,-32.532,61.775,
40007830,-0.116,-1.036,-0.931,81.62,-51.73,67.41,
40007840,0.158,-0.814,-0.923,57.487,-39.077,85.452,
40007850,0.539,-0.743,-0.729,32.095,-7.455,94.517,
40007860,0.759,-0.675,-0.366,14.682,19.792,81.252,
40007870,0.806,-0.603,-0.134,9.782,16.502,37.87,
40007880,0.879,-0.465,-0.036,15.575,6.527,-16.87,
40007890,0.736,-0.283,-0.076,29.417,-3.885,-73.377,
40007900,0.389,-0.06,-0.143,43.89,-17.167,-125.02,
40007910,-0.025,0.093,-0.14,45.902,-33.057,-146.335,
40007920,-0.255,0.259,-0.052,40.582,-44.782,-146.65,
40007930,-0.453,0.373,0.025,37.555,-45.605,-122.465,
40007940,-0.566,0.401,0.076,38.395,-36.382,-80.29,
40007950,-0.667,0.346,0.097,50.032,-30.747,-32.97,
40007960,-0.618,0.277,0.031,61.985,-24.832,20.055,
40007970,-0.422,0.173,0.052,64.26,-15.54,72.712,
40007980,-0.175,-0.065,0.255,56,-7.105,103.862,
40007990,0.037,-0.409,0.606,45.587,2.397,108.202,
40008000,0.021,-0.696,0.824,46.48,2.012,91.787,
40008010,-0.032,-0.758,0.822,55.737,-7.455,66.937,
40008020,-0.125,-0.8,0.804,54.495,-12.862,48.737,
40008030,-0.292,-0.913,0.818,39.357,-13.667,34.877,
40008040,-0.376,-1.012,0.768,26.81,-11.847,33.11,
40008050,-0.266,-0.975,0.687,20.177,-7.665,39.462,
40008060,-0.104,-0.923,0.626,8.54,2.835,41.895,
40008070,-0.059,-0.915,0.598,-6.475,16.065,37.222,
40008080,-0.099,-0.851,0.569,-13.895,21.857,24.657,
40008080,-0.087,-0.74,0.586,-18.567,26.267,8.89,
40008100,-0.154,-0.639,0.672,-24.465,32.497,-3.605,
40008100,-0.244,-0.446,0.624,-53.48,44.887,-2.065,
40008120,-0.006,-0.644,0.755,-38.167,48.825,5.372,
40008120,-0.074,-0.467,0.812,-100.66,54.25,-13.877,
40008140,-0.253,-0.705,1.019,-81.585,54.617,5.18,
40008140,0.001,-0.642,1.088,-46.672,50.837,18.917,
40008160,0.083,-0.629,1.036,-31.22,49.77,36.312,
40008160,0.047,-0.876,1.154,-16.03,44.905,36.592,
40008170,0.029,-0.434,1.197,-19.617,28.525,22.12,
40008180,-0.235,-0.865,1.272,-38.447,15.382,40.197,
40008190,-0.033,-0.902,1.355,13.895,-2.677,33.565,
40008200,0.064,-0.753,1.364,49.805,-0.805,34.842,
40008210,0.18,-0.898,1.323,69.772,18.882,32.27,
40008220,0.19,-0.879,1.223,85.82,43.295,16.205,
40008230,0.03,-0.681,1.044,88.427,75.337,1.435,
40008240,-0.115,-0.584,0.898,77.91,118.685,2.66,
40008250,-0.306,-0.491,0.761,69.3,154.455,11.165,
40008260,-0.447,-0.334,0.764,54.145,166.127,13.23,
40008270,-0.379,-0.393,0.805,23.852,160.597,4.462,
40008280,-0.383,-0.417,0.964,2.905,144.69,-11.322,
40008290,-0.691,-0.454,1.156,-15.505,120.89,-35.385,
40008300,-1.062,-0.748,1.469,-27.912,99.715,-46.2,
40008310,-1.013,-0.896,1.428,-4.532,64.207,-42.07,
40008320,-0.839,-0.746,1.392,53.812,31.15,-16.8,
40008330,-0.404,-0.736,0.829,109.095,-2.957,17.675,
40008340,0.376,-0.458,0.375,142.275,-19.932,30.012,
40008350,0.943,-0.563,0.27,133.245,6.912,13.107,
40008360,0.57,-0.715,0.184,116.445,39.655,-20.597,
40008370,0.036,-0.453,0.17,117.162,43.032,-55.072,
40008380,-0.072,-0.284,-0.023,84.42,39.952,-75.985,
40008390,-0.184,-0.353,0.047,25.287,59.552,-67.55,
40008400,-0.435,-0.846,0.162,-36.995,105.507,-45.255,
40008410,-0.936,-1.3,-0.136,-55.37,131.267,-8.732,
40008420,-0.94,-1.032,-0.51,-19.705,117.232,22.19,
40008430,-0.513,-0.906,-0.667,26.547,97.107,67.917,
40008440,-0.661,-1.812,0.01,58.047,92.295,119.682,
40008450,-0.24,-1.998,1.206,99.295,-24.517,101.92,
40008460,-0.118,-1.71,1.584,289.642,-240.59,13.93,
40008470,-1.272,-1.103,0.125,212.24,-60.935,4.602,
40008480,-1.144,1.159,1.092,231.665,-86.45,95.165,
40008490,-0.031,0.163,0.864,277.795,-105.892,81.217,
40008500,-1.261,-1.295,0.911,311.535,-124.775,49.192,
40008510,-0.333,0.183,1.003,319.987,-140.875,18.637,
40008510,-0.592,-0.138,1.186,283.937,-159.39,-3.36,
40008530,-0.496,-0.193,1.392,259.892,-181.457,-6.195,
40008530,-0.076,0.117,1.372,229.967,-180.775,-8.19,
40008550,0.739,0.787,1.121,133.577,-136.482,-4.83,
40008550,0.827,0.606,1.04,40.547,-65.485,-14.21,
40008560,0.528,0.31,1.037,-7.997,2.45,-22.522,
40008570,-0.044,-0.129,1.015,-37.835,43.347,-23.87,
40008580,-0.264,-0.419,0.988,-53.655,53.637,-23.222,
40008590,-0.281,-0.378,0.946,-48.475,47.565,-17.815,
40008600,-0.405,-0.414,0.896,-39.882,38.85,-9.467,
40008610,-0.443,-0.513,0.884,-24.43,21.717,-4.882,
40008620,-0.268,-0.269,0.941,-13.492,4.637,0.875,
40008630,-0.223,-0.167,0.993,-15.452,-2.275,5.25,
40008640,-0.187,-0.088,1.059,-27.685,-1.015,5.53,
40008650,-0.133,-0.015,1.132,-51.362,3.465,1.067,
40008660,-0.075,-0.029,1.189,-83.877,12.355,-3.08,
40008670,-0.043,-0.028,1.224,-129.342,24.902,-3.675,
40008680,-0.139,-0.087,1.233,-172.322,35.612,-5.827,
40008690,-0.196,-0.124,1.115,-202.562,36.557,-5.967,
40008700,-0.268,-0.132,1.036,-230.37,39.217,-8.732,
40008710,-0.267,-0.2,0.983,-254.73,42.892,-18.9,
40008720,-0.193,-0.53,1.076,-270.882,49.997,-32.812,
40008730,-0.176,-0.437,1.635,-248.902,65.817,-41.37,
40008740,-0.071,-0.798,1.79,-259.525,125.055,-34.352,
40008750,-0.156,-0.953,1.355,-249.76,162.557,-39.795,
40008760,-0.31,-1.305,0.737,-203.052,165.777,-34.177,
40008770,-0.471,-1.695,1.201,-157.377,112.227,-67.48,
40008780,-0.028,-0.3,1.231,-73.902,41.107,-108.657,
40008790,-0.025,-0.161,1.007,-28.21,52.99,-97.335,
40008800,1.274,-0.446,1.845,10.167,68.565,-87.57,
40008810,-0.501,-0.191,0.899,67.007,10.57,-138.687,
40008820,-0.398,0.498,-0.029,168.612,0.332,-169.102,
40008830,-0.175,1.276,-0.528,175.175,-15.015,-136.167,
40008830,-0.079,1.676,-0.662,120.067,-20.912,-108.412,
40008850,-0.049,1.702,-0.743,85.96,14.28,-88.427,
40008850,-0.056,1.63,-0.519,91.035,52.605,-69.352,
40008870,-0.162,1.3,-0.515,99.627,88.532,-36.137,
40008870,0,1.023,-0.718,120.295,99.382,2.905,
40008890,0.037,0.64,-0.663,136.062,94.762,41.055,
40008890,0.124,-1.368,0.048,136.395,85.855,65.502,
40008910,-1.638,-1.998,-1.105,323.277,-84.21,123.497,
40008910,-0.403,0.37,1.011,518.875,-203.14,191.432,
40008920,0.289,1.997,1.155,345.31,-160.65,58.327,
40008930,-1.48,-1.014,1.973,252.105,-136.027,134.067,
40008940,-0.524,0.117,1.378,205.817,-233.24,21.735,
40008950,1.555,1.457,0.824,164.395,-201.127,-26.092,
40008960,1.156,0.175,1.078,-31.57,-52.64,-39.655,
40008970,0.236,-0.667,1.002,-38.395,20.772,-1.015,
40008980,0.008,-0.323,0.994,-40.792,42.77,6.492,
40008990,-0.216,-0.301,1.006,-41.282,46.252,-0.262,
40009000,-0.477,-0.214,0.984,-30.975,43.05,-7.105,
40009010,-0.221,-0.338,0.958,-38.15,29.715,-18.847,
40009020,-0.179,-0.362,0.893,-27.825,21.28,-16.31,
40009030,-0.371,-0.495,0.872,-7.84,13.09,-12.495,
40009040,-0.125,-0.172,0.987,7.665,2.257,-10.202,
40009050,-0.043,-0.056,0.996,2.625,3.622,-4.55,
40009060,-0.117,-0.188,0.98,-11.48,10.465,6.212,
40009070,-0.293,-0.18,0.966,-15.137,12.162,12.075,
40009080,-0.275,-0.168,0.992,-20.457,7.525,12.075,
40009090,-0.228,-0.078,1.056,-27.912,2.625,10.342,
40009100,-0.227,-0.034,1.11,-43.89,-0.752,6.895,
40009110,-0.161,-0.191,1.153,-70.717,-3.36,5.46,
40009120,-0.08,-0.145,1.16,-98.402,-3.797,2.625,
40009130,-0.017,-0.136,1.134,-127.365,2.555,-0.28,
40009140,-0.004,-0.181,1.089,-159.04,16.432,1.697,
40009150,-0.062,-0.159,1.035,-180.652,33.635,2.695,
40009160,-0.038,-0.137,1.01,-197.137,47.652,-2.747,
40009170,0.018,-0.292,1.011,-212.537,62.772,-9.712,
40009180,0.038,-0.374,1.188,-211.26,83.387,-12.582,
40009190,0.195,-0.492,1.345,-226.45,124.81,-12.827,
40009200,0.06,-0.655,1.187,-236.6,168.595,0.35,
40009210,-0.235,-0.972,1.064,-219.607,175.472,24.937,
40009220,-0.307,-1.274,0.693,-180.145,163.065,-0.385,
40009230,0.32,-1.86,1.195,-120.54,93.782,-43.26,
40009230,1.563,-1.998,1.807,-72.975,0.612,-102.445,
40009250,1.911,-1.997,1.505,112.735,24.937,-195.16,
40009250,-0.725,-1.225,-0.183,231.735,-81.795,-365.33,
40009260,-1.069,-0.517,-1.31,224.105,-52.972,-522.077,
40009270,-1.067,0.457,-1.979,203.98,-35.945,-494.112,
40009280,-0.718,0.778,-1.665,111.37,-10.57,-457.292,
40009290,-1.227,0.409,-0.951,-23.187,39.375,-367.657,
40009300,-1.807,0.678,-0.805,-80.43,39.27,-269.71,
40009310,-1.724,1.293,-0.926,-10.675,24.027,-143.307,
40009320,-1.282,1.349,-0.03,100.835,11.97,-16.485,
40009330,0.565,-1.336,0.954,67.007,288.855,166.81,
40009340,-0.061,-1.998,-1.324,452.69,33.705,414.872,
40009350,0.41,1.392,1.304,500.43,128.642,225.435,
40009360,-1.983,1.768,1.378,453.477,35.42,32.62,
40009370,-1.909,-0.889,1.998,384.93,-37.24,85.12,
40009380,-0.512,1.274,1.47,189.875,-128.292,38.605,
40009390,1.07,1.215,0.963,73.622,-108.57,-45.447,
40009400,0.768,0.095,1.054,-32.48,-34.142,-58.292,
40009410,0.127,-0.434,1.043,-45.15,6.615,-31.535,
40009420,-0.125,-0.313,0.97,-44.94,20.37,-9.712,
40009430,-0.344,-0.48,0.948,-50.172,17.325,-15.26,
40009440,-0.331,-0.414,0.905,-26.495,4.917,-21,
40009450,-0.17,-0.312,0.929,-10.5,-6.247,-23.397,
40009460,-0.019,-0.256,0.965,-3.885,-10.027,-14.472,
40009470,-0.058,-0.101,0.989,-3.815,-6.912,0.052,
40009480,-0.09,-0.132,1.026,-16.607,-2.73,12.845,
40009490,-0.189,-0.097,1.05,-27.44,-0.875,14.157,
40009500,-0.21,-0.03,1.113,-43.12,-3.622,8.767,
40009510,-0.194,0.083,1.107,-72.292,-5.057,3.412,
40009520,-0.132,-0.28,1.114,-98.892,-10.517,-0.42,
40009530,-0.024,-0.125,1.124,-110.32,-15.89,0.892,
40009540,-0.02,-0.045,1.129,-130.97,-15.382,9.695,
40009550,-0.045,-0.182,1.118,-158.9,-11.532,20.072,
40009560,-0.16,-0.17,1.083,-175.105,-12.32,23.905,
40009570,-0.191,-0.229,0.991,-193.06,-16.73,27.772,
40009580,-0.193,-0.375,0.963,-205.502,-22.26,28.402,
40009580,-0.243,-0.389,0.874,-201.39,-31.622,22.872,
40009600,-0.157,-0.458,0.882,-205.922,-36.907,12.512,
40009600,-0.399,-0.523,1.004,-184.66,-45.605,4.287,
40009620,-0.273,-0.468,1.083,-174.825,-57.61,-5.18,
40009620,-0.435,-0.852,1.225,-198.852,-70.577,-14.315,
40009640,-0.412,-0.899,1.076,-166.04,-82.547,-11.602,
40009640,-0.677,-0.823,0.854,-120.977,-81.41,-3.675,
40009660,-1.044,-0.536,0.664,-96.617,-94.692,-7.14,
40009660,-0.823,-1.063,1.597,-76.545,-100.905,0.122,
40009670,-1.699,-0.641,0.539,-2.537,-38.447,113.557,
40009680,-1.852,0.882,-0.436,100.047,-39.637,167.195,
40009690,-0.128,0.862,-1.178,142.905,24.78,249.06,
40009700,0.68,0.766,-0.348,89.705,72.782,337.085,
40009710,0.553,-0.143,0.075,1.312,79.17,332.15,
40009720,1.007,-0.705,-0.063,4.865,38.92,245.7,
40009730,1.063,-0.314,-0.45,40.652,7.122,118.142,
40009740,0.163,-1.078,-0.172,61.775,-35.927,27.667,
40009750,1.568,-1.998,0.566,75.267,-2.572,-69.702,
40009760,-1.89,-1.371,-0.367,422.117,-91.245,42.63,
40009770,0.694,1.973,1.494,338.975,12.932,-106.645,
40009780,0.768,1.254,0.912,261.59,0.857,-45.29,
40009790,-0.848,-1.678,1.463,365.365,35.945,86.607,
40009800,-1.441,-0.116,1.943,399.262,-32.987,50.032,
40009810,-1.081,1.395,1.503,247.555,-120.435,3.552,
40009820,1.283,1.287,1.004,67.9,-120.68,-22.837,
40009830,0.98,0.072,1.036,-6.387,-43.4,-49.437,
40009840,0.283,-0.322,0.955,-11.62,15.26,-32.725,
40009850,-0.102,-0.463,0.969,-30.625,35.997,-11.987,
40009860,-0.273,-0.403,0.941,-15.015,31.885,-2.957,
40009870,-0.593,-0.379,0.957,-8.61,20.055,3.85,
40009880,-0.324,-0.218,0.975,4.462,-2.677,-7.997,
40009890,-0.065,-0.123,0.976,6.912,-12.267,-9.17,
40009900,-0.142,-0.192,0.99,-4.585,-10.185,-2.205,
40009910,-0.013,-0.067,1.001,-3.867,-7.647,3.167,
40009920,0.017,-0.042,1.051,-23.257,0,1.417,
40009920,-0.014,0.004,1.11,-44.607,10.762,-0.945,
40009940,0.011,0.051,1.226,-71.19,19.022,1.61,
40009940,-0.056,-0.031,1.216,-111.79,25.987,3.045,
40009960,-0.154,-0.192,1.117,-147.525,34.405,-0.84,
40009960,-0.15,-0.256,1.096,-170.485,42.21,-4.48,
40009980,-0.14,-0.137,1.045,-186.06,47.092,-10.062,
40009980,-0.129,-0.21,0.985,-192.797,50.907,-10.535,
40010000,-0.039,-0.298,0.969,-207.882,58.467,-16.607,
40010000,0.047,-0.269,1.049,-212.012,77.192,-21.332,
40010010,0.142,-0.345,1.164,-225.102,123.62,-19.757,
40010020,0.249,-0.729,1.109,-233.082,190.522,-9.992,
40010030,0.187,-0.991,1.023,-219.94,244.51,-15.26,
40010040,-0.021,-1.09,0.831,-187.81,279.422,-25.095,
40010050,-0.032,-1.147,0.878,-129.167,281.96,-27.457,
40010060,0.19,-1.543,1.127,-68.337,198.257,-45.342,
40010070,1.948,-1.979,1.857,-10.342,104.702,-100.327,
40010080,0.79,-1.051,1.404,58.275,-78.68,-208.495,
40010090,-0.982,0.372,0.334,159.285,-129.5,-345.747,
40010100,-1.135,0.951,-0.056,174.947,-135.205,-383.39,
40010110,-1.3,1.268,-0.888,183.155,-129.237,-289.712,
40010120,-0.969,1.641,-1.57,186.497,-122.797,-187.46,
40010130,-0.478,1.683,-1.343,146.772,-86.327,-77.91,
40010140,-0.048,1.084,-1.153,61.862,-22.557,82.215,
40010150,0.409,-0.057,-0.758,13.16,-4.165,198.712,
40010160,-1.002,-1.847,0.93,55.912,199.937,362.547,
40010170,0.152,-1.677,-0.115,385.49,-144.34,394.66,
40010180,-0.095,1.944,1.16,479.92,-46.795,236.25,
40010190,-1.871,1.347,1.685,352.485,-120.4,131.18,
40010200,-1.937,-1.443,1.844,256.182,-164.832,90.615,
40010210,0.774,1.58,1.28,181.072,-212.835,-37.397,
40010220,1.582,0.965,0.908,69.09,-124.775,-52.43,
40010230,0.708,-0.045,1.026,-38.832,-10.237,-10.832,
40010240,0.016,-0.383,1.03,-57.347,30.327,14.752,
40010250,-0.363,-0.484,0.969,-43.505,31.202,15.295,
40010260,-0.611,-0.474,0.916,-20.317,15.89,4.865,
40010270,-0.301,-0.402,0.945,-3.325,-6.825,-12.827,
40010280,0.214,-0.068,0.983,9.747,-15.382,-13.107,
40010290,-0.081,-0.108,0.984,-3.167,-1.172,11.795,
40010300,-0.377,-0.24,0.968,-14.175,1.942,23.17,
40010310,-0.182,-0.081,1.015,-13.177,-4.427,13.895,
40010320,-0.018,-0.026,1.057,-23.73,-3.727,4.655,
40010330,0.025,0.01,1.124,-45.815,4.742,6.055,
40010330,-0.048,0.035,1.209,-76.457,13.545,10.587,
40010350,-0.02,0.009,1.255,-116.55,19.337,14.28,
40010350,-0.103,-0.067,1.148,-152.162,25.847,18.27,
40010370,-0.112,-0.218,1.125,-174.072,28.787,23.905,
40010370,-0.182,-0.107,1.03,-195.947,27.597,24.797,
40010390,-0.229,-0.194,1.004,-214.497,25.777,17.972,
40010390,-0.25,-0.25,1.042,-223.3,24.447,13.422,
40010410,-0.294,-0.274,1.111,-232.68,20.79,15.557,
40010410,-0.303,-0.35,1.032,-240.555,-4.497,16.66,
40010420,-0.346,-0.522,1.117,-232.067,-27.982,18.305,
40010430,-0.042,-0.486,1.125,-205.362,-38.272,36.592,
40010440,-0.224,-0.866,1.362,-217.245,-33.372,43.697,
40010450,-0.529,-0.945,1.156,-187.442,-61.6,37.152,
40010460,-0.3,-0.701,0.799,-122.762,-75.057,38.745,
40010470,0.172,-0.721,1.569,-92.242,-68.862,38.43,
40010480,-0.228,-0.501,1.675,-20.177,-49.262,52.115,
40010490,0.005,-0.181,1.288,131.057,-39.83,60.392,
40010500,-0.564,0.208,0.274,252.367,-57.977,49.805,
40010510,-0.433,0.754,-0.752,292.775,-65.327,18.935,
40010520,-0.132,0.99,-1.964,299.337,-7.682,18.007,
40010530,-0.254,1.028,-1.753,244.93,28.945,19.6,
40010540,-0.609,0.586,-1.231,96.477,75.932,16.957,
40010550,-0.786,-0.059,-0.9,-43.19,120.05,39.497,
40010560,-0.657,-0.525,-0.922,-65.765,115.587,93.555,
40010570,-0.741,-0.305,-0.37,6.107,54.495,152.74,
40010580,1.694,-1.998,0.017,-19.442,44.415,184.467,
40010590,-1.865,-0.109,0.299,473.76,-56.14,217.647,
40010600,1.045,1.997,1.867,523.425,-233.485,9.065,
40010610,-1.805,-0.438,1.087,126.91,-160.562,98.227,
40010620,1.404,1.061,1.348,1.575,-154.647,3.132,
40010630,1.228,0.196,1.067,45.062,-70.997,-56.822,
40010640,0.788,-0.205,1.009,-26.267,20.755,-38.185,
40010650,-0.207,-0.471,0.997,-46.095,62.422,4.06,
40010660,-0.525,-0.314,0.935,-34.282,55.457,6.807,
40010670,-0.57,-0.318,0.897,-20.86,38.272,5.792,
40010670,-0.498,-0.338,0.92,-16.03,19.582,-11.462,
40010690,-0.073,-0.348,0.957,1.575,4.025,-21.7,
40010690,-0.159,-0.148,0.969,5.39,1.505,-3.08,
40010710,-0.405,-0.2,0.943,-3.465,1.032,7.07,
40010710,-0.245,-0.133,0.967,-1.802,-5.442,2.835,
40010730,-0.156,-0.121,0.989,-8.242,-6.072,-0.175,
40010730,-0.143,-0.119,0.993,-15.662,-4.637,2.012,
40010750,-0.186,-0.123,0.992,-25.987,-1.435,6.65,
40010750,-0.186,-0.159,0.999,-35.84,-0.21,8.907,
40010760,-0.162,-0.141,1.019,-42.577,2.152,9.345,
40010770,-0.117,-0.147,1.054,-54.6,5.495,8.942,
40010780,-0.091,-0.223,1.079,-71.102,12.372,7,
40010790,0.029,-0.179,1.123,-95.795,23.59,9.275,
40010800,0.021,-0.201,1.147,-125.72,40.95,15.032,
40010810,-0.017,-0.195,1.113,-152.267,55.982,19.582,
40010820,-0.17,-0.196,1.119,-176.452,69.422,16.852,
40010830,-0.203,-0.258,1.111,-197.907,79.8,8.032,
40010840,-0.319,-0.35,1.19,-216.58,96.53,-1.417,
40010850,-0.273,-0.521,1.486,-238.84,113.645,-6.265,
40010860,-0.029,-1.036,1.292,-260.855,148.155,2.065,
40010870,-0.019,-1.707,1.454,-246.785,169.925,24.517,
40010880,-0.72,-1.998,1.606,-186.077,181.282,53.025,
40010890,-0.442,-1.998,0.09,60.112,75.442,91.472,
40010900,0.8,-1.472,-0.692,270.2,-30.975,58.31,
40010910,0.976,-1.029,-1.273,222.687,-1.767,-7.455,
40010920,0.002,-0.949,-1.705,125.685,58.642,-19.6,
40010930,-0.571,-0.666,-1.377,61.897,108.062,-28.91,
40010940,-0.995,-0.426,-0.839,-32.9,128.992,-37.31,
40010950,-1.494,-0.297,-0.609,-94.745,105.35,35.822,
40010960,-0.786,-0.002,-0.337,-125.65,66.395,150.885,
40010970,0.571,0.216,-0.021,-183.347,57.785,267.242,
40010980,1.248,0.093,0.197,-247.992,62.772,345.187,
40010990,1.596,0.027,0.89,-255.045,31.745,327.53,
40011000,-0.481,0.172,1.992,-252.035,-106.417,228.147,
40011010,-1.998,1.924,0.167,-10.43,-445.882,291.357,
40011020,-0.918,1.489,0.765,423.447,-571.655,387.1,
40011030,0.184,-1.93,1.093,146.65,-486.08,375.357,
40011040,-1.379,0.045,1.236,216.475,-433.457,235.427,
40011050,-1.19,0.825,1.687,305.13,-364.525,-4.777,
40011060,1.492,-0.287,1.598,127.487,-298.795,-89.547,
40011070,1.548,1.594,1.005,104.825,-148.365,-46.007,
40011080,0.939,0.017,1.075,-27.37,-5.547,-0.175,
40011080,-0.156,-0.146,1.016,-45.535,51.642,8.067,
40011100,-0.326,-0.496,0.963,-41.93,55.037,-3.01,
40011100,-0.472,-0.249,0.947,-29.295,44.642,-9.485,
40011120,-0.632,-0.264,0.913,-19.897,30.537,-20.107,
40011120,-0.311,-0.388,0.922,-11.567,12.81,-28.805,
40011140,-0.227,-0.324,0.923,-5.757,0.507,-14.612,
40011140,-0.234,-0.165,0.985,-5.88,-4.637,2.03,
40011160,-0.186,-0.03,0.995,-5.057,-4.847,9.17,
40011160,-0.15,-0.103,1.015,-31.552,1.89,2.782,
40011170,-0.041,-0.031,1.067,-46.865,9.345,-0.28,
40011180,-0.136,-0.138,1.065,-66.587,23.292,-1.767,
40011190,-0.037,-0.215,1.142,-88.97,34.702,-7.087,
40011200,-0.042,-0.058,1.159,-101.815,45.43,-9.502,
40011210,-0.064,-0.133,1.135,-133.507,57.54,-10.272,
40011220,-0.111,-0.209,1.092,-160.562,66.412,-12.477,
40011230,-0.132,-0.179,1.038,-176.155,72.607,-16.695,
40011240,-0.126,-0.271,1.014,-191.817,87.99,-15.697,
40011250,-0.183,-0.346,1.026,-200.567,110.39,-18.812,
40011260,-0.126,-0.42,1.154,-202.072,137.042,-24.657,
40011270,0.024,-0.575,1.183,-217.35,183.137,-27.405,
40011280,-0.159,-0.848,0.97,-212.467,207.917,-12.215,
40011290,-0.314,-1.021,0.826,-170.957,216.055,-7.805,
40011300,-0.119,-1.271,0.789,-115.29,228.41,-21.525,
40011310,-0.221,-1.405,0.645,-47.967,199.762,-10.5,
40011320,-0.307,-1.699,0.377,39.76,124.6,-30.537,
40011330,-0.659,-1.603,1.072,62.247,20.79,-94.307,
40011340,-0.211,-1.102,0.365,117.932,-44.205,-136.657,
40011350,-0.628,-0.313,0.143,194.582,-43.365,-125.912,
40011360,-0.781,0.07,-0.116,184.257,-58.625,-98.91,
40011370,-0.565,0.319,-0.359,155.855,-58.292,-64.225,
40011380,-0.161,0.638,-0.681,148.12,-63.42,-24.692,
40011390,0.124,0.835,-1.03,143.71,-61.127,12.827,
40011400,0.409,0.857,-0.784,102.76,-45.832,34.177,
40011410,0.639,0.713,-0.617,34.107,-28.402,47.022,
40011420,0.96,0.686,-0.951,-0.822,-17.902,49.157,
40011420,-0.879,-1.33,1.539,-17.517,-36.015,56.525,
40011440,-1.291,-1.998,-1.288,158.76,-310.625,99.837,
40011440,-0.039,0.5,1.537,512.872,-316.557,262.15,
40011460,-0.1,1.439,1.808,229.687,-240.03,193.97,
40011460,-1.712,-1.234,1.173,150.255,-220.185,48.755,
40011480,1.84,1.758,1.317,150.43,-230.685,-8.102,
40011480,0.595,0.317,0.997,5.915,-93.695,-46.182,
40011500,1.023,-0.158,1.035,-21.682,-11.305,-11.357,
40011500,-0.134,-0.346,1.022,-44.607,38.64,0.7,
40011510,-0.277,-0.437,0.972,-29.575,40.337,-10.395,
40011520,-0.493,-0.562,0.934,-18.637,28.14,-18.62,
40011530,-0.33,-0.379,0.925,1.067,8.942,-16.695,
40011540,-0.095,-0.129,0.993,4.935,1.12,-8.785,
40011550,-0.206,-0.071,0.966,6.335,1.995,5.162,
40011560,-0.262,-0.263,0.967,-8.172,1.592,3.762,
40011570,-0.06,-0.054,0.983,-2.817,-1.68,-0.297,
40011580,-0.046,-0.106,0.995,-12.792,4.357,4.322,
40011590,-0.062,-0.069,1.01,-21.122,12.022,6.527,
40011600,-0.064,-0.094,1.021,-31.377,20.387,5.74,
40011610,-0.113,-0.174,1.009,-40.46,26.915,7.595,
40011620,-0.18,-0.156,1.028,-50.19,30.835,11.305,
40011630,-0.255,-0.187,1.061,-61.67,32.55,11.585,
40011640,-0.245,-0.142,1.074,-73.57,34.23,5.512,
40011650,-0.244,-0.156,1.102,-94.57,34.615,-0.787,
40011660,-0.186,-0.198,1.084,-119.997,32.235,-4.882,
40011670,-0.202,-0.199,1.059,-138.442,31.885,-13.807,
40011680,-0.245,-0.187,1.04,-154.122,34.405,-24.115,
40011690,-0.263,-0.207,1.014,-169.925,38.36,-32.27,
40011700,-0.239,-0.283,0.986,-185.132,41.492,-38.78,
40011710,-0.237,-0.329,0.991,-195.51,43.365,-42.21,
40011720,-0.261,-0.394,1.139,-207.987,38.045,-46.34,
40011730,-0.241,-0.561,1.322,-227.062,38.272,-51.31,
40011740,-0.367,-0.543,1.436,-213.622,44.59,-35.7,
40011750,-0.296,-1.008,1.424,-216.23,51.66,-21.402,
40011760,-0.533,-1.63,0.676,-178.657,36.505,-13.615,
40011770,0.04,-1.8,1.021,-86.03,-21.402,-26.495,
40011780,-0.401,-1.014,1.239,9.572,-78.592,-76.16,
40011790,-1.089,-0.412,0.877,71.417,-112.717,-102.112,
40011800,-0.563,-0.203,0.638,104.125,-102.637,-73.727,
40011810,-1.491,-0.009,-0.034,146.965,-121.38,-51.047,
40011820,-1.182,0.369,-1.523,196.945,-55.562,-20.177,
40011830,-0.915,0.997,-1.914,207.042,36.75,42.945,
40011830,-1.472,1.25,-1.263,90.44,75.232,104.982,
40011850,-1.343,0.525,-0.492,-63.56,89.897,218.61,
40011850,-0.218,-0.176,-0.454,-117.565,72.87,377.282,
40011870,1.083,-0.477,-0.687,-50.522,48.107,469.542,
40011870,1.777,-0.678,-0.571,4.252,53.567,454.37,
40011890,0.292,-1.866,0.524,-52.01,-16.275,325.657,
40011890,1.591,-1.998,-0.226,-37.45,-286.247,53.987,
40011900,-1.922,0.144,-0.394,492.8,-175.245,185.412,
40011910,1.802,1.886,1.796,360.412,-250.442,219.66,
40011920,-1.692,-1.539,1.586,120.557,-213.517,129.64,
40011930,0.388,0.472,1.284,227.535,-254.887,10.885,
40011940,1.418,1.226,0.934,105.542,-158.2,-29.12,
40011950,1.05,-0.045,1.077,-40.355,-22.137,-28.105,
40011960,0.048,-0.623,0.986,-33.775,29.68,-4.41,
40011970,-0.197,-0.389,0.968,-18.69,38.045,-6.65,
40011980,-0.485,-0.4,0.939,-9.135,33.495,-12.215,
40011990,-0.361,-0.307,0.947,-0.087,19.74,-20.177,
40012000,-0.113,-0.149,0.973,4.602,9.625,-14.052,
40012010,-0.347,-0.192,0.954,-3.57,9.852,-0.857,
40012020,-0.238,-0.192,0.963,-4.83,3.325,0.332,
40012030,-0.103,-0.039,0.982,-7.035,2.362,-0.017,
40012040,-0.1,-0.062,1.006,-23.59,9.362,1.19,
40012050,-0.05,-0.066,1.041,-37.695,16.065,2.065,
40012060,-0.103,-0.061,1.091,-53.882,24.71,2.975,
40012070,-0.19,-0.024,1.165,-75.407,31.867,0.455,
40012080,-0.363,-0.288,1.113,-99.645,33.022,-8.75,
40012090,-0.169,-0.177,1.234,-123.357,28.49,-15.697,
40012100,-0.073,-0.09,1.14,-152.232,26.95,-24.36,
40012110,-0.098,-0.199,1.059,-188.755,36.75,-27.947,
40012120,-0.08,-0.146,1.021,-208.127,50.382,-31.43,
40012130,-0.086,-0.157,0.989,-224.717,66.132,-38.29,
40012140,-0.09,-0.381,0.991,-237.562,78.085,-38.202,
40012150,0.067,-0.666,1.225,-258.387,99.855,-30.712,
40012160,0.411,-0.996,1.393,-269.465,156.292,-12.302,
40012170,0.182,-1.294,0.919,-240.712,203.262,23.485,
40012170,0.074,-1.998,0.086,-190.715,190.837,38.692,
40012190,0.884,-1.998,0.58,-104.212,161.962,17.027,
40012190,1.666,-1.998,0.616,0.49,109.182,-89.757,
40012210,0.099,-1.417,0.253,110.075,-25.567,-253.61,
40012210,-1.234,-0.622,-0.047,106.907,8.802,-316.067,
40012230,-1.988,-0.345,-0.448,88.392,-32.235,-268.152,
40012230,-1.97,0.121,-0.266,76.737,-75.11,-210.122,
40012250,-1.634,0.273,-0.732,53.497,-77.542,-118.597,
40012250,-1.358,0.402,-1.412,68.932,-75.967,-8.592,
40012260,-1.186,0.776,-1.369,62.93,-64.82,81.987,
40012270,-1.333,0.757,-0.7,-35.927,-53.025,144.882,
40012280,-1.209,0.427,-0.003,-147.77,-50.872,204.225,
40012290,-0.476,0.179,0.062,-145.197,-76.825,286.93,
40012300,0.019,-1.02,0.415,-39.427,-135.835,330.225,
40012310,1.28,-0.834,1.772,114.362,-273.525,145.652,
40012320,0.114,-1.727,-0.851,289.992,0.262,130.27,
40012330,-1.998,-0.285,0.444,430.832,-106.557,89.6,
40012340,1.006,-0.989,1.376,221.882,-21.035,128.17,
40012350,-1.05,0.737,1.255,418.547,-75.092,103.722,
40012360,-1.301,-0.066,1.606,341.442,-111.877,38.535,
40012370,-0.568,0.01,1.732,218.19,-153.667,-18.27,
40012380,1.415,1.286,1.162,167.142,-141.977,-30.38,
40012390,0.823,0.532,1.025,31.22,-52.517,-18.112,
40012400,0.423,0.004,1.031,-27.107,10.972,-17.57,
40012410,-0.063,-0.197,1.037,-42.262,41.58,-15.417,
40012420,-0.366,-0.332,1.009,-54.215,47.267,-17.622,
40012430,-0.498,-0.197,0.942,-50.207,36.137,-27.037,
40012440,-0.555,-0.683,0.846,-41.44,16.432,-34.3,
40012450,-0.207,-0.452,0.876,-18.48,-7.035,-35.332,
40012460,-0.068,-0.279,0.948,-5.53,-16.222,-16.607,
40012470,-0.059,-0.1,1.033,-9.537,-16.73,4.742,
40012480,-0.041,-0.033,1.085,-25.235,-13.44,15.225,
40012490,-0.082,-0.081,1.144,-56.945,-4.882,15.697,
40012500,-0.012,0.012,1.207,-89.792,1.837,8.767,
40012510,0.03,-0.026,1.212,-127.785,9.432,6.142,
40012520,-0.009,-0.094,1.185,-160.667,16.677,9.537,
40012530,-0.033,-0.144,1.097,-184.327,23.152,16.485,
40012540,-0.124,-0.164,1.003,-203.367,29.137,18.742,
40012550,-0.153,-0.172,0.943,-219.135,32.515,19.512,
40012560,-0.245,-0.304,0.962,-230.23,33.862,15.312,
40012570,-0.45,-0.415,1.041,-224.402,19.197,9.467,
40012570,-0.372,-0.245,1.044,-212.572,-8.82,4.69,
40012580,-0.216,-0.491,0.934,-239.61,-20.807,-1.19,
40012590,-0.241,-0.655,1.021,-241.377,-25.007,-10.325,
40012600,-0.306,-0.867,0.964,-242.27,-12.145,-25.637,
40012610,-0.606,-1.018,0.961,-211.137,0.227,-33.582,
40012620,-0.895,-0.945,1.108,-165.847,13.072,-42.315,
40012630,-0.661,-0.588,1.307,-113.697,17.57,-46.025,
40012640,-0.519,-0.58,1.991,-65.362,82.25,-37.257,
40012650,-1.506,-0.283,1.214,48.807,81.55,-34.177,
40012660,-1.047,0.767,0.602,156.24,39.357,-35.822,
40012670,-0.181,0.617,0.513,217.612,65.362,-8.347,
40012680,0.033,0.296,0.199,259.437,84.56,-12.547,
40012690,0.297,0.458,-0.243,294.577,104.23,-54.582,
40012700,0.671,0.747,-1.068,312.497,130.952,-85.19,
40012710,0.789,0.732,-1.393,295.522,152.635,-100.677,
40012720,0.499,0.565,-1.129,218.382,127.26,-124.897,
40012730,0.304,0.439,-0.705,120.47,86.065,-147.332,
40012740,0.148,0.487,-0.369,38.465,65.275,-144.392,
40012750,0.512,-0.977,0.915,-37.66,70.56,-203.595,
40012760,-0.188,-1.998,-1.35,172.182,71.347,-168.98,
40012770,-0.297,1.005,0.628,499.712,-112.927,33.74,
40012780,1.083,1.938,1.537,335.037,-92.085,5.407,
40012790,-1.793,-1.705,1.931,128.222,-63.14,133.105,
40012800,0.473,0.94,1.422,152.425,-155.767,50.4,
40012810,0.587,0.942,0.948,88.935,-120.96,-41.405,
40012820,1.049,-0.199,1.047,-34.737,-45.482,-54.005,
40012830,0.039,-0.17,0.922,-8.61,5.6,-22.312,
40012840,-0.169,-0.591,0.989,-35.315,18.042,-3.78,
40012850,-0.157,-0.196,0.953,-12.442,11.41,-4.76,
40012860,-0.319,-0.303,0.982,-17.185,7.805,-1.802,
40012870,-0.141,-0.097,0.994,-14.017,1.015,-6.37,
40012880,-0.111,-0.167,0.972,-23.1,0.997,-2.625,
40012890,-0.107,-0.292,0.991,-24.482,2.38,8.592,
40012900,-0.038,0,1.027,-24.15,3.885,12.81,
40012910,-0.051,-0.038,1.112,-47.442,11.34,22.89,
40012920,-0.099,0,1.162,-70.402,14.857,28.997,
40012920,-0.053,-0.016,1.229,-103.512,14.875,34.44,
40012940,-0.126,0.052,1.23,-136.29,14.035,43.557,
40012940,-0.056,-0.069,1.067,-170.502,12.39,49.805,
40012960,-0.125,-0.164,1.046,-197.575,12.39,49.98,
40012960,0.012,-0.188,1.06,-212.117,11.392,53.952,
40012980,-0.02,-0.163,1.051,-232.417,18.83,50.242,
40012980,-0.203,-0.304,1.115,-244.912,20.877,48.212,
40013000,-0.198,-0.309,0.923,-252.84,4.567,46.83,
40013000,-0.124,-0.488,0.935,-252.997,0.157,53.182,
40013010,-0.274,-0.347,1.173,-235.777,4.882,55.51,
40013020,-0.279,-0.369,1.459,-246.89,6.44,57.802,
40013030,-0.594,-0.795,1.554,-255.675,-18.322,59.307,
40013040,-0.816,-0.932,1.749,-218.33,-84.647,51.642,
40013050,0.458,-1.107,1.803,-142.73,-169.89,57.172,
40013060,1.024,-0.693,1.875,-56.577,-192.692,43.785,
40013070,1.949,-0.221,1.691,54.67,-104.982,-24.045,
40013080,-0.236,0.345,0.475,211.54,-114.8,-113.4,
40013090,-0.682,0.663,0.151,205.152,-114.362,-182.087,
40013100,-0.332,0.499,-0.017,192.622,-48.037,-124.477,
40013110,-0.575,0.431,-0.257,221.882,-46.567,-89.757,
40013120,-0.335,0.321,-0.97,224.455,-3.43,-65.17,
40013130,-0.267,0.159,-1.649,207.725,54.722,-14.77,
40013140,-0.226,-0.089,-1.737,148.505,78.767,31.167,
40013150,0.092,-0.509,-1.091,46.62,82.827,73.657,
40013160,0.555,-1.115,-0.671,-50.942,74.777,102.795,
40013170,1.095,-1.134,-0.821,-55.125,44.205,111.562,
40013180,1.663,-0.698,0.669,-71.277,109.007,107.852,
40013190,-1.554,-1.998,0.377,-126.227,264.355,143.5,
40013200,0.421,-1.318,-0.157,495.442,-250.775,413.367,
40013210,1.124,1.946,1.761,409.675,-76.002,351.995,
40013220,-1.998,0.633,1.792,266.98,-157.185,231.665,
40013230,-0.274,-0.998,1.612,164.167,-200.375,65.047,
40013240,1.65,1.655,0.777,153.212,-170.292,-51.345,
40013250,1.271,0.268,1.05,-9.817,-33.985,-51.625,
40013260,0.052,-0.723,1.026,-51.712,38.115,-24.99,
40013260,-0.267,-0.302,0.922,-7.14,49.7,-18.025,
40013280,-0.45,-0.478,0.973,-18.795,44.485,-10.412,
40013280,-0.509,-0.311,0.941,-0.507,26.232,-9.607,
40013300,-0.214,-0.139,0.986,2.292,9.1,-12.197,
40013300,-0.249,-0.208,0.96,-0.42,4.69,-3.237,
40013320,-0.284,-0.187,0.97,-3.36,-1.172,0.525,
40013320,-0.084,-0.035,0.986,-3.447,-3.587,-4.515,
40013330,-0.105,-0.007,1.011,-15.715,2.065,-6.3,
40013340,-0.162,-0.027,1.055,-33.215,9.012,-7.087,
40013350,-0.235,0.009,1.124,-54.127,12.547,-15.365,
40013360,-0.287,0.051,1.242,-83.737,12.302,-25.462,
40013370,-0.478,-0.07,1.119,-116.62,2.852,-44.922,
40013380,-0.287,-0.481,1.086,-155.12,-9.117,-59.412,
40013390,-0.296,-0.324,1.079,-170.345,-10.622,-70.787,
40013400,-0.241,-0.12,1.009,-173.425,-11.865,-76.16,
40013410,-0.222,-0.279,1.004,-200.235,-5.67,-79.327,
40013420,-0.374,-0.426,1.038,-218.347,-0.227,-87.57,
40013430,-0.628,-0.586,1.04,-224.945,3.202,-105.997,
40013440,-0.669,-0.853,0.906,-218.347,14.122,-128.135,
40013450,-0.648,-1.081,1.059,-217.63,27.422,-163.485,
40013460,-0.581,-1.602,0.682,-166.81,39.637,-197.522,
40013470,0.144,-1.68,0.379,-76.212,49.455,-244.755,
40013480,-1.361,-1.095,0.656,2.782,134.82,-192.062,
40013490,-1.968,-1.032,0.045,28.332,85.312,-133.962,
40013500,-1.809,-0.669,0.756,11.777,36.75,-87.237,
40013510,-1.32,-0.658,0.245,46.305,21.21,14.997,
40013520,-0.941,-0.479,0.081,102.2,11.9,100.94,
40013530,-0.26,-0.452,-0.773,114.275,65.572,149.8,
40013540,-0.13,-0.283,-1.495,108.832,116.025,200.76,
40013550,-0.322,-0.094,-1.178,60.69,108.675,239.487,
40013560,-0.235,-0.299,-0.574,-50.855,76.597,304.01,
40013570,0.55,-0.652,0,-161.437,46.34,388.605,
40013580,1.735,-0.24,-0.02,-177.572,25.567,433.965,
40013590,1.605,0.316,0.237,-143.132,7.525,426.667,
40013600,1.156,-0.982,1.232,-173.477,-272.79,208.547,
40013610,0.511,-1.985,-1.177,141.47,-231.262,68.267,
40013620,-1.785,-0.304,0.509,497.28,-203.63,32.48,
40013630,1.743,0.271,1.86,284.13,-164.745,167.177,
40013640,-1.835,0.231,1.638,328.51,-203.577,98.28,
40013650,0.555,1.051,1.503,215.547,-231.332,18.375,
40013660,1.66,1.182,0.919,111.755,-160.982,-49.42,
40013670,1.384,0.274,0.963,1.557,-29.382,-35.997,
40013670,0.225,-0.104,1.015,-36.435,51.975,-10.937,
40013690,-0.31,-0.299,0.994,-47.39,75.04,-14.7,
40013690,-0.572,-0.352,0.965,-43.557,66.78,-16.975,
40013710,-0.592,-0.361,0.948,-40.057,47.81,-17.605,
40013710,-0.378,-0.308,0.959,-39.777,27.405,-24.727,
40013730,-0.249,-0.252,0.974,-32.725,13.825,-15.417,
40013730,-0.224,-0.227,1.045,-40.687,9.082,2.52,
40013750,-0.245,-0.014,1.135,-57.592,3.815,10.937,
40013750,-0.165,-0.104,1.188,-87.447,-0.175,13.335,
40013760,-0.13,-0.036,1.212,-118.23,-2.1,12.845,
40013770,-0.105,0.084,1.221,-156.432,-2.537,10.85,
40013780,-0.156,0.072,1.212,-199.395,-4.812,10.167,
40013790,-0.195,-0.004,1.13,-231.612,-13.37,11.497,
40013800,-0.219,-0.084,1.284,-264.39,-18.55,13.422,
40013810,-0.531,-0.231,1.355,-309.242,-37.467,6.58,
40013820,-0.572,-0.183,1.642,-319.935,-68.425,-2.747,
40013830,-0.274,-0.249,1.798,-310.852,-83.72,-17.377,
40013840,-0.723,-0.668,1.896,-337.417,-67.165,-40.11,
40013850,-1.336,-0.126,1.744,-282.607,-84.49,-72.082,
40013860,-0.809,0.92,1.565,-203.315,-73.045,-73.902,
40013870,0.176,1.954,1.998,-168.752,74.847,-39.042,
40013880,-1.023,1.975,1.998,-19.32,110.547,-46.077,
40013890,-0.816,1.754,1.856,192.815,57.575,-75.915,
40013900,0.129,1.438,0.87,321.09,69.09,-38.395,
40013910,0.614,1.038,-0.969,365.942,111.702,-36.26,
40013920,0.591,0.281,-1.2,328.212,203.297,-44.835,
40013930,0.44,-0.634,-0.817,212.695,248.307,-70.14,
40013940,-0.371,-1.205,-0.312,150.745,202.947,-70.262,
40013950,-0.259,-1.625,-0.559,123.69,72.152,-41.877,
40013960,0.986,-1.529,-0.648,102.13,-3.36,25.672,
40013970,1.075,-1.567,-0.893,76.352,-15.855,59.92,
40013980,0.021,-1.664,-1.065,22.89,-47.967,94.167,
40013990,1.262,-1.846,0.911,-142.905,-60.777,88.27,
40014000,-1.819,-1.998,-1.562,15.96,-172.2,73.29,
40014010,-0.408,1.468,1.467,494.76,-138.565,221.042,
40014010,0.004,1.76,1.694,280.542,-59.237,283.36,
40014030,-1.998,-1.425,1.802,217.595,-99.417,184.782,
40014030,0.1,0.379,1.423,201.005,-182.647,65.292,
40014050,1.302,0.656,0.947,95.725,-132.93,-21.542,
40014050,1.596,-0.097,1.057,-29.907,-33.775,-31.36,
40014070,-0.321,-0.664,0.933,-31.412,27.265,0.857,
40014070,-0.093,-0.237,0.976,-16.065,31.815,-5.897,
40014080,-0.11,-0.19,0.971,-8.172,35.315,-19.652,
40014090,-0.298,-0.223,0.953,-13.65,35.612,-16.45,
40014100,-0.298,-0.286,0.948,-13.912,29.662,-9.222,
40014110,-0.305,-0.221,0.98,-15.627,21.98,0.665,
40014120,-0.239,-0.106,0.971,0.175,14.227,7.087,
40014130,-0.147,-0.142,0.986,-19.39,12.18,5.11,
40014140,-0.095,-0.186,0.996,-37.8,13.895,5.6,
40014150,-0.119,-0.182,1.019,-34.002,15.995,10.255,
40014160,-0.111,-0.109,1.065,-35.997,19.617,12.232,
40014170,-0.164,-0.155,1.109,-57.382,24.045,13.265,
40014180,-0.194,-0.106,1.139,-74.48,24.097,11.9,
40014190,-0.19,0.035,1.216,-101.657,19.845,5.337,
40014200,-0.183,-0.287,1.061,-132.16,16.625,-1.662,
40014210,-0.334,-0.352,1.161,-163.467,24.43,-19.285,
40014220,-0.391,-0.347,1.154,-179.34,20.51,-29.68,
40014230,-0.465,-0.676,1.135,-194.197,4.445,-33.687,
40014240,-1.058,-1.455,1.233,-163.467,-40.722,-42.175,
40014250,-0.875,-1.995,1.185,-96.442,-123.952,-65.485,
40014260,-0.02,-1.998,0.803,2.467,-184.87,-80.377,
40014270,1.555,-1.998,0.064,59.692,-155.575,-89.39,
40014280,1.072,-1.998,0.173,40.075,-65.135,-185.412,
40014290,-1.822,-1.614,0.005,41.65,20.492,-279.107,
40014300,-1.998,-1.133,-0.109,45.5,55.702,-232.645,
40014310,-1.568,-0.951,-0.437,46.2,77.735,-143.92,
40014320,-1.631,-0.863,-0.895,43.295,109.69,-54.722,
40014330,-1.998,-0.49,-1.117,14.017,113.802,16.065,
40014340,-1.998,0.152,-0.762,-41.212,100.572,75.477,
40014350,-1.998,0.746,-0.226,-128.082,113.452,150.535,
40014360,-1.627,0.959,-0.717,-184.292,166.32,251.737,
40014370,1.235,1.819,-0.517,-142.432,313.355,386.032,
40014380,1.568,1.627,0.14,-116.567,443.467,506.992,
40014390,0.43,-0.137,1.603,-257.022,-11.795,270.672,
40014400,0.448,-1.142,-1.172,-61.6,-282.625,69.772,
40014410,-1.407,1.361,0.434,506.152,-224.017,-62.72,
40014420,1.998,-1.611,1.517,176.837,-214.095,177.292,
40014420,-1.456,1.671,1.268,237.195,-201.705,105.927,
40014440,1.077,0.925,1.376,152.145,-166.74,20.755,
40014440,1.004,1.069,1.025,48.352,-89.652,-52.395,
40014460,0.832,-0.047,1.098,-45.482,-4.025,-48.65,
40014460,0.096,-0.516,1.056,-79.047,39.707,-18.672,
40014480,-0.304,-0.444,0.935,-69.545,44.66,8.12,
40014480,-0.545,-0.487,0.896,-58.66,33.25,14.822,
40014500,-0.523,-0.422,0.862,-39.987,11.62,10.902,
40014500,-0.372,-0.401,0.89,-12.862,-6.58,-1.347,
40014510,-0.239,-0.318,0.89,-4.147,-16.572,-5.74,
40014520,-0.245,-0.345,0.904,3.307,-23.117,-4.06,
40014530,-0.186,-0.24,0.937,17.815,-27.615,0.997,
40014540,-0.151,-0.21,0.976,19.46,-28.332,3.115,
40014550,-0.085,-0.116,0.994,16.012,-25.2,5.285,
40014560,-0.098,-0.081,0.998,8.452,-18.917,6.492,
40014570,-0.076,-0.139,1.001,-6.702,-12.74,4.917,
40014580,-0.055,-0.167,0.996,-20.125,-7.157,5.547,
40014590,-0.023,-0.148,1.002,-21.595,-1.54,10.85,
40014600,-0.044,-0.17,1.021,-29.61,4.795,17.027,
40014610,-0.114,-0.188,1.056,-37.852,9.957,20.545,
40014620,-0.049,-0.129,1.045,-44.275,13.282,21.122,
40014630,-0.153,-0.25,1.087,-65.047,18.48,18.357,
40014640,-0.281,-0.231,1.086,-83.317,19.39,9.555,
40014650,-0.342,-0.259,1.102,-102.515,18.76,-6.895,
40014660,-0.415,-0.246,1.088,-122.01,13.02,-29.925,
40014670,-0.533,-0.355,1.059,-144.795,4.375,-54.11,
40014680,-0.604,-0.471,1.082,-163.152,-13.37,-82.005,
40014690,-0.616,-0.567,0.957,-167.002,-36.75,-110.215,
40014700,-0.413,-0.511,1.087,-154.14,-39.27,-144.305,
40014710,-0.038,-0.602,0.672,-148.05,4.13,-172.06,
40014720,-0.038,-1.243,0.967,-111.405,76.125,-191.45,
40014730,-0.133,-1.596,0.644,-98.49,127.33,-250.827,
40014740,-0.616,-1.476,0.769,-57.067,152.022,-304.202,
40014750,-0.427,-1.626,0.787,-13.195,208.565,-288.207,
40014760,0.292,-1.804,0.199,83.475,235.41,-239.89,
40014760,-1.094,-1.176,-0.37,168.962,156.695,-307.317,
40014780,-1.815,-0.337,-0.892,140.735,143.08,-373.765,
40014780,-1.998,0.165,-1.605,120.19,162.085,-311.395,
40014800,-1.521,0.95,-1.808,137.882,157.972,-196.052,
40014800,-0.46,1.441,-0.945,98.542,197.277,-39.742,
40014820,-0.084,0.967,-0.217,-4.252,190.505,96.74,
40014820,-0.663,0.427,1.734,-132.965,91.052,160.79,
40014830,1.181,0.542,1.883,-267.47,-252.84,116.025,
40014840,0.677,-1.751,-0.905,188.842,-70.98,178.64,
40014850,-1.888,-0.563,1.252,487.077,-79.852,67.182,
40014860,0.676,-0.901,1.708,241.937,-76.3,126.665,
40014870,-1.433,0.862,1.669,282.17,-121.677,121.555,
40014880,-0.037,0.778,1.259,175.525,-143.08,59.955,
40014890,1.03,1.367,1.011,75.67,-111.125,-33.897,
40014900,0.959,0.065,1.075,-11.427,-35.752,-56.472,
40014910,0.215,-0.542,0.969,-35.42,16.222,-42.962,
40014920,-0.143,-0.346,0.947,-28.035,30.485,-27.982,
40014930,-0.313,-0.384,0.96,-12.46,27.23,-20.265,
40014940,-0.35,-0.331,0.926,-0.63,17.395,-17.482,
40014950,-0.298,-0.331,0.951,-2.292,6.072,-17.85,
40014960,-0.25,-0.243,0.953,8.767,-4.637,-11.567,
40014970,-0.241,-0.214,0.967,9.012,-11.462,-1.785,
40014980,-0.168,-0.08,0.982,8.61,-15.207,2.012,
40014990,-0.056,-0.081,0.983,-1.837,-13.037,2.17,
40015000,-0.074,-0.125,0.987,-12.162,-7.56,6.422,
40015010,-0.081,-0.114,1,-22.54,-1.662,9.625,
40015020,-0.023,-0.146,1.028,-34.842,4.655,9.135,
40015030,0,-0.085,1.087,-50.102,15.452,6.93,
40015040,-0.024,-0.172,1.159,-69.772,29.155,-0.122,
40015050,-0.075,-0.398,1.191,-88.427,42.402,-13.3,
40015060,-0.06,-0.501,1.267,-95.987,49.402,-18.48,
40015070,0.056,-0.501,1.185,-103.005,61.337,-14.017,
40015080,0.315,-0.727,1.423,-119.455,100.502,-14.507,
40015090,-0.34,-1.61,1.858,-128.17,174.492,-15.872,
40015100,-1.911,-1.891,1.459,-57.557,137.357,0.56,
40015110,0.091,-1.309,-0.354,109.777,67.847,62.755,
40015120,1.042,-1.998,-0.425,106.277,-7.595,52.622,
40015130,0.37,-1.998,-0.156,-24.15,6.755,2.24,
40015140,-0.064,-1.724,-0.081,-25.077,-43.54,3.727,
40015150,0.285,-1.417,0.264,-69.212,-68.67,9.66,
40015160,-0.043,-1.015,0.011,-156.467,-86.677,14.07,
40015170,-0.282,-0.195,0.186,-187.022,-93.695,19.722,
40015170,-0.386,0.334,0.249,-234.937,-79.082,33.565,
40015190,-0.263,1.078,-0.025,-241.815,-61.827,54.932,
40015190,0.376,1.913,0.127,-224.647,-38.71,78.837,
40015210,0.705,1.84,-0.08,-237.02,4.725,85.785,
40015210,0.637,1.997,1.9,-94.342,43.487,72.432,
40015230,-1.832,1.035,-0.151,280.997,43.68,154.07,
40015230,-1.838,-1.984,1.284,491.452,-92.802,217.77,
40015240,0.452,0.452,1.729,298.112,-123.707,135.152,
40015250,-1.959,0.176,1.521,334.547,-164.797,93.467,
40015260,-0.189,0.019,1.591,167.79,-200.725,8.295,
40015270,1.441,1.479,0.895,128.222,-156.52,-8.242,
40015280,0.81,-0.03,1.05,-33.127,-41.527,-7.157,
40015290,0.108,-0.445,0.978,-38.167,4.532,16.887,
40015300,-0.201,-0.569,0.95,-30.8,11.62,17.99,
40015310,-0.273,-0.424,0.949,-7.507,3.78,11.375,
40015320,-0.2,-0.191,0.97,0.665,-2.905,2.117,
40015330,0.006,-0.101,0.976,0.84,-3.5,-0.945,
40015340,-0.079,-0.254,0.959,-6.755,2.555,7.98,
40015350,-0.126,-0.252,0.959,-8.295,5.775,11.305,
40015360,0.014,-0.094,0.978,-8.522,9.38,8.855,
40015370,-0.006,-0.063,0.988,-18.27,19.425,8.365,
40015380,0.005,-0.085,1.009,-30.327,29.837,7.052,
40015390,0.054,-0.097,1.033,-42.49,42.017,6.317,
40015400,-0.008,-0.171,1.07,-55.177,55.282,8.102,
40015410,-0.154,-0.224,1.057,-66.85,66.307,9.432,
40015420,-0.301,-0.244,1.07,-75.355,71.26,7.717,
40015430,-0.227,-0.139,1.076,-89.652,73.675,1.977,
40015440,-0.309,-0.161,1.024,-111.545,70,-3.885,
40015450,-0.168,-0.302,1.032,-132.947,66.237,-9.415,
40015460,-0.239,-0.299,1.029,-143.43,71.592,-15.295,
40015470,-0.257,-0.352,1.041,-145.477,83.667,-21.087,
40015480,-0.247,-0.538,1.049,-143.64,93.03,-23.66,
40015490,-0.268,-0.673,1.021,-134.995,100.625,-20.877,
40015500,-0.429,-0.865,1,-116.077,117.32,-8.802,
40015510,-0.419,-1.323,0.896,-76.3,110.932,11.742,
40015510,0.364,-1.937,0.884,-1.102,75.547,4.585,
40015530,-0.524,-1.56,0.528,43.277,7.77,-22.802,
40015530,0.918,-1.505,0.428,2.222,-62.72,-106.522,
40015550,-0.072,-1.282,0.02,15.242,-42.14,-150.622,
40015550,-1.32,-0.668,-0.162,41.317,-35.21,-165.935,
40015570,-1.339,-0.161,-0.426,33.617,-36.015,-161.192,
40015570,-0.583,0.297,-0.742,26.285,-3.937,-132.317,
40015580,-0.005,0.585,-1.277,43.732,62.37,-94.395,
40015590,0.236,1.059,-1.551,57.89,121.152,-78.75,
40015600,-1.01,1.696,0.68,-1.242,111.16,-98.805,
40015610,-0.786,-0.249,0.605,-159.652,-12.792,-147.315,
40015620,-0.368,-1.958,0.63,391.072,22.627,73.517,
40015630,-1.652,-1.522,1.2,396.742,-116.952,3.972,
40015640,-0.057,0.964,1.464,212.082,-155.347,50.767,
40015650,-0.823,0.414,1.605,231.157,-171.955,50.4,
40015660,0.45,0.776,1.342,128.555,-156.992,7.262,
40015670,0.943,1.128,0.974,65.415,-87.15,-31.36,
40015680,0.748,-0.133,1.053,-17.342,-6.02,-43.155,
40015690,0.087,-0.341,0.954,-27.597,35.822,-28.07,
40015700,-0.287,-0.348,0.955,-29.487,46.725,-4.742,
40015710,-0.539,-0.403,0.938,-18.445,37.887,2.187,
40015720,-0.461,-0.266,0.936,-8.032,20.177,-8.61,
40015730,-0.238,-0.219,0.965,-9.8,8.015,-15.12,
40015740,-0.216,-0.196,0.953,-9.17,3.745,-11.725,
40015750,-0.192,-0.269,0.958,-14.297,1.855,-9.345,
40015760,-0.169,-0.157,0.98,-12.757,0.227,-5.285,
40015770,-0.206,-0.093,1.012,-18.042,2.537,-5.39,
40015780,-0.202,-0.029,1.056,-29.225,5.145,-12.565,
40015790,-0.26,-0.106,1.074,-46.077,7.612,-21.98,
40015800,-0.2,-0.23,1.091,-67.602,5.53,-30.117,
40015810,-0.16,-0.15,1.04,-89.985,7.35,-35.682,
40015820,-0.403,-0.229,1.201,-119.455,20.317,-47.705,
40015830,-0.23,-0.159,1.02,-147.455,10.797,-58.205,
40015840,-0.181,-0.314,1.026,-160.422,14.507,-62.79,
40015850,-0.162,-0.376,1.012,-176.435,27.3,-72.065,
40015860,-0.265,-0.515,1.049,-181.02,32.147,-86.065,
40015870,-0.353,-0.589,1.055,-167.527,23.94,-101.307,
40015880,-0.238,-0.798,0.701,-149.852,28.052,-113.802,
40015890,-0.276,-1.364,0.982,-102.41,73.57,-110.372,
40015900,-0.011,-1.721,1.263,-67.62,97.195,-147.525,
40015910,0.836,-1.837,1.55,-9.782,136.5,-176.662,
40015910,0.737,-1.628,0.672,90.632,147.35,-190.207,
40015920,-1.709,-0.387,-0.469,135.205,-21.892,-244.667,
40015930,-1.479,0.26,-0.966,75.985,20.195,-219.922,
40015940,-1.132,0.564,-0.708,15.452,24.552,-84.035,
40015950,-0.694,0.39,-0.848,-26.092,23.45,30.065,
40015960,-0.294,0.507,-0.754,-68.18,36.942,114.87,
40015970,0.115,0.588,-0.45,-113.505,42.332,169.137,
40015980,0,0.598,0.333,-131.81,6.79,178.36,
40015990,1.829,-1.352,1.998,-140.595,8.47,85.067,
40016000,0.042,-1.593,-0.149,291.585,-55.16,56.805,
40016010,-1.787,-1.909,0.333,422.117,-83.387,-22.05,
40016020,1.401,-1.132,1.402,205.135,-19.582,84.227,
40016030,-1.026,1.809,1.139,354.62,-48.352,53.34,
40016040,-0.817,-0.344,1.717,285.827,-63.892,43.172,
40016050,-0.991,-0.088,1.605,195.107,-108.535,11.427,
40016060,0.721,1.151,1.192,158.095,-118.895,-15.925,
40016070,0.682,0.559,0.999,37.712,-60.112,-29.102,
40016080,0.409,-0.054,1.014,-18.935,-4.62,-18.34,
40016090,0.026,-0.247,0.977,-29.977,21.63,-11.76,
40016100,-0.126,-0.375,0.958,-30.625,28.49,-8.435,
40016110,-0.283,-0.301,0.952,-20.335,27.282,-3.377,
40016120,-0.357,-0.24,0.966,-18.515,20.107,-2.992,
40016130,-0.233,-0.189,0.97,-19.722,12.372,-5.565,
40016140,-0.183,-0.196,0.998,-26.582,8.347,-0.735,
40016150,-0.186,-0.168,1.006,-33.232,7.07,4.322,
40016160,-0.156,-0.155,1.054,-46.812,5.442,3.272,
40016170,-0.14,-0.082,1.124,-64.05,5.6,2.8,
40016180,-0.114,-0.082,1.162,-88.725,6.912,1.47,
40016190,-0.144,-0.183,1.087,-122.535,11.322,-3.062,
40016200,-0.17,-0.183,1.159,-151.025,19.74,-11.392,
40016210,-0.155,-0.161,1.04,-167.475,25.9,-18.392,
40016220,-0.154,-0.257,0.993,-190.645,36.732,-20.615,
40016230,-0.139,-0.329,1.036,-203.367,46.48,-21.385,
40016240,-0.067,-0.473,1.124,-205.957,53.515,-18.987,
40016250,-0.042,-0.542,1.276,-204.942,60.865,-8.977,
40016260,-0.086,-0.596,1.232,-188.615,72.152,10.22,
40016260,-0.113,-1.198,0.83,-159.792,65.607,24.325,
40016280,-0.018,-1.992,0.625,-132.667,12.442,12.792,
40016280,0.565,-1.998,0.291,-99.067,-57.82,9.187,
40016300,0.15,-1.862,0.229,-49.49,-87.955,49.472,
40016300,-0.231,-1.86,0.941,-129.99,-83.282,63.63,
40016320,-0.291,-1.782,0.9,-206.132,-87.01,68.827,
40016320,0.308,-1.082,0.866,-193.165,-72.082,82.88,
40016330,0.687,-0.675,1.203,-204.837,-23.572,69.002,
40016340,0.438,-0.76,1.605,-250.46,18.637,-1.802,
40016350,-0.109,-0.832,1.676,-261.87,28.927,-82.582,
40016360,-0.383,-0.794,1.563,-235.357,15.435,-126.542,
40016370,-0.376,-0.551,1.484,-209.177,-2.012,-149.03,
40016380,-0.543,-0.424,1.639,-219.222,-10.29,-166.74,
40016390,-0.93,-0.478,1.809,-240.135,-17.867,-170.502,
40016400,-1.081,-0.433,1.871,-247.537,-33.355,-160.965,
40016410,-1.026,-0.358,1.733,-237.212,-55.86,-131.897,
40016420,-0.831,-0.308,1.508,-215.04,-74.252,-91.437,
40016430,-0.579,-0.322,1.342,-191.922,-72.607,-55.23,
40016440,-0.507,-0.348,1.202,-181.527,-60.042,-31.22,
40016450,-0.529,-0.38,1.055,-166.897,-49.805,-18.602,
40016460,-0.604,-0.349,0.832,-137.007,-51.677,-9.537,
40016470,-0.585,-0.341,0.57,-102.69,-57.837,-5.442,
40016480,-0.489,-0.33,0.314,-68.302,-57.33,-1.277,
40016490,-0.421,-0.297,0.123,-38.307,-47.075,4.725,
40016500,-0.348,-0.296,-0.001,-10.727,-30.065,9.747,
40016510,-0.316,-0.294,-0.056,11.917,-9.17,12.092,
40016520,-0.325,-0.261,-0.062,27.772,7.612,12.512,
40016530,-0.356,-0.205,-0.076,40.775,13.37,14.227,
40016540,-0.254,-0.152,-0.016,46.287,13.615,17.01,
40016550,-0.08,-0.189,0.114,48.947,16.24,17.307,
40016560,0.083,-0.229,0.217,63.14,17.29,11.287,
40016570,0.219,-0.177,0.249,84.087,21.822,-0.262,
40016580,0.371,-0.142,0.283,105.332,31.412,-15.68,
40016580,0.377,-0.18,0.384,118.79,47.6,-38.465,
40016600,0.112,-0.31,0.393,130.987,59.08,-58.94,
40016600,-0.147,-0.347,0.34,152.81,55.545,-68.267,
40016620,-0.185,-0.277,0.312,173.18,43.732,-63,
40016620,-0.215,-0.26,0.265,179.182,34.072,-45.22,
40016640,-0.286,-0.274,0.227,180.022,23.835,-22.4,
40016640,-0.283,-0.309,0.136,183.487,15.942,1.89,
40016660,-0.312,-0.312,0.019,188.37,6.842,26.95,
40016660,-0.33,-0.242,-0.095,185.342,-3.727,46.952,
40016670,-0.272,-0.194,-0.106,171.867,-8.715,67.2,
40016680,-0.103,-0.272,-0.024,153.597,-3.482,87.622,
40016690,0.149,-0.4,0.072,145.215,6.51,98.472,
40016700,0.347,-0.48,0.165,151.76,11.83,87.272,
40016710,0.501,-0.478,0.208,163.275,11.445,58.345,
40016720,0.49,-0.499,0.303,167.615,7.07,19.74,
40016730,0.381,-0.644,0.344,165.252,-10.255,-31.692,
40016740,0.322,-0.799,0.322,170.922,-36.015,-80.99,
40016750,0.351,-0.864,0.211,186.427,-57.207,-123.777,
40016760,0.318,-0.874,0.078,196.262,-49.91,-154.21,
40016770,0.121,-0.895,-0.021,192.815,-18.987,-161.157,
40016780,-0.07,-1.025,-0.13,175.822,13.457,-147.962,
40016790,-0.022,-1.091,-0.018,147.42,31.36,-124.6,
40016800,0.227,-1.159,0.484,97.755,44.17,-107.397,
40016810,0.262,-1.477,0.91,46.917,53.777,-101.01,
40016820,0.228,-1.545,1.257,31.885,54.32,-96.04,
40016830,0.259,-1.372,1.584,17.167,44.362,-92.26,
40016840,0.275,-1.392,1.953,-16.17,42.315,-93.205,
40016850,1.091,-1.08,1.84,-27.09,57.715,-86.292,
40016860,1.285,1.131,1.998,-43.75,136.517,36.505,
40016870,-1.784,-1.669,1.683,-118.615,-64.96,99.645,
40016880,1.177,-1.911,1.419,124.39,-151.532,37.8,
40016890,1.518,-0.427,1.918,146.807,-57.347,11.83,
40016900,-1.127,-0.574,1.772,-58.87,3.867,-59.395,
40016910,-0.738,-1.438,1.917,-162.96,10.43,-89.512,
40016920,0.363,-1.042,1.998,-76.72,0.63,-39.392,
40016930,0.008,-0.245,1.984,-13.09,9.082,-38.937,
40016940,-0.249,-0.383,1.9,-71.715,25.357,-85.802,
40016950,-0.295,-0.623,1.826,-85.54,24.5,-85.645,
40016960,-0.264,-0.446,1.687,-51.152,17.71,-71.767,
40016970,-0.206,-0.279,1.555,-39.707,24.062,-50.12,
40016980,-0.164,-0.36,1.443,-54.162,33.582,-38.605,
40016990,-0.12,-0.398,1.313,-57.26,40.775,-36.05,
40017000,-0.166,-0.407,1.114,-41.51,38.43,-41.23,
40017010,-0.278,-0.317,0.913,-30.432,20.125,-57.802,
40017010,-0.272,-0.319,0.773,-30.607,4.515,-66.78,
40017030,-0.351,-0.389,0.664,-26.722,4.06,-56.805,
40017030,-0.475,-0.377,0.493,-15.172,3.675,-36.785,
40017050,-0.452,-0.299,0.299,-6.807,-0.122,-13.16,
40017050,-0.355,-0.281,0.193,-8.417,-0.77,11.707,
40017070,-0.326,-0.274,0.16,-14.91,5.092,34.107,
40017070,-0.288,-0.274,0.139,-16.537,8.907,54.845,
40017080,-0.087,-0.256,0.146,-17.045,12.635,72.87,
40017090,0.146,-0.321,0.149,-15.592,18.742,82.18,
40017100,0.265,-0.374,0.082,-7.297,18.41,74.322,
40017110,0.329,-0.339,-0.017,4.515,10.675,54.057,
40017120,0.319,-0.301,-0.071,6.195,2.73,29.802,
40017130,0.186,-0.313,-0.094,-0.822,-3.5,8.032,
40017140,-0.014,-0.309,-0.101,-5.005,-9.537,-3.902,
40017150,-0.158,-0.296,-0.087,-8.645,-16.292,-3.622,
40017160,-0.084,-0.369,-0.124,-16.52,-15.33,7.455,
40017170,0.175,-0.517,-0.102,-23.1,-0.892,26.407,
40017180,0.241,-0.661,0.045,-31.29,6.475,30.327,
40017190,0.263,-0.805,0.147,-43.715,2.975,17.115,
40017200,0.317,-0.872,0.27,-59.815,4.41,2.082,
40017210,0.245,-0.918,0.494,-84.647,10.115,-11.532,
40017220,0.206,-1.03,0.691,-110.722,15.12,-15.155,
40017230,0.343,-1.032,0.783,-124.145,16.292,-4.27,
40017240,0.594,-0.963,1.029,-138.162,18.585,6.37,
40017250,0.638,-1.164,1.291,-165.357,18.112,4.427,
40017260,0.571,-1.238,1.51,-177.94,2.66,-15.925,
40017270,0.456,-0.981,1.611,-175.997,-16.782,-45.132,
40017280,0.416,-0.724,1.728,-180.407,-16.73,-63.035,
40017290,0.255,-0.825,1.913,-187.687,-5.355,-58.625,
40017300,0.079,-1.341,1.732,-190.505,-5.915,-46.025,
40017310,-0.088,-1.627,1.591,-162.89,-23.135,-33.827,
40017320,-0.007,-0.871,1.488,-75.04,-43.907,-16.905,
40017330,-0.098,-0.705,1.486,-109.375,-39.06,-47.81,
40017330,-0.359,-1.148,1.43,-125.37,-24.202,-53.952,
40017350,-0.324,-0.906,1.243,-91.892,-13.177,-42.7,
40017350,-0.254,-0.758,1.131,-90.44,-2.66,-27.072,
40017370,-0.115,-0.957,1.245,-94.762,7.105,-18.515,
40017370,-0.116,-0.924,1.316,-83.807,10.045,-17.78,
40017390,-0.211,-0.793,1.201,-66.57,12.442,-17.377,
40017390,-0.193,-0.737,1.08,-40.74,17.255,-14.28,
40017410,-0.221,-0.719,0.94,-20.807,23.572,-15.662,
40017410,-0.3,-0.69,0.804,-3.202,29.452,-15.505,
40017420,-0.323,-0.612,0.693,12.092,33.67,-10.36,
40017430,-0.331,-0.542,0.573,21.385,35.542,0.297,
40017440,-0.255,-0.485,0.437,28.7,36.242,12.775,
40017450,-0.127,-0.454,0.377,34.825,40.547,27.387,
40017460,-0.054,-0.488,0.319,39.095,42.787,35.717,
40017470,0.058,-0.513,0.244,44.222,38.815,35.77,
40017480,0.222,-0.481,0.192,48.702,35.402,30.87,
40017490,0.336,-0.493,0.189,50.855,32.795,18.427,
40017500,0.35,-0.484,0.192,49.455,28.577,-4.235,
40017510,0.326,-0.464,0.195,50.067,24.885,-25.48,
40017520,0.254,-0.442,0.126,55.685,18.742,-45.692,
40017530,0.204,-0.379,0.065,61.81,14.175,-56.437,
40017540,0.133,-0.349,0.066,60.707,11.077,-60.585,
40017550,0.041,-0.383,0.066,53.567,8.417,-58.94,
40017560,0.045,-0.377,0.042,51.187,5.652,-47.302,
40017570,0.109,-0.324,0.03,48.772,3.027,-33.355,
40017580,0.095,-0.344,0.036,38.955,-0.77,-22.522,
40017590,0.11,-0.38,0.017,27.492,-6.79,-12.477,
40017600,0.176,-0.394,0.036,19.022,-11.707,-2.677,
40017610,0.171,-0.428,0.061,8.645,-13.825,3.552,
40017620,0.152,-0.452,0.055,-0.56,-15.242,8.032,
40017630,0.237,-0.441,0.088,-7.542,-16.17,12.127,
40017640,0.286,-0.503,0.179,-18.532,-15.277,14.07,
40017650,0.251,-0.606,0.27,-29.365,-17.202,11.935,
40017660,0.243,-0.664,0.424,-36.732,-22.33,9.992,
40017670,0.185,-0.73,0.618,-48.37,-28.017,10.43,
40017680,0.155,-0.801,0.835,-59.517,-30.415,14.857,
40017690,-0.023,-0.828,0.951,-63.647,-36.89,23.817,
40017700,-0.21,-0.88,0.976,-64.382,-52.885,36.697,
40017710,-0.152,-0.871,1.007,-69.877,-60.532,51.59,
40017720,-0.096,-0.918,1.101,-71.96,-53.322,69.597,
40017730,-0.16,-1.102,1.146,-64.4,-40.337,85.26,
40017740,-0.169,-1.258,1.072,-48.002,-35.822,97.947,
40017750,-0.073,-1.405,1.063,-32.392,-35.017,112.192,
40017760,0.012,-1.519,1.089,-40.67,-35.56,113.085,
40017760,0.158,-1.486,1.195,-51.257,-33.845,95.9,
40017780,0.171,-1.59,1.238,-54.425,-20.352,78.12,
40017780,0.118,-1.636,1.266,-14.91,-9.73,48.685,
40017800,-0.127,-1.363,1.157,9.415,-6.527,17.062,
40017800,-0.107,-1.276,1.064,13.737,2.135,-1.837,
40017820,0.02,-1.235,1.061,6.72,15.925,-19.827,
40017820,-0.061,-1.207,1.03,0.332,29.365,-32.812,
40017830,-0.114,-1.163,1,15.452,36.137,-41.597,
40017840,-0.222,-0.993,0.909,29.12,31.727,-55.457,
40017850,-0.358,-0.776,0.731,31.57,21.227,-63.49,
40017860,-0.305,-0.56,0.464,34.982,10.325,-61.162,
40017870,-0.072,-0.336,0.252,31.447,7.42,-51.992,
40017880,-0.019,-0.206,0.196,14.21,2.712,-45.57,
40017890,0.044,-0.156,0.349,-6.895,-10.29,-47.337,
40017900,0.156,-0.188,0.586,-27.755,-21.315,-50.137,
40017910,0.271,-0.225,0.887,-36.627,-19.512,-50.12,
40017920,0.337,-0.197,0.936,-26.162,0.945,-41.667,
40017930,0.169,-0.196,0.727,0.28,33.46,-24.92,
40017940,-0.07,-0.173,0.452,40.127,53.27,-4.007,
40017950,-0.142,-0.007,0.237,80.045,42.682,18.987,
40017960,0.071,0.009,0.153,89.495,28.577,37.1,
40017970,0.192,-0.108,0.164,83.177,27.527,55.58,
40017980,0.238,-0.207,0.239,85.907,32.13,68.932,
40017990,0.36,-0.262,0.142,98.175,47.565,78.242,
40018000,0.392,-0.285,-0.027,116.69,64.557,88.83,
40018010,0.51,-0.344,-0.006,119.647,98.297,98.507,
40018020,0.386,-0.587,-0.19,124.46,154.98,120.732,
40018030,-0.24,-0.639,-0.213,134.312,168.56,135.397,
40018040,-0.319,-0.647,0.028,106.767,126.787,129.395,
40018050,0.076,-1.053,0.324,58.17,79.222,127.75,
40018060,0.24,-1.404,0.314,41.982,43.837,117.11,
40018070,0.17,-1.251,0.33,53.27,16.66,88.06,
40018080,0.086,-1.138,0.372,37.327,-10.22,56.752,
40018080,0.049,-1.212,0.385,9.712,-30.642,31.745,
40018100,-0.117,-0.99,0.546,-4.567,-43.452,8.89,
40018100,-0.328,-0.778,0.651,-26.285,-50.907,-10.36,
40018120,-0.42,-0.761,0.818,-53.795,-52.412,-16.292,
40018120,-0.561,-0.718,1.005,-68.687,-42.367,-14.28,
40018140,-0.708,-0.592,1.284,-73.622,-25.287,-8.015,
40018140,-0.394,-0.924,1.434,-95.585,-8.505,-18.322,
40018160,-0.733,-0.572,1.525,-37.275,-2.852,18.97,
40018160,-0.615,-0.49,1.666,3.797,3.92,37.905,
40018170,-0.704,-0.749,1.835,7.63,3.29,42.752,
40018180,-0.764,-0.696,1.881,12.162,-1.96,22.19,
40018190,-0.861,-0.562,1.87,22.907,-5.092,9.975,
40018200,-1.035,-0.658,1.795,29.172,-1.697,17.307,
40018210,-1.063,-0.65,1.635,52.622,0.787,31.605,
40018220,-1,-0.688,1.506,73.85,5.32,39.445,
40018230,-1.028,-0.746,1.315,87.587,13.09,44.24,
40018240,-1.055,-0.643,0.94,101.01,19.652,50.627,
40018250,-0.987,-0.481,0.419,103.95,25.76,61.67,
40018260,-0.718,-0.252,0.118,75.617,36.662,73.465,
40018270,-0.451,-0.269,0.239,12.337,50.12,71.54,
40018280,-0.22,-0.65,0.76,-61.337,67.742,59.57,
40018290,0.02,-1.153,1.062,-100.712,93.292,34.055,
40018300,0.1,-1.134,0.993,-81.217,108.99,9.257,
40018310,0.046,-0.884,0.806,-48.825,109.217,-8.872,
40018320,0.027,-0.849,0.655,-25.812,92.295,-29.05,
40018330,0.007,-0.851,0.574,-5.845,72.345,-47.005,
40018340,-0.046,-0.775,0.506,14.665,61.215,-54.635,
40018350,-0.169,-0.577,0.323,38.097,57.662,-48.947,
40018360,-0.403,-0.244,0.136,66.43,43.172,-26.862,
40018370,-0.38,-0.148,0.063,86.59,27.422,6.125,
40018380,-0.255,-0.113,-0.032,87.255,18.025,31.272,
40018390,-0.276,-0.011,-0.023,85.767,11.095,59.307,
40018400,-0.18,0.002,-0.005,78.557,14,82.547,
40018410,-0.059,-0.046,0.052,72.012,28.717,109.532,
40018420,0.017,-0.206,0.078,68.827,34.597,121.94,
40018430,0.254,-0.364,-0.073,72.992,33.197,124.6,
40018440,0.623,-0.332,-0.3,78.662,23.537,118.195,
40018450,1.109,-0.466,-0.237,60.707,39.795,86.187,
40018460,1.015,-0.645,-0.111,20.317,64.172,20.09,
40018470,0.264,-1.53,-0.213,23.677,42.962,-66.22,
40018480,-1.121,-1.998,1.321,277.147,-141.872,-169.575,
40018490,-1.133,-1.997,-1.899,484.802,-305.27,-72.012,
40018500,0.377,1.553,1.785,387.485,-199.272,18.55,
40018510,-0.436,1.771,1.359,172.322,-123.182,-17.797,
40018510,-0.344,-1.38,1.477,312.427,-133.455,-6.947,
40018530,-0.417,-0.179,1.598,357.682,-152.092,27.247,
40018530,-0.467,0.63,1.523,235.042,-160.562,-13.86,
40018550,0.875,0.709,1.209,103.355,-126.542,-31.552,
40018550,0.823,0.751,0.981,43.295,-58.065,-42.262,
40018570,0.25,-0.143,1.019,-24.587,8.767,-27.825,
40018570,-0.094,-0.411,0.972,-29.032,32.305,-25.847,
40018580,-0.206,-0.279,0.957,-25.69,33.32,-23.31,
40018590,-0.311,-0.268,0.963,-29.33,31.78,-13.317,
40018600,-0.454,-0.218,0.954,-29.907,22.925,-12.18,
40018610,-0.394,-0.22,0.997,-27.23,9.205,-21.525,
40018620,-0.268,-0.165,1.005,-24.167,-2.17,-17.552,
40018630,-0.169,-0.175,1.062,-43.855,-7.14,-21.91,
40018640,-0.228,-0.122,1.088,-70.07,-7.21,-21.98,
40018650,-0.254,-0.107,1.146,-99.12,-2.625,-21.647,
40018660,-0.198,-0.067,1.22,-140.857,-0.157,-31.307,
40018670,-0.091,-0.17,1.13,-174.737,-0.63,-42.07,
40018680,0,-0.157,1.078,-198.695,11.48,-43.382,
40018690,0.012,-0.155,1.033,-218.137,27.457,-42.472,
40018700,-0.005,-0.226,0.975,-227.412,38.78,-38.867,
40018710,-0.159,-0.414,0.991,-227.92,41.947,-40.617,
40018720,-0.258,-0.389,1.087,-210,29.225,-41.02,
40018730,-0.142,-0.327,1.234,-207.655,18.812,-30.765,
40018740,-0.283,-0.8,1.172,-228.042,11.025,-27.107,
40018750,-0.443,-0.994,0.932,-180.6,-1.645,-9.537,
40018760,-0.449,-0.87,0.828,-107.03,-26.967,12.775,
40018770,-0.337,-0.871,0.673,-82.32,-49.262,12.95,
40018780,-0.348,-0.861,1.009,-47.022,-70.017,10.745,
40018790,-0.061,-0.625,1.179,-6.195,-54.057,17.972,
40018800,-0.233,-0.321,0.002,104.317,-62.475,13.002,
40018810,-1.052,-0.075,-0.533,161.21,-95.34,11.357,
40018820,-0.891,-0.144,-1.313,136.167,-49.087,45.972,
40018830,-0.84,-0.187,-1.788,120.487,-36.522,101.937,
40018830,-0.849,-0.138,-1.328,70.332,-41.86,147.875,
40018850,-0.465,-0.263,-0.811,-31.22,-28.997,200.095,
40018850,-0.618,-0.632,-0.143,-85.085,-61.985,215.67,
40018870,1.998,-1.913,1.998,5.74,22.312,83.632,
40018870,-0.292,-1.879,-1.349,410.602,63.91,99.715,
40018890,-1.973,0.959,0.721,405.562,-15.785,-53.672,
40018890,0.586,0.182,0.97,252.315,25.935,61.845,
40018910,0.794,-0.347,1.905,360.115,-3.447,151.742,
40018910,-1.956,0.204,1.937,371.7,-68.11,67.707,
40018920,-0.657,0.583,1.412,182.927,-129.395,34.562,
40018930,1.316,1.443,0.958,80.657,-115.675,-37.975,
40018940,1.139,0.259,1.017,-5.862,-32.847,-53.165,
40018950,0.395,-0.607,0.991,-34.737,32.147,-28.84,
40018960,-0.086,-0.287,0.95,-12.88,53.987,-8.61,
40018970,-0.353,-0.269,0.968,-14.07,55.177,5.022,
40018980,-0.744,-0.297,0.943,-15.82,42.805,2.467,
40018990,-0.381,-0.252,0.95,-8.61,19.04,-4.182,
40019000,-0.315,-0.171,0.959,-7.997,5.46,-1.68,
40019010,-0.253,-0.124,0.989,-13.93,-0.892,5.547,
40019020,-0.24,-0.05,1.028,-23.555,-3.78,6.737,
40019030,-0.164,-0.068,1.079,-41.23,-4.27,3.062,
40019040,-0.067,-0.064,1.166,-64.61,-4.305,0.175,
40019050,-0.087,-0.107,1.205,-95.095,-3.902,-2.187,
40019060,0.002,-0.079,1.223,-128.572,-2.222,-2.607,
40019070,-0.129,-0.088,1.158,-158.165,1.435,-2.607,
40019080,-0.116,-0.169,1.022,-179.602,3.115,-0.07,
40019090,-0.106,-0.245,0.967,-187.617,11.48,-2.03,
40019100,-0.075,-0.264,0.972,-194.022,19.757,-9.1,
40019110,-0.05,-0.365,0.981,-198.572,28.997,-11.445,
40019120,-0.052,-0.373,1.015,-195.772,38.955,-15.277,
40019130,-0.059,-0.538,1.067,-194.39,52.482,-14.262,
40019140,-0.098,-0.688,0.972,-184.8,64.382,-10.062,
40019150,-0.224,-0.719,0.942,-140.997,64.942,9.905,
40019160,-0.398,-0.845,0.843,-129.097,56.42,10.797,
40019170,-0.423,-1.101,0.7,-89.302,36.19,14.437,
40019180,-0.201,-1.008,0.848,-22.855,31.902,26.53,
40019190,-0.164,-0.942,0.845,25.34,32.69,29.68,
40019200,0.766,-0.595,-0.269,99.295,-2.45,-0.997,
40019210,0.579,0.121,-1.011,160.825,-24.202,-52.237,
40019220,-0.055,0.206,-0.623,99.645,-6.562,-118.387,
40019230,-0.797,0.098,-0.432,-16.572,7.997,-146.877,
40019230,-0.903,0.355,-0.457,-45.412,-6.702,-137.462,
40019250,-0.951,-0.177,0.916,4.532,-2.415,-106.33,
40019250,-0.69,-1.503,0.977,153.895,77.997,-39.357,
40019260,-0.331,-1.998,-0.4,376.285,-14.455,47.092,
40019270,0.165,-0.498,1.373,285.285,19.127,0.577,
40019280,-0.29,1.546,0.944,311.797,-13.58,1.347,
40019290,-0.698,-0.469,1.487,328.195,-26.687,39.077,
40019300,-0.816,-0.097,1.871,261.117,-68.145,74.69,
40019310,-1.229,0.651,1.45,217.822,-118.16,31.202,
40019320,0.903,1.084,1.096,78.557,-114.415,-11.672,
40019330,0.857,0.18,0.972,3.972,-58.852,-42.945,
40019340,0.533,-0.172,0.956,-13.212,-3.972,-19.057,
40019350,-0.034,-0.307,0.978,-25.235,28.77,-0.542,
40019360,-0.172,-0.256,0.97,-19.845,34.335,2.607,
40019370,-0.284,-0.25,0.986,-25.532,33.495,1.05,
40019380,-0.252,-0.175,0.991,-24.692,27.72,-0.805,
40019390,-0.178,-0.159,1,-33.6,24.412,2.257,
40019400,-0.177,-0.256,0.996,-43.802,22.452,6.667,
40019410,-0.142,-0.187,1.044,-47.985,21.455,10.43,
40019420,-0.157,-0.137,1.113,-61.302,22.067,12.407,
40019430,-0.185,-0.127,1.166,-83.23,23.502,10.622,
40019440,-0.181,-0.082,1.179,-111.072,22.347,3.272,
40019450,-0.222,-0.136,1.084,-143.097,21.577,-6.44,
40019460,-0.245,-0.206,0.989,-163.8,23.607,-18.41,
40019470,-0.21,-0.236,0.955,-169.715,29.89,-27.247,
40019480,-0.167,-0.275,0.935,-176.732,36.645,-39.585,
40019490,-0.178,-0.34,0.902,-180.792,40.582,-48.317,
40019500,-0.155,-0.501,0.903,-181.545,43.855,-54.057,
40019510,-0.172,-0.663,0.889,-169.4,42.875,-55.632,
40019520,-0.207,-0.609,0.994,-147.227,45.447,-54.67,
40019530,-0.194,-0.629,0.688,-129.412,61.127,-37.222,
40019540,-0.428,-0.866,0.699,-119.367,68.355,-24.85,
40019550,-0.14,-1.093,0.598,-76.912,70.017,-41.825,
40019560,-0.231,-0.994,0.544,-30.537,54.617,-74.795,
40019570,-0.248,-0.832,0.449,9.117,38.727,-83.055,
40019580,0.064,-0.727,-0.232,53.375,24.045,-72.082,
40019580,1.841,-0.601,-0.34,86.922,44.695,-85.032,
40019600,-0.515,0.214,-0.151,64.522,5.442,-146.825,
40019600,-1.998,0.614,0.395,0,15.295,-232.907,
40019620,-0.954,0.354,1.96,47.547,5.88,-179.795,
40019620,1.779,-0.378,0.468,234.255,-14.367,78.277,
40019640,0.475,-1.995,0.226,247.397,39.147,176.522,
40019640,-0.848,-1.603,0.786,244.195,22.977,5.74,
40019660,-0.523,1.009,0.532,311.482,-10.115,-43.137,
40019660,-0.849,0.08,1.231,322.63,-18.62,36.662,
40019670,-1.047,-0.13,1.832,284.707,-63.14,53.83,
40019680,-0.919,0.436,1.628,242.882,-127.277,5.355,
40019690,0.924,1.022,1.212,113.627,-126.63,-23.677,
40019700,0.837,0.567,0.982,34.737,-64.977,-37.275,
40019710,0.524,0.044,1.009,-22.032,-0.752,-19.425,
40019720,0.097,-0.322,1.011,-44.765,35.385,-8.855,
40019730,-0.132,-0.303,0.963,-42.315,46.882,-3.43,
40019740,-0.307,-0.347,0.969,-46.76,46.69,8.295,
40019750,-0.417,-0.338,0.958,-41.335,37.922,12.145,
40019760,-0.3,-0.248,0.971,-39.27,22.697,5.635,
40019770,-0.2,-0.234,1.001,-42.175,13.842,10.92,
40019780,-0.175,-0.193,1.038,-48.02,9.992,16.24,
40019790,-0.161,-0.144,1.109,-61.442,9.345,18.392,
40019800,-0.2,-0.041,1.142,-83.457,7.77,17.78,
40019810,-0.204,-0.072,1.164,-114.45,4.077,16.747,
40019820,-0.207,-0.085,1.082,-144.672,-0.157,13.93,
40019830,-0.208,-0.12,1.058,-163.135,-2.502,12.512,
40019840,-0.235,-0.151,1.002,-184.73,-5.32,7.805,
40019850,-0.22,-0.234,1.012,-199.71,-5.547,7.192,
40019860,-0.308,-0.335,1.125,-211.242,-10.465,3.815,
40019870,-0.367,-0.47,1.267,-219.415,-27.615,1.12,
40019880,-0.376,-0.582,1.195,-214.725,-64.557,-2.327,
40019890,-0.53,-0.656,1.258,-180.215,-97.842,15.505,
40019900,-0.328,-0.841,1.148,-146.405,-113.137,42.63,
40019910,0.171,-0.906,1.03,-100.625,-99.645,75.075,
40019920,-0.022,-1.034,1.132,-75.757,-73.622,78.802,
40019920,0.37,-1.572,1.262,-46.97,-25.83,64.75,
40019940,-0.209,-0.637,0.256,8.767,10.185,88.392,
40019940,0.112,-0.261,0.06,59.062,-8.015,63.542,
40019960,0.373,-0.243,0.089,20.615,1.312,61.862,
40019960,0.383,0.264,-0.463,28.857,-6.037,55.02,
40019980,0.655,1.24,-1.249,78.015,-5.18,27.562,
40019980,0.99,1.788,-1.595,88.392,23.362,7.35,
40020000,0.632,1.994,-1.375,49.035,37.625,-18.637,
40020000,0.322,1.995,-0.799,-3.762,31.64,-51.747,
40020010,1.14,-0.028,0.966,-51.327,135.782,-104.51,
40020020,-1.998,-1.998,-0.857,268.397,178.5,257.075,
40020030,1.126,0.95,0.771,510.632,-71.785,366.467,
40020040,0.059,1.761,1.537,426.79,-99.872,98.507,
40020050,-1.813,-1.706,1.992,268.695,-141.347,137.882,
40020060,-0.787,0.785,1.605,206.902,-232.085,41.23,
40020070,1.799,1.697,0.766,159.232,-196.437,-34.755,
40020080,1.343,0,1.013,-50.295,-50.102,-29.295,
40020090,0.092,-0.247,1.01,-37.065,26.547,-1.645,
40020100,0.014,-0.279,0.991,-41.37,42.297,1.942,
40020110,-0.395,-0.512,0.984,-44.362,43.767,2.992,
40020120,-0.559,-0.329,0.944,-11.515,28.77,-0.822,
40020130,-0.075,-0.197,0.98,-11.795,12.67,-14.315,
40020140,-0.022,-0.096,0.98,-17.237,14.297,-5.005,
40020150,-0.201,-0.194,0.984,-25.112,21.192,12.075,
40020160,-0.24,-0.076,1.029,-30.45,22.085,13.93,
40020170,-0.238,0.04,1.113,-44.397,23.52,12.005,
40020180,-0.289,-0.012,1.187,-76.317,23.082,8.575,
40020190,-0.284,0,1.237,-114.467,17.29,4.637,
40020200,-0.234,-0.006,1.194,-156.94,5.862,-1.592,
40020210,-0.253,-0.085,1.082,-191.835,-5.337,-7.84,
40020220,-0.25,-0.126,1.061,-208.582,-13.667,-5.162,
40020230,-0.225,-0.185,0.99,-215.145,-17.237,1.172,
40020240,-0.201,-0.246,1.025,-224.525,-19.372,-1.417,
40020250,-0.178,-0.306,1.114,-239.155,-20.142,-6.475,
40020260,-0.193,-0.546,1.038,-243.705,-35.017,-16.485,
40020270,-0.173,-0.413,0.99,-205.8,-63.49,-18.165,
40020280,-0.249,-0.479,1.159,-183.977,-71.067,0.56,
40020290,-0.383,-0.696,1.118,-177.275,-88.375,14.49,
40020300,-0.097,-0.192,0.924,-111.93,-82.25,39.97,
40020310,-0.422,-0.095,1.209,-96.495,-62.142,42.262,
40020320,-0.306,-0.093,1.427,-50.12,-70.385,17.08,
40020330,0.73,0.674,1.508,-10.447,50.977,3.692,
40020330,-0.528,1.414,-0.734,202.667,-23.747,-17.955,
40020350,0.074,1.743,-1.395,271.11,14.192,-50.032,
40020350,-0.128,0.948,-0.481,126.297,72.467,-25.76,
40020370,-0.063,-0.137,0.16,21.28,80.815,-33.197,
40020370,-0.393,0.468,0.135,71.697,44.712,-33.652,
40020390,1.091,-1.363,0.08,71.89,150.01,18.76,
40020390,-1.175,-1.998,-0.493,261.52,77.787,276.202,
40020410,1.915,0.987,1.006,266.875,89.827,124.285,
40020410,-1.324,1.945,0.171,296.887,-9.362,-48.317,
40020420,-1.151,-1.464,1.725,226.397,37.975,137.76,
40020430,-1.332,-0.874,1.716,229.81,-55.65,172.742,
40020440,-1.532,0.691,1.291,310.047,-152.635,21.437,
40020450,1.203,0.923,1.215,134.435,-156.87,-38.307,
40020460,1.066,0.772,0.98,52.29,-80.202,-43.592,
40020470,0.451,0.077,0.979,-18.445,-3.535,-16.66,
40020480,0.001,-0.372,1.02,-55.422,31.185,-4.83,
40020490,-0.278,-0.293,0.956,-36.82,35.945,1.137,
40020500,-0.462,-0.378,0.966,-39.97,29.382,4.742,
40020510,-0.238,-0.184,0.958,-28.437,15.33,0.612,
40020520,-0.205,-0.134,1.029,-34.685,9.73,3.535,
40020530,-0.199,-0.131,1.03,-41.317,8.96,12.25,
40020540,-0.162,-0.09,1.113,-64.067,7.875,10.605,
40020550,-0.131,-0.014,1.21,-89.827,7.927,6.772,
40020560,-0.108,0.027,1.267,-127.54,5.722,5.39,
40020570,-0.082,0.086,1.217,-173.355,2.415,5.197,
40020580,-0.07,-0.025,1.133,-206.64,2.537,13.177,
40020590,-0.09,-0.035,1.09,-232.785,7.577,25.83,
40020600,-0.295,-0.208,1.111,-240.852,3.937,39.34,
40020610,-0.394,-0.234,1.275,-265.825,-18.34,37.66,
40020620,-0.455,-0.427,1.37,-280.682,-47.617,38.815,
40020630,-0.225,-0.62,1.457,-260.732,-72.38,35.035,
40020640,-0.614,-0.709,1.791,-228.27,-93.765,39.427,
40020650,-0.531,-0.567,1.555,-199.167,-127.82,38.552,
40020660,-0.283,-0.196,1.42,-137.62,-122.412,68.74,
40020670,0.233,0.508,1.726,-104.825,-91.91,96.18,
40020670,0.485,1.027,1.657,-36.89,-29.207,99.872,
40020690,-0.427,1.562,0.656,77.052,-19.687,65.432,
40020690,0.012,1.997,0.772,139.912,-17.29,33.6,
40020710,0.096,1.877,0.159,150.255,18.06,37.397,
40020710,0.008,1.642,-0.869,219.625,27.86,33.32,
40020730,-0.13,1.336,-0.764,229.81,21.892,18.025,
40020730,-0.131,0.631,-0.564,141.225,17.745,17.535,
40020750,-0.189,-0.084,-0.087,59.115,26.425,22.33,
40020750,-0.12,-0.37,-0.546,33.477,24.972,23.887,
40020760,0.694,-0.907,0.085,6.492,173.792,78.312,
40020770,-0.231,-1.998,-1.963,276.832,-27.685,300.58,
40020780,1.619,1.103,1.246,502.355,-71.242,183.347,
40020790,-1.807,1.995,0.531,298.095,-70.997,35.735,
40020800,-1.658,-1.296,1.988,110.022,-54.565,129.43,
40020810,-1.226,-0.056,1.388,128.222,-136.99,32.357,
40020820,0.948,1.68,0.927,194.74,-154.175,-51.187,
40020830,1.029,0.003,1.107,-20.912,-71.05,-45.062,
40020840,0.383,-0.104,0.949,-0.157,-12.022,-11.025,
40020850,-0.083,-0.365,0.983,-26.215,13.44,6.86,
40020860,-0.211,-0.165,0.978,-27.632,16.835,1.872,
40020870,-0.305,-0.284,0.983,-25.042,15.295,-8.452,
40020880,-0.196,-0.181,0.984,-23.362,9.887,-14.017,
40020890,-0.176,-0.126,0.959,-11.025,7.42,-7.577,
40020900,-0.165,-0.282,0.981,-30.082,5.792,-6.405,
40020910,-0.175,-0.182,0.978,-22.505,3.552,-3.867,
40020920,-0.137,-0.14,1.009,-20.475,2.887,-2.117,
40020930,-0.184,-0.091,1.037,-31.64,4.707,-3.867,
40020940,-0.21,-0.087,1.073,-43.575,4.235,-5.495,
40020950,-0.242,0.137,1.166,-63.56,3.237,-11.235,
40020960,-0.412,-0.159,1.058,-91.052,-2.887,-26.95,
40020970,-0.236,-0.438,1.105,-123.725,-14.402,-30.415,
40020980,-0.258,-0.28,1.063,-136.15,-22.645,-38.132,
40020990,-0.284,-0.245,1.038,-146.002,-25.497,-45.762,
40021000,-0.359,-0.47,1.09,-151.567,-33.04,-43.487,
40021010,-0.203,-0.557,0.97,-156.012,-44.765,-47.267,
40021020,-0.316,-0.687,1.083,-143.342,-49.14,-51.677,
40021030,-0.289,-1.032,1.025,-99.925,-52.185,-40.617,
40021040,0.091,-1.285,1.163,-33.6,-22.33,-19.022,
40021050,-0.618,-1.222,1.402,3.185,-29.872,-28.122,
40021060,-0.526,-1.856,0.991,-0.525,-26.897,-1.487,
40021070,-1.195,-1.961,-0.904,61.057,-3.57,125.562,
40021080,-1.157,-1.236,-1.014,113.942,-20.282,196.7,
40021080,-0.217,-1.177,-1.247,15.032,0.402,251.58,
40021100,0.192,-1.352,-1.59,-107.957,17.167,305.112,
40021100,0.297,-0.214,-0.848,-186.392,30.38,297.675,
40021120,0.246,1.473,-0.442,-259.245,28.402,255.272,
40021120,0.563,1.995,0.618,-287.49,-18.917,171.64,
40021140,1.943,0.442,1.815,-228.62,170.66,40.617,
40021140,-1.78,-0.844,-1.523,473.445,-79.8,-39.76,
40021160,-0.468,-1.998,1.467,458.185,-13.195,-88.2,
40021160,0.625,0.747,1.655,362.32,-96.512,25.795,
40021170,-1.606,0.827,1.816,447.265,-166.88,-59.692,
40021180,1.599,1.334,1.293,123.2,-159.197,20.93,
40021190,0.351,1.076,0.835,47.635,-68.74,-16.642,
40021200,1.031,-0.274,0.996,-56.21,7.087,-14.735,
40021210,0.028,-0.532,0.968,-61.022,51.712,-16.87,
40021220,-0.129,-0.398,0.937,-40.617,58.8,5.355,
40021230,-0.474,-0.434,0.955,-43.19,54.74,20.877,
40021240,-0.607,-0.397,0.949,-23.677,33.075,19.127,
40021250,-0.357,-0.206,0.977,-11.427,10.902,5.915,
40021260,-0.109,-0.096,0.975,4.287,-0.542,6.492,
40021270,-0.188,-0.117,1.002,-24.395,1.452,11.567,
40021280,-0.121,-0.07,1.06,-42.07,2.1,13.475,
40021290,-0.13,-0.056,1.092,-49.175,3.71,16.73,
40021300,-0.134,-0.098,1.172,-74.602,2.905,20.895,
40021310,-0.126,-0.123,1.166,-98.752,-1.82,25.217,
40021320,-0.082,-0.104,1.099,-120.855,-3.937,34.177,
40021330,-0.171,-0.029,1.156,-140.7,-7.052,43.417,
40021340,-0.151,-0.013,0.986,-157.29,-17.307,48.002,
40021350,-0.193,-0.179,1.008,-169.855,-17.01,50.435,
40021360,-0.187,-0.293,1.028,-181.16,-22.295,52.762,
40021370,-0.211,-0.342,1.057,-186.865,-32.515,54.582,
40021380,-0.122,-0.308,1.007,-184.152,-42.98,57.032,
40021390,-0.17,-0.48,1.089,-177.362,-43.855,66.325,
40021400,-0.238,-0.62,1.024,-161.017,-48.37,73.71,
40021410,-0.195,-0.57,0.836,-118.265,-50.942,80.272,
40021420,0.283,-0.476,0.98,-66.325,-35.805,102.742,
40021420,-0.061,-0.775,0.758,-45.15,-40.372,134.855,
40021440,0.083,-0.833,0.904,-24.027,-40.407,146.387,
40021440,-0.975,-1.102,0.505,-15.33,-23.327,194.057,
40021460,-0.113,-0.518,0.561,0.14,-23.152,231.84,
40021460,1.125,-0.649,0.48,-5.845,24.797,267.242,
40021480,1.255,-0.748,0.568,2.135,33.372,224.122,
40021480,1.04,-0.607,0.723,-11.637,49.42,129.78,
40021500,0.601,-0.684,0.827,-43.645,44.747,21.437,
40021500,0.036,-0.767,0.972,-61.915,11.165,-77.612,
40021510,-0.398,-0.711,1.107,-52.675,-19.145,-144.235,
40021520,-0.825,-0.678,1.058,-29.995,-29.452,-161.28,
40021530,-1.145,-0.47,0.725,10.15,-37.17,-126.717,
40021540,-1.154,-0.192,0.568,2.765,-34.335,-102.777,
40021550,-1.121,-0.277,0.603,-20.195,-19.635,-63.367,
40021560,-1.034,-0.445,0.74,-34.02,2.38,-5.932,
40021570,-0.756,-0.52,0.734,-37.38,19.845,44.8,
40021580,-0.312,-0.541,0.649,-38.622,37.607,66.815,
40021590,-0.211,-0.731,0.604,-32.48,53.462,65.695,
40021600,-0.273,-0.829,0.627,-36.977,56.787,40.215,
40021610,-0.194,-0.814,0.632,-42.735,58.275,19.355,
40021620,0.013,-0.805,0.644,-38.115,68.197,11.182,
40021630,0.036,-0.816,0.628,-30.8,75.25,2.222,
40021640,0.051,-0.789,0.666,-32.217,72.607,-16.152,
40021650,0.067,-0.855,0.824,-35.122,60.34,-36.242,
40021660,0.049,-0.979,0.987,-36.242,33.46,-53.077,
40021670,0.009,-1.087,0.998,-30.187,-9.397,-69.335,
40021680,0.216,-1.06,0.941,-12.127,-52.99,-82.617,
40021690,0.492,-0.992,0.794,3.535,-83.597,-96.267,
40021700,0.48,-1.018,0.723,13.3,-99.89,-113.172,
40021710,0.347,-0.942,0.735,43.242,-118.352,-114.66,
40021720,0.385,-0.703,0.58,56.105,-141.015,-111.562,
40021730,0.518,-0.468,0.221,49.577,-151.672,-97.877,
40021740,0.453,-0.3,-0.149,30.555,-135.502,-69.947,
40021750,0.092,-0.156,-0.351,-0.385,-112.332,-31.237,
40021760,-0.316,0.093,-0.347,-44.415,-111.562,15.592,
40021770,-0.438,0.168,-0.291,-100.187,-131.635,77.192,
40021780,-0.265,-0.044,-0.12,-153.772,-147.087,149.257,
40021790,-0.03,-0.203,-0.304,-162.82,-156.187,203.192,
40021800,0.116,0.285,-0.867,-96.11,-165.217,235.13,
40021810,1.162,1.663,1.233,-18.637,-104.58,234.692,
40021820,-0.213,0.592,1.998,-1.435,228.13,261.345,
40021830,-1.998,-0.315,1.712,390.617,153.825,231.665,
40021830,-1.052,-1.998,-1.161,508.865,-1.137,231.49,
40021850,-0.062,-0.668,1.314,360.762,59.255,174.142,
40021850,-1.998,1.901,0.069,375.62,-30.327,-19.512,
40021870,-0.273,-0.984,1.518,378.297,-30.975,-81.235,
40021870,-1.013,0.451,1.798,298.532,-59.43,-179.97,
40021890,1.418,0.684,1.773,312.095,-107.537,-189.647,
40021890,1.207,1.406,1.193,130.742,-59.57,-79.835,
40021900,0.145,0.258,1.034,26.74,15.837,21.367,
40021910,-0.267,-0.107,1.068,-32.742,42.332,24.815,
40021920,-0.216,-0.114,1.015,-27.93,40.04,-0.21,
40021930,-0.222,-0.276,0.997,-40.547,37.625,-8.802,
40021940,-0.256,-0.203,0.986,-38.692,31.132,-4.06,
40021950,-0.401,0.017,0.999,-46.97,25.602,-1.785,
40021960,-0.442,-0.52,0.981,-55.842,12.337,-10.377,
40021970,-0.31,-0.295,0.966,-60.13,-1.435,-16.485,
40021980,-0.271,-0.056,1.108,-68.267,-7.665,-20.247,
40021990,-0.175,-0.19,1.081,-96.915,-11.165,-26.337,
40022000,-0.183,-0.137,1.069,-121.467,-8.942,-30.257,
40022010,-0.162,-0.223,1.052,-140.857,-5.74,-31.587,
40022020,-0.055,-0.26,1.04,-166.232,3.92,-34.58,
40022030,-0.082,-0.321,1.04,-180.495,20.527,-35.087,
40022040,-0.24,-0.45,1.062,-189.507,29.767,-35.192,
40022050,-0.309,-0.49,1.211,-181.527,28.875,-28.21,
40022060,-0.371,-0.57,1.151,-179.48,64.995,-21.752,
40022070,-0.71,-0.849,1.302,-179.077,79.642,-22.33,
40022080,-0.328,-1.354,1.569,-156.467,59.657,-14.227,
40022090,0.537,-1.981,0.877,-63.63,69.387,53.585,
40022100,-1.382,-1.858,-0.34,55.825,64.75,186.987,
40022110,-0.018,-0.628,0.027,64.645,-24.377,151.165,
40022120,1.187,-0.77,0.435,-41.492,-7.105,158.235,
40022130,0.88,-1.57,0.678,-93.695,-10.762,145.845,
40022140,0.653,-0.998,0.29,-66.237,-26.495,62.51,
40022150,0.587,-0.219,0.114,-37.607,-45.447,2.205,
40022160,0.519,-0.139,0.132,-59.99,-52.955,-52.237,
40022170,0.287,-0.359,0.365,-90.702,-50.47,-103.057,
40022170,-0.116,-0.417,0.682,-99.942,-41.3,-135.922,
40022190,-0.497,-0.388,0.882,-97.947,-26.39,-157.01,
40022190,-0.859,-0.322,0.958,-95.182,-27.352,-155.382,
40022210,-0.96,-0.3,0.951,-99.785,-35.472,-134.872,
40022210,-0.877,-0.321,0.98,-105.052,-42.437,-100.957,
40022230,-0.765,-0.28,1.182,-116.777,-38.92,-63.035,
40022230,-0.732,-0.448,1.406,-132.65,-25.34,-28.455,
40022250,-0.85,-0.513,1.459,-143.097,-27.895,-9.327,
40022250,-0.685,-0.413,1.522,-139.807,-36.26,4.917,
40022260,-0.382,-0.466,1.568,-148.347,-27.352,21.42,
40022270,-0.327,-0.595,1.623,-142.852,-14.875,32.445,
40022280,-0.413,-0.551,1.552,-109.252,-21.857,37.135,
40022290,-0.364,-0.524,1.438,-98.087,-35.245,35.98,
40022300,-0.209,-0.586,1.378,-89.617,-40.88,40.442,
40022310,-0.283,-0.65,1.343,-64.522,-39.392,48.457,
40022320,-0.367,-0.702,1.243,-41.667,-39.672,48.947,
40022330,-0.356,-0.76,1.114,-15.68,-41.352,57.557,
40022340,-0.29,-0.783,1.068,6.247,-38.465,73.657,
40022350,-0.243,-0.849,1.084,12.25,-22.067,88.917,
40022360,-0.243,-0.875,1.075,14.07,-2.502,103.25,
40022370,-0.271,-0.85,1.06,22.557,7.665,113.82,
40022380,-0.204,-0.83,1.074,32.497,7.017,117.705,
40022390,-0.144,-0.792,1.049,34.125,-0.822,112.455,
40022400,-0.213,-0.699,1.009,35.577,-17.902,101.832,
40022410,-0.364,-0.59,0.886,42.787,-43.522,92.032,
40022420,-0.415,-0.501,0.613,53.357,-73.745,88.935,
40022430,-0.25,-0.406,0.326,62.177,-90.93,94.57,
40022440,-0.129,-0.396,0.149,62.125,-90.317,101.552,
40022450,-0.083,-0.42,0.015,51.87,-81.865,100.047,
40022460,0.01,-0.486,-0.073,45.167,-74.007,92.592,
40022470,0.122,-0.508,-0.142,52.535,-65.38,81.2,
40022480,0.142,-0.424,-0.187,45.745,-52.412,55.177,
40022490,0.107,-0.394,-0.234,42.945,-36.68,34.667,
40022500,0.099,-0.373,-0.231,43.662,-22.505,17.062,
40022510,0.06,-0.353,-0.256,44.852,-12.845,-3.255,
40022520,0.034,-0.337,-0.296,45.92,-6.212,-20.3,
40022530,0.104,-0.334,-0.297,46.777,2.66,-30.73,
40022540,0.169,-0.313,-0.248,44.922,14.997,-38.482,
40022550,0.182,-0.334,-0.138,38.815,27.877,-45.797,
40022560,0.208,-0.395,-0.021,30.327,33.005,-55.982,
40022570,0.234,-0.425,0.127,24.517,31.762,-70.21,
40022570,0.17,-0.434,0.292,17.64,28.542,-84.822,
40022580,0.064,-0.453,0.473,6.02,25.007,-97.825,
40022590,-0.055,-0.517,0.649,-6.492,19.25,-105.21,
40022600,-0.162,-0.628,0.79,-18.217,14.332,-105.157,
40022610,-0.195,-0.755,0.929,-29.347,14.315,-100.765,
40022620,-0.222,-0.846,1.065,-40.915,18.62,-92.662,
40022630,-0.383,-0.91,1.148,-49.385,15.557,-82.81,
40022640,-0.541,-0.917,1.163,-56.402,1.925,-72.572,
40022650,-0.545,-0.909,1.267,-62.93,-6.387,-50.995,
40022660,-0.582,-0.973,1.39,-71.417,-5.53,-20.107,
40022670,-0.563,-1.099,1.419,-72.992,-0.052,13.195,
40022680,-0.381,-1.276,1.393,-52.342,5.355,47.722,
40022690,-0.09,-1.459,1.226,-27.387,10.832,62.912,
40022700,0.223,-1.511,1.073,-4.882,25.55,44.765,
40022710,0.076,-1.439,1.005,12.32,41.16,8.12,
40022720,-0.283,-1.356,0.923,15.382,44.59,-30.537,
40022730,-0.262,-1.204,0.877,11.742,47.337,-44.345,
40022740,-0.026,-1.158,0.953,8.19,57.872,-45.412,
40022750,0.069,-1.146,1.119,8.995,74.252,-57.907,
40022760,-0.062,-1.025,1.251,12.74,87.185,-68.512,
40022770,0.006,-0.874,1.173,21.892,86.887,-68.232,
40022780,0.926,-0.547,1.249,29.575,94.762,-26.652,
40022790,0.443,-0.555,1.281,5.39,70.91,46.585,
40022800,0.286,-1.032,0.889,-17.78,-10.027,27.125,
40022810,0.929,-1.033,0.593,-0.227,-47.285,-38.64,
40022820,0.593,-0.519,0.219,20.825,-60.847,-95.025,
40022830,0.061,-0.193,-0.065,11.042,-77.595,-136.097,
40022840,0.205,-0.213,-0.156,-26.967,-97.807,-150.15,
40022850,0.52,-0.243,-0.024,-63.245,-96.302,-150.71,
40022860,0.538,-0.207,0.064,-81.795,-77.63,-160.947,
40022870,0.342,-0.177,0.204,-89.197,-46.375,-173.967,
40022880,0.053,-0.247,0.466,-101.22,-12.582,-176.645,
40022890,-0.255,-0.427,0.836,-110.215,21.332,-162.907,
40022900,-0.501,-0.649,1.071,-94.867,39.182,-134.575,
40022910,-0.565,-0.721,0.932,-43.12,30.817,-99.295,
40022920,-0.423,-0.525,0.428,34.335,0.875,-66.185,
40022920,-0.098,-0.219,0.067,96.215,-25.042,-41.965,
40022940,0.159,-0.14,-0.089,99.662,-27.545,-29.557,
40022940,0.155,-0.268,-0.076,72.677,-7.665,-25.62,
40022960,-0.048,-0.402,0.022,51.555,9.345,-30.135,
40022960,-0.194,-0.465,0.183,30.537,14.367,-41.58,
40022980,-0.161,-0.585,0.391,13.79,20.387,-48.44,
40022980,-0.172,-0.754,0.531,21.28,29.767,-49.017,
40023000,-0.287,-0.847,0.559,55.79,31.78,-46.515,
40023000,-0.326,-0.722,0.476,93.345,29.05,-53.777,
40023010,-0.347,-0.572,0.446,98.665,29.05,-54.145,
40023020,-0.426,-0.57,0.59,66.447,30.257,-50.505,
40023030,-0.564,-0.744,0.902,17.272,28.28,-46.917,
40023040,-0.671,-0.922,1.308,-23.257,28.332,-41.002,
40023050,-0.834,-0.98,1.609,-42.577,29.382,-32.795,
40023060,-1.01,-0.895,1.764,-49,27.527,-20.877,
40023070,-1.014,-0.85,1.691,-50.942,27.247,4.69,
40023080,-0.813,-1.109,1.497,-38.482,26.565,46.147,
40023090,-0.275,-1.351,1.312,-19.81,37.345,79.712,
40023100,0.14,-1.317,1.294,-9.52,64.75,78.487,
40023110,0.083,-1.334,1.324,-16.87,94.202,48.86,
40023120,-0.013,-1.153,1.373,-26.495,103.6,8.26,
40023130,-0.054,-1.214,1.342,-14.49,93.152,-19.652,
40023140,-0.045,-1.027,1.352,-10.097,75.687,-36.12,
40023150,-0.078,-0.972,1.363,-2.782,66.657,-30.992,
40023160,-0.083,-0.918,1.332,11.497,64.627,-23.59,
40023170,-0.131,-0.868,1.202,23.047,62.912,-9.345,
40023180,-0.048,-0.803,1.032,31.29,57.505,9.415,
40023190,0.099,-0.794,0.84,33.547,50.382,23.222,
40023200,0.202,-0.781,0.671,29.137,43.61,32.007,
40023210,0.247,-0.719,0.564,21.175,36.54,33.652,
40023220,0.309,-0.653,0.496,15.19,28.56,34.895,
40023230,0.343,-0.598,0.413,10.64,21.087,34.685,
40023240,0.409,-0.503,0.352,6.667,13.667,28.157,
40023250,0.481,-0.425,0.348,1.102,13.3,23.065,
40023260,0.57,-0.405,0.305,-1.785,16.45,18.007,
40023260,0.625,-0.408,0.224,2.73,16.817,9.94,
40023280,0.639,-0.406,0.104,9.45,8.33,-3.22,
40023280,0.613,-0.381,0.031,8.277,-5.022,-21.49,
40023300,0.494,-0.339,-0.012,2.432,-18.007,-41.282,
40023300,0.245,-0.28,-0.044,-2.87,-28.245,-56,
40023320,0.067,-0.179,-0.003,-10.745,-35.63,-60.532,
40023320,0.009,-0.108,0.051,-21.945,-36.82,-55.142,
40023330,-0.02,-0.097,0.118,-30.922,-31.482,-43.592,
40023340,-0.033,-0.107,0.187,-33.81,-26.565,-29.05,
40023350,-0.005,-0.147,0.274,-34.352,-23.397,-17.325,
40023360,0.073,-0.249,0.385,-34.44,-19.477,-9.345,
40023370,0.161,-0.408,0.471,-32.62,-14.997,-3.815,
40023380,0.122,-0.536,0.526,-27.825,-15.067,-3.482,
40023390,-0.01,-0.459,0.632,-27.685,-21.315,-9.327,
40023400,-0.178,-0.521,0.895,-39.76,-26.092,-6.142,
40023410,-0.279,-0.575,1.195,-76.475,-27.527,-1.942,
40023420,-0.324,-0.709,1.443,-92.872,-27.475,10.535,
40023430,-0.325,-0.75,1.635,-85.435,-27.44,24.29,
40023440,-0.347,-0.753,1.773,-79.905,-27.475,31.797,
40023450,-0.33,-0.926,1.897,-69.58,-25.322,37.537,
40023460,-0.168,-1.156,1.795,-48.895,-20.177,35.822,
40023470,-0.293,-1.077,1.925,-26.285,-18.742,26.985,
40023480,-0.185,-1.312,1.832,22.522,-22.995,45.342,
40023490,0.111,-1.456,1.787,13.965,-19.162,25.462,
40023500,0.001,-1.352,1.74,22.277,-14.542,-10.99,
40023510,-0.267,-1.235,1.639,33.67,-7.227,-35.07,
40023520,-0.442,-1.136,1.553,24.29,-9.66,-57.12,
40023530,-0.558,-1.113,1.381,22.207,-13.842,-58.415,
40023540,-0.537,-1.021,1.171,35.647,-11.427,-38.71,
40023550,-0.497,-0.936,1.053,42.105,-3.71,-14.665,
40023560,-0.462,-0.974,1.018,38.395,3.85,4.182,
40023570,-0.377,-1,0.886,43.487,7.892,16.712,
40023580,-0.206,-0.855,0.632,57.417,10.08,23.38,
40023590,-0.022,-0.639,0.412,60.427,16.31,22.785,
40023600,-0.038,-0.47,0.199,50.435,12.827,21.28,
40023610,0.067,-0.318,0.22,34.65,11.9,27.667,
40023620,0.26,-0.296,0.333,14.84,11.602,41.352,
40023630,0.475,-0.456,0.467,3.85,15.207,53.515,
40023640,0.556,-0.493,0.438,17.535,5.81,52.167,
40023650,0.644,-0.322,0.306,40.967,-14.21,39.025,
40023660,0.815,-0.208,0.26,49.647,-27.142,24.43,
40023670,0.771,-0.251,0.286,45.71,-33.582,6.317,
40023670,0.538,-0.263,0.282,47.005,-46.69,-14.105,
40023690,0.359,-0.201,0.195,53.462,-62.685,-25.935,
40023690,0.248,-0.134,0.064,55.58,-73.22,-24.5,
40023710,0.124,-0.11,-0.048,49.175,-80.115,-17.762,
40023710,0.135,-0.124,-0.047,36.242,-79.66,-9.45,
40023730,0.099,-0.194,0.032,20.667,-68.722,3.115,
40023730,-0.019,-0.294,0.129,9.117,-59.797,12.285,
40023750,-0.093,-0.372,0.241,0.63,-58.292,19.652,
40023750,-0.108,-0.454,0.366,-11.095,-59.832,29.225,
40023760,-0.103,-0.573,0.457,-23.572,-58.922,39.602,
40023770,-0.055,-0.655,0.581,-33.687,-53.987,49.245,
40023780,0.006,-0.729,0.738,-46.83,-47.477,51.992,
40023790,0.063,-0.785,0.985,-63.157,-37.625,45.605,
40023800,0.085,-0.925,1.307,-74.13,-25.497,26.985,
40023810,-0.192,-0.944,1.434,-81.375,-20.772,-1.47,
40023820,-0.393,-1.062,1.548,-79.52,-22.26,-24.202,
40023830,-0.489,-0.968,1.584,-84.367,-28.84,-54.53,
40023840,-0.641,-0.928,1.629,-78.925,-29.242,-54.267,
40023850,-0.708,-0.961,1.706,-69.597,-24.762,-40.092,
40023860,-0.828,-1.015,1.733,-59.097,-22.382,-20.982,
40023870,-0.893,-1.035,1.639,-42.682,-26.565,1.557,
40023880,-0.68,-1.084,1.418,-22.68,-27.055,25.515,
40023890,-0.395,-1.116,1.206,-7.192,-9.73,42.437,
40023900,-0.249,-1.09,1.086,3.745,15.435,34.562,
40023910,-0.297,-1.107,0.987,11.322,38.85,18.637,
40023920,-0.305,-1.1,0.846,22.312,53.952,4.287,
40023930,-0.263,-1.075,0.637,34.93,67.095,-5.81,
40023940,-0.165,-0.996,0.455,40.6,85.522,-8.715,
40023950,-0.12,-0.911,0.366,37.292,106.977,-5.355,
40023960,-0.058,-0.857,0.35,30.922,125.492,2.835,
40023970,0.108,-0.83,0.388,25.55,140.385,16.887,
40023980,0.406,-0.878,0.444,24.482,151.62,26.985,
40023990,0.724,-0.906,0.49,26.775,164.045,22.785,
40024000,0.82,-0.894,0.495,36.61,168.245,7.402,
40024010,0.757,-0.802,0.438,48.212,155.207,-14.752,
40024010,0.674,-0.67,0.314,51.187,123.042,-38.342,
40024030,0.718,-0.6,0.165,48.16,93.397,-53.567,
40024030,0.72,-0.524,0.077,46.27,79.345,-56.717,
40024050,0.555,-0.45,0.012,40.792,69.58,-57.697,
40024050,0.448,-0.445,-0.03,33.355,54.722,-51.59,
40024070,0.52,-0.487,-0.048,29.102,39.445,-40.985,
40024070,0.524,-0.568,-0.081,25.287,26.74,-31.902,
40024080,0.474,-0.576,-0.079,18.777,14.927,-24.727,
40024090,0.443,-0.55,-0.036,9.712,-0.402,-21.35,
40024100,0.356,-0.541,0.017,-2.975,-15.61,-20.212,
40024110,0.262,-0.524,0.086,-16.765,-28.822,-17.955,
40024120,0.236,-0.464,0.165,-28.525,-38.255,-15.102,
40024130,0.162,-0.435,0.283,-39.095,-42.227,-10.272,
40024140,0.026,-0.423,0.437,-50.785,-45.867,-5.722,
40024150,-0.068,-0.437,0.545,-60.83,-51.187,1.505,
40024160,-0.07,-0.414,0.663,-67.55,-56.612,12.792,
40024170,-0.059,-0.39,0.774,-76.282,-60.375,22.785,
40024180,-0.036,-0.391,0.873,-87.045,-61.862,30.887,
40024190,0.008,-0.367,0.987,-96.46,-62.387,36.592,
40024200,0.101,-0.283,1.139,-104.23,-62.125,35.525,
40024210,0.138,-0.237,1.297,-110.757,-57.33,30.66,
40024220,0.096,-0.261,1.395,-112.087,-54.075,21.052,
40024230,0.101,0.004,1.515,-106.102,-50.995,6.282,
40024240,0.021,-0.195,1.617,-92.015,-44.275,-1.172,
40024250,0.084,-0.109,1.624,-91.665,-33.442,-16.555,
40024260,-0.047,-0.123,1.543,-78.05,-23.502,-24.027,
40024270,-0.107,-0.137,1.463,-29.05,-19.827,-24.202,
40024280,-0.105,-0.091,1.466,-1.505,-14.087,-19.267,
40024290,-0.147,-0.263,1.508,13.947,-6.562,-14.35,
40024300,-0.137,-0.677,1.544,39.095,6.842,-10.08,
40024310,0.134,-0.633,1.589,87.395,19.53,-22.207,
40024320,-0.068,-0.628,1.52,69.142,40.95,-9.24,
40024330,0.147,-1.185,1.549,94.85,50.522,10.08,
40024340,0.388,-1.316,1.662,133.227,56.28,-2.607,
40024350,0.154,-1.445,1.74,154,64.487,-14.035,
40024360,-0.301,-1.527,1.714,173.197,50.19,-41.23,
40024370,-0.497,-1.307,1.619,176.54,32.882,-45.482,
40024380,-0.614,-1.284,1.408,157.482,28.192,0.717,
40024390,-0.413,-1.219,1.2,127.032,33.005,46.34,
40024400,-0.103,-1.308,1.093,105.175,44.782,87.132,
40024410,0.495,-1.494,1.098,94.045,63.525,103.53,
40024420,1.034,-1.614,1.201,90.02,85.802,74.83,
40024420,0.749,-1.758,1.198,99.61,86.222,18.252,
40024440,0.468,-1.468,0.994,114.24,49.367,-60.62,
40024440,0.419,-1.185,0.685,119.577,10.22,-112.122,
40024460,0.261,-0.985,0.438,111.335,-6.352,-132.457,
40024460,-0.069,-0.775,0.269,89.827,-17.29,-138.792,
40024480,-0.258,-0.622,0.166,60.567,-28.56,-132.807,
40024480,-0.285,-0.5,0.098,32.637,-39.34,-113.855,
40024500,-0.282,-0.404,0.075,9.835,-43.102,-90.37,
40024500,-0.34,-0.331,0.071,-8.067,-42.227,-67.62,
40024510,-0.382,-0.262,0.077,-22.242,-41.737,-48.475,
40024520,-0.356,-0.214,0.069,-32.9,-41.755,-29.592,
40024530,-0.31,-0.193,0.06,-41.317,-40.092,-10.465,
40024540,-0.304,-0.189,0.031,-48.51,-38.535,4.41,
40024550,-0.307,-0.173,-0.011,-52.22,-38.885,14.367,
40024560,-0.295,-0.139,-0.024,-57.977,-38.132,22.96,
40024570,-0.321,-0.131,-0.043,-70.14,-35.997,30.992,
40024580,-0.293,-0.09,-0.05,-81.9,-30.835,37.205,
40024590,-0.187,-0.033,-0.103,-93.135,-14.927,45.517,
40024600,-0.083,0.045,-0.048,-106.277,11.62,55.667,
40024610,-0.064,-0.04,0.109,-131.827,32.235,50.872,
40024620,0.084,-0.189,0.202,-159.792,41.37,35.332,
40024630,0.258,-0.261,0.39,-178.587,52.255,7.105,
40024640,0.071,-0.375,0.795,-196.35,70.35,-35.49,
40024650,-0.298,-0.607,1.162,-202.72,111.02,-62.93,
40024660,-0.71,-0.919,1.204,-165.27,158.182,-51.555,
40024670,-0.979,-0.947,0.889,-87.972,174.545,-27.772,
40024680,-0.981,-0.305,0.602,-38.64,161.63,-0.42,
40024690,-0.895,-0.629,0.593,-23.38,140.542,54.53,
40024700,-0.588,-0.964,0.641,-50.96,125.422,56.945,
40024710,-0.718,-1.172,0.626,-66.552,123.165,77.472,
40024720,-0.607,-1.272,0.608,-41.685,122.535,112.682,
40024730,-0.267,-1.307,0.613,-26.845,127.312,122.5,
40024740,-0.319,-1.396,0.626,-33.197,127.732,105.962,
40024750,-0.664,-1.283,0.566,-48.09,111.212,72.677,
40024760,-0.937,-1.127,0.578,-46.812,74.585,53.41,
40024760,-0.944,-1.013,0.542,-28.892,30.397,64.015,
40024780,-0.749,-0.878,0.468,-29.557,0.665,74.2,
40024780,-0.602,-0.682,0.326,-36.12,-10.675,86.975,
40024800,-0.489,-0.535,0.251,-36.627,-13.545,101.745,
40024800,-0.329,-0.438,0.231,-37.52,-12.302,109.392,
40024820,-0.157,-0.445,0.247,-42.875,-5.617,111.755,
40024820,0.063,-0.514,0.305,-47.442,13.755,104.16,
40024830,0.246,-0.585,0.373,-47.862,45.412,88.392,
40024840,0.343,-0.62,0.437,-42.14,83.912,68.95,
40024850,0.35,-0.634,0.459,-33.915,119.962,45.815,
40024860,0.357,-0.675,0.483,-23.17,149.292,20.79,
40024870,0.321,-0.587,0.54,-27.142,168.7,-2.135,
40024880,0.117,-0.77,0.732,-33.897,173.512,-32.217,
40024890,0.002,-0.965,0.953,16.152,149.8,-53.077,
40024900,0.061,-0.862,1.131,50.067,99.662,-64.61,
40024910,0.469,-0.761,1.169,82.565,42.297,-65.257,
40024920,0.858,-0.715,1.161,109.357,11.48,-65.345,
40024930,1.029,-0.767,0.911,127.365,-0.052,-88.935,
40024940,1.229,-0.684,0.535,148.242,19.215,-123.602,
40024950,1.008,-0.43,0.136,163.467,44.345,-139.3,
40024960,0.445,-0.118,-0.254,175.402,33.687,-130.462,
40024970,0.465,-0.117,-0.419,169.365,3.325,-89.6,
40024980,-0.077,-0.951,-0.944,134.085,-41.352,-50.837,
40024990,-1.998,-1.998,1.593,254.712,-337.715,75.145,
40025000,1,-1.998,0.987,509.162,-110.53,80.64,
40025010,0.76,-1.167,-0.651,544.757,47.862,373.747,
40025020,-1.986,1.997,0.968,247.03,-138.95,185.22,
40025030,-1.976,0.303,0.559,327.39,-127.382,137.865,
40025040,-1.14,-1.671,1.479,388.517,-187.915,75.162,
40025050,-0.864,1.326,1.331,379.19,-231.42,-59.57,
40025060,0.201,-0.066,1.656,247.415,-243.565,-123.06,
40025070,1.616,0.815,1.216,146.667,-180.25,-67.9,
40025080,0.874,1.141,1.009,71.242,-83.37,1.137,
40025090,0.509,0.037,1.073,-31.272,-6.317,0.595,
40025100,0.264,-0.372,0.977,-34.755,31.237,-6.982,
40025110,-0.19,-0.31,0.986,-38.815,49.857,-5.18,
40025120,-0.248,-0.266,0.98,-30.712,51.52,2.17,
40025130,-0.301,-0.284,0.981,-35.525,48.65,1.487,
40025140,-0.61,-0.335,0.883,-35.822,40.39,-3.815,
40025150,-0.353,-0.382,0.957,-26.022,22.522,-8.89,
40025160,-0.252,-0.156,0.975,-19.792,11.707,-14.35,
40025170,-0.215,-0.197,1.026,-36.225,13.002,-15.347,
40025170,-0.265,-0.053,1.13,-55.545,17.832,-17.447,
40025190,-0.315,-0.124,1.16,-84.665,20.055,-28.21,
40025190,-0.277,-0.157,1.16,-117.425,19.11,-40.022,
40025210,-0.275,-0.153,1.108,-144.182,18.305,-47.53,
40025210,-0.23,-0.209,1.049,-159.792,19.67,-47.915,
40025230,-0.208,-0.314,1.087,-176.61,27.387,-51.24,
40025230,-0.184,-0.434,1.11,-183.522,36.802,-54.32,
40025240,-0.076,-0.594,1.169,-187.425,60.952,-61.04,
40025250,-0.17,-0.97,0.987,-183.207,108.692,-69.16,
40025260,-0.497,-1.464,0.696,-120.26,139.457,-61.442,
40025270,-0.548,-1.904,0.924,-31.167,120.575,-76.65,
40025280,-0.026,-1.632,1.363,19.075,38.552,-115.167,
40025290,-0.213,-1.56,-0.085,56.437,21.35,-52.167,
40025300,-0.09,-0.308,-0.697,149.03,-70.192,-18.2,
40025310,-0.386,0.02,-0.806,93.432,-79.765,-17.657,
40025320,-0.787,-0.343,-0.803,-9.275,-41.825,15.452,
40025330,-0.596,-0.105,-0.838,-24.43,-40.897,68.845,
40025340,-0.373,0.341,-0.847,-47.145,-33.407,101.535,
40025350,-0.434,0.36,-0.74,-77.927,-23.1,147.157,
40025360,-0.699,0.053,-0.715,-89.495,-21.962,186.287,
40025370,1.144,-0.763,1.998,-136.062,-106.697,99.33,
40025380,0.998,0.019,-1.031,202.055,53.077,147.542,
40025390,-1.998,0.89,1.011,511.857,-16.082,66.027,
40025400,-0.217,-1.901,1.546,250.827,-53.112,140.612,
40025410,-0.86,1.033,1.43,290.57,-125.422,168.227,
40025420,-1.802,0.031,1.599,266.367,-170.852,70.542,
40025430,0.329,0.302,1.257,119.542,-177.222,-13.527,
40025440,1.393,1.214,0.923,86.047,-128.852,-31.972,
40025450,0.744,0.228,1.021,-18.462,-38.482,-26.18,
40025460,0.343,-0.143,1.007,-27.772,11.532,-23.065,
40025470,0.072,-0.288,1.011,-31.08,39.042,-25.865,
40025480,-0.181,-0.249,0.995,-39.585,49.962,-20.142,
40025490,-0.463,-0.28,0.99,-45.622,48.212,-13.457,
40025500,-0.444,-0.467,0.906,-35.735,32.725,-15.925,
40025510,-0.28,-0.361,0.952,-26.512,16.66,-10.605,
40025510,-0.22,-0.124,1.028,-25.427,8.19,-1.032,
40025530,-0.227,-0.024,1.111,-43.627,7.49,-2.485,
40025530,-0.268,-0.139,1.146,-69.702,6.965,-12.11,
40025550,-0.174,-0.157,1.126,-96.355,10.22,-26.67,
40025550,-0.286,-0.03,1.177,-123.585,22.277,-45.535,
40025570,-0.249,-0.093,1.124,-147.892,22.645,-52.325,
40025570,-0.299,-0.155,1.088,-172.69,16.922,-56.595,
40025580,-0.389,-0.253,1.138,-189.892,7.892,-55.44,
40025590,-0.356,-0.313,1.203,-196.595,-5.915,-52.745,
40025600,-0.154,-0.332,1.198,-201.302,-6.44,-51.047,
40025610,0.02,-0.436,1.041,-194.197,9.94,-46.987,
40025620,-0.252,-0.816,0.602,-147.14,24.132,-35.805,
40025630,-0.843,-1.472,0.698,-97.09,13.877,-38.062,
40025640,0.598,-1.336,1.244,-100.887,21.437,-37.905,
40025650,-0.135,-1.601,0.057,-45.167,73.535,4.217,
40025660,-1.268,-1.034,0.202,21.087,25.55,27.947,
40025670,-0.365,-0.525,-0.027,-42.052,18.637,14.052,
40025680,-0.183,-0.325,-0.524,-51.17,-0.14,67.165,
40025690,0.005,0.382,-0.815,-30.572,-1.995,79.992,
40025700,-0.241,1.434,-1.087,-40.337,12.075,77.245,
40025710,-0.081,1.997,-1.209,-53.725,43.382,78.12,
40025720,0.828,0.841,1.297,-71.277,79.432,95.987,
40025730,1.998,-1.998,1.572,107.712,5.232,40.442,
40025740,-0.658,-1.998,-0.595,520.957,-11.952,138.057,
40025750,-1.946,1.233,0.522,354.585,-70.175,238.84,
40025760,0.287,1.267,1.7,282.66,-120.89,252.42,
40025770,-1.492,-1.115,1.677,306.88,-148.417,161.07,
40025780,-0.978,0.687,1.686,276.797,-184.625,53.165,
40025790,0.241,0.744,1.336,124.88,-168.787,6.107,
40025800,1.193,1.014,1.014,60.812,-117.11,-19.862,
40025810,0.833,0.098,1.042,-16.782,-38.132,-35.752,
40025820,0.219,-0.146,1.01,-36.032,13.422,-17.762,
40025830,-0.199,-0.367,1.006,-43.452,31.01,-14,
40025840,-0.196,-0.135,1.002,-39.112,30.817,-22.137,
40025850,0.295,-0.045,1.016,-43.015,33.932,-17.22,
40025860,-0.387,-0.491,0.943,-48.51,44.17,3.902,
40025870,-0.447,-0.271,1.001,-53.672,39.165,26.075,
40025880,-0.56,-0.179,1.044,-55.755,27.072,11.55,
40025890,-0.276,-0.077,1.134,-73.395,14.735,-15.277,
40025890,-0.201,-0.072,1.169,-101.15,13.037,-29.785,
40025910,-0.159,-0.042,1.172,-134.522,14.735,-34.807,
40025910,-0.219,-0.113,1.092,-160.72,11.777,-33.617,
40025920,-0.28,-0.224,1.016,-180.442,10.85,-38.185,
40025930,-0.305,-0.324,1.012,-199.272,12.495,-51.1,
40025940,-0.374,-0.357,1.153,-206.447,11.445,-62.387,
40025950,-0.382,-0.433,1.175,-215.162,-6.317,-70.997,
40025960,-0.196,-0.511,1.066,-218.172,-9.1,-69.562,
40025970,-0.409,-0.775,0.95,-198.345,-0.595,-55.965,
40025980,-0.07,-0.837,1.05,-126.455,-1.977,-42.14,
40025990,-0.066,-0.928,0.649,-75.495,-9.695,-37.065,
40026000,-0.128,-1.003,0.802,-44.957,-3.36,-60.882,
40026010,-0.465,-1.157,0.454,-10.675,40.372,-40.705,
40026020,-0.778,-0.358,-0.429,57.995,37.765,-8.015,
40026030,-0.956,0.326,-0.669,53.83,29.522,-4.445,
40026040,-1.141,0.255,-0.52,-4.025,58.415,16.59,
40026050,-0.69,0.513,-0.861,-11.287,95.69,76.177,
40026060,0.378,1.083,-0.337,7.717,151.445,159.232,
40026070,0.734,0.038,0.206,-13.055,140.805,191.59,
40026080,1.868,-1.538,1.117,11.952,29.242,98.945,
40026090,0.507,-1.998,-0.628,213.377,22.225,55.02,
40026100,-1.998,-0.148,0.422,471.677,-30.292,81.725,
40026110,0.293,1.61,1.385,236.197,-98.332,159.722,
40026120,-0.791,-0.506,1.406,217.945,-127.47,189.892,
40026130,-0.918,-0.336,1.15,267.96,-160.965,97.685,
40026140,-0.688,0.092,1.369,226.992,-165.2,43.645,
40026150,-0.552,0.12,1.4,155.12,-160.527,-2.537,
40026160,0.739,0.717,1.165,94.097,-134.365,-28.525,
40026170,0.889,0.506,0.999,36.382,-78.032,-34.72,
40026180,0.543,0.155,1.015,-15.12,-15.155,-23.922,
40026190,0.012,-0.136,1.012,-32.252,24.01,-17.57,
40026200,-0.1,-0.266,1.025,-41.142,35.7,-22.26,
40026210,-0.197,0.019,1.025,-46.007,41.632,-24.272,
40026220,0.655,-0.035,1.13,-60.62,48.545,-21.14,
40026230,-0.715,-0.739,0.856,-59.465,68.145,7.822,
40026240,-0.532,-0.406,1.017,-71.767,60.182,34.107,
40026250,-0.385,0.078,1.066,-75.005,50.207,13.51,
40026260,-0.251,-0.166,1.129,-100.537,49.367,-14.49,
40026260,-0.172,-0.151,1.136,-126.997,55.755,-32.27,
40026280,-0.263,-0.173,1.062,-149.73,60.392,-38.92,
40026280,-0.205,-0.208,1,-163.467,63.595,-43.102,
40026300,-0.111,-0.22,0.987,-173.407,69.615,-45.185,
40026300,-0.133,-0.311,0.944,-179.06,75.495,-39.217,
40026320,-0.181,-0.389,0.974,-174.405,77.787,-29.89,
40026320,-0.247,-0.569,1.041,-172.042,83.685,-29.032,
40026330,-0.397,-0.729,0.872,-162.067,85.347,-32.27,
40026340,-0.391,-0.589,0.808,-134.102,77.332,-32.567,
40026350,-0.544,-0.652,0.601,-104.37,57.837,-25.007,
40026360,-0.59,-0.733,0.495,-61.18,37.887,-20.125,
40026370,-0.43,-0.84,0.678,-19.442,8.382,-20.055,
40026380,-0.012,-1.017,0.563,7.805,-16.957,-25.497,
40026390,-0.141,-1.095,0.355,45.99,-39.025,-55.265,
40026400,1.307,-0.956,0.45,54.67,-45.08,-108.902,
40026410,-0.27,-0.512,-0.218,65.642,-78.26,-172.515,
40026420,-0.972,-0.086,-0.725,66.937,-60.567,-219.38,
40026430,-1.168,0.238,-0.853,69.037,-34.142,-183.102,
40026440,-1.17,1.253,0.485,75.425,-8.365,-150.062,
40026450,-0.65,0.519,1.996,26.092,129.395,-140.472,
40026460,0.633,-1.746,-1.09,336.962,58.905,5.617,
40026470,0.278,-1.98,1.413,490.875,33.932,24.85,
40026480,-1.043,1.206,0.724,366.345,-10.64,-25.392,
40026490,-0.767,0.59,1.577,398.842,-70.892,59.78,
40026500,-1.892,-0.075,1.871,243.687,-125.597,88.742,
40026510,0.772,1.811,1.208,162.697,-166.95,23.8,
40026520,0.912,0.859,0.921,39.655,-105.402,-36.487,
40026530,1.005,0.033,0.967,-24.902,-21.402,-31.43,
40026540,0.134,-0.452,1.015,-45.57,33.792,-14.192,
40026550,-0.07,-0.3,0.981,-33.88,46.392,-8.627,
40026560,-0.26,-0.438,0.944,-29.925,47.722,2.8,
40026570,-0.584,-0.337,0.945,-11.882,38.5,5.232,
40026580,-0.249,-0.108,0.978,-7.735,20.405,-2.625,
40026580,-0.139,-0.134,0.996,-21.087,17.605,2.327,
40026600,-0.099,-0.14,1.005,-30.135,19.792,9.362,
40026600,-0.119,-0.131,1.06,-40.915,25.812,18.952,
40026620,-0.262,-0.013,1.106,-54.46,30.205,26.145,
40026620,-0.269,-0.06,1.138,-78.085,29.522,26.302,
40026640,-0.246,0.008,1.164,-110.792,25.165,20.842,
40026640,-0.281,0.01,1.163,-146.772,19.46,11.427,
40026660,-0.212,-0.141,1.063,-178.902,12.81,1.015,
40026660,-0.261,-0.135,1.051,-199.43,11.532,-8.977,
40026670,-0.237,-0.184,0.985,-209.807,10.867,-14.437,
40026680,-0.214,-0.318,0.971,-214.13,15.067,-16.59,
40026690,-0.194,-0.4,0.933,-211.627,21.542,-22.382,
40026700,-0.199,-0.539,1.065,-192.062,35.332,-30.555,
40026710,-0.18,-0.787,1.085,-201.775,54.022,-52.045,
40026720,-0.203,-0.855,0.845,-181.23,63.595,-59.447,
40026730,-0.447,-0.692,0.885,-117.74,70.49,-52.307,
40026740,-0.442,-1.133,0.624,-75.355,75.197,-56.927,
40026750,0.01,-1.113,0.872,-25.165,91.122,-61.617,
40026760,0.245,-1.319,1.006,32.532,99.347,-67.847,
40026770,0.296,-0.887,0.407,114.73,59.43,-107.257,
40026780,0.482,-0.197,0.011,150.482,20.387,-164.045,
40026790,0.232,0.005,-0.634,142.327,45.587,-166.722,
40026800,-0.078,0.539,-0.955,142.152,21.577,-164.727,
40026810,-0.054,1.194,-0.657,96.547,-20.895,-175.227,
40026820,-0.077,1.649,-0.648,19.775,-18.725,-160.562,
40026830,-0.566,0.879,0.363,-27.877,3.552,-138.74,
40026840,-1.31,-1.648,0.712,-19.197,172.725,-80.447,
40026850,0.218,-1.963,0.013,469.437,-67.2,231.56,
40026860,1.568,1.204,0.92,377.125,45.745,145.845,
40026870,-1.876,1.59,1.158,353.657,-25.357,25.882,
40026880,-0.978,-1.454,1.845,315.42,-70.805,133.367,
40026890,-1.821,0.756,1.63,251.737,-158.707,54.985,
40026900,1.356,1.748,1.09,153.247,-173.547,6.685,
40026910,1.212,0.652,0.923,11.06,-90.037,-28.35,
40026920,0.613,0.078,0.999,-27.3,-5.495,-16.94,
40026930,-0.129,-0.389,1.036,-54.88,33.845,-10.955,
40026940,-0.067,-0.351,1.008,-46.13,33.407,-14.402,
40026950,-0.271,-0.323,0.944,-41.562,33.827,-3.78,
40026960,-0.342,-0.229,0.983,-33.67,27.562,4.322,
40026970,-0.175,-0.14,1.008,-40.355,20.37,3.797,
40026980,-0.127,-0.16,1.027,-48.352,18.76,11.55,
40026990,-0.133,-0.123,1.074,-59.08,21.087,20.107,
40027000,-0.158,-0.038,1.135,-78.032,24.797,23.607,
40027010,-0.154,0.018,1.189,-106.452,27.562,21.822,
40027010,-0.204,0.089,1.169,-144.357,26.95,15.032,
40027030,-0.059,0.026,1.187,-187.46,19.285,13.247,
40027030,0.093,-0.069,1.086,-222.687,23.45,21.245,
40027050,-0.016,-0.145,1.151,-239.47,34.177,30.607,
40027050,-0.313,-0.198,1.205,-252.315,29.697,37.905,
40027070,-0.51,-0.416,1.27,-256.83,0.385,47.757,
40027070,-0.407,-0.331,1.103,-276.447,-52.342,49.42,
40027080,-0.644,-0.523,1.241,-274.855,-91.42,55.702,
40027090,-0.466,-0.49,1.195,-199.08,-167.177,67.497,
40027100,0.398,-0.586,1.567,-148.75,-170.31,109.9,
40027110,1.327,-0.59,1.819,-134.592,-131.372,103.775,
40027120,1.959,-0.331,1.497,-63.122,-39.707,4.917,
40027130,0.046,0.812,0.139,106.015,-17.08,-97.685,
40027140,-0.913,1.413,-0.244,150.587,25.76,-176.382,
40027150,-0.796,1.54,-0.801,145.372,63.402,-130.27,
40027160,-0.316,1.823,-0.791,158.27,94.097,-75.6,
40027170,-0.04,1.377,-0.3,125.982,120.12,-43.785,
40027180,0.253,0.808,0.016,98.787,104.737,-24.08,
40027190,0.907,1.052,0.1,100.485,68.232,-23.257,
40027200,-0.026,-1.285,0.154,-10.167,327.39,35.245,
40027210,-1.832,-1.998,0.013,257.022,74.672,218.26,
40027220,0.935,1.536,0.797,450.292,-63.035,129.517,
40027230,-0.795,1.851,0.675,253.942,-61.845,73.22,
40027240,-1.818,-1.851,1.715,63.367,-69.772,124.022,
40027250,-1.122,0.508,1.448,252.612,-175.98,10.622,
40027260,0.125,0.784,1.313,305.62,-217.507,-50.907,
40027270,1.511,1.038,1.088,51.73,-122.447,-44.485,
40027280,0.822,0.633,0.943,22.942,-33.11,-16.94,
40027290,-0.075,-0.185,1.033,-37.59,16.362,-2.887,
40027300,-0.071,-0.421,1.003,-40.267,29.137,-12.88,
40027310,-0.243,-0.293,0.962,-30.152,30.992,-14.385,
40027320,-0.35,-0.304,0.98,-34.702,26.215,-8.732,
40027330,-0.358,-0.199,0.959,-33.25,16.695,-7.315,
40027330,-0.268,-0.233,0.976,-30.012,5.985,-4.287,
40027350,-0.249,-0.164,0.999,-35.192,-1.977,-4.182,
40027350,-0.222,-0.107,1.056,-48.632,-6.3,-2.852,
40027370,-0.174,-0.102,1.097,-67.707,-7.105,-3.587,
40027370,-0.166,-0.149,1.115,-95.62,-5.827,-6.895,
40027390,-0.146,-0.069,1.213,-125.265,-0.227,-13.702,
40027390,-0.087,-0.086,1.1,-155.575,-2.257,-14.577,
40027410,-0.028,-0.127,1.067,-178.447,2.782,-5.67,
40027410,-0.013,-0.197,0.986,-186.235,13.387,5.11,
40027420,-0.065,-0.232,1.045,-199.045,23.87,8.627,
40027430,-0.169,-0.353,1.041,-208.39,23.975,10.185,
40027440,-0.161,-0.489,1.047,-198.922,19.267,15.61,
40027450,-0.028,-0.525,1.016,-182.805,22.277,28.787,
40027460,-0.062,-0.668,1.028,-169.907,34.965,42.647,
40027470,-0.32,-0.772,0.989,-136.71,34.842,50.995,
40027480,-0.421,-0.871,1.078,-104.702,10.64,57.015,
40027490,-0.089,-0.816,0.835,-69.265,-9.887,84.647,
40027500,-0.003,-1.173,0.829,-48.93,13.457,133.77,
40027510,-0.081,-1.317,0.914,-43.592,26.39,173.057,
40027520,-0.046,-1.219,0.368,-25.882,74.795,177.03,
40027530,0.106,-0.891,0.13,9.992,79.205,197.347,
40027540,0.311,-0.732,0.05,29.365,88.41,209.895,
40027550,0.616,-0.71,0.386,-2.03,80.185,176.977,
40027560,0.545,-0.922,0.44,-49.297,76.702,119.227,
40027570,0.48,-0.916,0.368,-45.692,51.765,59.885,
40027580,0.59,-0.733,0.687,-34.195,15.207,-10.727,
40027590,0.413,-0.79,1.096,-57.452,-7.717,-84.385,
40027600,-0.144,-1.061,0.966,-44.24,-26.215,-136.36,
40027610,-0.489,-0.756,0.565,15.61,-78.487,-167.545,
40027620,-0.439,-0.225,0.35,40.127,-122.202,-186.585,
40027630,-0.629,-0.109,0.478,-3.027,-119.84,-185.692,
40027640,-0.888,-0.278,0.69,-59.08,-97.055,-167.877,
40027650,-0.924,-0.293,0.944,-75.11,-82.495,-142.275,
40027660,-0.932,-0.293,1.153,-72.922,-71.452,-116.742,
40027670,-0.759,-0.428,1.221,-76.405,-57.312,-98.157,
40027680,-0.869,-0.656,1.042,-46.007,-57.382,-61.932,
40027690,-0.794,-0.596,0.781,-11.847,-75.285,-54.425,
40027700,-0.717,-0.495,0.652,-15.942,-81.41,-47.145,
