#Format version: 1.0
time[ms],accX[g],accY[g],accZ[g],Value 1,Value 2,Value 3,
65135370,0.104,-0.286,0.941,0,0.962,-0.612,
65135380,0.103,-0.285,0.942,-0.017,1.312,-0.49,
65135390,0.107,-0.285,0.941,-0.227,1.697,-0.35,
65135400,0.102,-0.285,0.943,-0.437,2.135,-0.175,
65135410,0.1,-0.287,0.943,-0.612,2.415,-0.105,
65135420,0.099,-0.289,0.942,-0.647,2.415,-0.052,
65135430,0.095,-0.289,0.944,-0.542,2.292,-0.017,
65135440,0.093,-0.288,0.941,-0.472,1.942,-0.122,
65135450,0.093,-0.287,0.941,-0.385,1.557,-0.297,
65135460,0.095,-0.287,0.941,-0.28,1.312,-0.385,
65135470,0.097,-0.287,0.942,-0.21,1.172,-0.49,
65135480,0.096,-0.29,0.941,-0.262,1.172,-0.455,
65135490,0.093,-0.288,0.943,-0.122,1.067,-0.525,
65135500,0.091,-0.292,0.943,-0.105,0.875,-0.507,
65135510,0.091,-0.289,0.943,0.087,0.49,-0.647,
65135520,0.093,-0.289,0.942,0.21,0.105,-0.735,
65135530,0.095,-0.289,0.942,0.297,-0.157,-0.77,
65135540,0.096,-0.285,0.943,0.385,-0.315,-0.875,
65135550,0.098,-0.287,0.943,0.332,-0.385,-0.892,
65135560,0.101,-0.286,0.944,0.315,-0.332,-0.857,
65135570,0.1,-0.289,0.942,0.245,-0.122,-0.735,
65135580,0.097,-0.287,0.941,0.35,-0.052,-0.717,
65135580,0.095,-0.287,0.943,0.35,-0.21,-0.752,
65135590,0.094,-0.288,0.943,0.42,-0.507,-0.892,
65135600,0.097,-0.289,0.943,0.49,-0.787,-0.962,
65135610,0.101,-0.287,0.944,0.56,-0.857,-0.997,
65135620,0.106,-0.286,0.944,0.472,-0.77,-0.84,
65135630,0.104,-0.288,0.945,0.315,-0.507,-0.787,
65135640,0.105,-0.288,0.944,0.315,-0.332,-0.735,
65135650,0.105,-0.287,0.945,0.315,-0.105,-0.665,
65135660,0.102,-0.286,0.945,0.245,0.07,-0.577,
65135670,0.103,-0.287,0.943,0.175,0.087,-0.577,
65135680,0.101,-0.287,0.944,0.175,0.122,-0.542,
65135690,0.1,-0.288,0.944,0.175,0.157,-0.56,
65135700,0.101,-0.29,0.943,0.175,0.122,-0.595,
65135710,0.101,-0.289,0.943,0.28,0.192,-0.595,
65135720,0.1,-0.29,0.943,0.42,0.175,-0.542,
65135730,0.103,-0.286,0.944,0.507,0.157,-0.56,
65135740,0.102,-0.288,0.943,0.525,0.227,-0.56,
65135750,0.102,-0.288,0.943,0.542,0.192,-0.56,
65135760,0.101,-0.287,0.943,0.595,0.157,-0.472,
65135770,0.105,-0.286,0.944,0.577,0.192,-0.455,
65135780,0.103,-0.286,0.944,0.507,0.315,-0.472,
65135790,0.106,-0.286,0.944,0.455,0.525,-0.35,
65135800,0.105,-0.286,0.944,0.455,0.77,-0.245,
65135810,0.106,-0.287,0.945,0.402,0.997,-0.07,
65135820,0.105,-0.287,0.944,0.35,1.19,0.035,
65135830,0.102,-0.287,0.944,0.35,1.33,0.157,
65135840,0.102,-0.288,0.944,0.367,1.452,0.332,
65135850,0.101,-0.289,0.944,0.507,1.47,0.402,
65135860,0.102,-0.291,0.945,0.612,1.522,0.455,
65135870,0.101,-0.292,0.945,0.77,1.662,0.577,
65135880,0.103,-0.294,0.946,1.05,1.75,0.787,
65135890,0.104,-0.295,0.948,1.417,1.82,1.085,
65135900,0.1,-0.297,0.949,1.732,1.82,1.33,
65135910,0.092,-0.299,0.952,2.1,1.452,1.487,
65135920,0.083,-0.301,0.953,2.537,0.717,1.61,
65135920,0.076,-0.296,0.958,2.887,-0.192,1.522,
65135940,0.089,-0.291,0.957,2.555,-1.067,1.155,
65135940,0.095,-0.3,0.948,2.432,-1.33,0.612,
65135960,0.112,-0.288,0.946,3.342,-1.662,0.42,
65135960,0.12,-0.284,0.942,4.007,-1.4,0.927,
65135980,0.086,-0.277,0.936,4.147,-1.505,1.207,
65135980,0.114,-0.266,0.933,4.165,-3.027,1.207,
65136000,0.125,-0.255,0.93,3.657,-3.395,1.54,
65136000,0.037,-0.257,0.886,3.097,-3.85,1.33,
65136010,0.037,-0.185,0.94,3.272,-6.44,-0.315,
65136020,0.087,-0.287,0.918,0.262,-8.19,-0.49,
65136030,-0.009,-0.252,0.942,0.315,-10.01,-1.207,
65136040,0.054,-0.266,0.958,-0.455,-14.49,-1.05,
65136050,0.029,-0.322,0.927,-1.767,-17.797,-0.297,
65136060,-0.035,-0.247,0.955,1.05,-23.45,-1.977,
65136070,0.149,-0.283,0.933,0.665,-30.572,-1.942,
65136080,0.113,-0.284,0.909,1.435,-32.2,-1.032,
65136090,0.117,-0.234,0.941,2.45,-34.492,-1.592,
65136100,0.24,-0.268,0.943,1.067,-35.052,-1.172,
65136110,0.199,-0.245,0.941,-0.735,-30.24,-0.315,
65136120,0.195,-0.275,0.94,-2.38,-26.53,-1.225,
65136130,0.227,-0.26,0.942,-3.745,-22.855,-2.52,
65136140,0.142,-0.268,0.942,-5.477,-18.672,-4.637,
65136150,0.125,-0.315,0.939,-5.967,-17.57,-7.997,
65136160,0.096,-0.319,0.936,-4.13,-17.552,-14.175,
65136170,0.12,-0.323,0.937,-0.297,-18.567,-20.492,
65136180,0.183,-0.305,0.946,3.43,-19.407,-25.602,
65136190,0.251,-0.281,0.947,4.672,-18.322,-26.897,
65136200,0.295,-0.259,0.953,3.29,-15.277,-26.075,
65136210,0.35,-0.235,0.95,0.122,-10.727,-23.607,
65136220,0.337,-0.236,0.95,-4.532,-3.99,-18.27,
65136230,0.286,-0.257,0.949,-9.31,1.715,-12.705,
65136240,0.299,-0.247,0.955,-13.772,6.037,-8.4,
65136250,0.25,-0.252,0.97,-19.057,9.677,-2.817,
65136260,0.195,-0.257,1.006,-25.06,10.237,2.292,
65136260,0.148,-0.239,1.074,-33.477,6.702,6.405,
65136280,0.149,-0.211,1.196,-46.445,-1.12,10.762,
65136280,0.14,-0.175,1.398,-64.942,-13.23,15.627,
65136300,0.14,-0.224,1.298,-89.18,-34.23,22.575,
65136300,0.307,-0.308,1.352,-110.355,-48.16,25.462,
65136320,0.036,-0.172,1.245,-134.435,-14.997,11.182,
65136320,0.145,0.032,1.205,-180.53,13.422,-16.065,
65136330,0.37,-0.165,1.248,-244.177,30.065,-36.032,
65136340,0.39,-0.491,0.986,-289.642,43.54,-49.822,
65136350,0.379,-1.183,0.674,-306.95,58.327,-52.377,
65136360,0.688,-1.563,0.393,-281.96,90.825,-49.927,
65136370,0.595,-1.842,-0.068,-231.997,137.007,-52.43,
65136380,-0.354,-1.581,0.232,-171.167,120.855,-81.217,
65136390,0.213,-1.775,-0.591,-123.025,82.53,-115.64,
65136400,0.269,-1.347,-0.559,-75.39,55.877,-102.497,
65136410,-0.294,-1.158,-0.04,-88.392,63.682,-107.275,
65136420,-0.886,-1.203,0.022,-78.575,83.772,-62.265,
65136430,-0.289,-0.465,-0.087,-46.532,115.097,-23.765,
65136440,0.039,0.308,-0.325,-21.367,182.087,4.812,
65136450,-0.026,0.929,-0.397,-18.322,257.862,8.417,
65136460,-0.083,0.915,-0.323,-26.215,309.575,-7.805,
65136470,-0.058,0.653,-0.444,-22.365,327.53,-33.862,
65136480,-0.123,0.428,0.478,3.5,292.565,-76.37,
65136490,-0.259,-0.975,1.872,69.195,170.975,-106.085,
65136500,-1.897,-1.998,0.194,201.355,-26.635,-58.082,
65136510,0.821,-0.976,0.801,446.075,-140.56,-17.5,
65136520,0.097,1.375,1.685,474.215,-138.687,-21.157,
65136530,-1.297,-0.215,1.564,409.185,-124.057,-50.872,
65136540,-0.941,-0.018,1.886,408.047,-175.35,-96.635,
65136550,0.653,0.229,1.913,336.542,-203.997,-125.772,
65136560,1.929,1.701,1.675,198.502,-162.067,-109.042,
65136570,1.413,0.603,1.122,34.842,-65.782,-42.052,
65136580,1.247,0.078,0.937,-45.272,10.325,6.807,
65136590,0.186,-0.146,1.022,-75.075,54.075,30.222,
65136600,-0.248,-0.479,0.962,-91,57.855,24.272,
65136610,-0.299,-0.505,0.827,-79.345,41.317,0.105,
65136620,-0.181,-0.565,0.84,-51.975,23.66,-11.48,
65136630,0.016,-0.761,0.672,-28.56,11.375,-27.3,
65136640,0.185,-0.55,0.74,1.767,1.767,-23.117,
65136650,0.03,-0.42,0.882,24.272,-2.87,-12.215,
65136660,-0.01,-0.292,0.995,33.635,-8.277,-12.687,
65136670,0.242,-0.141,1.031,28.367,-12.337,-18.077,
65136670,0.318,-0.14,1.011,12.582,-7.735,-14.98,
65136690,0.263,-0.198,0.988,-3.22,-0.227,-7.77,
65136690,0.169,-0.265,0.967,-13.912,5.057,-3.675,
65136710,0.106,-0.291,0.967,-19.022,6.807,-3.867,
65136710,-0.006,-0.235,1.006,-18.865,7.192,-9.502,
65136730,0.089,-0.286,1.028,-24.412,3.5,-17.517,
65136730,0.149,-0.238,1.081,-34.002,2.8,-21.647,
65136750,0.129,-0.202,1.18,-51.082,6.002,-20.685,
65136750,0.22,-0.078,1.406,-75.617,23.537,-23.502,
65136760,-0.148,-0.209,1.374,-115.115,61.757,-36.05,
65136770,0.261,-0.25,1.526,-155.347,84.262,-55.09,
65136780,0.344,-0.111,1.308,-200.095,131.915,-71.942,
65136790,0.322,-0.383,1.045,-247.712,162.977,-91.857,
65136800,0.471,-0.781,1.016,-275.572,178.447,-111.51,
65136810,0.852,-1.314,0.718,-271.495,216.335,-115.64,
65136820,1.716,-1.978,0.715,-236.845,315.7,-110.267,
65136830,-1.11,-1.998,0.155,-121.887,297.762,-177.362,
65136840,-1.943,-1.782,-0.186,-9.257,125.632,-285.495,
65136850,-0.806,-0.299,0.06,52.535,20.142,-216.107,
65136860,-0.794,-0.223,0.355,-8.417,-13.685,-43.82,
65136870,-0.85,-0.451,0.352,-41.737,-60.252,90.737,
65136880,0.462,0.18,0.125,-6.405,-91.245,178.885,
65136890,1.195,0.91,0.101,-6.737,-76.475,203.84,
65136900,1.057,0.748,0.16,-23.59,-52.955,191.765,
65136910,1.014,1.053,0.034,-20.195,-57.942,158.497,
65136920,1.15,1.513,-0.169,7.122,-71.75,109.375,
65136930,0.904,1.324,-0.434,11.777,-66.815,76.282,
65136940,0.58,0.796,-0.726,9.1,-54.46,65.327,
65136950,0.161,0.134,-0.644,-4.235,-52.955,65.852,
65136960,0.076,-1.094,0.816,-33.372,-90.387,79.415,
65136970,-1.998,-1.998,-0.464,-21.77,-207.602,230.685,
65136980,0.771,0.049,1.117,474.46,-242.27,86.275,
65136990,-0.065,1.786,1.961,504.98,-144.917,-94.062,
65137000,-1.652,-1.894,1.399,261.135,-117.985,1.347,
65137010,0.454,1.42,1.98,360.78,-194.145,-124.897,
65137010,1.688,0.897,1.744,200.725,-168.157,-100.66,
65137030,1.623,1.014,1.285,52.552,-87.237,-59.43,
65137030,0.981,0.079,1.047,-48.37,-9.17,-5.442,
65137050,0.376,-0.277,0.942,-81.917,29.452,10.92,
65137050,0.061,-0.371,0.972,-87.412,38.955,15.225,
65137070,-0.197,-0.446,0.919,-83.177,32.812,12.337,
65137070,-0.215,-0.686,0.714,-65.31,17.5,0.98,
65137080,0.093,-0.623,0.668,-33.792,1.662,-10.342,
65137090,0.27,-0.507,0.744,-7.7,-3.535,-9.17,
65137100,0.119,-0.426,0.874,8.82,-2.905,2.852,
65137110,0.065,-0.262,0.99,16.082,-5.092,3.115,
65137120,0.18,-0.225,1.045,10.342,-8.295,2.117,
65137130,0.191,-0.19,1.053,-2.677,-9.065,4.2,
65137140,0.187,-0.246,1.024,-17.622,-9.38,7.28,
65137150,0.209,-0.268,1.01,-29.522,-9.695,9.87,
65137160,0.203,-0.253,1.04,-38.745,-9.45,12.53,
65137170,0.185,-0.263,1.098,-48.475,-8.925,13.772,
65137180,0.17,-0.169,1.148,-59.325,-8.085,14.402,
65137190,0.123,-0.347,1.136,-73.185,-12.092,17.08,
65137200,0.131,-0.269,1.137,-86.257,-21.105,18.672,
65137210,0.13,-0.267,1.154,-100.572,-26.04,20.475,
65137220,0.062,-0.363,1.151,-119.822,-32.025,22.032,
65137230,0.059,-0.306,1.119,-136.027,-39.567,14.735,
65137240,0.093,-0.309,1.095,-157.325,-42.192,7.997,
65137250,-0.064,-0.391,1.106,-174.265,-43.067,0.175,
65137260,0.003,-0.437,1.135,-192.15,-45.377,-13.212,
65137270,0.199,-0.566,1.325,-207.847,-39.042,-20.23,
65137280,0.389,-0.911,1.323,-225.295,-10.797,-17.955,
65137290,0.069,-1.148,1.273,-209.562,22.137,-17.535,
65137300,-0.348,-1.349,1.069,-179.515,31.622,-29.592,
65137310,-0.449,-1.408,1.048,-155.942,26.862,-26.495,
65137320,-0.571,-1.413,1.377,-97.772,15.995,-52.045,
65137330,-1.406,-1.521,1.347,-29.645,26.547,-7.682,
65137340,-0.824,0.169,0.737,108.36,25.06,18.287,
65137350,-0.085,1.33,0.55,186.077,34.265,42.91,
65137360,0.078,1.363,0.141,162.907,63.052,55.597,
65137370,-0.024,1.4,-0.182,147.385,88.76,49.192,
65137380,-0.191,1.257,-0.266,112.787,82.757,43.872,
65137390,-0.087,0.82,-0.475,67.567,60.707,53.935,
65137400,-0.049,0.483,-0.936,47.845,45.71,91.7,
65137410,-0.085,0.222,-1.304,28.612,25.095,133.49,
65137420,0.635,-0.308,-1.448,-12.845,13.562,182.91,
65137420,0.97,-0.889,-1.868,-42.717,35.98,242.97,
65137440,-0.015,-1.222,-1.981,-80.465,42.84,255.202,
65137440,1.442,-1.873,0.866,-206.5,-180.81,188.58,
65137460,0.45,-1.557,-0.236,208.302,-218.505,122.797,
65137460,-0.462,1.997,1.205,570.412,-83.562,-89.25,
65137480,-0.866,0.359,1.796,418.88,-52.815,-6.475,
65137480,-1.049,-0.496,1.998,292.6,-159.827,14.017,
65137500,1.247,1.976,1.885,271.127,-198.45,-121.59,
65137500,1.905,1.082,1.158,40.932,-116.83,-73.132,
65137510,1.413,-0.154,0.912,-63.665,-10.762,-6.912,
65137520,0.005,-0.314,0.97,-86.135,36.487,26.792,
65137530,-0.3,-0.664,0.874,-82.285,32.707,23.59,
65137540,-0.306,-0.483,0.906,-59.377,15.505,1.925,
65137550,-0.009,-0.624,0.748,-39.48,-1.47,-17.307,
65137560,0.462,-0.448,0.753,-17.307,-7.122,-21.017,
65137570,0.155,-0.524,0.771,-5.215,-1.347,-5.635,
65137580,-0.002,-0.387,0.897,10.78,-0.665,-3.535,
65137590,0.106,-0.226,1.021,16.45,-5.775,-9.362,
65137600,0.21,-0.204,1.014,6.527,-7.647,-11.952,
65137610,0.235,-0.23,1.005,-5.18,-5.757,-10.465,
65137620,0.151,-0.238,1.002,-14.56,-4.06,-7.84,
65137630,0.05,-0.328,0.954,-19.897,-5.477,-8.33,
65137640,0.059,-0.349,0.944,-18.602,-9.765,-13.247,
65137650,0.118,-0.323,0.944,-17.955,-12.705,-18.69,
65137660,0.139,-0.36,0.912,-19.005,-12.495,-21.787,
65137670,0.09,-0.343,0.935,-18.83,-7.91,-25.235,
65137680,0.084,-0.41,0.969,-18.917,-8.382,-29.627,
65137690,0.146,-0.279,1.049,-22.697,-9.957,-35.402,
65137700,0.217,-0.229,1.17,-36.855,-7.017,-39.375,
65137710,0.248,-0.201,1.262,-60.585,-3.762,-37.59,
65137720,0.248,-0.235,1.3,-92.767,0.98,-35.42,
65137730,0.248,-0.278,1.308,-127.942,6.457,-33.005,
65137740,0.201,-0.235,1.254,-164.745,19.495,-33.337,
65137750,0.121,-0.118,1.206,-202.842,35.892,-41.055,
65137760,-0.058,-0.137,1.171,-243.39,45.01,-56.402,
65137760,0.064,-0.238,1.083,-284.567,47.897,-77.787,
65137780,0.06,-0.629,0.935,-329.577,50.96,-96.897,
65137780,0.388,-1.155,0.666,-357.577,46.655,-116.847,
65137800,0.926,-1.369,0.709,-319.077,67.742,-124.74,
65137800,1.565,-1.491,0.213,-285.512,174.667,-110.652,
65137820,-0.308,-1.96,0.201,-244.685,269.097,-65.257,
65137820,0.712,-1.932,-0.005,-177.52,204.312,-129.15,
65137830,1.634,-1.453,0.353,-76.755,170.8,-211.032,
65137840,-1.194,-1.616,-0.483,-24.78,128.835,-296.082,
65137850,-1.738,-0.727,-0.501,33.302,52.762,-254.1,
65137860,-1.204,-0.581,-0.148,42.21,-28.595,-102.287,
65137870,-0.446,-0.711,-0.14,10.57,-81.305,44.135,
65137880,-0.155,-0.505,-0.14,31.902,-102.007,149.607,
65137890,0.378,0.097,-0.162,51.17,-107.345,196.42,
65137900,0.67,0.471,-0.165,46.165,-95.987,211.312,
65137910,0.855,0.64,-0.251,20.422,-93.94,179.55,
65137920,1.2,0.781,-0.292,-8.61,-95.602,119.525,
65137930,1.138,1.087,-0.257,-32.777,-74.707,69.457,
65137940,0.417,0.965,-0.389,-55.825,-51.502,27.055,
65137950,-0.002,0.983,-0.444,-39.322,-32.585,9.922,
65137960,0.431,-0.819,1.992,-32.322,-20.807,37.345,
65137970,-0.077,-1.998,-0.089,50.855,108.587,238.787,
65137980,1.39,-1.416,-0.55,445.952,-9.362,192.78,
65137990,-0.746,1.989,1.644,564.182,26.46,-20.947,
65138000,-1.865,0.613,1.724,403.83,30.24,20.072,
65138010,-0.465,-1.807,1.455,304.71,-8.82,17.657,
65138020,-1.028,1.38,1.927,344.61,-19.022,-172.602,
65138030,0.765,0.024,1.947,238.455,-48.317,-181.387,
65138040,1.378,0.944,1.764,162.33,-58.975,-146.265,
65138050,1.337,0.358,1.35,69.965,-44.415,-63.77,
65138060,0.697,0.027,1.171,4.655,-17.937,-0.577,
65138070,0.09,-0.272,1.059,-37.485,-1.225,23.957,
65138080,-0.015,-0.4,0.94,-55.107,-1.12,16.205,
65138090,-0.093,-0.481,0.853,-55.737,0.035,-1.715,
65138100,0.049,-0.586,0.751,-44.625,1.242,-19.11,
65138110,0.226,-0.514,0.745,-27.02,3.762,-29.137,
65138120,0.331,-0.42,0.836,-12.547,3.587,-25.007,
65138130,0.39,-0.394,0.868,-8.487,1.785,-10.552,
65138140,0.333,-0.278,0.985,-8.33,1.61,4.007,
65138150,0.239,-0.29,1.049,-23.082,2.747,13.562,
65138160,0.26,-0.241,1.107,-35.56,3.535,18.27,
65138170,0.311,-0.187,1.161,-51.8,3.412,23.66,
65138170,0.358,-0.183,1.16,-73.92,2.59,34.737,
65138190,0.287,-0.208,1.097,-94.762,-0.087,48.475,
65138190,0.191,-0.322,0.999,-107.397,-6.212,59.867,
65138210,0.143,-0.42,0.948,-112.175,-15.207,67.235,
65138210,0.08,-0.436,0.914,-113.82,-24.325,68.652,
65138230,0.035,-0.463,0.93,-114.8,-31.622,66.465,
65138230,0.05,-0.416,1.012,-122.832,-38.78,61.95,
65138250,-0.017,-0.408,1.035,-135.17,-48.195,59.43,
65138250,0.112,-0.383,1.002,-151.707,-54.425,55.79,
65138260,-0.031,-0.419,1.134,-178.185,-54.372,51.502,
65138270,-0.157,-0.422,1.174,-205.03,-62.475,36.855,
65138280,-0.041,-0.422,1.145,-230.842,-70.455,20.807,
65138290,0.255,-0.747,0.947,-259.77,-67.952,9.922,
65138300,0.34,-0.842,0.905,-254.345,-53.515,9.747,
65138310,0.711,-0.947,1.03,-253.12,-24.552,22.767,
65138320,0.653,-1.354,0.799,-241.955,27.842,43.522,
65138330,0.592,-1.686,0.751,-186.2,71.802,42.052,
65138340,0.108,-1.25,0.536,-117.652,109.83,29.085,
65138350,-0.104,-0.963,0.466,-53.357,105.297,-15.697,
65138360,0.221,-1.293,1.668,23.555,66.535,-43.977,
65138370,-0.191,-0.649,0.684,143.377,56.105,-73.797,
65138380,0.066,0.138,0.441,222.302,35.332,-126.875,
65138390,0.31,0.438,0.004,263.655,74.97,-129.027,
65138400,-0.075,0.695,-0.289,254.327,124.32,-128.502,
65138410,-0.298,0.708,-0.42,183.767,138.722,-150.517,
65138420,0.024,0.268,-0.56,107.975,142.397,-148.907,
65138430,0.024,-0.139,-0.752,65.275,152.477,-124.95,
65138440,-0.099,-0.451,-0.849,43.645,140.157,-108.307,
65138450,-0.167,-0.866,-0.891,34.475,106.925,-70.017,
65138460,-0.333,-1.136,-1.091,41.895,44.117,-14,
65138470,-0.214,-1.057,-1.254,49.962,-39.865,63.612,
65138480,0.409,-1.094,-1.496,43.592,-99.12,148.54,
65138490,0.378,-0.812,-1.692,31.832,-118.982,199.29,
65138500,1.846,-1.648,1.967,11.637,-56.682,200.427,
65138510,-1.023,-1.909,-0.445,321.195,-4.27,225.855,
65138510,-0.825,1.621,1.331,571.567,-67.497,-25.182,
65138530,0.185,0.024,1.574,504.087,-50.365,25.777,
65138530,-1.96,-0.131,1.99,467.18,-59.01,-24.325,
65138550,0.331,1.435,1.948,368.865,-165.34,-84.385,
65138550,1.463,1.317,1.23,116.83,-149.012,-69.492,
65138570,1.717,0.368,1.02,-54.6,-39.077,-6.265,
65138570,0.519,-0.364,0.951,-103.967,22.242,23.012,
65138580,0.157,-0.539,0.829,-113.68,35.315,24.972,
65138590,-0.291,-1.041,0.662,-87.622,29.662,19.81,
65138600,-0.435,-0.766,0.725,-35.892,9.572,6.72,
65138610,0.196,-0.56,0.759,5.915,-10.692,-15.557,
65138620,0.345,-0.317,0.892,25.865,-12.11,-14.472,
65138630,0.079,-0.238,1.012,27.877,-8.732,-4.2,
65138640,0.308,-0.088,1.063,19.897,-10.797,-4.935,
65138650,0.233,-0.132,1.067,1.365,-9.87,-0.21,
65138660,0.289,-0.168,1.052,-17.552,-10.99,3.675,
65138670,0.286,-0.197,1.036,-34.247,-11.812,11.305,
65138680,0.235,-0.224,1.078,-46.602,-11.515,20.055,
65138690,0.245,-0.168,1.236,-60.147,-12.897,24.027,
65138700,0.375,-0.016,1.395,-84.91,-7.122,30.747,
65138710,0.331,-0.242,1.33,-117.722,1.925,47.372,
65138720,0.401,-0.111,1.27,-152.145,-5.022,57.89,
65138730,0.455,0.108,1.229,-188.09,1.697,58.24,
65138740,0.502,0.101,1.213,-237.142,17.78,61.547,
65138750,0.533,0.054,1.18,-288.225,37.537,57.54,
65138760,0.434,-0.098,1.113,-333.2,50.522,55.51,
65138770,0.731,-0.601,1.009,-369.6,56.385,59.062,
65138780,1.034,-1.005,1.117,-354.952,73.412,76.37,
65138790,0.748,-1.409,0.936,-305.795,99.767,105.822,
65138800,0.271,-1.811,0.08,-242.497,96.477,123.165,
65138810,0.776,-1.556,0.129,-177.87,55.02,51.292,
65138820,0.911,-1.362,-0.119,-114.59,-21.472,-31.78,
65138830,1.838,-0.818,0.896,-50.032,-9.94,-102.305,
65138840,-0.727,-0.811,0.756,-27.23,-6.265,-201.285,
65138850,-1.606,0.025,0.807,3.675,-31.605,-245.262,
65138860,-1.339,0.8,1.092,68.075,-38.377,-158.55,
65138870,-0.96,1.01,1.228,99.54,-49.227,-82.162,
65138880,-0.684,1.084,0.918,139.317,-44.677,-24.64,
65138890,-0.496,1.475,0.091,218.575,-30.52,7.735,
65138900,-0.124,1.935,-0.283,241.57,-13.055,6.317,
65138910,0.251,1.477,-0.204,167.3,10.43,14.157,
65138920,0.218,0.469,-0.133,79.082,35.315,26.18,
65138920,0.09,-0.004,-0.521,56.21,37.117,13.597,
65138930,0.322,0.098,-0.975,58.257,36.452,-3.412,
65138940,0.951,-0.752,0.207,35.367,56.77,13.44,
65138950,0.196,-1.998,-0.014,-75.53,211.487,207.987,
65138960,-0.024,-1.23,-0.351,349.422,-102.06,284.795,
65138970,-0.133,1.997,0.694,572.442,-100.555,-41.457,
65138980,-1.998,1.108,1.946,409.692,24.115,21.42,
65138990,-1.202,-1.602,1.878,227.01,-85.645,28.77,
65139000,0.321,1.908,1.976,311.745,-171.115,-167.895,
65139010,1.927,1.417,1.156,102.322,-154.682,-102.147,
65139020,1.298,-0.059,0.859,-10.867,-58.642,-6.65,
65139030,0.768,-0.5,0.79,-41.825,-1.785,22.855,
65139040,0.501,0.006,1.06,-51.66,29.942,29.225,
65139050,-0.305,-0.371,1.109,-73.937,38.15,39.567,
65139060,-0.257,-0.387,1.051,-80.5,16.677,20.72,
65139070,0.234,-0.413,0.816,-77.455,-1.837,3.307,
65139080,0.217,-0.661,0.608,-59.045,0.875,1.592,
65139090,0.236,-0.543,0.676,-29.89,7.017,4.287,
65139100,0.274,-0.397,0.8,-7.752,11.76,6.195,
65139110,0.137,-0.399,0.836,0.42,15.12,10.185,
65139120,0.02,-0.392,0.912,7.28,13.177,9.292,
65139130,0.1,-0.32,0.966,12.407,7.192,1.4,
65139140,0.129,-0.316,0.971,9.66,2.327,-2.432,
65139150,0.209,-0.266,0.988,4.27,0.035,-3.447,
65139160,0.259,-0.233,1.01,-4.707,0.717,-1.575,
65139170,0.253,-0.249,1.012,-16.222,3.167,2.852,
65139180,0.18,-0.212,1.078,-25.987,7.035,6.405,
65139190,0.115,-0.223,1.104,-35.787,12.302,7.017,
65139200,0.158,-0.288,1.156,-50.942,12.057,5.722,
65139210,0.143,-0.275,1.221,-68.95,11.602,3.92,
65139220,0.098,-0.272,1.245,-92.277,9.082,5.057,
65139230,0.222,-0.256,1.205,-115.885,4.112,4.62,
65139240,0.188,-0.307,1.161,-144.007,4.865,7.07,
65139250,0.168,-0.257,1.084,-172.515,11.007,2.712,
65139260,0.23,-0.214,1.06,-204.802,22.907,-2.73,
65139260,0.281,-0.208,1.12,-241.36,36.942,-6.527,
65139280,0.414,-0.322,1.154,-285.127,48.3,-7.42,
65139280,0.808,-1.035,1.02,-305.462,70.962,0.21,
65139300,1.007,-1.364,1.023,-272.422,121.345,24.167,
65139300,0.593,-1.549,0.522,-247.957,175.14,23.467,
65139320,0.184,-1.615,-0.112,-197.942,182.507,-7.7,
65139320,0.672,-1.841,0.371,-150.552,120.452,-58.415,
65139330,1.859,-1.443,-0.438,-48.475,77.962,-110.775,
65139340,1,-0.799,0.15,28.98,71.032,-190.085,
65139350,-0.577,-0.558,0.084,31.412,36.067,-273.052,
65139360,-0.905,-0.155,0.111,49.577,15.61,-223.562,
65139370,-0.936,0.336,-0.125,84.682,-13.037,-147.227,
65139380,-0.452,0.976,-0.097,89.32,-29.942,-114.485,
65139390,-0.43,0.892,0.09,49.577,-25.13,-43.732,
65139400,-0.206,0.804,-0.085,11.375,-15.26,19.967,
65139410,0.207,1.198,-0.41,50.645,-7.84,36.295,
65139420,0.434,1.618,-0.629,72.852,-7.455,33.495,
65139430,0.527,0.85,-0.981,28.385,-8.312,47.32,
65139440,-1.022,-1.559,1.068,-22.925,-50.05,117.495,
65139450,1.037,-1.998,-0.861,-53.655,132.58,346.062,
65139460,0.325,-0.763,0.258,447.895,25.76,333.515,
65139470,-1.941,1.997,1.505,567.472,-10.325,61.845,
65139480,-1.196,-0.076,1.959,419.142,-83.842,29.277,
65139490,-0.71,-0.032,1.983,396.917,-189.787,-94.045,
65139500,1.716,1.579,1.823,322.42,-224.56,-192.552,
65139510,1.888,1.637,1.267,88.112,-115.972,-80.325,
65139520,1.303,0.033,1.093,-55.982,14.175,24.36,
65139530,0.282,0.125,1.122,-105.927,66.255,49.42,
65139540,-0.083,-0.604,0.953,-134.435,74.48,45.675,
65139550,-0.297,-0.671,0.808,-119.595,63.98,26.337,
65139560,-0.362,-0.866,0.649,-86.502,43.312,12.302,
65139570,-0.014,-0.614,0.668,-45.237,22.365,-3.99,
65139580,0.165,-0.572,0.695,-16.887,12.285,-2.677,
65139590,0.018,-0.481,0.811,1.82,7.245,5.687,
65139600,-0.072,-0.33,0.99,16.555,0.63,7.997,
65139600,0.036,-0.292,0.993,10.132,-7.525,1.557,
65139620,0.085,-0.299,0.959,3.5,-11.235,-1.785,
65139620,0.132,-0.289,0.967,-0.297,-12.18,-4.672,
65139640,0.239,-0.252,1.006,-5.6,-10.692,-3.902,
65139640,0.277,-0.304,0.927,-17.062,-6.457,2.765,
65139660,0.074,-0.421,0.836,-20.685,-2.362,9.852,
65139660,-0.081,-0.498,0.793,-10.115,-4.48,5.985,
65139670,-0.031,-0.501,0.799,6.422,-11.62,-5.705,
65139680,0.04,-0.46,0.841,21.385,-17.78,-15.452,
65139690,0.198,-0.36,0.921,29.172,-21.087,-19.11,
65139700,0.244,-0.285,1.003,25.795,-19.617,-14.175,
65139710,0.208,-0.25,1.051,14.07,-15.732,-9.485,
65139720,0.245,-0.182,1.109,-2.345,-11.252,-7.735,
65139730,0.262,-0.136,1.204,-25.637,-4.235,-5.722,
65139740,0.211,0.015,1.33,-57.487,16.87,-2.415,
65139750,0.429,-0.147,1.375,-98.087,36.89,2.222,
65139760,0.325,-0.176,1.33,-139.107,48.09,10.045,
65139770,0.308,-0.201,1.239,-172.375,54.512,16.695,
65139780,0.361,-0.316,1.152,-195.492,64.137,19.67,
65139790,0.518,-0.269,1.129,-205.205,83.895,26.477,
65139800,0.586,-0.357,1.175,-227.622,103.127,37.397,
65139810,0.925,-0.821,1.259,-247.765,128.327,54.145,
65139820,0.678,-1.3,0.944,-215.547,166.53,69.79,
65139830,-0.248,-1.184,0.384,-154.857,146.405,60.83,
65139840,-0.728,-1.168,0.15,-82.897,68.39,40.582,
65139850,0.455,-1.875,0.558,-35.805,-25.725,12.372,
65139860,1.169,-1.746,0.023,16.87,-105.28,-47.687,
65139870,-0.37,-0.59,0.003,102.287,-135.135,-129.202,
65139880,-1.377,-0.342,0.134,109.672,-135.94,-117.985,
65139890,-0.971,-0.451,0.127,71.12,-157.08,-43.592,
65139900,-0.728,-0.501,0.01,70.49,-163.59,34.09,
65139910,-1.031,-0.162,-0.232,74.9,-176.96,110.04,
65139920,-0.904,0.225,-0.493,68.53,-194.39,177.572,
65139930,0.272,0.833,-0.591,65.31,-175.665,237.492,
65139940,0.743,1.42,-0.389,49.525,-114.87,271.057,
65139950,0.634,1.589,-0.354,5.985,-81.62,244.23,
65139960,0.894,1.056,-0.1,-25.497,-89.862,170.975,
65139970,1.927,-1.837,1.998,-10.727,-55.737,151.095,
65139980,-1.146,-1.998,-0.809,131.74,-47.162,242.165,
65139990,-0.118,-0.316,0.282,497.945,-154.42,87.202,
65140000,-0.427,1.993,1.795,538.79,-45.097,-51.432,
65140010,-1.417,-1.507,1.998,341.67,-55.58,-22.627,
65140010,0.123,1.237,1.998,367.71,-146.667,-102.97,
65140030,1.873,1.817,1.49,176.837,-151.62,-99.487,
65140030,1.637,0.485,1.104,-19.985,-58.397,-30.345,
65140050,0.926,0.136,1.025,-93.992,13.72,11.48,
65140050,0.276,-0.503,0.866,-127.015,43.715,33.792,
65140070,-0.269,-0.671,0.86,-116.2,43.942,29.96,
65140070,-0.543,-0.77,0.706,-84.49,23.887,11.41,
65140080,-0.116,-0.938,0.544,-36.242,0.332,-17.657,
65140090,0.387,-0.597,0.644,8.61,-7.927,-32.9,
65140100,0.345,-0.442,0.806,33.967,-4.445,-15.592,
65140110,0.144,-0.196,1.055,43.855,0.332,-5.74,
65140120,0.105,-0.158,1.09,31.272,-3.412,-2.52,
65140130,0.258,-0.116,1.097,15.102,-8.382,-4.2,
65140140,0.375,-0.136,1.049,-9.275,-8.102,-3.727,
65140150,0.478,-0.117,1.055,-30.135,-1.417,4.602,
65140160,0.363,-0.142,1.13,-49.455,7.595,18.987,
65140170,0.217,-0.223,1.204,-71.015,10.78,30.852,
65140180,0.193,-0.257,1.249,-90.405,6.72,34.667,
65140190,0.2,-0.19,1.255,-109.357,14.192,34.37,
65140200,0.042,-0.265,1.121,-129.57,15.05,30.607,
65140210,0.206,-0.297,1.053,-147.297,18.305,20.842,
65140220,0.169,-0.267,1.036,-167.177,33.827,11.585,
65140230,0.108,-0.312,1.012,-188.842,41.457,4.112,
65140240,0.205,-0.346,0.978,-207.865,44.117,-1.54,
65140250,0.184,-0.45,0.955,-226.45,45.762,-6.072,
65140260,0.153,-0.744,1.007,-237.23,50.627,-12.582,
65140270,0.236,-0.949,1.1,-226.397,64.75,-20.195,
65140280,0.131,-1.255,0.988,-213.867,89.302,-20.16,
65140290,-0.334,-1.634,0.16,-176.33,90.685,-32.567,
65140300,-0.632,-1.626,0.412,-125.002,56,-58.572,
65140310,-0.531,-1.451,0.53,-79.992,-2.975,-105.857,
65140320,-0.14,-1.397,-0.078,-10.92,-35.28,-115.325,
65140330,-0.452,-1.038,0.69,15.837,-45.062,-122.325,
65140330,-1.281,-0.971,0.667,12.197,-42.7,-124.11,
65140350,-1.868,-0.275,0.586,54.442,-55.807,-97.457,
65140350,-1.485,0.765,0.49,82.74,-60.567,-88.112,
65140370,-0.767,1.735,0.225,92.26,1.085,-50.015,
65140370,-0.283,1.997,0.198,76.09,110.337,-2.03,
65140390,-0.18,1.997,0.329,33.617,180.512,18.865,
65140390,0.193,1.687,0.155,25.76,188.352,31.517,
65140410,0.918,1.541,-0.104,55.527,182.42,35.455,
65140410,1.033,1.038,-0.29,58.747,176.47,34.51,
65140420,1.336,-1.789,1.28,10.622,103.827,54.495,
65140430,0.005,-1.998,-1.511,64.837,17.237,136.132,
65140440,-0.06,0.69,0.689,531.335,-135.817,-147.122,
65140450,0.694,1.811,1.985,509.722,-59.885,-179.147,
65140460,-1.916,-1.901,1.988,288.207,-28.315,53.795,
65140470,0.445,1.741,1.998,336.84,-136.657,-81.567,
65140480,1.911,1.124,1.309,87.587,-124.215,-91.472,
65140490,1.863,0.529,1.104,-63.017,-23.415,-41.02,
65140500,0.653,-0.179,1.114,-135.765,48.895,20.247,
65140510,0.031,-0.229,1.128,-157.832,60.235,51.345,
65140520,-0.555,-0.724,0.966,-156.275,44.17,50.96,
65140530,-0.479,-0.713,0.701,-127.68,10.64,27.772,
65140540,-0.068,-0.8,0.546,-93.572,-15.435,1.942,
65140550,0.151,-0.68,0.523,-58.887,-18.567,-12.495,
65140560,0.171,-0.677,0.468,-22.505,-14.192,-10.395,
65140570,0.078,-0.646,0.584,16.747,-8.557,-9.502,
65140580,0.043,-0.473,0.836,43.907,-5.967,-14.717,
65140590,0.054,-0.306,1.034,50.487,-10.325,-18.655,
65140600,0.137,-0.229,1.098,42.052,-17.08,-20.912,
65140610,0.247,-0.235,1.078,25.095,-19.897,-21.035,
65140620,0.27,-0.251,1.028,9.345,-19.967,-16.695,
65140630,0.189,-0.292,1.007,-3.71,-18.322,-12.075,
65140640,0.122,-0.308,1.022,-13.212,-17.395,-11.76,
65140650,0.1,-0.294,1.093,-23.135,-16.712,-17.062,
65140660,0.145,-0.232,1.173,-39.76,-16.817,-23.17,
65140670,0.16,-0.235,1.186,-65.835,-14.892,-27.247,
65140680,0.201,-0.32,1.187,-94.657,-11.602,-29.522,
65140690,0.181,-0.346,1.177,-122.15,-6.702,-28.455,
65140700,0.02,-0.343,1.149,-149.975,-0.455,-33.74,
65140710,-0.07,-0.386,1.158,-180.232,2.52,-45.482,
65140720,-0.118,-0.394,1.125,-208.792,8.855,-67.392,
65140730,-0.315,-0.503,1.015,-242.217,23.59,-94.657,
65140740,-0.468,-0.943,1.085,-286.195,39.042,-126.857,
65140750,-0.341,-0.754,1.012,-293.265,53.97,-177.94,
65140760,0.188,-1.305,0.967,-300.072,84.315,-222.232,
65140760,1.029,-1.869,0.494,-290.062,162.452,-222.04,
65140780,-1.776,-1.325,0.426,-211.82,232.802,-166.057,
65140780,-0.413,-0.944,0.628,-144.042,218.89,-242.83,
65140800,0.135,-1.844,0.333,-151.83,203.997,-220.465,
65140800,-1.998,-1.949,0.576,-87.185,177.17,-189.805,
65140820,-1.722,-0.513,-0.037,21.455,120.732,-147.892,
65140820,-0.733,0.751,0.187,105.682,28.91,18.445,
65140830,0.075,1.007,0.217,97.107,-12.722,187.18,
65140840,0.468,0.495,-0.016,96.407,-36.662,333.655,
65140850,1.019,0.581,-0.211,115.57,-54.232,356.3,
65140860,1.093,0.795,-0.223,105.507,-61.67,328.737,
65140870,0.813,0.425,-0.263,60.042,-68.827,300.632,
65140880,0.645,-0.009,-0.5,28.455,-87.43,289.677,
65140890,0.858,0.033,-0.785,22.96,-104.93,295.942,
65140900,0.156,0.071,-0.519,6.842,-118.597,296.327,
65140910,1.971,-1.975,1.362,28.525,-116.812,242.427,
65140920,-0.614,-1.998,-0.618,292.092,-86.065,239.645,
65140930,-0.122,0.897,0.686,453.635,-163.222,-11.27,
65140940,-0.338,1.217,1.866,481.057,-154.175,14.787,
65140950,-0.575,-1.869,0.952,280.385,-131.355,81.62,
65140960,-0.935,1.26,1.934,396.935,-119.157,-49.682,
65140970,0.448,0.341,1.971,288.54,-145.95,-70.612,
65140980,1.655,1.213,1.548,152.145,-122.99,-72.52,
65140990,1.414,0.341,1.122,30.292,-59.85,-29.61,
65141000,0.708,-0.097,1.012,-33.512,-2.975,3.255,
65141010,0.25,-0.306,0.967,-60.305,22.697,14.105,
65141020,0.023,-0.375,0.951,-66.71,27.212,11.515,
65141030,-0.134,-0.507,0.849,-62.72,21.227,5.582,
65141040,-0.081,-0.613,0.762,-43.61,9.8,-4.865,
65141050,0.103,-0.581,0.74,-19.04,-0.402,-10.097,
65141060,0.089,-0.444,0.846,4.182,-4.725,-7.507,
65141070,0.103,-0.295,0.973,14.595,-8.557,-4.69,
65141080,0.144,-0.225,1.03,9.502,-11.952,-2.957,
65141080,0.165,-0.203,1.057,-3.062,-14.052,-1.47,
65141100,0.241,-0.175,1.111,-19.337,-14.962,1.75,
65141100,0.272,-0.132,1.179,-40.477,-16.03,9.52,
65141120,0.267,-0.18,1.26,-66.15,-17.395,20.002,
65141120,0.24,-0.143,1.334,-91.717,-21.297,29.487,
65141140,0.12,-0.177,1.25,-114.327,-25.97,38.15,
65141140,0.049,-0.305,1.192,-137.322,-29.995,40.932,
65141160,-0.058,-0.338,1.143,-158.165,-29.802,30.152,
65141160,-0.079,-0.38,1.117,-177.24,-21.822,12.81,
65141170,-0.119,-0.539,0.989,-191.922,-13.457,-8.715,
65141180,0.057,-0.754,0.82,-199.587,-10.552,-36.89,
65141190,0.251,-0.946,0.531,-189.122,-1.347,-60.637,
65141200,0.041,-1.254,0.763,-161.455,16.852,-63.192,
65141210,0.123,-1.582,0.652,-117.232,37.24,-55.37,
65141220,-0.656,-1.998,-0.434,-119.227,79.887,47.95,
65141230,-1.913,-1.997,0.222,-45.01,20.667,95.375,
65141240,0.313,-0.841,-0.354,48.86,0.315,119.857,
65141250,1.228,0.002,-0.077,85.155,42.665,190.05,
65141260,0.853,0.385,-0.378,28.805,108.92,118.965,
65141270,0.107,1.232,-0.399,14.07,120.732,17.762,
65141280,-0.032,1.45,-0.403,-12.775,103.355,-29.697,
65141290,-0.184,1.166,-0.613,-28.595,75.145,-5.617,
65141300,-0.222,0.926,-0.491,-16.135,45.99,61.687,
65141310,0.332,-0.182,1.479,1.435,-63.892,84.822,
65141320,1.451,-1.998,-0.352,131.81,-109.62,72.205,
65141330,-1.927,-1.239,0.822,438.375,-124.425,80.465,
65141340,1.377,1.997,1.852,540.102,-118.142,-28.577,
65141350,-1.904,-1.079,1.563,386.872,-84.227,12.215,
65141360,-0.456,0.156,1.997,368.83,-169.977,-62.877,
65141370,1.326,1.64,1.816,252.665,-189.787,-99.575,
65141380,1.71,0.862,1.122,49.63,-105.472,-51.607,
65141390,1.217,-0.018,0.913,-54.88,-3.885,11.13,
65141400,0.102,-0.692,0.798,-73.412,35.087,31.307,
65141410,-0.424,-0.599,0.887,-58.205,33.022,21.35,
65141420,-0.096,-0.605,0.84,-35.98,12.705,-1.05,
65141430,0.051,-0.454,0.822,-13.072,0.017,-12.495,
65141440,0.297,-0.444,0.815,4.76,-3.22,-14.227,
65141450,0.17,-0.438,0.854,16.152,0.35,-7.805,
65141460,0.167,-0.248,0.982,24.185,0.77,-6.405,
65141470,0.266,-0.06,1.058,18.165,1.347,-6.86,
65141480,0.302,-0.14,1.013,-0.787,6.282,-3.972,
65141490,0.313,-0.187,0.986,-16.73,12.897,-0.28,
65141500,0.254,-0.219,0.976,-28.7,19.057,4.322,
65141510,0.171,-0.266,0.978,-35.822,22.61,8.575,
65141510,0.12,-0.278,1.005,-39.2,22.837,10.29,
65141530,0.09,-0.306,1.015,-44.992,20.107,12.127,
65141530,0.082,-0.316,1.015,-49.595,15.925,13.79,
65141550,0.044,-0.337,1.023,-52.552,10.272,15.225,
65141550,0.029,-0.345,1.026,-54.18,2.747,13.3,
65141570,-0.032,-0.366,1.031,-56.14,-8.68,10.745,
65141570,-0.035,-0.376,0.99,-58.257,-22.312,3.955,
65141580,-0.015,-0.388,0.945,-58.695,-31.272,-6.597,
65141590,0.379,-0.352,0.911,-61.355,-17.045,-15.89,
65141600,0.023,-0.447,0.885,-69.667,13.09,-27.807,
65141610,0.342,-0.376,0.82,-71.522,30.1,-42,
65141620,0.323,-0.399,0.834,-80.202,65.292,-50.662,
65141630,0.134,-0.376,0.83,-88.095,94.395,-65.327,
65141640,0.104,-0.308,0.827,-89.495,113.242,-80.517,
65141650,0.084,-0.342,0.843,-89.897,125.405,-91.035,
65141660,0.091,-0.446,0.858,-90.107,131.39,-93.66,
65141670,0.054,-0.472,0.911,-90.597,131.46,-90.457,
65141680,0.14,-0.455,1.005,-92.697,131.04,-86.24,
65141690,0.295,-0.407,1.061,-96.915,138.652,-83.475,
65141700,0.251,-0.407,1.108,-106.032,154.665,-80.57,
65141710,0.218,-0.441,1.194,-121.345,173.005,-76.58,
65141720,0.237,-0.593,1.231,-138.39,192.885,-66.745,
65141730,0.35,-0.663,1.111,-138.985,209.037,-60.83,
65141740,0.602,-0.572,1.318,-113.785,215.092,-68.897,
65141750,0.502,-0.72,1.109,-69.352,205.695,-107.555,
65141760,-0.559,-0.89,1.223,-65.677,138.897,-145.11,
65141770,0.068,-0.672,1.106,-45.797,69.072,-159.46,
65141780,0.359,-0.579,0.956,-8.067,25.515,-142.835,
65141790,0.328,-0.385,0.795,9.695,14.455,-124.775,
65141800,0.256,-0.347,0.707,4.077,4.9,-117.425,
65141810,0.168,-0.439,0.675,-4.147,-12.6,-110.6,
65141820,0.15,-0.456,0.63,-0.7,-29.575,-93.922,
65141830,0.138,-0.416,0.587,6.947,-45.727,-70.612,
65141830,0.209,-0.423,0.552,10.955,-56.087,-46.76,
65141850,0.244,-0.447,0.52,13.107,-55.965,-28.857,
65141850,0.129,-0.436,0.479,10.325,-58.94,-20.177,
65141870,0.039,-0.444,0.48,-1.172,-72.327,-16.467,
65141870,-0.01,-0.495,0.501,-19.845,-95.2,-13.877,
65141890,0.003,-0.608,0.558,-40.915,-120.977,-14.385,
65141890,0.139,-0.749,0.557,-55.877,-132.79,-14.525,
65141910,0.257,-0.768,0.547,-56.647,-121.835,-11.602,
65141910,0.229,-0.649,0.457,-43.662,-96.092,-9.117,
65141920,0.114,-0.465,0.382,-22.855,-65.485,-6.422,
65141930,-0.185,-0.332,0.267,-9.677,-48.877,-5.46,
65141940,-0.456,-0.254,0.111,-3.885,-50.96,-10.412,
65141950,-0.53,-0.304,0.181,-8.47,-65.485,-8.61,
65141960,-0.514,-0.61,0.242,-33.845,-89.425,5.6,
65141970,-0.477,-1.042,0.265,-52.745,-118.352,22.102,
65141980,-0.362,-1.34,0.131,-40.6,-148.837,27.212,
65141990,-0.187,-1.293,-0.141,-4.13,-169.382,29.452,
65142000,0.098,-0.916,-0.499,33.932,-162.085,30.327,
65142010,0.012,-0.434,-0.708,50.347,-132.055,37.485,
65142020,-0.003,-0.267,-0.506,42.875,-106.452,61.145,
65142030,1.427,-0.759,0.41,20.842,-23.905,111.247,
65142040,1.965,-1.915,1.845,73.885,142.362,125.772,
65142050,0.245,-1.986,0.968,187.005,291.007,140.105,
65142060,-1.929,-0.99,0.829,346.15,82.372,41.79,
65142070,0.299,0.81,0.998,433.912,-24.587,32.2,
65142080,-0.133,-0.637,1.35,388.605,-9.957,96.547,
65142090,-0.988,-0.451,1.322,344.417,-3.885,27.317,
65142100,-1.042,0.042,1.805,337.732,5.127,-51.87,
65142110,0.103,0.276,1.998,286.527,-46.357,-85.907,
65142120,1.3,1.366,1.769,186.392,-71.557,-67.812,
65142130,1.131,0.605,1.235,41.16,-36.872,-21.752,
65142140,0.542,-0.017,1.099,-38.972,2.537,9.992,
65142150,0.196,-0.422,0.917,-73.01,14.647,18.112,
65142160,-0.061,-0.492,0.906,-74.042,13.055,16.24,
65142170,-0.065,-0.502,0.834,-62.44,2.712,6.475,
65142180,0.075,-0.547,0.753,-39.917,-5.67,-4.707,
65142190,0.216,-0.526,0.736,-15.522,-7.157,-11.532,
65142200,0.255,-0.522,0.697,1.33,-5.285,-9.065,
65142210,0.178,-0.456,0.801,21.157,-0.577,-4.357,
65142220,0.086,-0.325,0.952,35.21,0.7,-4.41,
65142230,0.139,-0.254,1.004,34.195,-3.01,-7.665,
65142240,0.254,-0.177,1.023,23.275,-5.425,-9.45,
65142250,0.331,-0.168,1.001,7.752,-3.745,-6.02,
65142260,0.329,-0.196,0.98,-6.195,1.26,0.28,
65142260,0.284,-0.232,0.976,-17.307,7,5.967,
65142270,0.251,-0.249,0.983,-27.125,11.392,9.187,
65142280,0.252,-0.249,1.008,-37.082,15.33,10.64,
65142290,0.267,-0.22,1.028,-46.06,21.402,10.762,
65142300,0.262,-0.268,1.062,-57.452,26.302,13.615,
65142310,0.134,-0.216,1.127,-69.965,37.765,13.65,
65142320,0.183,-0.342,1.096,-86.275,41.212,12.915,
65142330,0.212,-0.331,1.068,-101.622,44.047,12.617,
65142340,0.242,-0.346,1.072,-112.91,51.572,13.755,
65142350,0.233,-0.361,1.054,-121.467,62.545,16.012,
65142360,0.166,-0.431,1.025,-127.767,74.077,12.39,
65142370,0.094,-0.551,0.983,-133.595,84.577,0.962,
65142380,0.027,-0.757,0.94,-132.44,82.145,-15.032,
65142390,0.054,-0.99,0.612,-117.495,77.735,-25.515,
65142400,-0.147,-1.233,0.751,-86.59,80.097,-25.865,
65142410,-0.101,-1.454,1.107,-55.317,76.212,-32.795,
65142420,0.448,-1.916,0.122,2.625,76.842,-43.365,
65142430,-0.396,-1.477,-0.396,61.74,45.99,-99.96,
65142440,0.245,-0.931,-0.529,48.317,33.442,-173.407,
65142450,-0.372,-1.146,-0.46,-16.835,81.322,-143.762,
65142460,-0.797,-1.111,-0.718,-62.317,77.507,-134.942,
65142470,-0.509,-0.352,-0.881,-51.345,47.425,-120.277,
65142480,-0.182,0.282,-1.032,-49.822,36.102,-80.045,
65142490,-0.566,0.918,-0.414,-71.102,44.03,-32.917,
65142500,0.333,0.117,1.792,-4.077,-39.34,-50.575,
65142510,1.61,1.53,-0.236,320.477,-20.475,-33.915,
65142520,-1.552,-0.798,1.556,383.495,-11.935,-22.732,
65142530,-0.478,-0.941,1.589,358.907,-74.217,-26.635,
65142540,-1.407,1.718,1.998,424.97,-122.71,-71.207,
65142550,1.653,1.436,1.532,180.565,-160.125,-67.462,
65142560,1.947,1.189,1.034,45.185,-99.085,-70.14,
65142570,1.027,-0.165,0.879,-53.777,-5.635,-6.195,
65142580,0.35,-0.631,0.756,-71.855,35.192,14.122,
65142580,-0.2,-0.661,0.847,-48.09,39.27,14.875,
65142600,-0.307,-0.493,0.945,-18.235,23.257,1.365,
65142600,0.029,-0.424,0.915,-1.715,3.972,-17.622,
65142620,0.324,-0.225,0.929,1.68,-3.955,-17.692,
65142620,0.089,-0.413,0.899,-1.19,-3.027,-5.985,
65142640,0.101,-0.274,0.964,6.142,-7.28,-3.412,
65142640,0.222,-0.17,0.987,6.58,-10.185,-2.24,
65142660,0.255,-0.193,0.984,-2.765,-8.662,2.117,
65142660,0.277,-0.128,1.016,-14.892,-5.32,7.875,
65142670,0.232,-0.149,1.048,-29.592,-2.03,15.977,
65142680,0.332,-0.155,1.08,-46.042,0.735,20.79,
65142690,0.477,-0.084,1.153,-66.307,8.925,26.652,
65142700,0.533,-0.102,1.221,-94.185,23.135,40.512,
65142710,0.48,-0.148,1.293,-126.857,40.145,60.672,
65142720,0.457,-0.099,1.301,-164.745,53.812,78.767,
65142730,0.455,-0.009,1.243,-201.285,65.1,87.307,
65142740,0.509,-0.059,1.143,-230.44,79.765,91.735,
65142750,0.631,-0.181,1.073,-262.885,107.765,89.915,
65142760,1.046,-0.336,1.186,-278.53,161.402,96.635,
65142770,1.258,-0.736,0.857,-280.017,243.792,124.88,
65142780,0.841,-1.456,0.59,-264.162,297.36,167.195,
65142790,0.539,-1.968,0.946,-207.69,287.455,176.295,
65142800,0.867,-1.456,0.608,-101.797,208.495,120.872,
65142810,0.84,-1.137,0.065,-44.205,82.95,43.242,
65142820,1.998,-1.084,1.656,-55.072,36.557,-33.18,
65142830,1.775,-1.427,0.48,-17.237,-43.855,-174.422,
65142840,-0.025,-0.476,0.649,78.837,-33.162,-243.285,
65142850,-0.629,0.064,0.457,106.102,-75.337,-257.722,
65142860,-0.102,0.586,0.268,104.317,-110.547,-215.162,
65142870,0.219,0.848,0.237,85.82,-129.447,-193.637,
65142880,0.269,0.836,0.132,63.122,-120.82,-204.925,
65142890,-0.172,1.031,-0.105,72.59,-110.022,-222.652,
65142900,-0.531,1.44,-0.451,87.062,-106.487,-245.175,
65142910,-1.006,1.624,-0.309,87.377,-100.065,-244.422,
65142920,-1.243,0.966,-0.161,50.837,-82.932,-187.6,
65142930,-1.596,0.318,-0.435,45.517,-57.907,-96.53,
65142940,0.706,-1.526,1.678,7.805,30.642,69.755,
65142940,-1.148,-1.998,-1.48,68.022,-22.085,448.875,
65142960,1.864,0.977,-0.008,555.275,-257.197,110.425,
65142960,-1.966,1.992,1.94,517.212,63.875,49.315,
65142980,-1.319,-1.687,1.991,243.547,-55.422,2.607,
65142980,1.225,1.528,1.915,327.302,-177.432,-145.18,
65143000,1.613,0.946,0.924,81.392,-126.665,-112.77,
65143000,1.53,0.002,0.814,-64.19,-15.102,-1.015,
65143010,-0.035,-0.552,0.931,-76.912,33.652,31.71,
65143020,-0.287,-0.288,1.05,-74.252,28.56,17.937,
65143030,-0.314,-0.587,0.991,-68.845,4.952,-2.012,
65143040,-0.027,-0.36,0.892,-52.902,-18.13,-32.515,
65143050,0.408,-0.606,0.687,-32.252,-21.245,-45.762,
65143060,0.378,-0.47,0.679,-16.222,-12.775,-35.332,
65143070,0.432,-0.387,0.826,0.577,-8.085,-22.382,
65143080,0.357,-0.179,0.938,8.61,-5.6,-2.677,
65143090,0.107,-0.292,0.98,0.595,-2.292,8.19,
65143100,0.112,-0.288,0.986,-3.657,-8.347,3.867,
65143110,0.325,-0.258,0.925,-7.385,-14.07,-1.12,
65143120,0.338,-0.272,0.891,-11.392,-11.812,3.202,
65143130,0.196,-0.322,0.937,-13.597,-7.822,8.925,
65143140,0.221,-0.309,0.892,-14.332,-7.875,7.577,
65143150,0.059,-0.294,1,-8.575,-4.602,4.042,
65143160,0.152,-0.322,0.972,-20.982,-6.615,-2.765,
65143170,0.206,-0.348,0.938,-24.517,-7,-9.362,
65143180,0.284,-0.218,1.062,-23.415,-4.9,-9.677,
65143190,0.325,-0.231,1.112,-42.507,-3.062,-5.705,
65143200,0.357,-0.257,1.149,-62.457,0,0.035,
65143210,0.3,-0.243,1.165,-79.887,7.98,8.19,
65143220,0.267,-0.27,1.148,-101.535,13.44,11.182,
65143230,0.307,-0.244,1.154,-128.205,22.26,8.82,
65143240,0.414,-0.133,1.145,-158.217,41.195,3.36,
65143250,0.411,-0.111,1.128,-191.695,66.115,2.38,
65143260,0.346,-0.391,0.973,-225.75,76.125,-1.697,
65143270,0.331,-0.831,0.906,-222.32,66.867,-3.815,
65143280,0.822,-0.916,0.872,-206.412,73.5,3.01,
65143290,0.482,-1.68,0.734,-184.94,95.497,31.08,
65143300,0.364,-1.998,0.605,-131.967,76.055,60.2,
65143310,-0.537,-1.985,-0.62,-4.9,-7.542,93.52,
65143320,0.54,-0.744,-0.791,136.027,-66.43,106.067,
65143330,0.596,-0.238,-0.252,85.19,-77.525,189.77,
65143330,0.165,-0.931,-0.264,-37.257,-90.58,272.51,
65143350,0.493,-0.622,-0.136,-61.792,-116.83,311.36,
65143350,0.802,0.031,-0.056,-59.885,-131.652,320.372,
65143370,0.712,0.378,-0.018,-74.76,-124.932,321.545,
65143370,0.404,0.568,0.089,-71.855,-120.75,315.875,
65143390,0.427,1.601,-0.047,-56.367,-132.58,276.377,
65143390,0.182,1.997,-0.047,-48.965,-147.682,237.807,
65143410,0.208,1.948,0.361,-68.197,-168.945,206.325,
65143410,1.339,-1.014,1.998,-64.05,-153.527,212.222,
65143420,-1.997,-1.998,-0.804,110.547,-146.527,325.412,
65143430,-0.097,-0.28,0.639,492.73,-251.405,41.912,
65143440,-0.575,1.838,1.429,510.125,-159.565,-174.177,
65143450,-0.934,-1.777,0.937,303.642,-86.432,-121.765,
65143460,0.463,0.83,1.47,374.885,-73.78,-252.752,
65143470,1.196,0.463,1.907,331.747,-86.555,-251.212,
65143480,1.907,1.169,1.823,257.687,-101.43,-153.825,
65143490,1.078,0.825,1.542,127.487,-57.575,-51.205,
65143500,0.373,0.473,1.433,21.682,-23.292,-5.302,
65143510,0.425,-0.009,1.102,-47.88,-15.837,-5.67,
65143520,0.659,-0.258,0.833,-75.565,0.542,-3.657,
65143530,-0.112,-0.431,1.042,-90.615,29.05,-9.992,
65143540,0.228,-0.435,0.939,-88.9,25.655,-13.737,
65143550,0.286,-0.41,0.899,-88.445,24.027,-5.127,
65143560,0.263,-0.394,0.951,-86.975,21.595,10.185,
65143570,0.306,-0.353,1.016,-87.902,13.457,23.205,
65143580,0.386,-0.242,1.116,-94.01,4.707,37.52,
65143590,0.41,-0.222,1.206,-110.827,-0.525,56.087,
65143600,0.362,-0.106,1.258,-127.435,-2.8,72.712,
65143610,0.501,-0.011,1.296,-155.47,-8.785,90.405,
65143620,0.281,0.031,1.256,-191.817,-20.947,102.952,
65143630,0.015,0.044,1.168,-219.257,-32.112,108.622,
65143640,-0.009,-0.139,1.033,-258.247,-38.097,104.965,
65143650,-0.079,-0.403,1.045,-288.19,-42.157,98.752,
65143660,-0.049,-0.716,1.155,-299.127,-53.585,86.24,
65143670,0.368,-0.993,1.206,-289.677,-56.717,78.225,
65143670,0.566,-1.329,1.164,-255.062,-45.972,82.88,
65143690,0.632,-1.553,1.1,-197.365,-19.162,90.09,
65143690,0.53,-1.286,0.944,-123.637,-20.107,75.302,
65143710,1.197,-0.678,0.748,-44.677,-31.692,43.137,
65143710,1.32,-0.288,0.98,25.48,-43.732,-16.082,
65143730,1.161,0.185,0.175,78.47,13.562,-72.187,
65143730,-0.319,0.464,0.276,91.105,8.015,-125.72,
65143750,-0.212,0.959,0.165,89.547,4.62,-126.105,
65143750,-0.62,1.142,0.027,104.597,-2.362,-79.327,
65143760,-0.434,1.383,-0.183,118.457,-4.725,-49.14,
65143770,-0.213,1.397,-0.197,129.325,22.225,-13.982,
65143780,-0.292,0.944,-0.154,115.447,51.205,12.547,
65143790,-0.217,0.559,-0.247,113.662,68.95,24.377,
65143800,-0.041,0.213,-0.434,116.602,78.872,32.725,
65143810,-0.089,-0.253,-0.669,117.057,73.867,44.59,
65143820,1.564,-1.819,1.177,55.23,112.56,113.802,
65143830,-1.546,-1.998,-1.877,31.325,113.96,418.302,
65143840,1.502,0.29,0.782,529.445,-202.3,90.772,
65143850,-0.854,1.997,1.237,551.355,-50.96,-21.63,
65143860,-1.998,-0.523,1.817,361.707,-39.812,93.835,
65143870,-1.209,-0.581,1.998,375.917,-171.36,-70.682,
65143880,1.847,1.994,1.61,265.615,-210.647,-139.457,
65143890,1.441,0.232,0.904,-3.115,-100.047,-65.257,
65143900,1.061,0.01,1.08,-58.082,4.987,13.405,
65143910,-0.281,-0.732,0.853,-95.97,31.097,29.05,
65143920,-0.152,-0.538,0.883,-68.145,10.097,18.34,
65143930,-0.064,-0.654,0.83,-45.675,-6.3,0.857,
65143940,0.252,-0.304,0.878,-22.12,-16.835,-10.045,
65143950,0.463,-0.41,0.826,-17.657,-14.542,-2.345,
65143960,0.311,-0.556,0.687,-10.43,-5.95,12.495,
65143970,0.116,-0.43,0.875,11.882,1.977,19.757,
65143980,0.046,-0.084,1.11,18.357,4.06,13.387,
65143990,0.149,-0.076,1.087,-2.117,-0.892,7.577,
65144000,0.3,-0.223,0.995,-24.937,-2.415,7.28,
65144010,0.336,-0.238,0.988,-36.802,1.872,10.972,
65144020,0.285,-0.247,1.002,-44.45,7.437,20.422,
65144030,0.136,-0.282,0.974,-51.17,9.03,28.682,
65144040,0.11,-0.202,0.934,-51.485,-4.637,33.39,
65144050,0.266,-0.527,0.781,-40.53,-21.577,42.105,
65144060,0.086,-0.488,0.734,-29.277,-16.327,44.205,
65144070,0.069,-0.554,0.735,-15.96,-10.692,36.75,
65144080,0.014,-0.51,0.786,-5.95,-3.482,23.905,
65144080,0.037,-0.449,0.834,1.487,0.192,11.41,
65144100,0.05,-0.376,0.929,7.157,0.21,2.537,
65144100,0.142,-0.343,0.99,7.245,-4.707,-1.242,
65144120,0.238,-0.276,1.037,1.4,-8.575,-0.175,
65144120,0.263,-0.236,1.087,-9.747,-10.552,7.84,
65144140,0.268,-0.223,1.133,-24.027,-14.367,20.912,
65144140,0.275,-0.214,1.154,-40.092,-21.787,31.867,
65144160,0.303,-0.193,1.153,-54.355,-31.08,41.702,
65144160,0.321,-0.181,1.172,-72.677,-32.952,50.872,
65144170,0.194,-0.202,1.186,-97.965,-30.432,58.117,
65144180,0.135,-0.178,1.183,-120.225,-32.095,62.737,
65144190,0.101,-0.278,1.096,-141.61,-35.595,63.122,
65144200,0.156,-0.378,1.059,-155.627,-33.565,61.18,
65144210,0.019,-0.573,1.138,-165.515,-30.152,59.377,
65144220,-0.235,-0.851,1.163,-163.117,-50.137,48.037,
65144230,-0.245,-0.907,1.133,-140.577,-75.267,29.435,
65144240,-0.545,-1,1.268,-119.245,-89.057,20.86,
65144250,-0.206,-0.705,1.236,-89.81,-90.58,8.592,
65144260,-0.476,-1.257,0.795,-52.045,-68.215,44.572,
65144270,-1.958,-0.758,1.461,3.22,-16.17,162.435,
65144280,0.7,1.696,-0.108,143.797,0.682,230.352,
65144290,1.827,1.997,0.189,243.897,45.132,313.967,
65144300,1.998,1.849,0.188,156.03,129.307,182.087,
65144310,1.754,1.14,0.155,101.902,167.65,-20.65,
65144320,0.663,0.706,-0.285,121.537,131.057,-186.34,
65144330,0.179,0.945,-0.954,158.2,87.29,-234.115,
65144340,0.906,0.927,-1.164,130.025,75.687,-176.802,
65144350,0.574,-1.793,0.913,-64.067,108.972,6.877,
65144360,-1.054,-1.998,-1.37,163.922,-16.152,181.947,
65144370,1.365,1.631,1.215,563.85,-143.08,-141.75,
65144380,-1.908,1.334,1.992,350.052,-129.237,25.585,
65144390,1.746,1.344,1.155,98.542,-197.207,-69.912,
65144400,1.135,0.091,0.886,-1.435,-95.917,-96.302,
65144410,1.359,-0.216,0.803,-38.482,-9.1,-14.892,
65144420,0.002,-0.478,0.902,-60.357,42.455,30.222,
65144420,-0.509,-0.301,1.056,-39.707,36.067,27.615,
65144440,-0.071,-0.46,0.925,-35.63,12.915,-1.732,
65144440,0.067,-0.448,0.882,-26.127,-1.61,-20.475,
65144460,0.21,-0.427,0.871,-21.595,-7.192,-17.395,
65144460,0.263,-0.313,0.893,-8.032,-6.807,-9.905,
65144480,0.211,-0.314,0.903,-0.63,-3.43,-0.122,
65144480,0.213,-0.252,0.938,-0.105,-0.647,2.572,
65144500,0.23,-0.223,0.949,-5.25,3.5,2.012,
65144500,0.259,-0.232,0.948,-11.182,9.327,1.925,
65144510,0.2,-0.194,0.982,-17.22,15.05,3.15,
65144520,0.133,-0.274,0.942,-24.605,17.552,3.22,
65144530,0.095,-0.378,0.909,-25.41,16.817,1.785,
65144540,0.09,-0.34,0.904,-19.932,14.14,-0.087,
65144550,0.06,-0.379,0.892,-14.175,11.182,-1.312,
65144560,0.074,-0.38,0.893,-8.05,7.087,-3.657,
65144570,0.111,-0.341,0.913,-2.677,3.43,-5.74,
65144580,0.125,-0.331,0.924,0.367,1.417,-6.562,
65144590,0.151,-0.306,0.936,1.137,0.122,-7.07,
65144600,0.195,-0.28,0.954,-0.455,0.402,-6.265,
65144610,0.203,-0.273,0.975,-5.67,2.52,-3.745,
65144620,0.242,-0.236,1.009,-12.477,6.16,-1.75,
65144630,0.278,-0.237,1.034,-22.242,12.25,0.052,
65144640,0.334,-0.252,1.06,-34.93,20.352,2.73,
65144650,0.47,-0.205,1.096,-51.555,31.885,9.747,
65144660,0.527,-0.162,1.136,-72.94,49.822,22.767,
65144670,0.495,-0.182,1.154,-97.37,72.625,38.307,
65144680,0.469,-0.227,1.137,-120.715,100.572,48.002,
65144690,0.409,-0.329,1.1,-142.415,139.282,46.34,
65144700,0.308,-0.425,1.114,-156.87,169.942,39.532,
65144710,0.47,-0.45,1.007,-152.652,201.845,34.195,
65144720,0.283,-0.94,1.138,-143.36,225.242,33.512,
65144730,0.378,-1.395,0.913,-103.792,222.757,27.02,
65144740,-0.235,-1.277,0.459,-20.23,186.585,-8.872,
65144750,-1.954,-1.278,0.479,7.98,94.272,-43.645,
65144760,0.753,-1.675,0.392,-12.425,-23.205,-86.905,
65144770,1.631,-1.998,0.013,7.927,-92.557,-149.1,
65144780,-0.632,-1.403,-0.523,70.752,-68.897,-177.852,
65144790,-1.562,-0.626,-0.56,88.97,-89.652,-171.727,
65144800,-0.904,-0.311,-0.859,89.897,-127.207,-77.455,
65144810,-0.298,0.015,-1.255,92.487,-130.112,59.815,
65144820,0.352,0.625,-1.815,81.567,-108.465,156.572,
65144830,0.763,0.927,-1.508,37.66,-84.367,218.575,
65144830,0.374,0.272,0.896,-23.905,-106.102,270.69,
65144850,-1.505,-1.52,1.037,116.41,-296.502,274.785,
65144850,-0.823,0.733,1.006,479.57,-193.69,287.105,
65144870,-1.207,-0.966,1.649,357.665,-304.027,137.83,
65144870,1.987,1.997,0.466,338.747,-381.85,-109.725,
65144890,1.014,-0.253,0.775,-43.05,-123.69,-54.845,
65144890,1.928,0.004,0.637,-70.017,2.135,29.715,
65144910,-0.419,-0.745,1.041,-80.29,88.585,76.93,
65144910,-1.538,-0.899,1.021,-74.13,57.96,30.642,
65144920,-0.198,-0.776,0.821,-34.86,-5.862,-36.522,
65144930,0.176,-0.678,0.811,4.882,-30.45,-48.265,
65144940,0.359,-0.247,0.974,39.655,-37.065,-28.507,
65144950,0.337,0.042,1.032,33.705,-32.795,-16.572,
65144960,0.702,0.01,0.916,7.21,-20.177,-12.302,
65144970,0.383,-0.212,0.924,-11.602,2.73,1.347,
65144980,0.205,-0.255,0.953,-15.365,13.002,8.942,
65144990,0.207,-0.267,0.931,-17.132,14.612,8.312,
65145000,0.234,-0.243,0.941,-16.047,15.68,8.662,
65145010,0.134,-0.324,0.936,-19.845,16.065,11.497,
65145020,0.097,-0.35,0.916,-18.97,13.142,10.815,
65145030,0.175,-0.315,0.925,-12.022,10.272,9.03,
65145040,0.253,-0.261,0.939,-9.432,10.885,9.047,
65145050,0.266,-0.254,0.945,-11.952,14.63,10.867,
65145060,0.375,-0.23,0.938,-15.82,20.37,13.037,
65145070,0.484,-0.192,0.938,-19.827,31.43,20.177,
65145080,0.034,-0.349,0.92,-24.36,43.785,26.425,
65145090,-0.227,-0.461,0.884,-22.732,39.76,19.46,
65145100,-0.116,-0.374,0.865,-10.85,24.92,6.177,
65145110,-0.102,-0.389,0.849,-1.19,11.935,-1.155,
65145120,-0.164,-0.358,0.866,9.87,-0.28,-6.317,
65145130,-0.01,-0.34,0.876,18.217,-13.142,-11.427,
65145140,0.147,-0.331,0.902,24.71,-20.072,-13.405,
65145150,0.212,-0.254,0.927,28.735,-20.457,-14.297,
65145160,0.318,-0.213,0.949,28.192,-16.765,-10.955,
65145170,0.304,-0.203,0.953,22.715,-9.73,-6.825,
65145170,0.229,-0.196,0.96,16.362,-3.22,-3.972,
65145190,0.204,-0.217,0.948,10.587,0.857,-1.925,
65145190,0.174,-0.235,0.94,7.07,3.762,-0.122,
65145210,0.132,-0.246,0.942,5.04,5.075,0.612,
65145210,0.163,-0.257,0.939,3.412,4.882,0.525,
65145230,0.16,-0.255,0.941,2.117,5.197,-0.227,
65145230,0.149,-0.235,0.946,1.032,5.635,-0.805,
65145250,0.164,-0.248,0.94,-0.945,6.055,-0.612,
65145250,0.165,-0.256,0.936,-2.485,7.122,-0.14,
65145260,0.158,-0.254,0.936,-3.272,8.435,0.717,
65145270,0.137,-0.269,0.94,-4.217,9.117,1.225,
65145280,0.122,-0.278,0.94,-4.34,8.662,0.77,
65145290,0.111,-0.288,0.942,-4.06,7.105,0.07,
65145300,0.119,-0.304,0.937,-3.272,4.865,-0.245,
65145310,0.084,-0.304,0.932,-1.61,2.222,-0.752,
65145320,0.093,-0.26,0.936,0.525,-1.137,-1.995,
65145330,0.113,-0.261,0.936,0.542,-3.587,-3.01,
65145340,0.111,-0.24,0.949,-0.525,-5.197,-4.217,
65145350,0.133,-0.236,0.96,-3.272,-6.142,-5.197,
65145360,0.086,-0.222,0.984,-7.56,-6.772,-6.72,
65145370,0.081,-0.2,1.025,-13.86,-8.802,-8.522,
65145380,0.108,-0.136,1.094,-23.905,-11.847,-10.815,
65145390,0.081,-0.1,1.193,-40.565,-16.537,-10.92,
65145400,0.015,-0.035,1.354,-61.32,-28.84,-8.382,
65145410,-0.157,-0.156,1.468,-88.287,-51.537,-5.197,
65145420,0.091,-0.388,1.282,-114.082,-85.505,-8.61,
65145430,0.749,0.291,1.505,-138.547,-52.237,-22.592,
65145440,0.246,0.241,1.427,-208.04,-27.195,-21.717,
65145450,0.067,-0.38,1.562,-290.08,-19.53,-3.517,
65145460,-0.007,-0.328,1.773,-312.252,-38.85,1.942,
65145470,0.408,-0.435,1.644,-315.98,-45.815,12.897,
65145480,0.525,-1.265,1.171,-309.295,-5.32,62.86,
65145490,-0.514,-0.614,1.199,-222.477,32.987,57.155,
65145500,-0.217,-0.165,0.728,-149.222,19.11,12.827,
65145510,-0.444,-0.218,1.05,-125.58,22.767,31.745,
65145520,-0.012,-0.383,0.481,-100.94,48.037,96.442,
65145530,-0.591,0.172,0.969,-35.752,80.447,130.882,
65145540,0.222,0.208,0.316,47.372,75.355,106.522,
65145550,0.757,0.221,0.409,85.785,80.762,90.457,
65145560,0.683,-0.109,0.59,72.397,96.967,22.487,
65145570,0.254,-0.342,0.522,85.82,102.392,-44.782,
65145580,0.002,-0.316,0.467,108.15,89.565,-97.632,
65145580,0.053,-0.309,0.357,125.79,80.167,-124.792,
65145590,0.119,-0.383,0.23,139.65,86.485,-123.497,
65145600,0.049,-0.587,0.051,134.907,101.202,-110.302,
65145610,0.042,-0.793,-0.089,111.982,109.602,-98.052,
65145620,0.216,-1.021,-0.135,74.655,114.502,-91.192,
65145630,0.255,-1.342,-0.204,32.812,114.765,-84.385,
65145640,0.137,-1.521,-0.322,1.19,90.282,-83.195,
65145650,0.299,-1.541,-0.354,-23.94,46.287,-86.677,
65145660,0.507,-1.483,-0.453,-48.142,-0.49,-83.825,
65145670,0.572,-1.386,-0.491,-71.837,-38.552,-76.86,
65145680,0.413,-1.336,-0.556,-91.157,-62.02,-58.397,
65145690,0.196,-1.046,-0.611,-98.472,-81.287,-31.237,
65145700,-0.14,-0.291,-0.771,-108.465,-102.165,3.972,
65145710,0.443,-0.923,1.633,-93.03,-107.065,2.31,
65145720,0.219,-1.3,-0.998,198.905,31.115,72.467,
65145730,-0.391,1.84,1.53,472.622,-37.747,-22.977,
65145740,-0.684,-1.465,0.654,248.097,-10.08,56.385,
65145750,-0.141,-1.085,1.134,260.837,-22.767,10.307,
65145760,-1.353,1.018,1.915,311.202,-44.922,-95.882,
65145770,0.158,-0.381,1.86,221.34,-101.167,-87.727,
65145780,1.359,1.526,1.627,159.915,-100.695,-90.405,
65145790,1.248,0.356,1.093,30.135,-56.192,-45.815,
65145800,0.737,-0.045,0.929,-36.715,-6.965,-15.225,
65145810,0.208,-0.534,0.82,-57.697,19.215,-6.107,
65145820,0.08,-0.407,0.888,-42.49,24.745,-14,
65145830,0.002,-0.43,0.916,-28.035,21.717,-19.967,
65145840,0.095,-0.477,0.879,-19.862,14.542,-28.682,
65145850,0.264,-0.4,0.877,-15.925,9.905,-30.747,
65145860,0.209,-0.349,0.923,-14.192,8.802,-20.475,
65145870,0.155,-0.271,1.003,-13.807,6.947,-12.39,
65145880,0.041,-0.202,1.096,-21.997,3.675,-11.777,
65145890,0.047,-0.191,1.164,-39.742,-1.225,-16.782,
65145900,0.013,-0.191,1.311,-64.627,3.15,-20.58,
65145910,0.139,-0.254,1.309,-100.082,12.32,-25.567,
65145920,0.2,-0.277,1.346,-125.632,10.832,-27.125,
65145920,0.014,-0.393,1.236,-156.117,18.532,-28.437,
65145940,0.107,-0.378,1.164,-181.142,21.682,-41.72,
65145940,0.143,-0.127,1.237,-197.785,31.01,-58.257,
65145960,0.222,0.14,1.104,-230.755,44.205,-72.765,
65145960,0.147,-0.308,0.925,-291.357,65.572,-84.105,
65145980,0.077,-0.99,0.834,-327.792,67.235,-103.145,
65145980,0.07,-1.02,0.568,-296.17,67.27,-120.96,
65146000,0.39,-1.448,0.678,-274.522,87.237,-121.38,
65146000,0.547,-1.904,0.675,-250.39,140.56,-107.047,
65146010,-1.055,-1.9,0.623,-171.412,166.39,-77.507,
65146020,-1.672,-1.255,0.522,-74.41,110.81,-126.997,
65146030,-0.867,-0.594,0.425,-15.925,47.337,-141.365,
65146040,-0.309,0.278,0.478,24.36,50.347,-117.25,
65146050,-0.602,0.708,0.695,15.4,79.712,-60.69,
65146060,-0.614,0.638,0.697,11.847,89.495,-0.84,
65146070,-0.185,0.81,0.453,54.617,82.495,29.4,
65146080,0.085,1.239,0.196,101.395,89.565,43.242,
65146090,0.052,1.467,0.023,106.855,104.93,61.372,
65146100,0.081,1.22,-0.089,74.06,106.872,78.557,
65146110,0.246,0.755,-0.163,28.98,92.102,79.625,
65146120,0.368,0.211,-0.174,-3.08,68.67,66.255,
65146130,1.441,-1.539,0.997,-61.215,35.192,1.085,
65146140,0.402,-1.998,-1.621,120.662,-26.757,97.825,
65146150,-0.95,0.109,0.922,505.382,-105.805,-110.355,
65146160,1.647,1.997,1.521,535.447,-79.17,-220.815,
65146170,-1.701,-0.468,1.801,294.192,0.157,35.647,
65146180,-1.359,-1.044,1.648,310.45,-64.102,-33.565,
65146190,-0.336,1.561,1.998,345.695,-144.742,-117.67,
65146200,1.988,1.639,1.297,150.097,-145.53,-101.622,
65146210,1.691,0.481,0.952,18.55,-54.057,-42.052,
65146220,0.78,-0.082,0.989,-47.617,26.88,8.697,
65146230,0.084,-0.432,0.935,-77.087,55.615,11.865,
65146240,0.025,-0.278,1.002,-72.94,53.865,6.597,
65146250,-0.206,-0.468,1.007,-73.08,48.3,-1.802,
65146260,-0.23,-0.393,0.919,-70.157,33.355,-16.275,
65146260,0.187,-0.631,0.811,-53.725,20.632,-26.145,
65146280,0.182,-0.547,0.758,-37.117,18.445,-27.877,
65146280,0.27,-0.424,0.858,-24.517,15.4,-10.78,
65146300,0.108,-0.254,0.927,-19.95,14.332,3.15,
65146300,0.024,-0.383,0.942,-20.615,10.972,9.415,
65146320,0.035,-0.371,0.956,-19.792,4.637,7.945,
65146320,0.081,-0.321,0.985,-20.632,-1.102,5.565,
65146330,0.131,-0.306,0.977,-25.602,-5.53,6.352,
65146340,0.162,-0.329,0.978,-31.43,-8.207,10.797,
65146350,0.186,-0.329,0.993,-39.025,-10.097,15.662,
65146360,0.191,-0.314,0.985,-46.305,-11.217,20.02,
65146370,0.18,-0.319,0.971,-49.262,-10.5,24.605,
65146380,0.17,-0.321,0.927,-56.945,-10.29,26.722,
65146390,0.163,-0.377,0.814,-60.147,-8.102,26.162,
65146400,0.072,-0.491,0.721,-52.202,-2.992,23.537,
65146410,0.044,-0.572,0.677,-37.73,-1.137,18.287,
65146420,-0.036,-0.593,0.691,-21.105,-2.03,11.077,
65146430,-0.089,-0.549,0.72,-3.22,-6.02,0.7,
65146440,-0.12,-0.538,0.726,14.175,-10.867,-11.637,
65146450,-0.095,-0.556,0.718,30.572,-15.61,-25.812,
65146460,-0.048,-0.53,0.724,46.567,-15.925,-40.32,
65146470,0.039,-0.491,0.75,62.545,-15.295,-52.972,
65146480,0.164,-0.489,0.754,78.207,-14.402,-61.162,
65146490,0.275,-0.412,0.873,90.562,-12.057,-63.035,
65146500,0.357,-0.29,1.018,92.295,-11.165,-57.085,
65146510,0.336,-0.197,1.12,85.26,-11.445,-42.63,
65146520,0.21,-0.14,1.154,65.537,-11.025,-30.17,
65146530,0.174,-0.175,1.1,42.77,-13.755,-25.112,
65146540,0.282,-0.211,1.037,24.587,-15.802,-24.132,
65146550,0.331,-0.179,1.037,9.45,-13.195,-21.857,
65146560,0.339,-0.137,1.069,-7.542,-8.277,-15.96,
65146570,0.217,-0.172,1.125,-26.547,-4.147,-8.522,
65146580,0.181,-0.257,1.146,-44.905,-4.777,-4.06,
65146590,-0.095,-0.352,1.309,-62.37,4.882,-9.257,
65146600,0.05,-0.426,1.35,-76.072,-2.852,-22.435,
65146610,0.108,-0.461,1.369,-97.072,6.142,-30.24,
65146620,-0.024,-0.591,1.326,-129.762,29.645,-44.152,
65146630,-0.073,-0.7,1.234,-160.002,36.522,-72.17,
65146640,0.083,-1.076,0.855,-209.037,44.327,-119.367,
65146650,0.709,-1.876,0.545,-274.75,103.74,-175.665,
65146660,1.958,-1.998,0.196,-307.51,205.1,-202.475,
65146670,-0.792,-1.998,-1.436,-175.367,201.005,-231.507,
65146670,-1.998,-1.659,-0.93,20.982,-0.507,-352.817,
65146690,-1.511,0.256,0.078,84.297,-64.942,-241.412,
65146690,-1.301,0.228,0.823,-53.567,-84.787,46.007,
65146710,-1.019,-0.643,0.747,-109.112,-93.747,228.515,
65146710,0.143,0.66,0.82,-24.832,-107.852,294.21,
65146730,0.773,1.911,0.502,66.815,-121.59,374.64,
65146730,0.984,1.989,-0.04,107.87,-129.92,437.727,
65146750,1.841,1.997,-0.136,92.19,-94.587,365.89,
65146750,1.658,1.988,0.072,10.972,-28.997,215.915,
65146760,0.09,1.709,0.535,-71.575,-10.465,74.952,
65146770,1.856,-1.243,1.773,-117.827,12.827,36.61,
65146780,0.889,-1.998,-1.39,105.7,43.417,136.29,
65146790,-0.203,-1.167,0.398,387.992,11.497,33.915,
65146800,-0.756,1.997,1.428,519.4,24.132,-103.372,
65146810,-1.515,-0.466,1.986,367.815,19.11,-37.187,
65146820,-0.37,-0.052,1.998,334.81,-97.912,-63.647,
65146830,0.946,1.758,1.701,262.955,-149.66,-111.912,
65146840,1.99,0.805,0.937,74.777,-111.982,-58.975,
65146850,1.527,0.593,0.983,-5.95,-5.985,3.272,
65146860,0.647,0.131,1.126,-71.872,66.325,38.64,
65146870,0.244,0.007,1.198,-114.345,89.372,48.842,
65146880,-0.042,-0.48,1.103,-147.052,87.045,44.922,
65146890,-0.129,-0.512,0.986,-146.387,74.585,39.707,
65146900,-0.292,-0.759,0.805,-132.72,58.082,40.442,
65146910,-0.035,-0.544,0.813,-104.51,36.802,33.635,
65146920,0.146,-0.497,0.861,-87.605,23.362,37.485,
65146930,-0.265,-0.353,0.909,-80.867,11.322,45.955,
65146940,0.502,-0.15,1.168,-80.85,-21.35,56.84,
65146950,0.046,-0.302,1.156,-105.052,-11.847,61.635,
65146960,0.122,-0.22,1.142,-123.585,-8.382,56.227,
65146970,0.194,-0.282,1.096,-148.487,0.63,53.847,
65146980,0.274,-0.348,1.075,-169.015,15.75,50.645,
65146990,0.49,-0.412,1.015,-183.207,40.617,50.592,
65147000,0.664,-0.567,0.956,-193.69,79.677,51.537,
65147010,0.612,-0.6,0.928,-182.665,130.042,56.297,
65147010,0.473,-0.57,0.96,-171.43,177.677,69.65,
65147030,0.42,-0.629,0.942,-167.352,215.757,79.59,
65147030,-0.037,-0.681,0.884,-162.802,222.25,80.57,
65147050,-0.096,-0.689,0.827,-159.565,203.245,72.135,
65147050,0.047,-0.706,0.684,-143.447,179.83,68.145,
65147070,0.484,-0.763,0.853,-116.462,159.582,56.665,
65147070,1.412,-0.501,0.655,-62.877,154.315,12.25,
65147080,0.191,-0.288,0.797,-43.295,166.11,-27.615,
65147090,1.366,-0.581,1.389,-45.517,122.202,-105.787,
65147100,1.009,-1.094,1.022,9.73,58.135,-213.517,
65147110,-0.266,-0.464,0.905,73.325,4.707,-274.557,
65147120,-0.278,0.015,0.855,91.21,-52.657,-278.25,
65147130,-0.136,-0.011,0.995,93.73,-89.512,-236.67,
65147140,-0.108,-0.206,0.979,80.325,-112.91,-206.202,
65147150,-0.039,-0.096,0.882,96.442,-123.917,-200.112,
65147160,-0.04,0.103,0.876,117.197,-124.285,-174.93,
65147170,-0.049,0.056,0.835,116.76,-125.02,-153.79,
65147180,-0.071,-0.039,0.852,126,-122.01,-147.14,
65147190,-0.168,-0.085,0.928,145.932,-113.802,-137.392,
65147200,-0.305,-0.178,0.839,167.125,-108.22,-113.715,
65147210,-0.599,-0.208,0.909,205.625,-107.94,-69.877,
65147220,-0.522,-0.166,0.882,202.177,-123.322,-25.252,
65147230,-0.293,-0.26,0.958,187.337,-123.62,30.52,
65147240,-0.228,-0.522,1.035,176.137,-109.567,78.505,
65147250,-0.184,-0.685,1.015,179.095,-94.745,102.672,
65147260,-0.48,-0.691,0.899,184.135,-92.662,108.955,
65147270,-0.727,-0.773,0.834,162.505,-115.867,110.512,
65147280,-0.616,-0.994,0.738,118.177,-139.247,128.957,
65147290,-0.545,-1.208,0.383,76.965,-149.572,155.89,
65147300,-0.578,-1.131,0.068,52.99,-151.83,182.892,
65147310,-0.374,-1.003,-0.236,13.545,-141.732,211.522,
65147320,-0.3,-1.087,-0.467,-33.582,-122.15,243.302,
65147330,0.765,-1.676,0.607,-85.75,-76.86,272.562,
65147340,1.992,-1.998,-0.233,-67.06,105.14,332.255,
65147350,-0.996,-1.998,-0.119,115.045,134.155,316.277,
65147360,-1.045,-0.358,0.323,172.725,-20.72,78.837,
65147370,-1.723,1.458,1.164,213.85,20.072,56.91,
65147380,-1.279,0.635,1.345,177.03,21.735,67.602,
65147390,-0.993,-1.619,1.023,141.82,4.795,-0.245,
65147400,-0.736,-0.941,1.252,171.727,-2.38,-120.557,
65147410,0.621,0.173,1.83,196.315,-46.182,-191.082,
65147420,1.709,0.919,1.497,147.332,-58.8,-119.297,
65147420,1.209,0.836,1.207,51.327,-14.227,-26.845,
65147440,0.144,-0.287,1.072,-31.237,22.12,40.547,
65147440,-0.214,-0.419,0.974,-45.395,18.445,36.54,
65147460,-0.011,-0.535,0.878,-36.452,2.782,17.447,
65147460,0.098,-0.416,0.899,-25.27,-6.702,0.157,
65147480,0.225,-0.363,0.893,-23.677,-10.36,-9.187,
65147480,0.288,-0.317,0.874,-19.267,-8.645,-10.307,
65147500,0.227,-0.379,0.823,-15.032,-2.887,-7.262,
65147500,0.17,-0.419,0.846,-8.417,2.047,-8.68,
65147510,0.187,-0.369,0.873,-1.19,1.557,-13.86,
65147520,0.261,-0.317,0.904,2.957,2.8,-17.255,
65147530,0.279,-0.263,0.932,2.17,7.087,-18.69,
65147540,0.263,-0.275,0.931,-2.397,12.477,-18.83,
65147550,0.282,-0.288,0.938,-6.72,18.025,-18.777,
65147560,0.255,-0.238,0.98,-11.882,22.312,-17.01,
65147570,0.155,-0.309,0.98,-20.282,26.11,-17.132,
65147580,0.121,-0.298,0.994,-26.302,29.137,-25.13,
65147590,0.112,-0.338,1,-31.832,29.995,-30.73,
65147600,0.101,-0.342,1.059,-38.01,29.225,-33.775,
65147610,0.12,-0.315,1.158,-49.735,26.897,-32.567,
65147620,0.106,-0.341,1.235,-69.3,27.142,-28.805,
65147630,0.003,-0.449,1.233,-93.747,31.272,-29.89,
65147640,-0.052,-0.54,1.171,-112.35,36.697,-41.457,
65147650,0.008,-0.539,1.13,-132.93,47.442,-64.487,
65147660,0.118,-0.395,1.119,-158.217,65.275,-86.257,
65147670,0.387,-0.235,1.018,-201.39,86.747,-112.385,
65147680,0.509,-1.166,0.577,-246.487,143.535,-150.937,
65147690,0.928,-1.978,-0.297,-263.287,220.097,-205.887,
65147700,0.564,-1.998,-0.589,-224.105,266.28,-237.702,
65147710,1.18,-1.998,-1.479,-141.242,246.032,-198.292,
65147720,-1.163,-1.499,-0.888,-5.442,96.985,-187.775,
65147730,0.384,-0.077,-0.635,22.19,-3.727,-239.802,
65147740,-0.111,0.199,0.08,-32.987,9.257,-116.515,
65147750,-0.308,-0.02,0.525,-110.792,24.902,-73.465,
65147760,-0.002,0.285,1.701,-82.005,33.757,-63.647,
65147760,-0.023,1.171,1.998,6.37,17.307,-55.825,
65147780,-0.107,1.989,1.998,117.617,0.262,-24.482,
65147780,-0.112,1.995,1.509,201.442,23.747,22.855,
65147800,-0.218,-0.346,0.727,160.93,42.682,143.727,
65147800,-0.423,-1.998,0.041,143.43,-8.207,151.725,
65147820,-0.167,-0.996,0.779,250.355,-4.795,24.675,
65147820,-0.855,1.769,1.675,300.177,10.482,-52.587,
65147830,-1.389,-1.347,1.367,191.8,-33.547,-65.695,
65147840,0.536,0.207,1.816,210.805,-89.302,-127.137,
65147850,0.893,0.65,1.493,160.195,-81.917,-108.605,
65147860,1.266,0.663,1.202,71.522,-53.445,-58.555,
65147870,0.761,0.029,1.034,-3.307,-9.52,-13.16,
65147880,0.451,-0.219,0.937,-38.447,17.517,7,
65147890,0.237,-0.382,0.878,-45.972,29.942,14.927,
65147900,-0.038,-0.511,0.884,-36.452,31.622,14,
65147910,-0.153,-0.422,0.954,-24.867,22.295,2.852,
65147920,0.109,-0.378,0.929,-19.04,10.167,-11.357,
65147930,0.24,-0.355,0.911,-17.325,5.407,-11.305,
65147940,0.25,-0.318,0.96,-17.395,5.74,-3.202,
65147950,0.229,-0.213,1.037,-23.38,7.402,3.885,
65147960,0.2,-0.208,1.11,-37.607,10.342,8.61,
65147970,0.215,-0.184,1.17,-56.507,12.775,11.375,
65147980,0.616,-0.097,1.204,-78.942,19.67,14.997,
65147990,-0.085,-0.315,1.264,-117.285,47.862,25.34,
65148000,0.421,-0.273,1.191,-146.65,53.34,30.625,
65148010,0.348,-0.471,1.056,-175.087,75.775,43.155,
65148020,0.323,-0.416,1.007,-180.792,96.39,52.062,
65148030,0.44,-0.283,0.908,-195.737,102.48,54.197,
65148040,0.445,-0.538,0.825,-193.497,82.582,70.332,
65148050,0.195,-1.454,0.083,-146.422,47.232,117.337,
65148060,-0.711,-1.963,0.158,-125.667,-40.267,187.652,
65148070,0.769,-1.998,-0.656,-97.09,-101.815,235.182,
65148080,1.469,-1.998,-0.255,-71.89,-127.295,272.3,
65148090,0.542,-1.691,-0.202,-101.395,-149.31,273.35,
65148100,0.919,-0.203,0.045,-56.017,-161.997,221.392,
65148110,0.977,1.294,0.252,-23.502,-167.37,144.042,
65148120,0.004,1.895,0.238,-13.317,-182.77,83.632,
65148130,-1.07,1.997,1.357,42.262,-202.3,63.822,
65148140,-1.998,0.719,0.958,114.345,-170.24,143.657,
65148150,-0.986,-1.888,0.154,265.457,-196.49,286.912,
65148160,-0.458,-1.902,0.562,342.667,-166.022,135.17,
65148170,-1.169,1.545,1.124,412.387,-103.495,-124.512,
65148170,-0.619,-0.459,1.644,344.802,-74.725,-155.54,
65148190,1.501,0.513,1.891,302.82,-110.092,-188.79,
65148190,1.925,1.498,1.881,230.09,-95.252,-111.65,
65148210,0.976,0.75,1.563,72.152,-32.025,-5.022,
65148210,0.242,-0.019,1.228,-29.645,1.102,22.12,
65148230,0.24,-0.33,0.907,-70.752,7.63,8.207,
65148230,0.147,-0.52,0.734,-69.107,14.927,-4.322,
65148250,0.002,-0.648,0.739,-46.305,18.9,-10.272,
65148250,0.064,-0.45,0.822,-19.6,15.96,-17.185,
65148260,0.025,-0.459,0.88,-4.76,13.93,-21.157,
65148270,0.229,-0.338,0.923,-0.84,9.117,-25.042,
65148280,0.272,-0.283,0.947,-2.345,7.122,-22.295,
65148290,0.274,-0.243,0.985,-5.547,8.207,-13.737,
65148300,0.148,-0.238,1.044,-14.14,11.322,-8.382,
65148310,0.132,-0.193,1.137,-27.86,17.01,-13.895,
65148320,0.24,-0.113,1.228,-49.402,24.027,-18.672,
65148330,0.197,-0.136,1.273,-79.1,33.687,-14.28,
65148340,0.204,-0.23,1.268,-110.67,41.685,-5.547,
65148350,0.219,-0.365,1.212,-139.387,43.995,1.925,
65148360,0.181,-0.301,1.159,-160.457,44.432,6.282,
65148370,0.136,-0.28,1.104,-181.86,45.745,6.195,
65148380,0.148,-0.287,1.087,-204.82,50.417,0.682,
65148390,0.289,-0.379,1.104,-227.815,58.24,-12.022,
65148400,0.277,-0.325,1.088,-239.645,69.807,-16.275,
65148410,0.374,-0.814,1.126,-274.102,80.885,-16.24,
65148420,0.528,-1.433,0.757,-271.547,94.08,-5.075,
65148430,0.459,-1.808,0.403,-204.872,124.652,0.927,
65148440,0.41,-1.935,-0.272,-140.052,122.85,-46.69,
65148450,1.27,-1.737,-0.129,-73.902,88.602,-94.517,
65148460,1.508,-0.862,-0.464,11.445,105.717,-180.075,
65148470,0.04,-0.702,-0.351,11.305,94.202,-269.325,
65148480,-0.904,-1.025,-0.239,-17.465,97.562,-243.372,
65148490,-0.785,-0.884,-0.309,8.155,48.527,-191.397,
65148500,-0.165,-0.288,-0.401,29.977,4.095,-164.937,
65148510,-0.247,-0.187,-0.084,12.652,-37.52,-115.447,
65148510,-0.447,-0.407,0.077,-22.207,-90.457,-35.997,
65148530,-0.204,-0.086,0.144,2.922,-153.037,28.42,
65148530,0.192,0.635,0.063,42.735,-192.01,80.272,
65148550,0.279,1.193,-0.131,61.355,-192.447,123.69,
65148550,1.168,1.41,1.19,53.62,-172.322,131.985,
65148570,1.339,-0.602,1.997,59.237,-45.972,176.837,
65148570,-1.215,-1.998,-0.257,196.245,77.262,286.667,
65148580,-0.146,-1.998,0.173,426.842,-19.25,303.992,
65148590,-0.961,-1.26,0.745,475.772,-54.985,195.947,
65148600,-0.468,1.533,1.578,495.652,-63.875,129.43,
65148610,-1.152,0.111,1.803,422.8,-15.295,51.975,
65148620,-0.772,-0.056,1.998,373.747,-73.255,-62.3,
65148630,1.338,1.496,1.847,272.387,-135.87,-101.57,
65148640,1.87,1.391,1.192,96.74,-96.232,-66.377,
65148650,1.203,0.428,1.075,-19.11,-6.3,0.77,
65148660,0.297,-0.179,1.037,-74.515,42.595,26.617,
65148670,-0.101,-0.496,0.875,-92.417,47.477,18.025,
65148680,-0.18,-0.667,0.866,-71.4,34.387,4.76,
65148690,-0.105,-0.645,0.78,-52.57,17.885,-5.39,
65148700,0.101,-0.692,0.645,-21.682,5.232,-13.527,
65148710,0.161,-0.769,0.637,16.432,-2.03,-6.492,
65148720,0.136,-0.59,0.827,56.525,-5.635,0.595,
65148730,0.036,-0.229,1.07,74.13,-10.115,6.457,
65148740,0.107,0.232,1.189,58.572,-14.717,4.287,
65148750,0.419,0.044,1.041,19.88,-14.105,-0.997,
65148760,0.472,-0.043,0.968,-7.227,-2.065,1.907,
65148770,0.281,-0.172,0.963,-19.39,11.147,10.937,
65148780,0.143,-0.293,0.903,-27.685,16.59,14.245,
65148790,-0.025,-0.416,0.887,-24.062,15.68,14.14,
65148800,-0.115,-0.403,0.883,-11.69,7.49,8.365,
65148810,-0.023,-0.386,0.896,-0.507,-3.29,0.472,
65148820,0.072,-0.32,0.913,6.982,-11.217,-6.212,
65148830,0.126,-0.293,0.928,10.272,-15.347,-10.01,
65148840,0.181,-0.242,0.941,10.08,-16.345,-12.722,
65148850,0.247,-0.197,0.947,7.49,-14.77,-13.965,
65148860,0.28,-0.197,0.959,2.38,-10.062,-13.807,
65148870,0.246,-0.215,0.937,-3.342,-3.937,-14.192,
65148880,0.272,-0.212,0.947,-6.825,0.577,-15.312,
65148890,0.285,-0.264,0.927,-11.97,5.285,-14.735,
65148900,0.203,-0.331,0.91,-13.982,9.73,-12.652,
65148910,0.189,-0.298,0.933,-11.515,11.252,-11.48,
65148910,0.139,-0.299,0.951,-11.532,11.235,-11.445,
65148920,0.149,-0.252,0.987,-13.702,9.362,-11.322,
65148930,0.099,-0.235,1.018,-20.282,6.072,-10.447,
65148940,0.069,-0.193,1.087,-30.012,0.7,-11.847,
65148950,-0.036,-0.038,1.248,-43.155,-4.97,-20.247,
65148960,-0.03,-0.176,1.327,-66.955,-8.697,-35.245,
65148970,-0.223,-0.173,1.539,-112.315,28.385,-52.36,
65148980,0.249,-0.345,1.4,-156.712,37.38,-68.652,
65148990,0.316,-0.442,1.198,-193.83,62.3,-70.525,
65149000,0.089,-0.2,1.125,-217.892,69.527,-75.442,
65149010,0.171,-0.041,1.076,-246.96,56.7,-83.195,
65149020,0.198,-0.093,0.98,-280.962,44.467,-91.175,
65149030,0.149,-0.58,0.632,-309.155,39.69,-101.657,
65149040,0.171,-1.17,0.557,-298.375,45.657,-114.17,
65149050,0.588,-0.984,0.651,-269.22,57.522,-108.36,
65149060,0.771,-1.176,0.399,-232.417,98.192,-105.35,
65149070,-0.202,-1.384,0.052,-188.09,144.532,-66.832,
65149080,-0.235,-1.128,0.379,-114.555,132.51,-66.202,
65149090,0.279,-1.149,0.399,-65.135,84.787,-84.665,
65149100,0.77,-1.117,-0.234,-14.892,44.222,-87.5,
65149110,1.075,-0.576,0.342,30.625,16.485,-105.997,
65149120,-0.263,-0.609,0.128,39.515,-23.17,-113.26,
65149130,-0.607,-0.138,-0.677,102.97,-61.285,-73.377,
65149140,-0.118,1.017,-0.945,158.13,-79.975,-8.365,
65149150,0.241,1.464,-1.136,129.062,-54.932,76.772,
65149160,-0.085,1.602,-1.194,77,-15.942,145.967,
65149170,1.175,0.111,1.227,16.94,-15.155,158.357,
65149180,1.57,-1.998,0.789,30.24,105.717,259.665,
65149190,-1.97,-1.979,-1.028,400.715,-51.152,241.482,
65149200,-0.981,1.139,0.946,573.177,-59.15,64.172,
65149210,-0.186,1.501,1.998,540.995,-41.947,92.872,
65149220,-1.6,-1.015,1.998,419.002,-106.627,18.707,
65149230,1.706,1.996,1.707,283.43,-200.83,-91.717,
65149240,1.81,1.184,1.08,32.795,-122.657,-80.972,
65149250,1.539,0.118,1.005,-81.182,-12.565,-0.42,
65149260,0.098,-0.365,0.972,-127.137,41.562,35.542,
65149260,-0.031,-0.788,0.873,-119.997,38.71,32.182,
65149280,-0.502,-0.59,0.878,-96.915,24.482,17.062,
65149280,-0.365,-0.772,0.652,-61.95,-7.052,-8.19,
65149300,0.277,-0.683,0.589,-19.057,-27.02,-28.56,
65149300,0.434,-0.541,0.646,9.73,-22.225,-21.647,
65149320,0.194,-0.351,0.908,31.412,-10.885,-2.835,
65149320,0.233,-0.089,1.122,33.355,-8.802,2.747,
65149330,0.073,-0.16,1.089,15.505,-13.772,4.637,
65149340,0.187,-0.163,1.098,-0.245,-22.26,1.557,
65149350,0.31,-0.262,0.983,-14.805,-28.385,3.675,
65149360,0.371,-0.294,0.887,-20.072,-27.772,10.412,
65149370,0.161,-0.298,0.86,-19.075,-29.032,20.79,
65149380,0.297,-0.38,0.832,-8.907,-34.65,27.317,
65149390,0.252,-0.32,0.864,-2.187,-31.727,28.595,
65149400,0.228,-0.364,0.855,1.085,-27.772,28.332,
65149410,0.192,-0.378,0.868,2.537,-21.682,23.695,
65149420,0.191,-0.368,0.895,0.35,-14.665,17.097,
65149430,0.213,-0.331,0.945,-3.412,-9.73,9.852,
65149440,0.239,-0.299,0.992,-8.855,-7.56,5.88,
65149450,0.255,-0.286,1.046,-17.29,-7.052,5.425,
65149460,0.233,-0.236,1.141,-28.91,-8.05,5.827,
65149470,0.22,-0.199,1.217,-46.515,-10.832,6.755,
65149480,0.091,-0.268,1.274,-70.07,-16.065,7.402,
65149490,-0.051,-0.282,1.34,-93.607,-24.167,3.01,
65149500,-0.271,-0.439,1.272,-121.502,-36.382,-8.295,
65149510,-0.309,-0.559,1.17,-144.882,-48.86,-35.017,
65149520,-0.165,-0.441,1.058,-162.505,-49.507,-72.065,
65149530,-0.086,-0.152,1.086,-175.315,-36.715,-95.515,
65149540,0.136,-0.19,1.045,-206.692,-28.805,-114.94,
65149550,-0.172,-0.913,0.777,-228.777,-26.512,-138.302,
65149560,0.948,-1.27,0.964,-212.1,-14.56,-149.485,
65149570,0.599,-1.85,0.283,-194.582,81.69,-94.675,
65149580,-1.852,-1.9,1.527,-177.292,139.65,-25.882,
65149580,-1.771,-1.832,0.203,-98.507,86.957,3.08,
65149600,-1.755,-1.249,1.348,-2.292,13.055,126.7,
65149600,-0.224,-0.208,-0.376,139.457,-19.075,291.69,
65149620,1.973,1.544,-0.599,257.652,71.592,390.162,
65149620,1.935,1.667,-0.154,236.722,170.887,358.487,
65149640,0.967,0.555,-0.373,84.14,147.752,188.142,
65149640,0.526,0.413,-0.561,29.365,73.045,47.705,
65149660,0.68,0.566,-0.577,36.715,32.252,17.762,
65149660,-0.897,-0.249,0.439,-4.322,-32.305,23.59,
65149670,1.996,-1.997,0.519,-41.09,-130.34,8.417,
65149680,0.055,-1.998,-0.976,241.43,2.222,34.3,
65149690,-1.088,0.983,0.811,521.815,25.305,-76.667,
65149700,0.38,1.583,1.453,504.192,5.32,-52.727,
65149710,-1.826,-1.642,1.938,314.877,-97.055,8.347,
65149720,1.965,1.938,0.798,267.19,-215.565,-96.81,
65149730,-0.537,-1.023,0.939,-62.475,-60.497,-50.977,
65149740,1.858,0.541,0.854,-78.33,8.365,-23.502,
65149750,0.052,-1.188,0.831,-89.337,74.865,-3.552,
65149760,-0.152,-0.326,0.974,-74.62,74.655,13.772,
65149770,-0.672,-0.74,0.944,-55.51,50.452,9.1,
65149780,-0.261,-0.464,0.899,-27.72,14.542,-13.965,
65149790,0.151,-0.538,0.842,-6.947,-7.227,-21.21,
65149800,0.216,-0.457,0.835,6.545,-13.055,-12.057,
65149810,0.003,-0.355,0.969,22.172,-16.31,2.03,
65149820,0.125,-0.248,0.978,24.097,-23.747,0.525,
65149830,0.223,-0.335,0.908,21.42,-25.83,-1.085,
65149840,0.304,-0.179,0.938,21.56,-22.767,1.19,
65149850,0.26,-0.008,1.008,13.93,-14.98,6.125,
65149860,0.229,-0.19,0.958,-2.187,-8.137,7,
65149870,0.214,-0.297,0.92,-9.187,-5.18,8.382,
65149880,0.196,-0.223,0.947,-9.887,-3.29,9.8,
65149890,0.157,-0.23,0.954,-12.705,-2.047,10.325,
65149900,0.098,-0.287,0.928,-14.7,-2.835,9.45,
65149910,0.055,-0.396,0.88,-13.457,-6.037,6.912,
65149920,0.106,-0.387,0.874,-6.317,-9.712,2.047,
65149930,0.149,-0.339,0.894,0.385,-11.27,-2.415,
65149940,0.157,-0.279,0.911,4.55,-11.095,-5.547,
65149950,0.188,-0.292,0.923,5.372,-10.185,-7.105,
65149960,0.184,-0.248,0.958,4.515,-8.977,-6.93,
65149970,0.164,-0.225,0.966,1.137,-8.802,-6.212,
65149980,0.147,-0.292,0.941,-2.362,-9.992,-6.125,
65149990,0.204,-0.307,0.936,-2.642,-11.34,-6.947,
65150000,0.214,-0.276,0.943,-3.307,-11.165,-6.16,
65150010,0.184,-0.299,0.937,-4.865,-10.902,-3.972,
65150010,0.188,-0.305,0.941,-5.687,-11.742,-3.202,
65150030,0.212,-0.276,0.958,-6.545,-13.002,-2.397,
65150030,0.217,-0.245,1.003,-10.08,-13.93,-1.19,
65150050,0.162,-0.227,1.069,-17.342,-16.817,0.07,
65150050,0.116,-0.235,1.143,-27.685,-25.497,0.98,
65150070,0.072,-0.254,1.247,-40.022,-40.845,0,
65150070,0.013,-0.38,1.293,-53.62,-60.077,-2.957,
65150080,-0.104,-0.539,1.189,-58.73,-75.88,-14.227,
65150090,0.058,-0.669,1.104,-56.49,-58.45,-37.275,
65150100,0.356,-0.475,1.037,-55.212,-28.717,-66.797,
65150110,0.526,-0.271,0.987,-67.987,21.717,-75.967,
65150120,0.031,-0.628,0.95,-98.997,51.94,-64.855,
65150130,-1.188,-1.314,1.184,-134.207,66.92,-61.53,
65150140,0.712,-1.982,0.484,-137.725,64.33,-37.625,
65150150,-1.998,-1.958,0.391,-51.94,101.395,94.71,
65150160,-1.315,-0.926,0.317,7.735,36.837,62.352,
65150170,0.754,-0.174,0.176,50.977,34.317,174.807,
65150180,1.823,0.059,-0.431,29.365,113.015,221.515,
65150190,1.91,0.759,-0.267,-10.22,202.44,111.93,
65150200,1.975,1.777,-0.445,-41.125,208.005,-47.075,
65150210,0.236,1.709,0.597,-29.47,134.505,-79.572,
65150220,-1.256,-1.319,-0.349,-94.535,-19.6,-113.54,
65150230,1.6,-1.848,1.745,-65.187,29.715,-166.635,
65150240,0.141,-1.918,0.343,146.86,15.802,-14.717,
65150250,1.859,1.555,1.551,420.577,14.472,34.982,
65150260,-0.769,-0.326,1.998,246.277,36.26,54.635,
65150270,-1.251,0.094,1.828,137.235,45.57,89.985,
65150280,-0.463,1.852,1.466,45.552,11.252,38.955,
65150290,-0.227,-0.585,1.249,-87.43,-2.012,8.522,
65150300,-0.216,0.437,0.683,-107.817,-45.937,13.51,
65150310,0.933,0.095,1.194,-110.372,-106.47,80.36,
65150320,-0.181,-1.018,0.985,-142.327,-49.665,79.012,
65150330,0.085,-0.596,0.95,-109.69,-44.065,65.905,
65150330,0.228,-0.515,0.908,-121.152,-32.375,50.907,
65150350,0.106,-0.418,0.91,-131.425,-4.48,37.31,
65150350,-0.198,-0.44,0.882,-129.92,3.185,30.922,
65150370,0.039,-0.527,0.816,-121.905,-1.96,25.357,
65150370,0.177,-0.557,0.795,-105.857,0.595,25.62,
65150390,0.172,-0.557,0.777,-91.297,5.04,22.96,
65150390,0.233,-0.534,0.719,-77.735,11.077,26.565,
65150410,0.285,-0.509,0.742,-71.015,19.18,30.782,
65150410,0.379,-0.477,0.816,-67.567,28.962,31.692,
65150420,0.375,-0.481,0.864,-61.04,44.922,40.53,
65150430,0.276,-0.613,0.886,-57.89,61.442,49.945,
65150440,0.222,-0.628,0.91,-56.28,79.537,56.927,
65150450,0.143,-0.583,1.008,-58.415,95.13,59.535,
65150460,0.046,-0.594,1.073,-62.877,106.96,53.585,
65150470,-0.004,-0.697,1.173,-58.87,109.585,42.367,
65150480,-0.284,-0.574,1.251,-31.412,102.27,16.712,
65150490,-0.124,-0.362,1.593,18.655,61.95,-42.455,
65150500,0.285,-0.03,1.529,76.947,17.447,-110.267,
65150510,0.159,0.322,1.172,126,2.17,-155.19,
65150520,-0.048,0.399,0.942,142.065,8.487,-183.767,
65150530,-0.236,0.359,0.921,131.512,13.702,-194.74,
65150540,-0.371,0.262,0.788,127.085,19.04,-180.81,
65150550,-0.35,0.334,0.65,131.652,26.337,-151.357,
65150560,-0.251,0.391,0.568,130.165,38.237,-114.572,
65150570,-0.176,0.309,0.553,117.897,52.115,-76.772,
65150580,-0.081,0.16,0.569,100.642,61.565,-48.667,
65150590,0.11,-0.036,0.71,82.53,73.132,-30.38,
65150600,0.215,-0.362,0.633,70.052,90.492,-13.3,
65150610,0.369,-0.542,0.543,73.64,115.395,3.062,
65150620,0.47,-0.683,0.463,76.492,145.32,20.475,
65150630,0.312,-0.986,0.384,73.062,156.24,38.482,
65150640,0.31,-1.24,0.219,68.442,137.532,41.09,
65150650,0.557,-1.35,0.007,65.502,106.925,35.315,
65150660,0.649,-1.382,-0.377,55.23,79.975,29.645,
65150670,1.138,-1.025,-0.857,31.045,69.842,22.557,
65150680,0.051,-1.538,1.561,-98.77,130.795,24.412,
65150690,-1.998,-1.998,0.281,-157.43,-186.515,-19.442,
65150700,-1.998,-1.319,0.044,154.332,-343.91,20.825,
65150710,-0.567,1.942,0.582,346.395,-440.335,-37.712,
65150720,1.998,1.349,1.939,137.27,-406.175,-57.172,
65150730,1.027,-1.998,0.452,-200.182,-180.18,-35.595,
65150740,-1.736,-0.088,0.78,29.382,-98.245,-106.225,
65150750,1.574,1.018,1.105,58.975,-110.565,-30.415,
65150760,0.957,-1.011,0.843,-29.89,-62.16,22.47,
65150760,-0.606,0.153,1.086,24.972,-27.615,-8.26,
65150780,0.468,-0.113,0.976,0.437,-40.495,-8.697,
65150780,0.363,-0.556,0.897,-26.162,-30.117,-9.922,
65150800,0.207,-0.123,0.958,-12.25,-16.835,-21.595,
65150800,0.357,-0.318,0.925,-12.162,-8.312,-16.835,
65150820,0.125,-0.299,0.943,-12.04,-0.857,-10.762,
65150820,0.135,-0.351,0.936,-14.262,-0.14,-13.055,
65150830,0.161,-0.285,0.944,-12.74,-0.735,-17.517,
65150840,0.139,-0.32,0.928,-10.517,-0.052,-18.69,
65150850,0.129,-0.312,0.946,-7.455,-0.385,-20.125,
65150860,0.219,-0.293,0.942,-9.327,-0.542,-22.382,
65150870,0.283,-0.226,0.958,-12.267,2.607,-20.195,
65150880,0.089,-0.342,0.943,-17.885,7.105,-15.225,
65150890,0.018,-0.335,0.929,-15.785,5.145,-19.215,
65150900,0.157,-0.369,0.914,-10.115,0.227,-25.847,
65150910,0.243,-0.313,0.912,-7.962,-0.735,-25.375,
65150920,0.23,-0.309,0.921,-8.347,1.295,-19.495,
65150930,0.197,-0.306,0.935,-9.082,3.115,-15.207,
65150940,0.193,-0.293,0.948,-10.71,4.655,-13.212,
65150950,0.237,-0.278,0.957,-13.685,6.352,-10.605,
65150960,0.217,-0.269,0.972,-18.97,9.275,-7.35,
65150970,0.246,-0.269,0.995,-25.97,12.302,-3.955,
65150980,0.228,-0.259,1.043,-33.985,16.59,-0.157,
65150990,0.29,-0.233,1.093,-46.847,21.647,4.147,
65151000,0.318,-0.239,1.144,-63.962,29.155,11.042,
65151010,0.522,-0.172,1.159,-86.31,42.315,19.915,
65151020,0.017,-0.269,1.349,-118.02,62.667,29.96,
65151030,0.356,-0.074,1.237,-137.445,64.977,29.067,
65151040,0.321,-0.116,1.184,-163.87,81.095,37.1,
65151050,0.448,-0.226,1.225,-190.277,98.192,38.43,
65151060,0.766,-0.424,0.891,-202.65,133,47.145,
65151070,0.424,-0.707,0.91,-201.197,159.407,61.897,
65151080,0.449,-0.84,0.59,-189,169.277,46.76,
65151080,0.357,-1.161,0.457,-158.357,148.015,33.215,
65151100,0.761,-1.612,0.159,-119.192,112.21,-16.94,
65151100,1.166,-1.998,-0.103,-94.08,2.765,-108.797,
65151120,1.733,-1.556,0.272,-43.277,-65.87,-203.245,
65151120,-0.415,-1.082,0.029,4.62,-96.057,-233.73,
65151140,-0.994,-0.516,0.184,9.485,-130.462,-186.48,
65151140,-0.925,-0.18,0.323,2.905,-175.892,-72.485,
65151160,0,0.226,0.114,8.085,-214.41,9.87,
65151160,0.267,1.071,-0.053,31.377,-217.542,64.627,
65151170,0.321,1.733,-0.199,34.72,-199.605,90.982,
65151180,0.966,1.691,0.76,28.42,-163.695,69.475,
65151190,-1.411,-0.395,1.972,22.697,-49.07,145.092,
65151200,-1.611,-1.998,-0.53,137.812,-61.722,315.56,
65151210,1.945,-1.998,-0.425,406.017,-106.05,333.55,
65151220,-0.736,-0.045,0.815,433.965,-1.82,88.725,
65151230,-1.939,1.871,1.874,409.097,58.17,-89.617,
65151240,-0.753,-1.189,1.997,290.045,-27.317,-122.622,
65151250,1.149,0.963,1.998,282.572,-115.762,-200.007,
65151260,1.965,1.631,1.598,150.832,-113.382,-132.79,
65151270,1.315,0.577,1.239,-10.272,-44.782,-8.015,
65151280,0.286,-0.147,1.046,-79.66,-1.207,47.337,
65151290,0.117,-0.62,0.81,-102.217,26.285,37.082,
65151300,0.168,-0.46,0.79,-91.595,33.897,9.73,
65151310,0.054,-0.549,0.829,-75.95,38.045,0.385,
65151320,0.228,-0.394,0.895,-57.855,38.92,-12.775,
65151330,0.35,-0.388,0.869,-56.087,37.975,-10.587,
65151340,0.376,-0.448,0.756,-55.79,32.742,4.83,
65151350,0.375,-0.478,0.703,-45.447,27.842,22.032,
65151360,0.204,-0.46,0.7,-29.242,31.43,33.687,
65151370,0.422,-0.416,0.736,-14.735,40.075,34.422,
65151380,0.29,-0.428,0.883,-6.125,53.13,42.735,
65151390,-0.384,-0.487,1.019,-5.425,49.857,48.737,
65151400,-0.388,-0.324,1.064,-4.97,30.45,24.692,
65151410,0.024,-0.328,1.002,-10.36,12.967,1.802,
65151420,0.322,-0.346,0.93,-17.552,7.28,-1.33,
65151430,0.378,-0.348,0.884,-20.3,13.335,9.082,
65151440,0.114,-0.384,0.873,-22.242,20.86,21.577,
65151450,-0.011,-0.419,0.865,-21.262,20.44,21.805,
65151460,0.013,-0.429,0.859,-15.82,15.015,16.397,
65151470,-0.003,-0.464,0.852,-10.745,11.165,11.812,
65151480,-0.05,-0.489,0.831,-4.707,6.212,6.44,
65151490,-0.017,-0.454,0.84,3.745,0.787,-0.07,
65151500,0.06,-0.429,0.854,9.677,-2.782,-5.075,
65151510,0.11,-0.423,0.857,13.895,-4.777,-6.79,
65151510,0.115,-0.436,0.858,17.745,-4.812,-6.58,
65151530,0.154,-0.406,0.873,20.895,-3.517,-6.335,
65151530,0.145,-0.371,0.903,22.085,-1.12,-6.002,
65151550,0.13,-0.357,0.947,20.107,0.665,-4.672,
65151550,0.125,-0.31,0.987,15.015,1.33,-3.745,
65151570,0.108,-0.306,0.981,6.597,1.242,-2.24,
65151570,0.103,-0.333,0.958,-1.277,0.752,-1.802,
65151580,0.095,-0.37,0.93,-6.562,0.227,-1.907,
65151590,0.07,-0.375,0.884,-8.767,-0.805,-2.292,
65151600,0.009,-0.437,0.829,-6.562,-2.8,-4.777,
65151610,-0.048,-0.485,0.781,1.505,-6.37,-10.902,
65151620,-0.075,-0.482,0.765,15.085,-12.127,-20.615,
65151630,-0.017,-0.489,0.777,30.607,-17.867,-31.902,
65151640,0.024,-0.461,0.812,45.325,-20.965,-41.58,
65151650,0.146,-0.4,0.899,56.192,-22.575,-47.985,
65151660,0.253,-0.262,0.997,57.417,-21.787,-47.372,
65151670,0.298,-0.227,1.019,48.667,-18.707,-39.287,
65151680,0.284,-0.247,1.002,36.4,-14.35,-28.945,
65151690,0.239,-0.259,0.997,25.602,-10.43,-20.247,
65151700,0.214,-0.276,0.998,16.117,-8.032,-13.877,
65151710,0.239,-0.261,0.996,7.385,-6.492,-8.96,
65151720,0.242,-0.261,0.992,-1.802,-5.04,-2.31,
65151730,0.21,-0.272,1.001,-11.182,-3.815,5.197,
65151740,0.212,-0.26,1.027,-20.685,-3.517,11.725,
65151750,0.221,-0.244,1.078,-31.832,-3.762,18.76,
65151760,0.248,-0.232,1.11,-46.882,-4.095,26.74,
65151770,0.298,-0.189,1.223,-65.117,-4.235,38.027,
65151780,0.364,-0.09,1.345,-92.89,0.07,50.925,
65151790,0.156,-0.159,1.226,-124.04,11.567,65.467,
65151800,0.207,-0.257,1.174,-154.332,9.905,71.487,
65151810,0.184,-0.126,1.129,-180.355,11.847,67.9,
65151820,0.329,-0.215,1.086,-208.95,11.357,63.14,
65151830,0.32,-0.293,1.034,-220.552,14.892,74.41,
65151830,0.533,-0.412,0.983,-241.57,20.422,84.56,
65151850,0.621,-0.619,0.916,-251.93,30.52,96.687,
65151850,0.649,-0.832,0.956,-242.952,45.255,113.452,
65151870,0.549,-0.976,0.802,-214.655,61.092,129.342,
65151870,0.345,-1.102,0.463,-163.24,59.325,149.922,
65151890,0.605,-1.32,0.04,-113.697,36.732,174.51,
65151890,0.132,-1.095,-0.293,-81.112,-1.47,198.397,
65151910,0.562,-0.76,0.017,-36.12,-18.515,200.83,
65151910,0.328,-0.694,0.085,-4.795,-20.387,193.41,
65151920,0.457,-0.508,0.125,8.925,-35.385,159.337,
65151930,0.72,-0.392,0.067,10.447,-63.105,110.477,
65151940,0.673,-0.349,0.205,13.597,-75.39,51.292,
65151950,0.255,-0.208,0.388,26.792,-68.582,-5.39,
65151960,-0.365,-0.196,0.544,31.745,-59.885,-35.63,
65151970,-1.182,-0.404,0.701,47.057,-59.29,-22.312,
65151980,-1.47,-0.3,0.666,72.747,-74.462,6.002,
65151990,-1.27,-0.266,0.369,100.205,-76.685,100.8,
65152000,-0.243,-0.415,0.293,99.487,-56.087,190.68,
65152010,-0.023,-1.032,1.059,70.367,-1.19,210.035,
65152020,-1.338,-1.987,1.147,36.785,29.645,185.272,
65152030,-0.957,-1.578,0.667,91.262,40.932,150.22,
65152040,-0.449,0.433,1.164,160.93,39.322,109.34,
65152050,-0.54,0.587,1.629,112.892,25.69,43.61,
65152060,-0.239,-0.343,1.417,59.622,56.472,15.767,
65152070,-0.106,-0.412,1.348,66.132,97.02,-19.652,
65152080,-0.452,-0.078,1.372,60.357,111.457,-54.372,
65152090,-0.334,-0.005,1.37,26.442,117.862,-75.11,
65152100,0.133,-0.382,1.165,-12.425,138.25,-75.967,
65152110,0.264,-0.892,0.883,-32.585,161.35,-69.737,
65152120,0.286,-1.048,0.708,-25.27,172.812,-58.257,
65152130,-0.036,-0.905,0.662,-8.907,169.155,-35.21,
65152140,-0.147,-0.671,0.708,-1.225,146.702,-15.522,
65152150,0.033,-0.541,0.849,-5.915,114.555,6.16,
65152160,0.004,-0.653,0.84,-14.91,89.477,26.215,
65152170,0.188,-0.514,0.915,-13.982,66.062,40.845,
65152180,-0.178,-0.661,1.015,1.312,56.437,43.33,
65152190,-1.306,-1.069,0.926,10.937,-49.91,-14.91,
65152200,0.605,-0.231,1.285,78.47,-182.21,-116.725,
65152210,1.047,-0.034,0.838,129.045,-210.175,-132.16,
65152220,0.613,-0.067,0.672,131.652,-175.892,-147.175,
65152230,0.016,-0.065,0.648,129.867,-144.602,-161.455,
65152230,-0.363,-0.145,0.56,129.22,-146.65,-162.75,
65152250,-0.356,-0.203,0.516,135.467,-166.39,-152.617,
65152250,-0.154,-0.143,0.521,136.237,-172.69,-136.727,
65152260,-0.2,-0.161,0.542,108.937,-162.4,-83.317,
65152270,-0.042,-0.51,0.705,75.477,-136.587,-27.387,
65152280,0.131,-0.945,0.859,62.632,-102.497,17.027,
65152290,0.096,-1.206,0.808,77.122,-75.775,46.025,
65152300,0.069,-1.057,0.655,110.215,-61.6,52.115,
65152310,0.184,-0.873,0.552,120.68,-53.287,42.665,
65152320,0.299,-0.825,0.449,98.052,-42.63,28.21,
65152330,0.292,-0.876,0.363,62.895,-31.15,7.997,
65152340,0.254,-0.808,0.355,33.302,-19.722,-12.162,
65152350,0.199,-0.94,0.273,9.887,-8.312,-19.81,
65152360,0.147,-0.892,0.391,15.347,-3.902,-36.89,
65152370,0.272,-0.608,0.441,3.43,-5.687,-67.812,
65152380,0.866,-0.285,0.543,-10.027,20.895,-69.492,
65152390,0.293,-0.423,1.944,-26.722,110.197,-29.277,
65152400,-1.829,-1.065,1.668,30.362,162.207,3.272,
65152410,-1.998,0.802,0.871,216.09,191.8,44.327,
65152420,-1.998,1.197,1.494,196.035,42.962,7.56,
65152430,-0.783,-0.432,0.92,34.265,-151.97,-26.18,
65152440,1.998,1.013,1.672,30.432,-154.297,-70.402,
65152450,0.559,-0.632,0.898,-49.262,-61.967,-56.42,
65152460,-0.758,-1.184,0.716,-59.255,-50.067,-51.922,
65152470,-0.554,-0.396,0.872,10.482,-76.002,-32.13,
65152480,0.706,-0.317,1.032,23.467,-93.695,-14.35,
65152490,0.38,-0.248,0.978,32.095,-73.342,-12.985,
65152500,0.097,-0.16,0.996,25.55,-59.482,-18.69,
65152510,0.486,-0.25,0.95,11.34,-52.255,-10.5,
65152520,0.459,-0.247,0.945,5.162,-34.212,-8.365,
65152530,0.312,-0.205,0.951,2.817,-15.82,-6.247,
65152540,0.269,-0.252,0.95,-0.017,-3.097,-1.907,
65152550,0.179,-0.273,0.954,-2.852,5.337,-0.035,
65152560,0.083,-0.307,0.937,-5.827,7.98,0.857,
65152570,0.098,-0.272,0.942,-4.882,6.615,-1.365,
65152580,0.127,-0.318,0.93,-3.447,5.74,-1.33,
65152580,0.053,-0.295,0.945,-0.962,5.057,-1.295,
65152600,0.055,-0.293,0.946,-1.365,1.995,-2.117,
65152600,0.04,-0.308,0.938,-2.572,-2.117,-3.045,
65152620,0.058,-0.311,0.928,-0.682,-6.44,-4.55,
65152620,0.094,-0.313,0.937,0.84,-9.87,-5.652,
65152640,0.128,-0.274,0.954,7.14,-11.165,-5.285,
65152640,0.16,-0.287,0.931,2.205,-11.462,-5.127,
65152660,0.141,-0.285,0.925,1.925,-10.097,-2.747,
65152660,0.144,-0.276,0.928,4.007,-9.135,-0.927,
65152670,0.112,-0.27,0.934,4.812,-8.347,-0.052,
65152680,0.044,-0.318,0.93,4.27,-9.817,0.087,
65152690,0.042,-0.304,0.931,6.737,-14.262,-0.332,
65152700,0.027,-0.305,0.932,9.24,-19.617,0.402,
65152710,0.101,-0.28,0.939,11.462,-24.85,2.397,
65152720,0.119,-0.239,0.954,12.32,-27.335,4.007,
65152730,0.153,-0.237,0.961,10.447,-29.277,6.265,
65152740,0.267,-0.194,0.95,7.805,-29.82,7.962,
65152750,0.33,-0.148,0.985,3.255,-25.637,10.22,
65152760,0.347,-0.189,0.957,-3.64,-18.042,14.962,
65152770,0.318,-0.111,1.002,-11.077,-10.185,18.077,
65152780,0.278,-0.176,0.997,-26.67,-3.64,21.507,
65152790,0.218,-0.225,0.989,-37.765,1.172,23.082,
65152800,0.127,-0.28,0.981,-45.167,2.572,20.702,
65152810,0.035,-0.332,0.981,-48.09,-0.49,17.92,
65152820,0.252,-0.258,1.021,-49.367,-10.972,13.65,
65152830,0.251,-0.297,0.911,-52.64,-15.96,21.647,
65152840,0.449,-0.069,0.912,-47.075,-50.522,26.11,
65152850,0.011,-0.423,0.904,-39.462,-56.63,43.505,
65152860,-0.011,-0.461,0.804,-38.867,-44.52,40.722,
65152870,-0.151,-0.517,0.765,-30.887,-31.605,15.977,
65152880,-0.345,-0.612,0.739,-26.582,-14.402,-21.962,
65152890,-0.108,-0.57,0.616,-10.745,-5.442,-63.77,
65152900,0.002,-0.761,0.57,4.515,7.805,-93.59,
65152910,0.287,-0.642,0.657,33.46,11.515,-114.712,
65152920,0.751,-0.3,0.912,61.635,11.007,-114.502,
65152920,0.947,0.102,1.107,66.36,21.035,-82.862,
65152940,0.514,0.045,1.164,36.82,39.007,-39.935,
65152940,0.1,-0.154,1.148,4.777,42.647,-18.62,
65152960,0.088,-0.236,1.075,-16.257,33.442,-20.3,
65152960,0.124,-0.23,1.063,-28.455,25.007,-26.67,
65152980,-0.317,-0.389,1.114,-41.317,28.595,-36.575,
65152980,-0.29,-0.332,1.26,-54.862,19.705,-63.07,
65153000,-0.228,-0.473,1.317,-75.827,11.585,-87.622,
65153000,-0.176,-0.473,1.398,-103.285,4.935,-107.975,
65153010,-0.246,-0.414,1.298,-132.79,2.257,-121.835,
65153020,-0.349,-0.634,1.167,-172.322,7.262,-146.947,
65153030,-0.124,-0.646,1.074,-215.32,40.285,-186.707,
65153040,-0.264,-0.479,1.079,-249.462,102.515,-234.535,
65153050,-0.478,-0.528,1.014,-296.852,148.487,-295.382,
65153060,0.251,-0.816,0.807,-341.39,176.697,-360.272,
65153070,0.964,-1.748,0.533,-355.547,254.117,-345.205,
65153080,-0.682,-1.998,0.379,-313.757,333.007,-239.872,
65153090,-1.558,-1.998,-0.174,-187.88,285.897,-181.965,
65153100,-1.5,-1.427,0.46,-45.482,115.605,-152.757,
65153110,-0.302,-0.002,0.107,31.185,-33.442,-12.372,
65153120,0.335,-0.103,0.399,24.937,-103.145,163.677,
65153130,0.403,-0.602,0.388,-35.28,-107.31,247.362,
65153140,0.291,-0.397,0.528,-8.89,-103.635,279.475,
65153150,0.521,0.119,0.488,23.275,-96.635,299.88,
65153160,0.832,0.401,0.372,35.735,-74.917,328.265,
65153170,0.786,0.35,-0.067,41.387,-37.31,363.79,
65153180,0.621,0.87,-0.575,59.045,-15.575,362.442,
65153190,0.979,1.625,-0.936,69.16,1.382,331.66,
65153200,0.799,1.573,-1.049,35.577,21.245,305.34,
65153210,-0.302,0.498,-1.02,-0.595,14,279.615,
65153220,0.375,-1.735,1.642,-27.317,-186.865,152.197,
65153230,1.248,-1.998,-1.733,169.067,-437.972,-45.465,
65153240,-0.66,0.393,0.768,540.102,-236.53,-95.585,
65153250,0,1.277,1.998,530.18,-158.865,-215.67,
65153260,0.137,-1.229,1.998,320.967,-173.285,3.325,
65153270,1.204,1.997,1.735,286.492,-183.085,-90.16,
65153280,1.755,0.021,1.014,0.315,-104.247,-28.122,
65153290,1.356,0.078,0.837,-79.94,-13.475,3.955,
65153300,0.101,-0.586,0.804,-103.6,38.307,38.447,
65153310,-0.191,-0.696,0.861,-84.56,37.695,28.472,
65153320,-0.327,-0.666,0.791,-53.41,22.12,6.93,
65153330,-0.143,-0.649,0.775,-19.267,2.257,-16.59,
65153330,0.397,-0.432,0.814,5.285,-8.557,-26.145,
65153350,0.132,-0.331,0.912,14.665,-4.252,-12.88,
65153350,0.204,-0.168,1.03,18.725,-4.41,-6.562,
65153370,0.164,-0.211,1.028,8.995,-5.407,-1.767,
65153370,0.281,-0.184,1.023,-3.185,-7.455,0.367,
65153390,0.316,-0.123,1.048,-18.83,-7.192,6.632,
65153390,0.231,-0.217,1.035,-32.76,-5.355,17.307,
65153410,0.203,-0.243,1.03,-42,-6.212,25.147,
65153410,0.301,-0.254,1.052,-50.312,-6.195,31.062,
65153420,0.378,-0.195,1.13,-61.67,-0.56,39.935,
65153430,0.348,-0.073,1.17,-72.922,0.787,59.01,
65153440,0.413,-0.22,1.14,-86.66,-7.245,85.557,
65153450,0.314,-0.171,1.135,-108.272,-15.82,101.745,
65153460,0.329,-0.205,1.107,-131.215,-12.845,108.71,
65153470,0.318,-0.035,1.179,-155.767,0.542,98.945,
65153480,0.335,-0.072,1.109,-200.007,16.135,88.06,
65153490,0.287,-0.276,1.069,-238.42,35.087,84.367,
65153500,0.468,-0.46,1.02,-264.442,53.567,74.375,
65153510,0.831,-0.504,1.134,-277.9,86.432,68.67,
65153520,0.987,-0.801,1.112,-272.912,141.347,88.83,
65153530,0.75,-1.109,1.063,-236.25,187.32,116.48,
65153540,0.377,-1.381,0.76,-186.725,211.697,141.907,
65153550,0.25,-1.325,0.396,-124.915,181.842,97.212,
65153560,0.664,-1.047,1.131,-51.117,65.327,-13.597,
65153570,1.968,-0.576,0.371,42.052,12.792,-121.642,
65153580,0.092,0.332,0.268,124.442,6.842,-216.86,
65153590,-0.541,0.216,0.261,71.995,-22.295,-265.685,
65153600,-0.73,-0.124,0.354,77.35,-48.632,-179.375,
65153610,-0.348,0.089,0.211,122.447,-79.152,-120.89,
65153620,-0.17,0.334,-0.089,148.347,-95.322,-66.815,
65153630,-0.071,0.545,-0.293,150.692,-95.602,-13.86,
65153640,-0.042,0.535,-0.665,140.682,-96.6,8.522,
65153650,0.055,0.604,-0.75,123.497,-101.237,14.402,
65153660,0.199,0.496,-0.767,86.572,-105.14,12.81,
65153670,0.727,-0.192,-0.4,32.62,-104.685,32.655,
65153670,-0.471,-1.908,1.928,-89.547,23.59,232.575,
65153690,-1.833,-1.998,-1.701,35.42,28.087,502.722,
65153690,1.087,0.46,0.478,541.607,-206.43,218.995,
65153710,-1.746,1.997,1.97,526.417,-30.345,100.397,
65153710,-1.929,-0.779,1.998,324.695,-58.66,5.74,
65153730,0.986,0.548,1.998,280.297,-186.375,-144.847,
65153730,1.827,1.543,1.303,142.52,-159.652,-159.95,
65153750,1.6,-0.044,0.914,-43.645,-33.565,-34.527,
65153750,0.191,-0.314,0.954,-71.155,31.972,4.515,
65153760,-0.093,-0.413,0.958,-73.622,38.937,6.09,
65153770,-0.466,-0.482,0.941,-59.342,28.612,-13.545,
65153780,-0.176,-0.87,0.75,-35.122,5.88,-39.532,
65153790,0.333,-0.52,0.771,-7.77,-8.907,-49.77,
65153800,0.47,-0.366,0.829,5.88,-11.882,-29.715,
65153810,0.145,-0.352,0.927,14.052,-8.382,-5.967,
65153820,0.034,-0.223,1.038,14.98,-10.465,-1.68,
65153830,0.192,-0.257,0.992,4.515,-16.695,-3.85,
65153840,0.276,-0.217,0.993,-5.827,-17.517,-3.045,
65153850,0.353,-0.201,0.993,-16.012,-13.825,2.345,
65153860,0.27,-0.22,1.026,-28.437,-8.4,11.165,
65153870,0.092,-0.171,1.092,-39.182,-3.482,13.405,
65153880,-0.062,-0.307,1.164,-53.55,2.415,7.63,
65153890,0.012,-0.284,1.177,-68.425,3.832,-6.58,
65153900,0.171,-0.28,1.185,-84.63,-0.612,-14.997,
65153910,0.117,-0.312,1.156,-102.812,-1.137,-15.592,
65153920,0.187,-0.398,1.093,-119.7,-4.952,-18.025,
65153930,0.232,-0.357,0.994,-133.367,0.857,-24.745,
65153940,0.109,-0.418,0.944,-150.482,13.09,-34.125,
65153950,0.067,-0.487,0.934,-168.35,26.25,-50.75,
65153960,0.074,-0.498,0.965,-183.067,39.952,-69.265,
65153970,-0.081,-0.508,0.978,-193.322,47.845,-85.4,
65153980,-0.133,-0.553,0.94,-205.135,42.157,-106.172,
65153990,0.373,-0.954,0.736,-221.165,49.595,-119.525,
65154000,0.726,-1.423,0.647,-214.917,70.035,-126.385,
65154010,0.709,-1.489,0.515,-181.23,103.232,-134.557,
65154020,0.678,-1.633,0.411,-133.595,141.225,-119.612,
65154030,-0.188,-1.521,-0.243,-81.34,110.74,-91.875,
65154040,1.773,-1.638,0.023,-32.795,55.737,-147.455,
65154050,1.014,-1.927,0.183,-36.277,46.9,-166.757,
65154060,-1.405,-1.868,-0.027,17.202,11.497,-164.097,
65154070,-1.259,-0.959,-0.137,98.7,-64.417,-95.48,
65154080,-0.222,-0.193,-0.285,127.995,-122.64,58.485,
65154080,0.34,0.113,-1.058,118.527,-129.972,194.74,
65154100,0.416,1.014,-1.379,109.567,-118.895,247.852,
65154100,0.552,1.806,-0.97,52.745,-118.527,236.215,
65154120,0.317,1.694,-0.879,-12.285,-103.74,229.022,
65154120,-0.525,1.927,-1.189,-11.515,-113.137,212.257,
65154140,1.298,0.726,1.738,-1.785,-74.217,173.092,
65154140,0.291,-1.998,-0.249,107.52,183.995,332.062,
65154160,-1.667,-1.648,0.027,511.385,-48.685,157.797,
65154160,-0.836,1.955,1.594,567.822,20.79,-29.89,
65154170,-1.665,-0.833,1.998,439.11,-10.955,-18.025,
65154180,0.414,1.126,1.998,397.127,-152.705,-103.81,
65154190,1.995,1.65,1.555,159.145,-148.767,-117.652,
65154200,1.661,0.542,1.073,-56.052,-45.185,-36.872,
65154210,0.43,-0.346,0.782,-114.03,19.092,10.272,
65154220,0.104,-0.79,0.745,-102.672,38.097,11.462,
65154230,0.004,-0.514,0.807,-79.205,36.032,-0.7,
65154240,-0.181,-0.85,0.693,-53.287,23.397,1.365,
65154250,0.072,-0.632,0.754,-18.007,8.575,-5.775,
65154260,0.199,-0.426,0.874,8.032,0.315,-6.317,
65154270,0.195,-0.219,1.036,15.522,-3.377,-1.102,
65154280,0.232,-0.14,1.081,4.637,-6.44,3.92,
65154290,0.207,-0.123,1.156,-14.14,-9.415,9.397,
65154300,0.322,-0.136,1.171,-37.887,-13.405,13.895,
65154310,0.398,-0.166,1.171,-61.722,-14.332,23.695,
65154320,0.315,-0.181,1.228,-82.355,-6.562,35.875,
65154330,0.121,-0.252,1.141,-99.767,-9.012,45.447,
65154340,0.206,-0.308,1.105,-108.657,-23.17,52.902,
65154350,0.106,-0.287,1.125,-122.097,-30.887,53.9,
65154360,0.059,-0.346,1.148,-136.185,-35.245,49.262,
65154370,-0.104,-0.482,1.111,-151.865,-42.157,44.747,
65154380,-0.148,-0.555,1.082,-161.84,-55.947,24.01,
65154390,-0.11,-0.624,0.99,-163.87,-74.252,0.157,
65154400,-0.131,-0.821,0.91,-168.542,-90.982,-22.645,
65154410,0.197,-0.996,0.617,-167.842,-102.375,-49.91,
65154420,0.397,-1.112,0.942,-146.3,-86.8,-49.297,
65154420,1.142,-1.892,-0.209,-123.935,-65.73,-5.04,
65154440,-1.779,-1.998,0.164,-90.877,-38.5,147.28,
65154440,-1.151,-1.978,-0.504,-4.042,-70,164.325,
65154460,0.524,-0.549,-0.604,145.005,-111.387,194.04,
65154460,1.535,0.16,-0.318,115.657,-61.302,205.047,
65154480,0.926,-0.18,-0.127,33.477,1.032,175.997,
65154480,0.885,0.409,-0.03,5.46,24.412,89.057,
65154500,0.334,0.933,0.07,-13.632,13.23,26.355,
65154500,-0.05,0.999,-0.03,-33.967,-8.102,3.272,
65154510,-0.113,1.003,-0.106,-25.777,-16.835,17.132,
65154520,-0.101,0.918,-0.021,-0.157,-22.697,50.015,
65154530,-0.337,1.227,-0.425,6.632,-37.24,89.442,
65154540,1.921,-0.601,1.974,-14.087,35.542,132.685,
65154550,1.108,-1.998,-0.6,94.815,230.685,254.222,
65154560,-1.998,-1.61,1.185,360.867,66.482,136.832,
65154570,0.231,1.798,1.512,488.792,-18.27,60.025,
65154580,-1.342,-0.488,1.35,378.647,-51.345,78.295,
65154590,-1.045,-0.644,1.467,339.132,-41.807,-3.167,
65154600,-0.765,0.495,1.977,357.7,-91.542,-123.41,
65154610,1.4,0.991,1.833,247.94,-130.812,-115.85,
65154620,1.516,0.818,1.253,124.635,-96.302,-68.652,
65154630,0.996,0.436,1.128,28.385,-34.195,-15.89,
65154640,0.477,0.026,1.072,-31.132,6.37,7.595,
65154650,0.279,-0.23,0.997,-63.28,20.23,14.157,
65154660,0.013,-0.37,1.032,-70.787,20.475,18.427,
65154670,0.104,-0.378,0.992,-73.972,9.8,20.055,
65154680,0.096,-0.303,1.058,-72.415,0.35,24.482,
65154690,0.15,-0.361,1.113,-76.177,-8.592,30.292,
65154700,0.218,-0.226,1.225,-87.045,-17.36,37.117,
65154710,0.291,-0.114,1.334,-108.045,-23.695,45.64,
65154720,0.204,-0.024,1.356,-137.27,-29.452,53.042,
65154730,0.259,0.024,1.339,-168.752,-42.21,58.887,
65154740,0.17,-0.081,1.23,-202.667,-45.885,63.315,
65154750,0.005,-0.241,1.105,-233.345,-50.295,63.332,
65154760,-0.045,-0.388,1.049,-247.555,-63.402,55.825,
65154770,0.052,-0.467,1.042,-260.05,-81.935,44.205,
65154780,-0.175,-0.696,1.154,-251.615,-105.472,37.38,
65154790,-0.052,-0.869,1.067,-225.47,-140.56,33.127,
65154800,0.527,-0.903,0.887,-193.987,-139.037,37.117,
65154810,0.213,-1.11,0.674,-153.615,-108.045,45.29,
65154820,-0.108,-0.559,0.801,-93.992,-81.095,36.26,
65154830,-0.426,-0.287,1.082,-45.937,-53.812,36.75,
65154830,-1.477,-0.431,1.502,4.69,-14.945,52.622,
65154850,-1.352,0.689,0.278,118.352,2.835,112.875,
65154850,0.04,1.303,0.383,218.68,7.49,183.172,
65154870,0.586,0.515,-0.223,187.215,36.785,184.835,
65154870,0.223,0.366,-0.102,150.815,68.617,129.36,
65154890,0.095,0.026,-0.133,103.057,69.632,83.667,
65154890,-0.046,-0.246,-0.384,69.51,58.852,73.027,
65154900,0.263,0.023,-0.442,52.535,42.875,63.052,
65154910,0.992,-0.407,-0.237,22.05,44.082,56.227,
65154920,1.998,-1.998,-0.234,-76.212,45.062,106.015,
65154930,-1.546,-1.975,0.902,137.165,44.012,192.027,
65154940,-0.72,1.638,0.366,470.382,-64.977,-136.167,
65154950,0.323,1.596,1.465,406.332,-34.615,-71.277,
65154960,-1.057,-1.982,1.2,148.662,-3.465,110.197,
65154970,-0.838,0.646,1.28,309.05,-44.73,-83.965,
65154980,-0.608,-0.239,1.75,286.037,-96.6,-123.532,
65154990,1.243,0.477,1.786,241.64,-116.497,-117.005,
65155000,1.209,0.88,1.487,156.275,-81.602,-79.31,
65155010,1.048,0.586,1.24,49.385,-37.03,-28.84,
65155020,0.691,0.129,1.139,-24.132,5.442,4.462,
65155030,0.421,-0.071,1.107,-71.977,30.222,21.472,
65155040,0.187,-0.216,1.097,-102.217,40.022,29.645,
65155050,0.068,-0.398,1.01,-115.237,40.005,31.78,
65155060,0.054,-0.468,0.952,-111.842,34.492,33.25,
65155070,0.109,-0.451,0.884,-104.387,28.245,34.615,
65155080,0.155,-0.495,0.857,-98.717,24.01,39.742,
65155090,0.091,-0.441,0.9,-91.84,21.927,44.117,
65155100,0.033,-0.42,0.937,-89.232,19.372,44.677,
65155110,-0.034,-0.404,0.952,-88.48,14.367,39.83,
65155120,-0.015,-0.426,0.931,-90.177,10.097,29.295,
65155130,0.052,-0.435,0.899,-93.065,9.677,20.177,
65155140,0.07,-0.58,0.839,-94.902,11.987,12.827,
65155150,0.201,-0.373,0.847,-86.765,16.397,3.255,
65155160,0.176,-0.391,0.83,-86.922,22.277,9.205,
65155170,0.177,-0.516,0.779,-94.797,26.565,11.41,
65155170,0.124,-0.555,0.765,-88.672,28.822,11.97,
65155190,0.087,-0.545,0.75,-81.252,29.172,11.077,
65155190,0.009,-0.563,0.676,-75.425,27.755,10.045,
65155210,-0.029,-0.563,0.668,-65.082,25.322,13.02,
65155210,-0.013,-0.482,0.513,-50.925,23.782,22.207,
65155230,-0.426,-0.872,0.752,-26.617,27.125,61.6,
65155230,0.27,-0.874,0.622,-49.052,15.085,-11.497,
65155250,-0.195,-0.669,0.656,-22.645,15.68,-51.432,
65155250,0.028,-0.592,0.653,-3.762,15.452,-48.685,
65155260,-0.082,-0.443,0.783,1.942,20.072,-16.327,
65155270,0.165,-0.737,0.822,-5.512,28.682,-10.185,
65155280,0.171,-0.544,0.888,14.787,37.467,-33.302,
65155290,0.092,-0.444,0.979,10.307,44.94,-44.642,
65155300,0.039,-0.342,1.143,-8.995,51.992,-33.6,
65155310,0.078,-0.284,1.192,-42.91,56.28,-37.625,
65155320,0.067,-0.366,1.157,-73.272,62.072,-44.432,
65155330,0.11,-0.421,1.147,-99.47,71.47,-44.975,
65155340,0.112,-0.415,1.127,-126.822,80.465,-44.817,
65155350,0.213,-0.48,1.185,-152.985,90.877,-41.125,
65155360,0.353,-0.67,0.983,-173.687,112.455,-34.895,
65155370,0.279,-0.862,1.017,-172.322,131.617,-24.867,
65155380,0.11,-0.953,1.068,-153.475,149.45,-7.91,
65155390,-0.044,-0.899,0.989,-127.61,150.692,-1.487,
65155400,-0.073,-0.563,0.8,-79.677,126.612,-12.075,
65155410,0.651,-0.209,1.24,-20.667,101.097,-50.54,
65155420,0.58,-0.187,0.854,50.942,106.82,-129.08,
65155430,-0.723,-0.182,0.943,77.122,51.047,-193.76,
65155440,0.037,0.101,0.665,115.185,-5.495,-225.382,
65155450,0.755,0.235,0.733,149.677,-9.24,-227.832,
65155460,-0.075,-0.034,0.542,148.015,4.952,-232.925,
65155470,-0.078,0.086,0.52,159.985,4.2,-226.747,
65155480,0.207,0.155,0.514,163.922,14.245,-202.492,
65155490,0.091,0.007,0.594,150.517,22.942,-188.282,
65155500,0.147,-0.177,0.853,135.432,27.352,-177.957,
65155510,0.276,-0.573,0.948,124.057,37.432,-173.635,
65155520,0.18,-0.707,0.936,138.372,53.935,-154.525,
65155530,0.23,-0.74,0.899,144.567,63.787,-129.447,
65155540,0.238,-1.068,0.875,132.737,66.797,-94.29,
65155550,-0.014,-1.509,0.85,145.407,59.255,-67.27,
65155550,0.217,-1.372,0.642,149.205,40.792,-36.487,
65155570,0.45,-1.458,0.457,134.172,33.005,8.977,
65155570,0.544,-1.606,0.292,106.977,29.872,39.48,
65155580,0.682,-1.647,0.197,73.955,23.52,47.897,
65155590,0.718,-1.702,0.03,37.17,14.927,40.932,
65155600,0.618,-1.485,0.092,-2.8,3.762,23.555,
65155610,0.234,-1.55,0.173,-44.17,-10.902,27.265,
65155620,-0.129,-1.371,0.012,-74.655,-45.342,28.28,
65155630,-0.043,-0.947,-0.101,-95.2,-83.545,29.68,
65155640,0.064,-0.312,0.381,-120.085,-93.065,47.547,
65155650,0.566,-0.474,1.981,-98.367,-29.645,60.62,
65155660,-1.235,0.937,0.735,116.287,51.905,69.527,
65155670,1.049,1.911,1.578,201.39,42.77,-3.99,
65155680,-1.192,-1.395,1.339,18.217,55.615,61.092,
65155690,-1.151,-1.875,0.479,80.885,-37.03,10.587,
65155700,0.341,-0.046,0.998,195.195,-53.165,-50.365,
65155710,-0.846,-0.14,1.163,147.717,-48.545,-60.935,
65155720,-0.307,-0.488,1.274,139.597,-82.827,-97.317,
65155730,0.387,-0.389,1.226,142.782,-102.952,-89.652,
65155740,0.866,0.612,1.216,130.9,-95.287,-67.935,
65155750,0.886,0.255,0.986,72.87,-64.697,-30.695,
65155760,0.773,0.139,0.913,30.94,-25.55,-4.707,
65155770,0.595,0.03,0.915,3.29,9.432,6.79,
65155780,0.319,-0.099,0.921,-17.08,33.915,18.077,
65155790,0.137,-0.251,1.037,-18.917,43.82,18.34,
65155800,0.069,-0.445,0.856,-47.25,39.042,-2.222,
65155810,-0.052,-0.222,1.004,-22.102,34.352,-7.595,
65155820,0.055,-0.559,0.891,-20.72,24.517,-5.617,
65155830,0.018,-0.353,0.919,-7.227,16.117,-11.287,
65155840,0.068,-0.377,0.934,2.345,8.015,-6.632,
65155850,0.102,-0.268,0.932,6.685,1.54,-8.75,
65155860,0.167,-0.338,0.951,-0.927,-3.5,-3.482,
65155870,0.139,-0.214,0.933,2.642,-3.622,-11.287,
65155880,0.207,-0.244,0.955,9.572,-2.152,-4.13,
65155890,0.175,-0.241,0.959,5.11,-0.56,-5.005,
65155900,0.175,-0.229,0.955,0.665,0.315,-5.722,
65155910,0.186,-0.264,0.927,-6.072,0.647,-2.87,
65155920,0.176,-0.294,0.925,-4.585,1.557,-0.857,
65155920,0.168,-0.28,0.928,1.242,2.607,-0.07,
65155940,0.17,-0.264,0.934,4.217,3.342,0.945,
65155940,0.145,-0.286,0.94,2.852,3.325,1.645,
65155960,0.11,-0.286,0.936,2.205,2.03,1.452,
65155960,0.103,-0.32,0.939,4.165,-0.682,1.54,
65155980,0.12,-0.294,0.942,7.14,-3.867,0.857,
65155980,0.129,-0.284,0.945,8.557,-6.457,-0.122,
65156000,0.141,-0.266,0.944,8.907,-8.295,-0.997,
65156000,0.164,-0.257,0.937,8.487,-9.187,-1.75,
65156010,0.189,-0.245,0.933,8.522,-8.592,-1.907,
65156020,0.201,-0.234,0.93,8.347,-6.877,-1.522,
65156030,0.205,-0.226,0.932,7,-4.497,-0.647,
65156040,0.176,-0.253,0.937,5.057,-2.502,0.49,
65156050,0.183,-0.259,0.941,4.27,-1.96,0.717,
65156060,0.181,-0.27,0.932,3.64,-1.855,1.242,
65156070,0.138,-0.228,0.913,4.165,-1.715,1.085,
65156080,0.16,-0.143,0.933,3.342,-1.4,0.542,
65156090,0.152,-0.199,0.942,-2.835,-0.805,0.402,
65156100,0.186,-0.155,0.95,-7.84,-0.717,-2.59,
65156110,0.206,-0.231,0.946,-13.912,0.997,-1.925,
65156120,0.183,-0.217,0.957,-16.887,3.552,-0.63,
65156130,0.117,-0.25,0.964,-20.755,4.445,0.385,
65156140,0.131,-0.218,0.987,-24.115,3.202,-0.472,
65156150,0.086,-0.201,0.99,-31.027,1.942,-2.065,
65156160,0.059,-0.184,0.967,-36.715,-2.1,-5.215,
65156170,0.129,-0.241,0.932,-39.13,-7.017,-8.732,
65156180,0.196,-0.417,0.846,-35.892,-8.907,-12.057,
65156190,0.165,-0.511,0.819,-22.47,-8.19,-15.102,
65156200,0.184,-0.504,0.838,-4.007,-7.42,-17.115,
65156210,0.111,-0.387,0.929,10.43,-8.242,-15.61,
65156220,0.082,-0.281,1.011,14.017,-12.985,-15.96,
65156230,0.223,-0.21,1.003,8.505,-18.795,-18.515,
65156240,0.242,-0.241,0.974,0.315,-20.807,-14.14,
65156250,0.13,-0.311,0.981,-4.725,-22.575,-8.435,
65156260,0.132,-0.268,1.004,-6.912,-28,-7.962,
65156260,0.199,-0.28,0.989,-11.2,-34.107,-7.91,
65156280,0.21,-0.261,0.977,-15.207,-37.292,-8.452,
65156280,0.26,-0.247,0.97,-19.267,-38.867,-7.84,
65156300,0.139,-0.316,0.96,-21.35,-33.897,-12.652,
65156300,0.141,-0.412,1.007,-29.207,-26.705,-17.22,
65156320,0.256,-0.264,0.98,-32.462,-29.155,-26.722,
65156320,0.321,-0.331,0.956,-41.877,-25.532,-25.865,
65156330,0.369,-0.309,0.945,-47.932,-17.482,-24.552,
65156340,0.397,-0.276,0.914,-54.775,-5.302,-21.157,
65156350,0.37,-0.305,0.893,-61.652,10.167,-15.137,
65156360,0.324,-0.306,0.86,-63.997,19.88,-11.34,
65156370,0.328,-0.307,0.822,-63.717,23.817,-9.275,
65156380,0.361,-0.333,0.789,-62.125,26.757,-5.757,
65156390,0.364,-0.367,0.781,-58.607,29.75,-0.42,
65156400,0.305,-0.394,0.855,-54.792,31.43,3.622,
65156410,0.226,-0.358,0.925,-53.077,28.455,1.067,
65156420,0.189,-0.325,0.977,-55.142,22.925,3.885,
65156430,0.143,-0.407,0.952,-58.852,17.517,13.02,
65156440,0.097,-0.443,1.036,-61.74,14.28,14.735,
65156450,-0.02,-0.425,1.132,-66.01,8.067,6.475,
65156460,-0.029,-0.45,1.082,-75.162,-0.927,-4.392,
65156470,0.143,-0.505,1.041,-89.46,-1.4,-16.467,
65156480,0.066,-0.604,1.055,-107.17,2.712,-25.252,
65156490,-0.007,-0.782,1.044,-120.05,3.43,-35.297,
65156500,-0.115,-1.13,1.003,-126.735,2.905,-46.025,
65156510,-0.131,-1.155,0.888,-113.627,4.567,-58.887,
65156520,0.318,-1.469,0.656,-92.75,14.472,-58.695,
65156530,0.073,-1.75,0.569,-83.58,40.005,-32.777,
65156540,-0.798,-1.536,0.254,-78.207,50.032,-9.695,
65156550,-0.115,-1.41,0.449,-92.907,55.685,11.025,
65156560,-0.109,-1.497,0.193,-96.53,76.16,63.472,
65156570,-0.049,-1.301,0.153,-97.16,88.427,75.04,
65156580,0.152,-1.111,0.193,-106.102,107.1,70.787,
65156590,0.138,-1.07,0.243,-121.852,130.637,66.237,
65156600,-0.029,-1.009,0.472,-135.537,153.79,54.337,
65156610,-0.101,-0.984,0.617,-138.617,172.235,45.815,
65156620,-0.077,-0.78,0.646,-123.235,185.395,43.33,
65156630,-0.102,-0.398,0.714,-100.03,187.687,36.855,
65156640,-0.115,-0.01,0.717,-77.56,173.722,18.917,
65156650,0.058,0.285,0.695,-57.102,151.777,6.125,
65156660,0.026,0.373,0.749,-40.915,123.637,-5.687,
65156670,-0.167,0.357,0.819,-18.41,72.082,-32.287,
65156670,-0.188,0.469,0.827,16.852,6.667,-60.655,
65156690,-0.016,0.332,0.881,51.187,-53.515,-83.142,
65156690,0.005,0.229,0.792,84.455,-95.62,-104.02,
65156710,0.086,0.083,0.655,86.502,-120.715,-124.005,
65156710,0.094,-0.14,0.387,71.907,-128.905,-123.882,
65156730,0.084,-0.229,-0.006,53.935,-121.957,-113.75,
65156730,0.09,-0.21,-0.219,29.102,-105.752,-93.87,
65156750,0.192,-0.349,-0.349,-13.492,-79.87,-54.197,
65156750,0.416,-0.504,-0.378,-46.165,-44.345,-15.19,
65156760,0.375,-0.71,-0.399,-31.832,-10.395,19.04,
65156770,0.483,-0.474,0.587,-22.592,21.297,17.395,
65156780,1.946,-1.967,0.843,-23.45,296.082,96.565,
65156790,-1.184,-1.546,-0.634,368.165,194.705,36.557,
65156800,-1.924,1.181,0.931,497.28,7.857,-109.76,
65156810,1.523,0.625,1.409,380.695,-76.72,-20.055,
65156820,-0.816,-0.711,1.229,350.455,-45.605,-33.267,
65156830,-1.071,0.048,1.474,329.297,-42.822,-119.42,
65156840,0.22,-0.155,1.828,311.325,-96.145,-142.257,
65156850,0.9,0.784,1.875,257.197,-106.557,-130.707,
65156860,1.171,0.753,1.424,148.522,-80.535,-71.767,
65156870,0.87,0.373,1.143,50.207,-38.972,-28.087,
65156880,0.54,-0.078,1.007,-7.192,-6.317,-3.832,
65156890,0.298,-0.316,0.92,-33.32,10.605,1.085,
65156900,0.204,-0.344,0.929,-37.817,16.187,2.52,
65156910,0.148,-0.324,0.957,-35.227,16.975,4.13,
65156920,0.145,-0.271,0.997,-32.69,14.822,5.477,
65156930,0.087,-0.379,0.963,-33.862,11.917,4.672,
65156940,0.294,-0.185,1.046,-39.217,6.702,9.747,
65156950,0.214,-0.153,1.158,-55.457,6.632,18.795,
65156960,0.157,-0.105,1.315,-78.872,5.285,25.2,
65156970,0.35,-0.094,1.473,-108.08,0.612,28.192,
65156980,-0.013,-0.106,1.382,-142.607,8.347,31.622,
65156990,0.212,-0.36,1.248,-182.735,-7.437,38.92,
65157000,0.315,-0.19,1.157,-204.645,-11.532,40.53,
65157010,0.355,-0.089,1.078,-223.807,0.385,40.267,
65157010,0.137,-0.282,1.086,-243.967,11.34,42.822,
65157030,0.18,-0.501,1.058,-263.305,8.82,27.335,
65157030,0.302,-0.857,0.91,-267.767,3.692,10.815,
65157050,0.261,-1.34,0.478,-236.372,-0.035,8.697,
65157050,-0.094,-1.513,0.616,-162.295,0.595,13.247,
65157070,-0.41,-1.932,0.011,-92.032,-19.722,21.822,
65157070,0.581,-1.965,-0.457,-12.477,-63.77,23.047,
65157080,0.505,-1.25,-0.901,61.372,-71.452,-29.032,
65157090,-0.658,-0.755,-0.478,37.905,-68.477,-58.222,
65157100,-1.14,-0.851,-0.217,-25.06,-68.932,11.34,
65157110,-0.459,-0.896,-0.146,-50.855,-98.017,75.127,
65157120,0.162,-0.415,-0.179,-24.885,-97.3,102.375,
65157130,0.236,0.344,-0.039,3.255,-64.155,96.11,
65157140,0.038,1.182,0.21,11.112,-25.707,69.335,
65157150,-0.07,1.783,0.265,7.315,16.082,41.93,
65157160,-0.386,1.989,0.502,7.752,56.735,23.275,
65157170,1.274,-0.02,1.946,1.137,102.69,31.307,
65157180,1.375,-1.998,-0.771,54.425,167.982,159.6,
65157190,-1.585,-1.717,0.581,384.912,39.515,92.347,
65157200,-0.118,1.901,0.279,560.98,1.505,-87.395,
65157210,-0.884,0.305,1.628,432.127,3.447,-12.845,
65157220,-1.221,-1.497,1.435,370.457,-23.327,-10.272,
65157230,-0.865,1.086,1.998,450.31,-73.377,-150.92,
65157240,0.758,0.867,1.956,302.697,-136.832,-148.732,
65157250,1.891,1.622,1.315,130.865,-115.325,-115.972,
65157260,1.259,0.663,1.149,-14.245,-19.915,-33.127,
65157270,0.3,-0.236,1.018,-81.987,37.082,-8.592,
65157280,0.129,-0.278,0.952,-97.527,49.455,-8.925,
65157290,0.168,-0.831,0.859,-90.632,46.865,-12.04,
65157300,-0.028,-0.518,0.825,-77.91,38.552,-7.577,
65157310,0.097,-0.636,0.823,-55.667,25.777,1.995,
65157320,0.152,-0.327,0.995,-35.595,14.35,11.445,
65157330,0.126,-0.237,1.191,-42.017,10.395,18.48,
65157340,0.045,-0.085,1.377,-71.925,17.29,14.455,
65157350,0.121,-0.079,1.415,-112.297,24.325,7.105,
65157360,0.221,-0.138,1.358,-156.502,32.917,3.272,
65157370,0.283,-0.097,1.236,-193.76,50.067,-2.047,
65157380,0.385,-0.103,1.116,-224.577,68.442,-9.1,
65157390,0.424,-0.227,1.032,-245.7,83.142,-10.062,
65157400,0.384,-0.31,0.912,-253.47,91.56,-3.255,
65157410,0.352,-0.444,0.837,-261.66,95.392,3.832,
65157420,0.519,-0.764,0.872,-259.297,100.765,9.257,
65157420,0.335,-0.977,0.627,-218.312,114.765,16.905,
65157440,-0.177,-1.048,0.37,-166.967,94.587,25.077,
65157440,-0.17,-1.259,0.503,-147.735,73.85,20.177,
65157460,-0.528,-1.617,0.408,-92.925,33.162,18.095,
65157460,0.385,-1.323,0.237,-12.285,-31.675,-24.692,
65157480,0.215,-0.809,0.293,30.222,-86.187,-77.997,
65157480,0.467,-0.578,-0.142,37.222,-85.627,-108.745,
65157500,-0.357,-0.566,0.159,53.077,-56.525,-101.325,
65157500,-0.955,-0.713,-0.106,46.2,-74.55,-94.255,
65157510,-0.385,-0.221,-0.434,68.11,-96.617,-65.677,
65157520,0.16,0.07,-0.411,54.635,-97.825,-26.687,
65157530,0.016,-0.133,-0.381,2.59,-79.8,-0.927,
65157540,-0.227,0.181,-0.261,-14.035,-64.995,-2.607,
65157550,-0.286,0.766,0.137,-11.742,-46.987,-8.697,
65157560,0.852,-0.624,1.963,-17.657,-3.465,-6.58,
65157570,-0.675,-1.998,-0.628,87.027,33.792,52.465,
65157580,1.022,-1.718,-0.223,372.155,-31.622,18.83,
65157590,0.224,0.513,0.791,421.89,-0.665,6.702,
65157600,-0.383,1.203,1.132,380.852,4.987,-47.915,
65157610,-0.247,-0.438,1.394,336.367,28.892,-23.415,
65157620,-1.072,-0.793,1.831,308.63,27.86,-72.187,
65157630,0.085,0.701,1.998,306.075,-44.502,-117.232,
65157640,1.11,1.327,1.796,189.175,-74.952,-85.575,
65157650,1.203,0.742,1.26,52.955,-49.91,-43.837,
65157660,0.62,0.101,1.07,-30.87,-7.7,-5.197,
65157670,0.221,-0.478,0.864,-66.377,12.162,6.265,
65157680,0.183,-0.446,0.867,-62.247,16.555,-0.542,
65157690,0.25,-0.406,0.883,-51.887,17.29,-0.892,
65157700,0.064,-0.47,0.868,-41.842,15.592,7.42,
65157710,0.039,-0.442,0.912,-27.037,8.732,6.755,
65157720,0.138,-0.387,0.943,-20.002,0.612,4.76,
65157730,0.255,-0.273,1.016,-21.875,-4.532,7.7,
65157740,0.257,-0.208,1.12,-30.415,-6.44,16.1,
65157750,0.22,-0.213,1.191,-46.62,-9.485,25.585,
65157760,0.22,-0.19,1.252,-68.022,-11.392,31.342,
65157760,0.243,-0.249,1.163,-93.135,-10.202,34.335,
65157780,0.242,-0.341,1.112,-108.745,-9.17,36.575,
65157780,0.314,-0.354,1.001,-122.71,-3.99,32.9,
65157800,0.288,-0.275,1.006,-127.4,9.835,33.547,
65157800,0.229,-0.379,0.904,-139.177,20.545,28.63,
65157820,0.323,-0.418,0.832,-142.555,24.92,19.25,
65157820,0.342,-0.545,0.779,-143.045,27.667,14.962,
65157830,0.312,-0.975,0.518,-134.172,26.845,24.22,
65157840,0.537,-1.311,0.644,-102.935,28.822,34.842,
65157850,-0.244,-1.563,0.48,-47.565,13.282,43.382,
65157860,-0.078,-1.873,-0.664,15.312,-38.885,33.705,
65157870,1.833,-1.977,-0.382,53.357,-67.2,21.105,
65157880,0.687,-1.416,-1.087,53.27,-36.82,7.84,
65157890,-0.507,-0.724,-0.595,18.707,-40.057,-10.85,
65157900,-0.017,-0.803,-0.6,-61.11,-53.672,24.657,
65157910,0.029,-0.586,-0.276,-77.84,-52.237,66.745,
65157920,0.752,0.682,1.748,-49.805,-14.49,32.007,
65157930,-0.833,1.769,1.998,77.49,50.085,-0.28,
65157940,-1.907,1.992,1.152,284.9,32.567,-47.407,
65157950,-0.571,-1.167,0.943,180.932,-3.342,126.297,
65157960,0.3,-1.941,0.345,197.872,-31.185,75.39,
65157970,-1.176,1.642,1.26,366.747,-5.215,-154.752,
65157980,-0.222,-0.681,1.807,272.107,-23.782,-126.787,
65157990,0.882,0.322,1.917,249.2,-68.11,-107.187,
65158000,0.909,1.334,1.604,165.34,-75.985,-77.017,
65158010,0.728,0.461,1.274,39.55,-56.542,-6.352,
65158020,0.514,0.081,1.135,-23.17,-40.372,15.085,
65158030,0.713,-0.199,0.969,-59.867,-29.102,22.54,
65158040,0.715,-0.008,1.155,-87.57,-2.87,22.662,
65158050,0.132,-0.096,1.577,-135.38,36.487,32.06,
65158060,-0.046,-0.016,1.58,-176.015,14.472,35.735,
65158070,-0.046,-0.178,1.301,-203.63,-17.43,41.807,
65158080,-0.106,-0.328,1.132,-229.425,-8.715,26.635,
65158090,0.079,-0.333,0.969,-253.68,9.502,-9.292,
65158100,0.177,-0.301,0.902,-267.452,24.465,-33.792,
65158110,0.241,-0.327,0.803,-277.357,35.857,-49.77,
65158120,0.386,-0.539,0.685,-275.852,39.147,-62.23,
65158130,0.605,-0.878,0.537,-259.857,63.262,-67.287,
65158140,0.526,-1.045,0.497,-206.412,100.975,-54.022,
65158150,0.502,-0.953,0.54,-165.917,131.005,-53.742,
65158160,0.295,-1.003,0.404,-126.28,157.465,-49.77,
65158170,0.397,-1.043,0.465,-87.78,174.737,-49.28,
65158170,-0.235,-0.307,0.344,-47.197,186.445,-54.565,
65158190,0.411,0.024,0.564,-18.637,176.435,-100.537,
65158190,1.458,-0.188,0.806,-31.132,182.822,-138.53,
65158200,0.207,-0.656,0.68,-22.26,191.152,-176.697,
65158210,-0.338,-0.62,0.781,-15.54,161.472,-212.222,
65158220,-0.327,-0.53,0.718,-0.402,133.42,-191.152,
65158230,-0.262,-0.52,0.759,9.257,104.02,-154.245,
65158240,-0.278,-0.489,0.765,8.032,83.44,-111.23,
65158250,-0.269,-0.486,0.777,7.542,70.175,-51.152,
65158260,-0.154,-0.558,0.806,9.537,55.107,-12.285,
65158270,-0.022,-0.604,0.813,10.5,41.055,9.555,
65158280,0.075,-0.575,0.809,13.947,31.885,13.807,
65158290,-0.04,-0.527,0.834,19.74,24.097,24.605,
65158300,-0.12,-0.525,0.838,18.06,12.075,47.512,
65158310,-0.114,-0.61,0.825,16.572,-6.667,62.65,
65158320,-0.103,-0.624,0.808,20.212,-25.567,72.852,
65158330,-0.083,-0.559,0.765,27.247,-39.112,90.107,
65158340,-0.028,-0.551,0.774,29.627,-45.99,109.55,
65158350,0.001,-0.569,0.774,22.557,-49.437,120.487,
65158360,0.041,-0.696,0.744,15.785,-49.49,125.195,
65158370,-0.045,-0.673,0.774,16.625,-47.442,128.73,
65158380,-0.067,-0.774,0.694,13.755,-48.37,124.635,
65158390,-0.155,-0.795,0.658,16.082,-52.36,113.89,
