#Format version: 1.0
time[ms],accX[g],accY[g],accZ[g],Value 1,Value 2,Value 3,
51377640,-0.933,0.478,0.318,6.002,-24.675,35.175,
51377650,-0.93,0.425,0.308,2.152,-29.925,44.45,
51377660,-0.943,0.378,0.374,6.702,-36.417,51.922,
51377670,-0.992,0.415,0.399,13.492,-49.262,57.172,
51377680,-0.796,0.48,0.39,19.88,-64.925,59.902,
51377690,-0.759,0.447,0.401,21.472,-70.525,60.707,
51377700,-0.92,0.453,0.374,16.817,-73.465,56.175,
51377710,-0.867,0.486,0.362,19.145,-80.535,52.395,
51377720,-0.682,0.513,0.371,25.147,-80.08,49,
51377730,-0.658,0.539,0.38,21.28,-70.472,38.15,
51377740,-0.701,0.568,0.349,10.15,-60.077,23.59,
51377750,-0.685,0.577,0.334,2.607,-54.285,16.66,
51377760,-0.778,0.545,0.319,-7.805,-54.145,16.31,
51377770,-0.944,0.548,0.328,-16.817,-61.407,18.585,
51377780,-0.98,0.568,0.331,-19.197,-76.44,20.912,
51377790,-0.786,0.546,0.314,-16.992,-88.602,24.132,
51377800,-0.595,0.517,0.31,-12.95,-83.772,26.81,
51377810,-0.569,0.502,0.338,-9.607,-65.345,25.602,
51377820,-0.65,0.513,0.394,-4.69,-46.147,23.8,
51377830,-0.722,0.556,0.454,0.577,-36.505,25.27,
51377830,-0.811,0.592,0.517,1.907,-36.855,29.207,
51377850,-0.87,0.612,0.539,-2.782,-44.975,29.995,
51377850,-0.858,0.578,0.544,-6.965,-61.145,28.857,
51377870,-0.883,0.557,0.535,-11.007,-84.052,30.66,
51377870,-0.833,0.536,0.546,-11.707,-110.127,33.67,
51377890,-0.823,0.513,0.533,-14.455,-136.99,36.33,
51377890,-0.727,0.551,0.527,-15.295,-152.215,38.22,
51377910,-0.632,0.565,0.509,-16.975,-153.317,33.53,
51377910,-0.59,0.528,0.481,-23.782,-146.947,27.842,
51377920,-0.497,0.563,0.524,-23.625,-131.162,24.745,
51377930,-0.504,0.614,0.628,-27.037,-106.732,14.822,
51377940,-0.658,0.569,0.673,-41.352,-91.735,0.717,
51377950,-0.855,0.525,0.723,-50.61,-104.527,-3.465,
51377960,-1.034,0.552,0.726,-56.035,-143.692,1.33,
51377970,-1.039,0.525,0.627,-63.63,-201.005,7.577,
51377980,-0.778,0.503,0.505,-64.767,-251.597,13.492,
51377990,-0.476,0.494,0.423,-62.737,-272.86,17.08,
51378000,-0.183,0.467,0.394,-58.992,-258.842,15.487,
51378010,-0.007,0.494,0.454,-50.872,-219.765,11.41,
51378020,0.015,0.502,0.549,-45.517,-172.882,7.77,
51378030,-0.008,0.455,0.661,-38.22,-129.115,6.895,
51378040,-0.124,0.492,0.83,-25.48,-90.895,8.435,
51378050,-0.385,0.567,0.927,-20.912,-71.732,8.207,
51378060,-0.479,0.57,0.879,-21.42,-73.937,7.56,
51378070,-0.349,0.552,0.836,-15.522,-81.742,8.662,
51378080,-0.239,0.528,0.809,-10.657,-83.737,9.607,
51378090,-0.178,0.506,0.767,-10.535,-79.87,8.592,
51378100,-0.144,0.467,0.75,-8.872,-69.02,6.86,
51378110,-0.119,0.454,0.733,-5.355,-55.335,5.32,
51378120,-0.174,0.482,0.742,-2.695,-39.025,6.002,
51378130,-0.245,0.475,0.749,-5.355,-26.092,4.322,
51378140,-0.244,0.434,0.755,-6.282,-19.88,1.995,
51378150,-0.374,0.408,0.82,-4.2,-23.782,4.602,
51378160,-0.237,0.483,0.731,-2.52,-41.055,10.027,
51378170,-0.092,0.47,0.759,3.395,-28.122,15.855,
51378180,-0.283,0.475,0.818,0.962,-15.592,7.63,
51378190,-0.319,0.463,0.822,-3.412,-18.602,9.677,
51378200,-0.215,0.488,0.881,4.077,-26.057,15.295,
51378210,-0.134,0.461,0.883,3.185,-27.825,17.097,
51378220,-0.053,0.474,0.89,0.875,-19.162,8.26,
51378230,-0.082,0.442,0.857,0.175,-8.067,3.465,
51378240,-0.088,0.443,0.815,2.012,2.537,3.115,
51378250,-0.217,0.479,0.834,5.162,11.007,3.71,
51378260,-0.334,0.55,0.836,4.69,13.002,3.727,
51378260,-0.468,0.526,0.929,1.907,4.095,2.782,
51378280,-0.372,0.568,0.76,-0.892,-24.955,5.04,
51378280,-0.212,0.588,0.752,4.322,-22.26,9.555,
51378300,-0.295,0.597,0.81,-3.29,-16.887,-2.782,
51378300,-0.205,0.525,0.792,-13.772,-16.572,-8.995,
51378320,-0.15,0.517,0.86,-10.5,-17.062,-10.045,
51378320,-0.1,0.494,0.879,-13.93,-15.855,-11.847,
51378330,-0.065,0.467,0.903,-17.185,-9.012,-23.485,
51378340,-0.028,0.377,0.881,-14.822,-2.152,-35.595,
51378350,-0.045,0.294,0.817,-8.102,-7.122,-30.607,
51378360,-0.086,0.374,0.816,9.467,-6.265,-7.052,
51378370,-0.115,0.593,0.964,22.575,13.615,3.552,
51378380,-0.252,0.621,0.954,12.617,39.97,-1.82,
51378390,-0.407,0.573,0.886,3.517,53.357,-13.545,
51378400,-0.45,0.538,0.804,-2.485,44.45,-14.717,
51378410,-0.382,0.519,0.716,-3.675,24.587,-17.36,
51378420,-0.311,0.489,0.685,-5.145,6.527,-24.885,
51378430,-0.31,0.446,0.665,-6.947,-13.597,-25.515,
51378440,-0.36,0.478,0.672,-1.837,-30.275,-18.147,
51378450,-0.388,0.58,0.636,2.765,-42.332,-15.295,
51378460,-0.532,0.59,0.754,-4.742,-53.97,-16.835,
51378470,-0.491,0.546,0.757,-13.055,-76.072,-20.895,
51378480,-0.442,0.574,0.799,-12.67,-99.435,-15.505,
51378490,-0.233,0.559,0.795,-16.362,-106.837,-10.465,
51378500,-0.12,0.488,0.79,-20.3,-90.982,-14.805,
51378510,-0.134,0.459,0.805,-21.647,-67.637,-18.725,
51378520,-0.19,0.499,0.842,-18.672,-50.067,-13.195,
51378530,-0.226,0.49,0.855,-20.982,-40.74,-6.842,
51378540,-0.212,0.45,0.849,-26.372,-37.642,-4.987,
51378550,-0.208,0.501,0.87,-23.24,-36.942,-0.647,
51378560,-0.263,0.467,0.848,-26.057,-38.062,3.325,
51378570,-0.239,0.381,0.828,-29.12,-44.222,4.13,
51378580,-0.205,0.353,0.864,-22.592,-54.705,6.737,
51378580,-0.121,0.363,0.913,-13.352,-62.23,10.955,
51378600,-0.038,0.37,0.967,-6.072,-61.932,14.035,
51378600,-0.003,0.416,1.005,2.537,-53.2,13.142,
51378620,-0.027,0.418,0.984,4.095,-44.397,13.23,
51378620,-0.028,0.39,0.946,1.225,-40.18,12.81,
51378640,-0.04,0.387,0.917,1.295,-40.215,7.7,
51378640,-0.026,0.385,0.88,-0.367,-48.002,-0.14,
51378660,0.065,0.388,0.842,-1.785,-53.007,-5.582,
51378660,0.103,0.388,0.849,-0.122,-47.582,-10.517,
51378670,0.121,0.403,0.853,-2.187,-34.317,-16.327,
51378680,0.09,0.392,0.87,-5.215,-15.47,-22.172,
51378690,-0.001,0.403,0.915,-2.187,1.872,-26.302,
51378700,0.007,0.402,0.911,0.07,13.72,-27.002,
51378710,0.092,0.389,0.89,2.572,27.93,-26.477,
51378720,0.161,0.378,0.904,8.19,54.81,-27.142,
51378730,0.147,0.408,0.947,15.032,91.577,-31.955,
51378740,-0.004,0.409,0.94,16.187,121.8,-38.43,
51378750,-0.107,0.404,0.897,15.417,134.347,-43.015,
51378760,-0.186,0.416,0.892,17.867,134.242,-42.262,
51378770,-0.252,0.418,0.883,19.11,125.667,-39.672,
51378780,-0.279,0.428,0.872,20.177,113.907,-39.567,
51378790,-0.258,0.466,0.875,19.687,101.01,-41.667,
51378800,-0.251,0.46,0.853,16.467,92.365,-41.212,
51378810,-0.303,0.414,0.921,15.47,87.412,-38.692,
51378820,-0.392,0.376,0.905,10.097,74.112,-41.842,
51378830,-0.307,0.355,0.792,6.457,51.152,-46.462,
51378840,-0.276,0.364,0.804,10.185,41.825,-44.905,
51378850,-0.27,0.389,0.828,13.93,41.632,-47.32,
51378860,-0.257,0.402,0.836,18.112,48.65,-53.34,
51378870,-0.32,0.413,0.845,20.667,60.427,-57.557,
51378880,-0.407,0.416,0.858,22.627,70.28,-60.497,
51378890,-0.457,0.405,0.843,28.245,73.132,-60.287,
51378900,-0.474,0.412,0.814,34.982,71.19,-56.857,
51378910,-0.487,0.393,0.783,45.202,66.832,-49.035,
51378920,-0.486,0.421,0.768,55.352,64.102,-43.12,
51378930,-0.502,0.462,0.744,63.332,63.017,-39.427,
51378940,-0.527,0.473,0.715,69.65,61.687,-39.847,
51378950,-0.52,0.498,0.678,75.18,59.307,-42.49,
51378960,-0.518,0.518,0.689,80.587,56.455,-42.805,
51378970,-0.458,0.59,0.656,76.615,54.145,-49.507,
51378980,-0.49,0.57,0.66,75.197,53.445,-54.635,
51378990,-0.509,0.596,0.658,71.575,52.78,-59.132,
51379000,-0.523,0.606,0.64,64.662,50.89,-65.66,
51379010,-0.537,0.628,0.647,58.73,48.72,-72.73,
51379010,-0.558,0.644,0.638,48.93,45.237,-80.132,
51379030,-0.557,0.652,0.629,38.255,42.14,-88.025,
51379030,-0.566,0.623,0.613,28.367,40.53,-94.447,
51379050,-0.596,0.612,0.595,18.252,38.832,-100.362,
51379050,-0.636,0.607,0.576,5.092,35.507,-104.947,
51379070,-0.638,0.595,0.572,-6.65,33.057,-110.25,
51379070,-0.7,0.546,0.562,-15.96,30.747,-107.765,
51379080,-0.692,0.538,0.543,-27.352,26.46,-112.42,
51379090,-0.7,0.509,0.529,-35.735,19.652,-113.89,
51379100,-0.727,0.476,0.535,-42.07,11.76,-108.815,
51379110,-0.755,0.452,0.55,-47.477,1.382,-101.027,
51379120,-0.777,0.433,0.576,-52.727,-8.837,-93.537,
51379130,-0.783,0.422,0.593,-59.185,-17.57,-88.182,
51379140,-0.785,0.395,0.591,-67.27,-26.355,-83.107,
51379150,-0.807,0.352,0.588,-75.565,-35.84,-78.505,
51379160,-0.801,0.31,0.602,-80.885,-44.03,-74.952,
51379170,-0.797,0.284,0.614,-81.602,-52.08,-71.05,
51379180,-0.78,0.277,0.626,-80.062,-59.5,-67.987,
51379190,-0.764,0.271,0.641,-78.312,-66.272,-65.8,
51379200,-0.721,0.267,0.659,-76.597,-70.542,-64.575,
51379210,-0.669,0.258,0.661,-75.46,-72.292,-62.247,
51379220,-0.624,0.257,0.669,-74.567,-68.582,-59.255,
51379230,-0.605,0.258,0.673,-75.897,-61.635,-56.262,
51379240,-0.597,0.245,0.671,-77.315,-54.04,-54.267,
51379250,-0.619,0.228,0.671,-77.84,-48.79,-51.38,
51379260,-0.641,0.208,0.678,-77.822,-45.85,-46.48,
51379270,-0.638,0.19,0.69,-76.247,-45.01,-40.705,
51379280,-0.639,0.174,0.713,-74.147,-44.485,-35.14,
51379290,-0.645,0.185,0.727,-74.13,-43.89,-32.095,
51379300,-0.662,0.17,0.739,-74.147,-45.062,-29.872,
51379310,-0.655,0.16,0.778,-74.007,-48.09,-28.21,
51379320,-0.635,0.142,0.766,-77.105,-52.535,-27.072,
51379330,-0.598,0.122,0.771,-75.775,-55.177,-23.782,
51379330,-0.588,0.119,0.761,-77.367,-55.825,-16.642,
51379350,-0.581,0.102,0.761,-77.7,-55.65,-11.725,
51379350,-0.542,0.093,0.791,-78.085,-55.282,-6.912,
51379370,-0.534,0.035,0.771,-81.217,-60.655,2.257,
51379370,-0.525,-0.044,0.769,-76.125,-70.717,18.515,
51379390,-0.478,-0.108,0.724,-68.302,-80.57,41.37,
51379390,-0.388,-0.157,0.735,-46.9,-83.37,65.502,
51379410,-0.389,-0.169,0.754,-26.18,-72.432,87.412,
51379410,-0.448,-0.153,0.861,-6.965,-52.745,92.872,
51379420,-0.545,-0.107,0.999,-2.012,-34.895,84.647,
51379430,-0.645,-0.173,1.05,-10.412,-29.627,65.835,
51379440,-0.654,-0.246,1.058,-15.487,-34.842,40.215,
51379450,-0.578,-0.268,1.058,-15.33,-47.075,22.19,
51379460,-0.491,-0.239,1.017,-11.042,-60.06,13.09,
51379470,-0.393,-0.199,1.034,1.732,-66.99,3.937,
51379480,-0.297,-0.123,0.995,3.447,-63.245,-4.305,
51379490,-0.185,-0.104,0.978,6.72,-46.935,-14.315,
51379500,-0.161,-0.081,0.951,5.267,-20.107,-19.495,
51379510,-0.188,-0.055,0.955,1.89,8.977,-24.465,
51379520,-0.232,-0.008,0.889,-5.635,35.577,-28.07,
51379530,-0.279,-0.009,0.859,-1.242,57.172,-24.57,
51379540,-0.364,0.018,0.815,0.682,72.327,-15.767,
51379550,-0.45,0.053,0.791,2.082,80.727,-12.337,
51379560,-0.546,0.073,0.787,4.602,84.752,-12.495,
51379570,-0.635,0.085,0.79,5.477,82.53,-13.825,
51379580,-0.692,0.107,0.79,5.162,75.39,-15.697,
51379590,-0.716,0.136,0.793,2.765,64.75,-18.217,
51379600,-0.743,0.15,0.78,-4.76,51.782,-21.087,
51379610,-0.753,0.145,0.762,-15.19,36.855,-25.252,
51379620,-0.735,0.125,0.744,-24.885,22.592,-29.575,
51379630,-0.73,0.081,0.734,-33.11,9.625,-32.585,
51379640,-0.721,0.027,0.718,-39.025,-3.237,-35.77,
51379650,-0.666,-0.016,0.704,-39.847,-15.575,-38.29,
51379660,-0.594,-0.053,0.735,-36.732,-25.147,-38.5,
51379670,-0.538,-0.097,0.785,-34.597,-31.36,-37.152,
51379680,-0.469,-0.16,0.847,-34.877,-33.285,-34.387,
51379690,-0.382,-0.25,0.897,-35.787,-31.692,-28.087,
51379700,-0.258,-0.336,0.921,-33.827,-25.13,-19.127,
51379710,-0.158,-0.41,0.971,-27.685,-9.59,-7.245,
51379720,-0.203,-0.481,1.002,-19.005,10.517,2.397,
51379730,-0.249,-0.497,1.025,-8.942,26.827,4.69,
51379740,-0.246,-0.479,1.027,1.645,38.027,7.945,
51379750,-0.239,-0.466,1.019,16.275,48.037,14.262,
51379760,-0.229,-0.411,1.012,33.022,60.777,19.897,
51379760,-0.249,-0.331,1.004,46.165,76.807,22.767,
51379770,-0.306,-0.231,1.005,52.692,96.477,20.65,
51379780,-0.429,-0.167,0.968,51.17,115.727,15.295,
51379790,-0.591,-0.137,0.917,44.17,127.872,6.895,
51379800,-0.727,-0.097,0.806,32.637,130.882,-2.992,
51379810,-0.865,-0.088,0.711,23.8,123.725,-13.352,
51379820,-0.989,-0.048,0.635,17.045,109.917,-23.625,
51379830,-1.122,-0.03,0.576,14.297,89.722,-30.467,
51379840,-1.186,0.024,0.551,11.707,64.855,-36.382,
51379850,-1.277,-0.041,0.442,8.015,32.27,-41.177,
51379860,-1.241,0,0.446,15.435,2.817,-49.525,
51379870,-1.24,0.031,0.381,5.81,-26.95,-48.702,
51379880,-1.135,0.073,0.313,1.96,-52.447,-53.69,
51379890,-0.974,0.144,0.256,1.802,-70.857,-58.362,
51379900,-0.85,0.191,0.173,1.19,-82.302,-55.317,
51379910,-0.726,0.276,0.174,1.312,-89.775,-47.04,
51379920,-0.684,0.256,0.201,-3.902,-96.477,-29.697,
51379930,-0.623,0.22,0.29,-12.617,-102.13,-17.902,
51379940,-0.574,0.109,0.409,-22.575,-103.547,-8.697,
51379950,-0.542,0.028,0.544,-28.542,-100.975,-2.45,
51379960,-0.514,0.015,0.688,-34.965,-96.39,-4.06,
51379970,-0.51,-0.016,0.807,-42.122,-92.522,-9.275,
51379980,-0.478,-0.067,0.881,-49.997,-88.812,-17.535,
51379990,-0.408,-0.128,0.927,-51.537,-85.067,-25.077,
51380000,-0.338,-0.161,0.963,-46.725,-79.065,-27.422,
51380010,-0.296,-0.19,0.978,-36.977,-70.192,-25.095,
51380020,-0.229,-0.191,0.994,-23.275,-55.23,-20.44,
51380030,-0.185,-0.176,1.002,-11.532,-34.457,-14.315,
51380040,-0.193,-0.173,0.98,-1.68,-9.38,-8.47,
51380050,-0.229,-0.177,0.956,8.75,16.065,-3.377,
51380060,-0.302,-0.168,0.947,20.02,37.572,3.08,
51380070,-0.368,-0.121,0.933,29.33,53.06,8.96,
51380080,-0.473,-0.156,0.924,42.087,61.53,18.112,
51380080,-0.53,-0.121,0.932,50.82,64.225,22.05,
51380100,-0.612,-0.108,0.912,54.075,60.637,21.77,
51380100,-0.643,-0.094,0.875,56.577,53.165,18.235,
51380120,-0.637,-0.083,0.826,60.725,44.1,16.52,
51380120,-0.622,-0.034,0.815,66.535,37.642,16.502,
51380140,-0.639,0.02,0.808,65.66,33.46,16.222,
51380140,-0.648,0.061,0.827,63.315,30.887,16.117,
51380160,-0.679,0.123,0.853,49.157,28.892,23.712,
51380160,-0.693,0.097,0.802,24.395,26.81,25.55,
51380170,-0.628,0.123,0.795,10.85,33.512,13.527,
51380180,-0.628,0.147,0.769,-11.165,47.53,7.63,
51380190,-0.629,0.106,0.741,-32.48,63.472,9.555,
51380200,-0.647,0.036,0.688,-47.39,79.94,13.877,
51380210,-0.687,0.007,0.645,-57.715,94.832,20.562,
51380220,-0.826,-0.076,0.601,-58.187,103.495,27.685,
51380230,-0.829,0.016,0.686,-54.565,105.297,21.63,
51380240,-1.146,-0.252,0.542,-42.297,84.175,49.647,
51380250,-0.993,-0.077,0.677,-19.792,61.32,31.57,
51380260,-0.94,0.025,0.701,-23.17,40.372,23.117,
51380270,-0.931,0.024,0.697,-36.592,23.52,13.79,
51380280,-0.942,-0.042,0.657,-47.215,7.822,2.117,
51380290,-0.934,-0.071,0.669,-50.61,-11.777,-6.842,
51380300,-0.911,-0.082,0.643,-49.21,-36.837,-12.057,
51380310,-0.85,-0.07,0.637,-46.76,-62.615,-12.425,
51380320,-0.771,-0.086,0.657,-39.637,-84.98,-7.332,
51380330,-0.741,-0.133,0.633,-32.48,-104.055,5.197,
51380340,-0.587,-0.139,0.737,-23.73,-112.91,9.432,
51380350,-0.447,-0.21,0.696,-16.432,-109.13,15.26,
51380360,-0.353,-0.142,0.83,8.732,-84.91,21.052,
51380370,-0.364,-0.056,0.93,14.875,-60.882,26.285,
51380380,-0.224,-0.05,0.905,0.857,-26.232,32.147,
51380390,-0.317,-0.09,0.913,-15.33,18.322,40.6,
51380400,-0.544,-0.147,0.834,-17.675,50.855,40.547,
51380410,-0.697,-0.181,0.857,-4.952,55.965,33.46,
51380420,-0.746,-0.108,0.846,-4.987,42.297,40.897,
51380430,-0.683,-0.047,0.832,-7.945,23.957,49.84,
51380440,-0.659,-0.071,0.743,-11.585,12.005,57.802,
51380440,-0.623,-0.056,0.732,-7.525,10.902,57.505,
51380460,-0.651,-0.058,0.712,-7.787,11.76,56.875,
51380460,-0.59,-0.033,0.709,-8.172,16.922,54.495,
51380480,-0.567,-0.034,0.699,-9.31,26.967,57.522,
51380480,-0.619,-0.042,0.674,-8.662,39.672,61.897,
51380500,-0.65,-0.018,0.685,-8.12,52.395,63.77,
51380500,-0.719,-0.009,0.693,-10.587,61.985,65.905,
51380510,-0.801,-0.025,0.692,-10.57,64.592,65.73,
51380520,-0.848,-0.02,0.701,-7.437,61.197,63.595,
51380530,-0.86,-0.017,0.715,-4.41,54.372,66.762,
51380540,-0.892,-0.01,0.737,-4.322,47.372,74.2,
51380550,-0.857,-0.003,0.686,-6.352,41.387,79.152,
51380560,-0.656,0.052,0.659,-7.42,48.055,82.915,
51380570,-0.681,0.027,0.613,-6.037,65.625,89.372,
51380580,-0.815,-0.003,0.562,1.732,82.145,98.735,
51380590,-0.903,0.075,0.623,11.007,91.455,105.175,
51380600,-0.916,0.104,0.63,9.537,90.055,110.967,
51380610,-0.921,0.059,0.59,12.617,84.77,116.777,
51380620,-0.901,0.077,0.601,21.507,79.852,116.497,
51380630,-0.907,0.069,0.528,31.08,73.727,112.542,
51380640,-0.897,0.128,0.585,46.76,67.077,107.117,
51380650,-0.887,0.179,0.554,50.26,56.42,109.707,
51380660,-0.832,0.171,0.518,56.42,48.475,111.37,
51380670,-0.809,0.203,0.516,63.63,46.725,109.375,
51380680,-0.792,0.261,0.53,66.43,47.512,106.032,
51380690,-0.834,0.292,0.531,64.085,45.815,102.83,
51380700,-0.854,0.31,0.526,60.69,38.71,100.94,
51380710,-0.875,0.304,0.518,59.43,27.195,100.485,
51380720,-0.931,0.317,0.529,56.192,9.187,97.02,
51380730,-0.874,0.349,0.546,50.75,-9.975,91.087,
51380740,-0.867,0.379,0.592,50.277,-22.662,80.622,
51380750,-0.9,0.439,0.686,40.985,-36.68,65.975,
51380760,-0.858,0.407,0.621,17.745,-56.35,58.082,
51380770,-0.777,0.354,0.549,7.49,-73.815,59.447,
51380780,-0.775,0.298,0.486,5.285,-85.977,66.937,
51380790,-0.753,0.275,0.501,12.04,-97.02,73.29,
51380800,-0.768,0.213,0.55,25.917,-107.03,76.842,
51380810,-0.709,0.27,0.669,44.87,-113.015,73.552,
51380820,-0.66,0.372,0.791,56.997,-115.342,69.667,
51380830,-0.588,0.409,0.811,56.437,-109.83,58.03,
51380830,-0.482,0.383,0.767,45.36,-95.655,45.255,
51380850,-0.504,0.389,0.795,45.325,-78.522,39.357,
51380850,-0.748,0.445,0.853,43.47,-71.085,38.29,
51380870,-0.245,0.414,0.81,38.255,-73.43,22.382,
51380870,-0.171,0.503,0.861,56.752,-46.62,12.582,
51380890,-0.493,0.555,0.814,45.937,-26.565,10.902,
51380890,-0.377,0.59,0.688,34.072,-18.812,6.877,
51380910,-0.513,0.6,0.734,24.867,-3.22,7.455,
51380910,-0.525,0.693,0.816,3.22,6.912,-7.49,
51380920,-0.383,0.772,0.893,-33.092,21.367,-33.6,
51380930,-0.006,0.765,1.247,-77.787,59.5,-61.145,
51380940,0.397,0.586,1.386,-131.197,152.25,-88.742,
51380950,-0.203,0.431,1.226,-185.955,259.822,-126.84,
51380960,-0.758,0.324,0.925,-245.402,292.337,-176.767,
51380970,-0.244,0.104,0.349,-269.115,292.705,-190.225,
51380980,-0.642,-0.095,-0.102,-233.835,290.762,-146.072,
51380990,-1.898,-0.07,-0.203,-172.725,172.917,-81.515,
51381000,-1.712,0.147,-0.664,-81.217,-10.43,-15.155,
51381010,-0.952,0.308,-0.528,44.975,-118.125,36.12,
51381020,-1.328,0.375,0.056,94.43,-158.567,37.555,
51381030,-1.669,0.763,0.353,71.172,-210.647,-37.537,
51381040,-1.401,0.981,0.183,5.792,-263.62,-98.962,
51381050,-1.039,0.762,0.054,-93.905,-317.905,-127.522,
51381060,0.03,0.551,-0.217,-127.732,-307.002,-144.637,
51381070,0.283,0.393,-0.099,-126.525,-245.07,-121.1,
51381080,0.317,0.247,0.061,-129.762,-151.305,-69.317,
51381090,0.199,0.104,0.387,-114.397,-48.895,-17.255,
51381100,-0.342,0.054,0.643,-107.065,33.495,32.06,
51381110,-0.81,-0.027,0.746,-91.122,59.57,66.255,
51381120,-0.813,-0.176,0.856,-57.347,52.272,95.007,
51381130,-0.897,-0.537,1.278,-19.617,34.02,125.002,
51381140,-0.746,-0.849,1.302,38.727,4.777,118.702,
51381150,-0.415,-0.588,1.234,117.11,-26.6,98.997,
51381160,-0.17,-0.048,1.146,177.065,-39.847,94.605,
51381170,-0.136,0.216,0.997,197.312,-23.327,97.86,
51381170,-0.092,0.221,0.893,203.14,21.367,84.892,
51381190,-0.32,0.142,0.805,208.022,73.727,71.417,
51381190,-0.728,0.296,0.955,222.215,106.26,62.02,
51381210,-0.812,0.711,0.999,209.107,113.295,51.747,
51381210,-1.231,0.859,0.984,155.26,102.69,26.827,
51381230,-1.434,0.722,0.776,78.137,61.95,-9.397,
51381230,-1.287,0.639,0.602,39.27,13.09,-41.79,
51381250,-1.151,0.666,0.486,15.4,-35.367,-54.687,
51381250,-0.772,0.562,0.285,-9.852,-73.185,-54.565,
51381260,-0.543,0.364,0.244,-18.305,-88.27,-37.38,
51381270,-0.768,0.363,0.28,-18.672,-97.335,6.545,
51381280,-0.866,0.477,0.327,-18.007,-103.617,47.792,
51381290,-0.85,0.445,0.416,-20.282,-103.075,62.09,
51381300,-0.852,0.409,0.496,-31.255,-98.875,59.29,
51381310,-0.749,0.191,0.611,-34.86,-98.665,57.47,
51381320,-0.438,0.017,0.73,0.647,-87.237,69.195,
51381330,-0.8,0.085,0.95,49.245,-81.182,91.542,
51381340,-1.159,0.183,1.2,70.787,-114.065,100.432,
51381350,-1.093,0.365,1.513,78.575,-188.265,87.027,
51381360,-1.034,0.143,1.094,31.465,-287.752,65.642,
51381370,-0.563,0.085,0.478,13.037,-355.25,44.03,
51381380,-0.171,0.514,0.398,42.052,-379.382,35.28,
51381390,0.014,0.767,0.435,32.532,-365.085,40.285,
51381400,0.165,0.702,0.485,-3.832,-321.545,36.89,
51381410,0.065,0.607,0.543,-37.38,-268.957,31.85,
51381420,-0.105,0.555,0.574,-68.635,-236.827,24.587,
51381430,0.076,0.454,0.547,-89.967,-213.902,17.937,
51381440,0.182,0.408,0.614,-91.402,-181.037,13.125,
51381450,0.045,0.483,0.579,-90.055,-150.22,7.735,
51381460,-0.203,0.643,0.661,-95.13,-130.55,-1.015,
51381470,-0.301,0.503,0.722,-109.865,-132.492,-0.122,
51381480,0.108,0.319,0.754,-86.677,-135.66,6.825,
51381490,0.226,0.25,0.954,-57.487,-110.372,16.94,
51381500,0.085,0.145,1.082,-43.732,-80.027,25.41,
51381510,0.095,0.131,1.262,-13.405,-55.615,33.6,
51381520,-0.136,0.287,1.519,16.642,-46.392,48.335,
51381530,-0.462,0.132,1.431,0.962,-82.775,51.345,
51381540,0.096,-0.03,1.122,0.91,-126.175,41.772,
51381550,0.359,0.278,1.091,48.947,-125.247,39.865,
51381560,0.282,0.517,1,58.905,-97.965,34.405,
51381570,0.374,0.508,0.914,48.93,-60.2,15.417,
51381580,0.073,0.467,0.867,44.8,-32.725,4.2,
51381580,-0.259,0.307,0.698,35.122,-49.42,7.542,
51381600,-0.056,0.227,0.529,33.792,-102.55,13.912,
51381600,0.358,0.468,0.444,39.06,-124.95,25.795,
51381620,0.677,0.56,0.619,37.712,-74.69,16.537,
51381620,0.286,0.5,0.754,22.155,-5.04,-7.875,
51381640,-0.02,0.432,0.88,7.857,26.232,-21.857,
51381640,0.05,0.522,1.011,9.957,20.947,-23.677,
51381660,0.126,0.51,1.036,6.755,12.162,-23.082,
51381660,0.161,0.36,1.041,0.402,6.912,-27.16,
51381670,0.224,0.353,0.957,1.54,-1.662,-24.867,
51381680,0.366,0.544,1.022,0.91,0.717,-26.74,
51381690,0.386,-0.282,0.823,-25.445,-0.805,-24.57,
51381700,0.367,0.157,0.933,-4.935,0.262,-28.805,
51381710,0.509,0.366,0.993,2.852,20.037,-43.505,
51381720,0.418,0.196,0.882,-17.167,56.595,-53.235,
51381730,0.155,0.273,0.854,-9.992,86.222,-56.577,
51381740,0.099,0.311,0.837,-1.575,98.332,-53.392,
51381750,0.097,0.36,0.81,1.242,107.677,-48.072,
51381760,0.056,0.452,0.785,3.167,122.167,-44.31,
51381770,-0.093,0.545,0.828,0.91,137.707,-43.33,
51381780,-0.172,0.697,0.867,-14.7,142.887,-46.165,
51381790,-0.24,0.738,0.885,-35.945,135.835,-48.965,
51381800,-0.318,0.729,0.86,-63.84,122.745,-52.727,
51381810,-0.315,0.667,0.75,-96.477,103.425,-69.912,
51381820,-0.234,0.548,0.652,-114.8,86.065,-88.567,
51381830,-0.107,0.51,0.655,-115.99,77.315,-99.732,
51381840,-0.087,0.487,0.678,-111.632,79.59,-100.887,
51381850,-0.123,0.479,0.783,-107.485,86.765,-99.4,
51381860,-0.235,0.396,0.859,-107.17,94.85,-95.725,
51381870,-0.273,0.359,0.98,-106.715,100.065,-93.275,
51381880,-0.452,0.381,1.114,-105.472,101.447,-87.902,
51381890,-0.509,0.295,1.121,-109.725,91.332,-84.332,
51381900,-0.417,0.179,1.072,-111.212,83.212,-77.367,
51381910,-0.463,0.073,1.004,-103.722,75.145,-64.295,
51381920,-0.365,0.026,0.952,-88.882,71.067,-51.572,
51381920,-0.334,0.007,0.917,-69.387,74.462,-36.575,
51381940,-0.346,0.006,0.898,-51.94,80.605,-23.432,
51381940,-0.341,0.007,0.901,-38.57,85.837,-13.947,
51381960,-0.357,0.006,0.882,-29.032,88.97,-5.722,
51381960,-0.358,0.017,0.876,-21.77,90.09,0.682,
51381980,-0.394,0.027,0.909,-17.797,88.042,3.657,
51381980,-0.431,0.054,0.912,-18.847,83.335,1.522,
51382000,-0.422,0.063,0.885,-22.68,76.79,-3.815,
51382000,-0.379,0.064,0.848,-25.252,69.51,-8.592,
51382010,-0.413,0.003,0.75,-24.15,60.97,-3.587,
51382020,-0.412,-0.035,0.795,-7.56,49.63,0.157,
51382030,-0.44,0.034,0.886,3.675,38.097,3.465,
51382040,-0.506,0.039,0.906,2.415,25.567,12.67,
51382050,-0.5,0.031,0.941,5.687,17.342,15.96,
51382060,-0.468,0.077,0.949,8.225,20.09,17.57,
51382070,-0.479,0.101,0.916,9.117,27.142,14.402,
51382080,-0.447,0.123,0.874,11.567,34.79,7.717,
51382090,-0.463,0.099,0.837,14.542,37.817,7.087,
51382100,-0.524,0.089,0.833,22.68,36.155,9.52,
51382110,-0.57,0.135,0.865,35.402,29.61,14.735,
51382120,-0.577,0.189,0.878,44.992,23.73,25.812,
51382130,-0.559,0.204,0.867,50.4,20.58,35.752,
51382140,-0.467,0.233,0.825,56.087,26.792,37.187,
51382150,-0.516,0.259,0.848,62.44,33.687,39.515,
51382160,-0.543,0.24,0.824,59.15,38.57,45.657,
51382170,-0.439,0.304,0.829,55.72,51.887,46.847,
51382180,-0.452,0.355,0.828,48.79,75.617,46.917,
51382190,-0.505,0.368,0.797,35.56,95.567,43.54,
51382200,-0.507,0.312,0.751,27.142,111.912,40.495,
51382210,-0.551,0.309,0.724,24.815,125.65,39.952,
51382220,-0.632,0.332,0.719,21.227,133.14,37.362,
51382230,-0.683,0.326,0.722,15.925,128.87,32.935,
51382240,-0.677,0.308,0.705,9.607,119.42,31.972,
51382250,-0.71,0.338,0.759,7.49,111.79,31.92,
51382260,-0.759,0.425,0.704,-7.017,91.647,26.04,
51382270,-0.508,0.356,0.675,-25.725,87.955,20.44,
51382280,-0.502,0.283,0.636,-31.797,104.335,14.962,
51382290,-0.655,0.26,0.634,-35.857,113.68,9.17,
51382300,-0.717,0.263,0.59,-39.27,110.425,11.795,
51382310,-0.786,0.241,0.655,-33.215,101.202,17.552,
51382320,-0.812,0.209,0.61,-30.362,88.742,20.86,
51382330,-0.776,0.24,0.637,-23.73,80.377,14.945,
51382330,-0.764,0.233,0.613,-24.902,73.167,9.275,
51382350,-0.75,0.187,0.597,-20.93,67.812,10.482,
51382350,-0.737,0.182,0.604,-10.78,64.627,20.072,
51382370,-0.752,0.232,0.633,-1.942,66.902,30.135,
51382370,-0.775,0.257,0.65,-1.015,73.027,31.64,
51382390,-0.769,0.251,0.623,-7.84,78.995,25.305,
51382390,-0.801,0.2,0.577,-8.365,79.362,21.157,
51382410,-0.841,0.188,0.564,-0.91,70.945,23.1,
51382410,-0.85,0.194,0.539,5.6,55.877,27.282,
51382420,-0.817,0.226,0.572,17.517,41.685,25.182,
51382430,-0.793,0.276,0.602,24.22,30.992,19.565,
51382440,-0.726,0.354,0.587,18.917,24.465,10.045,
51382450,-0.73,0.325,0.593,8.575,21.805,-0.892,
51382460,-0.781,0.26,0.554,1.347,13.93,-9.992,
51382470,-0.827,0.256,0.587,0.63,-2.152,-14.682,
51382480,-0.798,0.256,0.562,-0.77,-20.79,-17.272,
51382490,-0.779,0.237,0.593,2.502,-34.527,-20.702,
51382500,-0.777,0.249,0.618,3.08,-44.94,-22.172,
51382510,-0.705,0.243,0.595,0.595,-49.262,-20.632,
51382520,-0.578,0.279,0.618,-0.77,-39.812,-23.8,
51382530,-0.615,0.201,0.568,-8.907,-20.615,-18.322,
51382540,-0.671,0.146,0.567,-12.162,-0.577,-15.645,
51382550,-0.767,0.095,0.567,-6.002,12.162,-12.18,
51382560,-0.866,0.141,0.643,4.13,20.877,-7.227,
51382570,-0.969,0.196,0.728,1.907,22.452,-1.05,
51382580,-1.001,0.173,0.667,-3.377,14.262,-7,
51382590,-0.848,0.147,0.629,-6.247,1.872,-10.78,
51382600,-0.751,0.121,0.625,1.242,0.91,3.955,
51382610,-0.82,0.107,0.572,13.125,1.82,19.512,
51382620,-0.767,0.137,0.579,25.672,4.095,19.687,
51382630,-0.712,0.194,0.586,36.452,7.647,18.13,
51382640,-0.717,0.231,0.575,42.945,10.937,23.642,
51382650,-0.749,0.26,0.572,44.905,12.32,29.12,
51382660,-0.798,0.289,0.573,44.87,11.637,32.69,
51382670,-0.834,0.307,0.567,45.85,8.312,36.207,
51382670,-0.831,0.342,0.562,46.532,4.375,37.17,
51382690,-0.827,0.351,0.541,43.96,0.84,36.995,
51382690,-0.782,0.36,0.521,43.137,0.77,36.365,
51382710,-0.751,0.41,0.538,42.77,6.895,35.735,
51382710,-0.747,0.465,0.52,36.347,16.047,34.615,
51382730,-0.74,0.436,0.49,29.592,27.002,33.425,
51382730,-0.826,0.404,0.485,27.177,30.292,36.89,
51382750,-0.842,0.383,0.476,21.297,24.85,46.392,
51382750,-0.771,0.407,0.538,24.902,21.822,54.495,
51382760,-0.832,0.387,0.482,23.467,22.347,60.882,
51382770,-0.85,0.397,0.461,18.795,25.462,60.55,
51382780,-0.795,0.389,0.451,18.06,28.122,56.63,
51382790,-0.743,0.381,0.462,18.357,31.29,54.197,
51382800,-0.81,0.379,0.467,20.422,33.372,51.695,
51382810,-0.727,0.393,0.442,22.925,29.925,48.247,
51382820,-0.756,0.405,0.475,29.05,30.73,48.335,
51382830,-0.821,0.422,0.471,30.642,26.022,46.69,
51382840,-0.811,0.432,0.489,34.387,17.132,43.452,
51382850,-0.796,0.458,0.477,40.827,9.012,40.005,
51382860,-0.772,0.469,0.471,42.315,2.065,36.89,
51382870,-0.783,0.492,0.438,40.512,-5.862,34.457,
51382880,-0.768,0.523,0.411,38.167,-15.82,33.722,
51382890,-0.798,0.497,0.401,31.972,-23.677,33.145,
51382900,-0.783,0.467,0.437,28.035,-31.325,32.27,
51382910,-0.804,0.442,0.41,26.67,-39.41,36.015,
51382920,-0.739,0.502,0.415,27.335,-41.037,41.982,
51382930,-0.693,0.53,0.419,25.725,-30.485,43.347,
51382940,-0.737,0.526,0.406,19.407,-14.717,39.725,
51382950,-0.778,0.537,0.413,19.197,-4.217,35.945,
51382960,-0.721,0.565,0.406,21.91,-1.067,36.312,
51382970,-0.767,0.565,0.408,21.28,-0.315,37.87,
51382980,-0.78,0.592,0.428,21.07,-5.18,36.365,
51382990,-0.789,0.579,0.429,18.655,-18.532,35.875,
51383000,-0.777,0.559,0.398,14.28,-37.642,38.5,
51383010,-0.724,0.549,0.394,15.627,-54.862,43.382,
51383020,-0.764,0.578,0.453,19.267,-61.757,45.92,
51383030,-0.785,0.612,0.475,17.15,-70.997,43.33,
51383040,-0.718,0.613,0.497,9.922,-84.297,44.065,
51383050,-0.717,0.59,0.503,1.225,-93.765,47.075,
51383060,-0.635,0.528,0.495,-3.272,-97.965,43.907,
51383070,-0.558,0.531,0.494,-0.77,-98.227,39.55,
51383080,-0.491,0.568,0.508,3.85,-91.857,37.31,
51383080,-0.521,0.56,0.508,5.127,-80.395,33.845,
51383100,-0.587,0.564,0.533,6.562,-73.832,30.975,
51383100,-0.583,0.604,0.556,10.342,-72.992,30.327,
51383120,-0.522,0.615,0.562,12.582,-67.917,27.02,
51383120,-0.493,0.602,0.55,12.495,-57.417,21.315,
51383140,-0.478,0.621,0.56,12.547,-46.935,15.4,
51383140,-0.479,0.63,0.583,10.482,-37.397,9.66,
51383150,-0.501,0.624,0.595,5.81,-31.115,1.925,
51383160,-0.478,0.635,0.591,1.592,-26.355,-6.282,
51383170,-0.491,0.64,0.599,-3.657,-21.42,-14.875,
51383180,-0.492,0.632,0.578,-11.55,-16.432,-24.692,
51383190,-0.5,0.601,0.557,-17.062,-12.722,-30.782,
51383200,-0.582,0.593,0.568,-20.09,-13.807,-30.012,
51383210,-0.616,0.631,0.599,-22.347,-21.21,-25.147,
51383220,-0.658,0.64,0.59,-26.88,-30.957,-17.692,
51383230,-0.692,0.621,0.564,-33.897,-42.42,-9.87,
51383240,-0.691,0.622,0.547,-37.94,-54.04,-2.747,
51383250,-0.643,0.606,0.524,-41.842,-63.35,1.522,
51383260,-0.587,0.594,0.516,-42.875,-65.87,2.59,
51383270,-0.55,0.577,0.517,-42.227,-63.84,0.07,
51383280,-0.551,0.544,0.527,-41.317,-61.302,-3.097,
51383290,-0.559,0.524,0.546,-37.415,-62.947,-2.642,
51383300,-0.605,0.498,0.613,-30.957,-68.565,1.557,
51383310,-0.657,0.517,0.664,-21.332,-77.035,6.055,
51383320,-0.678,0.55,0.685,-11.882,-87.01,10.325,
51383330,-0.626,0.554,0.678,-4.375,-97.65,13.475,
51383340,-0.505,0.521,0.619,6.632,-103.005,15.697,
51383350,-0.387,0.538,0.592,19.127,-99.767,16.8,
51383360,-0.338,0.557,0.562,24.097,-89.512,16.922,
51383370,-0.321,0.564,0.567,28.157,-72.012,15.837,
51383380,-0.335,0.599,0.605,32.637,-52.85,14.262,
51383390,-0.338,0.631,0.642,31.99,-36.75,12.32,
51383400,-0.363,0.658,0.673,25.987,-23.52,10.745,
51383410,-0.426,0.658,0.685,17.832,-15.977,10.797,
51383420,-0.459,0.628,0.704,12.285,-17.92,13.195,
51383420,-0.422,0.619,0.665,9.695,-23.03,18.357,
51383440,-0.535,0.602,0.682,4.13,-33.46,23.047,
51383440,-0.459,0.561,0.684,0.192,-52.22,24.535,
51383460,-0.458,0.555,0.728,3.482,-69.3,30.975,
51383460,-0.427,0.585,0.731,7.577,-85.05,37.397,
51383480,-0.223,0.592,0.737,14.647,-89.425,38.29,
51383480,-0.188,0.586,0.721,15.12,-79.065,34.44,
51383500,-0.193,0.587,0.695,10.482,-64.435,25.795,
51383500,-0.146,0.588,0.681,9.922,-47.355,18.2,
51383510,-0.229,0.558,0.692,11.305,-29.505,13.895,
51383520,-0.197,0.6,0.707,12.757,-16.607,9.397,
51383530,-0.338,0.647,0.72,12.25,-4.777,8.907,
51383540,-0.346,0.636,0.731,8.382,-0.28,5.04,
51383550,-0.314,0.647,0.757,8.872,0.892,0.017,
51383560,-0.306,0.617,0.727,4.357,0.595,-1.172,
51383570,-0.3,0.608,0.708,5.705,3.15,-2.712,
51383580,-0.239,0.634,0.721,6.492,3.815,-8.75,
51383590,-0.234,0.61,0.697,-0.42,6.107,-9.905,
51383600,-0.328,0.572,0.713,-3.517,8.085,-9.625,
51383610,-0.307,0.626,0.716,-5.39,-0.192,-13.16,
51383620,-0.163,0.578,0.688,-12.6,-5.092,-17.482,
51383630,-0.235,0.571,0.736,-13.037,4.392,-16.1,
51383640,-0.49,0.716,0.742,-20.422,3.587,-19.897,
51383650,-0.281,0.644,0.707,-31.517,-0.315,-32.655,
51383660,-0.142,0.622,0.683,-28.42,14.717,-37.555,
51383670,-0.2,0.661,0.652,-30.8,39.532,-46.13,
51383680,-0.188,0.606,0.592,-38.92,67.375,-56.857,
51383690,-0.235,0.592,0.59,-38.57,96.145,-64.032,
51383700,-0.251,0.575,0.573,-36.505,123.777,-67.567,
51383710,-0.334,0.552,0.577,-34.457,148.942,-71.207,
51383720,-0.457,0.538,0.612,-31.185,168.857,-74.62,
51383730,-0.574,0.514,0.612,-22.82,177.8,-76.282,
51383740,-0.566,0.522,0.611,-12.775,178.885,-76.335,
51383750,-0.55,0.521,0.62,-4.567,180.057,-75.232,
51383760,-0.642,0.506,0.554,-0.28,177.852,-71.155,
51383770,-0.704,0.416,0.557,5.162,170.432,-61.512,
51383780,-0.771,0.454,0.607,17.955,153.422,-49.385,
51383790,-0.825,0.579,0.659,18.952,128.712,-40.407,
51383800,-0.731,0.588,0.629,7.227,110.355,-36.907,
51383810,-0.642,0.554,0.572,-2.205,106.417,-37.747,
51383820,-0.634,0.479,0.473,-11.007,111.965,-44.887,
51383820,-0.635,0.427,0.392,-14.035,120.085,-55.755,
51383830,-0.672,0.391,0.375,-10.99,123.9,-61.005,
51383840,-0.726,0.409,0.394,-5.18,125.615,-61.197,
51383850,-0.765,0.424,0.408,1.575,125.965,-62.772,
51383860,-0.792,0.462,0.427,7.647,126.42,-65.485,
51383870,-0.821,0.51,0.457,11.935,124.582,-66.657,
51383880,-0.877,0.476,0.442,12.267,118.58,-63.35,
51383890,-0.954,0.453,0.402,16.012,107.59,-57.837,
51383900,-0.96,0.471,0.365,22.295,93.52,-52.342,
51383910,-1.027,0.405,0.275,25.165,77.105,-42.49,
51383920,-0.973,0.389,0.272,40.862,61.81,-47.495,
51383930,-0.783,0.466,0.235,49.577,52.5,-58.975,
51383940,-0.719,0.446,0.21,48.492,52.797,-55.545,
51383950,-0.81,0.455,0.274,48.195,58.94,-58.747,
51383960,-0.926,0.512,0.336,41.457,59.85,-71.995,
51383970,-0.941,0.525,0.329,33.617,50.4,-81.9,
51383980,-1.05,0.491,0.348,20.44,31.675,-69.737,
51383990,-1.064,0.451,0.308,3.395,3.535,-58.607,
51384000,-1.055,0.445,0.271,-13.93,-20.737,-67.077,
51384010,-1.094,0.349,0.249,-30.135,-41.842,-71.505,
51384020,-0.724,0.226,0.265,-33.67,-41.755,-73.797,
51384030,-0.55,0.161,0.337,-19.827,-1.54,-63.49,
51384040,-0.547,0.231,0.447,-5.46,49.717,-51.45,
51384050,-0.714,0.272,0.46,-0.525,92.645,-33.897,
51384060,-0.83,0.324,0.461,1.837,115.08,-17.15,
51384070,-0.944,0.342,0.444,-1.662,128.205,-3.955,
51384080,-1.035,0.34,0.394,-10.99,135.502,2.17,
51384090,-1.011,0.354,0.326,-17.167,138.425,1.242,
51384100,-0.999,0.296,0.211,-23.992,140.245,-2.87,
51384110,-1.084,0.195,0.098,-27.282,135.012,-9.73,
51384120,-0.968,0.187,0.021,-19.32,114.222,-17.587,
51384130,-0.851,0.244,0.008,-8.907,93.8,-14.175,
51384140,-0.808,0.327,-0.022,-5.11,77.017,-10.08,
51384150,-0.951,0.359,-0.008,-12.967,67.795,-8.015,
51384160,-1.177,0.355,-0.009,-23.432,47.005,-12.18,
51384170,-1.115,0.309,0,-27.772,16.747,-17.937,
51384170,-0.937,0.305,0.09,-28.087,-3.412,-14.647,
51384190,-0.908,0.32,0.146,-30.38,-7.245,-2.835,
51384190,-0.969,0.31,0.201,-31.885,0.63,6.632,
51384210,-1.007,0.344,0.345,-34.667,17.185,13.667,
51384210,-1.353,0.445,0.257,-53.375,21.595,10.92,
51384230,-0.876,0.338,-0.157,-90.79,-14.227,-10.745,
51384230,-0.284,0.108,-0.325,-89.81,18.865,-1.05,
51384250,-0.896,0.137,-0.025,-59.5,81.777,27.09,
51384250,-1.646,0.254,0.263,-39.777,78.172,30.1,
51384260,-1.484,0.273,0.402,-6.16,7.945,8.855,
51384270,-0.866,0.244,0.359,20.405,-60.83,-6.3,
51384280,-0.645,0.185,0.287,19.407,-87.885,-5.915,
51384290,-0.923,0.233,0.271,27.282,-87.657,-0.402,
51384300,-1.16,0.283,0.194,31.937,-94.132,1.61,
51384310,-1.124,0.27,0.105,32.427,-111.825,-5.075,
51384320,-1.064,0.252,0.005,37.362,-125.387,-3.64,
51384330,-1.067,0.253,-0.041,43.347,-130.235,4.707,
51384340,-1.055,0.294,-0.029,46.847,-127.277,10.552,
51384350,-0.91,0.371,0.045,49.822,-115.972,9.852,
51384360,-0.788,0.479,0.205,48.667,-92.417,13.352,
51384370,-0.782,0.487,0.32,28.35,-63.07,29.697,
51384380,-0.772,0.399,0.382,8.61,-36.697,39.375,
51384390,-0.755,0.335,0.441,-3.465,-13.317,26.442,
51384400,-0.665,0.331,0.441,-13.527,13.282,6.702,
51384410,-0.74,0.301,0.4,-17.062,43.032,-1.855,
51384420,-0.796,0.266,0.319,-17.885,60.9,-13.107,
51384430,-0.744,0.256,0.237,-13.597,67.532,-21.245,
51384440,-0.883,0.281,0.156,-11.62,73.15,-12.757,
51384450,-0.993,0.358,0.123,-12.845,76.335,1.155,
51384460,-1.035,0.269,0.036,-22.085,72.362,13.387,
51384470,-1.009,0.337,0.102,-19.46,64.085,9.03,
51384480,-1.03,0.362,0.146,-24.797,49.787,11.76,
51384490,-0.962,0.362,0.183,-30.152,30.327,11.55,
51384500,-0.844,0.35,0.206,-29.645,17.482,14.437,
51384510,-0.863,0.385,0.24,-31.36,17.465,16.992,
51384510,-0.916,0.337,0.169,-38.885,19.915,14.245,
51384530,-1.038,0.256,0.121,-34.667,24.71,13.09,
51384530,-1.167,0.327,0.09,-23.082,21.052,12.932,
51384550,-1.09,0.345,-0.018,-13.807,6.667,10.5,
51384550,-0.938,0.308,-0.017,-5.53,-2.502,7.665,
51384570,-0.932,0.328,0.067,3.185,-1.207,9.782,
51384570,-1.003,0.314,0.163,7.91,-4.287,10.08,
51384580,-1.29,0.271,0.598,16.87,-35.472,9.397,
51384590,-1.145,0.658,0.356,31.937,-53.095,36.365,
51384600,-0.975,0.553,0.16,8.942,-25.532,40.547,
51384610,-0.552,0.285,0.132,-26.67,-11.025,10.797,
51384620,-0.591,0.14,-0.04,-22.505,-1.312,25.182,
51384630,-0.865,0.301,0.094,-10.465,20.632,28.175,
51384640,-1.141,0.349,0.265,-11.34,24.902,12.6,
51384650,-1.177,0.256,0.284,-16.835,0.192,-2.117,
51384660,-1.061,0.238,0.281,-9.747,-35.49,0.56,
51384670,-0.947,0.298,0.28,-8.19,-61.442,1.872,
51384680,-1.041,0.293,0.278,-13.02,-75.39,-10.15,
51384690,-1.211,0.245,0.297,-15.242,-94.832,-26.81,
51384700,-1.253,0.231,0.274,-12.67,-128.537,-35.402,
51384710,-1.003,0.272,0.172,2.012,-162.347,-31.15,
51384720,-0.547,0.345,0.106,13.65,-158.952,-19.407,
51384730,-0.34,0.39,0.118,15.505,-108.15,-14.717,
51384740,-0.658,0.415,0.157,10.097,-44.642,-24.587,
51384750,-0.974,0.372,0.214,-0.385,-8.33,-38.657,
51384760,-1.153,0.326,0.263,-6.387,0.787,-35.507,
51384770,-1.212,0.328,0.275,-6.807,-9.555,-19.582,
51384780,-1.073,0.305,0.26,-3.85,-23.94,-5.355,
51384790,-0.824,0.291,0.306,2.45,-31.727,-1.12,
51384800,-0.686,0.329,0.303,6.387,-26.792,-1.785,
51384810,-0.722,0.33,0.282,7.21,-8.067,-3.762,
51384820,-0.678,0.299,0.306,3.797,4.935,-15.225,
51384830,-0.626,0.29,0.283,3.01,21.612,-24.43,
51384840,-0.702,0.311,0.261,2.677,40.967,-26.95,
51384850,-0.788,0.308,0.249,-1.627,58.222,-26.477,
51384860,-0.863,0.309,0.221,-4.935,73.937,-26.512,
51384870,-0.972,0.306,0.263,-7.647,83.58,-24.622,
51384880,-1.05,0.398,0.307,-16.537,74.497,-12.127,
51384890,-1.102,0.122,0.229,-10.22,58.66,16.975,
51384900,-0.815,0.309,0.299,6.527,55.65,11.147,
51384910,-0.718,0.36,0.252,-6.072,72.625,10.99,
51384920,-0.775,0.314,0.222,-13.107,98.752,6.125,
51384920,-0.922,0.252,0.175,-17.29,109.217,1.697,
51384940,-1.08,0.153,0.093,-18.252,101.325,2.52,
51384940,-0.967,0.199,0.191,-8.627,73.902,-6.562,
51384960,-0.98,0.256,0.231,4.515,59.535,-3.937,
51384960,-1.227,0.288,0.262,12.32,53.847,-1.452,
51384980,-1.183,0.318,0.249,9.222,40.022,-15.54,
51384980,-1.023,0.252,0.233,10.01,29.26,-22.767,
51385000,-1.031,0.217,0.238,21.035,20.037,-21.665,
51385000,-1.105,0.258,0.238,31.867,5.267,-16.642,
51385010,-1.111,0.26,0.239,36.802,-15.61,-15.662,
51385020,-1.158,0.254,0.225,37.922,-34.247,-13.772,
51385030,-1.15,0.16,0.172,34.072,-61.092,-13.23,
51385040,-0.856,0.143,0.171,38.937,-72.957,-11.497,
51385050,-1.014,0.226,0.224,56.315,-72.73,-0.49,
51385060,-1.187,0.317,0.262,55.685,-83.807,0.542,
51385070,-1.189,0.292,0.194,43.067,-109.882,-11.83,
51385080,-1.115,0.254,0.151,40.792,-140.857,-26.792,
51385090,-1.02,0.268,0.133,39.672,-170.712,-28.717,
51385100,-0.847,0.361,0.108,31.797,-190.575,-29.365,
51385110,-0.731,0.363,0.085,20.597,-189.595,-34.877,
51385120,-0.74,0.318,0.077,11.62,-166.337,-36.977,
51385130,-0.761,0.316,0.073,2.467,-131.285,-38.867,
51385140,-0.845,0.321,0.137,-0.875,-93.59,-33.67,
51385150,-0.926,0.352,0.167,-13.895,-64.4,-20.825,
51385160,-0.95,0.329,0.209,-21.192,-48.055,-6.65,
51385170,-0.956,0.306,0.248,-23.345,-39.252,9.31,
51385180,-0.959,0.304,0.291,-22.452,-35.717,18.812,
51385190,-0.958,0.314,0.344,-17.797,-36.732,21.612,
51385200,-0.959,0.325,0.367,-16.555,-41.72,20.16,
51385210,-0.994,0.298,0.398,-15.505,-50.715,16.047,
51385220,-1.012,0.279,0.415,-15.697,-61.897,8.277,
51385230,-0.99,0.275,0.418,-16.31,-75.302,6.632,
51385240,-0.938,0.243,0.416,-15.085,-86.485,9.555,
51385250,-0.877,0.21,0.44,-10.097,-88.987,12.355,
51385260,-0.846,0.214,0.472,-5.95,-83.265,13.58,
51385260,-0.824,0.201,0.498,-3.5,-72.957,16.94,
51385280,-0.787,0.184,0.537,-2.362,-58.87,21.84,
51385280,-0.763,0.223,0.606,-0.262,-43.347,29.662,
51385300,-0.799,0.219,0.679,-1.837,-24.482,39.532,
51385300,-0.818,0.172,0.724,-8.26,-10.115,43.715,
51385320,-0.775,0.135,0.753,-10.15,-1.155,43.82,
51385320,-0.764,0.111,0.756,-5.547,7.525,45.027,
51385330,-0.807,0.078,0.707,2.52,14.017,44.1,
51385340,-0.834,0.075,0.642,16.887,16.345,39.882,
51385350,-0.801,0.13,0.612,36.977,14.542,38.535,
51385360,-0.786,0.183,0.556,55.807,11.025,42.647,
51385370,-0.814,0.26,0.523,70.122,5.985,44.87,
51385380,-0.886,0.318,0.504,76.825,-0.21,42.875,
51385390,-0.924,0.369,0.471,77.49,-10.622,36.435,
51385400,-0.914,0.39,0.447,74.112,-21.332,31.185,
51385410,-0.942,0.418,0.412,67.357,-32.41,28.07,
51385420,-0.946,0.403,0.384,62.23,-46.725,27.475,
51385430,-0.947,0.379,0.358,58.747,-61.39,30.852,
51385440,-0.986,0.395,0.338,54.617,-73.587,34.79,
51385450,-1.04,0.42,0.344,53.287,-86.135,38.587,
51385460,-1.053,0.444,0.366,51.275,-102.707,40.04,
51385470,-1.023,0.442,0.376,49.77,-122.22,40.792,
51385480,-0.931,0.513,0.392,47.162,-138.67,41.772,
51385490,-0.888,0.529,0.459,47.495,-149.537,44.922,
51385500,-0.881,0.536,0.449,34.807,-156.887,51.992,
51385510,-0.805,0.571,0.452,22.925,-164.045,47.652,
51385520,-0.782,0.573,0.455,14.087,-167.072,43.82,
51385530,-0.771,0.561,0.46,5.95,-170.747,42.787,
51385540,-0.766,0.561,0.476,0.752,-178.237,44.152,
51385550,-0.81,0.551,0.482,0.472,-190.225,50.067,
51385560,-0.774,0.562,0.482,1.172,-204.522,56.035,
51385570,-0.717,0.596,0.505,0.385,-217.087,59.675,
51385580,-0.653,0.618,0.527,-3.447,-224.98,61.32,
51385590,-0.568,0.607,0.552,-6.772,-225.89,62.58,
51385600,-0.475,0.613,0.583,-12.722,-220.097,60.865,
51385610,-0.393,0.622,0.617,-21.35,-208.967,56.49,
51385620,-0.34,0.593,0.667,-27.037,-195.947,52.78,
51385630,-0.324,0.576,0.704,-31.325,-185.535,50.592,
51385640,-0.312,0.539,0.732,-35.105,-182.682,51.52,
51385650,-0.291,0.478,0.733,-34.825,-185.202,57.067,
51385660,-0.284,0.434,0.735,-30.012,-191.222,66.272,
51385670,-0.233,0.418,0.73,-22.767,-197.557,73.272,
51385670,-0.116,0.398,0.741,-12.722,-200.865,77.035,
51385690,-0.04,0.383,0.746,-2.555,-195.632,79.922,
51385690,0.008,0.409,0.795,5.932,-185.097,80.36,
51385710,0.065,0.381,0.856,12.11,-171.71,78.75,
51385710,0.017,0.288,0.941,19.407,-166.145,76.247,
51385730,0.069,0.137,1.148,36.575,-173.635,78.12,
51385730,0.17,0.148,1.208,61.18,-187.022,80.972,
51385750,0.048,0.354,1.201,52.972,-240.905,67.97,
51385750,0.608,0.455,0.893,21.227,-283.972,42.035,
51385760,0.923,0.469,0.646,7.14,-247.38,32.672,
51385770,0.714,0.529,0.568,5.547,-152.057,28.577,
51385780,0.404,0.598,0.586,1.942,-57.872,15.802,
51385790,-0.06,0.599,0.636,-4.725,-0.385,9.24,
51385800,-0.387,0.565,0.687,-14.787,0.735,14.752,
51385810,-0.397,0.493,0.724,-19.582,-35.315,31.885,
51385820,-0.149,0.467,0.785,-12.547,-71.68,47.862,
51385830,0.111,0.509,0.843,-7.175,-85.347,54.477,
51385840,0.274,0.531,0.845,-12.285,-73.307,52.482,
51385850,0.425,0.511,0.825,-19.127,-47.39,44.572,
51385860,0.513,0.461,0.753,-24.745,-12.355,36.907,
51385870,0.506,0.414,0.703,-25.795,26.635,30.957,
51385880,0.391,0.468,0.686,-25.077,62.37,27.615,
51385890,0.256,0.516,0.691,-29.032,90.51,27.282,
51385900,0.097,0.509,0.739,-36.277,105.07,24.605,
51385910,-0.072,0.476,0.748,-46.917,98.525,19.442,
51385920,-0.184,0.425,0.717,-53.952,74.515,15.907,
51385930,-0.106,0.43,0.777,-47.477,48.37,17.867,
51385940,-0.043,0.445,0.811,-40.495,24.762,23.835,
51385950,0.106,0.427,0.839,-38.622,11.847,27.282,
51385960,0.206,0.419,0.932,-37.765,10.22,27.93,
51385970,0.503,0.15,1.164,-49.945,-4.007,35.945,
51385980,0.551,-0.833,0.324,-56.105,-26.932,66.15,
51385990,1.928,-0.306,1.141,64.82,72.59,53.515,
51386000,0.74,0.565,1.534,118.195,205.24,35.927,
51386010,-0.087,0.28,1.379,28.35,244.597,-14.577,
51386010,0.119,-0.13,1.205,9.397,210.875,-63.927,
51386030,0.09,0.096,1.202,42.542,172.2,-61.495,
51386030,0.057,0.316,1.095,52.622,140.84,-55.737,
51386050,0.201,0.309,0.878,47.845,129.29,-76.02,
51386050,0.223,0.337,0.658,41.842,139.667,-91.805,
51386070,0.125,0.397,0.466,47.845,162.102,-90.457,
51386070,-0.009,0.614,0.37,56.017,185.745,-86.555,
51386080,-0.262,0.738,0.309,48.72,198.38,-91,
51386090,-0.48,0.881,0.347,29.19,189.7,-105.035,
51386100,-0.684,0.921,0.175,-13.562,152.39,-109.112,
51386110,-0.682,0.878,0.197,-29.54,98.752,-117.547,
51386120,-0.634,0.914,0.176,-52.92,42.752,-110.932,
51386130,-0.496,0.929,0.175,-74.06,-2.38,-108.885,
51386140,-0.425,0.915,0.195,-97.23,-28.245,-111.982,
51386150,-0.369,0.826,0.248,-119.455,-39.707,-118.37,
51386160,-0.316,0.744,0.36,-136.587,-40.127,-125.965,
51386170,-0.37,0.615,0.407,-153.23,-37.922,-127.575,
51386180,-0.378,0.519,0.5,-157.955,-36.085,-133.857,
51386190,-0.413,0.455,0.564,-162.242,-36.732,-134.54,
51386200,-0.428,0.354,0.618,-162.89,-40.495,-133.315,
51386210,-0.405,0.261,0.664,-157.867,-45.832,-128.887,
51386220,-0.344,0.263,0.717,-148.26,-50.435,-120.242,
51386230,-0.318,0.298,0.774,-138.285,-52.255,-103.932,
51386240,-0.322,0.248,0.852,-132.3,-50.627,-86.835,
51386250,-0.286,0.145,0.895,-127.592,-46.165,-76.597,
51386260,-0.221,0.139,0.94,-121.52,-36.347,-72.31,
51386270,-0.301,0.13,1.039,-116.62,-30.467,-63.14,
51386280,-0.389,0.092,1.072,-118.02,-32.497,-51.59,
51386290,-0.277,-0.016,1.068,-116.637,-32.095,-41.09,
51386300,-0.053,-0.118,1.114,-104.72,-15.085,-30.87,
51386310,0.03,-0.108,1.156,-90.387,22.277,-23.747,
51386320,-0.033,-0.043,1.209,-82.18,68.722,-20.212,
51386330,-0.082,-0.026,1.185,-82.232,114.975,-19.197,
51386340,-0.147,-0.009,1.164,-87.867,158.095,-17.797,
51386350,-0.415,-0.014,1.159,-95.917,183.085,-17.29,
51386360,-0.607,-0.076,1.128,-104.79,182.367,-22.715,
51386370,-0.641,-0.171,1.059,-107.135,165.34,-28.542,
51386380,-0.672,-0.234,1.012,-98.14,141.54,-26.792,
51386390,-0.702,-0.298,1.049,-79.397,111.265,-17.867,
51386400,-0.534,-0.367,0.905,-56.63,90.65,-5.827,
51386410,-0.434,-0.36,0.948,-21.595,94.675,8.05,
51386420,-0.493,-0.263,1.041,11.672,102.392,17.342,
51386420,-0.631,-0.166,1.066,23.817,105.332,23.677,
51386440,-0.689,-0.121,1.107,20.072,100.45,23.222,
51386440,-0.666,-0.133,1.074,8.54,93.537,23.59,
51386460,-0.631,-0.214,1.006,3.587,90.055,22.61,
51386460,-0.53,-0.133,1.006,-1.54,99.662,12.635,
51386480,-0.531,-0.105,0.957,-12.565,114.187,9.397,
51386480,-0.564,-0.118,0.893,-21.227,128.432,5.005,
51386500,-0.638,-0.137,0.82,-23.887,132.895,4.655,
51386500,-0.707,-0.143,0.746,-18.427,125.352,6.685,
51386510,-0.747,-0.149,0.68,-3.78,108.535,9.327,
51386520,-0.717,-0.134,0.644,15.417,91.56,8.767,
51386530,-0.698,-0.116,0.652,33.162,79.555,7.122,
51386540,-0.743,-0.116,0.661,46.847,70.682,7.192,
51386550,-0.795,-0.116,0.669,59.71,60.165,6.352,
51386560,-0.824,-0.104,0.671,70.595,48.79,3.08,
51386570,-0.877,-0.08,0.662,77.577,35.035,-4.235,
51386580,-0.9,-0.04,0.665,81.55,18.322,-15.592,
51386590,-0.919,-0.04,0.621,82.565,-3.535,-25.077,
51386600,-0.897,-0.043,0.606,89.775,-24.85,-35.035,
51386610,-0.866,0.003,0.595,98.175,-45.5,-43.505,
51386620,-0.831,0.07,0.608,100.817,-65.537,-46.287,
51386630,-0.803,0.101,0.621,96.302,-83.702,-44.222,
51386640,-0.776,0.085,0.625,89.582,-98.98,-39.305,
51386650,-0.704,0.083,0.644,78.907,-108.587,-38.482,
51386660,-0.633,0.082,0.655,66.29,-109.497,-42.367,
51386670,-0.569,0.087,0.683,53.217,-100.03,-49.105,
51386680,-0.527,0.096,0.727,39.13,-83.93,-54.81,
51386690,-0.524,0.092,0.763,23.8,-67.497,-54.967,
51386700,-0.567,0.062,0.772,9.362,-56.857,-49,
51386710,-0.627,0.001,0.773,-3.097,-53.252,-41.072,
51386720,-0.6,-0.027,0.779,-10.29,-49.315,-31.99,
51386730,-0.614,-0.077,0.757,-13.457,-45.64,-20.072,
51386740,-0.588,-0.077,0.785,-12.687,-37.905,-14.122,
51386750,-0.584,-0.051,0.835,-12.67,-28.962,-12.477,
51386760,-0.604,-0.043,0.858,-15.82,-22.89,-11.777,
51386760,-0.598,-0.056,0.885,-17.657,-19.057,-9.642,
51386780,-0.578,-0.051,0.865,-21.227,-18.497,-4.077,
51386780,-0.567,-0.059,0.856,-18.34,-18.2,3.517,
51386800,-0.575,-0.051,0.827,-17.657,-16.975,11.515,
51386800,-0.525,0,0.835,-19.092,-12.792,13.09,
51386820,-0.503,0.003,0.788,-25.287,-7.945,15.732,
51386820,-0.495,-0.009,0.77,-24.71,0.052,21.157,
51386830,-0.498,0.039,0.767,-27.93,8.365,28.175,
51386840,-0.513,0.047,0.782,-32.06,15.767,34.632,
51386850,-0.532,0.055,0.792,-39.165,21.787,39.935,
51386860,-0.581,0.018,0.773,-48.247,25.48,43.68,
51386870,-0.597,0.03,0.802,-55.597,28.28,43.522,
51386880,-0.658,-0.042,0.757,-64.522,27.615,43.802,
51386890,-0.673,-0.09,0.791,-61.687,25.69,38.587,
51386900,-0.736,-0.163,0.76,-64.015,19.967,31.097,
51386910,-0.775,-0.237,0.731,-54.547,10.692,16.38,
51386920,-0.764,-0.214,0.788,-37.1,-3.045,-0.175,
51386930,-0.784,-0.256,0.808,-18.97,-25.847,-11.637,
51386940,-0.686,-0.165,0.852,-4.9,-53.007,-24.15,
51386950,-0.62,-0.134,0.856,-2.31,-82.04,-28.735,
51386960,-0.552,-0.181,0.833,0.84,-105.507,-31.78,
51386970,-0.445,-0.149,0.836,6.142,-122.692,-32.9,
51386980,-0.354,-0.119,0.845,10.832,-134.487,-28.717,
51386990,-0.259,-0.098,0.853,12.862,-136.92,-21.857,
51387000,-0.184,-0.086,0.872,11.83,-129.675,-13.877,
51387010,-0.143,-0.077,0.895,9.117,-113.207,-5.11,
51387020,-0.096,-0.052,0.907,2.765,-87.92,2.94,
51387030,-0.104,-0.047,0.918,-4.672,-55.3,12.092,
51387040,-0.141,-0.023,0.925,-15.522,-18.847,19.11,
51387050,-0.21,0.008,0.93,-30.152,15.54,23.047,
51387060,-0.314,0.005,0.916,-46.602,42.595,26.827,
51387070,-0.391,-0.025,0.879,-59.692,60.637,30.555,
51387080,-0.476,-0.053,0.833,-66.692,70.052,35.542,
51387090,-0.578,-0.052,0.826,-67.952,69.3,40.687,
51387100,-0.68,-0.064,0.798,-66.395,58.747,44.362,
51387110,-0.742,-0.092,0.78,-60.06,42.035,46.83,
51387120,-0.755,-0.108,0.767,-50.645,23.38,51.275,
51387130,-0.77,-0.103,0.775,-40.53,7.752,57.33,
51387140,-0.759,-0.073,0.8,-33.985,-1.4,57.505,
51387150,-0.714,-0.039,0.832,-34.037,-2.642,52.85,
51387160,-0.683,-0.057,0.847,-37.485,0.385,47.355,
51387170,-0.651,-0.085,0.828,-42.035,5.705,41.527,
51387170,-0.61,-0.087,0.813,-45.465,12.862,37.327,
51387190,-0.659,-0.113,0.806,-47.232,18.987,36.68,
51387190,-0.705,-0.129,0.8,-47.67,18.795,34.317,
51387200,-0.717,-0.145,0.803,-46.515,10.202,32.462,
51387210,-0.719,-0.208,0.803,-41.055,-4.935,28.052,
51387220,-0.65,-0.215,0.825,-27.755,-18.392,16.87,
51387230,-0.631,-0.212,0.859,-18.882,-33.495,13.23,
51387240,-0.552,-0.213,0.856,-11.847,-45.587,11.725,
51387250,-0.489,-0.15,0.858,-11.305,-53.935,11.13,
51387260,-0.438,-0.09,0.87,-13.982,-57.487,5.757,
51387270,-0.443,-0.234,0.813,-18.252,-58.66,-5.057,
51387280,-0.348,-0.246,0.841,-11.112,-55.737,-13.247,
51387290,-0.353,-0.235,0.867,-6.02,-54.022,-8.452,
51387300,-0.334,-0.205,0.907,-1.19,-50.89,-4.2,
51387310,-0.294,-0.255,0.95,1.61,-46.637,-1.697,
51387320,-0.151,-0.344,0.943,4.9,-36.277,3.71,
51387330,-0.104,-0.327,0.978,16.52,-4.287,15.575,
51387340,-0.367,-0.373,0.934,32.252,25.41,31.92,
51387350,-0.485,-0.329,0.984,48.912,35.577,39.48,
51387360,-0.492,-0.258,1.018,56.717,39.235,40.81,
51387370,-0.578,-0.26,0.971,57.907,39.987,41.037,
51387380,-0.566,-0.201,0.998,60.112,37.537,38.167,
51387390,-0.517,-0.162,0.994,55.895,38.657,35.052,
51387400,-0.471,-0.164,0.977,50.312,44.012,31.832,
51387410,-0.469,-0.138,0.857,43.47,52.307,30.047,
51387420,-0.493,-0.129,0.843,42.14,56.49,34.947,
51387430,-0.497,-0.115,0.786,37.432,54.897,35.77,
51387440,-0.483,-0.068,0.756,38.237,57.102,35.175,
51387450,-0.53,-0.002,0.788,39.252,56.455,37.1,
51387460,-0.566,0.069,0.804,28.577,50.312,35.175,
51387470,-0.623,0.129,0.808,9.905,42.945,28.752,
51387480,-0.674,0.11,0.752,-15.382,33.285,16.275,
51387490,-0.566,0.044,0.659,-34.107,23.782,1.155,
51387500,-0.437,-0.035,0.612,-36.015,21.892,-1.382,
51387510,-0.471,-0.097,0.592,-24.867,25.112,10.062,
51387510,-0.561,-0.085,0.653,-6.317,24.01,25.305,
51387530,-0.652,-0.071,0.694,8.435,12.267,35.35,
51387530,-0.673,-0.049,0.758,18.987,-3.64,37.975,
51387550,-0.673,-0.056,0.807,23.1,-20.79,40.775,
51387550,-0.571,-0.085,0.849,25.952,-30.38,46.375,
51387570,-0.459,-0.097,0.883,29.715,-18.742,50.102,
51387570,-0.384,-0.088,0.915,33.04,13.597,49.017,
51387580,-0.377,-0.098,0.926,36.207,58.047,50.242,
51387590,-0.474,-0.085,0.926,39.287,103.127,55.195,
51387600,-0.584,-0.046,0.893,39.9,141.61,64.207,
51387610,-0.715,-0.023,0.852,45.062,170.607,78.487,
51387620,-0.826,0.001,0.808,51.205,188.632,92.137,
51387630,-0.847,0.063,0.741,52.867,197.96,100.327,
51387640,-0.826,0.11,0.652,50.802,205.66,106.312,
51387650,-0.853,0.132,0.547,49.875,210.385,113.435,
51387660,-0.886,0.163,0.471,52.447,211.172,120.26,
51387670,-0.923,0.229,0.428,55.702,206.377,125.247,
51387680,-0.908,0.306,0.423,56.612,197.855,128.415,
51387690,-0.827,0.353,0.431,55.317,191.975,129.272,
51387700,-0.794,0.392,0.398,49.42,189.752,128.362,
51387710,-0.854,0.391,0.361,37.485,184.887,124.53,
51387720,-0.903,0.37,0.327,24.99,171.867,117.635,
51387730,-0.869,0.37,0.323,20.002,151.952,112.332,
51387740,-0.817,0.396,0.312,18.865,130.357,111.002,
51387750,-0.841,0.4,0.293,15.505,109.287,110.565,
51387760,-0.866,0.363,0.286,13.3,88.917,106.505,
51387770,-0.796,0.379,0.336,18.69,73.92,99.382,
51387780,-0.779,0.448,0.36,20.58,66.832,91.192,
51387790,-0.814,0.471,0.4,12.915,62.877,81.025,
51387800,-0.836,0.419,0.382,6.51,60.025,68.722,
51387810,-0.807,0.386,0.411,10.517,57.942,56.472,
51387820,-0.817,0.462,0.428,5.022,54.95,48.877,
51387830,-0.905,0.378,0.371,1.662,44.275,47.862,
51387840,-0.856,0.353,0.391,11.952,31.22,47.915,
51387850,-0.802,0.337,0.349,19.722,23.677,52.692,
51387860,-0.746,0.376,0.377,32.812,24.815,51.747,
51387870,-0.732,0.425,0.36,34.562,33.775,55.107,
51387870,-0.74,0.422,0.37,32.375,51.38,55.282,
51387890,-0.77,0.467,0.375,28.49,73.027,45.045,
51387890,-0.821,0.426,0.343,22.82,87.64,36.19,
51387910,-0.842,0.416,0.309,21.525,93.852,32.252,
51387910,-0.881,0.379,0.268,25.777,92.452,32.48,
51387920,-0.848,0.426,0.255,30.66,89.197,29.662,
51387930,-0.83,0.411,0.21,34.16,84.857,25.935,
51387940,-0.786,0.439,0.21,41.982,84.017,21.28,
51387950,-0.758,0.49,0.211,47.827,87.29,17.167,
51387960,-0.791,0.559,0.206,45.15,95.06,12.46,
51387970,-0.841,0.558,0.169,36.015,102.76,6.702,
51387980,-0.855,0.554,0.176,31.78,110.127,-3.587,
51387990,-0.882,0.559,0.125,22.225,112.577,-14.997,
51388000,-0.815,0.531,0.043,10.797,108.482,-24.605,
51388010,-0.811,0.465,-0.022,3.867,105.927,-27.842,
51388020,-0.93,0.447,-0.013,2.45,100.415,-28.77,
51388030,-0.856,0.482,0.018,7.735,90.492,-31.272,
51388040,-0.816,0.513,0.07,8.102,88.76,-36.487,
51388050,-0.932,0.484,0.013,-0.77,84.98,-39.27,
51388060,-0.97,0.421,-0.028,-4.567,72.59,-34.72,
51388070,-0.977,0.417,-0.06,-1.942,56.28,-22.645,
51388080,-0.981,0.447,-0.093,1.592,42.63,-12.442,
51388090,-0.963,0.475,-0.099,3.64,38.01,-2.03,
51388100,-0.882,0.478,-0.132,2.047,41.65,3.727,
51388110,-0.889,0.491,-0.105,2.607,52.57,-0.612,
51388120,-0.955,0.503,-0.102,-4.042,60.252,-5.355,
51388130,-0.964,0.468,-0.12,-8.802,60.427,-8.032,
51388140,-0.919,0.472,-0.122,-8.995,58.065,-8.925,
51388150,-0.939,0.447,-0.155,-9.555,58.24,-5.407,
51388160,-0.922,0.471,-0.141,-8.627,60.532,-6.772,
51388170,-0.896,0.48,-0.171,-10.71,64.435,-7.77,
51388180,-0.832,0.499,-0.236,-10.64,70.262,-6.755,
51388190,-0.8,0.453,-0.184,-11.76,85.767,-4.165,
51388200,-1.142,0.347,-0.118,-3.062,93.782,0.227,
51388210,-0.875,0.546,-0.084,4.252,77.542,-7.752,
51388220,-0.875,0.48,-0.095,-9.117,74.025,-7.017,
51388230,-0.91,0.399,-0.179,-18.007,74.445,-10.255,
51388240,-0.923,0.383,-0.154,-8.155,67.637,-6.177,
51388250,-0.922,0.435,-0.178,-9.66,60.515,-3.412,
51388260,-1.013,0.386,-0.2,-10.815,53.69,-5.705,
51388260,-0.998,0.351,-0.235,-4.48,41.247,-4.357,
51388280,-0.934,0.376,-0.196,7.56,30.38,-8.855,
51388280,-0.979,0.335,-0.225,17.465,21.315,2.992,
51388300,-0.811,0.383,-0.194,23.975,18.672,-5.127,
51388300,-0.787,0.377,-0.156,29.207,26.162,-6.685,
51388320,-0.743,0.404,-0.157,26.075,36.645,-11.322,
51388320,-0.818,0.391,-0.166,25.812,48.405,-5.67,
51388330,-0.92,0.41,-0.199,22.452,54.127,-0.945,
51388340,-1.009,0.423,-0.19,22.155,53.095,6.422,
51388350,-1.038,0.434,-0.223,16.765,42.437,5.057,
51388360,-0.929,0.466,-0.244,13.825,32.287,-4.445,
51388370,-0.925,0.467,-0.26,10.325,26.915,-1.085,
51388380,-0.897,0.467,-0.286,8.102,22.627,2.205,
51388390,-0.883,0.458,-0.302,7.262,19.775,2.852,
51388400,-0.859,0.456,-0.332,4.83,18.97,-2.205,
51388410,-0.855,0.454,-0.341,5.145,18.567,-8.347,
51388420,-0.865,0.458,-0.348,4.812,16.957,-11.532,
51388430,-0.882,0.461,-0.347,3.395,12.862,-11.655,
51388440,-0.881,0.474,-0.36,-1.4,7.035,-12.67,
51388450,-0.888,0.457,-0.372,-6.142,1.312,-16.555,
51388460,-0.877,0.46,-0.37,-10.745,-2.59,-22.19,
51388470,-0.828,0.447,-0.392,-17.342,-5.74,-23.292,
51388480,-0.726,0.391,-0.415,-20.475,4.637,-18.725,
51388490,-0.962,0.37,-0.395,-23.135,20.982,-13.562,
51388500,-1.055,0.398,-0.36,-23.485,19.005,-15.487,
51388510,-1.035,0.348,-0.35,-18.602,4.165,-10.01,
51388520,-0.953,0.363,-0.299,-10.5,-9.922,-6.195,
51388530,-0.907,0.448,-0.294,-9.905,-14.577,-4.252,
51388540,-0.911,0.379,-0.338,-16.415,-16.94,-4.515,
51388550,-0.867,0.324,-0.373,-12.6,-18.287,-3.955,
51388560,-0.867,0.325,-0.36,-3.517,-21.192,2.012,
51388570,-0.891,0.34,-0.322,5.932,-25.497,7.542,
51388580,-0.8,0.415,-0.271,14.052,-31.955,10.325,
51388580,-0.733,0.436,-0.233,14.455,-26.372,11.06,
51388600,-0.789,0.424,-0.236,7.56,-12.722,9.572,
51388600,-0.808,0.42,-0.243,1.015,0.262,3.36,
51388620,-0.89,0.403,-0.245,-1.365,8.47,2.537,
51388620,-0.911,0.423,-0.23,-1.435,10.43,1.382,
51388640,-0.937,0.403,-0.243,-0.245,7.21,0,
51388640,-0.918,0.404,-0.249,2.065,2.467,-1.05,
51388660,-0.888,0.411,-0.264,2.502,-1.295,-1.505,
51388660,-0.876,0.393,-0.289,5.25,-2.765,-1.715,
51388670,-0.861,0.423,-0.294,9.607,-3.36,-3.132,
51388680,-0.873,0.422,-0.308,11.97,-3.43,-0.98,
51388690,-0.864,0.425,-0.319,13.16,-3.797,0.647,
51388700,-0.855,0.432,-0.32,13.527,-2.047,0.052,
51388710,-0.854,0.427,-0.319,11.112,1.732,-1.085,
51388720,-0.887,0.414,-0.323,9.415,5.337,-1.855,
51388730,-0.874,0.412,-0.337,8.522,6.825,-0.927,
51388740,-0.862,0.409,-0.33,8.05,10.99,-0.297,
51388750,-0.898,0.402,-0.322,4.777,14.997,-1.19,
51388760,-0.947,0.392,-0.314,2.117,16.467,-1.89,
51388770,-0.95,0.38,-0.291,2.275,13.422,-2.957,
51388780,-0.926,0.381,-0.302,0.595,10.01,-2.94,
51388790,-0.924,0.378,-0.294,-2.345,9.117,-1.645,
51388800,-0.948,0.368,-0.312,-5.81,8.855,-1.382,
51388810,-0.958,0.36,-0.304,-2.222,4.9,-0.07,
51388820,-0.918,0.394,-0.306,1.732,-0.577,2.852,
51388830,-0.89,0.427,-0.292,0.245,-0.437,3.99,
51388840,-0.941,0.406,-0.316,-4.795,2.082,2.415,
51388850,-0.92,0.39,-0.326,-3.955,1.855,0.735,
51388860,-0.905,0.391,-0.325,-1.995,0.91,0.227,
51388870,-0.9,0.398,-0.34,-1.382,-0.42,-0.927,
51388880,-0.897,0.389,-0.352,-0.332,-3.395,-1.785,
51388890,-0.932,0.359,-0.358,3.237,-10.202,-1.085,
51388900,-0.866,0.379,-0.374,9.502,-19.092,-2.59,
51388910,-0.803,0.408,-0.334,15.085,-22.855,-4.165,
51388920,-0.756,0.425,-0.322,13.527,-20.737,-4.06,
51388930,-0.782,0.423,-0.316,10.99,-14.087,-3.377,
51388940,-0.851,0.422,-0.311,6.667,-8.067,-2.94,
51388950,-0.889,0.397,-0.303,2.712,-5.932,-4.462,
51388960,-0.875,0.381,-0.31,3.902,-5.425,-5.792,
51388970,-0.859,0.392,-0.309,6.282,-2.765,-5.197,
51388980,-0.867,0.385,-0.31,8.207,1.61,-4.532,
51388990,-0.868,0.386,-0.316,10.272,6.702,-5.95,
51389000,-0.869,0.391,-0.322,10.99,10.902,-7.385,
51389010,-0.878,0.366,-0.335,12.075,13.772,-6.982,
51389010,-0.848,0.393,-0.327,13.02,15.627,-8.015,
51389030,-0.859,0.382,-0.343,10.237,17.412,-6.65,
51389030,-0.876,0.349,-0.354,9.222,16.975,-2.642,
51389050,-0.892,0.347,-0.353,9.502,14.997,0.42,
51389050,-0.899,0.352,-0.357,8.855,11.917,1.767,
51389070,-0.88,0.372,-0.35,7.892,9.467,2.712,
51389070,-0.879,0.345,-0.379,8.277,6.422,5.442,
51389080,-0.841,0.357,-0.376,10.867,5.145,5.95,
51389090,-0.808,0.348,-0.405,8.855,4.515,7.63,
51389100,-0.774,0.309,-0.407,11.27,2.677,13.562,
51389110,-0.767,0.334,-0.476,14.91,0.56,25.602,
51389120,-0.821,0.339,-0.384,29.802,0.455,26.88,
51389130,-0.88,0.43,-0.383,32.427,-1.557,31.255,
51389140,-0.85,0.428,-0.382,29.837,2.747,23.362,
51389150,-0.981,0.43,-0.3,24.272,4.497,13.965,
51389160,-0.907,0.53,-0.359,12.897,-2.695,0.21,
51389170,-0.924,0.504,-0.317,-0.997,1.802,-9.59,
51389180,-0.979,0.279,-0.369,-12.705,0,-9.135,
51389190,-0.821,0.277,-0.372,0.332,-7.997,-6.055,
51389200,-0.897,0.38,-0.329,9.765,-11.62,5.88,
51389210,-0.888,0.36,-0.316,10.85,-13.002,13.685,
51389220,-0.944,0.397,-0.317,11.182,-11.725,19.792,
51389230,-1.033,0.463,-0.293,8.82,-11.042,18.602,
51389240,-0.99,0.506,-0.293,0.91,-10.062,9.677,
51389250,-0.91,0.466,-0.319,-8.627,-7.595,0.665,
51389260,-0.843,0.401,-0.348,-15.015,-2.38,-4.007,
51389270,-0.862,0.38,-0.336,-15.487,3.57,-3.675,
51389280,-0.903,0.383,-0.331,-15.05,5.215,-3.377,
51389290,-0.872,0.365,-0.343,-13.107,3.517,-5.022,
51389300,-0.852,0.361,-0.352,-10.5,2.275,-4.567,
51389310,-0.888,0.359,-0.36,-8.82,0.927,-4.62,
51389320,-0.725,0.368,-0.349,-7.21,3.167,-6.772,
51389330,-0.895,0.347,-0.343,-2.047,14.805,-2.135,
51389330,-0.916,0.405,-0.338,-0.14,12.512,-2.922,
51389350,-0.802,0.398,-0.338,0,10.377,-6.195,
51389350,-0.795,0.391,-0.361,-2.082,15.557,-7,
51389370,-0.779,0.38,-0.381,-3.955,23.66,-7.367,
51389370,-0.847,0.389,-0.369,-5.88,34.02,-10.867,
51389390,-0.932,0.336,-0.404,-8.645,36.172,-8.89,
51389390,-0.861,0.402,-0.374,-1.54,32.515,-9.537,
51389410,-0.846,0.434,-0.381,-7.262,32.41,-11.952,
51389410,-0.893,0.367,-0.419,-14.087,31.517,-12.74,
51389420,-0.848,0.386,-0.424,-12.267,27.685,-13.055,
51389430,-0.856,0.385,-0.421,-12.372,25.707,-13.545,
51389440,-0.906,0.365,-0.433,-12.425,23.8,-11.497,
51389450,-0.891,0.368,-0.421,-10.027,19.005,-9.432,
51389460,-0.869,0.381,-0.408,-9.782,15.557,-11.27,
51389470,-0.892,0.366,-0.426,-11.55,14.647,-10.552,
51389480,-0.828,0.368,-0.413,-12.722,16.292,-13.492,
51389490,-0.892,0.34,-0.444,-14.997,20.195,-12.302,
51389500,-0.884,0.349,-0.454,-16.117,18.795,-8.977,
51389510,-0.922,0.319,-0.462,-14.122,15.732,-7.087,
51389520,-0.923,0.332,-0.441,-9.555,10.85,-5.74,
51389530,-0.92,0.34,-0.454,-7.245,3.272,-4.025,
51389540,-0.877,0.35,-0.44,-6.877,-3.57,-2.24,
51389550,-0.881,0.356,-0.452,-7.752,-7.91,-0.98,
51389560,-0.877,0.36,-0.41,-4.69,-12.215,-0.525,
51389570,-1.025,0.36,-0.352,-2.94,-21.98,0.595,
51389580,-0.875,0.384,-0.321,0.105,-42.455,-3.535,
51389590,-0.717,0.463,-0.335,5.25,-51.222,-10.272,
51389600,-0.71,0.457,-0.372,-5.267,-45.692,-17.517,
51389610,-0.583,0.407,-0.448,-17.657,-29.225,-23.397,
51389620,-0.719,0.347,-0.449,-23.31,-14.315,-23.31,
51389630,-0.821,0.325,-0.449,-20.545,-2.362,-12.04,
51389640,-0.957,0.352,-0.387,-18.9,-1.452,-2.607,
51389650,-0.93,0.347,-0.335,-17.325,-6.895,-10.71,
51389660,-0.88,0.379,-0.29,-13.93,-7.157,-13.055,
51389670,-0.932,0.323,-0.289,-10.29,-6.44,-5.39,
51389680,-0.906,0.345,-0.286,-6.037,-6.3,-3.675,
51389690,-0.894,0.319,-0.298,-0.297,-6.195,-0.157,
51389700,-0.873,0.325,-0.325,2.327,-4.2,-2.695,
51389710,-0.877,0.311,-0.357,4.795,-0.612,-2.292,
51389720,-0.88,0.338,-0.372,8.05,1.995,-2.065,
51389730,-0.869,0.347,-0.399,7.752,3.202,-0.227,
51389740,-0.891,0.334,-0.422,9.677,3.955,4.27,
51389750,-0.93,0.367,-0.404,10.22,2.73,6.16,
51389760,-0.953,0.374,-0.416,4.97,-2.555,5.092,
51389760,-0.948,0.368,-0.428,1.61,-9.345,3.167,
51389780,-0.952,0.382,-0.422,-0.332,-17.045,1.977,
51389780,-0.936,0.382,-0.414,-3.675,-24.045,0.017,
51389800,-0.927,0.377,-0.401,-7.017,-30.082,-0.157,
51389800,-0.888,0.367,-0.399,-9.52,-33.705,-1.242,
51389820,-0.851,0.378,-0.367,-8.015,-33.81,-1.172,
51389820,-0.891,0.366,-0.364,-8.295,-30.205,0.595,
51389830,-0.869,0.375,-0.363,-10.587,-25.112,-3.92,
51389840,-0.921,0.333,-0.379,-10.412,-22.802,-3.377,
51389850,-0.9,0.332,-0.385,-7.577,-24.43,-1.82,
51389860,-0.885,0.344,-0.394,-5.95,-26.477,1.347,
51389870,-0.879,0.351,-0.388,-4.987,-27.02,5.267,
51389880,-0.892,0.356,-0.381,-4.2,-27.947,9.397,
51389890,-0.874,0.359,-0.371,-3.85,-28.42,12.127,
51389900,-0.839,0.359,-0.353,-4.672,-26.355,12.25,
51389910,-0.799,0.357,-0.318,-3.99,-21.612,10.307,
51389920,-0.778,0.367,-0.312,-4.725,-14.175,7.14,
51389930,-0.793,0.371,-0.303,-5.53,-5.722,3.99,
51389940,-0.835,0.351,-0.299,-5.46,0.472,2.45,
51389950,-0.858,0.349,-0.3,-2.135,2.17,0.647,
51389960,-0.856,0.352,-0.299,1.732,0.787,0.017,
51389970,-0.828,0.364,-0.31,4.392,-1.295,0.577,
51389980,-0.811,0.375,-0.304,7.122,-0.98,1.732,
51389990,-0.793,0.374,-0.3,8.242,1.435,2.362,
51390000,-0.76,0.372,-0.308,10.815,5.512,3.15,
51390010,-0.8,0.384,-0.299,13.02,11.917,3.185,
51390020,-0.842,0.37,-0.31,10.395,17.202,1.365,
51390030,-0.82,0.385,-0.306,13.02,23.8,-2.765,
51390040,-0.958,0.329,-0.314,18.847,26.67,1.295,
51390050,-1.023,0.372,-0.329,18.655,18.27,2.397,
51390060,-0.983,0.416,-0.327,18.935,5.845,6.09,
51390070,-0.907,0.388,-0.386,12.95,0.7,-7.21,
51390080,-0.935,0.341,-0.391,9.992,1.295,-15.645,
51390080,-0.981,0.355,-0.4,4.042,-1.942,-13.457,
51390100,-1.034,0.381,-0.424,-0.245,-12.057,-9.082,
51390100,-0.995,0.303,-0.461,0.227,-30.135,-10.762,
51390120,-0.891,0.374,-0.492,-1.61,-48.772,-6.842,
51390120,-0.896,0.326,-0.488,-10.027,-53.497,-0.63,
51390140,-0.919,0.341,-0.469,-12.18,-56.49,4.2,
51390140,-0.921,0.334,-0.419,-6.475,-60.795,10.92,
51390160,-0.89,0.369,-0.337,-4.655,-62.475,17.832,
51390160,-0.883,0.305,-0.315,-6.09,-59.535,22.942,
51390170,-0.973,0.321,-0.251,0.227,-54.145,26.005,
51390180,-1.062,0.327,-0.245,4.427,-57.277,37.362,
51390190,-1.051,0.231,-0.258,12.6,-68.635,45.447,
51390200,-1.063,0.22,-0.246,28.297,-85.645,55.335,
51390210,-1.189,0.254,-0.242,46.007,-111.807,78.277,
51390220,-1.227,0.298,-0.22,65.222,-145.022,97.527,
51390230,-1.158,0.426,-0.197,75.32,-178.99,106.575,
51390240,-0.948,0.48,-0.248,72.572,-196.84,105.822,
51390250,-0.9,0.412,-0.257,67.252,-194.617,98,
51390260,-0.824,0.465,-0.301,60.62,-188.37,88.445,
51390270,-0.649,0.495,-0.223,59.727,-166.267,79.047,
51390280,-0.759,0.527,-0.077,54.337,-135.327,60.445,
51390290,-0.862,0.622,-0.02,49.927,-127.89,44.292,
51390300,-0.949,0.564,-0.047,31.132,-141.312,39.935,
51390310,-1.004,0.52,-0.006,16.135,-158.935,35.682,
51390320,-1.188,0.564,0.061,10.36,-190.627,36.732,
51390330,-1.086,0.547,-0.007,2.835,-238.017,39.515,
51390340,-0.699,0.482,-0.098,0.857,-262.972,42.42,
51390350,-0.36,0.443,-0.12,1.085,-242.025,38.412,
51390360,-0.21,0.273,-0.037,2.8,-180.355,36.54,
51390370,-0.525,0.397,0.078,19.687,-100.817,43.54,
51390380,-0.78,0.639,0.22,30.31,-39.305,28.787,
51390390,-0.939,0.608,0.232,15.365,-10.447,6.685,
51390400,-1,0.602,0.258,7.91,-14.105,-1.242,
51390410,-0.912,0.584,0.227,0.437,-37.047,2.502,
51390420,-0.871,0.475,0.122,-3.587,-57.452,10.045,
51390430,-0.778,0.434,0.022,-3.062,-70.052,15.802,
51390440,-0.694,0.398,-0.01,3.08,-63.28,15.662,
51390450,-0.627,0.427,0.005,10.657,-39.655,10.08,
51390460,-0.688,0.467,0.056,16.1,-5.635,1.75,
51390470,-0.849,0.51,0.146,16.082,22.487,-7.892,
51390480,-0.939,0.551,0.202,13.65,31.552,-12.635,
51390490,-0.959,0.597,0.252,10.727,26.617,-11.917,
51390500,-0.982,0.612,0.271,3.465,14.665,-7.42,
51390510,-0.965,0.607,0.305,3.482,3.727,-10.395,
51390510,-1.089,0.54,0.279,-0.507,-9.695,-15.715,
51390530,-1.056,0.59,0.304,-0.542,-28.297,-25.112,
51390530,-1.066,0.559,0.27,-3.325,-47.39,-36.942,
51390550,-1.058,0.517,0.253,0.157,-64.557,-48.457,
51390550,-1.055,0.515,0.276,3.43,-82.215,-53.427,
51390560,-1.039,0.542,0.31,3.657,-98.612,-55.422,
51390570,-0.908,0.533,0.378,-0.857,-114.327,-54.6,
51390580,-0.813,0.483,0.361,-6.527,-115.255,-43.732,
51390590,-0.878,0.351,0.327,-13.895,-111.09,-30.082,
51390600,-0.766,0.39,0.317,-9.205,-100.38,-18.847,
51390610,-0.807,0.373,0.288,-7.945,-86.1,2.03,
51390620,-0.846,0.368,0.252,-7.35,-74.83,24.01,
51390630,-0.84,0.46,0.284,-2.975,-68.46,44.047,
51390640,-0.858,0.541,0.305,-9.24,-66.692,60.2,
51390650,-0.869,0.565,0.267,-25.707,-70.157,69.807,
51390660,-0.826,0.588,0.247,-42.647,-72.292,72.94,
51390670,-0.828,0.64,0.177,-67.235,-73.955,67.882,
51390680,-0.846,0.623,0.053,-98.437,-76.965,55.51,
51390690,-0.818,0.562,-0.039,-121.152,-80.57,42.315,
51390700,-0.795,0.5,-0.069,-132.037,-82.092,32.497,
51390710,-0.847,0.446,-0.03,-131.215,-84.07,24.22,
51390720,-0.909,0.464,0.086,-117.11,-90.58,17.237,
51390730,-0.933,0.523,0.239,-98.682,-104.16,15.33,
51390740,-0.885,0.55,0.353,-85.837,-123.987,16.03,
51390750,-0.774,0.537,0.462,-79.012,-142.31,17.552,
51390760,-0.679,0.516,0.56,-76.212,-156.327,19.145,
51390770,-0.615,0.486,0.63,-75.827,-166.652,19.67,
51390780,-0.531,0.448,0.662,-76.65,-172.305,17.745,
51390790,-0.437,0.408,0.684,-76.58,-172.375,13.615,
51390800,-0.37,0.37,0.68,-73.045,-166.617,9.94,
51390810,-0.277,0.306,0.721,-67.62,-155.05,10.832,
51390820,-0.297,0.238,0.73,-61.39,-141.102,17.657,
51390830,-0.377,0.188,0.764,-46.69,-126.735,26.057,
51390830,-0.4,0.215,0.779,-25.882,-115.097,30.1,
51390850,-0.361,0.28,0.785,-7.42,-105.682,30.66,
51390850,-0.292,0.325,0.777,6.702,-95.235,27.895,
51390870,-0.233,0.373,0.769,15.715,-80.43,23.765,
51390870,-0.241,0.415,0.754,18.69,-62.352,17.937,
51390890,-0.274,0.453,0.748,17.727,-39.777,7.332,
51390890,-0.301,0.488,0.726,11.672,-16.905,-4.707,
51390910,-0.33,0.481,0.683,2.87,3.535,-13.352,
51390910,-0.361,0.493,0.662,-3.727,21.245,-19.215,
51390920,-0.409,0.526,0.664,-11.077,36.295,-22.19,
51390930,-0.482,0.551,0.666,-20.387,45.692,-24.78,
51390940,-0.554,0.574,0.672,-28.402,50.4,-28.997,
51390950,-0.621,0.579,0.674,-35.052,49.945,-33.915,
51390960,-0.672,0.567,0.686,-40.18,43.312,-37.432,
51390970,-0.735,0.567,0.71,-41.702,29.487,-36.977,
51390980,-0.775,0.568,0.741,-40.687,10.972,-33.337,
51390990,-0.79,0.528,0.739,-40.74,-10.78,-28.42,
51391000,-0.767,0.449,0.709,-37.695,-30.765,-23.8,
51391010,-0.694,0.409,0.692,-30.187,-45.482,-19.967,
51391020,-0.624,0.374,0.659,-24.027,-52.465,-14.577,
51391030,-0.549,0.358,0.645,-17.517,-49.577,-12.635,
51391040,-0.479,0.373,0.672,-12.267,-35.542,-14.56,
51391050,-0.453,0.377,0.679,-12.162,-14.017,-18.252,
51391060,-0.461,0.352,0.671,-14.455,9.485,-23.817,
51391070,-0.495,0.312,0.664,-15.347,29.54,-26.705,
51391080,-0.539,0.275,0.646,-14.507,42.56,-24.535,
51391090,-0.589,0.259,0.646,-11.567,49,-19.845,
51391100,-0.654,0.28,0.67,-7.7,50.26,-16.1,
51391110,-0.718,0.313,0.702,-5.862,48.002,-14.717,
51391120,-0.772,0.323,0.717,-6.335,40.6,-15.102,
51391130,-0.797,0.331,0.732,-5.915,28.997,-15.33,
51391140,-0.793,0.356,0.746,-5.46,15.487,-14.21,
51391150,-0.78,0.371,0.75,-7.227,2.887,-12.057,
51391160,-0.78,0.365,0.749,-9.362,-9.59,-8.26,
51391170,-0.767,0.354,0.73,-9.135,-20.44,-3.465,
51391180,-0.71,0.358,0.724,-5.967,-29.33,1.207,
51391190,-0.622,0.376,0.733,-2.03,-33.145,5.565,
51391200,-0.555,0.402,0.752,0.472,-30.537,7.647,
51391210,-0.521,0.41,0.759,-0.157,-22.872,5.897,
51391220,-0.506,0.398,0.755,-1.61,-14.157,1.435,
51391230,-0.501,0.376,0.741,-1.925,-6.65,-2.187,
51391230,-0.497,0.352,0.725,-0.647,-2.24,-4.48,
51391250,-0.493,0.338,0.721,1.417,0.437,-6.79,
51391250,-0.508,0.325,0.715,2.432,0.98,-9.257,
51391260,-0.54,0.309,0.703,2.572,0.227,-10.605,
51391270,-0.577,0.295,0.688,3.552,-2.187,-10.097,
51391280,-0.6,0.289,0.678,5.46,-4.917,-9.082,
51391290,-0.604,0.288,0.664,5.372,-7.087,-9.537,
51391300,-0.625,0.273,0.645,3.342,-7.857,-11.025,
51391310,-0.672,0.261,0.631,1.47,-10.255,-10.71,
51391320,-0.7,0.27,0.619,0.227,-14.017,-6.685,
51391330,-0.721,0.3,0.609,-1.89,-19.162,-1.82,
51391340,-0.77,0.317,0.602,-6.457,-25.742,3.08,
51391350,-0.823,0.325,0.615,-10.937,-33.722,7.752,
51391360,-0.87,0.351,0.639,-14.595,-42.437,13.3,
51391370,-0.947,0.362,0.662,-20.037,-54.092,21.122,
51391380,-1.02,0.361,0.679,-26.285,-67.13,29.032,
51391390,-0.996,0.37,0.69,-31.99,-79.345,36.102,
51391400,-0.837,0.397,0.675,-37.397,-83.772,45.692,
51391410,-0.602,0.442,0.675,-44.345,-68.74,56.647,
51391420,-0.345,0.526,0.729,-59.255,-22.277,62.615,
51391430,-0.268,0.557,0.766,-88.357,48.667,59.815,
51391440,-0.418,0.443,0.703,-129.692,116.585,53.62,
51391450,-0.739,0.234,0.618,-165.69,151.952,56.892,
51391460,-1.03,0.012,0.536,-177.152,143.325,79.38,
51391470,-1.181,-0.133,0.512,-153.387,102.9,111.335,
51391480,-1.17,-0.127,0.583,-106.697,47.722,135.45,
51391490,-1.007,-0.003,0.697,-59.85,-0.945,142.187,
51391500,-0.796,0.169,0.812,-29.102,-32.62,132.457,
51391510,-0.603,0.27,0.899,-20.475,-45.097,116.655,
51391520,-0.424,0.341,0.967,-28.77,-41.072,98.805,
51391530,-0.339,0.39,1.009,-52.675,-30.257,86.835,
51391540,-0.297,0.378,1.053,-74.795,-24.517,74.83,
51391550,-0.274,0.361,1.108,-93.52,-26.582,64.172,
51391560,-0.296,0.233,1.065,-108.29,-39.095,54.985,
51391570,-0.149,0.173,1.059,-109.077,-53.515,34.072,
51391580,-0.034,0.136,1.038,-108.99,-64.207,18.182,
51391580,0.082,0.092,0.972,-107.66,-69.93,0.315,
51391600,0.161,0.039,0.932,-96.687,-69.755,-17.045,
51391600,0.202,0.011,0.91,-81.217,-64.575,-28.245,
51391620,0.225,0,0.919,-62.352,-56.087,-35.735,
51391620,0.205,-0.007,0.917,-45.43,-43.645,-36.942,
51391640,0.138,-0.001,0.912,-30.065,-29.382,-35.402,
51391640,0.025,0.002,0.914,-15.82,-14.595,-33.495,
51391660,-0.099,0.003,0.911,-2.572,-2.17,-31.115,
51391660,-0.205,0.022,0.921,9.205,7.822,-31.167,
51391670,-0.283,0.06,0.927,18.602,13.79,-33.495,
51391680,-0.336,0.092,0.931,25.042,18.13,-35.84,
51391690,-0.359,0.127,0.938,27.317,24.08,-35.875,
51391700,-0.431,0.142,0.914,26.635,32.952,-37.257,
51391710,-0.447,0.157,0.866,27.23,41.317,-40.442,
51391720,-0.401,0.166,0.842,30.975,55.72,-38.937,
51391730,-0.486,0.165,0.812,33.617,72.817,-33.215,
51391740,-0.599,0.172,0.798,35.56,85.487,-31.167,
51391750,-0.639,0.174,0.772,37.905,88.34,-29.312,
51391760,-0.662,0.17,0.739,42.28,84.28,-20.492,
51391770,-0.716,0.184,0.749,51.502,76.527,-7.595,
51391780,-0.747,0.242,0.785,57.225,66.937,-0.105,
51391790,-0.741,0.294,0.809,54.985,56.63,-0.56,
51391800,-0.727,0.296,0.805,48.667,47.337,-5.145,
51391810,-0.719,0.301,0.807,43.05,39.777,-9.012,
51391820,-0.706,0.298,0.804,36.662,31.99,-11.637,
51391830,-0.704,0.288,0.796,30.24,23.677,-12.81,
51391840,-0.714,0.266,0.763,24.535,14.35,-11.917,
51391850,-0.721,0.248,0.746,23.205,5.39,-9.59,
51391860,-0.714,0.253,0.736,23.782,-3.342,-5.985,
51391870,-0.686,0.256,0.729,23.835,-9.135,-4.042,
51391880,-0.651,0.259,0.728,23.607,-10.727,-4.55,
51391890,-0.631,0.26,0.717,21.822,-8.207,-6.387,
51391900,-0.631,0.245,0.704,20.895,-4.987,-7.875,
51391910,-0.636,0.232,0.696,22.05,-2.117,-6.825,
51391920,-0.646,0.233,0.697,24.57,-0.227,-3.587,
51391920,-0.659,0.249,0.706,26.932,2.117,-0.385,
51391940,-0.677,0.266,0.714,27.685,4.252,1.662,
51391940,-0.697,0.278,0.723,26.915,6.16,2.747,
51391960,-0.716,0.284,0.729,25.392,5.897,2.957,
51391960,-0.727,0.285,0.726,23.502,3.71,3.307,
51391980,-0.727,0.301,0.731,21.577,-0.227,3.325,
51391980,-0.726,0.311,0.727,19.11,-4.83,3.36,
51392000,-0.716,0.314,0.726,16.835,-10.552,3.832,
51392000,-0.677,0.323,0.711,13.387,-14.945,5.495,
51392010,-0.628,0.335,0.711,11.357,-16.467,7.297,
51392020,-0.605,0.34,0.715,7.787,-14.682,8.977,
51392030,-0.572,0.352,0.715,2.135,-10.99,8.855,
51392040,-0.557,0.343,0.712,-3.622,-5.985,7.962,
51392050,-0.554,0.331,0.711,-7.787,-1.662,7.262,
51392060,-0.56,0.327,0.723,-10.85,1.627,7.367,
51392070,-0.572,0.327,0.725,-15.26,1.995,6.79,
51392080,-0.574,0.315,0.726,-18.795,0.35,5.442,
51392090,-0.571,0.305,0.729,-20.982,-3.465,4.97,
51392100,-0.559,0.3,0.733,-22.382,-7.822,4.655,
51392110,-0.547,0.294,0.738,-23.52,-11.935,3.832,
51392120,-0.533,0.284,0.74,-24.832,-14.752,2.73,
51392130,-0.522,0.272,0.741,-25.077,-16.625,2.205,
51392140,-0.516,0.26,0.75,-24.08,-17.237,2.555,
51392150,-0.516,0.25,0.752,-22.732,-16.905,3.64,
51392160,-0.519,0.242,0.76,-20.527,-15.26,4.83,
51392170,-0.525,0.248,0.775,-17.762,-12.337,5.95,
51392180,-0.534,0.258,0.79,-15.207,-8.172,6.282,
51392190,-0.556,0.266,0.804,-13.632,-3.552,5.46,
51392200,-0.579,0.266,0.808,-13.02,-0.752,5.057,
51392210,-0.609,0.253,0.796,-11.97,-0.262,7.35,
51392220,-0.627,0.248,0.785,-8.4,-0.875,11.935,
51392230,-0.64,0.255,0.78,-2.992,-1.452,17.517,
51392240,-0.656,0.258,0.78,1.855,-2.572,23.292,
51392250,-0.683,0.255,0.776,6.667,-3.78,28.822,
51392260,-0.71,0.249,0.77,12.215,-6.58,34.23,
51392270,-0.716,0.255,0.752,18.182,-10.85,40.285,
51392280,-0.687,0.267,0.743,25.725,-14.63,45.85,
51392290,-0.633,0.309,0.762,33.18,-14.227,51.695,
51392300,-0.621,0.354,0.754,35.665,-9.642,57.05,
51392310,-0.601,0.418,0.78,31.517,-2.765,57.855,
51392320,-0.56,0.443,0.756,21.437,5.897,58.45,
51392330,-0.566,0.413,0.745,16.502,15.855,60.2,
51392330,-0.611,0.4,0.748,14.49,21.945,63.472,
51392350,-0.621,0.385,0.735,11.077,21.385,67.847,
51392350,-0.61,0.368,0.714,10.5,17.482,72.012,
51392370,-0.601,0.369,0.712,13.177,12.302,75.25,
51392370,-0.6,0.381,0.71,14.297,6.142,78.907,
51392390,-0.547,0.401,0.734,15.032,2.012,76.597,
51392390,-0.531,0.403,0.758,14.35,-3.412,71.925,
51392410,-0.503,0.391,0.762,12.145,-10.167,68.967,
51392410,-0.446,0.384,0.784,14.77,-15.365,67.567,
51392420,-0.406,0.396,0.848,19.477,-17.132,64.89,
51392430,-0.413,0.383,0.871,21.245,-19.495,59.43,
51392440,-0.423,0.349,0.865,27.212,-25.777,50.242,
51392450,-0.424,0.329,0.875,38.885,-36.435,41.947,
51392460,-0.372,0.342,0.914,54.32,-49.98,33.092,
51392470,-0.332,0.365,0.943,66.255,-65.205,25.62,
51392480,-0.249,0.377,0.948,75.005,-78.032,16.065,
51392490,-0.118,0.361,0.916,82.477,-81.97,7.227,
51392500,-0.044,0.075,0.89,91.175,-78.995,3.832,
51392510,0.484,-0.246,0.752,141.137,-44.817,6.667,
51392520,0.411,0.126,1.078,224.77,28.805,7.122,
51392530,-0.07,0.389,1.196,217.822,85.75,-7.262,
51392540,-0.367,0.434,1.087,190.172,116.13,-36.767,
51392550,-0.816,0.517,1.002,184.52,115.045,-36.802,
51392560,-1.007,0.518,0.853,172.427,81.497,-19.565,
51392570,-0.959,0.638,0.746,158.042,39.532,-18.9,
51392580,-0.844,0.701,0.606,131.932,8.47,-30.485,
51392590,-0.71,0.632,0.443,104.125,-8.12,-42.105,
51392600,-0.69,0.592,0.41,87.185,-13.895,-44.485,
51392610,-0.718,0.518,0.353,76.23,-26.267,-42.245,
51392620,-0.608,0.591,0.38,73.78,-45.395,-38.605,
51392630,-0.551,0.55,0.399,67.462,-62.912,-33.652,
51392640,-0.483,0.569,0.401,57.925,-76.3,-31.71,
51392650,-0.42,0.633,0.517,56.017,-81.847,-27.37,
51392660,-0.442,0.635,0.508,45.395,-83.072,-22.26,
51392670,-0.587,0.626,0.513,35.035,-86.345,-22.33,
51392670,-0.622,0.598,0.507,28.525,-96.827,-20.912,
51392690,-0.628,0.681,0.475,30.327,-107.852,-16.992,
51392690,-0.651,0.649,0.447,27.457,-114.45,-18.445,
51392710,-0.46,0.675,0.387,23.467,-117.11,-26.127,
51392710,-0.629,0.676,0.423,26.915,-102.707,-28.402,
51392730,-0.329,0.706,0.316,25.305,-88.462,-36.785,
51392730,-0.55,0.671,0.33,18.602,-61.775,-41.457,
51392750,-0.42,0.567,0.238,19.197,-42.577,-52.675,
51392750,-0.435,0.632,0.265,33.652,-19.897,-47.652,
51392760,-0.431,0.643,0.259,36.505,2.52,-43.12,
51392770,-0.466,0.743,0.349,36.47,20.65,-42.63,
51392780,-0.673,0.797,0.458,27.527,25.637,-39.777,
51392790,-0.816,0.821,0.544,12.162,8.085,-41.825,
51392800,-0.787,0.792,0.625,-3.867,-20.93,-45.955,
51392810,-0.764,0.822,0.747,-12.862,-44.975,-48.772,
51392820,-0.726,0.818,0.766,-19.88,-67.795,-48.895,
51392830,-0.7,0.783,0.751,-19.442,-91.735,-36.505,
51392840,-0.625,0.705,0.674,-18.007,-116.672,-21.157,
51392850,-0.421,0.564,0.581,-11.445,-136.412,-8.645,
51392860,-0.21,0.602,0.564,5.355,-136.797,1.697,
51392870,-0.126,0.614,0.585,15.277,-119.21,6.142,
51392880,-0.005,0.608,0.583,20.16,-88.287,0.7,
51392890,-0.003,0.626,0.604,24.692,-47.897,-5.442,
51392900,-0.045,0.638,0.606,22.68,-5.88,-13.79,
51392910,-0.132,0.597,0.584,16.922,30.852,-23.292,
51392920,-0.316,0.61,0.63,16.397,55.72,-29.557,
51392930,-0.412,0.639,0.661,12.302,60.795,-35.21,
51392940,-0.322,0.616,0.626,7.525,60.655,-38.885,
51392950,-0.287,0.581,0.6,8.47,75.302,-37.87,
51392960,-0.338,0.537,0.572,11.952,101.395,-37.415,
51392970,-0.391,0.522,0.541,20.65,130.76,-36.575,
51392980,-0.435,0.537,0.531,33.862,157.745,-33.075,
51392990,-0.486,0.594,0.538,45.342,181.02,-29.662,
51393000,-0.511,0.65,0.528,50.802,198.03,-28.367,
51393010,-0.545,0.678,0.498,49.542,209.772,-26.967,
51393020,-0.593,0.695,0.453,42.472,215.6,-24.622,
51393030,-0.685,0.673,0.409,33.162,214.13,-20.65,
51393040,-0.833,0.666,0.35,24.99,199.657,-17.185,
51393050,-0.863,0.693,0.33,17.36,173.915,-17.692,
51393060,-0.801,0.672,0.306,10.535,145.897,-19.39,
51393070,-0.768,0.657,0.271,5.705,124.11,-19.355,
51393080,-0.866,0.683,0.286,-0.665,104.615,-19.95,
51393080,-0.775,0.691,0.23,-11.287,80.062,-24.447,
51393100,-0.662,0.657,0.197,-15.522,74.672,-20.037,
51393100,-0.782,0.626,0.198,-13.44,80.99,-12.53,
51393120,-0.783,0.605,0.189,-14.56,82.932,-11.48,
51393120,-0.783,0.607,0.2,-14.577,83.422,-9.502,
51393140,-0.839,0.624,0.21,-15.487,82.53,-4.777,
51393140,-0.883,0.629,0.231,-16.87,78.75,-0.35,
51393160,-0.895,0.631,0.269,-16.905,69.195,3.5,
51393160,-0.879,0.622,0.287,-18.375,55.3,6.912,
51393170,-0.821,0.623,0.271,-18.62,43.12,7.857,
51393180,-0.808,0.628,0.288,-18.585,31.22,5.757,
51393190,-0.821,0.605,0.247,-23.047,15.487,5.197,
51393200,-0.727,0.562,0.206,-22.68,1.032,4.62,
51393210,-0.626,0.55,0.211,-13.247,0.647,3.99,
51393220,-0.731,0.583,0.242,-6.755,8.102,0.455,
51393230,-0.808,0.604,0.284,-7.577,7.525,-5.215,
51393240,-0.809,0.62,0.305,-7.192,-2.537,-3.78,
51393250,-0.815,0.645,0.344,-8.032,-14.647,2.94,
51393260,-0.815,0.627,0.326,-14.28,-24.902,6.86,
51393270,-0.777,0.595,0.31,-15.452,-35.21,8.085,
51393280,-0.735,0.574,0.283,-12.862,-44.31,13.335,
51393290,-0.747,0.558,0.272,-7.507,-48.982,20.72,
51393300,-0.721,0.577,0.287,1.26,-48.825,24.307,
51393310,-0.673,0.623,0.309,7.367,-43.645,22.925,
51393320,-0.644,0.636,0.313,7.035,-34.37,19.127,
51393330,-0.659,0.639,0.321,5.162,-22.365,15.085,
51393340,-0.698,0.653,0.343,2.817,-12.74,12.127,
51393350,-0.73,0.678,0.344,-2.275,-8.085,9.467,
51393360,-0.734,0.689,0.335,-9.747,-7.175,5.565,
51393370,-0.752,0.696,0.302,-20.16,-8.96,1.33,
51393380,-0.634,0.66,0.255,-30.397,-11.287,-1.627,
51393390,-0.62,0.641,0.244,-35,-1.05,1.837,
51393400,-0.747,0.627,0.222,-35.245,9.8,2.975,
51393410,-0.757,0.693,0.263,-34.265,13.877,3.552,
51393420,-0.739,0.669,0.267,-36.767,12.25,8.155,
51393420,-0.728,0.601,0.275,-37.537,9.8,11.357,
51393440,-0.671,0.547,0.27,-32.707,5.757,11.287,
51393440,-0.617,0.606,0.3,-21.787,10.797,13.387,
51393460,-0.699,0.628,0.344,-18.585,17.377,10.745,
51393460,-0.709,0.594,0.337,-18.725,19.53,4.62,
51393480,-0.691,0.602,0.362,-10.377,18.427,4.882,
51393480,-0.721,0.626,0.377,-7.612,17.727,7.892,
51393500,-0.723,0.595,0.359,-9.187,16.45,6.702,
51393500,-0.754,0.579,0.354,-4.847,15.12,5.88,
51393510,-0.733,0.585,0.339,0.91,9.677,7.577,
51393520,-0.694,0.592,0.33,5.967,7.892,11.532,
51393530,-0.693,0.606,0.323,10.482,11.217,12.46,
51393540,-0.674,0.611,0.325,12.512,16.1,10.22,
51393550,-0.667,0.608,0.311,13.737,21.28,10.325,
51393560,-0.706,0.614,0.311,17.342,26.372,12.285,
51393570,-0.706,0.621,0.301,19.355,28.122,12.687,
51393580,-0.676,0.617,0.305,19.215,29.4,12.932,
51393590,-0.713,0.654,0.281,18.62,33.757,13.002,
51393600,-0.743,0.687,0.289,14.84,35.787,11.497,
51393610,-0.748,0.66,0.259,9.187,32.445,10.29,
51393620,-0.754,0.639,0.233,5.862,26.337,9.835,
51393630,-0.703,0.615,0.204,4.27,16.345,8.767,
51393640,-0.711,0.626,0.204,5.267,8.347,9.485,
51393650,-0.849,0.692,0.253,4.725,-1.802,8.312,
51393660,-0.831,0.711,0.292,-2.012,-20.265,3.167,
51393670,-0.772,0.662,0.254,-8.015,-35.595,-2.292,
51393680,-0.72,0.633,0.258,-7.087,-46.41,-3.797,
51393690,-0.668,0.686,0.222,-2.905,-52.027,3.815,
51393700,-0.637,0.701,0.223,-1.592,-45.132,11.532,
51393710,-0.628,0.634,0.2,-5.74,-31.482,11.392,
51393720,-0.647,0.614,0.226,-3.745,-16.905,11.357,
51393730,-0.744,0.653,0.279,-1.662,-7.052,14.752,
51393740,-0.781,0.68,0.336,-3.237,-7.612,15.96,
51393750,-0.759,0.657,0.367,-6.667,-12.617,15.627,
51393760,-0.773,0.649,0.376,-9.205,-18.76,14,
51393770,-0.795,0.633,0.373,-11.585,-29.785,12.302,
51393780,-0.831,0.613,0.361,-10.01,-44.992,14.175,
51393790,-0.842,0.639,0.373,-2.8,-63.07,17.605,
51393800,-0.817,0.677,0.373,1.907,-82.792,18.375,
51393810,-0.748,0.669,0.342,1.05,-99.032,16.327,
51393820,-0.663,0.635,0.303,2.45,-109.007,12.565,
51393830,-0.542,0.654,0.308,7.052,-106.4,8.872,
51393830,-0.496,0.708,0.349,6.387,-91.192,5.267,
51393850,-0.526,0.709,0.355,-0.98,-71.032,0.507,
51393850,-0.508,0.697,0.334,-8.242,-51.607,-4.48,
51393870,-0.525,0.673,0.343,-11.34,-26.81,-7.367,
51393870,-0.616,0.667,0.364,-7.91,-7.77,-9.555,
51393890,-0.638,0.663,0.386,-6.16,-2.432,-8.977,
51393890,-0.629,0.65,0.389,-5.18,-4.112,-5.127,
51393910,-0.621,0.647,0.398,-2.73,-7.56,-3.36,
51393910,-0.619,0.643,0.391,-2.275,-10.342,-1.61,
51393920,-0.628,0.627,0.379,-1.715,-11.567,-0.665,
51393930,-0.606,0.631,0.38,-0.035,-11.392,-1.767,
51393940,-0.604,0.651,0.391,0.385,-7.665,-2.975,
51393950,-0.62,0.663,0.401,-0.7,-2.642,-4.48,
51393960,-0.625,0.667,0.405,-1.995,0.49,-5.407,
51393970,-0.634,0.656,0.412,-2.537,1.855,-4.742,
51393980,-0.642,0.651,0.408,-3.482,0.332,-4.497,
51393990,-0.635,0.658,0.401,-3.762,-2.362,-4.025,
51394000,-0.632,0.659,0.39,-3.395,-3.867,-3.43,
51394010,-0.618,0.664,0.391,-2.625,-2.94,-4.095,
51394020,-0.637,0.662,0.382,-3.727,-1.435,-6.265,
51394030,-0.635,0.656,0.371,-5.425,-1.54,-8.295,
51394040,-0.655,0.655,0.376,-5.757,-2.537,-8.277,
51394050,-0.662,0.677,0.366,-6.475,-4.952,-7.962,
51394060,-0.606,0.665,0.363,-8.365,-5.302,-7.35,
51394070,-0.594,0.643,0.352,-8.82,0.84,-6.685,
51394080,-0.615,0.65,0.355,-7.612,9.975,-6.65,
51394090,-0.632,0.652,0.358,-5.582,18.375,-5.67,
51394100,-0.639,0.635,0.361,-2.59,24.307,-3.92,
51394110,-0.655,0.633,0.372,1.19,28.945,-2.8,
51394120,-0.686,0.638,0.389,3.972,29.47,-2.572,
51394130,-0.684,0.637,0.392,4.83,25.322,-2.38,
51394140,-0.663,0.632,0.387,5.547,19.512,-1.977,
51394150,-0.633,0.633,0.386,5.757,16.275,-2.502,
51394160,-0.624,0.637,0.378,4.847,17.062,-4.707,
51394170,-0.642,0.647,0.378,1.977,21.262,-7.525,
51394170,-0.661,0.654,0.371,-1.172,25.882,-9.695,
51394190,-0.661,0.661,0.361,-4.252,31.202,-12.04,
51394190,-0.658,0.672,0.347,-8.732,36.225,-14.822,
51394210,-0.645,0.664,0.332,-14.14,41.422,-18.62,
51394210,-0.653,0.631,0.316,-18.917,45.202,-22.155,
51394230,-0.678,0.619,0.296,-20.527,47.582,-23.905,
51394230,-0.699,0.615,0.304,-18.725,48.212,-24.115,
51394250,-0.743,0.606,0.308,-18.13,47.18,-23.082,
51394250,-0.764,0.616,0.313,-17.325,42.122,-21.332,
51394260,-0.756,0.618,0.315,-17.185,35.105,-18.182,
51394270,-0.753,0.617,0.316,-18.007,29.645,-14.892,
51394280,-0.715,0.629,0.315,-18.41,26.722,-13.825,
51394290,-0.689,0.652,0.335,-22.662,24.885,-15.277,
51394300,-0.727,0.648,0.31,-32.97,27.037,-18.392,
51394310,-0.738,0.613,0.304,-40.862,26.722,-23.082,
51394320,-0.795,0.594,0.303,-45.377,21.822,-24.57,
51394330,-0.841,0.604,0.304,-48.422,11.13,-23.502,
51394340,-0.843,0.581,0.302,-51.205,-3.342,-23.187,
51394350,-0.761,0.477,0.299,-50.382,-15.872,-19.53,
51394360,-0.687,0.391,0.294,-35.07,-13.23,-9.187,
51394370,-0.72,0.514,0.401,-6.317,6.072,-1.837,
51394380,-0.888,0.65,0.484,3.675,17.902,-3.202,
51394390,-0.88,0.612,0.435,-8.172,13.685,-3.325,
51394400,-0.792,0.536,0.383,-8.89,5.757,3.115,
51394410,-0.745,0.562,0.381,-6.037,2.87,6.58,
51394420,-0.719,0.575,0.356,-10.745,3.64,2.572,
51394430,-0.698,0.552,0.349,-12.635,8.365,-0.875,
51394440,-0.732,0.559,0.376,-12.11,14.735,-1.942,
51394450,-0.733,0.588,0.403,-13.212,20.86,-3.587,
51394460,-0.718,0.596,0.414,-16.94,29.732,-5.18,
51394470,-0.713,0.576,0.398,-22.522,41.212,-8.137,
51394480,-0.788,0.557,0.373,-27.965,46.672,-10.797,
51394490,-0.857,0.53,0.345,-31.36,38.377,-9.082,
51394500,-0.838,0.511,0.316,-29.907,20.895,-4.13,
51394510,-0.794,0.523,0.301,-25.287,6.615,-1.365,
51394520,-0.764,0.546,0.292,-22.365,-0.735,-4.147,
51394530,-0.721,0.55,0.292,-20.457,-2.73,-7.455,
51394540,-0.709,0.554,0.303,-16.87,2.905,-6.825,
51394550,-0.735,0.573,0.325,-15.627,13.632,-5.67,
51394560,-0.763,0.571,0.324,-17.517,24.85,-5.267,
51394570,-0.831,0.554,0.323,-19.46,33.25,-3.15,
51394580,-0.89,0.54,0.325,-20.037,32.83,0.805,
51394580,-0.91,0.531,0.325,-19.127,21.945,6.212,
51394600,-0.853,0.523,0.324,-17.045,8.032,10.5,
51394600,-0.815,0.508,0.326,-14.945,-1.82,10.237,
51394610,-0.786,0.504,0.328,-12.74,-7.98,6.597,
51394620,-0.784,0.483,0.32,-9.695,-12.967,4.2,
51394630,-0.795,0.485,0.318,-5.145,-18.935,3.727,
51394640,-0.797,0.514,0.331,0.472,-24.097,4.777,
51394650,-0.781,0.536,0.344,3.867,-28.455,5.46,
51394660,-0.768,0.526,0.338,4.287,-31.955,5.04,
51394670,-0.669,0.535,0.304,7.227,-31.85,5.005,
51394680,-0.698,0.56,0.308,11.357,-24.727,8.96,
51394690,-0.721,0.592,0.305,12.565,-15.82,11.795,
51394700,-0.762,0.598,0.297,9.975,-7.577,14.262,
51394710,-0.849,0.583,0.291,5.792,-5.547,16.712,
51394720,-0.846,0.544,0.235,2.03,-15.645,18.462,
51394730,-0.714,0.577,0.174,2.31,-27.142,22.015,
51394740,-0.718,0.575,0.212,1.295,-27.177,24.342,
51394750,-0.805,0.518,0.235,-4.812,-26.25,21.56,
51394760,-0.877,0.503,0.265,-2.66,-33.635,24.325,
51394770,-0.909,0.533,0.33,2.345,-48.335,33.6,
51394780,-0.903,0.554,0.395,2.1,-66.255,39.83,
51394790,-0.907,0.552,0.457,-0.7,-85.522,39.585,
51394800,-0.941,0.541,0.511,-4.76,-110.547,37.082,
51394810,-0.89,0.532,0.481,-7.087,-138.46,36.715,
51394820,-0.74,0.559,0.442,-2.957,-158.725,38.972,
51394830,-0.59,0.581,0.397,1.032,-160.317,43.54,
51394840,-0.433,0.616,0.381,5.075,-141.05,45.797,
51394850,-0.427,0.659,0.401,7.175,-108.307,44.415,
51394860,-0.466,0.687,0.437,3.972,-75.32,42.315,
51394870,-0.562,0.699,0.505,0.367,-51.852,43.207,
51394880,-0.667,0.679,0.521,-5.582,-48.702,43.767,
51394890,-0.624,0.647,0.508,-9.03,-60.655,44.817,
51394900,-0.561,0.642,0.491,-6.195,-74.13,45.01,
51394910,-0.485,0.642,0.451,-4.795,-82.25,41.195,
51394920,-0.432,0.625,0.414,-3.465,-80.832,35.472,
51394920,-0.444,0.633,0.402,-0.052,-74.445,28.98,
51394940,-0.385,0.672,0.438,2.135,-65.362,24.255,
51394940,-0.341,0.69,0.489,-1.067,-48.335,20.212,
51394960,-0.402,0.676,0.546,-8.4,-27.387,14.402,
51394960,-0.547,0.654,0.544,-14.577,-14.437,11.2,
51394980,-0.689,0.661,0.526,-15.12,-16.152,16.1,
51394980,-0.619,0.575,0.535,-10.64,-20.667,21.945,
51395000,-0.531,0.62,0.59,-0.192,-20.055,20.422,
51395000,-0.545,0.674,0.633,6.457,-13.09,19.285,
51395010,-0.529,0.635,0.615,4.847,-4.847,19.547,
51395020,-0.518,0.619,0.613,8.767,4.357,18.742,
51395030,-0.434,0.626,0.612,11.165,13.37,12.985,
51395040,-0.301,0.593,0.594,11.042,27.545,4.707,
51395050,-0.349,0.609,0.56,9.607,47.845,-3.64,
51395060,-0.44,0.585,0.504,5.757,62.475,-10.587,
51395070,-0.591,0.555,0.497,5.425,61.162,-13.982,
51395080,-0.695,0.662,0.506,11.97,49.805,-7.56,
51395090,-0.808,0.715,0.488,11.095,33.915,-0.91,
51395100,-0.629,0.642,0.387,9.835,20.492,0.63,
51395110,-0.491,0.595,0.432,21.35,20.02,5.407,
51395120,-0.47,0.631,0.491,26.635,24.08,10.202,
51395130,-0.458,0.65,0.543,29.225,25.567,12.775,
51395140,-0.526,0.666,0.579,28.962,19.46,15.487,
51395150,-0.456,0.693,0.582,22.032,8.907,12.81,
51395160,-0.401,0.661,0.575,16.537,6.3,3.78,
51395170,-0.485,0.649,0.558,10.097,4.165,-5.932,
51395180,-0.488,0.663,0.54,6.422,-3.045,-10.412,
51395190,-0.511,0.7,0.535,7.63,-7.245,-12.565,
51395200,-0.524,0.695,0.481,3.5,-9.415,-19.232,
51395210,-0.56,0.627,0.457,1.872,-13.02,-24.01,
51395220,-0.484,0.67,0.44,10.867,-14.437,-19.425,
51395230,-0.651,0.702,0.421,13.125,-8.802,-11.06,
51395240,-0.68,0.679,0.399,11.725,-4.147,-12.88,
51395250,-0.498,0.677,0.435,24.08,3.71,-14.91,
51395260,-0.505,0.765,0.497,31.377,20.405,-11.375,
51395270,-0.587,0.74,0.454,20.107,37.222,-13.545,
51395280,-0.585,0.667,0.443,19.337,49.402,-15.347,
51395280,-0.632,0.714,0.448,22.067,57.277,-12.967,
51395300,-0.562,0.724,0.46,16.38,61.862,-16.922,
51395300,-0.619,0.674,0.436,9.607,66.027,-24.675,
51395320,-0.73,0.634,0.419,3.08,56.455,-26.547,
51395320,-0.749,0.628,0.41,0.665,33.565,-19.267,
51395330,-0.676,0.567,0.425,2.205,11.112,-7.49,
51395340,-0.772,0.688,0.4,5.845,-1.417,-1.907,
51395350,-0.572,0.702,0.45,1.732,-7.367,-11.462,
51395360,-0.485,0.563,0.37,-3.062,-0.21,-13.51,
51395370,-0.562,0.61,0.401,2.59,11.357,-11.742,
51395380,-0.549,0.695,0.426,3.937,22.61,-13.982,
51395390,-0.578,0.686,0.408,-0.612,35.945,-17.99,
51395400,-0.593,0.671,0.407,-3.885,48.965,-25.515,
51395410,-0.597,0.664,0.393,-5.792,56.595,-30.957,
51395420,-0.595,0.663,0.393,-6.895,62.947,-31.552,
51395430,-0.701,0.669,0.379,-5.547,67.707,-31.71,
51395440,-0.775,0.642,0.327,-8.452,54.18,-25.042,
51395450,-0.761,0.687,0.336,-1.925,37.957,-9.765,
51395460,-0.783,0.725,0.355,0.752,26.04,-1.61,
51395470,-0.721,0.67,0.298,-8.942,18.182,-3.78,
51395480,-0.647,0.597,0.291,-7.472,15.365,-3.045,
51395490,-0.631,0.636,0.339,-1.4,17.097,3.71,
51395500,-0.671,0.673,0.374,-3.202,22.277,5.6,
51395510,-0.701,0.645,0.4,-7.28,26.6,1.032,
51395520,-0.722,0.607,0.403,-10.325,25.34,-1.365,
51395530,-0.719,0.595,0.402,-9.03,20.177,0.455,
51395540,-0.731,0.606,0.41,-6.3,14.192,4.462,
51395550,-0.755,0.615,0.412,-5.81,9.222,7.98,
51395560,-0.693,0.606,0.396,-3.867,6.632,8.925,
51395570,-0.714,0.6,0.385,-2.362,5.25,10.202,
51395580,-0.772,0.607,0.368,-5.145,-2.345,12.495,
51395590,-0.786,0.627,0.352,-6.3,-15.505,16.415,
51395600,-0.728,0.658,0.351,-7.717,-27.877,18.725,
51395610,-0.662,0.659,0.34,-12.442,-32.217,16.712,
51395620,-0.616,0.644,0.335,-15.102,-28.752,13.037,
51395630,-0.597,0.64,0.338,-15.015,-20.195,10.657,
51395640,-0.576,0.636,0.363,-13.72,-9.152,7.875,
51395650,-0.584,0.651,0.39,-12.827,4.217,4.305,
51395660,-0.649,0.677,0.39,-14.84,14.77,0.332,
51395670,-0.717,0.696,0.344,-19.477,16.345,-3.797,
51395670,-0.734,0.653,0.292,-24.71,3.325,-7.192,
51395690,-0.588,0.567,0.286,-23.485,-8.4,-5.53,
51395690,-0.524,0.589,0.346,-10.57,-5.092,-4.217,
51395710,-0.612,0.665,0.429,-6.457,4.182,-10.272,
51395710,-0.684,0.639,0.478,-15.242,7.507,-16.187,
51395730,-0.748,0.628,0.445,-19.232,6.405,-20.142,
51395730,-0.57,0.534,0.398,-19.985,7.945,-19.25,
51395750,-0.712,0.557,0.414,-9.975,15.54,-9.66,
51395750,-0.853,0.697,0.413,-13.002,4.375,-8.435,
51395760,-0.809,0.621,0.294,-27.982,-17.57,-5.285,
51395770,-0.795,0.504,0.222,-24.237,-37.957,6.615,
51395780,-0.657,0.586,0.245,-8.032,-49.035,17.202,
51395790,-0.676,0.685,0.282,-0.367,-44.817,21.297,
51395800,-0.668,0.683,0.321,-6.212,-39.76,15.032,
51395810,-0.549,0.654,0.383,-8.925,-26.005,13.86,
51395820,-0.686,0.637,0.474,-6.422,-7.105,15.102,
51395830,-0.518,0.65,0.563,-1.96,16.712,9.642,
51395840,-0.829,0.746,0.594,3.517,28.735,6.3,
51395850,-0.771,0.691,0.487,-11.217,10.325,4.847,
51395860,-0.585,0.561,0.375,-11.882,-2.065,9.572,
51395870,-0.574,0.592,0.381,-0.612,1.802,4.917,
51395880,-0.676,0.668,0.375,-5.057,5.985,-5.67,
51395890,-0.798,0.596,0.337,-10.272,-1.89,-4.147,
51395900,-0.778,0.608,0.349,-4.865,-17.937,4.287,
51395910,-0.664,0.661,0.357,-3.08,-28.157,7.017,
51395920,-0.603,0.641,0.342,-8.155,-26.88,2.555,
51395930,-0.611,0.621,0.348,-11.585,-19.827,-0.682,
51395940,-0.657,0.625,0.368,-11.532,-16.555,0.035,
51395950,-0.646,0.628,0.401,-13.212,-17.5,2.065,
51395960,-0.625,0.637,0.45,-15.995,-15.592,4.06,
51395970,-0.678,0.638,0.525,-21.682,-11.567,2.362,
51395980,-0.656,0.621,0.525,-30.397,-10.412,-2.065,
51395990,-0.7,0.612,0.615,-35,-11.392,-4.567,
51396000,-0.81,0.555,0.488,-41.177,-26.145,-6.23,
51396010,-0.865,0.584,0.411,-39.725,-52.255,-3.325,
51396010,-0.714,0.586,0.369,-32.935,-75.512,1.312,
51396030,-0.632,0.577,0.352,-25.27,-82.337,2.345,
51396030,-0.575,0.606,0.353,-20.09,-80.902,-0.507,
51396050,-0.436,0.575,0.377,-11.655,-68.197,3.99,
51396050,-0.521,0.576,0.462,-0.385,-43.627,11.497,
51396070,-0.649,0.631,0.499,2.047,-31.57,12.267,
51396070,-0.521,0.596,0.527,4.83,-23.677,17.622,
51396080,-0.533,0.556,0.565,13.492,-8.977,23.747,
51396090,-0.582,0.59,0.566,16.607,0.472,19.18,
51396100,-0.594,0.63,0.573,19.197,1.855,15.347,
51396110,-0.592,0.612,0.567,21.84,-2.887,16.31,
51396120,-0.524,0.607,0.565,21.367,-2.205,14.787,
51396130,-0.515,0.603,0.545,18.077,3.92,7.84,
51396140,-0.528,0.611,0.55,12.95,10.395,-1.05,
51396150,-0.615,0.616,0.503,7.07,10.587,-6.58,
51396160,-0.722,0.609,0.462,1.995,1.942,-6.86,
51396170,-0.711,0.646,0.438,2.135,-11.812,-4.025,
51396180,-0.676,0.666,0.418,2.537,-23.205,-2.065,
51396190,-0.581,0.665,0.372,-2.362,-29.19,-4.392,
51396200,-0.517,0.65,0.355,-3.85,-25.27,-5.53,
51396210,-0.56,0.668,0.395,-2.677,-14.787,-5.792,
51396220,-0.563,0.648,0.46,-3.85,-4.357,-6.755,
51396230,-0.618,0.601,0.53,1.925,7.472,-2.992,
51396240,-0.716,0.638,0.589,10.867,15.645,2.607,
51396250,-0.697,0.648,0.577,13.615,15.417,6.93,
51396260,-0.577,0.583,0.514,18.042,12.04,10.517,
51396270,-0.532,0.592,0.485,26.022,14.332,13.72,
51396280,-0.584,0.634,0.471,28.927,19.477,14.175,
51396290,-0.626,0.657,0.45,26.827,21.717,12.285,
51396300,-0.634,0.643,0.429,21.927,19.757,8.662,
51396310,-0.582,0.617,0.41,17.902,16.537,5.057,
51396320,-0.55,0.634,0.412,14.577,16.257,1.732,
51396330,-0.588,0.627,0.414,7.402,19.512,-2.992,
51396340,-0.637,0.596,0.418,0.577,20.58,-5.932,
51396350,-0.649,0.621,0.441,0.052,20.387,-3.185,
51396360,-0.663,0.649,0.434,-2.24,19.11,-1.137,
51396370,-0.591,0.608,0.428,-7.105,19.145,-1.522,
51396380,-0.621,0.611,0.44,-3.85,22.872,0.84,
51396390,-0.684,0.645,0.461,-2.187,22.977,2.415,
51396400,-0.657,0.636,0.479,-3.972,17.797,2.03,
51396410,-0.663,0.619,0.443,-4.042,12.757,3.167,
51396420,-0.675,0.676,0.41,-3.15,8.75,3.36,
51396420,-0.581,0.657,0.502,-3.132,1.505,0.07,
51396440,-0.704,0.668,0.518,-3.955,1.207,-1.33,
51396440,-0.672,0.679,0.532,-5.565,-5.075,-7.91,
51396460,-0.612,0.656,0.534,-6.51,-9.187,-11.935,
51396460,-0.677,0.678,0.566,-7.105,-6.58,-15.995,
51396480,-0.539,0.728,0.57,-11.515,-5.46,-28.315,
51396480,-0.381,0.65,0.5,-17.202,7.21,-41.79,
51396500,-0.601,0.614,0.403,-20.072,21.087,-48.615,
51396500,-0.842,0.622,0.34,-20.755,11.13,-41.807,
51396510,-0.913,0.635,0.297,-14.49,-15.82,-17.85,
51396520,-0.83,0.647,0.308,-5.355,-40.897,2.24,
51396530,-0.612,0.664,0.315,-4.882,-51.52,6.107,
51396540,-0.42,0.611,0.34,-8.05,-38.342,2.992,
51396550,-0.352,0.549,0.39,-7.017,-9.747,-1.032,
51396560,-0.421,0.533,0.454,-7.245,18.672,-5.197,
51396570,-0.57,0.538,0.508,-11.077,35.192,-7.122,
51396580,-0.666,0.557,0.542,-14.49,38.517,-9.047,
51396590,-0.644,0.602,0.565,-18.287,35.927,-14.14,
51396600,-0.623,0.6,0.525,-26.425,35.595,-21.035,
51396610,-0.665,0.597,0.488,-32.34,39.62,-24.605,
51396620,-0.694,0.645,0.477,-34.02,44.975,-25.987,
51396630,-0.687,0.648,0.461,-37.94,50.102,-32.462,
51396640,-0.689,0.566,0.399,-41.807,49.472,-42.595,
51396650,-0.904,0.478,0.343,-38.377,27.16,-35.752,
51396660,-0.963,0.542,0.337,-22.4,-7.052,-9.957,
51396670,-0.833,0.63,0.391,-3.097,-29.592,5.845,
51396680,-0.697,0.64,0.402,-2.082,-36.277,1.225,
51396690,-0.658,0.586,0.371,-7.157,-31.395,-3.43,
51396700,-0.631,0.538,0.36,-0.507,-22.522,5.005,
51396710,-0.638,0.562,0.418,9.187,-12.302,13.405,
51396720,-0.67,0.589,0.485,7.91,-5.582,12.267,
51396730,-0.692,0.516,0.486,1.505,-3.202,8.68,
51396740,-0.711,0.433,0.484,3.552,-6.23,5.985,
51396750,-0.703,0.45,0.505,10.482,-12.057,5.74,
51396760,-0.678,0.409,0.385,15.767,-25.165,4.62,
51396760,-0.565,0.499,0.598,24.062,-39.34,5.285,
51396780,-0.667,0.524,0.465,24.15,-33.46,9.327,
51396780,-0.735,0.464,0.406,13.352,-40.477,-1.732,
51396800,-0.609,0.503,0.421,22.575,-46.952,-3.99,
51396800,-0.662,0.59,0.457,30.1,-44.362,5.95,
51396820,-0.556,0.643,0.443,25.445,-34.37,0.91,
51396820,-0.505,0.715,0.36,20.072,-18.97,-6.58,
51396830,-0.559,0.653,0.286,11.2,3.202,1.382,
51396840,-0.637,0.618,0.333,7.28,18.217,7.297,
51396850,-0.54,0.648,0.434,17.342,28.927,10.29,
51396860,-0.683,0.707,0.497,17.465,36.295,13.265,
51396870,-0.725,0.679,0.498,7.262,33.145,7.612,
51396880,-0.698,0.568,0.514,4.532,27.457,0.367,
51396890,-0.721,0.565,0.523,10.08,18.795,-2.747,
51396900,-0.72,0.627,0.533,12.495,8.26,-4.357,
51396910,-0.685,0.623,0.505,6.51,0.927,-8.68,
51396920,-0.653,0.581,0.444,-0.717,1.12,-16.695,
51396930,-0.705,0.56,0.4,-4.672,3.937,-21,
51396940,-0.79,0.545,0.361,-5.442,1.242,-15.645,
51396950,-0.837,0.557,0.356,-2.625,-6.667,-4.952,
51396960,-0.842,0.591,0.363,-0.315,-15.61,3.587,
51396970,-0.792,0.598,0.369,-1.032,-22.802,6.947,
51396980,-0.749,0.591,0.376,-1.61,-28.087,8.82,
51396990,-0.691,0.596,0.395,-1.242,-31.605,10.64,
51397000,-0.618,0.602,0.398,-0.49,-29.505,10.045,
51397010,-0.602,0.589,0.396,0.315,-22.102,7.35,
51397020,-0.659,0.583,0.411,1.225,-18.637,5.652,
51397030,-0.687,0.61,0.409,2.485,-22.277,7.787,
51397040,-0.655,0.634,0.405,4.165,-25.637,9.8,
51397050,-0.625,0.647,0.452,3.342,-22.54,7.035,
51397060,-0.611,0.619,0.466,-1.242,-17.15,1.872,
51397070,-0.593,0.592,0.457,-2.765,-10.482,0.63,
51397080,-0.626,0.585,0.473,-0.07,-3.692,2.485,
51397090,-0.707,0.588,0.49,1.96,-3.255,3.64,
51397100,-0.73,0.606,0.492,3.675,-11.252,5.162,
51397110,-0.785,0.63,0.459,4.147,-23.047,6.107,
51397120,-0.687,0.571,0.44,-0.122,-38.5,3.78,
51397130,-0.524,0.592,0.466,6.37,-33.337,2.362,
51397140,-0.667,0.678,0.502,7.472,-17.062,-3.342,
51397150,-0.639,0.653,0.482,-1.102,-9.852,-13.545,
51397160,-0.639,0.656,0.476,-0.56,-10.237,-13.982,
51397170,-0.786,0.703,0.477,-6.492,-10.727,-13.405,
51397170,-0.796,0.698,0.422,-18.392,-19.897,-21.385,
51397190,-0.621,0.448,0.462,-16.905,-24.237,-19.67,
51397190,-0.54,0.554,0.666,11.83,-7.192,-9.135,
51397210,-0.787,0.721,0.706,18.235,6.265,-8.347,
51397210,-0.743,0.629,0.56,2.38,0.98,-14.77,
51397230,-0.539,0.581,0.546,8.312,-0.577,-13.65,
51397230,-0.518,0.652,0.604,13.352,12.81,-17.167,
51397250,-0.649,0.733,0.636,1.54,21.105,-27.247,
51397250,-0.651,0.68,0.584,-9.87,15.067,-29.172,
51397260,-0.63,0.653,0.576,-12.25,9.922,-23.695,
51397270,-0.589,0.717,0.602,-17.692,15.12,-29.557,
51397280,-0.496,0.698,0.625,-31.115,31.972,-48.632,
51397290,-0.556,0.537,0.563,-40.425,46.112,-59.622,
51397300,-0.822,0.452,0.46,-43.802,37.852,-48.545,
51397310,-0.918,0.425,0.346,-36.12,12.827,-28.227,
51397320,-0.843,0.462,0.338,-17.885,-12.565,-14.525,
51397330,-0.723,0.538,0.341,-13.982,-17.832,-9.835,
51397340,-0.708,0.515,0.406,-11.147,-6.702,-17.202,
51397350,-0.719,0.511,0.485,-12.425,7.315,-24.78,
51397360,-0.7,0.506,0.528,-15.067,19.775,-28.28,
51397370,-0.624,0.533,0.617,-15.4,36.312,-34.3,
51397380,-0.624,0.521,0.675,-25.182,53.987,-44.45,
51397390,-0.612,0.477,0.704,-41.79,65.922,-57.242,
51397400,-0.616,0.385,0.649,-56.21,70.577,-62.44,
51397410,-0.609,0.309,0.594,-61.39,72.012,-60.69,
51397420,-0.628,0.285,0.502,-66.657,72.257,-54.495,
51397430,-0.681,0.268,0.414,-68.04,71.732,-50.872,
51397440,-0.71,0.267,0.322,-66.097,70.91,-49.42,
51397450,-0.772,0.254,0.259,-60.602,74.077,-46.2,
51397460,-0.977,0.252,0.224,-53.55,75.145,-44.642,
51397470,-1.218,0.286,0.314,-47.915,65.87,-46.97,
51397480,-1.517,0.253,0.477,-49.472,39.112,-48.317,
51397490,-1.502,0.161,0.641,-46.795,-3.64,-52.22,
51397500,-0.992,0.152,0.491,-36.627,-59.202,-61.267,
51397510,-0.327,0.212,0.383,-20.842,-84.542,-61.67,
51397510,-0.267,0.194,0.327,-2.222,-61.967,-40.915,
51397530,-0.539,0.138,0.285,24.92,-30.117,-22.277,
51397530,-0.649,0.178,0.339,65.292,-6.545,-8.557,
51397550,-0.866,0.25,0.373,99.365,1.47,8.802,
51397550,-0.966,0.34,0.385,125.615,-0.402,20.597,
51397570,-0.984,0.424,0.412,142.905,-9.257,22.172,
51397570,-1.034,0.415,0.404,151.742,-26.722,18.112,
51397580,-0.94,0.501,0.319,156.205,-49.332,7.21,
51397590,-0.815,0.554,0.312,163.87,-71.68,-4.812,
51397600,-0.804,0.635,0.312,164.115,-88.357,-14.787,
51397610,-0.846,0.61,0.256,159.425,-103.635,-26.845,
51397620,-0.806,0.639,0.298,153.492,-113.837,-45.395,
51397630,-0.809,0.653,0.293,132.422,-123.655,-65.765,
51397640,-0.845,0.601,0.315,118.895,-135.852,-82.425,
51397650,-0.828,0.592,0.319,104.282,-153.842,-93.52,
51397660,-0.772,0.55,0.306,95.567,-173.74,-93.152,
51397670,-0.7,0.504,0.312,90.93,-189.35,-85.505,
51397680,-0.627,0.509,0.34,84.56,-194.005,-76.632,
51397690,-0.564,0.521,0.374,73.36,-183.557,-71.155,
51397700,-0.521,0.523,0.402,58.38,-160.527,-71.435,
51397710,-0.516,0.487,0.409,41.51,-129.85,-74.952,
51397720,-0.532,0.482,0.42,26.547,-93.257,-79.03,
51397730,-0.57,0.509,0.443,10.622,-56.91,-82.477,
51397740,-0.614,0.493,0.453,-7.682,-27.282,-84.262,
51397750,-0.639,0.46,0.455,-22.522,-6.912,-83.195,
51397760,-0.699,0.421,0.476,-33.057,3.377,-75.74,
51397770,-0.794,0.417,0.501,-44.555,5.25,-62.982,
51397780,-0.847,0.392,0.497,-54.162,2.572,-47.635,
51397790,-0.847,0.351,0.527,-59.377,-0.542,-32.707,
51397800,-0.813,0.403,0.508,-67.987,1.085,-20.545,
51397810,-0.768,0.396,0.519,-75.547,10.972,-11.445,
51397820,-0.727,0.421,0.53,-87.132,29.085,-6.58,
51397830,-0.733,0.444,0.515,-106.347,49.542,-5.635,
51397840,-0.741,0.436,0.519,-127.207,70.507,-7.665,
51397850,-0.782,0.436,0.482,-154.315,90.072,-8.785,
51397860,-0.854,0.405,0.444,-178.29,105.735,-14.175,
51397870,-0.909,0.377,0.442,-197.82,114.1,-26.11,
51397880,-0.944,0.339,0.444,-216.212,110.827,-39.48,
51397890,-0.981,0.254,0.399,-229.32,98.7,-51.572,
51397900,-1.025,0.136,0.347,-231.21,78.977,-64.05,
51397910,-1.128,0.093,0.37,-220.447,49.857,-75.635,
51397920,-1.244,0.006,0.388,-201.792,5.547,-83.282,
51397920,-1.12,-0.069,0.389,-179.917,-45.342,-87.027,
51397940,-1.005,-0.084,0.396,-150.255,-89.705,-85.382,
51397940,-0.953,-0.083,0.391,-121.747,-119.175,-83.44,
51397960,-0.741,-0.053,0.425,-100.152,-126.42,-86.765,
51397960,-0.578,-0.03,0.491,-84.927,-117.057,-89.285,
51397980,-0.56,-0.012,0.57,-77.682,-94.902,-87.675,
51397980,-0.662,-0.014,0.664,-79.047,-73.762,-82.915,
51397990,-0.77,-0.066,0.696,-87.78,-64.75,-74.952,
51398000,-0.784,-0.139,0.677,-94.202,-64.015,-63.927,
51398010,-0.746,-0.198,0.658,-91.122,-66.377,-49.945,
51398020,-0.708,-0.217,0.671,-80.885,-67.585,-35.56,
51398030,-0.634,-0.175,0.695,-69.265,-65.205,-22.575,
51398040,-0.731,-0.282,0.62,-54.67,-59.78,-5.862,
51398050,-0.661,-0.178,0.738,-35.262,-48.125,-12.337,
51398060,-0.763,-0.119,0.806,-33.81,-40.617,-8.19,
51398070,-0.819,-0.163,0.77,-44.432,-39.725,-9.24,
51398080,-0.802,-0.248,0.71,-45.745,-41.055,-15.592,
51398090,-0.75,-0.269,0.707,-36.05,-41.912,-21.052,
51398100,-0.732,-0.272,0.704,-22.802,-44.992,-20.702,
51398110,-0.694,-0.254,0.736,-9.555,-48.282,-16.922,
51398120,-0.697,-0.244,0.74,-1.802,-51.66,-13.002,
51398130,-0.661,-0.256,0.738,4.69,-53.69,-13.895,
51398140,-0.59,-0.254,0.744,8.61,-49.77,-14.577,
51398150,-0.587,-0.272,0.746,14.122,-41.545,-13.877,
51398160,-0.581,-0.28,0.763,20.597,-33.075,-11.637,
51398170,-0.625,-0.282,0.783,24.675,-24.377,-6.037,
51398180,-0.642,-0.285,0.802,26.582,-20.58,-1.54,
51398190,-0.573,-0.282,0.78,27.58,-15.032,3.43,
51398200,-0.555,-0.236,0.78,27.93,-5.11,10.5,
51398210,-0.586,-0.199,0.794,28.245,4.287,16.625,
51398220,-0.582,-0.187,0.779,23.975,13.02,21.577,
51398230,-0.61,-0.184,0.749,20.44,20.825,24.972,
51398240,-0.626,-0.176,0.726,19.652,26.215,25.97,
51398250,-0.624,-0.165,0.706,19.915,31.745,28.262,
51398260,-0.641,-0.151,0.704,20.597,38.272,32.165,
51398260,-0.671,-0.132,0.706,20.317,44.922,36.26,
51398280,-0.734,-0.152,0.687,21.42,48.265,40.355,
51398280,-0.769,-0.147,0.695,24.342,49.437,39.9,
51398300,-0.794,-0.139,0.7,27.212,48.737,39.375,
51398300,-0.821,-0.137,0.696,29.96,46.585,38.202,
51398320,-0.811,-0.125,0.683,33.95,43.68,37.362,
51398320,-0.804,-0.119,0.661,39.865,40.81,41.825,
51398330,-0.809,-0.111,0.641,49.437,37.922,48.16,
51398340,-0.817,-0.094,0.657,62.492,36.662,50.785,
51398350,-0.816,-0.067,0.659,75.232,36.207,51.59,
51398360,-0.811,-0.039,0.668,85.662,36.785,54.652,
51398370,-0.822,-0.017,0.667,93.397,35.612,60.27,
51398380,-0.801,0.023,0.668,98.472,34.387,67.007,
51398390,-0.789,0.064,0.66,101.08,33.04,73.29,
51398400,-0.756,0.089,0.636,99.767,32.707,76.282,
51398410,-0.712,0.117,0.617,97.212,35.385,74.672,
51398420,-0.722,0.135,0.611,95.27,40.092,70.91,
51398430,-0.742,0.158,0.618,94.237,42.262,64.662,
51398440,-0.767,0.17,0.624,91.245,39.357,55.16,
51398450,-0.769,0.171,0.607,85.977,33.372,42.42,
51398460,-0.853,0.187,0.617,81.952,24.465,27.177,
51398470,-0.804,0.179,0.593,72.695,8.102,11.48,
51398480,-0.828,0.19,0.599,63.84,-8.697,-1.592,
51398490,-0.809,0.222,0.609,54.74,-26.04,-20.615,
51398500,-0.776,0.22,0.576,39.147,-43.417,-39.445,
51398510,-0.782,0.212,0.545,25.655,-56.787,-56.245,
51398520,-0.834,0.209,0.557,15.54,-69.842,-70.822,
51398530,-0.875,0.191,0.551,4.97,-86.31,-83.405,
51398540,-0.893,0.147,0.541,-2.52,-105.21,-95.007,
51398550,-0.881,0.122,0.556,-4.462,-124.302,-105.787,
51398560,-0.856,0.109,0.585,-2.817,-142.047,-113.995,
51398570,-0.815,0.1,0.613,0.42,-156.467,-119.84,
51398580,-0.745,0.095,0.638,4.777,-166.162,-124.145,
51398590,-0.644,0.115,0.707,8.662,-168.087,-124.88,
51398600,-0.576,0.135,0.747,5.985,-160.16,-121.52,
51398610,-0.523,0.098,0.795,3.237,-142.8,-113.925,
51398620,-0.489,0.101,0.833,-5.232,-119.787,-107.24,
51398630,-0.449,0.105,0.837,-20.352,-91.875,-102.217,
51398640,-0.443,0.038,0.84,-31.29,-61.862,-90.09,
51398650,-0.47,0.019,0.806,-41.597,-32.865,-72.292,
51398660,-0.527,-0.033,0.78,-44.012,-9.03,-52.237,
51398660,-0.585,-0.035,0.773,-43.12,9.502,-29.242,
51398670,-0.654,-0.052,0.748,-44.24,21.017,-9.73,
51398680,-0.704,-0.074,0.725,-42.805,28.49,-1.155,
51398690,-0.706,-0.076,0.718,-37.327,31.99,1.435,
51398700,-0.737,-0.092,0.709,-29.295,31.675,6.475,
51398710,-0.767,-0.096,0.717,-19.985,26.827,10.15,
51398720,-0.768,-0.074,0.729,-12.95,19.057,10.342,
51398730,-0.744,-0.055,0.749,-8.732,9.905,8.207,
51398740,-0.737,-0.054,0.76,-7.017,0.752,5.565,
51398750,-0.68,-0.055,0.759,-5.687,-6.545,2.957,
51398760,-0.637,-0.047,0.763,-3.622,-9.205,2.24,
51398770,-0.632,-0.031,0.778,-2.992,-8.435,-0.647,
51398780,-0.64,-0.023,0.782,-7,-8.61,-5.372,
51398790,-0.636,-0.031,0.772,-13.422,-11.007,-7.98,
51398800,-0.618,-0.055,0.764,-15.172,-12.95,-7.98,
51398810,-0.614,-0.07,0.764,-13.317,-13.86,-6.195,
51398820,-0.607,-0.087,0.757,-10.237,-13.772,-4.322,
51398830,-0.597,-0.105,0.762,-3.745,-12.425,-1.47,
51398840,-0.658,-0.094,0.773,4.76,-11.217,2.957,
51398850,-0.639,-0.093,0.768,9.8,-13.177,7.367,
51398860,-0.596,-0.098,0.764,16.852,-11.777,12.74,
51398870,-0.566,-0.077,0.767,25.007,-6.037,17.727,
51398880,-0.549,-0.034,0.772,30.065,3.395,21.98,
51398890,-0.564,-0.006,0.788,30.205,14.385,25.165,
51398900,-0.586,-0.004,0.789,26.32,24.57,26.74,
51398910,-0.614,-0.015,0.795,20.842,32.812,28.157,
51398920,-0.67,-0.034,0.796,16.432,36.19,29.61,
51398930,-0.712,-0.051,0.787,14.49,33.075,29.715,
51398940,-0.726,-0.062,0.779,15.995,25.095,28.647,
51398950,-0.72,-0.062,0.774,21.21,15.837,26.722,
51398960,-0.706,-0.051,0.782,28.175,7.192,23.17,
51398970,-0.683,-0.03,0.788,33.162,-0.49,17.097,
51398980,-0.67,-0.01,0.8,36.12,-7.297,9.467,
51398990,-0.652,0.002,0.808,36.942,-13.51,2.712,
51399000,-0.656,-0.004,0.795,35.945,-20.387,-0.875,
51399010,-0.656,-0.01,0.777,36.26,-27.282,-3.237,
51399010,-0.64,0,0.777,38.902,-33.512,-4.952,
51399030,-0.616,0.014,0.787,41.457,-36.032,-5.652,
51399030,-0.592,0.034,0.8,42.822,-35.472,-7.017,
51399050,-0.565,0.056,0.794,41.632,-31.255,-8.4,
51399050,-0.536,0.078,0.787,38.657,-23.1,-8.767,
51399070,-0.527,0.088,0.783,33.897,-11.725,-8.05,
51399070,-0.549,0.093,0.781,27.737,-0.77,-7.665,
51399080,-0.592,0.079,0.786,20.877,7.945,-6.457,
51399090,-0.642,0.044,0.772,15.522,12.897,-5.722,
51399100,-0.659,0.033,0.747,13.702,15.4,-6.877,
51399110,-0.685,0.02,0.75,18.952,13.632,-7.542,
51399120,-0.713,0.015,0.755,27.317,8.032,-4.672,
51399130,-0.715,0.023,0.762,34.125,-0.717,-3.062,
51399140,-0.696,0.033,0.766,40.705,-8.172,-4.935,
51399150,-0.675,0.043,0.772,46.672,-13.195,-8.75,
51399160,-0.659,0.053,0.779,51.607,-16.012,-11.97,
51399170,-0.649,0.063,0.8,55.265,-18.952,-14.087,
51399180,-0.647,0.061,0.824,57.277,-22.47,-14.892,
51399190,-0.627,0.057,0.834,59.885,-24.85,-14.647,
51399200,-0.618,0.061,0.84,63.227,-24.36,-13.615,
51399210,-0.612,0.084,0.839,66.675,-21.77,-13.387,
51399220,-0.604,0.102,0.837,69.335,-17.43,-14.07,
51399230,-0.602,0.12,0.831,71.522,-12.442,-15.382,
51399240,-0.605,0.133,0.81,74.147,-7.455,-15.627,
51399250,-0.585,0.174,0.798,76.107,-3.045,-15.995,
51399260,-0.579,0.197,0.791,75.95,0.875,-14.507,
51399270,-0.579,0.195,0.761,74.882,3.5,-12.687,
51399280,-0.565,0.215,0.75,73.797,5.425,-13.002,
51399290,-0.558,0.24,0.736,69.405,7.805,-13.527,
51399300,-0.571,0.244,0.725,62.527,10.64,-14.98,
51399310,-0.581,0.246,0.699,55.16,12.04,-19.075,
51399320,-0.61,0.248,0.687,47.075,10.29,-24.115,
51399330,-0.629,0.236,0.678,38.587,5.39,-29.487,
51399330,-0.62,0.211,0.655,32.655,-2.1,-34.247,
51399350,-0.61,0.218,0.663,27.37,-7.595,-37.572,
51399350,-0.59,0.25,0.668,18.27,-9.782,-42.087,
51399370,-0.601,0.261,0.668,4.41,-8.032,-46.725,
51399370,-0.64,0.264,0.67,-15.522,-7.822,-52.815,
51399390,-0.636,0.249,0.652,-34.352,-11.095,-60.462,
51399390,-0.673,0.215,0.655,-48.475,-18.655,-61.267,
51399410,-0.703,0.189,0.647,-59.36,-27.79,-57.032,
51399410,-0.748,0.154,0.668,-66.22,-38.815,-51.257,
51399420,-0.791,0.123,0.682,-69.475,-50.61,-44.922,
51399430,-0.734,0.093,0.687,-67.497,-57.347,-36.995,
51399440,-0.683,0.092,0.711,-60.077,-54.582,-27.492,
51399450,-0.658,0.12,0.746,-52.325,-42.945,-19.547,
51399460,-0.631,0.148,0.761,-49.752,-26.425,-14.07,
51399470,-0.571,0.147,0.761,-50.242,-7.7,-9.957,
51399480,-0.565,0.137,0.758,-50.925,13.037,-3.605,
51399490,-0.587,0.147,0.754,-51.992,33.005,3.185,
51399500,-0.654,0.146,0.757,-52.955,48.72,11.725,
51399510,-0.751,0.12,0.722,-54.232,55.965,21.857,
51399520,-0.802,0.091,0.665,-53.025,58.922,32.34,
51399530,-0.819,0.11,0.628,-49.21,60.235,41.51,
51399540,-0.84,0.126,0.54,-45.062,59.552,52.045,
51399550,-0.813,0.144,0.528,-36.417,60.322,63.822,
51399560,-0.797,0.216,0.551,-34.912,62.615,78.767,
51399570,-0.776,0.267,0.511,-43.785,65.24,94.692,
51399580,-0.73,0.28,0.476,-56.28,73.027,108.675,
51399590,-0.696,0.279,0.461,-73.78,85.522,119.892,
51399600,-0.701,0.27,0.442,-91.56,99.277,125.79,
51399610,-0.747,0.268,0.431,-108.552,107.012,129.552,
51399620,-0.839,0.219,0.433,-126.017,107.555,133.595,
51399630,-0.993,0.151,0.415,-143.832,105,134.015,
51399640,-1.187,0.031,0.465,-158.217,92.697,120.89,
51399650,-1.336,-0.067,0.549,-171.64,61.775,96.775,
51399660,-1.39,-0.193,0.646,-179.69,11.777,68.267,
51399670,-1.205,-0.206,0.709,-175.14,-46.007,39.55,
51399680,-0.882,-0.358,0.639,-150.85,-99.4,17.062,
51399690,-0.44,-0.175,0.805,-100.537,-128.45,-8.82,
51399700,-0.346,-0.076,0.768,-93.87,-138.285,-18.34,
51399710,-0.255,-0.032,0.799,-89.232,-134.855,-39.602,
51399720,-0.198,-0.095,0.843,-82.705,-123.13,-57.155,
51399730,-0.175,-0.159,0.926,-75.722,-104.807,-64.942,
51399740,-0.223,-0.185,1.087,-70.472,-83.632,-68.46,
51399750,-0.364,-0.207,1.103,-70.21,-64.68,-61.337,
51399760,-0.519,-0.313,1.069,-72.66,-54.635,-50.312,
51399760,-0.586,-0.368,0.986,-70.875,-49.682,-44.38,
51399780,-0.626,-0.405,0.929,-65.135,-49.297,-43.785,
51399780,-0.593,-0.444,0.872,-49.91,-49.385,-36.137,
51399800,-0.583,-0.454,0.88,-27.982,-45.64,-20.632,
51399800,-0.596,-0.343,0.867,-16.59,-39.725,-9.59,
51399820,-0.541,-0.308,0.856,-10.22,-32.655,-7.56,
51399820,-0.314,-0.309,0.848,-8.295,-15.417,-1.505,
51399830,-0.46,-0.293,0.856,-0.315,22.102,11.847,
51399840,-0.827,-0.353,0.838,16.485,33.95,18.042,
51399850,-0.824,-0.251,0.855,26.967,16.66,12.18,
51399860,-0.664,-0.201,0.837,32.655,1.172,5.407,
51399870,-0.612,-0.174,0.788,34.545,-4.445,-1.312,
51399880,-0.598,-0.152,0.77,37.152,-4.707,-1.61,
51399890,-0.592,-0.103,0.741,38.36,-5.407,-0.822,
51399900,-0.545,-0.105,0.726,39.865,-7.192,-1.557,
51399910,-0.492,-0.07,0.745,43.207,-1.96,-0.472,
51399920,-0.523,-0.01,0.778,41.177,5.74,3.552,
51399930,-0.586,0.008,0.797,31.465,12.25,7.752,
51399940,-0.614,-0.054,0.752,19.04,18.392,12.215,
51399950,-0.571,-0.007,0.711,13.667,23.537,20.702,
51399960,-0.594,0.058,0.695,13.09,31.01,28.84,
51399970,-0.676,0.102,0.74,8.522,34.877,27.422,
51399980,-0.736,0.064,0.738,-0.455,31.605,21.525,
51399990,-0.762,0.004,0.759,-7.192,22.085,13.37,
51400000,-0.725,-0.06,0.778,-9.24,9.992,5.827,
51400010,-0.697,-0.076,0.803,-9.065,5.232,1.68,
51400020,-0.666,-0.066,0.829,-10.587,5.145,-0.455,
51400030,-0.615,-0.089,0.858,-13.107,11.532,-0.787,
51400040,-0.602,-0.146,0.843,-15.505,22.382,0.857,
51400050,-0.663,-0.191,0.804,-14.367,31.43,4.252,
51400060,-0.699,-0.178,0.818,-9.362,34.107,5.915,
51400070,-0.671,-0.151,0.821,-6.597,33.337,5.46,
51400080,-0.697,-0.157,0.792,-8.452,31.08,5.617,
51400080,-0.703,-0.168,0.795,-7.665,26.46,7.28,
51400100,-0.695,-0.162,0.787,-6.457,20.09,16.8,
51400100,-0.707,-0.142,0.664,-10.832,17.027,23.03,
51400120,-0.668,-0.106,0.701,-6.422,16.327,16.782,
51400120,-0.711,-0.105,0.672,-3.377,19.25,12.617,
51400140,-0.775,-0.057,0.667,-7.402,15.4,12.967,
51400140,-0.7,-0.04,0.682,-5.862,9.397,10.412,
51400160,-0.689,-0.057,0.637,-3.692,4.287,11.165,
51400160,-0.702,-0.031,0.672,0.98,-1.54,12.092,
51400170,-0.649,-0.015,0.695,3.202,-5.302,11.69,
51400180,-0.65,-0.029,0.718,1.662,-4.217,11.217,
51400190,-0.646,-0.054,0.71,2.292,-1.067,11.795,
51400200,-0.638,-0.057,0.715,6.387,1.942,12.215,
51400210,-0.614,-0.033,0.721,9.712,3.045,12.092,
51400220,-0.608,-0.023,0.726,7.927,6.58,13.93,
51400230,-0.706,-0.096,0.72,3.202,10.115,15.732,
51400240,-0.766,-0.156,0.783,9.975,10.797,14.035,
51400250,-0.763,-0.14,0.768,21.875,5.985,9.992,
51400260,-0.782,-0.094,0.766,26.25,-4.497,10.43,
51400270,-0.738,-0.065,0.764,28.07,-14.315,11.567,
51400280,-0.703,-0.067,0.722,27.23,-17.062,16.905,
51400290,-0.767,-0.088,0.698,28.262,-21.245,21.682,
51400300,-0.754,-0.076,0.683,32.497,-28.647,18.812,
51400310,-0.734,-0.091,0.687,36.54,-36.907,16.625,
51400320,-0.675,-0.094,0.698,43.225,-40.757,17.465,
51400330,-0.64,-0.072,0.727,49.28,-40.442,20.597,
51400340,-0.663,-0.062,0.768,53.095,-38.307,24.412,
51400350,-0.645,-0.069,0.8,58.31,-34.09,29.89,
51400360,-0.576,-0.035,0.834,65.415,-23.607,36.54,
51400370,-0.531,0.023,0.856,69.51,-5.827,41.457,
51400380,-0.491,0.073,0.836,68.757,16.03,41.527,
51400390,-0.499,0.089,0.821,67.532,37.852,42.052,
51400400,-0.577,0.086,0.787,66.517,56.875,46.077,
51400410,-0.62,0.111,0.751,67.55,71.05,50.68,
51400420,-0.66,0.137,0.723,69.247,80.15,55.317,
51400430,-0.664,0.157,0.662,71.505,87.535,59.255,
51400440,-0.604,0.205,0.617,74.812,98.7,64.155,
51400450,-0.613,0.225,0.591,74.69,116.567,69.475,
51400460,-0.66,0.258,0.55,70.822,136.43,74.182,
51400470,-0.7,0.286,0.518,64.277,155.697,78.19,
51400480,-0.75,0.294,0.475,53.69,171.99,80.395,
51400490,-0.76,0.317,0.437,42.892,185.22,81.812,
51400500,-0.803,0.341,0.403,32.095,193.585,84.91,
51400510,-0.902,0.336,0.373,19.372,193.165,87.78,
51400510,-0.994,0.31,0.356,10.15,179.48,90.09,
51400530,-0.978,0.311,0.334,2.257,157.01,96.18,
51400530,-1.007,0.304,0.332,4.305,134.085,107.38,
51400550,-1.006,0.294,0.386,8.61,118.545,114.275,
51400550,-0.933,0.344,0.367,2.712,110.775,109.077,
51400570,-0.934,0.299,0.338,2.292,108.727,101.78,
51400570,-0.908,0.301,0.343,7.822,107.782,94.062,
51400580,-0.914,0.305,0.34,11.97,105.612,88.777,
51400590,-0.921,0.348,0.374,18.497,100.135,83.947,
51400600,-0.867,0.389,0.382,18.427,92.26,79.117,
51400610,-0.88,0.411,0.393,18.007,87.5,73.482,
51400620,-0.831,0.464,0.376,10.482,86.8,66.71,
51400630,-0.853,0.422,0.331,1.295,87.325,60.445,
51400640,-0.84,0.428,0.289,-7.262,84.84,55.352,
51400650,-0.886,0.366,0.234,-8.05,78.662,57.785,
51400660,-0.917,0.395,0.256,-3.745,70.385,60.987,
51400670,-0.901,0.404,0.188,-1.225,56.7,62.72,
51400680,-0.777,0.368,0.234,7.787,55.965,63.21,
51400690,-0.918,0.356,0.292,14.122,63.455,58.38,
51400700,-0.899,0.453,0.3,13.685,56.14,48.667,
51400710,-0.801,0.452,0.312,15.452,50.96,42.35,
51400720,-0.836,0.447,0.301,11.06,48.842,38.272,
51400730,-0.874,0.399,0.246,10.552,37.642,39.567,
51400740,-0.825,0.483,0.273,18.725,28.805,42.77,
51400750,-0.859,0.498,0.267,19.477,25.917,42.367,
51400760,-0.829,0.578,0.31,16.012,27.93,34.615,
51400770,-0.855,0.582,0.256,4.41,30.782,27.912,
51400780,-0.845,0.556,0.222,-0.35,30.712,22.487,
51400790,-0.816,0.565,0.195,-4.567,30.31,18.375,
51400800,-0.81,0.54,0.168,-8.33,30.572,12.897,
51400810,-0.812,0.549,0.168,-9.835,29.522,7.49,
51400820,-0.834,0.518,0.162,-10.657,23.082,3.797,
51400830,-0.774,0.473,0.198,-9.222,17.377,-1.452,
51400830,-0.701,0.484,0.191,-6.457,19.232,1.89,
51400850,-0.809,0.533,0.199,1.627,36.242,8.697,
51400850,-0.971,0.552,0.185,-0.77,46.69,6.755,
51400870,-0.972,0.504,0.16,-8.942,46.235,0.525,
51400870,-0.99,0.464,0.148,-10.972,34.79,1.54,
51400890,-0.911,0.519,0.182,-4.567,18.06,5.845,
51400890,-0.841,0.526,0.183,4.497,5.74,13.982,
51400910,-0.792,0.491,0.144,12.827,7.087,17.692,
51400910,-0.825,0.458,0.08,14.735,11.62,9.345,
51400920,-0.848,0.477,0.094,14.297,10.01,-1.347,
51400930,-0.877,0.473,0.076,13.685,2.187,-2.38,
51400940,-0.889,0.482,0.118,22.452,-6.282,-1.802,
51400950,-0.871,0.506,0.134,23.59,-12.32,0.175,
51400960,-0.838,0.498,0.146,24.185,-11.602,1.33,
51400970,-0.86,0.511,0.194,25.34,-4.025,0.787,
51400980,-0.944,0.509,0.236,22.225,1.942,-0.875,
51400990,-1.011,0.506,0.258,19.11,-4.375,-2.992,
51401000,-0.873,0.466,0.246,15.96,-17.15,-4.48,
51401010,-0.807,0.448,0.248,17.115,-20.352,-6.632,
51401020,-0.86,0.447,0.251,20.23,-19.057,-12.04,
51401030,-0.924,0.428,0.234,22.137,-25.375,-17.237,
