#Format version: 1.0
time[ms],accX[g],accY[g],accZ[g],Value 1,Value 2,Value 3,
49856950,-0.308,-0.253,0.949,-28,4.287,-6.965,
49856960,-0.296,-0.251,0.927,-23.31,1.12,-10.482,
49856970,-0.276,-0.251,0.907,-19.547,-0.98,-13.475,
49856980,-0.271,-0.248,0.88,-17.447,-1.82,-14.892,
49856990,-0.283,-0.259,0.847,-14.822,-2.59,-16.887,
49857000,-0.27,-0.261,0.831,-10.255,-1.54,-20.405,
49857010,-0.267,-0.251,0.822,-7.402,-0.017,-21.805,
49857010,-0.277,-0.259,0.816,-4.112,2.24,-22.032,
49857030,-0.261,-0.241,0.827,-1.627,5.355,-23.992,
49857030,-0.282,-0.258,0.821,-0.542,8.295,-21.63,
49857050,-0.313,-0.304,0.82,5.582,9.922,-21,
49857050,-0.301,-0.284,0.839,11.427,12.197,-24.202,
49857070,-0.29,-0.272,0.825,14.735,14.035,-25.357,
49857070,-0.285,-0.271,0.822,21.63,17.972,-27.037,
49857080,-0.287,-0.256,0.821,28.857,23.677,-29.96,
49857090,-0.285,-0.211,0.849,33.25,30.17,-32.847,
49857100,-0.287,-0.177,0.864,29.662,36.382,-33.11,
49857110,-0.298,-0.165,0.874,23.047,41.58,-31.535,
49857120,-0.327,-0.16,0.876,15.452,45.237,-28.14,
49857130,-0.351,-0.17,0.891,9.537,46.567,-23.712,
49857140,-0.352,-0.185,0.9,1.452,47.04,-21.997,
49857150,-0.336,-0.187,0.921,-9.012,48.877,-21.805,
49857160,-0.342,-0.219,0.919,-24.01,52.5,-20.23,
49857170,-0.348,-0.273,0.909,-35.262,56.56,-20.492,
49857180,-0.338,-0.298,0.901,-44.012,61.582,-19.897,
49857190,-0.346,-0.332,0.864,-51.065,65.957,-14.262,
49857200,-0.351,-0.349,0.829,-53.55,71.575,-6.72,
49857210,-0.383,-0.374,0.796,-51.677,77.577,2.52,
49857220,-0.422,-0.359,0.802,-50.592,84.717,12.302,
49857230,-0.477,-0.361,0.775,-56.035,89.565,20.825,
49857240,-0.533,-0.387,0.751,-58.747,92.645,25.235,
49857250,-0.578,-0.384,0.754,-59.587,92.592,28.122,
49857260,-0.633,-0.371,0.749,-62.79,88.252,33.302,
49857270,-0.642,-0.332,0.757,-63.105,77.595,40.285,
49857280,-1.004,-0.615,0.652,-44.397,51.677,66.36,
49857290,-0.781,-0.385,0.821,-21.245,27.772,30.012,
49857300,-0.848,-0.35,0.839,-21.98,2.397,27.685,
49857310,-0.837,-0.354,0.779,-28.507,-22.33,17.29,
49857320,-0.739,-0.358,0.765,-19.6,-40.932,0.14,
49857330,-0.681,-0.313,0.787,-8.085,-56.647,-2.1,
49857330,-0.678,-0.256,0.806,-2.117,-70.437,2.467,
49857350,-0.622,-0.209,0.829,1.295,-80.727,2.502,
49857350,-0.57,-0.191,0.831,-0.612,-86.432,4.952,
49857370,-0.532,-0.189,0.837,-2.205,-88.532,7.385,
49857370,-0.482,-0.166,0.875,-4.217,-85.627,6.877,
49857390,-0.446,-0.159,0.862,-10.307,-80.36,6.527,
49857390,-0.428,-0.182,0.887,-14.385,-73.115,6.632,
49857410,-0.416,-0.225,0.895,-18.585,-67.305,9.467,
49857410,-0.403,-0.279,0.903,-18.917,-61.722,10.78,
49857420,-0.387,-0.314,0.932,-16.292,-56.7,9.66,
49857430,-0.396,-0.36,0.951,-14.997,-53.655,7.682,
49857440,-0.378,-0.398,0.96,-13.125,-51.047,1.575,
49857450,-0.334,-0.412,0.974,-11.847,-48.842,-1.067,
49857460,-0.327,-0.473,0.936,-8.225,-48.65,1.925,
49857470,-0.281,-0.509,0.926,1.907,-46.672,0.577,
49857480,-0.245,-0.497,0.915,9.1,-42.105,0.07,
49857490,-0.23,-0.504,0.89,16.38,-34.79,-1.12,
49857500,-0.192,-0.484,0.888,24.867,-24.115,-6.072,
49857510,-0.172,-0.459,0.875,29.977,-12.407,-9.485,
49857520,-0.172,-0.425,0.874,34.405,-0.227,-11.62,
49857530,-0.183,-0.38,0.868,35.07,10.832,-12.022,
49857540,-0.196,-0.34,0.856,32.602,20.387,-11.287,
49857550,-0.212,-0.301,0.848,27.457,28.21,-10.15,
49857560,-0.245,-0.269,0.834,19.337,34.737,-8.89,
49857570,-0.281,-0.24,0.821,9.87,39.41,-8.96,
49857580,-0.314,-0.22,0.813,-0.735,42.332,-10.185,
49857590,-0.348,-0.208,0.809,-11.305,43.47,-12.81,
49857600,-0.377,-0.202,0.808,-21.21,43.365,-16.817,
49857610,-0.404,-0.215,0.804,-29.767,40.04,-20.597,
49857620,-0.424,-0.242,0.795,-34.44,35.577,-23.765,
49857630,-0.436,-0.262,0.794,-33.67,29.872,-25.935,
49857640,-0.45,-0.275,0.787,-28.437,23.415,-26.302,
49857650,-0.459,-0.277,0.787,-18.795,16.765,-27.475,
49857660,-0.461,-0.257,0.807,-8.12,11.742,-29.137,
49857670,-0.475,-0.239,0.819,-0.507,7.122,-30.065,
49857680,-0.485,-0.235,0.82,5.232,3.097,-32.042,
49857690,-0.485,-0.229,0.829,10.797,-1.505,-34.807,
49857700,-0.48,-0.222,0.837,15.68,-6.37,-36.242,
49857710,-0.467,-0.214,0.844,19.39,-11.672,-36.82,
49857720,-0.436,-0.215,0.861,21.542,-15.085,-36.627,
49857730,-0.403,-0.214,0.873,19.915,-16.782,-35.07,
49857740,-0.372,-0.218,0.882,15.032,-15.19,-32.235,
49857750,-0.34,-0.238,0.874,8.732,-10.272,-29.47,
49857760,-0.32,-0.254,0.876,2.712,-2.135,-25.847,
49857760,-0.32,-0.273,0.866,-4.025,7.14,-21.472,
49857780,-0.324,-0.291,0.87,-10.412,17.29,-17.08,
49857780,-0.338,-0.311,0.867,-18.427,26.372,-12.547,
49857800,-0.348,-0.34,0.842,-26.775,34.65,-8.4,
49857800,-0.489,-0.479,0.807,-23.817,37.835,9.887,
49857820,-0.45,-0.413,0.884,-8.732,34.23,13.335,
49857820,-0.445,-0.384,0.874,-16.8,31.255,6.877,
49857830,-0.541,-0.443,0.882,-18.41,25.41,15.662,
49857840,-0.533,-0.458,0.883,-22.732,17.185,14.262,
49857850,-0.527,-0.474,0.868,-24.657,8.05,13.02,
49857860,-0.535,-0.491,0.871,-22.155,0.63,9.257,
49857870,-0.526,-0.488,0.879,-18.952,-6.387,5.495,
49857880,-0.499,-0.469,0.88,-18.007,-11.935,2.135,
49857890,-0.48,-0.462,0.875,-18.357,-15.645,-0.49,
49857900,-0.47,-0.452,0.881,-19.075,-17.255,-3.447,
49857910,-0.43,-0.419,0.878,-25.165,-16.747,-9.835,
49857920,-0.424,-0.428,0.857,-32.252,-14.14,-12.617,
49857930,-0.436,-0.456,0.852,-35.455,-11.672,-12.6,
49857940,-0.436,-0.474,0.855,-38.552,-10.167,-13.02,
49857950,-0.433,-0.49,0.856,-42.297,-9.345,-12.267,
49857960,-0.429,-0.514,0.863,-44.73,-8.61,-11.882,
49857970,-0.419,-0.53,0.866,-43.855,-9.275,-11.042,
49857980,-0.427,-0.551,0.857,-37.38,-11.357,-7.105,
49857990,-0.424,-0.548,0.857,-25.655,-15.277,-4.795,
49858000,-0.413,-0.532,0.863,-11.83,-18.707,-4.322,
49858010,-0.405,-0.506,0.872,2.065,-22.19,-5.18,
49858020,-0.377,-0.461,0.88,12.845,-25.112,-7.105,
49858030,-0.359,-0.445,0.876,22.12,-27.79,-6.72,
49858040,-0.335,-0.426,0.867,31.57,-28.402,-6.142,
49858050,-0.309,-0.383,0.874,39.655,-27.615,-7.21,
49858060,-0.297,-0.339,0.88,42.525,-24.902,-8.61,
49858070,-0.28,-0.304,0.87,39.917,-21.262,-11.69,
49858080,-0.296,-0.294,0.864,36.435,-17.01,-11.777,
49858080,-0.308,-0.286,0.852,31.202,-14.157,-13.247,
49858100,-0.317,-0.279,0.843,25.97,-12.162,-14.472,
49858100,-0.318,-0.274,0.836,20.352,-11.427,-16.327,
49858120,-0.319,-0.275,0.825,13.492,-10.342,-17.937,
49858120,-0.313,-0.277,0.816,7.07,-8.942,-19.442,
49858140,-0.313,-0.289,0.808,1.102,-6.51,-19.442,
49858140,-0.31,-0.29,0.807,-4.182,-3.902,-18.357,
49858160,-0.323,-0.311,0.798,-9.257,-1.277,-15.452,
49858160,-0.344,-0.353,0.781,-10.64,0.455,-11.165,
49858170,-0.341,-0.365,0.778,-9.31,2.24,-9.292,
49858180,-0.333,-0.353,0.774,-9.695,4.217,-8.68,
49858190,-0.354,-0.372,0.77,-8.435,5.565,-5.11,
49858200,-0.349,-0.375,0.764,-8.242,6.3,-3.167,
49858210,-0.346,-0.375,0.759,-7.805,6.877,-2.24,
49858220,-0.348,-0.357,0.761,-6.422,7,-0.507,
49858230,-0.367,-0.374,0.76,-5.127,6.002,2.467,
49858240,-0.364,-0.373,0.769,-3.447,5.197,3.902,
49858250,-0.357,-0.35,0.776,-4.515,4.532,3.885,
49858260,-0.367,-0.344,0.775,-6.51,4.672,5.232,
49858270,-0.375,-0.328,0.776,-9.362,5.092,7.385,
49858280,-0.375,-0.315,0.769,-13.667,6.37,8.802,
49858290,-0.397,-0.316,0.761,-16.73,7.98,12.39,
49858300,-0.421,-0.312,0.752,-20.72,9.817,14.665,
49858310,-0.45,-0.304,0.75,-25.007,11.322,17.832,
49858320,-0.471,-0.305,0.737,-30.87,13.037,23.1,
49858330,-0.503,-0.303,0.713,-35.297,13.72,33.372,
49858340,-0.545,-0.336,0.698,-36.05,14.192,47.46,
49858350,-0.559,-0.334,0.684,-33.915,14.91,62.65,
49858360,-0.58,-0.325,0.678,-31.71,16.712,75.88,
49858370,-0.631,-0.323,0.688,-31.08,19.057,88.672,
49858380,-0.692,-0.326,0.689,-33.6,20.51,96.285,
49858390,-0.742,-0.333,0.672,-35.192,18.427,99.872,
49858400,-0.786,-0.343,0.641,-30.87,11.865,104.527,
49858410,-0.795,-0.342,0.593,-16.975,1.715,113.47,
49858420,-0.756,-0.313,0.539,6.072,-6.772,126.805,
49858430,-0.703,-0.243,0.539,34.335,-13.947,142.257,
49858440,-0.633,-0.118,0.554,54.67,-16.782,154.42,
49858450,-0.578,0.019,0.599,60.725,-16.24,160.107,
49858460,-0.6,0.087,0.646,51.38,-13.23,158.69,
49858470,-0.654,0.081,0.684,32.655,-13.23,147.875,
49858480,-0.752,-0.026,0.739,12.915,-21.56,132.037,
49858490,-0.888,-0.155,0.802,-1.12,-44.66,119.612,
49858500,-0.925,-0.303,0.807,-6.702,-81.97,112.262,
49858510,-0.862,-0.397,0.871,-2.502,-119.245,102.935,
49858510,-0.751,-0.438,0.925,6.475,-147.35,87.692,
49858530,-0.597,-0.384,1.017,17.675,-163.922,65.327,
49858530,-0.393,-0.304,1.068,21.507,-166.985,42.525,
49858550,-0.206,-0.246,1.085,22.242,-155.05,24.237,
49858550,-0.063,-0.19,1.094,18.252,-130.007,12.477,
49858570,0.017,-0.185,1.101,11.2,-97.055,6.002,
49858570,0.006,-0.213,1.055,1.767,-61.232,1.96,
49858580,-0.083,-0.255,1.033,-4.812,-28.98,-3.22,
49858590,-0.199,-0.302,1.02,-5.25,-11.042,-9.135,
49858600,-0.383,-0.356,1.019,6.947,-11.042,-15.015,
49858610,-0.318,-0.243,1.043,4.13,-19.407,-38.815,
49858620,-0.292,-0.243,1,-5.39,-32.655,-46.952,
49858630,-0.272,-0.277,0.979,-11.217,-45.237,-51.187,
49858640,-0.228,-0.262,0.945,-20.737,-53.83,-54.687,
49858650,-0.128,-0.221,0.898,-33.81,-54.722,-58.117,
49858660,-0.106,-0.33,0.847,-41.965,-46.777,-51.082,
49858670,-0.046,-0.361,0.834,-45.36,-34.23,-46.112,
49858680,0.03,-0.415,0.838,-44.922,-13.177,-37.03,
49858690,0.035,-0.432,0.823,-38.237,17.15,-23.887,
49858700,-0.122,-0.412,0.817,-30.047,42.472,-13.842,
49858710,-0.24,-0.375,0.86,-25.462,56.822,-10.78,
49858720,-0.302,-0.436,0.849,-22.242,62.107,-13.3,
49858730,-0.389,-0.534,0.854,-11.987,56.892,-18.287,
49858740,-0.453,-0.571,0.863,4.392,45.727,-24.937,
49858750,-0.516,-0.508,0.906,25.55,24.36,-33.845,
49858760,-0.48,-0.359,0.915,39.007,-1.767,-43.522,
49858770,-0.406,-0.257,0.966,41.387,-24.097,-50.575,
49858780,-0.335,-0.283,0.966,35.035,-42.805,-53.672,
49858790,-0.213,-0.315,0.99,28.927,-52.815,-54.18,
49858800,0.042,-0.301,1.069,22.925,-44.257,-47.915,
49858810,0.144,-0.29,1.085,17.395,-7.14,-31.255,
49858820,-0.08,-0.261,1.132,15.925,28.21,-16.59,
49858830,-0.311,-0.216,1.141,0.245,46.69,-11.69,
49858830,-0.486,-0.314,1.109,-21.63,44.205,-9.992,
49858850,-0.396,-0.415,1.028,-29.82,30.362,-14.91,
49858850,-0.261,-0.42,0.988,-26.057,20.632,-22.925,
49858870,-0.229,-0.409,0.959,-22.015,17.675,-24.745,
49858870,-0.227,-0.414,0.947,-16.135,19.862,-24.535,
49858890,-0.108,-0.436,0.932,-9.905,27.002,-23.957,
49858890,0.106,-0.473,0.901,-1.61,51.572,-19.355,
49858910,0.101,-0.479,0.956,12.967,90.072,-2.117,
49858910,-0.053,-0.434,0.986,18.55,128.415,9.835,
49858920,-0.219,-0.429,1.002,21.385,156.8,16.082,
49858930,-0.247,-0.399,0.932,16.38,176.575,11.2,
49858940,-0.556,-0.515,0.942,31.605,182.052,36.295,
49858950,-0.531,-0.403,0.889,32.445,174.79,35.122,
49858960,-0.533,-0.413,0.831,30.73,167.58,28.28,
49858970,-0.524,-0.417,0.773,31.587,166.337,27.142,
49858980,-0.534,-0.382,0.747,29.61,167.632,30.66,
49858990,-0.578,-0.322,0.718,22.995,172.602,36.505,
49859000,-0.675,-0.28,0.709,18.165,174.51,44.03,
49859010,-0.712,-0.252,0.649,11.025,164.202,47.985,
49859020,-0.72,-0.266,0.616,2.975,157.692,51.52,
49859030,-0.709,-0.245,0.587,2.747,150.097,56.787,
49859040,-0.663,-0.178,0.563,-2.87,146.702,65.625,
49859050,-0.695,-0.181,0.52,-5.18,146.597,83.842,
49859060,-0.679,-0.185,0.473,-7.07,149.642,95.077,
49859070,-0.734,-0.233,0.448,-3.727,153.825,107.117,
49859080,-0.747,-0.206,0.452,2.205,155.662,116.217,
49859090,-0.94,-0.32,0.322,18.69,149.817,132.125,
49859100,-0.854,-0.131,0.49,49.98,142.922,121.117,
49859110,-0.903,-0.126,0.427,40.74,135.852,125.44,
49859120,-0.952,-0.108,0.45,44.782,125.825,119.087,
49859130,-0.973,-0.01,0.422,45.727,112.297,118.86,
49859140,-0.945,0.032,0.482,35.7,92.365,116.182,
49859150,-0.888,0.084,0.451,26.687,83.422,104.475,
49859160,-0.825,0.035,0.417,22.89,76.825,100.1,
49859170,-0.867,0.02,0.416,23.905,72.17,100.502,
49859180,-0.89,0.032,0.421,26.267,65.012,95.742,
49859190,-0.861,0.074,0.451,26.985,57.19,82.407,
49859200,-0.873,0.076,0.456,28.612,51.257,73.675,
49859210,-0.914,0.046,0.459,32.497,42.14,70.77,
49859220,-0.967,0.049,0.451,41.632,27.527,70.805,
49859230,-0.956,0.058,0.444,52.325,10.237,70.7,
49859240,-0.903,0.075,0.43,64.12,-3.745,64.312,
49859250,-0.821,0.096,0.424,75.897,-10.99,56.017,
49859260,-0.783,0.142,0.429,84,-9.537,49.612,
49859260,-0.789,0.2,0.468,86.222,-5.127,44.922,
49859280,-0.771,0.252,0.496,85.925,2.8,39.69,
49859280,-0.809,0.268,0.502,78.522,11.375,33.092,
49859300,-0.796,0.262,0.477,71.067,21.297,26.25,
49859300,-0.838,0.289,0.481,63.612,30.485,24.237,
49859310,-0.988,0.259,0.46,53.305,32.742,26.005,
49859320,-0.967,0.249,0.418,43.12,29.575,25.182,
49859330,-0.966,0.204,0.398,39.882,22.68,32.235,
49859340,-0.95,0.229,0.402,36.592,18.322,41.615,
49859350,-0.943,0.288,0.415,31.097,18.952,43.627,
49859360,-0.987,0.301,0.399,23.117,21.98,42.367,
49859370,-1.012,0.27,0.377,15.54,19.915,40.46,
49859380,-0.953,0.276,0.374,10.22,15.295,37.852,
49859390,-0.923,0.286,0.34,8.242,10.097,40.95,
49859400,-0.88,0.335,0.36,8.382,8.645,43.12,
49859410,-0.899,0.405,0.38,0.717,9.45,41.615,
49859420,-0.89,0.401,0.363,-13.842,11.34,35.857,
49859430,-0.852,0.382,0.336,-24.937,13.177,27.527,
49859440,-0.826,0.317,0.31,-35.035,15.277,19.95,
49859450,-0.844,0.177,0.251,-35.735,13.072,13.475,
49859460,-0.762,0.245,0.27,-22.995,12.285,5.985,
49859470,-0.784,0.293,0.288,-13.422,11.235,7.612,
49859480,-0.815,0.319,0.288,-9.73,13.475,10.465,
49859490,-0.854,0.316,0.31,-7,15.155,11.2,
49859500,-0.863,0.313,0.304,-9.975,16.747,9.66,
49859510,-0.874,0.315,0.312,-11.112,17.027,6.877,
49859520,-0.869,0.312,0.303,-12.162,17.185,5.985,
49859530,-0.869,0.309,0.305,-14.245,17.01,5.512,
49859540,-0.899,0.279,0.294,-16.257,17.202,4.865,
49859550,-0.918,0.255,0.286,-14.35,16.52,4.34,
49859560,-0.945,0.256,0.286,-10.377,15.557,4.55,
49859570,-0.982,0.27,0.317,-7.455,10.202,4.41,
49859580,-0.977,0.277,0.304,-4.165,5.372,4.48,
49859580,-0.94,0.297,0.301,-0.682,0.455,5.145,
49859600,-0.951,0.287,0.295,-2.485,-2.135,5.792,
49859600,-0.953,0.274,0.284,-3.027,-3.885,6.667,
49859620,-0.949,0.274,0.295,-1.067,-4.305,10.325,
49859620,-0.965,0.262,0.309,-1.155,-3.937,13.79,
49859640,-0.97,0.234,0.32,0.945,-7,12.652,
49859640,-0.906,0.312,0.353,6.632,-10.115,8.05,
49859660,-0.937,0.337,0.371,6.055,-13.65,7.542,
49859660,-0.952,0.265,0.354,3.657,-21.087,8.067,
49859670,-0.82,0.282,0.379,9.502,-26.547,6.352,
49859680,-0.797,0.341,0.401,10.535,-25.025,7.402,
49859690,-0.885,0.29,0.395,6.317,-23.117,9.38,
49859700,-0.882,0.253,0.397,9.327,-25.077,10.867,
49859710,-0.938,0.279,0.421,13.825,-31.552,13.142,
49859720,-0.95,0.285,0.415,14.857,-42.98,13.23,
49859730,-0.873,0.297,0.401,19.092,-49.542,11.287,
49859740,-0.882,0.329,0.415,20.142,-48.825,9.362,
49859750,-0.936,0.311,0.385,13.422,-48.44,7.437,
49859760,-0.943,0.284,0.368,10.745,-47.81,6.807,
49859770,-0.926,0.301,0.37,8.505,-48.387,8.312,
49859780,-0.914,0.315,0.345,3.57,-47.67,9.03,
49859790,-0.822,0.271,0.391,-1.785,-37.87,12.022,
49859800,-1.023,0.235,0.394,-2.782,-30.52,14,
49859810,-0.891,0.358,0.413,-2.257,-32.077,5.792,
49859820,-0.837,0.314,0.398,-5.04,-28.087,5.95,
49859830,-0.877,0.261,0.392,-6.405,-23.852,5.862,
49859840,-0.835,0.294,0.404,-4.217,-19.302,2.065,
49859850,-0.82,0.303,0.406,-1.68,-15.767,0.052,
49859860,-0.809,0.31,0.407,-0.14,-11.182,-1.96,
49859870,-0.802,0.32,0.409,0.962,-7.385,-4.655,
49859880,-0.82,0.332,0.408,1.015,-4.217,-7.455,
49859890,-0.832,0.331,0.411,-0.962,-4.48,-10.517,
49859900,-0.78,0.36,0.408,-1.54,-0.192,-12.67,
49859910,-0.871,0.334,0.426,-4.48,3.255,-10.377,
49859920,-0.848,0.297,0.394,-6.912,2.31,-8.347,
49859930,-0.831,0.29,0.406,-4.515,3.132,-4.427,
49859940,-0.839,0.282,0.376,-3.867,4.76,-0.192,
49859950,-0.886,0.265,0.413,-0.455,4.55,0.525,
49859960,-0.864,0.309,0.388,-0.035,0.525,-0.227,
49859970,-0.824,0.331,0.368,0.857,1.382,3.552,
49859980,-0.827,0.318,0.384,0.192,6.807,4.2,
49859980,-0.906,0.342,0.39,-6.265,10.29,2.292,
49860000,-0.943,0.261,0.358,-11.69,6.807,4.042,
49860000,-0.851,0.293,0.368,-9.94,-0.49,3.412,
49860010,-0.839,0.336,0.359,-13.387,-7.682,4.462,
49860020,-0.881,0.277,0.325,-17.57,-11.55,9.292,
49860030,-0.777,0.257,0.353,-14.577,-9.205,16.222,
49860040,-1.045,0.197,0.408,-10.15,-12.512,21.542,
49860050,-0.827,0.294,0.432,-3.85,-18.655,11.76,
49860060,-0.782,0.302,0.457,-0.42,-18.48,10.762,
49860070,-0.867,0.309,0.461,-2.047,-15.172,11.48,
49860080,-0.845,0.315,0.472,-2.572,-12.022,6.702,
49860090,-0.844,0.275,0.461,-3.727,-8.26,2.677,
49860100,-0.831,0.27,0.453,-0.997,-1.225,-0.98,
49860110,-0.812,0.28,0.463,3.57,8.785,-3.657,
49860120,-0.856,0.281,0.448,6.667,18.655,-5.25,
49860130,-0.925,0.286,0.43,9.887,23.922,-6.16,
49860140,-0.966,0.304,0.426,13.79,23.03,-5.442,
49860150,-0.963,0.325,0.409,14.735,17.517,-4.9,
49860160,-0.931,0.33,0.387,13.317,12.372,-5.11,
49860170,-0.87,0.351,0.372,10.71,10.57,-4.76,
49860180,-0.87,0.339,0.373,8.05,12.495,-2.502,
49860190,-0.857,0.336,0.369,3.815,14.612,-1.785,
49860200,-0.848,0.322,0.361,1.137,17.815,-1.575,
49860210,-0.873,0.28,0.349,0.21,19.442,-1.085,
49860220,-0.887,0.267,0.339,2.8,18.147,-1.82,
49860230,-0.899,0.28,0.334,7,13.265,-2.03,
49860240,-0.897,0.3,0.338,9.975,6.93,-1.277,
49860250,-0.929,0.337,0.363,10.675,-2.45,0.42,
49860260,-0.902,0.34,0.375,9.082,-12.197,4.62,
49860270,-0.903,0.316,0.392,9.555,-20.527,14.437,
49860280,-0.944,0.29,0.406,10.797,-29.015,26.267,
49860290,-0.841,0.29,0.416,15.312,-31.342,33.495,
49860300,-0.827,0.295,0.42,18.97,-25.83,35.595,
49860310,-0.817,0.326,0.429,20.317,-15.592,30.45,
49860320,-0.851,0.356,0.405,19.95,-5.495,24.255,
49860330,-0.828,0.344,0.376,17.832,3.867,17.377,
49860330,-0.849,0.349,0.351,17.85,11.62,12.005,
49860350,-0.893,0.375,0.351,17.692,16.852,10.22,
49860350,-0.894,0.389,0.353,16.957,19.6,10.867,
49860370,-0.907,0.418,0.383,16.345,24.99,13.86,
49860370,-0.99,0.416,0.4,13.58,30.835,14.892,
49860390,-1.007,0.403,0.39,10.377,31.22,11.025,
49860390,-1.01,0.382,0.395,8.522,26.897,8.487,
49860410,-1.051,0.37,0.393,6.51,15.925,4.97,
49860410,-0.9,0.428,0.366,2.082,-0.612,-2.835,
49860420,-0.748,0.406,0.343,-5.775,-7.262,-3.675,
49860430,-0.738,0.318,0.295,-11.76,-4.76,-0.315,
49860440,-0.783,0.319,0.304,-10.972,-1.032,5.04,
49860450,-0.852,0.326,0.316,-10.29,-1.05,9.887,
49860460,-0.875,0.326,0.336,-8.26,-3.132,8.785,
49860470,-0.917,0.335,0.348,-5.355,-9.31,6.37,
49860480,-0.935,0.364,0.384,-1.067,-18.287,4.392,
49860490,-0.955,0.376,0.415,0.402,-28.892,4.025,
49860500,-0.973,0.367,0.442,1.645,-40.722,3.202,
49860510,-0.95,0.359,0.442,4.725,-55.037,4.655,
49860520,-0.806,0.375,0.454,9.712,-62.842,8.925,
49860530,-0.723,0.387,0.468,11.672,-58.747,10.255,
49860540,-0.714,0.386,0.444,8.137,-46.165,7.105,
49860550,-0.728,0.379,0.421,5.617,-32.97,3.587,
49860560,-0.744,0.369,0.401,2.677,-22.015,3.972,
49860570,-0.751,0.37,0.381,0.525,-14.087,4.06,
49860580,-0.777,0.367,0.365,-2.73,-7.455,3.43,
49860590,-0.802,0.368,0.367,-4.847,-3.412,2.467,
49860600,-0.811,0.377,0.373,-7.192,-0.962,2.065,
49860610,-0.804,0.387,0.392,-9.957,-1.015,0.735,
49860620,-0.755,0.419,0.416,-15.05,-1.505,-1.312,
49860630,-0.708,0.44,0.438,-20.125,-1.26,-3.727,
49860640,-0.661,0.438,0.439,-27.405,2.467,-7.402,
49860650,-0.656,0.421,0.432,-35.367,7.822,-12.775,
49860660,-0.729,0.397,0.427,-41.912,9.747,-18.48,
49860670,-0.784,0.402,0.43,-45.762,4.62,-25.077,
49860670,-0.764,0.433,0.445,-48.667,-1.365,-29.68,
49860690,-0.751,0.439,0.466,-53.777,-3.85,-31.885,
49860690,-0.779,0.413,0.463,-62.405,-1.47,-35.297,
49860710,-0.754,0.388,0.449,-70.105,8.785,-42.175,
49860710,-0.99,0.412,0.609,-82.04,17.92,-53.532,
49860730,-1.049,0.284,0.483,-96.53,-1.102,-67.795,
49860730,-0.746,0.221,0.492,-80.972,-1.715,-70.455,
49860750,-0.785,0.21,0.532,-69.335,4.427,-60.777,
49860750,-0.897,0.163,0.527,-65.87,6.545,-58.187,
49860760,-0.909,0.164,0.542,-49.805,-3.272,-61.215,
49860770,-0.907,0.106,0.595,-32.217,-14.105,-59.272,
49860780,-0.93,0.097,0.63,-16.537,-25.795,-61.355,
49860790,-0.924,0.131,0.655,-2.222,-40.967,-66.447,
49860800,-0.865,0.141,0.659,8.995,-51.31,-68.425,
49860810,-0.831,0.111,0.637,19.127,-53.655,-70.175,
49860820,-0.8,0.091,0.617,28.612,-48.772,-76.877,
49860830,-0.78,0.079,0.596,36.715,-39.217,-85.872,
49860840,-0.78,0.056,0.567,44.957,-27.79,-94.115,
49860850,-0.789,0.048,0.557,52.762,-19.442,-99.225,
49860860,-0.805,0.062,0.542,57.767,-14.525,-100.957,
49860870,-0.837,0.067,0.528,58.94,-13.405,-100.1,
49860880,-0.875,0.053,0.506,56.98,-14.752,-98.647,
49860890,-0.903,0.051,0.503,54.39,-18.637,-99.522,
49860900,-0.948,0.042,0.481,45.78,-25.2,-101.622,
49860910,-0.989,0.011,0.456,35.63,-35.98,-106.295,
49860920,-0.986,-0.003,0.419,26.6,-48.195,-112.945,
49860930,-0.968,-0.036,0.416,22.837,-61.827,-117.67,
49860940,-0.933,-0.036,0.41,17.867,-73.832,-119.682,
49860950,-0.897,-0.027,0.43,12.635,-83.877,-118.212,
49860960,-0.872,-0.028,0.422,4.795,-91.227,-113.61,
49860970,-0.859,-0.053,0.451,2.047,-97.055,-106.662,
49860980,-0.864,-0.057,0.482,0.525,-101.955,-97.562,
49860990,-0.888,-0.065,0.509,-0.875,-109.182,-87.85,
49861000,-0.907,-0.067,0.539,-0.787,-117.25,-78.82,
49861010,-0.916,-0.07,0.547,0.332,-127.277,-74.602,
49861020,-0.872,-0.068,0.531,3.885,-134.592,-73.885,
49861030,-0.792,-0.076,0.537,9.257,-135.345,-73.57,
49861040,-0.718,-0.059,0.539,10.185,-128.555,-74.095,
49861050,-0.686,-0.035,0.553,8.382,-118.212,-73.535,
49861060,-0.665,-0.029,0.543,4.147,-104.58,-71.977,
49861070,-0.664,-0.031,0.542,3.377,-90.685,-67.182,
49861080,-0.695,-0.041,0.545,3.937,-78.102,-59.097,
49861080,-0.752,-0.018,0.559,5.652,-70.805,-49.157,
49861100,-0.817,0.005,0.579,3.202,-70.927,-38.605,
49861100,-0.874,0.006,0.583,-4.182,-78.505,-27.142,
49861120,-0.901,-0.007,0.55,-12.162,-90.317,-15.767,
49861120,-0.913,-0.035,0.562,-13.702,-103.687,-0.42,
49861140,-0.893,-0.016,0.574,-20.09,-117.057,16.905,
49861140,-0.849,0.006,0.577,-30.782,-128.537,30.31,
49861160,-0.782,0.014,0.59,-41.51,-134.715,39.917,
49861160,-0.724,0.029,0.621,-54.6,-137.077,49.07,
49861170,-0.685,0.036,0.659,-73.552,-136.535,56.56,
49861180,-0.678,-0.004,0.682,-93.817,-133.84,60.882,
49861190,-0.673,-0.063,0.698,-109.725,-130.987,60.935,
49861200,-0.64,-0.14,0.706,-118.317,-128.362,59.342,
49861210,-0.589,-0.207,0.728,-118.702,-123.34,55.16,
49861220,-0.554,-0.249,0.778,-112.507,-117.547,47.355,
49861230,-0.538,-0.277,0.8,-103.495,-112.157,37.467,
49861240,-0.521,-0.311,0.813,-89.04,-106.75,25.445,
49861250,-0.494,-0.32,0.847,-71.662,-101.57,10.937,
49861260,-0.473,-0.309,0.893,-60.2,-98.997,-0.472,
49861270,-0.461,-0.315,0.898,-55.65,-100.992,-6.86,
49861280,-0.423,-0.345,0.878,-50.452,-105.245,-11.34,
49861290,-0.361,-0.389,0.881,-39.742,-108.552,-14.07,
49861300,-0.287,-0.37,0.92,-31.027,-110.39,-12.827,
49861310,-0.311,-0.436,0.906,-24.15,-112.63,-3.045,
49861320,-0.255,-0.437,0.933,-6.02,-113.61,-2.135,
49861330,-0.204,-0.383,0.961,-1.697,-110.565,-11.357,
49861340,-0.22,-0.394,0.977,-0.717,-109.06,-11.235,
49861350,-0.192,-0.411,0.978,1.05,-107.905,-13.807,
49861360,-0.115,-0.414,0.968,3.062,-104.422,-15.12,
49861370,-0.022,-0.413,0.981,5.617,-96.512,-13.212,
49861380,0.132,-0.626,1.039,6.387,-78.067,-5.075,
49861390,0.111,-0.611,0.918,25.217,-48.702,-0.297,
49861400,-0.01,-0.427,1.094,60.182,-14.682,-4.2,
49861410,-0.108,-0.337,1.13,62.842,-1.785,0.752,
49861420,-0.076,-0.325,1.099,56.822,10.36,7.087,
49861420,-0.043,-0.262,1.056,49.682,17.517,11.812,
49861440,-0.169,-0.277,1.078,30.047,24.762,21.402,
49861440,-0.179,-0.353,0.993,12.057,34.09,18.9,
49861460,-0.047,-0.397,0.902,10.027,47.95,10.395,
49861460,-0.081,-0.392,0.908,21.297,65.992,10.412,
49861480,-0.204,-0.362,0.909,27.895,80.587,16.415,
49861480,-0.27,-0.325,0.924,35.577,86.922,16.485,
49861500,-0.28,-0.276,0.927,43.085,87.412,12.775,
49861500,-0.324,-0.234,0.946,47.547,82.215,14.42,
49861510,-0.348,-0.19,0.951,49.402,73.71,13.457,
49861520,-0.323,-0.148,0.946,46.97,66.587,8.505,
49861530,-0.286,-0.126,0.92,42.927,62.632,3.202,
49861540,-0.259,-0.101,0.913,38.29,63.332,1.225,
49861550,-0.238,-0.088,0.884,29.452,67.795,1.19,
49861560,-0.232,-0.066,0.872,21.49,76.737,0,
49861570,-0.267,-0.065,0.852,13.335,85.435,1.802,
49861580,-0.303,-0.072,0.846,6.737,93.292,4.69,
49861590,-0.348,-0.105,0.821,-0.192,98.367,6.86,
49861600,-0.394,-0.141,0.802,-2.52,100.467,6.422,
49861610,-0.449,-0.158,0.804,1.557,98.35,8.015,
49861620,-0.514,-0.197,0.784,10.167,91.647,13.37,
49861630,-0.455,-0.107,0.857,18.427,84.192,9.625,
49861640,-0.453,-0.099,0.827,9.012,82.495,4.252,
49861650,-0.458,-0.108,0.802,4.55,83.335,-1.155,
49861660,-0.531,-0.162,0.804,12.232,84.28,6.142,
49861670,-0.588,-0.122,0.82,18.532,78.785,16.03,
49861680,-0.595,-0.088,0.823,16.782,73.395,10.045,
49861690,-0.594,-0.093,0.818,13.685,68.162,8.715,
49861700,-0.594,-0.123,0.793,8.68,65.065,10.92,
49861710,-0.62,-0.135,0.781,8.137,61.005,10.692,
49861720,-0.645,-0.129,0.786,9.397,55.282,9.415,
49861730,-0.657,-0.131,0.78,10.132,47.145,8.575,
49861740,-0.652,-0.117,0.783,10.57,40.092,6.667,
49861750,-0.668,-0.097,0.797,8.802,32.165,4.165,
49861760,-0.678,-0.089,0.794,4.112,23.222,1.732,
49861770,-0.674,-0.117,0.772,0.157,14.472,0.507,
49861780,-0.648,-0.114,0.774,-0.98,7.7,0.665,
49861790,-0.607,-0.119,0.759,-5.022,4.112,0.227,
49861800,-0.554,-0.114,0.769,-8.575,6.807,0.245,
49861810,-0.517,-0.118,0.752,-16.59,15.05,1.435,
49861820,-0.584,-0.208,0.743,-13.737,24.482,8.54,
49861830,-0.604,-0.179,0.794,-3.797,32.392,8.785,
49861830,-0.634,-0.147,0.811,-1.05,37.45,8.855,
49861850,-0.669,-0.151,0.821,0.472,40.005,9.152,
49861850,-0.663,-0.159,0.81,3.027,40.635,5.285,
49861870,-0.661,-0.147,0.811,5.74,40.005,2.59,
49861870,-0.654,-0.115,0.793,6.055,39.13,1.032,
49861890,-0.646,-0.111,0.77,6.16,38.605,1.172,
49861890,-0.638,-0.115,0.756,6.16,39.235,2.135,
49861910,-0.64,-0.123,0.738,5.897,40.932,3.622,
49861910,-0.646,-0.122,0.731,5.005,43.68,6.072,
49861920,-0.644,-0.129,0.732,2.555,48.177,9.922,
49861930,-0.684,-0.161,0.701,1.47,51.852,13.422,
49861940,-0.748,-0.163,0.727,1.33,51.24,13.422,
49861950,-0.79,-0.154,0.741,2.975,45.727,12.547,
49861960,-0.765,-0.169,0.725,4.34,37.975,12.215,
49861970,-0.727,-0.156,0.72,7.017,32.06,9.415,
49861980,-0.729,-0.13,0.728,9.835,28.21,7.35,
49861990,-0.733,-0.111,0.726,10.99,24.01,5.46,
49862000,-0.718,-0.093,0.715,12.145,20.44,3.097,
49862010,-0.688,-0.071,0.699,12.547,18.06,1.172,
49862020,-0.68,-0.053,0.683,10.57,18.042,-0.21,
49862030,-0.695,-0.04,0.669,8.942,18.375,-1.627,
49862040,-0.751,-0.018,0.67,6.527,14.052,-4.2,
49862050,-0.657,-0.053,0.634,0.612,12.232,-5.355,
49862060,-0.601,-0.091,0.603,0.35,21.927,-7.682,
49862070,-0.676,-0.098,0.614,3.517,30.415,-9.152,
49862080,-0.726,-0.09,0.629,5.477,36.837,-5.442,
49862090,-0.765,-0.087,0.646,7.35,39.882,-2.292,
49862100,-0.803,-0.08,0.665,7.787,40.162,-1.067,
49862110,-0.812,-0.076,0.666,6.667,37.905,0.332,
49862120,-0.813,-0.076,0.663,5.092,36.102,2.17,
49862130,-0.798,-0.086,0.654,1.942,35.962,1.732,
49862140,-0.778,-0.104,0.635,-0.665,40.197,-0.245,
49862150,-0.765,-0.111,0.621,-1.977,47.25,-3.307,
49862160,-0.811,-0.11,0.618,-3.377,54.25,-5.705,
49862170,-0.855,-0.136,0.603,-4.392,56.84,-8.942,
49862170,-0.86,-0.151,0.589,-2.975,56.367,-12.932,
49862190,-0.832,-0.122,0.59,-0.927,54.18,-14.717,
49862190,-0.832,-0.099,0.591,-0.945,51.345,-13.107,
49862210,-0.842,-0.104,0.575,-2.712,47.722,-9.922,
49862210,-0.827,-0.112,0.564,-3.342,43.907,-6.527,
49862230,-0.825,-0.125,0.549,-2.765,40.127,-3.727,
49862230,-0.828,-0.133,0.546,-1.715,38.08,-3.185,
49862250,-0.83,-0.132,0.547,2.065,35.857,-1.19,
49862250,-0.829,-0.108,0.554,5.372,32.637,-1.26,
49862260,-0.836,-0.094,0.553,8.015,28.7,-0.402,
49862270,-0.829,-0.089,0.548,9.59,24.692,0.56,
49862280,-0.823,-0.082,0.545,10.762,21.472,2.222,
49862290,-0.84,-0.076,0.549,10.885,18.532,3.027,
49862300,-0.862,-0.079,0.539,11.392,14.612,2.975,
49862310,-0.859,-0.09,0.537,12.267,10.255,1.365,
49862320,-0.849,-0.093,0.536,14.21,6.947,-0.822,
49862330,-0.85,-0.084,0.537,15.96,4.69,-2.502,
49862340,-0.853,-0.083,0.533,15.277,3.85,-2.94,
49862350,-0.823,-0.094,0.526,14.962,5.442,-3.325,
49862360,-0.851,-0.102,0.541,15.137,7.472,-2.502,
49862370,-0.866,-0.102,0.543,14.542,7.595,-1.925,
49862380,-0.826,-0.113,0.55,15.872,10.202,-3.99,
49862390,-0.885,-0.137,0.555,14.91,11.48,-5.355,
49862400,-0.924,-0.117,0.552,15.102,9.327,-9.065,
49862410,-0.916,-0.127,0.547,15.47,3.972,-15.365,
49862420,-0.869,-0.172,0.53,18.077,1.592,-23.432,
49862430,-0.812,-0.177,0.525,25.042,3.377,-30.712,
49862440,-0.808,-0.156,0.502,32.34,8.557,-32.41,
49862450,-0.803,-0.145,0.493,38.482,12.827,-28.052,
49862460,-0.871,-0.157,0.512,44.292,14.49,-18.007,
49862470,-0.956,-0.177,0.518,48.93,10.15,-11.077,
49862480,-0.968,-0.152,0.533,52.92,1.592,-10.377,
49862490,-0.957,-0.119,0.532,54.635,-9.677,-10.692,
49862500,-0.942,-0.106,0.525,56.21,-20.492,-9.66,
49862510,-0.9,-0.092,0.505,56.472,-30.205,-7.752,
49862520,-0.79,-0.061,0.487,56.875,-33.337,-5.32,
49862530,-0.707,-0.001,0.507,55.265,-26.355,-1.347,
49862540,-0.746,0.04,0.53,47.74,-15.347,3.902,
49862550,-0.826,0.063,0.55,35.805,-6.545,6.195,
49862560,-0.879,0.03,0.553,23.502,-3.692,6.51,
49862570,-0.868,0.003,0.536,13.895,-4.48,4.76,
49862580,-0.886,-0.027,0.519,6.79,-6.702,2.135,
49862580,-0.91,-0.089,0.493,3.43,-12.215,0.822,
49862600,-0.882,-0.158,0.477,7.455,-19.075,-0.542,
49862600,-0.857,-0.155,0.494,18.532,-25.83,-0.297,
49862620,-0.749,-0.077,0.504,30.012,-27.755,0.367,
49862620,-0.721,0,0.533,31.675,-20.982,3.395,
49862640,-0.709,-0.067,0.553,28.735,-10.08,9.047,
49862640,-0.722,-0.126,0.562,31.745,3.955,12.792,
49862660,-0.752,-0.075,0.605,37.205,16.607,14.927,
49862660,-0.852,-0.048,0.626,38.885,23.712,19.792,
49862670,-0.944,-0.106,0.62,39.112,21.577,22.19,
49862680,-0.831,-0.148,0.58,47.547,20.072,19.267,
49862690,-0.92,-0.064,0.608,56.595,19.11,17.71,
49862700,-0.846,-0.054,0.557,60.27,16.537,16.345,
49862710,-0.792,0.006,0.521,65.695,17.745,16.8,
49862720,-0.789,0.084,0.517,63.262,21.28,18.882,
49862730,-0.801,0.096,0.506,54.932,29.452,19.81,
49862740,-0.854,0.08,0.484,45.22,35.07,18.952,
49862750,-0.918,0.07,0.46,38.57,33.145,18.182,
49862760,-0.905,0.076,0.457,33.18,25.462,18.077,
49862770,-0.881,0.078,0.457,27.422,17.5,20.317,
49862780,-0.865,0.06,0.467,24.465,12.407,21.857,
49862790,-0.84,0.041,0.484,24.097,9.8,23.362,
49862800,-0.896,0.039,0.511,25.917,8.54,26.285,
49862810,-0.916,0.022,0.545,29.54,4.847,27.475,
49862820,-0.835,0.052,0.581,36.452,3.377,24.832,
49862830,-0.876,0.163,0.637,41.562,6.125,23.887,
49862840,-0.932,0.204,0.656,38.29,8.172,23.275,
49862850,-0.894,0.182,0.628,31.447,8.207,19.285,
49862860,-0.86,0.152,0.591,25.865,10.062,16.485,
49862870,-0.835,0.101,0.547,23.66,13.65,15.627,
49862880,-0.834,0.055,0.51,24.867,18.41,13.492,
49862890,-0.849,0.073,0.49,28.21,21.437,13.475,
49862900,-0.915,0.075,0.474,31.01,21.385,15.802,
49862910,-0.903,0.08,0.454,34.247,16.152,17.57,
49862920,-0.875,0.148,0.466,39.882,11.812,20.212,
49862920,-0.956,0.169,0.481,38.745,7.245,25.515,
49862940,-0.893,0.174,0.452,34.177,0.682,23.205,
49862940,-0.811,0.22,0.435,28.752,-0.577,18.252,
49862960,-0.771,0.226,0.405,17.377,2.66,14.752,
49862960,-0.781,0.219,0.386,6.44,8.96,12.792,
49862980,-0.843,0.176,0.359,-2.537,12.442,13.387,
49862980,-0.856,0.127,0.35,-6.405,11.55,14.157,
49863000,-0.873,0.124,0.374,-5.005,8.277,17.01,
49863000,-0.883,0.131,0.401,-2.31,2.887,23.187,
49863010,-0.92,0.153,0.445,1.732,-1.54,31.272,
49863020,-1.056,0.13,0.485,3.92,-8.12,39.882,
49863030,-1.039,0.111,0.495,9.292,-20.79,40.32,
49863040,-0.963,0.149,0.515,17.465,-32.06,37.922,
49863050,-0.941,0.183,0.517,22.592,-39.55,35.91,
49863060,-0.903,0.2,0.514,26.687,-43.96,33.985,
49863070,-0.872,0.172,0.504,30.38,-47.775,33.862,
49863080,-0.874,0.162,0.494,35.56,-51.467,36.12,
49863090,-0.907,0.165,0.491,41.877,-58.712,42.857,
49863100,-0.927,0.183,0.492,48.352,-68.845,51.555,
49863110,-0.945,0.189,0.484,52.955,-82.11,59.762,
49863120,-0.929,0.198,0.469,56.647,-97.457,69.09,
49863130,-0.839,0.247,0.474,60.62,-110.022,78.592,
49863140,-0.799,0.279,0.486,60.392,-114.8,85.785,
49863150,-0.762,0.293,0.493,56.315,-114.047,87.272,
49863160,-0.71,0.299,0.51,51.905,-107.1,84.367,
49863170,-0.741,0.292,0.531,48.212,-100.152,80.605,
49863180,-0.748,0.313,0.549,47.372,-96.565,77.875,
49863190,-0.72,0.337,0.574,49.087,-95.375,76.475,
49863200,-0.709,0.386,0.608,50.312,-93.222,74.952,
49863210,-0.69,0.426,0.622,49.122,-90.632,70.805,
49863220,-0.651,0.461,0.632,45.587,-83.755,64.47,
49863230,-0.613,0.457,0.632,40.022,-74.9,57.452,
49863240,-0.589,0.446,0.628,35.28,-63.63,51.1,
49863250,-0.573,0.442,0.625,32.725,-52.885,46.217,
49863260,-0.577,0.435,0.629,31.132,-44.135,42.91,
49863270,-0.576,0.489,0.628,30.747,-40.18,39.777,
49863280,-0.552,0.438,0.644,28.647,-39.112,38.902,
49863290,-0.579,0.474,0.642,30.957,-42.49,39.497,
49863300,-0.514,0.539,0.68,31.29,-46.865,40.407,
49863310,-0.541,0.485,0.67,26.425,-47.827,42.402,
49863320,-0.529,0.529,0.688,26.215,-48.282,43.26,
49863330,-0.511,0.534,0.698,23.327,-45.097,42.665,
49863330,-0.542,0.501,0.682,18.48,-39.13,41.212,
49863340,-0.537,0.496,0.666,16.45,-33.162,37.572,
49863350,-0.541,0.489,0.654,15.19,-27.632,33.057,
49863360,-0.532,0.501,0.631,13.755,-22.505,29.487,
49863370,-0.527,0.49,0.61,12.687,-17.447,26.687,
49863380,-0.521,0.468,0.597,12.022,-11.882,24.482,
49863390,-0.546,0.467,0.597,13.072,-8.417,22.715,
49863400,-0.554,0.487,0.609,15.4,-6.51,20.23,
49863410,-0.586,0.506,0.622,16.59,-6.912,17.71,
49863420,-0.582,0.53,0.631,16.607,-9.082,16.065,
49863430,-0.561,0.542,0.641,16.187,-10.622,15.417,
49863440,-0.564,0.557,0.65,14.875,-10.64,15.225,
49863450,-0.559,0.566,0.655,13.615,-10.92,15.26,
49863460,-0.549,0.57,0.661,13.44,-10.762,15.697,
49863470,-0.544,0.577,0.664,13.86,-10.517,15.557,
49863480,-0.538,0.585,0.666,13.807,-9.572,14.682,
49863490,-0.543,0.583,0.661,13.16,-10.115,13.09,
49863500,-0.549,0.569,0.645,11.83,-12.582,11.987,
49863510,-0.536,0.565,0.637,10.657,-18.077,12.74,
49863520,-0.503,0.535,0.62,9.66,-22.662,15.102,
49863530,-0.48,0.523,0.615,10.412,-26.057,17.937,
49863540,-0.463,0.538,0.626,11.007,-26.057,20.23,
49863550,-0.442,0.547,0.636,10.097,-23.082,20.982,
49863560,-0.457,0.554,0.648,8.697,-18.305,20.702,
49863570,-0.469,0.552,0.654,7.577,-15.417,18.48,
49863580,-0.468,0.567,0.662,7.752,-12.512,15.242,
49863590,-0.482,0.578,0.662,8.225,-9.922,12.425,
49863600,-0.497,0.582,0.656,8.137,-8.155,9.485,
49863610,-0.48,0.591,0.645,7.822,-7.892,6.23,
49863620,-0.451,0.587,0.63,7.105,-4.602,3.412,
49863630,-0.452,0.585,0.627,5.757,0.385,1.242,
49863640,-0.456,0.597,0.63,4.427,6.265,-1.295,
49863650,-0.458,0.595,0.635,2.87,12.442,-4.357,
49863660,-0.489,0.591,0.637,1.067,18.375,-7.682,
49863670,-0.527,0.578,0.634,0.367,20.09,-9.782,
49863670,-0.561,0.556,0.633,1.592,17.395,-8.382,
49863690,-0.571,0.566,0.632,4.48,9.922,-4.48,
49863690,-0.532,0.569,0.625,6.667,2.362,0.14,
49863710,-0.505,0.568,0.624,7.735,-2.047,3.675,
49863710,-0.49,0.574,0.621,7.525,-3.115,4.375,
49863730,-0.466,0.569,0.61,6.93,-1.942,2.975,
49863730,-0.454,0.566,0.608,6.142,0.577,0.927,
49863750,-0.491,0.565,0.61,4.515,2.835,-2.03,
49863750,-0.477,0.577,0.618,3.5,3.132,-4.077,
49863760,-0.504,0.57,0.624,2.765,4.48,-4.007,
49863770,-0.554,0.569,0.627,1.54,4.357,-3.902,
49863780,-0.58,0.572,0.625,1.487,1.557,-2.66,
49863790,-0.575,0.574,0.62,2.135,-2.87,-0.717,
49863800,-0.534,0.58,0.618,2.187,-4.672,-0.175,
49863810,-0.527,0.58,0.616,2.135,-3.745,0,
49863820,-0.5,0.584,0.618,2.677,-1.137,-0.945,
49863830,-0.489,0.596,0.629,2.975,2.1,-1.347,
49863840,-0.511,0.602,0.634,2.38,5.792,-0.437,
49863850,-0.555,0.606,0.634,2.31,6.422,-0.052,
49863860,-0.561,0.614,0.633,2.31,4.637,0.052,
49863870,-0.558,0.59,0.621,2.467,2.38,0.752,
49863880,-0.569,0.592,0.624,3.15,1.032,1.522,
49863890,-0.566,0.611,0.624,2.625,-1.557,1.89,
49863900,-0.523,0.6,0.612,0.42,-2.905,1.592,
49863910,-0.508,0.575,0.605,-1.452,-2.957,0.875,
49863920,-0.524,0.57,0.599,-2.17,-3.552,0.7,
49863930,-0.514,0.585,0.617,-1.785,-6.195,0.7,
49863940,-0.536,0.593,0.626,-2.992,-8.96,0.752,
49863950,-0.538,0.62,0.639,-5.127,-11.182,-0.577,
49863960,-0.599,0.623,0.647,-9.66,-13.09,-2.502,
49863970,-0.635,0.621,0.635,-16.257,-18.34,-8.032,
49863980,-0.53,0.614,0.621,-23.17,-19.74,-15.68,
49863990,-0.462,0.54,0.608,-29.75,-13.002,-18.655,
49864000,-0.483,0.446,0.593,-32.41,-2.31,-15.155,
49864010,-0.561,0.431,0.612,-26.617,1.26,-6.79,
49864010,-0.608,0.449,0.642,-19.25,-4.322,3.587,
49864030,-0.608,0.515,0.666,-14.035,-14.612,12.775,
49864030,-0.593,0.584,0.702,-13.807,-23.73,19.897,
49864050,-0.599,0.599,0.712,-18.497,-30.222,23.012,
49864050,-0.577,0.639,0.714,-24.482,-35.507,19.267,
49864070,-0.505,0.664,0.714,-33.355,-37.87,12.827,
49864070,-0.454,0.614,0.678,-45.202,-35.892,6.177,
49864080,-0.331,0.463,0.609,-51.222,-24.937,3.78,
49864090,-0.366,0.361,0.631,-40.792,-13.842,14.665,
49864100,-0.551,0.405,0.698,-21.42,-12.18,31.535,
49864110,-0.513,0.524,0.763,0.91,-18.41,37.275,
49864120,-0.507,0.664,0.826,7.612,-27.002,44.992,
49864130,-0.541,0.608,0.795,-0.367,-32.497,51.292,
49864140,-0.483,0.619,0.765,-1.382,-35.857,50.382,
49864150,-0.356,0.604,0.725,-0.297,-34.79,52.815,
49864160,-0.266,0.538,0.688,2.677,-23.52,58.345,
49864170,-0.289,0.538,0.67,7.035,-8.382,60.69,
49864180,-0.366,0.543,0.662,10.587,1.942,57.505,
49864190,-0.367,0.589,0.642,14.21,4.812,50.662,
49864200,-0.341,0.646,0.682,15.452,5.25,41.772,
49864210,-0.281,0.661,0.655,14.227,6.825,32.445,
49864220,-0.259,0.668,0.665,13.65,12.722,28.35,
49864230,-0.293,0.673,0.67,11.235,19.932,24.325,
49864240,-0.282,0.683,0.677,6.965,28.385,17.115,
49864250,-0.277,0.694,0.676,0.962,35.735,11.935,
49864260,-0.307,0.71,0.679,-7.682,42.437,9.922,
49864270,-0.349,0.686,0.676,-17.85,44.975,8.592,
49864280,-0.395,0.631,0.658,-25.952,42.98,6.405,
49864290,-0.436,0.569,0.642,-28.56,34.912,1.382,
49864300,-0.439,0.531,0.619,-26.25,24.237,-6.177,
49864310,-0.394,0.525,0.603,-19.985,14.997,-14.21,
49864320,-0.36,0.568,0.59,-14.91,10.202,-19.705,
49864330,-0.381,0.605,0.602,-16.975,4.637,-23.712,
49864340,-0.338,0.653,0.62,-22.995,6.492,-28.805,
49864350,-0.356,0.692,0.628,-32.427,12.442,-35.122,
49864360,-0.452,0.713,0.626,-48.947,13.387,-42.962,
49864370,-0.493,0.736,0.625,-67.515,9.117,-54.512,
49864380,-0.485,0.748,0.621,-87.535,2.432,-69.422,
49864390,-0.472,0.727,0.611,-109.34,-5.985,-86.17,
49864400,-0.461,0.672,0.597,-129.762,-13.685,-102.27,
49864410,-0.445,0.613,0.575,-146.79,-19.635,-116.83,
49864420,-0.444,0.567,0.574,-161.787,-20.527,-129.885,
49864420,-0.456,0.527,0.591,-177.205,-24.08,-141.382,
49864440,-0.5,0.471,0.6,-189.192,-30.03,-148.242,
49864440,-0.551,0.433,0.64,-197.207,-38.22,-154.77,
49864460,-0.525,0.422,0.647,-204.662,-46.515,-162.575,
49864460,-0.475,0.392,0.677,-212.362,-52.587,-165.357,
49864480,-0.449,0.352,0.682,-222.775,-57.732,-161.7,
49864480,-0.424,0.282,0.698,-232.627,-60.252,-152.075,
49864500,-0.373,0.175,0.672,-241.99,-56.682,-138.46,
49864500,-0.32,0.021,0.663,-243.845,-46.725,-119.997,
49864510,-0.313,-0.124,0.666,-231.945,-33.162,-96.162,
49864520,-0.355,-0.233,0.715,-208.215,-19.6,-68.915,
49864530,-0.437,-0.302,0.776,-178.867,-10.29,-41.475,
49864540,-0.539,-0.354,0.85,-151.112,-6.545,-22.207,
49864550,-0.638,-0.405,0.909,-128.187,-10.832,-16.625,
49864560,-0.708,-0.443,0.939,-107.835,-24.447,-23.222,
49864570,-0.741,-0.425,0.966,-86.432,-46.497,-36.365,
49864580,-0.723,-0.37,0.995,-66.29,-72.397,-50.242,
49864590,-0.645,-0.309,1.001,-52.15,-95.777,-63.07,
49864600,-0.52,-0.244,0.991,-46.567,-110.565,-72.415,
49864610,-0.409,-0.208,0.978,-46.305,-115.762,-73.08,
49864620,-0.305,-0.203,0.958,-52.097,-108.5,-64.295,
49864630,-0.22,-0.216,0.933,-60.252,-92.592,-48.772,
49864640,-0.179,-0.237,0.916,-64.592,-70.805,-27.265,
49864650,-0.188,-0.25,0.909,-65.222,-45.64,-3.535,
49864660,-0.263,-0.26,0.912,-63.98,-21.297,14.892,
49864670,-0.34,-0.271,0.916,-61.635,-2.782,24.885,
49864680,-0.421,-0.289,0.908,-57.645,9.712,28.192,
49864690,-0.522,-0.3,0.905,-50.627,11.795,25.847,
49864700,-0.603,-0.293,0.912,-43.837,5.022,18.532,
49864710,-0.624,-0.279,0.898,-38.307,-8.977,8.592,
49864720,-0.603,-0.281,0.881,-30.712,-26.162,-0.525,
49864730,-0.554,-0.274,0.858,-22.75,-42.752,-7.682,
49864740,-0.497,-0.268,0.836,-15.435,-54.425,-12.337,
49864750,-0.452,-0.266,0.839,-9.555,-61.092,-13.755,
49864760,-0.406,-0.271,0.835,-4.042,-62.58,-12.775,
49864760,-0.361,-0.259,0.859,0.525,-60.34,-8.277,
49864780,-0.352,-0.25,0.886,1.19,-55.947,-0.997,
49864780,-0.332,-0.242,0.892,-0.14,-50.47,3.57,
49864800,-0.312,-0.241,0.903,-0.805,-43.382,5.827,
49864800,-0.317,-0.246,0.915,-4.112,-36.732,8.05,
49864820,-0.334,-0.261,0.914,-8.82,-31.78,8.452,
49864820,-0.345,-0.282,0.92,-11.252,-29.557,6.352,
49864830,-0.35,-0.302,0.919,-10.972,-30.047,3.045,
49864840,-0.353,-0.306,0.929,-7.822,-32.76,-1.697,
49864850,-0.335,-0.295,0.926,-4.725,-36.942,-7.14,
49864860,-0.298,-0.297,0.913,-2.135,-41.23,-10.797,
49864870,-0.257,-0.3,0.901,0.7,-43.96,-11.077,
49864880,-0.233,-0.297,0.897,3.622,-44.555,-8.802,
49864890,-0.213,-0.267,0.907,4.76,-43.417,-5.46,
49864900,-0.202,-0.254,0.904,2.065,-40.705,-1.277,
49864910,-0.187,-0.249,0.909,-0.542,-36.277,1.19,
49864920,-0.153,-0.236,0.915,-5.442,-28.822,3.832,
49864930,-0.151,-0.236,0.906,-13.3,-20.37,7.647,
49864940,-0.171,-0.237,0.898,-22.54,-12.355,10.587,
49864950,-0.192,-0.253,0.883,-31.097,-6.23,13.545,
49864960,-0.231,-0.295,0.856,-37.765,-1.96,15.277,
49864970,-0.261,-0.326,0.851,-40.582,-0.997,13.86,
49864980,-0.281,-0.35,0.837,-43.925,-2.555,8.4,
49864990,-0.3,-0.373,0.831,-44.59,-7.035,0.017,
49865000,-0.308,-0.409,0.806,-43.33,-13.107,-6.58,
49865010,-0.286,-0.432,0.799,-35.542,-20.055,-12.162,
49865020,-0.284,-0.446,0.807,-24.587,-27.125,-14.14,
49865030,-0.273,-0.448,0.838,-10.937,-33.705,-13.632,
49865040,-0.25,-0.443,0.866,0.017,-38.675,-11.462,
49865050,-0.243,-0.508,0.872,11.707,-42.437,-9.432,
49865060,-0.201,-0.499,0.928,30.52,-42.787,-10.342,
49865070,-0.14,-0.457,0.943,38.762,-40.915,-14.665,
49865080,-0.122,-0.429,0.966,51.24,-35.262,-13.982,
49865090,-0.114,-0.367,1.018,62.72,-29.365,-13.632,
49865100,-0.098,-0.29,1.05,63.787,-24.587,-13.107,
49865110,-0.065,-0.254,1.039,58.152,-17.097,-13.475,
49865120,-0.043,-0.252,1.03,54.757,-7.455,-10.36,
49865130,-0.025,-0.222,1.044,53.462,3.71,-3.972,
49865140,-0.054,-0.184,1.058,51.835,14.945,5.162,
49865150,-0.085,-0.157,1.026,50.155,26.775,13.86,
49865160,-0.152,-0.114,1.013,48.107,38.395,21.945,
49865170,-0.241,-0.065,1.02,41.405,43.435,26.862,
49865170,-0.293,-0.068,0.987,28.665,41.597,25.252,
49865190,-0.314,-0.139,0.91,20.737,36.33,19.215,
49865190,-0.332,-0.223,0.888,30.1,26.232,10.902,
49865210,-0.28,-0.2,0.941,39.497,16.082,3.64,
49865210,-0.304,-0.213,0.958,40.197,3.675,3.395,
49865230,-0.37,-0.248,0.961,47.652,-12.845,2.38,
49865230,-0.315,-0.177,1.044,56.997,-30.31,-3.535,
49865250,-0.32,-0.162,1.084,49.647,-48.912,-4.27,
49865250,-0.302,-0.172,1.064,36.785,-64.295,-10.08,
49865260,-0.2,-0.182,1.039,27.107,-71.592,-20.195,
49865270,-0.09,-0.179,1.02,21.945,-69.597,-25.812,
49865280,-0.046,-0.174,1.017,15.785,-60.34,-25.55,
49865290,0.003,-0.165,0.992,7.14,-44.345,-23.502,
49865300,0.05,-0.146,0.993,-3.027,-21.665,-20.037,
49865310,0.017,-0.146,0.96,-18.97,2.222,-13.247,
49865320,-0.04,-0.154,0.922,-36.697,23.397,-3.272,
49865330,-0.086,-0.166,0.876,-52.552,37.625,8.977,
49865340,-0.164,-0.194,0.836,-66.622,45.342,22.96,
49865350,-0.218,-0.202,0.816,-80.045,47.197,35.227,
49865360,-0.262,-0.196,0.799,-94.027,43.767,47.915,
49865370,-0.307,-0.199,0.791,-106.68,35.805,61.162,
49865380,-0.349,-0.234,0.786,-116.515,24.937,71.627,
49865390,-0.365,-0.315,0.762,-121.975,13.772,74.445,
49865400,-0.348,-0.464,0.701,-112.42,8.085,70,
49865410,-0.321,-0.595,0.688,-83.282,8.907,59.412,
49865420,-0.346,-0.65,0.744,-41.37,9.012,46.917,
49865430,-0.441,-0.674,0.814,7.77,2.467,38.447,
49865440,-0.366,-0.427,0.995,51.03,-10.937,18.147,
49865450,-0.362,-0.314,1.007,75.215,-29.4,6.72,
49865460,-0.372,-0.235,1.02,100.17,-51.117,6.93,
49865470,-0.251,-0.098,1.038,111.247,-68.495,1.242,
49865480,-0.127,0.018,1.045,102.13,-74.025,-4.83,
49865490,-0.032,0.071,1.018,78.347,-64.575,-10.552,
49865500,0.011,0.048,1.007,50.26,-43.225,-15.61,
49865510,0.019,-0.002,0.996,27.09,-19.425,-18.427,
49865510,-0.014,-0.025,1.014,11.025,-0.927,-14.21,
49865530,-0.127,-0.009,1.043,-5.267,8.365,-4.305,
49865530,-0.206,-0.007,1.077,-27.37,7.665,3.517,
49865550,-0.247,-0.068,1.041,-56.262,1.61,8.417,
49865550,-0.269,-0.19,0.986,-81.882,-6.125,9.485,
49865570,-0.262,-0.292,0.913,-96.302,-13.912,5.145,
49865570,-0.201,-0.391,0.792,-100.432,-20.842,-1.522,
49865580,-0.289,-0.618,0.846,-66.43,-31.762,5.862,
49865590,-0.144,-0.523,0.849,-58.677,-36.207,2.1,
49865600,-0.083,-0.52,0.848,-49,-36.277,3.727,
49865610,-0.057,-0.553,0.823,-33.057,-27.142,13.947,
49865620,-0.012,-0.576,0.876,-12.67,-12.985,26.932,
49865630,-0.029,-0.492,0.846,7.07,10.15,33.967,
49865640,-0.137,-0.382,0.915,23.012,27.02,26.985,
49865650,-0.309,-0.26,0.952,23.485,29.925,25.602,
49865660,-0.392,-0.228,0.929,10.762,19.495,25.322,
49865670,-0.381,-0.257,0.865,-1.33,4.69,17.465,
49865680,-0.379,-0.267,0.842,-5.985,-12.915,8.312,
49865690,-0.397,-0.231,0.834,-11.812,-33.197,0.892,
49865700,-0.306,-0.217,0.863,-19.232,-50.085,-7.14,
49865710,-0.102,-0.265,0.874,-17.64,-53.13,-10.465,
49865720,0.038,-0.346,0.979,-0.927,-39.795,-5.197,
49865730,-0.005,-0.379,1.043,16.73,-19.057,7.332,
49865740,-0.119,-0.272,1.079,27.177,-0.402,16.695,
49865750,-0.156,-0.087,1.139,21.577,10.797,15.925,
49865760,-0.332,-0.222,1.137,7.14,8.137,27.79,
49865770,-0.322,-0.275,1.05,-4.182,-0.63,22.767,
49865780,-0.221,-0.26,1.024,-7.14,-6.177,18.13,
49865790,-0.231,-0.27,0.999,-5.6,-10.535,19.74,
49865800,-0.271,-0.287,0.968,-3.167,-14.84,18.497,
49865810,-0.215,-0.303,0.926,-2.59,-19.145,13.615,
49865820,-0.178,-0.31,0.883,2.047,-22.592,10.342,
49865830,-0.178,-0.317,0.872,9.677,-25.69,8.837,
49865840,-0.159,-0.3,0.88,14.595,-26.477,7.35,
49865850,-0.117,-0.277,0.881,17.062,-23.362,4.357,
49865860,-0.103,-0.265,0.9,16.905,-18.27,3.815,
49865870,-0.107,-0.266,0.913,12.092,-11.812,7.42,
49865880,-0.09,-0.278,0.915,6.002,-4.34,11.76,
49865890,-0.065,-0.288,0.932,1.907,3.815,15.96,
49865900,-0.056,-0.293,0.931,-0.945,14.42,19.302,
49865910,-0.075,-0.287,0.928,-2.415,26.04,20.352,
49865920,-0.129,-0.261,0.943,-3.482,33.74,19.232,
49865920,-0.181,-0.24,0.947,-5.722,33.792,18.34,
49865940,-0.231,-0.212,0.952,-9.117,28.927,18.76,
49865940,-0.299,-0.196,0.976,-14.14,16.782,19.915,
49865960,-0.33,-0.196,0.981,-22.522,-0.717,19.53,
49865960,-0.314,-0.215,0.959,-30.537,-20.177,17.22,
49865980,-0.281,-0.252,0.928,-33.477,-40.337,12.057,
49865980,-0.236,-0.268,0.899,-29.067,-56.367,2.73,
49866000,-0.184,-0.274,0.899,-20.072,-70.175,-7.262,
49866000,-0.098,-0.301,0.882,-10.465,-79.8,-13.562,
49866010,-0.014,-0.276,0.893,3.062,-81.55,-16.275,
49866020,-0.019,-0.217,0.948,14.665,-78.662,-10.587,
49866030,-0.01,-0.174,0.992,16.922,-75.775,-1.942,
49866040,0.075,-0.185,1.009,11.515,-68.39,7.542,
49866050,0.105,-0.26,1.025,6.107,-57.382,16.327,
49866060,0.087,-0.362,1.032,6.457,-43.382,19.18,
49866070,0.085,-0.406,1.094,13.965,-29.452,19.635,
49866080,0.134,-0.43,1.135,21.157,-12.215,21.297,
49866090,-0.044,-0.526,1.254,18.655,-5.407,25.042,
49866100,0.047,-0.624,1.263,26.302,3.727,11.567,
49866110,0.218,-0.719,1.27,55.44,21.542,8.75,
49866120,0.203,-0.729,1.315,93.975,50.4,16.835,
49866130,0.221,-0.611,1.339,125.317,87.08,19.652,
49866140,0.162,-0.469,1.354,147.507,125.125,27.195,
49866150,0.099,-0.368,1.32,160.842,160.44,37.31,
49866160,0.006,-0.279,1.242,169.54,192.325,49.28,
49866170,-0.129,-0.187,1.166,173.582,216.982,63.612,
49866180,-0.246,-0.119,1.062,171.15,234.465,76.072,
49866190,-0.352,-0.072,0.953,167.02,244.702,83.195,
49866200,-0.474,0.001,0.869,159.547,246.925,88.672,
49866210,-0.626,0.069,0.8,148.155,235.69,95.585,
49866220,-0.757,0.109,0.733,135.345,209.807,103.46,
49866230,-0.861,0.122,0.655,123.41,172.585,108.447,
49866240,-0.869,0.156,0.599,114.327,127.767,108.85,
49866250,-0.763,0.255,0.542,104.667,82.652,109.795,
49866260,-0.586,0.356,0.499,89.285,48.79,112.84,
49866260,-0.424,0.389,0.446,65.852,32.725,116.987,
49866280,-0.331,0.372,0.416,41.702,33.25,118.825,
49866280,-0.332,0.361,0.423,22.645,40.705,117.88,
49866300,-0.412,0.348,0.461,6.37,43.96,113.382,
49866300,-0.521,0.304,0.495,-6.247,36.137,100.835,
49866320,-0.546,0.264,0.501,-11.462,16.852,81.34,
49866320,-0.446,0.279,0.547,-9.607,-5.775,63.56,
49866330,-0.389,0.317,0.607,-10.937,-26.512,52.465,
49866340,-0.407,0.283,0.651,-20.667,-47.39,44.695,
49866350,-0.336,0.184,0.628,-25.76,-60.182,38.657,
49866360,-0.273,0.131,0.653,-17.727,-65.135,34.737,
49866370,-0.111,0.096,0.8,-9.17,-60.41,31.885,
49866380,-0.27,0.114,0.743,2.397,-36.662,32.497,
49866390,-0.325,0.208,1.069,17.377,-40.88,15.925,
49866400,-0.287,0.134,0.955,8.067,-33.285,20.02,
49866410,-0.351,0.175,1.063,21.262,-34.09,11.62,
49866420,-0.349,0.241,1.06,16.73,-36.767,2.905,
49866430,-0.366,0.212,1.068,12.337,-38.797,-0.262,
49866440,-0.396,0.264,1.085,7.77,-40.6,-4.742,
49866450,-0.435,0.261,1.03,-1.942,-45.43,-7.822,
49866460,-0.416,0.204,0.946,-6.23,-52.64,-12.722,
49866470,-0.269,0.168,0.893,-4.025,-56.857,-13.335,
49866480,-0.099,0.167,0.788,2.222,-43.907,-7.577,
49866490,-0.24,0.16,0.852,7.595,-24.552,-5.967,
49866500,-0.393,0.186,0.814,9.012,-11.777,-2.467,
49866510,-0.377,0.227,0.856,15.295,-6.72,-0.892,
49866520,-0.325,0.267,0.877,13.597,-3.202,0.612,
49866530,-0.325,0.288,0.908,8.312,2.712,4.655,
49866540,-0.369,0.304,0.925,1.435,10.115,8.837,
49866550,-0.43,0.293,0.926,-7.385,14.017,11.725,
49866560,-0.475,0.27,0.946,-13.702,12.757,11.97,
49866570,-0.475,0.253,0.947,-16.782,6.195,10.727,
49866580,-0.437,0.234,0.947,-17.062,-1.417,10.482,
49866590,-0.388,0.204,0.935,-14.437,-6.282,10.692,
49866600,-0.343,0.166,0.919,-8.242,-6.51,11.725,
49866610,-0.353,0.151,0.911,0.63,-3.797,14.7,
49866620,-0.397,0.176,0.896,9.135,-1.33,15.33,
49866630,-0.396,0.208,0.877,16.117,-4.147,15.19,
49866640,-0.35,0.24,0.868,20.545,-7.84,16.275,
49866650,-0.301,0.273,0.877,18.427,-7.822,15.435,
49866660,-0.272,0.27,0.871,11.252,-1.89,12.617,
49866670,-0.276,0.244,0.879,4.725,7.84,9.012,
49866670,-0.3,0.238,0.901,1.26,17.57,5.617,
49866690,-0.317,0.229,0.921,-0.49,25.585,4.025,
49866690,-0.322,0.21,0.93,-1.26,31.57,4.55,
49866700,-0.341,0.213,0.935,-0.017,36.662,5.897,
49866710,-0.373,0.239,0.937,0.875,39.865,6.23,
49866720,-0.401,0.262,0.918,-0.595,40.442,4.655,
49866730,-0.438,0.272,0.888,-4.095,37.66,1.907,
49866740,-0.464,0.271,0.849,-9.205,31.867,-0.192,
49866750,-0.463,0.245,0.809,-12.792,24.727,-0.525,
49866760,-0.46,0.201,0.813,-11.69,19.6,0.577,
49866770,-0.491,0.171,0.818,-6.65,11.34,1.75,
49866780,-0.406,0.224,0.81,-0.77,9.59,5.775,
49866790,-0.446,0.253,0.842,1.995,11.252,8.855,
49866800,-0.526,0.214,0.86,0.262,9.642,6.212,
49866810,-0.396,0.17,0.81,4.795,1.872,0.892,
49866820,-0.303,0.252,0.835,13.527,3.675,2.187,
49866830,-0.377,0.336,0.848,14.822,9.432,3.692,
49866840,-0.426,0.351,0.853,7.087,14.857,0.052,
49866850,-0.46,0.302,0.82,-3.027,14.367,-2.572,
49866860,-0.456,0.297,0.796,-7.84,11.935,-3.762,
49866870,-0.46,0.319,0.802,-9.922,7.787,-2.45,
49866880,-0.466,0.321,0.796,-15.015,3.955,-1.592,
49866890,-0.439,0.316,0.777,-20.755,1.627,-3.08,
49866900,-0.422,0.323,0.764,-26.022,2.222,-4.34,
49866910,-0.427,0.326,0.747,-32.2,3.99,-6.142,
49866920,-0.395,0.292,0.731,-37.642,7.455,-7.542,
49866930,-0.303,0.191,0.745,-39.357,16.292,-3.062,
49866940,-0.373,0.155,0.797,-26.407,30.345,2.257,
49866950,-0.469,0.245,0.839,-10.587,36.872,3.85,
49866960,-0.575,0.312,0.918,-8.207,35.717,9.1,
49866970,-0.648,0.279,0.909,-17.307,24.395,8.312,
49866980,-0.593,0.217,0.891,-25.882,9.625,2.485,
49866990,-0.564,0.177,0.896,-29.312,-3.622,1.907,
49867000,-0.587,0.134,0.868,-28.56,-13.177,-0.21,
49867010,-0.549,0.122,0.881,-25.305,-19.495,-6.475,
49867010,-0.537,0.117,0.88,-22.12,-25.165,-8.242,
49867030,-0.503,0.134,0.891,-17.465,-29.242,-11.725,
49867030,-0.479,0.141,0.9,-15.032,-32.917,-12.757,
49867050,-0.46,0.143,0.9,-14.227,-36.137,-12.477,
49867050,-0.437,0.157,0.902,-14.297,-38.517,-12.337,
49867070,-0.414,0.161,0.894,-15.435,-39.83,-10.22,
49867070,-0.39,0.169,0.89,-16.257,-39.322,-7.892,
49867080,-0.355,0.18,0.891,-16.922,-35.927,-5.425,
49867090,-0.334,0.175,0.891,-18.585,-30.24,-2.852,
49867100,-0.316,0.165,0.903,-20.23,-21.997,-2.065,
49867110,-0.304,0.163,0.906,-21.122,-12.25,-2.065,
49867120,-0.309,0.166,0.925,-22.102,-1.522,-0.927,
49867130,-0.384,0.158,0.924,-22.907,3.517,-0.332,
49867140,-0.326,0.156,0.928,-25.025,7.437,-1.155,
49867150,-0.288,0.134,0.909,-24.657,15.977,2.205,
49867160,-0.321,0.144,0.917,-21.647,27.86,3.395,
49867170,-0.379,0.144,0.91,-20.93,36.54,3.867,
49867180,-0.414,0.125,0.899,-21.07,42.63,4.742,
49867190,-0.413,0.111,0.877,-18.48,45.885,5.162,
49867200,-0.367,0.115,0.869,-14.087,51.8,7.42,
49867210,-0.376,0.109,0.828,-10.29,60.952,11.987,
49867220,-0.399,0.139,0.805,-6.055,73.78,12.425,
49867230,-0.484,0.185,0.807,-5.495,84.402,10.902,
49867240,-0.619,0.19,0.81,-9.38,84.91,7.297,
49867250,-0.673,0.184,0.79,-14.087,74.497,1.697,
49867260,-0.644,0.146,0.776,-17.552,60.217,0.192,
49867270,-0.659,0.105,0.761,-14.28,45.5,-0.665,
49867280,-0.655,0.124,0.778,-9.625,31.797,-2.607,
49867290,-0.63,0.149,0.77,-6.947,20.317,-2.152,
49867300,-0.616,0.178,0.777,-6.317,14.84,-2.677,
49867310,-0.637,0.157,0.758,-9.152,11.497,-3.36,
49867320,-0.64,0.118,0.741,-9.642,9.24,-5.32,
49867330,-0.662,0.102,0.736,-5.512,5.39,-7.332,
49867340,-0.701,0.106,0.748,0.945,-2.415,-8.207,
49867350,-0.691,0.115,0.76,7.367,-13.597,-9.52,
49867360,-0.651,0.128,0.771,11.865,-23.415,-11.182,
49867370,-0.656,0.145,0.766,13.667,-32.252,-14.192,
49867370,-0.613,0.142,0.778,13.79,-40.022,-18.2,
49867390,-0.506,0.125,0.762,15.802,-42.805,-20.037,
49867390,-0.457,0.135,0.799,18.445,-40.18,-17.867,
49867410,-0.478,0.175,0.814,18.007,-34.107,-14.28,
49867410,-0.474,0.205,0.904,12.145,-31.64,-12.04,
49867420,-0.403,0.131,0.898,3.097,-23.362,-9.275,
49867430,-0.455,0.092,0.946,-0.682,-17.517,-9.432,
49867440,-0.475,0.07,0.978,-4.217,-14.577,-7.105,
49867450,-0.472,0.066,0.992,-4.602,-12.985,-4.095,
49867460,-0.489,0.077,0.984,-5.53,-12.757,-1.96,
49867470,-0.486,0.074,0.962,-7.017,-13.492,0.49,
49867480,-0.439,0.084,0.932,-8.767,-10.377,1.365,
49867490,-0.464,0.109,0.909,-11.182,-5.74,2.607,
49867500,-0.494,0.113,0.88,-14.735,-1.96,4.41,
49867510,-0.465,0.107,0.854,-16.87,2.327,5.39,
49867520,-0.458,0.108,0.852,-19.022,7.682,7.77,
49867530,-0.535,0.096,0.813,-21.437,11.655,10.92,
49867540,-0.557,0.076,0.805,-18.777,10.395,8.557,
49867550,-0.559,0.074,0.79,-12.95,6.09,6.912,
49867560,-0.561,0.106,0.795,-7.035,1.067,6.422,
49867570,-0.53,0.144,0.811,-6.282,-1.505,3.482,
49867580,-0.515,0.125,0.797,-9.73,0.122,1.295,
49867590,-0.533,0.099,0.797,-9.817,2.362,-1.4,
49867600,-0.573,0.091,0.811,-6.982,2.135,-2.59,
49867610,-0.601,0.086,0.83,-3.587,-2.817,-4.147,
49867620,-0.574,0.082,0.845,-0.665,-8.417,-7.175,
49867630,-0.541,0.076,0.851,2.38,-13.142,-8.26,
49867640,-0.518,0.086,0.861,5.215,-14.472,-7.192,
49867650,-0.509,0.098,0.88,6.09,-13.72,-4.917,
49867660,-0.517,0.1,0.885,4.515,-11.252,-2.712,
49867670,-0.527,0.097,0.878,3.325,-9.677,-0.91,
49867680,-0.536,0.093,0.869,3.255,-10.097,1.452,
49867690,-0.53,0.098,0.863,3.395,-12.162,2.835,
49867700,-0.526,0.11,0.87,2.24,-13.912,2.677,
49867710,-0.51,0.128,0.863,-1.19,-16.625,2.065,
49867720,-0.502,0.127,0.859,-5.302,-17.99,1.592,
49867730,-0.497,0.127,0.827,-8.837,-18.55,0.577,
49867740,-0.539,0.101,0.849,-12.46,-23.485,-0.805,
49867750,-0.419,0.07,0.786,-13.562,-24.307,-1.89,
49867760,-0.414,0.068,0.789,-7.525,-19.897,-0.437,
49867760,-0.453,0.093,0.804,-4.13,-15.767,-0.997,
49867780,-0.449,0.09,0.817,-2.135,-12.46,-1.277,
49867780,-0.428,0.095,0.818,0,-9.17,-1.47,
49867800,-0.444,0.113,0.842,3.412,-5.18,-1.085,
49867800,-0.479,0.127,0.851,4.795,-0.735,-1.172,
49867820,-0.507,0.133,0.859,3.675,1.872,-3.01,
49867820,-0.523,0.133,0.877,0.787,1.452,-3.5,
49867830,-0.518,0.125,0.893,-1.452,-0.297,-1.505,
49867840,-0.486,0.115,0.905,-3.535,-0.787,1.47,
49867850,-0.471,0.097,0.919,-5.915,1.452,5.057,
49867860,-0.466,0.082,0.929,-7.367,6.93,8.715,
49867870,-0.505,0.094,0.936,-6.982,11.55,10.85,
49867880,-0.509,0.099,0.953,-7.315,15.067,11.13,
49867890,-0.516,0.113,0.92,-7.595,18.742,10.377,
49867900,-0.566,0.151,0.932,-10.622,18.532,7.577,
49867910,-0.587,0.147,0.886,-18.217,15.452,2.835,
49867920,-0.57,0.094,0.83,-22.452,10.902,-2.17,
49867930,-0.55,0.057,0.792,-20.16,4.585,-5.092,
49867940,-0.551,0.038,0.768,-10.43,-1.015,-5.197,
49867950,-0.573,0.096,0.717,0.017,-8.33,-5.582,
49867960,-0.478,0.081,0.778,1.015,-16.782,-5.722,
49867970,-0.44,0.099,0.745,-2.117,-15.505,-2.537,
49867980,-0.46,0.111,0.802,-2.012,-11.812,-1.172,
49867990,-0.492,0.096,0.819,-6.632,-9.205,-1.767,
49868000,-0.467,0.043,0.828,-7.682,-6.44,-1.802,
49868010,-0.441,0.049,0.841,-5.057,-3.36,-1.085,
49868020,-0.459,0.061,0.859,-1.47,1.242,2.362,
49868030,-0.464,0.061,0.866,1.872,6.317,4.077,
49868040,-0.47,0.075,0.878,3.15,11.235,5.915,
49868050,-0.515,0.097,0.899,1.347,13.877,9.292,
49868060,-0.546,0.097,0.897,-3.29,14.542,11.112,
49868070,-0.563,0.087,0.911,-9.467,13.912,11.777,
49868080,-0.597,0.044,0.883,-15.207,9.922,11.987,
49868080,-0.612,0.004,0.859,-14.787,1.767,10.395,
49868100,-0.606,-0.002,0.844,-10.115,-7.612,9.835,
49868100,-0.566,0.022,0.857,-4.9,-15.47,8.435,
49868120,-0.53,0.054,0.862,-3.657,-21.122,6.405,
49868120,-0.512,0.056,0.858,-4.97,-24.815,5.18,
49868140,-0.491,0.059,0.859,-6.002,-26.827,3.71,
49868140,-0.477,0.07,0.869,-7.122,-28.367,3.78,
49868160,-0.449,0.065,0.867,-8.697,-28.927,4.952,
49868160,-0.434,0.057,0.878,-9.555,-26.827,6.335,
49868170,-0.463,0.063,0.893,-9.922,-23.747,6.037,
49868180,-0.47,0.061,0.912,-10.587,-22.015,3.482,
49868190,-0.456,0.06,0.921,-11.025,-20.475,1.382,
49868200,-0.459,0.07,0.927,-11.9,-18.147,1.032,
49868210,-0.453,0.074,0.931,-13.282,-14.805,0.227,
49868220,-0.445,0.073,0.92,-14.49,-9.065,-0.507,
49868230,-0.447,0.056,0.9,-15.487,-2.817,-0.07,
49868240,-0.452,0.039,0.862,-13.877,4.795,0.612,
49868250,-0.472,0.03,0.832,-9.275,10.797,1.067,
49868260,-0.476,0.045,0.807,-3.202,15.977,2.292,
49868270,-0.49,0.061,0.789,2.817,18.305,5.372,
49868280,-0.522,0.085,0.795,7,18.725,9.135,
49868290,-0.555,0.107,0.811,7.7,14.385,12.442,
49868300,-0.575,0.1,0.79,4.06,7.7,16.275,
49868310,-0.555,0.105,0.811,0.84,-0.315,18.882,
49868320,-0.582,0.091,0.796,-3.237,-9.922,22.295,
49868330,-0.599,0.046,0.775,-3.745,-17.377,20.44,
49868340,-0.571,0.029,0.772,2.45,-22.522,11.865,
49868350,-0.549,0.058,0.812,10.115,-26.302,7.245,
49868360,-0.579,0.094,0.863,14.105,-28.035,7.595,
49868370,-0.552,0.076,0.878,14.28,-31.657,5.6,
49868380,-0.478,0.044,0.868,16.38,-32.13,4.917,
49868390,-0.498,0.065,0.892,21.857,-32.305,6.65,
49868400,-0.539,0.105,0.924,23.24,-35.21,6.177,
49868410,-0.52,0.096,0.918,20.825,-40.005,3.29,
49868420,-0.485,0.081,0.893,20.09,-44.24,0.402,
49868430,-0.534,0.082,0.899,22.435,-51.135,-0.665,
49868440,-0.625,0.063,0.886,26.25,-65.607,-3.447,
49868450,-0.59,0.046,0.84,33.617,-84.507,-7.91,
49868460,-0.471,0.074,0.839,44.747,-100.17,-8.767,
49868470,-0.33,0.122,0.836,53.077,-106.417,-4.182,
49868480,-0.215,0.17,0.876,56.525,-99.505,4.97,
49868490,-0.137,0.231,0.911,52.202,-81.2,16.047,
49868500,-0.164,0.255,0.948,43.452,-56.77,23.187,
49868510,-0.202,0.272,0.953,33.792,-34.615,23.94,
49868510,-0.261,0.259,0.934,23.485,-21.787,23.012,
49868530,-0.291,0.22,0.891,15.767,-18.41,20.335,
49868530,-0.315,0.15,0.838,11.34,-23.852,16.992,
49868550,-0.256,0.104,0.781,14.612,-31.762,13.422,
49868550,-0.16,0.125,0.803,23.292,-32.025,9.555,
49868570,-0.178,0.193,0.832,21.245,-24.342,8.155,
49868570,-0.247,0.217,0.862,15.732,-15.33,7.752,
49868580,-0.257,0.234,0.902,9.782,-7.297,8.575,
49868590,-0.289,0.23,0.935,0.595,-2.187,10.955,
49868600,-0.296,0.216,0.926,-6.86,-0.157,13.44,
49868610,-0.278,0.211,0.91,-9.607,1.137,16.555,
49868620,-0.281,0.194,0.89,-11.41,4.077,18.987,
49868630,-0.319,0.173,0.881,-12.95,6.37,19.075,
49868640,-0.375,0.144,0.877,-13.247,3.377,18.935,
49868650,-0.361,0.133,0.906,-9.642,-2.345,18.287,
49868660,-0.333,0.16,0.956,-3.885,-5.285,17.552,
49868670,-0.336,0.186,1.02,-1.015,-5.652,17.78,
49868680,-0.361,0.171,1.05,-1.19,-4.305,16.432,
49868690,-0.343,0.172,1.075,-0.682,-2.73,12.127,
49868700,-0.336,0.172,1.07,0.332,-0.017,9.782,
49868710,-0.341,0.17,1.053,1.032,2.065,9.397,
49868720,-0.311,0.187,1.035,1.68,5.285,10.115,
49868730,-0.332,0.198,1.02,-0.14,7.262,11.742,
49868740,-0.368,0.164,0.978,-3.605,6.51,11.777,
49868750,-0.361,0.146,0.939,-2.835,2.992,9.817,
49868760,-0.364,0.157,0.91,-0.245,-1.68,9.432,
49868770,-0.359,0.157,0.885,0.542,-7.595,8.767,
49868780,-0.332,0.139,0.849,1.102,-12.547,7.647,
49868790,-0.303,0.135,0.835,3.447,-15.75,6.965,
49868800,-0.274,0.153,0.836,5.862,-15.12,6.125,
49868810,-0.26,0.176,0.857,6.755,-12.757,5.197,
49868820,-0.258,0.184,0.871,5.285,-9.502,5.162,
49868830,-0.275,0.175,0.893,3.955,-7.91,4.375,
49868830,-0.246,0.193,0.918,3.657,-6.212,2.66,
49868850,-0.227,0.2,0.947,2.572,-3.71,3.097,
49868850,-0.238,0.202,0.974,0.507,1.47,3.657,
49868870,-0.258,0.192,0.995,-2.59,6.51,3.535,
49868870,-0.295,0.185,1.016,-4.637,11.497,3.657,
49868890,-0.346,0.174,1.021,-5.827,12.757,4.515,
49868890,-0.357,0.166,1.019,-6.037,11.707,4.305,
49868910,-0.359,0.159,1,-6.002,9.677,3.885,
49868910,-0.374,0.148,0.967,-5.565,8.172,4.042,
49868920,-0.387,0.148,0.955,-4.27,5.67,3.762,
49868930,-0.382,0.143,0.946,-2.695,1.872,3.745,
49868940,-0.357,0.15,0.946,-0.455,-0.595,2.642,
49868950,-0.354,0.155,0.95,0.542,-2.747,0.787,
49868960,-0.337,0.151,0.963,1.697,-3.955,-0.77,
49868970,-0.353,0.141,0.979,3.675,-5.67,-2.8,
49868980,-0.358,0.12,0.976,5.267,-8.487,-6.037,
49868990,-0.316,0.117,0.943,9.012,-10.29,-9.695,
49869000,-0.297,0.154,0.865,13.86,-9.467,-10.78,
49869010,-0.316,0.242,0.863,17.325,-7.822,-10.255,
49869020,-0.363,0.282,0.895,9.537,-9.52,-9.345,
49869030,-0.364,0.212,0.873,-1.715,-13.982,-10.902,
49869040,-0.335,0.18,0.851,-4.48,-18.585,-12.32,
49869050,-0.325,0.209,0.872,-2.012,-22.33,-9.415,
49869060,-0.327,0.227,0.904,-3.43,-22.54,-5.95,
49869070,-0.303,0.213,0.948,-8.802,-19.39,-5.057,
49869080,-0.348,0.187,0.955,-14.315,-10.202,-2.747,
49869090,-0.601,0.15,1.059,-18.812,-16.047,-3.185,
49869100,-0.451,0.107,1.062,-13.492,-30.1,-6.492,
49869110,-0.385,0.119,1.058,-4.69,-42.682,-0.84,
49869120,-0.374,0.174,1.076,-3.15,-49.192,0.21,
49869130,-0.299,0.177,1.057,-6.44,-51.135,-2.38,
49869140,-0.25,0.165,1.005,-11.655,-50.33,-4.27,
49869150,-0.221,0.174,0.978,-13.632,-48.58,-6.842,
49869160,-0.178,0.186,0.952,-14.857,-45.062,-9.38,
49869170,-0.128,0.198,0.892,-17.657,-39.952,-13.282,
49869180,-0.062,0.215,0.85,-20.545,-30.66,-18.637,
49869190,-0.083,0.231,0.849,-24.325,-22.137,-23.45,
49869200,-0.125,0.261,0.835,-31.342,-18.48,-24.307,
49869210,-0.163,0.321,0.852,-44.765,-19.355,-25.742,
49869220,-0.197,0.307,0.875,-64.82,-22.68,-30.852,
49869230,-0.119,0.214,0.852,-82.635,-24.412,-39.34,
49869240,-0.001,0.108,0.843,-89.25,-19.582,-42.192,
49869250,0.05,0.053,0.87,-84.035,-6.65,-37.73,
49869260,0.027,0.033,0.902,-72.835,9.782,-27.877,
49869260,-0.018,0.04,0.969,-61.145,24.64,-14.437,
49869280,-0.037,0.068,1.009,-53.112,38.797,-2.31,
49869280,-0.074,0.078,1.024,-51.38,50.627,7,
49869300,-0.133,0.071,1.045,-56.315,60.375,11.2,
49869300,-0.21,0.039,1.026,-65.432,66.5,9.59,
49869320,-0.272,-0.01,1.007,-74.217,67.76,3.185,
49869320,-0.341,-0.068,0.966,-78.925,64.19,-5.197,
49869330,-0.378,-0.114,0.937,-74.69,57.715,-14.787,
49869340,-0.369,-0.144,0.922,-64.347,50.33,-23.922,
49869350,-0.361,-0.161,0.937,-53.515,43.977,-32.585,
49869360,-0.402,-0.18,0.978,-45.045,36.12,-42.385,
49869370,-0.415,-0.228,0.907,-34.335,22.75,-56.892,
49869380,-0.351,-0.193,0.931,-19.407,12.862,-76.422,
49869390,-0.297,-0.148,0.945,-14.105,4.497,-86.52,
49869400,-0.293,-0.125,0.942,-13.16,-0.577,-93.17,
49869410,-0.301,-0.097,0.927,-12.285,-3.045,-105,
49869420,-0.302,-0.071,0.93,-12.88,-5.442,-118.51,
49869430,-0.316,-0.04,0.919,-17.202,-9.975,-131.53,
49869440,-0.337,-0.019,0.911,-25.742,-16.992,-143.99,
49869450,-0.361,-0.007,0.906,-37.082,-29.032,-157.255,
49869460,-0.374,-0.012,0.873,-48.335,-46.27,-169.487,
49869470,-0.313,-0.033,0.847,-57.872,-63.315,-178.85,
49869480,-0.266,-0.027,0.818,-65.432,-74.847,-188.265,
49869490,-0.281,-0.046,0.792,-71.347,-86.66,-194.302,
49869500,-0.233,-0.094,0.776,-74.41,-93.852,-196.07,
49869510,-0.128,-0.121,0.77,-73.29,-94.202,-194.495,
49869520,-0.079,-0.115,0.782,-74.9,-89.215,-185.955,
49869530,-0.077,-0.128,0.814,-79.485,-80.01,-173.845,
49869540,-0.083,-0.129,0.834,-89.372,-68.127,-162.295,
49869550,-0.118,-0.168,0.857,-100.152,-57.19,-151.602,
49869560,-0.147,-0.172,0.872,-114.747,-48.3,-143.255,
49869570,-0.164,-0.204,0.857,-126.84,-42.122,-135.887,
49869580,-0.178,-0.245,0.845,-135.852,-36.662,-128.31,
49869580,-0.192,-0.277,0.829,-143.377,-33.88,-122.342,
49869600,-0.187,-0.314,0.802,-147.455,-32.707,-119.35,
49869600,-0.175,-0.379,0.798,-145.18,-32.655,-115.412,
49869620,-0.154,-0.434,0.802,-142.03,-33.32,-103.04,
49869620,-0.112,-0.485,0.791,-139.212,-32.252,-89.407,
49869640,-0.074,-0.562,0.792,-130.777,-26.32,-78.907,
49869640,-0.056,-0.59,0.824,-120.907,-17.202,-72.52,
49869660,-0.076,-0.617,0.853,-112.455,-10.027,-63.07,
49869660,-0.083,-0.66,0.879,-105.577,-5.88,-53.042,
49869670,-0.071,-0.681,0.901,-98.857,-4.025,-43.137,
49869680,-0.068,-0.735,0.891,-91.245,-3.552,-30.677,
49869690,-0.013,-0.776,0.882,-80.325,-0.542,-17.57,
49869700,0.01,-0.798,0.892,-67.287,6.177,-4.305,
49869710,-0.032,-0.834,0.894,-53.9,12.792,7.297,
49869720,-0.068,-0.884,0.887,-35.175,17.272,17.167,
49869730,-0.077,-0.87,0.903,-15.522,20.842,24.342,
49869740,-0.11,-0.852,0.899,0.787,23.555,30.467,
49869750,-0.131,-0.856,0.87,17.587,25.637,34.79,
49869760,-0.168,-0.861,0.838,38.657,26.932,39.095,
49869770,-0.221,-0.848,0.802,64.627,26.53,43.277,
49869780,-0.234,-0.787,0.761,94.622,25.637,46.235,
49869790,-0.256,-0.708,0.732,128.415,23.327,49.385,
49869800,-0.277,-0.602,0.717,161.507,20.195,53.9,
49869810,-0.264,-0.48,0.696,188.825,16.467,57.452,
49869820,-0.217,-0.364,0.695,208.792,13.772,59.325,
49869830,-0.136,-0.27,0.708,218.575,15.067,60.882,
49869840,-0.091,-0.206,0.755,221.497,20.667,65.38,
49869850,-0.085,-0.118,0.849,210.612,26.862,69.72,
49869860,-0.12,-0.057,0.93,185.692,31.447,70.472,
49869870,-0.167,-0.048,0.988,155.365,32.585,67.392,
49869880,-0.186,-0.078,1.031,124.705,29.942,63.385,
49869890,-0.2,-0.115,1.042,95.165,23.905,58.117,
49869900,-0.211,-0.155,1.008,69.597,16.625,50.33,
49869910,-0.213,-0.195,0.991,53.147,8.575,40.967,
49869920,-0.207,-0.209,0.98,40.6,-0.367,31.955,
49869930,-0.177,-0.212,0.967,31.132,-8.837,22.19,
49869940,-0.148,-0.217,0.959,25.742,-14.98,14.927,
49869950,-0.135,-0.23,0.975,24.465,-21.49,10.972,
49869960,-0.11,-0.224,0.985,25.637,-26.897,9.835,
49869970,-0.081,-0.183,1.012,27.982,-30.03,10.045,
49869980,-0.057,-0.179,1.013,33.95,-29.767,4.34,
49869990,-0.001,-0.177,1.03,44.362,-24.622,2.677,
49870000,-0.007,-0.196,1.032,46.41,-17.867,10.132,
49870010,-0.062,-0.165,1.055,48.527,-12.145,10.517,
49870010,-0.077,-0.122,1.05,43.312,-7.035,6.405,
49870030,-0.07,-0.101,1.044,34.177,-2.467,2.852,
49870030,-0.07,-0.111,0.987,24.71,1.837,1.365,
49870050,-0.094,-0.118,0.99,19.6,5.337,1.505,
49870050,-0.129,-0.113,0.99,11.62,7,2.975,
49870070,-0.13,-0.121,0.969,3.307,7.84,4.392,
49870070,-0.122,-0.144,0.957,-2.537,9.485,7.105,
49870080,-0.133,-0.161,0.962,-5.53,10.307,9.345,
49870090,-0.14,-0.162,0.967,-8.4,10.202,10.815,
49870100,-0.155,-0.165,0.964,-12.6,8.82,11.34,
49870110,-0.181,-0.173,0.967,-16.887,6.405,9.292,
49870120,-0.191,-0.173,0.961,-22.592,3.307,6.422,
49870130,-0.189,-0.172,0.958,-28.98,-0.315,3.29,
49870140,-0.186,-0.18,0.945,-35.98,-3.587,0.98,
49870150,-0.201,-0.182,0.942,-41.16,-7.455,-0.402,
49870160,-0.212,-0.18,0.945,-45.937,-11.165,-1.05,
49870170,-0.201,-0.204,0.921,-51.345,-15.33,0.227,
49870180,-0.176,-0.251,0.9,-52.622,-17.447,3.255,
49870190,-0.155,-0.288,0.901,-48.125,-17.937,9.152,
49870200,-0.148,-0.303,0.912,-39.375,-15.54,15.645,
49870210,-0.127,-0.295,0.934,-29.417,-9.502,18.217,
49870220,-0.118,-0.286,0.939,-22.697,-0.42,19.477,
49870230,-0.13,-0.279,0.948,-17.762,8.68,20.3,
49870240,-0.159,-0.275,0.936,-15.855,16.765,19.757,
49870250,-0.166,-0.279,0.896,-14.14,23.117,18.042,
49870260,-0.165,-0.288,0.875,-9.047,27.737,17.412,
49870270,-0.216,-0.278,0.902,-5.267,28.472,20.352,
49870280,-0.3,-0.242,0.947,-2.38,23.1,23.117,
49870290,-0.379,-0.215,0.99,-1.155,10.22,25.917,
49870300,-0.483,-0.218,1.057,-0.157,-12.215,32.235,
49870310,-0.405,-0.192,1.033,-17.657,-33.075,21.997,
49870320,-0.274,-0.243,0.94,-28.332,-48.877,16.87,
49870330,-0.136,-0.285,0.903,-33.6,-52.937,13.58,
49870330,-0.082,-0.307,0.874,-40.67,-47.04,14.927,
49870350,-0.128,-0.367,0.87,-36.592,-40.547,20.3,
49870350,-0.153,-0.401,0.892,-26.897,-34.457,20.72,
49870370,-0.155,-0.352,0.937,-16.73,-32.9,18.427,
49870370,-0.198,-0.34,0.957,-12.39,-36.61,15.662,
49870390,-0.221,-0.373,0.956,-5.827,-45.08,11.27,
49870390,-0.174,-0.385,0.956,1.172,-55.265,5.775,
49870410,-0.12,-0.364,0.973,6.545,-65.957,2.275,
49870410,-0.124,-0.383,0.958,12.81,-75.67,-0.35,
49870420,-0.054,-0.359,0.966,20.125,-80.675,-7.805,
49870430,0.04,-0.324,0.991,26.25,-81.83,-10.78,
49870440,0.092,-0.32,0.979,28.28,-77.332,-8.767,
49870450,0.143,-0.339,0.992,31.71,-66.727,-8.312,
49870460,0.184,-0.343,1,31.885,-52.64,-2.747,
49870470,0.224,-0.4,1.005,26.862,-37.012,6.125,
49870480,0.255,-0.396,0.98,30.905,-12.582,11.462,
49870490,0.093,-0.355,1.006,46.69,6.947,13.142,
49870500,-0.037,-0.252,1.126,47.53,9.975,20.772,
49870510,-0.051,-0.256,1.093,28.805,6.405,26.32,
49870520,-0.012,-0.309,1.056,16.94,3.342,20.002,
49870530,0.033,-0.338,1.03,11.462,3.815,14.087,
49870540,0.049,-0.338,1.011,11.9,7.21,14.822,
49870550,0.058,-0.29,1.018,14.192,13.685,15.872,
49870560,0.054,-0.267,1.026,10.955,22.365,18.445,
49870570,0.036,-0.264,1.015,4.742,32.987,18.672,
49870580,-0.027,-0.266,1.002,-0.297,42.14,16.922,
49870590,-0.086,-0.261,1.006,-4.182,45.727,14.175,
49870600,-0.134,-0.255,1.011,-6.527,43.47,12.18,
49870610,-0.188,-0.26,1.011,-7.892,33.792,12.32,
49870620,-0.169,-0.254,1,-7.525,22.452,11.795,
49870630,-0.142,-0.25,0.993,-6.247,11.62,11.147,
49870640,-0.107,-0.247,0.979,-4.83,4.637,11.217,
49870650,-0.064,-0.233,0.971,-2.222,2.397,11.27,
49870660,-0.029,-0.211,0.978,0.402,5.897,11.2,
49870670,-0.011,-0.19,0.987,0.787,13.79,11.497,
49870680,-0.014,-0.191,0.991,-1.452,24.955,13.597,
49870690,-0.032,-0.222,0.958,-3.797,37.537,18.147,
49870700,-0.069,-0.26,0.933,-3.535,50.137,24.657,
49870710,-0.144,-0.282,0.915,-0.332,58.03,30.572,
49870720,-0.223,-0.273,0.95,1.715,59.342,35.437,
49870730,-0.218,-0.256,0.965,1.557,59.552,39.707,
49870740,-0.234,-0.243,0.966,2.275,60.847,42.472,
49870750,-0.283,-0.214,0.981,1.19,60.165,44.677,
49870750,-0.323,-0.187,0.978,-5.32,57.26,46.2,
49870760,-0.331,-0.175,0.969,-15.137,52.85,45.937,
49870770,-0.332,-0.181,0.945,-24.255,47.635,46.06,
49870780,-0.347,-0.204,0.919,-30.52,41.965,46.725,
49870790,-0.34,-0.228,0.894,-34.072,36.417,47.075,
49870800,-0.317,-0.243,0.878,-34.545,32.235,46.725,
49870810,-0.297,-0.251,0.871,-32.777,31.43,44.59,
49870820,-0.288,-0.257,0.878,-30.31,33.005,41.142,
49870830,-0.304,-0.263,0.891,-28.385,34.492,37.1,
49870840,-0.311,-0.247,0.903,-26.705,35.21,33.372,
49870850,-0.315,-0.216,0.924,-25.217,35.297,30.817,
49870860,-0.326,-0.189,0.939,-26.897,35.98,29.12,
49870870,-0.33,-0.188,0.939,-32.392,36.732,27.842,
49870880,-0.328,-0.202,0.933,-38.255,37.87,27.142,
49870890,-0.334,-0.229,0.914,-42.227,38.517,27.667,
49870900,-0.342,-0.26,0.897,-43.592,37.572,30.625,
49870910,-0.312,-0.271,0.874,-41.457,36.96,35.7,
49870920,-0.256,-0.274,0.862,-36.61,41.037,41.615,
49870930,-0.234,-0.267,0.861,-32.55,50.155,46.847,
49870940,-0.286,-0.274,0.846,-28.157,61.81,52.587,
49870950,-0.37,-0.297,0.852,-20.23,70.332,56.98,
49870960,-0.437,-0.282,0.864,-16.485,72.187,57.19,
49870970,-0.508,-0.277,0.848,-16.205,64.732,58.992,
49870980,-0.533,-0.323,0.837,-12.022,53.777,62.177,
49870990,-0.476,-0.326,0.816,-2.747,48.457,58.117,
49871000,-0.488,-0.303,0.841,2.205,44.17,53.287,
49871010,-0.562,-0.311,0.827,1.925,39.725,52.15,
49871020,-0.568,-0.341,0.824,8.295,34.142,46.672,
49871030,-0.526,-0.318,0.844,17.727,26.18,39.305,
49871040,-0.515,-0.279,0.864,23.117,18.007,36.295,
49871050,-0.517,-0.269,0.858,26.565,11.742,33.25,
49871060,-0.484,-0.253,0.866,30.205,7.122,28.98,
49871070,-0.439,-0.224,0.863,32.707,4.147,26.827,
49871080,-0.406,-0.192,0.86,32.812,4.077,26.092,
49871080,-0.395,-0.181,0.843,30.94,6.23,27.107,
49871100,-0.4,-0.172,0.827,28.245,10.447,29.172,
49871100,-0.45,-0.171,0.798,28.647,12.32,32.165,
49871120,-0.482,-0.166,0.794,31.815,10.517,38.15,
49871120,-0.48,-0.173,0.785,37.082,7.84,44.87,
49871140,-0.444,-0.162,0.784,45.22,7.612,46.97,
49871140,-0.429,-0.133,0.795,53.357,10.01,48.405,
49871160,-0.431,-0.089,0.815,59.57,12.757,49.857,
49871160,-0.426,-0.027,0.835,60.48,16.852,51.205,
49871170,-0.429,0.004,0.836,55.177,21.402,51.887,
49871180,-0.459,0.02,0.832,45.885,25.217,50.96,
49871190,-0.497,0.016,0.826,35.07,25.707,50.312,
49871200,-0.506,-0.012,0.808,25.602,24.797,50.155,
49871210,-0.508,-0.043,0.795,20.65,23.24,48.02,
49871220,-0.515,-0.068,0.791,21.402,20.807,44.8,
49871230,-0.52,-0.082,0.795,27.545,17.325,40.145,
49871240,-0.506,-0.056,0.837,34.352,15.627,35.98,
49871250,-0.543,-0.007,0.856,36.89,14.28,34.422,
49871260,-0.579,0.013,0.886,36.172,9.73,27.317,
49871270,-0.579,0.015,0.889,31.342,2.327,21.262,
49871280,-0.579,0.007,0.886,26.547,-6.23,19.46,
49871290,-0.584,-0.001,0.89,22.4,-17.15,19.302,
49871300,-0.523,-0.014,0.883,18.672,-25.795,18.182,
49871310,-0.496,-0.033,0.868,16.327,-30.292,17.22,
49871320,-0.493,-0.032,0.877,16.222,-33.372,15.067,
49871330,-0.367,-0.04,0.873,17.027,-28.455,13.492,
49871340,-0.386,-0.081,0.897,23.082,-18.462,13.667,
49871350,-0.438,-0.065,0.909,29.365,-12.25,10.972,
49871360,-0.441,-0.016,0.923,34.02,-7.42,7.385,
49871370,-0.472,0.014,0.94,35.455,-6.947,3.78,
49871380,-0.485,0.016,0.94,33.372,-12.827,-0.542,
49871390,-0.407,0.065,0.92,29.137,-16.992,-1.872,
49871400,-0.403,0.088,0.922,20.685,-15.977,1.26,
49871410,-0.404,0.066,0.881,9.852,-12.302,0.21,
49871420,-0.425,0.069,0.873,0.822,-7.087,-2.747,
49871420,-0.48,0.054,0.863,-8.4,-5.687,-1.697,
49871440,-0.538,0.025,0.833,-16.59,-10.762,-3.027,
49871440,-0.501,0.011,0.812,-18.865,-17.955,-6.58,
49871460,-0.477,0.003,0.81,-17.412,-23.485,-5.932,
49871460,-0.455,0.019,0.814,-16.03,-25.707,-3.85,
49871480,-0.453,0.033,0.805,-17.482,-24.167,-2.607,
49871480,-0.46,-0.006,0.784,-19.617,-22.172,-0.542,
49871500,-0.453,-0.038,0.766,-16.642,-18.287,2.73,
49871500,-0.457,-0.037,0.777,-11.515,-13.842,6.755,
49871510,-0.488,-0.034,0.799,-5.88,-11.392,10.097,
49871520,-0.495,-0.02,0.828,-1.645,-11.655,12.512,
49871530,-0.482,-0.001,0.856,-0.647,-12.862,13.86,
49871540,-0.493,0.002,0.875,-2.625,-13.825,14.367,
49871550,-0.515,-0.007,0.886,-4.497,-16.047,14.227,
49871560,-0.529,-0.023,0.879,-3.342,-21.28,12.53,
49871570,-0.506,-0.038,0.876,2.817,-27.457,9.275,
49871580,-0.476,-0.025,0.882,9.695,-31.902,5.652,
49871590,-0.437,0.026,0.876,13.947,-34.125,0.682,
49871600,-0.385,0.054,0.924,13.125,-34.265,-3.237,
49871610,-0.316,0.043,0.916,10.307,-27.037,-4.55,
49871620,-0.324,0.032,0.903,13.947,-17.325,-6.597,
49871630,-0.344,0.04,0.928,18.865,-9.362,-6.177,
49871640,-0.357,0.04,0.923,21.052,-2.502,-5.005,
49871650,-0.354,0.04,0.921,22.347,3.552,-7.227,
49871660,-0.36,0.049,0.921,22.942,9.31,-9.03,
49871670,-0.377,0.067,0.915,20.09,11.567,-10.08,
49871680,-0.411,0.061,0.905,15.4,11.935,-11.41,
49871690,-0.416,0.052,0.906,10.15,12.022,-14.315,
49871700,-0.418,0.061,0.891,-1.54,12.617,-15.75,
49871710,-0.482,0.013,0.847,-12.197,10.307,-16.047,
49871720,-0.45,-0.028,0.88,-15.697,5.057,-17.15,
49871730,-0.323,-0.06,0.839,-17.815,10.517,-13.177,
49871740,-0.447,-0.088,0.855,-13.317,16.87,-8.505,
49871750,-0.532,-0.066,0.897,-7.962,18.287,-4.34,
49871760,-0.543,-0.053,0.904,-5.04,14.805,-1.05,
49871770,-0.543,-0.045,0.904,-2.38,9.222,-1.662,
49871780,-0.551,-0.039,0.902,1.207,4.13,-2.31,
49871790,-0.571,-0.027,0.909,4.235,-2.695,-3.727,
49871800,-0.525,-0.008,0.898,6.23,-7.945,-6.422,
49871810,-0.477,0.009,0.893,8.557,-10.255,-7.402,
49871820,-0.477,0.031,0.868,8.942,-9.485,-7.035,
49871830,-0.485,0.06,0.852,7.402,-8.435,-7.35,
49871830,-0.461,0.075,0.841,2.695,-6.475,-5.162,
49871850,-0.39,0.063,0.819,-1.645,0.735,-1.907,
49871850,-0.404,0.053,0.829,-2.485,11.147,2.345,
49871870,-0.482,0.038,0.836,-4.655,18.06,9.117,
49871870,-0.506,0.008,0.85,-4.812,21.455,13.597,
49871890,-0.458,-0.002,0.84,-1.067,23.87,15.382,
49871890,-0.479,0.02,0.869,1.89,26.442,19.355,
49871910,-0.518,0.008,0.897,2.362,28,19.425,
49871910,-0.483,0.001,0.895,3.867,30.047,12.25,
49871920,-0.5,0.018,0.894,5.302,31.605,5.442,
49871930,-0.562,0.022,0.904,4.952,30.065,-0.665,
49871940,-0.558,0.006,0.897,4.585,26.11,-8.26,
49871950,-0.542,0.02,0.877,5.46,21.332,-14.822,
49871960,-0.524,0.029,0.877,3.57,16.152,-17.867,
49871970,-0.51,0.005,0.865,-0.192,12.477,-16.362,
49871980,-0.527,-0.009,0.866,-1.732,9.905,-12.862,
49871990,-0.56,0,0.877,-1.207,5.95,-9.607,
49872000,-0.568,0.004,0.876,-0.665,0.735,-7.717,
49872010,-0.547,0.002,0.869,-1.89,-5.827,-7.315,
49872020,-0.524,0.004,0.852,-4.602,-10.937,-5.705,
49872030,-0.528,0.004,0.848,-6.772,-14.542,-3.307,
49872040,-0.534,-0.005,0.85,-9.485,-18.06,-1.155,
49872050,-0.474,-0.043,0.811,-11.27,-19.267,0.77,
49872060,-0.43,-0.028,0.817,-7.56,-13.405,1.172,
49872070,-0.503,0,0.839,-5.005,-7.63,2.047,
49872080,-0.564,-0.011,0.836,-5.197,-5.232,0.77,
49872090,-0.559,-0.027,0.833,-3.465,-6.86,-3.08,
49872100,-0.538,-0.035,0.836,-0.577,-9.467,-4.795,
49872110,-0.528,-0.035,0.839,4.655,-10.955,-5.197,
49872120,-0.531,-0.03,0.843,9.66,-11.48,-4.55,
49872130,-0.523,-0.014,0.855,13.072,-12.022,-1.592,
49872140,-0.529,0,0.865,14.525,-12.11,2.345,
49872150,-0.496,0.016,0.865,14.192,-10.202,4.655,
49872160,-0.476,0.039,0.871,12.897,-6.002,6.825,
49872170,-0.456,0.052,0.867,10.22,0.612,9.327,
49872170,-0.482,0.052,0.866,6.562,8.96,10.465,
49872190,-0.537,0.029,0.858,2.502,13.825,10.92,
49872190,-0.573,-0.003,0.84,1.767,13.422,10.5,
49872210,-0.578,-0.013,0.833,5.547,9.205,9.047,
49872210,-0.582,0.002,0.84,10.64,3.517,7.122,
49872230,-0.554,0.026,0.844,13.772,-1.295,4.077,
49872230,-0.518,0.037,0.842,14.175,-2.537,1.277,
49872250,-0.501,0.03,0.839,13.457,-1.907,-0.175,
49872250,-0.503,0.03,0.837,13.58,-0.875,-0.77,
49872260,-0.517,0.04,0.842,14.157,-1.557,-0.98,
49872270,-0.536,0.036,0.846,13.86,-3.937,-1.662,
49872280,-0.528,0.036,0.852,13.51,-8.627,-3.797,
49872290,-0.487,0.05,0.846,12.95,-11.9,-3.937,
49872300,-0.504,0.052,0.857,11.322,-13.387,-1.925,
49872310,-0.511,0.05,0.859,8.557,-13.79,-0.717,
49872320,-0.516,0.028,0.843,6.825,-14.682,2.555,
49872330,-0.517,0.022,0.831,9.205,-15.05,5.67,
49872340,-0.728,0.078,0.702,13.527,-23.397,6.107,
49872350,-0.441,0.109,0.93,9.345,-43.225,5.967,
49872360,-0.055,0.07,0.798,3.255,-17.272,9.345,
49872370,-0.28,0.082,0.843,3.622,12.302,7.892,
49872380,-0.575,0.094,0.804,-8.767,27.457,16.362,
49872390,-0.574,0.011,0.78,-8.4,25.935,21.332,
49872400,-0.49,-0.017,0.788,-1.382,21.157,24.587,
49872410,-0.57,-0.032,0.822,7.945,15.26,31.22,
49872420,-0.593,0.016,0.884,20.072,9.362,31.762,
49872430,-0.568,0.071,0.932,25.025,2.502,28.07,
49872440,-0.569,0.087,0.945,23.765,-3.202,22.592,
49872450,-0.551,0.086,0.943,21.647,-7.402,17.955,
49872460,-0.547,0.084,0.917,20.247,-10.657,18.007,
49872470,-0.578,0.103,0.902,20.615,-14.875,19.6,
49872480,-0.594,0.13,0.89,18.987,-19.932,18.672,
49872490,-0.56,0.152,0.883,14.297,-23.957,15.207,
49872500,-0.55,0.13,0.863,6.755,-27.702,12.46,
49872510,-0.503,0.076,0.816,3.692,-28.875,9.537,
49872520,-0.527,0.044,0.809,8.102,-30.012,10.395,
49872530,-0.492,0.052,0.806,16.467,-31.762,13.79,
49872540,-0.439,0.079,0.82,25.532,-29.172,18.777,
49872550,-0.467,0.119,0.837,29.855,-25.217,23.782,
49872560,-0.485,0.162,0.858,29.417,-21.857,26.477,
49872570,-0.524,0.17,0.853,25.182,-21.857,26.792,
49872580,-0.589,0.179,0.879,19.022,-27.877,24.5,
49872580,-0.469,0.144,0.859,12.897,-35.472,21.735,
49872600,-0.376,0.142,0.898,14.087,-32.865,17.22,
49872600,-0.426,0.15,0.918,12.407,-29.172,14.735,
49872620,-0.405,0.137,0.921,10.097,-25.76,12.04,
49872620,-0.363,0.127,0.926,11.095,-21.945,9.415,
49872640,-0.376,0.131,0.94,10.937,-17.43,7.63,
49872640,-0.424,0.132,0.964,9.625,-14.84,5.285,
49872660,-0.431,0.149,0.978,7.682,-14.385,-0.052,
49872660,-0.414,0.15,0.958,5.162,-16.257,-5.932,
49872670,-0.42,0.111,0.916,4.182,-20.125,-8.085,
49872680,-0.441,0.091,0.874,7.017,-26.075,-4.812,
49872690,-0.426,0.108,0.85,12.53,-31.99,0.507,
49872700,-0.36,0.138,0.829,16.905,-32.672,3.78,
49872710,-0.307,0.16,0.815,17.885,-26.477,6.002,
49872720,-0.323,0.167,0.804,15.977,-15.47,9.467,
49872730,-0.378,0.171,0.81,13.807,-5.162,12.617,
49872740,-0.422,0.191,0.836,12.372,2.135,14.367,
49872750,-0.472,0.206,0.866,9.87,4.13,15.452,
49872760,-0.514,0.187,0.871,6.387,1.47,15.207,
49872770,-0.509,0.164,0.866,5.827,-5.285,14.28,
49872780,-0.527,0.139,0.816,10.447,-13.912,16.415,
49872790,-0.63,0.103,0.862,18.55,-32.305,20.142,
49872800,-0.451,0.215,0.885,30.275,-42.805,19.985,
49872810,-0.325,0.322,0.928,34.44,-42.927,16.817,
49872820,-0.351,0.289,0.918,21.052,-35.63,13.615,
49872830,-0.333,0.211,0.897,12.775,-25.917,7.997,
49872840,-0.274,0.206,0.904,13.02,-16.31,6.212,
49872850,-0.27,0.235,0.933,16.24,-5.11,8.627,
49872860,-0.27,0.276,0.971,15.417,7.105,8.61,
49872870,-0.264,0.293,0.981,5.162,16.642,5.162,
49872880,-0.302,0.252,0.956,-7.21,23.345,1.155,
49872890,-0.373,0.189,0.913,-13.807,23.905,-2.642,
49872900,-0.407,0.168,0.886,-14.455,18.672,-5.897,
49872910,-0.373,0.167,0.865,-14.122,11.62,-8.557,
49872920,-0.301,0.167,0.843,-13.65,11.532,-10.902,
49872920,-0.283,0.181,0.844,-14.28,17.745,-13.142,
49872940,-0.29,0.185,0.857,-17.937,27.72,-13.125,
49872940,-0.325,0.181,0.878,-21.175,39.182,-11.655,
49872960,-0.43,0.159,0.889,-22.225,46.76,-8.907,
49872960,-0.541,0.146,0.9,-21.717,44.887,-4.55,
49872980,-0.613,0.146,0.892,-18.55,34.86,-1.54,
49872980,-0.636,0.142,0.885,-13.265,19.495,-0.402,
49873000,-0.59,0.145,0.87,-7.35,5.162,1.067,
49873000,-0.525,0.173,0.854,-2.222,-3.08,2.625,
49873010,-0.491,0.192,0.841,-0.805,-5.705,4.41,
49873020,-0.444,0.185,0.837,-0.507,-3.832,5.32,
49873030,-0.387,0.19,0.844,1.487,2.59,4.795,
49873040,-0.391,0.2,0.851,2.362,11.165,4.585,
49873050,-0.416,0.193,0.856,1.47,17.167,5.652,
49873060,-0.436,0.194,0.876,0.945,20.807,8.715,
49873070,-0.482,0.213,0.884,0.315,20.965,9.31,
49873080,-0.512,0.181,0.869,-2.765,15.767,7.997,
49873090,-0.499,0.141,0.841,-2.257,8.557,9.905,
49873100,-0.491,0.143,0.827,3.307,3.167,11.76,
49873110,-0.46,0.15,0.824,8.312,-0.717,13.562,
49873120,-0.401,0.167,0.829,12.285,2.642,14.892,
49873130,-0.381,0.204,0.842,12.512,10.71,11.392,
49873140,-0.412,0.175,0.842,8.61,19.687,7.507,
49873150,-0.504,0.153,0.85,9.362,22.417,5.477,
49873160,-0.563,0.177,0.851,12.18,16.887,5.057,
49873170,-0.56,0.185,0.837,14.525,5.897,5.145,
49873180,-0.538,0.192,0.81,16.695,-4.795,6.16,
49873190,-0.485,0.234,0.774,17.675,-12.88,8.067,
49873200,-0.409,0.268,0.756,17.412,-13.457,8.715,
49873210,-0.408,0.26,0.768,14.297,-8.907,5.127,
49873220,-0.397,0.249,0.8,10.36,-1.89,-1.855,
49873230,-0.378,0.265,0.855,8.155,6.685,-8.592,
49873240,-0.401,0.26,0.901,3.78,16.1,-13.457,
49873250,-0.413,0.229,0.948,-1.767,25.672,-15.872,
49873260,-0.52,0.199,0.973,-5.81,31.132,-13.282,
49873270,-0.652,0.184,0.992,-9.222,27.597,-8.96,
49873280,-0.681,0.137,0.951,-10.202,12.827,-5.722,
49873290,-0.606,0.094,0.893,-6.002,-3.622,-0.105,
49873300,-0.554,0.106,0.839,0.21,-15.557,5.337,
49873310,-0.462,0.146,0.795,4.305,-21.682,7.245,
49873320,-0.337,0.133,0.764,5.705,-16.73,9.135,
49873330,-0.356,0.125,0.758,8.662,-5.477,12.127,
49873330,-0.422,0.171,0.793,11.865,4.2,17.272,
49873350,-0.477,0.208,0.826,12.687,7.542,20.265,
49873350,-0.444,0.243,0.847,12.407,8.137,19.67,
49873370,-0.433,0.255,0.848,10.85,10.045,19.827,
49873370,-0.461,0.278,0.857,9.047,12.652,17.727,
49873390,-0.497,0.281,0.848,6.79,12.932,14.087,
49873390,-0.524,0.257,0.829,6.965,10.22,10.552,
49873410,-0.52,0.273,0.821,10.395,5.897,7.297,
49873410,-0.502,0.296,0.816,12.6,2.975,4.532,
49873420,-0.497,0.283,0.798,11.97,1.662,2.152,
49873430,-0.496,0.273,0.793,11.13,1.242,2.012,
49873440,-0.488,0.279,0.814,10.78,2.852,2.677,
49873450,-0.504,0.259,0.826,9.082,5.145,2.992,
49873460,-0.537,0.241,0.832,7.997,6.895,3.937,
49873470,-0.551,0.245,0.841,8.242,6.195,4.865,
49873480,-0.544,0.236,0.836,8.137,4.812,4.83,
49873490,-0.543,0.203,0.813,8.47,2.712,5.547,
49873500,-0.533,0.197,0.795,11.777,1.085,7.56,
49873510,-0.489,0.231,0.808,15.925,0.822,9.94,
49873520,-0.457,0.274,0.838,16.047,5.127,10.762,
49873530,-0.46,0.296,0.856,10.99,11.252,7.56,
49873540,-0.47,0.28,0.854,4.83,16.782,3.605,
49873550,-0.504,0.246,0.838,2.625,17.885,3.395,
49873560,-0.52,0.245,0.836,4.952,15.802,5.67,
49873570,-0.521,0.251,0.828,7.56,11.917,8.435,
49873580,-0.529,0.249,0.809,8.032,8.925,9.31,
49873590,-0.529,0.251,0.799,8.312,5.67,9.082,
49873600,-0.501,0.257,0.795,7.525,5.145,9.012,
49873610,-0.507,0.255,0.792,6.667,6.562,8.417,
49873620,-0.506,0.253,0.798,7.437,9.205,7.7,
49873630,-0.504,0.273,0.797,5.425,10.937,9.467,
49873640,-0.514,0.26,0.79,4.34,11.952,9.975,
49873650,-0.551,0.258,0.788,6.44,10.57,12.39,
49873660,-0.563,0.282,0.804,7.945,6.632,14.49,
49873670,-0.541,0.265,0.795,8.365,1.697,14.245,
49873670,-0.545,0.241,0.788,10.78,-1.977,16.73,
49873690,-0.552,0.251,0.774,15.032,-4.76,19.075,
49873690,-0.527,0.255,0.762,20.667,-5.512,19.915,
49873710,-0.516,0.267,0.762,25.97,-4.76,23.52,
49873710,-0.505,0.358,0.815,28.595,-0.385,24.552,
49873730,-0.435,0.375,0.785,20.562,4.672,22.19,
49873730,-0.464,0.379,0.822,15.995,15.592,15.96,
49873750,-0.579,0.362,0.788,5.88,15.557,12.95,
49873750,-0.506,0.328,0.78,2.695,10.377,9.94,
49873760,-0.499,0.318,0.801,4.2,6.002,7.77,
49873770,-0.498,0.33,0.805,2.03,3.395,3.657,
49873780,-0.551,0.303,0.801,-1.592,1.592,-0.84,
49873790,-0.552,0.277,0.799,-0.42,-2.555,-6.247,
49873800,-0.546,0.289,0.798,1.172,-7.07,-5.075,
49873810,-0.565,0.271,0.785,2.642,-10.675,-4.305,
49873820,-0.579,0.279,0.801,7.63,-12.11,-5.11,
49873830,-0.59,0.302,0.817,9.152,-14,-4.217,
49873840,-0.597,0.295,0.822,9.275,-15.557,-2.8,
49873850,-0.616,0.294,0.823,10.727,-19.18,-0.875,
49873860,-0.571,0.326,0.852,12.302,-22.4,0.262,
49873870,-0.511,0.355,0.885,10.535,-23.135,-0.035,
49873880,-0.52,0.345,0.875,6.352,-22.242,0.28,
49873890,-0.524,0.359,0.874,3.255,-23.555,-0.122,
49873900,-0.5,0.344,0.848,-0.525,-25.497,-0.857,
49873910,-0.495,0.3,0.789,-2.012,-27.212,-2.1,
49873920,-0.485,0.303,0.761,-0.665,-28.665,-1.19,
49873930,-0.467,0.31,0.747,-2.065,-29.26,1.137,
49873940,-0.459,0.259,0.732,-2.782,-26.81,0.367,
49873950,-0.5,0.272,0.759,-0.087,-25.602,0.98,
49873960,-0.523,0.324,0.81,0.91,-27.597,3.99,
49873970,-0.485,0.345,0.843,-1.452,-30.135,4.55,
49873980,-0.471,0.362,0.866,-6.3,-30.537,2.8,
49873990,-0.495,0.343,0.864,-12.057,-31.815,0.56,
49874000,-0.503,0.305,0.838,-14.507,-35.192,-0.997,
49874010,-0.522,0.3,0.829,-12.6,-40.477,-1.417,
49874020,-0.491,0.272,0.818,-10.307,-47.145,-2.59,
49874030,-0.395,0.283,0.832,-5.477,-46.375,-3.08,
49874040,-0.415,0.316,0.864,-2.905,-38.797,-5.372,
49874050,-0.434,0.334,0.91,-4.952,-32.2,-9.695,
49874060,-0.499,0.342,0.959,-7.315,-31.062,-13.09,
49874070,-0.598,0.362,1.033,-9.012,-40.95,-17.097,
49874080,-0.543,0.349,1.089,-11.147,-55.702,-22.347,
49874080,-0.465,0.294,1.107,-8.365,-60.48,-30.222,
49874100,-0.534,0.296,1.144,-2.292,-62.195,-33.197,
49874100,-0.593,0.343,1.165,-2.992,-66.57,-34.93,
49874110,-0.612,0.374,1.137,-7.945,-72.677,-44.59,
49874120,-0.58,0.379,1.09,-17.64,-80.972,-58.817,
49874130,-0.423,0.307,0.956,-27.895,-83.002,-70.98,
49874140,-0.289,0.225,0.829,-32.777,-76.335,-74.97,
49874150,-0.321,0.238,0.641,-32.917,-69.335,-68.267,
49874160,-0.359,0.234,0.637,-32.112,-68.512,-57.89,
49874170,-0.046,0.072,0.547,-29.015,-48.265,-54.092,
49874180,0.099,0.139,0.648,-9.537,-9.012,-55.317,
49874190,-0.238,0.162,0.802,-3.22,13.055,-44.8,
49874200,-0.284,0.246,0.815,-6.755,35.315,-44.24,
49874210,-0.174,0.224,0.792,-1.82,55.177,-56.507,
49874220,-0.303,0.109,0.775,1.277,67.497,-67.882,
49874230,-0.474,0.11,0.828,6.685,65.712,-82.18,
49874240,-0.552,0.177,0.856,10.605,47.285,-93.275,
49874250,-0.54,0.186,0.834,13.16,20.002,-100.065,
49874260,-0.461,0.164,0.821,14.91,-2.817,-101.08,
49874270,-0.349,0.175,0.803,14.28,-14.35,-94.342,
49874280,-0.251,0.203,0.793,8.417,-10.447,-82.092,
49874290,-0.213,0.222,0.797,-3.342,5.915,-71.12,
49874300,-0.247,0.199,0.773,-20.86,30.712,-62.545,
49874310,-0.228,0.191,0.789,-38.132,62.405,-61.407,
49874320,-0.208,0.187,0.778,-56.892,97.492,-61.11,
49874330,-0.261,0.139,0.757,-75.127,130.497,-59.027,
49874340,-0.371,0.08,0.746,-87.745,158.847,-60.585,
49874350,-0.477,0.045,0.726,-92.925,177.345,-66.587,
49874360,-0.573,0.042,0.717,-94.237,183.68,-72.555,
49874370,-0.632,0.03,0.704,-94.535,178.92,-76.72,
49874380,-0.62,0.037,0.672,-96.705,170.345,-77.91,
49874390,-0.581,0.045,0.584,-103.792,161.262,-72.817,
49874400,-0.641,-0.022,0.492,-108.972,150.675,-58.73,
49874410,-0.795,-0.152,0.439,-102.882,138.162,-42.647,
49874420,-0.879,-0.184,0.434,-86.117,120.732,-31.867,
49874420,-0.923,-0.124,0.473,-63.787,95.742,-20.79,
49874440,-0.95,-0.061,0.493,-46.917,64.82,-7.752,
49874440,-0.865,0,0.51,-36.085,34.597,4.497,
49874460,-0.76,0.023,0.539,-27.86,13.737,16.31,
49874460,-0.69,0.078,0.568,-22.26,4.935,24.64,
49874480,-0.693,0.095,0.624,-21.752,4.27,30.012,
49874480,-0.698,0.101,0.651,-22.487,8.242,33.11,
49874500,-0.649,0.079,0.669,-20.825,14.717,34.072,
49874500,-0.653,0.056,0.75,-15.75,25.795,44.607,
49874510,-0.765,-0.121,0.877,-7.577,33.46,59.097,
49874520,-0.741,-0.211,0.889,18.427,32.987,51.345,
49874530,-0.765,-0.122,0.982,56.787,26.967,29.33,
49874540,-0.521,0.058,1.118,75.442,24.71,15.662,
49874550,-0.578,0.235,1.194,63.052,44.905,16.292,
49874560,-0.802,0.237,1.124,25.917,61.04,11.637,
49874570,-0.665,0.061,0.994,-1.137,80.062,1.137,
49874580,-0.744,-0.037,0.844,-7.49,97.65,5.127,
49874590,-0.843,0.066,0.83,-5.6,105.507,12.932,
49874600,-0.931,0.141,0.74,-14.577,105.857,23.712,
49874610,-0.939,0.116,0.626,-29.592,100.922,28.437,
49874620,-0.932,0.038,0.52,-41.562,94.78,32.445,
49874630,-0.928,-0.017,0.454,-45.832,87.255,39.2,
49874640,-0.95,-0.052,0.431,-42.297,76.545,45.675,
49874650,-0.922,-0.057,0.404,-33.145,61.932,49.052,
49874660,-0.843,-0.016,0.395,-21.49,51.712,49.525,
49874670,-0.799,0.045,0.402,-15.19,47.127,48.44,
49874680,-0.82,0.101,0.395,-15.032,45.395,44.03,
49874690,-0.879,0.11,0.356,-17.832,40.11,38.797,
49874700,-0.922,0.111,0.352,-17.692,31.885,35.21,
49874710,-0.969,0.104,0.358,-16.992,14.175,34.965,
49874720,-0.924,0.1,0.353,-16.52,-2.012,33.932,
49874730,-0.858,0.119,0.402,-15.802,-12.32,29.767,
49874740,-0.831,0.127,0.456,-19.495,-15.785,26.512,
49874750,-0.837,0.116,0.464,-21.052,-14,23.17,
49874760,-0.797,0.131,0.488,-16.625,-6.545,18.2,
49874770,-0.778,0.143,0.504,-14.892,2.975,17.552,
49874780,-0.801,0.126,0.501,-16.047,15.137,19.145,
49874780,-0.832,0.112,0.481,-14.997,26.53,17.85,
49874800,-0.85,0.115,0.498,-14.98,34.842,16.66,
49874800,-0.841,0.129,0.46,-17.587,40.477,15.907,
49874820,-0.827,0.122,0.469,-23.397,47.932,19.075,
49874820,-0.877,0.057,0.47,-29.207,52.08,25.707,
49874830,-0.919,0.022,0.453,-25.672,55.142,32.287,
49874840,-0.888,0.061,0.466,-18.007,58.397,36.89,
49874850,-0.866,0.098,0.458,-18.025,63.805,38.605,
49874860,-0.903,0.094,0.452,-26.32,70.875,38.132,
49874870,-0.975,0.053,0.447,-34.37,72.852,33.985,
49874880,-1.065,-0.043,0.442,-37.17,64.277,29.522,
49874890,-1.071,-0.075,0.34,-27.72,49.227,22.645,
49874900,-1.021,-0.004,0.414,-11.847,36.75,13.545,
49874910,-1.016,0.048,0.421,-5.302,24.255,10.692,
49874920,-0.964,0.081,0.432,-4.235,17.71,6.107,
49874930,-0.867,0.086,0.412,-7.91,16.73,2.082,
49874940,-0.804,0.087,0.419,-12.705,24.937,2.432,
49874950,-0.825,0.092,0.417,-18.76,35.84,4.567,
49874960,-0.858,0.094,0.406,-26.092,46.655,7.14,
49874970,-0.862,0.079,0.396,-31.342,55.387,9.38,
49874980,-0.884,0.061,0.377,-33.407,63.385,10.692,
49874990,-0.937,0.05,0.353,-32.2,68.18,10.482,
49875000,-0.978,0.045,0.347,-28.14,68.285,9.712,
49875010,-1,0.045,0.337,-21.822,63.577,8.75,
49875020,-0.998,0.051,0.33,-14.577,56.875,7.647,
49875030,-0.98,0.061,0.295,-8.067,50.067,8.207,
49875040,-1.026,0.03,0.332,2.975,44.117,16.712,
49875050,-0.964,0.118,0.297,0.77,40.145,10.885,
49875060,-0.937,0.128,0.311,0.21,42.297,2.905,
49875070,-0.926,0.116,0.264,-6.702,47.197,-0.437,
49875080,-0.955,0.077,0.245,-7.735,51.432,-0.227,
49875090,-1,0.059,0.231,-5.582,52.325,4.777,
49875100,-1.012,0.099,0.212,-6.755,49.875,6.265,
49875110,-1.025,0.08,0.202,-5.67,46.13,5.862,
49875120,-1.041,0.056,0.193,-3.675,42.927,7.665,
49875130,-1.06,0.071,0.196,-2.397,37.38,7.472,
49875140,-1.076,0.089,0.213,-2.625,31.535,2.362,
49875150,-1.085,0.086,0.209,-3.01,25.34,-1.785,
49875160,-1.057,0.077,0.204,-2.747,19.18,-6.965,
49875170,-1.037,0.08,0.198,-1.487,13.685,-10.01,
49875170,-1.028,0.076,0.173,-0.997,8.522,-13.3,
49875190,-1.012,0.08,0.149,2.03,4.147,-15.155,
49875190,-1.05,0.055,0.179,8.347,-2.065,-6.737,
49875210,-1.08,0.057,0.165,7.787,-10.657,-0.962,
49875210,-1.126,0.07,0.146,9.03,-21.227,-5.617,
49875230,-1.148,0.038,0.13,13.352,-34.09,-12.337,
49875230,-1.105,-0.004,0.106,20.965,-46.987,-17.727,
49875250,-1.042,0.013,0.109,31.482,-56.035,-20.947,
49875250,-1.025,0.046,0.123,39.935,-60.112,-25.287,
49875260,-1.017,0.059,0.161,46.725,-59.762,-30.45,
49875270,-0.995,0.103,0.211,49.192,-57.802,-33.757,
49875280,-0.972,0.129,0.244,45.78,-54.057,-33.932,
49875290,-0.988,0.142,0.259,36.522,-49.472,-33.057,
49875300,-1.021,0.112,0.26,26.985,-45.395,-34.055,
49875310,-1.043,0.078,0.265,21.525,-44.852,-33.722,
49875320,-1.03,0.04,0.256,18.742,-48.615,-30.905,
49875330,-0.991,0.037,0.255,19.442,-54.162,-27.877,
49875340,-0.984,0.023,0.249,18.375,-57.96,-24.377,
49875350,-0.97,0.017,0.247,19.88,-58.992,-23.45,
49875360,-0.936,0.021,0.253,22.207,-56.437,-24.01,
49875370,-0.942,0.012,0.277,24.902,-51.73,-23.45,
49875380,-0.972,-0.007,0.284,25.83,-47.11,-23.66,
49875390,-1.015,-0.011,0.316,29.172,-46.13,-24.605,
49875400,-1.062,-0.036,0.304,31.692,-51.03,-24.605,
49875410,-1.001,-0.042,0.296,35.087,-55.527,-27.79,
49875420,-1.025,-0.056,0.336,42.122,-59.832,-30.8,
49875430,-1.085,-0.062,0.337,48.965,-70.035,-31.29,
49875440,-1.042,-0.057,0.347,59.01,-83.982,-28.297,
49875450,-0.937,-0.037,0.362,69.195,-95.27,-23.222,
49875460,-0.859,0.012,0.4,74.2,-98,-17.99,
49875470,-0.835,0.038,0.422,70.122,-94.64,-14.857,
49875480,-0.851,0.038,0.449,61.197,-87.5,-13.982,
49875490,-0.908,-0.011,0.428,53.252,-82.862,-13.825,
49875500,-0.9,0.001,0.447,51.135,-80.71,-17.027,
49875510,-0.879,0.044,0.465,46.165,-80.482,-15.662,
49875510,-0.897,0.058,0.467,37.555,-81.2,-12.285,
49875530,-0.908,0.023,0.45,29.995,-83.755,-9.695,
49875530,-0.878,0.009,0.45,26.757,-87.027,-7.35,
49875550,-0.808,0.037,0.513,26.582,-88.112,-4.34,
49875550,-0.711,0.06,0.552,22.925,-81.305,-2.275,
49875570,-0.597,0.044,0.557,21.105,-66.237,-4.427,
49875570,-0.561,0.023,0.588,25.41,-47.39,-8.592,
49875580,-0.662,0.065,0.626,31.202,-32.655,-8.645,
49875590,-0.777,0.117,0.642,32.025,-27.072,-5.512,
49875600,-0.815,0.138,0.641,30.362,-27.93,-2.362,
49875610,-0.827,0.128,0.62,24.237,-32.48,-0.262,
49875620,-0.834,0.103,0.587,18.532,-36.89,0.105,
49875630,-0.839,0.088,0.578,14.997,-40.705,-0.84,
49875640,-0.791,0.043,0.511,14.087,-41.65,-0.105,
49875650,-0.743,0.036,0.514,18.252,-32.305,3.115,
49875660,-0.775,0.077,0.548,18.077,-16.082,4.462,
49875670,-0.844,0.087,0.559,13.597,-2.87,3.832,
49875680,-0.891,0.069,0.564,10.027,2.712,4.637,
49875690,-0.91,0.064,0.57,7.717,0.157,6.982,
49875700,-0.906,0.054,0.555,2.852,-6.93,11.042,
49875710,-0.882,0.028,0.531,0.315,-15.452,14.997,
49875720,-0.876,-0.003,0.523,4.165,-22.96,19.092,
49875730,-0.82,0.022,0.542,9.537,-27.86,21.577,
49875740,-0.743,0.053,0.552,9.292,-22.54,22.487,
49875750,-0.891,0.054,0.595,5.6,-19.005,20.947,
49875760,-0.934,-0.017,0.561,1.732,-31.36,16.835,
49875770,-0.764,-0.043,0.556,11.917,-43.452,14.595,
49875780,-0.675,0.042,0.573,21.647,-45.885,17.937,
49875790,-0.697,0.141,0.625,18.357,-38.342,19.46,
49875800,-0.788,0.116,0.634,6.44,-31.71,17.955,
49875810,-0.807,0.052,0.619,0.437,-33.67,14.875,
49875820,-0.717,0.085,0.635,-0.087,-39.497,14.63,
49875830,-0.701,0.108,0.642,-1.68,-43.417,19.617,
49875840,-0.701,0.088,0.673,-5.565,-43.627,22.207,
49875850,-0.626,0.062,0.672,-9.922,-37.275,20.405,
49875860,-0.582,0.08,0.686,-5.267,-26.04,18.48,
49875870,-0.578,0.121,0.731,1.697,-13.65,18.742,
49875880,-0.603,0.184,0.75,2.905,-2.03,18.777,
49875890,-0.618,0.225,0.783,-6.685,5.95,21.035,
49875900,-0.708,0.218,0.782,-27.912,13.79,23.677,
49875910,-0.735,0.207,0.778,-46.76,21.787,21.42,
49875920,-0.737,0.128,0.75,-60.602,29.715,20.422,
49875920,-0.793,0.032,0.719,-65.52,33.39,20.282,
49875940,-0.862,-0.032,0.714,-62.002,32.252,17.01,
49875940,-0.905,0.013,0.726,-53.445,26.81,10.692,
49875960,-0.964,0.019,0.705,-42.385,11.06,5.372,
49875960,-0.915,0.025,0.691,-30.275,-5.81,-5.565,
49875980,-0.824,0.073,0.689,-23.117,-18.095,-22.505,
49875980,-0.808,0.138,0.661,-23.03,-29.312,-34.982,
49876000,-0.842,0.153,0.649,-22.977,-42.857,-43.05,
49876000,-0.865,0.162,0.627,-26.32,-60.13,-49.962,
49876010,-0.808,0.184,0.591,-35.77,-77.56,-57.662,
49876020,-0.8,0.162,0.582,-43.505,-93.205,-61.46,
49876030,-0.74,0.142,0.531,-53.567,-105.997,-63.682,
49876040,-0.629,0.125,0.527,-55.317,-110.25,-66.937,
49876050,-0.576,0.115,0.546,-58.765,-105.595,-69.72,
49876060,-0.558,0.137,0.602,-61.162,-96.635,-71.96,
49876070,-0.561,0.138,0.619,-66.605,-88.655,-74.2,
49876080,-0.639,0.046,0.654,-61.6,-84.525,-61.355,
49876090,-0.653,0.017,0.674,-54.88,-88.147,-44.17,
49876100,-0.604,0.033,0.699,-54.845,-90.72,-35.822,
49876110,-0.571,0.015,0.686,-61.985,-88.83,-28.49,
49876120,-0.528,-0.06,0.687,-61.232,-79.782,-26.442,
49876130,-0.524,-0.092,0.71,-56.402,-66.57,-17.412,
49876140,-0.595,-0.153,0.757,-47.635,-53.882,-6.037,
49876150,-0.617,-0.111,0.823,-39.41,-45.01,-3.902,
49876160,-0.677,-0.147,0.846,-36.47,-40.46,-0.927,
49876170,-0.69,-0.173,0.872,-29.277,-40.127,-0.035,
49876180,-0.631,-0.15,0.881,-27.895,-39.182,-6.457,
49876190,-0.602,-0.137,0.869,-27.615,-37.555,-6.93,
49876200,-0.577,-0.136,0.859,-25.882,-33.32,-3.885,
49876210,-0.558,-0.144,0.85,-22.977,-28.892,2.03,
49876220,-0.533,-0.135,0.861,-19.705,-23.222,5.722,
49876230,-0.516,-0.123,0.874,-16.397,-16.572,7.612,
49876240,-0.525,-0.138,0.902,-14,-10.29,9.222,
49876250,-0.504,-0.189,0.897,-10.692,-6.527,7.945,
49876260,-0.479,-0.2,0.877,0.315,-4.007,1.085,
49876260,-0.452,-0.151,0.879,12.547,-3.15,-4.585,
49876280,-0.434,-0.093,0.867,17.78,-1.26,-4.76,
49876280,-0.437,-0.061,0.851,17.395,1.102,-1.102,
49876300,-0.496,-0.052,0.839,12.232,2.87,4.812,
49876300,-0.544,-0.056,0.824,3.237,2.082,8.907,
49876320,-0.495,-0.082,0.801,-6.422,4.795,11.042,
49876320,-0.554,-0.107,0.808,-15.417,9.572,13.195,
49876330,-0.629,-0.116,0.789,-22.032,10.99,10.622,
49876340,-0.644,-0.175,0.799,-26.092,8.715,8.82,
49876350,-0.649,-0.26,0.772,-23.887,3.815,10.29,
49876360,-0.652,-0.221,0.757,-14.857,-0.875,7.455,
49876370,-0.711,-0.165,0.802,-9.59,-9.38,4.987,
49876380,-0.57,-0.212,0.788,-12.95,-14.612,6.72,
49876390,-0.488,-0.253,0.759,-8.487,-2.485,15.12,
49876400,-0.578,-0.221,0.797,1.89,9.1,17.745,
49876410,-0.659,-0.156,0.812,10.307,15.855,17.062,
49876420,-0.701,-0.114,0.831,9.677,13.58,15.61,
49876430,-0.694,-0.109,0.789,1.365,4.672,11.252,
49876440,-0.696,-0.114,0.791,-4.707,-7.455,5.057,
49876450,-0.534,-0.162,0.785,-8.697,-12.775,1.067,
49876460,-0.47,-0.158,0.769,-4.007,-6.02,0.945,
49876470,-0.591,-0.125,0.79,3.552,0.805,4.83,
49876480,-0.628,-0.057,0.798,0.752,3.78,5.757,
49876490,-0.611,-0.114,0.791,-4.76,0.542,6.037,
49876500,-0.51,-0.154,0.783,-1.75,2.047,4.55,
49876510,-0.62,-0.151,0.815,3.552,1.47,6.44,
49876520,-0.689,-0.113,0.876,2.94,-6.177,4.725,
49876530,-0.558,-0.137,0.884,-2.975,-9.152,5.215,
49876540,-0.498,-0.154,0.893,-6.755,-3.885,7.437,
49876550,-0.584,-0.134,0.887,-7.752,-1.032,9.397,
49876560,-0.586,-0.11,0.881,-10.797,1.365,10.08,
49876570,-0.581,-0.123,0.846,-14.56,1.155,8.995,
49876580,-0.574,-0.144,0.819,-15.382,1.75,7.332,
49876590,-0.57,-0.132,0.797,-14.98,2.817,7.7,
49876600,-0.592,-0.128,0.787,-15.207,3.78,8.435,
49876610,-0.639,-0.133,0.757,-15.172,1.61,7.507,
49876620,-0.618,-0.136,0.748,-13.737,-4.13,4.707,
49876630,-0.532,-0.145,0.747,-13.282,-2.87,5.11,
49876640,-0.558,-0.16,0.756,-11.707,3.15,8.312,
49876650,-0.649,-0.155,0.779,-9.047,5.53,9.24,
49876660,-0.651,-0.153,0.786,-8.067,4.182,7.332,
49876670,-0.629,-0.176,0.781,-7.63,1.785,4.672,
49876670,-0.617,-0.187,0.787,-5.337,0.35,3.36,
49876690,-0.626,-0.176,0.793,-2.642,-1.295,2.555,
49876690,-0.62,-0.169,0.793,-1.207,-5.617,1.417,
49876710,-0.538,-0.167,0.803,1.347,-5.477,-0.175,
49876710,-0.552,-0.167,0.813,3.482,-5.057,1.12,
49876730,-0.536,-0.138,0.831,3.517,-3.22,2.695,
49876730,-0.506,-0.105,0.856,0.542,-0.087,5.635,
49876750,-0.5,-0.093,0.866,-8.312,4.41,11.042,
49876750,-0.563,-0.083,0.868,-16.747,6.947,15.12,
49876760,-0.455,-0.133,0.839,-26.022,7.437,18.742,
49876770,-0.407,-0.168,0.813,-28.192,23.24,25.9,
49876780,-0.519,-0.16,0.815,-25.095,34.79,26.932,
49876790,-0.603,-0.144,0.797,-26.915,42.752,29.225,
49876800,-0.71,-0.175,0.757,-27.457,43.487,28.087,
49876810,-0.775,-0.232,0.752,-21.542,33.092,22.312,
49876820,-0.735,-0.246,0.739,-10.22,22.295,15.295,
49876830,-0.717,-0.173,0.749,2.642,11.637,4.795,
49876840,-0.712,-0.102,0.761,8.225,0.84,-3.797,
49876850,-0.652,-0.089,0.77,5.897,-8.015,-7.28,
49876860,-0.632,-0.124,0.758,0.805,-11.672,-6.037,
49876870,-0.593,-0.139,0.755,-3.85,-10.535,-3.167,
49876880,-0.632,-0.139,0.749,-6.58,-4.095,0.682,
49876890,-0.695,-0.144,0.747,-8.12,-0.42,1.277,
49876900,-0.72,-0.172,0.743,-8.382,-2.345,0.612,
49876910,-0.731,-0.171,0.738,-6.09,-8.015,-2.59,
49876920,-0.702,-0.148,0.739,-4.287,-14.035,-7.192,
49876930,-0.629,-0.136,0.737,-3.937,-17.832,-10.605,
49876940,-0.615,-0.144,0.74,-5.285,-17.972,-10.71,
49876950,-0.616,-0.155,0.744,-6.492,-17.255,-8.802,
49876960,-0.564,-0.15,0.762,-7.017,-14.21,-4.672,
49876970,-0.561,-0.161,0.779,-8.54,-7.507,0.262,
49876980,-0.613,-0.187,0.799,-9.8,-1.33,3.832,
49876990,-0.646,-0.185,0.812,-9.59,1.54,4.357,
49877000,-0.656,-0.185,0.818,-10.657,-0.315,2.835,
49877010,-0.625,-0.195,0.787,-11.987,-2.45,1.365,
49877010,-0.599,-0.202,0.766,-9.397,-2.17,0.297,
49877030,-0.604,-0.189,0.754,-6.055,0.087,0.595,
49877030,-0.621,-0.177,0.742,-4.34,0.682,1.155,
49877050,-0.619,-0.178,0.726,-4.27,-0.262,1.907,
49877050,-0.613,-0.174,0.725,-3.377,-1.015,2.415,
49877070,-0.622,-0.169,0.732,-4.427,-0.997,4.165,
49877070,-0.625,-0.162,0.739,-5.985,-0.577,5.687,
49877080,-0.641,-0.165,0.75,-8.872,0.052,7.017,
49877090,-0.677,-0.18,0.754,-12.11,-1.645,7.542,
49877100,-0.642,-0.176,0.766,-11.725,-2.8,5.442,
49877110,-0.64,-0.174,0.784,-12.495,-2.992,4.06,
49877120,-0.635,-0.189,0.78,-14.052,-0.752,3.237,
49877130,-0.64,-0.181,0.79,-12.442,1.505,1.54,
49877140,-0.635,-0.159,0.797,-14.315,1.365,1.015,
49877150,-0.605,-0.15,0.785,-17.587,0.77,1.225,
49877160,-0.596,-0.158,0.775,-20.475,3.132,2.275,
49877170,-0.606,-0.157,0.762,-23.362,5.95,3.062,
49877180,-0.603,-0.175,0.723,-25.305,10.045,3.762,
49877190,-0.627,-0.231,0.701,-22.312,14.717,2.59,
49877200,-0.715,-0.254,0.704,-12.792,12.197,-1.47,
49877210,-0.698,-0.242,0.695,-1.435,4.76,-7.297,
49877220,-0.672,-0.222,0.729,8.75,-2.59,-13.177,
49877230,-0.632,-0.166,0.762,14.35,-10.727,-15.767,
49877240,-0.576,-0.132,0.795,11.48,-10.062,-13.457,
49877250,-0.633,-0.169,0.809,5.005,-8.592,-8.557,
49877260,-0.596,-0.199,0.778,1.277,-6.755,-7.437,
49877270,-0.569,-0.187,0.788,0.315,-3.815,-5.757,
49877280,-0.601,-0.167,0.79,-3.255,-0.84,-0.595,
49877290,-0.64,-0.194,0.772,-6.195,0.752,1.89,
49877300,-0.553,-0.203,0.707,-4.13,-1.085,0.682,
49877310,-0.556,-0.212,0.766,-1.207,4.445,4.2,
49877320,-0.647,-0.227,0.72,0.997,7.805,7.997,
49877330,-0.619,-0.226,0.747,7.42,8.26,6.65,
49877340,-0.645,-0.212,0.733,9.257,5.967,7.962,
49877350,-0.686,-0.185,0.75,10.517,0.665,7.647,
49877360,-0.669,-0.178,0.743,6.877,-5.057,6.352,
49877370,-0.635,-0.192,0.733,2.887,-7.437,5.582,
49877380,-0.635,-0.197,0.745,-0.122,-5.845,6.44,
49877390,-0.641,-0.197,0.763,-2.747,-4.637,7.595,
49877400,-0.661,-0.192,0.793,-6.002,-6.58,8.785,
49877410,-0.633,-0.201,0.781,-10.202,-8.137,9.537,
49877420,-0.582,-0.213,0.794,-11.55,-6.072,10.412,
49877420,-0.63,-0.212,0.786,-11.83,-3.045,11.882,
49877440,-0.651,-0.193,0.769,-13.335,-4.235,11.147,
49877440,-0.597,-0.2,0.747,-13.142,-5.11,9.52,
49877460,-0.609,-0.222,0.73,-9.52,-3.167,9.362,
49877460,-0.65,-0.2,0.725,-3.412,-2.187,8.697,
49877470,-0.658,-0.182,0.727,0.157,-2.992,7.28,
49877480,-0.659,-0.184,0.723,1.347,-4.217,5.81,
49877490,-0.643,-0.172,0.731,1.837,-4.882,4.952,
49877500,-0.675,-0.178,0.731,0.437,-4.375,4.935,
49877510,-0.681,-0.18,0.742,0.612,-5.32,1.75,
49877520,-0.667,-0.171,0.755,-0.385,-6.055,-0.577,
49877530,-0.655,-0.182,0.765,-2.362,-7.787,-0.927,
49877540,-0.621,-0.181,0.763,-2.677,-8.05,-0.507,
49877550,-0.604,-0.175,0.765,-2.712,-5.687,1.102,
49877560,-0.624,-0.175,0.765,-3.815,-4.182,3.185,
49877570,-0.625,-0.18,0.758,-5.582,-3.727,4.83,
49877580,-0.622,-0.193,0.742,-5.722,-3.027,5.215,
49877590,-0.632,-0.203,0.735,-4.27,-2.467,5.512,
49877600,-0.635,-0.202,0.738,-1.312,-0.98,5.11,
49877610,-0.66,-0.197,0.742,0.962,-1.312,4.2,
49877620,-0.652,-0.193,0.728,2.502,-2.117,2.607,
49877630,-0.643,-0.186,0.74,4.2,-1.75,1.312,
49877640,-0.679,-0.186,0.742,3.167,-1.575,1.137,
49877650,-0.694,-0.195,0.736,2.397,-3.64,-0.91,
49877660,-0.67,-0.193,0.734,3.255,-5.53,-3.78,
49877670,-0.645,-0.172,0.743,3.78,-7.455,-5.197,
49877680,-0.634,-0.157,0.757,1.802,-8.505,-4.655,
49877690,-0.631,-0.172,0.764,-1.207,-9.065,-3.955,
49877700,-0.632,-0.192,0.766,-2.45,-9.502,-4.41,
49877710,-0.625,-0.19,0.777,-2.222,-9.572,-5.67,
49877720,-0.638,-0.178,0.788,-2.502,-9.327,-6.387,
49877730,-0.645,-0.174,0.783,-2.975,-10.097,-7.595,
49877740,-0.636,-0.176,0.778,-2.432,-10.815,-9.502,
49877750,-0.625,-0.174,0.775,-1.855,-10.535,-10.605,
49877760,-0.606,-0.16,0.771,-1.645,-9.695,-10.64,
49877760,-0.576,-0.159,0.759,-1.82,-8.522,-9.87,
49877780,-0.554,-0.172,0.757,-1.4,-6.825,-7.525,
49877780,-0.539,-0.176,0.748,-0.245,-4.812,-4.322,
49877800,-0.537,-0.173,0.752,1.697,-2.467,-0.892,
49877800,-0.549,-0.181,0.758,2.555,0.805,2.887,
49877820,-0.576,-0.202,0.748,2.59,3.657,6.055,
49877820,-0.565,-0.207,0.745,3.307,7.612,6.807,
49877830,-0.62,-0.218,0.745,3.15,11.55,7.402,
49877840,-0.693,-0.236,0.74,2.485,11.445,7.28,
49877850,-0.692,-0.23,0.751,1.68,8.12,6.842,
49877860,-0.695,-0.227,0.75,-0.42,4.27,6.527,
49877870,-0.681,-0.233,0.745,-0.612,1.137,4.69,
49877880,-0.656,-0.232,0.734,-0.367,-0.315,3.237,
49877890,-0.652,-0.22,0.736,0.612,-1.662,2.835,
49877900,-0.644,-0.204,0.754,2.012,-2.8,1.767,
49877910,-0.632,-0.196,0.756,2.257,-4.182,1.312,
49877920,-0.617,-0.178,0.768,1.872,-5.127,0.455,
49877930,-0.598,-0.177,0.771,2.362,-4.515,-0.245,
49877940,-0.596,-0.176,0.756,4.497,-3.36,-0.525,
49877950,-0.584,-0.158,0.764,8.365,-0.787,4.112,
49877960,-0.612,-0.13,0.759,7.28,2.187,6.825,
49877970,-0.654,-0.14,0.753,5.915,4.83,6.737,
49877980,-0.68,-0.167,0.731,3.885,6.44,5.53,
49877990,-0.724,-0.18,0.722,4.392,5.635,3.342,
49878000,-0.746,-0.171,0.714,5.565,1.837,-0.157,
49878010,-0.689,-0.152,0.729,6.422,-3.272,-4.007,
49878020,-0.726,-0.146,0.711,3.85,-10.167,-6.02,
49878030,-0.664,-0.151,0.723,2.38,-15.627,-8.68,
49878040,-0.659,-0.195,0.729,0.525,-19.95,-9.852,
49878050,-0.558,-0.192,0.75,3.29,-23.607,-11.41,
49878060,-0.509,-0.199,0.831,5.32,-12.687,-7.84,
49878070,-0.693,-0.247,0.807,3.062,-8.96,-3.15,
49878080,-0.603,-0.213,0.837,6.597,-9.222,-6.79,
49878090,-0.584,-0.178,0.83,3.272,-10.115,-6.492,
49878100,-0.575,-0.207,0.798,-2.975,-9.292,-4.112,
49878110,-0.547,-0.228,0.775,-2.275,-6.685,-2.03,
49878120,-0.581,-0.217,0.77,-0.332,-4.637,1.417,
49878130,-0.603,-0.205,0.761,1.05,-4.375,2.765,
49878140,-0.579,-0.192,0.755,2.87,-3.342,2.957,
49878140,-0.64,-0.185,0.75,2.135,-2.537,5.285,
49878160,-0.668,-0.184,0.754,1.435,-3.045,5.092,
49878160,-0.688,-0.176,0.765,0.35,-4.655,2.625,
49878170,-0.673,-0.165,0.778,-2.397,-6.265,-0.63,
49878180,-0.667,-0.169,0.792,-5.197,-6.615,-2.957,
49878190,-0.649,-0.167,0.814,-7.945,-7.175,-5.022,
49878200,-0.594,-0.152,0.829,-10.727,-7.192,-6.597,
49878210,-0.555,-0.149,0.829,-13.055,-5.845,-6.247,
49878220,-0.53,-0.162,0.81,-15.155,-2.257,-4.287,
49878230,-0.538,-0.167,0.789,-15.417,1.767,-1.26,
49878240,-0.582,-0.164,0.783,-15.82,3.85,1.995,
49878250,-0.585,-0.161,0.768,-15.277,5.932,2.835,
49878260,-0.654,-0.181,0.754,-16.275,7.262,4.375,
49878270,-0.687,-0.206,0.717,-16.292,5.775,3.412,
49878280,-0.692,-0.19,0.72,-12.792,4.007,-0.437,
49878290,-0.709,-0.179,0.725,-15.155,1.05,-2.467,
49878300,-0.704,-0.202,0.717,-16.87,-1.452,-4.935,
49878310,-0.657,-0.218,0.721,-15.942,-4.007,-8.05,
49878320,-0.664,-0.224,0.724,-15.645,-3.517,-8.785,
49878330,-0.674,-0.228,0.708,-15.067,-6.405,-9.992,
49878340,-0.612,-0.228,0.732,-12.145,-7.98,-12.145,
49878350,-0.602,-0.239,0.753,-10.395,-8.4,-11.777,
49878360,-0.574,-0.246,0.792,-10.377,-7.805,-9.695,
49878370,-0.532,-0.242,0.82,-9.94,-6.58,-7.28,
49878380,-0.522,-0.25,0.81,-10.22,-4.06,-3.78,
49878390,-0.524,-0.26,0.787,-8.487,-1.312,-0.945,
49878400,-0.52,-0.258,0.76,-5.005,3.657,2.415,
49878410,-0.579,-0.262,0.752,-2.52,6.772,7,
49878420,-0.627,-0.262,0.724,0.28,6.282,9.152,
49878430,-0.622,-0.253,0.693,3.867,4.917,8.61,
49878440,-0.629,-0.242,0.679,6.3,4.147,9.31,
49878450,-0.66,-0.231,0.677,8.767,3.097,9.695,
49878460,-0.673,-0.229,0.679,10.36,2.625,7.892,
49878470,-0.698,-0.245,0.664,12.022,0.84,2.782,
49878480,-0.711,-0.226,0.689,13.93,-2.467,-0.805,
49878490,-0.707,-0.221,0.689,11.357,-6.02,-0.315,
49878500,-0.667,-0.222,0.716,12.25,-8.207,-3.482,
49878510,-0.631,-0.176,0.786,12.127,-8.627,-5.32,
49878510,-0.618,-0.152,0.814,6.422,-10.272,-4.305,
49878530,-0.574,-0.181,0.826,1.977,-9.467,-2.17,
49878530,-0.566,-0.176,0.821,1.067,-8.47,0.35,
49878550,-0.585,-0.128,0.843,-1.382,-9.012,2.73,
49878550,-0.589,-0.133,0.847,-7.612,-10.675,4.095,
49878570,-0.577,-0.147,0.86,-13.142,-12.215,5.022,
49878570,-0.579,-0.127,0.885,-20.86,-16.397,7.472,
49878580,-0.561,-0.154,0.891,-28.56,-18.585,9.275,
49878590,-0.56,-0.195,0.896,-31.255,-14.647,9.292,
49878600,-0.63,-0.225,0.854,-32.9,-10.815,9.327,
49878610,-0.656,-0.204,0.773,-29.872,-9.117,5.145,
49878620,-0.671,-0.185,0.701,-25.585,-5.932,-1.995,
49878630,-0.7,-0.177,0.681,-22.312,-6.125,-6.51,
49878640,-0.693,-0.178,0.703,-21.525,-5.022,-8.242,
49878650,-0.685,-0.193,0.718,-23.957,-8.592,-11.532,
49878660,-0.625,-0.22,0.764,-26.967,-8.417,-13.107,
49878670,-0.532,-0.231,0.739,-29.225,-9.73,-15.715,
49878680,-0.564,-0.3,0.762,-29.277,-5.057,-15.68,
49878690,-0.563,-0.312,0.731,-25.182,-5.512,-12.95,
49878700,-0.558,-0.265,0.735,-20.947,-2.642,-9.975,
49878710,-0.63,-0.323,0.685,-22.452,-0.35,-7.315,
49878720,-0.655,-0.353,0.696,-17.99,0.14,-7.157,
49878730,-0.648,-0.376,0.649,-18.322,-0.927,-5.407,
49878740,-0.59,-0.381,0.657,-13.282,-1.225,-5.67,
49878750,-0.568,-0.404,0.652,-10.167,-0.962,-1.242,
49878760,-0.573,-0.405,0.633,-3.78,-1.452,2.94,
49878770,-0.556,-0.359,0.65,2.765,-3.22,6.247,
49878780,-0.574,-0.337,0.665,5.53,-5.11,10.797,
49878790,-0.583,-0.341,0.686,7.472,-7.332,14.595,
49878800,-0.555,-0.343,0.717,12.512,-6.177,16.257,
49878810,-0.553,-0.297,0.762,18.165,-3.255,17.447,
49878820,-0.592,-0.247,0.803,19.582,-1.347,19.18,
49878830,-0.625,-0.213,0.803,18.707,-0.822,18.585,
49878830,-0.653,-0.188,0.793,18.06,0.332,16.117,
49878850,-0.726,-0.177,0.799,16.66,-0.28,12.635,
49878850,-0.693,-0.163,0.799,15.785,-2.677,7.297,
49878870,-0.665,-0.17,0.788,15.102,-2.03,1.732,
49878870,-0.639,-0.186,0.772,13.492,-1.382,-1.82,
49878890,-0.626,-0.194,0.748,11.567,-3.552,-3.745,
49878890,-0.532,-0.199,0.736,11.847,-4.62,-5.232,
49878910,-0.532,-0.207,0.715,12.197,-4.777,-2.957,
49878910,-0.543,-0.189,0.744,11.655,-5.267,1.277,
49878920,-0.552,-0.204,0.757,8.767,-3.167,4.882,
49878930,-0.62,-0.241,0.744,5.232,-1.015,7.787,
49878940,-0.615,-0.259,0.77,4.025,1.96,7.717,
49878950,-0.565,-0.249,0.774,3.027,5.95,8.89,
49878960,-0.513,-0.23,0.768,1.067,11.707,13.422,
49878970,-0.412,-0.211,0.793,-0.612,20.93,20.16,
49878980,-0.442,-0.249,0.837,-0.98,32.672,27.597,
49878990,-0.574,-0.285,0.834,-0.7,40.477,32.025,
49879000,-0.689,-0.293,0.782,3.43,40.197,28.77,
49879010,-0.707,-0.31,0.687,12.18,35.857,23.292,
49879020,-0.732,-0.303,0.607,23.835,30.66,18.497,
49879030,-0.781,-0.231,0.64,33.477,28.472,14.28,
49879040,-0.841,-0.192,0.658,31.062,23.817,7.332,
49879050,-0.743,-0.214,0.664,30.275,19.232,-0.542,
49879060,-0.728,-0.204,0.664,27.51,15.82,0.717,
49879070,-0.693,-0.161,0.696,28.77,12.39,0.752,
49879080,-0.616,-0.125,0.735,27.317,14.787,0.927,
49879090,-0.653,-0.087,0.794,21.63,18.095,3.71,
49879100,-0.657,-0.098,0.806,12.442,21.91,4.882,
49879110,-0.745,-0.143,0.825,7.367,29.4,5.74,
49879120,-0.884,-0.121,0.809,-3.902,18.76,4.515,
49879130,-0.643,-0.179,0.737,-10.22,10.587,-5.075,
49879140,-0.637,-0.22,0.703,-6.737,9.94,-5.355,
49879150,-0.658,-0.164,0.733,-1.505,12.565,-2.887,
49879160,-0.713,-0.133,0.732,-3.185,9.607,-1.802,
49879170,-0.68,-0.167,0.724,-8.645,6.177,-2.94,
49879180,-0.733,-0.191,0.718,-10.587,3.395,-3.167,
49879190,-0.802,-0.177,0.754,-13.405,-0.542,-4.445,
49879200,-0.759,-0.196,0.739,-15.785,-5.39,-9.695,
49879210,-0.696,-0.199,0.742,-14.577,-6.457,-13.86,
49879220,-0.672,-0.202,0.714,-12.565,-8.05,-14.997,
49879230,-0.559,-0.168,0.719,-7.332,-5.092,-14.7,
49879240,-0.535,-0.141,0.705,-6.912,-0.245,-9.222,
49879250,-0.506,-0.15,0.725,-5.477,10.097,-0.787,
49879260,-0.72,-0.218,0.735,-4.077,14.157,5.512,
49879260,-0.69,-0.237,0.758,0.087,11.2,2.24,
49879280,-0.692,-0.261,0.77,7.63,14.56,-2.205,
49879280,-0.773,-0.236,0.723,15.435,18.305,-6.877,
49879300,-0.791,-0.175,0.69,20.02,15.697,-13.807,
49879300,-0.721,-0.156,0.645,15.295,6.685,-17.272,
49879320,-0.688,-0.165,0.62,8.522,-1.382,-15.592,
49879320,-0.674,-0.175,0.606,2.73,-5.932,-12.04,
49879330,-0.655,-0.193,0.627,-1.645,-4.69,-8.032,
49879340,-0.756,-0.264,0.668,-8.82,-3.185,-3.832,
49879350,-0.794,-0.309,0.674,-11.917,-9.275,-3.447,
49879360,-0.719,-0.269,0.709,-10.202,-13.737,-7.262,
49879370,-0.68,-0.24,0.718,-10.657,-15.802,-9.467,
49879380,-0.631,-0.229,0.71,-10.36,-15.347,-9.835,
49879390,-0.638,-0.207,0.716,-11.515,-13.247,-7.892,
49879400,-0.671,-0.229,0.694,-16.205,-13.142,-4.707,
49879410,-0.628,-0.251,0.689,-16.187,-12.827,-3.482,
49879420,-0.647,-0.224,0.698,-14.77,-10.92,-1.067,
49879430,-0.708,-0.208,0.716,-17.64,-10.465,0.787,
49879440,-0.739,-0.23,0.722,-22.435,-11.567,-0.542,
49879450,-0.716,-0.256,0.741,-25.935,-11.83,-3.202,
49879460,-0.764,-0.269,0.744,-27.807,-12.197,-5.337,
49879470,-0.687,-0.275,0.669,-24.447,-15.977,-8.925,
49879480,-0.632,-0.254,0.673,-13.3,-14.07,-10.36,
49879490,-0.681,-0.258,0.661,-9.362,-12.617,-9.38,
49879500,-0.661,-0.255,0.682,-2.257,-10.692,-10.272,
49879510,-0.614,-0.221,0.736,1.295,-7.35,-9.922,
49879520,-0.59,-0.214,0.778,1.522,-3.237,-8.137,
49879530,-0.629,-0.209,0.79,-1.382,-1.26,-5.67,
49879540,-0.624,-0.212,0.749,-5.67,-0.35,-4.165,
49879550,-0.657,-0.209,0.713,-4.952,1.557,-5.652,
49879560,-0.694,-0.247,0.672,-4.515,2.467,-8.977,
49879570,-0.758,-0.264,0.641,-3.902,1.225,-9.222,
49879580,-0.764,-0.266,0.625,-2.73,-2.642,-12.652,
49879580,-0.755,-0.265,0.641,-0.805,-6.125,-17.307,
49879600,-0.764,-0.286,0.645,-2.905,-10.535,-19.285,
49879600,-0.736,-0.293,0.655,-2.345,-15.592,-22.19,
49879620,-0.653,-0.279,0.684,-1.172,-18.672,-23.415,
49879620,-0.632,-0.26,0.709,-1.732,-18.777,-22.085,
49879640,-0.612,-0.239,0.737,-3.01,-15.96,-20.125,
49879640,-0.582,-0.232,0.749,-4.637,-12.915,-17.815,
49879660,-0.58,-0.241,0.767,-7.665,-9.257,-15.155,
49879660,-0.581,-0.292,0.756,-11.235,-5.635,-11.707,
49879670,-0.57,-0.301,0.749,-8.995,-2.73,-8.68,
49879680,-0.539,-0.276,0.748,-7.56,0.28,-4.55,
49879690,-0.558,-0.284,0.734,-8.75,2.8,1.05,
49879700,-0.61,-0.332,0.696,-7.665,4.532,4.077,
49879710,-0.644,-0.35,0.659,-3.465,3.797,6.44,
49879720,-0.623,-0.322,0.644,4.077,3.01,7.42,
49879730,-0.654,-0.296,0.639,8.855,2.187,8.662,
49879740,-0.69,-0.288,0.648,9.782,1.12,8.872,
49879750,-0.719,-0.281,0.682,8.4,-0.717,7.875,
49879760,-0.749,-0.294,0.7,4.917,-1.96,5.932,
49879770,-0.707,-0.286,0.713,4.847,-3.395,1.75,
49879780,-0.65,-0.238,0.738,4.917,-3.08,-0.595,
49879790,-0.642,-0.219,0.753,2.117,-2.467,-0.262,
49879800,-0.64,-0.241,0.745,-1.68,-1.872,-0.017,
49879810,-0.616,-0.256,0.751,-1.837,-0.752,-0.507,
49879820,-0.634,-0.255,0.75,-1.347,1.19,0.087,
49879830,-0.654,-0.258,0.74,-1.312,2.152,0.105,
49879840,-0.659,-0.265,0.724,-1.82,2.695,-0.297,
49879850,-0.656,-0.27,0.702,-1.942,2.52,-0.735,
49879860,-0.672,-0.272,0.683,-1.662,2.66,-0.665,
49879870,-0.701,-0.279,0.661,-1.05,0.962,-1.225,
49879880,-0.675,-0.278,0.645,1.242,-0.927,-2.852,
49879890,-0.663,-0.263,0.668,4.34,-1.4,-3.377,
49879900,-0.679,-0.253,0.687,3.29,-2.275,-2.467,
49879910,-0.685,-0.275,0.698,-0.945,-4.095,-2.065,
49879920,-0.666,-0.311,0.697,-3.115,-5.092,-2.257,
49879930,-0.643,-0.304,0.718,-1.662,-5.705,-2.52,
49879940,-0.628,-0.284,0.729,-1.137,-5.617,-1.995,
49879950,-0.631,-0.28,0.732,-1.96,-5.53,-0.665,
49879960,-0.638,-0.291,0.714,-3.237,-5.477,0.49,
49879970,-0.645,-0.283,0.701,-2.992,-5.617,1.172,
49879980,-0.662,-0.273,0.699,-2.8,-5.425,1.837,
49879990,-0.684,-0.276,0.698,-2.747,-5.652,1.47,
49880000,-0.68,-0.268,0.704,-2.695,-6.93,-0.105,
49880010,-0.67,-0.263,0.713,-3.202,-7.77,-1.312,
49880010,-0.651,-0.274,0.71,-3.517,-7.577,-2.065,
49880030,-0.641,-0.285,0.718,-2.87,-6.037,-2.17,
49880030,-0.647,-0.296,0.713,-1.4,-4.41,-1.68,
49880050,-0.636,-0.287,0.713,0.752,-3.622,-1.645,
49880050,-0.627,-0.281,0.699,2.24,-3.185,-1.05,
49880070,-0.626,-0.281,0.702,3.71,-1.295,0.262,
49880070,-0.633,-0.29,0.695,4.252,-0.49,2.205,
49880080,-0.63,-0.295,0.688,5.985,0.472,3.5,
49880090,-0.636,-0.293,0.69,7.402,0.63,4.795,
49880100,-0.651,-0.292,0.707,7.21,1.12,5.985,
49880110,-0.672,-0.293,0.717,6.055,0.315,6.142,
49880120,-0.674,-0.288,0.717,4.287,-1.312,5.757,
49880130,-0.658,-0.274,0.716,2.992,-2.957,5.127,
49880140,-0.661,-0.278,0.71,0.28,-4.025,5.687,
49880150,-0.652,-0.267,0.712,0.84,-4.655,5.302,
49880160,-0.653,-0.261,0.717,-0.7,-5.967,5.617,
49880170,-0.613,-0.291,0.702,0.595,-5.565,5.617,
49880180,-0.608,-0.267,0.699,6.212,-2.747,6.527,
49880190,-0.647,-0.24,0.704,8.032,-1.417,8.68,
49880200,-0.655,-0.251,0.705,8.697,-0.42,9.362,
49880210,-0.642,-0.27,0.684,8.82,-0.385,9.782,
49880220,-0.661,-0.256,0.698,10.867,0.84,10.255,
49880230,-0.698,-0.246,0.721,9.747,0.42,10.36,
49880240,-0.693,-0.255,0.734,8.067,-0.297,8.382,
49880250,-0.687,-0.264,0.745,5.897,-0.332,6.877,
49880260,-0.692,-0.261,0.735,4.165,-1.505,5.495,
49880270,-0.658,-0.247,0.725,3.867,-2.117,4.077,
49880280,-0.636,-0.239,0.711,3.43,-1.067,4.182,
49880290,-0.648,-0.241,0.709,2.852,-0.507,5.355,
49880300,-0.644,-0.251,0.708,2.835,-0.455,6.335,
49880310,-0.639,-0.254,0.712,4.515,-0.122,6.982,
49880320,-0.651,-0.257,0.714,4.725,0.157,7.98,
49880330,-0.654,-0.262,0.712,5.005,0.77,8.435,
49880330,-0.666,-0.259,0.714,5.67,1.05,8.89,
49880350,-0.663,-0.247,0.719,5.582,0.245,9.397,
49880350,-0.662,-0.246,0.712,4.62,-0.402,9.835,
49880370,-0.66,-0.253,0.706,4.392,-0.367,10.062,
49880370,-0.65,-0.252,0.706,5.652,0.332,10.5,
49880390,-0.652,-0.247,0.705,7.385,1.557,11.41,
49880390,-0.649,-0.243,0.704,9.292,1.75,12.267,
49880410,-0.594,-0.254,0.679,11.112,3.062,14.245,
49880410,-0.557,-0.24,0.702,17.395,13.562,18.637,
49880420,-0.695,-0.197,0.753,22.207,20.492,20.79,
49880430,-0.771,-0.181,0.748,15.925,15.085,19.617,
49880440,-0.714,-0.193,0.733,9.992,6.737,15.26,
49880450,-0.683,-0.199,0.722,6.037,1.855,12.582,
49880460,-0.692,-0.201,0.712,2.922,1.277,12.355,
49880470,-0.708,-0.204,0.71,0.052,3.552,12.775,
49880480,-0.701,-0.199,0.721,0.157,6.877,12.11,
