#Format version: 1.0
time[ms],accX[g],accY[g],accZ[g],Value 1,Value 2,Value 3,
50050250,-0.638,-0.155,0.737,-24.727,-86.677,-3.097,
50050260,-0.561,-0.109,0.75,-11.847,-83.405,-5.792,
50050270,-0.587,-0.05,0.786,-4.41,-76.842,-8.872,
50050280,-0.562,-0.039,0.803,-3.797,-70.21,-10.15,
50050290,-0.495,-0.041,0.792,-1.995,-62.527,-11.497,
50050300,-0.485,-0.036,0.795,3.237,-53.987,-10.167,
50050310,-0.494,0.004,0.825,7.087,-45.447,-6.265,
50050320,-0.488,0.02,0.819,7.805,-36.995,-1.452,
50050330,-0.507,0.039,0.863,6.37,-30.38,-1.347,
50050340,-0.573,0.028,0.844,2.362,-28.77,0.49,
50050350,-0.521,0.028,0.833,2.905,-27.755,-1.33,
50050360,-0.532,0.028,0.836,4.725,-26.477,-1.452,
50050370,-0.562,0.039,0.839,5.11,-26.967,-3.622,
50050380,-0.566,0.028,0.837,6.807,-27.912,-5.32,
50050390,-0.565,0.019,0.843,9.275,-30.625,-7.665,
50050400,-0.564,0.016,0.839,10.482,-32.987,-10.972,
50050410,-0.564,0.002,0.842,12.862,-34.457,-13.597,
50050420,-0.559,0.008,0.852,14.42,-34.475,-14.612,
50050430,-0.549,0.02,0.852,12.565,-33.547,-15.592,
50050440,-0.537,0.018,0.859,10.657,-30.327,-15.032,
50050450,-0.517,0.015,0.855,6.667,-25.287,-12.792,
50050460,-0.528,0.007,0.856,2.257,-18.865,-10.15,
50050470,-0.541,-0.003,0.851,-1.715,-13.79,-6.58,
50050480,-0.544,-0.014,0.86,-5.267,-10.202,-1.242,
50050490,-0.559,-0.016,0.861,-9.852,-8.592,3.237,
50050500,-0.572,-0.025,0.857,-13.457,-7.262,5.355,
50050510,-0.567,-0.032,0.85,-15.102,-7.822,7.525,
50050520,-0.56,-0.066,0.824,-14.14,-7.787,10.22,
50050530,-0.542,-0.078,0.815,-10.377,-6.825,10.01,
50050540,-0.539,-0.083,0.816,-2.94,-4.83,9.38,
50050550,-0.558,-0.071,0.822,6.405,-4.165,7.595,
50050560,-0.581,-0.034,0.86,14.892,-9.957,3.342,
50050570,-0.512,0.023,0.851,17.36,-13.387,0.84,
50050580,-0.504,0.051,0.87,15.645,-7.997,0.262,
50050580,-0.552,0.026,0.85,15.4,-6.282,-4.41,
50050590,-0.553,0.02,0.845,17.815,-8.277,-8.4,
50050600,-0.546,0.04,0.842,18.322,-13.107,-9.607,
50050610,-0.528,0.057,0.837,17.92,-16.397,-10.99,
50050620,-0.511,0.057,0.834,18.007,-18.13,-11.462,
50050630,-0.521,0.06,0.831,17.85,-18.655,-11.147,
50050640,-0.524,0.059,0.829,16.065,-19.897,-12.74,
50050650,-0.517,0.06,0.827,13.615,-21.56,-15.225,
50050660,-0.515,0.053,0.829,10.237,-23.012,-15.697,
50050670,-0.513,0.041,0.818,5.267,-23.292,-15.487,
50050680,-0.538,0.003,0.815,3.412,-23.24,-14.577,
50050690,-0.556,-0.026,0.813,1.872,-23.38,-12.477,
50050700,-0.565,-0.045,0.801,0.997,-24.255,-11.165,
50050710,-0.609,-0.079,0.817,5.18,-27.72,-9.607,
50050720,-0.575,-0.052,0.835,6.317,-31.132,-8.365,
50050730,-0.56,-0.046,0.854,4.97,-31.43,-7.682,
50050740,-0.581,-0.072,0.859,4.427,-32.515,-7.14,
50050750,-0.53,-0.081,0.847,2.345,-31.15,-5.162,
50050760,-0.505,-0.071,0.873,2.922,-25.41,-2.38,
50050770,-0.516,-0.064,0.879,1.837,-19.722,2.345,
50050780,-0.52,-0.062,0.898,0.595,-14.595,5.985,
50050790,-0.505,-0.06,0.896,0.227,-12.495,7.542,
50050800,-0.456,-0.048,0.894,0.455,-8.522,8.627,
50050810,-0.467,-0.041,0.883,0.577,-4.952,12.18,
50050820,-0.455,-0.034,0.87,0.787,0.07,15.925,
50050830,-0.468,-0.024,0.862,0.945,4.375,17.885,
50050840,-0.505,-0.012,0.858,1.137,5.635,17.71,
50050850,-0.511,0.014,0.858,0.595,3.78,16.152,
50050860,-0.531,0.039,0.847,-2.38,-0.612,14.98,
50050870,-0.548,0.053,0.837,-7.367,-7.822,12.582,
50050880,-0.539,0.055,0.819,-13.475,-16.257,9.275,
50050890,-0.511,0.048,0.806,-18.042,-24.22,6.335,
50050900,-0.449,0.051,0.818,-21.927,-27.72,4.077,
50050910,-0.239,-0.066,0.858,-24.92,-19.25,7.017,
50050920,-0.318,-0.101,0.891,-11.48,8.89,15.172,
50050920,-0.582,0.038,0.988,2.292,17.167,14.962,
50050940,-0.582,0.115,1.015,-8.347,10.92,13.072,
50050940,-0.508,0.028,0.944,-24.587,3.5,12.792,
50050960,-0.536,-0.086,0.881,-28.595,-0.157,13.247,
50050960,-0.58,-0.086,0.864,-21.122,-2.975,12.11,
50050980,-0.603,-0.037,0.87,-12.845,-8.435,6.947,
50050980,-0.574,-0.001,0.869,-10.115,-14.857,2.152,
50051000,-0.561,-0.006,0.868,-11.55,-20.3,-0.455,
50051000,-0.517,-0.016,0.868,-12.565,-23.327,-2.992,
50051010,-0.424,-0.046,0.836,-12.425,-24.342,-3.972,
50051020,-0.398,-0.02,0.859,-9.432,-16.59,-1.785,
50051030,-0.523,0.014,0.875,-10.342,-14.717,3.062,
50051040,-0.504,0.017,0.877,-15.19,-16.87,3.325,
50051050,-0.433,-0.018,0.859,-19.075,-18.235,3.727,
50051060,-0.425,-0.048,0.844,-18.952,-15.96,5.232,
50051070,-0.429,-0.047,0.851,-14.14,-12.53,5.985,
50051080,-0.41,-0.023,0.878,-10.465,-8.925,6.335,
50051090,-0.41,-0.023,0.89,-9.957,-5.127,7.262,
50051100,-0.422,-0.051,0.898,-10.447,-1.015,8.085,
50051110,-0.466,-0.082,0.896,-9.345,0.245,8.557,
50051120,-0.476,-0.093,0.884,-5.74,-0.297,8.172,
50051130,-0.482,-0.081,0.875,-0.455,-0.875,7.21,
50051140,-0.499,-0.064,0.87,2.957,-1.102,6.002,
50051150,-0.515,-0.068,0.859,5.127,-2.73,5.565,
50051160,-0.5,-0.078,0.852,8.225,-4.567,4.935,
50051170,-0.486,-0.073,0.854,11.97,-6.632,4.952,
50051180,-0.477,-0.062,0.862,15.137,-8.312,7.525,
50051190,-0.458,-0.065,0.857,18.34,-9.065,11.97,
50051200,-0.444,-0.038,0.877,22.452,-6.37,16.012,
50051210,-0.437,-0.011,0.884,23.642,-4.287,16.87,
50051220,-0.4,0.006,0.883,23.222,-0.35,14.507,
50051230,-0.361,0.013,0.86,22.452,7.612,14.262,
50051240,-0.399,0.042,0.878,21.665,19.442,15.872,
50051250,-0.495,0.052,0.89,16.397,25.235,17.412,
50051260,-0.531,0.033,0.884,10.745,25.182,16.082,
50051260,-0.529,0.001,0.874,8.067,22.907,14.665,
50051280,-0.538,-0.008,0.871,8.907,22.365,13.895,
50051280,-0.55,0.01,0.884,11.917,22.33,12.512,
50051300,-0.571,0.046,0.898,12.635,21.962,10.552,
50051300,-0.606,0.069,0.9,9.887,18.62,8.837,
50051320,-0.616,0.079,0.896,5.477,12.652,7.612,
50051320,-0.589,0.1,0.88,-0.105,4.9,7.787,
50051330,-0.545,0.114,0.879,-5.372,-0.087,8.067,
50051340,-0.514,0.122,0.881,-11.48,-1.627,6.685,
50051350,-0.483,0.098,0.863,-18.9,0.385,6.965,
50051360,-0.467,0.09,0.862,-23.747,4.602,7.42,
50051370,-0.483,0.077,0.834,-27.597,8.225,8.487,
50051380,-0.502,0.081,0.85,-28.402,9.59,10.745,
50051390,-0.549,0.044,0.82,-34.265,6.737,15.12,
50051400,-0.581,0.041,0.831,-36.365,0.14,10.097,
50051410,-0.6,-0.004,0.836,-35.857,-10.675,1.05,
50051420,-0.588,-0.037,0.839,-34.037,-23.397,-1.925,
50051430,-0.521,-0.038,0.884,-31.762,-35.84,-4.462,
50051440,-0.284,-0.104,0.896,-29.12,-31.5,-2.327,
50051450,-0.438,-0.148,0.921,-18.095,-14.542,5.67,
50051460,-0.611,0.003,0.952,-11.865,-17.43,3.325,
50051470,-0.37,0.05,0.981,-22.837,-21.122,0.28,
50051480,-0.385,-0.133,0.899,-41.527,-13.772,7.63,
50051490,-0.61,-0.241,0.822,-39.882,-14.577,11.48,
50051500,-0.554,-0.144,0.841,-27.37,-20.667,6.282,
50051510,-0.496,-0.076,0.814,-24.972,-27.457,5.705,
50051520,-0.482,-0.109,0.781,-26.477,-29.82,6.79,
50051530,-0.438,-0.125,0.748,-24.78,-28.49,5.722,
50051540,-0.402,-0.101,0.755,-18.147,-24.045,5.267,
50051550,-0.402,-0.066,0.768,-13.632,-18.235,7.787,
50051560,-0.432,-0.065,0.781,-10.832,-14.49,11.217,
50051570,-0.451,-0.077,0.802,-7.927,-12.897,12.915,
50051580,-0.461,-0.086,0.856,-4.567,-11.252,13.912,
50051590,-0.503,-0.089,0.921,-2.59,-11.305,13.615,
50051600,-0.53,-0.1,0.957,-2.24,-13.72,11.042,
50051610,-0.528,-0.111,0.975,-1.68,-17.885,8.26,
50051620,-0.515,-0.102,0.94,-1.172,-22.452,5.285,
50051630,-0.474,-0.085,0.882,2.502,-27.755,6.037,
50051640,-0.436,-0.052,0.821,6.37,-30.467,14.542,
50051650,-0.402,-0.038,0.79,8.732,-31.395,21.07,
50051660,-0.377,-0.02,0.777,10.815,-27.912,24.185,
50051670,-0.408,-0.03,0.782,10.64,-24.465,26.197,
50051670,-0.396,-0.053,0.796,13.177,-21.647,28.822,
50051690,-0.395,-0.093,0.868,17.71,-19.425,34.37,
50051690,-0.349,-0.136,0.87,22.697,-17.22,38.272,
50051710,-0.344,-0.103,0.903,29.452,-15.715,36.785,
50051710,-0.32,-0.064,0.908,28.315,-13.335,33.985,
50051730,-0.311,-0.077,0.873,27.58,-9.537,30.03,
50051730,-0.374,-0.06,0.88,28.35,-7.017,29.172,
50051750,-0.434,-0.016,0.887,26.477,-5.915,27.475,
50051750,-0.483,0.007,0.918,28.63,-3.395,21.962,
50051760,-0.585,0.03,0.934,28.98,-4.427,16.1,
50051770,-0.617,0.056,0.958,29.12,-9.8,12.04,
50051780,-0.574,0.063,0.949,26.67,-17.465,10.377,
50051790,-0.539,0.043,0.954,25.865,-23.66,10.902,
50051800,-0.489,0.047,0.95,26.67,-31.762,15.697,
50051810,-0.397,0.038,0.949,27.86,-35.77,22.295,
50051820,-0.291,0.067,0.986,24.797,-32.935,17.132,
50051830,-0.193,0.073,1.008,18.742,-22.487,7.297,
50051840,-0.16,0.054,0.961,13.422,-8.557,5.39,
50051850,-0.145,0.065,0.982,10.482,7.735,6.72,
50051860,-0.261,0.012,0.916,3.885,19.25,5.845,
50051870,-0.161,0.076,0.901,3.115,25.952,-0.14,
50051880,-0.32,0.119,0.991,-3.377,35.21,-0.875,
50051890,-0.501,-0.044,0.853,-5.337,26.495,2.52,
50051900,-0.433,0.146,0.881,-1.015,25.55,0.332,
50051910,-0.768,0.064,0.793,-18.06,18.077,5.075,
50051920,-0.598,0.044,0.858,-7.35,18.025,2.537,
50051930,-0.619,0.178,0.924,4.76,13.982,-0.455,
50051940,-0.719,0.155,0.899,-7.455,2.782,5.425,
50051950,-0.561,0.058,0.905,-4.2,-6.02,2.24,
50051960,-0.423,0.154,0.959,2.87,-9.222,-1.942,
50051970,-0.382,0.163,0.955,-2.222,-9.24,1.47,
50051980,-0.315,0.083,0.951,-5.022,-5.565,3.377,
50051990,-0.269,0.088,0.969,-2.485,-1.12,5.495,
50052000,-0.284,0.123,0.984,-2.8,5.897,6.79,
50052010,-0.308,0.117,0.979,-5.775,16.135,5.337,
50052010,-0.539,0.091,0.961,-7.542,20.842,3.43,
50052030,-0.474,0.055,0.868,-11.497,9.012,-1.522,
50052030,-0.431,-0.006,0.883,-14.962,7.052,1.155,
50052050,-0.606,-0.038,0.857,-9.275,8.435,3.85,
50052050,-0.567,0.059,0.877,-2.8,2.59,-3.552,
50052070,-0.516,0.025,0.842,-7.577,-3.972,-3.85,
50052070,-0.555,-0.035,0.811,-9.957,-7.63,-0.822,
50052080,-0.536,-0.048,0.819,-6.282,-12.145,-0.087,
50052090,-0.475,0.014,0.86,0.315,-13.615,-1.207,
50052100,-0.468,0.018,0.882,-2.24,-15.382,-0.647,
50052110,-0.42,0,0.927,-2.957,-13.387,-1.75,
50052120,-0.387,0.044,0.941,-1.102,-11.392,-3.15,
50052130,-0.399,0.071,0.899,-3.447,-6.685,-2.205,
50052140,-0.421,0.101,0.888,-4.462,-3.377,-5.162,
50052150,-0.39,0.151,0.899,-7.647,3.64,-8.837,
50052160,-0.449,0.136,0.902,-13.982,11.847,-9.24,
50052170,-0.498,0.112,0.903,-18.357,17.99,-11.34,
50052180,-0.476,0.09,0.88,-18.62,21.42,-14.84,
50052190,-0.527,0.051,0.933,-19.827,22.61,-17.027,
50052200,-0.5,0.098,0.942,-21.245,17.85,-23.03,
50052210,-0.554,0.067,0.943,-14.595,7.875,-22.225,
50052220,-0.498,0.127,0.951,-17.062,-2.397,-15.715,
50052230,-0.412,0.065,0.9,-32.69,-4.585,-15.102,
50052240,-0.431,0.035,0.954,-30.817,0.367,-24.097,
50052250,-0.486,0.06,0.974,-34.212,-0.35,-26.827,
50052260,-0.489,0.061,0.979,-45.132,-5.6,-21.857,
50052270,-0.462,0.007,0.985,-51.572,-7.997,-17.167,
50052280,-0.464,0.015,0.968,-59.36,-8.032,-16.607,
50052290,-0.465,0.047,0.92,-68.32,-6.79,-22.417,
50052300,-0.472,0.046,0.937,-73.08,-4.165,-27.475,
50052310,-0.514,-0.015,0.899,-79.94,-6.247,-22.785,
50052320,-0.51,-0.054,0.832,-81.305,-13.265,-11.795,
50052330,-0.437,-0.027,0.874,-78.575,-13.86,-4.095,
50052340,-0.532,-0.121,0.862,-81.41,-15.54,-0.175,
50052350,-0.513,-0.234,0.863,-72.555,-20.247,-7.525,
50052360,-0.445,-0.127,0.862,-71.207,-21.21,-11.62,
50052370,-0.496,-0.22,0.803,-73.972,-24.762,-13.265,
50052380,-0.454,-0.248,0.802,-65.765,-24.815,-20.055,
50052390,-0.422,-0.224,0.778,-62.825,-28.595,-20.667,
50052400,-0.385,-0.194,0.762,-62.72,-28.665,-23.187,
50052410,-0.359,-0.21,0.757,-64.172,-27.037,-22.907,
50052420,-0.323,-0.293,0.795,-60.48,-25.095,-17.71,
50052420,-0.292,-0.388,0.816,-53.06,-17.762,-10.78,
50052440,-0.348,-0.337,0.887,-40.32,-12.95,-8.242,
50052440,-0.468,-0.306,0.889,-39.48,-14.665,-7.91,
50052460,-0.449,-0.341,0.881,-38.78,-21.612,-9.905,
50052460,-0.401,-0.373,0.861,-36.785,-29.015,-15.4,
50052480,-0.404,-0.36,0.866,-31.762,-33.582,-14.787,
50052480,-0.399,-0.321,0.88,-28.455,-38.237,-11.812,
50052500,-0.373,-0.354,0.834,-30.047,-40.897,-8.907,
50052500,-0.315,-0.388,0.811,-23.45,-41.51,-8.732,
50052510,-0.284,-0.371,0.812,-14.735,-39.672,-6.562,
50052520,-0.275,-0.358,0.779,-8.522,-37.765,-4.252,
50052530,-0.257,-0.369,0.747,-1.767,-34.002,-2.87,
50052540,-0.262,-0.383,0.711,5.53,-29.68,-2.397,
50052550,-0.286,-0.397,0.669,12.915,-24.36,-2.59,
50052560,-0.303,-0.408,0.634,22.767,-20.282,-2.905,
50052570,-0.279,-0.432,0.587,36.067,-18.095,0.437,
50052580,-0.294,-0.431,0.587,50.942,-15.942,6.562,
50052590,-0.321,-0.36,0.632,56.665,-13.195,9.66,
50052600,-0.337,-0.299,0.629,50.575,-8.645,6.597,
50052610,-0.366,-0.339,0.586,44.152,-5.022,3.027,
50052620,-0.413,-0.43,0.572,51.887,-3.552,2.572,
50052630,-0.41,-0.395,0.652,72.817,-4.585,4.27,
50052640,-0.508,-0.32,0.794,89.442,-11.322,8.382,
50052650,-0.552,-0.259,0.932,95.83,-26.285,-0.717,
50052660,-0.441,-0.216,1.033,105.612,-42.332,-12.075,
50052670,-0.379,-0.081,1.138,111.247,-50.347,-14.857,
50052680,-0.444,-0.013,1.203,106.662,-60.707,-11.462,
50052690,-0.381,-0.008,1.068,97.51,-80.675,-14.787,
50052700,-0.039,0.159,0.944,99.452,-90.562,-16.205,
50052710,0.241,0.371,1.006,99.89,-58.922,-9.205,
50052720,0.046,0.406,1.151,75.932,-12.215,-7.77,
50052730,-0.133,0.236,1.084,48.562,17.36,-15.47,
50052740,-0.091,0.13,1.085,44.065,27.877,-12.827,
50052750,-0.214,0.108,1.086,53.55,26.512,2.275,
50052760,-0.262,0.283,1.193,52.937,29.4,-0.962,
50052760,-0.412,0.218,1.199,34.755,28.507,0.402,
50052780,-0.418,0.131,1.17,19.932,25.637,-3.797,
50052780,-0.429,0.14,1.241,11.515,22.662,-5.145,
50052800,-0.476,0.133,1.23,-3.062,17.5,-7.175,
50052800,-0.361,0.062,1.176,-10.815,11.532,-7.665,
50052820,-0.288,0.008,1.106,-15.435,8.592,-3.815,
50052820,-0.274,-0.012,1.053,-16.432,8.347,-0.245,
50052830,-0.289,0.008,1.017,-17.78,7.297,1.102,
50052840,-0.295,0.016,0.985,-22.645,5.582,-0.437,
50052850,-0.337,-0.026,0.949,-27.58,6.002,-2.835,
50052860,-0.408,-0.061,0.938,-29.995,5.005,-4.392,
50052870,-0.488,-0.06,0.957,-28.577,-0.595,-5.197,
50052880,-0.497,-0.062,0.986,-26.197,-12.005,-5.81,
50052890,-0.451,-0.05,1.002,-23.31,-23.012,-5.057,
50052900,-0.434,-0.03,1.001,-21.997,-30.765,-2.52,
50052910,-0.388,0.009,0.989,-25.62,-34.23,-4.462,
50052920,-0.347,0.011,0.97,-31.57,-34.23,-8.662,
50052930,-0.275,-0.038,0.892,-33.967,-31.832,-8.435,
50052940,-0.219,-0.031,0.843,-28.122,-25.427,-5.425,
50052950,-0.181,0.008,0.824,-21.087,-18.585,-4.112,
50052960,-0.119,0.037,0.838,-16.782,-6.685,-2.345,
50052970,-0.126,0.021,0.876,-18.025,8.312,-0.892,
50052980,-0.134,-0.028,0.891,-24.622,26.425,-0.087,
50052990,-0.271,-0.087,0.905,-32.112,35.647,0.227,
50053000,-0.299,-0.123,0.937,-37.38,34.492,1.242,
50053010,-0.302,-0.162,0.924,-37.73,29.855,4.777,
50053020,-0.319,-0.173,0.932,-37.187,27.667,5.127,
50053030,-0.331,-0.17,0.912,-38.78,23.642,2.24,
50053040,-0.291,-0.161,0.915,-38.465,23.117,0.735,
50053050,-0.293,-0.168,0.86,-39.182,20.965,3.062,
50053060,-0.233,-0.143,0.862,-35.612,24.272,4.252,
50053070,-0.243,-0.126,0.849,-34.055,28.087,6.335,
50053080,-0.266,-0.118,0.876,-34.58,31.745,2.677,
50053090,-0.282,-0.155,0.913,-36.295,35.91,-0.385,
50053100,-0.379,-0.195,0.919,-38.85,39.27,-1.54,
50053110,-0.451,-0.217,0.938,-38.307,36.085,-7.052,
50053120,-0.456,-0.206,0.953,-37.45,31.727,-10.062,
50053130,-0.485,-0.216,0.974,-38.272,26.285,-10.43,
50053140,-0.518,-0.222,0.993,-39.62,20.055,-11.952,
50053150,-0.494,-0.214,0.996,-41.282,12.53,-13.265,
50053160,-0.472,-0.239,0.959,-41.545,4.672,-12.757,
50053170,-0.397,-0.197,0.945,-42.577,-0.822,-18.392,
50053170,-0.385,-0.211,0.893,-46.357,-4.585,-19.512,
50053190,-0.352,-0.241,0.846,-45.815,-6.37,-20.107,
50053190,-0.355,-0.272,0.809,-42.42,-7.087,-17.43,
50053210,-0.367,-0.276,0.806,-37.905,-7.507,-14.542,
50053210,-0.33,-0.291,0.811,-33.74,-6.16,-13.125,
50053230,-0.306,-0.304,0.811,-30.187,-3.78,-13.125,
50053230,-0.258,-0.287,0.825,-26.88,0.787,-12.932,
50053250,-0.198,-0.254,0.847,-23.1,7.665,-11.007,
50053250,-0.193,-0.24,0.852,-23.082,16.677,-9.082,
50053260,-0.219,-0.242,0.815,-24.745,25.567,-9.1,
50053270,-0.396,-0.339,0.833,-17.307,28.84,-0.735,
50053280,-0.409,-0.246,0.814,-15.435,31.325,-5.25,
50053290,-0.568,-0.3,0.799,-14.647,30.397,-4.06,
50053300,-0.59,-0.315,0.8,-13.02,23.922,-3.412,
50053310,-0.589,-0.314,0.849,-9.38,17.167,-5.355,
50053320,-0.585,-0.348,0.861,-11.305,10.132,-7.577,
50053330,-0.578,-0.326,0.874,-9.24,0.052,-10.167,
50053340,-0.479,-0.275,0.892,-10.185,-6.527,-17.797,
50053350,-0.442,-0.277,0.91,-12.127,-10.727,-19.46,
50053360,-0.404,-0.28,0.898,-13.895,-13.44,-18.497,
50053370,-0.382,-0.264,0.912,-12.25,-14.525,-19.512,
50053380,-0.376,-0.244,0.902,-11.865,-15.47,-13.335,
50053390,-0.345,-0.235,0.887,-14.612,-14.122,-11.865,
50053400,-0.342,-0.283,0.861,-18.532,-11.182,-12.355,
50053410,-0.31,-0.304,0.855,-18.235,-7.77,-15.61,
50053420,-0.274,-0.303,0.854,-16.922,-4.112,-15.382,
50053430,-0.282,-0.31,0.849,-14.227,0.07,-11.007,
50053440,-0.342,-0.306,0.854,-12.145,2.502,-5.652,
50053450,-0.336,-0.309,0.851,-10.325,4.06,-3.482,
50053460,-0.367,-0.29,0.864,-8.732,7.052,-2.852,
50053470,-0.438,-0.263,0.795,-11.34,7.14,-5.81,
50053480,-0.444,-0.207,0.853,-9.345,6.02,-10.797,
50053490,-0.461,-0.255,0.919,-17.762,6.632,-14.875,
50053500,-0.501,-0.407,0.891,-23.66,4.532,-15.19,
50053510,-0.527,-0.381,0.913,-18.2,-4.2,-14.49,
50053510,-0.486,-0.295,0.92,-18.585,-11.69,-18.322,
50053530,-0.467,-0.31,0.891,-24.447,-17.535,-19.915,
50053530,-0.403,-0.359,0.906,-26.442,-22.207,-21.437,
50053550,-0.305,-0.388,0.873,-26.81,-24.01,-17.867,
50053550,-0.341,-0.418,0.845,-22.872,-24.237,-9.572,
50053570,-0.289,-0.382,0.822,-21.297,-25.392,-10.097,
50053570,-0.22,-0.366,0.787,-21.822,-19.53,-11.76,
50053580,-0.284,-0.412,0.761,-24.29,-14.525,-7.175,
50053590,-0.235,-0.424,0.752,-20.685,-9.415,-4.777,
50053600,-0.247,-0.432,0.757,-13.457,-6.142,1.242,
50053610,-0.259,-0.433,0.738,-8.347,-2.887,5.705,
50053620,-0.259,-0.485,0.69,-1.067,-0.455,10.99,
50053630,-0.311,-0.48,0.677,7.735,1.032,16.257,
50053640,-0.365,-0.455,0.68,8.942,-0.315,17.78,
50053650,-0.474,-0.551,0.705,8.872,-3.167,16.345,
50053660,-0.393,-0.57,0.764,12.792,-13.317,10.412,
50053670,-0.312,-0.59,0.795,25.042,-17.272,13.16,
50053680,-0.353,-0.472,0.844,40.845,-17.325,18.602,
50053690,-0.425,-0.419,0.847,43.837,-20.492,17.692,
50053700,-0.276,-0.365,0.809,45.57,-20.737,12.355,
50053710,-0.337,-0.397,0.741,47.845,-19.005,18.585,
50053720,-0.333,-0.379,0.758,61.11,-18.427,25.217,
50053730,-0.289,-0.289,0.747,64.785,-14.682,23.555,
50053740,-0.279,-0.285,0.747,67.637,-10.01,25.077,
50053750,-0.165,-0.214,0.79,67.462,2.45,25.375,
50053760,-0.243,-0.185,0.835,64.802,13.982,27.825,
50053770,-0.29,-0.167,0.908,64.837,22.365,29.312,
50053780,-0.298,-0.164,0.91,59.85,25.62,28.752,
50053790,-0.32,-0.173,0.878,58.817,29.207,27.125,
50053800,-0.335,-0.184,1,62.265,35.472,25.025,
50053810,-0.422,-0.142,1.048,64.872,36.645,25.987,
50053820,-0.461,-0.052,1.084,59.115,36.855,22.942,
50053830,-0.407,-0.06,1.046,44.87,36.61,14.822,
50053840,-0.448,-0.13,1.038,41.562,38.027,14.665,
50053850,-0.48,-0.08,1.011,37.485,36.802,15.802,
50053860,-0.467,-0.038,0.98,30.257,36.47,11.567,
50053870,-0.47,-0.074,0.956,23.817,34.475,12.792,
50053880,-0.415,-0.085,0.929,16.87,33.635,12.442,
50053890,-0.398,-0.11,0.939,16.012,34.615,14.56,
50053900,-0.383,-0.11,0.945,15.925,39.2,19.81,
50053910,-0.457,-0.118,0.971,14.42,41.72,21.455,
50053920,-0.434,-0.174,0.929,10.237,46.777,19.617,
50053920,-0.534,-0.184,0.843,10.622,47.18,14.087,
50053940,-0.587,-0.168,0.767,12.372,43.155,9.047,
50053940,-0.6,-0.083,0.735,15.802,35.14,12.057,
50053950,-0.574,-0.052,0.763,11.427,28.962,16.975,
50053960,-0.547,-0.103,0.843,6.632,25.567,19.967,
50053970,-0.396,-0.139,0.882,5.6,25.742,21.315,
50053980,-0.283,-0.132,0.879,7.595,30.257,22.54,
50053990,-0.258,-0.113,0.861,9.065,39.2,28.455,
50054000,-0.308,-0.137,0.82,6.58,48.3,34.737,
50054010,-0.449,-0.175,0.767,5.862,54.11,36.942,
50054020,-0.541,-0.216,0.727,6.125,56.507,33.862,
50054030,-0.67,-0.211,0.759,11.235,54.39,32.882,
50054040,-0.78,-0.192,0.776,14.595,44.957,35.455,
50054050,-0.77,-0.154,0.806,16.642,32.882,30.782,
50054060,-0.674,-0.086,0.845,20.09,24.167,27.16,
50054070,-0.65,-0.051,0.864,18.69,18.427,28.49,
50054080,-0.574,0,0.886,17.202,18.165,24.552,
50054090,-0.492,-0.014,0.854,13.23,19.705,20.79,
50054100,-0.438,-0.02,0.857,10.482,26.845,22.662,
50054110,-0.519,-0.063,0.873,6.72,32.917,29.802,
50054120,-0.545,-0.077,0.847,5.355,36.33,32.235,
50054130,-0.593,-0.095,0.809,5.932,35.63,29.19,
50054140,-0.662,-0.109,0.778,5.932,33.932,26.32,
50054150,-0.751,-0.121,0.766,8.907,28.28,23.362,
50054160,-0.788,-0.114,0.741,10.36,19.477,23.38,
50054170,-0.751,-0.096,0.759,14.122,9.31,16.24,
50054180,-0.695,-0.106,0.759,18.235,2.747,13.247,
50054190,-0.678,-0.043,0.805,21.927,-0.437,12.635,
50054200,-0.685,-0.035,0.802,18.462,-4.357,16.222,
50054210,-0.663,-0.04,0.819,18.585,-8.802,14.227,
50054220,-0.691,-0.001,0.831,17.5,-11.445,12.582,
50054230,-0.745,0.03,0.828,13.632,-15.312,10.465,
50054240,-0.741,0.06,0.819,7.07,-20.3,7.84,
50054250,-0.699,0.086,0.818,1.347,-24.412,4.76,
50054260,-0.645,0.099,0.826,-5.197,-26.565,2.38,
50054260,-0.618,0.091,0.853,-10.692,-28.157,0.017,
50054280,-0.646,0.046,0.865,-16.607,-29.26,-1.452,
50054280,-0.687,-0.023,0.847,-22.172,-34.702,-3.097,
50054300,-0.675,-0.042,0.817,-22.207,-39.812,-6.125,
50054300,-0.694,-0.028,0.823,-19.425,-45.605,-7.472,
50054320,-0.697,-0.086,0.801,-20.09,-50.557,-6.405,
50054320,-0.649,-0.15,0.712,-16.17,-54.897,-4.917,
50054330,-0.58,-0.162,0.665,-8.487,-55.667,-2.1,
50054340,-0.575,-0.148,0.702,-4.112,-55.457,-1.312,
50054350,-0.538,-0.174,0.727,-3.045,-59.5,0.91,
50054360,-0.342,-0.121,0.765,2.502,-62.317,2.1,
50054370,-0.316,-0.108,0.804,8.312,-57.225,8.89,
50054380,-0.427,-0.109,0.85,9.712,-50.662,11.55,
50054390,-0.412,-0.199,0.801,9.607,-44.66,9.747,
50054400,-0.409,-0.265,0.763,21.175,-40.145,12.932,
50054410,-0.336,-0.183,0.736,34.842,-34.597,21.805,
50054420,-0.281,-0.119,0.721,46.952,-25.725,31.57,
50054430,-0.348,-0.06,0.8,52.64,-15.977,37.835,
50054440,-0.457,0.038,0.97,44.187,-5.985,36.207,
50054450,-0.75,-0.082,0.987,33.11,-12.355,25.375,
50054460,-0.763,-0.024,1.013,30.73,-26.932,8.697,
50054470,-0.671,-0.054,0.97,27.912,-43.54,16.572,
50054480,-0.477,-0.014,0.885,25.34,-52.29,19.6,
50054490,-0.354,0.08,0.8,25.305,-55.545,13.65,
50054500,-0.294,0.284,0.866,17.972,-42.472,10.167,
50054510,-0.474,0.152,0.862,2.397,-27.755,7.087,
50054520,-0.454,0.105,0.911,1.627,-15.645,2.415,
50054530,-0.585,0.109,0.955,10.57,-15.61,8.82,
50054540,-0.354,0.202,0.975,16.817,-5.18,13.107,
50054550,-0.542,0.187,0.958,12.915,4.637,11.445,
50054560,-0.207,0.283,0.917,11.235,11.48,4.602,
50054570,-0.231,0.243,0.946,3.605,35.612,7.822,
50054580,-0.533,0.077,0.898,-11.112,49.472,4.025,
50054590,-0.552,0.094,0.903,-8.82,43.207,-8.557,
50054600,-0.671,0.046,0.944,-9.537,24.92,-5.197,
50054610,-0.531,0.004,0.937,-5.687,8.715,-1.802,
50054620,-0.505,0.023,0.974,-3.255,4.917,-5.74,
50054630,-0.539,-0.035,0.907,-12.18,-0.315,-9.94,
50054640,-0.448,-0.091,0.846,-14.805,-3.132,-9.852,
50054640,-0.407,-0.075,0.84,-16.887,-3.29,-7.14,
50054660,-0.403,-0.082,0.846,-22.435,-1.522,-6.107,
50054660,-0.35,-0.089,0.855,-22.715,1.032,-4.077,
50054670,-0.316,-0.08,0.831,-19.757,6.317,1.82,
50054680,-0.386,-0.059,0.818,-17.867,11.007,3.955,
50054690,-0.506,-0.042,0.827,-17.045,13.737,3.132,
50054700,-0.597,-0.002,0.865,-13.562,13.282,1.68,
50054710,-0.642,0.076,0.924,-11.322,10.045,0.665,
50054720,-0.625,0.139,0.957,-11.935,5.635,0.332,
50054730,-0.547,0.153,0.989,-16.59,5.267,-3.185,
50054740,-0.466,0.121,0.981,-24.447,5.495,-3.535,
50054750,-0.325,0.176,0.961,-21.402,11.497,-4.935,
50054760,-0.382,0.205,0.985,-30.187,22.592,-2.275,
50054770,-0.387,0.115,0.995,-45.99,31.955,-3.797,
50054780,-0.4,0.052,0.968,-50.767,43.242,-11.515,
50054790,-0.619,-0.015,0.896,-57.855,43.627,-12.477,
50054800,-0.644,0.019,0.869,-65.712,37.432,-13.93,
50054810,-0.699,-0.035,0.842,-67.637,27.142,-17.622,
50054820,-0.746,-0.06,0.887,-66.447,16.047,-21.035,
50054830,-0.755,-0.029,0.895,-68.6,3.412,-25.462,
50054840,-0.69,-0.023,0.896,-71.907,-7.175,-31.115,
50054850,-0.564,-0.081,0.837,-76.667,-11.76,-33.197,
50054860,-0.484,-0.118,0.801,-75.705,-13.107,-27.072,
50054870,-0.498,-0.132,0.773,-73.29,-12.25,-17.92,
50054880,-0.578,-0.205,0.7,-72.782,-11.952,-17.465,
50054890,-0.573,-0.298,0.674,-64.137,-11.987,-23.135,
50054900,-0.506,-0.277,0.757,-56.857,-10.01,-25.007,
50054910,-0.517,-0.253,0.795,-53.427,-9.537,-20.562,
50054920,-0.469,-0.201,0.791,-50.435,-9.345,-20.37,
50054930,-0.436,-0.171,0.806,-48.947,-6.912,-21.857,
50054940,-0.486,-0.168,0.873,-50.872,-5.25,-24.937,
50054950,-0.576,-0.181,0.875,-55.982,-7.262,-28.367,
50054960,-0.653,-0.205,0.837,-61.407,-14.49,-30.922,
50054970,-0.644,-0.205,0.7,-63.192,-29.82,-35.665,
50054980,-0.517,-0.23,0.952,-61.075,-25.83,-34.982,
50054990,-0.646,-0.501,0.713,-71.067,-36.82,-21.385,
50055000,-0.434,-0.409,0.693,-59.745,-46.007,-19.267,
50055010,-0.297,-0.338,0.647,-53.69,-47.6,-12.337,
50055010,-0.259,-0.378,0.647,-47.355,-39.077,-7.612,
50055030,-0.233,-0.401,0.652,-38.167,-28.28,-7.595,
50055030,-0.271,-0.411,0.645,-29.977,-17.972,-2.205,
50055050,-0.347,-0.425,0.648,-20.632,-11.847,6.195,
50055050,-0.393,-0.441,0.659,-12.53,-8.505,14.21,
50055070,-0.374,-0.439,0.649,-3.535,-6.055,19.547,
50055070,-0.363,-0.43,0.694,5.477,-0.805,23.695,
50055080,-0.349,-0.379,0.727,8.662,2.835,26.32,
50055090,-0.363,-0.368,0.729,11.375,7.77,25.165,
50055100,-0.46,-0.367,0.728,19.495,14.472,24.22,
50055110,-0.598,-0.33,0.782,29.662,17.972,24.465,
50055120,-0.638,-0.307,0.785,38.01,16.45,21.595,
50055130,-0.618,-0.287,0.764,46.287,12.582,14.752,
50055140,-0.545,-0.248,0.776,51.362,9.887,11.025,
50055150,-0.488,-0.237,0.805,52.517,10.727,9.065,
50055160,-0.466,-0.24,0.844,52.202,11.287,9.677,
50055170,-0.41,-0.266,0.836,48.527,14.105,10.29,
50055180,-0.428,-0.302,0.812,48.247,18.41,8.925,
50055190,-0.459,-0.285,0.833,49.542,20.317,9.835,
50055200,-0.561,-0.273,0.833,50.54,18.497,15.172,
50055210,-0.637,-0.205,0.882,49.437,12.127,13.475,
50055220,-0.656,-0.176,0.966,44.835,5.162,6.667,
50055230,-0.616,-0.272,0.788,37.415,-10.64,0.945,
50055240,-0.369,-0.077,0.77,44.012,-13.387,1.855,
50055250,-0.492,0.088,0.914,44.87,-2.555,4.41,
50055260,-0.606,0.006,0.938,31.797,5.477,3.447,
50055270,-0.61,-0.083,0.894,28.227,3.955,0.542,
50055280,-0.554,0.001,0.892,29.942,3.36,1.82,
50055290,-0.653,-0.002,0.906,27.93,2.397,6.527,
50055300,-0.636,-0.053,0.912,27.16,-0.927,5.652,
50055310,-0.531,-0.059,0.913,26.145,-1.417,1.61,
50055320,-0.544,-0.08,0.934,22.295,1.347,-0.63,
50055330,-0.555,-0.105,0.945,15.522,0.385,-2.31,
50055330,-0.538,-0.127,0.929,8.942,-1.942,-5.04,
50055350,-0.556,-0.12,0.97,3.797,-4.427,-8.155,
50055350,-0.604,-0.103,0.974,-2.852,-8.54,-11.602,
50055370,-0.621,-0.089,0.934,-9.222,-17.115,-14.822,
50055370,-0.619,-0.074,0.923,-13.597,-25.112,-14.577,
50055390,-0.608,-0.08,0.906,-19.092,-30.555,-15.102,
50055390,-0.577,-0.143,0.829,-22.61,-33.792,-19.495,
50055410,-0.493,-0.195,0.763,-22.067,-37.17,-19.495,
50055410,-0.431,-0.21,0.736,-19.232,-36.085,-14.945,
50055420,-0.429,-0.212,0.713,-16.047,-34.545,-13.02,
50055430,-0.454,-0.227,0.748,-12.705,-32.48,-13.545,
50055440,-0.505,-0.245,0.79,-9.327,-33.25,-13.195,
50055450,-0.531,-0.232,0.849,-5.67,-36.715,-9.135,
50055460,-0.616,-0.221,0.868,-3.99,-42.07,-7.49,
50055470,-0.658,-0.242,0.822,-3.185,-50.225,-9.87,
50055480,-0.5,-0.22,0.834,2.45,-56.787,-12.635,
50055490,-0.385,-0.235,0.77,6.247,-59.29,-9.415,
50055500,-0.359,-0.247,0.759,10.027,-57.715,-8.47,
50055510,-0.358,-0.255,0.786,12.88,-53.445,-10.01,
50055520,-0.434,-0.277,0.796,16.66,-53.427,-9.485,
50055530,-0.468,-0.241,0.81,22.067,-56.245,-7.35,
50055540,-0.434,-0.163,0.854,26.46,-59.377,-3.832,
50055550,-0.464,-0.118,0.888,24.027,-60.655,-1.487,
50055560,-0.549,-0.098,0.91,16.45,-65.187,-2.012,
50055570,-0.507,-0.116,0.959,9.537,-73.045,-2.047,
50055580,-0.426,-0.129,1.036,4.672,-79.24,-2.73,
50055590,-0.308,-0.157,1.057,0.42,-79.257,-3.955,
50055600,-0.17,-0.092,1.047,-1.785,-75.18,-5.11,
50055610,-0.169,-0.075,0.981,-8.347,-68.477,-1.68,
50055620,-0.076,-0.079,0.981,-12.425,-55.667,0.98,
50055630,-0.234,-0.158,0.967,-17.062,-36.4,8.575,
50055640,-0.386,-0.199,0.894,-20.667,-39.252,10.535,
50055650,-0.236,-0.115,0.852,-11.025,-47.74,8.505,
50055660,-0.191,-0.091,0.877,-6.877,-48.597,8.207,
50055670,-0.25,-0.173,0.931,-7.77,-42.892,2.835,
50055680,-0.207,-0.228,0.969,-4.987,-40.337,-3.325,
50055690,-0.218,-0.265,0.939,1.732,-39.392,-1.89,
50055700,-0.183,-0.254,0.955,10.517,-37.135,-0.42,
50055710,-0.164,-0.223,0.967,14.612,-34.422,-2.292,
50055720,-0.156,-0.207,0.924,16.502,-28.542,-4.865,
50055730,-0.174,-0.206,0.928,17.92,-22.102,-4.357,
50055740,-0.206,-0.206,0.867,18.497,-16.275,-3.955,
50055750,-0.245,-0.184,0.869,21.07,-12.512,-4.9,
50055760,-0.274,-0.183,0.955,18.2,-12.127,-5.53,
50055760,-0.272,-0.203,1.02,14.892,-14.682,-6.895,
50055780,-0.241,-0.21,1.05,12.845,-17.832,-9.625,
50055780,-0.227,-0.18,1.069,12.32,-18.06,-13.527,
50055800,-0.281,-0.118,1.033,9.712,-19.897,-18.935,
50055800,-0.256,-0.101,0.99,6.072,-17.692,-25.515,
50055820,-0.269,-0.087,0.905,5.197,-12.407,-29.452,
50055820,-0.27,-0.084,0.854,4.165,-6.702,-31.482,
50055830,-0.241,-0.112,0.845,4.882,-0.892,-31.465,
50055840,-0.223,-0.147,0.882,7.35,3.29,-25.83,
50055850,-0.193,-0.142,0.946,8.907,5.372,-21.472,
50055860,-0.174,-0.14,0.981,8.417,4.9,-20.37,
50055870,-0.202,-0.158,0.957,9.187,2.485,-20.58,
50055880,-0.28,-0.153,0.885,13.895,-6.597,-24.5,
50055890,-0.251,-0.098,0.865,21.805,-20.16,-31.255,
50055900,-0.216,-0.047,0.865,25.637,-29.995,-35.472,
50055910,-0.149,-0.073,0.875,21.42,-38.64,-41.037,
50055920,-0.032,-0.063,0.952,20.195,-35.437,-45.185,
50055930,-0.108,-0.024,1.014,13.055,-31.5,-41.702,
50055940,-0.101,0.05,0.927,-2.17,-34.317,-37.835,
50055950,0.185,-0.061,1.04,-17.097,-15.032,-33.302,
50055960,0.069,-0.256,1.059,-22.802,13.09,-25.602,
50055970,-0.137,-0.293,1.061,-11.34,39.935,-14.367,
50055980,-0.281,-0.213,1.086,5.582,44.45,-7.087,
50055990,-0.295,-0.161,1.04,8.925,37.975,-3.815,
50056000,-0.312,-0.18,0.972,10.657,30.24,-4.427,
50056010,-0.325,-0.191,0.916,13.282,20.79,-8.995,
50056020,-0.32,-0.175,0.892,21.35,9.66,-13.965,
50056030,-0.283,-0.157,0.895,30.485,1.732,-16.957,
50056040,-0.301,-0.14,0.881,36.505,-6.72,-21.682,
50056050,-0.246,-0.113,0.894,41.352,-15.557,-27.44,
50056060,-0.173,-0.093,0.911,42.542,-19.39,-28.997,
50056070,-0.186,-0.08,0.931,38.097,-20.51,-28.875,
50056080,-0.154,-0.08,0.941,34.632,-19.267,-28.35,
50056080,-0.177,-0.084,0.954,32.34,-17.237,-23.8,
50056100,-0.13,-0.085,0.97,27.492,-13.107,-21.28,
50056100,-0.07,-0.117,0.948,24.5,-6.912,-20.58,
50056120,-0.047,-0.179,0.973,26.915,5.215,-17.64,
50056120,0.089,-0.178,0.884,36.207,26.18,-12.967,
50056140,-0.109,-0.164,0.954,43.295,45.325,0.315,
50056140,-0.302,-0.138,0.948,43.12,56.367,5.722,
50056160,-0.313,-0.121,0.963,45.395,56.56,1.627,
50056160,-0.296,-0.142,0.936,48.597,51.607,0.192,
50056170,-0.315,-0.103,0.96,53.27,46.795,-0.472,
50056180,-0.405,-0.065,0.996,55.107,37.87,-2.432,
50056190,-0.374,-0.049,0.984,54.915,27.79,-5.53,
50056200,-0.277,-0.021,0.972,58.047,24.202,-8.47,
50056210,-0.274,-0.009,0.953,58.695,23.887,-9.625,
50056220,-0.293,0.007,0.956,57.977,25.112,-8.33,
50056230,-0.304,0.005,0.967,57.015,26.512,-5.092,
50056240,-0.3,0.034,0.972,57.54,28.21,-1.382,
50056250,-0.328,0.049,0.973,54.46,30.362,1.575,
50056260,-0.348,0.063,0.985,52.132,31.447,1.26,
50056270,-0.368,0.052,0.992,52.5,29.995,-1.435,
50056280,-0.38,0.045,0.986,55.107,25.602,-5.04,
50056290,-0.362,0.082,0.996,58.24,19.39,-10.622,
50056300,-0.333,0.137,0.99,59.097,13.212,-15.662,
50056310,-0.287,0.161,0.99,60.112,10.5,-16.45,
50056320,-0.233,0.156,0.968,57.172,13.125,-16.397,
50056330,-0.208,0.157,0.948,53.13,21.63,-16.03,
50056340,-0.217,0.166,0.94,52.78,33.915,-13.877,
50056350,-0.263,0.183,0.939,54.582,45.22,-9.835,
50056360,-0.32,0.195,0.94,55.755,54.232,-8.592,
50056370,-0.376,0.206,0.938,56.21,58.887,-9.275,
50056380,-0.409,0.21,0.913,56.21,58.677,-11.095,
50056390,-0.382,0.235,0.9,58.467,57.697,-13.475,
50056400,-0.376,0.253,0.902,58.555,57.68,-13.405,
50056410,-0.4,0.27,0.902,54.967,59.167,-12.705,
50056420,-0.421,0.298,0.887,48.597,63.122,-13.195,
50056430,-0.429,0.312,0.872,39.69,67.725,-13.65,
50056440,-0.43,0.295,0.858,28.875,73.972,-13.842,
50056450,-0.434,0.272,0.83,18.777,82.11,-13.177,
50056460,-0.447,0.265,0.817,10.71,92.575,-10.255,
50056470,-0.462,0.281,0.808,2.24,104.965,-6.23,
50056480,-0.49,0.284,0.811,-9.59,118.982,-1.96,
50056490,-0.54,0.245,0.781,-22.172,129.85,2.38,
50056500,-0.622,0.177,0.741,-30.747,135.835,6.055,
50056510,-0.666,0.149,0.727,-35.542,136.395,7.297,
50056510,-0.688,0.135,0.709,-38.71,131.845,6.702,
50056530,-0.735,0.12,0.687,-40.04,120.802,4.935,
50056530,-0.77,0.085,0.703,-39.165,104.055,3.937,
50056550,-0.775,-0.001,0.713,-32.427,82.582,3.937,
50056550,-0.73,0.028,0.745,-14.682,61.845,-4.13,
50056570,-0.661,0.1,0.761,-5.967,40.705,-16.695,
50056570,-0.519,0.149,0.754,-5.337,28.28,-28.997,
50056580,-0.445,0.136,0.76,-5.95,27.422,-34.807,
50056590,-0.51,0.026,0.717,-7.945,32.06,-34.16,
50056600,-0.558,-0.014,0.678,-3.92,36.995,-35.77,
50056610,-0.624,0.022,0.681,6.055,38.57,-35.577,
50056620,-0.735,0.065,0.689,15.225,31.692,-34.79,
50056630,-0.753,0.117,0.696,18.602,19.897,-35.84,
50056640,-0.727,0.161,0.68,14.77,9.117,-34.212,
50056650,-0.714,0.181,0.682,0.752,1.855,-30.45,
50056660,-0.701,0.166,0.688,-11.812,0.035,-31.43,
50056670,-0.645,0.138,0.699,-16.362,4.112,-32.795,
50056680,-0.538,0.135,0.71,-16.852,16.362,-30.275,
50056690,-0.553,0.131,0.72,-20.177,33.565,-24.412,
50056700,-0.638,0.107,0.721,-26.372,48.895,-17.22,
50056710,-0.743,0.067,0.718,-28.612,56.315,-8.172,
50056720,-0.828,0.059,0.709,-30.187,54.845,-0.98,
50056730,-0.885,0.047,0.713,-30.59,44.135,1.505,
50056740,-0.806,0.035,0.707,-29.12,32.217,2.17,
50056750,-0.88,-0.025,0.735,-25.2,18.97,9.782,
50056760,-0.88,-0.111,0.74,-16.625,0.577,13.002,
50056770,-0.74,-0.083,0.78,0.7,-14.035,6.51,
50056780,-0.665,-0.032,0.779,8.872,-24.237,-2.135,
50056790,-0.593,0.003,0.787,16.975,-24.237,-7.28,
50056800,-0.543,0.032,0.787,21.612,-16.555,-9.642,
50056810,-0.563,0.054,0.768,18.707,-6.37,-8.172,
50056820,-0.595,0.076,0.749,13.457,2.712,-4.672,
50056830,-0.647,0.089,0.723,5.04,8.96,-0.63,
50056830,-0.679,0.085,0.685,-4.13,13.125,-1.995,
50056850,-0.674,0.083,0.652,-11.917,17.325,-2.415,
50056850,-0.792,0.003,0.617,-12.477,17.29,8.837,
50056870,-0.758,0.051,0.61,-13.912,14.052,5.39,
50056870,-0.793,0.018,0.588,-15.977,9.275,9.082,
50056890,-0.809,0.003,0.594,-12.547,2.065,11.987,
50056890,-0.795,0.039,0.612,-9.065,-4.165,12.39,
50056910,-0.751,0.059,0.64,-7.805,-8.645,13.09,
50056910,-0.712,0.043,0.654,-5.827,-10.465,13.982,
50056920,-0.669,0.117,0.67,-3.797,-10.727,14.227,
50056930,-0.762,0.178,0.696,-9.135,-11.69,17.43,
50056940,-0.828,0.146,0.688,-17.832,-21.332,18.305,
50056950,-0.772,0.065,0.641,-17.727,-34.44,12.582,
50056960,-0.738,0.038,0.616,-7.822,-48.755,4.602,
50056970,-0.683,0.095,0.628,4.865,-63.892,-0.105,
50056980,-0.426,0.157,0.664,13.3,-69.3,-0.437,
50056990,-0.226,0.177,0.71,15.715,-43.785,5.145,
50057000,-0.384,0.173,0.779,15.89,-7.56,10.097,
50057010,-0.661,0.211,0.827,13.317,20.195,11.27,
50057020,-0.725,0.194,0.813,-0.752,28.717,7.28,
50057030,-0.631,0.092,0.775,-11.007,34.037,3.307,
50057040,-0.779,0.017,0.777,-10.517,35.577,9.257,
50057050,-0.999,0,0.792,-3.85,29.977,21.28,
50057060,-0.995,0.043,0.736,-4.847,15.382,19.967,
50057070,-0.905,0.061,0.717,-3.202,1.645,12.792,
50057080,-0.836,0.016,0.656,-5.617,-6.562,12.46,
50057090,-0.836,0.034,0.654,-0.945,-12.67,6.86,
50057100,-0.772,0.116,0.701,2.782,-18.462,1.802,
50057110,-0.716,0.117,0.707,0.35,-22.785,0.175,
50057120,-0.702,0.083,0.699,-0.245,-25.375,0.752,
50057130,-0.681,0.104,0.719,2.047,-27.072,3.832,
50057140,-0.678,0.136,0.741,1.82,-28.752,10.325,
50057150,-0.637,0.14,0.763,0.227,-28.857,11.532,
50057160,-0.607,0.148,0.782,-3.22,-24.552,7.84,
50057170,-0.624,0.114,0.78,-10.01,-18.69,6.037,
50057180,-0.655,0.06,0.755,-14.245,-12.897,5.775,
50057190,-0.697,0.036,0.728,-13.055,-11.935,7.455,
50057200,-0.735,0.026,0.705,-8.977,-15.785,11.725,
50057210,-0.744,0.019,0.692,-3.605,-23.572,14.297,
50057220,-0.72,0.021,0.687,2.765,-31.202,16.397,
50057230,-0.682,0.051,0.709,8.312,-34.912,18.252,
50057240,-0.68,0.059,0.722,9.205,-34.895,17.57,
50057250,-0.68,0.071,0.743,8.855,-33.88,15.347,
50057260,-0.671,0.111,0.773,7.822,-32.41,15.155,
50057260,-0.691,0.132,0.774,5.337,-33.005,15.662,
50057280,-0.651,0.147,0.769,2.957,-33.285,15.137,
50057280,-0.609,0.141,0.751,1.592,-30.222,15.522,
50057300,-0.681,0.139,0.714,1.487,-27.86,18.095,
50057300,-0.692,0.133,0.707,5.635,-28.945,19.53,
50057320,-0.659,0.137,0.722,8.785,-30.432,18.567,
50057320,-0.643,0.144,0.744,10.43,-30.73,17.5,
50057330,-0.624,0.144,0.777,11.742,-27.93,16.187,
50057340,-0.615,0.136,0.794,11.637,-26.985,13.212,
50057350,-0.575,0.134,0.801,13.807,-27.125,11.235,
50057360,-0.534,0.13,0.795,15.26,-27.86,10.115,
50057370,-0.506,0.134,0.793,15.365,-26.617,8.505,
50057380,-0.518,0.136,0.796,13.79,-24.167,8.925,
50057390,-0.546,0.14,0.78,11.55,-22.277,9.362,
50057400,-0.542,0.141,0.759,8.347,-20.982,7.77,
50057410,-0.565,0.126,0.748,5.775,-20.405,7.7,
50057420,-0.603,0.125,0.751,4.952,-21.77,8.925,
50057430,-0.633,0.136,0.766,4.305,-25.567,8.89,
50057440,-0.637,0.142,0.777,2.66,-29.925,7.875,
50057450,-0.606,0.153,0.792,1.907,-31.867,7.157,
50057460,-0.608,0.162,0.804,1.26,-31.885,7.14,
50057470,-0.616,0.153,0.808,1.015,-32.13,6.772,
50057480,-0.595,0.154,0.814,3.325,-31.395,6.947,
50057490,-0.602,0.174,0.823,5.915,-32.025,8.627,
50057500,-0.575,0.185,0.815,6.475,-32.69,9.257,
50057510,-0.536,0.181,0.806,6.982,-31.937,9.03,
50057520,-0.52,0.18,0.804,6.597,-28.7,9.94,
50057530,-0.512,0.18,0.813,5.722,-24.832,9.8,
50057540,-0.493,0.176,0.826,4.69,-18.322,8.54,
50057550,-0.547,0.177,0.834,3.15,-13.685,8.05,
50057560,-0.544,0.182,0.839,2.222,-12.162,7.07,
50057570,-0.539,0.172,0.831,1.75,-13.37,6.597,
50057580,-0.559,0.156,0.818,1.365,-15.067,6.58,
50057580,-0.576,0.153,0.822,2.135,-18.217,6.877,
50057600,-0.562,0.157,0.826,3.255,-20.965,7.332,
50057600,-0.532,0.159,0.835,4.06,-23.397,5.775,
50057620,-0.509,0.161,0.833,4.077,-24.342,3.727,
50057620,-0.501,0.159,0.833,4.69,-25.34,3.22,
50057640,-0.508,0.164,0.831,5.18,-26.39,4.042,
50057640,-0.498,0.169,0.835,5.827,-26.88,4.357,
50057660,-0.498,0.161,0.835,6.37,-25.777,4.62,
50057660,-0.513,0.161,0.836,7.787,-25.83,4.812,
50057670,-0.507,0.184,0.839,9.24,-25.515,5.04,
50057680,-0.515,0.189,0.849,9.555,-24.797,3.99,
50057690,-0.522,0.185,0.851,8.68,-24.36,1.19,
50057700,-0.509,0.177,0.864,9.222,-25.165,-0.455,
50057710,-0.511,0.178,0.887,11.077,-25.025,-0.035,
50057720,-0.511,0.183,0.903,12.075,-25.217,0.07,
50057730,-0.501,0.183,0.917,12.635,-24.395,-0.42,
50057740,-0.484,0.177,0.93,14.245,-23.94,-1.207,
50057750,-0.473,0.195,0.927,17.465,-22.645,-2.38,
50057760,-0.45,0.213,0.894,19.88,-20.037,-3.885,
50057770,-0.446,0.211,0.856,21.542,-16.502,-5.46,
50057780,-0.438,0.21,0.826,23.345,-13.09,-6.667,
50057790,-0.474,0.199,0.785,24.937,-12.075,-5.985,
50057800,-0.505,0.203,0.772,28.28,-18.077,-5.337,
50057810,-0.428,0.219,0.765,31.412,-24.15,-4.865,
50057820,-0.405,0.193,0.777,34.002,-26.057,-3.465,
50057830,-0.453,0.199,0.808,34.475,-23.065,-5.057,
50057840,-0.445,0.22,0.861,31.797,-21.875,-9.782,
50057850,-0.391,0.198,0.907,27.562,-17.972,-9.292,
50057860,-0.416,0.178,0.933,23.467,-11.41,-4.742,
50057870,-0.442,0.198,0.953,20.072,-2.992,-2.87,
50057880,-0.582,0.237,0.909,13.055,-10.605,-4.2,
50057890,-0.44,0.223,0.886,-0.962,-16.712,-3.465,
50057900,-0.285,0.184,0.853,1.47,-2.695,-3.85,
50057910,-0.361,0.259,0.898,13.265,10.692,-6.86,
50057920,-0.539,0.326,0.946,16.572,15.68,-2.485,
50057930,-0.627,0.322,0.99,15.907,8.347,3.395,
50057940,-0.558,0.284,0.957,12.215,-5.337,4.637,
50057950,-0.48,0.248,0.909,8.19,-17.605,3.01,
50057960,-0.457,0.232,0.875,7.612,-24.377,1.015,
50057970,-0.408,0.273,0.855,10.115,-27.422,-3.22,
50057980,-0.376,0.295,0.858,12.81,-26.005,-9.415,
50057990,-0.38,0.312,0.86,14.28,-24.132,-12.285,
50058000,-0.373,0.295,0.874,14.035,-20.247,-11.252,
50058000,-0.359,0.296,0.866,9.747,-13.842,-12.372,
50058010,-0.379,0.281,0.88,5.845,-5.39,-14.192,
50058020,-0.377,0.285,0.87,0.297,1.487,-16.66,
50058030,-0.383,0.28,0.865,-1.837,7.542,-16.065,
50058040,-0.39,0.28,0.862,-3.307,12.757,-12.95,
50058050,-0.387,0.274,0.848,-6.72,18.637,-13.282,
50058060,-0.393,0.26,0.842,-8.47,24.727,-15.067,
50058070,-0.416,0.246,0.834,-9.257,30.537,-15.96,
50058080,-0.439,0.237,0.827,-8.61,33.967,-16.887,
50058090,-0.466,0.23,0.82,-7.927,35.122,-17.692,
50058100,-0.491,0.223,0.811,-7.052,33.197,-19.722,
50058110,-0.525,0.214,0.792,-5.792,28.49,-22.26,
50058120,-0.56,0.195,0.765,-3.99,20.335,-24.815,
50058130,-0.579,0.187,0.74,-1.4,10.115,-28.28,
50058140,-0.591,0.175,0.712,0.472,-1.225,-31.727,
50058150,-0.592,0.164,0.683,1.627,-11.76,-34.912,
50058160,-0.573,0.153,0.661,1.855,-20.125,-37.467,
50058170,-0.536,0.154,0.65,-0.315,-25.41,-38.395,
50058180,-0.52,0.15,0.65,-5.267,-27.475,-35.472,
50058190,-0.537,0.149,0.658,-11.76,-27.37,-28.525,
50058200,-0.537,0.144,0.665,-16.59,-24.99,-18.742,
50058210,-0.531,0.157,0.685,-21.402,-21.052,-6.125,
50058220,-0.557,0.177,0.711,-27.615,-16.17,4.06,
50058230,-0.616,0.16,0.72,-33.092,-13.282,10.29,
50058240,-0.624,0.174,0.755,-37.135,-13.685,12.04,
50058250,-0.606,0.188,0.774,-43.557,-18.252,9.117,
50058260,-0.577,0.198,0.802,-48.457,-23.677,5.25,
50058270,-0.557,0.191,0.825,-50.907,-30.782,4.585,
50058280,-0.533,0.177,0.844,-47.705,-38.237,6.877,
50058290,-0.49,0.203,0.894,-43.872,-43.925,4.095,
50058300,-0.444,0.232,0.903,-45.885,-46.147,-0.42,
50058310,-0.422,0.205,0.917,-42.91,-45.78,-4.182,
50058320,-0.387,0.198,0.926,-38.762,-42.472,-6.265,
50058330,-0.363,0.198,0.931,-33.635,-38.22,-8.4,
50058330,-0.34,0.191,0.938,-26.88,-31.255,-8.872,
50058350,-0.325,0.18,0.942,-19.652,-23.135,-7.857,
50058350,-0.326,0.18,0.952,-12.127,-13.65,-6.002,
50058370,-0.335,0.195,0.97,-5.495,-4.637,-4.077,
50058370,-0.351,0.205,0.982,-2.03,2.712,-1.855,
50058390,-0.375,0.195,0.985,0,7.28,-0.28,
50058390,-0.391,0.182,0.98,1.155,10.412,0,
50058410,-0.411,0.168,0.974,2.66,11.655,-0.332,
50058410,-0.421,0.145,0.963,4.515,12.46,-0.21,
50058420,-0.418,0.13,0.947,7.997,12.565,0,
50058430,-0.426,0.129,0.936,13.125,12.897,1.207,
50058440,-0.451,0.134,0.94,18.042,12.39,4.27,
50058450,-0.463,0.141,0.941,19.442,11.55,6.107,
50058460,-0.462,0.157,0.929,17.815,10.867,7.087,
50058470,-0.453,0.14,0.922,16.642,10.99,7.017,
50058480,-0.451,0.133,0.897,13.09,12.547,8.785,
50058490,-0.458,0.13,0.896,10.5,15.697,10.045,
50058500,-0.469,0.131,0.875,7.455,18.987,11.357,
50058510,-0.475,0.131,0.866,5.547,21.437,13.195,
50058520,-0.475,0.126,0.848,2.765,23.362,15.225,
50058530,-0.471,0.125,0.836,0.735,25.165,14.682,
50058540,-0.471,0.141,0.819,-0.927,26.862,13.58,
50058550,-0.47,0.147,0.817,-0.892,27.877,12.11,
50058560,-0.484,0.158,0.823,-1.435,28.332,12.845,
50058570,-0.486,0.166,0.815,-4.322,26.005,12.547,
50058580,-0.49,0.171,0.809,-6.23,22.925,11.97,
50058590,-0.496,0.155,0.799,-7.857,18.357,11.97,
50058600,-0.495,0.146,0.798,-8.925,14.472,10.325,
50058610,-0.465,0.148,0.777,-10.43,11.235,5.827,
50058620,-0.455,0.147,0.785,-7.525,10.255,4.06,
50058630,-0.466,0.146,0.791,-4.97,9.45,6.177,
50058640,-0.478,0.151,0.805,-2.975,8.365,8.015,
50058650,-0.483,0.161,0.808,-3.027,6.737,8.207,
50058660,-0.5,0.151,0.825,-2.135,4.917,7.402,
50058670,-0.481,0.155,0.81,-3.71,1.837,4.725,
50058670,-0.465,0.172,0.828,-3.342,1.172,2.1,
50058690,-0.47,0.183,0.832,-6.002,1.277,1.715,
50058690,-0.465,0.186,0.841,-9.362,2.782,1.592,
50058710,-0.465,0.171,0.843,-12.197,4.655,1.382,
50058710,-0.464,0.161,0.842,-14.665,7.577,0.087,
50058730,-0.459,0.148,0.839,-15.662,10.675,-2.537,
50058730,-0.48,0.137,0.848,-15.54,14.192,-2.677,
50058750,-0.507,0.128,0.849,-15.907,15.522,-3.01,
50058750,-0.54,0.117,0.869,-14.962,15.295,-3.867,
50058760,-0.545,0.12,0.853,-17.237,12.25,-7.595,
50058770,-0.55,0.103,0.864,-14.717,8.575,-10.972,
50058780,-0.539,0.095,0.861,-13.09,4.847,-10.727,
50058790,-0.53,0.1,0.861,-11.83,2.73,-10.062,
50058800,-0.522,0.107,0.861,-11.025,1.575,-10.01,
50058810,-0.517,0.104,0.855,-11.725,1.33,-9.327,
50058820,-0.519,0.095,0.843,-11.112,1.085,-7.962,
50058830,-0.517,0.098,0.836,-9.695,0.857,-6.877,
50058840,-0.513,0.1,0.83,-8.417,0.245,-6.545,
50058850,-0.507,0.092,0.833,-7.595,0.542,-6.912,
50058860,-0.525,0.105,0.846,-5.687,1.347,-7.332,
50058870,-0.555,0.118,0.868,-4.585,0.56,-7.997,
50058880,-0.479,0.098,0.868,-7.087,1.015,-7.472,
50058890,-0.444,0.106,0.881,-9.17,7.402,-3.622,
50058900,-0.5,0.083,0.882,-13.195,14.472,-0.927,
50058910,-0.528,0.086,0.848,-14.385,20.055,-1.785,
50058920,-0.57,0.076,0.847,-12.635,20.947,0.192,
50058930,-0.611,0.068,0.829,-12.162,16.747,1.207,
50058940,-0.591,0.075,0.818,-10.027,10.027,-0.262,
50058950,-0.556,0.06,0.796,-8.33,5.145,0.665,
50058960,-0.563,0.055,0.796,-5.652,3.517,1.995,
50058970,-0.58,0.068,0.798,-3.675,2.38,1.942,
50058980,-0.582,0.077,0.798,-2.642,0.402,2.065,
50058990,-0.571,0.085,0.797,-1.137,-2.485,3.097,
50059000,-0.555,0.105,0.809,-0.892,-4.322,4.41,
50059010,-0.549,0.115,0.815,-2.1,-5.32,4.777,
50059020,-0.524,0.116,0.818,-2.782,-4.095,4.217,
50059030,-0.51,0.116,0.827,-2.555,-1.96,4.182,
50059040,-0.527,0.123,0.845,-2.642,0.297,4.742,
50059050,-0.539,0.132,0.862,-3.342,0.997,4.97,
50059060,-0.545,0.126,0.874,-5.197,1.645,5.215,
50059070,-0.556,0.118,0.877,-6.562,2.257,5.057,
50059080,-0.61,0.099,0.882,-6.807,1.382,5.18,
50059080,-0.592,0.095,0.863,-4.83,-1.855,3.22,
50059100,-0.558,0.107,0.858,-2.415,-3.867,1.47,
50059100,-0.559,0.102,0.838,-2.345,-4.41,0.752,
50059120,-0.563,0.099,0.829,-1.627,-3.5,0.227,
50059120,-0.569,0.104,0.823,-1.715,-4.41,0.245,
50059140,-0.552,0.105,0.815,-2.292,-5.915,0.402,
50059140,-0.513,0.096,0.81,-3.622,-4.777,1.452,
50059160,-0.571,0.092,0.794,-5.232,-3.027,3.745,
50059160,-0.547,0.094,0.808,-4.637,-4.025,2.905,
50059170,-0.516,0.063,0.808,-4.462,-1.907,4.322,
50059180,-0.562,0.058,0.831,-1.96,-2.712,5.757,
50059190,-0.573,0.07,0.836,0.332,-5.355,5.757,
50059200,-0.568,0.075,0.836,1.295,-9.642,5.67,
50059210,-0.541,0.083,0.831,1.312,-12.722,4.13,
50059220,-0.554,0.085,0.834,0.962,-13.545,2.1,
50059230,-0.538,0.087,0.836,1.995,-17.115,-1.33,
50059240,-0.468,0.089,0.838,3.937,-15.767,-2.45,
50059250,-0.498,0.095,0.835,4.777,-12.635,0.227,
50059260,-0.525,0.121,0.84,4.725,-8.662,0.42,
50059270,-0.521,0.114,0.827,2.275,-6.772,0.367,
50059280,-0.534,0.113,0.827,1.54,-5.74,0.805,
50059290,-0.535,0.112,0.83,0.7,-5.477,1.032,
50059300,-0.53,0.113,0.832,0.665,-5.022,0.332,
50059310,-0.541,0.105,0.832,0.35,-5.652,-0.332,
50059320,-0.542,0.093,0.837,0.665,-5.512,-0.49,
50059330,-0.547,0.089,0.838,1.347,-5.232,-0.262,
50059340,-0.554,0.095,0.836,1.977,-5.215,0,
50059350,-0.563,0.101,0.834,2.012,-6.387,0.227,
50059360,-0.549,0.102,0.829,1.82,-7.227,0.35,
50059370,-0.527,0.1,0.826,2.432,-7.7,0.962,
50059380,-0.526,0.099,0.828,2.52,-6.947,1.75,
50059390,-0.516,0.101,0.829,2.38,-5.862,1.33,
50059400,-0.523,0.095,0.827,1.75,-3.85,1.925,
50059410,-0.539,0.092,0.826,1.68,-3.85,2.852,
50059420,-0.537,0.094,0.833,2.065,-4.165,3.57,
50059420,-0.537,0.091,0.84,2.065,-5.81,4.725,
50059440,-0.539,0.096,0.836,2.502,-7.14,6.037,
50059440,-0.541,0.112,0.842,2.52,-9.607,7.682,
50059460,-0.522,0.112,0.839,1.032,-10.78,8.767,
50059460,-0.514,0.114,0.838,0.875,-11.182,8.837,
50059480,-0.523,0.124,0.843,1.032,-11.462,8.732,
50059480,-0.522,0.124,0.846,1.207,-12.687,8.19,
50059500,-0.528,0.117,0.855,1.89,-13.842,7.875,
50059500,-0.511,0.131,0.857,2.73,-13.912,7.385,
50059510,-0.498,0.143,0.869,2.17,-11.497,7.507,
50059520,-0.511,0.13,0.872,-0.315,-8.662,8.05,
50059530,-0.523,0.111,0.856,-1.942,-6.51,7.717,
50059540,-0.526,0.097,0.833,-1.015,-6.352,7.315,
50059550,-0.542,0.091,0.814,2.24,-8.96,7.525,
50059560,-0.541,0.085,0.802,6.702,-13.422,7.577,
50059570,-0.545,0.075,0.798,11.9,-18.777,8.68,
50059580,-0.563,0.082,0.815,16.852,-24.325,11.2,
50059590,-0.566,0.104,0.839,19.372,-29.662,12.407,
50059600,-0.541,0.112,0.855,19.39,-33.18,11.882,
50059610,-0.54,0.112,0.857,19.127,-35.035,12.302,
50059620,-0.508,0.105,0.852,21.56,-35.035,13.93,
50059630,-0.5,0.095,0.849,25.795,-34.667,18.27,
50059640,-0.53,0.123,0.849,30.362,-37.467,23.082,
50059650,-0.495,0.164,0.844,32.602,-40.407,24.36,
50059660,-0.456,0.175,0.834,31.342,-41.58,23.537,
50059670,-0.434,0.183,0.835,27.125,-39.305,21.49,
50059680,-0.396,0.204,0.872,21.507,-32.567,17.43,
50059690,-0.391,0.2,0.892,15.96,-23.1,14.962,
50059700,-0.439,0.185,0.904,13.16,-16.835,14.367,
50059710,-0.397,0.194,0.915,12.985,-14.525,13.142,
50059720,-0.393,0.207,0.904,12.547,-13.685,11.935,
50059730,-0.39,0.229,0.893,12.337,-15.207,8.54,
50059740,-0.404,0.254,0.896,11.812,-17.412,6.93,
50059750,-0.376,0.295,0.911,9.59,-19.442,5.46,
50059760,-0.336,0.324,0.909,3.622,-16.94,3.517,
50059770,-0.326,0.315,0.888,-5.057,-10.727,0.367,
50059780,-0.308,0.292,0.866,-12.565,-2.275,-4.707,
50059790,-0.311,0.277,0.867,-17.815,4.235,-7.945,
50059800,-0.352,0.215,0.87,-21.822,10.692,-6.107,
50059810,-0.403,0.152,0.884,-22.4,15.032,-3.5,
50059820,-0.474,0.117,0.877,-20.58,16.905,-1.995,
50059830,-0.541,0.095,0.863,-16.38,11.865,-0.105,
50059830,-0.542,0.087,0.836,-13.475,4.357,0.945,
50059850,-0.53,0.07,0.82,-9.047,-3.115,1.12,
50059850,-0.535,0.072,0.828,-4.147,-8.627,2.712,
50059870,-0.52,0.103,0.845,-0.507,-13.545,3.01,
50059870,-0.509,0.128,0.861,1.505,-18.095,3.482,
50059890,-0.467,0.148,0.863,2.765,-22.47,4.305,
50059890,-0.408,0.18,0.87,4.2,-24.097,4.725,
50059910,-0.37,0.205,0.875,4.287,-22.61,4.427,
50059910,-0.364,0.204,0.879,3.08,-18.602,3.797,
50059920,-0.383,0.193,0.885,1.89,-13.632,3.762,
50059930,-0.426,0.185,0.885,1.47,-11.077,4.235,
50059940,-0.451,0.18,0.9,1.96,-11.602,5.985,
50059950,-0.437,0.18,0.904,3.71,-13.055,7.927,
50059960,-0.397,0.205,0.903,5.057,-14.245,7.98,
50059970,-0.381,0.22,0.893,4.795,-14.7,7.297,
50059980,-0.362,0.227,0.896,3.342,-12.88,4.707,
50059990,-0.358,0.217,0.901,0.507,-8.872,1.645,
50060000,-0.381,0.194,0.907,-2.502,-4.217,-0.157,
50060010,-0.406,0.168,0.903,-3.99,-0.577,-0.122,
50060020,-0.447,0.162,0.893,-3.36,0.192,1.19,
50060030,-0.459,0.163,0.886,-2.87,-2.625,1.942,
50060040,-0.453,0.154,0.878,-2.152,-6.65,2.94,
50060050,-0.429,0.16,0.866,-0.717,-10.255,3.99,
50060060,-0.405,0.178,0.864,0.77,-11.305,4.567,
50060070,-0.397,0.182,0.859,0.682,-11.165,4.97,
50060080,-0.377,0.18,0.873,0.49,-9.292,4.515,
50060090,-0.382,0.183,0.884,0.017,-7.945,3.797,
50060100,-0.388,0.181,0.889,-0.892,-6.405,3.22,
50060110,-0.386,0.18,0.889,-0.91,-5.95,2.712,
50060120,-0.382,0.183,0.892,-0.665,-4.865,2.712,
50060130,-0.378,0.195,0.892,-0.402,-3.377,2.222,
50060140,-0.389,0.201,0.904,-1.137,-0.84,1.592,
50060150,-0.399,0.203,0.905,-2.467,0.63,0.437,
50060160,-0.405,0.197,0.908,-3.902,1.75,-0.49,
50060170,-0.428,0.182,0.905,-4.76,1.487,-0.56,
50060170,-0.443,0.167,0.89,-4.322,0.717,-0.49,
50060190,-0.453,0.151,0.87,-2.765,-2.292,-0.14,
50060190,-0.465,0.149,0.859,0.07,-5.915,1.032,
50060210,-0.445,0.157,0.849,2.362,-10.027,1.715,
50060210,-0.433,0.168,0.85,3.797,-12.407,1.505,
50060230,-0.427,0.177,0.873,3.307,-14.542,0.665,
50060230,-0.416,0.187,0.925,1.54,-15.522,-0.28,
50060250,-0.4,0.188,0.951,-0.717,-16.082,-1.697,
50060250,-0.387,0.178,0.947,-1.435,-16.222,-2.467,
50060260,-0.379,0.177,0.931,-0.157,-16.555,-1.19,
50060270,-0.371,0.183,0.911,1.96,-16.782,0.297,
50060280,-0.341,0.196,0.89,3.36,-15.977,0.052,
50060290,-0.326,0.199,0.875,3.605,-12.092,-0.087,
50060300,-0.358,0.184,0.862,3.202,-8.137,-0.175,
50060310,-0.366,0.181,0.872,3.325,-6.107,-0.192,
50060320,-0.379,0.179,0.898,3.482,-5.827,1.032,
50060330,-0.38,0.18,0.916,3.167,-5.145,0.962,
50060340,-0.389,0.185,0.92,3.045,-4.182,0.262,
50060350,-0.39,0.188,0.911,3.517,-4.27,0.122,
50060360,-0.382,0.191,0.905,4.34,-4.252,0.56,
50060370,-0.372,0.189,0.897,4.602,-3.71,0.595,
50060380,-0.365,0.185,0.89,4.585,-1.155,-0.14,
50060390,-0.37,0.179,0.886,4.602,1.242,-1.015,
50060400,-0.377,0.183,0.893,5.232,3.377,-1.33,
50060410,-0.383,0.192,0.902,6.02,4.217,-1.225,
50060420,-0.377,0.196,0.907,6.3,5.18,-1.102,
50060430,-0.372,0.196,0.906,6.457,6.597,-1.085,
50060440,-0.379,0.194,0.906,6.405,8.33,-1.487,
50060450,-0.359,0.199,0.895,6.387,9.31,-2.765,
50060460,-0.346,0.201,0.883,6.685,11.182,-2.537,
50060470,-0.372,0.191,0.879,6.055,12.705,-0.21,
50060480,-0.38,0.184,0.878,5.285,13.842,0.682,
50060490,-0.391,0.179,0.88,5.512,13.772,1.61,
50060500,-0.407,0.173,0.886,6.755,13.527,3.465,
50060510,-0.401,0.176,0.887,8.82,12.967,3.797,
50060520,-0.397,0.179,0.883,11.427,13.265,4.882,
50060530,-0.4,0.19,0.859,13.982,14.262,7.595,
50060540,-0.391,0.181,0.862,16.852,15.995,10.78,
50060550,-0.45,0.179,0.797,20.335,17.01,15.732,
50060560,-0.478,0.21,0.796,21.332,12.775,19.022,
50060570,-0.466,0.24,0.79,20.51,6.09,19.145,
50060580,-0.462,0.25,0.805,17.972,1.085,17.727,
50060580,-0.5,0.242,0.844,13.702,-1.732,15.155,
50060600,-0.495,0.259,0.881,9.712,-2.275,9.38,
50060600,-0.478,0.263,0.899,5.582,-2.975,4.182,
50060620,-0.461,0.241,0.897,2.205,-3.517,1.977,
50060620,-0.454,0.234,0.893,2.38,-5.39,2.292,
50060640,-0.442,0.244,0.889,4.62,-8.312,4.637,
50060640,-0.409,0.264,0.891,7.175,-10.78,6.002,
50060660,-0.372,0.284,0.891,8.54,-11.305,5.162,
50060660,-0.352,0.303,0.893,7.665,-9.642,3.22,
50060670,-0.351,0.317,0.894,4.287,-5.722,1.715,
50060680,-0.346,0.314,0.895,-0.735,-0.805,0.507,
50060690,-0.358,0.293,0.886,-5.74,4.567,0.087,
50060700,-0.386,0.272,0.882,-9.502,8.592,-0.035,
50060710,-0.411,0.257,0.876,-11.76,10.99,-0.385,
50060720,-0.413,0.24,0.871,-12.197,12.32,-1.015,
50060730,-0.434,0.219,0.861,-12.53,13.072,-0.98,
50060740,-0.46,0.206,0.859,-10.867,12.652,-1.12,
50060750,-0.471,0.207,0.857,-8.557,10.167,-0.35,
50060760,-0.489,0.212,0.853,-6.58,6.755,1.26,
50060770,-0.48,0.213,0.848,-5.932,3.097,1.277,
50060780,-0.457,0.202,0.843,-5.687,1.155,0.84,
50060790,-0.464,0.202,0.851,-4.9,-0.402,0.822,
50060800,-0.464,0.208,0.855,-4.917,-1.627,0.262,
50060810,-0.444,0.196,0.85,-4.2,-2.87,-0.052,
50060820,-0.45,0.178,0.851,-1.522,-3.99,1.54,
50060830,-0.48,0.187,0.867,2.765,-7.49,3.85,
50060840,-0.49,0.204,0.868,6.65,-13.037,5.495,
50060850,-0.484,0.21,0.864,10.027,-20.265,6.475,
50060860,-0.483,0.221,0.871,12.32,-30.152,6.667,
50060870,-0.349,0.231,0.868,12.267,-38.36,3.22,
50060880,-0.172,0.227,0.916,14.105,-33.302,-1.942,
50060890,-0.228,0.235,0.931,11.882,-15.767,-1.015,
50060900,-0.457,0.221,0.886,5.915,-2.817,3.062,
50060910,-0.511,0.223,0.866,5.53,-2.94,3.64,
50060920,-0.528,0.207,0.838,7.455,-10.01,7.77,
50060920,-0.584,0.207,0.83,10.447,-18.147,11.27,
50060940,-0.597,0.227,0.828,13.072,-25.62,11.637,
50060940,-0.531,0.257,0.836,14.927,-35.63,10.465,
50060960,-0.397,0.286,0.864,16.135,-41.177,12.092,
50060960,-0.31,0.298,0.881,16.117,-41.055,14.84,
50060980,-0.201,0.349,0.911,13.3,-33.967,12.582,
50060980,-0.126,0.371,0.915,6.247,-21.525,9.117,
50061000,-0.099,0.375,0.907,-2.047,-5.285,6.772,
50061000,-0.142,0.355,0.923,-10.342,11.97,8.155,
50061010,-0.205,0.315,0.9,-22.172,27.195,-0.7,
50061020,-0.353,0.233,0.891,-23.94,34.405,-4.847,
50061030,-0.477,0.194,0.865,-20.527,31.955,-3.045,
50061040,-0.54,0.189,0.859,-14.56,24.01,-1.977,
50061050,-0.548,0.183,0.847,-10.325,15.505,-2.047,
50061060,-0.506,0.194,0.835,-5.915,8.19,-2.362,
50061070,-0.437,0.212,0.844,-2.59,3.885,-2.38,
50061080,-0.397,0.218,0.856,-1.172,3.71,-1.89,
50061090,-0.391,0.216,0.871,-0.525,4.375,-0.927,
50061100,-0.387,0.222,0.877,1.137,4.252,0.192,
50061110,-0.375,0.235,0.872,3.08,4.532,0.7,
50061120,-0.377,0.242,0.862,3.71,6.702,0.017,
50061130,-0.388,0.248,0.864,3.5,9.327,-0.28,
50061140,-0.387,0.256,0.87,2.712,12.425,-0.017,
50061150,-0.391,0.254,0.879,1.697,15.522,0.035,
50061160,-0.396,0.267,0.889,1.277,19.11,0.105,
50061170,-0.407,0.283,0.894,0.822,21.245,-0.577,
50061180,-0.455,0.287,0.895,-1.19,20.545,-1.767,
50061190,-0.503,0.263,0.866,-2.835,15.575,-2.485,
50061200,-0.499,0.248,0.852,-2.8,10.272,-2.45,
50061210,-0.475,0.245,0.843,-2.887,5.775,-2.1,
50061220,-0.462,0.238,0.85,-3.237,3.955,-2.205,
50061230,-0.444,0.235,0.853,-3.465,1.767,-2.345,
50061240,-0.411,0.236,0.855,-3.237,1.26,-1.96,
50061250,-0.387,0.246,0.861,-3.692,1.662,-2.24,
50061260,-0.367,0.246,0.86,-4.69,5.04,-3.045,
50061270,-0.378,0.235,0.856,-5.565,9.31,-3.465,
50061280,-0.406,0.236,0.846,-6.177,12.372,-3.255,
50061290,-0.405,0.241,0.845,-6.037,14.682,-3.5,
50061300,-0.454,0.223,0.85,-7.017,17.045,-3.657,
50061310,-0.501,0.217,0.858,-6.807,15.942,-4.13,
50061320,-0.522,0.215,0.859,-5.145,11.812,-2.817,
50061330,-0.528,0.206,0.849,-3.097,5.705,-0.77,
50061330,-0.515,0.213,0.841,-0.7,0.367,0.507,
50061350,-0.486,0.225,0.838,1.54,-3.692,1.207,
50061350,-0.469,0.24,0.847,2.52,-5.687,1.89,
50061370,-0.46,0.245,0.857,2.117,-6.317,2.327,
50061370,-0.458,0.239,0.869,1.662,-5.845,2.747,
50061380,-0.456,0.239,0.873,1.645,-6.545,3.15,
50061390,-0.433,0.247,0.858,2.152,-7.262,3.255,
50061400,-0.413,0.253,0.842,1.452,-6.685,3.045,
50061410,-0.403,0.251,0.836,0.315,-4.077,2.59,
50061420,-0.433,0.246,0.851,0.105,-0.665,2.625,
50061430,-0.461,0.227,0.869,0.56,1.995,2.24,
50061440,-0.477,0.208,0.861,2.467,1.417,1.032,
50061450,-0.475,0.244,0.863,4.9,-0.595,1.26,
50061460,-0.539,0.235,0.846,5.285,-3.815,4.567,
50061470,-0.459,0.249,0.837,5.337,-7.472,3.885,
50061480,-0.406,0.239,0.825,2.835,-8.33,5.285,
50061490,-0.404,0.246,0.834,1.155,-6.93,6.3,
50061500,-0.399,0.268,0.858,-1.12,-4.392,5.18,
50061510,-0.418,0.258,0.87,-4.322,-1.697,3.587,
50061520,-0.445,0.249,0.866,-5.705,-0.28,2.835,
50061530,-0.467,0.244,0.853,-5.302,-0.717,3.062,
50061540,-0.468,0.239,0.836,-4.48,-0.997,2.292,
50061550,-0.48,0.232,0.843,-3.377,-1.697,1.47,
50061560,-0.48,0.231,0.848,-2.17,-3.535,1.802,
50061570,-0.441,0.25,0.862,-0.507,-5.302,1.557,
50061580,-0.419,0.254,0.864,-1.137,-4.48,1.242,
50061590,-0.431,0.244,0.858,-2.205,-2.852,0.787,
50061600,-0.45,0.232,0.846,-2.975,-1.54,1.067,
50061610,-0.467,0.223,0.837,-2.765,-2.467,1.645,
50061620,-0.476,0.227,0.834,-2.292,-3.132,1.715,
50061630,-0.487,0.222,0.835,-1.47,-4.445,1.732,
50061640,-0.465,0.248,0.844,-0.227,-5.6,1.522,
50061650,-0.434,0.256,0.855,-0.647,-5.687,1.102,
50061660,-0.435,0.24,0.852,-1.942,-3.605,0.28,
50061670,-0.422,0.245,0.855,-1.802,-1.505,-0.717,
50061670,-0.45,0.234,0.86,-1.785,0.35,-0.577,
50061690,-0.444,0.226,0.847,-0.962,0.367,-1.4,
50061690,-0.43,0.245,0.853,0.262,0.892,-1.522,
50061710,-0.459,0.242,0.85,-0.84,1.382,-1.575,
50061710,-0.397,0.243,0.875,-0.455,3.377,-2.327,
50061730,-0.466,0.236,0.872,-0.402,4.935,-0.612,
50061730,-0.443,0.265,0.857,-1.872,4.515,-1.54,
50061750,-0.454,0.245,0.838,-2.415,4.34,-0.962,
50061750,-0.491,0.228,0.832,-2.362,5.092,-0.77,
50061760,-0.509,0.222,0.837,-1.872,3.01,-1.085,
50061770,-0.5,0.209,0.847,-0.315,-0.945,0.297,
50061780,-0.476,0.227,0.857,1.487,-5.582,1.802,
50061790,-0.441,0.244,0.861,1.68,-7.612,2.187,
50061800,-0.422,0.249,0.854,0.84,-7.472,1.907,
50061810,-0.417,0.262,0.856,0.017,-5.617,1.837,
50061820,-0.42,0.26,0.851,-1.312,-3.447,1.977,
50061830,-0.425,0.256,0.85,-2.082,-1.085,1.505,
50061840,-0.45,0.249,0.853,-3.237,1.417,0.875,
50061850,-0.466,0.242,0.85,-3.85,2.152,-0.542,
50061860,-0.464,0.245,0.858,-3.727,1.295,-0.857,
50061870,-0.466,0.23,0.862,-3.587,0.455,-0.507,
50061880,-0.475,0.208,0.857,-3.675,-0.472,-0.297,
50061890,-0.47,0.208,0.85,-2.187,-2.415,0.63,
50061900,-0.476,0.214,0.849,-0.962,-4.165,1.767,
50061910,-0.49,0.209,0.847,-0.42,-6.58,1.995,
50061920,-0.503,0.205,0.845,0.875,-9.327,2.835,
50061930,-0.511,0.202,0.856,3.097,-12.67,3.85,
50061940,-0.524,0.202,0.858,5.775,-16.38,4.27,
50061950,-0.506,0.188,0.862,8.82,-22.277,5.285,
50061960,-0.482,0.176,0.871,13.667,-27.002,6.93,
50061970,-0.464,0.196,0.865,18.725,-31.255,7.017,
50061980,-0.436,0.219,0.863,22.382,-33.775,7.927,
50061990,-0.441,0.226,0.825,23.765,-34.265,9.712,
50062000,-0.444,0.241,0.79,24.08,-34.195,7.735,
50062010,-0.419,0.286,0.791,24.01,-36.05,4.41,
50062020,-0.382,0.308,0.804,21.7,-35.192,4.917,
50062030,-0.409,0.307,0.822,17.64,-32.235,5.285,
50062040,-0.496,0.318,0.832,13.93,-33.075,3.78,
50062050,-0.5,0.338,0.836,14.402,-39.27,3.395,
50062050,-0.418,0.315,0.888,15.417,-46.62,2.905,
50062070,-0.325,0.287,0.96,16.24,-47.565,1.225,
50062070,-0.43,0.292,0.925,16.992,-50.137,0.945,
50062080,-0.366,0.332,0.874,18.2,-54.862,1.312,
50062090,-0.288,0.296,0.875,15.995,-52.395,4.217,
50062100,-0.277,0.287,0.863,11.41,-47.355,1.697,
50062110,-0.287,0.313,0.859,6.317,-40.775,0.227,
50062120,-0.319,0.286,0.872,2.45,-35.752,0.77,
50062130,-0.29,0.281,0.881,0.21,-32.515,0.122,
50062140,-0.265,0.273,0.894,-1.242,-27.702,1.137,
50062150,-0.274,0.276,0.904,-2.467,-21.857,2.117,
50062160,-0.266,0.289,0.922,-3.43,-17.325,3.097,
50062170,-0.261,0.297,0.917,-3.832,-13.177,5.967,
50062180,-0.25,0.316,0.911,-4.952,-7.997,7.315,
50062190,-0.242,0.327,0.903,-7.49,-2.117,5.407,
50062200,-0.263,0.317,0.89,-10.062,3.727,2.642,
50062210,-0.272,0.31,0.892,-12.267,9.205,0.122,
50062220,-0.32,0.3,0.883,-13.685,13.422,-2.835,
50062230,-0.353,0.297,0.886,-13.772,15.05,-6.737,
50062240,-0.321,0.303,0.893,-12.232,15.26,-8.47,
50062250,-0.328,0.322,0.889,-13.037,13.86,-6.387,
50062260,-0.332,0.343,0.87,-18.655,10.71,-4.515,
50062270,-0.286,0.311,0.877,-28.717,12.915,-2.747,
50062280,-0.351,0.238,0.866,-36.872,24.395,1.4,
50062290,-0.469,0.182,0.864,-35.507,30.1,1.575,
50062300,-0.512,0.169,0.879,-28.84,26.757,-0.455,
50062310,-0.504,0.168,0.879,-20.037,16.31,0,
50062320,-0.445,0.175,0.891,-8.907,5.81,0.717,
50062330,-0.388,0.187,0.908,0.455,-0.122,1.12,
50062340,-0.366,0.202,0.927,7.017,-0.787,1.627,
50062350,-0.363,0.213,0.939,12.04,0.507,2.082,
50062360,-0.351,0.215,0.93,17.255,2.817,1.855,
50062370,-0.327,0.223,0.921,22.942,4.76,0.437,
50062380,-0.31,0.234,0.919,28.14,7.717,-1.032,
50062390,-0.294,0.249,0.916,32.322,11.13,-2.625,
50062400,-0.292,0.26,0.914,35.192,15.785,-3.955,
50062410,-0.297,0.266,0.904,35.822,20.772,-5.512,
50062420,-0.294,0.273,0.896,36.137,27.212,-7.28,
50062420,-0.3,0.283,0.893,36.347,33.582,-7.77,
50062440,-0.332,0.288,0.887,36.837,39.795,-6.58,
50062440,-0.37,0.29,0.888,37.187,43.662,-5.355,
50062460,-0.389,0.298,0.872,35.98,45.762,-7.105,
50062460,-0.391,0.298,0.858,36.872,46.847,-9.922,
50062480,-0.409,0.296,0.851,39.532,48.58,-10.15,
50062480,-0.403,0.302,0.845,41.842,50.33,-10.29,
50062500,-0.414,0.304,0.849,44.782,54.11,-9.712,
50062500,-0.439,0.306,0.837,46.322,58.467,-9.835,
50062510,-0.419,0.34,0.823,47.372,62.65,-11.305,
50062520,-0.44,0.328,0.827,50.925,67.427,-7.017,
50062530,-0.48,0.352,0.807,48.457,72.87,-2.765,
50062540,-0.521,0.382,0.795,46.777,77.175,-6.195,
50062550,-0.532,0.42,0.781,43.155,79.8,-10.937,
50062560,-0.542,0.427,0.77,36.977,79.275,-13.58,
50062570,-0.575,0.438,0.767,30.257,77.245,-10.15,
50062580,-0.587,0.468,0.754,17.657,74.322,-12.005,
50062590,-0.59,0.477,0.741,5.687,71.505,-19.005,
50062600,-0.589,0.438,0.71,-4.095,69.72,-23.8,
50062610,-0.602,0.375,0.703,-9.502,67.55,-25.497,
50062620,-0.626,0.386,0.695,-15.575,63.962,-22.172,
50062630,-0.656,0.375,0.682,-19.67,58.817,-22.435,
50062640,-0.668,0.364,0.691,-21.367,54.687,-23.607,
50062650,-0.697,0.367,0.703,-24.762,48.317,-24.815,
50062660,-0.697,0.367,0.689,-27.597,41.072,-26.32,
50062670,-0.694,0.34,0.695,-26.915,34.195,-27.86,
50062680,-0.646,0.328,0.685,-26.232,30.222,-33.53,
50062690,-0.67,0.308,0.691,-23.975,30.992,-30.747,
50062700,-0.718,0.278,0.674,-22.592,31.027,-23.73,
50062710,-0.727,0.299,0.693,-17.517,29.837,-21.805,
50062720,-0.732,0.314,0.701,-14.63,29.347,-20.597,
50062730,-0.736,0.31,0.693,-12.355,29.067,-17.64,
50062740,-0.721,0.322,0.688,-10.22,31.167,-14.665,
50062750,-0.7,0.334,0.673,-12.705,35.857,-12.53,
50062760,-0.7,0.315,0.656,-14.245,45.027,-9.152,
50062760,-0.724,0.307,0.649,-14.315,54.232,-5.582,
50062780,-0.754,0.297,0.632,-14.682,61.582,-1.977,
50062780,-0.766,0.291,0.616,-13.387,65.555,1.54,
50062800,-0.786,0.29,0.614,-10.727,67.34,7.367,
50062800,-0.822,0.301,0.61,-8.942,65.397,13.58,
50062820,-0.82,0.327,0.607,-10.325,61.635,14.42,
50062820,-0.774,0.352,0.593,-15.487,57.837,12.932,
50062830,-0.723,0.351,0.583,-22.102,57.715,13.877,
50062840,-0.686,0.34,0.551,-29.19,61.985,13.79,
50062850,-0.642,0.305,0.51,-35.612,70.647,13.895,
50062860,-0.625,0.251,0.483,-38.15,81.97,17.447,
50062870,-0.677,0.217,0.469,-36.33,93.94,25.077,
50062880,-0.74,0.225,0.475,-31.22,101.027,29.015,
50062890,-0.792,0.252,0.502,-27.457,102.76,31.937,
50062900,-0.817,0.269,0.498,-26.022,99.942,32.55,
50062910,-0.828,0.293,0.496,-24.272,93.467,30.765,
50062920,-0.825,0.273,0.485,-28.297,84.875,30.502,
50062930,-0.867,0.218,0.483,-33.18,76.107,28.77,
50062940,-0.922,0.13,0.487,-27.702,58.292,22.557,
50062950,-0.864,0.016,0.517,-17.062,31.185,14.63,
50062960,-0.671,0.069,0.522,7.402,10.29,5.495,
50062970,-0.565,0.267,0.587,31.237,2.082,-0.437,
50062980,-0.666,0.354,0.588,31.517,0.437,-0.647,
50062990,-0.745,0.357,0.571,24.272,2.747,-3.955,
50063000,-0.713,0.336,0.531,12.302,6.002,-7.962,
50063010,-0.712,0.281,0.469,-1.47,11.375,-9.257,
50063020,-0.792,0.234,0.437,-6.51,19.022,-9.012,
50063030,-0.908,0.173,0.426,-2.747,18.112,-9.957,
50063040,-0.95,0.174,0.408,9.52,9.205,-13.3,
50063050,-0.929,0.246,0.433,22.977,-3.587,-15.697,
50063060,-0.923,0.298,0.446,27.422,-16.502,-16.502,
50063070,-0.866,0.333,0.452,24.832,-25.165,-17.675,
50063080,-0.888,0.3,0.486,15.54,-31.307,-16.8,
50063090,-0.863,0.181,0.495,8.942,-38.517,-18.567,
50063100,-0.802,0.156,0.508,22.592,-45.71,-22.417,
50063110,-0.755,0.263,0.477,48.282,-53.427,-27.58,
50063120,-0.5,0.303,0.615,54.967,-68.057,-30.537,
50063130,-0.604,0.347,0.604,36.697,-53.165,-10.552,
50063140,-0.812,0.464,0.65,20.737,-37.17,-2.38,
50063150,-0.717,0.352,0.634,8.61,-29.942,-2.047,
50063160,-0.791,0.284,0.575,-6.352,-24.552,8.505,
50063170,-0.91,0.247,0.572,-13.352,-29.96,15.067,
50063170,-0.951,0.2,0.541,-10.727,-43.242,18.095,
50063190,-0.912,0.184,0.503,-2.782,-59.675,19.425,
50063190,-0.873,0.197,0.491,7.472,-73.307,18.147,
50063210,-0.829,0.252,0.485,15.522,-81.917,14.98,
50063210,-0.763,0.334,0.497,19.355,-84.332,9.047,
50063230,-0.72,0.394,0.513,16.415,-83.16,1.382,
50063230,-0.678,0.419,0.522,7,-78.907,-6.772,
50063250,-0.659,0.41,0.531,-3.36,-73.115,-12.53,
50063250,-0.647,0.412,0.54,-13.545,-65.432,-15.802,
50063260,-0.642,0.423,0.553,-22.435,-59.605,-18.69,
50063270,-0.653,0.385,0.551,-30.415,-54.285,-23.065,
50063280,-0.638,0.338,0.547,-34.685,-49.105,-29.12,
50063290,-0.636,0.29,0.547,-34.685,-45.01,-30.782,
50063300,-0.613,0.271,0.553,-31.535,-39.865,-28.77,
50063310,-0.595,0.267,0.569,-28.297,-31.762,-25.427,
50063320,-0.621,0.253,0.582,-25.97,-22.242,-21.367,
50063330,-0.655,0.244,0.605,-22.54,-13.055,-17.797,
50063340,-0.673,0.259,0.634,-20.107,-5.722,-15.715,
50063350,-0.669,0.287,0.648,-20.037,-1.33,-12.617,
50063360,-0.639,0.307,0.639,-19.932,2.607,-7.63,
50063370,-0.587,0.312,0.627,-21.98,9.047,-3.5,
50063380,-0.589,0.291,0.589,-26.092,18.322,2.397,
50063390,-0.617,0.285,0.573,-29.067,27.807,6.072,
50063400,-0.653,0.28,0.588,-32.06,35.822,6.51,
50063410,-0.688,0.276,0.612,-36.102,38.01,4.427,
50063420,-0.706,0.256,0.636,-40.565,35.367,2.292,
50063430,-0.749,0.209,0.648,-44.17,27.422,2.012,
50063440,-0.767,0.165,0.645,-45.08,17.307,2.8,
50063450,-0.523,0.087,0.714,-42.665,18.62,7.035,
50063460,-0.615,0.066,0.783,-32.445,45.99,17.307,
50063470,-0.997,0.099,0.834,-21.595,58.345,20.912,
50063480,-1.164,0.028,0.857,-13.195,46.585,16.975,
50063490,-1.001,0,0.744,4.182,30.24,10.867,
50063500,-0.986,0.105,0.73,21.192,18.06,13.79,
50063510,-1.09,0.161,0.708,28.857,4.252,20.335,
50063510,-1.06,0.187,0.711,32.567,-10.92,22.085,
50063530,-0.939,0.198,0.635,27.3,-23.712,21.7,
50063530,-0.867,0.202,0.598,27.09,-30.397,21.56,
50063550,-0.856,0.234,0.612,27.037,-35.157,20.37,
50063550,-0.851,0.253,0.604,26.32,-41.23,17.22,
50063570,-0.798,0.277,0.607,25.725,-47.617,12.915,
50063570,-0.747,0.308,0.641,23.467,-51.8,9.222,
50063580,-0.721,0.328,0.676,19.792,-53.707,7.245,
50063590,-0.733,0.319,0.704,15.837,-54.53,7.665,
50063600,-0.753,0.265,0.682,14.507,-56.927,9.292,
50063610,-0.745,0.245,0.661,18.462,-61.162,11.06,
50063620,-0.708,0.268,0.651,23.782,-66.587,13.79,
50063630,-0.677,0.302,0.631,27.212,-70.56,17.745,
50063640,-0.632,0.313,0.629,25.217,-72.782,19.915,
50063650,-0.65,0.299,0.597,21.122,-74.34,20.912,
50063660,-0.625,0.289,0.625,17.342,-77.595,20.002,
50063670,-0.56,0.265,0.643,19.285,-77.682,21.875,
50063680,-0.599,0.283,0.707,23.747,-75.582,26.81,
50063690,-0.678,0.287,0.723,23.1,-76.16,28.315,
50063700,-0.6,0.311,0.743,25.27,-79.922,24.5,
50063710,-0.448,0.353,0.768,27.09,-73.745,24.78,
50063720,-0.479,0.384,0.76,21.857,-61.11,26.092,
50063730,-0.573,0.347,0.789,13.422,-49.665,23.485,
50063740,-0.655,0.378,0.691,6.055,-56.175,15.05,
50063750,-0.208,0.26,0.655,0.63,-43.26,11.147,
50063760,-0.525,0.319,0.686,4.882,-18.41,17.797,
50063770,-0.797,0.276,0.648,-1.26,-15.172,21.49,
50063780,-0.715,0.246,0.642,6.947,-27.457,24.587,
50063790,-0.568,0.256,0.631,15.242,-42.14,34.16,
50063800,-0.514,0.312,0.676,21.682,-44.362,43.995,
50063810,-0.535,0.385,0.749,20.212,-38.552,44.45,
50063820,-0.51,0.399,0.792,11.13,-31.517,38.342,
50063830,-0.495,0.394,0.82,4.777,-22.75,35.262,
50063840,-0.56,0.391,0.839,-0.945,-17.605,34.702,
50063850,-0.568,0.383,0.839,-5.075,-14.56,31.885,
50063860,-0.612,0.378,0.829,-6.23,-13.842,27.51,
50063870,-0.6,0.367,0.797,-6.737,-16.765,21.245,
50063880,-0.509,0.366,0.771,-3.955,-16.065,15.925,
50063890,-0.475,0.345,0.731,-1.207,-12.18,11.62,
50063900,-0.466,0.346,0.713,0.805,-7.21,7.402,
50063910,-0.418,0.373,0.709,2.012,-3.045,5.11,
50063920,-0.39,0.391,0.71,1.592,3.64,3.132,
50063920,-0.458,0.393,0.698,-0.997,8.82,-0.262,
50063940,-0.541,0.337,0.709,-4.707,4.707,0.07,
50063940,-0.486,0.324,0.737,1.732,3.657,5.967,
50063960,-0.571,0.43,0.811,7.35,2.397,8.592,
50063960,-0.534,0.421,0.806,1.33,2.31,4.095,
50063980,-0.512,0.389,0.811,-0.455,4.462,0.035,
50063980,-0.523,0.406,0.79,-3.64,5.407,-2.625,
50064000,-0.455,0.36,0.758,-6.002,6.335,-4.83,
50064000,-0.508,0.376,0.76,-2.957,9.887,-5.915,
50064010,-0.597,0.394,0.752,-4.445,5.46,-6.685,
50064020,-0.609,0.392,0.769,-2.835,-3.657,-6.58,
50064030,-0.635,0.413,0.792,-1.995,-15.662,-4.077,
50064040,-0.565,0.434,0.813,-3.815,-23.922,-3.675,
50064050,-0.536,0.431,0.808,-7.21,-23.17,-3.972,
50064060,-0.505,0.358,0.808,-14.052,-21.07,-4.252,
50064070,-0.404,0.368,0.816,-10.92,-9.415,-2.765,
50064080,-0.501,0.417,0.823,-13.562,-3.115,-1.155,
50064090,-0.457,0.35,0.761,-19.127,1.382,-3.255,
50064100,-0.476,0.324,0.736,-17.01,3.745,-2.117,
50064110,-0.522,0.322,0.707,-16.922,2.922,0.577,
50064120,-0.548,0.327,0.713,-14.105,2.03,1.47,
50064130,-0.565,0.311,0.722,-13.177,-0.035,1.715,
50064140,-0.581,0.313,0.741,-11.795,-2.24,2.187,
50064150,-0.6,0.314,0.758,-9.747,-5.565,3.815,
50064160,-0.592,0.318,0.773,-8.382,-8.435,3.762,
50064170,-0.594,0.327,0.787,-6.597,-11.847,2.45,
50064180,-0.568,0.334,0.785,-5.25,-15.015,1.802,
50064190,-0.521,0.359,0.787,-3.64,-16.17,0.787,
50064200,-0.515,0.354,0.769,-4.76,-14.56,-0.805,
50064210,-0.528,0.325,0.75,-5.617,-14.07,-2.257,
50064220,-0.543,0.309,0.756,-3.517,-15.312,-0.647,
50064230,-0.541,0.312,0.772,-1.505,-18.41,1.925,
50064240,-0.523,0.326,0.799,0.105,-19.145,2.94,
50064250,-0.502,0.333,0.812,0.577,-18.935,2.905,
50064260,-0.475,0.358,0.814,0.14,-17.097,1.732,
50064260,-0.439,0.365,0.798,-1.837,-14.105,-1.417,
50064280,-0.497,0.377,0.776,-5.495,-12.565,-5.32,
50064280,-0.301,0.272,0.695,-7.875,-9.712,-8.54,
50064300,-0.467,0.355,0.767,-0.647,1.067,-10.412,
50064300,-0.552,0.335,0.726,-6.755,0.962,-10.99,
50064320,-0.519,0.306,0.746,-0.42,-0.77,-12.32,
50064320,-0.507,0.31,0.732,1.715,-5.092,-11.725,
50064330,-0.485,0.306,0.767,4.077,-4.112,-12.407,
50064340,-0.596,0.324,0.783,6.3,-6.16,-8.662,
50064350,-0.58,0.3,0.788,8.435,-10.92,-4.497,
50064360,-0.551,0.276,0.795,11.672,-14.717,-2.607,
50064370,-0.544,0.269,0.779,14.84,-17.57,-0.665,
50064380,-0.508,0.274,0.773,20.755,-21.49,2.275,
50064390,-0.452,0.277,0.772,25.182,-23.66,4.06,
50064400,-0.422,0.281,0.782,27.702,-21.857,3.307,
50064410,-0.427,0.272,0.781,30.135,-18.025,1.207,
50064420,-0.401,0.28,0.788,33.792,-14.647,-2.52,
50064430,-0.375,0.295,0.786,38.57,-10.132,-4.62,
50064440,-0.41,0.343,0.792,43.295,-3.482,-5.897,
50064450,-0.479,0.402,0.838,44.537,2.012,-7.437,
50064460,-0.517,0.475,0.91,43.715,3.43,-8.785,
50064470,-0.495,0.557,1.005,35.612,4.322,-10.692,
50064480,-0.53,0.583,1.039,19.915,4.2,-13.93,
50064490,-0.487,0.527,1.021,3.097,-0.49,-20.317,
50064500,-0.346,0.494,1.022,-7.175,9.362,-19.285,
50064510,-0.533,0.434,1.023,-12.092,4.952,-12.285,
50064520,-0.369,0.327,1.006,-16.957,5.932,-3.01,
50064530,-0.312,0.407,1.01,-7.49,27.755,2.292,
50064540,-0.437,0.518,1.077,-5.267,52.465,2.362,
50064550,-0.54,0.403,1.011,-9.922,63.577,-1.785,
50064560,-0.369,0.413,1.085,-0.157,82.302,-13.387,
50064570,-0.52,0.523,1.131,3.447,96.687,-14.805,
50064580,-0.738,0.503,1.084,-3.482,97.142,-14.98,
50064590,-0.821,0.433,1.02,-3.5,79.8,-24.692,
50064600,-0.815,0.42,0.918,2.047,48.422,-34.195,
50064610,-0.749,0.462,0.835,11.917,14.455,-41.632,
50064620,-0.681,0.512,0.758,20.265,-17.237,-51.117,
50064630,-0.597,0.549,0.681,25.392,-46.13,-61.862,
50064640,-0.512,0.572,0.598,27.667,-69.737,-68.355,
50064650,-0.453,0.576,0.52,28.07,-85.33,-72.695,
50064660,-0.434,0.572,0.44,27.072,-91.682,-78.102,
50064670,-0.384,0.561,0.378,25.777,-92.855,-86.275,
50064670,-0.323,0.564,0.335,29.277,-90.142,-92.75,
50064690,-0.286,0.591,0.321,34.667,-86.222,-94.08,
50064690,-0.288,0.619,0.337,37.135,-80.692,-92.207,
50064710,-0.324,0.627,0.359,35.332,-76.79,-88.847,
50064710,-0.374,0.638,0.404,27.125,-76.335,-86.012,
50064730,-0.428,0.641,0.449,10.92,-80.22,-84.385,
50064730,-0.47,0.599,0.466,-12.04,-86.327,-84.822,
50064740,-0.479,0.544,0.488,-37.082,-93.135,-90.317,
50064750,-0.482,0.476,0.504,-63.437,-98.507,-96.39,
50064760,-0.467,0.407,0.513,-88.462,-100.537,-102.48,
50064770,-0.437,0.327,0.546,-105.542,-100.152,-107.572,
50064780,-0.429,0.239,0.564,-116.62,-98.437,-104.912,
50064790,-0.428,0.16,0.601,-119.997,-96.302,-95.795,
50064800,-0.419,0.113,0.672,-118.107,-92.767,-86.45,
50064810,-0.414,0.071,0.745,-115.342,-86.992,-77.962,
50064820,-0.435,0.047,0.834,-114.607,-78.802,-69.685,
50064830,-0.439,0.044,0.912,-118.09,-70.717,-65.292,
50064840,-0.428,0.015,0.95,-125.86,-62.107,-62.37,
50064850,-0.443,-0.043,0.959,-134.855,-53.83,-58.905,
50064860,-0.437,-0.07,0.979,-143.43,-44.887,-59.185,
50064870,-0.451,-0.114,0.968,-154.315,-36.067,-56.612,
50064880,-0.45,-0.215,0.914,-159.932,-28.122,-48.195,
50064890,-0.46,-0.333,0.849,-149.625,-22.032,-35.175,
50064900,-0.474,-0.393,0.834,-124.81,-17.657,-21.665,
50064910,-0.527,-0.4,0.85,-98.927,-14.805,-12.11,
50064920,-0.589,-0.384,0.879,-77.892,-14.35,-9.45,
50064930,-0.593,-0.358,0.9,-61.757,-17.815,-12.565,
50064940,-0.558,-0.312,0.915,-53.27,-21.752,-16.677,
50064950,-0.545,-0.279,0.918,-50.61,-25.48,-20.195,
50064960,-0.531,-0.266,0.914,-49.77,-28.332,-22.802,
50064970,-0.501,-0.273,0.897,-49.77,-31.237,-23.152,
50064980,-0.488,-0.289,0.868,-51.695,-35.227,-19.705,
50064990,-0.489,-0.326,0.83,-49.175,-39.55,-15.82,
50065000,-0.497,-0.345,0.803,-35.56,-42.542,-13.982,
50065010,-0.482,-0.308,0.835,-16.957,-51.66,-13.37,
50065010,-0.404,-0.254,0.851,-8.4,-61.25,-10.465,
50065030,-0.332,-0.22,0.865,-4.497,-66.115,-5.355,
50065030,-0.324,-0.223,0.877,-7.42,-68.075,-0.665,
50065050,-0.33,-0.27,0.889,-9.1,-71.015,0.402,
50065050,-0.301,-0.311,0.894,-4.025,-74.935,-2.117,
50065070,-0.198,-0.317,0.915,8.715,-80.045,-5.985,
50065070,-0.09,-0.23,0.959,21.157,-79.415,-8.137,
50065080,-0.099,-0.13,0.995,29.102,-74.795,-6.107,
50065090,-0.084,-0.078,1.038,23.292,-68.127,-4.515,
50065100,-0.01,-0.154,1.039,5.215,-59.307,-2.59,
50065110,0.063,-0.282,1.013,-8.417,-43.802,0.35,
50065120,0.029,-0.308,1.026,-7.665,-23.537,5.232,
50065130,-0.048,-0.307,1.103,-0.577,-4.095,10.377,
50065140,-0.088,-0.352,1.104,4.235,9.17,13.51,
50065150,-0.054,-0.327,1.108,5.582,22.557,15.172,
50065160,-0.189,-0.317,1.111,2.922,30.275,22.627,
50065170,-0.267,-0.384,1.049,-0.122,31.097,26.005,
50065180,-0.171,-0.425,0.987,3.202,33.67,23.45,
50065190,-0.096,-0.451,0.979,9.467,41.457,27.09,
50065200,-0.132,-0.439,0.977,17.097,58.205,35.07,
50065210,-0.182,-0.375,1.006,26.512,78.435,39.935,
50065220,-0.217,-0.325,1.017,28.542,98,45.307,
50065230,-0.263,-0.306,0.983,22.715,117.355,51.625,
50065240,-0.316,-0.307,0.943,14.84,137.147,56.84,
50065250,-0.394,-0.317,0.898,9.17,154.122,62.72,
50065260,-0.44,-0.306,0.866,8.015,168.245,69.982,
50065270,-0.481,-0.262,0.843,6.387,179.357,79.8,
50065280,-0.561,-0.209,0.823,0.63,188.527,91.21,
50065290,-0.645,-0.165,0.797,-8.732,194.635,99.05,
50065300,-0.699,-0.143,0.752,-20.23,198.922,102.865,
50065310,-0.776,-0.151,0.698,-31.097,198.012,105.612,
50065320,-0.837,-0.152,0.648,-40.32,191.817,105.472,
50065330,-0.883,-0.177,0.612,-40.18,177.38,105.892,
50065340,-0.885,-0.157,0.614,-33.075,159.6,109.585,
50065350,-0.865,-0.088,0.622,-28.91,142.292,109.847,
50065360,-0.853,-0.037,0.618,-32.322,128.31,106.767,
50065370,-0.837,-0.033,0.592,-36.96,116.427,103.477,
50065380,-0.82,-0.023,0.568,-37.992,106.505,101.622,
50065390,-0.814,-0.001,0.574,-37.747,96.967,100.24,
50065400,-0.8,0.023,0.558,-39.532,88.077,95.795,
50065410,-0.736,0.054,0.551,-38.57,83.667,92.347,
50065410,-0.756,0.051,0.546,-37.8,81.042,93.222,
50065420,-0.816,0.036,0.55,-35.752,74.83,89.775,
50065430,-0.817,0.042,0.562,-33.687,65.992,84.367,
50065440,-0.822,0.041,0.56,-29.942,55.195,79.765,
50065450,-0.857,0.028,0.573,-20.93,42.315,74.112,
50065460,-0.846,0.046,0.582,-14.542,27.055,62.142,
50065470,-0.824,0.033,0.571,-11.34,13.072,52.36,
50065480,-0.827,-0.009,0.557,-3.43,-1.312,47.092,
50065490,-0.796,0.01,0.581,9.17,-13.422,42.07,
50065500,-0.759,0.061,0.623,20.615,-22.435,38.307,
50065510,-0.754,0.102,0.66,24.99,-28.105,32.322,
50065520,-0.784,0.074,0.657,23.59,-33.11,26.705,
50065530,-0.791,0.024,0.645,27.037,-40.32,19.11,
50065540,-0.776,0.014,0.655,38.43,-51.012,14.245,
50065550,-0.794,0.012,0.658,51.817,-65.467,16.607,
50065560,-0.775,0.035,0.664,66.412,-80.465,18.742,
50065570,-0.652,0.109,0.696,77.98,-89.565,19.932,
50065580,-0.516,0.193,0.731,80.465,-86.922,23.992,
50065590,-0.443,0.235,0.745,72.117,-71.89,30.817,
50065600,-0.432,0.254,0.756,59.902,-48.492,35.49,
50065610,-0.475,0.234,0.737,45.202,-24.622,40.512,
50065620,-0.52,0.196,0.716,34.807,-4.357,44.327,
50065630,-0.609,0.152,0.696,29.417,9.152,48.055,
50065640,-0.71,0.153,0.718,30.345,12.11,46.112,
50065650,-0.756,0.167,0.707,32.865,3.885,43.872,
50065660,-0.758,0.186,0.703,37.292,-8.855,40.722,
50065670,-0.767,0.182,0.685,39.48,-25.445,38.675,
50065680,-0.767,0.181,0.675,42.857,-42.402,34.317,
50065690,-0.78,0.173,0.656,46.69,-61.425,33.39,
50065700,-0.806,0.168,0.657,53.27,-84,34.597,
50065710,-0.806,0.193,0.648,60.76,-110.477,36.277,
50065720,-0.703,0.239,0.658,68.285,-134.312,36.312,
50065730,-0.578,0.289,0.66,70.682,-150.5,37.677,
50065740,-0.451,0.319,0.675,68.81,-152.932,36.032,
50065750,-0.344,0.318,0.688,62.457,-143.99,35.962,
50065760,-0.285,0.305,0.724,57.19,-121.17,38.202,
50065760,-0.322,0.314,0.774,50.767,-96.425,38.43,
50065780,-0.315,0.311,0.803,42.28,-70.892,35.892,
50065780,-0.378,0.304,0.854,36.242,-50.137,30.38,
50065800,-0.523,0.217,0.893,31.132,-46.322,22.242,
50065800,-0.408,0.184,0.882,35.857,-58.222,6.51,
50065820,-0.291,0.271,0.898,45.465,-67.392,-5.127,
50065820,-0.246,0.321,0.891,44.607,-64.26,-13.545,
50065830,-0.218,0.314,0.838,35.98,-42.822,-23.38,
50065840,-0.282,0.326,0.811,24.692,-18.707,-36.837,
50065850,-0.347,0.325,0.801,9.432,1.47,-50.085,
50065860,-0.407,0.301,0.767,-4.567,12.775,-59.762,
50065870,-0.459,0.327,0.778,-15.767,20.807,-68.985,
50065880,-0.516,0.347,0.762,-26.932,19.46,-80.202,
50065890,-0.546,0.35,0.733,-34.72,10.832,-88.27,
50065900,-0.582,0.27,0.677,-39.27,-2.73,-90.842,
50065910,-0.553,0.221,0.646,-36.452,-14.122,-91.367,
50065920,-0.552,0.231,0.675,-26.74,-23.205,-93.275,
50065930,-0.532,0.278,0.701,-19.81,-29.067,-96.285,
50065940,-0.497,0.325,0.73,-15.505,-31.36,-97.965,
50065950,-0.443,0.381,0.763,-19.215,-30.572,-98.402,
50065960,-0.454,0.392,0.792,-28.192,-25.427,-95.095,
50065970,-0.445,0.399,0.803,-42.367,-18.095,-91.98,
50065980,-0.361,0.388,0.805,-56.017,-7.577,-84.7,
50065990,-0.383,0.347,0.815,-67.077,7.35,-67.882,
50066000,-0.454,0.28,0.829,-74.812,24.377,-48.685,
50066010,-0.454,0.206,0.82,-75.32,42.665,-31.692,
50066020,-0.532,0.203,0.818,-72.222,60.48,-21.157,
50066030,-0.683,0.199,0.83,-73.85,67.532,-18.13,
50066040,-0.716,0.148,0.827,-75.39,66.447,-16.485,
50066050,-0.679,0.099,0.807,-72.94,61.075,-13.632,
50066060,-0.673,0.093,0.807,-65.765,55.965,-10.237,
50066070,-0.688,0.088,0.804,-57.977,50.837,-6.86,
50066080,-0.696,0.05,0.782,-50.155,46.812,-1.942,
50066080,-0.703,0.025,0.781,-39.322,42.577,2.87,
50066100,-0.722,0.049,0.796,-27.737,37.642,6.352,
50066100,-0.727,0.083,0.814,-19.145,30.03,8.662,
50066120,-0.712,0.096,0.797,-14.437,21.595,10.552,
50066120,-0.686,0.09,0.781,-11.042,14.07,13.335,
50066140,-0.637,0.086,0.761,-11.882,10.71,13.807,
50066140,-0.615,0.059,0.742,-12.792,11.252,11.235,
50066160,-0.621,0.03,0.725,-9.905,13.755,8.505,
50066160,-0.619,0.04,0.731,-3.815,16.59,6.65,
50066170,-0.624,0.072,0.747,1.592,19.6,6.23,
50066180,-0.656,0.076,0.757,3.92,20.702,5.512,
50066190,-0.663,0.063,0.75,5.88,19.652,3.902,
50066200,-0.645,0.045,0.742,8.33,17.937,4.637,
50066210,-0.643,0.012,0.742,10.605,17.517,7.752,
50066220,-0.6,0.012,0.754,15.435,18.48,9.52,
50066230,-0.6,0.05,0.769,19.267,26.232,15.032,
50066240,-0.705,0.078,0.79,18.165,31.92,19.652,
50066250,-0.806,0.038,0.787,16.905,31.097,26.915,
50066260,-0.79,0.074,0.789,17.605,22.75,27.58,
50066270,-0.767,0.081,0.781,15.452,13.72,24.657,
50066280,-0.722,0.056,0.778,15.522,7.245,23.8,
50066290,-0.719,0.065,0.773,17.78,4.235,21.962,
50066300,-0.734,0.101,0.764,19.425,2.572,18.97,
50066310,-0.722,0.128,0.749,19.67,0.21,14.315,
50066320,-0.691,0.14,0.737,20.055,-1.837,11.392,
50066330,-0.651,0.154,0.735,19.88,-1.312,11.987,
50066340,-0.638,0.172,0.738,17.08,2.695,13.142,
50066350,-0.658,0.171,0.734,12.792,6.772,12.74,
50066360,-0.649,0.154,0.737,8.47,12.18,12.407,
50066370,-0.698,0.137,0.719,5.075,13.405,11.987,
50066380,-0.665,0.145,0.716,5.11,13.562,8.645,
50066390,-0.654,0.143,0.708,4.672,13.912,7.91,
50066400,-0.675,0.139,0.699,5.25,14.017,8.75,
50066410,-0.695,0.126,0.698,7.052,13.282,11.865,
50066420,-0.703,0.134,0.697,9.187,10.675,14.542,
50066430,-0.702,0.147,0.699,9.922,8.015,15.032,
50066440,-0.705,0.151,0.697,9.467,6.79,16.38,
50066450,-0.712,0.155,0.697,9.327,5.127,17.08,
50066460,-0.695,0.165,0.7,8.89,4.41,17.027,
50066470,-0.692,0.177,0.702,7.91,4.077,16.275,
50066480,-0.682,0.184,0.698,6.317,4.97,15.82,
50066490,-0.676,0.181,0.691,5.46,6.195,16.607,
50066500,-0.684,0.177,0.686,5.25,7.577,18.025,
50066510,-0.69,0.177,0.689,5.145,8.295,18.777,
50066510,-0.697,0.179,0.692,4.777,8.907,18.952,
50066530,-0.722,0.178,0.699,3.78,8.505,18.55,
50066530,-0.741,0.18,0.711,1.802,7.525,17.517,
50066550,-0.758,0.177,0.717,-1.137,5.442,15.05,
50066550,-0.728,0.174,0.721,-4.077,5.355,11.147,
50066570,-0.7,0.177,0.722,-6.492,7.385,8.592,
50066570,-0.681,0.193,0.727,-8.19,10.15,8.907,
50066580,-0.607,0.231,0.742,-11.305,15.19,12.425,
50066590,-0.615,0.262,0.733,-18.935,24.797,19.46,
50066600,-0.658,0.303,0.689,-31.325,36.575,23.03,
50066610,-0.971,0.254,0.622,-43.19,26.232,19.88,
50066620,-0.761,0.099,0.6,-56.595,4.095,12.775,
50066630,-0.572,-0.045,0.559,-57.61,9.607,15.312,
50066640,-0.717,0.019,0.635,-34.475,21.472,11.585,
50066650,-0.883,0.113,0.732,-15.96,20.807,9.135,
50066660,-0.892,0.1,0.739,-9.957,9.117,5.705,
50066670,-0.85,0.104,0.744,-2.012,-2.432,1.592,
50066680,-0.824,0.161,0.743,4.34,-11.025,-1.47,
50066690,-0.891,0.306,0.659,2.887,-21.717,-6.527,
50066700,-0.753,0.228,0.627,-7.98,-33.617,-14,
50066710,-0.537,0.038,0.613,-5.005,-30.992,-15.172,
50066720,-0.621,0.129,0.656,14.822,-19.39,-9.957,
50066730,-0.696,0.226,0.7,18.41,-8.05,-7.7,
50066740,-0.848,0.196,0.725,6.842,-1.627,-12.827,
50066750,-0.802,0.118,0.718,7.367,-5.092,-16.012,
50066760,-0.698,0.13,0.707,11.917,-10.132,-13.877,
50066770,-0.676,0.166,0.708,14.945,-10.727,-8.05,
50066780,-0.713,0.185,0.689,13.632,-9.152,-3.237,
50066790,-0.677,0.173,0.668,13.685,-9.66,-0.262,
50066800,-0.641,0.182,0.663,13.142,-9.66,0.472,
50066810,-0.609,0.191,0.667,11.287,-8.347,0.42,
50066820,-0.579,0.217,0.689,8.207,-2.467,0.402,
50066830,-0.622,0.215,0.71,1.872,4.585,1.19,
50066830,-0.704,0.179,0.704,-5.145,9.8,1.96,
50066850,-0.677,0.133,0.707,-7.367,11.515,1.067,
50066850,-0.711,0.114,0.696,-7.157,13.58,4.83,
50066870,-0.827,0.094,0.688,-2.03,8.137,11.515,
50066870,-0.77,0.162,0.692,0.455,1.277,8.487,
50066890,-0.722,0.152,0.665,-0.787,-3.465,7.945,
50066890,-0.727,0.14,0.679,-0.28,-3.395,9.695,
50066910,-0.774,0.135,0.651,-0.402,-6.387,9.94,
50066910,-0.739,0.141,0.662,2.415,-8.05,6.825,
50066920,-0.755,0.143,0.666,3.92,-9.677,5.425,
50066930,-0.76,0.15,0.672,6.842,-10.955,4.112,
50066940,-0.752,0.154,0.68,9.992,-13.247,4.392,
50066950,-0.743,0.153,0.67,11.847,-14.927,6.107,
50066960,-0.729,0.161,0.662,13.58,-16.502,6.807,
50066970,-0.719,0.17,0.665,15.295,-18.585,7.665,
50066980,-0.72,0.16,0.671,17.045,-20.387,8.68,
50066990,-0.733,0.155,0.663,18.865,-22.26,6.982,
50067000,-0.699,0.183,0.678,21.577,-24.22,4.62,
50067010,-0.708,0.183,0.682,22.33,-25.865,6.055,
50067020,-0.714,0.173,0.692,22.767,-27.247,5.967,
50067030,-0.674,0.206,0.701,22.61,-27.545,3.727,
50067040,-0.658,0.22,0.723,21.735,-26.67,4.322,
50067050,-0.679,0.202,0.732,20.387,-25.2,5.827,
50067060,-0.685,0.188,0.725,19.81,-23.975,6.667,
50067070,-0.662,0.188,0.725,21.56,-24.097,8.925,
50067080,-0.688,0.196,0.707,22.732,-25.357,12.302,
50067090,-0.665,0.24,0.694,22.26,-27.265,13.422,
50067100,-0.627,0.272,0.691,19.582,-24.85,13.825,
50067110,-0.645,0.271,0.708,12.6,-22.312,12.25,
50067120,-0.566,0.306,0.745,8.225,-18.76,7.192,
50067130,-0.573,0.297,0.751,0.787,-11.55,5.022,
50067140,-0.596,0.238,0.745,-6.23,-1.102,0.227,
50067150,-0.602,0.226,0.744,-5.565,4.042,-2.327,
50067160,-0.695,0.226,0.726,-3.202,3.447,1.312,
50067170,-0.705,0.232,0.71,-1.435,0.472,1.487,
50067180,-0.678,0.237,0.689,-0.787,-1.435,0.91,
50067190,-0.695,0.219,0.694,-1.592,-1.82,2.397,
50067200,-0.712,0.203,0.684,-1.505,-4.077,3.22,
50067210,-0.638,0.215,0.704,1.837,-6.702,2.695,
50067220,-0.654,0.22,0.705,2.887,-6.982,3.412,
50067230,-0.669,0.218,0.713,3.85,-5.722,2.152,
50067240,-0.684,0.233,0.702,5.022,-6.51,0.507,
50067250,-0.592,0.263,0.721,6.317,-7.647,-1.452,
50067260,-0.593,0.265,0.732,4.112,-3.465,-1.54,
50067260,-0.641,0.25,0.737,0.682,1.242,-2.765,
50067280,-0.673,0.222,0.725,-1.96,4.182,-2.572,
50067280,-0.695,0.201,0.716,-1.802,3.71,-0.682,
50067300,-0.696,0.205,0.709,-0.245,1.802,0.805,
50067300,-0.688,0.209,0.702,1.47,-0.647,2.992,
50067320,-0.689,0.206,0.696,2.362,-2.59,5.425,
50067320,-0.665,0.209,0.699,3.517,-5.372,6.247,
50067330,-0.646,0.237,0.711,3.85,-7.157,6.562,
50067340,-0.656,0.242,0.72,2.24,-7.472,6.405,
50067350,-0.653,0.23,0.721,1.312,-6.37,5.722,
50067360,-0.645,0.237,0.716,1.505,-5.722,5.11,
50067370,-0.644,0.251,0.715,1.487,-4.567,4.76,
50067380,-0.648,0.252,0.711,0.612,-3.027,3.71,
50067390,-0.619,0.23,0.738,-0.192,-0.35,3.71,
50067400,-0.8,0.216,0.677,-0.91,-2.345,7.21,
50067410,-0.59,0.244,0.699,3.342,-8.085,3.955,
50067420,-0.614,0.282,0.703,1.715,-5.127,4.077,
50067430,-0.689,0.237,0.71,-2.782,-3.29,2.695,
50067440,-0.65,0.258,0.722,-3.132,-2.257,2.012,
50067450,-0.664,0.255,0.715,-5.057,-3.465,4.567,
50067460,-0.653,0.239,0.721,-5.215,-2.852,3.815,
50067470,-0.66,0.215,0.717,-4.375,-2.817,3.622,
50067480,-0.684,0.21,0.717,-2.082,-3.885,4.707,
50067490,-0.682,0.219,0.708,0.297,-6.737,4.865,
50067500,-0.662,0.229,0.709,1.242,-7.595,4.322,
50067510,-0.656,0.232,0.715,0.927,-7.367,3.832,
50067520,-0.657,0.23,0.716,0.402,-7.07,3.395,
50067530,-0.64,0.237,0.717,0.997,-7.28,2.957,
50067540,-0.628,0.244,0.717,1.382,-6.16,2.957,
50067550,-0.63,0.247,0.719,1.067,-4.812,2.537,
50067560,-0.638,0.242,0.718,0.297,-2.782,2.345,
50067570,-0.641,0.237,0.714,0.105,-1.557,2.432,
50067580,-0.645,0.24,0.715,-0.105,-0.245,2.695,
50067580,-0.664,0.231,0.709,-0.472,-0.122,3.167,
50067600,-0.674,0.224,0.708,0.017,-1.155,3.5,
50067600,-0.669,0.235,0.712,1.347,-3.307,3.745,
50067620,-0.668,0.243,0.715,2.17,-4.497,4.27,
50067620,-0.666,0.244,0.713,2.467,-5.985,4.69,
50067640,-0.662,0.245,0.712,2.66,-7.07,5.81,
50067640,-0.658,0.245,0.709,2.59,-8.19,6.492,
50067660,-0.639,0.257,0.708,2.975,-8.487,5.95,
50067660,-0.634,0.268,0.718,2.94,-7.997,4.952,
50067670,-0.642,0.262,0.721,1.995,-6.702,3.815,
50067680,-0.658,0.255,0.722,1.522,-5.95,2.8,
50067690,-0.66,0.251,0.717,1.172,-6.72,2.275,
50067700,-0.644,0.252,0.721,1.172,-7.017,1.732,
50067710,-0.655,0.241,0.717,0.56,-6.877,1.225,
50067720,-0.65,0.238,0.717,0.367,-7.472,0.402,
50067730,-0.651,0.245,0.721,0.262,-8.417,0.105,
50067740,-0.642,0.25,0.73,-0.542,-8.137,-0.542,
50067750,-0.639,0.226,0.721,-1.312,-7.91,-0.857,
50067760,-0.633,0.223,0.721,0.42,-7.297,-0.017,
50067770,-0.657,0.236,0.72,2.135,-8.067,1.592,
50067780,-0.65,0.244,0.719,3.132,-8.89,2.047,
50067790,-0.65,0.243,0.72,3.307,-10.027,2.642,
50067800,-0.644,0.248,0.722,3.325,-10.692,3.325,
50067810,-0.647,0.253,0.726,3.027,-11.147,4.182,
50067820,-0.657,0.249,0.72,2.607,-11.602,4.392,
50067830,-0.62,0.264,0.724,2.94,-12.022,3.5,
50067840,-0.628,0.261,0.728,1.802,-10.622,4.322,
50067850,-0.636,0.257,0.731,0.927,-9.835,4.567,
50067860,-0.625,0.266,0.733,0.927,-9.152,4.707,
50067870,-0.628,0.266,0.735,0.945,-8.855,5.39,
50067880,-0.63,0.263,0.73,0.857,-8.015,5.337,
50067890,-0.611,0.265,0.724,1.225,-8.015,4.41,
50067900,-0.6,0.271,0.723,1.155,-7,3.78,
50067910,-0.607,0.27,0.729,0.665,-5.792,2.922,
50067920,-0.617,0.266,0.733,-0.315,-4.182,1.785,
50067930,-0.612,0.269,0.736,-0.875,-3.255,0.682,
50067940,-0.612,0.271,0.738,-1.172,-1.47,0.017,
50067950,-0.621,0.268,0.736,-1.33,-0.402,-0.682,
50067960,-0.63,0.258,0.731,-1.47,0.507,-0.945,
50067970,-0.644,0.25,0.729,-0.892,0.017,-0.735,
50067980,-0.644,0.252,0.727,-0.087,-0.63,-0.455,
50067990,-0.638,0.253,0.726,0.245,-1.767,-0.35,
50068000,-0.631,0.25,0.728,0.052,-2.45,-0.35,
50068010,-0.616,0.254,0.732,-0.28,-2.817,-0.14,
50068010,-0.61,0.26,0.731,-0.77,-2.082,0.035,
50068030,-0.608,0.266,0.731,-1.47,-1.435,-0.612,
50068030,-0.615,0.271,0.734,-2.222,0.892,-1.137,
50068050,-0.653,0.26,0.729,-3.482,1.907,-1.33,
50068050,-0.662,0.249,0.725,-3.342,1.627,-1.575,
50068070,-0.665,0.243,0.722,-2.485,-0.14,-0.77,
50068070,-0.653,0.241,0.718,-1.347,-2.222,-0.175,
50068080,-0.634,0.246,0.716,-0.455,-3.517,0.402,
50068090,-0.63,0.247,0.716,-0.455,-3.937,1.155,
50068100,-0.631,0.247,0.723,-0.84,-3.815,1.627,
50068110,-0.642,0.243,0.729,-1.627,-3.99,2.432,
50068120,-0.648,0.243,0.739,-1.68,-4.55,3.657,
50068130,-0.66,0.243,0.741,-0.875,-5.197,5.267,
50068140,-0.631,0.258,0.743,-0.052,-6.195,5.302,
50068150,-0.624,0.256,0.739,-0.21,-5.285,5.302,
50068160,-0.647,0.241,0.729,-0.245,-5.04,5.25,
50068170,-0.627,0.249,0.716,0.98,-6.125,3.955,
50068180,-0.611,0.265,0.711,2.485,-6.737,2.642,
50068190,-0.593,0.282,0.722,3.15,-6.265,0.822,
50068200,-0.604,0.283,0.732,3.185,-4.952,-0.14,
50068210,-0.596,0.299,0.744,3.657,-3.692,-1.19,
50068220,-0.591,0.302,0.75,2.835,-0.367,-1.645,
50068230,-0.631,0.267,0.743,1.452,2.52,-1.505,
50068240,-0.645,0.255,0.737,1.172,3.15,-1.487,
50068250,-0.656,0.26,0.729,1.19,1.82,0.577,
50068260,-0.678,0.238,0.712,0,-0.577,3.01,
50068270,-0.68,0.214,0.696,1.505,-4.567,6.107,
50068280,-0.721,0.22,0.698,5.565,-11.147,12.232,
50068290,-0.708,0.242,0.699,9.502,-19.582,15.89,
50068300,-0.651,0.268,0.707,12.197,-24.745,15.557,
50068310,-0.594,0.305,0.733,11.882,-26.127,13.842,
50068320,-0.546,0.338,0.768,8.452,-21.455,11.48,
50068330,-0.516,0.348,0.786,1.61,-13.527,7.665,
50068330,-0.5,0.337,0.781,-6.072,-3.045,3.815,
50068350,-0.515,0.316,0.765,-11.06,5.967,0.752,
50068350,-0.558,0.294,0.739,-13.58,12.25,0.962,
50068370,-0.646,0.222,0.72,-13.072,13.02,5.915,
50068370,-0.636,0.214,0.685,-11.935,11.445,1.312,
50068390,-0.651,0.214,0.687,-6.825,10.097,-2.66,
50068390,-0.677,0.211,0.692,-2.66,7.472,-2.292,
50068410,-0.658,0.249,0.732,0.105,3.955,-2.73,
50068410,-0.684,0.254,0.752,-0.63,1.137,-1.102,
50068420,-0.683,0.251,0.754,-0.892,-1.75,0.07,
50068430,-0.64,0.262,0.741,-0.42,-3.745,1.032,
50068440,-0.622,0.268,0.725,0.42,-4.427,1.907,
50068450,-0.583,0.291,0.715,0.787,-4.252,0.577,
50068460,-0.568,0.294,0.715,-0.7,-1.995,0.052,
50068470,-0.598,0.279,0.717,-2.59,1.015,-0.192,
50068480,-0.612,0.279,0.736,-3.395,2.695,-0.822,
50068490,-0.635,0.26,0.749,-3.902,2.957,0.052,
50068500,-0.669,0.254,0.749,-3.657,1.61,1.05,
50068510,-0.664,0.254,0.73,-2.59,-1.417,2.38,
50068520,-0.658,0.247,0.713,-1.575,-4.48,4.952,
50068530,-0.664,0.246,0.709,-0.91,-7.962,7.717,
50068540,-0.636,0.254,0.717,-0.035,-10.587,8.61,
50068550,-0.598,0.276,0.732,0.822,-11.69,6.702,
50068560,-0.569,0.293,0.747,0.42,-9.642,4.165,
50068570,-0.557,0.296,0.757,-0.63,-5.25,2.502,
50068580,-0.58,0.295,0.762,-2.887,0.647,0.962,
50068590,-0.616,0.283,0.755,-5.582,4.2,-0.682,
50068600,-0.631,0.262,0.736,-6.387,5.6,-0.945,
50068610,-0.626,0.249,0.718,-5.442,4.865,-0.84,
50068620,-0.617,0.254,0.71,-4.375,4.165,-1.645,
50068630,-0.604,0.259,0.713,-3.867,4.305,-3.202,
50068640,-0.623,0.261,0.704,-4.427,5.215,-5.302,
50068650,-0.604,0.282,0.722,-5.267,5.67,-8.347,
50068660,-0.598,0.281,0.737,-7.052,6.545,-10.062,
50068670,-0.595,0.279,0.759,-8.592,8.487,-12.057,
50068680,-0.617,0.272,0.771,-9.992,11.392,-13.65,
50068690,-0.638,0.266,0.761,-10.412,13.562,-14.77,
50068700,-0.659,0.261,0.746,-10.815,14.42,-14.857,
50068710,-0.675,0.235,0.722,-11.97,12.267,-14.262,
50068720,-0.682,0.211,0.707,-11.742,9.38,-12.932,
50068730,-0.698,0.198,0.697,-9.975,5.197,-9.782,
50068740,-0.711,0.197,0.701,-7.315,1.522,-6.247,
50068750,-0.729,0.186,0.701,-4.97,-3.325,-3.115,
50068760,-0.716,0.193,0.707,-1.995,-7.612,-1.085,
50068760,-0.693,0.215,0.711,0.875,-11.777,0.437,
50068780,-0.664,0.228,0.711,2.205,-14.227,0.98,
50068780,-0.638,0.235,0.713,2.94,-15.295,0.192,
50068790,-0.63,0.245,0.727,2.817,-15.452,-1.207,
50068800,-0.626,0.243,0.748,1.855,-14.98,-3.272,
50068810,-0.635,0.233,0.775,0.91,-13.755,-5.687,
50068820,-0.662,0.226,0.809,0.787,-14.14,-7.367,
50068830,-0.656,0.245,0.821,-0.385,-17.29,-9.905,
50068840,-0.689,0.222,0.85,3.132,-23.03,-11.462,
50068850,-0.684,0.214,0.865,4.287,-31.36,-8.82,
50068860,-0.717,0.183,0.906,6.737,-44.45,-8.75,
50068870,-0.706,0.154,0.915,11.305,-62.527,-9.922,
50068880,-0.696,0.144,0.933,12.6,-79.432,-10.08,
50068890,-0.548,0.063,0.978,16.555,-90.405,-13.475,
50068900,-0.431,0.175,1.023,14.927,-84.542,-21.472,
50068910,-0.508,0.159,1.04,3.902,-73.097,-23.94,
50068920,-0.425,0.072,0.99,3.08,-58.38,-31.745,
50068930,-0.366,0.034,0.96,9.257,-41.93,-35.542,
50068940,-0.409,0.032,0.934,15.085,-24.29,-34.982,
50068950,-0.408,0.057,0.914,19.775,-9.24,-37.187,
50068960,-0.432,0.054,0.905,23.432,1.715,-34.93,
50068970,-0.487,0.051,0.882,26.635,5.652,-33.04,
50068980,-0.526,0.068,0.865,34.755,2.415,-33.617,
50068990,-0.56,0.089,0.869,47.302,-8.662,-34.23,
50069000,-0.55,0.156,0.856,60.62,-24.15,-39.357,
50069010,-0.498,0.225,0.863,72.117,-37.887,-46.165,
50069020,-0.499,0.293,0.862,80.745,-45.15,-55.352,
50069030,-0.509,0.335,0.822,84.175,-52.272,-67.182,
50069040,-0.502,0.362,0.783,83.3,-57.137,-81.13,
50069050,-0.508,0.396,0.737,81.34,-63.91,-96.145,
50069060,-0.501,0.418,0.686,77.962,-73.325,-107.327,
50069070,-0.518,0.443,0.679,74.795,-86.677,-115.045,
50069080,-0.617,0.483,0.676,67.445,-107.397,-123.077,
50069080,-0.712,0.464,0.657,56.35,-136.57,-133.21,
50069100,-0.736,0.427,0.606,42.647,-168.28,-150.097,
50069100,-0.682,0.422,0.591,28.84,-198.975,-173.39,
50069120,-0.561,0.431,0.585,8.137,-217.77,-194.477,
50069120,-0.425,0.44,0.6,-15.75,-220.587,-211.785,
50069140,-0.328,0.436,0.626,-39.847,-206.36,-223.807,
50069140,-0.253,0.366,0.637,-62.562,-180.6,-225.995,
50069160,-0.239,0.279,0.659,-80.237,-150.15,-216.895,
50069160,-0.331,0.199,0.703,-93.905,-123.252,-199.99,
50069170,-0.45,0.122,0.742,-103.687,-106.82,-181.335,
50069180,-0.493,0.061,0.764,-110.32,-100.87,-166.18,
50069190,-0.499,-0.012,0.762,-111.3,-100.047,-152.95,
50069200,-0.484,-0.053,0.789,-104.86,-100.782,-142.24,
50069210,-0.389,-0.053,0.797,-97.842,-100.502,-133.297,
50069220,-0.345,-0.066,0.839,-88.497,-97.947,-122.062,
50069230,-0.319,-0.118,0.857,-77.892,-92.61,-109.13,
50069240,-0.254,-0.122,0.878,-68.145,-83.79,-95.917,
50069250,-0.246,-0.13,0.896,-61.635,-71.89,-80.57,
50069260,-0.235,-0.094,0.917,-59.36,-58.502,-66.22,
50069270,-0.13,-0.119,0.973,-62.58,-44.782,-49.402,
50069280,0.025,-0.216,0.937,-67.9,-11.165,-18.917,
50069290,-0.354,-0.212,1.065,-54.897,24.447,4.952,
50069300,-0.604,-0.317,1.175,-37.73,25.707,13.125,
50069310,-0.686,-0.42,1.107,-27.195,-0.665,15.505,
50069320,-0.441,-0.465,1.13,-10.815,-30.082,17.08,
50069330,-0.005,-0.345,0.982,18.882,-27.807,19.127,
50069340,-0.14,-0.183,1.058,32.62,-9.345,24.605,
50069350,-0.14,-0.08,1.063,31.097,17.5,26.95,
50069360,-0.292,-0.122,1.012,21.402,32.41,30.257,
50069370,-0.293,-0.139,0.996,9.642,39.83,32.515,
50069380,-0.323,-0.194,0.981,4.69,42.945,35.752,
50069390,-0.235,-0.195,0.94,3.692,47.075,38.43,
50069400,-0.144,-0.206,0.907,7.7,62.737,48.807,
50069410,-0.166,-0.203,0.909,9.502,87.01,68.127,
50069420,-0.17,-0.204,0.852,5.757,119.175,93.8,
50069430,-0.517,-0.289,0.936,1.907,144.655,124.407,
50069440,-0.727,-0.372,0.919,5.81,153.685,134.995,
50069450,-0.709,-0.415,0.897,19.372,149.187,142.695,
50069460,-0.734,-0.369,0.896,40.407,145.25,157.027,
50069460,-0.769,-0.252,0.923,56.227,142.205,177.345,
50069480,-0.774,-0.132,0.904,60.55,141.54,196.262,
50069480,-0.776,-0.025,0.881,59.115,143.43,211.102,
50069500,-0.764,0.107,0.844,52.955,147.385,224.7,
50069500,-0.798,0.22,0.824,38.167,151.445,236.74,
50069510,-0.859,0.27,0.811,15.19,149.117,236.582,
50069520,-0.874,0.301,0.708,-8.522,135.572,231.035,
50069530,-0.798,0.299,0.664,-32.672,118.51,230.772,
50069540,-0.732,0.271,0.614,-49.122,107.38,227.64,
50069550,-0.779,0.172,0.609,-51.852,95.287,223.545,
50069560,-0.835,0.116,0.604,-42.577,75.39,209.86,
50069570,-0.776,0.148,0.631,-29.312,45.15,187.04,
50069580,-0.691,0.207,0.673,-14.962,9.52,162.277,
50069590,-0.546,0.294,0.75,-6.317,-23.642,142.03,
50069600,-0.428,0.296,0.757,-3.15,-51.345,133.035,
50069610,-0.322,0.293,0.8,2.38,-69.37,127.102,
50069620,-0.225,0.295,0.827,7.525,-76.842,123.095,
50069630,-0.191,0.294,0.852,11.62,-76.737,118.79,
50069640,-0.203,0.328,0.879,14.157,-70.822,107.852,
50069650,-0.288,0.371,0.911,10.08,-73.202,89.775,
50069660,-0.161,0.365,0.883,3.552,-73.29,68.372,
50069670,-0.084,0.35,0.881,1.977,-68.88,50.12,
50069680,-0.168,0.298,0.845,-3.097,-65.8,39.2,
50069690,-0.125,0.299,0.846,-3.99,-63.367,28.945,
50069700,-0.071,0.27,0.838,-3.08,-55.51,26.18,
50069710,-0.057,0.279,0.84,-2.187,-40.95,21.192,
50069720,-0.076,0.283,0.861,-3.377,-22.015,16.8,
50069730,-0.141,0.281,0.861,-6.86,-4.62,14.385,
50069740,-0.231,0.294,0.884,-11.427,7.367,10.255,
50069750,-0.303,0.278,0.852,-21.665,12.477,6.51,
50069760,-0.33,0.231,0.827,-30.45,14,2.695,
50069770,-0.328,0.085,0.861,-38.692,15.557,3.64,
50069780,-0.347,-0.045,0.833,-35.087,14.7,3.482,
50069790,-0.214,-0.093,0.948,-17.027,18.27,4.567,
50069800,-0.424,0.108,0.87,7.927,24.675,17.255,
50069810,-0.625,0.296,1.103,12.827,19.442,25.637,
50069820,-0.705,0.211,1.022,-5.407,2.1,30.467,
50069830,-0.531,0.163,1.023,-13.23,-15.435,24.465,
50069830,-0.447,0.107,0.927,-19.705,-21.84,32.83,
50069850,-0.457,0.137,0.907,-14,-19.005,38.15,
50069850,-0.508,0.182,0.863,-11.742,-13.877,38.937,
50069870,-0.534,0.228,0.841,-10.605,-14.525,36.837,
50069870,-0.507,0.252,0.832,-12.495,-16.625,34.912,
50069890,-0.517,0.276,0.854,-14.84,-20.44,34.212,
50069890,-0.451,0.296,0.852,-17.01,-23.1,33.757,
50069910,-0.4,0.367,0.86,-18.515,-17.57,36.715,
50069910,-0.464,0.376,0.869,-29.085,-11.48,41.247,
50069920,-0.495,0.324,0.854,-36.172,-8.015,40.197,
50069930,-0.41,0.299,0.91,-33.88,-11.427,35.245,
50069940,-0.55,0.345,0.953,-32.025,-19.845,33.687,
50069950,-0.566,0.217,0.929,-29.05,-40.197,25.165,
50069960,-0.462,0.189,0.902,-13.492,-58.065,7.35,
50069970,-0.394,0.242,0.869,2.135,-72.415,-4.795,
50069980,-0.338,0.314,0.842,10.92,-79.205,-13.825,
50069990,-0.24,0.34,0.816,13.072,-80.22,-22.505,
50070000,-0.08,0.339,0.79,12.635,-70.542,-25.462,
50070010,-0.022,0.324,0.814,11.725,-49.857,-23.362,
50070020,-0.126,0.292,0.829,6.93,-27.965,-22.855,
50070030,-0.194,0.248,0.842,3.587,-12.46,-25.707,
50070040,-0.19,0.242,0.863,4.077,-2.695,-24.36,
50070050,-0.254,0.239,0.872,5.232,0.227,-17.255,
50070060,-0.322,0.268,0.918,4.55,-3.675,-9.852,
50070070,-0.335,0.286,0.94,-0.542,-9.922,-2.135,
50070080,-0.351,0.26,0.931,-6.002,-13.982,6.212,
50070090,-0.352,0.26,0.932,-8.662,-16.415,8.295,
50070100,-0.32,0.274,0.957,-12.81,-17.342,8.785,
50070110,-0.481,0.312,0.859,-17.885,-20.737,9.222,
50070120,-0.387,0.229,0.885,-25.515,-34.282,3.115,
50070130,-0.171,0.133,0.854,-22.505,-31.727,8.645,
50070140,-0.135,0.219,0.924,-4.865,-12.04,17.85,
50070150,-0.33,0.343,1.007,-5.32,1.242,19.04,
50070160,-0.395,0.287,0.969,-16.117,4.83,13.072,
50070170,-0.303,0.218,0.936,-15.697,1.225,7.822,
50070170,-0.277,0.227,0.919,-12.635,-3.237,7.997,
50070190,-0.299,0.246,0.905,-11.2,-6.09,8.557,
50070190,-0.317,0.23,0.86,-9.642,-8.015,8.435,
50070210,-0.296,0.213,0.807,-5.372,-10.43,8.33,
50070210,-0.275,0.219,0.765,-0.945,-12.285,9.975,
50070230,-0.259,0.208,0.765,1.907,-12.932,12.145,
50070230,-0.288,0.195,0.793,5.705,-12.845,13.737,
50070250,-0.309,0.19,0.833,9.66,-14.927,14.21,
50070250,-0.281,0.201,0.888,13.125,-16.66,13.072,
50070260,-0.301,0.237,0.932,14.875,-19.11,12.967,
50070270,-0.319,0.256,0.973,12.32,-25.27,12.985,
50070280,-0.242,0.258,0.974,9.66,-27.615,12.845,
50070290,-0.213,0.28,0.966,10.027,-24.64,14.21,
50070300,-0.215,0.305,0.974,7.962,-18.76,15.487,
50070310,-0.233,0.315,0.963,4.882,-11.025,15.225,
50070320,-0.255,0.319,0.958,2.975,-3.71,14.577,
50070330,-0.271,0.326,0.958,3.307,2.1,14.315,
50070340,-0.313,0.35,0.981,3.657,5.88,15.015,
50070350,-0.357,0.36,0.982,0.665,6.422,15.487,
50070360,-0.348,0.343,0.959,-2.17,5.022,14.052,
50070370,-0.32,0.316,0.937,-4.48,2.047,11.97,
50070380,-0.29,0.314,0.906,-6.142,-0.525,9.152,
50070390,-0.253,0.326,0.905,-7.472,-1.785,5.967,
50070400,-0.224,0.312,0.89,-9.572,-1.61,3.15,
50070410,-0.2,0.299,0.859,-8.82,0.157,1.347,
50070420,-0.182,0.293,0.855,-6.3,6.02,0.91,
50070430,-0.194,0.266,0.848,-4.952,11.55,1.085,
50070440,-0.194,0.241,0.827,-1.4,18.532,2.345,
50070450,-0.177,0.243,0.831,4.445,25.305,3.762,
50070460,-0.197,0.214,0.868,6.965,32.025,3.71,
50070470,-0.275,0.194,0.887,10.78,32.655,3.885,
50070480,-0.313,0.198,0.913,16.275,28.735,9.782,
50070490,-0.334,0.211,0.925,20.545,23.625,15.312,
50070500,-0.328,0.233,0.916,21.35,21.577,16.362,
50070510,-0.341,0.229,0.89,20.387,21.437,17.552,
50070520,-0.381,0.205,0.847,20.457,20.982,19.53,
50070530,-0.397,0.198,0.816,23.992,17.535,20.58,
50070540,-0.401,0.217,0.81,28.682,12.022,21.472,
50070550,-0.376,0.235,0.811,32.76,4.935,21.717,
50070560,-0.318,0.275,0.819,36.75,1.032,22.26,
50070570,-0.288,0.342,0.851,36.12,-0.087,23.537,
50070580,-0.251,0.387,0.903,28.035,3.465,22.487,
50070580,-0.198,0.367,0.944,19.145,14.875,18.795,
50070600,-0.256,0.35,1,15.26,28.105,14.332,
50070600,-0.314,0.357,1.036,14.647,36.277,9.257,
50070620,-0.355,0.385,1.062,15.19,36.4,4.165,
50070620,-0.404,0.361,1.009,13.02,30.065,0.21,
50070640,-0.407,0.306,0.95,14.805,19.687,-4.13,
50070640,-0.389,0.295,0.899,22.295,11.427,-7.77,
50070660,-0.438,0.385,0.876,30.327,2.257,-6.65,
50070660,-0.617,0.484,0.763,23.03,-20.247,-3.29,
50070670,-0.247,0.354,0.659,4.112,-35.752,-5.285,
50070680,-0.175,0.351,0.737,16.852,-14.157,1.067,
50070690,-0.427,0.46,0.83,19.285,-1.347,10.587,
50070700,-0.481,0.442,0.884,12.18,1.12,13.125,
50070710,-0.401,0.387,0.926,10.727,-3.78,12.285,
50070720,-0.346,0.405,0.956,7.787,-8.26,12.355,
50070730,-0.359,0.449,0.98,2.607,-11.375,9.555,
50070740,-0.361,0.436,0.964,-4.13,-14.962,6.177,
50070750,-0.33,0.412,0.94,-8.067,-18.707,2.905,
50070760,-0.299,0.389,0.913,-11.567,-20.93,2.205,
50070770,-0.298,0.373,0.89,-13.65,-21.367,2.362,
50070780,-0.296,0.364,0.869,-14.7,-19.95,2.677,
50070790,-0.308,0.339,0.84,-14.63,-19.005,4.742,
50070800,-0.338,0.325,0.828,-11.917,-19.6,8.172,
50070810,-0.344,0.337,0.824,-10.185,-22.82,10.92,
50070820,-0.313,0.355,0.83,-10.185,-24.465,11.585,
50070830,-0.273,0.355,0.844,-11.375,-23.45,11.952,
50070840,-0.249,0.35,0.853,-13.195,-19.372,13.125,
50070850,-0.259,0.36,0.866,-13.825,-16.117,13.755,
50070860,-0.275,0.352,0.853,-16.012,-14.175,12.635,
50070870,-0.27,0.337,0.849,-15.627,-12.862,9.117,
50070880,-0.286,0.323,0.854,-13.895,-11.427,7.087,
50070890,-0.333,0.318,0.874,-11.707,-12.162,6.107,
50070900,-0.412,0.309,0.893,-9.87,-18.935,6.44,
50070910,-0.415,0.319,0.887,-7.105,-30.52,7.245,
50070920,-0.325,0.352,0.88,-2.607,-40.67,8.067,
50070920,-0.309,0.371,0.869,-1.225,-47.757,11.13,
50070940,-0.262,0.329,0.83,-1.032,-51.677,13.107,
50070940,-0.148,0.371,0.825,4.462,-50.382,13.755,
50070960,-0.108,0.304,0.861,1.662,-46.13,16.082,
50070960,-0.16,0.314,0.888,2.59,-40.25,14.805,
50070980,-0.178,0.341,0.918,5.547,-39.725,14.105,
50070980,-0.15,0.27,0.903,6.317,-37.747,15.54,
50071000,-0.121,0.284,0.927,13.615,-33.355,12.915,
50071000,-0.225,0.361,0.828,17.815,-28.7,9.625,
50071010,-0.284,0.357,0.874,16.292,-40.915,2.205,
50071020,-0.015,0.282,0.844,13.947,-35.507,0.77,
50071030,-0.108,0.364,0.931,21.402,-24.01,0.822,
50071040,-0.227,0.332,0.925,10.937,-17.255,2.205,
50071050,-0.204,0.295,0.902,13.335,-11.445,0.682,
50071060,-0.256,0.345,0.905,19.215,-11.357,1.225,
50071070,-0.247,0.349,0.885,17.202,-13.3,0.7,
50071080,-0.207,0.354,0.892,17.115,-14.087,-1.54,
50071090,-0.193,0.37,0.903,13.912,-14.805,-1.33,
50071100,-0.171,0.42,0.916,10.85,-13.107,-2.502,
50071110,-0.201,0.422,0.887,3.36,-13.912,-3.71,
50071120,-0.086,0.308,0.886,-1.47,-12.005,-7.507,
50071130,-0.149,0.421,0.936,2.922,-6.895,-9.31,
50071140,-0.243,0.44,0.93,1.12,-7.595,-6.195,
50071150,-0.201,0.395,0.921,-1.137,-10.937,-8.435,
50071160,-0.156,0.386,0.92,-0.385,-11.97,-9.695,
50071170,-0.16,0.42,0.941,2.03,-11.235,-6.51,
50071180,-0.177,0.438,0.954,1.155,-10.115,-4.812,
50071190,-0.187,0.415,0.944,-1.12,-10.71,-4.585,
50071200,-0.173,0.401,0.926,-0.857,-10.5,-3.622,
50071210,-0.17,0.414,0.911,-0.07,-10.99,-2.24,
50071220,-0.156,0.419,0.896,-1.435,-9.887,-2.66,
50071230,-0.109,0.41,0.889,-2.642,-6.107,-4.672,
50071240,-0.076,0.405,0.891,-3.062,2.292,-5.775,
50071250,-0.094,0.407,0.895,-3.972,11.515,-6.772,
50071260,-0.134,0.386,0.892,-5.932,18.392,-8.47,
50071270,-0.145,0.337,0.865,-5.442,21.875,-10.99,
50071280,-0.143,0.305,0.812,0.332,25.812,-14.175,
50071290,-0.127,0.312,0.784,8.75,30.222,-18.48,
50071300,-0.09,0.347,0.826,13.632,35.402,-21.42,
50071310,-0.086,0.388,0.913,10.92,39.585,-20.615,
50071320,-0.14,0.377,0.964,2.572,43.557,-19.162,
50071330,-0.136,0.352,0.952,-0.892,48.457,-21.21,
50071330,-0.12,0.365,0.954,-2.572,57.277,-22.855,
50071350,-0.169,0.367,0.928,-6.807,66.605,-25.112,
50071350,-0.241,0.345,0.887,-11.427,75.372,-29.68,
50071370,-0.266,0.311,0.844,-12.145,81.97,-33.477,
50071370,-0.294,0.29,0.808,-9.922,85.487,-33.407,
50071390,-0.393,0.272,0.778,-6.212,82.39,-31.132,
50071390,-0.507,0.302,0.779,-1.522,70.437,-29.907,
50071410,-0.591,0.387,0.763,0.752,48.877,-32.077,
50071410,-0.613,0.458,0.746,-1.907,23.205,-34.877,
50071420,-0.517,0.404,0.675,-11.742,1.312,-39.707,
50071430,-0.3,0.31,0.66,-9.835,-7.07,-43.137,
50071440,-0.221,0.36,0.691,1.347,3.482,-37.467,
50071450,-0.314,0.428,0.756,4.637,19.495,-27.93,
50071460,-0.41,0.43,0.826,-0.017,32.69,-23.222,
50071470,-0.427,0.404,0.863,-5.775,41.02,-22.225,
50071480,-0.416,0.374,0.899,-7.192,45.237,-22.557,
50071490,-0.407,0.381,0.957,-8.015,46.567,-20.58,
50071500,-0.439,0.366,0.99,-11.847,45.57,-16.502,
50071510,-0.495,0.33,1.016,-13.055,41.79,-11.847,
50071520,-0.549,0.298,1.019,-12.74,35.945,-8.96,
50071530,-0.567,0.292,1.012,-9.135,25.97,-8.82,
50071540,-0.546,0.3,1.013,-4.392,14.927,-7.98,
50071550,-0.523,0.295,1.002,0.07,3.255,-5.04,
50071560,-0.472,0.3,0.993,6.545,-4.007,-1.592,
50071570,-0.449,0.311,0.969,12.845,-7.035,3.99,
50071580,-0.439,0.299,0.932,19.915,-5.39,11.357,
50071590,-0.424,0.299,0.89,31.185,-0.647,17.08,
50071600,-0.425,0.335,0.889,44.17,4.847,19.232,
50071610,-0.459,0.387,0.887,53.147,7.525,19.04,
50071620,-0.485,0.435,0.885,58.222,7.437,18.725,
50071630,-0.493,0.474,0.876,60.62,3.902,20.387,
50071640,-0.479,0.488,0.86,59.097,-0.91,21.822,
50071650,-0.492,0.485,0.825,55.51,-5.792,22.347,
50071660,-0.511,0.469,0.797,54.145,-9.31,19.547,
50071670,-0.53,0.459,0.774,56.472,-13.982,15.662,
50071670,-0.525,0.471,0.772,62.247,-20.405,11.445,
50071690,-0.521,0.498,0.778,68.162,-27.685,10.657,
50071690,-0.5,0.548,0.799,71.487,-32.305,9.905,
50071710,-0.514,0.574,0.799,68.722,-35.262,10.465,
50071710,-0.512,0.578,0.782,61.985,-36.627,8.61,
50071730,-0.475,0.579,0.767,54.845,-35.56,6.475,
50071730,-0.432,0.595,0.746,48.177,-32.025,4.585,
50071750,-0.392,0.618,0.737,38.5,-26.635,4.637,
50071750,-0.371,0.601,0.704,26.88,-21.245,5.04,
50071760,-0.367,0.569,0.675,15.592,-13.807,6.772,
50071770,-0.377,0.533,0.657,6.965,-6.492,10.097,
50071780,-0.37,0.525,0.685,2.45,1.592,10.605,
50071790,-0.401,0.508,0.685,0.017,8.54,9.695,
50071800,-0.396,0.543,0.718,0.507,14.21,3.937,
50071810,-0.371,0.591,0.739,-1.225,18.55,-2.467,
50071820,-0.321,0.635,0.765,-6.562,23.45,-9.485,
50071830,-0.253,0.652,0.769,-15.995,31.027,-15.312,
50071840,-0.206,0.639,0.749,-27.405,44.782,-18.847,
50071850,-0.172,0.622,0.753,-39.06,63.192,-20.702,
50071860,-0.227,0.577,0.735,-47.652,82.88,-21.56,
50071870,-0.269,0.509,0.802,-52.92,100.94,-25.76,
50071880,-0.358,0.258,0.848,-51.082,112.717,-24.447,
50071890,-0.461,0.248,0.922,-24.36,105.787,-31.377,
50071900,-0.502,0.386,1.075,-2.485,77.612,-43.995,
50071910,0.011,0.597,1.237,1.767,69.86,-55.282,
50071920,0.285,0.653,1.238,-16.625,101.132,-42.07,
50071930,-0.075,0.527,1.073,-50.872,138.075,-21.157,
50071940,-0.411,0.443,0.893,-67.2,154.91,-12.687,
50071950,-0.658,0.472,0.782,-68.967,141.4,-3.675,
50071960,-0.694,0.437,0.689,-71.102,114.135,2.292,
50071970,-0.707,0.231,0.634,-70.192,79.94,-2.73,
50071980,-0.625,0.119,0.557,-53.9,51.887,-18.725,
50071990,-0.528,0.229,0.528,-28.682,33.11,-23.887,
50072000,-0.693,0.254,0.591,-20.65,19.95,-9.905,
50072010,-0.748,0.183,0.616,-19.722,0.91,-7.735,
50072020,-0.557,0.27,0.649,-8.277,-10.78,-10.465,
50072030,-0.55,0.327,0.687,-9.047,-13.667,-2.17,
50072040,-0.572,0.255,0.685,-17.307,-11.655,2.52,
50072050,-0.541,0.161,0.691,-19.39,-9.94,4.62,
50072060,-0.611,0.144,0.724,-12.18,-13.212,5.477,
50072070,-0.623,0.139,0.723,-2.012,-21.84,2.135,
50072080,-0.534,0.139,0.733,8.505,-29.067,-4.637,
50072080,-0.461,0.113,0.744,17.727,-33.075,-8.452,
50072100,-0.428,0.127,0.787,30.362,-33.827,-13.072,
50072100,-0.45,0.174,0.815,38.097,-39.025,-18.235,
50072120,-0.399,0.193,0.807,40.582,-47.407,-22.382,
50072120,-0.324,0.192,0.786,43.627,-54.635,-26.565,
50072140,-0.309,0.207,0.777,44.03,-59.132,-31.447,
50072140,-0.299,0.25,0.769,41.422,-62.685,-39.217,
50072150,-0.287,0.265,0.736,34.965,-67.112,-48.772,
50072160,-0.218,0.256,0.684,25.095,-66.115,-61.092,
50072170,-0.157,0.263,0.627,14.805,-58.817,-74.2,
50072180,-0.119,0.255,0.572,4.602,-45.727,-86.03,
50072190,-0.091,0.242,0.516,-3.92,-27.125,-95.48,
50072200,-0.111,0.226,0.479,-11.252,-5.075,-102.952,
50072210,-0.205,0.187,0.453,-16.712,15.89,-109.41,
50072220,-0.346,0.168,0.445,-20.037,28.892,-114.94,
50072230,-0.528,0.194,0.46,-21.262,25.865,-119.84,
50072240,-0.626,0.165,0.427,-27.335,7.262,-123.007,
50072250,-0.595,0.135,0.374,-28.42,-6.195,-122.622,
50072260,-0.645,0.142,0.374,-21.98,-19.81,-125.912,
50072270,-0.758,0.134,0.382,-18.602,-38.71,-126.35,
50072280,-0.781,0.142,0.412,-18.41,-58.572,-127.19,
50072290,-0.756,0.136,0.439,-18.725,-74.9,-126.472,
50072300,-0.738,0.161,0.497,-20.807,-84.98,-124.985,
50072310,-0.761,0.143,0.569,-23.957,-89.477,-120.662,
50072320,-0.745,0.133,0.637,-29.4,-88.917,-115.307,
50072330,-0.741,0.118,0.654,-32.725,-86.152,-105.49,
50072340,-0.751,0.101,0.725,-35.525,-81.287,-93.957,
50072350,-0.798,0.067,0.763,-38.237,-76.317,-80.85,
50072360,-0.838,0.074,0.818,-38.885,-73.29,-71.767,
50072370,-0.91,0.104,0.86,-40.11,-80.185,-63.84,
50072380,-0.849,0.07,0.906,-48.3,-93.765,-57.085,
50072390,-0.668,0.04,0.893,-47.967,-91.017,-49.7,
50072400,-0.737,-0.006,0.947,-38.237,-87.535,-39.655,
50072410,-0.711,0.059,0.985,-35.332,-83.282,-39.97,
50072420,-0.641,0.062,1.006,-28.35,-76.352,-35.035,
50072420,-0.629,0.124,1.036,-21.892,-68.862,-27.597,
50072440,-0.668,0.122,1.045,-23.992,-68.74,-19.897,
50072440,-0.565,0.147,1.04,-23.065,-59.657,-17.465,
50072460,-0.572,0.154,1.065,-18.567,-53.095,-13.492,
50072460,-0.582,0.152,1.027,-20.58,-49.735,-9.87,
50072480,-0.559,0.129,1.021,-18.427,-45.885,-9.135,
50072480,-0.561,0.105,1.001,-16.677,-45.15,-7.157,
50072500,-0.543,0.09,0.976,-14.402,-45.395,-6.44,
50072500,-0.487,0.077,0.955,-6.352,-45.447,-4.707,
50072510,-0.445,0.071,1.081,9.695,-40.005,4.672,
50072520,-0.39,-0.063,1.076,18.865,-24.097,28.542,
50072530,-0.7,-0.012,1.126,32.375,-11.917,42.122,
50072540,-0.861,0.171,1.193,36.732,-31.01,23.1,
50072550,-0.707,0.122,1.128,19.005,-57.365,5.757,
50072560,-0.43,-0.019,1.079,12.827,-70.35,-2.38,
50072570,-0.335,0,1.049,15.82,-64.33,-2.397,
50072580,-0.336,0.064,1.042,19.145,-50.295,-0.997,
50072590,-0.355,0.049,1.005,23.135,-34.79,1.26,
50072600,-0.382,0,0.95,32.095,-22.522,5.827,
50072610,-0.306,-0.012,0.906,40.757,-10.745,17.15,
50072620,-0.227,-0.043,0.873,49.192,6.667,41.3,
50072630,-0.25,-0.059,0.862,64.627,32.707,69.405,
50072640,-0.317,0.016,0.887,87.587,60.322,90.352,
50072650,-0.454,0.117,0.964,108.92,79.73,111.597,
50072660,-0.564,0.215,0.971,112.962,87.92,124.18,
50072670,-0.623,0.302,1.012,111.877,90.002,122.517,
50072680,-0.627,0.368,0.967,96.862,89.25,113.855,
50072690,-0.605,0.407,0.927,77.052,87.237,102.707,
50072700,-0.569,0.387,0.872,52.78,86.765,91.21,
50072710,-0.533,0.363,0.813,32.445,87.465,82.915,
50072720,-0.51,0.328,0.774,19.337,88.585,78.277,
50072730,-0.483,0.323,0.742,10.027,89.372,76.405,
50072740,-0.469,0.333,0.734,3.43,91.297,77.35,
50072750,-0.485,0.337,0.749,-3.447,93.712,80.255,
50072760,-0.519,0.338,0.75,-12.46,97.195,80.307,
50072770,-0.527,0.355,0.75,-21.472,98.927,76.947,
50072780,-0.509,0.364,0.775,-32.392,98.927,75.932,
50072790,-0.524,0.34,0.742,-42.91,95.445,75.302,
50072800,-0.362,0.387,0.75,-41.51,82.512,75.197,
50072810,-0.412,0.362,0.751,-44.975,72.24,100.345,
50072820,-0.607,0.336,0.707,-49.98,62.125,122.57,
50072830,-0.691,0.299,0.711,-46.375,47.145,130.235,
50072830,-0.7,0.221,0.668,-36.032,26.757,130.497,
50072840,-0.563,0.234,0.687,-18.532,9.607,122.22,
50072850,-0.487,0.293,0.755,-8.155,-0.787,114.73,
50072860,-0.449,0.349,0.812,-8.172,-3.937,102.865,
50072870,-0.467,0.312,0.789,-11.585,-4.305,88.235,
50072880,-0.421,0.27,0.792,-10.272,-2.66,73.237,
50072890,-0.342,0.25,0.801,-4.882,2.292,64.732,
50072900,-0.362,0.22,0.79,1.627,10.937,61.022,
50072910,-0.354,0.196,0.784,11.655,24.447,53.392,
50072920,-0.298,0.192,0.787,25.655,39.007,45.99,
50072930,-0.336,0.247,0.798,37.502,57.487,39.637,
50072940,-0.372,0.318,0.782,41.877,76.877,24.29,
50072950,-0.362,0.383,0.791,40.845,94.99,7.805,
50072960,-0.37,0.36,0.715,25.882,107.38,3.762,
50072970,-0.499,0.325,0.667,14.28,113.277,3.115,
50072980,-0.701,0.225,0.607,-1.207,111.51,5.512,
50072990,-0.848,0.067,0.52,-6.335,98.98,5.635,
50073000,-0.913,-0.024,0.558,8.015,80.727,8.697,
50073010,-0.979,-0.094,0.561,27.965,60.235,15.312,
50073020,-0.964,-0.079,0.596,58.415,43.137,19.722,
50073030,-0.935,0.023,0.684,92.925,36.662,23.012,
50073040,-0.959,0.108,0.696,115.605,41.352,22.89,
50073050,-0.977,0.262,0.703,130.112,44.432,18.515,
50073060,-0.952,0.359,0.706,136.132,40.145,17.167,
50073070,-0.901,0.426,0.651,130.69,32.777,22.137,
50073080,-0.813,0.447,0.582,121.275,19.407,32.287,
50073090,-0.81,0.432,0.489,116.13,1.505,42.542,
50073100,-0.794,0.486,-0.083,120.102,-19.302,46.637,
50073110,-0.784,0.909,0.573,140.77,-53.742,53.235,
50073120,-0.965,1.741,0.785,83.335,-113.452,73.272,
50073130,-0.802,1.348,0.7,-0.735,-181.02,63.805,
50073140,-0.638,0.748,0.392,-65.362,-238.7,35.297,
50073150,-0.314,0.393,0.144,-74.375,-270.585,20.247,
50073160,0.064,0.4,0.05,-44.957,-273.56,4.357,
50073170,0.325,0.634,0.187,-22.732,-245.682,-16.17,
50073170,0.363,0.813,0.382,-21.385,-195.562,-42.157,
50073190,0.284,0.887,0.632,-29.522,-137.812,-78.085,
50073190,0.113,0.842,0.806,-48.842,-81.515,-111.982,
50073210,0.012,0.742,0.872,-71.05,-43.172,-133.875,
50073210,-0.114,0.564,0.839,-83.545,-21.525,-133.665,
50073230,-0.187,0.448,0.773,-81.042,-8.732,-122.762,
50073230,-0.279,0.406,0.729,-66.675,-4.532,-107.362,
50073250,-0.405,0.424,0.799,-49.49,-9.975,-93.607,
50073250,-0.478,0.461,0.884,-37.152,-21.857,-80.342,
50073260,-0.427,0.445,0.92,-26.46,-29.522,-68.285,
50073270,-0.335,0.429,0.897,-18.48,-27.352,-58.205,
50073280,-0.272,0.45,0.909,-7.367,-14.805,-46.917,
50073290,-0.288,0.518,0.933,3.115,1.19,-32.9,
50073300,-0.318,0.579,0.949,10.027,16.17,-24.272,
50073310,-0.38,0.606,0.959,14.857,27.492,-22.172,
50073320,-0.421,0.641,0.942,16.922,34.982,-24.465,
50073330,-0.411,0.611,0.928,12.967,40.565,-22.872,
50073340,-0.473,0.476,0.898,2.572,45.237,-20.492,
50073350,-0.563,0.361,0.851,-2.485,45.307,-22.942,
50073360,-0.554,0.347,0.836,2.065,40.722,-23.047,
50073370,-0.492,0.385,0.843,4.9,37.8,-20.405,
50073380,-0.47,0.412,0.844,1.662,41.685,-15.067,
50073390,-0.448,0.425,0.782,-9.257,52.71,-5.652,
50073400,-0.752,0.272,0.788,-31.29,60.025,8.75,
50073410,-0.716,0.279,0.722,-31.692,60.077,-0.035,
50073420,-0.55,0.353,0.734,-25.637,52.797,-2.975,
50073430,-0.497,0.331,0.726,-30.1,36.522,1.82,
50073440,-0.375,0.504,0.769,-29.75,35.35,1.872,
50073450,-0.475,0.493,0.755,-41.807,38.692,12.075,
50073460,-0.529,0.368,0.732,-51.572,43.05,17.762,
50073470,-0.608,0.225,0.696,-50.662,39.077,18.97,
50073480,-0.681,0.174,0.663,-40.775,33.477,14.157,
50073490,-0.655,0.23,0.675,-26.985,27.37,1.382,
50073500,-0.642,0.336,0.713,-16.45,22.365,-12.53,
50073510,-0.602,0.423,0.72,-13.912,17.797,-23.397,
50073510,-0.578,0.432,0.727,-17.325,17.097,-26.565,
50073530,-0.561,0.42,0.723,-23.992,19.81,-26.022,
50073530,-0.534,0.383,0.713,-28.385,26.845,-23.327,
50073550,-0.525,0.375,0.715,-28.525,36.907,-19.74,
50073550,-0.542,0.398,0.718,-29.802,48.755,-15.347,
50073570,-0.557,0.401,0.716,-34.947,58.222,-11.672,
50073570,-0.554,0.377,0.702,-40.355,66.272,-8.662,
50073580,-0.605,0.314,0.685,-43.4,69.93,-5.897,
50073590,-0.668,0.286,0.669,-42.245,67.742,-6.265,
50073600,-0.663,0.269,0.661,-40.022,61.162,-8.085,
50073610,-0.682,0.233,0.65,-35.945,56.612,-11.235,
50073620,-0.702,0.222,0.649,-27.527,52.115,-17.482,
50073630,-0.605,0.322,0.656,-23.782,53.2,-22.977,
50073640,-0.558,0.329,0.667,-24.552,65.362,-20.265,
50073650,-0.647,0.364,0.688,-27.72,78.312,-19.32,
50073660,-0.759,0.276,0.599,-37.012,87.15,-9.642,
50073670,-0.74,0.332,0.642,-40.232,90.597,-7.752,
50073680,-0.802,0.244,0.569,-50.977,91.087,-13.265,
50073690,-0.997,0.07,0.557,-45.692,83.72,-0.857,
50073700,-0.947,0.162,0.561,-37.275,71.242,-13.79,
50073710,-0.819,0.175,0.554,-34.177,62.72,-32.9,
50073720,-0.882,0.153,0.537,-27.09,57.942,-32.567,
50073730,-0.814,0.287,0.577,-21.63,49.7,-26.827,
50073740,-0.811,0.296,0.585,-30.59,46.462,-23.45,
50073750,-0.832,0.247,0.589,-37.397,46.042,-23.275,
50073760,-0.809,0.237,0.586,-43.26,46.777,-22.015,
50073770,-0.821,0.224,0.555,-47.25,46.672,-22.522,
50073780,-0.751,0.18,0.497,-49.402,52.43,-28.822,
50073790,-0.754,0.127,0.448,-45.412,59.482,-23.362,
50073800,-0.785,0.171,0.494,-41.51,71.417,-22.242,
50073810,-1.072,0.133,0.488,-35.98,64.172,-19.67,
50073820,-0.921,0.102,0.455,-39.567,47.232,-24.657,
50073830,-0.736,0.12,0.462,-37.555,40.337,-22.207,
50073840,-0.736,0.162,0.471,-39.095,42.227,-20.947,
50073850,-0.805,0.15,0.433,-45.587,45.045,-9.765,
50073860,-0.886,0.001,0.525,-14.945,35.682,6.282,
50073870,-0.753,0.249,0.619,-16.292,29.977,-1.207,
50073880,-0.772,0.085,0.465,-32.357,25.795,5.145,
50073890,-0.834,0.079,0.537,-14.105,30.485,8.54,
50073900,-0.912,0.146,0.5,-10.342,30.905,5.267,
50073910,-0.906,0.144,0.468,-8.085,26.39,2.747,
