#Format version: 1.0
time[ms],accX[g],accY[g],accZ[g],Value 1,Value 2,Value 3,
41197500,-0.37,-0.7,0.225,116.952,-27.93,84.105,
41197510,0.429,-1.998,0.934,127.977,-162.785,-191.275,
41197510,0.985,-1.939,-1.369,218.785,-271.46,-125.422,
41197530,0.612,1.811,0.858,551.652,-24.377,-92.89,
41197530,-1.782,1.318,1.647,398.667,62.685,-105.28,
41197550,0.537,-1.921,1.042,259.945,-37.415,-98.262,
41197550,0.406,0.113,1.522,422.852,-28.735,-116.357,
41197570,-0.095,1.421,1.998,355.932,-41.107,-79.17,
41197570,0.724,-0.162,1.789,147.962,-47.705,-34.44,
41197580,0.031,0.551,1.821,63.77,-16.345,-8.4,
41197590,-0.149,-0.067,1.459,-54.145,-0.227,-0.455,
41197600,-0.121,-0.333,1.162,-114.135,5.705,-10.92,
41197610,0.079,-0.599,1.002,-139.09,18.322,-21.402,
41197620,0.158,-0.412,1.139,-149.59,27.457,-23.187,
41197630,0.238,-0.294,1.233,-171.99,33.425,-10.71,
41197640,0.227,-0.436,1.083,-200.585,30.66,4.567,
41197650,0.271,-0.433,1.041,-206.255,33.495,18.34,
41197660,0.399,-0.347,0.963,-230.037,48.492,26.687,
41197670,-0.002,-0.363,1.102,-266.997,70.577,26.057,
41197680,-0.352,-0.391,1.241,-315.367,58.747,1.26,
41197690,0.072,-1.047,1.025,-371.28,68.46,-6.632,
41197700,0.574,-1.936,1.053,-397.197,136.255,27.072,
41197710,0.475,-1.998,1.078,-369.302,240.66,73.902,
41197720,1.481,-1.715,1.061,-334.005,296.257,35.542,
41197730,0.686,-1.983,0.442,-290.22,250.88,-44.94,
41197740,1.694,-1.992,0.3,-138.617,229.53,-103.67,
41197750,0.169,-1.962,0.328,8.68,166.705,-198.45,
41197760,-0.962,-1.35,0.331,145.827,83.895,-249.742,
41197770,-1.035,-0.75,0.074,221.095,-16.047,-252.385,
41197780,-0.747,-0.457,-0.226,245.927,-75.88,-231.752,
41197790,-0.475,-0.27,-0.47,251.982,-101.325,-208.302,
41197800,-0.344,-0.04,-0.596,249.06,-90.86,-188.317,
41197810,-0.441,0.082,-0.629,239.085,-64.89,-153.895,
41197820,-0.552,0.161,-0.588,218.487,-43.417,-117.407,
41197830,-0.596,0.231,-0.554,179.795,-35.035,-83.492,
41197830,-0.632,0.232,-0.536,132.02,-35.49,-45.885,
41197850,-0.647,0.163,-0.473,89.932,-40.442,-3.815,
41197850,-0.557,0.064,-0.348,51.87,-47.092,35.63,
41197870,-0.429,-0.033,-0.193,20.422,-55.247,71.68,
41197870,-0.303,-0.113,-0.113,-1.295,-60.882,99.925,
41197890,-0.132,-0.083,-0.151,-14.98,-66.902,117.075,
41197890,0.104,0.075,-0.282,-31.535,-71.837,122.255,
41197910,0.374,0.252,-0.352,-60.76,-76.352,118.335,
41197910,0.382,0.403,-0.369,-101.36,-89.04,108.062,
41197920,0.345,0.826,-0.323,-135.642,-116.952,81.235,
41197930,0.789,0.692,-0.404,-182.052,-124.705,49.735,
41197940,1.074,-0.957,0.539,-134.015,-127.89,-61.022,
41197950,-0.266,-1.998,0.593,111.51,211.417,271.232,
41197960,-0.07,-0.027,-1.808,441.875,-182.262,192.727,
41197970,0.578,1.692,1.833,506.677,262.57,203.105,
41197980,-1.998,-1.181,0.905,363.842,29.12,96.81,
41197990,0.365,-1.285,1.58,412.317,-6.597,43.26,
41198000,-1.693,1.243,1.998,495.092,-45.832,-62.685,
41198010,0.88,1.014,1.992,270.847,-103.057,-116.952,
41198020,1.115,1.306,1.859,46.725,-60.06,-87.937,
41198030,-0.098,-0.009,1.453,-104.685,1.82,-48.947,
41198040,-0.637,-0.585,1.341,-191.8,56.945,-94.01,
41198050,0.302,-0.404,1.401,-216.352,90.685,-140.017,
41198060,0.579,-0.191,1.563,-260.907,108.412,-139.79,
41198070,0.379,-0.353,1.092,-315.437,123.567,-103.687,
41198080,0.203,-0.575,0.709,-351.312,120.365,-84.122,
41198090,0.235,-0.429,0.985,-362.985,103.005,-89.057,
41198100,0.061,-0.135,1.244,-403.97,89.67,-100.572,
41198110,0.323,-1.422,1.785,-497.157,97.737,-104.842,
41198120,0.858,-1.998,1.569,-490.717,159.862,-32.497,
41198130,0.686,-1.611,1.126,-421.505,258.527,29.977,
41198140,0.34,-1.408,1.316,-365.522,225.242,-42.682,
41198150,0.982,-1.966,0.732,-321.247,153.282,-85.032,
41198160,0.964,-1.998,0.802,-209.475,109.445,-150.08,
41198170,-1.475,-1.871,0.506,9.1,40.81,-258.072,
41198180,-1.998,-0.752,0.743,163.257,-32.515,-280.315,
41198190,-1.996,0.052,0.592,222.88,-102.025,-220.762,
41198200,-1.66,0.583,0.213,238.735,-158.2,-118.545,
41198210,-1.046,0.904,-0.061,221.497,-170.467,-27.807,
41198220,-0.481,1.018,-0.196,194.897,-130.812,43.96,
41198230,-0.262,1.001,-0.262,178.972,-61.565,102.042,
41198240,-0.329,0.836,-0.277,164.745,7.63,145.302,
41198250,-0.466,0.544,-0.265,139.912,50.89,174.58,
41198260,-0.632,0.117,-0.264,108.307,58.432,198.205,
41198260,-0.765,-0.288,-0.292,78.085,29.995,216.09,
41198280,-0.877,-0.659,-0.349,60.935,-22.102,235.077,
41198280,-0.892,-0.913,-0.377,57.015,-86.607,257.04,
41198300,-0.826,-1.089,-0.467,58.642,-154.21,277.532,
41198300,-0.648,-1.147,-0.599,61.04,-221.34,291.9,
41198320,-0.238,-1.04,-0.723,60.217,-272.3,303.082,
41198320,0.202,-0.833,-0.728,42.647,-296.012,316.522,
41198330,0.664,-0.711,-0.731,4.725,-288.942,332.027,
41198340,1.077,-0.65,-0.694,-39.9,-262.552,341.302,
41198350,1.426,-0.543,-0.582,-92.522,-231.315,325.92,
41198360,1.747,-0.689,-0.109,-160.352,-208.18,281.172,
41198370,1.934,-1.626,-0.751,-202.492,-215.845,188.632,
41198380,0.928,-1.998,0.389,-71.96,-5.127,117.092,
41198390,-1.59,-0.701,-1.522,387.467,122.482,269.342,
41198400,-1.616,1.997,1.988,471.677,-170.677,221.41,
41198410,-0.201,-1.099,0.216,119.63,-128.117,74.567,
41198420,-1.968,-1.684,0.53,237.807,-207.55,-94.745,
41198430,-0.384,0.678,1.41,404.862,-124.722,-201.005,
41198440,-0.137,-0.058,1.596,273.927,-89.88,-264.267,
41198450,1.544,0.486,1.787,176.82,-93.642,-209.58,
41198460,1.374,0.535,1.698,94.115,-66.237,-104.002,
41198470,0.791,0.085,1.492,-14.105,-26.477,-16.415,
41198480,0.241,-0.208,1.369,-88.182,15.365,18.655,
41198490,0.044,-0.211,1.442,-147.962,56.945,12.722,
41198500,0.021,-0.259,1.45,-198.292,91.122,-1.417,
41198510,0.006,-0.358,1.282,-246.33,116.795,-10.587,
41198520,-0.003,-0.467,0.921,-279.737,137.27,-18.042,
41198530,-0.167,-0.501,0.723,-292.792,145.057,-34.492,
41198540,-0.39,-0.335,0.612,-303.537,135.835,-56.245,
41198550,-0.023,-0.686,0.832,-358.435,125.632,-85.452,
41198560,0.367,-1.741,0.631,-408.38,165.847,-77.787,
41198570,1.007,-1.998,0.754,-394.887,255.797,-34.58,
41198580,1.617,-1.998,1.323,-394.73,321.842,-63.56,
41198580,1.312,-1.998,1.245,-320.127,357.577,-97.93,
41198600,1.861,-1.998,1.311,-189.735,369.967,-148.4,
41198600,-0.186,-1.998,0.337,33.46,219.485,-342.982,
41198620,-1.998,-1.941,-0.03,256.322,18.987,-457.905,
41198620,-1.998,-1.177,-0.231,374.535,-139.055,-487.007,
41198640,-1.998,-0.616,-0.726,415.275,-222.057,-435.522,
41198640,-1.79,-0.215,-1.54,427.577,-226.1,-312.812,
41198660,-1.756,0.19,-1.995,418.127,-163.012,-166.337,
41198660,-1.933,0.598,-1.834,400.995,-91.175,-26.617,
41198670,-1.974,0.854,-1.468,326.76,-70.752,109.917,
41198680,-1.926,0.85,-1.125,179.76,-104.632,238.175,
41198690,-1.245,0.153,-0.591,-1.207,-156.887,338.38,
41198700,-0.703,-0.999,-0.142,-113.4,-223.51,395.167,
41198710,-0.159,-1.587,0.266,-105.122,-260.295,407.785,
41198720,0.268,-1.273,0.247,-39.025,-268.572,410.357,
41198730,1.44,-0.617,-0.273,8.977,-235.462,421.33,
41198740,1.998,-0.18,-0.359,17.867,-136.01,413.192,
41198750,1.998,0.118,-0.087,-33.915,-34.44,334.197,
41198760,1.998,0.037,0.258,-98.752,27.457,187.127,
41198770,1.998,-0.33,0.615,-136.237,48.265,34.965,
41198780,1.848,-0.493,0.628,-121.607,65.45,-92.82,
41198790,1.691,-0.354,-0.249,-67.83,97.947,-199.867,
41198800,-0.763,-1.491,0.251,169.96,119.84,-255.832,
41198810,-1.998,-1.998,1.998,293.772,6.51,-137.41,
41198820,0.987,-1.998,-0.205,312.62,-38.482,106.645,
41198830,1.998,0.763,-0.299,472.815,28.245,100.817,
41198840,-1.442,1.189,1.967,480.725,142.957,18.305,
41198850,-0.231,1.084,1.998,428.47,58.292,4.13,
41198860,-0.396,-1.208,1.88,265.09,-5.057,15.54,
41198870,-0.382,1.972,1.998,255.237,-12.722,-41.352,
41198880,0.162,0.275,1.476,-37.607,-18.165,-43.75,
41198890,-0.008,-0.428,1.173,-128.87,-3.237,-51.642,
41198900,0.023,-0.946,0.569,-137.865,1.347,-52.01,
41198910,0.022,-1.054,0.52,-90.982,12.95,-62.842,
41198920,0.306,-0.464,0.885,-53.602,15.68,-53.707,
41198930,0.34,-0.376,0.996,-55.947,16.66,-33.757,
41198940,0.31,-0.298,1.14,-67.987,20.947,-9.695,
41198950,0.108,-0.301,1.198,-88.217,22.295,10.815,
41198960,-0.09,-0.428,1.144,-119.297,23.747,18.27,
41198970,-0.216,-0.407,1.219,-143.587,25.742,9.695,
41198980,-0.243,-0.255,1.267,-176.785,34.335,-8.032,
41198980,-0.584,-0.442,1.112,-232.207,41.002,-39.41,
41199000,-0.229,-1.201,0.626,-288.575,22.557,-105.735,
41199000,-0.487,-1.197,0.941,-308.175,39.112,-127.925,
41199010,-0.105,-0.544,0.867,-279.072,78.032,-156.292,
41199020,0.29,-1.131,1.061,-284.917,122.395,-161.525,
41199030,0.482,-1.58,0.636,-285.495,195.632,-129.552,
41199040,-0.054,-1.125,0.764,-261.432,233.607,-123.41,
41199050,-0.153,-1.456,0.973,-252.507,239.575,-151.112,
41199060,-0.368,-1.797,0.435,-207.13,228.935,-156.415,
41199070,0.386,-1.365,-0.368,-133.822,214.445,-182.875,
41199080,-0.793,-0.903,-0.354,-44.712,199.395,-241.307,
41199090,-1.994,-0.273,-0.4,1.207,181.44,-267.837,
41199100,-1.998,0.814,0.071,10.937,172.445,-165.847,
41199110,-1.998,0.779,0.384,-44.485,74.147,0.157,
41199120,-1.998,0.216,0.601,-106.452,-76.79,165.427,
41199130,-0.814,-0.373,0.603,-92.645,-193.41,290.675,
41199140,0.584,-0.844,0.83,-32.375,-226.152,335.282,
41199150,0.863,-0.874,0.775,-0.157,-247.047,303.397,
41199160,1.383,-0.858,0.268,26.827,-263.952,260.995,
41199170,1.995,-0.795,-0.053,74.305,-247.66,216.09,
41199180,1.998,-0.502,-0.255,105.647,-204.225,140.525,
41199190,1.924,-0.304,-0.382,114.257,-139.475,73.132,
41199200,1.388,-0.258,-0.504,113.47,-79.975,26.547,
41199210,0.769,-0.111,-0.746,119.105,-52.71,-12.512,
41199220,0.306,-0.119,-0.807,119.42,-52.22,-40.985,
41199230,-0.506,-0.585,-0.657,140.21,-64.225,-38.605,
41199240,-1.25,-1.902,1.22,105.91,-212.712,-69.895,
41199250,1.603,-1.998,1.201,76.212,-214.602,-7.455,
41199260,1.525,-0.392,-1.754,353.045,-18.935,76.195,
41199270,0.343,1.995,1.855,412.597,76.492,112.105,
41199280,-1.834,0.393,1.274,217,41.667,68.075,
41199290,-0.982,-1.243,0.743,183.277,-21.665,23.8,
41199300,-0.001,-1.487,0.868,189.472,3.57,-13.877,
41199310,-1.168,0.678,1.739,224.052,24.552,-68.652,
41199320,-0.214,-0.243,1.642,100.397,26.81,-120.662,
41199330,0.294,-0.204,1.51,22.925,29.715,-136.045,
41199330,0.433,-0.061,1.393,-23.1,31.447,-115.325,
41199350,0.522,-0.454,1.051,-69.317,25.62,-80.605,
41199350,0.395,-0.504,0.946,-80.307,31.657,-48.912,
41199370,0.331,-0.537,0.972,-93.187,46.585,-31.937,
41199370,0.333,-0.399,1.057,-105.717,68.075,-21.595,
41199390,0.268,-0.446,0.973,-136.062,79.607,-18.077,
41199390,0.212,-0.623,0.764,-179.462,90.317,-29.085,
41199410,-0.148,-0.895,0.809,-224.7,101.237,-55.212,
41199410,-0.472,-0.798,0.734,-245.402,107.555,-78.365,
41199420,-0.253,-0.744,0.8,-257.827,116.182,-96.285,
41199430,-0.039,-0.957,0.717,-271.477,139.947,-93.152,
41199440,0.101,-1.275,0.666,-272.475,182.77,-82.722,
41199450,0.444,-1.726,0.312,-267.417,229.6,-75.11,
41199460,-0.039,-1.565,0.74,-234.517,246.68,-98.262,
41199470,-0.598,-1.257,0.884,-170.135,264.88,-89.6,
41199480,1.488,-1.557,0.785,-145.11,262.132,-70.087,
41199490,1.537,-1.885,0.446,-74.392,252.647,-145.565,
41199500,0.462,-1.651,0.298,41.947,220.045,-248.64,
41199510,-0.622,-1.257,0.074,143.832,160.142,-302.872,
41199520,-1.312,-0.78,0.1,211.207,87.605,-279.947,
41199530,-1.599,-0.576,-0.045,248.692,12.18,-237.23,
41199540,-1.558,-0.449,-0.441,279.037,-55.44,-178.325,
41199550,-0.925,-0.12,-0.917,294.612,-63.787,-83.947,
41199560,-0.722,0.216,-1.182,283.43,-29.05,30.852,
41199570,-1.132,0.433,-1.356,226.31,-5.372,129.342,
41199580,-1.656,0.459,-1.207,125.982,-25.847,211.242,
41199590,-1.706,0.055,-1.056,-9.31,-96.81,280.612,
41199600,-0.608,-0.665,-0.922,-132.93,-162.225,335.93,
41199610,0.056,-1.398,-0.672,-200.13,-198.502,371.227,
41199620,0.313,-1.394,-0.612,-218.75,-223.685,380.012,
41199630,1.139,-1.239,-0.85,-241.745,-217.052,377.002,
41199640,1.607,-1.998,0.754,-162.19,-230.982,292.757,
41199650,1.998,-1.735,1.998,21,-112.122,54.285,
41199660,-0.535,-0.678,0.84,284.97,16.24,-28.315,
41199670,-1.998,0.251,-1.633,497.49,-128.047,-171.22,
41199670,0.335,-1.865,1.141,205.747,-7.595,13.685,
41199690,1.564,-1.002,0.161,294.962,-9.135,-46.515,
41199690,-1.956,1.623,1.722,424.165,-15.872,-118.842,
41199710,1.375,1.197,1.352,244.457,-27.475,-57.207,
41199710,-1.568,-1.199,1.119,90.247,-32.865,65.59,
41199730,-1.12,1.003,1.937,137.567,-26.337,12.04,
41199730,0.42,-0.408,1.44,6.965,-37.432,-39.34,
41199750,-0.227,-0.461,1.167,-41.947,-26.792,-42.7,
41199750,0.195,-0.508,0.906,-67.97,-10.815,-52.342,
41199760,0.363,-0.597,0.936,-86.73,18.497,-60.375,
41199770,0.303,-0.481,0.995,-97.352,41.09,-51.117,
41199780,0.24,-0.531,0.997,-113.96,59.36,-47.81,
41199790,0.447,-0.549,1.015,-133.665,84.227,-45.15,
41199800,0.395,-0.554,0.965,-160.282,126.21,-39.672,
41199810,0.089,-0.49,0.759,-193.147,151.322,-49.647,
41199820,-0.45,-0.551,0.922,-229.88,141.312,-67.06,
41199830,-0.508,-0.572,0.937,-255.867,124.232,-75.985,
41199840,-0.017,-0.679,0.68,-283.255,119.315,-80.167,
41199850,0.497,-1.205,0.583,-302.96,131.6,-75.705,
41199860,0.312,-1.242,0.67,-284.48,187.617,-51.817,
41199870,-0.387,-1.638,0.932,-267.82,240.432,-21.875,
41199880,-0.259,-1.998,1.378,-226.222,225.4,-16.835,
41199890,1.685,-1.998,1.201,-139.02,186.935,-52.797,
41199900,1.875,-1.997,1.008,36.365,232.242,-173.39,
41199910,-0.351,-1.969,-0.014,195.65,167.037,-348.372,
41199920,-1.926,-1.031,-0.266,298.795,39.532,-383.057,
41199930,-1.992,-0.11,-0.546,347.602,-40.792,-362.162,
41199940,-1.48,0.5,-1.234,340.077,-72.345,-277.042,
41199950,-0.715,0.827,-1.963,303.205,-8.085,-118.317,
41199960,-0.829,1.062,-1.507,224.595,122.99,78.067,
41199970,-1.893,0.675,-0.444,72.502,100.747,188.632,
41199980,-1.998,-0.28,0.052,-65.975,-36.032,218.575,
41199990,-1.293,-0.996,0.135,-105.56,-160.527,248.955,
41200000,0.541,-0.801,-0.083,-76.317,-210.77,262.325,
41200010,1.823,-0.05,-0.239,-57.172,-154.875,263.865,
41200020,1.591,-0.06,-0.155,-77.542,-67.462,221.9,
41200030,0.976,-0.184,-0.498,-149.835,-25.147,98.63,
41200040,0,-0.577,0.678,35.77,-14.56,-45.587,
41200050,1.517,-1.985,1.848,14.752,65.485,-85.05,
41200060,-1.564,-1.945,-1.98,222.81,-17.675,-42.14,
41200070,0.662,1.482,1.281,453.005,62.562,-39.917,
41200080,-0.785,1.387,0.888,316.032,52.08,-32.655,
41200080,-0.173,-1.28,0.783,224.787,5.18,-69.002,
41200100,0.249,-0.908,0.995,266.91,-3.185,-54.39,
41200100,-0.264,1.319,1.968,313.967,-7.035,-35.647,
41200120,1.042,0.121,1.663,138.022,-24.202,-2.415,
41200120,-0.848,-0.57,1.415,27.842,-9.1,19.582,
41200140,-0.588,0.058,1.532,6.737,-5.617,-12.232,
41200140,0.117,-0.432,1.266,-74.322,-7.367,-45.692,
41200160,0.15,-0.193,1.288,-121.922,18.235,-58.345,
41200160,0.083,-0.401,1.147,-175.07,29.522,-55.685,
41200170,0.115,-0.554,1.019,-210.14,43.61,-57.575,
41200180,0.266,-0.635,0.906,-227.15,73.832,-57.277,
41200190,-0.284,-0.49,0.76,-238.262,109.357,-56.105,
41200200,-0.267,-0.427,0.838,-266.245,89.827,-87.08,
41200210,-0.03,-0.799,0.642,-300.317,84.07,-105.052,
41200220,0.173,-1.278,1.026,-310.135,106.872,-79.467,
41200230,0.163,-1.955,1.042,-291.707,150.955,-37.642,
41200240,0.009,-1.983,1.105,-232.61,184.782,-29.557,
41200250,-0.358,-1.917,0.531,-157.185,170.957,-42,
41200260,0.395,-1.892,0.972,-62.965,105.297,-94.99,
41200270,1.478,-1.998,0.645,58.887,87.465,-140.105,
41200280,-0.684,-1.854,-0.225,222.67,16.205,-232.33,
41200290,-1.662,-1.107,-0.471,295.995,-84.437,-293.422,
41200300,-1.198,-0.423,-0.788,311.815,-106.12,-200.9,
41200310,-0.715,-0.129,-0.954,293.702,-99.89,-62.615,
41200320,-0.687,-0.045,-1.078,242.69,-104.877,26.897,
41200330,-0.91,0.209,-1.1,196.752,-106.75,101.517,
41200340,-1.027,0.476,-0.89,146.79,-111.79,186.585,
41200350,-0.787,0.511,-0.533,48.79,-131.005,260.207,
41200360,-0.252,0.029,-0.338,-64.102,-150.447,316.732,
41200370,0.294,-0.509,-0.25,-115.115,-150.185,336.665,
41200380,0.723,-0.331,-0.124,-97.965,-125.702,330.785,
41200390,0.59,0.478,-0.027,-76.177,-110.88,314.44,
41200400,0.403,1.631,-0.196,-83.527,-131.145,264.127,
41200410,0.958,1.997,-0.278,-135.59,-155.54,185.797,
41200420,1.258,1.062,-0.256,-253.347,-155.05,71.855,
41200420,1.793,-1.997,1.635,-181.667,95.025,-33.442,
41200440,-1.998,-1.745,-1.997,263.567,45.815,24.01,
41200440,1.555,1.979,1.297,571.375,83.632,25.795,
41200460,-0.188,1.556,1.628,461.93,76.475,61.495,
41200460,-1.327,-1.906,0.97,170.537,-89.232,-28.227,
41200480,-0.487,0.893,1.696,391.107,-77.752,-48.44,
41200480,0.105,0.923,1.902,267.522,-94.78,-67.357,
41200500,0.798,0.648,1.691,45.955,-67.777,-61.862,
41200500,0.39,0.137,1.465,-52.832,-20.457,-42.962,
41200510,0.28,-0.627,0.934,-126.315,18.83,-44.082,
41200520,0.299,-0.578,1.017,-141.662,57.802,-50.067,
41200530,0.483,-0.191,1.241,-148.417,78.382,-37.677,
41200540,0.484,-0.295,1.142,-181.317,80.062,-6.475,
41200550,0.394,-0.339,1.011,-206.885,86.852,18.462,
41200560,0.272,-0.47,0.895,-225.015,100.415,31.675,
41200570,-0.006,-0.623,0.771,-233.275,110.845,34.335,
41200580,-0.515,-0.565,0.862,-226.835,102.445,28.892,
41200590,-0.35,-0.573,1.029,-244.912,99.12,11.97,
41200600,0.212,-1.161,0.637,-283.255,127.75,7.402,
41200610,0.194,-1.839,0.518,-290.237,165.112,2.677,
41200620,-0.05,-1.998,0.681,-254.975,187.145,-52.395,
41200630,1.799,-1.998,1.719,-198.187,145.39,-155.977,
41200640,1.998,-1.998,0.577,-14.455,329.577,-295.715,
41200650,-0.581,-1.909,-0.944,273.332,321.317,-507.482,
41200660,-1.998,-0.857,-0.949,319.445,131.495,-550.69,
41200670,-1.998,-0.196,-0.77,294.997,11.69,-469.122,
41200680,-1.696,0.016,-0.531,224.28,-66.29,-315.56,
41200690,-0.826,-0.07,-0.564,112.525,-93.782,-150.412,
41200700,-0.757,-0.276,-0.592,62.352,-66.325,16.117,
41200710,-1.011,-0.454,-0.426,65.31,-52.955,127.26,
41200720,-1.002,-0.427,-0.358,81.97,-92.19,174.667,
41200730,-0.575,-0.202,-0.303,89.022,-145.04,212.66,
41200740,-0.11,-0.024,-0.248,50.435,-182.28,266.262,
41200750,0.127,-0.1,-0.236,-28.315,-216.86,310.012,
41200760,0.278,-0.327,-0.359,-93.047,-249.602,327.215,
41200770,0.664,-0.334,-0.396,-122.325,-265.86,323.032,
41200780,1.235,-0.047,-0.383,-146.755,-256.147,304.85,
41200790,1.621,0.557,-0.304,-191.852,-234.342,254.292,
41200800,1.322,1.305,-0.43,-259.017,-228.655,138.355,
41200810,1.996,0.054,1.639,-189.017,30.712,67.375,
41200820,-1.573,-1.998,-0.265,39.795,391.58,327.425,
41200830,-0.76,-1.97,-1.82,490.787,-271.057,109.707,
41200830,1.945,-0.412,1.164,398.685,64.75,100.345,
41200850,-1.615,1.697,1.555,533.802,-3.99,-57.54,
41200850,-0.369,0.453,1.832,413.542,-28.385,-180.337,
41200870,0.201,-0.597,1.867,266.875,-34.335,-225.015,
41200870,0.92,1.756,1.998,246.102,-28.98,-231.262,
41200890,1.121,0.142,1.723,10.01,-18.042,-121.24,
41200890,0.339,0.362,1.711,-81.97,9.852,-39.865,
41200910,0.185,-0.448,1.143,-175.385,10.535,5.635,
41200910,0.167,-0.498,1.011,-191.66,21.472,8.925,
41200920,0.278,-0.463,1.071,-202.982,46.2,-0.77,
41200930,0.271,-0.424,1.079,-221.497,68.985,-2.047,
41200940,0.47,-0.494,0.87,-237.702,89.407,2.31,
41200950,0.26,-0.439,0.808,-233.327,112,13.632,
41200960,0.106,-0.373,0.775,-246.102,112.192,15.54,
41200970,-0.178,-0.747,0.809,-264.705,98.612,12.495,
41200980,-0.37,-1.077,0.85,-257.005,77.892,12.04,
41200990,-0.179,-1.453,0.904,-237.405,66.412,23.117,
41201000,0.048,-1.855,0.699,-216.597,105.052,50.54,
41201010,1.665,-1.998,1.983,-192.237,122.99,15.68,
41201020,1.993,-1.998,0.891,-51.817,132.562,-198.345,
41201030,0.262,-1.716,-0.307,235.252,146.177,-370.282,
41201040,-1.505,-0.685,-0.343,310.485,116.445,-372.382,
41201050,-1.53,-0.183,-0.471,260.785,42.472,-312.235,
41201060,-0.896,-0.041,-0.574,200.375,-28.175,-232.207,
41201070,-1.082,-0.14,-0.744,153.44,-101.115,-161.332,
41201080,-1.171,-0.152,-1.217,119.665,-136.972,-119.84,
41201090,-0.505,0.079,-1.392,106.942,-96.145,-68.442,
41201100,-0.121,0.254,-0.868,76.212,-23.117,0.577,
41201110,-0.722,-0.109,-0.438,1.032,4.252,45.465,
41201120,-1.315,-0.558,-0.202,-59.15,-19.005,57.522,
41201130,-1.153,-0.567,-0.122,-71.872,-56.717,68.267,
41201140,-0.695,-0.243,-0.217,-74.112,-75.075,104.177,
41201150,-0.742,0.036,-0.485,-91.052,-79.905,153.842,
41201160,-1.076,0.216,-0.634,-109.025,-94.115,183.365,
41201170,-0.773,0.9,-0.643,-108.412,-123.882,124.985,
41201170,1.998,-1.744,1.998,-30.555,190.872,193.515,
41201190,-1.39,-1.998,-1.542,150.412,44.345,222.635,
41201190,-1.081,0.595,-0.593,504.035,-130.76,-120.347,
41201210,0.687,1.56,1.147,393.312,136.22,42.315,
41201210,-1.156,-1.556,1.148,236.39,-24.605,-15.05,
41201230,0.199,0.186,1.717,320.687,-24.675,-50.522,
41201230,-0.289,0.728,1.99,248.815,-39.935,-69.177,
41201250,0.181,0.27,1.834,95.672,-48.142,-43.47,
41201250,0.104,0.292,1.667,-9.345,-33.775,-27.037,
41201260,0.018,-0.312,1.341,-110.6,-17.43,-23.887,
41201270,0.155,-0.375,1.201,-153.877,-1.61,-31.097,
41201280,0.256,-0.452,1.114,-184.607,13.51,-31.902,
41201290,0.337,-0.423,1.173,-201.635,29.26,-29.155,
41201300,0.179,-0.454,1.021,-214.427,41.65,-13.51,
41201310,0.324,-0.583,0.788,-221.567,55.44,-0.052,
41201320,0.07,-0.528,0.829,-213.272,53.917,1.452,
41201330,0.023,-0.581,0.698,-221.795,35.332,-19.267,
41201340,-0.184,-0.904,0.752,-227.22,26.267,-31.097,
41201350,-0.295,-1.134,0.823,-215.442,17.045,-40.722,
41201360,-0.136,-1.041,0.553,-189.297,10.937,-40.652,
41201370,0.091,-1.076,0.526,-177.537,38.797,-14.472,
41201380,0.022,-1.539,0.281,-137.69,57.26,-8.575,
41201390,1.095,-1.903,1.393,-79.03,69.545,-31.237,
41201400,1.693,-1.998,0.64,1.487,124.6,-60.34,
41201410,-0.257,-1.759,0.46,152.635,2.1,-216.615,
41201420,-1.437,-1.034,-0.078,246.102,-46.567,-280.595,
41201430,-1.88,-0.465,-0.329,276.307,-70.945,-210.857,
41201440,-1.717,-0.237,-0.678,267.68,-91.997,-106.662,
41201450,-1.253,0.124,-1.435,246.61,-110.967,13.317,
41201460,-0.847,0.631,-1.54,194.11,-92.067,123.165,
41201470,-0.853,0.616,-0.817,77.42,-76.685,217.262,
41201480,-1.105,-0.19,-0.163,-78.26,-91.437,296.835,
41201490,-1.149,-1.184,-0.077,-145.442,-120.417,350.77,
41201500,-0.988,-1.222,-0.361,-88.515,-172.882,356.685,
41201510,-0.3,0.148,-0.739,-38.5,-238.175,327.512,
41201520,-0.57,1.351,-0.902,-25.48,-274.96,315.42,
41201530,1.87,-1.178,1.996,-172.147,-39.55,217.035,
41201540,-0.327,-1.998,-1.87,93.677,117.215,94.465,
41201550,-1.998,0.098,-0.48,473.34,-83.422,-189.91,
41201560,1.081,1.549,0.574,310.765,106.837,15.19,
41201570,0.112,-1.51,1.097,272.212,30.66,-42.49,
41201580,-0.388,0.614,1.924,356.107,28.822,-82.092,
41201580,0.221,0.408,1.935,251.51,-5.355,-62.965,
41201600,0.067,0.542,1.792,109.392,-4.2,-41.16,
41201600,0.128,0.555,1.728,-1.33,9.957,-33.617,
41201620,0.321,-0.093,1.582,-123.55,34.195,-25.48,
41201620,0.01,-0.346,1.545,-203.122,60.165,-32.427,
41201640,-0.044,-0.223,1.313,-242.865,64.137,-28.332,
41201640,-0.01,-0.265,1.196,-282.52,56.367,-27.265,
41201650,0.002,-0.419,1.023,-316.75,49.227,-31.43,
41201660,0.046,-0.627,0.78,-330.452,42.315,-48.772,
41201670,-0.331,-0.53,0.954,-338.502,35.385,-72.642,
41201680,0.073,-1.022,0.721,-372.697,18.147,-96.74,
41201690,0.9,-0.919,0.581,-382.707,84.577,-76.282,
41201700,0.425,-1.893,0.596,-387.957,217.21,-20.702,
41201710,-0.405,-1.766,0.339,-326.322,282.87,-50.155,
41201720,-0.187,-0.982,0.932,-255.622,243.372,-95.532,
41201730,-0.3,-1.495,1.14,-193.83,177.257,-103.162,
41201740,1.671,-1.188,0.553,-115.587,163.415,-75.04,
41201750,0.657,-1.52,0.46,17.482,114.187,-188.037,
41201760,-1.32,-0.945,0.389,155.925,41.457,-291.357,
41201770,-1.928,-0.235,0.477,210.052,-22.26,-294.945,
41201780,-1.852,0.135,0.247,216.527,-73.255,-212.87,
41201790,-1.206,0.306,0.017,219.292,-84.21,-76.405,
41201800,-0.896,0.287,-0.147,218.295,-72.87,66.22,
41201810,-0.875,0.232,-0.354,217.63,-67.637,173.162,
41201820,-0.837,0.186,-0.507,231.157,-83.335,249.147,
41201830,-0.686,0.14,-0.54,220.307,-110.862,289.87,
41201840,-0.422,0.104,-0.772,176.995,-163.152,300.93,
41201850,-0.081,0.179,-1.01,131.722,-220.342,298.41,
41201860,0.432,0.321,-1.053,66.15,-243.53,294.507,
41201870,0.978,0.347,-1.039,-26.145,-233.012,283.045,
41201880,1.044,0.27,-0.819,-107.257,-210.735,250.355,
41201890,1.098,-1.159,0.219,-207.83,-203.42,142.222,
41201900,0.943,-1.998,0.579,-127.592,156.345,164.202,
41201910,-1.469,-0.922,-1.997,434.14,-263.322,98.805,
41201920,1.424,1.997,1.267,545.475,97.335,18.077,
41201920,-1.565,0.179,0.714,206.36,12.372,136.045,
41201940,-0.784,-1.998,0.338,78.82,-47.477,18.97,
41201940,-0.331,0.663,1.547,392.98,-16.292,-43.242,
41201960,-0.915,0.742,1.936,310.625,-50.172,-73.412,
41201960,0.778,-0.111,1.54,124.04,-73.657,-66.447,
41201980,0.448,1.006,1.743,56.175,-37.292,-46.707,
41201980,0.369,-0.097,1.453,-87.902,-14.892,-16.275,
41202000,-0.227,-0.103,1.54,-164.045,25.847,-33.285,
41202000,0.169,-0.366,1.266,-229.46,47.582,-49.682,
41202010,0.259,-0.358,1.154,-250.197,65.345,-53.97,
41202020,0.354,-0.354,1.015,-265.3,75.005,-47.005,
41202030,0.442,-0.568,0.749,-282.782,88.655,-28.402,
41202040,0.467,-0.603,0.827,-280.35,94.937,-13.405,
41202050,0.18,-0.477,0.775,-282.817,85.942,-12.215,
41202060,0.09,-0.638,0.838,-297.185,63.98,-15.102,
41202070,0.076,-1.043,0.658,-305.322,66.08,-2.327,
41202080,-0.067,-1.271,0.636,-288.05,88.13,22.96,
41202090,0.149,-1.829,0.661,-259.245,105.017,40.267,
41202100,1.53,-1.998,1.822,-225.137,103.005,-0.805,
41202110,1.998,-1.998,1.721,-106.172,138.81,-108.342,
41202120,0.648,-1.998,0.228,114.59,116.725,-288.715,
41202130,-1.385,-1.175,-0.355,298.602,55.422,-358.12,
41202140,-1.572,-0.247,-0.56,338.1,5.635,-330.96,
41202150,-1.255,-0.14,-1.091,282.257,-37.835,-253.172,
41202160,-0.945,0.026,-1.655,229.652,-44.695,-170.817,
41202170,-0.808,0.415,-1.546,184.432,-2.135,-93.03,
41202180,-1.134,0.256,-0.981,95.042,33.757,-4.34,
41202190,-1.492,-0.408,-0.285,-5.827,1.54,62.737,
41202200,-1.46,-0.916,0.135,-46.165,-67.042,110.845,
41202210,-1.079,-0.823,0.179,-24.815,-143.43,150.5,
41202220,-0.777,-0.335,-0.009,-1.032,-202.457,197.505,
41202230,-0.582,0.044,-0.413,-15.417,-235.97,256.97,
41202240,-0.714,0.238,-0.631,-52.815,-253.995,320.95,
41202250,-0.985,0.638,-0.76,-93.082,-288.12,363.702,
41202260,0.4,1.186,-0.564,-145.197,-281.697,396.252,
41202270,1.515,0.334,0.156,-212.502,-212.887,340.392,
41202280,1.574,-1.998,1.077,-52.867,214.305,119.14,
41202290,-1.998,-1.325,-1.997,366.625,-160.79,-28.962,
41202300,1.087,1.997,0.986,507.867,141.715,28.227,
41202300,0.524,-0.076,0.148,331.747,32.287,85.627,
41202320,-1.208,-1.513,0.895,296.187,-1.697,-12.617,
41202320,-0.789,1.708,1.991,462.192,13.177,-90.93,
41202330,0.3,0.552,1.998,231.98,-35.595,-119.997,
41202340,0.316,0.43,1.914,68.46,-21.455,-118.842,
41202350,0.032,0.251,1.828,-71.277,24.15,-109.655,
41202360,0.167,-0.267,1.566,-189.822,55.912,-111.807,
41202370,0.591,-0.273,1.522,-264.022,91.945,-124.967,
41202380,-0.157,-0.697,0.883,-324.047,153.317,-118.772,
41202390,-0.281,-0.513,0.991,-337.715,159.95,-129.115,
41202400,-0.016,-0.14,1.144,-350.717,129.097,-153.387,
41202410,0.156,-0.416,1.054,-387.205,87.465,-178.132,
41202420,0.447,-1.25,1.179,-420.437,73.43,-158.62,
41202430,1.042,-1.615,1.06,-393.557,130.007,-87.955,
41202440,0.753,-1.713,0.721,-347.305,241.622,-30.275,
41202450,-0.607,-1.544,0.739,-271.845,261.747,-55.825,
41202460,-0.192,-1.546,1.179,-197.365,194.932,-114.677,
41202470,1.508,-1.971,0.777,-123.392,157.972,-116.147,
41202480,0.353,-1.903,0.591,69.597,139.912,-206.132,
41202490,-1.601,-1.027,-0.133,244.44,98.087,-293.86,
41202500,-1.998,-0.147,-0.315,311.587,21.875,-298.06,
41202510,-1.64,0.218,-0.831,299.547,-22.732,-206.115,
41202520,-0.94,0.419,-1.439,260.977,-17.465,-65.152,
41202530,-0.599,0.64,-1.463,202.51,15.907,63.752,
41202540,-0.635,0.608,-1.074,107.817,29.855,156.957,
41202550,-0.653,0.216,-0.753,-7.595,6.982,211.19,
41202560,-0.459,-0.312,-0.429,-91.752,-24.675,248.115,
41202570,-0.094,-0.703,-0.147,-124.32,-55.51,259.385,
41202580,0.16,-0.71,0.052,-122.22,-79.117,250.915,
41202590,0.155,-0.528,0.139,-117.635,-95.165,239.347,
41202600,0.342,-0.612,0.187,-127.312,-98.245,230.405,
41202610,0.783,-0.297,-0.103,-165.095,-85.015,214.235,
41202620,0.897,-0.684,-0.075,-79.432,-42.595,189.7,
41202630,0.723,-0.435,0.391,58.852,-25.217,97.335,
41202640,0.663,-1.652,1.985,66.062,-92.61,-46.585,
41202650,1.287,-1.998,1.506,72.625,-117.232,-206.482,
41202660,-1.82,-1.7,-1.997,311.167,-70.595,-48.405,
41202670,1.54,1.885,0.762,497.717,-18.462,-73.657,
41202670,-0.464,-0.679,0.459,343.525,113.435,-30.012,
41202690,-1.189,-1.716,0.433,357.49,14.84,-70.105,
41202690,-0.032,1.332,1.804,509.74,18.602,-70.385,
41202710,-0.362,1.025,1.988,397.827,-20.737,-90.37,
41202710,0.415,-0.091,1.922,228.97,-53.725,-62.72,
41202730,0.145,0.741,1.995,141.75,-40.967,-39.48,
41202730,-0.043,0.163,1.71,-12.757,-26.74,-11.795,
41202750,0.038,-0.102,1.435,-115.797,-16.432,-14.927,
41202750,-0.097,-0.542,1.159,-185.85,7.857,-34.545,
41202760,0.167,-0.462,1.127,-219.467,32.147,-60.48,
41202770,0.47,-0.467,1.179,-253.12,66.465,-73.185,
41202780,0.049,-0.527,0.702,-278.565,113.575,-67.795,
41202790,-0.187,-0.611,0.809,-297.377,124.18,-87.15,
41202800,-0.034,-0.433,0.871,-311.43,104.387,-110.337,
41202810,0.053,-0.72,0.824,-332.43,100.432,-127.907,
41202820,0.5,-1.6,0.696,-350.647,125.387,-112.822,
41202830,0.94,-1.668,0.729,-317.66,196.402,-82.32,
41202840,0.721,-1.555,0.56,-282.555,296.45,-52.237,
41202850,0.069,-1.496,0.235,-261.45,327.407,-60.515,
41202860,-0.024,-1.143,0.601,-208.722,307.93,-100.695,
41202870,0.306,-1.47,0.802,-131.302,272.335,-89.442,
41202880,1.518,-1.533,0.379,-56.997,230.107,-92.977,
41202890,-0.037,-1.551,0.344,86.52,148.575,-191.537,
41202900,-0.85,-0.91,0.254,194.67,73.675,-274.82,
41202910,-1.38,-0.403,-0.07,253.47,-12.425,-275.485,
41202920,-1.934,-0.057,-0.393,290.815,-88.55,-234.832,
41202930,-1.567,0.418,-0.882,296.292,-127.207,-165.252,
41202940,-0.713,0.705,-1.311,258.055,-95.725,-42.7,
41202950,-0.995,0.562,-1.317,178.85,-29.732,102.795,
41202960,-1.609,0.091,-0.971,71.102,8.995,211.452,
41202970,-1.604,-0.669,-0.688,-23.467,3.692,287.927,
41202980,-1.34,-1.373,-0.473,-67.427,-24.237,337.68,
41202990,-1.226,-1.672,-0.438,-53.847,-67.935,360.342,
41203000,-0.705,-1.251,-0.641,-21.77,-125.912,362.512,
41203010,0.841,-0.676,-1.098,-48.615,-148.925,349.737,
41203010,1.646,-1.556,0.299,-125.545,-154.367,279.527,
41203030,1.989,-1.998,1.716,-105.875,-258.177,-8.295,
41203030,0.451,-0.559,0.909,302.365,-91.42,-118.65,
41203050,-1.998,0.778,-0.686,519.347,-111.09,-256.83,
41203050,0.363,-1.88,1.016,212.502,-33.11,-128.327,
41203070,1.824,-0.92,0.79,267.12,-26.442,7.787,
41203070,-1.437,1.079,1.758,385.175,-20.072,-83.055,
41203080,0.358,0.136,1.745,233.415,-31.377,-37.467,
41203090,0.186,-0.459,1.529,144.182,-29.417,-24.062,
41203100,-0.011,0.59,1.871,114.8,-8.172,-31.237,
41203110,0.285,-0.219,1.485,-15.96,1.872,-27.772,
41203120,0.241,0.036,1.551,-81.777,30.782,-34.23,
41203130,0.206,-0.307,1.345,-159.145,53.322,-30.572,
41203140,0.124,-0.362,1.226,-202.317,69.527,-29.592,
41203150,0.056,-0.363,1.12,-237.317,78.12,-28.7,
41203160,0.142,-0.751,0.844,-274.33,85.33,-35.525,
41203170,-0.399,-0.716,0.827,-283.797,108.36,-47.145,
41203180,-0.807,-0.694,0.712,-305.427,80.255,-77.455,
41203190,-0.078,-1.214,0.613,-325.692,74.392,-113.12,
41203200,0.168,-1.414,0.484,-303.45,117.775,-115.097,
41203210,-0.016,-1.35,0.788,-265.807,180.302,-101.745,
41203220,-0.145,-1.333,0.574,-237.982,219.502,-90.527,
41203230,-0.348,-0.999,0.592,-198.257,202.3,-106.277,
41203240,-0.726,-0.876,0.705,-148.96,164.675,-131.792,
41203250,-0.933,-1.379,0.542,-104.737,98.262,-125.51,
41203260,0.466,-1.149,0.169,-49.402,39.287,-111.352,
41203270,-0.14,-1.301,0.266,40.46,23.397,-159.582,
41203280,-1.52,-1.257,0.224,111.247,-23.345,-244.212,
41203290,-1.901,-0.819,0.246,183.277,-45.727,-254.485,
41203300,-1.943,-0.345,-0.044,235.76,-64.557,-178.605,
41203310,-1.887,0.106,-0.211,262.517,-60.725,-67.935,
41203320,-1.913,0.282,-0.24,265.195,-63.542,60.392,
41203330,-1.744,0.365,-0.17,237.335,-85.47,180.74,
41203340,-1.559,0.128,-0.152,194.25,-129.307,282.992,
41203350,-1.346,-0.149,-0.149,150.272,-184.397,357.98,
41203360,-0.866,-0.575,-0.253,111.737,-228.76,415.222,
41203370,-0.378,-0.728,-0.385,102.305,-254.467,450.852,
41203380,0.268,-0.444,-0.461,109.567,-249.655,485.415,
41203390,0.814,-0.051,-0.517,88.725,-214.777,521.85,
41203400,1.449,0.074,-0.471,41.492,-165.62,527.432,
41203410,1.921,0.093,-0.319,-10.255,-90.002,499.257,
41203420,0.096,-1.291,0.138,-92.26,-114.292,309.872,
41203420,1.855,-1.998,-0.561,-286.685,-218.575,-216.055,
41203440,-1.982,-0.54,-0.712,453.005,103.285,1.347,
41203440,0.701,1.997,1.408,487.515,-51.8,2.152,
41203460,1.168,0.327,1.775,175.21,-116.76,7.192,
41203460,-1.153,-1.158,1.343,157.587,-84.402,-58.117,
41203480,0.77,0.174,1.768,181.685,-77.035,-47.617,
41203480,-0.05,0.539,1.683,80.08,-46.27,-35.245,
41203500,0.553,-0.08,1.341,-28.892,-15.19,-33.88,
41203500,0.211,-0.269,1.178,-87.727,22.067,-36.82,
41203510,0.263,-0.445,1.126,-123.112,56.962,-36.802,
41203520,0.278,-0.228,1.209,-150.22,79.03,-32.182,
41203530,0.307,-0.414,1.163,-180.932,89.127,-19.757,
41203540,0.284,-0.393,1.112,-201.145,99.382,-10.552,
41203550,0.239,-0.422,1.018,-221.62,111.195,-2.082,
41203560,0.056,-0.527,0.82,-241.902,118.177,-1.015,
41203570,-0.342,-0.822,0.527,-249.462,113.837,-11.69,
41203580,-0.596,-0.829,0.596,-244.23,106.75,-34.475,
41203590,-0.408,-0.906,0.726,-260.172,86.887,-65.257,
41203600,-0.397,-1.074,0.477,-246.61,88.077,-67.147,
41203610,-0.222,-1.165,0.344,-237.37,81.567,-100.572,
41203620,1.279,-1.786,0.797,-277.182,39.375,-152.897,
41203630,-0.057,-1.173,0.53,-223.422,80.062,-172.812,
41203640,0.937,-1.45,0.886,-166.267,213.482,-112.472,
41203650,1.727,-1.648,0.96,-123.952,245.63,-143.395,
41203660,0.908,-1.531,0.43,-10.097,203.245,-276.605,
41203670,0.194,-1.148,0.208,89.775,164.325,-354.252,
41203680,-0.675,-0.755,-0.048,157.465,116.795,-353.657,
41203690,-1.455,-0.354,-0.027,191.065,50.067,-318.92,
41203700,-1.998,-0.153,-0.159,193.97,-35.35,-271.792,
41203710,-1.62,0.206,-0.706,180.197,-98.402,-196.735,
41203720,-0.89,0.607,-0.435,151.427,-69.702,-37.205,
41203730,-1.038,0.135,-0.036,87.325,-30.992,135.887,
41203740,-1.182,-0.54,-0.043,51.992,-25.217,248.622,
41203750,-0.988,-0.637,0.091,74.462,-40.215,287.682,
41203760,-0.69,-0.329,0.185,94.482,-77.437,289.065,
41203760,-0.26,-0.087,0.04,78.68,-114.362,282.327,
41203780,-0.076,-0.118,-0.348,55.317,-126.455,273.857,
41203780,1.693,-1.353,1.355,40.88,-112.297,240.642,
41203800,1.998,-1.998,1.757,98.665,20.265,160.142,
41203800,0.091,-1.998,1.211,169.242,-25.462,-84.77,
41203820,-1.949,-1.338,-1.767,266.595,-133.682,-89.74,
41203820,0.468,1.769,1.572,329.98,51.572,-6.247,
41203830,0.212,0.444,0.948,211.54,54.88,-19.845,
41203840,-0.853,-1.809,0.862,145.985,7.875,-96.495,
41203850,0.18,-0.615,1.065,225.172,23.1,-93.222,
41203860,-0.338,0.693,1.87,236.565,12.827,-112.402,
41203870,0.189,-0.165,1.513,115.325,-18.917,-90.527,
41203880,0.359,-0.19,1.427,58.555,-13.545,-79.975,
41203890,0.337,0.191,1.549,5.215,3.36,-70.945,
41203900,0.296,-0.151,1.525,-77.787,15.592,-51.922,
41203910,0.317,-0.148,1.555,-139.02,25.515,-37.555,
41203920,0.373,-0.284,1.438,-201.862,34.422,-24.517,
41203930,0.238,-0.699,1.006,-262.22,79.572,-9.1,
41203940,-0.378,-0.877,1.087,-289.45,78.435,-27.317,
41203950,0.182,-0.802,1.126,-309.96,48.072,-64.61,
41203960,0.443,-1.004,0.886,-329.805,66.01,-49.525,
41203970,0.846,-1.54,0.321,-334.127,130.322,-11.06,
41203980,1.6,-1.998,0.828,-367.325,120.925,-34.93,
41203990,0.951,-1.998,-0.828,-264.652,66.692,-94.762,
41204000,1.783,-1.737,-0.102,-100.397,8.715,-187.425,
41204010,-0.013,-1.344,0.177,-83.632,-50.277,-305.497,
41204020,-1.338,-0.983,0.342,-55.895,-82.32,-331.152,
41204030,-1.963,-0.571,0.334,-15.137,-119.665,-262.745,
41204040,-1.857,-0.263,0.312,9.835,-146.825,-164.902,
41204050,-1.47,-0.171,0.328,4.935,-173.95,-61.232,
41204060,-1.144,-0.286,0.23,11.865,-186.585,52.587,
41204070,-0.725,-0.39,0.149,31.01,-186.76,133.035,
41204080,-0.226,-0.359,0.098,52.867,-172.48,181.352,
41204090,0.061,-0.218,0.116,62.037,-153.02,212.94,
41204100,0.047,-0.067,0.203,45.937,-130.515,232.785,
41204110,-0.06,-0.082,0.228,1.697,-103.46,255.465,
41204120,-0.01,-0.207,0.245,-37.852,-78.907,282.537,
41204130,0.181,-0.318,0.277,-50.767,-61.67,296.152,
41204140,0.363,-0.201,0.289,-39.007,-41.16,294.35,
41204150,0.528,0.158,0.224,-14.385,-18.392,277.83,
41204160,0.77,0.481,0.163,4.34,8.505,241.412,
41204170,1.046,0.762,0.253,-10.797,45.5,180.512,
41204170,0.897,0.945,0.49,-46.357,81.585,105.105,
41204190,0.562,0.429,0.205,-77.35,81.83,-0.262,
41204190,-1.169,-0.014,-0.208,76.09,-56.42,-102.235,
41204210,-1.639,-1.489,1.667,137.882,-362.862,-167.475,
41204210,1.995,-1.998,0.29,59.15,-97.79,84.105,
41204230,1.725,1.147,0.059,352.415,-13.755,-49.735,
41204230,-1.897,1.127,0.957,223.93,143.202,48.562,
41204250,-1.333,-1.988,1.141,116.2,94.307,39.917,
41204250,1.436,-0.289,0.913,233.432,-12.197,28.752,
41204260,-1.235,0.189,1.701,182.21,4.06,10.885,
41204270,-0.624,-0.221,1.429,103.74,-34.387,-19.425,
41204280,0.037,-0.541,1.459,32.357,-32.025,-45.167,
41204290,-0.247,-0.566,1.248,-18.112,-32.9,-69.667,
41204300,0.009,-0.589,1.23,-72.887,-27.177,-86.047,
41204310,-0.339,-0.354,1.294,-113.417,-32.095,-94.937,
41204320,-0.237,-0.511,1.136,-156.45,-46.462,-106.977,
41204330,0.001,-0.781,0.894,-192.062,-55.527,-128.52,
41204340,0.275,-0.85,0.859,-219.187,-40.092,-145.495,
41204350,0.515,-0.855,0.803,-245.665,-5.145,-150.622,
41204360,-0.154,-1.377,0.15,-259.122,34.51,-112.035,
41204370,0.984,-1.343,0.997,-258.702,81.532,-99.417,
41204380,0.453,-1.467,0.77,-258.65,174.037,-77.857,
41204390,-0.103,-1.233,0.859,-213.412,196.21,-73.482,
41204400,-0.34,-0.908,0.858,-172.13,182.385,-68.46,
41204410,-0.487,-0.865,0.719,-132.195,113.89,-88.007,
41204420,-0.282,-1.201,0.731,-90.23,33.757,-90.86,
41204430,-0.04,-1.008,1.046,-42.892,3.727,-76.755,
41204440,-0.575,-1.009,0.637,83.492,-14.7,-85.172,
41204450,-1.081,-0.63,0.382,206.115,-52.36,-83.405,
41204460,-0.742,-0.134,0.212,277.077,-56.665,-40.407,
41204470,-0.44,0.111,-0.092,312.602,-43.365,18.252,
41204480,-0.315,0.336,-0.339,314.79,-19.6,58.257,
41204490,-0.404,0.593,-0.435,291.007,2.012,97.842,
41204500,-0.492,0.752,-0.379,252.14,13.16,152.565,
41204510,-0.392,0.661,-0.302,193.147,4.305,204.68,
41204510,-0.081,0.401,-0.211,114.572,-8.242,235.305,
41204530,0.174,0.018,-0.146,54.425,-13.58,250.197,
41204530,0.448,-0.275,-0.129,31.657,-5.005,251.107,
41204550,0.804,-0.415,-0.005,19.757,20.37,240.45,
41204550,0.869,-0.664,0.188,8.96,49.35,216.3,
41204570,0.674,-1.016,0.09,53.62,60.112,153.93,
41204570,0.532,-1.916,0.155,106.575,-37.415,65.957,
41204580,1.441,-1.998,0.123,-104.72,-37.152,-45.045,
41204590,-1.904,-0.356,-1.606,294.875,-141.015,-54.652,
41204600,-0.053,1.997,1.979,443.94,66.71,-16.012,
41204610,-0.652,-0.32,1.184,50.872,69.772,52.15,
41204620,-0.06,-1.979,0.402,9.1,-19.722,-71.68,
41204630,-0.119,1.102,1.699,261.117,28.28,-57.155,
41204640,-0.579,0.706,1.829,114.52,11.655,-75.215,
41204650,0.405,-0.988,1.155,-26.512,-6.79,-70.297,
41204660,-0.045,-0.046,1.425,-17.622,5.792,-64.365,
41204670,0.075,-0.23,1.384,-85.575,7.752,-55.282,
41204680,0.07,-0.449,1.271,-139.737,9.922,-47.53,
41204690,-0.067,-0.616,1.061,-168.507,23.065,-49.455,
41204700,-0.274,-0.644,0.9,-188.422,34.055,-66.5,
41204710,-0.091,-0.732,0.787,-215.565,36.557,-98.035,
41204720,-0.046,-0.622,0.673,-231.525,59.517,-124.967,
41204730,-0.082,-1.061,0.824,-247.747,87.832,-136.482,
41204740,0.175,-1.116,0.947,-244.44,104.23,-157.377,
41204750,0.344,-0.867,0.888,-220.657,128.415,-153.65,
41204760,0.506,-1.183,0.318,-221.865,166.267,-123.655,
41204770,-0.247,-0.775,0.527,-201.372,195.51,-86.1,
41204780,0.279,-0.757,0.7,-179.462,216.352,-92.015,
41204790,0.028,-0.981,0.721,-162.54,207.917,-74.147,
41204800,-0.226,-0.909,0.847,-116.025,166.355,-87.605,
41204810,-0.079,-0.862,0.934,-78.242,120.12,-83.597,
41204820,0.675,-0.883,0.811,-36.085,103.022,-65.397,
41204830,0.01,-0.854,0.941,38.447,70.962,-94.202,
41204840,-1.189,-0.665,0.862,112.017,5.337,-132.09,
41204850,-1.405,-0.225,0.483,172.322,-62.212,-125.755,
41204860,-1.192,0.262,0.026,225.015,-98.017,-72.712,
41204870,-0.983,0.543,-0.181,260.802,-93.747,12.372,
41204880,-0.999,0.491,-0.389,263.06,-72.205,114.992,
41204890,-0.795,0.383,-0.661,241.202,-40.932,204.4,
41204900,-0.285,0.348,-0.709,208.967,-6.072,262.062,
41204910,0.233,0.199,-0.578,133.647,8.89,265.317,
41204920,0.548,-0.159,-0.386,33.617,-16.257,210.402,
41204920,0.856,-0.479,-0.227,-55.212,-49.875,124.18,
41204940,0.801,-1.494,-0.088,-116.2,-76.842,26.74,
41204940,1.905,-1.998,0.942,-38.552,-16.31,-107.275,
41204950,-1.245,-1.104,-1.285,243.775,11.917,-105.367,
41204960,-1.619,1.997,1.966,419.282,89.932,9.695,
41204970,0.183,0.943,1.287,210.402,19.67,14.297,
41204980,0.842,-1.998,0.006,51.415,-12.005,-8.75,
41204990,-0.193,0.031,0.932,267.627,12.792,15.925,
41205000,-0.842,1.008,1.822,275.187,11.2,16.03,
41205010,-0.258,-0.986,1.193,115.517,-20.405,2.345,
41205020,-0.505,0.29,1.684,131.6,-16.975,-26.145,
41205030,-0.082,-0.125,1.5,40.792,-28.245,-38.01,
41205040,0.096,-0.075,1.507,-36.277,-24.167,-45.797,
41205050,0.129,-0.111,1.425,-103.617,-15.067,-40.67,
41205060,0.144,-0.295,1.267,-163.24,-7.245,-36.732,
41205070,0.178,-0.356,1.161,-197.382,2.607,-35.507,
41205080,0.258,-0.406,1.092,-224.735,20.37,-29.715,
41205090,0.259,-0.633,0.891,-249.532,45.657,-27.23,
41205100,-0.181,-0.569,0.691,-246.522,56.175,-36.872,
41205110,0.024,-0.666,0.791,-272.65,40.215,-60.042,
41205120,-0.125,-0.801,0.806,-286.755,46.515,-71.785,
41205130,-0.109,-1,0.656,-287.927,43.102,-81.427,
41205140,0.118,-1.132,0.73,-265.702,60.795,-56.647,
41205150,-0.002,-1.193,0.773,-237.055,97.072,-15.277,
41205160,-0.03,-1.498,0.586,-202.58,114.257,6.597,
41205170,-0.133,-1.161,0.576,-154.21,78.067,-13.877,
41205180,-0.155,-1.224,0.864,-104.195,23.59,-44.52,
41205190,0.099,-1.578,0.886,-43.925,-36.662,-57.172,
41205200,0.285,-1.42,0.694,75.022,-52.465,-62.912,
41205210,-0.547,-0.971,0.496,193.077,-92.33,-109.392,
41205220,-1.177,-0.613,0.178,250.915,-138.635,-120.89,
41205230,-1.204,-0.192,-0.186,285.565,-166.18,-74.112,
41205240,-1.006,0.199,-0.436,315.805,-160.422,-1.155,
41205250,-0.974,0.516,-0.646,312.725,-135.275,77.77,
41205260,-1.024,0.933,-0.853,274.05,-100.52,160.09,
41205260,-1.021,1.266,-1.148,221.077,-74.427,244.107,
41205280,-0.623,1.347,-1.118,125.597,-54.617,298.112,
41205280,-0.071,0.932,-1.048,-8.767,-72.817,286.107,
41205300,0.75,0.466,-0.751,-112.367,-93.362,219.327,
41205300,1.226,-0.284,-0.081,-178.85,-79.677,138.337,
41205320,1.434,-1.399,1.572,-293.772,29.522,3.325,
41205320,-0.43,-1.998,-1.37,78.68,238.332,-80.43,
41205330,-1.239,1.22,0.92,548.712,71.19,-36.732,
41205340,-0.863,1.997,1.221,495.11,93.59,89.547,
41205350,-0.177,-0.833,1.023,152.932,-22.75,-1.242,
41205360,-0.3,-0.977,0.973,190.155,-33.425,-22.96,
41205370,-0.785,1.52,1.976,327.915,-38.99,-39.077,
41205380,0.452,-0.199,1.408,71.54,-52.412,-35.192,
41205390,0.223,0.64,1.608,3.762,-19.757,-37.222,
41205400,0.294,-0.263,1.358,-108.01,2.607,-25.095,
41205410,0.245,-0.313,1.253,-146.632,34.562,-33.232,
41205420,0.12,-0.387,1.263,-192.85,58.135,-32.182,
41205430,0.213,-0.227,1.152,-211.365,59.64,-18.182,
41205440,0.111,-0.348,0.966,-241.342,58.03,-5.355,
41205450,0.113,-0.448,0.853,-257.53,58.8,0.875,
41205460,-0.044,-0.471,0.815,-262.517,63.542,1.522,
41205470,-0.222,-0.675,0.747,-266.735,53.375,-12.46,
41205480,-0.193,-0.69,0.818,-256.532,39.602,-19.425,
41205490,-0.076,-0.947,0.775,-269.605,28.612,-19.757,
41205500,-0.007,-1.115,0.68,-256.725,31.675,-10.08,
41205510,-0.261,-1.094,0.643,-220.815,42.892,11.007,
41205520,-0.338,-1.127,0.708,-188.37,39.182,25.882,
41205530,-0.322,-1.15,0.712,-146.265,8.75,36.697,
41205540,-0.27,-1.014,0.483,-106.19,-32.305,36.557,
41205550,-0.324,-1.022,0.503,-78.417,-100.52,20.737,
41205560,-0.286,-1.25,0.267,-32.9,-170.52,10.517,
41205570,0.558,-1.368,0.397,17.062,-197.645,16.852,
41205580,1.293,-1.281,0.209,94.587,-164.762,19.897,
41205590,0.84,-0.818,0.314,157.57,-119.63,-10.15,
41205600,0.151,-0.545,0.137,182.577,-76.685,-15.61,
41205610,0.008,-0.29,-0.31,194.967,-48.807,12.25,
41205620,0.123,0.08,-0.56,210.63,-26.337,31.115,
41205620,0.248,0.534,-0.719,182.962,-23.73,26.285,
41205640,0.233,0.763,-0.818,106.137,-31.22,12.635,
41205640,-0.176,0.903,-0.862,22.697,-53.27,-3.447,
41205660,-0.443,1.675,-0.908,-48.562,-102.585,-36.697,
41205660,-0.083,1.934,-0.847,-112.927,-119.437,-49.717,
41205670,0.739,-0.425,0.846,-250.565,-87.675,-50.715,
41205680,-0.994,-1.998,-0.469,-81.375,267.645,328.667,
41205690,0.648,0.153,-1.109,493.78,-116.742,135.905,
41205700,-0.419,1.976,1.878,542.622,197.662,129.01,
41205710,-1.879,-0.864,1.651,326.742,-19.512,17.92,
41205720,-0.165,-0.901,1.491,388.64,-50.61,-85.19,
41205730,0.347,1.821,1.998,430.115,-92.767,-209.58,
41205740,1.418,0.298,1.686,119.332,-71.54,-139.807,
41205750,0.688,1.222,1.657,15.505,-15.872,-51.66,
41205760,-0.761,-0.908,1.217,-133.297,19.932,-12.337,
41205770,-0.201,-0.39,1.143,-144.637,34.632,-61.512,
41205780,0.102,-0.475,1.195,-172.305,48.632,-85.242,
41205790,0.239,-0.335,1.251,-205.152,55.107,-86.38,
41205800,0.353,-0.339,1.172,-240.03,66.727,-74.725,
41205810,0.094,-0.573,0.737,-262.955,85.312,-55.282,
41205820,0.144,-0.409,0.897,-260.452,83.422,-57.715,
41205830,0.073,-0.569,0.917,-276.71,67.917,-68.022,
41205840,-0.212,-0.888,1.025,-268.082,37.065,-79.082,
41205850,0.173,-1.036,0.706,-267.977,10.255,-80.272,
41205860,0.39,-1.388,0.726,-253.312,52.255,-39.515,
41205870,0.502,-1.494,0.538,-225.487,101.202,-43.872,
41205880,0.259,-1.603,0.615,-179.742,94.517,-80.5,
41205890,1.648,-1.907,0.798,-154.945,72.047,-118.755,
41205900,1.998,-1.772,0.27,-54.985,149.52,-136.78,
41205910,0.686,-1.423,0.201,69.982,145.337,-267.452,
41205920,-1.531,-0.876,-0.104,127.505,88.252,-339.762,
41205930,-1.998,-0.368,-0.245,152.302,8.697,-314.79,
41205940,-1.815,0.043,-0.27,145.215,-21.42,-214.585,
41205950,-1.124,0.001,-0.231,112.227,-39.83,-83.335,
41205960,-1.056,-0.361,-0.205,78.557,-53.077,17.465,
41205970,-1.233,-0.576,-0.187,82.355,-67.182,62.405,
41205980,-1.265,-0.473,-0.154,106.347,-91,91.717,
41205990,-1.102,-0.216,-0.125,101.307,-120.032,137.69,
41206000,-0.98,-0.105,-0.179,70.227,-146.37,203.437,
41206010,-0.822,-0.126,-0.335,40.005,-165.007,271.705,
41206010,-0.645,-0.168,-0.437,17.57,-173.407,322.91,
41206030,-0.6,0.011,-0.487,-6.23,-186.567,356.965,
41206030,-0.622,0.196,-0.784,-22.89,-198.572,383.372,
41206050,0.094,-0.559,0.932,-39.97,-246.225,284.042,
41206050,1.971,-1.998,0.684,-85.19,248.955,271.197,
41206070,-1.788,-1.336,-1.983,361.34,-19.985,-144.2,
41206070,-1.802,1.957,1.101,430.552,101.255,-114.1,
41206080,1.517,0.522,0.34,256.62,90.965,105.227,
41206090,0.23,-1.975,1.056,189.787,15.942,33.075,
41206100,-1.332,0.844,1.817,319.725,21.105,-22.05,
41206110,0.07,0.155,1.784,213.885,-22.575,-33.757,
41206120,-0.262,-0.141,1.646,112.665,-30.975,-55.755,
41206130,0.19,0.206,1.556,46.077,-22.925,-68.495,
41206140,0.251,-0.164,1.265,-43.907,-4.2,-67.34,
41206150,0.328,-0.386,1.007,-87.867,15.4,-59.657,
41206160,0.495,-0.415,0.925,-103.25,36.102,-45.15,
41206170,0.518,-0.333,0.996,-109.637,51.572,-19.075,
41206180,0.542,-0.365,1.018,-123.2,61.285,16.992,
41206190,0.423,-0.469,0.969,-134.732,76.825,47.74,
41206200,0.311,-0.504,0.931,-139.51,96.022,61.775,
41206210,0.17,-0.63,0.898,-141.277,115.395,58.765,
41206220,-0.174,-0.71,0.684,-137.462,130.375,46.235,
41206230,-0.702,-0.646,0.526,-123.147,132.65,31.465,
41206240,-0.629,-0.568,0.668,-114.817,129.465,19.705,
41206250,-0.163,-0.689,0.911,-120.925,132.002,18.462,
41206260,0.199,-0.995,0.777,-126.087,165.462,19.687,
41206270,0.287,-1.335,0.397,-115.027,199.43,18.095,
41206280,0.525,-1.73,0.815,-104.002,209.107,-10.972,
41206290,1.182,-1.998,1.596,-88.462,131.652,-77.665,
41206300,1.834,-1.998,0.63,16.24,69.877,-142.852,
41206310,0.108,-1.761,-0.102,166.267,-34.562,-245.717,
41206320,-1.195,-0.67,-0.233,227.64,-139.387,-293.002,
41206330,-1.151,0.046,-0.648,188.667,-202.212,-239.032,
41206330,-0.543,0.357,-0.996,109.55,-246.05,-151.76,
41206350,-0.254,0.337,-0.947,20.457,-267.522,-81.637,
41206350,-0.091,0.25,-0.61,-64.872,-220.325,-5.337,
41206370,-0.366,0.091,-0.075,-138.267,-167.037,77.14,
41206370,-1.125,0.077,-0.22,-174.65,-195.09,102.532,
41206390,-0.14,0.316,1.805,-115.902,-218.715,102.462,
41206390,0.925,0.62,1.998,39.707,-25.305,167.545,
41206410,-0.788,1.916,1.392,314.16,14.962,248.797,
41206410,-1.286,-1.411,-0.488,158.235,18.322,280.332,
41206420,0.071,-1.979,-0.992,88.777,-6.825,181.79,
41206430,-1.543,1.54,1.443,490.367,68.005,24.64,
41206440,0.369,0.345,1.254,286.352,-2.817,14.997,
41206450,-0.364,-1.162,0.381,57.522,-51.065,55.912,
41206460,-0.857,1.666,1.988,285.407,-12.652,-30.047,
41206470,0.209,-0.893,1.288,10.027,-46.637,-11.13,
41206480,-0.318,0.475,1.606,-12.32,-29.015,-25.06,
41206490,-0.143,-0.619,1.059,-95.707,-37.572,-26.145,
41206500,-0.061,-0.434,1.007,-103.022,-33.32,-43.382,
41206510,-0.005,-0.668,0.847,-115.465,-22.347,-56.612,
41206520,0.1,-0.579,0.907,-116.27,0.07,-73.64,
41206530,0.189,-0.511,0.931,-125.16,20.055,-82.705,
41206540,0.349,-0.511,0.88,-132.23,40.057,-79.537,
41206550,0.567,-0.488,0.951,-135.87,60.06,-67.48,
41206560,0.179,-0.618,0.799,-146.037,95.2,-44.695,
41206570,0.062,-0.415,0.924,-148.767,81.462,-42.612,
41206580,-0.035,-0.414,0.779,-158.147,60.76,-39.147,
41206590,-0.075,-0.757,0.856,-174.405,43.505,-34.58,
41206600,-0.019,-0.757,0.929,-164.832,31.027,-28.665,
41206610,-0.213,-0.825,0.978,-150.325,18.112,-21.472,
41206620,-0.303,-1.024,0.776,-131.092,-7.787,-16.152,
41206630,-0.158,-0.957,0.728,-102.41,-32.935,-5.67,
41206640,-0.144,-0.989,0.587,-76.912,-53.62,6.737,
41206650,-0.178,-1.069,0.713,-51.555,-81.13,21.367,
41206660,-0.05,-1.465,1.044,-29.802,-99.4,49.122,
41206670,0.341,-1.399,0.31,49.63,-110.39,68.057,
41206680,0.176,-0.618,0.135,149.485,-120.785,47.775,
41206690,-0.173,0.118,-0.216,157.01,-104.317,49.07,
41206700,-0.227,0.258,-0.505,115.64,-72.467,97.685,
41206710,-0.04,0.326,-0.468,76.912,-57.137,130.182,
41206720,0.092,0.469,-0.253,45.622,-49.262,146.405,
41206730,0.165,0.666,0,2.292,-48.65,148.995,
41206740,0.246,0.819,0.171,-27.422,-49.927,132.912,
41206750,0.506,0.77,0.283,-15.4,-44.292,99.785,
41206760,1.399,0.022,1.292,54.565,7.542,61.792,
41206760,0.833,-1.998,-0.091,0.752,280.77,180.687,
41206780,-1.711,-1.843,-1.48,209.055,36.312,107.415,
41206780,-1.805,1.654,1.384,535.762,35.647,89.39,
41206800,-1.233,1.384,1.898,396.532,-63.647,45.762,
41206800,-0.535,-1.583,1.353,186.497,-118.912,-41.352,
41206820,-0.55,0.416,1.835,287.892,-110.687,-132.335,
41206820,0.972,0.907,1.769,147.14,-91.157,-141.487,
41206830,0.683,0.772,1.546,15.382,-33.267,-96.775,
41206840,0.083,-0.192,1.431,-92.33,9.52,-43.715,
41206850,-0.155,-0.452,1.006,-131.775,12.267,-24.325,
41206860,0.177,-0.674,0.762,-135.922,3.447,-18.06,
41206870,0.34,-0.647,0.75,-117.512,3.92,-10.36,
41206880,0.132,-0.557,0.879,-103.897,9.765,2.03,
41206890,0.069,-0.44,0.933,-99.347,10.412,13.177,
41206900,0.12,-0.486,0.871,-102.13,11.515,23.695,
41206910,0.226,-0.554,0.8,-100.135,17.5,33.915,
41206920,0.413,-0.598,0.727,-92.575,36.137,44.852,
41206930,0.61,-0.65,0.745,-83.755,73.097,54.32,
41206940,0.573,-0.645,0.831,-73.5,124.075,59.815,
41206950,0.455,-0.882,1,-66.587,170.642,67.147,
41206960,0.118,-1.151,1.077,-56.262,188.545,88.025,
41206970,-0.89,-1.566,0.711,-18.392,167.352,126.805,
41206980,-1.015,-1.741,1.572,52.045,60.497,137.795,
41206990,-0.345,-1.576,0.392,116.515,-81.445,90.685,
41207000,1.894,-1.053,0.194,139.982,-204.96,-9.59,
41207010,1.796,-0.55,-0.529,140.665,-205.607,-50.312,
41207020,0.52,-0.197,-0.568,129.307,-146.527,-66.08,
41207030,-0.721,0.045,-0.909,77.017,-154.962,-78.75,
41207040,-1.003,0.417,-1.023,29.382,-198.852,-70.297,
41207050,-0.267,0.713,-0.602,-43.96,-163.957,-4.602,
41207060,0.866,0.944,-0.204,-118.895,-61.932,93.222,
41207070,-0.384,-0.198,1.068,-119.77,204.4,268.537,
41207080,-1.756,0.848,0.706,236.775,18.427,307.212,
41207080,-1.864,-0.941,0.396,201.95,-170.887,199.657,
41207100,-1.591,-1.641,0.553,111.842,-199.99,123.007,
41207100,1.227,1.963,1.977,357.42,-144.725,-0.332,
41207120,-0.048,-0.203,0.98,59.71,-101.325,-47.18,
41207120,0.33,0.32,1.001,-1.925,-72.17,-51.03,
41207140,0.609,0.231,1.064,-25.655,-42.262,-38.71,
41207140,0.638,-0.701,0.856,-85.75,-10.535,-25.882,
41207160,0.309,-0.467,0.826,-58.887,22.697,-24.727,
41207160,0.332,-0.561,0.859,-46.27,39.602,-18.742,
41207170,0.266,-0.491,0.838,-38.885,51.17,-8.645,
41207180,-0.063,-0.544,0.879,-30.835,59.78,3.972,
41207190,-0.28,-0.446,0.922,-22.4,57.855,8.137,
41207200,-0.292,-0.494,0.898,-22.26,47.67,9.905,
41207210,-0.336,-0.57,0.865,-16.835,34.877,10.675,
41207220,-0.397,-0.549,0.842,-4.077,20.195,7.437,
41207230,-0.288,-0.524,0.865,9.31,4.34,-0.21,
41207240,-0.167,-0.519,0.875,19.092,-5.512,-8.26,
41207250,-0.115,-0.499,0.921,26.757,-12.302,-11.655,
41207260,0.056,-0.466,0.89,29.575,-15.435,-9.152,
41207270,-0.011,-0.458,0.884,33.985,-15.085,0.84,
41207280,-0.07,-0.5,0.903,36.697,-15.347,8.977,
41207290,-0.06,-0.438,0.934,43.54,-17.167,13.58,
41207300,-0.061,-0.315,0.908,49.595,-16.45,18.637,
41207310,-0.057,-0.187,0.983,45.377,-18.025,15.417,
41207320,-0.072,-0.223,0.874,30.152,-14.402,12.092,
41207330,-0.111,-0.11,0.904,25.112,-13.09,5.162,
41207340,-0.041,-0.129,0.929,13.79,-10.307,-0.962,
41207350,-0.042,-0.35,0.884,-2.152,-9.852,-4.62,
41207360,-0.037,-0.313,0.903,-0.717,-6.86,-6.37,
41207370,0.011,-0.283,0.931,-2.572,-5.827,-4.882,
41207380,-0.032,-0.418,0.928,-10.832,-4.182,-1.802,
41207390,-0.097,-0.427,0.94,-8.907,-4.235,-0.577,
41207400,-0.103,-0.376,0.939,-7.542,-3.937,0.437,
41207410,-0.066,-0.389,0.933,-8.365,-5.862,0.49,
41207420,-0.061,-0.388,0.929,-6.912,-5.39,0.787,
41207430,-0.062,-0.361,0.929,-4.76,-6.002,0.437,
41207440,-0.058,-0.369,0.927,-5.232,-5.32,0.595,
41207450,-0.07,-0.392,0.929,-3.36,-5.74,0.63,
41207460,-0.061,-0.353,0.94,-1.89,-5.005,0.49,
41207470,-0.065,-0.383,0.928,-4.042,-5.845,0.63,
41207480,-0.071,-0.365,0.924,-2.887,-5.6,0.7,
41207490,-0.073,-0.331,0.923,-3.29,-6.562,0.472,
41207500,-0.059,-0.314,0.917,-6.23,-6.772,0.7,
41207510,-0.055,-0.298,0.921,-10.132,-7.07,1.295,
41207510,-0.065,-0.269,0.963,-15.575,-6.86,2.327,
41207530,-0.078,-0.273,0.973,-23.747,-8.96,1.715,
41207530,-0.183,-0.255,1.069,-29.767,-13.055,1.732,
41207550,-0.173,-0.257,1.073,-42.892,-22.872,-1.417,
41207550,-0.071,-0.321,1.031,-61.32,-29.872,-1.225,
41207570,-0.062,-0.39,1.022,-69.842,-34.23,2.257,
41207570,-0.187,-0.44,1.051,-74.48,-47.162,8.96,
41207580,0.082,-0.433,0.824,-69.072,-63.157,22.225,
41207590,0.199,-0.194,0.779,-52.115,-61.967,33.057,
41207600,0.34,-0.074,0.822,-49.98,-54.705,43.032,
41207610,0.08,-0.391,0.691,-65.765,-37.345,41.755,
41207620,0.071,-0.719,0.561,-58.747,-22.4,30.537,
41207630,0.017,-0.959,0.316,-26.792,-3.64,8.837,
41207640,-0.213,-1.444,0.279,3.692,24.115,-12.477,
41207650,-0.265,-0.987,0.589,64.96,32.917,-34.912,
41207660,-0.184,-0.477,0.998,121.415,23.03,-47.985,
41207670,0.013,-0.417,1.332,124.022,8.47,-47.95,
41207680,0.263,0.551,1.449,97.825,5.302,-44.642,
41207690,0.272,0.128,1.168,15.627,11.147,-21.857,
41207700,0.105,-0.403,1.004,-32.077,21.787,-0.577,
41207710,-0.263,-0.279,1.104,-41.825,24.08,4.112,
41207720,-0.311,-0.431,1.153,-65.257,16.432,-1.19,
41207730,-0.293,-0.424,1.164,-88.76,14.035,-20.265,
41207740,-0.388,-0.52,1.251,-119.035,10.937,-47.092,
41207750,-0.177,-0.461,1.161,-132.247,-0.682,-63.227,
41207760,-0.133,-0.502,1.085,-146.457,-3.185,-70.385,
41207770,0.021,-0.45,0.885,-154.087,1.26,-71.382,
41207780,0.033,-0.542,0.953,-168.28,22.277,-72.327,
41207790,0.157,-0.51,0.906,-177.292,32.672,-88.375,
41207800,0.104,-0.514,0.839,-185.36,36.872,-103.74,
41207810,0.035,-0.66,0.592,-187.967,33.372,-113.102,
41207820,0.08,-1.011,0.633,-183.067,46.935,-106.365,
41207830,0.273,-1.225,0.601,-160.247,48.44,-113.715,
41207830,0.546,-1.091,0.477,-119.84,57.12,-128.327,
41207850,0.394,-1.557,0.137,-95.602,112.315,-94.71,
41207850,-0.153,-1.576,0.959,-58.065,122.342,-66.377,
41207870,0.739,-1.472,0.489,-8.575,111.212,-95.935,
41207870,0.355,-0.979,0.238,55.352,69.93,-119.525,
41207890,0.009,-0.302,-0.109,105.122,69.37,-102.48,
41207890,-0.306,0.11,-0.412,108.325,68.512,-44.712,
41207910,-0.389,0.363,-0.474,75.547,42.822,-2.432,
41207910,-0.431,0.401,-0.453,20.37,1.662,28.175,
41207920,-0.435,0.319,-0.574,-40.617,-34.982,62.492,
41207930,-0.308,0.316,-0.611,-87.517,-57.155,94.342,
41207940,-0.527,0.475,-0.683,-123.917,-80.045,100.38,
41207950,1.473,-1.039,1.941,-162.26,12.092,48.597,
41207960,-0.19,-1.983,0.745,28.42,324.31,186.025,
41207970,-1.722,0.189,-1.177,339.972,-104.947,8.207,
41207980,-0.559,-1.34,0.72,149.52,29.662,50.995,
41207990,0.842,-1.438,0.516,151.69,31.08,83.65,
41208000,-1.722,0.85,1.383,308.227,16.59,13.457,
41208010,-0.511,-0.431,1.21,207.515,-19.53,-17.517,
41208020,-0.328,-0.677,1.228,182.665,-32.917,-58.695,
41208030,0.443,0.816,1.859,180.302,-30.835,-84.98,
41208040,-0.405,-0.354,1.299,47.442,-14.017,-27.055,
41208050,0.731,0.046,1.266,-30.52,-28.07,17.395,
41208060,-0.73,-0.332,1.28,-59.902,-11.357,-14.087,
41208070,0.242,-0.442,1.158,-108.727,2.66,-37.607,
41208080,0.035,-0.412,1.17,-134.26,18.83,-40.775,
41208090,0.164,-0.36,1.125,-155.452,27.615,-31.64,
41208100,0.087,-0.516,1.036,-178.867,32.83,-21.892,
41208110,0.207,-0.472,0.984,-186.2,32.655,-12.495,
41208120,0.224,-0.487,0.886,-193.55,43.557,-2.065,
41208130,-0.065,-0.505,0.889,-196.665,43.015,-1.732,
41208140,-0.053,-0.7,0.895,-208.705,30.957,-11.532,
41208150,0.055,-0.989,0.958,-212.38,47.425,-5.705,
41208160,0.139,-1.197,1.022,-202.125,83.247,9.835,
41208170,-0.006,-1.22,0.798,-182.542,110.092,21.245,
41208180,-0.223,-1.505,0.344,-154.612,112.63,35.385,
41208190,-0.095,-1.609,0.374,-105.227,79.38,27.737,
41208200,-0.154,-1.285,0.623,-17.657,14.262,17.937,
41208210,0.429,-1.133,0.396,57.82,-23.94,29.172,
41208220,-0.132,-0.804,-0.043,121.66,-70.087,14.857,
41208230,-0.312,-0.435,-0.049,134.26,-120.26,-12.845,
41208240,-0.201,-0.353,-0.182,117.967,-136.342,12.547,
41208250,-0.029,-0.357,-0.266,107.082,-134.102,41.44,
41208260,-0.029,-0.259,-0.277,99.172,-124.862,56.682,
41208260,-0.15,-0.097,-0.364,84.07,-117.215,63.525,
41208270,-0.215,0.076,-0.648,69.125,-105.315,71.627,
41208280,-0.177,0.374,-1.033,48.177,-84.822,79.992,
41208290,-0.209,0.776,-1,-6.737,-67.585,82.092,
41208300,-0.454,0.947,-0.61,-125.002,-76.247,71.242,
41208310,-0.569,-0.036,0.422,-236.057,-100.17,66.832,
41208320,1.928,-1.942,1.976,-234.377,58.817,71.715,
41208330,-1.239,-1.998,0.683,231.98,-28.42,17.92,
41208340,-0.31,-1.93,-1.507,214.042,-199.92,-43.347,
41208350,1.484,-0.186,1.803,194.705,117.32,21.017,
41208360,-1.446,0.833,1.054,238.315,42.087,-37.205,
41208370,-0.654,-1.153,1.01,137.97,16.572,-61.775,
41208380,0.582,-0.545,1.331,145.862,35.175,-66.5,
41208390,-0.719,0.522,1.695,134.75,26.057,-85.872,
41208400,0.305,-0.367,1.466,25.252,21.787,-77.192,
41208410,0.092,-0.154,1.456,-26.565,28.245,-72.992,
41208420,0.198,-0.152,1.416,-86.187,35.717,-57.767,
41208430,0.335,-0.408,1.318,-143.08,40.442,-41.16,
41208440,-0.037,-0.325,1.197,-162.557,56.805,-20.37,
41208450,-0.068,-0.42,1.007,-193.83,41.737,-25.025,
41208460,0.004,-0.55,0.867,-221.585,23.87,-30.555,
41208470,0.007,-0.698,0.893,-236.197,18.795,-36.207,
41208480,-0.001,-0.846,0.966,-240.397,25.812,-35.612,
41208490,0.156,-1.212,1.038,-237.247,54.722,-21.927,
41208500,-0.05,-1.664,1.018,-205.992,93.292,2.222,
41208510,-0.021,-1.356,0.553,-150.202,109.987,17.622,
41208520,-0.285,-0.966,0.298,-108.01,119.402,27.422,
41208530,-0.373,-0.725,0.01,-41.247,80.85,-13.475,
41208540,-0.187,-0.622,0.737,13.615,41.72,-39.742,
41208550,0.577,-0.716,1.429,69.142,56.805,-17.57,
41208560,-0.353,-0.491,0.399,181.615,4.165,-67.042,
41208570,-1.347,0.349,-0.085,261.257,-107.73,-145.617,
41208580,-1.148,1.07,-0.479,267.767,-103.915,-93.695,
41208580,-1.113,1.066,-0.511,192.99,-101.447,39.165,
41208600,-0.895,0.493,-0.607,103.425,-93.677,166.705,
41208600,-0.469,-0.049,-0.455,43.575,-80.902,243.88,
41208620,0.031,-0.328,-0.14,-2.835,-61.582,264.355,
41208620,0.217,-0.36,-0.12,-31.675,-43.592,265.405,
41208640,-0.045,-0.854,-0.721,-30.782,-38.325,226.327,
41208640,1.727,-1.998,1.081,-94.5,-72.677,33.67,
41208660,-0.561,-1.977,-1.348,65.835,-125.965,43.365,
41208660,-1.998,1.612,1.852,463.277,20.107,48.947,
41208670,-0.859,1.702,1.674,318.5,-21.735,26.915,
41208680,0.003,-1.891,0.495,37.66,-77.472,3.815,
41208690,-0.574,-0.606,0.717,241.5,-53.2,-64.855,
41208700,-0.658,1.138,1.729,291.882,-34.125,-100.852,
41208710,0.346,-0.848,1.206,111.93,-41.177,-119.822,
41208720,0.38,0.367,1.617,107.082,-17.08,-120.872,
41208730,0.511,0.011,1.49,17.955,1.015,-84.035,
41208740,0.399,0.038,1.476,-55.79,22.382,-47.687,
41208750,0.319,-0.143,1.355,-119.787,39.812,-17.675,
41208760,0.299,-0.291,1.218,-171.587,57.96,0.175,
41208770,0.235,-0.324,1.109,-204.12,77.262,9.45,
41208780,0.238,-0.437,1.012,-224.315,93.397,14.857,
41208790,0.339,-0.421,0.923,-234.78,113.487,23.187,
41208800,0.41,-0.577,1.051,-252.98,147.56,33.005,
41208810,0.738,-0.893,1.167,-261.607,224.63,55.072,
41208820,0.552,-1.044,0.83,-243.425,339.57,97.86,
41208830,0.521,-1.088,0.594,-223.982,422.485,123.357,
41208840,0.816,-1.099,0.974,-169.505,479.727,125.265,
41208850,0.95,-1.5,1.707,-69.877,459.567,76.107,
41208860,-0.868,-1.985,1.419,28.507,305.462,-49.14,
41208870,-0.186,-1.651,1.681,108.64,50.487,-220.08,
41208880,-0.702,-0.834,0.789,281.61,-95.27,-266.49,
41208890,-1.353,0.371,0.067,386.61,-168.21,-231.98,
41208900,-1.136,1.347,-0.473,363.79,-258.475,-217.087,
41208910,-0.209,1.731,-1.265,261.047,-306.442,-207.9,
41208920,0.508,1.55,-1.001,131.11,-231.472,-148.33,
41208920,-0.332,0.755,-0.717,16.52,-86.975,-44.17,
41208940,-1.457,0.389,-0.463,-16.065,-11.865,25.777,
41208940,-1.105,0.718,-0.195,-4.445,-27.492,63.7,
41208960,-0.229,1.026,0.065,-27.317,-53.06,117.442,
41208960,0.768,-1.456,0.432,-198.607,-9.992,78.487,
41208980,-1.721,-1.998,-1.366,-235.34,-275.467,111.44,
41208980,0.98,0.234,1.515,509.635,-111.055,182.665,
41209000,-1.312,1.997,1.998,528.097,-44.817,79.625,
41209000,-1.408,-1.02,0.816,170.03,-141.155,-46.935,
41209010,-0.261,-0.905,0.905,265.877,-143.272,-139.125,
41209020,0.927,1.45,1.943,376.337,-146.16,-171.727,
41209030,1.639,0.281,1.247,108.43,-109.567,-60.217,
41209040,0.284,0.452,1.301,39.27,-33.477,-2.205,
41209050,0.491,-0.155,1.051,-40.197,3.78,11.69,
41209060,0.358,-0.216,1.09,-67.742,34.09,15.365,
41209070,-0.167,-0.501,1.006,-96.372,49.577,23.59,
41209080,-0.276,-0.511,1.006,-100.52,51.31,18.812,
41209090,-0.358,-0.536,0.951,-99.452,48.387,6.23,
41209100,-0.34,-0.615,0.877,-93.432,44.8,-12.425,
41209110,-0.323,-0.551,0.957,-92.82,49.665,-32.427,
41209120,-0.26,-0.489,0.928,-104.247,51.887,-52.622,
41209130,-0.235,-0.531,0.933,-119.752,52.325,-67.847,
41209140,-0.17,-0.55,0.912,-128.922,57.907,-77.49,
41209150,-0.201,-0.547,0.867,-130.847,64.032,-85.925,
41209160,-0.207,-0.566,0.89,-139.3,74.532,-89.495,
41209170,-0.387,-0.774,0.865,-149.257,78.435,-93.03,
41209180,-0.572,-1.077,0.709,-134.872,65.047,-104.615,
41209190,-0.549,-1.088,0.639,-99.347,42.647,-112.822,
41209200,-0.512,-1.09,0.536,-74.147,35.07,-111.947,
41209210,-0.569,-1.16,0.535,-37.397,25.392,-119.245,
41209220,-0.583,-1.408,0.435,-2.257,3.29,-137.515,
41209230,-0.115,-1.433,0.533,29.977,-12.18,-148.557,
41209240,-0.582,-1.605,-0.25,42.087,23.1,-66.972,
41209250,-1.996,-0.391,-0.166,103.425,-34.895,-24.08,
41209260,-1.071,0.049,-0.119,88.55,-43.557,-44.8,
41209270,-0.277,0.131,-0.12,-16.887,-45.902,58.222,
41209280,-0.22,-0.22,-0.289,-74.48,-23.275,131.845,
41209290,-0.089,-0.086,-0.343,-94.15,20.562,148.33,
41209300,-0.049,0.838,-0.259,-97.772,55.195,151.515,
41209310,-0.448,1.406,1.107,-85.82,37.415,59.692,
41209320,1.998,-1.764,1.29,-93.555,83.09,-141.26,
41209330,-0.44,-1.998,-1.812,196.507,9.765,-203.227,
41209330,-1.664,-0.99,0.626,255.885,70.455,-227.167,
41209350,1.269,1.61,1.062,273.805,79.66,-89.722,
41209350,1.69,-0.024,1.151,234.85,-4.48,-6.23,
41209370,-0.55,-1.156,1.354,162.715,6.51,58.152,
41209370,-0.196,0.538,1.862,201.372,-24.377,65.467,
41209390,-0.57,-0.172,1.551,89.11,-32.9,80.377,
41209390,-0.603,0.057,1.495,27.107,-24.867,46.69,
41209410,-0.468,-0.191,1.327,-31.202,-18.83,3.937,
41209410,-0.072,-0.32,1.223,-72.817,-12.687,-26.617,
41209420,0.09,-0.401,1.079,-97.195,-6.93,-36.872,
41209430,0.291,-0.529,0.927,-115.692,-6.877,-26.495,
41209440,0.374,-0.5,0.87,-121.432,-0.542,-8.102,
41209450,0.254,-0.494,0.908,-124.355,6.93,13.37,
41209460,0.171,-0.562,0.919,-120.032,5.845,33.285,
41209470,0.072,-0.585,0.89,-107.905,2.835,49.402,
41209480,0.105,-0.583,0.867,-98.42,6.51,58.677,
41209490,0.365,-0.602,0.754,-94.272,18.69,66.92,
41209500,0.474,-0.802,0.899,-94.5,45.01,76.265,
41209510,0.236,-0.906,0.915,-90.387,64.715,87.815,
41209520,-0.298,-1.297,0.826,-76.177,67.987,102.095,
41209530,-0.326,-1.725,1.666,-55.265,23.905,106.575,
41209540,-0.318,-1.725,0.948,7.262,-3.465,159.32,
41209550,0.016,-1.11,0.378,101.955,-106.26,159.267,
41209560,0.468,-0.39,-0.642,103.162,-189.805,121.152,
41209570,-0.385,-0.262,-0.652,53.025,-251.86,101.675,
41209580,-0.758,-0.305,-0.535,-36.102,-278.145,117.81,
41209590,-0.561,-0.305,-0.569,-123.427,-251.597,186.742,
41209600,-0.305,-0.368,-0.47,-171.955,-205.362,262.71,
41209610,0.077,-0.474,-0.482,-197.89,-164.255,297.657,
41209620,0.382,-0.297,-0.459,-201.985,-121.397,299.617,
41209630,0.513,0.362,-0.273,-166.845,-101.517,267.575,
41209640,1.176,0.473,1.098,-155.96,-116.952,161.875,
41209650,1.251,-1.295,1.551,-28.052,112.997,154.612,
41209660,-1.998,-0.689,-1.482,270.217,13.212,111.772,
41209670,-1.17,-1.982,-0.213,112.017,-137.725,65.975,
41209670,1.504,-0.796,0.816,200.602,-72.38,53.147,
41209690,-1.847,1.137,1.238,318.902,-82.162,-57.102,
41209690,-0.051,-1.469,0.743,176.26,-75.39,-129.587,
41209710,-0.053,-0.22,1.267,209.562,-27.072,-182.927,
41209710,0.228,0.59,1.668,179.585,-11.777,-187.022,
41209730,0.835,-0.135,1.474,71.995,-4.97,-149.467,
41209730,0.75,0.296,1.564,22.032,7.42,-92.732,
41209750,0.633,-0.087,1.368,-51.957,8.575,-21.175,
41209750,0.393,-0.272,1.194,-106.032,12.967,30.73,
41209760,-0.038,-0.421,1.06,-140.962,26.075,53.76,
41209770,-0.212,-0.534,0.975,-158.112,32.532,50.295,
41209780,-0.274,-0.685,0.927,-157.727,39.795,34.23,
41209790,-0.198,-0.603,0.863,-149.747,46.97,14.98,
41209800,0.044,-0.565,0.765,-154.98,62.475,-1.312,
41209810,0.076,-0.576,0.704,-162.697,93.345,-9.642,
41209820,-0.042,-0.67,0.698,-166.11,121.782,-18.27,
41209830,-0.11,-0.789,0.72,-159.652,132.772,-23.572,
41209840,0.023,-0.861,0.564,-149.1,145.407,-18.305,
41209850,-0.118,-1.073,0.642,-138.617,149.31,-2.047,
41209860,0.086,-1.468,1.147,-119.157,169.207,29.242,
41209870,1.259,-1.663,1.478,-55.72,225.277,30.922,
41209880,-0.029,-1.969,0.878,37.187,169.995,-47.687,
41209890,-1.288,-1.559,0.281,128.257,-58.03,-170.03,
41209900,-0.343,-0.629,0.143,211.75,-126.175,-186.392,
41209910,-0.371,-0.343,-0.352,226.8,-149.152,-145.95,
41209920,-0.558,0.081,-1.389,212.975,-168.052,-125.58,
41209930,-0.443,0.924,-1.481,183.715,-163.1,-102.812,
41209940,-0.373,1.192,-0.878,73.955,-97.877,-28.017,
41209950,-0.896,0.41,-0.516,-81.287,-47.722,56.14,
41209960,-1.578,0.041,-0.331,-141.137,-44.38,98.735,
41209970,-1.807,0.044,-0.563,-134.015,-100.432,74.41,
41209980,1.679,-1.827,1.939,-66.377,-6.755,41.895,
41209990,1.31,-1.998,-1.892,139.475,26.67,151.69,
41210000,-1.81,-0.881,0.933,327.425,-3.027,-37.642,
41210010,-1.36,1.61,1.513,329.56,75.547,9.8,
41210020,0.062,0.238,1.371,240.502,-0.035,-22.207,
41210030,-0.547,-1.599,0.971,173.635,-29.277,-47.197,
41210040,-0.208,0.622,1.68,237.527,-21.98,-79.712,
41210050,0.05,0.056,1.514,123.13,-27.702,-76.457,
41210060,0.277,-0.092,1.443,47.075,-12.337,-66.727,
41210070,0.089,0.043,1.448,-14.192,10.15,-53.987,
41210080,0.088,-0.205,1.332,-88.322,27.247,-38.955,
41210080,0.131,-0.25,1.223,-135.415,40.197,-29.662,
41210100,0.176,-0.402,1.098,-173.092,50.365,-19.985,
41210100,0.081,-0.484,0.983,-192.237,61.092,-11.217,
41210120,0.163,-0.543,0.878,-201.477,66.745,-8.855,
41210120,0.107,-0.494,0.86,-193.392,77.122,-0.21,
41210140,0.121,-0.525,0.765,-197.225,86.765,5.775,
41210140,-0.054,-0.534,0.817,-198.782,83.702,1.505,
41210160,-0.129,-0.746,0.843,-201.022,80.062,3.01,
41210160,-0.082,-1.119,0.9,-196.367,81.235,10.15,
41210170,0.04,-1.182,0.611,-169.61,77.122,20.265,
41210180,0.05,-1.3,0.936,-137.462,83.282,53.672,
41210190,1.19,-1.779,1.492,-105.857,162.242,88.112,
41210200,1.238,-1.998,0.894,19.792,153.632,-6.177,
41210210,-0.079,-1.536,0.634,148.365,-37.502,-163.625,
41210220,-0.174,-0.453,-0.051,241.972,-81.445,-224.472,
41210230,-0.432,0.335,-0.944,279.44,-87.482,-181.457,
41210240,-0.717,0.729,-0.951,224.612,-130.602,-158.252,
41210250,-0.459,0.757,-0.967,107.922,-172.882,-140.49,
41210260,-0.379,0.488,-0.748,11.637,-125.93,-55.632,
41210270,-0.892,0.222,-0.36,-64.715,-67.217,49.227,
41210280,-1.374,-0.028,-0.242,-101.64,-71.225,100.992,
41210290,-1.467,0.104,-0.273,-57.662,-123.235,130.777,
41210300,1.924,-1.632,1.998,-22.54,21.91,183.312,
41210310,-1.143,-1.998,-1.329,27.072,55.002,317.31,
41210320,-0.098,-1.062,-0.397,275.012,-144.812,72.905,
41210330,-1.495,1.669,1.632,324.485,46.34,96.53,
41210340,-1.588,-0.063,1.188,214.095,-31.132,24.482,
41210350,-0.396,-1.559,0.857,187.215,-54.337,-32.182,
41210360,-0.756,0.149,1.548,257.302,-32.375,-119.857,
41210370,0.002,0.181,1.604,165.865,-35.945,-156.327,
41210380,0.532,0.022,1.528,68.215,-27.02,-141.767,
41210390,0.503,0.306,1.557,6.65,-6.282,-105.612,
41210400,0.383,-0.092,1.394,-78.172,10.937,-56.997,
41210410,0.355,-0.18,1.302,-129.885,21.56,-23.292,
41210420,0.376,-0.327,1.139,-168.56,27.65,4.235,
41210420,0.289,-0.417,1.055,-188.055,34.877,25.445,
41210440,0.239,-0.497,0.967,-197.242,43.435,37.24,
41210440,0.251,-0.571,0.879,-192.587,49.682,47.617,
41210460,0.3,-0.438,0.823,-182.56,61.95,63.507,
41210460,0.191,-0.53,0.798,-188.055,72.747,71.977,
41210480,-0.103,-0.726,0.817,-184.87,69.79,72.17,
41210480,-0.415,-0.924,0.582,-168.927,56.017,76.79,
41210500,-0.352,-0.97,0.536,-141.767,33.6,82.127,
41210500,-0.176,-0.996,0.529,-119.367,10.062,86.695,
41210510,-0.566,-1.324,0.966,-100.362,-20.475,92.697,
41210520,0.069,-1.605,0.675,-61.46,-102.252,83.807,
41210530,1.942,-1.654,0.807,1.645,-149.467,51.047,
41210540,1.518,-0.974,-0.278,97.79,-146.842,-23.1,
41210550,0.303,-0.032,-0.558,169.452,-116.06,-107.625,
41210560,-0.696,0.282,-0.588,131.95,-118.527,-122.937,
41210570,-0.744,0.254,-0.427,49.122,-156.222,-102.27,
41210580,-0.279,0.1,-0.238,-22.347,-165.34,-59.605,
41210590,-0.343,-0.143,-0.168,-50.995,-146.667,0.875,
41210600,0.534,-0.717,1.56,-41.247,-42.63,78.33,
41210610,-1.588,-0.61,1.308,82.162,200.707,247.012,
41210620,-1.142,-1.121,1.444,121.502,84.962,224.262,
41210630,-0.973,-1.982,-0.654,100.747,-87.255,148.085,
41210640,-0.467,-1.409,0.904,157.99,-38.587,109.935,
41210650,-1.594,0.305,0.949,250.652,-31.832,8.68,
41210660,-1.136,-0.491,0.996,211.715,-45.412,-93.625,
41210670,-0.15,-1.339,0.687,178.99,-9.625,-174.93,
41210680,-0.509,-0.026,1.231,225.592,23.31,-250.127,
41210690,0.56,0.436,1.676,172.41,21.122,-242.952,
41210700,0.987,0.371,1.645,89.302,17.657,-182.56,
41210710,0.929,0.305,1.526,17.08,14.35,-95.13,
41210720,0.596,-0.097,1.285,-53.76,10.78,-6.072,
41210730,0.182,-0.34,1.12,-99.75,15.172,42.28,
41210740,-0.162,-0.487,1.004,-125.457,22.54,51.712,
41210750,-0.208,-0.543,1.002,-132.072,23.31,39.375,
41210760,-0.175,-0.569,1.022,-137.41,27.667,17.92,
41210770,-0.015,-0.538,0.979,-148.75,38.36,-1.802,
41210780,0.111,-0.67,0.887,-166.932,63.227,-12.495,
41210790,0.076,-0.592,0.829,-169.487,96.722,-15.312,
41210800,-0.204,-0.457,0.836,-180.25,114.975,-16.695,
41210810,-0.394,-0.705,0.69,-197.942,101.395,-37.45,
41210820,-0.578,-0.997,0.774,-195.72,67.042,-54.722,
41210830,-0.192,-1.02,0.73,-172.147,26.635,-63.962,
41210830,0.187,-0.969,0.866,-157.027,30.432,-46.445,
41210850,0.088,-1.616,0.562,-145.67,41.177,-33.827,
41210850,0.725,-1.74,0.952,-88.165,24.377,-48.877,
41210870,1.991,-1.995,1.02,-69.632,17.395,-68.075,
41210870,1.874,-1.698,0.222,56.927,76.142,-110.74,
41210890,-0.072,-0.731,0.34,187.005,7.507,-249.795,
41210890,-1.253,-0.191,0.355,203.437,-62.702,-287.245,
41210910,-1.21,0.184,0.027,176.645,-120.522,-204.872,
41210910,-1.335,0.198,-0.029,137.427,-181.457,-104.667,
41210920,-1.684,0.067,-0.589,114.607,-248.605,-18.497,
41210930,-1.078,0.348,-1.147,106.365,-223.177,80.902,
41210940,-0.544,0.731,-0.751,71.732,-149.572,206.482,
41210950,-0.746,0.385,-0.444,-32.865,-116.112,304.482,
41210960,-0.733,-0.331,-0.652,-111.667,-126.822,343.787,
41210970,0.278,-0.152,-0.317,-121.905,-156.45,298.707,
41210980,1.998,-1.738,1.988,-120.715,3.132,255.272,
41210990,0.162,-1.998,1.162,81.112,268.45,247.03,
41211000,-1.998,-1.786,-1.953,263.462,-105.665,-26.197,
41211010,-0.687,-0.152,1.257,254.082,64.68,30.73,
41211020,0.437,-0.34,0.699,201.145,63,107.432,
41211030,-1.522,-0.829,1.154,218.925,32.427,-56.875,
41211040,-0.675,-0.008,1.405,205.082,41.335,-111.72,
41211050,-0.538,-0.366,1.525,141.172,40.932,-150.325,
41211060,0.055,-0.018,1.654,93.905,42.875,-180.897,
41211070,0.331,0.061,1.577,14.752,50.26,-179.235,
41211080,0.399,-0.052,1.491,-60.112,66.692,-154.21,
41211090,0.444,-0.312,1.355,-126.21,82.355,-118.002,
41211100,0.125,-0.404,1.202,-167.79,97.387,-85.715,
41211110,-0.039,-0.598,1.084,-195.37,93.345,-80.045,
41211120,-0.164,-0.465,0.951,-214.252,79.852,-81.882,
41211130,-0.054,-0.578,0.941,-243.582,73.867,-94.08,
41211140,-0.206,-0.903,0.926,-262.395,69.02,-107.065,
41211150,-0.144,-0.775,0.901,-240.205,50.417,-132.842,
41211160,0.132,-0.544,0.861,-225.995,53.882,-134.365,
41211170,0.242,-0.899,0.555,-246.575,82.425,-96.25,
41211170,0.475,-1.357,0.442,-243.792,112.63,-68.022,
41211190,-0.226,-0.834,0.608,-189.367,123.725,-63,
41211190,-0.303,-0.902,0.581,-150.272,104.632,-77,
41211210,-0.48,-0.979,0.76,-122.78,58.502,-58.065,
41211210,0.439,-1.068,0.708,-86.625,7.227,-51.94,
41211230,0.777,-1.081,0.744,-31.115,-16.362,-65.765,
41211230,-1.021,-1.382,0.598,68.67,-52.5,-130.69,
41211250,-1.998,-0.645,0.885,187.197,-120.54,-175.822,
41211250,-1.998,-0.168,0.587,256.882,-200.007,-159.845,
41211260,-1.998,0.339,-0.004,264.95,-244.317,-48.09,
41211270,-1.676,0.107,-0.685,251.072,-239.767,122.64,
41211280,-1.339,0.527,-1.234,249.042,-217.997,252.595,
41211290,-1.387,0.911,-1.398,224.63,-209.265,439.477,
41211300,-1.002,0.027,-1.656,145.442,-208.547,563.08,
41211310,0.315,-1.514,-1.633,61.932,-187.792,573.352,
41211320,1.621,-1.992,-1.572,24.657,-157.412,541.1,
41211330,1.998,-1.998,1.9,-98.297,-93.187,318.132,
41211340,0.403,-1.998,-0.807,-47.425,-25.357,-28.735,
41211350,-1.998,0.391,-1.328,512.33,-198.572,-150.115,
41211360,-0.008,1.997,1.998,437.692,119.77,8.96,
41211370,1.393,0.378,1.367,117.985,-30.432,157.762,
41211380,0.019,-1.998,1.077,30.52,-9.502,45.99,
41211390,-0.482,-0.308,1.538,142.747,22.837,-12.635,
41211400,-0.779,1.216,1.982,79.905,22.662,-30.31,
41211410,-0.257,-0.218,1.905,-105.245,-2.432,-45.185,
41211420,0.126,-0.204,1.85,-200.532,5.67,-64.82,
41211430,-0.044,0.166,1.767,-262.29,16.432,-92.12,
41211440,-0.402,-0.138,1.432,-325.185,-6.72,-99.592,
41211450,0.177,-0.929,1.038,-389.9,-44.45,-107.1,
41211460,0.088,-1.015,1.116,-387.765,-33.372,-87.097,
41211470,0.135,-0.288,0.722,-317.187,-28.752,-90.23,
41211480,0.216,-0.771,0.663,-304.587,-2.905,-83.877,
41211490,0.151,-0.93,1.098,-288.785,55.72,-42.525,
41211500,0.068,-0.59,0.78,-213.29,53.742,-44.87,
41211510,0.871,-0.66,0.903,-171.692,44.31,-43.645,
41211520,1.968,-0.158,1.392,-169.89,206.815,36.382,
41211530,1.655,0.752,1.871,-12.932,349.755,68.67,
41211540,0.842,-0.728,1.658,87.78,277.637,-85.96,
41211550,-0.176,-0.801,1.399,181.265,215.477,-164.15,
41211560,-0.687,0.047,1.418,280.087,125.3,-157.675,
41211570,-0.956,0.197,1.231,298.585,13.107,-130.042,
41211570,-1.265,0.011,0.791,271.53,-97.142,-91.542,
41211580,-1.497,-0.081,0.352,269.132,-176.68,-49.542,
41211590,-1.624,0.042,-0.004,281.802,-221.077,-1.4,
41211600,-1.489,0.217,-0.183,274.47,-225.207,60.27,
41211610,-1.338,0.36,-0.323,234.902,-192.832,147.175,
41211620,-1.204,0.436,-0.176,180.932,-132.09,246.802,
41211630,-1.07,0.226,-0.174,127.382,-92.627,321.072,
41211640,-0.653,-0.046,-0.39,95.095,-66.325,345.362,
41211650,0.071,-0.145,-0.579,82.617,-29.75,327.897,
41211660,0.899,-0.059,-0.642,53.515,16.135,275.45,
41211670,1.194,-1.076,0.475,-59.692,71.067,206.972,
41211680,0.159,-1.998,-1.041,-320.075,195.737,140.49,
41211690,-1.707,-1.594,-1.861,413.332,-87.587,-42.052,
41211700,0.641,1.647,1.777,519.627,101.027,-27.142,
41211710,-1.919,1.997,1.855,495.845,17.727,-75.215,
41211720,0.543,-0.696,1.689,235.427,-76.93,-124.687,
41211730,1.238,0.373,1.263,86.59,-82.967,-49.21,
41211740,0.103,1.118,1.582,112.77,-5.232,-44.695,
41211750,0.36,-0.88,0.804,-84.157,13.457,-4.725,
41211760,0.234,-0.083,1.111,-39.025,36.207,-18.48,
41211770,-0.012,-0.525,0.978,-75.407,42.105,-5.215,
41211780,-0.3,-0.352,1.083,-76.107,43.032,5.582,
41211790,-0.67,-0.584,0.907,-79.835,37.52,-12.74,
41211800,-0.222,-0.622,0.957,-91.052,28.052,-33.547,
41211810,-0.272,-0.333,1.121,-107.362,28.962,-53.06,
41211820,-0.144,-0.214,1.13,-132.982,26.337,-60.095,
41211830,-0.066,-0.444,1.074,-172.637,22.732,-57.575,
41211840,-0.068,-0.481,1.049,-191.135,27.055,-62.772,
41211850,-0.227,-0.696,0.864,-216.755,41.65,-70.577,
41211860,-0.359,-0.911,0.751,-238.227,51.082,-88.515,
41211870,-0.404,-0.782,0.829,-223.02,55.422,-111.125,
41211880,-0.372,-0.538,0.934,-209.282,52.797,-139.615,
41211890,-0.536,-0.738,1.182,-220.832,46.742,-156.765,
41211900,-0.554,-0.814,1.225,-196.962,27.002,-170.8,
41211910,-0.231,-0.806,1.056,-164.412,-2.257,-195.79,
41211920,0.505,-1.084,0.828,-153.387,-6.965,-192.64,
41211920,-0.902,-0.424,0.781,-142.345,37.747,-118.247,
41211940,-0.745,-0.45,1.129,-136.132,17.552,-116.392,
41211940,-0.123,-0.705,1.169,-134.855,-20.755,-119.245,
41211960,-0.252,-0.886,1.437,-106.697,-40.53,-81.445,
41211960,-0.42,-0.495,0.579,-27.177,-14.857,-29.172,
41211980,-0.498,0.392,0.343,83.632,-8.225,0.577,
41211980,0.332,0.726,-0.049,90.965,18.287,48.195,
41212000,0.572,0.432,-0.016,52.482,47.705,89.372,
41212000,0.593,0.043,-0.004,22.872,77.332,69.107,
41212010,0.468,0.068,0.112,12.95,83.44,9.59,
41212020,0.235,0.149,0.16,5.197,77.595,-42.927,
41212030,0.002,0.154,0.334,9.59,67.48,-70.7,
41212040,-0.117,-0.194,0.41,13.107,52.115,-79.695,
41212050,-0.206,-0.261,0.684,62.072,37.852,-94.99,
41212060,-1.74,-0.146,0.9,124.967,-46.865,-79.432,
41212070,1.319,-1.976,1.129,-43.172,-200.2,-70.7,
41212080,-0.262,-1.998,-1.284,-139.93,-105.77,124.075,
41212090,1.716,1.132,0.352,80.85,-138.635,-134.47,
41212100,1.698,1.579,-0.239,52.657,134.575,-138.6,
41212110,-1.502,-1.307,-0.559,-166.127,295.68,61.11,
41212120,-0.892,-1.308,1.946,-124.635,260.925,76.93,
41212130,0.695,-0.441,1.993,-68.355,100.852,26.477,
41212140,-0.04,0.329,1.311,-30.73,-57.96,-11.97,
41212150,0.25,-0.085,0.872,-52.832,-89.355,1.207,
41212160,0.206,-0.296,1.081,-101.622,-70.84,60.042,
41212170,-0.086,-0.848,1.163,-114.642,-84.437,159.442,
41212180,0.356,-1.139,1.158,-122.692,-133.665,159.635,
41212190,0.474,-0.898,1.021,-111.335,-160.807,159.022,
41212200,0.29,-0.834,0.907,-107.467,-138.6,198.047,
41212210,0.213,-0.989,0.823,-109.445,-99.452,243.302,
41212220,0.287,-0.972,0.762,-100.047,-75.355,262.482,
41212230,0.397,-0.566,0.655,-88.585,-63.28,265.352,
41212240,0.435,-0.614,0.575,-93.66,-53.672,258.107,
41212250,0.746,-0.75,0.638,-83.002,-32.725,221.13,
41212260,1.133,-0.826,0.94,-20.3,5.53,192.885,
41212260,1.276,-1.117,0.97,51.485,56.052,156.607,
41212280,0.88,-0.871,1.181,115.412,62.632,66.64,
41212280,0.174,-0.786,1.132,178.395,17.22,-38.15,
41212300,-0.241,-0.708,0.769,229.985,-64.242,-120.732,
41212300,-0.108,-0.304,0.446,284.55,-119.42,-177.835,
41212320,-0.048,0.116,0.383,311.937,-140.962,-215.337,
41212320,-0.341,0.165,0.474,294.98,-137.672,-228.917,
41212330,-0.721,0.006,0.455,267.4,-118.107,-219.065,
41212340,-0.849,-0.086,0.473,259.175,-82.11,-179.69,
41212350,-0.731,-0.163,0.646,251.545,-39.235,-122.902,
41212360,-1.143,-0.214,0.944,247.957,-10.71,-50.96,
41212370,-1.657,-0.327,1.189,241.867,-13.405,9.485,
41212380,-1.989,-0.749,1.185,237.107,-51.275,52.412,
41212390,-1.998,-1.047,0.864,236.005,-101.167,102.235,
41212400,-1.916,-0.909,0.565,232.767,-126.647,179.742,
41212410,-1.702,-0.922,0.281,202.387,-133.63,266.035,
41212420,-1.529,-1.12,0.112,145.232,-114.485,342.037,
41212430,-1.446,-1.473,-0.157,85.47,-79.292,422.52,
41212440,-1.218,-1.542,-0.51,41.23,-36.575,477.295,
41212450,-0.902,-1.455,-0.634,0.28,21.7,510.93,
41212460,-0.63,-1.367,-0.468,-62.44,95.147,509.722,
41212470,-1.575,-1.88,1.033,-156.747,124.582,405.317,
41212480,0.347,-1.998,1.993,-238.787,-204.295,4.34,
41212490,1.998,-1.998,-0.849,-31.552,-121.887,-140.77,
41212500,0.127,-1.147,0.25,327.967,178.325,-103.127,
41212510,-1.978,0.866,1.787,397.547,152.827,-262.815,
41212520,-0.462,1.584,0.997,219.257,41.23,-305.865,
41212530,0.715,1.84,1.596,42.962,8.47,-173.04,
41212540,-1.796,-0.35,0.689,-79.817,-3.622,-71.032,
41212550,-1.906,-1.333,0.87,-40.757,-32.042,-51.712,
41212560,0.351,-0.553,1.042,19.005,-70.402,-22.4,
41212570,1.298,0.241,0.901,12.862,-42.91,55.755,
41212580,1.109,-0.268,0.778,-34.492,3.517,50.365,
41212590,-0.076,-0.895,0.859,7.192,36.75,-3.255,
41212600,-0.357,-0.262,0.94,69.772,47.757,-33.775,
41212610,-0.148,0.207,1.047,41.982,43.715,-18.55,
41212620,-0.011,-0.374,0.929,-35.227,30.485,-8.89,
41212630,-0.168,-0.66,0.86,-35.525,29.155,-4.987,
41212640,-0.354,-0.328,0.913,9.345,31.097,-4.235,
41212650,-0.371,-0.202,0.989,8.137,24.395,1.312,
41212660,-0.309,-0.401,0.924,-16.537,11.567,9.52,
41212670,-0.256,-0.395,0.897,-13.597,0.857,5.355,
41212670,-0.275,-0.38,0.95,0.84,-9.1,-2.24,
41212690,-0.149,-0.333,0.959,-0.245,-13.405,0.805,
41212690,-0.131,-0.398,0.89,-6.632,-18.462,0.84,
41212710,-0.12,-0.318,0.93,3.57,-18.007,0.455,
41212710,-0.051,-0.32,0.93,0.805,-19.145,-0.98,
41212730,-0.053,-0.363,0.914,-2.957,-16.555,0.035,
41212730,-0.076,-0.338,0.919,-0.7,-15.995,-2.292,
41212750,-0.075,-0.326,0.933,-0.927,-13.72,-1.802,
41212750,-0.055,-0.387,0.909,-3.465,-12.495,-0.315,
41212760,-0.121,-0.325,0.9,1.347,-10.255,-0.822,
41212770,-0.098,-0.258,0.924,2.817,-11.76,-0.28,
41212780,-0.052,-0.292,0.873,-8.05,-12.88,0.28,
41212790,-0.082,-0.266,0.909,-8.277,-13.23,0.91,
41212800,-0.097,-0.259,0.931,-12.95,-12.967,-0.192,
41212810,-0.077,-0.346,0.922,-20.667,-13.65,-1.662,
41212820,-0.036,-0.311,0.911,-21.735,-11.042,-3.342,
41212830,-0.056,-0.231,0.832,-22.75,-7.472,-6.755,
41212840,-0.17,0.059,1.049,-26.932,-2.537,-12.897,
41212850,-0.483,0.145,1.098,-48.702,-7.63,-25.41,
41212860,-0.297,-0.52,0.908,-85.225,-28.98,-31.342,
41212870,0.229,-1.367,0.594,-82.6,-40.407,-26.355,
41212880,0.066,-0.838,0.767,-1.837,-29.645,-27.072,
41212890,-0.04,-0.362,0.979,35.91,-26.687,-21.735,
41212900,-0.008,-0.33,1.001,24.272,-25.9,-11.165,
41212910,0.238,-0.225,0.993,15.435,-15.662,-12.337,
41212920,0.216,-0.32,0.961,0.157,1.067,-10.395,
41212930,0.211,-0.378,0.941,-8.417,17.062,-5.425,
41212940,0.108,-0.287,0.994,-12.985,32.165,-1.277,
41212950,0.032,-0.273,1.04,-27.457,46.445,0.752,
41212960,-0.042,-0.241,1.122,-46.042,61.582,-1.995,
41212970,-0.364,-0.319,1.257,-67.567,75.407,-9.555,
41212980,-0.333,-0.434,1.3,-97.632,73.5,-11.287,
41212990,-0.605,-0.527,1.316,-129.342,66.202,-6.58,
41213000,-0.637,-0.597,1.202,-168.157,36.732,-12.74,
41213010,-0.444,-0.553,1.295,-211.995,-2.642,-20.895,
41213010,-0.051,-0.36,1.051,-231.175,-35.07,-16.765,
41213030,0.04,-0.773,0.564,-241.062,-5.057,-10.78,
41213030,-0.126,-1.925,0.431,-280.647,-8.89,23.065,
41213050,-1.106,-1.998,-0.571,-246.382,-50.155,87.867,
41213050,-1.295,-1.846,0.141,-170.765,-122.045,99.12,
41213070,-0.876,-1.37,0.254,-173.337,-164.045,163.642,
41213070,-1.216,-1.204,0.365,-171.22,-264.425,266.49,
41213080,-0.732,-1.069,0.399,-162.277,-355.775,343.28,
41213090,0.496,-0.942,0.109,-142.835,-406.875,372.435,
41213100,1.611,-0.542,0.225,-120.207,-388.15,350.647,
41213110,1.916,-0.237,0.292,-104.265,-314.072,288.732,
41213120,1.6,-0.002,0.162,-75.302,-198.17,209.16,
41213130,0.881,0.289,-0.058,-30.31,-95.06,124.985,
41213140,0.239,0.644,-0.332,12.355,-35.367,45.605,
41213150,0.026,0.826,-0.491,24.902,3.99,-3.115,
41213160,-0.067,0.659,-0.702,15.925,49,-14.262,
41213170,-0.082,0.544,-0.902,17.727,98.105,-16.17,
41213180,-0.12,0.117,-1.027,17.342,146.65,-9.397,
41213190,0.211,-1.819,1.648,45.36,178.027,-20.965,
41213200,0.429,-1.998,1.397,148.487,128.572,-70.105,
41213210,-0.963,-1.509,-1.238,370.352,2.695,-71.172,
41213220,-0.891,1.898,1.984,513.677,12.582,-10.395,
41213230,-0.633,1.674,1.895,352.222,-20.755,-13.37,
41213240,-0.281,-1.284,1.463,154.175,-71.907,-48.79,
41213250,0.112,-0.429,1.634,160.37,-60.392,-48.58,
41213260,-0.018,1.158,1.993,128.59,-33.757,-43.802,
41213270,0.208,-0.371,1.545,-69.212,-14.63,-24.342,
41213280,0.004,-0.201,1.228,-123.165,2.922,-14.192,
41213290,-0.011,-0.456,0.876,-160.492,10.377,-9.467,
41213300,0.142,-0.709,0.709,-167.335,18.34,-14.455,
41213310,0.103,-0.758,0.758,-147.647,32.917,-13.142,
41213320,0.128,-0.573,0.873,-134.207,45.955,-7.087,
41213330,0.117,-0.483,0.863,-139.02,57.715,-3.36,
41213340,0.109,-0.584,0.778,-147.647,69.055,0.332,
41213350,0.092,-0.665,0.731,-152.775,82.512,1.89,
41213360,0.012,-0.674,0.758,-156.222,94.167,6.072,
41213370,0.074,-0.754,0.889,-160.405,112.42,14.192,
41213380,0.124,-0.843,0.907,-158.987,150.272,36.942,
41213390,0.149,-0.981,0.785,-156.572,190.855,68.915,
41213400,-0.033,-1.342,0.673,-149.887,237.457,111.72,
41213410,0.005,-1.408,0.546,-101.762,243.092,107.187,
41213420,-0.486,-1.53,0.546,-32.06,171.517,80.832,
41213420,-0.008,-1.705,0.804,30.677,80.832,43.277,
41213440,-0.589,-1.487,0.361,99.435,-25.585,-18.392,
41213440,-0.72,-0.87,0.192,167.597,-164.727,-94.43,
41213460,-0.714,-0.429,-0.218,187.617,-227.167,-118.282,
41213460,-0.513,-0.011,-0.365,167.982,-267.505,-109.112,
41213480,-0.334,0.269,-0.587,122.29,-285.057,-98.035,
41213480,-0.305,0.497,-0.902,73.5,-270.235,-80.097,
41213500,-0.271,0.883,-0.873,23.065,-210.367,-32.27,
41213500,-0.687,1.099,-0.749,-45.867,-123.532,43.68,
41213510,-1.516,1.335,-0.728,-116.812,-94.307,91.665,
41213520,0.627,-1.069,1.425,-135.782,-83.755,95.217,
41213530,1.849,-1.998,1.774,33.46,56.805,108.902,
41213540,-1.895,-1.998,-1.925,139.877,-81.76,-20.702,
41213550,-1.145,0.888,1.427,404.67,33.267,-24.08,
41213560,-0.652,1.843,1.53,419.912,47.337,-7.77,
41213570,-0.775,-1.353,1.157,190.365,-33.967,-85.137,
41213580,-0.057,-0.705,1.419,224.507,-19.355,-110.95,
41213590,-0.028,1.32,1.988,241.815,-15.435,-132.125,
41213600,0.566,-0.208,1.677,43.907,-4.725,-106.12,
41213610,0.308,0.144,1.685,-22.662,17.325,-76.3,
41213620,0.114,0.047,1.494,-104.737,23.992,-40.302,
41213630,0.068,-0.399,1.176,-176.225,24.937,-20.405,
41213640,0.065,-0.443,1.055,-201.565,34.51,-19.127,
41213650,0.028,-0.685,0.927,-223.93,54.687,-24.552,
41213660,-0.293,-0.747,0.831,-218.61,80.115,-31.132,
41213670,-0.299,-0.644,0.636,-222.215,85.015,-57.767,
41213680,-0.188,-0.733,0.741,-240.835,76.002,-91.665,
41213690,-0.213,-0.695,0.784,-247.257,65.642,-98.577,
41213700,0.068,-0.944,0.838,-240.59,54.075,-104.86,
41213710,0.294,-1.155,0.789,-216.387,66.78,-102.97,
41213720,0.192,-1.264,0.983,-188.947,92.47,-81.2,
41213730,0.118,-1.47,0.611,-155.452,97.212,-61.18,
41213740,-0.071,-1.125,0.61,-95.34,86.817,-48.405,
41213750,0.85,-1.205,0.725,-37.695,53.55,-73.552,
41213760,1.257,-1.158,0.158,43.12,77.997,-81.217,
41213760,-0.134,-0.382,-0.552,156.012,62.405,-151.007,
41213780,-0.758,0.432,-1.014,187.617,41.93,-239.207,
41213780,-0.898,0.744,-1.147,131.145,64.155,-212.765,
41213800,-1.167,0.633,-0.739,31.132,92.697,-102.357,
41213800,-1.256,0.152,-0.108,-84.927,102.41,17.395,
41213820,-0.636,-0.985,-0.23,-158.97,78.89,90.562,
41213820,-0.599,-0.97,0.441,13.545,61.162,100.222,
41213830,0.99,-0.558,1.264,72.607,75.635,106.067,
41213840,1.992,-1.83,1.764,-14.7,121.607,64.977,
41213850,0.627,-1.998,0.912,52.937,151.62,14.91,
41213860,-1.294,-1.075,-1.407,261.31,76.842,-38.342,
41213870,-0.674,1.53,1.759,303.992,11.777,-29.837,
41213880,0.055,-0.012,0.424,187.145,26.39,52.36,
41213890,-0.074,-1.847,0.626,134.925,1.557,28.63,
41213900,-0.869,-0.778,0.702,232.277,-21,11.795,
41213910,-0.537,0.386,1.479,263.392,-19.652,1.872,
41213920,-0.164,-0.223,1.472,169.225,-37.38,-8.382,
41213930,0.038,-0.203,1.527,104.405,-41.51,0.35,
41213940,-0.415,-0.176,1.517,45.342,-32.707,4.375,
41213950,-0.48,-0.214,1.425,-21.49,-26.197,-7.945,
41213960,-0.359,-0.386,1.269,-70.735,-25.427,-24.36,
41213970,-0.016,-0.463,1.123,-108.167,-30.695,-30.047,
41213980,0.131,-0.6,1.02,-128.397,-33.442,-26.74,
41213990,0.074,-0.511,1.016,-130.55,-31.955,-16.1,
41214000,0.106,-0.539,0.96,-140.647,-32.042,-5.6,
41214010,0.18,-0.574,0.825,-148.505,-30.572,5.372,
41214020,0.129,-0.642,0.837,-154.28,-24.972,11.235,
41214030,0.009,-0.713,0.786,-157.955,-27.125,6.405,
41214040,-0.148,-0.812,0.851,-166.057,-27.09,-8.33,
41214050,-0.229,-1.045,1.007,-175.997,-35.525,-24.745,
41214060,-0.226,-1.107,0.926,-166.267,-58.345,-34.947,
41214070,-0.382,-1.146,0.695,-143.325,-75.827,-29.925,
41214080,-0.613,-0.991,0.557,-112.332,-102.34,-15.225,
41214090,-0.905,-1.082,0.704,-67.217,-154.297,5.932,
41214100,-0.789,-1.349,0.457,-35.07,-239.19,15.102,
41214110,-0.936,-1.713,0.343,42.56,-313.11,15.365,
41214120,-1.536,-1.613,0.081,127.242,-337.12,27.195,
41214130,-1.909,-1.234,-0.536,192.132,-325.902,43.417,
41214140,-1.641,-0.635,-1.367,226.292,-292.512,91.507,
41214150,-1.292,0.323,-1.502,222.95,-210.822,188.335,
41214160,-1.439,0.799,-1,140.297,-143.132,311.22,
41214170,-1.481,0.163,-0.609,0.98,-128.555,425.46,
41214170,-0.958,-0.718,-0.533,-98.892,-147.332,478.52,
41214190,0.494,-0.702,-1.288,-95.147,-148.592,472.43,
41214190,1.976,0.613,-1.648,-18.34,-57.785,460.6,
41214210,1.998,-1.226,1.518,-55.002,15.435,300.317,
41214210,1.04,-1.998,0.107,-147.332,242.34,-100.38,
41214220,-1.998,-0.885,-1.86,445.462,22.417,-269.902,
41214230,-0.489,1.997,1.653,516.197,155.487,18.182,
41214240,1.966,0.285,1.36,330.697,-17.657,176.785,
41214250,-1.385,-1.811,0.805,142.957,-85.102,54.565,
41214260,0.571,1.686,1.828,303.45,-24.92,44.695,
41214270,-1.272,-0.699,1.631,106.137,-39.287,62.055,
41214280,-0.508,0.303,1.899,18.095,-33.862,24.657,
41214290,-0.428,0.084,1.654,-70.28,-17.185,-35.49,
41214300,0.006,-0.275,1.374,-144.742,-9.87,-62.44,
41214310,0.293,-0.518,0.927,-180.232,-3.657,-66.15,
41214320,0.254,-0.748,0.685,-189.192,0.822,-54.092,
41214330,0.233,-0.625,0.802,-173.145,9.887,-36.137,
41214340,0.241,-0.522,0.862,-171.57,12.74,-19.442,
41214350,0.084,-0.567,0.827,-174.335,6.72,-8.312,
41214360,-0.129,-0.739,0.753,-175.77,-9.397,-10.622,
41214370,0.112,-0.955,0.561,-182.455,-29.732,-28.56,
41214380,0.143,-0.893,0.567,-184.887,-30.187,-38.5,
41214390,-0.307,-0.789,0.681,-171.937,-23.59,-39.935,
41214400,-0.319,-0.937,0.843,-163.222,-15.435,-37.94,
41214410,0.082,-1.036,0.776,-154.647,-0.21,-31.097,
41214420,0.033,-1.153,0.968,-139.317,27.51,-14.035,
41214430,0.514,-1.704,1.029,-122.955,16.292,-23.8,
41214440,-0.515,-1.198,0.334,-59.465,-21.77,-50.12,
41214450,-0.631,-0.96,0.644,0.63,-54.355,-50.522,
41214460,0.121,-1.459,0.785,15.732,-93.905,-15.05,
41214470,0.638,-0.897,-0.106,123.41,-47.967,15.295,
41214480,-0.602,0.341,-0.444,218.61,-89.495,-49.455,
41214490,-1.243,1.288,-0.798,187.635,-80.43,-24.482,
41214500,-1.413,1.418,-0.381,90.387,-45.972,99.242,
41214510,-1.187,0.769,0.431,-20.037,-63.35,201.582,
41214510,-0.466,0.358,0.616,-66.99,-102.06,249.305,
41214530,0.545,0.787,0.39,-39.007,-112.542,258.807,
41214530,1.529,1.267,-0.215,22.557,-98.787,232.295,
41214550,1.976,1.117,-0.116,82.495,-40.372,138.005,
41214550,0.225,-1.998,0.133,-150.99,158.567,84,
41214570,-0.29,-0.688,-0.521,152.88,3.062,67.427,
41214570,-0.927,1.997,0.735,523.355,69.772,94.272,
41214580,-1.957,0.011,1.47,231.682,-29.715,52.36,
41214590,0.057,-1.97,0.201,128.94,-71.312,-20.685,
41214600,-0.992,1.082,1.461,435.137,-34.737,-76.79,
41214610,-0.42,0.638,1.664,300.247,-55.527,-117.617,
41214620,0.398,-0.565,1.505,165.042,-65.94,-123.095,
41214630,0.386,0.747,1.948,139.16,-52.727,-100.292,
41214640,0.48,0.193,1.717,6.142,-31.447,-60.987,
41214650,0.279,0.079,1.562,-92.47,-6.737,-39.305,
41214660,0.291,-0.102,1.405,-165.375,12.197,-24.867,
41214670,0.187,-0.23,1.248,-218.627,26.687,-17.272,
41214680,0.103,-0.319,1.111,-247.52,38.395,-10.692,
41214690,0.137,-0.572,0.942,-267.365,43.592,-5.477,
41214700,-0.029,-0.565,0.83,-254.117,47.442,1.365,
41214710,-0.214,-0.455,0.791,-255.517,31.185,-8.295,
41214720,-0.298,-0.547,0.685,-263.252,-1.085,-25.55,
41214730,-0.326,-0.8,0.737,-268.345,-28.07,-38.955,
41214740,-0.567,-1.02,0.857,-258.597,-53.55,-44.205,
41214750,-0.482,-1.145,0.856,-225.575,-88.042,-55.282,
41214760,-0.202,-1.122,0.551,-190.96,-100.222,-58.992,
41214770,-0.3,-1.347,0.844,-162.102,-71.155,-54.337,
41214780,-0.371,-1.335,1.086,-143.29,-66.377,-71.032,
41214790,-0.474,-0.913,1.152,-103.74,-58.712,-80.902,
41214800,-1.046,-0.874,1.291,-64.295,-95.532,-95.217,
41214810,-0.807,-0.677,1.428,-16.205,-108.412,-94.185,
41214820,0.63,-0.355,1.397,77.105,-18.007,-46.917,
41214830,-0.523,0.651,0.482,238.875,64.225,-37.065,
41214840,-1.602,1.265,0.282,336.262,57.155,-109.69,
41214850,-1.596,1.551,-0.393,313.162,93.992,-74.252,
41214860,-1.399,1.488,-0.684,274.68,102.812,18.427,
41214870,-1.193,1.103,-0.726,220.622,86.66,81.34,
41214880,-0.782,0.597,-0.724,146.212,70.262,148.032,
41214890,-0.054,0.003,-0.578,75.197,76.51,204.855,
41214890,0.255,-0.388,-0.864,10.797,91.21,231.507,
41214910,1.077,-1.886,0.881,-64.925,52.605,167.317,
41214910,0.478,-1.998,-1.583,-106.242,50.855,-178.115,
41214920,-1.998,0.804,0.629,491.837,65.975,-130.935,
41214930,-0.133,1.997,1.983,398.632,238.542,-52.57,
41214940,0.335,0.258,1.747,157.167,-33.897,39.865,
41214950,0.958,-1.998,0.407,-82.162,-49.087,23.065,
41214960,-0.543,0.803,1.63,206.395,-4.882,23.012,
41214970,-0.642,0.753,1.7,71.137,-14.035,22.575,
41214980,-0.472,-1.473,0.969,-99.61,-38.762,5.057,
41214990,-0.236,-0.119,1.295,-35.332,-23.205,-28.595,
41215000,0.001,-0.318,1.153,-81.112,-24.01,-39.48,
41215010,0.114,-0.543,1.054,-107.73,-16.52,-49.367,
41215020,0.3,-0.379,1.18,-126.927,-6.615,-56.787,
41215030,0.351,-0.369,1.098,-161.787,3.692,-56,
41215040,0.232,-0.749,0.791,-193.34,16.222,-60.025,
41215050,0.249,-1.135,0.899,-209.895,21.07,-76.072,
41215060,0.285,-1.116,0.757,-219.257,33.25,-101.85,
41215070,-0.308,-0.811,0.6,-206.15,55.947,-127.435,
41215080,-0.39,-0.667,0.251,-205.415,93.397,-141.54,
41215090,0.639,-1.135,0.762,-245.542,117.932,-154.805,
41215100,0.614,-1.536,0.822,-259.612,153.212,-176.68,
41215110,-0.121,-1.279,0.904,-199.972,223.65,-181.982,
41215120,1.73,-1.495,0.534,-185.255,306.985,-165.777,
41215130,1.998,-1.463,0.355,-137.305,373.065,-266.315,
41215140,0.662,-1.935,-0.083,-49.315,371.035,-405.93,
41215150,-1.329,-1.432,-0.081,54.337,357.227,-413.315,
41215160,-1.998,-0.86,-0.118,152.967,272.002,-365.19,
41215170,-1.995,-0.175,-0.215,205.555,158.182,-289.187,
41215180,-1.53,0.124,-0.742,200.042,59.307,-171.745,
41215190,-1.314,0.159,-0.899,155.627,21.77,-34.177,
41215200,-1.285,0.034,-0.797,101.57,2.975,77.577,
41215210,-1.156,-0.14,-0.691,45.15,-12.285,166.932,
41215220,-0.889,-0.229,-0.475,-7.157,-30.695,231.105,
41215230,-0.691,-0.271,-0.237,-60.305,-46.865,280.227,
41215240,-0.466,-0.467,-0.254,-92.96,-58.677,324.73,
41215250,0.017,-0.495,-0.257,-98.07,-60.76,345.87,
41215260,0.566,-0.601,-0.149,-68.18,-49.875,333.147,
41215260,1.998,-1.6,1.99,-11.987,47.232,259.892,
41215280,1.998,-1.998,1.988,63.087,200.672,54.687,
41215280,-1.552,-1.998,-0.137,219.52,-5.267,-123.865,
41215300,-1.728,-0.423,-0.535,375.637,-148.732,-53.357,
41215300,1.888,0.386,0.898,320.775,18.917,65.432,
41215320,-0.049,-1.197,0.897,279.125,-44.257,-31.902,
41215320,-1.669,0.119,1.162,341.95,-73.657,-91.577,
41215330,1.28,0.027,1.554,288.522,-47.88,-104.457,
41215340,-0.641,0.091,1.795,206.29,-41.772,-131.565,
41215350,0.588,0.453,1.813,136.605,-44.625,-115.062,
41215360,0.507,0.078,1.603,27.965,-35.962,-71.032,
41215370,0.415,-0.02,1.423,-44.31,-28.052,-23.712,
41215380,0.293,-0.35,1.211,-103.04,-23.047,12.775,
41215390,0.214,-0.415,1.077,-129.027,-16.73,29.207,
41215400,0.158,-0.575,1.02,-144.935,-2.59,37.362,
41215410,0.145,-0.684,1.059,-145.827,16.625,41.702,
41215420,0.088,-0.682,1.035,-147.297,28.105,41.247,
41215430,-0.085,-0.725,1.066,-154.315,18.655,34.177,
41215440,0.011,-0.76,1.027,-157.622,-4.095,22.907,
41215450,-0.301,-1.082,1.198,-144.69,-42.577,25.882,
41215460,-0.459,-1.897,1.65,-144.777,-124.32,16.432,
41215470,0.496,-1.998,1.32,-120.767,-172.532,4.795,
41215480,1.998,-1.959,-0.139,32.882,-129.57,-8.33,
41215490,1.019,-1.025,-0.538,181.037,-69.3,-50.505,
41215500,-0.973,-0.523,-0.653,196.472,-51.257,-104.615,
41215510,-1.939,-0.685,-0.795,151.602,-67.847,-71.802,
41215520,-1.928,-0.738,-1.093,127.557,-119.892,-21.42,
41215530,-1.427,-0.459,-1.135,100.73,-154.665,34.895,
41215540,-1.426,-0.416,-0.8,34.895,-164.36,111.09,
41215550,-1.748,-0.836,-0.463,-45.412,-169.627,187.792,
41215560,-1.814,-1.306,-0.395,-93.782,-174.895,251.3,
41215570,-1.391,-1.322,-0.416,-88.917,-161.56,306.635,
41215580,-0.886,-0.881,-0.22,-84.315,-133.157,339.377,
41215580,-0.568,-0.738,-0.252,-115.29,-95.532,375.637,
41215600,-0.08,-0.535,-0.553,-148.452,-41.982,387.502,
41215600,0.743,0.292,-0.417,-175.945,53.62,367.657,
41215620,-0.116,0.494,0.989,-221.235,80.535,209.247,
41215620,1.95,-1.992,0.433,-119.437,312.865,-89.057,
41215640,-1.846,-0.439,-1.085,438.655,299.757,-434.595,
41215640,-0.823,-0.334,1.819,339.587,251.23,-302.347,
41215660,1.959,0.278,0.112,345.747,62.965,-145.092,
41215660,-1.308,1.643,1.998,406.385,34.422,-41.947,
41215670,1.083,-0.888,1.442,148.4,-10.412,75.932,
41215680,-1.467,0.694,1.958,117.652,2.782,79.397,
41215690,-0.572,0.029,1.629,-5.46,2.87,42.42,
41215700,-0.272,-0.062,1.442,-81.62,25.287,-7.875,
41215710,0.165,-0.452,1.161,-134.575,48.107,-28.787,
41215720,0.537,-0.404,1.056,-155.592,69.965,-23.905,
41215730,0.514,-0.338,1.051,-174.37,84.857,-1.68,
41215740,0.257,-0.349,0.925,-195.422,94.727,20.895,
41215750,0.085,-0.551,0.757,-207.567,97.02,34.02,
41215760,0.069,-0.592,0.697,-196.595,105.262,38.412,
41215770,0,-0.705,0.699,-193.217,128.52,39.392,
41215780,0.013,-0.888,0.867,-183.68,168.455,42.98,
41215790,0.044,-1.044,0.502,-160.72,224.402,56.927,
41215800,0.245,-1.205,0.958,-126.192,264.53,85.75,
41215810,0.179,-1.469,0.852,-94.22,294.245,124.372,
41215820,0.718,-1.889,1.483,-29.61,214.305,111.282,
41215830,-1.238,-1.998,0.192,21.455,-13.667,-0.245,
41215840,-0.728,-1.998,0.238,39.357,-321.877,-206.552,
41215850,-0.772,-1.495,-1.539,120.715,-426.142,-229.372,
41215860,-0.61,-0.232,-1.997,199.255,-367.745,-152.495,
41215870,-0.765,0.783,-1.698,139.895,-284.427,-59.29,
41215880,-1.177,0.78,-1.188,-40.46,-211.435,43.75,
41215890,-1.174,-0.19,-0.723,-150.062,-152.18,146.895,
41215900,-0.163,-0.126,-0.913,-148.382,-162.645,160.16,
41215910,1.033,1.188,-0.504,-127.645,-162.61,131.302,
41215920,1.718,0.107,1.493,-165.917,-57.925,94.57,
41215930,-1.293,-1.998,-0.336,148.68,19.495,103.425,
41215940,-1.421,-1.857,-0.172,427.962,-175.542,17.85,
41215950,1.234,-1.45,0.793,280.682,-68.372,26.197,
41215960,-1.183,1.787,1.739,442.627,-53.235,-56.402,
41215970,0.039,-0.823,1.335,267.05,-70.332,-100.782,
41215980,0.458,0.472,1.81,221.725,-59.097,-118.282,
41215990,0.886,0.766,1.89,134.015,-32.252,-94.867,
41216000,0.653,0.317,1.722,-28.472,1.172,-52.08,
41216010,0.452,-0.04,1.522,-115.325,29.767,-12.355,
41216010,0.123,-0.231,1.275,-178.815,40.862,14.98,
41216030,-0.124,-0.471,0.948,-208.022,44.59,22.242,
41216030,-0.141,-0.774,0.734,-208.932,44.257,14.105,
41216050,-0.114,-0.665,0.762,-187.687,45.395,5.512,
41216050,-0.078,-0.58,0.738,-185.955,42.105,0.735,
41216070,0.052,-0.728,0.671,-188.492,49.28,-3.027,
41216070,-0.072,-0.773,0.622,-179.795,62.02,-6.982,
41216080,-0.144,-0.616,0.814,-170.187,61.267,-16.117,
41216090,-0.063,-1.017,0.942,-177.135,69.352,-21.297,
41216100,-0.025,-1.436,0.771,-165.077,85.487,-16.03,
41216110,-0.267,-1.31,0.722,-125.422,86.52,-11.06,
41216120,-0.154,-1.572,0.419,-86.345,75.687,-20.317,
41216130,0.139,-1.644,0.571,-43.277,50.96,-46.077,
41216140,1.497,-1.964,0.323,11.427,61.88,-52.027,
41216150,0.752,-1.36,-0.742,126.105,40.687,-128.222,
41216160,-0.86,-0.006,-0.998,170.887,-52.605,-249.2,
41216170,-1.566,0.318,-1.147,109.9,-34.842,-180.775,
41216180,-1.422,-0.06,-0.343,13.597,-44.887,-58.03,
41216190,-0.962,-0.604,-0.171,-67.025,-99.487,30.572,
41216200,-0.732,-0.501,-0.271,-69.72,-140.787,106.225,
41216210,-0.784,0.169,-0.278,-52.85,-177.52,169.82,
41216220,-0.548,0.438,-0.664,-85.662,-198.45,217.472,
41216230,0.527,0.212,0.952,-60.882,-169.942,205.012,
41216240,1.998,-1.855,1.975,-6.545,132.825,177.345,
41216250,-0.637,-1.87,-1.494,195.405,80.272,15.12,
41216260,-1.885,-1.998,-0.461,277.637,-24.902,-11.375,
41216270,1.681,-0.466,0.741,291.882,5.985,96.022,
41216280,-0.8,1.092,1.53,387.94,-7.28,25.322,
41216290,-0.878,-0.876,1.221,279.16,-34.457,-13.002,
41216300,-0.227,0.029,1.69,276.027,-27.86,-63.385,
41216310,0.077,0.484,1.937,199.377,-24.412,-92.557,
41216320,0.559,0.227,1.848,58.747,-10.202,-87.36,
41216330,0.456,0.279,1.774,-44.257,17.482,-60.427,
41216330,0.322,-0.101,1.524,-143.972,29.487,-25.287,
41216350,0.154,-0.279,1.256,-203.28,30.747,2.012,
41216350,0.062,-0.57,0.928,-223.842,29.662,13.72,
41216370,-0.004,-0.452,0.864,-217.122,34.195,14.752,
41216370,-0.004,-0.639,0.726,-225.452,34.352,13.195,
41216390,0.025,-0.606,0.681,-219.94,40.88,11.707,
41216390,-0.166,-0.599,0.638,-216.545,42.717,6.09,
41216410,-0.388,-0.723,0.638,-218.417,33.355,-6.475,
41216410,-0.398,-0.904,0.797,-220.097,22.12,-21.122,
41216420,-0.265,-1.281,0.875,-211.767,11.305,-29.085,
41216430,-0.254,-1.42,0.661,-169.907,6.667,-32.48,
41216440,-0.079,-1.4,0.509,-138.915,11.095,-46.865,
41216450,-0.142,-1.404,0.634,-112.962,7.297,-55.965,
41216460,0.236,-1.742,0.986,-49.385,21.28,-57.557,
41216470,1.736,-1.725,0.969,0.857,54.88,-104.037,
41216480,0.713,-1.303,0.029,112.84,69.737,-191.957,
41216490,-0.724,-0.513,-0.016,194.11,38.097,-273.612,
41216500,-0.885,-0.159,-0.921,205.695,77.997,-236.022,
41216510,-0.639,0.688,-1.38,215.092,122.832,-156.555,
41216520,-0.718,1.186,-1.11,156.065,133.787,-114.502,
41216530,-1.321,0.665,-0.57,36.837,107.397,-58.817,
41216540,-1.516,0.09,-0.115,-49.91,44.152,2.782,
41216550,-0.975,0.388,-0.005,-71.207,-25.952,46.112,
41216560,-0.657,0.599,-0.139,-100.1,-66.692,88.917,
41216570,-0.897,0.412,-0.177,-100.012,-83.667,86.73,
41216580,1.998,-1.997,1.421,-35.455,86.222,55.702,
41216590,-0.749,-1.613,-1.867,189.647,51.03,0.717,
41216600,-1.998,1.968,1.407,450.555,153.527,22.872,
41216610,-0.526,1.442,1.07,326.305,56.437,89.18,
41216620,1.076,-1.885,0.692,162.995,-13.527,92.75,
41216630,-0.595,-0.172,1.267,288.645,10.342,83.037,
41216640,-0.544,0.815,1.925,259.822,-3.5,90.212,
41216650,-0.622,-0.326,1.617,110.827,-17.482,64.627,
41216660,-0.444,0.091,1.74,59.062,-4.917,21.332,
41216670,-0.243,-0.028,1.623,-42,6.562,-7.315,
41216680,-0.026,-0.172,1.433,-117.32,20.685,-23.135,
41216690,0.058,-0.485,1.07,-170.817,29.855,-26.057,
41216700,0.014,-0.602,0.972,-177.66,35.122,-23.87,
41216710,-0.014,-0.538,0.915,-179.2,37.17,-20.912,
41216720,0.099,-0.632,0.785,-184.712,35.42,-14.315,
41216730,0.176,-0.575,0.724,-180.425,36.785,-2.292,
41216740,-0.02,-0.559,0.728,-178.57,30.222,7.945,
41216750,-0.145,-0.654,0.72,-183.522,19.162,11.935,
41216760,-0.177,-0.808,0.787,-185.465,9.52,13.825,
41216760,-0.107,-0.995,0.831,-183.26,0.612,13.912,
41216780,0.115,-0.999,0.652,-173.057,1.4,20.51,
41216780,-0.103,-1.092,0.73,-152.285,23.572,35.35,
41216800,-0.635,-1.299,0.649,-125.965,-1.417,30.52,
41216800,0.127,-1.331,1.087,-96.565,-95.165,2.275,
41216820,0.08,-1.604,0.636,-57.995,-184.345,-5.53,
41216820,0.861,-1.467,0.619,27.387,-180.215,-21.735,
41216830,0.053,-0.857,-0.171,131.88,-155.242,-28.56,
41216840,-0.611,-0.073,-0.176,184.59,-174.44,-86.345,
41216850,-0.905,0.412,-0.577,184.17,-116.865,-59.815,
41216860,-1.193,0.758,-0.627,179.952,-53.427,12.617,
41216870,-1.404,0.707,-0.074,130.41,-19.022,69.737,
41216880,-1.517,0.255,-0.012,52.692,-42.595,129.255,
41216890,-0.851,0.123,-0.201,7.385,-74.55,185.64,
41216900,0.232,0.16,-0.287,-7.227,-78.347,218.837,
41216910,0.888,0.169,-0.294,-22.26,-65.572,188.527,
41216920,0.585,-0.566,1.063,-40.6,-32.235,77.49,
41216930,1.508,-1.998,-0.385,-137.567,109.672,-8.015,
41216940,-1.995,-1.611,-0.038,288.767,-50.89,31.937,
41216950,-0.749,1.881,1.402,434.542,16.852,20.632,
41216960,0.408,0.851,1.673,326.76,-5.897,13.65,
41216970,-1.015,-1.97,0.399,171.85,-50.697,-39.095,
41216980,0.028,0.822,1.672,335.545,-25.445,-73.622,
41216990,0.085,0.306,1.768,220.727,-35.752,-73.85,
41217000,0.516,0.113,1.651,97.37,-33.04,-57.365,
41217010,0.356,0.149,1.611,15.592,-10.85,-27.86,
41217020,0.129,-0.094,1.438,-79.012,8.54,-4.375,
41217030,0.031,-0.277,1.206,-139.265,19.95,4.182,
41217040,0.067,-0.519,0.978,-173.127,27.685,1.61,
41217050,0.075,-0.546,0.962,-180.512,40.057,-3.045,
41217060,0.073,-0.601,0.923,-182.595,50.907,-5.88,
41217070,0.163,-0.503,0.857,-179.06,60.34,-3.132,
41217080,0.111,-0.56,0.777,-189.735,63.507,-0.735,
41217080,-0.058,-0.658,0.734,-195.895,68.582,-0.997,
41217100,-0.31,-0.632,0.736,-193.672,68.495,-6.895,
41217100,-0.34,-0.825,0.734,-195.58,69.667,-17.955,
41217120,-0.205,-1.199,0.847,-197.05,67.602,-26.652,
41217120,-0.239,-1.454,0.762,-179.882,68.53,-28.962,
41217140,-0.572,-1.66,0.583,-131.25,70.035,-30.922,
41217140,0.399,-1.997,1.065,-92.522,50.19,-64.837,
41217160,1.973,-1.995,1.443,-15.627,66.22,-105.91,
41217160,1.006,-1.872,0.339,104.545,40.757,-234.097,
41217170,-1.311,-0.992,-0.076,206.307,-50.487,-357.35,
41217180,-1.998,-0.438,-0.378,215.95,-111.947,-341.215,
41217190,-1.728,-0.077,-0.836,207.392,-130.48,-224.945,
41217200,-0.806,0.027,-0.905,194.39,-120.155,-108.622,
41217210,-0.584,0.192,-0.711,159.25,-91.822,-23.87,
41217220,-1.244,0.259,-0.548,121.992,-84.577,57.05,
41217230,-1.498,0.294,-0.352,55.545,-106.085,116.392,
41217240,-1.264,0.312,-0.447,-24.36,-131.67,176.382,
41217250,-1.095,0.616,-0.628,-67.375,-150.412,224.857,
41217260,-0.661,1.356,-0.384,-91.98,-134.295,280.56,
41217270,-0.795,0.682,0.508,-153.072,-144.585,312.147,
41217280,1.998,-1.998,1.361,-123.235,184.485,288.417,
41217290,-0.167,-1.986,-1.744,290.71,181.842,26.81,
41217300,-1.998,1.2,1,473.41,89.005,-75.267,
41217310,0.637,1.715,1.039,414.05,130.777,106.627,
41217320,0.275,-1.839,0.927,151.952,6.737,54.792,
41217330,-1.631,0.385,1.566,355.757,7.647,0.367,
41217340,-0.48,0.609,1.903,292.145,-13.527,-37.45,
41217350,0.104,0.134,1.661,102.795,-37.625,-66.342,
41217360,0.5,0.719,1.779,16.712,-0.717,-80.22,
41217370,0.225,-0.381,1.384,-120.75,47.18,-71.715,
41217380,0.125,-0.174,1.435,-161,79.047,-69.685,
41217390,0.244,-0.351,1.275,-212.502,89.337,-62.737,
41217400,0.142,-0.369,1.075,-248.64,89.687,-56.84,
41217410,0.117,-0.413,0.936,-274.645,87.465,-59.605,
41217420,0.061,-0.839,0.586,-300.212,91.367,-71.96,
41217430,-0.329,-0.946,0.686,-289.135,93.31,-93.45,
41217440,-0.192,-0.913,0.853,-301.822,83.877,-120.417,
41217450,0.143,-1.249,0.781,-311.535,109.795,-125.562,
41217460,0.343,-1.433,0.561,-289.38,158.287,-115.377,
41217470,0.475,-1.709,0.62,-260.522,238.56,-94.657,
41217480,0.08,-1.993,1.047,-222.827,242.025,-120.592,
41217490,1.849,-1.981,0.68,-125.037,233.152,-143.85,
41217500,1.769,-1.998,0.26,7.542,228.742,-265.037,
41217510,-0.957,-1.739,-0.27,175.14,156.8,-399.787,
41217510,-1.998,-0.787,-0.226,266.28,50.155,-439.11,
41217520,-1.998,-0.133,-0.38,267.54,-17.202,-369.845,
41217530,-1.656,0.2,-0.728,238,-44.38,-189.017,
41217540,-1.057,0.184,-0.757,193.287,-29.102,-1.347,
41217550,-1.357,-0.046,-0.772,145.967,-26.005,128.117,
41217560,-1.508,-0.101,-0.645,115.01,-62.195,192.902,
41217570,-1.304,-0.123,-0.351,72.94,-121.065,259.49,
41217580,-0.894,-0.394,-0.152,-4.182,-176.067,326.55,
41217590,-0.587,-0.751,-0.183,-60.392,-221.252,379.26,
41217600,-0.479,-0.753,-0.404,-65.362,-253.242,426.3,
41217610,-0.25,-0.335,-0.485,-62.755,-279.23,448.91,
41217620,0.014,-0.05,-0.581,-95.777,-311.465,457.555,
41217630,1.161,0.264,-0.24,-144.62,-307.23,436.187,
41217640,1.661,-0.047,0.117,-221.025,-251.002,373.397,
41217650,1.998,-1.998,1.998,-127.855,-96.81,108.377,
41217660,-0.496,-1.998,-0.801,78.645,-10.447,-182.28,
41217670,-1.652,0.35,-1.084,492.397,-128.415,-140.07,
41217680,1.187,1.798,1.667,407.312,241.045,-17.622,
41217690,1.208,-1.526,0.809,223.405,41.3,-34.317,
41217700,-1.319,-0.775,1.004,326.182,37.607,-87.902,
41217710,0.319,1.589,1.998,361.252,35.42,-77.665,
41217720,0.163,-0.165,1.84,150.762,-15.557,-29.382,
41217730,0.047,0.307,1.881,62.562,-16.467,-0.612,
41217740,0.02,-0.047,1.637,-42.612,-13.492,12.53,
41217750,-0.005,-0.237,1.332,-122.36,-14.385,18.392,
41217760,0.095,-0.475,0.977,-162.855,-14.14,19.88,
41217770,0.213,-0.574,0.848,-172.935,-2.992,19.162,
41217780,0.328,-0.504,0.922,-169.802,17.745,19.81,
41217790,0.411,-0.464,0.919,-169.347,39.095,25.27,
41217800,0.511,-0.437,0.876,-181.125,57.837,31.377,
41217810,0.498,-0.542,0.831,-202.772,78.417,40.442,
41217820,0.229,-0.702,0.889,-205.24,97.37,49.507,
41217830,0.071,-0.579,0.817,-206.237,103.652,56.157,
41217830,-0.038,-0.676,0.817,-218.977,107.8,69.947,
41217850,-0.117,-1.182,1.041,-233.082,98.525,94.29,
41217850,-0.34,-1.698,1.164,-232.942,65.66,105,
41217870,0.473,-1.944,1.382,-207.322,-74.69,39.9,
41217870,1.737,-1.998,1.224,-185.692,-200.76,-56.157,
41217890,1.998,-1.858,0.253,-42.84,-151.217,-116.62,
41217890,1.054,-1.433,0.248,96.862,-77.7,-183.61,
41217910,-1.136,-0.939,-0.157,172.287,-73.447,-233.66,
41217910,-1.984,-0.333,-0.374,191.712,-150.657,-238.262,
41217920,-1.805,-0.023,-0.394,173.075,-188.632,-182.962,
41217930,-0.947,-0.072,-0.553,156.205,-175.052,-77.42,
41217940,-0.461,-0.06,-0.649,148.085,-149.45,18.235,
41217950,-0.414,0.129,-0.472,134.085,-115.552,81.847,
41217960,-0.435,0.135,-0.318,94.395,-86.835,133.77,
41217970,-0.33,0.009,-0.104,37.975,-68.915,173.792,
41217980,-0.085,-0.047,0.031,-15.75,-54.495,195.405,
41217990,0.162,0.024,0.049,-53.322,-40.915,202.772,
41218000,0.308,0.111,0.029,-77.245,-30.31,196.682,
41218010,0.554,0.146,0.076,-103.6,-37.17,159.74,
41218020,1.224,-0.055,-0.084,-140.542,-37.992,84.875,
41218030,1.702,-1.266,0.06,-102.742,0.052,-4.235,
41218040,-0.947,-1.514,1.95,146.632,44.73,-48.877,
41218050,-1.998,-1.998,1.271,151.48,116.252,129.412,
41218060,0.862,-1.962,-1.071,300.93,91.437,177.572,
41218070,1.353,-0.45,1.477,388.78,155.592,143.01,
41218080,-1.998,1.349,1.841,443.747,96.67,68.53,
41218090,-0.312,0.579,1.911,305.112,-30.87,-11.725,
41218100,-0.513,-0.903,1.491,172.9,-53.76,-100.082,
41218110,-0.187,0.777,1.93,153.93,-35.052,-177.152,
41218120,0.726,0.004,1.678,0.857,0.105,-170.957,
41218130,0.515,-0.186,1.345,-88.077,27.422,-134.995,
41218140,0.661,-0.218,1.108,-130.007,42.7,-88.497,
41218150,0.429,-0.406,0.961,-161.665,54.11,-47.827,
41218160,0.406,-0.477,0.971,-178.202,65.782,-19.635,
41218170,0.172,-0.631,0.905,-195.037,86.117,-4.9,
41218180,-0.132,-0.601,0.843,-204.032,108.167,-11.672,
41218190,-0.291,-0.729,0.587,-224.857,125.58,-38.325,
41218190,-0.265,-0.818,0.545,-244.982,143.885,-64.75,
41218210,-0.194,-1.249,0.617,-255.167,176.277,-86.397,
41218210,-0.25,-0.785,0.551,-221.27,179.2,-114.082,
41218230,-0.015,-0.649,0.694,-216.842,195.072,-113.487,
41218230,0.202,-1.146,0.669,-241.447,221.042,-70.787,
41218250,-0.271,-0.846,1.282,-228.532,231.507,-41.982,
41218250,-0.604,-1.197,1.292,-214.777,212.87,-22.522,
41218260,-0.971,-1.258,1.367,-175.21,146.912,-12.687,
41218270,-0.793,-1.118,1.413,-116.252,42.735,-54.04,
41218280,0.11,-0.811,1.242,-21.595,-12.985,-70.21,
41218290,0.322,-0.905,1.282,79.922,-39.375,-108.972,
41218300,-0.418,-1.138,0.691,168.525,-67.812,-180.88,
41218310,-1.887,-0.638,-0.1,280.245,-124.512,-212.817,
41218320,-1.998,0.298,-0.492,372.312,-160.142,-242.34,
41218330,-1.639,0.985,-1.136,391.807,-159.495,-165.987,
41218340,-1.1,1.169,-1.652,332.745,-126.822,23.31,
41218350,-0.683,0.89,-1.307,211.715,-46.217,215.407,
41218360,-0.509,-0.028,-0.671,46.602,-6.422,350.42,
41218370,-0.253,-1.453,-0.511,-42.192,-42.087,395.097,
41218380,0.907,-1.383,-0.509,-28.437,-79.59,368.515,
41218390,1.977,-0.73,-0.45,-64.33,-79.922,322.49,
41218400,1.916,-1.09,-0.6,-168.787,-85.82,210.717,
41218410,1.917,-1.915,0.849,-192.622,-117.372,-28.77,
41218420,-0.534,-1.998,0.562,174.527,-59.657,-78.347,
41218430,-1.705,-0.71,-1.079,384.037,-9.555,92.575,
41218440,-0.656,1.997,1.848,425.687,7.647,83.58,
41218450,-0.738,0.594,1.465,221.06,-24.57,10.29,
41218460,-0.608,-1.888,0.753,132.632,-57.47,-70.822,
41218470,-0.442,-0.663,1.159,236.705,-48.265,-96.145,
41218480,0.192,0.82,1.862,211.277,-40.512,-105.77,
41218490,0.614,-0.292,1.472,59.867,-30.607,-92.207,
41218500,0.571,0.109,1.466,5.442,-3.062,-60.182,
41218510,0.396,-0.21,1.247,-59.482,13.65,-17.167,
41218520,0.244,-0.39,1.057,-103.88,22.942,15.225,
41218530,0.02,-0.468,0.964,-122.745,35.875,30.45,
41218540,-0.127,-0.557,0.935,-137.567,47.092,31.08,
41218550,-0.102,-0.559,0.931,-144.042,59.657,22.767,
41218560,-0.061,-0.509,0.974,-144.48,71.067,14.927,
41218570,0.127,-0.513,0.929,-161.49,89.547,10.797,
41218580,0.053,-0.597,0.875,-181.405,118.072,11.34,
41218580,-0.147,-0.526,0.903,-199.535,144.742,9.135,
41218600,-0.185,-0.436,0.943,-217.227,156.415,0.192,
41218600,-0.01,-0.638,0.765,-239.4,176.417,-9.17,
41218620,0.332,-0.99,0.62,-259.14,217.892,-9.625,
41218620,0.293,-1.052,0.362,-267.487,274.155,18.532,
41218640,0.312,-1.948,0.495,-259.84,316.645,50.68,
41218640,-0.282,-1.131,0.993,-209.755,296.065,61.25,
41218660,-0.936,-0.571,1.09,-151.585,235.672,50.767,
41218660,-1.021,-1.2,0.924,-135.31,136.342,63.77,
41218670,0.191,-0.807,1.012,-90.807,40.425,69.037,
41218680,0.21,-1.043,1.01,-25.882,-49.35,4.515,
41218690,0.356,-0.895,1.169,31.15,-114.8,-34.44,
41218700,-0.251,-0.795,0.842,123.777,-160.597,-48.545,
41218710,-0.449,-0.456,0.536,205.17,-209.825,-87.29,
41218720,-0.194,-0.198,0.132,255.342,-238.122,-109.917,
41218730,-0.145,0.005,-0.563,277.2,-257.005,-136.395,
41218740,0.255,0.392,-0.839,270.252,-249.007,-189.927,
41218750,0.411,0.501,-0.847,224.245,-205.467,-225.802,
41218760,0.188,0.244,-1.026,159.442,-152.39,-216.125,
41218770,-0.116,-0.023,-1.027,93.87,-93.607,-172.357,
41218780,-0.384,-0.569,-1.293,36.907,-52.36,-107.642,
41218790,-1.967,-1.721,0.261,-31.185,-112.157,8.767,
41218800,-1.963,-1.998,1.227,-44.275,-36.12,256.287,
41218810,1.461,-1.967,1.845,210.612,-27.807,236.425,
41218820,0.505,0.122,-1.119,322.945,-31.115,147.542,
41218830,-1.998,1.1,1.634,379.767,62.895,82.792,
41218840,-1.648,-0.854,0.73,246.54,-37.17,-4.252,
41218850,-0.108,-0.841,1.205,268.187,-63.21,-101.5,
41218860,-0.694,0.576,1.687,269.377,-55.44,-183.26,
41218870,0.969,0.209,1.656,149.747,-44.625,-182.63,
41218880,1.008,0.189,1.617,68.477,-13.352,-143.535,
41218890,0.913,0.19,1.481,-8.172,10.605,-69.457,
41218900,0.489,-0.189,1.235,-78.732,22.277,-1.627,
41218910,0.037,-0.384,1.064,-117.04,34.055,32.06,
41218920,-0.344,-0.564,0.933,-133.472,40.565,32.69,
41218920,-0.384,-0.557,0.951,-136.167,39.742,14.297,
41218940,-0.135,-0.458,0.985,-144.182,45.692,-5.512,
41218940,-0.063,-0.474,1.027,-163.345,61.74,-20.545,
41218960,0.011,-0.583,0.858,-179.48,77.63,-31.517,
41218960,-0.052,-0.641,0.736,-190.96,103.985,-39.76,
41218980,-0.337,-0.815,0.448,-222.075,129.552,-65.765,
41218980,-0.026,-1.328,0.576,-260.522,146.842,-94.745,
41219000,0.134,-1.305,0.764,-257.425,185.482,-116.795,
41219000,0.087,-1.1,0.672,-232.645,231.087,-118.615,
41219010,-0.585,-0.977,0.473,-230.177,245.315,-90.125,
41219020,0.129,-1.11,1.163,-239.68,256.935,-82.985,
41219030,-0.475,-1.443,1.047,-212.905,252.42,-57.312,
41219040,-0.684,-1.33,0.949,-155.785,193.077,-60.34,
41219050,-0.351,-1.339,0.631,-107.31,102.69,-65.957,
41219060,0.096,-1.255,0.292,-43.155,24.815,-111.492,
41219070,-1.139,-1.081,0.277,28.927,-68.215,-199.465,
41219080,-1.849,-0.363,0.234,104.072,-111.65,-252,
41219090,-1.998,0.467,-0.018,155.592,-134.225,-237.02,
41219100,-1.823,0.989,-0.145,170.747,-119.752,-151.042,
41219110,-1.641,1.035,-0.008,119.735,-74.357,-19.302,
41219120,-1.393,0.672,0.189,59.972,-29.26,120.382,
41219130,-0.941,0.245,0.487,53.095,-21.787,229.057,
41219140,-0.374,-0.184,0.678,77.77,-54.162,274.925,
41219150,0.251,-0.409,0.498,101.937,-103.005,261.835,
41219160,1.098,-0.347,0.017,117.46,-136.36,244.825,
41219170,1.753,-0.329,-0.433,118.702,-130.445,238.332,
41219180,1.975,-0.267,-0.879,104.107,-111.597,178.762,
41219190,1.571,0.026,-0.772,60.847,-108.272,87.045,
41219200,0.876,-1.654,-0.211,-40.407,-137.847,-77.297,
41219210,-0.07,-1.998,-0.003,-75.74,-121.012,-123.112,
41219220,-1.201,-1.077,-0.744,431.847,-158.515,49.892,
41219230,0.741,1.997,1.332,526.19,-7.77,69.387,
41219240,-1.149,1.969,1.877,348.67,-68.81,65.59,
41219250,-0.566,-0.887,1.388,162.12,-76.072,7.7,
41219260,-0.29,-1.279,1.115,185.57,-69.282,-50.995,
41219270,1.34,1.564,1.982,194.582,-49.77,-55.282,
41219280,-0.597,-0.891,1.244,-8.592,-29.382,-8.785,
41219290,-0.256,0.109,1.397,-42.49,-10.552,-20.79,
41219300,-0.089,-0.391,1.113,-89.915,-0.49,-51.012,
41219310,0.227,-0.52,1.011,-115.325,12.46,-66.832,
41219320,0.318,-0.519,1.016,-132.702,19.67,-52.797,
41219330,0.186,-0.468,1.063,-150.045,26.495,-36.907,
41219330,0.126,-0.431,1.058,-167.912,33.425,-28.455,
41219350,0.114,-0.544,0.946,-189.017,38.972,-21.14,
41219350,0.149,-0.71,0.848,-196.98,52.395,-15.75,
41219370,0.086,-0.559,0.926,-204.575,73.517,-15.312,
41219370,-0.214,-0.546,0.931,-232.837,84.717,-27.44,
41219390,-0.039,-0.538,1.058,-266,86.17,-38.657,
41219390,0.147,-1.057,0.931,-310.065,110.985,-24.885,
41219410,0.131,-1.45,0.968,-325.447,159.74,12.6,
41219410,0.69,-1.669,0.765,-308.035,212.502,45.132,
41219420,0.317,-1.654,0.932,-259.735,198.765,34.16,
41219430,0.369,-1.884,0.826,-203.157,79.677,-14.525,
41219440,1.817,-1.826,0.472,-118.93,18.497,-46.935,
41219450,0.718,-1.859,0.615,-3.64,2.537,-132.895,
41219460,-0.065,-1.362,0.379,131.985,-26.635,-209.825,
41219470,-0.859,-0.747,0.034,211.592,-93.275,-228.025,
41219480,-1.077,-0.421,-0.507,242.742,-135.275,-208.827,
41219490,-0.726,-0.023,-0.965,251.16,-140.035,-164.517,
41219500,-0.568,0.358,-1.239,231.997,-107.887,-108.01,
41219510,-0.712,0.543,-1.175,187.162,-67.637,-34.545,
41219520,-1.072,0.441,-0.707,99.12,-55.842,40.512,
41219530,-1.358,0.025,-0.295,0.035,-102.742,96.757,
41219540,-1.287,-0.372,-0.067,-64.242,-180.705,140.227,
41219550,-0.788,-0.526,-0.016,-85.592,-240.73,184.135,
41219560,-0.246,-0.453,-0.143,-83.615,-255.552,229.81,
41219570,0.088,-0.239,-0.319,-77.21,-229.565,269.535,
41219580,0.349,-0.09,-0.429,-87.01,-179.97,293.107,
41219590,0.25,-0.114,-0.628,-114.94,-140.962,279.212,
41219600,0.987,0.415,0.56,33.53,-147.49,168.822,
41219610,1.998,-1.423,1.998,40.775,-30.782,116.882,
41219620,-0.218,-1.998,0.145,72.082,94.552,23.397,
41219630,-1.194,-0.517,-1.74,441.945,-166.932,0.035,
41219640,1.225,1.603,1.41,400.382,178.955,71.522,
41219650,-0.608,-0.995,0.232,363.615,84.035,20.79,
41219660,-1.941,-1.485,0.734,377.282,36.015,-58.117,
41219670,-0.522,1.171,1.867,466.777,45.342,-109.655,
41219670,0.028,1.049,1.998,340.707,-3.062,-160.282,
41219690,0.568,0.009,1.981,155.715,-18.9,-141.347,
41219690,0.443,0.65,1.995,74.62,-19.477,-96.372,
41219710,0.252,0.097,1.671,-54.092,-23.73,-35.07,
41219710,0.102,-0.28,1.243,-133.542,-32.357,-3.5,
41219730,0.066,-0.389,1.042,-166.057,-28.682,2.817,
41219730,0.079,-0.573,0.948,-186.672,-14.297,-8.155,
41219750,0.344,-0.61,0.93,-196.472,19.897,-21.577,
41219750,0.022,-0.71,0.741,-205.607,65.607,-23.73,
41219760,-0.122,-0.775,0.901,-207.48,66.062,-45.08,
41219770,-0.151,-0.785,0.836,-202.177,39.532,-71.137,
41219780,-0.092,-0.814,0.808,-191.94,18.567,-88.987,
41219790,0.107,-1.151,0.932,-200.182,11.48,-103.565,
41219800,0.369,-1.533,0.677,-183.855,42.21,-100.275,
41219810,0.386,-1.84,0.712,-140.787,101.01,-92.102,
41219820,0.856,-1.998,0.525,-80.587,110.775,-119.437,
41219830,1.998,-1.972,0.421,15.89,174.422,-189.21,
41219840,0.549,-1.608,-1.114,136.92,129.902,-370.055,
41219850,-1.855,-1.198,-1.549,194.372,51.502,-464.082,
41219860,-1.998,-0.527,-1.788,181.282,60.795,-362.022,
