#Format version: 1.0
time[ms],accX[g],accY[g],accZ[g],Value 1,Value 2,Value 3,
54713240,-0.865,0.248,0.141,-27.51,43.75,-36.942,
54713250,-0.99,0.431,0.17,-21.77,44.012,-25.585,
54713260,-1.212,0.209,0.026,-33.932,31.972,17.08,
54713270,-1.086,0.372,0.046,-11.2,11.27,9.695,
54713280,-1.133,0.398,0.011,-5.232,2.292,4.795,
54713290,-1.112,0.41,-0.016,-4.427,1.925,-1.767,
54713300,-1.136,0.439,-0.024,-1.627,6.737,-4.655,
54713310,-1.161,0.451,-0.038,-2.8,15.102,-2.415,
54713320,-1.149,0.416,-0.067,-1.452,23.327,-4.9,
54713330,-1.18,0.421,-0.041,4.777,28.805,-3.29,
54713340,-1.108,0.44,-0.037,3.22,30.362,-4.2,
54713350,-1.078,0.401,-0.015,7.542,30.52,-3.727,
54713360,-1.034,0.416,0.009,8.452,30.642,-4.672,
54713370,-1.019,0.408,0.044,7.07,29.312,-6.947,
54713380,-1.02,0.396,0.073,4.462,24.99,-9.415,
54713390,-1.031,0.427,0.131,-0.612,16.275,-7.437,
54713400,-1.027,0.396,0.137,-16.362,3.447,2.537,
54713410,-0.96,0.381,0.162,-22.032,-12.565,4.637,
54713420,-0.901,0.398,0.184,-26.53,-24.272,3.342,
54713420,-0.867,0.375,0.195,-32.48,-30.502,3.395,
54713440,-0.854,0.365,0.218,-36.942,-33.46,1.925,
54713440,-0.817,0.343,0.216,-40.267,-33.53,-0.77,
54713460,-0.803,0.314,0.223,-42.84,-29.925,-0.91,
54713460,-0.806,0.307,0.24,-42,-25.602,1.505,
54713480,-0.812,0.302,0.25,-37.52,-21.087,2.432,
54713480,-0.813,0.307,0.267,-32.2,-18.042,0.315,
54713500,-0.831,0.307,0.281,-26.95,-15.312,-2.52,
54713500,-0.835,0.307,0.284,-23.415,-14.35,-4.462,
54713510,-0.825,0.292,0.28,-20.475,-12.092,-4.532,
54713520,-0.811,0.284,0.274,-18.392,-9.047,-3.045,
54713530,-0.801,0.275,0.261,-17.36,-2.94,-1.085,
54713540,-0.797,0.262,0.246,-17.027,4.742,-0.682,
54713550,-0.821,0.256,0.232,-17.57,13.492,-1.347,
54713560,-0.868,0.246,0.208,-17.955,19.582,-3.167,
54713570,-0.902,0.237,0.196,-17.202,21.42,-5.687,
54713580,-0.937,0.229,0.185,-16.432,17.657,-7.682,
54713590,-0.949,0.217,0.172,-16.345,10.08,-9.047,
54713600,-0.946,0.206,0.163,-16.187,0.525,-10.57,
54713610,-0.915,0.201,0.156,-15.767,-7.787,-12.11,
54713620,-0.87,0.195,0.147,-16.467,-12.53,-12.565,
54713630,-0.823,0.185,0.143,-18.987,-11.375,-14.017,
54713640,-0.803,0.173,0.128,-22.715,-6.422,-18.025,
54713650,-0.78,0.191,0.13,-26.285,1.68,-21.297,
54713660,-0.917,0.159,0.19,-23.502,13.597,-17.867,
54713670,-1.395,0.257,0.23,-15.015,25.567,-6.825,
54713680,-1.635,0.336,0.306,-3.552,33.057,-1.19,
54713690,-1.546,0.413,0.231,4.847,34.912,10.237,
54713700,-1.158,0.359,0.158,-3.412,26.897,24.29,
54713710,-0.983,0.277,0.113,-11.742,14.875,25.847,
54713720,-0.786,0.268,0.098,-14.665,2.905,16.537,
54713730,-0.746,0.262,0.088,-20.457,-4.865,11.532,
54713740,-0.756,0.287,0.094,-18.305,-10.22,4.655,
54713750,-0.887,0.339,0.141,-10.027,-12.915,2.695,
54713760,-1.029,0.383,0.208,-4.777,-13.142,0.612,
54713770,-1.067,0.387,0.267,-0.717,-8.137,-3.622,
54713780,-1.024,0.355,0.236,-0.14,0.857,-3.097,
54713790,-0.913,0.299,0.191,-2.835,4.48,-0.647,
54713800,-0.861,0.282,0.167,-1.312,5.197,-2.485,
54713810,-0.895,0.28,0.168,1.417,5.092,-7.122,
54713820,-0.956,0.272,0.167,1.89,6.037,-7.945,
54713830,-0.992,0.294,0.165,3.342,6.142,-6.37,
54713830,-1.003,0.31,0.163,3.5,5.075,-4.445,
54713850,-1.037,0.297,0.143,-0.21,1.767,0.017,
54713850,-0.998,0.3,0.141,-1.662,-4.357,1.102,
54713870,-0.981,0.324,0.148,-2.747,-9.975,0.297,
54713870,-0.988,0.288,0.144,-7.892,-14.122,2.432,
54713890,-0.951,0.291,0.163,-8.05,-17.657,5.075,
54713890,-0.952,0.306,0.185,-7.21,-18.2,5.6,
54713910,-0.961,0.295,0.195,-6.702,-17.727,5.81,
54713910,-0.943,0.313,0.199,-5.757,-17.36,6.772,
54713920,-0.931,0.322,0.202,-7.455,-17.29,7.14,
54713930,-0.906,0.323,0.208,-9.38,-15.61,7.28,
54713940,-0.863,0.331,0.222,-11.83,-11.935,7.927,
54713950,-0.847,0.335,0.243,-13.772,-4.445,6.125,
54713960,-0.85,0.323,0.253,-14.7,4.532,1.12,
54713970,-0.875,0.317,0.24,-15.207,14.192,-2.8,
54713980,-0.929,0.318,0.223,-13.737,20.562,-6.597,
54713990,-1.007,0.348,0.208,-11.83,22.785,-10.622,
54714000,-0.982,0.301,0.185,-13.16,20.72,-12.057,
54714010,-1.028,0.293,0.165,-13.562,15.365,-8.89,
54714020,-0.965,0.25,0.139,-11.217,8.347,-6.072,
54714030,-0.961,0.238,0.103,-8.277,5.67,-3.762,
54714040,-0.978,0.242,0.106,-4.252,4.235,-4.287,
54714050,-1.056,0.264,0.126,-3.01,-0.227,-4.952,
54714060,-1.017,0.254,0.15,-2.1,-6.72,-0.857,
54714070,-0.983,0.256,0.158,-0.752,-11.007,5.267,
54714080,-0.953,0.268,0.177,1.925,-13.86,7.192,
54714090,-0.939,0.273,0.19,3.64,-14.105,7.892,
54714100,-0.931,0.283,0.2,5.792,-12.442,7.402,
54714110,-0.937,0.301,0.182,7.805,-10.57,6.16,
54714120,-0.976,0.368,0.093,8.645,-12.512,4.707,
54714130,-1.025,0.388,0.213,1.19,-25.935,1.435,
54714140,-0.957,0.237,0.22,-1.137,-22.295,1.925,
54714150,-0.841,0.31,0.218,6.125,-15.015,3.045,
54714160,-0.907,0.321,0.209,1.102,-13.23,0.035,
54714170,-0.933,0.285,0.23,0.91,-10.727,-2.257,
54714170,-0.903,0.314,0.245,1.61,-5.092,-0.787,
54714190,-0.899,0.285,0.22,-0.56,0.98,-0.437,
54714190,-0.906,0.302,0.194,1.4,5.477,-2.1,
54714210,-0.96,0.323,0.182,1.032,6.265,-4.392,
54714210,-0.978,0.316,0.18,-0.997,5.635,-6.002,
54714230,-0.977,0.306,0.177,-4.252,3.325,-5.18,
54714230,-0.96,0.293,0.176,-7.017,1.33,-3.01,
54714250,-0.94,0.279,0.18,-7.577,-0.087,-2.257,
54714250,-0.937,0.275,0.19,-7.42,-0.052,-1.505,
54714260,-0.955,0.229,0.239,-6.72,0.332,0.035,
54714270,-0.9,0.219,0.214,0.77,7.507,4.252,
54714280,-0.928,0.31,0.172,6.055,10.78,4.217,
54714290,-1.012,0.308,0.157,1.995,8.172,2.887,
54714300,-1.008,0.301,0.174,-1.505,3.622,5.197,
54714310,-0.96,0.303,0.139,-1.505,1.785,7.332,
54714320,-0.96,0.34,0.157,-3.08,-3.937,6.282,
54714330,-0.986,0.302,0.173,-6.055,-7.805,4.585,
54714340,-0.948,0.301,0.193,-4.06,-9.292,3.832,
54714350,-0.922,0.292,0.209,-3.342,-9.152,2.415,
54714360,-0.909,0.265,0.211,-0.665,-6.755,0.577,
54714370,-0.906,0.281,0.213,3.447,-2.31,-0.087,
54714380,-0.914,0.289,0.209,5.372,1.732,-1.102,
54714390,-0.931,0.298,0.201,7.192,5.145,-3.01,
54714400,-0.922,0.36,0.099,7.84,6.86,-4.445,
54714410,-1.095,0.421,0.134,-2.03,-2.432,-10.447,
54714420,-1.077,0.198,0.175,-10.78,-13.37,-10.272,
54714430,-0.881,0.263,0.187,0.542,-11.025,1.942,
54714440,-0.923,0.314,0.175,3.622,-11.357,-2.765,
54714450,-0.966,0.25,0.217,1.172,-13.597,-5.757,
54714460,-0.929,0.227,0.227,2.555,-8.557,0.647,
54714470,-0.895,0.299,0.196,6.212,-2.275,3.027,
54714480,-0.941,0.303,0.193,3.167,-2.45,2.257,
54714490,-0.972,0.295,0.188,1.872,-1.697,3.15,
54714500,-0.963,0.329,0.18,1.837,-1.767,2.817,
54714510,-0.966,0.32,0.177,-1.102,-4.025,1.4,
54714520,-0.955,0.317,0.181,-3.85,-6.125,1.05,
54714530,-0.961,0.324,0.181,-7.84,-7.805,1.68,
54714540,-0.948,0.311,0.186,-11.847,-8.645,2.065,
54714550,-0.921,0.292,0.234,-13.02,-7.717,1.68,
54714560,-0.881,0.182,0.277,-10.097,-0.367,1.68,
54714570,-0.823,0.235,0.217,2.485,13.247,3.622,
54714580,-0.924,0.342,0.183,2.047,16.432,0.56,
54714580,-1.044,0.301,0.171,-3.972,14.595,0.262,
54714600,-1.009,0.311,0.153,-4.322,13.16,2.835,
54714600,-0.963,0.321,0.14,-4.742,8.662,3.43,
54714620,-0.974,0.309,0.153,-6.212,2.817,0.49,
54714620,-0.977,0.3,0.193,-6.317,-1.505,-0.927,
54714640,-0.919,0.259,0.208,-4.742,-1.19,-0.525,
54714640,-0.893,0.258,0.211,0.367,2.45,-2.31,
54714660,-0.897,0.271,0.198,5.04,7.787,-5.372,
54714660,-0.967,0.348,0.158,5.005,11.532,-4.795,
54714670,-1.031,0.322,0.094,-2.817,8.05,-1.032,
54714680,-1.109,0.321,0.113,-4.165,-4.865,-5.81,
54714690,-0.982,0.226,0.174,-0.945,-13.72,-8.522,
54714700,-0.915,0.3,0.181,6.422,-12.337,-5.32,
54714710,-0.947,0.28,0.193,2.24,-13.16,-7.262,
54714720,-0.939,0.243,0.198,1.96,-11.34,-5.967,
54714730,-0.94,0.287,0.187,2.905,-7.56,-2.187,
54714740,-0.941,0.309,0.185,0.962,-6.93,-2.625,
54714750,-0.951,0.276,0.202,-1.435,-6.405,-4.287,
54714760,-0.933,0.288,0.199,-0.157,-3.115,-3.535,
54714770,-0.937,0.309,0.191,-1.575,-0.77,-3.762,
54714780,-0.969,0.296,0.174,-4.112,-1.085,-5.74,
54714790,-0.971,0.307,0.165,-4.48,-2.59,-7.07,
54714800,-0.98,0.314,0.168,-5.915,-5.127,-8.89,
54714810,-0.978,0.298,0.173,-8.207,-6.877,-11.217,
54714820,-0.957,0.29,0.178,-9.887,-8.295,-12.705,
54714830,-0.944,0.262,0.221,-11.392,-8.295,-13.02,
54714840,-0.9,0.169,0.245,-9.66,-2.607,-10.395,
54714850,-0.868,0.237,0.219,-2.292,7.875,-2.467,
54714860,-0.916,0.242,0.184,-6.3,11.182,1.102,
54714870,-0.973,0.238,0.173,-5.337,12.477,5.215,
54714880,-0.972,0.27,0.149,-4.812,11.637,7.84,
54714890,-0.995,0.294,0.155,-4.602,7.857,6.772,
54714900,-0.996,0.286,0.162,-4.2,4.882,3.815,
54714910,-0.993,0.292,0.157,-2.17,1.645,1.382,
54714920,-0.974,0.281,0.176,-0.822,-2.397,-1.067,
54714920,-0.95,0.252,0.19,0.752,-3.377,-2.205,
54714940,-0.93,0.251,0.193,2.66,-1.207,-1.155,
54714940,-0.934,0.27,0.157,3.57,0.91,-0.175,
54714960,-0.982,0.274,0.148,1.942,-1.032,-0.647,
54714960,-1.001,0.266,0.136,1.872,-5.127,-0.927,
54714980,-1.024,0.273,0.141,1.785,-10.972,-0.647,
54714980,-1.013,0.282,0.142,2.047,-17.062,-1.47,
54715000,-1.004,0.261,0.181,-0.105,-22.505,-3.622,
54715000,-0.968,0.266,0.183,0.787,-22.662,-3.377,
54715010,-0.953,0.29,0.179,-1.557,-24.272,-2.625,
54715020,-0.974,0.266,0.211,-6.09,-26.285,3.027,
54715030,-0.888,0.201,0.213,-7.735,-22.995,11.025,
54715040,-0.878,0.273,0.227,0.017,-17.64,11.077,
54715050,-0.917,0.275,0.213,-0.805,-12.862,10.692,
54715060,-0.94,0.275,0.207,-1.575,-10.325,8.837,
54715070,-0.962,0.309,0.205,-0.927,-8.557,5.477,
54715080,-0.984,0.306,0.197,-3.045,-9.59,3.342,
54715090,-0.987,0.298,0.191,-5.057,-11.357,3.552,
54715100,-0.978,0.3,0.192,-7.385,-14.192,4.112,
54715110,-0.957,0.281,0.202,-9.642,-15.995,3.71,
54715120,-0.933,0.273,0.21,-10.237,-16.362,3.465,
54715130,-0.92,0.274,0.218,-10.377,-14.472,3.815,
54715140,-0.92,0.272,0.228,-10.955,-11.882,3.937,
54715150,-0.908,0.205,0.315,-11.41,-7.56,4.06,
54715160,-0.807,0.18,0.268,-1.96,5.46,6.352,
54715170,-0.861,0.311,0.238,4.917,13.912,4.182,
54715180,-0.96,0.275,0.207,-0.997,16.03,2.432,
54715190,-0.984,0.295,0.201,-1.365,16.957,5.722,
54715200,-0.994,0.333,0.181,-1.61,15.715,4.865,
54715210,-1.02,0.321,0.179,-3.272,12.215,-0.14,
54715220,-0.99,0.306,0.172,-4.9,6.755,-3.377,
54715230,-0.982,0.272,0.175,-5.95,0.77,-2.695,
54715240,-0.965,0.253,0.191,-3.377,-2.8,-2.17,
54715250,-0.94,0.244,0.2,-0.735,-3.885,-1.645,
54715260,-0.944,0.237,0.195,1.207,-3.167,-0.63,
54715270,-0.947,0.246,0.2,3.727,-2.485,0.787,
54715280,-0.954,0.249,0.2,5.775,-2.38,1.732,
54715290,-0.967,0.267,0.183,8.452,-3.307,1.365,
54715300,-0.993,0.301,0.152,9.082,-6.037,0.577,
54715310,-1.045,0.333,0.147,5.547,-13.352,-0.14,
54715320,-1.058,0.326,0.163,-0.542,-22.802,0.542,
54715330,-0.993,0.272,0.225,-4.812,-28.332,2.8,
54715330,-0.889,0.249,0.243,-2.012,-24.377,3.552,
54715350,-0.859,0.271,0.249,0.14,-19.582,0.525,
54715350,-0.88,0.28,0.248,-0.332,-14.857,-0.927,
54715370,-0.886,0.246,0.279,-1.557,-9.835,0.262,
54715370,-0.874,0.262,0.246,2.835,0.332,2.502,
54715380,-0.926,0.31,0.221,3.5,4.602,0.7,
54715390,-0.969,0.285,0.21,1.54,4.952,-0.262,
54715400,-0.965,0.289,0.204,1.977,3.71,0.245,
54715410,-0.974,0.297,0.197,1.802,1.977,-0.227,
54715420,-0.982,0.284,0.19,0.612,-1.015,0,
54715430,-0.977,0.298,0.195,-1.067,-3.99,1.085,
54715440,-0.967,0.299,0.203,-4.55,-7.385,0.735,
54715450,-0.954,0.298,0.213,-7.752,-8.505,0.577,
54715460,-0.94,0.296,0.23,-9.87,-8.662,0.595,
54715470,-0.887,0.199,0.319,-10.797,-4.06,0.822,
54715480,-0.761,0.171,0.268,-0.122,11.445,3.377,
54715490,-0.823,0.296,0.236,6.107,21.437,0.647,
54715500,-0.977,0.272,0.201,2.117,24.01,-1.26,
54715510,-1.034,0.301,0.179,1.067,23.555,1.89,
54715520,-1.041,0.327,0.145,0.735,19.442,2.8,
54715530,-1.04,0.322,0.149,-2.257,11.025,0.665,
54715540,-1.026,0.287,0.166,-4.2,2.397,-0.455,
54715550,-0.962,0.275,0.194,-3.727,-2.625,0.087,
54715560,-0.933,0.255,0.198,-3.027,-4.392,-0.735,
54715570,-0.927,0.254,0.198,-1.435,-3.867,-1.382,
54715580,-0.942,0.259,0.193,-0.192,-2.485,-0.455,
54715590,-0.954,0.27,0.194,0.822,-1.382,0.455,
54715600,-0.961,0.266,0.199,2.222,-1.347,0.402,
54715610,-0.95,0.254,0.198,4.987,-0.945,0.227,
54715620,-0.967,0.255,0.189,8.05,-0.822,-0.157,
54715630,-0.974,0.268,0.175,10.535,-1.995,-0.07,
54715640,-0.996,0.299,0.155,9.8,-5.687,1.627,
54715650,-0.998,0.307,0.156,6.142,-12.407,3.272,
54715660,-1.027,0.313,0.188,2.082,-19.372,4.375,
54715670,-0.965,0.264,0.193,-0.857,-22.487,7.175,
54715670,-0.924,0.299,0.212,1.277,-23.677,6.65,
54715690,-0.932,0.287,0.227,-0.717,-23.432,5.442,
54715690,-0.913,0.283,0.228,-1.435,-20.44,6.23,
54715710,-0.908,0.25,0.253,-1.295,-16.975,5.32,
54715710,-0.879,0.26,0.229,2.887,-9.45,6.16,
54715730,-0.929,0.298,0.221,3.762,-6.44,3.85,
54715730,-0.966,0.281,0.218,2.712,-5.407,3.325,
54715750,-0.96,0.288,0.224,2.24,-5.46,5.372,
54715750,-0.953,0.298,0.215,2.065,-5.215,6.125,
54715760,-0.937,0.302,0.215,1.242,-5.792,5.39,
54715770,-0.93,0.31,0.217,-1.207,-5.407,4.69,
54715780,-0.931,0.308,0.218,-3.92,-5.197,3.377,
54715790,-0.924,0.31,0.223,-5.652,-4.095,2.38,
54715800,-0.924,0.314,0.231,-7.157,-2.782,0.927,
54715810,-0.915,0.276,0.26,-7.927,0.945,-1.102,
54715820,-0.88,0.238,0.257,-4.287,8.382,-1.26,
54715830,-0.889,0.282,0.232,-0.647,15.172,-1.137,
54715840,-0.952,0.288,0.207,-2.73,16.24,-1.487,
54715850,-0.994,0.29,0.181,-4.357,15.365,0.402,
54715860,-1.014,0.315,0.163,-6.177,10.867,1.557,
54715870,-1.011,0.303,0.169,-8.172,4.48,1.522,
54715880,-0.979,0.282,0.192,-7.122,-0.787,0.875,
54715890,-0.951,0.282,0.2,-5.827,-2.677,0.63,
54715900,-0.941,0.276,0.215,-6.492,-4.34,0.472,
54715910,-0.926,0.261,0.215,-5.967,-3.71,0.245,
54715920,-0.929,0.278,0.217,-4.06,-2.012,-0.84,
54715930,-0.952,0.282,0.218,-3.92,-0.192,-1.715,
54715940,-0.964,0.282,0.206,-3.535,0.332,-2.082,
54715950,-0.989,0.303,0.18,-2.747,-1.312,-4.077,
54715960,-1.039,0.365,0.102,-5.687,-8.4,-6.685,
54715970,-1.124,0.343,0.164,-15.907,-22.977,-10.202,
54715980,-1.061,0.282,0.161,-18.69,-31.08,-10.15,
54715990,-0.982,0.307,0.228,-18.515,-37.362,-10.272,
54716000,-0.965,0.225,0.232,-19.407,-36.277,-10.43,
54716010,-0.916,0.283,0.246,-17.202,-34.002,-9.24,
54716020,-0.865,0.243,0.341,-24.762,-33.11,-10.885,
54716030,-0.769,0.104,0.299,-12.565,-17.517,-7.245,
54716040,-0.776,0.279,0.276,-4.357,-5.775,-6.352,
54716050,-0.839,0.237,0.263,-7.14,0.752,-7.892,
54716050,-0.89,0.228,0.246,-4.2,6.545,-4.322,
54716070,-0.943,0.298,0.239,-1.067,9.73,-1.295,
54716070,-0.981,0.284,0.225,-1.487,9.047,-1.347,
54716080,-0.999,0.285,0.227,-0.507,6.177,-1.942,
54716090,-0.988,0.289,0.228,-0.91,3.5,-1.505,
54716100,-0.948,0.272,0.229,-1.855,0.665,-1.75,
54716110,-0.904,0.251,0.24,-1.26,-0.192,-2.275,
54716120,-0.892,0.239,0.247,-0.63,1.137,-2.152,
54716130,-0.891,0.238,0.25,0.07,4.602,-1.452,
54716140,-0.915,0.252,0.249,-0.332,7.647,-0.367,
54716150,-0.946,0.262,0.237,-0.735,9.992,0.84,
54716160,-0.964,0.28,0.229,-0.98,10.097,1.54,
54716170,-0.988,0.285,0.216,-2.467,8.802,1.102,
54716180,-1,0.29,0.213,-4.252,6.02,0.315,
54716190,-0.993,0.286,0.229,-6.982,3.675,0.455,
54716200,-0.932,0.2,0.28,-8.907,5.442,1.137,
54716210,-0.862,0.21,0.25,-2.642,15.802,2.747,
54716220,-0.901,0.281,0.238,-1.277,19.092,-0.052,
54716230,-0.956,0.243,0.212,-4.007,21.175,-0.822,
54716240,-0.988,0.274,0.186,-3.01,20.37,1.172,
54716250,-1.009,0.281,0.171,-4.13,16.52,1.907,
54716260,-1.027,0.245,0.152,-3.745,11.252,0.7,
54716270,-1.031,0.265,0.154,-1.365,4.62,0.892,
54716280,-1.022,0.26,0.175,-1.907,-4.077,0.945,
54716290,-0.969,0.223,0.206,-0.14,-8.417,1.067,
54716300,-0.916,0.225,0.218,4.06,-7.42,1.487,
54716310,-0.9,0.234,0.222,7.227,-3.57,0.98,
54716320,-0.921,0.244,0.212,9.292,0.122,-0.35,
54716330,-0.975,0.301,0.185,9.012,1.61,0.017,
54716340,-1.036,0.288,0.139,3.727,-3.5,2.257,
54716350,-1.064,0.263,0.18,2.24,-13.51,-2.1,
54716360,-1.012,0.272,0.163,5.32,-17.692,-3.92,
54716370,-1.033,0.344,0.188,1.96,-24.867,-4.602,
54716380,-0.979,0.205,0.256,-6.02,-29.26,-2.345,
54716390,-0.883,0.223,0.227,-0.262,-21.577,0.927,
54716400,-0.902,0.308,0.238,-1.207,-19.967,-2.1,
54716410,-0.904,0.2,0.254,-5.425,-18.62,-2.782,
54716420,-0.885,0.241,0.255,-0.035,-11.917,3.08,
54716420,-0.918,0.294,0.254,-0.367,-8.277,3.535,
54716440,-0.9,0.204,0.275,-2.992,-4.13,3.5,
54716440,-0.876,0.248,0.245,1.925,4.095,5.81,
54716460,-0.922,0.296,0.231,1.225,6.72,3.447,
54716460,-0.964,0.268,0.213,-1.207,6.09,3.692,
54716480,-0.991,0.309,0.209,-2.362,3.885,5.652,
54716480,-1.001,0.322,0.204,-5.81,0.105,4.112,
54716500,-0.974,0.314,0.208,-8.347,-2.677,-0.665,
54716500,-0.924,0.292,0.276,-9.747,-3.867,-6.597,
54716510,-0.896,0.15,0.264,-7.157,6.055,-10.885,
54716520,-0.851,0.218,0.231,4.83,13.527,-10.5,
54716530,-0.938,0.245,0.221,1.767,11.83,-7.35,
54716540,-0.947,0.188,0.21,1.942,11.69,-0.227,
54716550,-0.947,0.266,0.21,4.952,14.367,3.517,
54716560,-1.013,0.271,0.189,1.89,14.455,1.68,
54716570,-1.027,0.266,0.171,-0.087,11.532,0.367,
54716580,-1.045,0.268,0.178,-2.31,5.25,0.752,
54716590,-0.99,0.25,0.186,-1.627,0.262,0.735,
54716600,-0.97,0.255,0.2,-1.855,-3.675,-0.595,
54716610,-0.918,0.21,0.203,-1.015,-2.012,-0.612,
54716620,-0.917,0.252,0.219,2.642,0.227,-1.225,
54716630,-0.958,0.216,0.207,1.662,1.872,2.38,
54716640,-0.963,0.231,0.215,3.517,1.4,4.987,
54716650,-0.995,0.265,0.172,3.71,0.857,5.985,
54716660,-0.984,0.296,0.145,2.817,-3.832,4.182,
54716670,-1.062,0.294,0.136,-0.525,-9.52,-0.332,
54716680,-0.983,0.271,0.225,0.7,-16.257,-4.48,
54716690,-0.951,0.266,0.213,1.715,-13.265,-5.495,
54716700,-0.978,0.296,0.225,-2.835,-14.087,-4.252,
54716710,-0.932,0.202,0.219,-6.335,-14.472,-1.207,
54716720,-0.89,0.241,0.227,-0.017,-11.427,-0.7,
54716730,-0.925,0.261,0.224,-0.017,-8.855,-0.507,
54716740,-0.894,0.178,0.26,-1.417,-5.022,1.365,
54716750,-0.891,0.236,0.217,5.215,4.252,4.112,
54716760,-0.958,0.274,0.212,3.517,4.76,2.835,
54716760,-0.984,0.234,0.198,1.085,3.027,4.795,
54716780,-0.988,0.281,0.196,2.24,0.717,6.422,
54716780,-1,0.297,0.193,0.017,-1.575,6.055,
54716800,-0.994,0.297,0.185,-3.29,-4.655,4.55,
54716800,-0.983,0.306,0.197,-6.86,-8.54,1.75,
54716820,-0.975,0.288,0.206,-10.622,-12.32,-0.192,
54716820,-0.951,0.284,0.22,-12.705,-14.035,-0.752,
54716830,-0.892,0.208,0.319,-13.562,-10.622,-2.642,
54716840,-0.831,0.152,0.248,-6.002,3.902,-2.765,
54716850,-0.848,0.282,0.233,0.21,10.272,-4.095,
54716860,-0.967,0.221,0.204,-7.017,9.747,-4.2,
54716870,-0.965,0.22,0.2,-4.637,9.852,2.607,
54716880,-1,0.276,0.192,-3.692,8.82,6.16,
54716890,-1.026,0.262,0.177,-4.235,6.265,6.107,
54716900,-0.999,0.283,0.182,-2.642,2.432,5.215,
54716910,-1.022,0.295,0.188,-4.375,-2.782,2.03,
54716920,-0.995,0.257,0.205,-5.53,-7.542,1.872,
54716930,-0.917,0.235,0.206,-3.395,-8.365,2.59,
54716940,-0.895,0.225,0.218,0.105,-7.28,0.542,
54716950,-0.9,0.209,0.23,3.342,-2.992,0.7,
54716960,-0.91,0.215,0.233,6.755,1.732,1.382,
54716970,-0.944,0.234,0.204,9.45,5.25,1.47,
54716980,-0.986,0.277,0.169,11.042,3.867,2.012,
54716990,-1.085,0.309,0.148,6.772,-2.852,2.94,
54717000,-1.049,0.307,0.155,2.345,-12.985,3.237,
54717010,-1.049,0.287,0.223,-1.61,-19.512,3.167,
54717020,-0.955,0.259,0.2,-2.345,-18.112,4.34,
54717030,-0.957,0.292,0.24,-3.535,-20.317,-1.207,
54717040,-0.928,0.212,0.235,-6.142,-19.11,-0.717,
54717050,-0.868,0.259,0.26,-2.555,-15.995,1.19,
54717060,-0.84,0.18,0.294,-3.115,-8.96,1.995,
54717070,-0.832,0.232,0.24,3.937,4.235,5.197,
54717080,-0.925,0.284,0.22,2.362,6.86,1.4,
54717090,-0.972,0.239,0.198,1.312,5.81,3.797,
54717100,-1,0.3,0.187,3.71,1.802,6.422,
54717110,-1.037,0.318,0.182,1.89,-3.955,5.897,
54717120,-1.048,0.315,0.175,-2.73,-10.587,4.182,
54717130,-1.02,0.319,0.183,-7.157,-17.692,0.192,
54717140,-0.976,0.27,0.267,-12.512,-22.68,-2.905,
54717150,-0.878,0.165,0.288,-12.495,-15.697,-2.327,
54717160,-0.818,0.229,0.261,-3.43,-4.235,-2.03,
54717170,-0.905,0.251,0.246,-4.882,-0.245,-4.62,
54717170,-0.909,0.212,0.237,-4.025,2.502,-0.017,
54717190,-0.935,0.257,0.228,-1.295,5.18,3.92,
54717190,-0.968,0.273,0.213,-0.472,6.317,4.305,
54717210,-0.985,0.276,0.209,-2.012,4.497,4.41,
54717210,-0.971,0.287,0.215,-1.82,2.24,2.362,
54717230,-0.986,0.28,0.216,-2.135,-0.227,0.857,
54717230,-0.963,0.257,0.215,-0.822,-1.785,0.315,
54717250,-0.934,0.25,0.229,1.627,-1.785,-1.68,
54717250,-0.919,0.229,0.231,3.517,1.12,-3.64,
54717260,-0.906,0.225,0.233,6.615,4.27,-4.637,
54717270,-0.923,0.248,0.208,9.537,6.877,-4.97,
54717280,-0.986,0.27,0.184,9.327,4.725,-4.532,
54717290,-1.054,0.299,0.17,6.37,-1.242,-2.712,
54717300,-1.037,0.26,0.218,1.435,-8.522,0.192,
54717310,-0.969,0.239,0.198,1.96,-7.7,3.972,
54717320,-0.97,0.295,0.213,2.415,-10.43,1.715,
54717330,-0.959,0.231,0.229,-2.012,-13.195,2.31,
54717340,-0.899,0.22,0.232,0.105,-11.637,5.757,
54717350,-0.898,0.266,0.241,3.482,-8.592,5.792,
54717360,-0.878,0.229,0.287,2.747,-3.727,5.687,
54717370,-0.854,0.234,0.253,6.335,8.382,6.16,
54717380,-0.914,0.307,0.241,7.262,13.002,3.972,
54717390,-0.968,0.282,0.214,1.995,12.897,5.075,
54717400,-0.991,0.294,0.193,0.367,10.027,6.825,
54717410,-1.021,0.322,0.177,-1.19,5.792,5.705,
54717420,-1.04,0.322,0.163,-6.125,-0.875,4.252,
54717430,-1.029,0.324,0.181,-10.815,-8.82,2.485,
54717440,-0.955,0.279,0.258,-14.402,-13.492,0.262,
54717450,-0.868,0.162,0.266,-12.687,-5.827,-1.207,
54717460,-0.815,0.203,0.249,-2.94,3.01,-2.345,
54717470,-0.879,0.24,0.232,-2.642,7.262,-1.925,
54717480,-0.929,0.222,0.22,-2.047,10.745,2.257,
54717490,-0.983,0.272,0.181,1.015,12.95,4.392,
54717500,-1.041,0.308,0.179,0,9.1,3.167,
54717510,-1.048,0.286,0.177,-3.132,3.552,2.607,
54717510,-1.009,0.282,0.174,-2.817,-1.89,1.872,
54717530,-0.98,0.271,0.195,-2.1,-7.822,0.175,
54717530,-0.929,0.229,0.223,0.157,-9.31,-0.77,
54717550,-0.886,0.222,0.24,4.462,-5.337,-1.697,
54717550,-0.882,0.233,0.241,7.297,0.98,-2.607,
54717570,-0.908,0.254,0.199,9.66,5.985,-3.447,
54717570,-1.04,0.332,0.161,8.417,4.567,-2.73,
54717580,-1.055,0.253,0.179,0.927,-3.64,1.33,
54717590,-1.018,0.282,0.156,6.037,-6.16,0.367,
54717600,-1.014,0.296,0.183,4.025,-13.562,-3.15,
54717610,-0.972,0.255,0.212,2.152,-17.762,-4.2,
54717620,-0.943,0.264,0.202,0.997,-19.04,3.307,
54717630,-0.92,0.251,0.244,-0.525,-20.597,4.077,
54717640,-0.856,0.187,0.277,0.367,-14.367,5.652,
54717650,-0.823,0.244,0.249,6.475,-2.485,7.245,
54717660,-0.906,0.291,0.23,5.95,2.625,5.267,
54717670,-0.957,0.273,0.215,3.115,4.322,7.332,
54717680,-0.985,0.307,0.218,1.785,3.045,7.332,
54717690,-0.981,0.293,0.217,-1.12,2.012,5.25,
54717700,-0.951,0.284,0.219,-2.59,1.855,4.322,
54717710,-0.944,0.295,0.21,-4.235,1.855,4.235,
54717720,-0.942,0.286,0.212,-7.017,-0.227,4.445,
54717730,-0.945,0.279,0.206,-8.645,-0.087,4.76,
54717740,-0.968,0.295,0.196,-9.047,-0.49,3.377,
54717750,-0.991,0.295,0.188,-11.672,-2.607,2.17,
54717760,-0.961,0.274,0.231,-13.107,-5.565,1.732,
54717770,-0.925,0.16,0.231,-10.237,-1.12,0.665,
54717780,-0.893,0.236,0.199,1.96,5.162,0.595,
54717790,-1.005,0.28,0.202,-0.56,1.225,1.767,
54717800,-0.987,0.237,0.18,-1.015,-1.26,6.912,
54717810,-0.987,0.3,0.191,1.102,-3.15,7.892,
54717820,-0.975,0.293,0.194,-1.82,-6.02,7.175,
54717830,-0.959,0.292,0.206,-3.15,-8.417,5.827,
54717840,-0.948,0.297,0.226,-2.747,-9.747,4.357,
54717850,-0.926,0.271,0.234,-2.117,-9.17,2.257,
54717860,-0.906,0.261,0.238,0.525,-6.545,0.192,
54717870,-0.905,0.255,0.228,2.835,-1.977,-1.505,
54717880,-0.923,0.257,0.22,5.005,1.82,-2.625,
54717890,-0.949,0.254,0.218,6.807,3.762,-3.22,
54717900,-0.969,0.269,0.187,8.697,4.06,-3.062,
54717910,-1.028,0.34,0.153,7.962,-0.822,-3.027,
54717920,-1.103,0.305,0.167,0.07,-11.742,-2.572,
54717920,-1.014,0.271,0.155,0.017,-18.34,0.84,
54717940,-0.983,0.315,0.211,-0.367,-26.215,-0.14,
54717940,-0.928,0.223,0.243,-2.362,-27.422,-0.21,
54717960,-0.876,0.239,0.266,0.752,-22.347,0.77,
54717960,-0.866,0.254,0.274,1.102,-16.31,1.015,
54717980,-0.879,0.264,0.253,0.175,-9.257,3.115,
54717980,-0.93,0.308,0.236,-0.875,-6.055,4.375,
54718000,-0.937,0.282,0.253,-3.395,-5.057,2.8,
54718000,-0.917,0.264,0.254,-1.715,-1.417,2.537,
54718010,-0.928,0.289,0.231,0.035,2.082,1.452,
54718020,-0.929,0.279,0.232,-0.962,1.662,-0.577,
54718030,-0.934,0.279,0.223,-1.33,1.872,-0.105,
54718040,-0.946,0.304,0.223,-2.642,0.945,1.102,
54718050,-0.954,0.302,0.214,-5.635,-0.035,1.155,
54718060,-0.965,0.312,0.215,-8.54,-2.222,-0.35,
54718070,-0.981,0.31,0.213,-12.407,-3.937,-1.662,
54718080,-0.931,0.275,0.284,-15.295,-5.705,-2.782,
54718090,-0.843,0.122,0.286,-12.827,3.902,-4.55,
54718100,-0.808,0.239,0.255,3.132,16.852,-5.827,
54718110,-0.955,0.262,0.213,-0.227,19.53,-6.142,
54718120,-0.973,0.255,0.19,0.367,19.11,-0.455,
54718130,-1.047,0.31,0.184,0.035,15.137,0.455,
54718140,-1.033,0.284,0.159,-1.33,9.905,1.68,
54718150,-1.029,0.305,0.172,-2.1,2.327,0.385,
54718160,-1.022,0.28,0.182,-4.305,-6.335,0.07,
54718170,-0.952,0.257,0.218,-2.817,-11.27,0.647,
54718180,-0.915,0.237,0.232,0.315,-10.762,-1.277,
54718190,-0.892,0.231,0.236,3.692,-6.282,-3.447,
54718200,-0.908,0.24,0.227,5.827,-1.61,-3.622,
54718210,-0.946,0.283,0.192,7.14,0.332,-3.15,
54718220,-1.03,0.303,0.181,4.952,-3.955,-2.765,
54718230,-1.071,0.314,0.159,2.555,-11.672,-0.857,
54718240,-1.025,0.273,0.209,-1.155,-20.51,0.105,
54718250,-0.946,0.256,0.221,0.42,-20.632,1.575,
54718260,-0.919,0.27,0.254,-0.84,-20.58,0.262,
54718260,-0.887,0.216,0.241,-0.577,-16.625,1.277,
54718280,-0.893,0.285,0.251,2.607,-13.737,1.277,
54718280,-0.889,0.225,0.289,0,-10.657,1.032,
54718300,-0.875,0.225,0.248,4.882,0.14,2.695,
54718300,-0.935,0.308,0.239,6.335,4.252,1.312,
54718320,-0.962,0.264,0.226,2.012,4.445,1.995,
54718320,-0.954,0.291,0.229,2.082,3.657,2.73,
54718330,-0.963,0.296,0.219,-0.402,2.222,2.17,
54718340,-0.957,0.286,0.208,-3.5,-0.21,3.29,
54718350,-0.971,0.318,0.212,-6.37,-2.817,3.482,
54718360,-0.973,0.316,0.221,-10.955,-5.845,2.502,
54718370,-0.926,0.295,0.269,-14.56,-6.737,1.312,
54718380,-0.834,0.167,0.315,-14.84,0.822,-2.117,
54718390,-0.784,0.209,0.251,-2.187,17.22,-4.795,
54718400,-0.908,0.283,0.226,-1.207,20.982,-6.982,
54718410,-0.981,0.221,0.178,-1.487,21,-2.467,
54718420,-1.037,0.31,0.17,3.377,16.905,-0.087,
54718430,-1.088,0.303,0.178,0.122,10.447,-1.015,
54718440,-1.032,0.271,0.145,-1.942,3.115,-0.822,
54718450,-1.036,0.297,0.176,-2.957,-6.37,-1.837,
54718460,-0.975,0.229,0.213,-3.675,-12.897,-1.54,
54718470,-0.904,0.213,0.235,0.507,-11.987,-0.98,
54718480,-0.874,0.22,0.247,5.6,-6.93,-2.852,
54718490,-0.889,0.23,0.223,7.665,-0.07,-2.677,
54718500,-0.963,0.289,0.177,8.732,2.187,-2.52,
54718510,-1.102,0.338,0.142,3.675,-4.742,-1.505,
54718520,-1.089,0.249,0.194,-2.975,-16.87,2.31,
54718530,-0.982,0.263,0.185,2.292,-19.372,4.882,
54718540,-0.989,0.303,0.226,1.575,-24.517,0.35,
54718550,-0.921,0.231,0.227,-1.907,-24.885,2.572,
54718560,-0.892,0.273,0.256,-0.875,-24.167,3.447,
54718570,-0.844,0.206,0.304,-1.662,-18.462,3.29,
54718580,-0.814,0.214,0.274,3.605,-5.932,3.972,
54718590,-0.89,0.278,0.243,6.3,1.907,3.412,
54718600,-0.956,0.286,0.229,4.725,3.482,4.287,
54718610,-0.994,0.297,0.227,3.92,2.432,3.57,
54718620,-0.989,0.299,0.223,2.24,0.665,2.887,
54718630,-0.951,0.275,0.224,0.14,-1.4,1.417,
54718640,-0.926,0.271,0.231,-0.455,-1.767,0.14,
54718650,-0.921,0.274,0.232,-1.645,-1.295,0.245,
54718660,-0.934,0.274,0.224,-3.325,-1.19,1.26,
54718670,-0.958,0.287,0.22,-5.162,-2.537,2.467,
54718670,-0.974,0.299,0.217,-8.75,-4.847,3.5,
54718690,-0.955,0.296,0.224,-11.707,-6.877,3.185,
54718690,-0.893,0.256,0.319,-13.72,-5.547,1.505,
54718710,-0.807,0.151,0.295,-8.907,8.54,-1.837,
54718710,-0.83,0.253,0.256,2.1,21.577,-4.41,
54718730,-0.927,0.281,0.201,-0.997,23.275,-4.375,
54718730,-1.022,0.257,0.179,-2.45,20.265,-1.102,
54718750,-1.056,0.301,0.172,0.63,15.312,1.575,
54718750,-1.066,0.31,0.166,-0.647,9.572,1.4,
54718760,-1.05,0.291,0.163,-3.395,2.117,-1.54,
54718770,-1.013,0.27,0.186,-6.317,-6.3,-0.717,
54718780,-0.945,0.231,0.219,-4.97,-11.042,-0.367,
54718790,-0.888,0.213,0.236,-0.14,-9.065,-2.222,
54718800,-0.878,0.214,0.237,4.235,-3.482,-3.307,
54718810,-0.9,0.229,0.241,7.56,3.027,-3.325,
54718820,-0.933,0.244,0.226,9.502,7.892,-2.87,
54718830,-1.022,0.274,0.184,8.592,9.485,0.577,
54718840,-1.087,0.358,0.077,4.725,0.962,5.18,
54718850,-1.148,0.324,0.165,-3.237,-20.685,-2.59,
54718860,-1.015,0.267,0.217,-2.975,-26.25,-1.907,
54718870,-0.924,0.254,0.205,-4.462,-25.812,3.237,
54718880,-0.925,0.288,0.227,-1.732,-27.387,-0.542,
54718890,-0.895,0.224,0.274,-6.982,-28.647,-0.63,
54718900,-0.814,0.165,0.298,-3.57,-20.422,2.047,
54718910,-0.834,0.26,0.261,4.357,-7.91,2.59,
54718920,-0.91,0.267,0.247,1.662,-3.045,1.89,
54718930,-0.947,0.244,0.237,1.68,0.385,2.975,
54718940,-0.96,0.294,0.232,3.85,1.47,3.395,
54718950,-0.974,0.284,0.225,1.715,-0.385,2.432,
54718960,-0.964,0.279,0.227,1.137,-1.82,0.927,
54718970,-0.949,0.287,0.23,0.49,-2.205,0.192,
54718980,-0.936,0.279,0.231,-1.067,-2.257,-0.105,
54718990,-0.921,0.269,0.233,-1.977,-2.485,-0.192,
54719000,-0.917,0.269,0.235,-2.135,-2.03,-0.245,
54719010,-0.947,0.279,0.227,-3.395,-2.082,-0.105,
54719010,-0.97,0.284,0.22,-6.09,-3.167,0.28,
54719030,-0.976,0.291,0.218,-8.47,-5.267,0.56,
54719030,-0.989,0.292,0.224,-11.287,-7.63,1.015,
54719050,-0.899,0.221,0.316,-13.457,-6.755,0.122,
54719050,-0.825,0.175,0.251,-6.44,5.565,-2.31,
54719070,-0.876,0.269,0.257,-0.91,11.322,-4.235,
54719070,-0.938,0.226,0.225,-4.06,14.21,-1.225,
54719080,-0.959,0.259,0.214,-1.067,15.207,1.47,
54719090,-1.006,0.29,0.192,0.507,14.595,0.735,
54719100,-1.043,0.283,0.176,-1.137,9.835,-1.242,
54719110,-1.055,0.281,0.176,-2.152,2.957,-1.61,
54719120,-1.024,0.272,0.191,-2.957,-4.777,-1.155,
54719130,-0.982,0.256,0.205,-3.01,-10.15,-0.84,
54719140,-0.947,0.237,0.216,-2.73,-13.142,-0.542,
54719150,-0.905,0.227,0.231,-0.455,-11.917,-0.805,
54719160,-0.899,0.227,0.235,2.922,-9.065,-2.485,
54719170,-0.915,0.233,0.244,5.407,-5.53,-2.625,
54719180,-0.934,0.237,0.242,6.86,-2.677,-0.822,
54719190,-0.968,0.275,0.214,7.367,-0.682,0.507,
54719200,-1.015,0.317,0.191,4.9,-3.885,-0.122,
54719210,-1.037,0.294,0.21,-0.227,-9.572,-0.472,
54719220,-0.981,0.275,0.21,-1.207,-12.512,0.315,
54719230,-0.967,0.29,0.216,-1.435,-14.962,-1.557,
54719240,-0.957,0.25,0.242,-3.622,-18.007,-3.255,
54719250,-0.9,0.204,0.254,-3.01,-16.362,-1.645,
54719260,-0.9,0.249,0.251,0.857,-12.057,0.332,
54719270,-0.932,0.238,0.242,-0.14,-9.747,0.385,
54719280,-0.927,0.231,0.241,0.717,-7.98,1.942,
54719290,-0.943,0.265,0.247,2.03,-6.702,2.73,
54719300,-0.949,0.25,0.246,0.717,-6.247,3.027,
54719310,-0.933,0.257,0.249,0.77,-5.582,4.025,
54719320,-0.925,0.258,0.253,0.507,-4.375,3.255,
54719330,-0.921,0.261,0.246,1.05,-2.205,1.942,
54719340,-0.934,0.269,0.249,0.42,-0.665,1.382,
54719350,-0.932,0.268,0.247,-0.682,0.437,1.75,
54719360,-0.926,0.279,0.25,-1.89,1.452,1.662,
54719370,-0.933,0.279,0.243,-3.78,2.572,1.19,
54719380,-0.958,0.287,0.23,-5.547,2.695,0,
54719390,-0.982,0.289,0.226,-7.927,0.437,-0.665,
54719400,-1,0.284,0.221,-10.71,-2.152,-0.122,
54719410,-0.99,0.275,0.221,-12.512,-5.267,0,
54719420,-0.92,0.232,0.282,-12.635,-6.755,-1.137,
54719420,-0.835,0.121,0.29,-8.732,1.557,-2.852,
54719440,-0.836,0.24,0.246,3.447,13.055,-2.607,
54719440,-0.95,0.274,0.218,-0.875,12.425,-2.257,
54719450,-0.986,0.21,0.217,-3.272,10.185,3.342,
54719460,-0.99,0.267,0.207,1.767,9.135,5.197,
54719470,-1.015,0.282,0.197,2.572,6.09,3.307,
54719480,-1.035,0.28,0.191,1.522,0.595,1.505,
54719490,-1.027,0.293,0.201,-0.507,-5.722,1.522,
54719500,-0.986,0.269,0.215,-2.467,-12.075,1.995,
54719510,-0.94,0.244,0.237,-1.47,-14.35,1.33,
54719520,-0.901,0.229,0.243,1.47,-12.477,-0.875,
54719530,-0.892,0.232,0.259,5.057,-7.945,-3.185,
54719540,-0.898,0.225,0.26,7.77,-2.887,-4.252,
54719550,-0.923,0.231,0.244,9.975,1.417,-3.745,
54719560,-0.96,0.243,0.235,11.357,2.957,-3.15,
54719570,-1.042,0.308,0.121,11.427,1.312,-1.557,
54719580,-1.187,0.391,0.149,2.8,-16.87,-1.75,
54719590,-1.092,0.218,0.191,-7.997,-33.39,2.8,
54719600,-0.953,0.237,0.22,0.787,-36.487,5.285,
54719610,-0.935,0.29,0.247,2.73,-38.482,-1.557,
54719620,-0.892,0.204,0.271,-2.485,-39.375,-2.257,
54719630,-0.837,0.201,0.316,0.945,-33.897,2.152,
54719640,-0.794,0.236,0.337,2.257,-25.252,4.55,
54719650,-0.81,0.248,0.335,2.747,-13.265,4.235,
54719660,-0.875,0.259,0.32,2.747,-4.305,1.242,
54719670,-0.874,0.288,0.29,2.222,2.642,2.957,
54719680,-0.942,0.304,0.27,1.172,5.757,0.35,
54719690,-0.965,0.298,0.266,-0.892,5.775,-1.365,
54719700,-0.964,0.282,0.257,-3.535,5.32,-2.222,
54719710,-0.956,0.279,0.249,-5.145,4.497,-4.427,
54719720,-0.955,0.262,0.24,-7.77,2.765,-4.042,
54719730,-0.952,0.254,0.245,-8.645,0.595,-2.012,
54719740,-0.949,0.243,0.249,-8.732,-0.507,-0.595,
54719750,-0.915,0.21,0.313,-7.997,-0.525,-0.945,
54719760,-0.812,0.12,0.312,-3.622,8.942,-1.487,
54719760,-0.854,0.275,0.262,7.77,21.157,-1.68,
54719780,-0.976,0.29,0.241,1.085,21.227,-4.742,
54719780,-1.003,0.221,0.228,-2.345,18.97,0.227,
54719800,-0.995,0.289,0.218,0.7,17.447,2.712,
54719800,-1.015,0.295,0.205,-1.277,12.67,0.472,
54719820,-1.021,0.261,0.208,-4.375,6.632,-0.735,
54719820,-0.978,0.256,0.226,-5.005,1.54,-0.035,
54719830,-0.956,0.26,0.236,-4.252,-0.577,-0.787,
54719840,-0.953,0.237,0.23,-4.357,-2.362,-1.627,
54719850,-0.94,0.239,0.237,-3.482,-2.502,-0.14,
54719860,-0.94,0.238,0.227,-2.415,-2.047,0.577,
54719870,-0.952,0.258,0.223,-1.225,-2.52,0.56,
54719880,-0.975,0.253,0.228,-1.837,-5.11,0.752,
54719890,-0.973,0.243,0.237,-0.945,-6.177,1.225,
54719900,-0.96,0.244,0.244,0.245,-6.807,0.752,
54719910,-0.931,0.228,0.255,1.68,-5.6,-0.262,
54719920,-0.9,0.225,0.27,4.847,-2.117,-1.102,
54719930,-0.905,0.238,0.255,7.175,2.975,-2.397,
54719940,-0.964,0.264,0.209,7.455,4.655,-3.255,
54719950,-1.053,0.3,0.175,4.007,-0.367,-2.642,
54719960,-1.106,0.3,0.178,-1.435,-11.725,-1.172,
54719970,-1.045,0.246,0.221,-3.972,-21.262,0.192,
54719980,-0.973,0.245,0.226,-0.77,-23.782,-0.315,
54719990,-0.97,0.271,0.238,-1.015,-26.582,-2.607,
54720000,-0.943,0.221,0.249,-4.305,-29.68,-1.995,
54720010,-0.872,0.2,0.312,-3.045,-28.437,0.63,
54720020,-0.812,0.185,0.31,0.945,-18.462,2.432,
54720030,-0.814,0.232,0.311,4.025,-8.61,4.427,
54720040,-0.843,0.257,0.306,3.237,-0.735,3.972,
54720050,-0.894,0.263,0.296,1.575,4.55,3.815,
54720060,-0.929,0.272,0.27,0.455,8.172,5.425,
54720070,-0.959,0.288,0.25,-0.14,9.082,3.64,
54720080,-0.988,0.288,0.243,-2.485,7.84,1.872,
54720090,-0.986,0.284,0.243,-5.285,5.407,0.577,
54720100,-0.966,0.279,0.246,-7.385,3.395,-1.347,
54720110,-0.946,0.269,0.255,-9.415,1.365,-2.835,
54720120,-0.922,0.255,0.278,-11.462,1.207,-4.165,
54720130,-0.866,0.185,0.309,-12.022,6.16,-6.475,
54720140,-0.831,0.207,0.294,-6.212,18.9,-7.892,
54720140,-0.905,0.262,0.262,-5.302,26.775,-10.57,
54720160,-0.988,0.255,0.225,-9.695,28.122,-10.377,
54720160,-1.037,0.257,0.201,-12.232,23.887,-8.715,
54720170,-1.069,0.268,0.181,-13.475,17.517,-5.477,
54720180,-1.032,0.229,0.181,-12.862,9.537,-3.587,
54720190,-1.008,0.239,0.193,-8.557,4.025,-5.915,
54720200,-0.985,0.216,0.202,-7.052,-1.487,-7.647,
54720210,-0.966,0.209,0.225,-5.337,-5.075,-6.755,
54720220,-0.943,0.197,0.223,-5.477,-6.3,-3.605,
54720230,-0.936,0.205,0.22,-3.167,-6.282,-1.802,
54720240,-0.97,0.221,0.222,-0.735,-7.385,-0.7,
54720250,-0.98,0.218,0.222,0.105,-8.207,1.207,
54720260,-0.98,0.22,0.228,1.155,-9.17,-0.175,
54720270,-0.98,0.216,0.229,1.942,-9.065,-2.205,
54720280,-0.975,0.217,0.247,2.012,-8.592,-2.415,
54720290,-0.942,0.219,0.247,4.042,-7.717,-1.837,
54720300,-0.926,0.245,0.225,5.04,-6.352,-2.065,
54720310,-0.964,0.273,0.203,3.447,-8.767,-2.957,
54720320,-1,0.269,0.213,-1.347,-16.397,-1.382,
54720330,-0.954,0.221,0.273,-3.762,-21.437,2.905,
54720340,-0.889,0.237,0.281,0.28,-16.765,4.182,
54720350,-0.918,0.28,0.279,1.855,-11.83,-1.172,
54720360,-0.941,0.242,0.266,-1.977,-10.062,-4.97,
54720370,-0.924,0.227,0.256,-2.415,-8.872,-3.605,
54720380,-0.93,0.233,0.26,-0.962,-8.557,-3.115,
54720390,-0.932,0.192,0.262,-0.297,-6.44,-3.657,
54720400,-0.949,0.218,0.25,1.82,-2.8,-2.957,
54720410,-0.975,0.217,0.244,0.42,-3.167,-3.552,
54720420,-0.974,0.19,0.241,0.437,-5.075,-2.275,
54720430,-0.961,0.207,0.249,1.715,-6.79,0.315,
54720440,-0.95,0.209,0.252,0.525,-6.842,3.045,
54720450,-0.938,0.215,0.259,-0.542,-5.88,4.287,
54720460,-0.925,0.228,0.266,-1.032,-3.92,3.867,
54720470,-0.922,0.236,0.276,-1.907,-2.257,3.587,
54720480,-0.921,0.241,0.275,-2.695,0.262,3.622,
54720490,-0.928,0.261,0.269,-3.325,2.275,2.38,
54720500,-0.939,0.262,0.256,-4.76,3.955,0.7,
54720510,-0.946,0.264,0.259,-6.335,3.902,-0.455,
54720510,-0.933,0.259,0.265,-8.067,3.832,-0.997,
54720530,-0.923,0.196,0.307,-8.872,4.287,-1.837,
54720530,-0.854,0.129,0.274,-2.817,12.04,1.627,
54720550,-0.881,0.195,0.235,5.285,20.002,3.535,
54720550,-0.974,0.275,0.245,5.775,22.155,0.052,
54720570,-1.11,0.148,0.149,-2.327,16.905,10.167,
54720570,-1.07,0.229,0.177,3.342,7.647,13.405,
54720580,-1.062,0.284,0.17,2.555,-0.262,8.277,
54720590,-1.073,0.229,0.18,0.227,-9.047,0.735,
54720600,-0.975,0.221,0.226,1.645,-15.592,-1.977,
54720610,-0.93,0.278,0.265,2.502,-15.942,0.052,
54720620,-0.923,0.223,0.257,-3.325,-15.505,4.41,
54720630,-0.877,0.226,0.284,-0.595,-12.337,3.657,
54720640,-0.881,0.222,0.278,2.327,-5.845,1.347,
54720650,-0.88,0.211,0.27,6.562,1.277,-1.89,
54720660,-0.921,0.229,0.249,10.08,6.317,-4.707,
54720670,-1.029,0.294,0.214,7.49,7.402,-3.5,
54720680,-1.062,0.226,0.186,-1.925,-0.035,-0.542,
54720690,-1.011,0.221,0.208,0.035,-6.702,-2.625,
54720700,-1.014,0.275,0.189,1.925,-10.867,-5.46,
54720710,-1.057,0.265,0.221,-2.24,-20.02,-9.73,
54720720,-1.009,0.18,0.242,-6.562,-25.112,-2.957,
54720730,-0.903,0.212,0.264,-3.885,-24.412,2.677,
54720740,-0.906,0.223,0.282,-2.712,-21.927,-0.665,
54720750,-0.873,0.163,0.277,-4.795,-17.745,0.402,
54720760,-0.863,0.19,0.285,-1.172,-11.375,3.587,
54720770,-0.893,0.193,0.278,-0.245,-5.652,4.41,
54720780,-0.929,0.198,0.254,1.172,-0.91,6.282,
54720790,-0.959,0.224,0.246,2.52,0.07,6.597,
54720800,-0.987,0.226,0.226,1.277,-0.63,6.86,
54720810,-0.987,0.23,0.233,1.662,-3.447,6.772,
54720820,-0.968,0.24,0.243,1.452,-5.53,7.07,
54720830,-0.941,0.254,0.266,-0.315,-6.387,7.192,
54720830,-0.925,0.271,0.274,-3.377,-5.197,6.492,
54720850,-0.922,0.274,0.271,-6.177,-4.935,5.355,
54720850,-0.932,0.274,0.272,-7.542,-4.637,4.165,
54720870,-0.951,0.279,0.28,-7.822,-5.6,3.167,
54720870,-0.939,0.243,0.299,-8.102,-3.972,2.187,
54720890,-0.89,0.223,0.298,-4.252,0.542,-0.035,
54720890,-0.896,0.232,0.297,-1.015,6.107,-3.237,
54720910,-0.919,0.235,0.276,-0.14,8.627,-4.357,
54720910,-0.929,0.217,0.254,-0.84,8.995,-2.905,
54720920,-0.946,0.209,0.243,0.157,8.82,-0.052,
54720930,-0.966,0.228,0.233,1.26,8.312,1.697,
54720940,-0.991,0.225,0.241,0.595,6.16,2.467,
54720950,-0.986,0.208,0.237,-0.017,4.427,3.5,
54720960,-0.974,0.223,0.248,1.61,2.712,4.69,
54720970,-0.961,0.231,0.241,1.277,1.592,5.565,
54720980,-0.964,0.238,0.237,0.542,-0.122,6.16,
54720990,-0.95,0.252,0.237,0.647,-0.735,5.687,
54721000,-0.961,0.259,0.249,-0.665,-1.505,4.812,
54721010,-0.964,0.255,0.248,-1.487,-1.505,4.375,
54721020,-0.957,0.262,0.252,-1.12,-2.24,3.045,
54721030,-0.958,0.25,0.251,-1.995,-2.94,1.61,
54721040,-0.94,0.243,0.25,-2.187,-3.587,0.962,
54721050,-0.929,0.239,0.247,-1.89,-3.307,0.612,
54721060,-0.928,0.234,0.246,-1.067,-2.66,-0.157,
54721070,-0.933,0.23,0.245,-0.122,-1.907,-0.805,
54721080,-0.936,0.23,0.25,1.05,-1.767,-0.577,
54721090,-0.949,0.238,0.256,1.505,-1.575,-0.227,
54721100,-0.955,0.241,0.251,2.082,-0.875,0.07,
54721110,-0.964,0.253,0.246,1.435,-0.612,0.647,
54721120,-0.98,0.256,0.234,-0.647,-1.26,0.595,
54721130,-0.985,0.249,0.235,-1.855,-3.342,-0.227,
54721140,-0.983,0.239,0.239,-2.765,-5.355,-0.35,
54721150,-0.956,0.235,0.244,-2.082,-6.387,-0.577,
54721160,-0.957,0.229,0.243,-2.485,-6.912,-0.647,
54721170,-0.954,0.221,0.243,-1.872,-7.682,-0.122,
54721180,-0.946,0.224,0.244,-0.665,-7.7,0.647,
54721190,-0.952,0.23,0.247,0.682,-7.997,1.085,
54721200,-0.943,0.227,0.256,1.172,-7.84,0.91,
54721210,-0.954,0.224,0.254,1.452,-7.542,1.12,
54721220,-0.952,0.237,0.258,1.715,-7.087,1.767,
54721230,-0.958,0.243,0.261,1.207,-7.332,2.642,
54721240,-0.955,0.251,0.262,0.875,-6.545,2.975,
54721250,-0.953,0.256,0.262,0.21,-6.265,2.415,
54721260,-0.938,0.249,0.263,0.227,-5.232,1.662,
54721260,-0.933,0.25,0.255,1.295,-4.41,0.595,
54721280,-0.942,0.246,0.252,1.785,-4.025,-0.595,
54721280,-0.95,0.236,0.25,2.275,-4.602,-1.032,
54721300,-0.958,0.237,0.246,3.045,-5.11,-1.26,
54721300,-0.963,0.239,0.241,3.22,-7.017,-1.855,
54721320,-0.981,0.241,0.223,3.255,-9.625,-1.47,
54721320,-0.997,0.252,0.233,2.87,-15.19,-1.242,
54721330,-0.984,0.222,0.222,1.505,-20.387,0.122,
54721340,-0.993,0.244,0.217,4.69,-26.075,1.452,
54721350,-0.986,0.261,0.271,1.312,-32.585,2.17,
54721360,-0.929,0.182,0.298,0.385,-31.01,5.495,
54721370,-0.89,0.255,0.295,5.232,-25.34,5.862,
54721380,-0.899,0.255,0.324,1.732,-22.067,2.012,
54721390,-0.898,0.218,0.319,-0.63,-16.187,2.17,
54721400,-0.891,0.266,0.31,0.035,-12.005,2.835,
54721410,-0.921,0.26,0.301,-2.467,-9.975,2.1,
54721420,-0.913,0.216,0.31,-3.517,-7.84,1.715,
54721430,-0.898,0.237,0.308,0.017,-3.22,2.397,
54721440,-0.914,0.256,0.301,0.35,-0.262,1.015,
54721450,-0.929,0.237,0.294,-0.997,0.735,0.245,
54721460,-0.912,0.239,0.297,-0.717,1.75,0.875,
54721470,-0.913,0.247,0.297,-0.752,3.622,1.33,
54721480,-0.921,0.25,0.287,-1.295,5.53,0.595,
54721490,-0.933,0.256,0.285,-1.925,6.37,-0.332,
54721500,-0.942,0.258,0.289,-3.342,6.982,-0.63,
54721510,-0.949,0.256,0.284,-4.83,7.192,-0.227,
54721520,-0.95,0.26,0.277,-5.46,7.507,-1.085,
54721530,-0.964,0.256,0.266,-6.352,6.825,-2.695,
54721540,-0.984,0.245,0.247,-7.84,4.882,-3.15,
54721550,-0.987,0.241,0.244,-8.47,0.63,-3.15,
54721560,-0.978,0.223,0.244,-8.242,-3.377,-2.957,
54721570,-0.967,0.21,0.246,-6.895,-6.72,-1.68,
54721580,-0.931,0.194,0.292,-4.707,-7.787,0.245,
54721580,-0.873,0.135,0.302,-1.137,-3.5,1.54,
54721600,-0.896,0.237,0.283,6.737,3.097,3.255,
54721600,-0.984,0.274,0.275,2.52,0.682,2.642,
54721620,-0.987,0.221,0.259,-0.84,-2.537,6.072,
54721620,-0.958,0.265,0.265,1.837,-4.9,7.437,
54721640,-0.971,0.269,0.27,1.505,-6.457,4.795,
54721640,-0.941,0.244,0.283,1.557,-8.417,1.785,
54721660,-0.927,0.246,0.295,2.17,-8.032,0.945,
54721660,-0.918,0.246,0.297,2.712,-6.947,0.21,
54721670,-0.922,0.241,0.288,2.292,-5.512,0.07,
54721680,-0.926,0.241,0.281,2.625,-4.55,-0.14,
54721690,-0.933,0.245,0.28,2.677,-3.552,-0.21,
54721700,-0.945,0.241,0.274,2.992,-3.552,-0.315,
54721710,-0.975,0.273,0.229,3.465,-4.952,-0.612,
54721720,-1.073,0.322,0.229,-0.21,-14.035,-2.257,
54721730,-1.028,0.191,0.28,-8.19,-23.712,-1.592,
54721740,-0.895,0.199,0.291,-1.837,-22.242,4.585,
54721750,-0.92,0.283,0.289,0.875,-20.457,1.592,
54721760,-0.934,0.213,0.308,-4.13,-21.262,-1.295,
54721770,-0.887,0.191,0.313,-3.412,-18.147,2.642,
54721780,-0.878,0.241,0.324,0.56,-13.755,4.305,
54721790,-0.887,0.24,0.331,-0.367,-10.185,3.517,
54721800,-0.882,0.236,0.331,-1.085,-6.125,4.41,
54721810,-0.896,0.259,0.328,-1.207,-1.785,4.707,
54721820,-0.903,0.257,0.324,-1.977,1.137,3.097,
54721830,-0.911,0.26,0.315,-1.96,3.185,1.47,
54721840,-0.927,0.271,0.31,-2.922,4.83,0.647,
54721850,-0.933,0.268,0.301,-4.847,5.985,-0.175,
54721860,-0.926,0.266,0.298,-6.37,7,-1.75,
54721870,-0.933,0.255,0.296,-7.857,7.227,-2.94,
54721880,-0.943,0.248,0.29,-8.557,7.367,-3.657,
54721890,-0.945,0.239,0.287,-8.575,6.65,-4.095,
54721900,-0.913,0.21,0.325,-8.732,6.615,-3.587,
54721910,-0.86,0.13,0.321,-6.142,12.145,-2.52,
54721920,-0.842,0.218,0.3,3.675,20.895,-0.595,
54721930,-0.918,0.233,0.281,2.712,22.645,-2.1,
54721940,-0.955,0.19,0.278,3.08,23.362,0.787,
54721950,-0.954,0.247,0.26,7.017,23.555,3.955,
54721960,-1.009,0.284,0.24,7.017,21.612,3.167,
54721970,-1.044,0.259,0.228,3.132,16.275,0.717,
54721980,-1.031,0.271,0.212,2.31,10.097,0.927,
54721990,-1.034,0.269,0.221,0.385,1.435,-0.332,
54722000,-1.006,0.246,0.226,-1.155,-5.477,-0.315,
54722010,-0.973,0.24,0.247,-1.172,-10.99,-0.017,
54722010,-0.945,0.218,0.261,-0.98,-12.46,-0.437,
54722030,-0.919,0.221,0.277,1.277,-11.987,-1.855,
54722030,-0.926,0.217,0.281,2.187,-10.29,-3.255,
54722050,-0.937,0.229,0.252,4.375,-9.117,-2.59,
54722050,-0.997,0.282,0.219,4.672,-11.882,-1.715,
54722070,-1.056,0.273,0.203,0.665,-20.562,-1.995,
54722070,-1.042,0.254,0.235,-1.942,-30.327,-0.735,
54722080,-0.971,0.216,0.262,-2.432,-34.982,0.962,
54722090,-0.929,0.24,0.255,0.84,-34.86,1.522,
54722100,-0.929,0.23,0.26,-0.595,-35.14,-1.522,
54722110,-0.898,0.181,0.308,-0.07,-30.782,-0.717,
54722120,-0.872,0.191,0.327,4.287,-25.62,1.627,
54722130,-0.868,0.229,0.339,6.772,-20.86,2.52,
54722140,-0.884,0.215,0.369,3.325,-17.115,4.147,
54722150,-0.866,0.217,0.384,1.032,-12.81,7.875,
54722160,-0.835,0.243,0.388,-0.192,-5.88,10.255,
54722170,-0.853,0.255,0.352,-1.907,1.347,9.852,
54722180,-0.884,0.272,0.333,-3.167,6.177,8.155,
54722190,-0.923,0.279,0.316,-4.76,8.942,8.592,
54722200,-0.938,0.287,0.298,-5.932,9.835,9.625,
54722210,-0.94,0.29,0.296,-6.58,9.222,7.77,
54722220,-0.911,0.26,0.346,-7.227,9.047,4.375,
54722230,-0.825,0.158,0.366,-5.88,16.31,1.575,
54722240,-0.824,0.25,0.324,5.25,27.317,-0.822,
54722250,-0.918,0.256,0.307,4.182,28.717,-6.055,
54722260,-0.948,0.206,0.278,4.532,29.365,-2.345,
54722270,-0.956,0.268,0.249,7.857,28.297,1.277,
54722280,-1.023,0.271,0.229,5.705,24.92,0.752,
54722290,-1.031,0.254,0.214,2.765,19.687,-0.105,
54722300,-1.031,0.253,0.228,1.61,14.192,-0.105,
54722310,-1.022,0.235,0.217,0.77,7.682,-0.42,
54722320,-0.99,0.256,0.203,2.047,1.382,0.63,
54722330,-1.022,0.257,0.215,-0.56,-5.845,0.98,
54722330,-0.995,0.234,0.243,-2.082,-10.815,2.415,
54722350,-0.937,0.24,0.268,-1.242,-12.46,2.432,
54722350,-0.922,0.239,0.279,-0.28,-11.55,0.192,
54722370,-0.926,0.233,0.278,0.595,-10.43,-1.12,
54722370,-0.934,0.239,0.268,2.205,-9.222,-0.84,
54722390,-0.961,0.268,0.237,3.71,-10.237,-0.752,
54722390,-1.044,0.318,0.184,2.38,-16.52,-1.767,
54722410,-1.117,0.298,0.192,-4.27,-31.237,-3.36,
54722410,-1.048,0.237,0.227,-8.592,-42.28,-0.98,
54722420,-0.932,0.194,0.266,-5.53,-45.78,0.052,
54722430,-0.862,0.211,0.257,0.892,-41.352,-1.19,
54722440,-0.92,0.245,0.274,2.87,-37.747,-3.675,
54722450,-0.897,0.184,0.33,1.347,-32.427,-1.225,
54722460,-0.884,0.203,0.329,4.025,-26.425,5.04,
54722470,-0.87,0.244,0.339,5.705,-23.747,5.162,
54722480,-0.862,0.219,0.307,3.167,-20.037,5.88,
54722490,-0.844,0.234,0.352,4.165,-12.022,9.415,
54722500,-0.942,0.241,0.381,3.202,-9.082,8.347,
54722510,-0.91,0.256,0.404,3.185,-11.182,7.525,
54722520,-0.871,0.267,0.398,0.227,-10.342,10.867,
54722530,-0.848,0.276,0.376,-1.505,-4.585,11.69,
54722540,-0.859,0.293,0.36,-3.412,1.085,7.805,
54722550,-0.87,0.288,0.354,-6.125,4.917,4.375,
54722560,-0.874,0.276,0.335,-7.07,8.575,4.252,
54722570,-0.896,0.284,0.318,-6.51,10.885,4.34,
54722580,-0.931,0.279,0.313,-7.297,11.567,4.235,
54722590,-0.934,0.262,0.311,-8.715,11.095,3.867,
54722600,-0.926,0.265,0.308,-8.207,11.182,2.467,
54722610,-0.92,0.255,0.324,-8.102,9.957,1.26,
54722620,-0.867,0.151,0.364,-7.245,13.3,1.085,
54722630,-0.81,0.206,0.335,3.202,23.59,2.275,
54722640,-0.884,0.263,0.297,6.79,28.087,-1.452,
54722650,-0.961,0.229,0.262,5.757,27.65,-2.467,
54722660,-1.031,0.257,0.24,6.86,24.552,0.56,
54722670,-1.071,0.304,0.233,6.685,17.167,2.432,
54722680,-1.065,0.287,0.22,2.205,8.032,2.257,
54722690,-1.031,0.282,0.222,0.525,-1.592,1.977,
54722700,-1.004,0.271,0.254,-0.892,-10.412,0.682,
54722710,-0.933,0.227,0.282,-1.015,-15.26,0.087,
54722720,-0.895,0.232,0.295,1.995,-14.717,-0.42,
54722730,-0.912,0.248,0.298,2.835,-13.51,-1.662,
54722740,-0.933,0.249,0.289,1.925,-12.495,0.07,
54722750,-0.944,0.26,0.28,2.117,-13.002,1.522,
54722760,-0.994,0.33,0.224,2.065,-15.12,0.63,
54722760,-1.097,0.32,0.256,-4.847,-25.445,-2.397,
54722780,-1.003,0.233,0.256,-10.57,-32.007,0.192,
54722780,-0.927,0.278,0.306,-6.177,-35.035,2.117,
54722800,-0.864,0.233,0.32,-8.312,-33.215,-2.642,
54722800,-0.855,0.211,0.346,-5.267,-27.807,-1.977,
54722820,-0.828,0.209,0.37,-5.005,-22.837,-1.382,
54722820,-0.805,0.211,0.383,-1.75,-16.03,2.52,
54722830,-0.814,0.235,0.382,0.77,-8.155,4.34,
54722840,-0.847,0.251,0.374,1.662,-0.315,5.687,
54722850,-0.896,0.27,0.343,0.927,5.88,6.002,
54722860,-0.923,0.289,0.326,0.682,8.085,3.675,
54722870,-0.955,0.287,0.315,-0.227,8.032,1.575,
54722880,-0.958,0.273,0.303,-1.417,6.282,0.717,
54722890,-0.942,0.265,0.296,-1.452,4.392,0.087,
54722900,-0.924,0.255,0.299,-0.717,2.345,-1.697,
54722910,-0.922,0.249,0.306,-0.087,0.77,-2.52,
54722920,-0.938,0.259,0.322,-0.945,-0.035,-2.397,
54722930,-0.953,0.263,0.326,-3.36,-0.052,-1.872,
54722940,-0.943,0.271,0.326,-5.932,0.84,-1.435,
54722950,-0.941,0.252,0.313,-8.557,0.822,-1.522,
54722960,-0.931,0.248,0.311,-10.447,0.49,1.137,
54722970,-0.911,0.246,0.308,-10.482,0.42,3.167,
54722980,-0.91,0.244,0.309,-9.695,1.277,2.747,
54722990,-0.929,0.255,0.319,-9.38,2.485,0.665,
54723000,-0.942,0.255,0.313,-8.802,2.607,-0.402,
54723010,-0.938,0.266,0.321,-8.015,2.992,-0.647,
54723020,-0.937,0.265,0.323,-7.875,3.342,-1.592,
54723030,-0.931,0.258,0.313,-8.347,3.902,-2.73,
54723040,-0.919,0.253,0.313,-9.03,4.725,-4.06,
54723050,-0.908,0.244,0.285,-9.765,4.882,-5.11,
54723060,-0.895,0.237,0.311,-9.852,8.26,-4.952,
54723070,-0.935,0.23,0.304,-8.102,5.775,-5.075,
54723080,-0.898,0.243,0.309,-5.215,5.022,-0.665,
54723080,-0.925,0.239,0.306,-4.83,3.622,0.875,
54723100,-0.874,0.197,0.374,-2.205,5.792,0.245,
54723100,-0.864,0.19,0.321,2.187,14.525,0.997,
54723120,-0.907,0.277,0.296,6.825,17.22,-1.522,
54723120,-0.972,0.252,0.254,0.665,13.982,-2.59,
54723140,-0.985,0.243,0.251,0.735,10.57,1.557,
54723140,-0.996,0.269,0.269,0.612,5.775,2.642,
54723160,-0.981,0.245,0.275,-0.35,2.555,2.1,
54723160,-0.954,0.247,0.274,0.315,-0.192,1.05,
54723170,-0.955,0.253,0.275,0.122,-2.922,0.21,
54723180,-0.935,0.231,0.285,-0.437,-5.372,0.455,
54723190,-0.914,0.233,0.293,0.385,-5.285,1.487,
54723200,-0.917,0.247,0.298,0.997,-3.797,1.522,
54723210,-0.927,0.251,0.299,-0.07,-2.152,1.12,
54723220,-0.932,0.249,0.298,-0.805,-1.225,0.892,
54723230,-0.931,0.25,0.297,-0.507,-0.612,0.525,
54723240,-0.934,0.25,0.294,-0.49,-0.332,0.192,
54723250,-0.943,0.249,0.285,-0.857,-0.28,-0.087,
54723260,-0.956,0.25,0.282,-1.155,-0.77,-0.595,
54723270,-0.961,0.247,0.28,-1.295,-1.662,-0.875,
54723280,-0.952,0.241,0.284,-1.645,-2.782,-0.402,
54723290,-0.944,0.234,0.284,-1.785,-3.972,0.07,
54723300,-0.943,0.237,0.286,-1.12,-4.672,0.105,
54723310,-0.939,0.241,0.285,-0.962,-5.355,0.595,
54723320,-0.932,0.239,0.285,-1.032,-5.722,1.61,
54723330,-0.924,0.24,0.285,-0.227,-6.195,1.645,
54723340,-0.929,0.243,0.289,0.717,-6.387,1.155,
54723350,-0.932,0.244,0.292,1.365,-6.755,0.892,
54723360,-0.932,0.246,0.291,1.732,-6.37,0.927,
54723370,-0.927,0.246,0.29,2.257,-6.265,0.525,
54723380,-0.926,0.248,0.294,2.572,-6.002,0.052,
54723390,-0.914,0.237,0.295,2.905,-6.02,-0.367,
54723400,-0.899,0.224,0.296,3.762,-5.355,0.682,
54723410,-0.862,0.215,0.298,5.967,-4.322,2.537,
54723420,-0.837,0.205,0.315,8.662,-1.592,5.267,
54723430,-0.863,0.203,0.325,12.915,3.185,7.98,
54723440,-0.816,0.242,0.358,21.087,13.125,5.582,
54723450,-0.904,0.261,0.356,28.717,26.757,-4.147,
54723460,-0.945,0.264,0.322,31.255,40.442,-12.827,
54723470,-0.957,0.32,0.354,27.142,48.702,-13.422,
54723480,-1.025,0.23,0.243,9.327,52.412,4.69,
54723490,-0.93,0.204,0.246,10.43,57.312,17.43,
54723500,-0.909,0.278,0.238,15.382,62.37,19.407,
54723510,-0.942,0.272,0.218,12.18,62.842,16.432,
54723510,-0.974,0.246,0.186,8.47,61.442,14.647,
54723520,-0.986,0.256,0.173,8.942,57.802,16.38,
54723530,-1.006,0.286,0.162,8.907,52.867,16.817,
54723540,-1.015,0.298,0.143,7.455,47.022,14.472,
54723550,-1.008,0.292,0.13,5.705,41.667,11.445,
54723560,-1.008,0.28,0.116,4.567,34.947,9.537,
54723570,-1.007,0.281,0.113,4.69,28.997,8.592,
54723580,-1.009,0.284,0.119,4.795,21.892,7.507,
54723590,-0.992,0.292,0.134,4.602,15.54,5.355,
54723600,-0.994,0.292,0.138,4.445,9.432,3.062,
54723610,-0.989,0.29,0.14,2.852,2.362,0.507,
54723620,-0.974,0.279,0.135,2.712,-2.992,-1.137,
54723630,-0.961,0.27,0.134,3.255,-5.337,-1.68,
54723640,-0.939,0.267,0.15,3.727,-4.305,-1.732,
54723650,-0.939,0.266,0.166,4.375,-1.225,-0.297,
54723660,-0.959,0.257,0.167,5.057,1.487,1.995,
54723670,-0.962,0.242,0.157,7.105,2.572,4.882,
54723680,-0.949,0.238,0.15,10.185,2.73,8.82,
54723690,-0.961,0.251,0.145,13.755,2.782,13.055,
54723700,-0.959,0.267,0.158,19.127,4.27,17.185,
54723710,-0.942,0.29,0.167,24.902,7.367,21.087,
54723720,-0.966,0.313,0.167,29.54,12.197,24.57,
54723730,-0.972,0.299,0.177,32.672,16.327,26.25,
54723740,-1.001,0.287,0.165,37.275,18.672,28.84,
54723750,-1.12,0.243,0.132,49.875,12.722,36.977,
54723760,-1.164,0.232,0.104,69.51,0.84,48.72,
54723770,-1.23,0.211,0.119,94.762,-14.875,61.197,
54723780,-1.227,0.216,0.123,128.31,-36.645,72.87,
54723790,-1.055,0.258,0.112,163.152,-48.037,94.115,
54723800,-0.918,0.437,0.126,170.275,-35.577,125.16,
54723810,-0.872,0.367,0.07,150.867,-13.545,147.455,
54723820,-0.757,0.343,0.046,152.425,9.415,134.347,
54723830,-0.761,0.43,0.016,157.937,34.37,108.395,
54723830,-0.875,0.514,0.007,143.307,54.11,87.272,
54723850,-0.977,0.49,-0.039,118.72,56.402,73.325,
54723850,-1.028,0.479,-0.058,99.662,43.627,65.642,
54723870,-1.022,0.518,-0.068,83.755,22.312,61.687,
54723870,-0.996,0.565,-0.061,65.135,0.612,61.075,
54723890,-1.005,0.569,-0.07,45.675,-20.335,60.025,
54723890,-1.015,0.56,-0.076,28.7,-41.58,58.712,
54723910,-0.995,0.567,-0.076,14.717,-63.332,58.537,
54723910,-0.989,0.572,-0.072,2.642,-83.947,58.59,
54723920,-0.947,0.562,-0.072,-6.702,-103.565,58.695,
54723930,-0.869,0.56,-0.071,-12.67,-117.442,60.97,
54723940,-0.811,0.574,-0.061,-17.22,-123.287,63.735,
54723950,-0.767,0.585,-0.043,-20.212,-119.647,63.105,
54723960,-0.725,0.584,-0.014,-20.422,-109.41,58.992,
54723970,-0.759,0.597,0.031,-18.025,-96.162,52.272,
54723980,-0.812,0.613,0.062,-16.52,-87.867,44.607,
54723990,-0.877,0.638,0.122,-12.057,-88.637,42.787,
54724000,-0.865,0.689,0.141,-17.01,-94.15,43.89,
54724010,-0.799,0.66,0.169,-21.315,-97.825,45.202,
54724020,-0.774,0.63,0.183,-23.012,-97.755,44.992,
54724030,-0.742,0.645,0.209,-23.082,-95.025,42.297,
54724040,-0.714,0.668,0.234,-26.04,-89.302,39.76,
54724050,-0.719,0.633,0.251,-31.675,-83.72,38.36,
54724060,-0.741,0.623,0.271,-34.02,-82.005,35.84,
54724070,-0.759,0.609,0.286,-36.26,-84.402,32.462,
54724080,-0.726,0.59,0.304,-37.047,-89.932,29.382,
54724090,-0.735,0.566,0.32,-34.72,-97.562,29.365,
54724100,-0.695,0.554,0.335,-29.697,-104.93,31.71,
54724110,-0.625,0.563,0.352,-23.765,-109.655,35.192,
54724120,-0.565,0.585,0.368,-19.635,-108.797,36.995,
54724130,-0.554,0.593,0.388,-17.027,-104.055,35.332,
54724140,-0.561,0.611,0.4,-15.435,-99.207,30.275,
54724150,-0.537,0.626,0.414,-14.455,-96.652,24.71,
54724160,-0.518,0.633,0.423,-15.785,-93.765,21.56,
54724170,-0.503,0.637,0.427,-17.78,-89.967,20.702,
54724180,-0.505,0.632,0.437,-18.935,-83.982,21.017,
54724190,-0.547,0.626,0.461,-19.372,-79.205,21.07,
54724200,-0.416,0.513,0.485,-17.815,-72.24,21.035,
54724210,-0.381,0.562,0.531,-3.902,-51.31,19.302,
54724210,-0.53,0.631,0.546,12.127,-37.677,10.972,
54724230,-0.551,0.692,0.548,16.975,-32.462,6.335,
54724230,-0.572,0.735,0.544,16.572,-28.717,9.905,
54724250,-0.617,0.745,0.535,12.652,-29.312,14.455,
54724250,-0.62,0.743,0.521,9.59,-32.34,15.82,
54724260,-0.658,0.737,0.516,6.912,-39.235,18.077,
54724270,-0.664,0.741,0.501,2.835,-48.475,23.467,
54724280,-0.513,0.71,0.476,0,-54.197,27.16,
54724290,-0.444,0.657,0.454,-0.35,-46.095,22.05,
54724300,-0.476,0.622,0.427,-3.43,-36.487,12.547,
54724310,-0.434,0.613,0.416,-0.805,-24.115,8.767,
54724320,-0.433,0.612,0.405,3.307,-6.37,7.49,
54724330,-0.508,0.638,0.385,3.78,9.205,2.012,
54724340,-0.597,0.678,0.377,2.31,15.085,-3.5,
54724350,-0.668,0.7,0.374,-3.71,11.515,-1.855,
54724360,-0.641,0.671,0.374,-12.53,2.607,4.357,
54724370,-0.597,0.654,0.373,-15.452,-3.482,7.945,
54724380,-0.545,0.657,0.374,-12.267,-4.69,5.285,
54724390,-0.51,0.675,0.38,-9.38,0.735,0.28,
54724400,-0.499,0.68,0.38,-7.77,10.535,-5.355,
54724410,-0.518,0.681,0.385,-6.16,21.7,-11.41,
54724420,-0.569,0.69,0.393,-5.25,30.45,-14.945,
54724430,-0.604,0.686,0.399,-4.882,34.037,-14.665,
54724440,-0.614,0.678,0.408,-4.41,33.635,-12.862,
54724450,-0.62,0.665,0.421,-4.165,29.855,-11.182,
54724460,-0.637,0.668,0.431,-5.32,23.555,-7.892,
54724470,-0.636,0.667,0.437,-8.172,15.452,-4.007,
54724480,-0.692,0.671,0.441,-13.3,5.512,-0.28,
54724490,-0.807,0.717,0.428,-20.335,-13.037,7.962,
54724500,-0.776,0.749,0.403,-29.715,-38.377,20.387,
54724510,-0.653,0.708,0.367,-45.955,-59.762,30.082,
54724520,-0.515,0.599,0.337,-62.457,-68.985,36.225,
54724530,-0.351,0.559,0.334,-67.217,-61.95,43.662,
54724540,-0.031,0.5,0.337,-59.482,-24.412,51.257,
54724550,-0.057,0.465,0.385,-46.567,41.562,37.38,
54724560,-0.443,0.477,0.386,-33.057,91.227,6.09,
54724570,-0.673,0.556,0.438,-10.675,104.107,-19.127,
54724580,-0.749,0.7,0.488,2.432,90.352,-25.235,
54724580,-0.781,0.722,0.504,-0.105,65.397,-16.8,
54724600,-0.778,0.701,0.499,-2.257,35.77,-5.67,
54724600,-0.621,0.72,0.511,-2.765,12.355,6.632,
54724620,-0.46,0.682,0.523,-3.307,14.63,10.657,
54724620,-0.444,0.633,0.514,-6.615,29.715,3.115,
54724640,-0.498,0.646,0.498,-5.32,46.515,-6.947,
54724640,-0.528,0.663,0.507,-6.755,56.787,-16.17,
54724660,-0.56,0.643,0.494,-10.062,64.837,-20.177,
54724660,-0.65,0.664,0.484,-6.895,68.985,-21.157,
54724670,-0.749,0.68,0.469,-4.777,65.957,-19.267,
54724680,-0.744,0.654,0.463,-6.877,55.475,-13.282,
54724690,-0.686,0.621,0.459,-8.907,50.417,-4.287,
54724700,-0.677,0.612,0.449,-6.93,49.875,0.787,
54724710,-0.69,0.621,0.448,-4.042,49.35,-0.542,
54724720,-0.709,0.623,0.441,-3.307,46.707,-2.8,
54724730,-0.727,0.629,0.436,-3.92,43.05,-3.115,
54724740,-0.749,0.646,0.423,-3.255,36.977,-2.432,
54724750,-0.728,0.641,0.407,-3.605,27.86,-1.837,
54724760,-0.678,0.631,0.395,-4.322,21.892,-0.7,
54724770,-0.66,0.622,0.389,-4.217,19.565,0.035,
54724780,-0.665,0.622,0.387,-2.852,18.795,-0.647,
54724790,-0.685,0.628,0.384,-1.54,16.66,-1.855,
54724800,-0.686,0.625,0.381,-1.645,12.792,-2.1,
54724810,-0.679,0.615,0.373,-1.697,8.382,-1.277,
54724820,-0.668,0.61,0.367,-0.35,4.602,0.385,
54724830,-0.663,0.613,0.362,1.05,1.925,1.452,
54724840,-0.655,0.615,0.358,0.997,-0.192,1.767,
54724850,-0.633,0.617,0.358,0.245,-1.015,1.662,
54724860,-0.618,0.614,0.359,-0.875,0.735,0.612,
54724870,-0.626,0.616,0.363,-1.347,3.99,-1.697,
54724880,-0.64,0.623,0.369,-1.505,7.735,-4.55,
54724890,-0.642,0.614,0.374,-1.33,11.48,-7.28,
54724900,-0.665,0.613,0.371,-0.21,15.662,-9.03,
54724910,-0.655,0.613,0.37,2.047,19.005,-10.01,
54724920,-0.646,0.612,0.368,3.867,24.867,-10.587,
54724920,-0.691,0.612,0.366,5.81,29.75,-12.092,
54724940,-0.734,0.617,0.366,8.347,30.87,-13.282,
54724940,-0.752,0.621,0.365,9.537,26.547,-12.74,
54724960,-0.723,0.611,0.365,8.785,20.895,-10.587,
54724960,-0.567,0.55,0.359,9.222,23.222,-8.33,
54724980,-0.691,0.601,0.369,15.4,33.897,-9.24,
54724980,-0.761,0.63,0.369,21.367,31.71,-14.577,
54725000,-0.709,0.626,0.38,20.387,28.42,-14.787,
54725000,-0.714,0.637,0.376,15.435,24.15,-13.65,
54725010,-0.71,0.624,0.374,12.25,20.247,-14.35,
54725020,-0.693,0.612,0.374,12.792,15.96,-16.205,
54725030,-0.71,0.612,0.372,12.6,12.565,-18.007,
54725040,-0.719,0.605,0.372,11.095,8.015,-19.022,
54725050,-0.735,0.589,0.359,9.572,2.607,-17.937,
54725060,-0.636,0.507,0.389,8.96,-2.625,-14.42,
54725070,-0.383,0.438,0.341,15.715,15.68,-9.52,
54725080,-0.556,0.543,0.379,33.722,41.912,-21.227,
54725090,-0.792,0.594,0.377,48.527,46.077,-42.087,
54725100,-0.756,0.613,0.377,57.137,37.957,-45.272,
54725110,-0.716,0.749,0.362,45.062,32.252,-37.922,
54725120,-0.774,0.63,0.313,22.89,25.655,-33.67,
54725130,-0.67,0.645,0.275,24.605,18.287,-45.605,
54725140,-0.739,0.674,0.273,14.98,19.075,-52.132,
54725150,-0.783,0.619,0.234,-1.925,16.642,-57.89,
54725160,-0.787,0.529,0.206,-9.537,11.9,-59.062,
54725170,-0.79,0.491,0.184,-9.642,5.862,-56,
54725180,-0.784,0.509,0.164,-6.65,3.325,-52.955,
54725190,-0.823,0.515,0.154,-2.782,0.385,-51.782,
54725200,-0.788,0.505,0.147,-2.922,-1.33,-52.727,
54725210,-0.78,0.535,0.143,-2.1,3.535,-53.987,
54725220,-0.81,0.604,0.153,-0.262,12.407,-60.935,
54725230,-0.815,0.581,0.149,-5.932,15.977,-72.887,
54725240,-0.86,0.534,0.141,-17.185,19.862,-83.23,
54725250,-0.868,0.493,0.134,-22.295,22.137,-91.28,
54725260,-0.886,0.472,0.153,-22.487,21.455,-95.69,
54725270,-0.894,0.465,0.14,-24.377,18.83,-97.422,
54725280,-0.831,0.438,0.134,-27.177,20.405,-98.035,
54725290,-0.869,0.421,0.152,-29.907,24.412,-102.077,
54725300,-0.965,0.394,0.166,-32.357,22.33,-107.38,
54725310,-0.927,0.352,0.138,-33.32,16.8,-108.675,
54725320,-0.908,0.324,0.175,-31.552,14.665,-106.085,
54725330,-0.959,0.286,0.199,-25.2,7.805,-103.145,
54725330,-0.942,0.296,0.211,-14.857,1.995,-93.117,
54725350,-0.915,0.318,0.222,-6.51,-2.135,-73.797,
54725350,-0.871,0.3,0.208,-2.642,-0.682,-56.052,
54725370,-0.832,0.272,0.206,0.735,7.332,-45.587,
54725370,-0.872,0.361,0.263,3.815,20.842,-37.94,
54725390,-1.034,0.391,0.203,-7.315,32.095,-11.305,
54725390,-1.041,0.293,0.243,-10.395,31.605,7.227,
54725410,-1.114,0.38,0.223,-12.897,21.962,-0.98,
54725410,-1.043,0.355,0.192,-17.36,21.175,-0.052,
54725420,-1.086,0.314,0.188,-19.635,21.665,1.75,
54725430,-1.05,0.288,0.208,-20.247,25.952,-5.162,
54725440,-1.032,0.265,0.186,-19.11,28.612,-2.8,
54725450,-1.037,0.276,0.176,-14.56,35.49,2.467,
54725460,-1.035,0.273,0.196,-11.515,39.497,5.057,
54725470,-1.028,0.218,0.196,-12.145,42.28,6.685,
54725480,-1.048,0.222,0.218,-10.5,40.197,7.21,
54725490,-1.078,0.235,0.177,-9.537,28.21,4.41,
54725500,-0.899,0.235,0.15,-7.595,25.007,-1.417,
54725510,-0.956,0.239,0.147,-3.622,24.832,-4.83,
54725520,-0.995,0.287,0.143,-1.785,18.602,-8.067,
54725530,-1.004,0.33,0.144,-4.935,9.555,-7.017,
54725540,-0.995,0.32,0.138,-11.9,-1.942,-5.67,
54725550,-0.987,0.293,0.131,-14.525,-11.865,-4.2,
54725560,-0.978,0.282,0.139,-13.02,-18.182,-2.8,
54725570,-1.022,0.282,0.158,-7.122,-22.312,-1.382,
54725580,-1.021,0.289,0.175,2.082,-26.565,2.415,
54725590,-0.993,0.336,0.191,9.607,-26.617,4.06,
54725600,-0.95,0.339,0.191,12.092,-22.172,2.362,
54725610,-0.939,0.33,0.213,11.392,-16.992,0.035,
54725620,-0.897,0.352,0.134,7.472,-16.432,-2.747,
54725630,-0.895,0.329,0.191,1.995,-11.865,-5.302,
54725640,-0.961,0.287,0.127,-2.975,-14.42,-5.162,
54725650,-0.972,0.355,0.178,-1.942,-18.882,-5.092,
54725660,-0.947,0.288,0.17,-5.32,-23.642,-4.795,
54725670,-0.969,0.283,0.178,-6.492,-19.932,-0.945,
54725670,-1.036,0.305,0.15,-7.49,-17.447,0.647,
54725690,-0.995,0.267,0.167,-9.467,-20.842,-0.21,
54725690,-0.904,0.273,0.203,-5.775,-20.125,1.4,
54725710,-0.858,0.3,0.214,-1.365,-13.44,2.362,
54725710,-0.911,0.314,0.199,-2.24,-6.265,3.71,
54725730,-0.951,0.315,0.192,-4.97,-2.852,5.53,
54725730,-0.951,0.296,0.187,-8.925,-2.397,5.215,
54725750,-0.934,0.286,0.192,-10.22,-1.435,4.62,
54725750,-0.916,0.287,0.18,-9.502,2.187,4.357,
54725760,-0.966,0.285,0.164,-7.665,4.55,3.762,
54725770,-0.975,0.265,0.153,-6.702,5.285,2.537,
54725780,-0.995,0.265,0.19,-1.26,4.007,4.235,
54725790,-0.979,0.303,0.141,1.732,0.192,5.285,
54725800,-0.978,0.272,0.15,5.512,-3.412,4.235,
54725810,-0.989,0.247,0.164,11.9,-7.472,1.662,
54725820,-0.94,0.286,0.174,17.955,-11.007,-1.47,
54725830,-0.944,0.301,0.19,22.487,-13.51,-2.152,
54725840,-0.921,0.309,0.203,23.555,-17.325,-2.87,
54725850,-0.915,0.319,0.22,23.52,-18.917,-1.47,
54725860,-0.93,0.335,0.229,22.067,-19.425,-1.557,
54725870,-0.946,0.332,0.228,20.09,-20.65,-2.992,
54725880,-0.947,0.321,0.234,19.32,-23.45,-3.675,
54725890,-0.918,0.321,0.235,18.935,-24.99,-3.57,
54725900,-0.969,0.307,0.211,18.13,-26.39,-4.55,
54725910,-0.903,0.274,0.224,16.03,-28.542,-6.247,
54725920,-0.903,0.257,0.241,26.897,-18.847,-7.017,
54725930,-0.89,0.298,0.248,33.722,-10.815,-7.367,
54725940,-0.928,0.317,0.243,32.672,-5.197,-4.935,
54725950,-0.954,0.32,0.22,30.065,-4.077,-3.885,
54725960,-0.951,0.329,0.21,25.637,-6.282,-2.747,
54725970,-0.941,0.337,0.192,20.457,-9.712,-1.522,
54725980,-0.929,0.344,0.172,15.575,-11.13,-0.77,
54725990,-0.923,0.359,0.17,12.057,-10.22,-0.612,
54726000,-0.926,0.368,0.176,8.732,-8.4,-0.28,
54726010,-0.938,0.352,0.179,6.387,-8.505,-0.14,
54726020,-0.927,0.359,0.206,6.65,-9.73,-0.577,
54726030,-0.93,0.352,0.227,6.842,-11.655,-1.05,
54726040,-0.932,0.331,0.233,6.3,-12.075,-1.54,
54726050,-0.931,0.3,0.22,7,-11.865,-1.417,
54726060,-0.92,0.313,0.223,8.977,-10.832,-1.155,
54726070,-0.925,0.32,0.225,8.715,-10.167,-1.33,
54726080,-0.933,0.314,0.222,7.297,-8.47,-2.712,
54726080,-0.966,0.307,0.224,6.37,-7.262,-3.132,
54726100,-0.939,0.308,0.214,4.69,-7.07,-1.977,
54726100,-0.927,0.32,0.221,3.797,-7.682,-2.205,
54726120,-0.94,0.324,0.218,0.857,-6.23,-2.782,
54726120,-0.937,0.3,0.221,-2.012,-6.055,-1.347,
54726140,-0.931,0.308,0.22,-3.22,-6.002,-0.157,
54726140,-0.937,0.305,0.22,-4.865,-6.405,0.122,
54726160,-0.948,0.287,0.218,-5.11,-6.37,0.087,
54726160,-0.946,0.301,0.217,-3.692,-6.667,0.07,
54726170,-0.948,0.312,0.22,-3.517,-6.65,0.14,
54726180,-0.949,0.302,0.218,-4.655,-7.787,0.035,
54726190,-0.947,0.295,0.218,-4.392,-7.927,0.28,
54726200,-0.932,0.302,0.22,-3.29,-7.717,0.157,
54726210,-0.959,0.3,0.213,-3.22,-7.525,0.035,
54726220,-0.943,0.294,0.216,-2.905,-8.96,-0.262,
54726230,-0.955,0.308,0.217,-2.782,-9.922,-0.227,
54726240,-0.958,0.298,0.219,-3.587,-11.952,-0.472,
54726250,-0.907,0.321,0.222,-3.377,-12.617,-0.245,
54726260,-0.963,0.342,0.222,-6.195,-12.285,-0.735,
54726270,-0.963,0.249,0.219,-8.89,-14.735,-1.487,
54726280,-0.907,0.31,0.244,-3.237,-13.772,-0.612,
54726290,-0.956,0.289,0.257,-3.29,-13.615,-0.822,
54726300,-0.916,0.252,0.265,0.017,-12.355,-1.802,
54726310,-0.891,0.281,0.264,5.425,-8.802,-0.945,
54726320,-0.943,0.281,0.235,8.33,-6.457,-0.245,
54726330,-1,0.274,0.207,12.267,-8.505,-0.122,
54726340,-1.01,0.278,0.184,17.01,-13.457,0.297,
54726350,-1.01,0.25,0.169,20.825,-19.652,1.26,
54726360,-0.927,0.228,0.203,28.56,-22.942,4.585,
54726370,-0.903,0.35,0.247,32.987,-24.01,5.897,
54726380,-0.823,0.413,0.254,25.69,-16.66,3.272,
54726390,-0.916,0.361,0.266,12.565,-8.015,-0.262,
54726400,-0.919,0.313,0.305,4.952,-6.177,-1.925,
54726410,-0.859,0.32,0.328,4.497,-6.842,-0.49,
54726420,-0.821,0.346,0.337,3.447,-0.77,0.28,
54726420,-0.861,0.304,0.311,-0.612,6.09,0.315,
54726440,-0.879,0.282,0.285,0.997,11.812,1.435,
54726440,-0.928,0.287,0.254,4.165,14.262,1.4,
54726460,-0.928,0.296,0.226,8.785,14.822,-2.17,
54726460,-0.999,0.31,0.205,9.905,13.02,-1.96,
54726480,-0.982,0.285,0.176,6.755,9.345,-0.472,
54726480,-0.971,0.275,0.16,9.485,5.372,-0.21,
54726500,-0.992,0.293,0.18,10.587,1.767,-0.525,
54726500,-0.997,0.298,0.204,10.657,-4.567,0.612,
54726510,-0.936,0.325,0.221,8.925,-8.61,4.007,
54726520,-0.927,0.351,0.239,5.04,-9.38,5.425,
54726530,-0.921,0.348,0.242,-0.665,-8.102,4.567,
54726540,-0.893,0.333,0.242,-4.042,-7.14,3.395,
54726550,-0.909,0.333,0.249,-6.755,-4.76,2.327,
54726560,-0.916,0.315,0.246,-7.735,-2.362,1.295,
54726570,-0.92,0.311,0.243,-7.087,1.067,0.892,
54726580,-0.927,0.304,0.241,-6.335,3.447,0.35,
54726590,-0.93,0.293,0.238,-5.092,5.74,0.507,
54726600,-0.93,0.289,0.241,-3.43,7.7,1.172,
54726610,-0.918,0.29,0.249,-1.61,11.217,2.292,
54726620,-0.893,0.291,0.253,-0.122,16.065,2.992,
54726630,-0.89,0.292,0.253,1.872,22.575,3.972,
54726640,-0.889,0.299,0.246,4.287,29.067,3.902,
54726650,-0.897,0.29,0.232,7.035,34.807,2.747,
54726660,-0.918,0.285,0.222,10.535,40.74,1.452,
54726670,-0.947,0.302,0.205,15.102,44.012,-0.087,
54726680,-0.935,0.313,0.18,17.482,44.065,-1.47,
54726690,-0.942,0.343,0.172,17.325,43.207,-3.99,
54726700,-0.985,0.331,0.139,12.74,40.635,-1.522,
54726710,-1,0.341,0.112,9.257,34.44,-1.032,
54726720,-1.027,0.342,0.096,6.947,25.515,-0.735,
54726730,-1.013,0.35,0.084,2.275,14.91,0.332,
54726740,-1.024,0.348,0.085,-2.327,4.585,0.927,
54726750,-1.01,0.335,0.091,-6.3,-6.282,-0.227,
54726760,-0.983,0.331,0.113,-8.68,-15.575,-1.697,
54726770,-0.966,0.325,0.134,-11.585,-22.4,-2.852,
54726780,-0.958,0.302,0.153,-13.247,-25.97,-3.605,
54726790,-0.949,0.288,0.174,-12.6,-27.825,-3.85,
54726800,-0.935,0.288,0.196,-10.15,-27.195,-3.36,
54726810,-0.919,0.289,0.205,-7.192,-24.395,-3.097,
54726820,-0.923,0.286,0.204,-4.252,-19.74,-2.572,
54726830,-0.931,0.29,0.196,-1.26,-16.135,-2.17,
54726830,-0.94,0.301,0.182,1.05,-13.982,-2.012,
54726850,-0.965,0.31,0.17,1.995,-15.382,-2.485,
54726850,-0.949,0.305,0.169,1.61,-17.99,-3.342,
54726870,-1.001,0.296,0.181,1.435,-17.64,-2.397,
54726870,-0.994,0.283,0.181,2.03,-19.04,-0.332,
54726890,-0.945,0.309,0.188,2.957,-21.927,0.84,
54726890,-0.929,0.319,0.204,1.295,-22.75,0.7,
54726910,-0.922,0.305,0.21,-0.507,-22.82,0.7,
54726910,-0.919,0.312,0.216,-1.452,-20.947,1.715,
54726920,-0.931,0.315,0.221,-2.52,-19.04,3.22,
54726930,-0.923,0.307,0.215,-3.955,-17.762,3.517,
54726940,-0.91,0.313,0.233,-1.837,-16.117,2.52,
54726950,-0.912,0.315,0.232,-1.435,-12.302,2.03,
54726960,-0.906,0.313,0.226,-1.207,-10.132,1.277,
54726970,-0.909,0.334,0.198,-1.505,-7.77,0.875,
54726980,-0.957,0.36,0.207,-5.967,-8.417,-1.085,
54726990,-0.992,0.293,0.199,-11.462,-12.162,-2.765,
54727000,-0.955,0.326,0.194,-10.045,-13.79,-1.557,
54727010,-0.97,0.329,0.195,-15.19,-17.815,-2.73,
54727020,-0.975,0.295,0.211,-18.62,-20.685,-2.555,
54727030,-0.957,0.27,0.209,-19.267,-21.91,1.575,
54727040,-0.943,0.325,0.22,-18.672,-24.675,1.697,
54727050,-0.956,0.272,0.249,-20.545,-24.027,4.077,
54727060,-0.926,0.268,0.244,-18.357,-22.33,6.79,
54727070,-0.912,0.305,0.248,-16.205,-22.522,7.385,
54727080,-0.91,0.329,0.262,-17.062,-21.052,5.845,
54727090,-0.941,0.288,0.253,-19.775,-19.565,4.427,
54727100,-0.943,0.269,0.254,-18.235,-19.022,5.145,
54727110,-0.951,0.257,0.249,-13.685,-19.67,8.487,
54727120,-0.941,0.321,0.233,-9.082,-19.477,11.55,
54727130,-0.998,0.303,0.235,-11.69,-22.942,13.352,
54727140,-0.968,0.315,0.238,-11.112,-24.815,17.062,
54727150,-0.922,0.354,0.254,-13.265,-28.07,18.83,
54727160,-0.897,0.312,0.296,-17.395,-28.157,18.112,
54727170,-0.832,0.301,0.346,-14.962,-23.625,17.202,
54727170,-0.818,0.281,0.388,-12.775,-17.587,14.122,
54727190,-0.775,0.257,0.384,-5.95,-9.117,8.837,
54727190,-0.764,0.301,0.358,1.925,1.872,2.38,
54727210,-0.843,0.331,0.317,3.762,11.322,-3.902,
54727210,-0.946,0.316,0.277,3.5,16.205,-7.665,
54727230,-0.984,0.317,0.248,3.587,14.507,-8.05,
54727230,-0.986,0.332,0.249,2.257,9.607,-5.425,
54727250,-0.985,0.316,0.251,-0.542,3.325,-2.537,
54727250,-0.955,0.295,0.264,-1.767,-1.207,1.522,
54727260,-0.897,0.306,0.275,-2.415,-3.395,5.162,
54727270,-0.878,0.303,0.308,-3.185,-0.997,6.825,
54727280,-0.886,0.29,0.3,-4.217,1.96,4.935,
54727290,-0.898,0.303,0.301,-3.115,5.512,2.87,
54727300,-0.901,0.292,0.299,-1.802,8.837,2.362,
54727310,-0.885,0.282,0.305,1.505,14.035,2.782,
54727320,-0.882,0.3,0.274,5.897,19.092,3.08,
54727330,-0.921,0.336,0.269,7.14,20.615,1.977,
54727340,-0.94,0.321,0.246,4.62,19.11,0.035,
54727350,-0.962,0.33,0.229,3.972,16.625,0.297,
54727360,-0.99,0.328,0.228,1.907,10.535,1.242,
54727370,-0.958,0.332,0.235,1.837,6.142,3.57,
54727380,-0.928,0.341,0.239,1.592,2.537,4.27,
54727390,-0.928,0.336,0.249,0.42,-0.017,3.062,
54727400,-0.926,0.322,0.252,-1.085,-1.767,1.452,
54727410,-0.912,0.31,0.259,-1.05,-1.837,0.437,
54727420,-0.914,0.308,0.254,-0.437,-1.54,0.315,
54727430,-0.918,0.306,0.25,0.157,-0.682,0.507,
54727440,-0.942,0.308,0.244,0.052,-0.07,-0.07,
54727450,-0.959,0.308,0.238,0.21,-0.892,-0.595,
54727460,-0.966,0.309,0.232,0.297,-3.097,-0.49,
54727470,-0.963,0.309,0.23,0.7,-6.055,0.227,
54727480,-0.955,0.312,0.233,1.172,-8.732,1.557,
54727490,-0.948,0.311,0.241,1.207,-11.165,2.695,
54727500,-0.935,0.314,0.249,1.225,-12.897,3.115,
54727510,-0.911,0.319,0.262,1.295,-13.387,3.255,
54727520,-0.914,0.32,0.267,0.402,-12.722,3.395,
54727530,-0.911,0.319,0.266,-0.017,-12.127,3.185,
54727540,-0.912,0.321,0.27,-0.28,-11.165,3.22,
54727550,-0.911,0.322,0.268,-0.402,-10.605,2.625,
54727560,-0.915,0.326,0.265,-0.56,-9.712,1.872,
54727570,-0.917,0.33,0.263,-0.77,-9.555,1.225,
54727580,-0.92,0.358,0.223,-1.557,-9.502,0.577,
54727580,-0.952,0.378,0.245,-6.352,-14.035,-2.012,
54727590,-0.97,0.301,0.25,-11.427,-17.36,-3.22,
54727600,-0.923,0.316,0.27,-8.575,-18.2,0.7,
54727610,-0.883,0.344,0.272,-10.955,-18.41,2.502,
54727620,-0.892,0.321,0.287,-13.545,-17.727,0.997,
54727630,-0.906,0.309,0.302,-15.12,-15.207,-0.227,
54727640,-0.898,0.261,0.337,-14.332,-12.775,1.54,
54727650,-0.847,0.253,0.317,-7.525,-6.807,3.745,
54727660,-0.845,0.308,0.309,-0.035,-1.942,1.96,
54727670,-0.91,0.324,0.301,1.522,2.135,-0.805,
54727680,-0.966,0.313,0.28,2.415,3.29,-1.365,
54727690,-0.946,0.321,0.268,3.272,2.205,-0.507,
54727700,-0.933,0.324,0.264,3.395,-0.735,1.61,
54727710,-0.921,0.32,0.273,3.115,-2.59,2.642,
54727720,-0.902,0.319,0.288,2.992,-3.115,2.24,
54727730,-0.881,0.324,0.303,2.677,-1.26,0.157,
54727740,-0.88,0.308,0.304,2.555,1.662,-2.975,
54727750,-0.893,0.257,0.343,5.075,5.372,-5.267,
54727760,-0.838,0.236,0.335,13.772,9.537,-5.075,
54727770,-0.803,0.329,0.306,22.575,15.592,-6.125,
54727780,-0.88,0.346,0.288,21.997,20.737,-11.882,
54727790,-0.933,0.3,0.254,21.647,23.765,-15.627,
54727800,-1.018,0.359,0.262,17.517,23.817,-6.947,
54727810,-0.97,0.299,0.186,17.745,15.015,-0.472,
54727820,-0.968,0.383,0.178,17.36,8.855,-6.807,
54727830,-1.042,0.331,0.171,5.512,4.777,-2.52,
54727840,-1.026,0.319,0.18,-1.4,-3.78,0.507,
54727850,-1.004,0.301,0.225,-4.2,-14.315,0.997,
54727860,-0.944,0.294,0.255,-5.827,-20.44,3.955,
54727870,-0.932,0.301,0.269,-8.697,-22.557,12.32,
54727880,-0.868,0.321,0.271,-10.535,-22.68,12.53,
54727890,-0.863,0.357,0.262,-7.91,-19.81,10.045,
54727900,-0.887,0.385,0.244,-11.567,-14.472,7.735,
54727910,-0.967,0.324,0.261,-17.272,-13.16,1.225,
54727920,-0.919,0.291,0.261,-15.977,-12.705,-1.96,
54727920,-0.896,0.337,0.254,-13.825,-12.372,-1.295,
54727940,-0.946,0.334,0.26,-15.4,-12.862,-2.24,
54727940,-0.961,0.289,0.274,-15.697,-15.155,-1.015,
54727960,-0.916,0.315,0.277,-14.455,-15.75,3.325,
54727960,-0.899,0.316,0.27,-15.96,-14.962,5.215,
54727980,-0.946,0.307,0.292,-16.24,-11.97,4.637,
54727980,-0.926,0.233,0.308,-14.157,-14.192,4.567,
54728000,-0.873,0.289,0.333,-6.685,-11.375,8.715,
54728000,-0.898,0.282,0.332,-5.512,-10.15,8.942,
54728010,-0.876,0.267,0.328,-0.962,-7.91,9.135,
54728020,-0.85,0.311,0.315,2.502,-3.727,8.487,
54728030,-0.894,0.319,0.301,3.412,0.49,4.13,
54728040,-0.922,0.313,0.284,4.13,2.38,-0.087,
54728050,-0.927,0.329,0.277,5.407,2.852,-0.91,
54728060,-0.918,0.347,0.282,5.145,1.557,-0.787,
54728070,-0.903,0.341,0.295,3.43,1.382,-0.245,
54728080,-0.882,0.328,0.303,2.642,1.662,-0.455,
54728090,-0.863,0.326,0.306,2.712,3.5,-1.347,
54728100,-0.869,0.32,0.304,3.202,5.95,-3.272,
54728110,-0.914,0.289,0.316,4.795,8.855,-5.775,
54728120,-0.89,0.226,0.325,10.99,9.38,-5.792,
54728130,-0.839,0.341,0.309,20.58,12.617,-4.847,
54728140,-0.925,0.329,0.283,19.355,13.422,-10.395,
54728150,-0.898,0.335,0.26,20.055,15.435,-12.53,
54728160,-0.969,0.365,0.267,16.38,16.082,-12.88,
54728170,-1,0.302,0.193,9.852,12.39,-3.64,
54728180,-0.949,0.343,0.196,10.727,7.787,-4.445,
54728190,-1.026,0.334,0.212,4.742,3.71,-8.645,
54728200,-1.01,0.283,0.223,-1.347,-3.692,-4.305,
54728210,-0.958,0.293,0.243,-1.242,-10.395,-2.327,
54728220,-0.924,0.305,0.257,-0.875,-13.545,-1.225,
54728230,-0.924,0.296,0.266,-3.29,-14.175,1.312,
54728240,-0.91,0.31,0.265,-4.112,-13.86,2.572,
54728250,-0.929,0.327,0.253,-4.97,-14.21,2.94,
54728260,-0.945,0.338,0.225,-9.852,-16.205,4.357,
54728270,-0.978,0.328,0.207,-14.262,-21.717,4.235,
54728280,-0.985,0.357,0.195,-18.2,-26.512,5.162,
54728280,-1.041,0.282,0.262,-22.732,-31.587,9.572,
54728300,-0.895,0.313,0.235,-19.6,-33.845,15.05,
54728300,-0.895,0.351,0.294,-21.455,-32.9,16.17,
54728320,-0.893,0.293,0.305,-24.762,-28.28,12.775,
54728320,-0.891,0.267,0.398,-21.227,-26.95,11.41,
54728330,-0.814,0.233,0.415,-15.435,-25.462,12.705,
54728340,-0.684,0.356,0.375,-5.897,-15.26,12.722,
54728350,-0.84,0.347,0.397,-10.395,-3.08,2.992,
54728360,-0.879,0.232,0.382,-7.98,2.187,-2.117,
54728370,-0.811,0.319,0.346,0.822,10.097,1.785,
54728380,-0.904,0.355,0.306,1.47,14.175,-2.572,
54728390,-0.961,0.311,0.288,2.187,14.245,-6.387,
54728400,-0.971,0.307,0.273,2.572,10.92,-4.165,
54728410,-0.938,0.335,0.288,3.447,7.07,-3.062,
54728420,-0.897,0.325,0.308,2.275,4.462,-2.782,
54728430,-0.862,0.312,0.326,2.87,5.845,-2.747,
54728440,-0.839,0.321,0.336,4.48,10.062,-5.11,
54728450,-0.848,0.317,0.333,5.74,16.625,-8.645,
54728460,-0.878,0.307,0.323,7.28,22.435,-12.67,
54728470,-0.992,0.241,0.376,10.342,24.465,-15.715,
54728480,-0.912,0.147,0.341,22.837,16.817,-15.662,
54728490,-0.743,0.378,0.326,41.51,21.192,-10.797,
54728500,-0.992,0.308,0.255,35.42,25.987,-7.017,
54728510,-0.859,0.353,0.208,40.022,25.287,-10.255,
54728520,-0.995,0.467,0.197,30.187,29.102,-13.3,
54728530,-1.054,0.355,0.188,14.437,24.377,-9.467,
54728540,-1.017,0.343,0.158,3.937,15.575,-5.792,
54728550,-1.02,0.315,0.167,-1.54,7.14,-4.69,
54728560,-0.966,0.267,0.201,-0.682,0.14,-5.075,
54728570,-0.935,0.266,0.229,0.997,-1.802,-4.655,
54728580,-0.937,0.264,0.241,1.347,-2.415,-3.342,
54728590,-0.948,0.257,0.237,-0.402,-4.69,-2.047,
54728600,-0.941,0.254,0.226,-2.695,-6.965,-1.645,
54728610,-0.944,0.282,0.209,-4.095,-8.47,-0.245,
54728620,-0.976,0.332,0.186,-7.507,-11.69,0,
54728630,-0.995,0.361,0.142,-14.962,-16.625,-1.715,
54728640,-1.09,0.265,0.189,-22.855,-21.84,-3.045,
54728650,-0.992,0.264,0.198,-19.792,-26.355,2.45,
54728660,-0.926,0.335,0.222,-23.817,-26.722,7.752,
54728670,-0.934,0.207,0.283,-22.19,-27.037,3.692,
54728670,-0.82,0.33,0.305,-9.922,-22.242,6.457,
54728690,-0.919,0.322,0.345,-13.702,-20.107,8.4,
54728690,-0.855,0.291,0.337,-10.99,-16.642,9.152,
54728710,-0.872,0.299,0.37,-11.06,-12.355,8.505,
54728710,-0.853,0.257,0.392,-9.345,-9.17,7.052,
54728730,-0.757,0.274,0.377,-3.255,-5.127,7.14,
54728730,-0.77,0.297,0.329,-0.227,4.655,4.935,
54728750,-0.869,0.287,0.295,1.645,13.02,0.7,
54728750,-0.962,0.283,0.26,2.922,17.22,-0.927,
54728760,-1.004,0.303,0.228,5.18,15.855,-2.555,
54728770,-1.014,0.314,0.22,6.422,11.112,-3.29,
54728780,-1.002,0.315,0.231,6.282,3.797,-0.56,
54728790,-0.977,0.308,0.248,5.232,-2.642,3.272,
54728800,-0.922,0.301,0.267,4.497,-6.702,5.127,
54728810,-0.878,0.293,0.304,4.2,-5.635,4.9,
54728820,-0.892,0.204,0.374,7.017,-2.537,3.5,
54728830,-0.725,0.282,0.362,20.422,3.657,3.062,
54728840,-0.769,0.413,0.357,24.5,13.947,-2.94,
54728850,-0.996,0.29,0.295,16.59,20.632,-1.907,
54728860,-0.92,0.329,0.274,24.377,18.742,-3.185,
54728870,-0.95,0.396,0.244,22.627,17.237,-3.535,
54728880,-0.914,0.395,0.215,16.065,14.927,-2.047,
54728890,-0.923,0.374,0.174,7.157,13.842,-2.66,
54728900,-1.004,0.363,0.18,1.575,12.232,-4.357,
54728910,-0.985,0.337,0.166,-4.935,9.677,-2.082,
54728920,-0.996,0.294,0.171,-10.465,5.302,-1.872,
54728930,-0.989,0.248,0.191,-9.835,0.017,-0.577,
54728940,-0.958,0.251,0.213,-6.195,-3.622,0.91,
54728950,-0.954,0.274,0.233,-3.955,-5.267,0.315,
54728960,-0.949,0.263,0.237,-2.94,-5.6,-0.297,
54728970,-0.946,0.267,0.233,-2.187,-5.39,-0.385,
54728980,-0.948,0.248,0.228,-2.047,-5.25,-0.717,
54728990,-0.971,0.271,0.22,-1.732,-6.79,-1.155,
54729000,-0.984,0.277,0.224,-0.542,-9.905,0.542,
54729010,-0.991,0.289,0.222,-0.735,-14.612,1.802,
54729010,-0.968,0.299,0.23,-0.63,-18.445,3.045,
54729030,-0.944,0.314,0.236,-1.645,-21.63,4.252,
54729030,-0.921,0.364,0.216,-4.41,-22.295,6.02,
54729050,-0.963,0.387,0.19,-15.925,-21.542,6.807,
54729050,-1.013,0.269,0.201,-22.82,-23.31,3.78,
54729070,-0.923,0.323,0.224,-18.305,-25.095,5.372,
54729070,-0.931,0.354,0.241,-22.12,-24.36,9.03,
54729080,-0.972,0.246,0.31,-24.01,-26.792,8.995,
54729090,-0.89,0.226,0.331,-17.447,-27.615,12.39,
54729100,-0.824,0.326,0.334,-12.372,-25.567,13.755,
54729110,-0.866,0.282,0.363,-14.315,-20.615,8.872,
54729120,-0.832,0.261,0.366,-9.415,-15.767,8.032,
54729130,-0.808,0.309,0.343,-6.492,-8.452,7.647,
54729140,-0.848,0.279,0.345,-5.267,-1.925,3.867,
54729150,-0.85,0.316,0.331,-1.207,4.812,0.787,
54729160,-0.899,0.341,0.307,-1.487,9.205,-2.345,
54729170,-0.937,0.323,0.291,-2.082,11.55,-5.092,
54729180,-0.94,0.319,0.273,-1.68,11.042,-5.67,
54729190,-0.934,0.325,0.263,-0.7,9.765,-4.655,
54729200,-0.923,0.333,0.27,-0.28,8.207,-3.692,
54729210,-0.916,0.326,0.286,-0.717,8.347,-4.06,
54729220,-0.904,0.294,0.322,-0.507,8.715,-5.162,
54729230,-0.874,0.268,0.334,2.205,10.657,-4.69,
54729240,-0.85,0.289,0.326,6.965,13.265,-4.497,
54729250,-0.889,0.268,0.322,8.942,14.595,-5.81,
54729260,-0.961,0.275,0.273,9.782,14,1.802,
54729270,-0.918,0.303,0.244,14.875,11.987,4.287,
54729280,-1.035,0.342,0.249,14.297,10.605,1.242,
54729290,-0.981,0.315,0.22,10.465,4.497,2.555,
54729300,-0.946,0.348,0.188,5.495,0.402,3.307,
54729310,-0.964,0.341,0.189,-2.275,0.035,2.45,
54729320,-0.949,0.291,0.21,-6.562,-1.47,1.312,
54729330,-0.93,0.314,0.244,-6.457,-2.187,1.435,
54729340,-0.909,0.332,0.275,-7.227,-0.927,0.42,
54729350,-0.892,0.309,0.275,-8.522,0.525,-0.77,
54729360,-0.897,0.3,0.268,-8.697,3.272,-1.242,
54729370,-0.93,0.294,0.244,-8.417,4.34,-2.31,
54729380,-0.959,0.291,0.225,-8.137,3.727,-2.852,
54729390,-0.976,0.277,0.197,-9.222,0.927,-1.942,
54729400,-0.993,0.272,0.2,-8.627,-3.045,-0.682,
54729410,-1.016,0.309,0.206,-8.645,-10.15,0.525,
54729420,-0.957,0.379,0.167,-12.88,-17.027,-0.052,
54729420,-0.997,0.396,0.17,-27.037,-22.417,-0.735,
54729440,-1.068,0.289,0.175,-43.452,-25.655,1.925,
54729440,-0.963,0.263,0.258,-38.307,-30.17,2.012,
54729460,-0.92,0.251,0.365,-27.65,-29.155,5.95,
54729460,-0.814,0.271,0.361,-17.447,-27.667,9.485,
54729480,-0.773,0.29,0.395,-14.21,-20.475,8.645,
54729480,-0.827,0.171,0.419,-12.74,-10.395,4.795,
54729500,-0.777,0.253,0.386,-1.12,-0.787,2.677,
54729500,-0.814,0.327,0.335,-1.4,8.645,0.14,
54729510,-0.926,0.283,0.333,-4.357,14.927,-2.467,
54729520,-0.96,0.252,0.295,-5.967,15.102,-2.695,
54729530,-0.948,0.269,0.278,-5.372,14,0.472,
54729540,-0.925,0.283,0.247,-5.267,11.515,1.435,
54729550,-0.928,0.297,0.237,-3.22,10.465,1.785,
54729560,-0.927,0.341,0.248,0.437,9.852,2.327,
54729570,-0.944,0.357,0.257,2.065,9.817,2.537,
54729580,-0.932,0.341,0.282,2.152,9.24,0.98,
54729590,-0.94,0.223,0.337,4.882,9.345,1.277,
54729600,-0.833,0.296,0.292,17.395,9.712,1.89,
54729610,-0.837,0.343,0.287,19.442,10.832,1.925,
54729620,-0.927,0.277,0.279,16.52,12.775,-1.102,
54729630,-0.96,0.278,0.269,22.067,12.512,-0.105,
54729640,-0.974,0.311,0.251,23.1,10.64,-0.07,
54729650,-0.964,0.291,0.215,22.155,8.995,-0.665,
54729660,-0.962,0.304,0.186,19.967,9.065,-1.96,
54729670,-1.007,0.297,0.182,13.51,8.382,-3.255,
54729680,-1.013,0.297,0.185,10.01,3.587,-3.255,
54729690,-0.987,0.317,0.189,6.352,-2.8,-1.61,
54729700,-0.999,0.303,0.207,1.977,-9.327,-1.452,
54729710,-0.956,0.278,0.229,0.822,-14.682,-1.855,
54729720,-0.931,0.291,0.246,2.327,-17.412,-1.19,
54729730,-0.919,0.307,0.258,2.03,-19.075,-0.525,
54729740,-0.931,0.31,0.261,0.035,-19.617,0.157,
54729750,-0.912,0.311,0.253,-1.522,-20.02,0.262,
54729760,-0.915,0.333,0.232,-3.465,-20.002,1.12,
54729760,-0.949,0.348,0.192,-10.202,-22.172,1.12,
54729780,-1.003,0.344,0.211,-17.482,-26.512,-3.29,
54729780,-1.001,0.295,0.203,-21.7,-29.347,-4.515,
54729800,-0.976,0.331,0.23,-23.187,-31.482,-1.872,
54729800,-0.944,0.278,0.252,-28.682,-34.492,1.68,
54729820,-0.943,0.305,0.275,-25.165,-33.88,9.047,
54729820,-0.915,0.275,0.325,-26.425,-31.972,13.842,
54729830,-0.91,0.17,0.393,-21.7,-29.487,18.392,
54729840,-0.793,0.22,0.411,-8.172,-24.237,21.56,
54729850,-0.787,0.355,0.431,-3.045,-18.13,18.637,
54729860,-0.787,0.272,0.391,-7.49,-10.675,12.6,
54729870,-0.832,0.234,0.342,-2.782,0.14,9.52,
54729880,-0.875,0.332,0.316,2.817,7.227,4.217,
54729890,-0.935,0.334,0.293,1.522,11.672,-0.472,
54729900,-0.954,0.304,0.276,1.295,10.85,-3.395,
54729910,-0.928,0.309,0.276,2.677,9.117,-2.555,
54729920,-0.923,0.329,0.29,3.657,7.507,-1.61,
54729930,-0.905,0.326,0.316,3.955,6.51,-2.572,
54729940,-0.879,0.318,0.33,3.85,5.985,-2.73,
54729950,-0.858,0.302,0.361,4.48,7.892,-2.922,
54729960,-0.877,0.18,0.401,9.52,10.692,-3.727,
54729970,-0.75,0.228,0.376,27.457,16.625,-3.36,
54729980,-0.765,0.327,0.352,36.697,23.642,-8.085,
54729990,-0.843,0.335,0.342,37.555,30.187,-15.697,
54730000,-1.025,0.329,0.22,30.135,34.23,-2.572,
54730010,-1.007,0.336,0.183,31.57,29.067,0.577,
54730020,-1.016,0.402,0.135,24.377,26.18,-7.367,
54730030,-1.143,0.338,0.135,7.997,20.562,-5.18,
54730040,-1.063,0.272,0.11,-1.942,5.792,-1.61,
54730050,-1.072,0.292,0.173,-1.137,-8.575,-0.105,
54730060,-0.962,0.281,0.217,-2.117,-19.232,-2.152,
54730070,-0.889,0.287,0.261,1.575,-20.737,-0.752,
54730080,-0.903,0.317,0.282,-0.472,-19.32,0.455,
54730090,-0.917,0.307,0.283,-5.845,-18.655,3.727,
54730100,-0.908,0.318,0.262,-8.242,-18.55,4.48,
54730110,-0.904,0.393,0.194,-13.545,-18.392,3.832,
54730120,-0.984,0.377,0.195,-31.692,-21.122,0.297,
54730130,-0.981,0.294,0.179,-41.825,-26.25,0.857,
54730140,-0.991,0.321,0.254,-43.19,-28.157,7.157,
54730150,-0.944,0.312,0.309,-45.657,-29.277,11.585,
54730160,-0.885,0.248,0.378,-40.512,-26.25,14.367,
54730170,-0.803,0.214,0.406,-29.977,-19.267,12.915,
54730170,-0.773,0.231,0.427,-16.327,-11.427,8.837,
54730190,-0.741,0.224,0.394,-4.935,-2.257,4.182,
54730190,-0.739,0.317,0.346,5.512,13.09,2.467,
54730210,-0.879,0.341,0.315,2.38,22.365,-5.477,
54730210,-0.954,0.278,0.303,1.75,28.21,-11.27,
54730230,-0.94,0.275,0.288,3.745,31.132,-11.69,
54730230,-0.927,0.291,0.295,5.565,32.83,-11.917,
54730250,-0.997,0.245,0.293,2.345,32.69,-3.727,
54730250,-0.872,0.148,0.327,10.867,32.375,0.63,
54730260,-0.786,0.296,0.3,17.937,39.707,-3.115,
54730270,-0.889,0.317,0.283,18.987,47.04,2.765,
54730280,-0.878,0.318,0.267,20.632,50.085,3.465,
54730290,-0.91,0.345,0.229,22.102,53.445,2.87,
54730300,-0.948,0.347,0.216,21.28,56.367,0.052,
54730310,-0.925,0.309,0.171,21.262,57.05,-2.782,
54730320,-0.966,0.316,0.186,23.012,60.392,-2.292,
54730330,-1.014,0.33,0.16,18.2,61.512,1.907,
54730340,-0.99,0.322,0.143,15.277,56.665,1.942,
54730350,-0.985,0.309,0.128,12.67,49.962,1.82,
54730360,-0.983,0.309,0.121,10.027,43.33,0.385,
54730370,-1.003,0.3,0.126,10.272,38.342,-0.21,
54730380,-1.01,0.303,0.105,8.295,32.935,-0.28,
54730390,-1.03,0.306,0.114,8.522,26.04,-0.437,
54730400,-1.011,0.299,0.098,8.032,17.22,2.222,
54730410,-0.997,0.309,0.101,9.852,7.962,1.75,
54730420,-0.978,0.31,0.1,9.852,0.805,0.822,
54730430,-0.976,0.306,0.097,7.91,-4.287,0.315,
54730440,-0.989,0.317,0.102,5.88,-9.257,-0.752,
54730450,-0.994,0.317,0.108,2.1,-14.507,-1.89,
54730460,-0.989,0.296,0.118,-0.367,-18.41,-2.957,
54730470,-0.971,0.286,0.137,0.612,-21.262,-3.202,
54730480,-0.944,0.294,0.157,2.345,-21.595,-3.185,
54730490,-0.929,0.298,0.169,3.64,-19.757,-3.43,
54730500,-0.92,0.315,0.174,3.85,-15.925,-2.922,
54730510,-0.934,0.324,0.16,1.802,-13.387,-3.535,
54730510,-0.944,0.335,0.153,-0.192,-12.6,-4.742,
54730530,-0.975,0.339,0.129,-3.745,-15.522,-5.39,
54730530,-1.016,0.341,0.113,-8.4,-22.312,-7.525,
54730550,-1.028,0.33,0.114,-11.847,-33.162,-10.587,
54730550,-1.019,0.298,0.126,-13.842,-44.047,-12.582,
54730570,-0.949,0.215,0.208,-13.3,-44.345,-12.862,
54730570,-0.963,0.263,0.211,-4.27,-35.017,-7.577,
54730580,-0.865,0.29,0.229,0.647,-31.92,-2.432,
54730590,-0.855,0.271,0.229,-2.012,-26.215,-3.57,
54730600,-0.921,0.266,0.22,-4.9,-18.392,-5.232,
54730610,-0.96,0.256,0.209,-3.902,-13.055,-2.642,
54730620,-0.982,0.276,0.183,-2.817,-12.355,-0.612,
54730630,-1.018,0.286,0.166,-2.695,-15.435,0.7,
54730640,-1.023,0.292,0.168,-3.412,-21.91,1.05,
54730650,-1.015,0.29,0.178,-5.04,-28.367,1.855,
54730660,-0.98,0.3,0.189,-6.93,-34.247,3.045,
54730670,-0.955,0.297,0.205,-9.292,-37.467,3.885,
54730680,-0.923,0.279,0.227,-11.427,-37.555,5.442,
54730690,-0.919,0.295,0.228,-14.385,-34.702,7.857,
54730700,-0.907,0.277,0.238,-15.19,-33.285,5.67,
54730710,-0.897,0.259,0.271,-10.097,-29.172,4.165,
54730720,-0.881,0.298,0.263,-6.982,-23.572,4.375,
54730730,-0.892,0.338,0.252,-8.4,-18.847,2.537,
54730740,-0.947,0.284,0.264,-14.035,-16.695,0.595,
54730750,-0.928,0.266,0.253,-13.597,-15.207,3.325,
54730760,-0.941,0.326,0.23,-14.647,-14.245,6.002,
54730770,-1.005,0.269,0.252,-19.337,-16.572,5.46,
54730780,-0.955,0.221,0.255,-15.382,-19.18,7.28,
54730790,-0.955,0.263,0.277,-9.555,-21.21,11.445,
54730800,-0.907,0.295,0.249,-7.875,-22.295,14.805,
54730810,-0.976,0.309,0.274,-11.095,-23.31,16.31,
54730820,-0.974,0.272,0.286,-15.435,-25.357,17.692,
54730830,-0.913,0.269,0.319,-12.88,-25.9,19.792,
54730840,-0.838,0.301,0.33,-10.465,-22.435,19.302,
54730850,-0.796,0.3,0.348,-7.455,-15.697,13.842,
54730860,-0.796,0.284,0.346,-4.007,-5.477,7.28,
54730870,-0.818,0.303,0.322,0.385,4.567,2.327,
54730880,-0.876,0.313,0.295,1.942,11.602,-0.507,
54730890,-0.955,0.304,0.265,2.852,13.755,-0.245,
54730900,-0.978,0.317,0.259,4.06,11.917,2.607,
54730910,-0.991,0.317,0.259,3.325,6.685,5.6,
54730920,-0.959,0.301,0.259,2.922,1.802,7.35,
54730920,-0.931,0.305,0.267,3.57,-1.61,8.277,
54730940,-0.918,0.308,0.272,2.975,-2.642,6.807,
54730940,-0.903,0.299,0.281,2.782,-2.59,5.057,
54730960,-0.896,0.301,0.284,2.8,-0.665,3.727,
54730960,-0.905,0.304,0.286,3.587,0.962,1.767,
54730980,-0.918,0.304,0.284,5.162,2.887,-0.245,
54730980,-0.927,0.299,0.3,7.21,3.832,-1.907,
54730990,-0.936,0.224,0.317,11.025,3.727,-2.45,
54731000,-0.798,0.29,0.287,23.38,7.297,-0.7,
54731010,-0.869,0.348,0.269,25.672,11.48,-4.76,
54731020,-0.899,0.333,0.246,22.627,14.28,-10.85,
54731030,-1.001,0.332,0.24,18.76,15.767,-12.337,
54731040,-1.004,0.339,0.227,15.662,10.097,-11.165,
54731050,-0.955,0.287,0.198,13.72,4.287,-0.297,
54731060,-0.979,0.373,0.203,12.057,1.155,-4.27,
54731070,-1.047,0.3,0.205,2.695,-3.622,-5.932,
54731080,-0.966,0.264,0.221,0.542,-10.552,-2.24,
54731090,-0.959,0.301,0.24,1.662,-14.665,1.417,
54731100,-0.929,0.307,0.245,-0.875,-17.552,2.835,
54731110,-0.933,0.296,0.261,-1.732,-19.635,4.672,
54731120,-0.937,0.301,0.268,-2.31,-21.402,7.717,
54731130,-0.929,0.297,0.268,-3.202,-22.82,8.872,
54731140,-0.911,0.312,0.246,-3.36,-22.89,7.682,
54731150,-0.912,0.345,0.24,-5.197,-22.207,5.53,
54731160,-0.945,0.334,0.228,-10.255,-23.257,3.395,
54731170,-0.954,0.355,0.238,-14.227,-24.71,2.94,
54731180,-0.965,0.318,0.244,-19.355,-26.005,2.835,
54731190,-0.932,0.327,0.215,-19.635,-26.74,4.182,
54731200,-0.923,0.274,0.243,-23.065,-25.13,5.442,
54731210,-0.926,0.297,0.248,-19.827,-24.517,5.88,
54731220,-0.901,0.347,0.283,-20.212,-23.66,4.725,
54731230,-0.927,0.298,0.305,-25.48,-21.647,4.83,
54731240,-0.931,0.241,0.388,-21.752,-20.282,7.84,
54731250,-0.84,0.284,0.393,-14.122,-19.407,11.27,
54731260,-0.81,0.325,0.404,-11.112,-16.45,10.447,
54731260,-0.799,0.301,0.396,-11.077,-11.725,6.107,
54731280,-0.82,0.284,0.42,-8.697,-5.95,2.8,
54731280,-0.819,0.28,0.393,-5.582,-1.82,-0.262,
54731300,-0.801,0.29,0.372,-0.875,4.882,-2.397,
54731300,-0.862,0.299,0.337,1.05,11.655,-5.11,
54731320,-0.912,0.307,0.329,2.607,14.962,-6.895,
54731320,-0.937,0.301,0.311,2.047,15.032,-6.667,
54731330,-0.923,0.309,0.304,2.747,14.402,-5.915,
54731340,-0.913,0.314,0.293,3.325,13.072,-5.232,
54731350,-0.912,0.312,0.292,4.672,13.44,-4.812,
54731360,-0.924,0.317,0.293,5.565,13.475,-5.355,
54731370,-0.949,0.308,0.282,5.897,13.072,-6.195,
54731380,-0.941,0.311,0.273,7.105,11.165,-6.475,
54731390,-0.948,0.301,0.271,7.647,8.645,-5.897,
54731400,-0.971,0.23,0.334,9.712,5.442,-5.582,
54731410,-0.899,0.22,0.322,20.37,3.552,-2.572,
54731420,-0.823,0.313,0.316,29.75,2.17,-1.837,
54731430,-0.838,0.331,0.303,28.192,6.702,-6.212,
54731440,-0.918,0.327,0.298,25.27,11.27,-9.817,
54731450,-0.935,0.333,0.268,20.037,12.88,-10.71,
54731460,-0.975,0.361,0.247,14.367,12.792,-8.33,
54731470,-1.033,0.283,0.192,7.035,8.61,-0.105,
54731480,-0.973,0.321,0.2,8.312,1.82,-2.712,
54731490,-1.023,0.316,0.217,2.1,-1.557,-3.377,
54731500,-0.975,0.273,0.231,-1.207,-7.962,-2.082,
54731510,-0.961,0.271,0.253,0.665,-12.635,-0.402,
54731520,-0.923,0.292,0.258,1.225,-14.7,0.297,
54731530,-0.923,0.302,0.267,1.505,-16.397,0.437,
54731540,-0.948,0.285,0.266,0.332,-18.13,2.905,
54731550,-0.936,0.291,0.271,0.507,-20.37,5.39,
54731560,-0.916,0.309,0.266,-1.137,-21.98,6.002,
54731570,-0.903,0.352,0.245,-5.057,-23.397,6.037,
54731580,-0.938,0.373,0.232,-15.19,-24.92,6.3,
54731590,-0.954,0.37,0.228,-26.687,-25.742,7.822,
54731600,-0.986,0.348,0.239,-37.45,-24.097,10.412,
54731610,-0.972,0.23,0.266,-40.88,-22.4,13.37,
54731620,-0.946,0.235,0.329,-32.077,-21.07,15.452,
54731630,-0.866,0.239,0.404,-22.032,-23.415,13.877,
54731640,-0.811,0.269,0.416,-11.585,-21.437,13.51,
54731650,-0.776,0.349,0.433,-6.912,-16.135,11.305,
54731660,-0.827,0.29,0.428,-9.187,-11.305,7.56,
54731660,-0.775,0.266,0.405,-3.5,-4.497,6.895,
54731670,-0.795,0.333,0.365,0.647,5.145,3.412,
54731680,-0.87,0.336,0.338,2.38,12.092,-3.36,
54731690,-0.919,0.308,0.302,3.045,14.962,-6.23,
54731700,-0.919,0.317,0.288,5.057,13.982,-5.757,
54731710,-0.917,0.324,0.289,5.582,13.282,-4.917,
54731720,-0.929,0.31,0.302,5.547,12.022,-5.092,
54731730,-0.919,0.301,0.308,6.545,10.955,-5.18,
54731740,-0.922,0.292,0.303,7.227,9.887,-4.707,
54731750,-0.99,0.217,0.381,9.082,7.28,-3.832,
54731760,-0.89,0.209,0.364,21.35,1.522,0.91,
54731770,-0.777,0.338,0.333,31.132,0.49,4.777,
54731780,-0.866,0.33,0.29,26.425,6.195,-0.875,
54731790,-0.898,0.331,0.264,24.867,12.285,-7.245,
54731800,-0.988,0.341,0.252,19.145,14.997,-10.237,
54731810,-0.98,0.345,0.239,15.382,13.86,-11.007,
54731820,-0.955,0.344,0.221,11.077,10.587,-9.695,
54731830,-0.986,0.33,0.214,4.147,7.052,-5.075,
54731840,-0.997,0.312,0.222,-0.472,-0.63,0.472,
54731850,-0.988,0.324,0.276,-6.615,-8.75,4.637,
54731860,-1.013,0.29,0.282,-12.495,-17.045,15.347,
54731870,-0.952,0.281,0.255,-12.845,-23.835,21.525,
54731880,-0.882,0.275,0.22,-10.412,-23.782,20.23,
54731890,-0.939,0.353,0.229,-9.327,-20.037,13.545,
54731900,-1.024,0.361,0.231,-15.33,-20.755,7.7,
54731910,-0.998,0.302,0.231,-19.687,-23.467,8.172,
54731920,-0.961,0.266,0.272,-18.602,-26.827,10.5,
54731930,-0.898,0.265,0.3,-11.515,-30.082,13.195,
54731940,-0.852,0.315,0.3,-6.597,-29.067,15.662,
54731950,-0.863,0.311,0.304,-8.05,-23.502,15.155,
54731960,-0.916,0.321,0.338,-10.15,-19.477,11.585,
54731970,-0.882,0.292,0.384,-12.337,-19.215,10.85,
54731980,-0.838,0.293,0.396,-9.66,-17.482,13.562,
54731990,-0.795,0.352,0.396,-6.457,-14.91,13.055,
54732000,-0.836,0.318,0.41,-8.312,-11.077,10.552,
54732010,-0.821,0.296,0.404,-4.9,-8.61,10.027,
54732010,-0.793,0.338,0.371,-1.085,-2.975,8.067,
54732030,-0.859,0.338,0.345,-1.522,2.485,2.187,
54732030,-0.904,0.313,0.333,-1.575,5.11,-0.385,
54732050,-0.924,0.317,0.316,0.49,4.305,0.49,
54732050,-0.93,0.336,0.317,3.027,3.08,1.05,
54732070,-0.942,0.324,0.308,3.745,0.315,1.995,
54732070,-0.92,0.328,0.322,4.76,-1.627,3.062,
54732080,-0.892,0.332,0.343,5.005,-3.15,3.185,
54732090,-0.88,0.278,0.387,6.545,-2.555,3.045,
54732100,-0.8,0.281,0.394,15.54,-0.437,3.237,
54732110,-0.744,0.352,0.373,22.977,4.69,-0.052,
54732120,-0.801,0.366,0.355,24.097,12.302,-8.487,
54732130,-0.865,0.344,0.332,24.815,18.252,-16.065,
54732140,-0.896,0.369,0.317,26.46,21.577,-18.515,
54732150,-0.954,0.379,0.302,24.675,21.77,-18.952,
54732160,-0.927,0.36,0.266,21.122,17.832,-18.34,
54732170,-0.954,0.36,0.238,16.047,14.787,-14.752,
54732180,-0.974,0.365,0.219,9.17,10.517,-13.107,
54732190,-0.988,0.327,0.211,1.82,5.25,-11.952,
54732200,-1.003,0.295,0.214,-2.17,-1.417,-9.695,
54732210,-0.99,0.273,0.231,-3.132,-9.397,-5.512,
54732220,-0.981,0.269,0.256,-4.41,-17.937,0.175,
54732230,-0.985,0.277,0.279,-6.23,-26.53,6.562,
54732240,-0.942,0.321,0.261,-8.75,-32.935,13.597,
54732250,-0.949,0.396,0.219,-16.677,-36.645,16.1,
54732260,-1.006,0.382,0.221,-29.977,-38.78,11.952,
54732270,-0.992,0.322,0.26,-35.192,-38.797,8.47,
54732280,-0.906,0.278,0.295,-30.747,-38.045,8.575,
54732290,-0.739,0.307,0.294,-21.822,-28.437,9.135,
54732300,-0.86,0.325,0.378,-18.34,-20.545,2.73,
54732310,-0.828,0.302,0.44,-14.315,-18.812,0.437,
54732320,-0.853,0.255,0.488,-12.407,-18.357,4.305,
54732330,-0.777,0.287,0.484,-6.58,-14.735,5.67,
54732340,-0.788,0.31,0.49,-2.415,-9.012,4.41,
54732350,-0.744,0.319,0.42,0.595,-1.365,2.24,
54732350,-0.801,0.367,0.381,1.995,8.54,-0.787,
54732370,-0.869,0.345,0.368,-0.472,13.912,-8.015,
54732370,-0.884,0.317,0.355,0.49,16.905,-10.972,
54732390,-0.886,0.318,0.335,1.207,16.975,-9.905,
54732390,-0.911,0.303,0.32,1.522,16.205,-7.612,
54732410,-0.927,0.29,0.307,2.275,14.035,-6.212,
54732410,-0.928,0.307,0.32,4.34,12.407,-4.41,
54732420,-0.951,0.274,0.385,4.742,9.1,-3.447,
54732430,-0.864,0.225,0.384,11.97,6.475,-1.435,
54732440,-0.802,0.294,0.36,23.8,5.722,0.332,
54732450,-0.791,0.352,0.363,27.79,10.605,-2.782,
54732460,-0.88,0.343,0.349,28.105,17.08,-7.385,
54732470,-0.947,0.359,0.338,27.02,20.475,-11.007,
54732480,-0.938,0.318,0.311,24.955,17.92,-11.76,
54732490,-0.885,0.321,0.263,26.81,17.272,-9.1,
54732500,-0.945,0.333,0.23,26.442,18.742,-9.975,
54732510,-0.968,0.346,0.216,24.43,17.815,-12.775,
54732520,-0.989,0.326,0.212,20.02,13.912,-13.475,
54732530,-0.981,0.344,0.226,15.225,11.182,-11.602,
54732540,-1.006,0.315,0.236,8.785,5.372,-6.247,
54732550,-0.96,0.336,0.277,7.595,-1.207,-7,
54732560,-0.888,0.303,0.314,1.89,-2.222,-5.285,
54732570,-0.847,0.269,0.318,-2.975,1.225,-2.887,
54732580,-0.841,0.265,0.311,-2.292,6.667,-2.275,
54732590,-0.858,0.276,0.302,-0.122,12.565,-3.045,
54732600,-0.902,0.275,0.288,4.69,15.96,-3.272,
54732610,-0.958,0.29,0.271,8.837,18.095,-1.732,
54732620,-0.96,0.295,0.237,12.67,17.36,-1.697,
54732630,-0.961,0.309,0.241,16.415,14.315,-3.57,
54732640,-0.955,0.307,0.242,15.365,11.112,-3.57,
54732650,-0.919,0.334,0.263,15.102,9.45,-2.695,
54732660,-0.87,0.34,0.281,10.097,11.795,-0.892,
54732670,-0.887,0.323,0.289,5.372,16.065,1.05,
54732680,-0.856,0.336,0.306,4.077,22.925,1.155,
54732690,-0.842,0.337,0.31,2.152,32.095,-0.297,
54732700,-0.835,0.307,0.294,0.875,43.225,-2.52,
54732710,-0.848,0.278,0.283,2.432,58.467,-3.605,
54732720,-0.909,0.274,0.23,6.422,72.625,-4.655,
54732730,-0.962,0.271,0.193,13.282,75.967,-4.76,
54732740,-1.065,0.304,0.152,15.487,68.617,-0.437,
54732750,-1.092,0.322,0.113,15.505,49.21,1.802,
54732760,-1.047,0.327,0.061,14.35,28.787,4.847,
54732760,-1.037,0.35,0.022,9.397,12.845,5.11,
54732780,-1.106,0.346,0.027,1.995,-1.785,3.22,
54732780,-1.131,0.343,0.045,-4.042,-24.587,-0.157,
54732800,-1.078,0.337,0.075,-8.225,-48.23,-1.627,
54732800,-1.019,0.337,0.123,-13.44,-65.31,-1.68,
54732820,-0.974,0.33,0.181,-17.99,-72.642,-0.787,
54732820,-0.976,0.321,0.227,-21.07,-75.88,2.415,
54732830,-0.9,0.251,0.28,-26.845,-75.39,12.127,
54732840,-0.911,0.214,0.298,-19.88,-59.745,19.565,
54732850,-0.91,0.323,0.297,-4.55,-52.482,21.665,
54732860,-0.884,0.319,0.251,-6.65,-55.545,24.71,
54732870,-0.918,0.299,0.256,-6.615,-56.087,27.597,
54732880,-0.915,0.314,0.278,-5.845,-52.027,25.62,
54732890,-0.887,0.316,0.292,-5.145,-45.08,23.66,
54732900,-0.842,0.319,0.3,-5.722,-40.232,19.705,
54732910,-0.825,0.329,0.322,-4.777,-34.247,14.35,
54732920,-0.82,0.338,0.338,-3.237,-26.442,9.485,
54732930,-0.824,0.332,0.339,-1.872,-19.267,6.055,
54732940,-0.83,0.335,0.327,-0.682,-13.492,3.71,
54732950,-0.852,0.347,0.319,-0.945,-8.085,2.012,
54732960,-0.876,0.384,0.272,-3.395,-4.69,-0.35,
54732970,-0.931,0.412,0.252,-11.06,-5.39,-3.675,
54732980,-1.008,0.351,0.259,-20.545,-8.662,-5.495,
54732990,-1.014,0.302,0.255,-22.855,-15.75,-3.185,
54733000,-0.951,0.329,0.247,-21.997,-22.295,0.105,
54733010,-0.967,0.302,0.292,-23.03,-27.807,-0.175,
54733020,-0.902,0.316,0.288,-19.18,-29.12,0.14,
54733030,-0.892,0.349,0.312,-19.932,-28.945,0.612,
54733040,-0.89,0.3,0.34,-22.522,-26.11,1.627,
54733050,-0.869,0.301,0.363,-20.212,-23.572,3.99,
54733060,-0.872,0.308,0.402,-20.72,-19.652,5.81,
54733070,-0.885,0.209,0.442,-17.57,-18.655,8.067,
54733080,-0.738,0.307,0.391,-5.635,-13.842,12.057,
54733080,-0.786,0.351,0.396,-7.857,-7.017,9.642,
54733100,-0.848,0.302,0.384,-10.64,-1.522,4.69,
54733100,-0.895,0.317,0.365,-8.855,0.717,5.67,
54733120,-0.912,0.313,0.352,-7.84,0.14,6.335,
54733120,-0.883,0.341,0.347,-2.485,-2.065,5.722,
54733140,-0.884,0.358,0.339,-1.26,-2.537,5.302,
54733140,-0.884,0.343,0.345,-0.262,-2.45,3.15,
54733160,-0.882,0.34,0.347,0.997,-1.522,0.577,
54733160,-0.864,0.345,0.344,1.662,-1.032,-1.33,
54733170,-0.86,0.34,0.341,2.432,0.927,-2.87,
54733180,-0.874,0.338,0.341,3.465,2.432,-4.13,
54733190,-0.885,0.334,0.34,3.395,4.357,-4.83,
54733200,-0.895,0.318,0.34,3.202,5.46,-5.985,
54733210,-0.89,0.315,0.332,3.92,6.667,-6.807,
54733220,-0.893,0.317,0.332,4.34,6.825,-6.685,
54733230,-0.911,0.318,0.332,4.13,6.457,-5.88,
54733240,-0.905,0.319,0.334,3.972,5.407,-4.567,
54733250,-0.907,0.306,0.354,3.885,5.232,-3.29,
54733260,-0.92,0.234,0.393,7.84,3.045,-2.345,
54733270,-0.776,0.298,0.379,18.655,1.575,-0.245,
54733280,-0.786,0.385,0.342,20.825,8.592,-2.397,
54733290,-0.912,0.334,0.32,15.417,14.927,-10.045,
54733300,-0.919,0.342,0.3,14.21,16.257,-11.165,
54733310,-0.953,0.352,0.271,10.22,14.997,-9.065,
54733320,-0.972,0.353,0.246,6.09,11.217,-7.367,
54733330,-1.026,0.337,0.243,-0.35,4.34,-3.85,
54733340,-1.027,0.304,0.266,-4.97,-6.02,2.17,
54733350,-0.967,0.299,0.286,-5.127,-14.63,7.962,
54733360,-0.915,0.322,0.311,-4.83,-20.125,11.025,
54733370,-0.914,0.323,0.326,-7.175,-23.03,13.685,
54733380,-0.892,0.32,0.327,-8.347,-23.607,15.05,
54733390,-0.863,0.352,0.306,-8.837,-22.942,12.442,
54733400,-0.863,0.397,0.284,-13.247,-20.527,6.44,
54733410,-0.909,0.382,0.289,-21.07,-17.465,0.875,
54733420,-0.95,0.334,0.293,-27.405,-15.68,-0.735,
54733430,-0.952,0.261,0.319,-28.857,-17.762,0.525,
54733440,-0.869,0.325,0.344,-23.362,-18.182,3.867,
54733450,-0.895,0.308,0.408,-26.005,-19.495,4.777,
54733460,-0.817,0.255,0.42,-23.1,-17.972,6.685,
54733470,-0.775,0.293,0.432,-16.345,-13.737,7.647,
54733480,-0.78,0.259,0.454,-13.965,-7,4.882,
54733490,-0.744,0.266,0.415,-5.355,2.59,3.675,
54733500,-0.806,0.368,0.396,-4.427,12.32,0,
54733510,-0.887,0.35,0.383,-6.545,16.17,-1.995,
54733510,-0.898,0.339,0.366,-8.82,17.71,-1.05,
54733530,-0.833,0.359,0.324,-8.837,18.025,-0.087,
54733530,-0.859,0.359,0.331,-8.785,21.472,0.997,
54733550,-0.883,0.339,0.343,-8.417,22.802,-3.255,
54733550,-0.892,0.318,0.337,-4.777,23.8,-8.155,
54733570,-0.921,0.315,0.32,-1.575,23.975,-11.392,
54733570,-0.946,0.302,0.323,0.332,22.68,-13.562,
54733580,-0.968,0.211,0.354,3.675,18.69,-12.285,
54733590,-0.886,0.248,0.337,16.485,15.75,-5.652,
54733600,-0.823,0.334,0.292,21.717,13.737,-4.27,
54733610,-0.967,0.312,0.286,16.8,18.095,-10.342,
54733620,-0.993,0.284,0.28,17.325,15.907,-13.597,
54733630,-0.935,0.351,0.25,15.977,12.512,-9.765,
54733640,-1.034,0.332,0.248,7.822,8.19,-8.452,
54733650,-1.012,0.294,0.26,5.005,-0.035,-6.65,
54733660,-0.963,0.287,0.277,3.465,-7.787,-0.35,
54733670,-0.921,0.303,0.299,3.64,-12.057,2.432,
54733680,-0.887,0.303,0.312,2.66,-13.02,1.365,
54733690,-0.878,0.294,0.317,2.17,-11.165,0.857,
54733700,-0.889,0.317,0.322,2.607,-9.467,-0.21,
54733710,-0.911,0.32,0.317,1.067,-8.627,-0.175,
54733720,-0.929,0.303,0.31,-0.455,-9.397,1.12,
54733730,-0.949,0.298,0.317,-1.732,-12.145,2.607,
54733740,-0.922,0.316,0.323,-3.64,-15.715,4.585,
54733750,-0.924,0.313,0.315,-5.022,-17.552,7.735,
54733760,-0.885,0.333,0.299,-6.982,-18.165,8.26,
54733770,-0.889,0.348,0.299,-9.975,-16.8,7.595,
54733780,-0.899,0.358,0.291,-14.717,-14.28,5.442,
54733790,-0.893,0.387,0.268,-22.277,-12.652,3.325,
54733800,-0.973,0.323,0.311,-30.922,-10.29,5.95,
54733810,-0.915,0.244,0.328,-31.482,-11.2,11.97,
54733820,-0.928,0.313,0.388,-25.2,-11.375,15.697,
54733830,-0.872,0.229,0.395,-26.967,-15.505,13.02,
54733830,-0.833,0.216,0.371,-15.505,-12.81,16.38,
54733850,-0.804,0.359,0.357,-9.205,-7.385,11.34,
54733850,-0.897,0.296,0.378,-14.437,-3.885,3.307,
54733870,-0.898,0.233,0.395,-10.885,-1.802,1.767,
54733870,-0.826,0.322,0.375,-2.117,0.525,1.032,
54733890,-0.829,0.361,0.338,-0.157,3.307,-3.465,
54733890,-0.884,0.311,0.322,-0.105,7.14,-6.755,
54733910,-0.914,0.314,0.329,3.482,8.907,-7.752,
54733910,-0.915,0.321,0.326,5.232,8.855,-9.905,
54733920,-0.921,0.295,0.336,7.787,7.507,-12.215,
54733930,-0.904,0.262,0.326,11.55,6.93,-13.37,
54733940,-0.909,0.276,0.318,15.592,5.285,-14.07,
54733950,-0.94,0.236,0.352,17.447,3.5,-13.142,
54733960,-0.913,0.183,0.381,23.187,1.295,-10.045,
54733970,-0.804,0.313,0.372,32.025,2.31,-5.827,
54733980,-0.866,0.334,0.351,27.44,6.055,-5.18,
54733990,-0.867,0.354,0.293,22.487,10.937,-4.882,
54734000,-0.945,0.365,0.284,13.125,14.21,-3.815,
54734010,-0.978,0.35,0.26,5.652,12.95,-2.45,
54734020,-0.956,0.33,0.259,0.875,7.717,-0.087,
54734030,-0.96,0.318,0.256,-1.592,2.712,2.467,
54734040,-0.959,0.311,0.274,-2.24,-3.727,3.045,
54734050,-0.932,0.296,0.299,-1.837,-7.385,2.467,
54734060,-0.903,0.307,0.311,-0.7,-8.452,0.927,
54734070,-0.902,0.301,0.315,-2.17,-8.662,-0.35,
54734080,-0.902,0.292,0.32,-2.695,-8.662,0.227,
54734090,-0.914,0.299,0.315,-2.537,-8.54,2.257,
54734100,-0.921,0.297,0.305,-3.29,-9.117,3.377,
54734110,-0.928,0.29,0.295,-3.832,-10.237,3.15,
54734120,-0.934,0.3,0.286,-3.762,-12.022,2.642,
54734130,-0.951,0.326,0.279,-5.547,-15.277,2.31,
54734140,-0.96,0.346,0.242,-9.922,-18.742,2.695,
54734150,-0.961,0.349,0.249,-17.132,-21.665,2.642,
54734160,-0.972,0.227,0.267,-23.17,-19.407,3.202,
54734170,-0.916,0.295,0.277,-16.012,-17.377,4.515,
54734180,-0.939,0.239,0.36,-19.232,-17.762,3.08,
54734190,-0.849,0.253,0.331,-11.217,-16.222,5.565,
54734200,-0.86,0.354,0.396,-10.115,-13.037,5.6,
54734210,-0.908,0.216,0.44,-16.047,-12.67,2.66,
54734220,-0.781,0.295,0.442,-2.835,-10.447,5.46,
54734230,-0.786,0.351,0.458,-4.095,-6.107,3.08,
54734240,-0.779,0.271,0.433,-1.715,-0.192,0.7,
54734250,-0.759,0.34,0.398,4.235,7.332,2.152,
54734260,-0.832,0.37,0.365,1.032,14.157,-1.207,
54734260,-0.896,0.317,0.343,0.35,17.885,-4.41,
54734280,-0.928,0.311,0.317,-0.087,19.162,-5.215,
54734280,-0.955,0.306,0.306,2.03,16.397,-5.285,
54734300,-0.973,0.297,0.303,2.712,11.655,-4.725,
54734300,-0.966,0.292,0.312,4.06,6.177,-2.835,
54734320,-0.937,0.288,0.317,5.425,2.415,-1.575,
54734320,-0.893,0.28,0.341,7.42,0.682,-0.84,
54734330,-0.877,0.207,0.38,10.972,2.502,-0.105,
54734340,-0.773,0.277,0.363,23.73,9.135,0.63,
54734350,-0.882,0.315,0.397,25.06,14.385,-4.532,
54734360,-0.863,0.293,0.338,24.902,15.137,-10.78,
54734370,-0.909,0.32,0.329,26.267,18.987,-10.272,
54734380,-0.959,0.304,0.283,23.03,17.832,-12.057,
54734390,-0.901,0.343,0.223,23.677,15.295,-10.377,
54734400,-1.001,0.369,0.23,15.47,14.49,-7.595,
54734410,-1.031,0.312,0.22,6.667,8.085,-1.487,
54734420,-0.99,0.339,0.251,1.557,-1.067,-2.257,
54734430,-0.975,0.274,0.277,-7.035,-6.545,-1.82,
54734440,-0.894,0.25,0.3,-7.262,-8.96,2.572,
54734450,-0.908,0.282,0.295,-7.507,-9.292,6.93,
54734460,-0.933,0.282,0.296,-7.332,-9.677,8.102,
54734470,-0.936,0.284,0.293,-6.387,-10.377,8.96,
54734480,-0.938,0.313,0.289,-6.02,-11.585,8.61,
54734490,-0.944,0.336,0.272,-7.612,-13.79,7.192,
54734500,-0.952,0.353,0.249,-11.48,-17.657,6.3,
54734510,-0.986,0.39,0.229,-18.935,-22.977,5.232,
54734520,-1.027,0.286,0.265,-29.575,-30.677,4.217,
54734530,-0.907,0.31,0.242,-26.477,-32.06,9.432,
54734540,-0.921,0.283,0.322,-26.932,-31.692,12.285,
54734550,-0.822,0.295,0.31,-22.907,-27.107,12.67,
54734560,-0.881,0.301,0.407,-22.05,-22.137,12.022,
54734570,-0.881,0.19,0.48,-22.26,-19.162,10.36,
54734580,-0.767,0.184,0.481,-7.122,-16.747,12.74,
54734580,-0.641,0.353,0.423,3.587,-6.195,10.465,
54734600,-0.791,0.346,0.395,-0.752,7.122,1.102,
54734600,-0.877,0.3,0.378,-2.52,14.91,-5.092,
54734620,-0.919,0.331,0.34,-2.607,19.075,-5.145,
54734620,-0.952,0.335,0.31,-1.277,17.692,-6.842,
54734640,-0.977,0.301,0.297,0.42,13.807,-6.125,
54734640,-0.957,0.304,0.299,2.257,8.155,-2.695,
54734660,-0.937,0.321,0.313,2.24,4.62,-1.365,
54734660,-0.924,0.308,0.323,1.225,2.45,-2.712,
54734670,-0.888,0.303,0.327,0.945,2.45,-2.975,
54734680,-0.886,0.295,0.338,0.752,2.887,-1.802,
54734690,-0.911,0.212,0.397,2.905,3.657,-0.945,
54734700,-0.791,0.297,0.371,16.695,6.527,3.22,
54734710,-0.823,0.348,0.36,19.53,9.03,2.555,
54734720,-0.896,0.265,0.336,16.625,11.532,-4.707,
54734730,-0.868,0.318,0.339,24.15,15.172,-7.227,
54734740,-0.959,0.291,0.313,22.277,14.875,-10.36,
54734750,-0.914,0.292,0.278,28.175,11.025,-9.642,
54734760,-0.918,0.342,0.254,27.072,9.38,-7.98,
54734770,-1.022,0.316,0.232,20.247,6.58,-8.627,
54734780,-0.968,0.333,0.198,14.56,2.782,-6.825,
54734790,-1.083,0.297,0.21,1.032,-1.662,-5.74,
54734800,-1.054,0.234,0.246,-4.042,-12.11,-3.692,
54734810,-0.951,0.263,0.273,-1.295,-19.74,7.245,
54734820,-0.933,0.27,0.293,-1.155,-26.005,13.772,
54734830,-0.921,0.273,0.316,-2.975,-28.595,14.315,
54734840,-0.917,0.281,0.319,-3.85,-29.172,16.38,
54734850,-0.883,0.341,0.294,-6.16,-28.175,15.54,
54734860,-0.847,0.42,0.22,-12.6,-24.465,12.757,
54734870,-0.927,0.4,0.231,-28.437,-18.095,7.91,
54734880,-0.994,0.266,0.281,-35.332,-14.7,6.352,
54734890,-0.874,0.317,0.304,-29.47,-14.262,10.447,
54734900,-0.89,0.287,0.329,-31.115,-12.512,10.657,
54734910,-0.883,0.336,0.386,-24.062,-9.747,7.42,
54734920,-0.934,0.2,0.495,-23.012,-12.635,5.18,
54734930,-0.821,0.222,0.534,-5.442,-15.347,9.712,
54734940,-0.651,0.378,0.452,3.605,-11.34,10.307,
54734950,-0.723,0.314,0.375,-1.68,0.227,3.167,
54734960,-0.814,0.269,0.362,-0.752,11.445,-4.165,
54734970,-0.887,0.324,0.343,1.977,17.867,-6.807,
54734980,-0.958,0.338,0.309,2.712,19.932,-8.277,
54734990,-0.979,0.317,0.29,3.15,16.415,-8.61,
54735000,-0.978,0.312,0.3,3.902,10.99,-5.057,
54735010,-0.943,0.32,0.319,3.902,5.46,-3.22,
54735010,-0.911,0.304,0.331,3.22,3.272,-4.287,
54735030,-0.89,0.27,0.345,4.06,3.167,-5.67,
54735030,-0.886,0.211,0.385,8.715,4.602,-4.987,
54735050,-0.815,0.258,0.351,19.477,5.057,-2.73,
54735050,-0.833,0.321,0.362,22.26,8.417,-5.18,
54735060,-0.894,0.282,0.336,22.96,10.202,-9.677,
54735070,-0.869,0.335,0.321,26.005,13.842,-10.535,
54735080,-0.983,0.321,0.302,21.28,15.137,-13.3,
54735090,-0.969,0.31,0.279,21.28,10.675,-12.95,
54735100,-0.885,0.36,0.232,18.287,8.19,-9.397,
54735110,-0.989,0.33,0.224,10.57,9.292,-9.712,
54735120,-0.999,0.309,0.244,6.51,6.457,-11.76,
54735130,-0.998,0.316,0.262,1.802,0.577,-9.695,
54735140,-0.975,0.279,0.266,-1.855,-5.407,-6.527,
54735150,-0.941,0.266,0.274,-1.505,-9.677,-3.692,
54735160,-0.931,0.277,0.289,-0.735,-13.615,-0.437,
54735170,-0.958,0.273,0.299,-2.117,-17.797,2.38,
54735180,-0.939,0.292,0.289,-3.587,-22.365,4.375,
54735190,-0.923,0.339,0.239,-7.665,-24.325,6.247,
54735200,-0.942,0.368,0.215,-18.007,-23.397,6.125,
54735210,-0.982,0.264,0.211,-29.662,-20.072,5.442,
54735220,-1.001,0.295,0.247,-30.712,-19.617,5.81,
54735230,-0.936,0.276,0.297,-30.572,-21.437,7.105,
54735240,-0.934,0.287,0.368,-25.69,-21.7,10.412,
54735250,-0.845,0.258,0.448,-21.647,-23.957,10.22,
54735260,-0.79,0.259,0.499,-12.022,-21.822,12.057,
54735270,-0.745,0.288,0.497,-5.512,-17.15,9.87,
54735280,-0.693,0.282,0.436,-0.332,-7.84,5.11,
54735290,-0.76,0.319,0.37,1.557,2.94,0.647,
54735300,-0.866,0.289,0.331,0.665,10.605,-3.657,
54735310,-0.944,0.29,0.309,5.547,14.07,-3.762,
54735320,-1.003,0.321,0.294,9.257,13.37,-2.852,
54735330,-1.031,0.316,0.285,9.555,7.56,-2.24,
54735330,-1.031,0.236,0.344,10.255,-0.35,0.927,
54735350,-0.977,0.168,0.359,20.44,-11.182,7.437,
54735350,-0.728,0.36,0.335,34.37,-16.397,11.515,
54735370,-0.805,0.335,0.334,27.842,-9.94,6.387,
54735370,-0.821,0.297,0.318,27.09,-2.66,-0.227,
54735390,-0.88,0.361,0.33,23.24,3.867,-3.71,
54735390,-0.947,0.338,0.33,17.867,6.545,-6.912,
54735410,-0.95,0.331,0.325,16.712,4.62,-8.015,
54735410,-0.925,0.348,0.289,13.615,2.345,-6.562,
54735420,-0.958,0.347,0.263,7.227,0.472,-4.97,
54735430,-1.001,0.291,0.26,-1.557,-3.08,-3.867,
54735440,-0.996,0.241,0.275,-5.005,-9.59,0.472,
54735450,-0.947,0.26,0.28,-4.882,-15.627,4.952,
54735460,-0.916,0.277,0.297,-4.602,-19.932,7.367,
54735470,-0.928,0.281,0.322,-5.915,-21.367,8.732,
54735480,-0.914,0.31,0.321,-6.825,-23.152,9.292,
54735490,-0.881,0.355,0.286,-10.307,-22.137,7.875,
54735500,-0.849,0.399,0.223,-18.48,-17.36,3.832,
54735510,-0.972,0.353,0.275,-31.955,-12.722,1.137,
54735520,-0.955,0.264,0.312,-35.052,-14.052,5.932,
54735530,-0.878,0.384,0.335,-30.747,-13.492,13.632,
54735540,-0.95,0.247,0.429,-37.047,-14.98,13.107,
54735550,-0.853,0.227,0.484,-21.525,-17.29,18.095,
54735560,-0.763,0.307,0.482,-11.742,-19.302,20.702,
54735570,-0.699,0.294,0.462,-6.492,-14.805,19.845,
54735580,-0.66,0.285,0.456,-1.68,-5.845,18.445,
54735590,-0.632,0.299,0.423,2.292,6.212,14.647,
54735600,-0.73,0.297,0.381,5.337,22.417,7.927,
54735610,-0.908,0.309,0.347,8.26,34.93,-3.272,
54735620,-1.119,0.312,0.389,11.602,35.42,-10.657,
54735630,-1.131,0.231,0.399,17.902,18.917,-6.02,
54735640,-0.909,0.374,0.332,31.027,2.957,6.352,
54735650,-0.811,0.395,0.261,27.86,0.56,8.417,
54735660,-0.926,0.288,0.245,21.262,5.145,1.592,
54735670,-0.929,0.299,0.273,19.932,7.7,-2.152,
54735680,-0.994,0.363,0.279,15.137,7.525,-2.31,
54735690,-0.966,0.357,0.269,9.275,0.7,-2.555,
54735700,-0.949,0.383,0.273,2.87,-2.975,2.065,
54735710,-0.995,0.32,0.312,-4.795,-9.362,5.565,
54735720,-0.914,0.296,0.334,-4.147,-14.84,10.027,
54735730,-0.844,0.344,0.336,-3.937,-15.89,11.27,
54735730,-0.851,0.336,0.341,-5.197,-14.98,8.505,
54735750,-0.846,0.278,0.337,-6.16,-12.74,7.052,
54735750,-0.882,0.32,0.343,-3.185,-9.712,4.287,
54735760,-0.902,0.338,0.344,-2.24,-9.082,1.295,
54735770,-0.873,0.355,0.282,-4.305,-8.277,0.262,
54735780,-0.903,0.472,0.228,-11.882,-2.817,-1.435,
54735790,-1.118,0.279,0.295,-28.857,-4.042,-4.55,
54735800,-0.952,0.24,0.312,-22.102,-13.335,4.392,
54735810,-0.881,0.373,0.322,-19.092,-17.675,12.46,
54735820,-0.887,0.251,0.341,-21.98,-19.88,11.06,
54735830,-0.844,0.263,0.366,-12.355,-18.357,13.422,
54735840,-0.88,0.348,0.407,-9.275,-17.307,11.637,
54735850,-0.84,0.318,0.407,-7.507,-16.747,8.907,
54735860,-0.789,0.35,0.398,-5.04,-12.845,7.595,
54735870,-0.845,0.321,0.428,-5.442,-8.19,4.322,
54735880,-0.805,0.323,0.43,-0.157,-6.352,3.482,
54735890,-0.767,0.355,0.391,0.717,-2.222,3.22,
54735900,-0.822,0.331,0.366,-0.245,3.85,-0.192,
54735910,-0.854,0.334,0.369,0.192,7.647,-2.782,
54735920,-0.859,0.356,0.373,-0.105,8.925,-1.575,
54735930,-0.872,0.353,0.381,-0.262,10.465,-1.627,
54735940,-0.875,0.331,0.377,0.332,11.007,-2.87,
54735950,-0.87,0.323,0.364,1.505,11.76,-2.905,
54735960,-0.887,0.313,0.358,3.622,12.967,-3.692,
54735970,-0.947,0.231,0.418,8.26,10.675,-3.867,
54735980,-0.854,0.246,0.417,23.24,5.495,0.84,
54735990,-0.77,0.355,0.365,35.21,3.08,2.345,
54736000,-0.778,0.375,0.314,35.595,11.392,-3.99,
54736010,-0.954,0.322,0.284,32.007,18.34,-13.545,
54736020,-0.949,0.37,0.264,31.535,21.35,-17.972,
54736030,-1.049,0.355,0.238,23.345,18.2,-17.902,
54736040,-1.009,0.349,0.198,17.272,8.872,-13.317,
54736050,-1.063,0.378,0.207,7.262,-0.455,-5.18,
54736060,-1.07,0.293,0.258,-1.4,-12.355,1.487,
54736070,-0.959,0.283,0.298,0.017,-22.12,9.835,
54736080,-0.883,0.334,0.328,0.875,-26.372,12.652,
54736080,-0.868,0.328,0.354,-1.225,-27.615,10.78,
54736100,-0.87,0.309,0.357,-3.465,-27.002,10.622,
54736100,-0.852,0.349,0.32,-4.147,-26.25,10.92,
54736120,-0.843,0.428,0.237,-10.657,-22.645,9.432,
54736120,-0.995,0.413,0.259,-27.142,-18.042,4.777,
54736140,-1.05,0.268,0.306,-36.312,-20.125,4.322,
54736140,-0.92,0.353,0.296,-30.257,-25.025,12.512,
54736160,-0.927,0.304,0.355,-33.967,-30.047,15.242,
54736160,-0.741,0.255,0.325,-24.097,-29.837,18.76,
54736170,-0.849,0.335,0.439,-16.957,-23.467,19.757,
54736180,-0.826,0.354,0.525,-13.685,-25.27,15.767,
54736190,-0.697,0.399,0.495,-11.602,-23.327,18.865,
54736200,-0.667,0.329,0.442,-19.652,-14.402,17.815,
54736210,-0.753,0.32,0.462,-15.942,-1.767,11.06,
54736220,-0.785,0.347,0.443,-7.682,5.88,5.775,
54736230,-0.836,0.339,0.411,-5.652,9.572,2.922,
54736240,-0.87,0.342,0.356,-0.577,9.992,1.68,
54736250,-0.954,0.353,0.327,1.68,8.137,1.767,
54736260,-0.988,0.342,0.339,3.255,1.715,4.095,
54736270,-0.942,0.36,0.353,4.515,-4.55,8.575,
54736280,-0.9,0.341,0.353,3.202,-9.607,10.797,
54736290,-0.859,0.335,0.371,4.27,-11.427,11.41,
54736300,-0.903,0.293,0.453,5.757,-12.197,10.78,
54736310,-0.764,0.294,0.454,15.68,-13.44,11.55,
54736320,-0.686,0.385,0.417,23.222,-9.292,10.867,
54736330,-0.749,0.388,0.404,20.615,1.645,0.542,
54736340,-0.841,0.375,0.373,19.197,12.18,-8.592,
54736350,-0.905,0.372,0.331,13.562,15.715,-11.725,
54736360,-0.938,0.382,0.282,8.032,14.962,-9.765,
54736370,-1.022,0.364,0.257,0.822,9.765,-6.475,
54736380,-1.063,0.338,0.286,-4.427,-0.875,0.332,
54736390,-0.983,0.316,0.319,-5.757,-13.3,8.47,
54736400,-0.89,0.347,0.343,-3.657,-20.597,12.565,
54736410,-0.854,0.352,0.368,-4.602,-23.31,11.375,
54736420,-0.851,0.339,0.393,-5.6,-22.872,9.73,
54736420,-0.85,0.351,0.391,-6.317,-22.207,8.89,
54736440,-0.78,0.414,0.314,-7.752,-18.55,8.54,
54736440,-0.891,0.444,0.305,-18.55,-11.06,5.232,
54736460,-1.009,0.349,0.308,-30.362,-9.03,4.165,
54736460,-0.965,0.358,0.351,-32.165,-15.225,14,
54736480,-0.906,0.38,0.348,-37.87,-23.1,26.67,
54736480,-0.857,0.383,0.394,-40.32,-26.092,34.702,
54736500,-0.793,0.334,0.386,-42.49,-23.415,34.405,
54736500,-0.797,0.344,0.424,-38.307,-17.185,25.882,
54736510,-0.809,0.345,0.498,-34.58,-15.487,16.87,
54736520,-0.758,0.267,0.574,-26.022,-18.042,12.705,
54736530,-0.657,0.324,0.544,-5.267,-14.052,14.105,
54736540,-0.621,0.414,0.472,5.967,-6.37,9.415,
54736550,-0.716,0.392,0.453,4.48,5.495,-2.485,
54736560,-0.825,0.356,0.483,4.147,13.702,-10.657,
54736570,-0.793,0.375,0.416,7.98,19.267,-9.66,
54736580,-0.823,0.378,0.374,6.16,21.21,-10.465,
54736590,-0.968,0.316,0.426,6.702,18.602,-13.107,
54736600,-0.923,0.243,0.461,14.945,8.067,-8.645,
54736610,-0.774,0.359,0.432,29.925,1.837,0.42,
54736620,-0.73,0.426,0.401,30.59,2.03,-3.36,
54736630,-0.85,0.396,0.389,26.512,9.24,-11.532,
54736640,-0.911,0.354,0.397,22.365,10.15,-14.157,
54736650,-0.878,0.349,0.39,22.137,6.352,-9.362,
54736660,-0.815,0.381,0.367,23.485,5.075,-7.087,
54736670,-0.867,0.374,0.361,21.7,6.37,-9.957,
54736680,-0.881,0.376,0.358,19.827,6.527,-11.042,
54736690,-0.893,0.388,0.342,15.47,7.245,-9.205,
54736700,-0.908,0.371,0.324,9.887,7.07,-7.105,
54736710,-0.911,0.372,0.318,5.722,5.145,-4.305,
54736720,-0.927,0.39,0.317,1.295,2.502,-2.047,
54736730,-0.957,0.353,0.337,-3.167,-2.94,-0.56,
54736740,-0.914,0.343,0.354,-3.062,-9.17,2.502,
54736750,-0.866,0.371,0.363,-1.89,-13.02,4.497,
54736760,-0.858,0.37,0.375,-2.625,-14.595,4.305,
54736770,-0.86,0.356,0.38,-3.5,-15.365,4.025,
54736780,-0.849,0.369,0.361,-3.832,-15.277,4.235,
54736790,-0.844,0.411,0.319,-6.965,-13.09,3.5,
54736800,-0.951,0.39,0.312,-15.75,-11.165,1.067,
54736810,-0.984,0.339,0.314,-21.07,-15.19,1.382,
54736820,-0.942,0.365,0.33,-22.697,-20.58,6.3,
54736830,-0.908,0.373,0.343,-25.445,-25.567,9.572,
54736830,-0.862,0.376,0.374,-27.072,-28.385,11.112,
54736850,-0.804,0.349,0.383,-29.452,-29.312,11.375,
54736850,-0.543,0.179,0.283,-20.615,-15.417,14.927,
54736870,-0.929,0.493,0.447,-9.852,-0.665,5.547,
54736870,-0.88,0.493,0.52,-16.8,-5.845,-8.347,
54736890,-0.841,0.245,0.503,-23.03,-11.165,2.975,
54736890,-0.746,0.314,0.524,-10.552,-9.992,13.142,
54736910,-0.796,0.422,0.622,-2.047,-12.687,9.485,
54736910,-0.664,0.293,0.553,-4.445,-11.952,6.265,
54736920,-0.637,0.31,0.483,1.33,0.087,7.21,
54736930,-0.717,0.404,0.446,0.175,11.042,-2.432,
54736940,-0.819,0.376,0.434,-2.257,19.775,-7.297,
54736950,-0.873,0.363,0.41,-0.017,22.785,-8.19,
54736960,-0.922,0.339,0.483,4.41,19.442,-8.662,
54736970,-0.875,0.269,0.471,15.925,14.7,-3.71,
54736980,-0.768,0.371,0.44,31.692,8.837,-0.805,
54736990,-0.712,0.387,0.394,32.742,8.767,-6.877,
54737000,-0.799,0.372,0.373,33.46,14.7,-14.175,
54737010,-0.894,0.365,0.379,30.852,17.535,-18.777,
54737020,-0.939,0.361,0.354,29.785,15.802,-17.85,
54737030,-0.945,0.36,0.324,29.347,11.987,-16.31,
54737040,-0.934,0.346,0.306,28.962,7.402,-14.7,
54737050,-0.948,0.345,0.294,28.98,4.2,-11.83,
54737060,-0.905,0.381,0.283,27.037,1.417,-10.64,
54737070,-0.933,0.408,0.282,18.987,1.837,-10.325,
54737080,-0.994,0.38,0.295,7.455,-1.732,-9.922,
54737090,-0.972,0.348,0.327,-0.052,-9.012,-4.007,
54737100,-0.911,0.34,0.356,-2.747,-15.452,4.13,
54737110,-0.857,0.351,0.381,-1.627,-19.267,9.555,
54737120,-0.826,0.352,0.391,-2.73,-20.457,11.182,
54737130,-0.819,0.357,0.394,-4.217,-19.232,10.57,
54737140,-0.817,0.379,0.353,-6.37,-17.08,9.625,
54737150,-0.843,0.43,0.316,-12.67,-13.23,7.455,
54737160,-0.93,0.386,0.309,-22.82,-10.255,3.167,
54737170,-0.958,0.379,0.319,-26.495,-11.48,2.1,
54737170,-0.922,0.404,0.343,-31.64,-14.962,4.882,
54737190,-0.876,0.383,0.343,-37.205,-18.795,9.065,
54737190,-0.834,0.366,0.366,-40.005,-19.127,10.885,
54737210,-0.738,0.286,0.36,-39.585,-16.782,9.817,
54737210,-0.807,0.318,0.452,-31.272,-5.932,8.417,
54737230,-0.827,0.371,0.51,-25.62,-4.217,1.47,
54737230,-0.792,0.357,0.508,-22.68,-1.907,0.84,
54737250,-0.885,0.256,0.598,-20.037,-4.025,3.57,
54737250,-0.735,0.28,0.599,-3.482,-9.555,9.117,
54737260,-0.562,0.458,0.501,7,-5.127,10.675,
54737270,-0.683,0.377,0.442,-3.22,6.772,-0.192,
54737280,-0.805,0.309,0.437,-2.397,16.887,-10.465,
54737290,-0.863,0.362,0.387,0.28,21.262,-14.122,
54737300,-0.919,0.354,0.408,3.762,21.035,-15.05,
54737310,-1.028,0.225,0.464,11.742,15.172,-10.85,
54737320,-0.92,0.324,0.463,31.412,3.097,-0.822,
54737330,-0.747,0.405,0.421,33.075,-7.56,0.245,
54737340,-0.743,0.346,0.368,30.362,-3.377,-3.5,
54737350,-0.763,0.317,0.358,29.067,7.63,-10.185,
