#Format version: 1.0
time[ms],accX[g],accY[g],accZ[g],Value 1,Value 2,Value 3,
42962290,0.059,-0.175,0.976,0.542,-3.342,-0.752,
42962300,0.057,-0.175,0.978,0.595,-3.342,-0.735,
42962310,0.059,-0.175,0.977,0.577,-3.36,-0.647,
42962320,0.059,-0.177,0.976,0.577,-3.307,-0.56,
42962330,0.058,-0.178,0.977,0.63,-3.272,-0.56,
42962340,0.06,-0.178,0.977,0.682,-3.237,-0.665,
42962350,0.058,-0.176,0.977,0.647,-3.167,-0.682,
42962360,0.059,-0.177,0.977,0.595,-3.237,-0.735,
42962370,0.06,-0.177,0.977,0.595,-3.237,-0.7,
42962380,0.058,-0.176,0.978,0.665,-3.29,-0.665,
42962390,0.061,-0.175,0.977,0.612,-3.377,-0.665,
42962400,0.059,-0.176,0.978,0.437,-3.482,-0.647,
42962410,0.058,-0.178,0.978,0.175,-3.57,-0.717,
42962420,0.063,-0.18,0.975,-0.017,-3.692,-0.822,
42962420,0.064,-0.179,0.977,0.052,-3.552,-0.927,
42962440,0.054,-0.173,0.978,-0.087,-3.517,-0.98,
42962440,0.061,-0.177,0.976,-0.332,-3.64,-1.085,
42962460,0.062,-0.177,0.975,-0.227,-3.412,-0.962,
42962460,0.053,-0.175,0.978,0.087,-3.325,-0.822,
42962480,0.057,-0.177,0.977,-0.087,-3.395,-1.102,
42962480,0.053,-0.18,0.978,0.245,-3.535,-0.91,
42962500,0.054,-0.177,0.979,0.665,-3.71,-0.682,
42962500,0.058,-0.178,0.978,0.507,-3.832,-0.735,
42962510,0.058,-0.18,0.977,0.595,-3.902,-0.787,
42962520,0.056,-0.178,0.978,0.595,-4.077,-0.875,
42962530,0.057,-0.179,0.978,0.63,-4.287,-0.91,
42962540,0.054,-0.177,0.98,0.437,-4.55,-0.997,
42962550,0.056,-0.182,0.979,0.472,-5.022,-0.962,
42962560,0.062,-0.171,0.976,0.455,-5.267,-0.84,
42962570,0.058,-0.183,0.979,0.07,-5.53,-1.032,
42962580,0.065,-0.174,0.975,0.315,-5.635,-0.962,
42962590,0.064,-0.183,0.976,0.122,-5.705,-0.962,
42962600,0.068,-0.177,0.976,0.385,-5.53,-0.91,
42962610,0.067,-0.182,0.975,0.332,-5.372,-0.962,
42962620,0.072,-0.178,0.974,0.577,-5.145,-0.857,
42962630,0.072,-0.181,0.975,0.665,-4.777,-0.875,
42962640,0.069,-0.179,0.975,0.84,-4.392,-0.822,
42962650,0.07,-0.179,0.973,0.98,-4.2,-0.787,
42962660,0.07,-0.178,0.973,1.032,-3.937,-0.735,
42962670,0.069,-0.178,0.973,1.137,-3.71,-0.7,
42962680,0.07,-0.176,0.973,1.225,-3.5,-0.595,
42962690,0.065,-0.18,0.974,1.242,-3.377,-0.577,
42962700,0.069,-0.177,0.974,1.26,-3.36,-0.56,
42962710,0.068,-0.179,0.973,1.33,-3.237,-0.542,
42962720,0.069,-0.178,0.974,1.347,-3.15,-0.49,
42962730,0.072,-0.177,0.971,1.435,-3.027,-0.455,
42962740,0.071,-0.177,0.972,1.487,-2.817,-0.367,
42962750,0.069,-0.179,0.973,1.487,-2.52,-0.35,
42962760,0.069,-0.179,0.974,1.54,-2.45,-0.35,
42962760,0.067,-0.179,0.974,1.505,-2.415,-0.35,
42962780,0.068,-0.178,0.973,1.522,-2.397,-0.367,
42962780,0.068,-0.178,0.974,1.522,-2.327,-0.35,
42962800,0.068,-0.178,0.974,1.487,-2.292,-0.455,
42962800,0.065,-0.178,0.976,1.435,-2.31,-0.437,
42962820,0.067,-0.178,0.974,1.417,-2.292,-0.367,
42962820,0.067,-0.177,0.975,1.382,-2.31,-0.385,
42962830,0.065,-0.179,0.976,1.295,-2.31,-0.385,
42962840,0.068,-0.178,0.976,1.242,-2.345,-0.472,
42962850,0.068,-0.177,0.973,1.155,-2.345,-0.507,
42962860,0.069,-0.178,0.974,1.172,-2.24,-0.455,
42962870,0.067,-0.177,0.974,1.137,-2.1,-0.437,
42962880,0.066,-0.176,0.976,1.05,-2.082,-0.332,
42962890,0.066,-0.178,0.976,0.91,-2.1,-0.385,
42962900,0.067,-0.177,0.975,0.822,-2.117,-0.402,
42962910,0.067,-0.178,0.975,0.717,-2.135,-0.385,
42962920,0.067,-0.177,0.975,0.665,-2.1,-0.402,
42962930,0.066,-0.176,0.975,0.542,-2.065,-0.35,
42962940,0.065,-0.178,0.977,0.402,-2.082,-0.262,
42962950,0.065,-0.179,0.977,0.192,-2.222,-0.35,
42962960,0.064,-0.18,0.979,0.07,-2.275,-0.42,
42962970,0.063,-0.18,0.98,-0.035,-2.327,-0.507,
42962980,0.061,-0.18,0.98,-0.245,-2.45,-0.717,
42962990,0.061,-0.191,0.982,-0.35,-2.555,-0.857,
42963000,0.056,-0.178,0.98,-0.035,-2.765,-0.77,
42963010,0.057,-0.182,0.969,-0.087,-2.957,-0.997,
42963020,0.079,-0.16,0.955,0.472,-2.992,-0.822,
42963030,0.07,-0.17,0.959,0.595,-2.712,-0.507,
42963040,0.047,-0.172,0.972,0.945,-2.87,-0.14,
42963050,0.051,-0.176,0.969,0.91,-3.692,-0.105,
42963060,0.037,-0.146,0.975,-0.105,-4.865,-0.245,
42963070,0.038,-0.157,0.986,-2.257,-6.265,-0.035,
42963080,0.016,-0.164,0.988,-3.972,-7.805,0.402,
42963090,0.017,-0.169,0.991,-5.267,-10.167,0.35,
42963100,0.055,-0.171,0.981,-6.65,-12.39,0.437,
42963110,0.068,-0.182,0.974,-8.312,-13.405,0.21,
42963120,0.086,-0.204,0.971,-8.767,-13.65,-0.017,
42963130,0.122,-0.207,0.961,-7.612,-12.6,-0.087,
42963140,0.13,-0.208,0.957,-6.387,-10.08,-0.262,
42963150,0.129,-0.206,0.962,-4.812,-6.982,-0.035,
42963160,0.123,-0.204,0.959,-3.342,-3.955,0.367,
42963170,0.114,-0.197,0.962,-1.89,-1.487,0.98,
42963170,0.096,-0.203,0.969,-0.647,0.542,1.277,
42963190,0.078,-0.185,0.972,0.245,1.627,1.452,
42963190,0.065,-0.191,0.977,0.087,1.575,1.47,
42963210,0.06,-0.189,0.98,-0.28,0.892,1.295,
42963210,0.047,-0.188,0.982,-1.277,-0.227,0.7,
42963230,0.063,-0.194,0.976,-2.117,-1.575,0.07,
42963230,0.065,-0.198,0.977,-2.485,-2.327,-0.49,
42963240,0.064,-0.194,0.976,-2.432,-2.957,-0.7,
42963250,0.082,-0.199,0.972,-2.362,-3.22,-0.98,
42963260,0.078,-0.195,0.972,-1.907,-2.975,-0.945,
42963270,0.091,-0.202,0.969,-1.382,-2.537,-0.98,
42963280,0.087,-0.204,0.969,-0.35,-1.4,-0.787,
42963290,0.097,-0.208,0.968,1.347,0.017,-0.665,
42963300,0.085,-0.202,0.967,3.29,1.575,-0.49,
42963310,0.065,-0.189,0.969,4.375,2.257,-0.105,
42963320,0.083,-0.194,0.963,4.392,2.345,0.035,
42963330,0.063,-0.183,0.964,4.41,2.52,0.227,
42963340,0.064,-0.191,0.965,4.2,2.012,0.192,
42963350,0.083,-0.19,0.955,4.375,1.54,0.087,
42963360,0.067,-0.184,0.965,4.935,1.61,0.35,
42963370,0.07,-0.187,0.972,5.075,1.4,0.525,
42963380,0.073,-0.18,0.971,4.55,1.12,0.35,
42963390,0.053,-0.196,0.996,3.482,0.997,0.105,
42963400,0.032,-0.175,1.012,1.365,-0.385,0.122,
42963410,0.026,-0.185,1.036,-3.22,-3.01,-0.612,
42963420,0.003,-0.149,1.055,-9.38,-7.402,-1.05,
42963430,0.02,-0.102,1.051,-18.235,-14.21,-0.91,
42963440,0.015,-0.05,1.073,-28.192,-22.015,0.262,
42963450,0.046,-0.023,1.112,-39.952,-30.642,1.82,
42963460,0.134,-0.001,1.15,-54.442,-38.132,3.71,
42963470,0.244,-0.048,1.183,-72.537,-40.057,6.335,
42963480,0.316,-0.083,1.217,-90.562,-34.895,9.607,
42963490,0.346,-0.192,1.238,-107.24,-22.627,12.635,
42963500,0.258,-0.452,1.046,-115.36,-5.775,14.157,
42963510,0.233,-0.325,1.088,-120.522,31.097,8.995,
42963510,0.152,-0.515,0.874,-120.627,30.012,9.345,
42963530,0.175,-0.513,0.887,-98.332,45.5,7.105,
42963530,-0.053,-0.462,0.77,-71.68,48.195,2.257,
42963550,-0.163,-0.379,0.777,-50.487,37.38,-1.12,
42963550,-0.192,-0.33,0.719,-34.632,22.592,2.24,
42963570,-0.09,-0.411,0.715,-17.22,8.627,5.88,
42963570,0.288,-0.334,0.604,6.002,-0.42,4.602,
42963580,0.196,-0.231,0.546,15.33,-1.26,9.642,
42963590,0.141,-0.14,0.537,16.537,-12.495,7.752,
42963600,0.098,-0.396,0.633,10.307,-15.925,8.942,
42963610,0.166,-0.487,0.746,14.857,-18.357,6.93,
42963620,0.141,-0.562,0.864,21.297,-19.862,4.305,
42963630,0.206,-0.752,1.018,26.337,-21.542,-1.032,
42963640,0.24,-0.996,1.224,34.79,-28.035,-9.082,
42963650,0.331,-1.138,1.248,51.94,-37.082,-18.952,
42963660,0.427,-1.028,1.038,67.025,-41.44,-23.065,
42963670,0.337,-0.827,0.806,63.665,-38.692,-17.465,
42963680,0.135,-0.796,0.696,34.912,-41.422,-8.312,
42963690,0.014,-0.83,0.683,-1.085,-57.662,-2.03,
42963700,0.088,-0.89,0.656,-31.22,-78.592,-0.84,
42963710,0.121,-0.837,0.626,-52.762,-90.072,-2.345,
42963720,0,-0.835,0.717,-73.867,-97.282,-9.362,
42963730,-0.038,-1.013,0.815,-84.7,-110.372,-23.887,
42963740,0.084,-0.819,0.733,-78.382,-125.79,-44.1,
42963750,0.103,-0.675,0.711,-84.787,-131.985,-61.46,
42963760,0.241,-0.898,0.842,-96.565,-133.49,-77.245,
42963770,0.369,-0.819,0.79,-93.117,-119.875,-85.452,
42963780,0.161,-0.515,0.709,-88.2,-95.742,-84.052,
42963790,0.054,-0.298,0.772,-91.017,-68.565,-78.26,
42963800,-1.338,1.472,1.944,-88.55,0.455,-88.987,
42963810,-1.009,0.656,1.038,-108.657,2.695,-132.527,
42963820,-0.44,-1.24,1.624,-67.322,42.262,-55.685,
42963830,-0.665,1.351,0.974,-1.925,28.227,-27.702,
42963840,0.192,0.07,0.921,12.18,80.675,19.635,
42963850,0.759,-0.939,0.866,32.06,108.045,27.825,
42963860,0.638,0.062,0.622,71.295,122.395,40.232,
42963870,0.458,-0.178,0.774,71.61,125.51,59.78,
42963880,0.532,-0.396,0.84,78.242,109.025,73.937,
42963890,0.412,-0.132,0.74,89.232,87.78,101.482,
42963900,0.393,-0.212,0.716,83.212,58.992,116.252,
42963910,0.556,-0.349,0.755,69.002,22.662,117.722,
42963910,0.959,-0.436,0.962,54.18,-6.422,100.485,
42963920,0.378,-0.312,1.139,45.937,-24.78,78.767,
42963930,-0.562,0.081,1.179,47.442,-41.51,59.622,
42963940,0.357,-0.274,1.122,63.017,-24.535,44.887,
42963950,0.109,-0.056,1.093,83.93,-13.685,45.377,
42963960,0.249,0.097,0.944,87.202,-24.78,24.132,
42963970,0.504,-0.075,0.784,84.647,-22.557,5.827,
42963980,0.296,-0.384,0.987,62.247,-11.392,-0.122,
42963990,0.24,-0.536,1.014,58.87,-4.532,-4.707,
42964000,0.419,-0.314,0.903,67.69,3.465,-6.125,
42964010,0.489,-0.341,0.846,68.635,23.555,-7.122,
42964020,0.451,-0.346,0.896,73.395,43.942,-10.535,
42964030,0.31,-0.284,1.127,85.172,60.9,-10.29,
42964040,0.152,-0.19,1.182,80.29,65.59,-10.867,
42964050,0.073,-0.011,1.122,61.74,63.315,-11.025,
42964060,-0.034,-0.068,1.108,42.367,54.215,-8.662,
42964070,0.039,-0.126,1.041,28.997,43.12,-6.475,
42964080,0.018,-0.136,0.996,20.685,36.242,-4.882,
42964090,0.083,-0.169,1.003,18.34,32.532,-2.257,
42964100,-0.036,-0.086,1.012,17.692,29.75,0.665,
42964110,-0.089,-0.112,1.028,14.402,22.715,4.252,
42964120,-0.059,-0.117,1.02,9.047,12.74,5.827,
42964130,-0.004,-0.158,1.001,3.132,4.357,6.002,
42964140,0.076,-0.18,0.981,0.42,-0.297,6.58,
42964150,0.084,-0.195,0.981,0.35,-1.19,8.102,
42964160,0.082,-0.225,0.974,0.455,-1.732,8.47,
42964170,0.109,-0.232,0.967,2.502,-0.017,8.715,
42964180,0.033,-0.2,0.986,4.322,1.382,8.802,
42964190,0.016,-0.197,0.995,3.027,0.227,7.875,
42964200,0.03,-0.19,1,-1.435,-2.31,5.617,
42964210,0.033,-0.171,1.001,-6.09,-4.62,4.13,
42964220,0.038,-0.182,1.009,-11.655,-6.65,2.327,
42964230,0.024,-0.13,1.035,-18.235,-8.75,0.84,
42964240,-0.01,-0.135,1.062,-28.7,-12.127,-0.787,
42964250,-0.032,-0.12,1.089,-41.265,-17.517,-2.887,
42964260,-0.029,-0.133,1.119,-56.332,-24.447,-5.057,
42964260,-0.116,-0.174,1.205,-69.895,-32.882,-7.56,
42964280,-0.405,0.014,1.382,-73.745,-48.212,-15.627,
42964280,-0.198,-0.161,1.262,-94.237,-78.487,-24.272,
42964300,-0.291,-0.096,1.256,-110.442,-107.345,-34.055,
42964300,-0.182,-0.216,1.175,-131.022,-128.992,-41.545,
42964320,0.07,-0.437,1.036,-139.79,-134.505,-47.46,
42964320,0.121,-0.603,1.03,-122.01,-132.982,-57.4,
42964330,0.527,-0.37,0.754,-77.035,-129.412,-57.155,
42964340,0.314,-0.514,0.694,-58.03,-98.49,-35.525,
42964350,0.477,-0.422,0.443,-31.36,-61.005,-3.675,
42964360,0.291,-0.742,0.947,-14.717,-3.342,43.207,
42964370,-0.298,-1.121,0.68,63.28,76.755,135.695,
42964380,-1.989,0.399,0.952,141.085,139.072,280.962,
42964390,-0.17,-0.247,-0.412,235.305,114.817,381.675,
42964400,1.948,0.38,-1.565,204.977,78.505,382.2,
42964410,1.794,-0.369,-0.699,78.54,8.855,251.387,
42964420,1.998,-1.996,1.148,40.18,13.842,55.72,
42964430,-0.716,-1.094,0.377,159.215,113.715,-45.255,
42964440,0.279,-0.952,1.941,282.1,68.075,-0.735,
42964450,0.917,1.291,1.972,307.65,152.162,3.447,
42964460,-1.925,1.598,1.182,102.637,114.502,-6.405,
42964470,0.867,-0.458,1.05,-0.35,-19.932,23.222,
42964480,-0.566,-0.113,0.992,-26.18,-45.482,15.697,
42964490,0.691,-0.472,0.896,-23.607,-48.195,17.22,
42964500,-0.119,-0.284,0.987,-16.292,-31.815,10.342,
42964510,0.216,-0.155,1.004,-12.355,-26.775,5.547,
42964520,0.147,-0.189,0.963,-14.945,-22.907,7.577,
42964530,0.207,-0.353,0.954,-8.435,-14.91,8.89,
42964540,0.119,-0.183,0.971,-1.505,-5.442,7.087,
42964550,0.195,-0.243,0.945,2.957,0.822,7.49,
42964560,0.131,-0.182,0.961,7.245,7.42,7.717,
42964570,0.099,-0.174,0.982,9.765,12.337,8.855,
42964580,0.03,-0.184,0.98,9.695,14.612,9.31,
42964580,-0.098,-0.156,0.996,8.942,13.51,7.7,
42964600,-0.158,-0.103,1.016,4.322,7.665,4.585,
42964600,-0.082,-0.111,1.01,-3.727,-0.962,2.117,
42964620,-0.078,-0.126,1.008,-9.642,-7.892,2.047,
42964620,-0.041,-0.141,0.996,-14.472,-13.09,2.45,
42964640,-0.023,-0.158,0.985,-18.13,-16.537,2.1,
42964640,0.016,-0.182,0.985,-20.02,-18.97,0.927,
42964660,0.076,-0.197,0.98,-21.315,-19.757,-0.21,
42964660,0.091,-0.173,0.982,-20.79,-18.077,0.542,
42964670,0.073,-0.203,0.981,-20.195,-15.907,1.855,
42964680,0.072,-0.202,0.99,-20.335,-14.087,1.96,
42964690,0.079,-0.163,1.021,-23.082,-12.075,1.26,
42964700,0.057,-0.152,1.043,-30.397,-11.41,0.63,
42964710,0.089,-0.139,1.074,-40.302,-11.672,0.717,
42964720,0.069,-0.132,1.108,-52.657,-11.707,1.085,
42964730,0.024,-0.087,1.198,-67.13,-14.665,2.047,
42964740,0.079,-0.012,1.222,-86.24,-22.242,5.232,
42964750,0.042,-0.226,1.228,-111.3,-28.017,8.522,
42964760,0.004,-0.128,1.213,-130.042,-38.57,12.11,
42964770,-0.072,-0.281,1.19,-142.257,-62.475,23.38,
42964780,0.015,-0.313,1.065,-142.397,-70.56,32.357,
42964790,-0.111,-0.462,1.088,-136.762,-73.692,40.197,
42964800,-0.256,-0.614,1.067,-118.702,-81.9,38.92,
42964810,-0.253,-0.614,1.019,-91.402,-97.51,22.592,
42964820,-0.043,-1.361,0.777,-65.502,-105.017,-6.125,
42964830,0.304,-1.363,0.449,33.88,-67.602,-17.78,
42964840,1.331,-1.658,0.536,94.692,28.105,-20.842,
42964850,-1.592,-0.263,-1.033,127.592,141.82,35.98,
42964860,-1.759,0.844,-0.682,119.717,81.165,59.797,
42964870,0.565,-1.161,-0.718,-53.462,11.637,40.775,
42964880,1.052,-1.224,-0.553,-54.425,29.295,-5.687,
42964890,-0.402,0.341,0.123,-17.955,55.125,-61.495,
42964900,1.325,-0.117,0.691,8.505,79.45,-146.23,
42964910,-0.513,1.844,1.037,263.62,-7.525,-197.417,
42964920,0.628,-1.135,1.46,248.15,-51.205,-76.72,
42964930,1.888,-0.651,1.892,308.49,136.29,-60.322,
42964940,-0.708,1.542,1.713,261.975,237.545,-33.337,
42964950,-1.493,1.599,0.765,97.055,103.11,-12.407,
42964960,0.508,-0.873,1.157,-20.23,-16.835,11.165,
42964970,-0.217,0.014,1.011,-29.137,-41.16,10.027,
42964980,0.482,-0.71,0.966,-34.3,-40.862,3.517,
42964990,0.053,-0.271,0.933,-13.422,-24.15,1.942,
42965000,0.106,-0.271,1.012,1.662,-14.857,0.735,
42965010,0.161,-0.144,0.972,0.56,-10.342,1.662,
42965010,0.132,-0.218,0.962,4.025,-5.267,4.795,
42965030,0.119,-0.194,0.972,7.542,-0.175,6.055,
42965030,0.092,-0.171,0.985,8.085,2.87,5.757,
42965050,0.081,-0.159,0.975,8.662,4.707,7.77,
42965050,0.03,-0.224,0.989,9.765,6.352,9.327,
42965070,-0.036,-0.181,0.998,10.115,6.79,8.837,
42965070,-0.073,-0.133,1.003,6.72,3.815,7.752,
42965080,-0.098,-0.136,1.012,1.61,-1.54,6.895,
42965090,-0.062,-0.118,1.004,-3.675,-7.857,6.317,
42965100,0.014,-0.146,0.986,-7.647,-12.512,6.895,
42965110,0,-0.15,0.994,-8.61,-14.98,7.595,
42965120,0.049,-0.178,0.986,-10.482,-16.432,7.682,
42965130,0.104,-0.197,0.968,-11.777,-15.96,7.105,
42965140,0.149,-0.241,0.956,-10.64,-12.582,6.457,
42965150,0.14,-0.198,0.973,-6.492,-7.507,7.42,
42965160,0.08,-0.166,1,-6.282,-3.482,8.575,
42965170,0.061,-0.147,1.003,-9.362,-1.732,10.01,
42965180,0.068,-0.162,1.01,-13.317,-1.155,10.342,
42965190,0.091,-0.146,1.039,-18.252,-0.105,10.955,
42965200,0.15,-0.117,1.069,-25.707,0.28,14.665,
42965210,0.202,-0.061,1.127,-38.517,0.875,21.7,
42965220,0.345,-0.099,1.187,-59.097,2.555,35.192,
42965230,0.294,-0.185,1.261,-82.232,10.465,52.045,
42965240,0.311,-0.153,1.29,-122.937,3.605,67.34,
42965250,0.502,-0.222,1.186,-140.84,12.932,85.085,
42965260,0.052,-0.251,1.091,-135.957,21.997,107.24,
42965270,-0.455,-0.312,1.155,-142.45,-8.26,128.73,
42965280,0.226,-0.451,1.199,-171.71,-35.455,135.712,
42965290,0.292,-0.561,1.072,-174.387,-47.11,141.54,
42965300,0.235,-0.973,0.978,-166.88,-44.765,148.032,
42965310,0.269,-0.868,0.968,-122.482,-33.687,148.82,
42965320,0.046,-0.789,1.01,-84.28,-31.64,136.01,
42965330,0.09,-1.005,0.838,-58.642,-31.447,89.582,
42965330,1.019,-0.784,0.737,-10.43,-3.5,22.312,
42965350,0.815,-1.205,0.582,27.545,56.84,-14.14,
42965350,1.166,-0.212,0.016,108.255,100.712,-98.735,
42965370,0.07,0.206,0.198,104.702,87.482,-181.107,
42965370,-0.301,0.036,0.223,46.672,46.48,-259.035,
42965390,-0.343,0.275,-0.12,54.897,25.427,-278.932,
42965390,-0.538,1.025,-0.401,82.687,9.59,-281.067,
42965410,-0.333,1.398,-0.532,64.627,-3.482,-275.992,
42965410,-0.069,1.078,-0.434,23.975,-9.415,-274.627,
42965420,-0.01,0.386,-0.441,7.385,-5.075,-281.032,
42965430,0.111,-0.171,-0.883,31.867,13.072,-271.88,
42965440,-0.888,-1.822,0.818,61.652,82.075,-174.265,
42965450,-0.28,-1.34,1.238,418.232,-8.627,-83.3,
42965460,0.766,1.996,1.477,414.12,238.21,-115.22,
42965470,-1.339,1.969,1.567,225.925,186.585,-2.17,
42965480,0.169,-1.546,0.911,-130.2,-40.267,33.145,
42965490,-0.84,1.404,1.1,-52.115,-100.397,-11.83,
42965500,0.986,-1.618,0.707,-123.812,-106.75,-3.535,
42965510,0.326,-0.023,0.88,-45.762,-70.07,-7.927,
42965520,0.175,-0.559,0.993,-39.165,-47.95,-1.767,
42965530,0.355,-0.193,0.947,-29.365,-37.765,-3.57,
42965540,0.422,-0.528,0.812,-25.392,-24.307,2.135,
42965550,0.271,-0.363,0.898,-0.542,-4.952,4.077,
42965560,0.164,-0.178,0.995,7.42,7.192,3.815,
42965570,0.057,-0.148,1.008,3.727,10.535,6.002,
42965580,-0.016,-0.231,0.987,1.102,8.347,8.68,
42965590,-0.058,-0.194,0.985,-4.515,3.745,3.045,
42965600,0.021,-0.241,0.971,-7.612,-0.472,-0.98,
42965610,0.022,-0.208,0.989,-7.175,-2.362,-2.24,
42965620,-0.008,-0.179,1.004,-10.062,-5.285,-3.097,
42965630,0.052,-0.22,0.996,-14,-8.802,-4.322,
42965640,0.07,-0.176,1.001,-16.887,-10.342,-4.777,
42965650,0.121,-0.256,0.967,-21.945,-10.745,-4.725,
42965660,0.102,-0.265,0.969,-20.79,-8.47,-4.812,
42965670,0.124,-0.243,0.979,-20.212,-5.652,-5.46,
42965680,0.158,-0.244,0.955,-18.882,-2.677,-4.095,
42965690,0.163,-0.28,0.969,-16.537,1.68,-1.487,
42965700,0.136,-0.194,1.044,-15.68,6.667,0.49,
42965710,0.083,-0.165,1.111,-22.54,9.87,1.82,
42965720,0.018,-0.138,1.18,-35.245,11.882,0.262,
42965730,0.035,-0.052,1.276,-56.192,13.755,-5.652,
42965740,0.124,-0.05,1.328,-88.655,18.165,-12.88,
42965750,0.251,-0.136,1.343,-125.667,25.707,-13.58,
42965760,0.24,-0.175,1.326,-160.475,31.64,1.627,
42965760,0.225,-0.133,1.276,-186.06,30.502,21.63,
42965780,0.16,-0.178,1.237,-210.175,28.122,38.535,
42965780,-0.05,-0.099,1.299,-228.06,16.905,47.88,
42965800,-0.308,-0.141,1.49,-247.065,-9.66,53.847,
42965800,-0.511,-0.548,1.546,-251.947,-49.437,50.015,
42965820,0.107,-0.901,1.386,-216.3,-70.017,31.01,
42965820,0.063,-0.625,0.967,-156.152,-49.332,3.027,
42965830,-0.811,-0.182,1.357,-93.082,-38.92,-23.922,
42965840,-0.154,-0.143,1.531,-31.657,-22.417,-16.327,
42965850,-0.697,0.595,0.72,105.665,18.585,16.1,
42965860,-0.443,1.554,0.523,209.912,39.427,55.842,
42965870,0.104,1.112,0.299,194.687,10.29,39.847,
42965880,0.569,0.648,-0.194,200.602,6.405,8.575,
42965890,0.426,0.81,-0.693,237.23,12.652,-16.642,
42965900,0.055,0.856,-0.846,212.362,10.552,-40.285,
42965910,-0.295,0.014,-0.545,113.295,-14.507,-53.392,
42965920,-0.113,-1.155,-0.605,44.992,-42.805,-58.135,
42965930,-0.158,-1.263,-0.628,65.747,-32.987,-46.322,
42965940,-0.727,-1.464,-0.664,61.127,-33.687,-45.15,
42965950,-1.689,-1.897,0.447,38.185,-107.607,-67.83,
42965960,1.908,-1.998,-0.086,281.925,-43.172,-151.497,
42965970,0.796,1.483,1.785,539.227,144.13,-141.452,
42965980,-0.362,1.997,0.221,280.542,288.207,-29.855,
42965990,-0.83,0.462,1.217,44.45,63.945,31.097,
42966000,1.236,-0.802,0.865,-44.87,-38.902,32.532,
42966010,-1.31,-0.036,1.18,-35.245,-47.617,8.575,
42966020,1.393,-0.858,0.81,-30.45,-40.32,10.202,
42966030,-0.509,-0.206,1.069,0.875,-9.87,5.547,
42966040,0.08,-0.109,1.012,-10.5,-11.147,3.43,
42966050,0.287,-0.3,0.925,-15.102,-10.64,1.645,
42966060,0.081,-0.271,0.968,-6.842,-1.277,0.682,
42966070,0.238,-0.201,0.954,-1.68,5.425,-0.122,
42966080,0.248,-0.293,0.933,5.792,14.402,2.432,
42966080,-0.071,-0.167,1,17.307,22.505,5.81,
42966100,-0.195,-0.116,1.031,15.015,18.9,6.44,
42966100,-0.153,-0.08,1.01,4.515,8.627,3.71,
42966120,-0.112,-0.142,1.001,-3.237,-1.067,1.89,
42966120,-0.106,-0.119,1.019,-9.257,-8.96,0.507,
42966140,-0.072,-0.108,1.018,-17.657,-16.205,-0.297,
42966140,-0.005,-0.125,1.004,-24.377,-21.63,0.28,
42966160,0.027,-0.172,0.987,-27.685,-24.255,1.75,
42966160,0.039,-0.206,0.973,-28.612,-25.095,2.677,
42966170,0.11,-0.286,0.917,-26.547,-24.255,3.185,
42966180,0.139,-0.328,0.904,-16.992,-20.125,3.395,
42966190,0.162,-0.296,0.916,-5.95,-14.052,2.905,
42966200,0.159,-0.263,0.923,3.535,-7.385,2.957,
42966210,0.103,-0.247,0.956,10.92,-1.12,3.395,
42966220,0.064,-0.191,0.98,15.19,2.275,4.34,
42966230,0.043,-0.21,0.978,14.297,3.5,3.902,
42966240,0.058,-0.191,0.978,12.215,3.902,2.73,
42966250,0.067,-0.205,0.983,10.062,4.69,1.697,
42966260,0.042,-0.177,0.999,7.84,5.915,0.77,
42966270,0.031,-0.154,1.021,1.89,6.282,-0.227,
42966280,0.006,-0.145,1.041,-6.685,5.635,-0.735,
42966290,0.013,-0.099,1.086,-19.022,3.727,-1.61,
42966300,0.05,-0.101,1.148,-36.872,0.875,-2.572,
42966310,0.131,-0.104,1.243,-60.007,-1.96,-2.17,
42966320,0.217,-0.183,1.348,-88.322,-2.065,-2.415,
42966330,0.036,-0.244,1.481,-118.44,-5.18,-2.87,
42966340,0.112,-0.68,1.296,-147.105,-9.03,14.455,
42966350,0.183,-1.121,1.396,-153.247,-13.545,57.54,
42966360,-0.221,-1.484,1.151,-140.175,-19.88,103.53,
42966370,-1.585,-1.491,1.339,-115.29,-64.662,125.632,
42966380,-1.016,-1.9,0.146,-75.425,-150.937,128.572,
42966390,-0.796,-1.998,-0.265,-27.247,-50.05,176.032,
42966400,-0.658,-0.957,-0.513,98.752,-5.127,190.767,
42966410,-0.243,-0.647,-0.032,60.812,33.25,164.517,
42966420,0.162,-1.247,-0.099,-24.255,49.787,99.855,
42966430,0.263,-0.824,0.05,21,69.93,55.755,
42966440,0.165,0.151,0.002,31.797,85.557,20.142,
42966450,0.07,0.468,0.053,-21.91,76.282,-25.812,
42966460,0.196,0.333,0,-56.875,46.532,-81.48,
42966470,0.331,0.556,-0.161,-49.192,27.772,-117.985,
42966480,0.185,0.838,-0.205,-49.892,14.98,-140.28,
42966490,0.511,1.277,0.79,-82.39,-0.542,-127.592,
42966500,-0.339,0.6,1.496,35.14,-155.907,-161.525,
42966510,-0.175,1.997,-0.101,461.807,-148.61,-114.73,
42966510,1.998,-1.26,1.63,339.955,-54.46,-24.272,
42966530,1.081,0.77,1.835,399.28,179.252,-51.52,
42966530,-1.95,1.666,0.618,233.17,180.985,20.825,
42966550,0.343,-0.729,1.436,-26.617,4.585,26.932,
42966550,-0.986,0.203,1.062,-79.17,-72.922,4.795,
42966570,0.413,-0.717,0.928,-91.945,-83.51,5.162,
42966570,0.124,-0.286,0.972,-64.47,-70.49,1.75,
42966580,0.285,-0.369,0.876,-50.277,-57.995,3.92,
42966590,0.337,-0.544,0.922,-39.06,-43.137,-2.555,
42966600,0.402,-0.315,0.864,-22.557,-25.567,-0.07,
42966610,0.262,-0.411,0.837,-3.867,-7.315,3.482,
42966620,0.238,-0.409,0.901,15.382,7.787,1.75,
42966630,0.104,-0.111,1.011,26.565,17.307,-0.175,
42966640,-0.08,-0.032,1.044,19.215,17.22,0.28,
42966650,-0.173,-0.111,1.031,5.582,8.855,0.07,
42966660,-0.043,-0.102,0.989,-5.407,-0.805,-2.52,
42966670,0.046,-0.255,0.953,-11.305,-5.145,-5.46,
42966680,0.064,-0.223,0.952,-7.822,-4.41,-5.442,
42966690,0.073,-0.233,0.952,-4.077,-2.73,-5.145,
42966700,0.064,-0.197,0.968,-0.647,-0.98,-4.13,
42966710,0.009,-0.144,0.988,0.682,-0.332,-1.977,
42966720,-0.034,-0.202,0.973,-1.977,-2.24,-1.47,
42966730,0.017,-0.223,0.96,-2.695,-4.935,-2.38,
42966740,0.046,-0.222,0.96,-1.365,-5.827,-2.24,
42966750,0.067,-0.22,0.96,0.857,-5.337,-1.032,
42966760,0.047,-0.192,0.979,3.115,-4.13,0.525,
42966770,0.055,-0.173,0.979,3.482,-3.71,2.222,
42966780,0.024,-0.199,0.972,3.57,-3.71,3.972,
42966790,0.002,-0.201,0.983,3.71,-4.672,4.515,
42966800,0.011,-0.163,0.997,3.097,-6.527,5.53,
42966810,0.01,-0.137,1.006,-0.087,-8.54,6.79,
42966820,0.052,-0.167,1.014,-5.477,-10.395,7.542,
42966830,0.12,-0.159,1.018,-11.41,-9.957,8.732,
42966830,0.184,-0.171,1.03,-18.252,-6.685,9.957,
42966850,0.236,-0.168,1.063,-24.535,-0.682,12.477,
42966850,0.362,-0.179,1.108,-33.442,8.592,14.682,
42966870,0.428,-0.181,1.203,-43.155,23.135,17.535,
42966870,0.49,-0.106,1.358,-65.835,38.902,29.312,
42966890,0.518,-0.15,1.213,-123.06,39.427,64.697,
42966890,0.838,-0.623,1.281,-148.907,46.025,118.177,
42966910,-0.208,-0.659,1.264,-130.742,40.092,172.2,
42966910,0.204,-0.848,1.047,-138.442,-37.485,209.912,
42966920,0.651,-1.109,0.603,-146.737,-48.72,242.76,
42966930,0.219,-0.949,1.073,-114.782,-57.942,262.377,
42966940,-0.321,-1.175,1.094,-81.462,-88.095,267.417,
42966950,0.568,-1.945,0.707,-77.402,-136.465,178.955,
42966960,1.951,-1.876,0.155,-1.61,-78.47,99.522,
42966970,0.852,-0.465,-0.024,99.487,-8.015,33.162,
42966980,-0.196,0.153,0.02,90.142,-13.93,-99.4,
42966990,-0.555,0.028,-0.061,39.34,-39.725,-184.835,
42967000,-0.745,0.307,-0.229,44.415,-46.742,-214.882,
42967010,-1.135,0.689,-0.282,53.042,-41.457,-210.402,
42967020,-1.253,0.588,-0.512,37.432,-34.037,-194.88,
42967030,-1.177,0.538,-0.834,33.407,-18.217,-162.12,
42967040,-1.186,0.444,-0.788,20.632,-14.385,-128.187,
42967050,0.039,0.141,-0.582,2.94,11.34,-105.507,
42967060,-1.359,-1.852,1.183,156.082,100.887,-62.44,
42967070,1.905,0.181,1.868,481.215,158.165,-37.94,
42967080,-1.987,1.997,0.546,260.277,223.965,16.835,
42967090,0.667,-1.25,1.145,-55.195,-2.082,27.44,
42967100,-1.419,0.519,1.015,-78.592,-83.02,3.797,
42967110,0.84,-1.072,0.937,-80.15,-91.105,-0.49,
42967120,0.355,-0.143,0.913,-46.095,-66.622,3.605,
42967130,0.187,-0.537,0.958,-25.76,-43.295,11.567,
42967140,0.331,-0.338,0.905,-25.777,-33.6,1.802,
42967150,0.444,-0.422,0.895,-14.997,-16.117,2.835,
42967160,0.184,-0.247,0.948,-0.297,1.015,6.3,
42967170,0.017,-0.21,0.967,2.047,7.997,5.985,
42967180,0.154,-0.234,0.946,1.855,8.907,3.202,
42967190,0.126,-0.199,0.984,5.145,13.475,3.92,
42967200,-0.157,-0.144,1.012,4.41,14.332,6.055,
42967210,-0.167,-0.058,1.011,-4.462,5.757,1.767,
42967220,0.001,-0.309,0.97,-17.587,-3.972,-6.37,
42967230,0.084,-0.179,0.978,-13.107,-5.985,-6.072,
42967240,0.077,-0.224,0.961,-13.72,-5.11,-5.145,
42967250,0.039,-0.231,0.966,-10.85,-4.375,-3.202,
42967260,0.028,-0.19,0.984,-10.447,-4.41,-3.027,
42967260,0.045,-0.222,0.962,-12.145,-5.425,-2.905,
42967270,0.053,-0.284,0.926,-11.462,-5.652,-3.307,
42967280,0.096,-0.294,0.918,-6.317,-4.427,-3.342,
42967290,0.114,-0.305,0.912,-1.417,-1.977,-2.59,
42967300,0.103,-0.26,0.945,4.602,0.892,-0.56,
42967310,0.063,-0.212,0.985,6.842,3.01,0.717,
42967320,0.028,-0.197,1.005,5.967,3.535,2.52,
42967330,0.006,-0.176,1.009,2.467,2.047,3.832,
42967340,0.033,-0.18,1.005,-1.19,0.262,5.372,
42967350,0.035,-0.171,1.023,-8.802,-0.892,4.865,
42967360,0.036,-0.209,1.012,-13.02,-0.945,6.632,
42967370,0.027,-0.173,1.051,-17.045,-0.752,8.382,
42967380,0.027,-0.162,1.107,-26.372,-1.137,8.732,
42967390,0.087,-0.091,1.165,-37.012,-0.77,9.45,
42967400,0.133,-0.121,1.213,-54.005,3.64,8.085,
42967410,0.321,-0.183,1.219,-73.36,15.312,5.652,
42967420,0.379,-0.367,1.155,-100.38,29.925,11.515,
42967430,0.259,-0.382,1.182,-117.477,23.695,41.702,
42967440,0.431,-0.461,1.193,-123.83,22.767,80.412,
42967450,0.115,-0.329,1.263,-127.015,-7.455,119.507,
42967460,0.536,-1.067,1.098,-153.282,-44.152,159.127,
42967470,0.218,-1.225,0.872,-113.802,-74.532,193.672,
42967480,0.299,-1.499,1.023,-69.055,-100.52,192.605,
42967490,-0.696,-1.75,1.041,-30.362,-131.582,208.232,
42967500,0.819,-1.681,0.11,39.06,-136.447,201.197,
42967510,1.683,-1.056,-0.083,100.695,-62.422,223.212,
42967520,1.456,-0.659,-0.11,71.032,-34.352,125.142,
42967530,0.961,-0.205,-0.586,45.22,-44.8,-39.515,
42967540,0.106,0.654,-0.426,20.702,-46.34,-140.28,
42967550,-0.752,0.861,-0.19,-50.995,-87.64,-210.49,
42967560,-0.78,0.869,-0.196,-95.462,-107.922,-225.557,
42967570,-1.138,0.996,-0.092,-78.592,-90.877,-186.34,
42967580,-1.606,0.899,-0.133,-42.805,-80.517,-127.452,
42967580,-0.204,0.399,0.447,-20.772,-30.362,-54.46,
42967600,-1.465,-1.842,0.828,93.31,144.567,74.532,
42967600,0.829,-1.678,0.902,449.995,56.07,-14.315,
42967620,1.745,0.296,1.919,432.967,182.962,-96.967,
42967620,-1.246,1.997,1.606,308.437,265.09,-15.767,
42967640,-0.526,-0.078,1.217,48.212,75.197,35.84,
42967640,-1.239,0.518,1.216,-50.137,-52.937,10.815,
42967660,0.396,-0.763,0.912,-90.737,-101.342,-6.632,
42967660,0.458,-0.67,0.77,-75.88,-82.582,-13.947,
42967670,0.346,-0.406,1.011,-24.15,-52.465,-8.54,
42967680,0.383,-0.37,0.871,-35.437,-37.8,-10.325,
42967690,0.489,-0.443,0.854,-14.84,-17.902,-0.735,
42967700,0.211,-0.36,0.889,-2.887,0.577,2.87,
42967710,0.132,-0.258,0.941,6.527,10.797,3.832,
42967720,0.07,-0.17,0.999,7.595,14.122,3.535,
42967730,0.053,-0.162,1.005,3.535,12.565,4.165,
42967740,-0.012,-0.178,0.975,0.857,9.782,6.947,
42967750,-0.113,-0.219,0.988,-3.255,4.48,4.41,
42967760,-0.079,-0.144,1.012,-6.247,-3.92,0.735,
42967770,0.059,-0.219,0.98,-15.89,-10.727,-2.59,
42967780,0.076,-0.276,0.954,-16.817,-13.545,-2.327,
42967790,0.138,-0.224,0.973,-16.012,-13.265,-2.747,
42967800,0.094,-0.179,1.02,-17.15,-11.48,-0.822,
42967810,0.042,-0.18,1.013,-23.625,-12.232,-0.052,
42967820,0.102,-0.298,0.952,-29.645,-13.965,-2.117,
42967830,0.133,-0.309,0.965,-28.665,-12.495,-4.06,
42967840,0.158,-0.247,0.999,-26.267,-9.415,-2.922,
42967850,0.04,-0.211,1.066,-31.377,-7.647,-2.572,
42967860,-0.021,-0.133,1.141,-41.02,-9.8,-5.565,
42967870,-0.05,-0.102,1.238,-59.43,-14.35,-12.617,
42967880,-0.059,-0.014,1.403,-82.897,-16.922,-22.995,
42967890,-0.084,0.094,1.478,-115.885,-12.547,-39.55,
42967900,-0.187,0.171,1.396,-158.62,0.157,-66.605,
42967910,-0.295,0.031,1.402,-212.765,-4.34,-80.255,
42967920,-0.258,0.129,1.398,-251.422,-24.412,-85.89,
42967930,-0.522,-0.067,1.358,-281.592,-57.732,-91.332,
42967940,-0.647,-0.331,1.32,-299.687,-108.657,-99.925,
42967940,-0.799,-0.424,1.464,-305.112,-165.777,-114.66,
42967960,-0.414,-1.248,1.348,-298.27,-206.745,-131.127,
42967960,0.862,-1.692,1.446,-233.572,-90.23,-106.89,
42967980,-1.694,0.925,1.537,-29.732,92.225,-47.092,
42967980,-1.239,1.733,1.375,93.992,76.527,-29.802,
42968000,-1.013,0.165,1.276,111.125,84.122,33.757,
42968000,-0.072,0.55,0.812,274.995,114.187,121.957,
42968010,0.242,0.602,0.269,345.275,136.342,160.37,
42968020,0.238,0.088,-0.076,344.592,104.09,129.867,
42968030,0.438,-0.207,-0.643,329.35,86.625,117.372,
42968040,0.096,0.175,-1.574,299.232,73.57,122.5,
42968050,-0.778,0.352,-1.058,188.177,41.492,151.06,
42968060,-0.382,-1.273,-0.449,47.757,-27.23,141.54,
42968070,0.053,-1.975,-0.211,42.647,-42.595,146.247,
42968080,-1.059,-1.736,0.562,156.502,-184.432,63.49,
42968090,1.299,-1.363,0.259,298.06,21.945,-194.81,
42968100,-0.27,1.997,1.849,305.567,244.195,-184.957,
42968110,-1.305,1.732,0.489,170.327,172.06,12.74,
42968120,1.29,-1.292,1.311,40.932,35.752,91.542,
42968130,-1.357,0.856,1.089,2.537,-15.4,37.17,
42968140,0.927,-1.168,0.893,-38.465,-31.045,26.355,
42968150,-0.228,-0.068,1.093,-12.582,-15.522,8.347,
42968160,0.13,-0.148,0.957,-10.885,-11.217,14.892,
42968170,0.052,-0.129,1.021,-14.07,-9.87,13.965,
42968180,0.2,-0.233,0.948,-18.69,-7.07,15.4,
42968190,0.128,-0.307,0.915,-10.605,0.805,16.012,
42968200,0.049,-0.216,0.963,-2.695,7.507,11.462,
42968210,0.072,-0.188,0.994,-4.13,9.782,5.652,
42968220,0.074,-0.127,1.017,-8.697,10.675,4.83,
42968230,-0.043,-0.191,0.964,-15.382,10.342,7.07,
42968240,-0.191,-0.19,0.972,-13.86,7.315,3.867,
42968250,-0.147,-0.163,0.989,-14.14,-0.157,-2.957,
42968260,0,-0.153,0.992,-18.165,-7.14,-6.317,
42968270,0.022,-0.16,0.986,-20.055,-9.642,-5.057,
42968280,0.032,-0.203,0.976,-21.28,-10.15,-3.867,
42968290,0.079,-0.189,0.986,-21.437,-9.275,-3.78,
42968300,0.056,-0.173,1.008,-23.432,-7.07,-2.467,
42968310,0.012,-0.206,0.989,-26.827,-6.265,-0.857,
42968320,0.007,-0.212,0.965,-28.682,-7.21,-0.437,
42968330,0.044,-0.224,0.987,-28.192,-9.082,1.417,
42968330,0.01,-0.161,1.025,-27.842,-9.957,3.78,
42968350,-0.011,-0.146,1.081,-35.542,-12.74,4.602,
42968350,0.05,-0.114,1.121,-47.337,-16.415,4.83,
42968370,0.03,-0.144,1.167,-63.017,-18.917,4.97,
42968370,0.035,-0.059,1.222,-78.68,-20.44,5.775,
42968390,0.074,-0.076,1.267,-104.247,-21.647,5.74,
42968390,-0.028,-0.105,1.277,-134.102,-25.445,8.4,
42968410,-0.116,-0.152,1.349,-166.005,-48.51,16.537,
42968410,-0.172,-0.033,1.318,-189.035,-72.152,21.822,
42968420,-0.586,0.002,1.441,-205.222,-104.51,26.005,
42968430,-0.555,-0.255,1.363,-230.142,-140.455,20.02,
42968440,-0.197,-0.576,1.248,-225.96,-164.115,10.622,
42968450,0.105,-0.703,0.963,-191.222,-163.975,-8.347,
42968460,0.448,-0.785,1.003,-142.467,-118.405,-23.642,
42968470,1.179,-0.996,1.155,-74.55,10.062,-22.54,
42968480,-1.218,0.045,1.152,55.352,113.365,14.297,
42968490,-0.241,0.295,0.94,128.817,96.897,-3.587,
42968500,1.68,0.25,-0.129,162.365,109.55,-13.3,
42968510,0.874,0.537,0.042,181.615,98.28,-60.042,
42968520,0.08,0.027,-0.181,163.345,84.157,-123.777,
42968530,0.161,0.409,-0.862,167.86,69.3,-120.137,
42968540,-0.341,0.907,-1.32,130.55,56.857,-93.205,
42968550,-0.364,0.376,-0.85,41.3,31.237,-61.722,
42968560,0.251,-0.713,-0.476,-19.005,17.815,-15.05,
42968570,-0.224,-1.051,-0.698,5.915,3.36,10.255,
42968580,-0.636,-1.622,1.347,57.942,-55.93,5.075,
42968590,1.991,-1.984,0.448,328.44,64.452,-32.41,
42968600,0.735,1.746,1.819,519.277,221.077,-30.432,
42968610,-1.349,1.997,1.263,369.792,284.34,-11.672,
42968620,-0.817,0.229,1.022,79.975,64.61,29.015,
42968630,-0.154,0.458,1.137,-47.005,-51.94,24.832,
42968640,-0.151,-1.098,1.082,-87.885,-79.45,12.197,
42968650,0.433,-0.354,0.944,-72.537,-69.072,4.322,
42968660,0.017,-0.202,0.996,-51.187,-50.032,7.507,
42968670,0.186,-0.311,0.953,-49.035,-44.222,0.577,
42968670,0.343,-0.481,0.824,-38.307,-31.045,2.397,
42968690,0.26,-0.467,0.879,-10.867,-12.74,0.28,
42968690,0.121,-0.104,1.018,6.807,1.557,1.872,
42968710,0.027,-0.12,1.015,0.84,4.462,3.045,
42968710,0.099,-0.195,0.993,-7.07,3.902,1.487,
42968730,0.027,-0.176,0.971,-7.21,6.317,4.27,
42968730,-0.087,-0.264,0.928,-4.795,5.897,4.27,
42968750,-0.062,-0.261,0.943,-0.035,1.96,-0.49,
42968750,0.06,-0.191,0.986,2.38,-0.91,-4.69,
42968760,0.018,-0.133,1.013,1.26,-1.347,-3.325,
42968770,-0.016,-0.129,1,-4.375,-3.255,-1.732,
42968780,0.034,-0.179,0.998,-10.255,-6.055,-1.977,
42968790,0.027,-0.105,1.026,-14.7,-7.35,-0.49,
42968800,-0.034,-0.128,1.006,-22.75,-9.467,0.717,
42968810,0.017,-0.269,0.946,-26.67,-12.862,0.297,
42968820,0.107,-0.242,0.972,-23.59,-13.142,-0.945,
42968830,0.145,-0.208,0.995,-21.472,-9.817,0.507,
42968840,0.138,-0.207,1.03,-22.75,-5.215,3.29,
42968850,0.124,-0.16,1.075,-27.86,-1.05,5.775,
42968860,0.145,-0.147,1.135,-37.082,2.922,6.65,
42968870,0.172,-0.128,1.217,-51.38,7.735,6.09,
42968880,0.291,-0.125,1.305,-80.43,15.715,7,
42968890,0.307,-0.193,1.241,-119.227,26.285,13.09,
42968900,0.201,-0.391,1.242,-145.39,16.922,35.07,
42968910,0.075,-0.287,1.281,-156.467,3.185,58.555,
42968920,-0.145,-0.216,1.295,-176.855,-11.095,74.462,
42968930,0.022,-0.442,1.143,-195.895,-22.032,96.792,
42968940,0.25,-0.592,0.97,-191.537,-19.74,115.412,
42968950,-0.312,-0.719,0.836,-162.925,-31.727,117.215,
42968960,-0.344,-1.227,0.667,-138.11,-73.78,98.91,
42968970,0.053,-1.986,0.784,-122.465,-69.702,83.667,
42968980,-0.438,-1.989,0.466,-47.722,-55.772,61.6,
42968990,0.949,-1.599,-0.039,30.8,-12.39,20.667,
42969000,0.498,-1.031,0.051,65.712,35.42,-16.922,
42969010,0.385,-0.614,-0.005,76.79,49.787,-115.29,
42969020,0.012,-0.25,-0.088,84.087,57.4,-186.252,
42969030,-0.301,0.171,-0.416,90.895,56.752,-232.067,
42969040,-0.51,0.649,-0.811,76.387,50.4,-249.532,
42969050,-0.709,0.815,-0.492,16.31,38.29,-247.065,
42969060,-0.532,0.125,-0.49,-66.552,22.155,-234.815,
42969070,-0.347,0,-0.636,-65.852,22.4,-209.545,
42969080,-0.906,0.415,-0.433,-36.26,11.217,-165.672,
42969080,0.644,0.405,0.521,-54.53,22.417,-115.412,
42969100,-1.645,-1.964,-0.034,108.832,66.272,-34.807,
42969100,0.908,0.557,0.691,507.797,-45.22,-37.38,
42969120,0.995,-1.59,1.933,409.062,125.02,22.732,
42969120,-0.8,1.612,1.987,476.77,225.382,-6.247,
42969140,-1.608,1.746,1.082,181.93,116.515,17.307,
42969140,-1.025,0.233,1.461,-39.865,-37.607,24.027,
42969160,0.338,-0.223,1.093,-128.642,-101.482,16.047,
42969160,0.31,-1.007,0.824,-137.795,-85.242,17.115,
42969170,0.054,-0.611,0.76,-93.047,-61.267,5.267,
42969180,0.56,-0.49,0.799,-55.895,-45.955,-7.07,
42969190,0.442,-0.541,0.756,-26.985,-20.3,0.035,
42969200,0.241,-0.43,0.816,7.682,2.642,5.355,
42969210,0.119,-0.253,0.981,22.96,15.61,2.03,
42969220,0.088,-0.091,1.047,24.885,20.037,2.065,
42969230,-0.025,-0.171,0.999,14.297,18.497,3.272,
42969240,-0.028,-0.204,0.99,8.96,14.892,1.54,
42969250,-0.077,-0.174,1.017,5.635,10.482,-0.787,
42969260,-0.087,-0.181,0.992,-2.03,4.13,-3.5,
42969270,-0.007,-0.229,0.96,-8.715,-1.487,-7.21,
42969280,0.038,-0.205,0.988,-9.8,-4.095,-9.852,
42969290,0.064,-0.165,1,-11.462,-4.515,-9.66,
42969300,0.004,-0.169,1.023,-15.907,-4.742,-8.995,
42969310,-0.037,-0.116,1.055,-21.157,-7.105,-8.96,
42969320,-0.007,-0.193,1.026,-31.272,-11.55,-12.092,
42969330,0.015,-0.183,1.027,-35.665,-13.895,-14.42,
42969340,0.06,-0.199,1.06,-39.602,-14.472,-15.977,
42969350,0.072,-0.18,1.12,-46.9,-13.125,-16.432,
42969360,0.042,-0.053,1.198,-59.71,-11.007,-17.797,
42969370,0.087,-0.102,1.247,-79.957,-5.897,-21.42,
42969380,0.129,0.03,1.271,-102.62,5.897,-27.79,
42969390,-0.081,-0.042,1.242,-133.455,18.69,-37.8,
42969400,0.012,-0.217,1.313,-172.112,6.23,-31.64,
42969410,0.175,-0.069,1.301,-199.5,-4.445,-24.412,
42969420,0.196,-0.141,1.267,-223.142,-9.275,-13.685,
42969420,0.078,-0.098,1.223,-242.672,-15.995,-0.595,
42969440,-0.09,-0.198,1.191,-257.95,-31.622,5.827,
42969440,-0.268,-0.338,1.431,-264.74,-56.087,7.84,
42969460,-0.293,-0.868,1.424,-256.777,-78.767,3.395,
42969460,0.015,-1.221,1.053,-196,-68.862,-3.412,
42969480,0.751,-0.694,0.973,-104.755,-0.367,-26.617,
42969480,-0.68,-0.034,0.716,-6.562,52.08,-56.035,
42969500,-0.689,-0.08,0.818,40.932,33.967,-90.125,
42969500,0.203,-0.287,0.468,102.777,66.64,-60.585,
42969510,0.135,-0.423,0.295,163.625,102.882,-52.272,
42969520,-0.51,0.21,-0.694,234.85,106.347,-58.485,
42969530,-0.792,0.656,-1.08,218.872,100.397,-15.54,
42969540,-0.931,0.268,-0.844,120.452,50.19,21.875,
42969550,-0.09,-0.691,-0.658,35.49,0.35,47.46,
42969560,0.419,-0.864,-0.846,36.33,-1.505,64.26,
42969570,-0.023,-0.33,-0.976,63.472,4.445,59.15,
42969580,-0.611,-0.293,-0.427,24.22,-13.755,35.7,
42969590,-0.565,-1.747,1.786,19.757,-123.497,-77.122,
42969600,1.382,-1.751,-0.707,395.832,17.045,-255.675,
42969610,-1.42,1.698,0.786,532.577,-7.525,-107.992,
42969620,1.998,-0.161,1.459,454.44,115.29,-74.095,
42969630,-0.809,0.544,1.44,433.545,278.477,-30.257,
42969640,-0.559,0.701,0.536,135.467,106.102,-0.122,
42969650,0.142,-0.083,1.267,-86.415,-26.617,25.9,
42969660,-0.729,-0.659,1.11,-84.595,-59.797,0.07,
42969670,0.368,-0.433,0.933,-82.915,-62.93,-8.82,
42969680,0.049,-0.261,0.943,-61.827,-49.717,-10.08,
42969690,0.512,-0.562,0.923,-35.962,-38.675,-2.135,
42969700,0.311,-0.549,0.827,-12.862,-13.37,4.48,
42969710,0.234,-0.395,0.923,12.67,4.865,-1.26,
42969720,0.122,0.068,1.04,20.86,15.837,-2.87,
42969730,-0.043,-0.089,1.008,11.637,16.607,2.047,
42969740,0.059,-0.306,0.935,5.285,14.14,1.155,
42969750,-0.039,-0.145,0.987,12.81,15.592,1.242,
42969760,-0.273,-0.035,1.034,10.727,11.252,0.857,
42969770,-0.163,-0.116,1.001,-3.535,-1.137,-3.115,
42969780,-0.025,-0.169,0.986,-10.692,-10.202,-4.55,
42969790,-0.015,-0.111,1.007,-12.232,-13.37,-2.835,
42969800,0.026,-0.138,1.007,-16.537,-15.785,-1.067,
42969810,0.009,-0.116,1.006,-19.337,-16.537,1.155,
42969820,0.068,-0.192,0.979,-22.242,-17.027,1.032,
42969830,0.133,-0.283,0.947,-20.772,-14.7,0.577,
42969830,0.207,-0.271,0.966,-14.892,-8.277,0.665,
42969850,0.176,-0.206,1.013,-11.637,0.07,3.745,
42969850,0.131,-0.122,1.077,-13.93,6.37,9.327,
42969870,0.112,-0.011,1.198,-25.095,9.362,15.697,
42969870,0.154,-0.008,1.349,-48.422,10.307,21.822,
42969890,0.193,0.144,1.592,-78.522,11.742,28.63,
42969890,0.21,0.047,1.465,-143.885,10.29,46.217,
42969910,0.472,-0.516,1.399,-208.81,-15.155,83.737,
42969910,-0.08,-0.334,1.421,-225.505,-36.627,123.392,
42969920,-0.441,-0.101,1.342,-236.337,-80.867,140.385,
42969930,0.226,-0.395,1.08,-259.997,-97.877,161.035,
42969940,0.079,-1.271,0.772,-260.295,-103.092,180.862,
42969950,0.114,-1.857,0.499,-198.642,-125.265,170.747,
42969960,-0.181,-1.995,0.554,-126.455,-119.787,155.365,
42969970,0.356,-1.947,0.112,-66.867,-83.002,133.227,
42969980,0.104,-1.527,0.109,-2.905,-11.935,129.587,
42969990,1.185,-0.729,0.152,44.397,34.457,72.887,
42970000,1.309,-0.611,0.15,35.77,49.577,-47.267,
42970010,0.347,-0.199,0.159,45.902,60.13,-159.197,
42970020,-0.421,0.671,-0.117,90.107,47.897,-217.577,
42970030,-0.839,1.219,-0.32,92.015,15.592,-222.705,
42970040,-0.846,1.107,-0.704,46.427,-16.31,-204.872,
42970050,-0.875,0.707,-0.615,-12.705,-31.832,-168.455,
42970060,-0.687,-0.127,-0.556,-59.92,-36.54,-127.977,
42970070,-0.385,-0.686,-0.599,-50.697,-30.677,-103.285,
42970080,-0.434,-0.871,-0.845,-29.015,-24.377,-102.777,
42970090,1.038,-1.004,1.025,-10.185,70.647,-99.697,
42970100,-1.97,-1.908,-0.708,205.485,145.18,-74.13,
42970110,0.115,1.647,0.877,547.645,-8.54,-111.002,
42970120,1.998,-1.04,1.965,404.915,142.572,-61.722,
42970130,0.671,-0.096,1.447,414.855,285.005,-51.012,
42970140,-1.552,1.862,1.068,258.055,156.415,-6.125,
42970150,0.787,-1.458,1.038,-132.597,-29.102,35.262,
42970160,-0.969,0.718,0.994,-77.63,-94.307,5.67,
42970170,1.11,-1.119,0.798,-100.817,-85.417,7.927,
42970170,-0.087,-0.316,1.01,-29.82,-54.25,6.772,
42970190,0.75,-0.671,0.773,-37.887,-38.08,0.402,
42970190,0.369,-0.343,0.882,-1.12,-8.662,4.917,
42970210,0.156,-0.463,0.909,13.912,11.952,7.07,
42970210,0.042,0.084,1.06,21.122,18.672,0.315,
42970230,0.059,-0.174,0.998,7.42,16.31,3.325,
42970230,-0.166,-0.155,1.006,7.7,14.542,7.665,
42970250,-0.227,-0.105,1.005,0.735,5.005,4.06,
42970250,-0.032,-0.244,0.964,-8.942,-5.6,-2.66,
42970260,0.065,-0.226,0.97,-8.61,-8.907,-5.127,
42970270,0.063,-0.206,0.968,-5.897,-7.787,-3.482,
42970280,0.023,-0.172,0.984,-5.005,-6.982,-2.922,
42970290,0.043,-0.181,0.987,-7.192,-7.735,-3.762,
42970300,0.04,-0.154,0.995,-9.922,-8.312,-3.797,
42970310,0.066,-0.213,0.968,-13.09,-8.627,-3.272,
42970320,0.071,-0.23,0.965,-13.44,-7.7,-3.325,
42970330,0.075,-0.237,0.965,-11.497,-6.177,-2.082,
42970340,0.072,-0.224,0.974,-10.57,-4.445,-1.295,
42970350,0.043,-0.178,1.009,-10.377,-3.307,-0.525,
42970360,0.011,-0.141,1.047,-15.312,-3.78,-0.105,
42970370,0,-0.185,1.06,-24.867,-7.052,0.21,
42970380,-0.025,-0.117,1.128,-33.477,-12.092,1.4,
42970390,-0.037,-0.065,1.249,-49.735,-20.107,2.765,
42970400,-0.086,-0.004,1.378,-73.43,-31.535,3.412,
42970410,-0.171,0.007,1.482,-108.64,-44.502,-0.14,
42970420,-0.225,0.026,1.402,-151.655,-61.95,-6.02,
42970430,-0.471,-0.185,1.395,-185.482,-92.96,-2.905,
42970440,-1.025,-0.542,1.562,-201.425,-146.475,7.63,
42970450,-1.57,-1.111,1.86,-182.63,-251.44,11.9,
42970460,-0.769,-1.632,1.147,-107.187,-365.942,-15.417,
42970470,0.714,-1.995,0.942,43.68,-304.255,-0.91,
42970480,-0.282,-1.365,0.68,113.977,-75.845,113.592,
42970490,-1.998,0.001,0.225,201.232,38.972,215.372,
42970500,-0.625,-0.779,-0.022,168.577,-19.792,195.562,
42970510,1.697,-1.664,0.045,144.602,46.935,196.735,
42970520,0.098,-0.423,-0.382,173.652,100.362,198.607,
42970530,-0.31,-0.263,-0.564,149.975,115.377,177.66,
42970540,0.218,0,-0.695,67.917,100.502,128.415,
42970550,0.066,-0.391,-0.408,-12.477,90.002,88.777,
42970560,0.169,-0.537,-0.278,-47.04,84.945,24.132,
42970570,0.186,-0.121,-0.392,-56.14,95.462,-34.317,
42970580,-0.064,0.267,-0.535,-66.412,102.935,-82.652,
42970580,-1.24,0.974,0.829,-59.937,46.095,-150.465,
42970600,1.918,-0.398,-0.277,224.577,-20.947,-345.082,
42970600,1.698,0.245,1.548,411.197,108.062,-269.675,
42970610,0.442,-0.202,1.228,266.857,304.71,-174.16,
42970620,-1.449,1.997,0.335,321.23,146.895,22.732,
42970630,1.346,-1.608,1.138,-127.75,6.93,139.037,
42970640,-0.637,0.241,1.018,-70.28,-87.78,20.072,
42970650,1.013,-0.795,0.987,-73.08,-71.82,11.41,
42970660,0.192,-0.005,0.94,-49.7,-54.53,4.795,
42970670,0.226,-0.549,0.967,-24.22,-29.505,25.007,
42970680,0.268,-0.364,0.911,-10.272,-15.872,16.887,
42970690,0.221,-0.343,0.921,-0.332,-1.435,10.64,
42970700,0.008,-0.126,1.001,10.832,8.715,7.612,
42970710,0.072,-0.137,0.99,7.437,9.31,6.3,
42970720,0.041,-0.108,0.994,3.99,8.82,5.722,
42970730,-0.072,-0.109,1.02,1.837,6.982,8.33,
42970740,-0.135,-0.091,1.01,-5.46,1.225,6.51,
42970750,-0.106,-0.174,0.992,-14.49,-6.492,2.485,
42970760,0.077,-0.271,0.949,-18.742,-10.955,-2.222,
42970770,0.171,-0.281,0.93,-12.32,-7.367,-3.657,
42970780,0.171,-0.226,0.968,-1.277,0.542,-1.645,
42970790,0.147,-0.141,1.007,4.76,8.295,2.117,
42970800,0.113,-0.156,1.004,4.357,13.842,6.247,
42970810,0.043,-0.15,1.022,1.54,15.942,9.625,
42970820,0.109,-0.112,1.057,-6.615,16.485,13.195,
42970830,0.104,-0.099,1.101,-18.322,18.287,17.622,
42970840,0.234,-0.061,1.189,-34.65,22.452,22.925,
42970850,0.455,-0.074,1.316,-57.295,33.495,30.73,
42970860,0.534,-0.197,1.309,-99.172,46.987,50.54,
42970870,0.953,-0.362,1.355,-135.642,60.27,85.942,
42970880,0.257,-0.327,1.24,-156.677,64.312,134.137,
42970890,0.227,-0.62,1.343,-184.152,39.9,172.55,
42970900,1.093,-0.655,1.354,-192.815,22.68,183.557,
42970910,1.077,-0.771,0.984,-190.61,60.095,229.67,
42970920,-0.127,-0.381,1.544,-144.305,37.782,260.732,
42970920,0.213,-0.837,1.116,-122.552,-78.82,218.4,
42970940,1.96,-0.547,1.01,-56.245,-122.412,169.207,
42970940,1.422,-0.961,0.802,23.572,-101.675,150.255,
42970960,1.998,-0.704,1.029,64.032,-100.38,-4.97,
42970960,1.33,0.401,0.163,107.152,-119.805,-189.052,
42970980,-0.477,0.674,0.312,113.085,-119.122,-268.1,
42970980,-1.103,0.713,-0.105,131.285,-152.127,-245.665,
42971000,-0.607,0.872,-0.915,158.707,-168.805,-199.535,
42971000,-0.162,0.782,-1.134,136.22,-134.26,-171.01,
42971010,-0.181,-0.064,-0.493,70.857,-107.537,-204.4,
42971020,0.068,-1.349,-0.475,27.352,-89.092,-305.41,
42971030,-0.54,-1.45,-0.601,20.16,-65.345,-398.352,
42971040,-1.12,-1.894,-0.556,-6.597,-73.255,-451.605,
42971050,0.667,-1.998,1.326,-76.265,331.31,-339.08,
42971060,-1.998,-0.271,-0.158,-58.922,360.92,72.677,
42971070,1.408,1.997,0.811,391.475,-1.47,-103.057,
42971080,0.436,-1.164,-0.718,-318.255,-43.715,100.152,
42971090,-0.479,-0.486,0.823,-146.317,-107.012,-18.34,
42971100,1.167,0.729,1.251,45.552,-106.75,-20.265,
42971110,0.505,-1.742,0.638,-126.262,-75.46,2.327,
42971120,0.377,0.198,1.066,12.425,-37.992,-3.762,
42971130,0.325,-0.62,0.805,-35.455,-23.03,-6.562,
42971140,0.412,-0.486,0.862,-15.75,-4.62,-8.067,
42971150,0.381,-0.031,0.945,11.007,13.685,-4.147,
42971160,0.097,-0.473,0.953,1.645,23.502,2.415,
42971170,0.013,-0.07,1.002,16.677,27.422,1.872,
42971180,-0.113,-0.281,1.014,4.182,22.977,-0.77,
42971190,-0.072,-0.153,1.018,1.26,16.082,-4.83,
42971200,-0.071,-0.181,0.996,-6.755,9.205,-7.84,
42971210,-0.023,-0.202,0.975,-10.43,3.237,-9.66,
42971220,0.064,-0.214,0.947,-9.8,-0.14,-8.592,
42971230,0.036,-0.254,0.982,-9.66,-0.595,-7.21,
42971240,0.052,-0.139,1.001,-9.87,-0.665,-6.685,
42971250,0.08,-0.286,0.922,-16.082,-1.102,-6.3,
42971260,0.105,-0.31,0.915,-9.415,1.855,-5.005,
42971270,0.119,-0.278,0.941,-2.065,5.775,-4.69,
42971280,0.136,-0.273,0.929,2.065,9.887,-2.992,
42971280,0.147,-0.253,0.969,6.09,14.42,-1.312,
42971300,0.092,-0.201,1.02,6.282,18.305,0.332,
42971300,0,-0.172,1.052,0.665,19.722,1.47,
42971320,-0.045,-0.101,1.11,-7.297,18.497,-0.21,
42971320,-0.061,-0.063,1.197,-20.912,15.68,-5.18,
42971330,-0.02,-0.068,1.301,-42.752,13.055,-12.39,
42971340,0.013,-0.061,1.334,-70.052,13.195,-19.6,
42971350,0.078,-0.094,1.415,-107.572,18.935,-30.432,
42971360,0.031,-0.168,1.283,-141.557,14.647,-30.362,
42971370,0.045,-0.168,1.21,-165.392,1.75,-11.34,
42971380,-0.125,-0.08,1.111,-179.462,-8.295,10.08,
42971390,-0.312,-0.044,1.061,-196.77,-21,19.32,
42971400,-0.434,-0.163,1.024,-214.602,-40.372,19.652,
42971410,-0.551,-0.607,1.068,-221.462,-62.422,13.982,
42971420,-0.418,-0.861,0.914,-197.487,-85.102,3.745,
42971430,0.033,-1.004,0.663,-147.647,-78.802,-5.372,
42971440,0.223,-0.961,0.508,-94.587,-57.085,-21.105,
42971450,-0.298,-1.42,0.703,-55.72,-28.805,-23.362,
42971460,-1.464,-1.01,0.578,26.355,5.215,26.32,
42971470,-1.34,0.259,0.218,145.775,9.852,94.517,
42971480,-0.23,0.055,-0.085,149.467,7.052,162.785,
42971490,0.045,-0.252,-0.202,130.305,0.647,154.682,
42971500,0.147,0.051,-0.679,172.13,8.05,147.07,
42971510,-0.195,0.661,-1.223,210.105,12.53,149.187,
42971520,-0.641,0.996,-1.71,184.572,-3.307,149.52,
42971530,-1.803,0.426,0.556,90.247,-72.59,140.98,
42971540,0.31,-1.904,0.627,76.965,-327.74,-86.887,
42971550,0.847,-1.597,1.368,372.067,-34.982,-243.162,
42971560,0.633,1.762,1.899,488.88,120.19,-122.517,
42971570,-0.962,1.548,1.463,265.895,246.732,-11.252,
42971580,0.165,0.812,1.18,107.397,67.06,53.2,
42971590,-0.59,-0.025,1.238,-75.355,-50.715,32.375,
42971600,0.772,-0.725,0.998,-98.315,-70.752,24.937,
42971610,-0.34,-0.191,1.032,-67.27,-51.432,28.84,
42971620,0.057,-0.429,0.922,-62.72,-45.832,26.932,
42971630,0.303,-0.492,0.839,-65.432,-44.362,8.137,
42971640,0.52,-0.732,0.713,-39.672,-24.412,4.637,
42971650,0.236,-0.444,0.872,2.502,3.64,8.032,
42971660,0.126,-0.144,0.984,19.197,16.45,4.357,
42971670,0.087,-0.171,1.024,17.482,19.845,4.27,
42971670,-0.056,-0.114,1.037,11.025,19.372,4.917,
42971690,-0.153,-0.069,1.062,-1.417,13.09,2.625,
42971690,-0.077,-0.17,1.018,-15.82,3.64,-0.7,
42971710,0.038,-0.27,0.958,-23.257,-1.47,-3.185,
42971710,0.021,-0.195,1.007,-21.857,-1.837,-4.165,
42971730,0.06,-0.155,1.055,-25.97,-2.852,-4.917,
42971730,0.017,-0.137,1.085,-34.492,-3.29,-4.585,
42971750,-0.021,-0.139,1.113,-45.517,-5.197,-6.16,
42971750,0.031,-0.144,1.133,-57.68,-6.895,-10.08,
42971760,0.047,-0.147,1.163,-69.912,-3.535,-15.05,
42971770,0.102,-0.102,1.195,-86.065,4.095,-21.84,
42971780,0.118,-0.139,1.191,-107.082,13.265,-26.81,
42971790,0.1,-0.073,1.21,-122.902,25.882,-30.975,
42971800,-0.019,-0.159,1.266,-136.062,24.377,-31.535,
42971810,0.174,-0.224,1.252,-156.905,32.305,-40.46,
42971820,0.106,-0.165,1.223,-163.59,42.577,-46.48,
42971830,0.076,-0.4,1.184,-173.267,53.672,-37.73,
42971840,0.147,-0.664,1.212,-174.002,67.882,-21.945,
42971850,-0.147,-0.577,1.156,-141.627,68.022,-5.18,
42971860,-0.333,-0.375,1.135,-106.54,32.97,-13.615,
42971870,-0.328,-0.786,0.657,-89.547,0.56,-16.345,
42971880,-0.003,-0.991,0.622,-50.697,-2.52,-10.237,
42971890,-0.849,-0.822,0.317,-6.265,-2.45,-19.827,
42971900,-0.472,-0.642,0.508,47.757,-2.625,-10.692,
42971910,-1.67,-0.303,-0.147,100.87,-28.245,5.005,
42971920,-0.904,0.232,-0.296,156.975,-6.072,96.565,
42971930,0.088,-0.016,-0.888,146.545,-13.247,100.922,
42971940,0.51,0.217,-1.503,137.917,-11.27,49.105,
42971950,0.196,0.689,-1.044,104.317,0.017,-8.592,
42971960,-0.103,-0.099,-0.664,22.277,-26.932,-84.752,
42971970,-0.091,-0.808,0.476,-3.22,-39.62,-140.367,
42971980,-0.248,-1.998,1.731,149.187,-139.387,-257.04,
42971990,1.998,-1.38,0.83,454.055,-50.732,-225.89,
42972000,1.998,0.722,1.998,413.105,72.327,-100.1,
42972010,-0.196,0.788,1.721,365.627,234.307,-48.545,
42972010,-1.509,1.407,0.932,187.18,133.647,29.015,
42972030,-0.302,0.233,1.252,-51.555,-19.232,33.372,
42972030,-0.216,-0.422,1.128,-108.202,-77.612,21.7,
42972050,0.318,-0.632,0.942,-98.822,-74.165,26.18,
42972050,-0.003,-0.325,0.886,-72.047,-58.572,18.41,
42972070,0.321,-0.694,0.857,-56.805,-50.802,4.025,
42972070,0.563,-0.498,0.785,-31.867,-30.502,1.085,
42972080,0.235,-0.364,0.912,4.235,-4.287,3.955,
42972090,0.047,-0.224,0.994,17.15,8.872,4.095,
42972100,0.143,-0.131,1.006,14.122,11.077,0.752,
42972110,0.036,-0.084,1.048,8.977,12.232,3.43,
42972120,-0.052,-0.094,1.014,-0.157,9.66,8.697,
42972130,-0.133,-0.143,1.021,-9.59,3.797,7.227,
42972140,-0.055,-0.229,0.972,-17.255,-2.975,2.642,
42972150,0.029,-0.209,0.981,-18.725,-6.562,-1.802,
42972160,0.036,-0.157,0.999,-18.62,-7.28,-1.645,
42972170,-0.016,-0.183,0.991,-21.087,-8.627,0.07,
42972180,0.015,-0.171,1.012,-23.695,-11.147,0.63,
42972190,0.044,-0.12,1.042,-27.842,-13.072,1.907,
42972200,0.069,-0.205,0.984,-33.897,-13.755,3.535,
42972210,0.062,-0.301,0.923,-32.9,-13.247,6.265,
42972220,0.092,-0.304,0.909,-26.337,-11.322,7.245,
42972230,0.106,-0.315,0.904,-18.952,-7.385,6.825,
42972240,0.128,-0.273,0.943,-12.635,-3.08,6.615,
42972250,0.17,-0.231,0.991,-8.995,1.907,7.385,
42972260,0.142,-0.213,1.04,-10.22,7.262,9.065,
42972270,0.136,-0.175,1.095,-17.622,12.6,9.87,
42972280,0.161,-0.147,1.16,-31.045,17.972,9.66,
42972290,0.228,-0.132,1.214,-51.87,25.567,9.87,
42972300,0.214,-0.213,1.23,-78.61,32.742,15.277,
42972310,0.377,-0.22,1.219,-106.557,29.995,31.325,
42972320,0.198,-0.28,1.176,-124.565,36.207,51.852,
42972330,0.112,-0.367,1.082,-138.95,34.212,69.667,
42972340,0.091,-0.424,1.076,-131.285,32.462,90.23,
42972350,0.049,-0.292,1.22,-122.692,24.15,100.765,
42972360,0.167,-0.401,1.223,-135.222,18.27,109.55,
42972370,0.223,-0.687,1.19,-141.872,7.42,124.547,
42972380,0.563,-1.369,0.806,-114.03,-24.99,127.05,
42972390,0.29,-0.814,0.764,-52.482,-51.555,135.187,
42972400,-0.447,-0.594,0.996,-6.387,-74.935,141.662,
42972410,0.809,-0.326,0.328,25.165,-125.107,99.645,
42972420,1.653,-1.107,0.704,59.885,-107.327,88.795,
42972420,1.373,-0.379,0.172,122.937,-88.795,5.845,
42972440,-0.233,0.488,-0.134,160.457,-89.495,-62.615,
42972440,-0.488,0.56,-0.303,118.807,-128.922,-113.242,
42972460,-0.047,0.516,-1.035,91.63,-132.615,-132.265,
42972460,-0.475,1.037,-0.835,77.875,-103.705,-128.292,
42972480,-1.01,0.71,-0.363,16.222,-95.917,-125.737,
42972480,-0.338,-0.125,-0.463,-23.047,-89.74,-129.185,
42972500,1.237,-1.312,0.263,-8.015,34.422,-88.095,
42972500,-1.949,-1.998,1.79,141.015,258.475,71.82,
42972510,1.544,0.587,1.968,496.51,163.205,-76.44,
42972520,-1.366,1.997,0.903,303.152,275.397,-24.325,
42972530,-0.03,0.406,1.014,48.335,35.07,10.027,
42972540,-0.816,-0.403,1.189,-141.96,-53.55,17.605,
42972550,0.394,0.173,0.936,-45.185,-84.927,-7.437,
42972560,0.348,-1.135,0.912,-56.857,-64.277,2.94,
42972570,0.183,-0.129,0.995,-11.235,-39.725,-6.947,
42972580,0.282,-0.348,0.953,-23.362,-28.07,-6.352,
42972590,0.142,-0.269,0.951,-9.782,-17.202,-0.63,
42972600,0.171,-0.346,0.938,-11.095,-10.027,-2.24,
42972610,0.086,-0.154,1.025,-2.292,-3.097,-1.295,
42972620,0.003,-0.069,1.035,-6.632,-2.257,1.662,
42972630,0.038,-0.155,0.982,-14.017,-5.127,4.812,
42972640,-0.016,-0.296,0.954,-16.275,-6.597,6.755,
42972650,-0.02,-0.238,0.931,-12.705,-8.067,5.092,
42972660,-0.008,-0.302,0.958,-12.197,-10.587,1.557,
42972670,0.075,-0.169,1.004,-10.482,-11.882,-0.822,
42972680,0.05,-0.204,0.995,-13.93,-12.337,1.785,
42972690,-0.041,-0.176,1.018,-17.482,-13.545,2.292,
42972700,0.047,-0.194,0.996,-22.4,-17.745,-0.245,
42972710,0.141,-0.254,0.922,-24.202,-18.585,-0.385,
42972720,0.199,-0.382,0.853,-18.777,-14.087,1.102,
42972730,0.199,-0.367,0.873,-7.332,-5.582,1.19,
42972740,0.202,-0.28,0.918,1.75,3.447,2.275,
42972750,0.165,-0.31,0.955,4.777,10.85,3.255,
42972760,0.083,-0.188,0.999,9.485,16.432,5.32,
42972760,0.031,-0.2,1.018,5.075,17.867,4.865,
42972780,0.022,-0.201,1.017,0.77,16.887,4.165,
42972780,0.022,-0.193,1.034,-3.972,15.505,3.29,
42972800,0.017,-0.162,1.088,-12.197,13.947,1.4,
42972800,-0.019,-0.121,1.139,-23.047,12.005,0.49,
42972820,0,-0.107,1.204,-39.13,10.622,-2.975,
42972820,0.02,-0.096,1.236,-59.99,11.41,-8.575,
42972830,0.073,-0.117,1.19,-84.91,13.405,-12.547,
42972840,0.059,-0.272,1.095,-110.46,12.11,-7.07,
42972850,-0.094,-0.294,1.126,-123.182,1.085,8.435,
42972860,0.049,-0.237,1.114,-130.777,-16.537,26.32,
42972870,-0.133,-0.364,1.088,-138.792,-29.855,42.647,
42972880,-0.222,-0.585,1.084,-140.245,-45.01,56.805,
42972890,-0.28,-0.751,1.011,-117.792,-59.727,68.442,
42972900,-0.471,-1.004,0.741,-88.077,-91.28,58.345,
42972910,-0.277,-1.323,0.972,-47.477,-107.45,45.045,
42972920,-0.596,-1.831,0.676,4.34,-110.74,43.347,
42972930,-0.985,-1.577,-0.101,105.227,-45.29,125.615,
42972940,-1.171,-0.575,-0.304,185.167,37.152,265.492,
42972950,0.143,-0.866,-0.412,121.327,-16.922,228.76,
42972960,1.218,-1.674,-0.58,42.63,-15.102,176.19,
42972970,0.951,-0.957,-0.875,69.615,30.765,121.292,
42972980,0.19,-0.059,-0.92,70.647,54.705,52.92,
42972990,0.192,0.142,-0.741,-15.032,38.36,-32.462,
42973000,0.333,0.245,1.116,-79.502,14.332,-82.46,
42973010,0.184,0.529,0.847,120.89,-57.032,-136.29,
42973020,-1.217,1.997,-0.145,508.322,-124.285,-84.77,
42973030,1.998,-1.236,1.271,227.535,-12.722,-30.17,
42973040,-0.015,1.151,0.505,284.865,191.047,-35.28,
42973050,-1.408,1.135,0.848,184.975,117.442,34.72,
42973060,0.062,-1.226,1.405,-101.885,-22.925,21.682,
42973070,-0.302,0.107,1.017,-65.537,-76.947,7.682,
42973080,0.534,-0.708,0.921,-66.01,-72.572,14,
42973090,-0.076,-0.409,1.002,-32.34,-56.665,5.757,
42973100,0.347,-0.275,0.953,-35.017,-48.037,1.102,
42973110,0.273,-0.296,0.946,-26.775,-35.157,0.822,
42973120,0.26,-0.356,0.928,-16.222,-20.982,5.565,
42973130,0.1,-0.204,0.974,-7.857,-10.535,5.197,
42973140,0.125,-0.17,0.962,-6.247,-6.772,5.057,
42973150,0.178,-0.32,0.922,-4.077,-2.327,5.232,
42973160,0.036,-0.234,0.976,5.827,4.305,7,
42973170,-0.09,-0.162,0.994,8.12,4.865,8.067,
42973170,-0.069,-0.183,0.991,2.24,-0.49,4.76,
42973190,0,-0.167,0.989,-2.362,-5.46,2.065,
42973190,0,-0.141,1.003,-6.527,-8.575,1.067,
42973210,0.002,-0.194,0.979,-10.202,-11.567,1.767,
42973210,0.039,-0.198,0.976,-11.287,-13.492,1.382,
42973230,0.086,-0.212,0.971,-11.48,-13.545,0.997,
42973230,0.064,-0.205,0.969,-11.007,-12.337,1.645,
42973250,0.107,-0.274,0.937,-9.835,-10.745,1.89,
42973250,0.114,-0.266,0.95,-5.005,-7.245,1.767,
42973260,0.128,-0.226,0.952,-0.542,-3.43,2.24,
42973270,0.13,-0.224,0.966,1.82,0.542,2.677,
42973280,0.125,-0.199,0.984,3.622,4.707,3.902,
42973290,0.125,-0.19,1.006,4.27,8.312,6.335,
42973300,0.052,-0.138,1.044,1.435,10.867,8.732,
42973310,0.107,-0.108,1.104,-8.557,11.182,9.677,
42973320,0.171,-0.069,1.163,-24.5,12.267,12.162,
42973330,0.233,-0.079,1.256,-42.98,15.837,15.645,
42973340,0.345,-0.043,1.337,-66.99,23.17,23.957,
42973350,0.279,-0.21,1.302,-110.495,34.632,41.597,
42973360,0.361,-0.469,1.164,-153.65,25.392,70.175,
42973370,0.158,-0.39,1.138,-147,24.745,105.525,
42973380,-0.611,-0.148,1.123,-144.06,-36.785,130.497,
42973390,0.451,-0.705,0.917,-183.067,-78.435,154.367,
42973400,0.47,-1.155,0.813,-173.547,-62.492,194.985,
42973410,-0.218,-1.187,0.906,-112.63,-59.377,207.06,
42973420,-0.768,-1.35,1.312,-70.192,-99.715,200.025,
42973430,-0.731,-1.936,0.885,-27.422,-175.14,153.37,
42973440,1.212,-1.297,-0.641,67.55,-141.89,133.105,
42973450,0.875,-0.746,-0.149,118.177,-40.74,154.35,
42973460,-0.055,-0.552,-0.361,81.83,-55.002,12.687,
42973470,-0.04,-0.629,-0.504,58.695,-50.89,-93.082,
42973480,-0.458,-0.257,-1.054,55.72,-35.437,-155.417,
42973490,-1.11,0.416,-1.034,29.452,-26.197,-181.072,
42973500,-1.291,0.35,-0.554,-71.522,-40.652,-166.145,
42973510,-0.448,-0.462,-0.587,-134.627,-42.7,-135.852,
42973510,0.697,-0.269,1.7,-31.29,85.872,-87.115,
42973530,-1.797,0.429,-1.391,335.86,43.627,-75.81,
42973530,1.566,0.693,1.169,487.637,65.187,-26.635,
42973550,0.518,-0.671,0.794,250.652,267.61,-16.38,
42973550,-1.63,1.997,1.154,319.427,134.312,14.49,
42973570,1.008,-1.573,1.001,-175.07,-18.935,39.445,
42973570,-1.171,1.044,0.93,-67.655,-92.347,7.017,
42973580,0.93,-1.667,0.967,-77.49,-86.117,20.37,
42973590,-0.168,0.059,0.991,-39.76,-66.885,4.305,
42973600,0.634,-0.672,0.876,-50.067,-53.812,-0.91,
42973610,0.419,-0.211,0.905,-19.39,-31.692,4.707,
42973620,0.29,-0.549,0.849,-5.565,-10.272,11.095,
42973630,0.173,-0.227,0.969,12.81,4.742,7.752,
42973640,0.083,-0.119,1.003,13.492,9.572,7.227,
42973650,0.012,-0.163,1.003,8.172,8.365,8.487,
42973660,-0.026,-0.21,0.969,3.99,4.707,7.822,
42973670,-0.069,-0.167,0.998,0.84,0.157,3.885,
42973680,0.021,-0.212,0.984,-7.402,-5.792,-1.715,
42973690,0.057,-0.192,0.984,-11.9,-8.942,-4.585,
42973700,0.071,-0.179,0.991,-14.437,-9.852,-5.162,
42973710,0.058,-0.172,1,-18.007,-10.71,-4.935,
42973720,0.079,-0.176,1.005,-23.555,-11.532,-5.512,
42973730,0.041,-0.165,0.998,-26.442,-12.337,-5.827,
42973740,0.06,-0.236,1.001,-29.382,-13.737,-7.315,
42973750,0.092,-0.22,1.005,-32.567,-14.157,-9.817,
42973760,0.149,-0.226,1.015,-34.317,-14.35,-10.955,
42973770,0.11,-0.184,1.066,-36.802,-12.145,-10.57,
42973780,0.046,-0.13,1.162,-44.17,-10.36,-12.215,
42973790,0.063,-0.075,1.249,-59.255,-12.127,-15.837,
42973800,0.101,-0.042,1.271,-82.39,-7.035,-21.21,
42973810,0.086,0.061,1.276,-108.657,6.51,-28.84,
42973820,-0.099,-0.025,1.218,-140.262,20.667,-39.112,
42973830,-0.124,-0.191,1.226,-176.592,5.967,-33.11,
42973840,-0.082,-0.162,1.165,-196.472,-15.505,-29.207,
42973850,-0.227,-0.039,1.145,-209.842,-31.867,-25.375,
42973860,-0.404,-0.276,1.118,-233.45,-50.295,-30.467,
42973870,-0.628,-0.369,1.142,-242.27,-83.65,-43.295,
42973880,-0.649,-0.406,1.139,-243.18,-126.192,-60.322,
42973890,-0.177,-0.682,1.046,-241.412,-156.082,-70.805,
42973900,0.448,-1.186,0.837,-204.242,-152.337,-70.367,
42973910,0.681,-1.63,1.277,-145.145,-57.732,-49.682,
42973920,-1.526,0.026,1.809,17.482,91.542,57.242,
42973920,-1.854,1.267,1.076,204.067,79.257,138.215,
42973940,-0.924,0.762,0.107,217.157,25.445,224.752,
42973940,1.409,-0.147,-0.05,210.49,43.47,247.362,
42973960,1.61,-0.348,-0.494,233.082,77.647,156.765,
42973960,0.95,0.261,-1.172,260.225,93.87,54.285,
42973970,0.218,0.148,-1.356,197.365,85.207,-27.265,
42973980,-0.132,-0.285,-1.428,103.46,44.432,-98.175,
42973990,-0.917,-0.762,-1.178,24.01,7.017,-122.132,
42974000,-0.262,-1.934,1.743,93.24,-126.052,-209.405,
42974010,1.067,-1.2,-1.151,424.865,71.487,-297.325,
42974020,-0.03,1.954,1.898,497.98,148.242,-116.777,
42974030,0.398,-0.123,1.411,338.45,270.025,-49.087,
42974040,-1.638,1.793,0.503,183.102,130.532,36.75,
42974050,1.269,-1.483,1.289,-36.977,-22.942,46.34,
42974060,-0.859,0.19,1.054,-50.767,-60.252,21.7,
42974070,1.008,-0.652,0.99,-60.83,-55.86,11.305,
42974080,-0.117,-0.228,1.016,-38.517,-35.647,15.312,
42974090,0.16,-0.319,0.961,-34.667,-28.035,17.622,
42974100,0.298,-0.385,0.921,-18.69,-18.375,13.317,
42974110,0.107,-0.402,0.921,-8.312,-3.797,10.237,
42974120,0.033,-0.104,0.994,0.892,3.36,4.392,
42974130,0.132,-0.22,0.954,-3.412,5.337,2.607,
42974140,0.054,-0.144,0.993,-0.455,8.155,2.73,
42974150,-0.051,-0.132,1,-1.645,7.805,3.745,
42974160,-0.137,-0.142,1.003,-7.472,2.362,1.89,
42974170,-0.057,-0.145,0.989,-15.312,-5.6,-2.572,
42974180,0.054,-0.22,0.962,-19.197,-9.835,-5.372,
42974190,0.066,-0.224,0.959,-16.467,-9.572,-5.915,
42974200,0.048,-0.193,0.98,-13.737,-8.032,-6.107,
42974210,0.04,-0.14,0.987,-13.79,-7.402,-5.565,
42974220,0.055,-0.221,0.96,-15.19,-7.63,-5.18,
42974230,0.058,-0.224,0.964,-13.055,-7,-5.915,
42974240,0.075,-0.181,0.975,-11.62,-5.792,-6.107,
42974250,0.103,-0.259,0.946,-10.745,-3.657,-5.792,
42974260,0.087,-0.196,0.989,-6.842,-0.437,-6.685,
42974260,0.088,-0.156,1.007,-8.505,1.802,-6.527,
42974280,0.049,-0.163,1.028,-12.81,3.43,-5.81,
42974280,-0.002,-0.168,1.042,-17.062,3.5,-6.247,
42974300,0.013,-0.118,1.087,-22.662,1.61,-5.355,
42974300,-0.013,-0.126,1.147,-37.642,-1.382,-4.13,
42974320,-0.004,-0.043,1.257,-53.305,-5.862,-3.745,
42974320,0.059,-0.034,1.298,-76.177,-7.385,-7.122,
42974330,0.103,-0.071,1.296,-102.375,3.237,-15.382,
42974340,0.169,-0.079,1.187,-131.127,10.22,-18.322,
42974350,0.089,-0.259,1.166,-155.207,3.92,-9.747,
42974360,-0.031,-0.193,1.272,-166.547,-1.365,-2.222,
42974370,0.104,-0.475,1.211,-174.072,-0.805,12.215,
42974380,0.063,-0.729,1.041,-163.292,7.49,35.315,
42974390,-0.282,-0.628,1.004,-126.927,2.485,40.792,
42974400,-0.165,-0.723,0.993,-100.66,-12.565,23.065,
42974410,0.3,-1.314,1.06,-70.227,0.49,3.902,
42974420,-0.287,-1.392,1.034,-0.28,24.5,-7.245,
42974430,-0.235,-0.669,0.144,95.48,19.897,-29.68,
42974440,-0.701,0.538,0.004,134.575,3.815,-15.995,
42974450,-0.06,0.062,0.014,70.315,-20.86,-14.49,
42974460,0.088,-0.207,-0.298,62.965,-24.29,-29.995,
42974470,0.096,0.501,-1.119,105.665,0.087,-26.232,
42974480,-0.108,1.142,-0.989,80.465,17.465,-32.97,
42974490,0.141,0.219,-0.751,-20.02,7.122,-61.18,
42974500,0.778,-0.349,-0.885,-43.26,16.275,-92.05,
42974510,-0.143,-0.571,0.339,3.71,41.16,-115.272,
42974520,-1.717,-1.998,0.532,212.222,-78.522,-170.1,
42974530,1.812,-0.745,1.998,501.777,34.58,-88.235,
42974540,0.133,1.303,1.598,401.065,248.08,-36.575,
42974550,-1.335,1.025,0.926,184.327,146.737,33.827,
42974560,0.225,-0.095,1.259,-44.887,-11.672,15.855,
42974570,-0.219,-0.373,1.01,-88.287,-65.03,3.5,
42974580,0.455,-0.644,0.893,-72.31,-57.365,6.772,
42974590,-0.072,-0.389,0.908,-34.265,-35.525,6.667,
42974600,0.019,-0.284,1.012,-20.195,-34.037,-1.487,
42974610,0.284,-0.258,0.949,-29.837,-30.275,-6.09,
42974620,0.172,-0.277,0.98,-16.397,-19.477,0.402,
42974630,-0.001,-0.145,1.009,-15.312,-12.862,2.957,
42974640,0.09,-0.187,0.954,-20.282,-12.792,1.61,
42974640,0.15,-0.288,0.931,-14.735,-9.537,3.972,
42974660,0.006,-0.251,0.955,-4.777,-4.165,8.4,
42974660,-0.168,-0.11,1.014,-2.59,-5.53,9.012,
42974670,-0.165,-0.106,1.028,-13.265,-14.962,4.41,
42974680,-0.003,-0.184,0.999,-25.077,-24.132,0.577,
42974690,0.05,-0.186,0.994,-29.96,-27.86,-0.105,
42974700,0.06,-0.165,1,-31.552,-29.207,0.927,
42974710,0.079,-0.225,0.985,-31.395,-29.627,3.115,
42974720,0.072,-0.198,0.985,-31.185,-29.592,3.692,
42974730,0.157,-0.333,0.921,-32.847,-28.525,1.75,
42974740,0.238,-0.328,0.88,-25.34,-22.61,0.945,
42974750,0.281,-0.37,0.862,-15.312,-11.672,1.715,
42974760,0.231,-0.311,0.908,-3.71,1.207,2.782,
42974770,0.15,-0.241,0.988,1.907,10.92,3.92,
42974780,0.06,-0.18,1.039,1.89,14.857,4.987,
42974790,0.003,-0.102,1.108,-6.86,13.457,3.78,
42974800,0.015,-0.129,1.166,-24.01,9.362,1.732,
42974810,0.017,-0.032,1.236,-41.16,6.195,1.347,
42974820,0.048,-0.028,1.278,-66.745,6.387,0.822,
42974830,-0.007,-0.063,1.257,-98.56,6.912,-1.172,
42974840,-0.065,-0.176,1.22,-129.587,-1.155,0.682,
42974850,-0.069,-0.195,1.213,-147.437,-24.535,8.522,
42974860,0.018,-0.196,1.121,-158.777,-54.39,20.912,
42974870,-0.216,-0.451,1.138,-160.965,-77.717,37.695,
42974880,-0.419,-0.664,1.215,-153.562,-106.487,45.01,
42974890,-0.496,-0.755,1.118,-130.147,-139.877,49.175,
42974900,-0.128,-0.994,0.862,-109.585,-156.397,36.575,
42974910,0.011,-1.723,0.84,-78.61,-148.592,24.132,
42974920,0.358,-1.759,0.383,21.665,-117.25,23.782,
42974930,0.272,-1.265,0.264,99.155,-3.902,73.062,
42974940,-0.457,-0.46,-0.145,137.34,57.942,73.237,
42974950,0.166,-0.285,-0.342,131.687,61.197,58.012,
42974960,0.4,-0.531,-0.524,81.112,72.467,25.235,
42974970,0.065,-0.231,-0.738,62.562,75.915,-18.462,
42974980,-0.461,-0.193,-0.84,14.717,85.715,-40.722,
42974990,-0.551,-0.215,-0.849,-32.497,80.5,-48.702,
42975000,-0.573,-0.265,-0.837,-68.127,68.67,-36.26,
42975010,-0.813,0.369,0.638,-58.642,61.232,-19.687,
42975010,1.517,-0.166,-0.285,185.43,19.495,-114.345,
42975030,-1.196,0.669,0.641,484.47,-2.222,-54.495,
42975030,1.695,-1.493,1.998,363.265,83.562,-23.73,
42975050,-0.254,1.967,1.973,405.842,213.762,-5.285,
42975050,-1.438,1.739,1.095,171.482,131.932,34.055,
42975070,-0.751,0.195,1.308,-36.172,-17.885,29.242,
42975070,0.003,-0.477,0.926,-105.91,-74.287,14.385,
42975080,0.079,-0.676,0.868,-84.455,-70.56,11.06,
42975090,0.224,-0.387,0.877,-54.512,-57.785,3.36,
42975100,0.462,-0.512,0.948,-39.27,-43.12,-6.265,
42975110,0.195,-0.169,0.984,-22.662,-22.54,3.342,
42975120,0.113,-0.281,0.988,-23.117,-13.055,2.52,
42975130,0.057,-0.127,0.966,-24.657,-9.275,2.03,
42975140,0.16,-0.291,0.882,-21.857,-7.262,0.49,
42975150,0.167,-0.423,0.865,-6.72,-0.315,1.067,
42975160,0.002,-0.252,0.937,8.645,7.245,-0.35,
42975170,-0.033,-0.194,0.989,12.845,7.437,-2.782,
42975180,-0.123,-0.066,1.06,9.59,2.765,-2.397,
42975190,-0.131,-0.043,1.031,-2.782,-6.72,-0.595,
42975200,-0.024,-0.186,1.002,-16.887,-16.012,-2.817,
42975210,0.007,-0.146,0.997,-20.107,-20.3,-0.14,
42975220,-0.018,-0.145,1.025,-23.765,-23.065,1.942,
42975230,-0.042,-0.139,1.014,-29.347,-27.58,3.552,
42975240,0.091,-0.259,0.962,-34.597,-32.252,2.87,
42975250,0.208,-0.324,0.896,-31.675,-30.187,2.922,
42975260,0.228,-0.352,0.889,-21.21,-21.857,5.075,
42975270,0.158,-0.267,0.945,-11.13,-12.757,7.227,
42975280,0.099,-0.223,0.993,-8.942,-7.42,7.665,
42975290,0.102,-0.187,1.026,-11.742,-5.582,7.192,
42975300,0.171,-0.181,1.042,-17.115,-3.78,7.525,
42975310,0.191,-0.171,1.076,-23.467,-0.14,9.905,
42975320,0.274,-0.129,1.14,-33.88,5.285,14.49,
42975330,0.31,-0.092,1.23,-53.462,15.015,19.617,
42975330,0.324,-0.119,1.265,-85.26,25.935,30.397,
42975350,0.431,-0.252,1.217,-123.567,15.662,54.302,
42975350,0.466,-0.449,1.144,-146.317,10.71,89.67,
42975370,0.247,-0.402,1.111,-148.172,6.527,121.835,
42975370,-0.207,-0.313,1.082,-135.73,-11.987,146.212,
42975390,0.051,-0.381,1.176,-158.34,-50.715,161.525,
42975390,0.68,-1.128,1.024,-192.045,-49.385,181.37,
42975410,0.604,-1.403,1.269,-147.105,-65.362,204.085,
42975410,0.713,-1.051,1.017,-72.992,-93.485,209.912,
42975420,0.485,-0.714,0.831,-12.687,-110.407,215.635,
42975430,1.237,-0.43,0.713,39.112,-137.917,203.735,
42975440,1.195,-0.818,0.464,95.235,-127.155,214.637,
42975450,1.819,-0.21,-0.24,135.572,-84.647,159.757,
42975460,1.218,0.188,-0.677,123.462,-70.35,24.43,
42975470,0.048,0.367,-0.953,78.925,-79.695,-152.81,
42975480,-0.808,0.564,-0.844,28.98,-90.37,-284.357,
42975490,-1.725,0.217,-0.608,-36.435,-113.172,-347.182,
42975500,-1.911,-0.178,-0.721,-73.902,-110.897,-356.93,
42975510,-1.365,-0.401,-0.954,-73.15,-64.522,-321.457,
42975520,-0.124,-1.698,1.296,-81.462,146.667,-189.63,
42975530,-1.998,-1.998,1.596,201.022,355.897,-15.137,
42975540,1.595,1.016,1.154,554.837,189.857,-191.94,
42975550,0.674,0.99,1.228,349.597,325.535,-53.497,
42975560,-1.041,1.985,1.667,213.097,158.445,21.84,
42975570,0.114,-1.576,0.874,-112.7,-14.63,39.707,
42975580,-0.74,1.201,1.082,-40.372,-81.532,-5.075,
42975590,0.936,-1.488,0.827,-88.515,-84.647,15.89,
42975600,0.134,0.048,1.041,-15.89,-56.595,17.92,
42975610,0.121,-0.688,0.855,-46.252,-43.96,12.582,
42975620,0.448,-0.313,0.888,-21.945,-31.937,3.272,
42975630,0.358,-0.541,0.815,-14.56,-13.405,6.597,
42975640,0.154,-0.222,0.964,4.095,4.515,4.2,
42975650,0.164,-0.255,0.938,6.09,10.517,1.977,
42975660,0.134,-0.218,0.981,10.657,15.627,3.447,
42975670,-0.106,-0.159,0.999,12.127,17.71,6.965,
42975680,-0.131,-0.161,1.008,5.915,9.957,3.202,
42975690,-0.042,-0.18,1.007,-1.68,1.102,-1.557,
42975700,0.043,-0.159,0.997,-6.527,-3.832,-3.447,
42975710,0.016,-0.167,1.015,-11.952,-6.107,-5.372,
42975720,0.078,-0.177,1.012,-18.287,-7.455,-5.04,
42975730,0.087,-0.185,1.05,-22.89,-6.825,-2.537,
42975740,-0.008,-0.11,1.084,-29.155,-8.19,-0.035,
42975750,0.105,-0.17,1.095,-42.717,-12.46,-1.085,
42975760,0.172,-0.173,1.106,-52.447,-12.985,-0.472,
42975760,0.189,-0.21,1.097,-61.565,-8.435,0.385,
42975780,0.245,-0.242,1.082,-69.265,3.342,0.595,
42975780,0.272,-0.212,1.117,-76.212,20.352,2.782,
42975800,0.091,-0.282,1.101,-87.622,28.84,11.515,
42975800,0.02,-0.382,1.049,-100.765,26.582,22.925,
42975820,0.114,-0.609,1.07,-99.662,16.782,47.827,
42975820,0.325,-0.53,0.876,-86.327,17.185,78.54,
42975830,0.213,-0.803,0.766,-67.357,15.575,98.962,
42975840,0.007,-0.654,0.743,-38.395,5.81,112.42,
42975850,-0.321,-0.566,0.585,-15.575,-29.242,111.44,
42975860,0.268,-0.614,0.481,-7.647,-64.33,110.057,
42975870,0.425,-0.698,0.383,2.975,-58.467,117.81,
42975880,0.273,-0.244,0.273,44.8,-46.515,108.85,
42975890,-0.443,0.29,0.076,76.02,-37.38,83.3,
42975900,-0.211,0.426,-0.391,90.02,-23.572,60.042,
42975910,-0.846,0.225,0.519,98.857,-20.79,21.892,
42975920,-1.984,-0.745,-0.089,131.547,-78.155,-47.337,
42975930,-1.097,-1.66,1.048,201.215,-130.567,-92.417,
42975940,1.998,-1.745,1.997,236.232,-7.56,-87.237,
42975950,-0.108,1.771,1.404,261.345,132.177,-38.675,
42975960,-0.866,0.343,1.143,105.612,87.657,35.665,
42975970,-0.314,0.184,1.106,-27.825,-4.217,23.012,
42975980,-0.261,-0.112,1.125,-48.405,-53.62,9.66,
42975990,0.258,-0.644,0.927,-60.882,-56.98,10.465,
42976000,0.184,-0.417,0.947,-27.317,-42.105,13.65,
42976010,0.197,-0.432,0.898,-24.342,-32.76,9.467,
42976020,0.227,-0.382,0.92,-6.737,-20.422,6.947,
42976030,0.184,-0.208,0.971,1.295,-10.36,4.235,
42976040,0.124,-0.197,0.976,2.817,-4.847,5.022,
42976050,0.178,-0.284,0.948,0.525,-1.085,3.64,
42976060,0.082,-0.185,0.977,4.917,3.85,4.27,
42976070,0.017,-0.206,0.977,4.252,4.742,3.675,
42976080,0.04,-0.21,0.967,2.047,3.22,1.12,
42976080,0.049,-0.186,0.992,0.98,2.887,-1.05,
42976100,-0.013,-0.127,1.011,-2.187,0.962,-1.89,
42976100,-0.001,-0.188,0.996,-9.975,-3.132,-4.707,
42976120,-0.011,-0.153,1.008,-13.737,-6.475,-6.44,
42976120,0.005,-0.136,1.03,-18.725,-10.08,-8.067,
42976140,-0.015,-0.132,1.052,-26.547,-14.595,-9.415,
42976140,0.011,-0.154,1.066,-36.925,-19.442,-12.46,
42976160,-0.086,-0.157,1.122,-44.362,-22.487,-19.757,
42976160,-0.049,-0.111,1.118,-54.967,-25.042,-33.092,
42976170,-0.075,0.018,1.2,-72.065,-17.15,-53.707,
42976180,-0.298,0.178,1.279,-94.22,6.702,-90.422,
42976190,-0.1,-0.134,1.21,-126.84,40.81,-129.902,
42976200,-0.022,-0.067,1.196,-136.955,69.807,-157.762,
42976210,0.069,-0.137,1.18,-148.155,72.835,-161.175,
42976220,0.109,-0.196,1.173,-161.052,50.505,-153.51,
42976230,-0.093,-0.375,1.159,-175.21,22.015,-144.042,
42976240,-0.144,-0.569,1.127,-179.252,2.362,-136.027,
42976250,-0.116,-0.745,1.081,-165.83,-5.88,-123.637,
42976260,-0.066,-0.901,0.679,-131.932,-2.03,-120.645,
42976270,-0.059,-1.047,0.779,-86.047,31.255,-125.09,
42976280,-0.518,-1.802,0.87,-55.807,98.735,-125.702,
42976290,-1.094,-1.099,0.332,56.402,122.937,-113.767,
42976300,-1.176,0.445,-0.119,130.2,82.6,-67.025,
42976310,-0.751,0.194,0.133,71.715,46.042,6.877,
42976320,-0.231,-0.32,-0.119,62.685,32.095,52.587,
42976330,-0.242,0.465,-0.383,128.922,39.48,92.067,
42976340,0.028,0.838,-0.983,148.172,46.34,105.717,
42976350,0.137,1.157,-1.111,136.657,42.402,90.982,
42976360,-1.431,0.192,0.519,96.04,-43.12,28,
42976370,1.747,-1.998,0.948,244.597,-140.087,-194.67,
42976380,-0.228,-0.671,1.981,386.417,110.057,-175.875,
42976390,-0.019,1.856,0.476,322.507,234.815,-72.957,
42976400,-0.27,-0.365,1.283,140.175,96.11,69.825,
42976410,-0.133,0.987,0.813,-27.37,-2.625,38.447,
42976420,-0.377,-1.148,1.182,-72.187,-61.057,-6.212,
42976430,0.536,-0.391,0.919,-45.902,-54.337,12.372,
42976440,-0.114,-0.197,1.003,-26.407,-33.18,17.762,
42976450,-0.028,-0.197,0.95,-24.29,-33.145,18.55,
42976460,0.335,-0.389,0.94,-20.772,-30.642,9.222,
42976470,0.305,-0.368,0.907,-10.57,-14.105,12.18,
42976480,-0.041,-0.149,0.996,6.475,-0.91,13.982,
42976490,0.07,-0.251,0.965,-1.802,0.28,7.682,
42976500,0.118,-0.182,0.978,-1.697,3.097,2.975,
42976510,0.027,-0.23,0.976,-0.262,5.722,5.477,
42976510,-0.178,-0.081,1.022,-0.892,5.25,4.007,
42976530,-0.078,-0.136,1.003,-8.015,-0.91,-0.21,
42976530,0.005,-0.21,0.987,-15.75,-6.247,-3.5,
42976550,0.012,-0.162,0.995,-18.62,-7.42,-4.935,
42976550,0.048,-0.179,0.996,-21.892,-7.28,-5.232,
42976570,0.04,-0.157,1.022,-24.517,-6.177,-4.182,
42976570,-0.007,-0.134,1.042,-31.727,-6.23,-4.095,
42976580,-0.033,-0.171,1.019,-40.775,-8.277,-4.515,
42976590,-0.023,-0.197,1.023,-46.707,-10.937,-7.805,
42976600,0.057,-0.192,1.024,-49.612,-12.792,-12.075,
42976610,0.091,-0.208,1.091,-51.975,-10.465,-16.677,
42976620,0.095,-0.09,1.171,-58.17,-3.885,-19.81,
42976630,0,0.032,1.326,-78.295,2.87,-26.145,
42976640,-0.023,0,1.397,-111.545,5.512,-33.827,
42976650,-0.141,-0.032,1.382,-153.09,-2.31,-36.592,
42976660,-0.256,-0.004,1.42,-186.795,-13.02,-36.225,
42976670,-0.481,0.024,1.238,-215.267,-37.415,-43.277,
42976680,-0.762,-0.147,1.387,-230.02,-59.535,-42.77,
42976690,-1.059,-0.399,1.436,-244.44,-91.857,-56.297,
42976700,-0.86,-0.845,1.224,-235.602,-127.522,-76.842,
42976710,-0.244,-1.049,0.934,-188.352,-105.227,-76.055,
42976720,-1.038,-0.871,0.947,-116.602,-32.252,-51.292,
42976730,-1.561,-0.716,0.957,-46.147,10.622,-38.237,
42976740,-1.975,0.233,0.799,29.4,56.56,46.69,
42976750,-0.626,0.808,0.12,104.247,68.092,136.92,
42976760,0.779,0.275,0.179,96.792,88.76,138.862,
42976770,1.017,0.177,-0.102,128.047,75.337,66.325,
42976780,0.391,0.585,-0.323,163.852,73.587,12.53,
42976790,-0.193,0.639,-0.792,174.002,58.957,-18.48,
42976800,-0.528,0.665,-1.227,169.277,38.85,-0.84,
42976810,-0.744,0.205,-0.953,126.98,10.955,53.287,
42976820,-1.245,-1.597,0.573,105.542,-127.575,28.455,
42976830,1.793,-1.998,0.981,297.447,-86.905,-334.757,
42976830,-1.288,1.074,1.195,433.65,52.535,-158.392,
42976850,1.332,-0.289,1.4,387.94,168.735,-74.69,
42976850,-1.981,1.607,0.769,263.445,188.405,53.147,
42976870,0.436,-0.088,1.345,47.53,24.43,57.592,
42976870,-0.629,0.24,1.059,-72.73,-53.305,14.507,
42976890,0.496,-0.807,0.998,-76.142,-56.577,27.02,
42976890,0.018,-0.076,1.019,-53.462,-41.982,21.402,
42976910,-0.109,-0.239,0.959,-54.687,-37.397,20.842,
42976910,0.29,-0.496,0.908,-45.307,-34.317,9.082,
42976920,0.266,-0.502,0.847,-25.34,-19.022,7.56,
42976930,0.065,-0.2,0.99,-1.19,-3.99,3.447,
42976940,0.098,-0.081,1.01,-4.042,0.087,-0.437,
42976950,0.123,-0.238,0.962,-8.032,2.712,1.452,
42976960,0.031,-0.173,0.991,-4.042,6.527,2.467,
42976970,-0.093,-0.169,0.978,-5.477,6.615,2.1,
42976980,0.012,-0.185,0.986,-7.297,3.377,-2.887,
42976990,0.012,-0.166,0.996,-9.59,1.382,-3.692,
42977000,0.015,-0.17,0.99,-11.025,0.805,-2.327,
42977010,0.076,-0.159,1.004,-12.565,0.962,-0.962,
42977020,0.07,-0.142,1.013,-15.505,2.835,1.68,
42977030,0.013,-0.14,1.023,-19.25,4.515,4.602,
42977040,0.028,-0.182,1.017,-26.635,3.027,6.247,
42977050,0.034,-0.167,1.02,-32.882,1.785,7.455,
42977060,0.046,-0.174,1.045,-37.66,2.065,8.732,
42977070,0.052,-0.142,1.091,-44.625,2.345,10.622,
42977080,0.108,-0.126,1.14,-59.167,2.695,12.95,
42977090,0.112,-0.131,1.166,-76.965,5.985,16.117,
42977100,-0.024,-0.15,1.19,-98.315,5.197,19.127,
42977110,0.243,-0.184,1.152,-115.517,-6.37,25.812,
42977120,0.001,-0.299,1.133,-120.715,-9.222,33.442,
42977130,0.053,-0.335,1.065,-124.022,-11.9,37.957,
42977140,0.001,-0.332,1.128,-117.827,-10.517,49.717,
42977150,0.009,-0.473,1.143,-122.447,-8.802,60.112,
42977160,0.114,-0.566,1.063,-117.932,-11.095,74.532,
42977170,-0.072,-0.754,0.895,-100.485,-33.81,76.545,
42977180,-0.281,-0.935,0.681,-72.362,-74.97,69.3,
42977190,-0.139,-0.96,1.037,-54.407,-98.735,65.432,
42977200,0.22,-1.042,0.527,-9.677,-97.09,51.205,
42977210,0.545,-0.86,0.374,53.795,-47.04,40.11,
42977220,-0.438,-0.219,0.115,92.68,-43.522,13.72,
42977230,0.552,-0.261,-0.033,91.49,-30.677,-9.625,
42977240,0.657,-0.054,-0.152,91.507,-29.207,-71.26,
42977250,-0.049,0.318,-0.184,104.23,-40.95,-135.765,
42977260,-0.317,0.411,-0.246,92.155,-56.595,-171.972,
42977260,-0.485,0.289,-0.447,80.71,-62.965,-183.155,
42977280,-0.561,0.333,-0.812,76.737,-61.057,-178.447,
42977280,-0.847,-0.395,0.432,51.03,-29.05,-147.56,
42977300,-0.117,-1.998,1.978,157.64,179.112,-52.57,
42977300,1.306,-0.701,0.653,389.322,369.932,-21.227,
42977310,-1.998,1.997,1.147,335.317,190.032,-17.78,
42977320,1.232,0.006,0.275,-159.775,-29.907,20.79,
42977330,-1.174,-0.696,1.224,-176.207,-84.105,13.667,
42977340,1.069,1.015,1.041,-2.537,-95.567,-18.707,
42977350,0.696,-1.547,0.837,-66.99,-59.342,15.697,
42977360,0.089,0.333,1.065,3.692,-27.492,1.12,
42977370,0.364,-0.517,0.903,-22.295,-21.175,4.795,
42977380,0.457,-0.413,0.905,-2.94,-5.092,9.012,
42977390,0.128,-0.243,0.964,3.36,12.092,7.052,
42977400,0.049,-0.172,1.006,7.752,16.817,7.297,
42977410,0.016,-0.186,0.989,3.447,15.662,5.88,
42977420,-0.073,-0.209,1.001,2.975,13.877,6.247,
42977430,-0.151,-0.094,1.022,0.542,7.595,3.587,
42977440,-0.121,-0.209,0.996,-7.367,-2.59,-0.035,
42977450,-0.015,-0.199,0.994,-9.66,-9.677,-3.85,
42977460,0.001,-0.163,1.011,-12.057,-13.352,-5.442,
42977470,0.05,-0.169,1.004,-14.787,-16.205,-4.935,
42977480,0.118,-0.22,0.983,-17.762,-17.36,-4.462,
42977490,0.161,-0.214,0.988,-18.077,-14.595,-2.817,
42977500,0.193,-0.257,0.963,-19.74,-9.257,-1.085,
42977510,0.184,-0.246,0.965,-17.78,-2.1,1.662,
42977520,0.144,-0.263,0.969,-16.712,3.797,5.127,
42977530,0.097,-0.192,1.068,-16.432,8.277,6.475,
42977540,0.047,0.01,1.271,-23.485,8.837,7.525,
42977550,-0.02,0.096,1.427,-51.257,5.582,4.287,
42977560,-0.092,0.028,1.349,-87.552,7.7,-9.415,
42977570,0.045,-0.073,1.198,-122.797,16.625,-30.117,
42977580,0.341,-0.261,1.115,-148.225,26.442,-29.592,
42977580,0.111,-0.366,1.106,-152.092,31.43,-12.302,
42977600,0.25,-0.411,1.195,-146.23,24.605,6.492,
42977600,0.331,-0.446,1.155,-132.615,32.935,27.02,
42977620,0.179,-0.341,1.102,-104.37,44.397,34.965,
42977620,0.165,-0.347,1.017,-71.505,35.857,19.705,
42977640,0.833,-0.215,0.628,-25.042,19.267,-10.85,
42977640,-0.278,0.551,0.939,30.887,-26.337,-23.485,
42977660,1.336,0.77,0.265,108.815,-79.415,-9.345,
42977660,1.826,-0.361,0.649,152.81,-48.457,-47.355,
42977670,0.356,-0.977,-0.118,190.382,-76.58,-215.39,
42977680,-1.073,-0.612,-0.737,212.94,-68.67,-236.285,
42977690,-1.147,-0.721,-1.166,179.252,-74.217,-197.032,
42977700,-1.065,-1.324,-0.783,100.73,-69.02,-142.082,
42977710,-0.746,-1.996,-0.916,45.325,-58.782,-114.345,
42977720,1.523,-1.367,1.269,19.232,171.885,-75.915,
42977730,1.297,-1.354,1.847,176.47,424.252,-4.077,
42977740,-1.483,1.997,-0.441,302.785,235.235,68.495,
42977750,-1.448,1.103,1.436,6.23,40.915,-66.325,
42977760,-0.361,-1.434,0.879,-161.245,-0.07,37.66,
42977770,0.806,0.622,0.849,-18.375,-64.925,-28.857,
42977780,-0.523,-0.653,1.189,-48.16,-47.757,-8.207,
42977790,0.158,-0.204,1.002,-27.44,-53.532,-2.625,
42977800,0.292,-0.413,0.996,-35.542,-49.385,-6.317,
42977810,0.414,-0.273,0.956,-23.642,-34.947,-5.39,
42977820,0.235,-0.47,0.942,-12.687,-17.605,-0.822,
42977830,0.182,-0.272,0.972,-1.33,-5.407,-2.695,
42977840,0.167,-0.247,0.956,2.275,4.41,-2.187,
42977850,0.088,-0.273,0.973,6.195,11.882,-1.995,
42977860,-0.009,-0.162,0.996,9.257,16.362,-1.12,
42977870,-0.144,-0.128,1.006,8.417,14.857,1.12,
42977880,-0.213,-0.101,1.013,1.54,7.105,-1.487,
42977890,-0.152,-0.133,0.994,-6.23,-2.905,-6.352,
42977900,-0.083,-0.151,1.002,-9.1,-10.482,-8.242,
42977910,-0.025,-0.197,0.989,-12.425,-15.067,-7.367,
42977920,-0.027,-0.169,0.992,-13.667,-17.465,-5.687,
42977930,0.054,-0.213,0.979,-16.222,-19.075,-5.18,
42977940,0.122,-0.216,0.977,-15.382,-17.115,-3.272,
42977950,0.122,-0.29,0.942,-13.772,-12.547,0.77,
42977960,0.117,-0.3,0.94,-9.852,-7.437,3.482,
42977960,0.087,-0.202,0.983,-5.285,-2.502,5.162,
42977980,0.06,-0.18,1,-5.127,-0.157,7.14,
42977980,-0.002,-0.183,1.011,-7.857,0.822,8.96,
42978000,0.038,-0.159,1.035,-12.11,0.472,9.257,
42978000,0.041,-0.146,1.069,-19.775,0.227,9.94,
42978010,0.079,-0.132,1.133,-30.257,-0.035,10.22,
42978020,0.122,-0.072,1.238,-44.975,0.98,9.712,
42978030,0.125,-0.055,1.342,-67.462,4.655,7.14,
42978040,0.193,-0.138,1.246,-92.872,16.082,-0.542,
42978050,0.31,-0.256,1.222,-118.02,34.44,-3.465,
42978060,0.067,-0.397,1.173,-136.727,29.802,20.93,
42978070,0.045,-0.196,1.206,-138.232,17.587,48.615,
42978080,-0.106,-0.274,1.196,-148.19,4.007,61.092,
42978090,-0.02,-0.54,1.151,-159.04,-15.697,72.572,
42978100,0.092,-0.602,1.025,-135.38,-30.45,72.187,
42978110,0.359,-0.627,0.787,-100.607,-33.11,57.155,
42978120,0.167,-0.82,0.555,-71.505,-26.582,46.585,
42978130,-0.222,-0.504,0.693,-23.87,-33.757,52.412,
42978140,-0.023,-0.73,0.42,9.327,-54.88,35.332,
42978150,0.989,-0.41,-0.031,75.127,-50.505,20.09,
42978160,0.825,-0.207,-0.358,117.337,-28.612,-1.89,
42978170,-0.144,0.028,-0.588,129.955,-54.757,-76.125,
42978180,-0.096,-0.224,-0.782,106.89,-78.347,-119.42,
42978190,-0.133,-0.568,-1.262,88.69,-72.065,-143.307,
42978200,-0.384,-0.511,-1.516,75.495,-57.54,-145.075,
42978210,0.644,-0.647,0.353,31.237,68.25,-95.287,
42978220,-1.904,-1.852,0.279,187.32,113.277,8.82,
42978230,1.928,0.665,1.713,497.105,216.422,-22.47,
42978240,-1.839,1.329,0.277,251.965,241.22,48.405,
42978250,-0.304,0.777,0.971,70.297,0.227,-12.267,
42978260,-0.29,-1.119,1.292,-171.027,-67.165,18.532,
42978270,-0.134,0.439,0.946,-48.405,-112.507,-9.31,
42978280,0.686,-0.932,1.016,-59.552,-91.017,5.81,
42978290,0.024,-0.263,0.98,-38.395,-69.44,1.015,
42978300,0.66,-0.482,0.905,-43.225,-53.462,-5.635,
42978310,0.386,-0.601,0.833,-17.692,-27.23,2.397,
42978320,0.261,-0.271,0.956,1.487,-5.25,0.297,
42978330,0.142,-0.242,0.965,9.555,6.037,1.435,
42978330,0.223,-0.278,0.959,10.64,13.09,1.347,
42978350,0.029,-0.17,0.983,18.742,20.807,5.25,
42978350,-0.126,-0.163,1,19.005,20.44,6.352,
42978370,-0.112,-0.12,1.011,12.495,13.807,2.362,
42978370,-0.085,-0.147,1.008,4.445,6.405,0.297,
42978390,0.024,-0.162,0.992,-2.082,1.522,-1.155,
42978390,0.007,-0.174,0.998,-5.372,0,-1.715,
42978410,-0.005,-0.156,1.001,-7.49,-1.12,-0.857,
42978410,0.019,-0.16,1.008,-11.252,-1.977,-1.417,
42978420,0.045,-0.152,1.022,-14.752,-1.855,-0.682,
42978430,0.071,-0.201,1.007,-19.372,-0.752,0.175,
42978440,0.159,-0.256,0.992,-20.982,2.66,0.997,
42978450,0.213,-0.239,1.022,-18.987,9.537,4.445,
42978460,0.172,-0.187,1.08,-18.375,17.5,10.57,
42978470,0.113,-0.131,1.171,-22.855,24.447,14.612,
42978480,0.147,-0.104,1.288,-37.362,31.92,18.042,
42978490,0.308,-0.163,1.292,-69.947,40.67,35.122,
42978500,0.312,-0.309,1.168,-121.992,18.34,82.74,
42978510,0.258,-0.541,1.299,-137.48,-20.317,143.622,
42978520,0.24,-0.736,1.063,-144.55,-69.632,193.62,
42978530,0.599,-0.801,0.793,-135.152,-91.945,249.987,
42978540,0.773,-1.206,0.861,-123.532,-95.847,287.805,
42978550,-0.076,-0.905,0.855,-85.627,-112.122,314.982,
42978560,-0.407,-0.806,0.714,-34.177,-170.66,322.857,
42978570,-0.152,-1.285,-0.191,-31.132,-243.582,273.437,
42978580,0.038,-1.249,-0.24,16.135,-193.795,250.512,
42978590,0.127,-1.218,-0.417,44.187,-90.282,208.197,
42978600,-0.021,-0.915,-0.901,52.622,-36.452,43.557,
42978610,-0.761,-0.288,-1.047,30.87,-6.772,-116.935,
42978620,-0.992,0.441,-0.596,-20.44,6.982,-208.39,
42978630,-1.452,0.402,1.905,-24.762,68.512,-190.225,
42978640,-1.945,1.935,0.234,310.502,30.555,-175.42,
42978650,1.551,0.93,1.488,407.785,-65.52,-112.157,
42978660,1.998,-1.146,0.811,139.895,125.562,-91.315,
42978670,-1.51,1.997,0.894,363.825,224,-19.162,
42978670,0.52,0.211,0.969,-0.98,44.082,17.727,
42978690,-0.784,-0.234,1.09,-114.537,-33.25,16.555,
42978690,0.121,-0.03,1.12,-13.982,-51.765,12.722,
42978710,0.371,-0.829,0.859,-50.19,-46.952,4.672,
42978710,0.161,-0.128,1.05,2.327,-27.737,9.765,
42978730,0.194,-0.402,0.92,-13.37,-18.462,12.092,
42978730,0.08,-0.386,0.954,3.797,-8.697,11.217,
42978750,0.163,-0.268,0.954,7.455,-2.152,5.582,
42978750,0.069,-0.203,0.982,14.175,4.952,5.477,
42978760,0.013,-0.118,1.006,14.21,6.422,5.197,
42978770,-0.036,-0.123,1.004,7.962,3.43,4.637,
42978780,-0.013,-0.134,0.998,1.505,0.14,3.85,
42978790,-0.1,-0.072,1.02,-5.267,-4.077,2.922,
42978800,-0.031,-0.156,0.997,-15.96,-11.112,0.49,
42978810,0.036,-0.198,0.98,-20.93,-14.28,-1.33,
42978820,0.019,-0.184,0.98,-21.262,-14.14,-2.782,
42978830,0.01,-0.164,0.993,-19.985,-14.297,-5.232,
42978840,-0.009,-0.101,1.048,-20.597,-15.54,-7.157,
42978850,0.041,-0.143,1.054,-30.345,-18.165,-9.905,
42978860,0.112,-0.168,1.073,-38.972,-19.512,-12.67,
42978870,0.049,-0.058,1.148,-45.395,-14.472,-18.672,
42978880,-0.063,-0.073,1.147,-51.205,-10.745,-35.682,
42978890,0.064,0,1.102,-64.19,-4.515,-58.205,
42978900,-0.012,-0.166,1.209,-84.56,18.76,-75.582,
42978910,0.137,-0.15,1.186,-109.182,31.377,-80.972,
42978920,0.04,-0.294,1.131,-129.552,28.717,-69.02,
42978930,0.048,-0.355,1.133,-151.112,0.857,-41.055,
42978940,0.045,-0.307,1.077,-159.022,-23.082,-10.972,
42978950,-0.125,-0.388,0.958,-156.222,-32.882,10.535,
42978960,-0.256,-0.597,0.889,-144.69,-35.612,17.972,
42978970,-0.263,-0.88,0.806,-120.61,-44.677,8.54,
42978980,-0.071,-0.774,0.591,-83.825,-58.905,-8.925,
42978990,0.439,-1.226,0.484,-61.932,-55.002,-19.477,
42979000,0.086,-1.392,0.126,-17.552,-39.55,-11.41,
42979010,-0.091,-1.327,-0.135,33.267,-22.68,22.575,
42979020,-0.873,-0.618,-0.343,71.382,4.445,60.865,
42979030,-0.197,-0.126,-0.622,88.147,-6.895,40.862,
42979040,0.335,-0.013,-0.868,66.657,6.02,15.837,
42979050,0.713,0.906,0.694,105.647,38.745,-56.07,
42979060,1.069,0.46,-0.166,197.207,59.307,-129.36,
42979070,-0.9,-0.67,1.408,349.02,10.202,-107.327,
42979080,1.99,-1.947,1.998,388.5,185.78,-79.8,
42979080,-0.428,1.825,0.409,371.437,256.392,-64.925,
42979100,-0.718,0.302,1.106,132.982,97.65,6.737,
42979100,-0.017,-0.237,1.191,-96.092,-15.645,26.547,
42979120,-0.586,-0.349,1.108,-66.605,-67.567,8.47,
42979120,0.439,-0.404,0.942,-55.177,-69.352,18.445,
42979140,-0.205,-0.314,1.007,-35.367,-60.585,10.482,
42979140,0.604,-0.409,0.903,-34.755,-54.477,8.61,
42979160,0.219,-0.382,0.934,-20.23,-35.052,6.3,
42979160,0.251,-0.356,0.939,-5.565,-20.212,10.045,
42979170,0.134,-0.074,0.979,-0.945,-10.867,6.422,
42979180,0.312,-0.353,0.92,-2.607,-4.812,5.39,
42979190,0.172,-0.212,0.963,7.822,6.44,6.265,
42979200,-0.032,-0.154,0.979,12.495,12.53,8.137,
42979210,-0.07,-0.182,0.998,10.675,9.922,4.952,
42979220,-0.085,-0.052,1.021,3.535,4.112,1.085,
42979230,-0.011,-0.183,0.992,-7.875,-2.432,-2.187,
42979240,0.022,-0.118,1.009,-12.425,-5.337,-4.025,
42979250,0.004,-0.111,1.013,-17.937,-7.262,-3.132,
42979260,0.031,-0.174,1.002,-24.22,-9.117,-2.625,
42979270,0.009,-0.126,1.02,-27.002,-10.185,-2.992,
42979280,0.076,-0.204,1.018,-30.94,-11.41,-2.695,
42979290,0.08,-0.216,1.023,-34.37,-11.48,-1.242,
42979300,0.043,-0.164,1.08,-39.9,-11.742,-0.227,
42979310,0.056,-0.206,1.112,-50.645,-13.842,-0.262,
42979320,0.04,-0.1,1.199,-61.337,-16.957,-0.402,
42979330,-0.044,-0.132,1.253,-80.447,-18.655,-4.182,
42979340,-0.169,0.021,1.284,-102.69,-23.397,-8.365,
42979350,-0.205,-0.191,1.191,-135.782,-34.615,-14.332,
42979360,-0.312,-0.175,1.205,-157.535,-55.247,-17.622,
42979370,-0.494,-0.427,1.172,-170.66,-89.757,-17.727,
42979380,-0.529,-0.844,1.389,-161.7,-121.817,-15.085,
42979390,-0.674,-1.193,1.225,-135.712,-177.502,-37.327,
42979400,0.328,-1.988,0.402,-63.49,-192.342,-83.265,
42979410,0.35,-1.998,0.168,24.78,-96.407,-84.052,
42979420,-1.381,-1.895,-0.091,59.605,7.805,-16.275,
42979420,-1.998,-1.998,-0.221,56.262,63.192,25.847,
42979440,-1.099,-1.998,-0.396,50.365,63.962,55.912,
42979440,-0.282,-1.823,-0.538,30.467,122.097,99.207,
42979460,-0.928,-0.908,-1.219,14.052,150.745,119.07,
42979460,-0.284,0.906,-1.464,-3.43,160.632,131.827,
42979480,0.197,1.713,-0.825,-54.267,133.647,110.267,
42979480,0.24,1.079,1.946,-46.742,28.14,-37.31,
42979500,1.998,1.717,-0.975,396.41,68.792,-273.402,
42979500,-0.036,0.194,1.139,455.612,-30.887,-189.472,
42979510,0.589,0.395,1.195,283.412,180.617,-126.21,
42979520,-1.008,0.91,0.793,277.672,157.185,54.547,
42979530,-0.786,-0.178,1.259,-42.035,18.34,61.005,
42979540,-0.028,-0.407,1.068,-79.24,-59.132,21.297,
42979550,0.205,-0.427,0.948,-76.317,-55.387,21.63,
42979560,0.039,-0.441,0.936,-45.43,-37.782,24.762,
42979570,0.017,-0.332,0.897,-36.085,-32.48,13.632,
42979580,0.401,-0.536,0.868,-23.45,-24.692,3.85,
42979590,0.168,-0.318,0.935,3.185,-6.457,3.447,
42979600,-0.09,0.044,1.008,11.602,0.525,1.207,
42979610,0.152,-0.287,0.995,3.517,-3.797,-1.225,
42979620,0.1,-0.167,0.983,1.155,1.032,-0.875,
42979630,-0.043,-0.137,0.999,5.197,4.165,3.447,
42979640,-0.152,-0.096,1.015,-2.187,-0.14,0.735,
42979650,-0.061,-0.128,1.007,-11.62,-7.91,-2.397,
42979660,0.018,-0.135,1.003,-17.867,-12.565,-3.185,
42979670,0.02,-0.119,1.011,-21.455,-14.28,-1.785,
42979680,0.058,-0.16,1.006,-24.552,-14.892,0.63,
42979690,0.05,-0.174,1.011,-28.192,-14.315,2.082,
42979700,0.068,-0.169,1.014,-32.357,-13.597,2.38,
42979710,0.147,-0.207,1.015,-36.592,-11.952,2.012,
42979720,0.23,-0.217,1.029,-38.237,-6.982,3.797,
42979730,0.294,-0.178,1.087,-39.987,0.087,8.645,
42979740,0.377,-0.141,1.176,-48.982,10.43,15.12,
42979750,0.495,-0.145,1.217,-68.705,27.457,24.36,
42979760,0.37,-0.251,1.235,-101.517,42.297,39.847,
42979770,0.522,-0.339,1.261,-133.805,37.065,69.895,
42979780,0.186,-0.277,1.241,-148.4,38.412,105.962,
42979790,-0.302,-0.132,1.179,-145.827,27.247,125.527,
42979800,-0.305,-0.316,1.239,-166.862,-16.765,135.992,
42979810,0.673,-0.514,1.112,-218.89,-7,148.225,
42979820,0.253,-0.739,1.137,-186.427,-6.545,164.605,
42979830,-0.642,-0.666,1.006,-142.94,-46.462,159.477,
42979830,-0.545,-0.933,0.911,-124.652,-108.36,133.035,
42979850,0.43,-0.508,0.104,-78.347,-159.022,70.297,
42979850,0.221,-0.56,0.246,-24.325,-111.37,61.582,
42979870,-0.59,-0.38,0.152,19.617,-66.605,21.525,
42979870,-0.407,0.372,-0.27,86.975,-46.462,-26.425,
42979890,-0.82,0.622,-0.257,95.707,-42.262,-63.297,
42979890,-0.845,0.58,-0.446,101.412,-38.727,-87.815,
42979910,-0.676,0.611,-0.844,134.102,-25.55,-89.355,
42979910,-0.58,0.532,-0.958,143.22,-3.307,-86.467,
42979920,-1.65,-0.594,0.567,115.867,-20.86,-109.095,
42979930,0.901,-1.998,1.348,252.997,-25.585,-188.912,
42979940,1.998,0.127,1.841,453.74,55.772,-171.272,
42979950,0.934,1.391,1.662,387.012,253.767,-131.25,
42979960,-1.985,1.914,0.554,225.452,189.35,8.277,
42979970,1.058,-1.151,1.383,-22.837,9.222,41.685,
42979980,-1.092,0.47,1.084,-70.28,-78.89,11.025,
42979990,0.97,-1.209,0.922,-77.245,-79.957,14.262,
42980000,-0.139,-0.226,0.982,-28.297,-51.432,14.472,
42980010,0.34,-0.356,0.963,-23.502,-40.74,9.327,
42980020,0.256,-0.338,0.929,-21.07,-29.977,5.075,
42980030,0.292,-0.437,0.901,-0.017,-14.367,9.922,
42980040,0.118,-0.183,0.975,7.822,-0.91,1.417,
42980050,0.273,-0.241,0.957,8.942,6.37,0.105,
42980060,0.113,-0.212,0.976,13.58,15.085,1.382,
42980070,-0.069,-0.172,1.002,17.5,19.582,3.517,
42980080,-0.15,-0.015,1.039,12.32,14.91,1.907,
42980090,-0.138,-0.102,1.018,-0.77,5.04,1.207,
42980100,-0.147,-0.127,1.016,-10.955,-3.937,-0.245,
42980110,-0.084,-0.064,1.04,-21.91,-12.757,-3.22,
42980120,0.001,-0.106,1.028,-33.075,-19.442,-3.132,
42980130,0.021,-0.168,1.032,-41.405,-22.172,-2.432,
42980140,0.024,-0.122,1.04,-47.88,-23.66,-1.155,
42980150,0.016,-0.217,1.003,-53.34,-25.725,-0.665,
42980160,0.037,-0.369,0.931,-46.882,-26.652,-2.765,
42980170,0.133,-0.207,1.029,-39.357,-26.495,-6.317,
42980170,0.234,-0.217,1.042,-46.217,-24.132,-6.842,
42980190,0.182,-0.251,1.077,-49.7,-19.057,-3.727,
42980190,0.118,-0.208,1.166,-55.492,-14.49,-1.417,
42980210,0.043,-0.277,1.161,-69.212,-11.27,-3.71,
42980210,0.205,-0.377,1.297,-79.852,1.47,-8.312,
42980230,0.263,-0.411,1.268,-81.427,19.197,0.665,
42980230,0.315,-0.915,0.982,-85.505,38.675,20.51,
42980250,0.158,-1.166,1.044,-68.81,38.132,45.535,
42980250,-0.265,-1.261,0.897,-42.14,20.72,51.502,
42980260,-0.863,-0.94,1.26,-7.175,-27.632,51.677,
42980270,-0.483,-1.966,-0.201,34.247,-69.3,57.575,
42980280,0.974,-1.636,-0.394,33.74,-31.692,61.845,
42980290,-1.035,-0.615,0.028,3.01,-38.57,70.927,
42980300,-0.574,-0.551,-0.128,-44.117,-27.982,43.155,
42980310,-0.143,0.398,-0.605,-29.697,-8.575,51.205,
42980320,-0.534,1.727,-0.474,-23.45,-2.502,59.29,
42980330,-0.172,1.939,-0.385,-44.992,-16.975,54.232,
42980340,0.097,1.69,1.328,4.375,-41.825,13.16,
42980350,1.73,0.574,-0.521,280.56,-84.192,-71.015,
42980360,1.672,-1.947,1.998,303.817,13.527,-67.182,
42980370,0.203,1.429,1.378,321.947,173.215,-87.15,
42980380,-1.141,-0.027,1.271,166.95,131.635,33.705,
42980390,-0.921,0.781,1.021,-13.93,11.917,25.165,
42980400,0.079,-0.532,1.119,-68.985,-53.287,9.082,
42980410,0.091,-0.426,0.904,-62.317,-54.792,19.565,
42980420,0.001,-0.753,0.914,-39.882,-38.377,14.105,
42980430,0.28,-0.157,0.919,-22.715,-30.485,4.357,
42980440,0.229,-0.384,0.92,-9.905,-20.597,5.197,
42980450,0.259,-0.323,0.934,4.917,-6.755,9.152,
42980460,-0.011,-0.234,0.986,11.952,2.625,6.79,
42980470,0.15,-0.218,0.965,7.647,3.027,1.82,
42980480,0.191,-0.191,0.973,8.067,6.825,-0.245,
42980490,0.069,-0.216,0.98,11.55,12.512,2.555,
42980500,0,-0.137,1.012,10.237,13.982,1.575,
42980510,-0.089,-0.084,1.016,4.165,10.745,1.365,
42980520,-0.112,-0.18,1.006,-7.175,4.112,-2.047,
42980530,-0.029,-0.105,1.026,-15.505,-2.03,-4.147,
42980540,-0.045,-0.103,1.049,-24.675,-6.545,-3.517,
42980550,-0.039,-0.093,1.078,-35.665,-11.34,-1.487,
42980560,-0.014,-0.073,1.134,-49.455,-16.38,0.087,
42980570,-0.064,-0.079,1.13,-66.99,-22.907,0.525,
42980580,-0.003,-0.054,1.383,-78.942,-30.835,-2.065,
42980580,0.05,0.004,1.36,-109.865,-32.165,-9.992,
42980600,0.032,-0.091,1.214,-144.375,-19.565,-26.53,
42980600,0.012,-0.148,1.165,-163.992,-12.11,-34.23,
42980620,-0.057,-0.221,1.133,-187.39,-21.595,-33.775,
42980620,-0.328,-0.209,1.19,-193.27,-37.66,-35.472,
42980630,-0.398,-0.396,1.205,-201.88,-60.147,-39.025,
42980640,-0.284,-0.717,1.373,-195.195,-83.177,-41.335,
42980650,-0.264,-1.014,1.045,-160.107,-102.025,-53.742,
42980660,-0.067,-1.288,0.78,-111.93,-77.227,-77,
42980670,0.227,-1.998,0.826,-70.437,-0.945,-95.515,
42980680,-0.823,-1.857,0.372,-30.047,76.492,-84.035,
42980690,-1.801,-0.765,0.018,-12.46,51.94,-84.647,
42980700,-1.302,-0.434,0.088,-43.015,4.847,-40.757,
42980710,-0.282,0.41,-0.366,-17.727,19.285,39.865,
42980720,-0.776,1.879,-1.109,67.13,42.822,97.352,
42980730,-0.56,1.997,-1.285,115.675,62.947,109.532,
42980740,-0.555,1.996,-1.262,121.642,59.08,97.93,
42980750,-0.988,1.11,-1.217,139.877,42.7,61.81,
42980760,0.381,-1.119,1.16,164.727,-20.475,-153.72,
42980770,0.389,-1.711,0.319,457.695,96.81,-450.502,
42980780,0.934,1.944,1.998,549.045,183.032,-237.877,
42980790,-1.131,1.205,0.418,219.362,314.492,-10.622,
42980800,0.196,1.017,1.261,123.532,88.777,74.06,
42980810,-1.357,-0.102,1.189,-93.117,-52.57,20.37,
42980820,1.107,-1.058,0.913,-87.727,-79.03,14.315,
42980830,-0.05,-0.432,0.972,-37.432,-42.98,14.717,
42980840,-0.045,-0.315,0.975,-21.525,-29.242,12.197,
42980850,0.314,-0.373,0.925,-26.425,-28,-1.155,
42980860,0.307,-0.288,0.962,-12.827,-12.162,-2.152,
42980870,0.116,-0.186,0.977,-4.602,-0.087,-0.28,
42980880,0.297,-0.213,0.954,-1.312,8.907,0.822,
42980890,0.113,-0.178,1.036,11.462,18.882,4.585,
42980900,-0.073,-0.094,1.056,-1.47,21.892,9.432,
42980910,-0.263,0.119,1.13,-14.647,14.227,10.027,
42980920,-0.171,-0.076,1.124,-44.537,0.017,7.98,
42980920,-0.081,-0.076,1.158,-70.262,-10.675,4.935,
42980940,0,-0.022,1.305,-94.552,-19.407,4.83,
42980940,-0.057,0.021,1.453,-123.077,-29.487,7.647,
42980960,-0.07,-0.113,1.326,-153.912,-30.59,0.437,
42980960,-0.21,-0.083,1.237,-180.25,-30.03,-15.61,
42980980,-0.158,-0.151,1.169,-202.002,-40.39,-26.652,
42980980,0.015,-0.074,1.239,-216.912,-41.072,-35.455,
42981000,-0.182,0.024,1.315,-231.14,-47.005,-36.89,
42981000,-0.167,-0.447,1.335,-247.397,-55.895,-34.842,
42981010,0.29,-0.952,1.381,-245.21,-38.097,-34.02,
42981020,0.315,-1.249,1.318,-197.365,4.2,-33.302,
42981030,-0.356,-0.988,1.225,-115.307,63.857,-33.495,
42981040,-1.126,-0.832,0.977,-47.372,75.442,-38.622,
42981050,-1.056,0.18,0.079,24.027,28.945,-31.237,
42981060,-0.385,1.548,-0.356,80.605,33.145,63,
42981070,0.018,1.982,-0.705,129.605,28.385,127.68,
42981080,0.461,1.721,-0.692,159.162,20.247,113.4,
42981090,0.587,1.319,-1.231,200.865,14.21,70.717,
42981100,0.048,1.442,-1.924,266.7,2.502,41.422,
42981110,-1.123,0.67,-1.256,244.125,-40.075,25.025,
42981120,-0.481,-1.928,1.439,253.855,-199.062,-136.255,
42981130,0.256,-0.268,1.67,520.012,2.52,-318.552,
42981140,0.558,1.997,0.294,466.305,288.54,-70.35,
42981150,-1.223,0.183,0.961,65.152,125.125,69.195,
42981160,0.063,0.044,1.039,-68.215,-44.835,47.302,
42981170,0.495,-0.736,1.02,-91.525,-107.887,2.362,
42981180,0.514,-0.187,0.909,-59.937,-74.655,2.135,
42981190,0.013,-0.404,1.004,-27.58,-43.207,6.772,
42981200,0.268,-0.217,0.95,-31.412,-37.94,-1.155,
42981210,0.397,-0.453,0.901,-26.81,-24.115,-4.76,
42981220,0.165,-0.072,0.983,-8.207,-5.547,-3.08,
42981230,0.282,-0.235,0.967,-7.63,3.115,-1.592,
42981240,0.213,-0.207,0.959,-4.602,10.377,-0.875,
42981250,0.149,-0.204,1.018,3.097,19.495,1.575,
42981260,-0.081,-0.04,1.06,-7.122,23.152,3.85,
42981270,-0.003,-0.028,1.111,-22.155,18.06,3.22,
42981280,0.106,-0.072,1.161,-43.627,15.067,3.202,
42981290,0.124,0.034,1.303,-64.82,15.715,4.112,
42981300,0.103,-0.075,1.436,-93.152,14.385,5.635,
42981300,0.055,-0.548,1.368,-125.475,27.79,1.855,
42981320,0.007,0.066,1.293,-170.012,37.695,6.352,
42981320,0.021,0.272,1.158,-177.887,25.847,39.585,
42981330,0.141,-0.251,1.12,-192.027,22.715,43.54,
42981340,0.173,-0.3,1.026,-183.015,32.567,45.885,
42981350,0.412,-0.43,0.987,-156.73,47.687,56.175,
42981360,0.536,-1.059,0.776,-145.267,63.945,75.127,
42981370,0.216,-1.069,0.64,-102.287,55.632,89.757,
42981380,0.753,-1.253,0.514,-49.787,10.815,87.255,
42981390,0.557,-0.876,0.003,13.527,-18.935,100.922,
42981400,-0.263,-1.026,-0.037,39.83,-59.08,103.267,
42981410,1.776,-0.522,-0.145,76.457,-85.802,70.157,
42981420,-0.598,0.24,-1.252,130.917,-107.905,49.332,
42981430,1.319,0.363,-0.322,121.24,-61.162,-32.025,
42981440,-0.875,-0.116,-1.516,132.02,-81.76,-156.065,
42981450,-1.998,0.145,0.531,197.207,-106.522,-69.912,
42981460,-0.898,-1.734,0.266,285.67,-143.045,21.245,
42981470,1.998,-1.171,1.964,437.255,98.385,-51.135,
42981480,-0.474,1.904,0.049,378.77,256.025,31.797,
42981490,-0.357,-0.332,1.089,21.105,16.66,11.707,
42981500,-0.793,0.212,0.977,-148.61,-87.727,9.065,
42981510,0.722,-0.614,1.045,-102.112,-136.272,-8.592,
42981520,1.079,-0.93,0.859,-77.49,-106.242,2.625,
42981530,0.303,-0.393,0.973,-28.682,-56.717,11.322,
42981540,0.442,-0.302,0.92,-14.175,-34.51,7.245,
42981550,0.293,-0.438,0.923,-0.56,-12.81,12.337,
42981560,0.137,-0.203,0.973,6.492,1.732,5.337,
42981570,0.255,-0.233,0.966,5.04,7.752,1.61,
42981580,0.131,-0.18,1,7.805,15.295,2.8,
42981590,0.01,-0.132,1.031,7.157,20.09,5.372,
42981600,-0.095,-0.031,1.089,-1.802,17.622,4.427,
42981610,-0.036,0.013,1.162,-20.597,10.57,3.465,
42981620,0.093,-0.006,1.281,-45.587,6.107,3.447,
42981630,0.234,0.025,1.41,-74.427,7.367,1.225,
42981640,0.204,-0.193,1.41,-95.97,23.012,-8.207,
42981650,0.233,-0.123,1.575,-141.855,63.07,-13.527,
42981660,0.223,-0.013,1.257,-205.887,70.787,20.457,
42981670,0.295,-0.2,1.423,-223.195,45.657,63.455,
42981670,0.335,-0.513,1.443,-242.34,43.225,97.965,
42981690,0.17,-0.766,1.491,-237.247,30.8,137.707,
42981690,1.021,-1.744,1.297,-233.817,-12.512,138.162,
42981710,0.531,-0.872,1.093,-183.015,-50.96,164.99,
42981710,1.82,0.792,0.416,-100.012,-90.947,162.75,
42981730,1.832,0.801,-0.018,-54.25,-102.917,181.055,
42981730,1.998,0.852,-0.059,4.585,-125.51,114.45,
42981750,1.945,1.572,0.205,44.73,-180.932,-67.55,
42981750,-0.454,1.894,-0.306,149.677,-186.375,-282.397,
42981760,-1.998,0.984,-0.447,163.922,-220.657,-252.962,
42981770,-1.994,0.236,-1.159,205.992,-219.03,-167.667,
42981780,-1.748,-0.418,-1.549,228.252,-162.312,-102.48,
42981790,-1.146,-1.912,0.656,131.197,14.735,-67.322,
42981800,-1.293,-1.998,1.998,227.972,386.47,84.945,
42981810,0.955,1.53,0.162,542.535,330.102,-138.005,
42981820,-1.358,1.924,1.647,361.445,93.8,-64.242,
42981830,1.362,-1.833,0.371,-351.627,-70.525,86.152,
42981840,-0.886,0.842,0.703,-21.717,-113.592,-21.577,
42981850,1.755,-0.52,0.635,-31.202,-89.092,-4.27,
42981860,-0.031,-0.338,0.884,-31.342,-34.037,11.812,
42981870,0.146,-0.191,1.023,13.317,-9.275,14.56,
42981880,0.408,-0.44,0.823,-11.9,-5.722,9.047,
42981890,0.363,-0.432,0.894,11.077,11.077,8.75,
42981900,0.293,-0.306,0.946,19.477,28.875,10.465,
42981910,-0.078,-0.17,1.014,26.67,38.482,12.985,
42981920,-0.165,-0.088,1.027,21.472,33.25,8.312,
42981930,-0.109,-0.108,1.029,12.005,21.787,3.465,
42981940,-0.106,-0.174,1.003,2.747,12.145,-0.105,
42981950,-0.072,-0.153,1.016,-3.64,4.76,-4.742,
42981960,0.003,-0.179,1.017,-10.902,-0.805,-7.385,
42981970,-0.041,-0.155,1.042,-18.2,-4.515,-8.417,
42981980,-0.053,-0.039,1.124,-28.087,-9.537,-10.027,
42981990,-0.032,-0.062,1.19,-50.137,-17.465,-13.545,
42982000,-0.011,-0.171,1.23,-72.31,-26.897,-18.112,
42982010,-0.002,-0.098,1.324,-86.257,-30.8,-32.34,
42982010,0.149,-0.124,1.299,-110.547,-22.977,-52.325,
42982030,0.23,-0.039,1.283,-147.787,-4.34,-73.377,
42982030,-0.074,-0.229,1.225,-171.937,9.765,-67.637,
42982050,-0.039,-0.459,1.33,-187.6,-3.255,-49.875,
42982050,-0.031,-0.759,1.28,-184.835,-17.15,-27.86,
42982070,-0.111,-0.76,1.027,-160.667,-27.037,-16.73,
42982070,-0.15,-0.809,0.988,-131.355,-23.922,-18.497,
42982080,-0.168,-1.539,0.745,-126.437,-14.787,-37.975,
42982090,0.408,-1.998,-0.038,-135.537,19.11,-109.007,
42982100,0.25,-1.165,-0.409,-71.942,45.605,-138.565,
42982110,-1.792,0.403,-0.373,-4.2,52.15,-103.477,
42982120,-1.941,0.642,-0.598,1.732,25.41,-52.692,
42982130,-1.08,0.381,-1.154,21.507,27.44,27.58,
42982140,-0.6,0.834,-1.512,86.747,60.9,72.992,
42982150,-0.749,0.98,-1.525,116.375,77.665,55.93,
42982160,-0.301,0.183,1.615,81.305,4.147,-61.127,
42982170,1.998,-1.998,0.325,272.247,16.625,-305.497,
42982180,-0.386,-1.587,1.353,535.325,6.72,-207.165,
42982190,0.792,0.007,1.998,451.692,241.692,-114.502,
42982200,-1.569,1.759,1.069,320.617,223.527,33.215,
42982210,-0.491,-0.181,1.308,11.76,33.127,43.557,
42982220,-0.015,-0.263,1.035,-75.197,-65.292,10.867,
42982230,0.117,-0.542,0.977,-70.7,-63.56,16.765,
42982240,-0.055,-0.27,1.019,-53.007,-51.047,10.517,
42982250,0.508,-0.427,0.863,-55.212,-46.06,6.79,
42982260,0.224,-0.493,0.899,-28.122,-27.142,9.625,
42982270,0.167,-0.208,0.948,-18.777,-11.025,2.432,
42982280,0.241,-0.219,0.993,-13.212,-3.027,0.227,
42982290,0.264,-0.158,1.055,-15.102,6.195,3.867,
42982300,0.096,-0.098,1.094,-24.517,14.157,9.222,
42982310,-0.038,-0.01,1.217,-45.29,13.772,9.45,
42982320,-0.058,0.102,1.415,-79.047,2.38,11.252,
42982330,0.018,0.013,1.424,-123.462,-15.172,16.957,
42982340,-0.088,-0.067,1.341,-156.66,-15.365,14.367,
42982350,-0.391,-0.044,1.366,-181.265,-18.497,5.985,
42982360,-0.267,-0.033,1.258,-206.99,-52.395,3.167,
42982370,-0.33,-0.006,1.246,-227.745,-73.202,7.28,
42982380,-0.489,-0.205,1.252,-246.96,-103.075,12.127,
42982390,-0.715,-0.712,1.382,-248.045,-149.887,20.247,
42982400,-0.505,-0.804,0.805,-210.98,-204.435,11.812,
42982410,0.166,-0.752,0.637,-152.092,-208.232,12.495,
42982420,0.486,-1.12,0.596,-119.525,-161.875,16.415,
42982420,-0.02,-1.091,0.863,-58.117,-55.807,34.895,
42982440,-1.998,0.423,0.475,60.62,8.54,142.8,
42982440,-0.863,1.187,-0.236,135.922,10.272,230.195,
42982460,1.135,0.408,-0.401,80.482,22.75,229.267,
42982460,0.312,1.492,-0.589,156.765,39.392,152.775,
42982480,-0.675,1.996,-0.797,237.965,46.882,83.877,
42982480,-1.414,0.733,-1.512,230.877,40.285,32.357,
42982500,1.935,-1.998,0.676,188.527,71.627,-251.387,
42982500,-1.385,-0.752,-0.908,454.422,94.902,-347.427,
42982510,1.491,1.565,0.864,545.51,139.667,-103.845,
42982520,-0.771,-0.006,1.366,297.115,321.177,18.462,
42982530,0.655,-0.211,1.205,192.657,108.535,99.137,
42982540,-1.517,0.852,1.112,-35.035,-17.255,40.075,
42982550,1.207,-1.11,0.947,-91.262,-70.315,5.827,
42982560,0.242,0.162,0.992,-56.437,-45.85,10.43,
42982570,-0.013,-0.451,0.979,-49.91,-32.935,22.155,
42982580,0.255,-0.336,0.944,-47.267,-24.272,12.88,
42982590,0.102,-0.325,0.902,-36.627,-11.865,9.905,
42982600,0.099,-0.273,1.015,-22.505,-4.182,3.08,
42982610,0.225,-0.124,1.039,-28.647,1.4,0.7,
42982620,0.191,-0.024,1.124,-38.815,7.612,2.152,
42982630,0.119,0.001,1.284,-65.362,10.955,8.172,
42982640,0.031,0.115,1.458,-101.587,8.032,10.99,
42982650,-0.001,0.088,1.514,-144.392,11.252,4.13,
42982660,-0.217,0.12,1.528,-186.865,21.21,-12.985,
42982670,-0.237,0.097,1.513,-230.317,10.797,-22.802,
42982680,-0.214,0.117,1.345,-256.9,2.1,-28.367,
42982690,-0.423,0.019,1.47,-271.967,-11.357,-24.902,
42982700,-0.261,-0.232,1.726,-286.877,-24.517,-24.43,
42982710,0.139,-0.662,1.861,-271.967,-14.647,-12.635,
42982720,-0.388,0.207,1.607,-186.007,14.717,-12.46,
42982730,-0.286,1.628,0.874,-77.892,1.855,-30.432,
42982740,-0.485,1.444,1.149,-90.492,-35.997,-42.49,
42982750,-1.469,1.997,1.464,93.1,-69.212,17.955,
42982760,-0.12,1.966,0.238,206.657,-17.36,177.555,
42982760,1.124,1.522,-0.083,254.677,-45.902,168.122,
42982780,0.723,0.431,-0.498,292.355,-75.95,78.68,
42982780,0.442,-0.153,-1.569,326.182,-74.62,-28.28,
42982800,-1.167,-0.637,-1.408,279.072,-88.935,-67.585,
42982800,-1.998,-1.983,-0.413,175.577,-151.2,-87.832,
42982820,1.574,-1.998,1.51,283.71,8.925,-157.08,
42982820,1.24,1.493,0.802,384.44,267.732,-140.367,
42982830,-1.964,1.8,0.822,292.127,210.35,48.79,
42982840,0.433,-1.981,0.917,-193.795,3.482,89.6,
42982850,-0.504,1.331,0.78,-14.945,-52.482,-1.732,
42982860,1.083,-0.992,0.984,-47.53,-37.1,-3.43,
42982870,-0.2,0.057,0.934,4.077,-16.205,14.385,
42982880,-0.03,-0.275,1.016,-0.49,-12.022,9.047,
42982890,0.022,-0.183,0.99,-7.665,-14.752,5.267,
42982900,0.121,-0.311,0.952,-8.75,-13.44,2.625,
42982910,0.06,-0.246,0.971,-4.235,-6.737,1.767,
42982920,0.133,-0.202,0.979,-1.96,-1.75,-1.33,
42982930,0.105,-0.197,0.979,0.28,2.817,-1.067,
42982940,0.004,-0.231,0.987,2.747,6.177,-0.07,
42982950,-0.07,-0.111,1.017,2.012,5.565,-0.857,
42982960,-0.034,-0.152,1.009,-5.232,1.295,-1.435,
42982970,-0.02,-0.162,1.012,-10.465,-1.715,-1.102,
42982980,0.053,-0.158,1.021,-15.015,-3.5,-1.575,
42982990,0.128,-0.144,1.042,-20.422,-2.695,-0.945,
42983000,0.182,-0.155,1.082,-26.11,0.857,1.697,
42983010,0.269,-0.158,1.147,-35.192,6.527,5.582,
42983020,0.306,-0.158,1.286,-49.21,15.942,7.77,
42983030,0.496,-0.323,1.427,-75.25,34.335,8.855,
42983040,0.716,-0.691,1.343,-110.792,62.44,38.027,
42983050,0.758,-1.234,1.142,-153.615,83.72,114.222,
42983060,0.709,-1.45,1.141,-142.03,62.597,192.342,
42983070,0.329,-1.111,0.76,-94.64,-2.572,228.252,
42983080,1.008,-1.266,0.592,-72.975,-49.752,241.5,
42983090,0.374,-1.947,0.324,-78.102,-56.455,240.135,
42983100,1.74,-1.959,-0.091,-37.345,-72.712,167.545,
42983110,1.998,-1.805,0.488,-55.317,-48.737,122.027,
42983120,1.998,-1.226,0.747,-56.647,-46.812,-4.13,
42983130,0.944,-0.203,0.444,-30.117,-58.082,-132.142,
42983140,-1.347,1.085,0.353,0.052,-118.02,-226.047,
42983150,-1.998,1.786,0.02,8.557,-159.897,-237.352,
42983160,-1.998,1.997,-0.446,14.805,-179.987,-162.137,
42983170,-1.966,1.997,-0.705,36.662,-168.665,-75.827,
42983170,-1.444,1.94,-0.449,44.012,-116.13,-38.815,
42983190,-1.092,0.434,0.602,68.145,-3.78,-53.917,
42983190,-1.028,-1.99,1.644,169.907,251.895,-16.257,
42983210,1.691,0.219,0.554,463.487,300.685,-137.06,
42983210,-1.998,1.997,1.24,468.685,217.052,-82.285,
42983230,1.649,-0.537,0.643,-183.522,-15.785,62.282,
42983230,-1.742,0.074,0.932,-142.817,-74.847,0.98,
42983250,1.425,-0.049,0.998,19.897,-65.52,5.04,
42983250,-0.283,-0.822,0.878,-56.21,-42.7,2.975,
42983260,0.429,0.023,1.055,9.1,-25.602,-1.645,
42983270,0.547,-0.723,0.758,-27.177,-15.382,-4.497,
42983280,0.313,-0.324,0.962,17.64,13.492,1.61,
42983290,-0.05,-0.019,1.019,20.335,27.265,1.365,
42983300,0.221,-0.296,0.973,10.587,26.722,-2.975,
42983310,-0.06,-0.07,1.027,15.277,31.027,-2.677,
42983320,-0.173,-0.108,1.032,6.23,27.317,-3.412,
42983330,-0.329,0.006,1.08,-2.17,16.975,-7.945,
42983340,-0.27,-0.034,1.098,-20.212,1.12,-15.12,
42983350,-0.151,-0.036,1.139,-38.342,-11.392,-23.59,
42983360,-0.316,0.001,1.231,-54.845,-19.652,-38.167,
42983370,-0.284,-0.065,1.302,-75.215,-31.325,-55.615,
42983380,-0.224,0.016,1.319,-100.94,-36.715,-83.702,
42983390,-0.305,-0.062,1.205,-127.05,-11.952,-115.535,
42983400,0.152,-0.389,1.049,-141.505,23.712,-126.7,
42983410,0.1,-0.705,0.831,-120.242,29.662,-105.052,
42983420,0.237,-0.728,0.583,-89.302,10.937,-79.537,
42983430,0.518,-0.898,0.429,-68.985,9.24,-56.227,
42983440,0.356,-1.133,0.361,-46.357,12.792,-46.2,
42983450,0.348,-0.81,0.227,-9.012,27.23,-49.017,
42983460,-0.127,-0.174,0.145,38.412,40.635,-59.01,
42983470,-0.506,0.193,0.347,70.945,26.232,-79.065,
42983480,-0.4,0.982,0.121,120.277,-11.76,-81.532,
42983490,-0.051,-0.286,-0.033,142.275,-82.057,-58.94,
42983500,1.817,-1.926,1.803,136.412,-14.962,-42.717,
42983510,1.516,-0.076,1.909,218.732,127.155,-42.245,
42983510,-1.993,1.995,1.336,163.747,141.575,6.475,
42983530,0.652,-1.054,1.023,1.592,26.635,11.672,
42983530,-0.473,0.659,0.96,7.402,-11.095,6.825,
42983550,-0.259,-0.301,1.029,-13.632,-27.72,8.872,
42983550,0.389,-0.482,0.97,-6.755,-34.667,14.052,
42983570,-0.002,-0.304,0.99,-4.007,-26.827,6.335,
42983570,0.199,-0.261,0.968,-0.787,-20.702,6.142,
42983580,0.073,-0.261,0.979,3.202,-14.525,7.262,
42983590,0.071,-0.205,0.984,3.622,-11.392,5.407,
42983600,0.163,-0.274,0.965,2.922,-8.155,3.605,
42983610,0.112,-0.227,0.974,6.195,-2.275,2.8,
42983620,0.054,-0.187,0.987,7.752,2.117,2.362,
42983630,0.016,-0.168,0.993,6.37,2.992,1.977,
42983640,0.006,-0.173,0.988,3.5,1.872,1.032,
42983650,0.012,-0.174,0.989,1.4,0.49,0.35,
42983660,-0.019,-0.158,0.994,-0.892,-1.4,-0.332,
42983670,0,-0.175,0.989,-4.235,-4.34,-1.435,
42983680,0.007,-0.173,0.987,-6.335,-6.72,-2.275,
42983690,-0.003,-0.173,0.987,-7.525,-8.82,-2.712,
42983700,-0.007,-0.172,0.983,-8.435,-11.392,-3.062,
42983710,0.001,-0.181,0.973,-8.977,-14.21,-3.727,
42983720,0.026,-0.196,0.961,-8.417,-16.362,-4.445,
42983730,0.084,-0.206,0.949,-6.125,-16.625,-4.69,
42983740,0.053,-0.188,0.949,-3.395,-15.102,-4.515,
42983750,0.112,-0.202,0.934,-1.382,-13.23,-4.532,
42983760,0.119,-0.176,0.928,0.752,-9.94,-4.165,
42983770,0.089,-0.15,0.932,1.61,-6.947,-4.077,
42983780,0.076,-0.145,0.936,1.47,-5.582,-3.64,
42983790,0.1,-0.167,0.936,1.032,-4.637,-3.097,
42983800,0.101,-0.174,0.938,1.995,-2.782,-2.485,
42983810,0.084,-0.162,0.955,3.71,-0.56,-1.417,
42983820,0.067,-0.166,0.962,3.955,0.472,-0.56,
42983830,0.093,-0.165,0.946,3.937,1.12,0.367,
42983840,0.098,-0.111,0.96,3.99,2.59,2.222,
42983850,0.034,-0.104,0.998,1.19,1.907,4.97,
42983860,0.076,-0.042,1.044,-5.302,-1.855,8.312,
42983870,0.216,0.051,1.114,-14.245,-4.392,17.115,
42983880,0.068,0.168,1.281,-34.44,-8.995,28.805,
42983890,0.262,0.166,1.419,-81.392,-18.497,41.702,
42983900,0.161,-0.02,1.526,-142.782,-31.045,58.117,
42983910,0.028,-0.027,1.528,-183.61,-30.52,60.165,
42983920,0.179,-0.081,1.551,-221.97,-36.137,60.567,
42983920,-0.013,-0.234,1.395,-278.74,-35.98,61.88,
42983940,-0.139,-0.113,1.25,-304.132,-44.852,68.215,
42983940,0.053,0.028,1.069,-299.67,-48.562,70.105,
42983960,-0.061,-0.357,1.05,-301.297,-49.437,74.357,
42983960,-0.01,-0.831,1.088,-291.322,-53.865,66.132,
42983970,-0.11,-1.324,0.97,-239.487,-56.91,43.172,
42983980,-0.213,-1.309,0.557,-160.65,-68.687,-8.067,
42983990,0.891,-0.874,0.347,-105.612,-50.977,-45.692,
42984000,-0.449,-0.748,0.372,-71.61,-21.56,-40.355,
42984010,-0.057,-0.932,0.263,-52.902,6.65,-50.872,
42984020,-0.205,-1.085,0.06,-18.007,24.08,-43.68,
42984030,-0.362,-0.78,-0.021,28.28,21.28,-41.982,
42984040,-0.622,-0.743,0.114,29.977,20.51,-28.017,
42984050,-0.36,-1.014,0.138,20.615,14.14,-21.472,
42984060,-0.271,-0.899,0.171,37.397,12.775,-14.857,
42984070,-0.313,-0.7,0.202,52.71,16.66,-11.515,
42984080,-0.324,-0.581,0.232,54.88,17.605,-9.24,
42984090,-0.307,-0.405,0.249,53.9,12.25,-4.795,
42984100,-0.301,-0.217,0.311,51.712,4.112,3.885,
42984110,-0.218,-0.168,0.397,46.76,-1.855,15.697,
42984120,-0.12,-0.288,0.559,43.645,-3.71,24.097,
42984130,-0.059,-0.493,0.718,51.24,-7.28,25.042,
42984140,0.126,-0.676,0.724,73.972,-6.72,22.592,
42984150,0.254,-0.664,0.617,97.475,4.235,17.36,
42984160,0.209,-0.615,0.465,101.57,22.015,8.312,
42984170,0.185,-0.669,0.317,91.332,36.942,-6.527,
42984180,0.221,-0.681,0.203,75.722,45.412,-22.312,
42984190,0.272,-0.69,0.026,55.475,51.24,-42.245,
42984200,0.212,-0.589,-0.149,32.375,56.455,-66.71,
42984210,-0.03,-0.513,-0.217,1.925,52.255,-89.057,
42984220,0.284,-0.083,1.447,-9.275,62.65,-107.975,
42984230,1.032,-0.33,0.763,158.97,47.687,-143.027,
42984240,0.14,1.966,0.587,449.872,16.1,-107.205,
42984250,1.057,-1.416,1.359,303.992,20.422,-43.382,
42984260,1.605,-0.458,1.159,370.107,31.92,-25.34,
42984260,1.914,-0.426,1.998,384.545,144.532,-15.365,
42984280,-1.447,1.77,1.726,314.352,178.5,-6.037,
42984280,-1.327,1.049,1.194,104.58,72.362,16.975,
42984300,-0.8,0.554,1.156,-54.302,-38.465,0.437,
42984300,0.3,-0.566,1.064,-102.025,-77.63,0.682,
42984320,0.167,-0.384,0.81,-77.07,-70.49,8.925,
42984320,0.263,-0.605,0.887,-53.34,-54.687,-3.22,
42984330,0.553,-0.412,0.846,-32.357,-33.652,-2.642,
42984340,0.282,-0.399,0.906,-1.54,-8.802,5.915,
42984350,0.028,-0.188,0.992,14.875,5.775,8.662,
42984360,0.052,-0.179,0.992,10.675,7.892,3.482,
42984370,0.107,-0.161,1.008,6.807,8.47,0.227,
42984380,0.119,-0.119,1.017,3.78,11.287,1.47,
42984390,0.061,-0.158,1.025,-0.717,14.98,3.43,
42984400,0.008,-0.051,1.079,-7.7,16.537,4.41,
42984410,-0.012,0.021,1.152,-23.817,14.805,3.902,
42984420,0.079,-0.031,1.201,-48.51,12.355,2.607,
42984430,0.111,0.013,1.303,-69.79,13.387,2.275,
42984440,0.08,0.114,1.436,-91.367,20.055,1.995,
42984450,0,0.204,1.32,-128.205,30.66,-0.21,
42984460,-0.184,-0.189,1.177,-156.922,24.5,-4.392,
42984470,-0.224,-0.535,1.171,-174.195,6.387,-2.537,
42984480,-0.012,-0.488,1.058,-171.657,5.757,-1.732,
42984490,0.01,-0.563,0.883,-155.505,8.732,12.162,
42984500,-0.042,-0.612,0.691,-120.907,12.512,32.007,
42984510,0.168,-0.665,0.639,-84.437,6.667,41.86,
42984520,0.399,-0.828,0.609,-55.877,-0.962,56.682,
42984530,0.489,-1.156,0.551,-25.462,-13.545,68.985,
42984540,0.268,-1.011,0.388,9.03,-32.217,88.2,
42984550,0.537,-0.937,0.065,39.34,-47.862,97.335,
42984560,0.386,-0.75,-0.269,54.477,-53.707,96.022,
42984570,-0.052,-0.391,-0.787,65.205,-73.29,60.655,
42984580,0.703,0.439,-1.228,80.097,-86.695,14.21,
42984590,0.612,0.884,-1.382,98.752,-73.762,-6.702,
42984600,-1.784,-0.695,1.073,139.142,-36.242,36.102,
42984610,-0.76,-1.852,0.046,417.27,-90.527,20.842,
42984620,1.998,-1.189,1.998,468.072,125.457,-14.84,
42984630,-1.333,1.997,0,316.697,192.867,-12.582,
42984640,0.064,-0.796,1.326,-23.415,6.86,35.315,
42984640,-0.957,0.631,0.922,-105.647,-85.225,4.06,
42984660,1.025,-1.139,0.961,-83.107,-93.8,7.192,
42984660,0.206,-0.276,0.902,-44.555,-65.38,11.445,
42984670,0.224,-0.463,0.996,-18.27,-42.682,15.382,
42984680,0.107,-0.186,0.975,-17.272,-33.197,7.91,
42984690,0.257,-0.445,0.915,-10.43,-23.222,9.432,
42984700,0.135,-0.174,0.984,-2.152,-11.095,4.41,
42984710,0.099,-0.215,0.965,-1.715,-6.37,3.482,
42984720,0.136,-0.261,0.972,-1.837,-2.362,-0.017,
42984730,0.048,-0.192,0.989,1.855,3.08,-0.017,
42984740,0.051,-0.168,0.997,0.175,4.41,-0.56,
42984750,-0.024,-0.125,1.009,-3.027,4.13,-0.385,
42984760,-0.069,-0.129,1.019,-9.905,0.735,-1.715,
42984770,-0.055,-0.107,1.036,-19.775,-4.76,-3.885,
42984780,-0.003,-0.11,1.055,-29.96,-9.73,-4.725,
42984790,-0.002,-0.117,1.056,-40.302,-13.195,-4.62,
42984800,0.044,-0.083,1.176,-44.345,-15.627,-3.972,
42984810,-0.023,-0.032,1.261,-61.075,-21.822,-2.45,
42984820,-0.086,-0.121,1.262,-88.287,-30.03,-6.475,
42984830,-0.048,-0.081,1.212,-105.07,-31.027,-19.477,
42984840,0.027,-0.138,1.116,-122.482,-23.397,-31.902,
42984850,0.017,-0.123,1.035,-138.687,-26.705,-29.015,
42984860,0.005,-0.327,1.052,-153.737,-35.105,-14.752,
42984870,-0.247,-0.356,0.99,-151.742,-48.93,-4.27,
42984880,-0.151,-0.376,1.025,-137.935,-66.377,-0.682,
42984890,-0.035,-0.542,1.036,-131.775,-75.985,2.205,
42984900,-0.028,-0.677,0.957,-112.087,-96.425,-2.502,
42984910,0.3,-0.734,0.622,-77.91,-104.51,-1.785,
42984920,0.746,-0.898,0.581,-45.85,-77.717,-3.99,
42984930,0.515,-0.526,0.396,-6.65,-52.972,-1.312,
42984940,0.255,-0.105,0.088,28.245,-16.817,2.782,
42984950,0.109,0.379,-0.501,63.507,-0.087,1.995,
42984960,-0.681,1.661,-1.145,137.742,21.805,43.225,
42984970,-1.298,1.381,-0.23,160.405,-24.342,42.087,
42984980,1.826,-1.991,-0.508,126.385,120.54,29.067,
42984990,0.347,-1.631,-0.113,335.037,212.45,-42.017,
42985000,0.321,1.863,1.982,488.372,276.43,-51.73,
42985010,-1.117,1.581,0.95,318.272,277.462,28.735,
42985010,-0.278,-0.562,1.387,73.08,63.665,39.567,
42985030,-0.867,1.011,0.965,-40.95,-38.15,10.745,
42985030,0.549,-0.994,1.026,-69.37,-73.727,11.777,
42985050,0.188,-0.101,0.973,-45.412,-67.602,12.81,
42985050,0.177,-0.622,0.949,-38.64,-50.995,14.035,
42985070,0.434,-0.355,0.907,-27.195,-35.962,6.807,
42985070,0.361,-0.46,0.891,-5.005,-11.357,10.692,
42985080,-0.015,-0.166,0.982,10.535,5.267,9.292,
42985090,0.1,-0.22,0.973,6.16,6.615,2.135,
42985100,0.21,-0.197,0.988,6.65,11.9,-0.14,
42985110,0.068,-0.178,1.008,9.17,20.282,2.835,
42985120,-0.031,-0.099,1.038,3.062,22.085,2.1,
42985130,-0.105,-0.046,1.07,-8.82,19.302,0.84,
42985140,-0.099,-0.092,1.078,-26.757,13.212,-2.17,
42985150,-0.057,-0.082,1.107,-45.587,8.61,-5.11,
42985160,-0.072,-0.077,1.147,-62.912,5.46,-6.195,
42985170,-0.069,-0.121,1.162,-81.147,1.68,-9.082,
42985180,-0.077,-0.116,1.232,-93.117,-3.797,-11.935,
42985190,-0.069,-0.102,1.215,-109.812,-9.24,-16.38,
42985200,-0.113,-0.187,1.187,-133.875,-15.785,-20.58,
42985210,-0.209,-0.279,1.089,-144.27,-32.637,-16.59,
42985220,-0.197,-0.365,1.038,-144.865,-48.44,-14.175,
42985230,-0.057,-0.574,0.952,-141.452,-44.03,-9.747,
42985240,-0.161,-0.654,0.883,-117.04,-38.097,-7.017,
42985250,-0.235,-0.496,0.77,-86.38,-42.122,-15.837,
42985260,-0.014,-0.839,0.537,-65.205,-43.207,-33.355,
42985270,0.231,-0.826,0.413,-31.727,-22.627,-37.835,
42985280,0.383,-0.765,0.11,0.822,6.457,-51.362,
42985290,-0.291,-0.975,-0.11,18.515,39.567,-69.037,
42985300,-1.065,-0.173,-0.5,46.76,63.052,-43.96,
42985310,-0.29,1.495,-0.253,113.907,46.55,-29.242,
42985320,1.643,0.151,0.176,121.975,-2.852,-62.842,
42985330,0.146,-1.847,-0.338,254.747,4.83,-108.71,
42985330,0.56,-1.998,1.658,365.26,26.075,-76.93,
42985350,1.193,0.588,1.67,390.477,200.55,-69.422,
42985350,-1.986,1.683,0.057,203.35,168.017,18.007,
42985370,0.737,-1.292,1.533,-27.562,18.952,11.322,
42985370,-0.588,0.622,0.876,-35.962,-52.377,-4.112,
42985390,0.069,-0.753,1.062,-49.857,-56,-4.252,
42985390,0.241,-0.228,0.925,-16.975,-46.585,4.585,
42985410,0.176,-0.232,0.972,-13.772,-37.467,0.577,
42985410,0.254,-0.337,0.979,-8.33,-26.11,0.98,
42985420,0.132,-0.273,0.984,0.735,-13.23,1.54,
42985430,0.077,-0.171,0.997,1.802,-6.055,0.42,
42985440,0.204,-0.198,0.985,-3.045,-2.135,-2.625,
42985450,0.149,-0.208,0.986,-2.817,5.145,-2.59,
42985460,0.063,-0.156,1.006,-0.455,12.267,0.262,
42985470,-0.171,-0.044,1.038,-6.02,12.25,0.035,
42985480,-0.141,-0.048,1.056,-19.617,3.692,-1.61,
42985490,-0.143,-0.023,1.092,-34.125,-5.862,-1.75,
