#Format version: 1.0
time[ms],accX[g],accY[g],accZ[g],Value 1,Value 2,Value 3,
47543210,-0.658,0.188,0.591,-4.795,9.52,6.037,
47543220,-0.705,0.211,0.616,0.385,12.18,8.995,
47543230,-0.689,0.279,0.607,5.6,11.462,10.587,
47543240,-0.735,0.374,0.593,7.752,10.062,11.165,
47543250,-0.773,0.376,0.598,5.862,7.805,10.92,
47543250,-0.77,0.386,0.545,5.022,2.135,9.065,
47543260,-0.765,0.404,0.579,5.74,-2.642,7.822,
47543270,-0.803,0.383,0.646,3.045,-2.362,3.097,
47543280,-0.801,0.359,0.687,-1.085,-5.6,-0.752,
47543290,-0.713,0.286,0.657,-4.637,-11.34,-2.782,
47543300,-0.616,0.342,0.411,-4.375,-11.34,-3.885,
47543310,-0.804,0.397,0.452,-5.355,-16.117,-3.097,
47543320,-0.927,0.327,0.608,-2.677,-14.84,-4.41,
47543330,-0.938,0.372,0.678,2.782,-9.957,-9.275,
47543340,-0.862,0.27,0.58,-8.26,-15.242,-8.505,
47543350,-0.712,0.114,0.492,-14.945,-19.075,-7.7,
47543360,-0.688,0.091,0.562,-4.707,-15.032,-5.705,
47543370,-0.747,0.127,0.613,2.222,-4.077,-3.342,
47543380,-0.762,0.196,0.568,2.135,0.962,-2.537,
47543390,-0.77,0.216,0.585,0.192,6.002,-0.682,
47543400,-0.855,0.145,0.648,1.382,9.94,-0.455,
47543410,-0.711,0.235,0.647,7.122,14.192,-1.557,
47543420,-0.735,0.228,0.591,-0.437,15.102,0.997,
47543430,-0.736,0.16,0.528,-5.372,11.042,6.195,
47543440,-0.698,0.255,0.537,3.395,6.265,7.525,
47543450,-0.807,0.312,0.585,7.49,4.9,9.345,
47543460,-0.81,0.368,0.574,6.755,-2.467,9.24,
47543470,-0.799,0.377,0.594,5.04,-9.345,8.295,
47543480,-0.755,0.402,0.611,4.165,-12.04,6.107,
47543490,-0.728,0.384,0.637,3.36,-12.617,3.832,
47543500,-0.691,0.351,0.659,3.447,-9.467,0.175,
47543510,-0.702,0.361,0.683,2.572,-8.575,-2.975,
47543520,-0.671,0.316,0.602,-1.592,-9.59,-2.957,
47543530,-0.685,0.382,0.454,-4.41,-5.897,-3.675,
47543540,-0.88,0.333,0.474,-4.042,-10.78,-2.66,
47543550,-0.905,0.379,0.599,3.517,-12.67,-5.355,
47543560,-0.922,0.357,0.645,1.295,-14.035,-10.185,
47543570,-0.792,0.232,0.564,-7.455,-16.362,-8.872,
47543580,-0.685,0.134,0.556,-7.822,-14.56,-8.417,
47543580,-0.686,0.076,0.599,-1.277,-6.352,-5.88,
47543600,-0.723,0.113,0.631,3.745,1.977,-4.357,
47543600,-0.738,0.148,0.594,2.835,6.79,-1.68,
47543620,-0.756,0.183,0.525,1.26,10.202,2.905,
47543620,-0.898,0.173,0.624,3.272,10.902,5.337,
47543640,-0.727,0.229,0.615,10.115,8.015,5.477,
47543640,-0.793,0.274,0.591,8.26,9.327,5.495,
47543660,-0.776,0.257,0.561,0.752,9.677,8.61,
47543660,-0.771,0.285,0.56,0.91,8.085,9.555,
47543670,-0.734,0.349,0.56,0.647,5.145,10.43,
47543680,-0.777,0.355,0.603,-2.765,3.762,11.27,
47543690,-0.731,0.378,0.618,-3.202,1.855,9.012,
47543700,-0.724,0.378,0.621,-3.937,0.7,7.577,
47543710,-0.704,0.362,0.598,-4.725,0.822,4.69,
47543720,-0.727,0.365,0.623,-2.8,3.15,0.717,
47543730,-0.789,0.366,0.655,-3.972,3.797,-1.575,
47543740,-0.744,0.31,0.62,-7.297,2.187,-3.202,
47543750,-0.77,0.275,0.593,-7.805,3.867,-5.407,
47543760,-0.798,0.285,0.487,-7.595,-0.07,-7.262,
47543770,-0.806,0.365,0.473,-9.135,-14.56,-7.14,
47543780,-0.866,0.255,0.471,-10.85,-22.89,-9.03,
47543790,-0.895,0.358,0.557,-4.182,-25.795,-12.32,
47543800,-0.904,0.232,0.632,-9.1,-25.252,-10.447,
47543810,-0.824,0.161,0.605,-12.04,-19.32,-8.61,
47543820,-0.736,0.112,0.602,-11.69,-19.792,-7.822,
47543830,-0.681,0.043,0.608,-11.62,-14.472,-4.62,
47543840,-0.677,0.095,0.601,-3.22,-6.912,-2.205,
47543850,-0.752,0.174,0.585,1.4,2.677,-0.525,
47543860,-0.823,0.228,0.551,0.682,4.602,1.435,
47543870,-0.861,0.253,0.59,1.592,4.497,1.995,
47543880,-0.876,0.227,0.644,1.697,2.555,1.68,
47543890,-0.779,0.259,0.623,0.997,0.052,1.137,
47543900,-0.703,0.24,0.602,-2.992,-0.822,2.695,
47543910,-0.655,0.248,0.615,-2.467,4.357,5.775,
47543920,-0.696,0.291,0.661,-1.662,10.99,6.597,
47543930,-0.699,0.277,0.633,-7.455,9.607,3.64,
47543940,-0.652,0.281,0.621,-8.382,11.847,6.002,
47543940,-0.743,0.347,0.595,-4.182,13.335,7.56,
47543960,-0.734,0.38,0.526,-2.345,7.857,5.11,
47543960,-0.726,0.415,0.5,0.367,2.59,4.97,
47543980,-0.846,0.429,0.564,2.66,3.395,3.465,
47543980,-0.87,0.41,0.638,-0.805,-2.73,-1.382,
47544000,-0.836,0.335,0.646,-8.085,-9.467,-4.725,
47544000,-0.757,0.256,0.62,-12.04,-15.137,-6.387,
47544010,-0.722,0.261,0.45,-11.13,-17.237,-7.21,
47544020,-0.744,0.369,0.43,-10.465,-28.14,-6.09,
47544030,-0.812,0.201,0.501,-11.987,-32.567,-6.807,
47544040,-0.849,0.262,0.634,1.137,-23.66,-10.097,
47544050,-0.921,0.284,0.698,1.452,-19.495,-8.575,
47544060,-0.806,0.146,0.633,-8.837,-20.125,-5.092,
47544070,-0.678,0.059,0.635,-6.352,-17.745,-6.772,
47544080,-0.665,0.041,0.643,2.415,-5.74,-4.217,
47544090,-0.656,0.117,0.6,7.682,6.387,-1.417,
47544100,-0.7,0.167,0.567,9.835,16.135,2.555,
47544110,-0.797,0.134,0.641,9.1,20.247,6.562,
47544120,-0.747,0.141,0.645,13.475,22.085,7.56,
47544130,-0.812,0.205,0.661,13.772,22.872,7.945,
47544140,-0.764,0.224,0.617,6.422,20.317,8.802,
47544150,-0.809,0.228,0.566,3.202,18.077,9.117,
47544160,-0.727,0.29,0.581,4.322,12.355,6.755,
47544170,-0.743,0.267,0.567,-0.472,12.022,3.325,
47544180,-0.718,0.376,0.566,0.227,8.522,7.367,
47544190,-0.689,0.408,0.583,0.682,6.895,6.632,
47544200,-0.712,0.467,0.578,1.015,7.07,5.722,
47544210,-0.746,0.508,0.606,1.137,7.332,5.46,
47544220,-0.817,0.481,0.635,-2.17,6.51,1.365,
47544230,-0.798,0.401,0.617,-7.612,-0.227,-2.765,
47544240,-0.801,0.399,0.435,-11.095,-7.735,-6.37,
47544250,-0.769,0.384,0.43,-12.617,-22.82,-7.997,
47544260,-0.846,0.25,0.455,-7.262,-25.742,-8.365,
47544270,-0.865,0.367,0.615,4.9,-21.472,-8.312,
47544280,-0.948,0.281,0.635,-3.08,-17.15,-6.405,
47544290,-0.846,0.125,0.608,-12.197,-16.94,-4.917,
47544300,-0.748,0.004,0.583,-10.482,-16.17,-5.372,
47544310,-0.731,-0.04,0.606,-5.11,-12.775,-4.165,
47544320,-0.748,-0.047,0.61,0.735,-8.627,-3.045,
47544330,-0.717,0.039,0.563,7.647,-4.9,-0.98,
47544330,-0.772,0.136,0.518,10.325,-0.227,1.925,
47544350,-0.836,0.21,0.516,13.177,-0.332,4.707,
47544350,-0.87,0.239,0.661,15.207,-0.332,6.3,
47544370,-0.832,0.26,0.661,14.35,2.012,5.95,
47544370,-0.796,0.278,0.637,10.01,1.732,4.602,
47544390,-0.721,0.251,0.587,5.88,1.137,4.602,
47544390,-0.681,0.285,0.574,7.385,1.155,4.987,
47544410,-0.668,0.337,0.573,10.64,0.56,7.175,
47544410,-0.677,0.383,0.607,10.237,1.662,8.102,
47544420,-0.719,0.42,0.624,9.485,0.245,7.647,
47544430,-0.72,0.476,0.611,8.47,-1.4,6.562,
47544440,-0.726,0.445,0.594,4.34,-5.11,2.45,
47544450,-0.763,0.419,0.639,2.082,-6.615,-1.82,
47544460,-0.757,0.36,0.643,0.542,-6.195,-3.815,
47544470,-0.772,0.304,0.632,-3.202,-5.197,-5.302,
47544480,-0.717,0.283,0.507,-4.795,-5.232,-6.877,
47544490,-0.727,0.306,0.482,-5.792,-6.755,-5.425,
47544500,-0.819,0.205,0.536,-7.052,-9.362,-5.442,
47544510,-0.82,0.294,0.53,0.805,-10.972,-8.225,
47544520,-0.865,0.232,0.66,0.052,-11.952,-8.382,
47544530,-0.923,0.154,0.64,-3.43,-7.07,-6.142,
47544540,-0.796,0.123,0.591,-1.4,-11.655,-6.562,
47544550,-0.728,0.088,0.588,-1.61,-14.315,-5.862,
47544560,-0.717,0.094,0.601,0.7,-12.6,-1.33,
47544570,-0.733,0.137,0.571,5.565,-3.727,1.75,
47544580,-0.806,0.236,0.536,7.682,-0.157,3.85,
47544590,-0.839,0.288,0.537,6.65,-3.202,5.915,
47544600,-0.872,0.327,0.592,4.952,-7.525,5.915,
47544610,-0.82,0.271,0.684,2.362,-8.277,5.32,
47544620,-0.693,0.273,0.679,2.362,-2.835,3.045,
47544630,-0.653,0.265,0.638,0.315,0.63,2.887,
47544640,-0.579,0.248,0.624,-0.052,6.527,4.2,
47544650,-0.636,0.298,0.618,4.007,13.86,4.357,
47544660,-0.701,0.348,0.632,4.55,17.587,5.74,
47544670,-0.769,0.358,0.618,1.242,18.9,5.53,
47544670,-0.812,0.366,0.555,-0.42,13.737,3.465,
47544690,-0.768,0.374,0.498,-1.172,5.25,1.995,
47544690,-0.83,0.353,0.557,-2.047,1.102,1.032,
47544710,-0.828,0.33,0.611,-1.977,-3.902,-1.417,
47544710,-0.79,0.305,0.591,-3.535,-7.227,-3.64,
47544730,-0.748,0.3,0.486,-6.002,-12.81,-4.585,
47544730,-0.761,0.279,0.508,-6.93,-21.7,-4.707,
47544750,-0.823,0.282,0.538,-4.34,-25.655,-8.61,
47544750,-0.855,0.325,0.615,-2.66,-31.902,-13.93,
47544760,-0.882,0.282,0.638,-6.755,-35.437,-15.435,
47544770,-0.784,0.138,0.686,-9.905,-31.36,-12.057,
47544780,-0.732,0.096,0.651,-3.395,-15.837,-6.055,
47544790,-0.662,0.116,0.633,-0.42,-8.505,-6.422,
47544800,-0.663,0.083,0.559,0.42,-1.19,-2.852,
47544810,-0.761,0.197,0.548,7.105,5.6,0.927,
47544820,-0.817,0.254,0.581,7.91,6.58,3.325,
47544830,-0.915,0.179,0.663,5.04,6.072,5.215,
47544840,-0.778,0.219,0.666,8.82,8.907,3.552,
47544850,-0.789,0.217,0.656,6.79,11.55,0.087,
47544860,-0.674,0.219,0.626,2.327,10.272,0.647,
47544870,-0.651,0.203,0.588,0.665,10.29,2.625,
47544880,-0.637,0.239,0.578,2.835,12.337,4.952,
47544890,-0.725,0.267,0.564,6.16,12.897,6.3,
47544900,-0.76,0.347,0.546,9.94,8.137,6.545,
47544910,-0.777,0.406,0.525,10.255,2.31,4.655,
47544920,-0.79,0.46,0.522,8.82,-0.385,3.99,
47544930,-0.908,0.461,0.583,4.707,-1.627,4.025,
47544940,-0.826,0.387,0.618,-0.21,-10.22,-1.207,
47544950,-0.722,0.326,0.612,-2.205,-12.932,-5.88,
47544960,-0.717,0.274,0.596,-2.87,-13.51,-7.14,
47544970,-0.733,0.352,0.472,-4.025,-22.295,-8.575,
47544980,-0.776,0.348,0.522,-6.667,-36.837,-10.272,
47544990,-0.885,0.327,0.601,-4.847,-38.272,-12.897,
47545000,-0.909,0.339,0.673,-1.767,-37.03,-12.477,
47545010,-0.842,0.283,0.616,-6.3,-34.562,-9.24,
47545020,-0.741,0.132,0.581,-10.92,-32.27,-6.702,
47545030,-0.659,0.079,0.62,-3.972,-25.935,-3.657,
47545040,-0.654,0.084,0.683,3.097,-17.272,-2.975,
47545050,-0.615,0.061,0.69,5.74,-8.715,-2.38,
47545060,-0.588,0.106,0.61,10.185,2.695,0.035,
47545070,-0.702,0.182,0.569,13.807,14.297,1.715,
47545080,-0.821,0.2,0.65,15.032,19.477,5.267,
47545080,-0.882,0.194,0.683,19.022,18.865,7.892,
47545100,-0.794,0.259,0.644,19.355,13.16,5.232,
47545100,-0.703,0.209,0.583,14.735,10.045,3.972,
47545120,-0.679,0.255,0.588,15.89,13.65,4.69,
47545120,-0.711,0.318,0.584,18.27,15.75,4.2,
47545140,-0.751,0.383,0.629,15.75,15.33,3.15,
47545140,-0.75,0.389,0.614,11.13,12.04,0.84,
47545160,-0.729,0.438,0.574,7.857,9.87,-0.175,
47545160,-0.754,0.447,0.534,4.62,9.292,0.525,
47545170,-0.817,0.452,0.532,1.662,6.352,-0.122,
47545180,-0.808,0.419,0.597,-1.977,-1.4,-4.27,
47545190,-0.769,0.336,0.613,-4.445,-5.057,-5.757,
47545200,-0.728,0.29,0.62,-5.425,-4.252,-6.23,
47545210,-0.728,0.229,0.621,-7.84,-1.347,-6.772,
47545220,-0.756,0.205,0.523,-8.662,-1.172,-7.717,
47545230,-0.714,0.299,0.482,-9.59,-7.507,-8.452,
47545240,-0.857,0.254,0.542,-14.385,-14.385,-11.515,
47545250,-0.899,0.257,0.606,-12.022,-19.845,-13.737,
47545260,-0.851,0.293,0.657,-11.69,-26.705,-13.142,
47545270,-0.791,0.189,0.664,-15.96,-23.432,-9.17,
47545280,-0.722,0.151,0.644,-11.847,-16.38,-7,
47545290,-0.675,0.154,0.649,-4.725,-8.05,-6.09,
47545300,-0.697,0.163,0.631,-2.117,1.295,-3.78,
47545310,-0.731,0.194,0.578,0.017,7.875,-1.102,
47545320,-0.794,0.243,0.548,-0.105,7.787,0.332,
47545330,-0.829,0.254,0.587,-2.572,5.32,3.045,
47545340,-0.846,0.2,0.628,-2.905,1.557,5.04,
47545350,-0.717,0.229,0.637,1.575,2.8,4.585,
47545360,-0.734,0.245,0.631,1.47,9.345,5.145,
47545370,-0.735,0.229,0.611,-1.242,11.147,8.47,
47545380,-0.679,0.244,0.61,-0.122,9.607,11.252,
47545390,-0.669,0.287,0.6,1.277,11.322,12.845,
47545400,-0.702,0.31,0.607,0.14,13.965,12.635,
47545410,-0.74,0.333,0.571,0.367,14.21,10.307,
47545420,-0.73,0.393,0.543,2.257,13.055,7.98,
47545420,-0.836,0.406,0.536,1.452,11.48,5.145,
47545440,-0.838,0.401,0.55,0,3.027,1.295,
47545440,-0.805,0.333,0.583,-0.647,-3.325,-2.712,
47545460,-0.793,0.307,0.603,-1.207,-4.567,-4.497,
47545460,-0.793,0.257,0.613,-3.587,-5.932,-5.635,
47545480,-0.804,0.26,0.53,-5.022,-8.732,-6.527,
47545480,-0.8,0.26,0.518,-5.652,-17.132,-8.365,
47545500,-0.843,0.239,0.528,-5.32,-24.045,-12.215,
47545500,-0.873,0.234,0.579,-4.952,-31.71,-17.762,
47545510,-0.863,0.174,0.614,-5.845,-31.902,-19.302,
47545520,-0.854,0.127,0.674,-6.72,-27.965,-14.157,
47545530,-0.765,0.044,0.64,-7.35,-21.28,-9.1,
47545540,-0.691,0.027,0.597,-3.902,-15.26,-7.525,
47545550,-0.678,0.072,0.557,2.432,-8.907,-6.422,
47545560,-0.706,0.155,0.556,7.805,-5.25,-4.077,
47545570,-0.775,0.172,0.587,9.362,6.09,0.245,
47545580,-0.916,0.216,0.596,11.917,12.25,2.467,
47545590,-0.868,0.213,0.636,11.935,3.972,1.435,
47545600,-0.772,0.205,0.635,10.78,-2.572,-3.447,
47545610,-0.693,0.158,0.584,13.615,-4.707,-5.582,
47545620,-0.655,0.194,0.575,20.457,-2.065,-4.445,
47545630,-0.674,0.213,0.573,24.815,3.832,-4.812,
47545640,-0.706,0.244,0.542,28.21,6.072,-5.355,
47545650,-0.765,0.279,0.551,31.342,6.072,-5.897,
47545660,-0.798,0.298,0.558,34.912,3.535,-8.26,
47545670,-0.788,0.331,0.569,36.942,1.032,-11.077,
47545680,-0.753,0.317,0.561,35.927,1.925,-14.385,
47545690,-0.743,0.284,0.563,37.485,7.437,-17.377,
47545700,-0.771,0.278,0.573,43.47,12.862,-20.195,
47545710,-0.803,0.294,0.576,49.157,16.87,-23.292,
47545720,-0.825,0.274,0.56,52.027,20.037,-25.69,
47545730,-0.847,0.222,0.531,57.015,29.4,-26.617,
47545740,-0.889,0.206,0.473,66.71,40.425,-27.947,
47545750,-0.928,0.209,0.408,75.915,42.77,-32.252,
47545760,-0.954,0.193,0.358,83.51,35.315,-37.905,
47545770,-0.981,0.192,0.327,92.487,18.83,-44.117,
47545780,-1.01,0.207,0.337,101.552,-1.277,-50.207,
47545790,-1.045,0.229,0.368,110.075,-21.98,-58.852,
47545800,-1.02,0.247,0.383,117.11,-40.827,-70.105,
47545810,-1.003,0.233,0.375,122.937,-57.067,-80.15,
47545820,-0.982,0.233,0.389,128.905,-68.547,-86.012,
47545830,-0.991,0.255,0.4,131.32,-77.612,-86.38,
47545830,-0.976,0.261,0.394,127.33,-85.592,-83.125,
47545850,-0.896,0.261,0.381,119.49,-91.542,-77.017,
47545850,-0.82,0.279,0.432,109.987,-89.88,-66.097,
47545870,-0.811,0.315,0.464,96.6,-83.247,-52.36,
47545870,-0.773,0.326,0.516,82.285,-72.817,-42.157,
47545890,-0.694,0.306,0.546,72.45,-60.41,-35.962,
47545890,-0.661,0.301,0.578,69.51,-46.987,-29.662,
47545910,-0.634,0.345,0.614,72.17,-36.732,-28.297,
47545910,-0.638,0.361,0.618,76.335,-31.01,-29.662,
47545920,-0.644,0.386,0.637,81.497,-32.27,-29.802,
47545930,-0.642,0.464,0.672,85.802,-38.972,-27.37,
47545940,-0.591,0.519,0.678,86.117,-49.577,-23.415,
47545950,-0.562,0.565,0.688,81.882,-57.925,-20.475,
47545960,-0.556,0.595,0.696,74.025,-62.282,-19.757,
47545970,-0.581,0.594,0.688,65.292,-62.212,-18.917,
47545980,-0.594,0.608,0.678,56.805,-56.787,-19.915,
47545990,-0.632,0.584,0.649,47.495,-46.235,-23.52,
47546000,-0.683,0.537,0.611,41.597,-37.765,-27.667,
47546010,-0.694,0.551,0.596,39.462,-33.722,-28.98,
47546020,-0.693,0.484,0.57,36.067,-33.932,-26.145,
47546030,-0.688,0.435,0.561,29.855,-32.025,-27.755,
47546040,-0.707,0.402,0.581,23.712,-29.347,-29.855,
47546050,-0.741,0.349,0.597,17.867,-27.387,-30.327,
47546060,-0.73,0.311,0.602,15.137,-27.615,-28.455,
47546070,-0.704,0.325,0.609,13.755,-24.535,-22.89,
47546080,-0.698,0.312,0.619,9.152,-18.847,-17.622,
47546090,-0.74,0.289,0.607,3.762,-15.085,-12.092,
47546100,-0.761,0.267,0.594,0.717,-15.067,-6.527,
47546110,-0.775,0.256,0.578,2.047,-17.36,-2.537,
47546120,-0.847,0.258,0.576,7.227,-23.275,-0.437,
47546130,-0.814,0.283,0.568,13.545,-35.105,-1.575,
47546140,-0.824,0.33,0.56,19.355,-49.84,-4.69,
47546150,-0.788,0.394,0.564,20.72,-64.032,-8.435,
47546160,-0.691,0.458,0.605,15.68,-68.355,-7,
47546170,-0.792,0.422,0.648,7.612,-58.135,0.735,
47546170,-0.647,0.379,0.62,1.575,-54.267,-2.537,
47546190,-0.625,0.344,0.64,-0.612,-47.565,-3.202,
47546190,-0.656,0.338,0.662,0.122,-44.17,-3.517,
47546210,-0.646,0.344,0.666,-0.647,-41.772,-0.612,
47546210,-0.704,0.309,0.649,-3.08,-38.395,2.852,
47546230,-0.692,0.302,0.634,-2.87,-39.725,5.215,
47546230,-0.642,0.347,0.657,-3.465,-41.422,8.785,
47546250,-0.661,0.355,0.688,-7.91,-40.022,13.352,
47546250,-0.64,0.347,0.687,-12.547,-38.587,16.187,
47546260,-0.58,0.363,0.695,-16.345,-35.84,18.76,
47546270,-0.539,0.363,0.704,-20.545,-27.947,22.68,
47546280,-0.489,0.338,0.719,-23.432,-17.727,26.495,
47546290,-0.391,0.346,0.711,-23.152,-4.952,27.72,
47546300,-0.3,0.506,0.73,-27.405,24.29,29.89,
47546310,-0.54,0.448,0.785,-45.972,57.767,33.005,
47546320,-0.623,0.227,0.707,-53.147,73.657,30.485,
47546330,-0.684,0.263,0.646,-42.892,81.515,26.005,
47546340,-0.786,0.242,0.613,-30.38,74.9,16.975,
47546350,-0.891,0.212,0.57,-14.77,56.682,10.937,
47546360,-0.858,0.334,0.572,0.28,35.157,6.58,
47546370,-0.899,0.345,0.562,4.795,16.485,2.082,
47546380,-0.912,0.323,0.572,7.472,-2.922,-2.45,
47546390,-0.912,0.336,0.591,11.672,-19.862,-2.835,
47546400,-0.866,0.304,0.593,14.262,-38.29,-3.552,
47546410,-0.909,0.235,0.562,20.912,-56.21,-6.037,
47546420,-0.733,0.206,0.582,39.55,-86.047,-19.81,
47546430,-0.569,0.403,0.661,57.225,-94.5,-29.4,
47546440,-0.535,0.438,0.744,53.235,-83.755,-30.327,
47546450,-0.627,0.407,0.756,36.697,-70.245,-22.855,
47546460,-0.581,0.35,0.668,22.872,-63.157,-11.707,
47546470,-0.576,0.368,0.659,14.157,-54.285,-2.835,
47546480,-0.557,0.381,0.68,7.42,-50.085,2.695,
47546490,-0.589,0.41,0.736,0.21,-41.405,11.112,
47546500,-0.595,0.387,0.748,-8.767,-38.132,16.222,
47546510,-0.445,0.367,0.738,-15.172,-35.507,21.157,
47546520,-0.381,0.369,0.733,-17.762,-21.665,25.217,
47546530,-0.435,0.378,0.769,-18.462,-3.167,26.425,
47546540,-0.403,0.334,0.776,-18.725,10.447,24.132,
47546550,-0.265,0.394,0.716,-17.255,31.342,21.437,
47546560,-0.444,0.569,0.751,-30.047,72.485,27.002,
47546570,-0.859,0.254,0.709,-47.547,85.295,28.735,
47546580,-0.803,0.204,0.616,-35.367,72.397,20.685,
47546580,-0.747,0.322,0.63,-16.485,54.075,14.14,
47546600,-0.786,0.347,0.636,-8.207,39.602,7.612,
47546600,-0.829,0.318,0.618,-3.867,23.432,3.29,
47546620,-0.778,0.326,0.615,4.392,6.002,-2.975,
47546620,-0.78,0.368,0.641,10.937,-7.98,-9.485,
47546640,-0.822,0.323,0.644,14.227,-19.74,-14.525,
47546640,-0.816,0.3,0.621,20.65,-33.635,-18.305,
47546660,-0.737,0.339,0.634,28.157,-41.965,-22.732,
47546660,-0.806,0.28,0.652,34.842,-49.77,-29.032,
47546670,-0.553,0.162,0.707,52.237,-74.917,-41.23,
47546680,-0.267,0.468,0.77,62.737,-74.077,-43.015,
47546690,-0.4,0.521,0.762,46.707,-48.02,-33.81,
47546700,-0.544,0.385,0.726,28.175,-24.185,-28.647,
47546710,-0.709,0.387,0.686,18.182,-13.37,-18.042,
47546720,-0.684,0.42,0.654,9.73,-19.67,-11.532,
47546730,-0.649,0.454,0.677,-0.507,-20.265,-2.24,
47546740,-0.718,0.448,0.708,-15.662,-19.617,11.97,
47546750,-0.571,0.361,0.699,-29.837,-23.345,23.485,
47546760,-0.476,0.3,0.708,-35.35,-21.07,30.607,
47546770,-0.281,0.387,0.728,-32.9,-6.597,32.952,
47546780,-0.36,0.539,0.815,-42.385,30.94,42.122,
47546790,-0.47,0.324,0.754,-57.505,56.175,44.66,
47546800,-0.444,0.339,0.733,-57.75,76.93,45.885,
47546810,-0.677,0.273,0.728,-53.165,88.042,39.917,
47546820,-0.728,0.187,0.659,-37.677,80.71,25.62,
47546830,-0.627,0.276,0.642,-13.982,67.025,12.687,
47546840,-0.809,0.368,0.639,0.052,58.117,4.357,
47546850,-0.898,0.284,0.576,5.407,35.927,-6.737,
47546860,-0.902,0.323,0.561,17.692,10.43,-15.592,
47546870,-0.902,0.359,0.591,28.14,-11.515,-23.082,
47546880,-0.897,0.344,0.586,31.517,-31.64,-21.525,
47546890,-0.925,0.271,0.564,34.177,-53.847,-19.162,
47546900,-0.788,0.167,0.59,50.417,-89.495,-30.73,
47546910,-0.427,0.39,0.775,68.127,-101.92,-39.935,
47546920,-0.391,0.494,0.821,62.72,-82.495,-41.755,
47546920,-0.427,0.395,0.745,44.257,-58.187,-37.275,
47546940,-0.429,0.418,0.724,31.465,-33.722,-26.582,
47546940,-0.612,0.448,0.696,18.62,-14.07,-12.53,
47546960,-0.638,0.456,0.678,4.147,-8.54,-0.647,
47546960,-0.624,0.466,0.698,-12.687,-6.58,13.93,
47546980,-0.593,0.361,0.689,-27.597,-8.102,28.192,
47546980,-0.446,0.401,0.739,-33.792,-3.832,38.937,
47547000,-0.295,0.503,0.748,-42.717,15.33,48.632,
47547000,-0.399,0.496,0.787,-62.93,50.54,60.077,
47547010,-0.556,0.267,0.716,-75.74,75.705,62.3,
47547020,-0.635,0.198,0.655,-66.57,85.067,55.3,
47547030,-0.789,0.208,0.621,-46.987,75.932,39.287,
47547040,-0.748,0.221,0.626,-21.735,51.31,19.862,
47547050,-0.735,0.406,0.66,-0.507,35.997,7.647,
47547060,-0.793,0.403,0.649,5.11,23.73,-1.82,
47547070,-0.791,0.373,0.642,6.632,12.495,-9.817,
47547080,-0.856,0.355,0.62,10.29,0.297,-15.26,
47547090,-0.85,0.317,0.594,16.572,-15.557,-20.842,
47547100,-0.803,0.335,0.6,25.62,-29.75,-24.027,
47547110,-0.825,0.296,0.634,33.005,-41.405,-28.577,
47547120,-0.723,0.184,0.645,46.41,-67.917,-38.972,
47547130,-0.447,0.392,0.738,60.48,-74.445,-43.487,
47547140,-0.533,0.43,0.758,56.385,-66.307,-42.42,
47547150,-0.502,0.409,0.708,40.582,-55.492,-35.56,
47547160,-0.591,0.409,0.682,27.352,-43.312,-21.7,
47547170,-0.573,0.443,0.682,13.86,-33.022,-9.992,
47547180,-0.703,0.431,0.681,-0.927,-27.212,4.952,
47547190,-0.622,0.379,0.686,-13.457,-31.027,16.012,
47547200,-0.461,0.389,0.73,-20.755,-31.045,29.89,
47547210,-0.422,0.38,0.743,-30.17,-22.295,45.202,
47547220,-0.389,0.353,0.744,-35.087,-10.097,56.297,
47547230,-0.241,0.56,0.758,-42.472,19.792,66.762,
47547240,-0.602,0.504,0.748,-67.06,55.195,83.195,
47547250,-0.72,0.276,0.68,-80.885,64.627,87.045,
47547260,-0.713,0.259,0.644,-71.575,59.517,85.452,
47547270,-0.885,0.166,0.638,-52.99,37.835,69.93,
47547280,-0.757,0.226,0.675,-24.167,6.23,42.455,
47547290,-0.568,0.394,0.719,3.185,-11.83,19.705,
47547300,-0.599,0.407,0.703,14.297,-12.845,2.712,
47547310,-0.713,0.376,0.695,20.247,-13.195,-10.01,
47547320,-0.705,0.366,0.688,27.195,-19.775,-20.877,
47547330,-0.68,0.396,0.683,34.23,-24.57,-28.472,
47547330,-0.841,0.352,0.648,39.847,-38.92,-37.135,
47547350,-0.532,0.279,0.725,51.362,-71.855,-54.25,
47547350,-0.397,0.525,0.786,57.47,-63.84,-55.86,
47547360,-0.496,0.413,0.756,47.617,-51.642,-53.077,
47547370,-0.398,0.395,0.731,34.265,-39.305,-45.272,
47547380,-0.535,0.433,0.714,25.13,-23.677,-27.702,
47547390,-0.554,0.419,0.706,11.497,-14.402,-16.275,
47547400,-0.64,0.442,0.721,-1.977,-6.422,-2.502,
47547410,-0.581,0.374,0.714,-13.545,-8.312,9.152,
47547420,-0.481,0.388,0.732,-19.407,-9.45,19.197,
47547430,-0.414,0.414,0.771,-25.847,-1.47,28.735,
47547440,-0.377,0.38,0.758,-31.99,10.325,35.385,
47547450,-0.243,0.551,0.773,-40.407,41.807,43.015,
47547460,-0.557,0.498,0.785,-61.162,79.292,56.175,
47547470,-0.659,0.269,0.681,-70.735,88.427,55.65,
47547480,-0.61,0.341,0.659,-61.617,85.05,52.01,
47547490,-0.713,0.29,0.677,-51.747,79.572,40.775,
47547500,-0.806,0.274,0.661,-35.052,65.397,24.045,
47547510,-0.692,0.25,0.635,-14.822,38.237,6.877,
47547520,-0.597,0.373,0.659,6.51,24.815,-5.582,
47547530,-0.696,0.404,0.693,13.247,21.787,-13.807,
47547540,-0.801,0.321,0.648,15.96,14.875,-21.945,
47547550,-0.864,0.321,0.614,24.99,-0.105,-27.002,
47547560,-0.883,0.36,0.609,34.597,-19.442,-31.692,
47547570,-0.99,0.205,0.588,47.547,-57.382,-45.307,
47547580,-0.571,0.273,0.716,70.455,-97.807,-65.835,
47547590,-0.386,0.54,0.803,80.272,-88.637,-67.795,
47547600,-0.381,0.434,0.769,63.14,-65.87,-63.805,
47547610,-0.343,0.412,0.718,44.31,-37.415,-49.962,
47547620,-0.491,0.496,0.711,26.95,-7.577,-29.347,
47547630,-0.66,0.409,0.674,5.495,6.3,-12.145,
47547640,-0.673,0.367,0.659,-7.91,5.967,0.105,
47547650,-0.591,0.383,0.689,-12.565,-1.067,8.557,
47547660,-0.538,0.413,0.717,-17.745,-1.347,16.17,
47547670,-0.514,0.368,0.724,-23.31,2.852,21.35,
47547670,-0.363,0.499,0.742,-27.947,20.335,27.335,
47547690,-0.523,0.53,0.739,-46.742,49.98,42.017,
47547690,-0.584,0.33,0.69,-63.892,63.77,50.365,
47547710,-0.582,0.295,0.642,-63.805,68.652,54.547,
47547710,-0.563,0.368,0.668,-57.4,73.272,50.977,
47547730,-0.764,0.304,0.674,-53.567,72.747,45.325,
47547730,-0.76,0.233,0.651,-41.002,58.625,33.897,
47547750,-0.764,0.321,0.641,-21.315,42.297,21.997,
47547750,-0.755,0.314,0.614,-9.485,24.255,8.767,
47547760,-0.756,0.362,0.634,6.16,10.552,-0.962,
47547770,-0.791,0.416,0.647,12.127,2.187,-7.997,
47547780,-0.814,0.355,0.634,12.757,-9.187,-13.58,
47547790,-0.822,0.335,0.624,15.785,-22.242,-17.185,
47547800,-0.794,0.338,0.612,21.682,-33.827,-22.54,
47547810,-0.869,0.229,0.587,34.335,-54.512,-34.16,
47547820,-0.561,0.296,0.679,53.952,-80.622,-51.257,
47547830,-0.475,0.49,0.788,62.037,-74.235,-54.722,
47547840,-0.632,0.414,0.723,48.352,-63.227,-49.927,
47547850,-0.586,0.339,0.664,38.57,-59.937,-43.33,
47547860,-0.603,0.375,0.68,35.35,-57.435,-33.547,
47547870,-0.582,0.398,0.689,27.597,-55.335,-25.252,
47547880,-0.53,0.39,0.693,19.232,-49.017,-16.502,
47547890,-0.6,0.433,0.709,8.732,-37.52,-4.357,
47547900,-0.597,0.388,0.702,-5.075,-35,7.035,
47547910,-0.566,0.398,0.72,-16.66,-31.675,21.017,
47547920,-0.448,0.371,0.739,-25.672,-29.382,32.357,
47547930,-0.427,0.352,0.74,-30.87,-20.212,39.795,
47547940,-0.171,0.476,0.78,-33.46,4.025,45.29,
47547950,-0.274,0.54,0.803,-49.087,49.28,61.67,
47547960,-0.425,0.455,0.766,-70.717,88.882,74.322,
47547970,-0.565,0.325,0.714,-81.97,110.32,77.98,
47547980,-0.795,0.23,0.666,-75.705,114.747,69.615,
47547990,-0.961,0.14,0.596,-52.115,89.46,46.76,
47548000,-0.779,0.244,0.589,-14.892,48.965,18.9,
47548010,-0.724,0.423,0.632,9.607,22.417,2.257,
47548020,-0.856,0.432,0.655,13.667,8.627,-6.912,
47548030,-0.875,0.357,0.644,15.4,-6.615,-16.8,
47548040,-0.795,0.338,0.629,22.785,-23.537,-26.355,
47548050,-0.717,0.3,0.625,34.23,-34.93,-35.21,
47548050,-0.871,0.219,0.635,52.675,-51.607,-47.442,
47548070,-0.475,0.2,0.736,78.242,-86.135,-67.567,
47548070,-0.17,0.473,0.869,96.39,-74.515,-74.27,
47548080,-0.375,0.429,0.804,84.805,-37.835,-70.875,
47548090,-0.465,0.368,0.708,67.707,-12.547,-61.88,
47548100,-0.677,0.419,0.637,56.14,-0.77,-42.595,
47548110,-0.806,0.47,0.6,39.515,1.715,-25.812,
47548120,-0.8,0.502,0.575,22.015,-8.172,-11.357,
47548130,-0.789,0.503,0.598,-0.577,-16.625,5.932,
47548140,-0.749,0.379,0.661,-18.795,-32.602,23.695,
47548150,-0.579,0.378,0.687,-27.877,-42.472,35.647,
47548160,-0.306,0.479,0.715,-31.587,-35.63,41.37,
47548170,-0.282,0.529,0.763,-46.847,-1.19,53.917,
47548180,-0.34,0.469,0.762,-64.75,39.357,65.187,
47548190,-0.524,0.376,0.732,-77.542,72.537,72.922,
47548200,-0.579,0.336,0.684,-79.467,87.57,70.577,
47548210,-0.888,0.218,0.677,-71.382,83.912,61.46,
47548220,-0.899,0.215,0.642,-49.805,51.59,40.932,
47548230,-0.692,0.246,0.623,-18.725,13.265,18.637,
47548240,-0.485,0.411,0.702,6.545,-1.785,1.19,
47548250,-0.672,0.459,0.724,8.645,4.935,-3.762,
47548260,-0.691,0.348,0.671,4.252,3.815,-7.525,
47548270,-0.678,0.388,0.66,8.505,0.682,-9.432,
47548280,-0.733,0.361,0.654,10.937,-4.917,-13.667,
47548290,-0.78,0.326,0.638,17.377,-13.44,-19.722,
47548300,-0.746,0.369,0.647,26.232,-22.732,-25.97,
47548310,-0.825,0.197,0.642,37.8,-48.055,-37.59,
47548320,-0.564,0.377,0.737,56.7,-69.755,-51.852,
47548330,-0.501,0.497,0.776,57.662,-63.647,-50.312,
47548340,-0.648,0.371,0.671,42.122,-52.43,-41.737,
47548350,-0.503,0.37,0.65,34.685,-48.352,-34.912,
47548360,-0.485,0.449,0.663,26.757,-37.205,-23.87,
47548370,-0.636,0.429,0.67,12.53,-25.13,-12.442,
47548380,-0.623,0.433,0.67,0.192,-19.67,-3.482,
47548390,-0.681,0.415,0.694,-10.552,-19.827,4.637,
47548400,-0.57,0.398,0.725,-17.885,-27.16,11.147,
47548410,-0.508,0.428,0.733,-25.97,-28.787,21.945,
47548420,-0.492,0.377,0.709,-35.367,-25.217,29.68,
47548420,-0.3,0.567,0.729,-43.102,-8.435,38.185,
47548440,-0.418,0.542,0.759,-66.307,22.96,55.667,
47548440,-0.426,0.482,0.746,-87.097,56.962,72.415,
47548460,-0.541,0.424,0.713,-102.515,88.235,86.747,
47548460,-0.878,0.144,0.64,-103.897,97.702,84.385,
47548480,-0.938,0.081,0.626,-74.655,66.71,58.607,
47548480,-0.658,0.217,0.724,-36.067,21.577,27.142,
47548500,-0.499,0.268,0.706,-10.272,-0.245,7.087,
47548500,-0.546,0.341,0.743,7.63,0.017,-3.867,
47548510,-0.68,0.335,0.704,14.367,2.957,-8.137,
47548520,-0.701,0.39,0.706,19.81,-2.1,-14.297,
47548530,-0.746,0.38,0.671,20.352,-9.8,-16.642,
47548540,-0.67,0.339,0.656,23.31,-18.41,-19.232,
47548550,-0.71,0.312,0.698,29.155,-23.52,-21.98,
47548560,-0.485,0.203,0.712,42.315,-40.775,-31.99,
47548570,-0.341,0.459,0.829,54.11,-32.69,-36.312,
47548580,-0.63,0.346,0.765,43.225,-14.175,-30.292,
47548590,-0.639,0.255,0.711,43.137,-13.125,-30.257,
47548600,-0.602,0.361,0.703,51.31,-17.657,-29.365,
47548610,-0.593,0.411,0.675,49.052,-16.555,-28.367,
47548620,-0.706,0.41,0.669,41.79,-16.835,-25.305,
47548630,-0.63,0.469,0.615,30.642,-22.82,-18.13,
47548640,-0.717,0.489,0.651,14.542,-22.347,-5.932,
47548650,-0.73,0.434,0.656,-0.14,-29.365,2.362,
47548660,-0.63,0.45,0.69,-10.78,-37.502,8.837,
47548670,-0.554,0.382,0.722,-18.882,-40.67,12.372,
47548680,-0.424,0.421,0.754,-22.645,-35.892,17.36,
47548690,-0.418,0.403,0.761,-29.61,-22.837,20.317,
47548700,-0.37,0.499,0.711,-34.142,-8.61,18.357,
47548710,-0.473,0.591,0.786,-50.225,9.66,22.61,
47548720,-0.586,0.437,0.766,-69.93,24.605,28.035,
47548730,-0.614,0.42,0.721,-78.12,35.84,35.122,
47548740,-0.733,0.231,0.714,-81.55,34.842,36.802,
47548750,-0.628,0.215,0.693,-63.49,25.69,30.327,
47548760,-0.627,0.262,0.707,-48.247,16.187,22.785,
47548760,-0.597,0.251,0.729,-35.542,10.465,14.49,
47548780,-0.596,0.255,0.733,-25.637,6.895,11.13,
47548780,-0.554,0.254,0.733,-16.432,3.027,7.017,
47548800,-0.531,0.284,0.752,-7.455,4.865,4.935,
47548800,-0.577,0.275,0.738,-0.63,8.33,4.427,
47548820,-0.566,0.298,0.72,9.152,10.43,0.77,
47548820,-0.595,0.357,0.735,16.817,12.092,-3.517,
47548830,-0.673,0.351,0.706,17.605,11.217,-5.6,
47548840,-0.71,0.351,0.696,20.02,5.022,-8.295,
47548850,-0.711,0.258,0.771,24.972,-1.54,-12.757,
47548860,-0.531,0.15,0.689,44.555,-6.72,-22.47,
47548870,-0.531,0.277,0.76,66.342,-8.487,-31.902,
47548880,-0.534,0.255,0.725,74.322,-15.207,-39.882,
47548890,-0.51,0.44,0.72,73.552,-16.555,-37.205,
47548900,-0.59,0.506,0.67,49.402,-9.345,-22.82,
47548910,-0.808,0.428,0.618,26.285,-5.355,-5.495,
47548920,-0.747,0.534,0.645,11.882,-9.835,4.025,
47548930,-0.781,0.463,0.655,-4.497,-21.105,11.97,
47548940,-0.6,0.412,0.706,-11.725,-30.905,13.335,
47548950,-0.484,0.391,0.746,-12.302,-30.205,11.55,
47548960,-0.413,0.384,0.779,-11.41,-21.052,8.347,
47548970,-0.397,0.367,0.771,-11.445,-7.665,6.247,
47548980,-0.449,0.398,0.75,-12.197,7.49,6.422,
47548990,-0.491,0.537,0.684,-20.055,22.365,10.167,
47549000,-0.733,0.543,0.707,-45.622,33.285,23.87,
47549010,-0.828,0.292,0.654,-66.587,24.255,31.272,
47549020,-0.631,0.373,0.685,-66.57,14.315,39.007,
47549030,-0.678,0.387,0.71,-71.907,11.602,43.89,
47549040,-0.653,0.232,0.722,-72.292,4.48,41.895,
47549050,-0.551,0.212,0.744,-58.59,-2.362,36.33,
47549060,-0.446,0.274,0.767,-40.775,-3.5,28.175,
47549070,-0.435,0.294,0.78,-29.995,3.587,20.72,
47549080,-0.542,0.261,0.757,-20.86,12.267,15.085,
47549090,-0.519,0.29,0.745,-8.242,17.202,9.31,
47549100,-0.58,0.34,0.738,-1.102,22.347,7.105,
47549110,-0.669,0.257,0.7,1.47,21.892,4.935,
47549120,-0.644,0.272,0.707,13.16,15.942,-0.857,
47549130,-0.656,0.338,0.718,24.587,11.165,-7.14,
47549140,-0.669,0.348,0.732,29.977,5.722,-12.687,
47549150,-0.653,0.293,0.762,35.28,2.467,-18.095,
47549160,-0.631,0.191,0.707,50.522,-2.415,-30.292,
47549170,-0.557,0.272,0.77,73.465,-10.08,-48.002,
47549170,-0.548,0.344,0.748,86.327,-19.197,-62.37,
47549190,-0.573,0.504,0.725,80.5,-13.58,-61.442,
47549190,-0.753,0.419,0.626,60.585,-9.975,-48.597,
47549210,-0.712,0.425,0.613,45.097,-13.51,-35.192,
47549210,-0.69,0.456,0.609,31.535,-18.462,-19.53,
47549230,-0.713,0.51,0.63,12.53,-17.342,-2.502,
47549230,-0.713,0.384,0.654,-4.305,-25.427,5.53,
47549250,-0.525,0.386,0.714,-8.522,-29.942,9.73,
47549250,-0.463,0.362,0.73,-12.967,-24.867,12.88,
47549260,-0.436,0.347,0.758,-14.192,-14.087,13.597,
47549270,-0.441,0.382,0.745,-13.702,-0.122,13.212,
47549280,-0.411,0.566,0.702,-19.11,17.745,14.63,
47549290,-0.621,0.556,0.714,-44.415,35.507,23.135,
47549300,-0.746,0.37,0.664,-64.697,38.937,28.577,
47549310,-0.65,0.397,0.673,-70.577,37.327,35.91,
47549320,-0.762,0.362,0.699,-76.562,35.21,42.192,
47549330,-0.722,0.238,0.697,-75.075,23.712,39.515,
47549340,-0.577,0.26,0.721,-62.09,13.912,33.372,
47549350,-0.529,0.3,0.744,-50.942,13.282,25.83,
47549360,-0.529,0.244,0.751,-43.207,14.14,19.057,
47549370,-0.517,0.26,0.749,-32.235,17.937,13.895,
47549380,-0.558,0.202,0.711,-19.197,19.81,5.407,
47549390,-0.595,0.257,0.727,-0.857,24.185,-2.257,
47549400,-0.679,0.316,0.7,11.672,26.757,-4.935,
47549410,-0.693,0.308,0.678,18.007,23.8,-10.517,
47549420,-0.735,0.332,0.681,21.245,16.257,-15.487,
47549430,-0.74,0.316,0.672,24.815,9.327,-17.885,
47549440,-0.766,0.287,0.649,32.69,0.367,-23.835,
47549450,-0.698,0.214,0.677,48.282,-16.1,-36.767,
47549460,-0.568,0.294,0.738,68.057,-24.972,-49.245,
47549470,-0.637,0.346,0.753,77.945,-21.017,-55.492,
47549480,-0.523,0.348,0.72,76.597,-17.167,-57.365,
47549490,-0.617,0.427,0.678,65.047,-4.655,-44.257,
47549500,-0.785,0.349,0.636,44.8,-5.092,-26.81,
47549510,-0.676,0.389,0.592,31.01,-14.507,-11.567,
47549510,-0.77,0.439,0.623,17.377,-13.772,3.377,
47549530,-0.756,0.35,0.632,6.965,-21.402,8.977,
47549530,-0.626,0.401,0.671,4.97,-29.05,12.967,
47549550,-0.591,0.384,0.698,3.395,-29.977,12.547,
47549550,-0.5,0.415,0.708,3.797,-23.695,8.225,
47549570,-0.521,0.454,0.71,0.087,-12.46,6.58,
47549570,-0.568,0.375,0.697,-7.63,-4.025,4.69,
47549580,-0.566,0.352,0.704,-10.027,2.012,4.497,
47549590,-0.581,0.354,0.694,-12.565,7.647,6.79,
47549600,-0.578,0.389,0.692,-14.77,11.462,9.275,
47549610,-0.508,0.608,0.687,-25.077,20.58,14.717,
47549620,-0.764,0.488,0.665,-52.955,28.612,22.715,
47549630,-0.783,0.345,0.627,-62.562,21.105,17.465,
47549640,-0.716,0.444,0.66,-60.375,11.76,13.02,
47549650,-0.723,0.271,0.695,-62.195,5.197,12.18,
47549660,-0.583,0.21,0.707,-51.817,3.01,15.592,
47549670,-0.487,0.252,0.748,-40.932,12.04,23.047,
47549680,-0.548,0.13,0.73,-34.772,20.65,20.702,
47549690,-0.516,0.169,0.746,-18.445,28.577,14.297,
47549700,-0.571,0.232,0.712,-4.83,34.545,8.942,
47549710,-0.631,0.236,0.67,6.65,37.52,5.722,
47549720,-0.72,0.328,0.654,19.145,35.122,0.84,
47549730,-0.843,0.39,0.646,23.975,27.387,-4.252,
47549740,-0.832,0.381,0.632,23.415,12.477,-9.765,
47549750,-0.8,0.374,0.625,21.752,-2.187,-11.882,
47549760,-0.767,0.304,0.658,24.36,-14.332,-14.84,
47549770,-0.646,0.254,0.666,36.82,-22.015,-23.082,
47549780,-0.502,0.343,0.728,52.762,-20.667,-32.847,
47549790,-0.581,0.388,0.743,53.375,-11.917,-36.4,
47549800,-0.601,0.341,0.672,46.13,-10.552,-35.227,
47549810,-0.681,0.399,0.63,40.145,-6.142,-29.977,
47549820,-0.832,0.332,0.619,31.675,-7.07,-24.902,
47549830,-0.72,0.363,0.588,28.157,-17.745,-19.547,
47549840,-0.788,0.4,0.603,22.207,-23.432,-10.937,
47549850,-0.712,0.374,0.618,12.862,-31.465,-5.862,
47549860,-0.62,0.423,0.655,4.847,-34.772,0.227,
47549870,-0.587,0.403,0.687,-8.522,-27.86,6.282,
47549880,-0.523,0.353,0.711,-19.757,-18.917,13.002,
47549890,-0.491,0.364,0.715,-28.122,-8.47,20.912,
47549900,-0.517,0.386,0.722,-36.19,3.622,22.907,
47549910,-0.539,0.476,0.676,-45.202,14.63,27.195,
47549920,-0.591,0.55,0.702,-63.997,25.637,37.205,
47549920,-0.728,0.412,0.685,-82.53,38.202,46.83,
47549940,-0.798,0.238,0.646,-83.58,41.265,49.56,
47549940,-0.768,0.192,0.631,-71.435,31.78,43.067,
47549960,-0.725,0.179,0.667,-51.415,16.957,32.252,
47549960,-0.602,0.241,0.716,-32.06,6.615,21.455,
47549980,-0.565,0.208,0.7,-16.415,3.972,10.115,
47549980,-0.529,0.28,0.692,3.43,8.295,-0.105,
47550000,-0.666,0.341,0.687,17.657,13.457,-9.38,
47550000,-0.788,0.382,0.655,23.835,10.92,-17.29,
47550010,-0.877,0.36,0.606,22.75,0.84,-18.952,
47550020,-0.868,0.286,0.628,23.695,-15.435,-20.23,
47550030,-0.777,0.175,0.625,34.317,-31.342,-25.69,
47550040,-0.587,0.227,0.689,54.355,-39.9,-33.617,
47550050,-0.517,0.274,0.745,66.08,-40.39,-41.107,
47550060,-0.502,0.397,0.752,63.262,-31.622,-40.232,
47550070,-0.66,0.376,0.67,48.002,-19.757,-29.61,
47550080,-0.75,0.341,0.622,36.487,-18.322,-22.015,
47550090,-0.729,0.41,0.607,31.255,-22.295,-16.607,
47550100,-0.831,0.379,0.621,23.397,-32.025,-11.69,
47550110,-0.662,0.444,0.636,16.012,-42.157,-7.332,
47550120,-0.658,0.493,0.678,1.592,-41.44,3.062,
47550130,-0.639,0.37,0.7,-18.427,-38.167,12.547,
47550140,-0.48,0.361,0.711,-28.595,-34.527,20.58,
47550150,-0.523,0.355,0.702,-36.715,-25.655,27.982,
47550160,-0.475,0.36,0.706,-38.867,-13.982,27.947,
47550170,-0.487,0.456,0.731,-42.56,5.39,32.952,
47550180,-0.574,0.438,0.716,-54.932,25.76,43.365,
47550190,-0.646,0.372,0.721,-65.292,39.882,53.742,
47550200,-0.628,0.245,0.744,-68.425,44.905,57.242,
47550210,-0.668,0.19,0.698,-56.42,44.432,50.995,
47550220,-0.619,0.157,0.735,-35.297,33.95,31.85,
47550230,-0.53,0.215,0.698,-9.782,25.2,13.352,
47550240,-0.53,0.313,0.692,12.81,23.957,-1.207,
47550250,-0.721,0.415,0.713,24.377,25.97,-13.562,
47550260,-0.876,0.404,0.67,22.207,19.39,-19.512,
47550260,-0.913,0.287,0.615,20.615,1.75,-22.645,
47550280,-0.799,0.2,0.591,35.297,-19.53,-32.165,
47550280,-0.665,0.232,0.648,58.52,-37.292,-45.132,
47550300,-0.579,0.281,0.727,75.932,-48.072,-56.122,
47550300,-0.497,0.42,0.792,77.297,-46.497,-59.605,
47550320,-0.532,0.452,0.733,55.422,-34.002,-47.302,
47550320,-0.718,0.32,0.624,33.985,-22.295,-29.802,
47550330,-0.662,0.379,0.622,27.37,-17.097,-19.722,
47550340,-0.703,0.418,0.634,19.355,-14.42,-8.365,
47550350,-0.706,0.398,0.628,7.945,-17.01,1.785,
47550360,-0.633,0.431,0.681,-4.795,-21.262,11.252,
47550370,-0.612,0.353,0.694,-20.457,-23.292,19.705,
47550380,-0.502,0.35,0.721,-24.955,-20.667,23.73,
47550390,-0.452,0.432,0.754,-27.702,-8.435,27.667,
47550400,-0.417,0.5,0.727,-39.392,8.802,34.387,
47550410,-0.517,0.517,0.741,-60.095,31.202,43.487,
47550420,-0.605,0.381,0.74,-76.125,51.205,49.91,
47550430,-0.643,0.381,0.715,-78.732,66.885,54.25,
47550440,-0.675,0.214,0.699,-75.652,69.737,49.822,
47550450,-0.724,0.161,0.678,-56.455,63.507,35.105,
47550460,-0.61,0.198,0.687,-30.17,53.025,18.567,
47550470,-0.613,0.208,0.64,-10.237,46.602,5.827,
47550480,-0.642,0.233,0.613,11.305,42.525,-7.945,
47550490,-0.791,0.354,0.632,29.032,37.887,-21.542,
47550500,-0.936,0.359,0.606,35.84,26.197,-30.712,
47550510,-0.981,0.278,0.593,41.107,7.752,-35.892,
47550520,-0.948,0.19,0.57,54.95,-20.37,-46.357,
47550530,-0.707,0.235,0.619,74.795,-48.055,-60.34,
47550540,-0.596,0.314,0.683,87.237,-62.527,-69.44,
47550550,-0.549,0.424,0.716,82.512,-59.657,-66.745,
47550560,-0.598,0.368,0.67,64.785,-47.897,-55.842,
47550570,-0.609,0.395,0.657,51.66,-28.21,-41.3,
47550580,-0.884,0.308,0.618,40.53,-26.617,-28.647,
47550590,-0.624,0.36,0.619,34.877,-41.93,-26.67,
47550600,-0.637,0.477,0.662,30.782,-39.707,-19.967,
47550610,-0.624,0.478,0.647,14.175,-32.602,-12.267,
47550620,-0.624,0.429,0.713,-2.467,-22.592,-1.242,
47550630,-0.553,0.383,0.734,-16.38,-12.39,7.14,
47550640,-0.481,0.342,0.718,-22.085,0.875,9.467,
47550650,-0.441,0.323,0.716,-20.142,17.342,8.54,
47550660,-0.479,0.339,0.72,-17.185,33.792,7.245,
47550670,-0.539,0.352,0.692,-16.887,49.07,5.897,
47550670,-0.692,0.342,0.658,-19.985,61.092,5.512,
47550690,-0.856,0.274,0.596,-19.985,58.607,2.625,
47550690,-0.779,0.333,0.602,-13.737,48.807,0.472,
47550710,-0.837,0.362,0.636,-13.702,41.597,3.307,
47550710,-0.779,0.295,0.63,-16.222,31.92,5.162,
47550730,-0.696,0.325,0.607,-15.627,24.675,3.377,
47550730,-0.706,0.25,0.61,-7.84,21.087,2.117,
47550750,-0.727,0.331,0.61,2.922,14.682,-3.097,
47550750,-0.776,0.356,0.608,8.26,8.767,-11.13,
47550760,-0.872,0.328,0.594,11.375,1.032,-15.33,
47550770,-0.844,0.315,0.562,15.977,-10.255,-15.505,
47550780,-0.918,0.27,0.554,20.702,-24.325,-16.1,
47550790,-0.705,0.267,0.588,32.34,-49.052,-24.307,
47550800,-0.628,0.405,0.657,38.062,-53.532,-24.937,
47550810,-0.648,0.352,0.673,30.082,-46.83,-25.725,
47550820,-0.635,0.373,0.667,20.58,-38.447,-23.24,
47550830,-0.607,0.355,0.67,12.74,-29.767,-21.56,
47550840,-0.642,0.355,0.693,5.6,-20.597,-18.445,
47550850,-0.601,0.378,0.719,-0.542,-11.025,-16.747,
47550860,-0.592,0.393,0.723,-10.71,4.567,-10.395,
47550870,-0.512,0.32,0.699,-17.832,18.48,-7.91,
47550880,-0.471,0.344,0.733,-19.845,33.057,-6.632,
47550890,-0.391,0.332,0.733,-24.377,50.435,-3.657,
47550900,-0.398,0.399,0.738,-34.562,91.21,2.94,
47550910,-0.653,0.297,0.628,-48.737,127.137,9.555,
47550920,-0.918,0.154,0.517,-50.82,127.242,6.825,
47550930,-1.059,0.137,0.447,-30.222,99.33,0.542,
47550940,-1.023,0.289,0.433,-6.055,60.83,-4.427,
47550950,-1.034,0.355,0.444,3.587,28.28,-7.682,
47550960,-1.034,0.295,0.454,4.287,4.287,-12.6,
47550970,-1.001,0.271,0.477,8.155,-16.117,-15.015,
47550980,-0.958,0.228,0.45,15.26,-42.997,-13.23,
47550990,-0.851,0.242,0.504,27.405,-73.447,-14.455,
47551000,-0.708,0.38,0.655,33.512,-83.51,-13.965,
47551010,-0.672,0.339,0.676,23.852,-73.762,-12.355,
47551010,-0.633,0.284,0.64,13.282,-61.32,-8.855,
47551030,-0.636,0.289,0.649,7.192,-48.755,-3.115,
47551030,-0.668,0.294,0.661,2.012,-37.362,2.082,
47551050,-0.638,0.316,0.667,-3.99,-28.087,6.3,
47551050,-0.632,0.283,0.657,-11.392,-19.355,10.587,
47551070,-0.587,0.275,0.656,-16.712,-12.6,14.91,
47551070,-0.678,0.278,0.644,-22.61,-6.51,23.397,
47551080,-0.542,0.369,0.659,-29.102,2.257,34.09,
47551090,-0.628,0.467,0.683,-46.567,26.897,52.675,
47551100,-0.666,0.362,0.646,-65.485,45.342,63.192,
47551110,-0.618,0.273,0.634,-70.91,57.505,64.137,
47551120,-0.688,0.186,0.617,-61.617,61.652,54.145,
47551130,-0.872,0.189,0.6,-41.737,56.07,37.52,
47551140,-0.863,0.149,0.551,-15.785,32.917,18.952,
47551150,-0.771,0.362,0.577,9.555,15.68,7.612,
47551160,-0.891,0.374,0.588,12.932,5.915,-0.42,
47551170,-0.907,0.323,0.588,12.582,-3.657,-8.225,
47551180,-0.896,0.33,0.55,16.275,-15.715,-13.615,
47551190,-0.873,0.254,0.509,25.007,-33.915,-22.995,
47551200,-0.839,0.247,0.562,41.23,-53.445,-34.387,
47551210,-0.779,0.283,0.648,57.68,-65.117,-46.41,
47551220,-0.637,0.336,0.677,62.265,-66.395,-53.095,
47551230,-0.693,0.343,0.656,56.07,-57.645,-50.575,
47551240,-0.608,0.377,0.636,43.05,-52.885,-46.235,
47551250,-0.676,0.37,0.617,26.197,-47.81,-38.15,
47551260,-0.673,0.376,0.641,8.96,-42.752,-28.735,
47551270,-0.762,0.335,0.667,-7.577,-36.435,-14.437,
47551280,-0.603,0.312,0.688,-18.48,-32.41,-2.59,
47551290,-0.542,0.325,0.691,-27.422,-21.682,9.362,
47551300,-0.502,0.273,0.682,-37.17,-12.18,20.405,
47551310,-0.387,0.375,0.731,-45.08,8.155,32.305,
47551320,-0.494,0.437,0.763,-61.355,44.537,48.125,
47551330,-0.519,0.367,0.706,-81.2,77.787,61.302,
47551340,-0.663,0.211,0.643,-91.315,98.84,67.34,
47551350,-0.84,0.102,0.604,-78.837,100.502,57.61,
47551360,-1.02,0.127,0.573,-48.282,82.687,37.45,
47551370,-0.837,0.196,0.541,-17.185,53.077,17.097,
47551380,-0.831,0.367,0.527,1.435,35.647,7.455,
47551390,-0.939,0.287,0.511,3.272,19.95,-0.63,
47551400,-0.868,0.265,0.524,10.325,2.24,-7.752,
47551410,-0.832,0.27,0.564,18.462,-7.542,-10.535,
47551420,-0.783,0.24,0.594,25.515,-11.077,-11.935,
47551420,-0.822,0.186,0.582,32.987,-16.975,-14.402,
47551440,-0.549,0.184,0.617,48.405,-30.537,-27.51,
47551440,-0.509,0.34,0.746,61.985,-20.125,-34.58,
47551460,-0.637,0.323,0.788,59.867,-0.577,-39.55,
47551460,-0.521,0.339,0.734,52.85,12.967,-43.435,
47551480,-0.521,0.392,0.708,44.24,36.82,-40.722,
47551480,-0.627,0.419,0.697,34.492,61.582,-39.077,
47551490,-0.666,0.416,0.681,23.8,82.512,-31.237,
47551500,-0.681,0.444,0.673,15.347,103.74,-20.947,
47551510,-0.65,0.554,0.676,11.34,113.312,-13.93,
47551520,-0.673,0.714,0.705,2.52,98.892,4.235,
47551530,-0.641,0.389,0.599,-7.052,75.302,28.472,
47551540,-0.698,0.39,0.539,-17.325,73.272,13.492,
47551550,-0.809,0.332,0.508,-19.145,82.862,-0.595,
47551560,-1.035,0.21,0.487,-16.607,81.462,-3.605,
47551570,-1.047,0.306,0.491,-6.527,53.27,5.932,
47551580,-0.959,0.281,0.429,-3.517,16.152,12.81,
47551590,-0.883,0.318,0.376,-6.982,-10.167,10.395,
47551600,-0.906,0.317,0.339,-14.752,-26.477,8.172,
47551610,-0.896,0.318,0.314,-26.11,-37.082,10.185,
47551620,-0.889,0.291,0.3,-37.8,-39.812,15.522,
47551630,-0.87,0.299,0.33,-46.497,-32.672,23.24,
47551640,-0.878,0.318,0.388,-54.512,-23.082,30.117,
47551650,-0.869,0.311,0.455,-58.502,-18.27,41.632,
47551660,-0.807,0.328,0.514,-59.465,-20.912,53.97,
47551670,-0.729,0.345,0.551,-61.145,-23.957,59.395,
47551680,-0.704,0.322,0.57,-64.452,-23.87,59.447,
47551690,-0.717,0.317,0.58,-65.66,-20.737,59.657,
47551700,-0.71,0.3,0.591,-67.655,-13.002,59.5,
47551710,-0.758,0.284,0.6,-69.772,1.207,59.482,
47551720,-0.773,0.255,0.563,-71.47,18.095,56.192,
47551730,-0.829,0.215,0.535,-70.7,33.74,50.802,
47551740,-0.934,0.177,0.477,-66.097,38.902,44.52,
47551750,-0.951,0.139,0.434,-55.282,31.465,35.437,
47551760,-0.906,0.168,0.427,-41.755,18.357,26.582,
47551760,-0.897,0.196,0.42,-34.09,5.845,22.487,
47551780,-0.924,0.183,0.403,-31.255,-3.15,18.9,
47551780,-0.944,0.157,0.406,-26.267,-10.08,13.02,
47551800,-0.941,0.152,0.424,-19.687,-14.84,10.675,
47551800,-0.932,0.161,0.456,-14.577,-16.485,12.302,
47551820,-0.946,0.214,0.521,-12.442,-17.097,11.445,
47551820,-0.902,0.209,0.531,-10.727,-26.442,12.355,
47551830,-0.798,0.22,0.527,-4.935,-36.26,12.11,
47551840,-0.74,0.268,0.563,3.85,-40.092,9.362,
47551850,-0.725,0.313,0.604,9.94,-38.22,5.792,
47551860,-0.72,0.342,0.621,13.16,-33.652,2.415,
47551870,-0.744,0.332,0.613,13.93,-27.037,-0.472,
47551880,-0.72,0.328,0.594,14.577,-23.572,-2.957,
47551890,-0.752,0.344,0.572,15.225,-21.822,-2.957,
47551900,-0.789,0.366,0.555,12.652,-23.905,-3.605,
47551910,-0.818,0.385,0.544,6.982,-28.49,-4.83,
47551920,-0.831,0.365,0.577,-2.292,-33.81,-4.34,
47551930,-0.84,0.304,0.579,-10.08,-35.735,-0.175,
47551940,-0.746,0.294,0.584,-9.957,-40.88,0.717,
47551950,-0.685,0.27,0.622,-8.732,-38.972,1.347,
47551960,-0.674,0.266,0.64,-5.95,-33.53,1.085,
47551970,-0.667,0.266,0.628,-1.942,-26.722,-1.19,
47551980,-0.668,0.298,0.639,2.275,-20.825,-3.727,
47551990,-0.673,0.315,0.629,2.957,-14.822,-3.85,
47552000,-0.729,0.316,0.623,0.14,-9.047,-1.977,
47552010,-0.752,0.325,0.616,-5.337,-6.825,1.102,
47552020,-0.769,0.32,0.615,-12.355,-9.187,7.647,
47552030,-0.733,0.306,0.618,-19.267,-12.495,14.805,
47552040,-0.704,0.292,0.63,-24.64,-13.632,21.052,
47552050,-0.626,0.278,0.631,-26.617,-12.04,24.832,
47552060,-0.559,0.38,0.624,-27.44,-0.752,28.875,
47552070,-0.672,0.402,0.647,-36.33,17.762,33.95,
47552080,-0.707,0.277,0.624,-42.717,23.712,34.282,
47552090,-0.707,0.293,0.615,-38.867,29.225,34.737,
47552100,-0.831,0.235,0.62,-33.46,26.722,28.122,
47552110,-0.779,0.23,0.621,-22.907,17.447,20.072,
47552120,-0.823,0.266,0.646,-13.825,9.677,15.54,
47552130,-0.669,0.24,0.645,-6.65,1.925,9.852,
47552140,-0.62,0.316,0.664,-0.455,6.842,8.662,
47552150,-0.724,0.272,0.623,-1.785,12.845,7.315,
47552160,-0.731,0.285,0.582,3.762,13.772,3.92,
47552170,-0.827,0.357,0.57,9.17,13.23,1.837,
47552170,-0.899,0.345,0.566,7.875,5.74,0,
47552180,-0.846,0.344,0.567,5.652,-6.16,-0.63,
47552190,-0.861,0.251,0.593,4.042,-14.962,-1.26,
47552200,-0.669,0.178,0.587,14.402,-22.662,-5.757,
47552210,-0.727,0.23,0.647,30.45,-21.455,-9.45,
47552220,-0.541,0.287,0.662,38.78,-21.962,-15.75,
47552230,-0.641,0.337,0.657,39.515,-11.865,-14.525,
47552240,-0.672,0.366,0.621,32.672,-3.867,-12.197,
47552250,-0.79,0.377,0.595,23.852,1.015,-7.647,
47552260,-0.757,0.382,0.563,15.347,-2.24,-4.602,
47552270,-0.799,0.429,0.569,6.44,-2.677,-1.015,
47552280,-0.791,0.395,0.599,-6.737,-6.422,-0.7,
47552290,-0.726,0.346,0.633,-15.907,-10.01,-0.892,
47552300,-0.619,0.325,0.648,-20.615,-7.647,0.28,
47552310,-0.641,0.288,0.643,-23.922,-0.332,1.767,
47552320,-0.618,0.364,0.612,-25.585,6.37,2.52,
47552330,-0.697,0.357,0.592,-32.672,12.092,3.482,
47552340,-0.745,0.371,0.567,-38.465,13.965,3.745,
47552350,-0.778,0.349,0.592,-44.835,12.757,5.915,
47552360,-0.79,0.291,0.604,-47.547,10.465,10.307,
47552370,-0.75,0.329,0.624,-46.777,10.097,15.855,
47552380,-0.74,0.191,0.661,-47.512,10.535,16.38,
47552390,-0.698,0.14,0.655,-36.155,11.655,11.13,
47552400,-0.684,0.162,0.668,-19.285,12.617,5.582,
47552410,-0.704,0.227,0.643,-5.127,15.155,1.68,
47552420,-0.807,0.258,0.587,2.432,15.277,0,
47552430,-0.857,0.283,0.537,7.507,10.395,-3.045,
47552440,-0.895,0.326,0.525,12.442,1.75,-4.847,
47552450,-0.876,0.322,0.548,12.827,-10.657,-3.727,
47552460,-0.797,0.305,0.571,10.115,-20.842,-1.015,
47552470,-0.759,0.259,0.633,9.835,-22.925,-1.242,
47552480,-0.744,0.075,0.665,17.815,-25.042,-4.41,
47552490,-0.442,0.174,0.654,44.187,-21.192,-10.29,
47552500,-0.563,0.296,0.694,56.857,-9.135,-11.427,
47552510,-0.719,0.286,0.678,54.005,-0.122,-10.167,
47552510,-0.699,0.381,0.622,49.997,3.815,-12.547,
47552530,-0.787,0.391,0.557,39.882,7.542,-11.69,
47552530,-0.877,0.391,0.531,27.282,5.092,-6.755,
47552550,-0.856,0.435,0.528,15.295,-2.17,-0.717,
47552550,-0.895,0.413,0.549,0.612,-10.412,3.097,
47552570,-0.792,0.357,0.578,-10.78,-20.842,3.377,
47552570,-0.723,0.307,0.611,-14.962,-24.972,3.622,
47552580,-0.642,0.271,0.628,-13.475,-23.677,4.235,
47552590,-0.62,0.267,0.654,-10.692,-17.412,6.405,
47552600,-0.621,0.323,0.624,-10.132,-9.87,8.207,
47552610,-0.69,0.389,0.602,-17.71,-0.332,11.095,
47552620,-0.807,0.333,0.589,-26.897,-0.122,10.885,
47552630,-0.774,0.413,0.557,-31.167,-2.66,13.265,
47552640,-0.869,0.397,0.552,-42.192,-6.335,17.535,
47552650,-0.844,0.311,0.579,-47.81,-12.075,22.12,
47552660,-0.81,0.249,0.625,-45.92,-18.077,26.897,
47552670,-0.691,0.209,0.659,-38.535,-22.487,23.852,
47552680,-0.608,0.14,0.708,-26.162,-22.802,18.707,
47552690,-0.563,0.178,0.697,-10.78,-17.797,12.075,
47552700,-0.606,0.222,0.669,2.922,-9.975,6.387,
47552710,-0.683,0.275,0.644,13.352,-2.555,0.857,
47552720,-0.785,0.341,0.612,17.552,-0.892,-2.38,
47552730,-0.847,0.348,0.586,16.275,-6.597,-4.2,
47552740,-0.817,0.361,0.593,14.752,-16.047,-4.777,
47552750,-0.845,0.199,0.659,15.085,-23.047,-6.317,
47552760,-0.555,0.155,0.655,32.41,-27.65,-12.967,
47552770,-0.532,0.305,0.701,48.055,-19.722,-15.277,
47552780,-0.58,0.291,0.698,46.83,-8.977,-14.332,
47552790,-0.713,0.298,0.659,45.5,-3.43,-12.302,
47552800,-0.635,0.376,0.637,41.86,-2.152,-13.282,
47552810,-0.76,0.391,0.622,33.32,2.817,-10.937,
47552820,-0.76,0.376,0.599,25.357,-0.227,-10.045,
47552830,-0.707,0.436,0.592,18.9,0.035,-8.592,
47552840,-0.735,0.438,0.594,6.125,2.87,-7.105,
47552850,-0.769,0.378,0.626,-5.757,1.33,-5.792,
47552850,-0.704,0.33,0.637,-10.902,-2.432,-4.497,
47552870,-0.642,0.317,0.639,-12.985,-2.502,-2.065,
47552870,-0.652,0.3,0.644,-15.75,0.297,0.822,
47552890,-0.674,0.324,0.606,-18.252,3.482,2.782,
47552890,-0.688,0.389,0.577,-23.152,5.705,5.32,
47552910,-0.828,0.358,0.619,-29.592,5.32,6.93,
47552910,-0.771,0.343,0.612,-30.257,3.5,8.172,
47552920,-0.718,0.342,0.615,-31.78,2.415,10.57,
47552930,-0.731,0.274,0.635,-32.69,3.272,10.43,
47552940,-0.693,0.247,0.664,-26.582,3.605,7.735,
47552950,-0.644,0.255,0.665,-18.795,5.827,3.955,
47552960,-0.702,0.204,0.657,-12.005,8.172,0.997,
47552970,-0.648,0.218,0.627,-0.84,9.87,-3.57,
47552980,-0.714,0.304,0.612,8.295,13.912,-4.427,
47552990,-0.828,0.294,0.597,8.96,12.127,-4.462,
47553000,-0.834,0.32,0.59,9.66,3.99,-3.797,
47553010,-0.81,0.309,0.598,8.452,-3.377,-3.99,
47553020,-0.767,0.179,0.614,12.267,-12.442,-7.455,
47553030,-0.591,0.264,0.645,28.21,-15.172,-13.562,
47553040,-0.687,0.344,0.678,33.775,-8.277,-15.575,
47553050,-0.709,0.38,0.644,24.675,-4.462,-13.247,
47553060,-0.768,0.408,0.593,8.82,-3.797,-3.762,
47553070,-0.824,0.378,0.582,-8.96,-6.405,3.937,
47553080,-0.819,0.35,0.604,-21.437,-15.085,8.837,
47553090,-0.731,0.301,0.616,-26.985,-22.085,13.107,
47553100,-0.635,0.283,0.654,-27.387,-22.592,15.032,
47553110,-0.579,0.255,0.678,-24.71,-15.645,16.205,
47553120,-0.555,0.314,0.64,-20.09,-4.725,17.71,
47553130,-0.623,0.406,0.646,-22.102,12.197,19.127,
47553140,-0.8,0.282,0.629,-29.47,20.632,20.335,
47553150,-0.715,0.263,0.619,-25.515,17.202,18.305,
47553160,-0.725,0.288,0.642,-18.497,13.982,14.105,
47553170,-0.75,0.189,0.628,-9.205,8.715,6.842,
47553180,-0.679,0.303,0.638,7.542,5.512,-1.032,
47553190,-0.772,0.323,0.627,12.46,7.122,-5.25,
47553200,-0.814,0.287,0.6,12.11,4.147,-8.54,
47553210,-0.846,0.29,0.571,13.79,-3.01,-8.295,
47553220,-0.801,0.263,0.564,18.83,-11.305,-10.71,
47553230,-0.915,0.242,0.561,26.757,-21.542,-14.192,
47553240,-0.671,0.258,0.658,38.622,-43.627,-26.792,
47553250,-0.554,0.466,0.73,37.45,-37.275,-24.762,
47553260,-0.732,0.31,0.626,13.93,-22.347,-11.742,
47553260,-0.647,0.303,0.628,3.255,-20.23,-3.535,
47553280,-0.726,0.349,0.642,-2.345,-15.732,5.11,
47553280,-0.673,0.347,0.656,-8.837,-16.765,8.907,
47553300,-0.67,0.357,0.669,-15.61,-14.472,12.652,
47553300,-0.7,0.313,0.66,-22.732,-13.195,13.475,
47553320,-0.696,0.291,0.643,-22.662,-13.09,12.022,
47553320,-0.665,0.391,0.616,-18.935,-9.24,10.832,
47553330,-0.833,0.322,0.624,-23.467,-7.367,12.407,
47553340,-0.677,0.262,0.621,-20.825,-15.242,8.907,
47553350,-0.625,0.4,0.632,-18.672,-10.552,11.865,
47553360,-0.747,0.294,0.651,-27.16,-6.16,12.32,
47553370,-0.721,0.191,0.692,-25.48,-8.4,12.18,
47553380,-0.587,0.247,0.685,-14.752,-9.187,9.012,
47553390,-0.69,0.242,0.69,-7.035,-4.322,6.037,
47553400,-0.643,0.209,0.674,1.452,-5.04,0.455,
47553410,-0.667,0.31,0.655,10.447,-1.4,-0.63,
47553420,-0.737,0.292,0.647,9.975,-1.522,-1.242,
47553430,-0.778,0.3,0.638,11.042,-4.585,0.21,
47553440,-0.755,0.303,0.662,13.825,-9.52,-1.925,
47553450,-0.772,0.176,0.697,19.442,-13.335,-5.582,
47553460,-0.564,0.207,0.68,35.42,-15.627,-12.582,
47553470,-0.611,0.254,0.696,47.022,-15.225,-18.27,
47553480,-0.511,0.35,0.71,51.835,-10.815,-22.732,
47553490,-0.622,0.411,0.659,44.205,1.12,-17.867,
47553500,-0.764,0.398,0.601,29.365,9.012,-11.83,
47553510,-0.802,0.385,0.601,16.1,6.3,-6.492,
47553520,-0.75,0.401,0.599,7.805,-0.612,-1.925,
47553530,-0.736,0.378,0.63,-0.77,-4.042,2.082,
47553540,-0.651,0.311,0.683,-7.735,-7.682,3.132,
47553550,-0.556,0.299,0.695,-10.29,-3.92,5.39,
47553560,-0.56,0.289,0.698,-12.075,5.337,6.37,
47553570,-0.588,0.306,0.68,-11.252,14.962,4.952,
47553580,-0.623,0.448,0.606,-12.81,26.442,4.462,
47553580,-0.851,0.395,0.624,-24.92,29.347,4.62,
47553600,-0.792,0.392,0.591,-29.907,23.362,5.302,
47553600,-0.756,0.414,0.59,-37.135,18.952,14.227,
47553620,-0.744,0.323,0.596,-45.5,16.135,19.845,
47553620,-0.695,0.324,0.623,-47.547,16.345,24.85,
47553640,-0.757,0.214,0.648,-49.577,15.452,24.885,
47553640,-0.684,0.161,0.678,-42.227,12.705,22.26,
47553660,-0.696,0.163,0.684,-27.177,11.34,18.06,
47553660,-0.66,0.207,0.664,-12.932,9.992,10.237,
47553670,-0.739,0.252,0.642,-0.56,10.185,5.337,
47553680,-0.801,0.338,0.617,7.962,6.177,0.192,
47553690,-0.845,0.349,0.605,9.835,-1.522,-4.865,
47553700,-0.834,0.322,0.618,9.922,-12.092,-7.28,
47553710,-0.806,0.215,0.615,11.707,-20.58,-7.297,
47553720,-0.651,0.228,0.629,22.575,-23.992,-9.922,
47553730,-0.675,0.218,0.68,31.587,-20.842,-13.055,
47553740,-0.575,0.275,0.685,40.915,-14.91,-15.977,
47553750,-0.623,0.305,0.687,41.737,-6.387,-16.03,
47553760,-0.679,0.311,0.66,36.977,-0.7,-13.807,
47553770,-0.71,0.336,0.614,32.322,0.437,-11.147,
47553780,-0.753,0.384,0.608,26.25,2.187,-7.315,
47553790,-0.806,0.348,0.579,18.06,-2.03,-3.36,
47553800,-0.751,0.357,0.605,15.102,-9.73,-2.467,
47553810,-0.686,0.373,0.617,9.765,-11.917,-1.277,
47553820,-0.685,0.36,0.618,2.485,-11.252,1.592,
47553830,-0.672,0.345,0.641,-3.15,-9.625,3.132,
47553840,-0.654,0.321,0.659,-6.422,-7.315,4.34,
47553850,-0.654,0.324,0.66,-8.242,-2.485,5.617,
47553860,-0.669,0.316,0.654,-10.587,1.382,6.79,
47553870,-0.699,0.315,0.64,-12.722,3.307,8.032,
47553880,-0.675,0.366,0.607,-13.895,5.355,7.997,
47553890,-0.787,0.377,0.607,-20.597,8.207,10.115,
47553900,-0.774,0.373,0.59,-27.93,2.03,10.71,
47553910,-0.754,0.41,0.589,-35.28,-3.22,12.757,
47553920,-0.773,0.385,0.582,-44.625,-6.93,13.667,
47553930,-0.811,0.292,0.625,-47.897,-13.125,13.93,
47553940,-0.728,0.226,0.664,-40.565,-20.615,10.692,
47553950,-0.583,0.228,0.693,-27.492,-20.387,7.997,
47553960,-0.614,0.23,0.718,-17.482,-12.6,4.987,
47553970,-0.61,0.176,0.716,-8.365,-6.282,1.155,
47553980,-0.59,0.234,0.688,4.165,2.642,-1.137,
47553990,-0.672,0.269,0.658,10.832,9.94,-3.955,
47554000,-0.759,0.285,0.628,14.612,11.497,-3.675,
47554010,-0.808,0.327,0.608,16.065,6.247,-3.377,
47554010,-0.818,0.317,0.621,15.4,-1.802,-3.92,
47554030,-0.785,0.223,0.641,18.095,-10.535,-6.405,
47554030,-0.675,0.236,0.653,29.382,-14.63,-10.797,
47554050,-0.623,0.304,0.693,36.4,-14.595,-14.98,
47554050,-0.622,0.336,0.7,36.172,-10.482,-15.085,
47554070,-0.672,0.334,0.67,31.657,-5.687,-13.177,
47554070,-0.647,0.369,0.641,27.527,-2.327,-12.372,
47554080,-0.791,0.367,0.607,21.892,1.172,-7.227,
47554090,-0.783,0.353,0.602,16.292,-3.675,-4.392,
47554100,-0.734,0.373,0.607,12.442,-9.625,-2.485,
47554110,-0.745,0.328,0.62,6.562,-12.46,-0.42,
47554120,-0.631,0.342,0.618,3.307,-14.017,0.227,
47554130,-0.672,0.319,0.65,-1.627,-10.745,2.52,
47554140,-0.634,0.282,0.66,-2.502,-8.277,1.855,
47554150,-0.627,0.309,0.656,0.332,-1.75,0.892,
47554160,-0.67,0.314,0.659,1.417,3.465,-0.525,
47554170,-0.687,0.327,0.65,1.33,6.842,-1.12,
47554180,-0.697,0.326,0.639,0.28,8.067,-2.012,
47554190,-0.716,0.363,0.592,0.087,8.715,-3.202,
47554200,-0.767,0.422,0.606,-3.727,6.422,-3.955,
47554210,-0.819,0.341,0.628,-9.66,0.735,-7.157,
47554220,-0.678,0.365,0.609,-8.697,-0.507,-8.96,
47554230,-0.69,0.342,0.657,-10.202,3.482,-11.707,
47554240,-0.676,0.313,0.667,-8.207,9.695,-14.455,
47554250,-0.644,0.321,0.662,-3.342,18.935,-16.607,
47554260,-0.651,0.301,0.644,1.295,27.562,-20.685,
47554270,-0.646,0.301,0.599,7.752,36.365,-21.332,
47554280,-0.555,0.226,0.5,14.892,52.815,-23.432,
47554290,-0.762,0.329,0.561,24.342,73.202,-21.892,
47554300,-0.845,0.305,0.559,25.357,81.532,-7.367,
47554310,-0.883,0.337,0.508,24.552,78.75,2.782,
47554320,-0.809,0.382,0.454,19.092,76.195,9.135,
47554330,-0.933,0.406,0.464,9.327,72.327,13.195,
47554330,-0.997,0.434,0.488,-3.57,60.602,14.49,
47554350,-0.963,0.423,0.49,-18.182,39.917,14.805,
47554350,-0.94,0.381,0.522,-32.007,13.23,13.965,
47554370,-0.894,0.331,0.567,-43.347,-19.652,12.267,
47554370,-0.796,0.263,0.593,-49.437,-53.655,8.487,
47554390,-0.656,0.186,0.632,-47.88,-77.437,3.57,
47554390,-0.558,0.147,0.684,-38.22,-82.197,0.157,
47554410,-0.503,0.141,0.711,-24.412,-69.65,-0.84,
47554410,-0.53,0.153,0.738,-11.445,-44.502,0,
47554420,-0.625,0.199,0.713,-2.747,-19.197,1.54,
47554430,-0.679,0.226,0.648,1.89,-1.96,3.71,
47554440,-0.78,0.267,0.601,4.987,4.865,4.9,
47554450,-0.862,0.334,0.57,4.515,0.647,4.445,
47554460,-0.896,0.333,0.563,0.175,-9.625,3.15,
47554470,-0.913,0.327,0.574,-2.887,-20.877,1.4,
47554480,-0.86,0.34,0.584,-3.867,-31.622,-0.98,
47554490,-0.792,0.32,0.594,-4.812,-40.215,-2.975,
47554500,-0.723,0.305,0.601,-4.112,-45.15,-3.587,
47554510,-0.75,0.293,0.623,-2.03,-46.83,-5.337,
47554520,-0.706,0.298,0.635,0.805,-50.715,-8.61,
47554530,-0.604,0.305,0.669,2.397,-47.67,-9.607,
47554540,-0.637,0.304,0.689,-0.28,-34.492,-5.355,
47554550,-0.66,0.245,0.664,-4.147,-23.852,-2.222,
47554560,-0.579,0.236,0.666,-2.187,-16.905,-1.312,
47554570,-0.646,0.216,0.686,1.977,-7.122,1.102,
47554580,-0.624,0.22,0.693,7.787,-1.225,1.907,
47554590,-0.661,0.25,0.697,11.917,6.79,3.675,
47554600,-0.678,0.266,0.658,13.545,12.197,3.692,
47554610,-0.672,0.312,0.637,14.997,16.432,3.132,
47554620,-0.685,0.33,0.598,14.49,17.78,2.485,
47554630,-0.756,0.37,0.606,13.247,19.04,2.45,
47554640,-0.775,0.332,0.612,10.22,15.575,-0.28,
47554650,-0.766,0.337,0.613,9.992,11.795,-1.452,
47554660,-0.732,0.3,0.578,8.557,7.805,-1.767,
47554670,-0.712,0.31,0.574,9.397,4.742,-1.4,
47554680,-0.739,0.294,0.586,8.89,1.855,-0.612,
47554690,-0.737,0.263,0.611,10.482,-1.89,0.035,
47554700,-0.692,0.281,0.615,14.157,-3.605,1.172,
47554710,-0.672,0.316,0.635,13.58,-3.272,3.902,
47554720,-0.694,0.3,0.641,8.137,-2.38,8.557,
47554730,-0.72,0.317,0.641,3.745,-0.91,11.865,
47554740,-0.736,0.421,0.543,-1.487,1.417,11.55,
47554750,-0.841,0.535,0.574,-15.61,-1.627,11.952,
47554760,-1.017,0.357,0.609,-32.847,-12.582,8.417,
47554760,-0.76,0.365,0.591,-30.397,-22.977,7.682,
47554780,-0.717,0.328,0.626,-30.152,-27.615,6.44,
47554780,-0.674,0.289,0.658,-27.545,-27.807,4.795,
47554800,-0.648,0.258,0.68,-26.005,-25.567,2.572,
47554800,-0.646,0.235,0.675,-21.717,-21.35,0.262,
47554820,-0.617,0.185,0.683,-14.175,-16.887,-1.662,
47554820,-0.621,0.251,0.669,-2.257,-9.222,-3.815,
47554830,-0.694,0.247,0.66,1.75,-3.727,-2.8,
47554840,-0.751,0.295,0.658,4.707,-2.467,-2.415,
47554850,-0.769,0.292,0.631,3.307,-5.022,-1.33,
47554860,-0.726,0.3,0.631,4.06,-9.975,-1.347,
47554870,-0.712,0.301,0.642,3.08,-11.48,-0.42,
47554880,-0.71,0.298,0.647,2.765,-12.46,-0.752,
47554890,-0.679,0.296,0.665,4.025,-11.707,-0.892,
47554900,-0.706,0.202,0.702,8.032,-8.855,-1.26,
47554910,-0.568,0.221,0.692,19.075,-4.427,-2.345,
47554920,-0.62,0.229,0.68,27.457,3.115,-4.62,
47554930,-0.64,0.31,0.664,32.655,11.392,-5.582,
47554940,-0.775,0.29,0.641,30.765,14.367,-3.972,
47554950,-0.731,0.366,0.615,30.905,12.127,-3.465,
47554960,-0.801,0.363,0.611,25.76,10.272,-1.662,
47554970,-0.771,0.367,0.61,20.51,4.27,-0.42,
47554980,-0.755,0.377,0.595,15.907,-1.347,0.647,
47554990,-0.755,0.371,0.631,11.287,-4.217,0.752,
47555000,-0.729,0.284,0.626,8.487,-8.312,-0.437,
47555010,-0.608,0.356,0.601,12.04,-8.505,-1.837,
47555020,-0.698,0.348,0.617,8.277,-4.917,-1.767,
47555030,-0.684,0.375,0.604,5.582,-4.025,-1.067,
47555040,-0.728,0.363,0.603,0.56,-3.832,0.157,
47555050,-0.695,0.301,0.62,-2.065,-6.335,0.665,
47555060,-0.663,0.298,0.642,-1.225,-6.317,2.485,
47555070,-0.635,0.288,0.642,-1.715,-3.885,6.107,
47555080,-0.665,0.306,0.654,-3.167,-0.927,9.397,
47555080,-0.678,0.329,0.654,-5.862,1.032,8.82,
47555100,-0.701,0.347,0.589,-9.467,1.96,8.102,
47555100,-0.713,0.531,0.56,-16.59,-1.68,8.505,
47555120,-0.935,0.466,0.653,-36.347,-9.502,9.275,
47555120,-0.777,0.394,0.586,-44.537,-15.872,9.012,
47555140,-0.696,0.378,0.63,-47.145,-19.145,9.24,
47555140,-0.726,0.236,0.667,-46.13,-19.162,8.015,
47555160,-0.621,0.231,0.686,-34.93,-16.695,6.107,
47555160,-0.607,0.234,0.684,-28.227,-11.182,3.237,
47555170,-0.652,0.206,0.678,-23.572,-4.935,2.257,
47555180,-0.683,0.215,0.675,-17.675,-1.522,2.065,
47555190,-0.698,0.244,0.669,-11.532,0.84,3.325,
47555200,-0.72,0.266,0.666,-7.332,1.015,4.147,
47555210,-0.746,0.252,0.657,-4.637,-0.805,5.092,
47555220,-0.703,0.266,0.649,-0.052,-4.357,4.042,
47555230,-0.704,0.29,0.639,4.462,-4.987,2.73,
47555240,-0.747,0.301,0.631,8.032,-6.755,1.487,
47555250,-0.754,0.337,0.635,10.657,-9.87,1.067,
47555260,-0.773,0.342,0.648,9.87,-14.717,0.875,
47555270,-0.754,0.245,0.715,8.995,-16.502,-0.805,
47555280,-0.611,0.213,0.675,18.97,-13.492,-5.022,
47555290,-0.567,0.279,0.689,29.05,-8.82,-8.12,
47555300,-0.623,0.263,0.697,33.775,-2.817,-11.9,
47555310,-0.571,0.321,0.68,37.327,0.91,-14.717,
47555320,-0.666,0.342,0.661,34.527,5.197,-14.752,
47555330,-0.728,0.349,0.623,29.837,7.105,-12.547,
47555340,-0.876,0.304,0.605,25.882,0.56,-10.01,
47555350,-0.785,0.315,0.618,26.512,-15.977,-11.585,
47555360,-0.722,0.326,0.643,27.457,-27.65,-12.32,
47555370,-0.633,0.336,0.648,26.32,-31.027,-12.495,
47555380,-0.534,0.42,0.642,21.49,-21.07,-8.557,
47555390,-0.728,0.342,0.634,12.442,-12.6,-4.76,
47555400,-0.569,0.404,0.627,10.325,-7.962,-4.375,
47555410,-0.722,0.387,0.634,3.885,-0.035,-0.875,
47555420,-0.711,0.354,0.651,-2.082,-0.752,1.557,
47555430,-0.668,0.345,0.65,-4.76,-2.187,3.605,
47555440,-0.649,0.321,0.663,-7.892,-1.452,4.34,
47555450,-0.657,0.295,0.657,-10.395,0.017,6.23,
47555460,-0.67,0.339,0.589,-11.585,1.907,7.157,
47555470,-0.75,0.395,0.643,-16.485,0.105,9.572,
47555480,-0.769,0.363,0.628,-22.05,-0.63,10.255,
47555490,-0.69,0.429,0.616,-25.97,-2.397,10.955,
47555500,-0.729,0.412,0.658,-35.612,-2.012,16.135,
47555510,-0.68,0.358,0.645,-41.667,-0.472,20.002,
47555510,-0.609,0.347,0.643,-43.662,3.447,22.96,
47555530,-0.666,0.299,0.675,-45.097,9.082,25.235,
47555530,-0.655,0.229,0.691,-41.755,12.075,24.622,
47555550,-0.653,0.224,0.703,-33.145,14.332,22.732,
47555550,-0.674,0.186,0.702,-24.745,15.382,17.395,
47555570,-0.669,0.185,0.69,-12.582,12.862,9.905,
47555570,-0.702,0.222,0.666,-1.487,12.302,4.62,
47555580,-0.772,0.252,0.622,7.525,6.23,-0.822,
47555590,-0.791,0.36,0.646,14.875,-0.98,-5.617,
47555600,-0.816,0.34,0.627,12.25,-9.992,-7.56,
47555610,-0.77,0.309,0.629,10.85,-19.53,-8.365,
47555620,-0.733,0.299,0.632,13.072,-26.74,-11.007,
47555630,-0.699,0.304,0.631,17.797,-29.557,-13.265,
47555640,-0.737,0.267,0.696,21.682,-31.08,-13.772,
47555650,-0.647,0.202,0.696,28.892,-36.417,-15.452,
47555660,-0.53,0.284,0.719,39.322,-35.997,-17.045,
47555670,-0.63,0.288,0.715,40.495,-29.4,-16.905,
47555680,-0.695,0.271,0.671,43.942,-29.365,-17.815,
47555690,-0.644,0.372,0.657,48.282,-28.192,-17.71,
47555700,-0.806,0.329,0.664,43.225,-29.242,-14.752,
47555710,-0.676,0.332,0.658,40.04,-38.85,-14.7,
47555720,-0.593,0.359,0.675,39.147,-39.445,-13.982,
47555730,-0.576,0.384,0.663,35.017,-31.307,-12.635,
47555740,-0.562,0.42,0.673,28.122,-20.825,-9.625,
47555750,-0.668,0.374,0.671,20.16,-12.425,-6.51,
47555760,-0.597,0.372,0.654,17.622,-9.345,-7.612,
47555770,-0.594,0.414,0.653,15.365,-3.57,-7.7,
47555780,-0.657,0.423,0.658,8.82,1.977,-4.62,
47555790,-0.711,0.383,0.657,1.207,1.855,-0.962,
47555800,-0.666,0.364,0.66,-3.132,-1.4,1.89,
47555810,-0.659,0.348,0.672,-6.265,-2.922,4.655,
47555820,-0.628,0.33,0.67,-7.647,-3.272,7.105,
47555830,-0.601,0.341,0.686,-9.135,-2.012,9.1,
47555830,-0.615,0.342,0.693,-12.652,0.857,12.022,
47555850,-0.619,0.34,0.7,-16.012,3.377,14.472,
47555850,-0.618,0.344,0.71,-18.585,5.932,16.205,
47555870,-0.563,0.379,0.645,-21.105,9.607,18.742,
47555870,-0.604,0.451,0.64,-27.685,21.507,21.595,
47555890,-0.769,0.399,0.649,-38.22,25.427,23.922,
47555890,-0.75,0.364,0.632,-41.93,21.157,25.707,
47555910,-0.73,0.354,0.653,-43.19,14.21,26.302,
47555910,-0.718,0.323,0.664,-44.012,9.222,27.597,
47555920,-0.664,0.324,0.673,-43.4,5.32,28.402,
47555930,-0.644,0.345,0.666,-43.89,4.375,28.787,
47555940,-0.721,0.302,0.672,-45.92,4.252,29.05,
47555950,-0.808,0.176,0.678,-42.542,-3.517,23.257,
47555960,-0.695,0.196,0.677,-28,-14.927,15.715,
47555970,-0.649,0.269,0.706,-16.397,-19.67,11.707,
47555980,-0.67,0.237,0.732,-10.132,-20.142,8.417,
47555990,-0.596,0.229,0.715,-0.997,-20.475,2.607,
47556000,-0.502,0.301,0.714,11.445,-16.362,-6.51,
47556010,-0.608,0.33,0.689,20.037,-9.187,-15.032,
47556020,-0.634,0.372,0.678,27.3,-7.21,-19.792,
47556030,-0.702,0.366,0.709,30.572,-7.28,-21.822,
47556040,-0.715,0.29,0.673,33.705,-12.827,-25.077,
47556050,-0.643,0.328,0.675,40.32,-19.232,-28.84,
47556060,-0.705,0.321,0.7,43.382,-24.307,-31.325,
47556070,-0.638,0.337,0.685,44.975,-25.935,-30.38,
47556080,-0.627,0.394,0.672,38.902,-25.025,-25.41,
47556090,-0.673,0.354,0.663,28.297,-23.625,-19.127,
47556100,-0.648,0.366,0.669,22.312,-20.247,-13.002,
47556110,-0.737,0.335,0.694,19.057,-19.897,-10.027,
47556120,-0.592,0.332,0.703,18.48,-24.797,-11.13,
47556130,-0.538,0.343,0.694,19.967,-22.085,-11.165,
47556140,-0.584,0.365,0.73,19.81,-14.875,-10.517,
47556150,-0.522,0.354,0.675,18.777,-11.375,-12.547,
47556160,-0.54,0.394,0.701,18.445,0.945,-11.007,
47556170,-0.631,0.383,0.671,13.947,7.787,-8.977,
47556180,-0.55,0.425,0.652,9.03,13.16,-4.952,
47556190,-0.713,0.38,0.678,1.067,17.57,1.172,
47556200,-0.641,0.33,0.686,-2.817,14.192,3.762,
47556210,-0.599,0.325,0.698,-1.505,15.19,3.57,
47556220,-0.58,0.324,0.704,0.63,19.862,1.085,
47556230,-0.592,0.325,0.701,3.57,25.742,-2.73,
47556240,-0.598,0.337,0.7,6.72,32.322,-7.542,
47556250,-0.6,0.332,0.671,9.205,37.485,-11.935,
47556260,-0.61,0.404,0.627,12.022,45.692,-16.065,
47556260,-0.701,0.409,0.68,10.15,48.597,-20.615,
47556280,-0.691,0.319,0.672,9.135,51.887,-23.485,
47556280,-0.595,0.28,0.687,16.275,59.937,-22.137,
47556290,-0.608,0.254,0.67,27.002,72.52,-20.422,
47556300,-0.662,0.247,0.629,39.9,78.12,-21.822,
47556310,-0.756,0.302,0.601,50.592,75.337,-23.467,
47556320,-0.89,0.312,0.603,53.97,65.1,-24.885,
47556330,-0.853,0.325,0.566,52.902,44.327,-24.99,
47556340,-0.85,0.341,0.539,52.552,24.237,-25.917,
47556350,-0.827,0.364,0.536,49.105,10.132,-26.46,
47556360,-0.796,0.429,0.52,40.46,3.202,-27.002,
47556370,-0.801,0.359,0.502,34.212,3.64,-25.322,
47556380,-0.838,0.406,0.525,30.45,2.415,-19.442,
47556390,-0.817,0.44,0.54,17.797,-5.46,-14.665,
47556400,-0.82,0.444,0.514,1.802,-15.575,-9.73,
47556410,-0.776,0.414,0.472,-10.727,-21.805,-3.395,
47556420,-0.772,0.414,0.508,-18.812,-19.057,1.505,
47556430,-0.827,0.416,0.568,-26.705,-18.13,7.192,
47556440,-0.755,0.385,0.571,-34.58,-23.065,10.552,
47556450,-0.783,0.465,0.676,-41.72,-33.32,11.637,
47556460,-0.619,0.337,0.591,-52.5,-41.615,11.007,
47556470,-0.636,0.331,0.594,-51.59,-36.12,8.995,
47556480,-0.648,0.322,0.613,-49.315,-24.762,10.832,
47556490,-0.679,0.292,0.626,-44.117,-13.3,13.58,
47556500,-0.716,0.257,0.601,-37.852,-6.545,16.502,
47556510,-0.687,0.247,0.583,-28.542,-2.502,15.312,
47556520,-0.706,0.227,0.576,-18.375,4.007,12.862,
47556530,-0.788,0.283,0.607,-6.58,7.945,10.412,
47556540,-0.708,0.348,0.615,1.015,4.41,4.935,
47556550,-0.713,0.34,0.6,1.995,1.907,-0.385,
47556560,-0.75,0.367,0.604,1.697,0.507,-2.205,
47556570,-0.794,0.351,0.598,0.595,-1.75,-4.147,
47556580,-0.808,0.325,0.578,1.277,-6.685,-6.09,
47556580,-0.815,0.343,0.576,3.237,-15.47,-7.437,
47556600,-0.822,0.356,0.583,2.52,-24.832,-8.75,
47556600,-0.768,0.356,0.596,-0.997,-33.81,-7.472,
47556620,-0.742,0.326,0.607,-5.757,-35.35,-4.392,
47556620,-0.727,0.312,0.626,-8.225,-35.56,-1.697,
47556640,-0.688,0.305,0.638,-9.66,-35.612,1.977,
47556640,-0.651,0.319,0.653,-10.727,-33.512,6.055,
47556660,-0.633,0.326,0.665,-14.595,-27.055,10.797,
47556660,-0.642,0.301,0.667,-18.935,-20.44,16.012,
47556670,-0.64,0.312,0.637,-21.682,-15.295,20.65,
47556680,-0.646,0.364,0.639,-24.027,-9.537,24.972,
47556690,-0.678,0.381,0.651,-30.52,-1.47,30.87,
47556700,-0.686,0.346,0.66,-36.907,4.707,36.837,
47556710,-0.625,0.351,0.678,-39.725,7.752,40.075,
47556720,-0.631,0.32,0.686,-40.827,11.725,40.635,
47556730,-0.67,0.23,0.668,-38.535,15.715,32.112,
47556740,-0.647,0.222,0.663,-23.572,16.66,18.375,
47556750,-0.638,0.295,0.665,-6.65,17.675,6.335,
47556760,-0.687,0.318,0.645,4.34,19.005,-3.027,
47556770,-0.743,0.334,0.631,10.57,18.007,-9.8,
47556780,-0.802,0.315,0.611,14.385,14.63,-16.17,
47556790,-0.821,0.289,0.588,19.81,7.875,-21.595,
47556800,-0.887,0.255,0.584,25.917,-4.41,-24.325,
47556810,-0.848,0.238,0.581,34.632,-27.125,-31.307,
47556820,-0.568,0.371,0.644,42.63,-37.73,-34.317,
47556830,-0.735,0.357,0.643,38.062,-29.277,-28.262,
47556840,-0.754,0.318,0.621,30.625,-31.132,-24.237,
47556850,-0.709,0.37,0.64,25.637,-33.582,-18.917,
47556860,-0.706,0.388,0.634,15.75,-34.09,-12.897,
47556870,-0.687,0.379,0.64,2.957,-29.19,-2.905,
47556880,-0.711,0.331,0.649,-8.592,-27.702,5.372,
47556890,-0.58,0.329,0.671,-15.382,-27.23,14.402,
47556900,-0.597,0.334,0.685,-21.665,-21.157,25.182,
47556910,-0.608,0.284,0.686,-25.165,-14.455,28.77,
47556920,-0.502,0.365,0.696,-21.752,-3.08,28.227,
47556930,-0.568,0.391,0.701,-25.112,20.195,32.095,
47556940,-0.757,0.261,0.651,-31.692,31.167,29.19,
47556950,-0.749,0.249,0.637,-27.632,25.62,22.89,
47556960,-0.778,0.275,0.635,-19.372,14.98,14.647,
47556970,-0.775,0.278,0.617,-9.082,1.452,4.305,
47556980,-0.74,0.335,0.623,5.022,-10.57,-6.265,
47556980,-0.682,0.4,0.653,14.98,-15.522,-16.765,
47557000,-0.717,0.371,0.666,16.94,-14.752,-24.5,
47557000,-0.77,0.319,0.62,18.305,-18.41,-26.775,
47557010,-0.808,0.287,0.603,23.835,-23.03,-33.232,
47557020,-0.845,0.273,0.621,34.072,-44.8,-41.86,
47557030,-0.615,0.343,0.655,41.562,-63.017,-44.905,
47557040,-0.642,0.338,0.662,43.627,-56.542,-45.097,
47557050,-0.633,0.3,0.639,39.952,-46.235,-41.3,
47557060,-0.654,0.386,0.68,36.225,-37.8,-33.757,
47557070,-0.604,0.406,0.687,22.96,-31.272,-21.227,
47557080,-0.697,0.344,0.704,3.92,-22.61,-5.337,
47557090,-0.63,0.379,0.773,-12.145,-30.17,10.99,
47557100,-0.379,0.283,0.717,-28.752,-33.6,33.845,
47557110,-0.47,0.258,0.715,-37.45,-19.775,50.54,
47557120,-0.352,0.352,0.75,-35.245,-0.507,56.997,
47557130,-0.285,0.516,0.761,-40.967,39.2,67.497,
47557140,-0.744,0.301,0.727,-58.992,72.712,70.245,
47557150,-0.879,0.12,0.646,-54.81,68.092,50.277,
47557160,-0.74,0.253,0.658,-27.685,47.32,27.895,
47557170,-0.698,0.344,0.656,-8.487,31.115,12.285,
47557180,-0.699,0.353,0.638,2.257,20.282,1.855,
47557190,-0.751,0.372,0.64,9.642,12.792,-9.555,
47557200,-0.78,0.318,0.63,15.382,8.627,-21.945,
47557210,-0.831,0.282,0.624,24.255,1.522,-31.92,
47557220,-0.837,0.307,0.622,33.127,-10.185,-35.945,
47557230,-0.888,0.245,0.6,38.395,-33.04,-40.705,
47557240,-0.661,0.316,0.658,46.042,-57.172,-46.235,
47557250,-0.662,0.367,0.693,47.95,-57.417,-45.185,
47557260,-0.589,0.357,0.707,39.41,-54.285,-42.56,
47557270,-0.488,0.404,0.718,26.985,-41.142,-28.087,
47557280,-0.595,0.368,0.685,9.712,-26.18,-9.87,
47557290,-0.601,0.338,0.69,-3.377,-16.187,2.817,
47557300,-0.566,0.322,0.705,-10.15,-9.222,10.15,
47557310,-0.501,0.31,0.702,-12.617,-2.94,17.605,
47557320,-0.49,0.328,0.727,-12.985,9.31,19.425,
47557330,-0.383,0.373,0.759,-12.652,27.702,18.305,
47557330,-0.377,0.415,0.749,-16.03,62.457,21.805,
47557350,-0.626,0.282,0.687,-22.452,87.92,21.087,
47557350,-0.77,0.179,0.643,-15.767,87.675,13.212,
47557370,-0.722,0.253,0.638,3.675,75.757,4.777,
47557370,-0.7,0.324,0.642,18.742,70.385,-0.297,
47557390,-0.705,0.336,0.676,25.777,71.557,-3.097,
47557390,-0.655,0.338,0.681,31.027,78.995,-3.325,
47557410,-0.565,0.413,0.651,36.942,86.625,-4.305,
47557410,-0.605,0.415,0.603,34.282,93.8,-7.98,
47557420,-0.711,0.391,0.564,28.56,97.545,-12.355,
47557430,-0.769,0.394,0.54,23.765,98.21,-16.17,
47557440,-0.81,0.407,0.521,20.037,93.817,-12.355,
47557450,-0.874,0.376,0.483,14.717,86.922,-4.76,
47557460,-0.879,0.376,0.475,10.08,78.487,-1.995,
47557470,-0.886,0.355,0.465,3.745,71.085,-0.98,
47557480,-0.907,0.335,0.464,-1.767,63.595,-1.067,
47557490,-0.913,0.32,0.429,-10.202,54.075,-5.897,
47557500,-0.919,0.308,0.466,-5.88,42.315,-5.88,
47557510,-0.91,0.357,0.467,-9.94,28.577,-3.08,
47557520,-0.886,0.324,0.456,-15.102,17.412,-5.547,
47557530,-0.874,0.329,0.464,-17.01,10.465,-7.227,
47557540,-0.873,0.334,0.477,-17.115,6.16,-7.577,
47557550,-0.892,0.328,0.483,-18.707,3.097,-7.087,
47557560,-0.866,0.33,0.481,-20.632,-1.12,-9.187,
47557570,-0.856,0.322,0.474,-22.4,-4.987,-12.635,
47557580,-0.827,0.322,0.468,-23.765,-8.627,-14.49,
47557590,-0.833,0.336,0.467,-26.075,-10.99,-14.507,
47557600,-0.807,0.326,0.464,-30.887,-13.16,-11.917,
47557610,-0.761,0.305,0.48,-34.422,-9.852,-8.627,
47557620,-0.794,0.292,0.518,-35.21,-2.467,-4.917,
47557630,-0.763,0.26,0.542,-33.95,3.727,-2.275,
47557640,-0.749,0.253,0.567,-30.082,9.677,-0.122,
47557650,-0.751,0.253,0.567,-25.532,15.942,-0.157,
47557660,-0.766,0.251,0.561,-21.297,21.63,-1.347,
47557670,-0.808,0.262,0.543,-17.57,25.392,-1.19,
47557670,-0.823,0.246,0.491,-14.245,25.217,-0.752,
47557690,-0.87,0.226,0.438,-8.89,20.86,0.052,
47557690,-0.931,0.237,0.388,-1.12,11.2,0.595,
47557710,-0.982,0.246,0.368,6.615,-6.755,0.98,
47557710,-1.052,0.264,0.349,13.65,-29.785,-0.017,
47557730,-1.059,0.277,0.324,19.635,-57.295,-2.975,
47557730,-1.013,0.326,0.345,25.48,-83.195,-6.842,
47557750,-0.95,0.399,0.391,27.02,-105.262,-8.417,
47557750,-0.951,0.417,0.455,18.357,-120.767,-6.527,
47557760,-0.791,0.448,0.497,3.01,-130.795,-5.057,
47557770,-0.776,0.431,0.545,-14.56,-130.217,-2.362,
47557780,-0.76,0.32,0.582,-30.905,-127.417,0.122,
47557790,-0.642,0.254,0.648,-35.857,-121.03,3.045,
47557800,-0.5,0.103,0.759,-31.115,-89.495,11.392,
47557810,-0.537,0.211,0.729,-7.997,-50.96,11.672,
47557820,-0.391,0.297,0.731,-0.612,-32.655,1.522,
47557830,-0.525,0.212,0.724,-2.59,-14.227,1.627,
47557840,-0.626,0.267,0.671,-5.582,-2.362,5.407,
47557850,-0.761,0.279,0.613,-9.415,4.48,8.312,
47557860,-0.894,0.272,0.572,-11.112,-1.015,11.602,
47557870,-0.896,0.306,0.566,-11.567,-13.79,14.017,
47557880,-0.854,0.332,0.586,-13.177,-26.547,15.627,
47557890,-0.791,0.31,0.614,-15.33,-36.015,17.657,
47557900,-0.715,0.299,0.643,-15.977,-40.215,18.48,
47557910,-0.611,0.281,0.664,-16.1,-37.485,17.71,
47557920,-0.535,0.28,0.682,-16.73,-27.107,17.622,
47557930,-0.548,0.278,0.707,-18.585,-11.812,18.917,
47557940,-0.545,0.29,0.696,-20.702,3.36,21.98,
47557950,-0.603,0.325,0.657,-24.535,19.967,27.79,
47557960,-0.593,0.338,0.643,-32.76,35.157,33.652,
47557970,-0.72,0.308,0.625,-42.017,46.725,42.857,
47557980,-0.89,0.232,0.632,-48.475,46.55,45.15,
47557990,-0.928,0.161,0.621,-42.595,31.395,34.755,
47558000,-0.734,0.241,0.637,-26.74,13.86,23.887,
47558010,-0.711,0.269,0.637,-17.045,4.987,17.762,
47558020,-0.71,0.247,0.64,-7.07,-3.535,10.447,
47558030,-0.604,0.295,0.631,6.895,-9.292,3.797,
47558040,-0.662,0.359,0.65,15.382,-2.992,-2.642,
47558050,-0.792,0.323,0.65,16.135,1.89,-9.082,
47558060,-0.823,0.303,0.618,16.87,-2.292,-13.44,
47558070,-0.91,0.242,0.61,20.37,-12.845,-17.937,
47558080,-0.795,0.179,0.576,32.567,-36.417,-27.23,
47558080,-0.646,0.293,0.614,49.682,-49.42,-33.075,
47558100,-0.703,0.333,0.652,55.597,-54.11,-35.367,
47558100,-0.655,0.347,0.666,53.707,-52.15,-33.005,
47558120,-0.646,0.379,0.646,45.447,-44.38,-26.022,
47558120,-0.73,0.334,0.647,31.43,-38.272,-14.63,
47558140,-0.651,0.36,0.658,16.275,-37.73,-1.487,
47558140,-0.725,0.333,0.676,-0.822,-31.377,15.417,
47558160,-0.645,0.286,0.681,-14.91,-31.045,26.635,
47558160,-0.636,0.259,0.682,-23.572,-32.812,39.497,
47558170,-0.637,0.246,0.688,-24.395,-30.485,40.442,
47558180,-0.521,0.318,0.694,-17.605,-22.662,37.17,
47558190,-0.497,0.445,0.718,-18.2,-1.907,40.582,
47558200,-0.653,0.374,0.724,-29.697,17.342,45.622,
47558210,-0.591,0.276,0.699,-34.002,23.38,42.822,
47558220,-0.568,0.32,0.692,-29.697,31.867,40.547,
47558230,-0.672,0.272,0.699,-24.5,36.68,29.662,
47558240,-0.581,0.285,0.71,-14.507,35.665,17.517,
47558250,-0.62,0.341,0.692,-6.125,42.717,11.235,
47558260,-0.707,0.319,0.66,-1.96,47.757,1.417,
47558270,-0.783,0.297,0.617,3.325,43.277,-6.107,
47558280,-0.814,0.325,0.582,11.042,30.922,-12.687,
47558290,-0.806,0.358,0.569,17.867,18.795,-18.217,
47558300,-0.857,0.339,0.582,18.865,7.245,-20.282,
47558310,-0.865,0.291,0.587,18.812,-5.092,-20.51,
47558320,-0.875,0.223,0.627,22.68,-18.322,-21.035,
47558330,-0.799,0.205,0.613,33.337,-39.987,-26.81,
47558340,-0.536,0.367,0.664,43.732,-48.702,-29.872,
47558350,-0.628,0.411,0.7,36.505,-40.18,-28.822,
47558360,-0.591,0.383,0.692,20.685,-28.315,-22.942,
47558370,-0.668,0.379,0.67,4.13,-12.635,-7.927,
47558380,-0.712,0.326,0.654,-10.465,-6.825,4.445,
47558390,-0.647,0.326,0.67,-19.232,-8.575,15.855,
47558400,-0.676,0.331,0.685,-27.247,-8.435,27.545,
47558410,-0.589,0.337,0.686,-32.165,-5.512,31.815,
47558420,-0.496,0.367,0.696,-34.492,14.227,37.625,
47558420,-0.513,0.357,0.671,-40.88,38.01,47.197,
47558440,-0.576,0.353,0.645,-50.295,53.392,60.882,
47558440,-0.647,0.293,0.634,-57.907,61.81,68.512,
47558460,-0.832,0.209,0.623,-56.77,64.295,64.382,
47558460,-0.99,0.141,0.577,-44.485,46.322,46.235,
47558480,-0.819,0.276,0.613,-20.422,20.055,31.71,
47558480,-0.816,0.328,0.61,-6.405,-1.802,22.785,
47558500,-0.742,0.355,0.604,6.86,-16.537,15.592,
47558500,-0.786,0.415,0.591,16.73,-25.025,5.337,
47558510,-0.764,0.383,0.613,20.125,-29.855,-8.05,
47558520,-0.739,0.348,0.631,20.317,-32.725,-14.437,
47558530,-0.796,0.276,0.607,22.33,-42,-18.007,
47558540,-0.647,0.296,0.656,33.302,-57.575,-27.37,
47558550,-0.584,0.356,0.701,43.855,-59.307,-35.07,
47558560,-0.503,0.387,0.725,44.992,-52.552,-40.635,
47558570,-0.634,0.354,0.699,40.442,-40.372,-38.605,
47558580,-0.532,0.384,0.713,32.795,-32.27,-34.142,
47558590,-0.661,0.372,0.669,20.597,-23.065,-20.405,
47558600,-0.633,0.391,0.654,5.932,-12.495,-5.74,
47558610,-0.752,0.34,0.66,-8.47,-6.86,6.282,
47558620,-0.641,0.321,0.679,-17.71,-13.195,17.097,
47558630,-0.671,0.372,0.7,-24.115,-14.315,29.242,
47558640,-0.608,0.327,0.681,-29.12,-13.877,32.287,
47558650,-0.498,0.371,0.708,-29.032,1.872,35.192,
47558660,-0.535,0.422,0.692,-33.32,21.297,41.16,
47558670,-0.582,0.367,0.665,-44.38,34.65,50.627,
47558680,-0.564,0.335,0.64,-50.575,44.415,55.667,
47558690,-0.614,0.324,0.627,-49.35,58.31,54.985,
47558700,-0.797,0.28,0.625,-48.125,66.745,47.477,
47558710,-0.888,0.218,0.64,-42.087,52.045,32.637,
47558720,-0.716,0.304,0.68,-23.537,30.817,25.585,
47558730,-0.695,0.363,0.698,-14.035,17.395,18.305,
47558740,-0.669,0.276,0.649,-6.667,5.495,11.865,
47558750,-0.629,0.322,0.632,7.332,-1.872,-0.927,
47558760,-0.673,0.378,0.655,18.637,-0.63,-13.632,
47558770,-0.817,0.321,0.64,22.382,-2.065,-23.345,
47558780,-0.903,0.252,0.631,29.067,-15.487,-30.065,
47558790,-0.75,0.268,0.629,42.875,-37.765,-37.66,
47558800,-0.608,0.374,0.647,54.722,-47.67,-42.472,
47558810,-0.618,0.391,0.67,52.92,-42.63,-42.612,
47558820,-0.713,0.352,0.673,44.467,-36.872,-38.325,
47558830,-0.72,0.311,0.667,39.445,-43.015,-35.192,
47558830,-0.552,0.38,0.673,37.922,-46.235,-32.042,
47558850,-0.571,0.427,0.69,29.085,-31.587,-22.995,
47558850,-0.655,0.402,0.639,14.472,-21.297,-11.55,
47558870,-0.665,0.426,0.646,0.857,-13.492,0.455,
47558870,-0.727,0.374,0.673,-13.86,-13.072,10.342,
47558890,-0.607,0.377,0.691,-23.887,-17.64,21.805,
47558890,-0.627,0.343,0.681,-32.865,-16.012,33.827,
47558910,-0.588,0.304,0.708,-34.195,-14.437,35.735,
47558910,-0.395,0.425,0.721,-30.695,-1.785,36.47,
47558920,-0.435,0.49,0.7,-39.322,29.942,44.695,
47558930,-0.579,0.353,0.657,-53.725,52.552,50.312,
47558940,-0.593,0.325,0.612,-56.682,66.045,54.145,
47558950,-0.777,0.239,0.637,-55.51,72.117,46.935,
47558960,-0.814,0.229,0.667,-44.31,61.46,32.252,
47558970,-0.71,0.31,0.686,-26.827,45.692,22.365,
47558980,-0.736,0.324,0.685,-18.007,32.9,14,
47558990,-0.712,0.275,0.658,-7.91,16.975,7.035,
47559000,-0.671,0.338,0.615,7.98,6.842,-3.867,
47559010,-0.731,0.358,0.614,20.195,4.987,-19.372,
47559020,-0.822,0.329,0.619,27.807,0.927,-30.887,
47559030,-0.902,0.271,0.61,32.847,-12.495,-34.492,
47559040,-0.858,0.221,0.599,43.837,-38.64,-40.74,
47559050,-0.624,0.349,0.63,59.99,-60.637,-48.335,
47559060,-0.63,0.387,0.691,62.842,-58.502,-50.382,
47559070,-0.674,0.404,0.712,53.41,-53.917,-48.475,
47559080,-0.568,0.4,0.672,39.322,-49.787,-41.79,
47559090,-0.573,0.396,0.648,25.165,-37.607,-31.202,
47559100,-0.674,0.377,0.653,13.335,-22.75,-19.075,
47559110,-0.767,0.363,0.646,4.515,-19.547,-8.295,
47559120,-0.629,0.4,0.667,-3.885,-21.262,-0.997,
47559130,-0.618,0.386,0.707,-15.015,-16.275,9.047,
47559140,-0.542,0.371,0.717,-27.422,-12.775,21.892,
47559150,-0.568,0.329,0.727,-35.63,-6.632,33.32,
47559160,-0.385,0.372,0.683,-36.75,3.78,34.912,
47559170,-0.345,0.505,0.717,-40.04,39.742,44.712,
47559170,-0.66,0.37,0.678,-57.032,69.422,54.04,
47559190,-0.718,0.242,0.618,-64.225,75.39,50.785,
47559190,-0.834,0.186,0.627,-53.725,69.072,37.397,
47559210,-0.805,0.245,0.643,-31.64,51.362,23.467,
47559210,-0.744,0.312,0.642,-13.685,34.982,12.722,
47559230,-0.72,0.298,0.626,-1.925,18.655,3.115,
47559230,-0.709,0.32,0.602,10.99,7.56,-4.077,
47559250,-0.79,0.356,0.625,21.98,2.555,-17.325,
47559250,-0.879,0.309,0.612,29.575,-4.462,-28.577,
47559260,-0.953,0.217,0.558,39.235,-26.425,-36.155,
47559270,-0.755,0.292,0.59,56.402,-58.187,-48.667,
47559280,-0.638,0.383,0.643,68.25,-71.697,-57.487,
47559290,-0.729,0.408,0.708,65.065,-73.185,-58.345,
47559300,-0.621,0.485,0.72,49.455,-73.867,-53.112,
47559310,-0.545,0.423,0.663,24.885,-58.485,-36.19,
47559320,-0.648,0.388,0.658,4.707,-40.477,-14.735,
47559330,-0.728,0.349,0.684,-11.235,-29.505,4.077,
47559340,-0.614,0.325,0.696,-21.717,-32.147,15.295,
47559350,-0.485,0.324,0.721,-29.33,-29.47,29.295,
47559360,-0.502,0.299,0.726,-33.757,-20.44,37.1,
47559370,-0.346,0.396,0.723,-32.077,-1.627,39.725,
47559380,-0.418,0.497,0.744,-39.025,36.19,48.545,
47559390,-0.613,0.352,0.708,-54.897,61.18,57.277,
47559400,-0.56,0.342,0.648,-60.025,70.595,64.627,
47559410,-0.71,0.254,0.648,-61.022,79.222,60.777,
47559420,-0.817,0.193,0.66,-50.89,76.965,40.215,
47559430,-0.749,0.255,0.652,-30.187,61.687,20.16,
47559440,-0.77,0.284,0.642,-11.007,39.217,7.525,
47559450,-0.7,0.291,0.579,6.247,15.785,0.367,
47559460,-0.79,0.402,0.616,21.577,8.75,-14.175,
47559470,-0.936,0.312,0.607,26.845,1.382,-28.315,
47559480,-0.957,0.225,0.552,34.265,-23.572,-34.037,
47559490,-0.759,0.302,0.586,49.07,-55.912,-42.63,
47559500,-0.642,0.359,0.651,59.867,-68.565,-51.975,
47559510,-0.606,0.409,0.696,60.515,-65.537,-53.515,
47559520,-0.698,0.411,0.718,50.47,-56.262,-47.04,
47559530,-0.696,0.339,0.667,36.347,-57.785,-41.072,
47559540,-0.54,0.362,0.694,28.665,-53.725,-32.147,
47559550,-0.649,0.367,0.689,18.235,-43.54,-20.965,
47559560,-0.498,0.388,0.679,5.932,-32.585,-8.557,
47559570,-0.706,0.356,0.708,-7.42,-17.22,3.5,
47559580,-0.528,0.328,0.723,-18.585,-16.432,13.142,
47559580,-0.538,0.351,0.737,-26.932,-10.762,28.857,
47559600,-0.508,0.329,0.713,-33.162,-3.412,36.47,
47559600,-0.294,0.45,0.725,-35.385,25.69,41.265,
47559620,-0.525,0.419,0.703,-48.142,64.19,52.972,
47559620,-0.594,0.283,0.664,-57.207,80.972,56.84,
47559640,-0.739,0.221,0.628,-53.515,81.567,51.747,
47559640,-0.78,0.164,0.659,-37.205,72.222,32.602,
47559660,-0.812,0.304,0.659,-13.965,58.205,12.075,
47559660,-0.768,0.352,0.634,0,36.732,2.082,
47559670,-0.797,0.369,0.59,8.627,21.945,-5.845,
47559680,-0.812,0.355,0.579,17.325,7.052,-19.092,
47559690,-0.845,0.336,0.602,26.11,-4.602,-30.292,
47559700,-0.943,0.255,0.584,33.127,-20.457,-36.295,
47559710,-0.858,0.203,0.567,46.375,-48.807,-46.707,
47559720,-0.639,0.338,0.633,62.807,-69.405,-54.67,
47559730,-0.65,0.408,0.693,65.012,-70.927,-55.23,
47559740,-0.702,0.394,0.723,54.775,-66.36,-50.54,
47559750,-0.498,0.443,0.701,36.225,-57.96,-40.145,
47559760,-0.626,0.38,0.657,14.91,-37.135,-19.25,
47559770,-0.648,0.312,0.634,-0.542,-26.53,-5.285,
47559780,-0.678,0.348,0.712,-6.422,-20.877,2.275,
47559790,-0.51,0.36,0.724,-13.527,-20.195,12.372,
47559800,-0.512,0.361,0.726,-24.272,-12.512,28.35,
47559810,-0.579,0.297,0.71,-33.057,-4.515,36.505,
47559820,-0.426,0.374,0.711,-29.662,7.787,36.977,
47559830,-0.424,0.511,0.713,-35.157,38.5,45.71,
47559840,-0.65,0.376,0.665,-53.147,63.682,54.495,
47559850,-0.676,0.285,0.629,-61.092,70.77,56.892,
47559860,-0.766,0.248,0.642,-59.097,68.67,49.455,
47559870,-0.836,0.2,0.655,-44.117,56.98,33.827,
47559880,-0.72,0.301,0.681,-22.54,42.122,16.362,
47559890,-0.748,0.317,0.643,-9.695,26.705,7.595,
47559900,-0.724,0.296,0.604,1.977,10.71,-0.175,
47559910,-0.749,0.374,0.618,13.51,1.487,-12.25,
47559920,-0.819,0.349,0.629,18.97,-3.342,-23.59,
47559920,-0.818,0.301,0.607,22.505,-12.792,-28.49,
47559940,-0.85,0.229,0.593,28.857,-27.3,-31.762,
47559940,-0.708,0.246,0.621,42.647,-49.665,-39.217,
47559960,-0.571,0.356,0.686,54.46,-56.35,-42,
47559960,-0.639,0.379,0.698,52.64,-50.89,-40.267,
47559980,-0.691,0.364,0.7,43.575,-45.57,-34.58,
47559980,-0.73,0.34,0.672,32.147,-46.9,-27.772,
47560000,-0.594,0.336,0.652,24.395,-48.282,-21.262,
47560000,-0.605,0.362,0.654,18.305,-36.715,-12.81,
47560010,-0.688,0.361,0.667,10.36,-26.285,-4.865,
47560020,-0.653,0.36,0.674,2.887,-25.007,0.647,
47560030,-0.605,0.385,0.699,-4.725,-20.387,7.49,
47560040,-0.602,0.338,0.699,-12.845,-16.852,14.63,
47560050,-0.56,0.346,0.713,-16.257,-11.882,21.017,
47560060,-0.575,0.354,0.716,-18.9,-4.795,24.01,
47560070,-0.533,0.35,0.714,-20.51,3.15,24.552,
47560080,-0.459,0.423,0.707,-22.942,15.942,28.21,
47560090,-0.542,0.449,0.703,-33.74,39.165,36.26,
47560100,-0.737,0.307,0.663,-45.552,50.575,38.797,
47560110,-0.758,0.261,0.624,-43.82,46.935,33.932,
47560120,-0.698,0.284,0.65,-33.285,38.605,23.712,
47560130,-0.651,0.245,0.656,-20.65,32.13,13.737,
47560140,-0.524,0.306,0.705,-6.212,34.422,4.007,
47560150,-0.608,0.284,0.695,2.222,42.7,-5.792,
47560160,-0.674,0.226,0.642,13.615,43.47,-15.942,
47560170,-0.717,0.31,0.632,30.467,41.23,-27.895,
47560180,-0.878,0.324,0.612,40.582,34.23,-36.575,
47560190,-1.067,0.252,0.571,46.725,10.745,-41.492,
47560200,-0.96,0.294,0.56,57.12,-27.982,-53.112,
47560210,-0.729,0.379,0.603,65.835,-54.39,-63.49,
47560220,-0.675,0.43,0.62,65.8,-58.52,-64.032,
47560230,-0.763,0.422,0.644,54.652,-54.6,-54.985,
47560240,-0.637,0.435,0.644,37.152,-51.817,-43.522,
47560250,-0.663,0.385,0.649,20.475,-43.995,-27.825,
47560260,-0.619,0.342,0.639,5.215,-36.347,-12.547,
47560270,-0.655,0.337,0.707,-6.195,-26.827,-0.612,
47560280,-0.551,0.301,0.699,-14.49,-23.642,12.022,
47560290,-0.46,0.307,0.72,-21.245,-15.347,23.502,
47560300,-0.511,0.316,0.693,-25.602,-1.802,32.095,
47560310,-0.438,0.434,0.72,-28.945,21.315,36.312,
47560320,-0.571,0.419,0.698,-40.075,48.317,44.52,
47560330,-0.567,0.367,0.665,-52.272,65.835,53.777,
47560330,-0.715,0.276,0.644,-59.132,75.53,57.067,
47560350,-0.83,0.185,0.613,-52.57,70.56,46.375,
47560350,-0.863,0.224,0.629,-31.762,52.99,26.267,
47560370,-0.724,0.286,0.626,-7.227,32.112,15.015,
47560370,-0.759,0.344,0.585,7.21,22.102,4.025,
47560390,-0.899,0.345,0.574,16.362,10.605,-6.667,
47560390,-0.916,0.353,0.598,22.75,-3.972,-15.54,
47560410,-0.961,0.261,0.562,28.052,-24.045,-23.205,
47560410,-0.809,0.287,0.565,39.112,-50.102,-32.007,
47560420,-0.688,0.358,0.642,49.227,-61.985,-41.387,
47560430,-0.675,0.337,0.672,51.362,-62.492,-46.935,
47560440,-0.494,0.409,0.686,49.105,-59.885,-46.077,
47560450,-0.591,0.434,0.665,36.225,-41.44,-34.79,
47560460,-0.641,0.393,0.656,18.235,-27.492,-21.77,
47560470,-0.714,0.346,0.653,3.01,-20.597,-9.082,
47560480,-0.619,0.353,0.671,-7.245,-18.445,0.367,
47560490,-0.587,0.344,0.681,-15.75,-11.76,9.782,
47560500,-0.511,0.321,0.697,-22.172,-4.847,18.042,
47560510,-0.499,0.334,0.698,-25.06,7.035,23.87,
47560520,-0.422,0.457,0.714,-28.332,31.797,29.365,
47560530,-0.603,0.408,0.679,-40.477,57.505,37.59,
47560540,-0.715,0.27,0.628,-49.49,67.165,42.56,
47560550,-0.85,0.189,0.601,-43.697,59.237,39.427,
47560560,-0.834,0.243,0.595,-25.515,42.787,27.125,
47560570,-0.793,0.306,0.601,-9.24,27.195,14.997,
47560580,-0.803,0.345,0.595,0.507,15.295,7.595,
47560590,-0.802,0.369,0.605,5.197,5.075,0.612,
47560600,-0.77,0.366,0.626,6.335,-1.47,-4.637,
47560610,-0.743,0.327,0.615,7.052,-5.95,-7.91,
47560620,-0.734,0.294,0.603,10.202,-11.987,-12.285,
47560630,-0.647,0.316,0.638,15.732,-18.095,-18.987,
47560640,-0.627,0.327,0.682,20.37,-13.58,-23.572,
47560650,-0.581,0.33,0.678,21.14,-6.3,-23.135,
47560660,-0.651,0.352,0.661,18.095,5.11,-16.187,
47560670,-0.719,0.313,0.632,13.527,10.622,-12.757,
47560670,-0.705,0.317,0.62,12.075,12.582,-9.59,
47560690,-0.723,0.327,0.613,10.57,13.23,-5.827,
47560690,-0.689,0.335,0.613,8.172,14,-3.115,
47560710,-0.716,0.348,0.623,4.515,15.785,0.91,
47560710,-0.718,0.341,0.628,0.35,18.532,4.532,
47560730,-0.705,0.335,0.627,-1.225,20.352,6.23,
47560730,-0.686,0.335,0.621,-1.015,23.38,6.667,
47560750,-0.672,0.337,0.62,-0.437,27.002,6.125,
47560750,-0.687,0.337,0.616,-0.297,32.427,6.055,
47560760,-0.716,0.328,0.604,-0.087,36.365,6.247,
47560770,-0.733,0.328,0.594,1.102,38.675,6.09,
47560780,-0.748,0.335,0.587,2.975,38.937,5.022,
47560790,-0.762,0.336,0.578,4.672,38.92,3.412,
47560800,-0.769,0.338,0.569,6.405,37.17,1.47,
47560810,-0.779,0.334,0.56,7.892,35.192,-0.525,
47560820,-0.783,0.335,0.55,9.712,32.165,-3.115,
47560830,-0.782,0.35,0.548,11.462,29.715,-5.11,
47560840,-0.776,0.354,0.545,11.952,26.915,-6.65,
47560850,-0.768,0.36,0.546,11.13,25.62,-7.21,
47560860,-0.76,0.365,0.55,8.767,25.462,-5.985,
47560870,-0.785,0.36,0.543,5.285,26.827,-3.57,
47560880,-0.774,0.344,0.538,2.94,27.09,-3.15,
47560890,-0.757,0.343,0.536,2.572,27.58,-3.92,
47560900,-0.759,0.347,0.536,2.187,28.665,-4.252,
47560910,-0.773,0.351,0.535,1.277,30.415,-4.042,
47560920,-0.776,0.352,0.531,0,31.972,-3.78,
47560930,-0.78,0.355,0.526,-1.382,33.985,-3.727,
47560940,-0.778,0.356,0.523,-2.677,36.102,-4.445,
47560950,-0.777,0.364,0.515,-4.112,38.36,-5.862,
47560960,-0.777,0.366,0.515,-6.142,40.862,-7.577,
47560970,-0.802,0.366,0.519,-8.872,41.405,-9.082,
47560980,-0.798,0.374,0.502,-11.357,39.97,-9.17,
47560990,-0.805,0.367,0.506,-14.56,38.99,-9.222,
47561000,-0.829,0.386,0.515,-17.587,36.627,-8.05,
47561010,-0.835,0.362,0.492,-21.315,30.712,-3.885,
47561020,-0.769,0.352,0.468,-24.657,30.975,-2.87,
47561030,-0.836,0.38,0.48,-26.757,35.42,-4.077,
47561040,-0.86,0.355,0.462,-28.682,36.75,-3.867,
47561050,-0.879,0.387,0.478,-26.705,33.337,-3.762,
47561060,-0.875,0.472,0.509,-24.657,26.512,-2.292,
47561070,-0.892,0.528,0.517,-29.732,15.925,-0.927,
47561080,-0.849,0.515,0.499,-39.97,6.317,-1.085,
47561080,-0.679,0.55,0.564,-53.34,2.362,0.49,
47561100,-0.756,0.529,0.555,-71.68,4.637,11.69,
47561100,-0.767,0.389,0.462,-85.4,8.067,12.547,
47561110,-0.714,0.299,0.427,-85.627,10.622,10.325,
47561120,-0.737,0.308,0.439,-78.487,15.61,13.195,
47561130,-0.797,0.378,0.495,-72.065,21.682,19.127,
47561140,-0.851,0.4,0.512,-75.915,22.365,25.725,
47561150,-0.842,0.395,0.504,-81.392,18.585,32.97,
47561160,-0.834,0.385,0.484,-87.01,13.02,41.317,
47561170,-0.824,0.36,0.466,-92.137,8.96,46.287,
47561180,-0.808,0.309,0.437,-95.567,6.002,47.932,
47561190,-0.815,0.277,0.417,-96.18,4.795,48.825,
47561200,-0.832,0.244,0.402,-94.57,3.395,48.825,
47561210,-0.853,0.196,0.387,-87.22,0.962,53.847,
47561220,-0.838,0.192,0.374,-77.927,-2.765,59.465,
47561230,-0.812,0.171,0.369,-68.337,-2.187,62.807,
47561240,-0.796,0.17,0.38,-59.465,2.572,62.51,
47561250,-0.818,0.17,0.398,-54.18,12.022,59.027,
47561260,-0.85,0.154,0.408,-51.292,23.222,53.987,
47561270,-0.853,0.144,0.43,-49.402,36.627,52.307,
47561280,-0.914,0.133,0.433,-49.035,52.185,52.902,
47561290,-0.998,0.118,0.42,-48.195,63.192,50.837,
47561300,-1.018,0.116,0.408,-46.27,63.892,47.04,
47561310,-1.013,0.154,0.395,-44.31,54.95,43.732,
47561320,-0.945,0.227,0.372,-44.415,41.772,40.775,
47561330,-0.909,0.274,0.382,-48.667,30.257,37.66,
47561340,-0.931,0.319,0.408,-55.44,19.565,33.88,
47561350,-0.929,0.337,0.457,-60.27,8.032,29.33,
47561360,-0.922,0.354,0.507,-62.44,-1.19,24.185,
47561370,-0.894,0.34,0.539,-62.562,-7.087,20.877,
47561380,-0.846,0.309,0.541,-59.027,-10.237,20.072,
47561390,-0.782,0.299,0.534,-50.68,-10.325,19.162,
47561400,-0.741,0.302,0.513,-41.772,-8.172,19.32,
47561410,-0.733,0.318,0.486,-33.862,-5.74,22.645,
47561420,-0.75,0.333,0.468,-27.825,-2.187,25.672,
47561420,-0.76,0.36,0.467,-23.607,2.152,25.69,
47561440,-0.822,0.375,0.464,-23.17,7.315,25.2,
47561440,-0.866,0.378,0.461,-25.27,8.575,25.602,
47561460,-0.894,0.366,0.428,-28.717,7.262,26.95,
47561460,-0.922,0.334,0.393,-31.272,2.922,28.122,
47561480,-0.889,0.305,0.359,-31.22,-2.957,29.977,
47561480,-0.845,0.286,0.334,-28.805,-7.437,32.41,
47561500,-0.828,0.293,0.376,-26.355,-7.612,33.302,
47561500,-0.863,0.313,0.445,-27.982,-7.507,31.29,
47561510,-0.892,0.309,0.496,-33.985,-8.82,27.947,
47561520,-0.928,0.291,0.572,-40.46,-11.76,23.782,
47561530,-0.899,0.252,0.6,-47.022,-14.507,18.83,
47561540,-0.826,0.189,0.597,-48.842,-17.605,16.03,
47561550,-0.753,0.142,0.601,-43.277,-18.217,13.212,
47561560,-0.722,0.121,0.624,-33.652,-17.22,8.732,
47561570,-0.695,0.108,0.624,-22.505,-14.157,3.745,
47561580,-0.643,0.109,0.623,-10.412,-6.807,1.172,
47561590,-0.645,0.158,0.604,-0.962,10.29,4.34,
47561600,-0.727,0.17,0.568,3.15,31.15,9.38,
47561610,-0.824,0.211,0.518,6.265,46.287,10.727,
47561620,-0.853,0.282,0.493,9.905,51.502,11.025,
47561630,-0.925,0.398,0.509,9.187,48.562,12.25,
47561640,-0.89,0.348,0.462,0.84,36.575,13.825,
47561650,-0.898,0.364,0.438,-4.742,28.682,10.832,
47561660,-0.917,0.372,0.451,-7.227,20.667,8.452,
47561670,-0.904,0.358,0.452,-10.85,10.71,6.16,
47561680,-0.851,0.329,0.445,-12.372,3.937,4.742,
47561690,-0.839,0.328,0.469,-12.005,1.89,3.867,
47561700,-0.823,0.309,0.488,-12.372,0.367,3.762,
47561710,-0.8,0.295,0.481,-12.162,-0.035,3.447,
47561720,-0.809,0.304,0.496,-11.217,2.852,3.325,
47561730,-0.798,0.289,0.507,-10.85,5.652,4.497,
47561740,-0.823,0.296,0.494,-11.112,7.402,5.722,
47561750,-0.828,0.29,0.475,-11.655,9.572,5.565,
47561760,-0.855,0.26,0.443,-11.007,10.43,5.6,
47561770,-0.865,0.239,0.413,-8.032,10.482,4.602,
47561780,-0.939,0.298,0.433,-2.765,7.385,4.515,
47561790,-0.907,0.313,0.437,-1.557,-1.662,5.127,
47561800,-0.9,0.331,0.434,-3.027,-9.887,4.305,
47561800,-0.892,0.336,0.436,-5.617,-17.937,3.395,
47561820,-0.885,0.331,0.448,-7.98,-25.095,2.555,
47561820,-0.853,0.326,0.473,-8.715,-31.272,1.557,
47561830,-0.812,0.318,0.501,-9.607,-33.687,0.997,
47561840,-0.79,0.303,0.514,-10.5,-32.655,0.665,
47561850,-0.765,0.282,0.52,-9.8,-29.015,0.77,
47561860,-0.761,0.286,0.524,-7.455,-24.29,1.102,
47561870,-0.765,0.295,0.535,-5.635,-18.06,1.365,
47561880,-0.774,0.291,0.534,-4.83,-12.372,1.312,
47561890,-0.799,0.284,0.522,-3.972,-7.56,1.382,
47561900,-0.821,0.288,0.514,-2.047,-6.405,1.242,
47561910,-0.84,0.306,0.505,-0.577,-7.472,1.067,
47561920,-0.859,0.32,0.495,-1.19,-11.025,0.42,
47561930,-0.865,0.326,0.487,-2.87,-16.065,-0.525,
47561940,-0.856,0.328,0.49,-5.005,-22.102,-1.382,
47561950,-0.836,0.325,0.505,-8.452,-26.635,-1.575,
47561960,-0.823,0.303,0.515,-11.515,-29.61,-1.417,
47561970,-0.794,0.282,0.535,-11.637,-30.432,-1.137,
47561980,-0.77,0.278,0.549,-9.502,-28.385,-0.507,
47561990,-0.773,0.306,0.55,-8.505,-25.865,-0.297,
47562000,-0.794,0.306,0.551,-10.692,-25.34,-1.102,
47562010,-0.819,0.299,0.547,-12.372,-25.97,-1.767,
47562020,-0.832,0.297,0.542,-12.057,-28.56,-2.66,
47562030,-0.832,0.306,0.544,-12.005,-32.62,-3.237,
47562040,-0.854,0.295,0.558,-13.667,-37.852,-2.975,
47562050,-0.842,0.289,0.545,-15.365,-45.902,-2.765,
47562060,-0.775,0.287,0.563,-15.435,-49.665,-2.275,
47562070,-0.776,0.278,0.592,-16.135,-48.212,-1.557,
47562080,-0.691,0.245,0.603,-17.08,-45.43,-0.927,
47562090,-0.623,0.229,0.597,-13.3,-34.492,-0.787,
47562100,-0.687,0.266,0.62,-6.72,-21.227,0.087,
47562110,-0.714,0.253,0.669,-4.725,-12.985,-0.157,
47562120,-0.716,0.239,0.669,-3.71,-4.41,-1.19,
47562130,-0.673,0.249,0.644,-2.922,3.64,-3.132,
47562140,-0.724,0.224,0.627,-3.552,11.795,-2.31,
47562150,-0.717,0.233,0.584,-0.98,15.96,-2.082,
47562160,-0.731,0.267,0.545,0.647,17.745,-1.085,
47562170,-0.782,0.274,0.513,0.98,17.412,0.892,
47562170,-0.797,0.302,0.548,3.692,15.662,2.467,
47562190,-0.827,0.318,0.55,3.71,12.95,2.835,
47562190,-0.823,0.333,0.562,1.347,7.472,1.662,
47562210,-0.788,0.311,0.555,0.42,0.98,1.365,
47562210,-0.767,0.303,0.55,0.7,-2.852,0.192,
47562230,-0.741,0.271,0.572,1.347,-6.597,-0.315,
47562230,-0.746,0.267,0.603,4.34,-5.565,0.14,
47562250,-0.757,0.268,0.605,6.055,-3.15,0.035,
47562250,-0.757,0.269,0.594,6.51,-0.857,-0.822,
47562260,-0.766,0.269,0.584,5.722,0.28,-0.805,
47562270,-0.768,0.303,0.496,3.937,1.47,-0.455,
47562280,-0.832,0.376,0.503,-0.21,-3.92,0.752,
47562290,-0.948,0.318,0.566,-7.612,-14.77,-0.192,
47562300,-0.824,0.327,0.604,-4.007,-20.807,-4.515,
47562310,-0.792,0.314,0.615,-7.77,-21.577,-7.175,
47562320,-0.75,0.21,0.601,-13.667,-21.122,-6.807,
47562330,-0.698,0.184,0.629,-7.822,-17.255,-5.355,
47562340,-0.654,0.212,0.633,-3.745,-9.712,-3.132,
47562350,-0.712,0.2,0.626,-3.132,-1.417,-0.822,
47562360,-0.717,0.251,0.589,0.315,5.88,1.015,
47562370,-0.809,0.292,0.563,0.717,8.487,2.117,
47562380,-0.85,0.307,0.531,-0.052,4.497,2.695,
47562390,-0.864,0.335,0.597,-0.192,-2.73,1.277,
47562400,-0.765,0.263,0.628,-4.025,-5.197,-0.367,
47562410,-0.673,0.23,0.649,-3.5,1.05,-0.91,
47562420,-0.634,0.147,0.613,-4.2,11.97,0.682,
47562430,-0.663,0.194,0.615,0.14,24.027,0.892,
47562440,-0.717,0.222,0.598,6.23,29.697,4.83,
47562450,-0.792,0.275,0.562,7.927,31.22,5.967,
47562460,-0.858,0.312,0.526,6.545,26.565,6.195,
47562470,-0.843,0.331,0.507,4.725,16.817,6.282,
47562480,-0.837,0.344,0.487,3.342,7.227,5.95,
47562490,-0.821,0.358,0.517,1.487,-2.957,6.037,
47562500,-0.802,0.356,0.602,-1.312,-7.927,3.745,
47562510,-0.757,0.311,0.624,-4.742,-7.63,0.56,
47562510,-0.73,0.285,0.608,-5.372,-3.797,-1.33,
47562530,-0.709,0.273,0.601,-4.672,-0.962,-1.785,
47562530,-0.75,0.293,0.624,-5.547,-0.682,-0.507,
47562550,-0.716,0.266,0.417,-7.875,-1.925,0.21,
47562550,-0.85,0.331,0.469,-7.28,-4.812,-1.47,
47562570,-1.007,0.323,0.562,-4.62,-6.72,-5.32,
47562570,-0.908,0.376,0.584,-3.202,-16.887,-6.195,
47562580,-0.84,0.228,0.54,-15.05,-26.6,-4.602,
47562590,-0.775,0.17,0.552,-14.857,-26.197,-7.017,
47562600,-0.775,0.181,0.612,-7.787,-25.83,-4.252,
47562610,-0.718,0.166,0.614,-6.615,-21.91,-1.802,
47562620,-0.724,0.17,0.607,-2.187,-16.555,-0.14,
47562630,-0.745,0.233,0.591,1.19,-11.182,2.59,
47562640,-0.799,0.278,0.578,0.63,-9.555,3.972,
47562650,-0.827,0.304,0.566,-0.245,-10.92,4.462,
47562660,-0.81,0.319,0.569,-1.295,-14.77,3.5,
47562670,-0.77,0.322,0.582,-3.762,-15.907,2.17,
47562680,-0.726,0.279,0.68,-6.772,-13.212,1.487,
47562690,-0.637,0.177,0.65,-5.197,-2.082,0.77,
47562700,-0.618,0.213,0.623,1.4,9.765,1.067,
47562710,-0.702,0.263,0.639,3.062,18.952,3.465,
47562720,-0.71,0.259,0.612,5.355,21.735,5.267,
47562730,-0.797,0.336,0.599,4.637,24.342,4.532,
47562740,-0.788,0.308,0.539,0.63,21.63,3.64,
47562750,-0.84,0.315,0.535,-0.07,16.747,2.345,
47562760,-0.809,0.312,0.513,-0.647,9.345,2.187,
47562770,-0.821,0.295,0.539,-1.942,0.98,1.47,
47562780,-0.813,0.262,0.588,-2.485,-4.287,0.577,
47562790,-0.783,0.254,0.603,-1.382,-5.092,-0.98,
47562800,-0.772,0.224,0.567,-2.082,-3.867,-0.735,
47562810,-0.768,0.216,0.557,0,-3.342,-0.14,
47562820,-0.801,0.252,0.509,2.362,-4.112,1.172,
47562830,-0.831,0.323,0.513,1.33,-12.145,2.047,
47562840,-0.894,0.325,0.531,-2.012,-21.63,0.787,
47562850,-0.837,0.371,0.61,-2.362,-28.42,-2.695,
47562860,-0.812,0.296,0.636,-9.432,-27.877,-4.777,
47562870,-0.695,0.236,0.607,-10.535,-25.165,-6.107,
47562880,-0.704,0.222,0.615,-7.787,-21.157,-4.462,
47562890,-0.684,0.207,0.63,-5.757,-15.855,-2.415,
47562900,-0.72,0.188,0.638,-2.835,-8.662,-1.015,
47562910,-0.713,0.21,0.599,0.28,-1.627,0.385,
47562920,-0.778,0.252,0.586,0.595,1.855,2.712,
47562920,-0.812,0.274,0.579,-1.19,0.857,4.987,
47562940,-0.829,0.281,0.572,-1.102,-1.207,5.425,
47562940,-0.791,0.27,0.598,-1.4,-4.322,5.582,
47562960,-0.764,0.174,0.632,-0.647,-1.172,5.512,
47562960,-0.623,0.141,0.615,6.317,10.01,4.235,
47562980,-0.697,0.185,0.621,8.662,20.807,4.235,
47562980,-0.741,0.248,0.609,11.392,21.577,6.265,
47563000,-0.778,0.348,0.595,12.897,20.195,6.842,
47563000,-0.82,0.382,0.557,7.892,16.275,5.267,
47563010,-0.81,0.375,0.528,3.78,9.502,3.01,
47563020,-0.797,0.334,0.503,2.73,2.345,3.202,
47563030,-0.789,0.337,0.56,2.117,-3.43,1.89,
47563040,-0.779,0.308,0.608,0.822,-5.25,-0.105,
47563050,-0.751,0.288,0.6,0.315,-2.94,-1.82,
47563060,-0.74,0.267,0.588,-0.402,-1.067,-2.975,
47563070,-0.757,0.261,0.59,0.297,0.647,-3.01,
47563080,-0.779,0.272,0.585,1.487,1.085,-2.537,
47563090,-0.803,0.268,0.566,1.592,-0.262,-2.485,
47563100,-0.821,0.276,0.469,1.767,-3.955,-3.115,
47563110,-0.892,0.375,0.46,-0.297,-16.012,-3.797,
47563120,-1.004,0.332,0.566,-7.35,-33.442,-5.18,
47563130,-0.78,0.304,0.607,-6.877,-39.795,-8.277,
47563140,-0.755,0.253,0.639,-11.76,-38.465,-7.455,
47563150,-0.657,0.178,0.638,-12.005,-31.552,-6.58,
47563160,-0.629,0.22,0.654,-3.22,-21.052,-5.285,
47563170,-0.672,0.243,0.624,-2.205,-11.095,-2.765,
47563180,-0.753,0.248,0.612,-0.63,-5.197,-2.117,
47563190,-0.789,0.27,0.588,1.05,-3.797,-1.172,
47563200,-0.813,0.234,0.558,0.245,-4.917,-0.735,
47563210,-0.818,0.238,0.583,1.032,-8.277,0.122,
47563220,-0.779,0.229,0.608,0.07,-10.307,1.365,
47563230,-0.715,0.224,0.63,-0.455,-8.785,2.73,
47563240,-0.668,0.188,0.706,0.437,-2.082,3.797,
47563250,-0.576,0.152,0.681,6.125,10.832,4.182,
47563260,-0.618,0.217,0.639,13.177,25.462,5.862,
47563260,-0.709,0.27,0.599,14.577,33.372,8.26,
47563280,-0.779,0.351,0.563,14.28,32.34,7.437,
47563280,-0.856,0.396,0.554,13.335,29.715,7.892,
47563300,-0.884,0.384,0.561,7.875,23.52,4.217,
47563300,-0.835,0.358,0.538,3.517,14.665,0.56,
47563320,-0.808,0.321,0.553,-0.595,8.365,-0.682,
47563320,-0.759,0.29,0.56,-2.642,3.71,-1.382,
47563330,-0.741,0.273,0.554,-2.415,1.067,-0.892,
47563340,-0.749,0.259,0.547,-2.135,1.522,-1.855,
47563350,-0.768,0.259,0.554,0.647,2.502,-1.837,
47563360,-0.809,0.283,0.567,1.4,3.395,-2.38,
47563370,-0.841,0.295,0.572,-0.402,2.835,-3.657,
47563380,-0.841,0.294,0.571,-2.222,-1.102,-4.812,
47563390,-0.802,0.252,0.547,-3.395,-6.212,-5.477,
47563400,-0.787,0.236,0.389,-1.54,-11.952,-6.755,
47563410,-0.864,0.318,0.492,-0.175,-27.86,-6.807,
47563420,-0.844,0.294,0.578,0.42,-35.245,-6.282,
47563430,-0.831,0.328,0.668,-0.997,-36.47,-8.522,
47563440,-0.836,0.22,0.673,-8.19,-31.202,-5.897,
47563450,-0.66,0.157,0.623,-6.002,-25.112,-5.88,
47563460,-0.688,0.16,0.601,-2.765,-18.41,-2.45,
47563470,-0.724,0.172,0.599,-0.28,-13.247,1.435,
47563480,-0.779,0.216,0.594,3.377,-9.555,4.042,
47563490,-0.812,0.244,0.56,2.292,-9.31,5.88,
47563500,-0.839,0.265,0.547,2.275,-12.582,6.982,
47563510,-0.82,0.306,0.574,2.66,-15.995,7.035,
47563520,-0.766,0.276,0.692,-0.42,-15.417,5.967,
47563530,-0.643,0.181,0.701,-1.102,-2.922,1.137,
47563540,-0.62,0.262,0.731,-0.752,13.772,-2.275,
47563550,-0.653,0.22,0.671,-5.967,24.71,1.277,
47563560,-0.675,0.245,0.593,-5.722,26.512,3.85,
47563570,-0.701,0.313,0.58,-0.28,26.005,6.807,
47563580,-0.774,0.363,0.551,1.82,25.76,7.21,
47563590,-0.778,0.414,0.497,0.507,20.142,6.492,
47563600,-0.854,0.399,0.482,-1.05,14.525,5.897,
47563610,-0.82,0.4,0.545,-1.382,3.36,1.452,
47563620,-0.811,0.349,0.633,-3.307,-3.517,-1.085,
47563630,-0.728,0.272,0.61,-3.99,-6.422,-1.837,
47563640,-0.718,0.249,0.588,-3.342,-3.85,-2.502,
47563650,-0.725,0.219,0.485,-3.115,-1.592,-3.15,
47563660,-0.759,0.294,0.416,-2.082,-4.235,-2.94,
47563670,-0.921,0.279,0.525,-3.237,-15.347,-3.482,
47563670,-0.897,0.288,0.595,1.137,-25.707,-6.3,
47563690,-0.86,0.316,0.612,-0.7,-30.362,-6.58,
47563690,-0.869,0.222,0.664,-9.38,-28.647,-5.617,
47563710,-0.755,0.124,0.625,-8.522,-26.897,-4.147,
47563710,-0.683,0.149,0.624,-5.127,-21.735,-4.392,
47563730,-0.708,0.145,0.614,-2.467,-15.662,-0.595,
47563730,-0.751,0.206,0.61,1.522,-10.5,2.52,
47563750,-0.804,0.244,0.568,2.432,-8.417,4.147,
47563750,-0.841,0.29,0.556,4.042,-10.605,4.27,
47563760,-0.851,0.322,0.582,3.307,-15.417,2.712,
47563770,-0.829,0.256,0.667,-0.787,-18.2,0.052,
47563780,-0.654,0.177,0.658,1.925,-11.637,-3.92,
47563790,-0.68,0.235,0.68,6.597,-0.087,-4.112,
47563800,-0.653,0.231,0.672,5.407,4.69,-1.242,
47563810,-0.635,0.281,0.647,5.092,9.135,-0.402,
47563820,-0.732,0.305,0.661,1.242,12.722,-1.032,
47563830,-0.679,0.317,0.629,-6.632,11.917,-4.585,
47563840,-0.786,0.262,0.618,-8.085,12.53,-2.222,
47563850,-0.763,0.305,0.62,-5.652,8.977,-1.592,
47563860,-0.77,0.289,0.59,-6.492,6.755,-1.172,
47563870,-0.775,0.284,0.627,-5.022,7.035,-0.385,
47563880,-0.717,0.27,0.599,-4.042,7.122,-0.035,
47563890,-0.621,0.255,0.563,-5.267,9.537,0.875,
47563900,-0.681,0.236,0.549,-2.642,18.007,2.24,
47563910,-0.723,0.296,0.515,3.325,21.49,2.572,
47563920,-0.819,0.339,0.473,4.305,23.135,3.115,
47563930,-0.997,0.369,0.546,2.59,19.285,1.435,
47563940,-0.939,0.334,0.588,-2.1,5.127,-1.47,
47563950,-0.848,0.255,0.572,-7.927,-6.405,-3.115,
47563960,-0.743,0.19,0.54,-8.907,-12.967,-3.482,
47563970,-0.678,0.201,0.476,-4.235,-15.102,-2.415,
47563980,-0.756,0.206,0.523,0.787,-16.765,-1.225,
47563990,-0.809,0.256,0.582,7.192,-18.76,-2.52,
47564000,-0.837,0.291,0.617,6.79,-18.322,-2.205,
47564010,-0.88,0.285,0.624,0.752,-16.712,-2.135,
47564010,-0.826,0.247,0.625,-3.045,-17.587,-2.607,
47564030,-0.762,0.204,0.597,-3.955,-17.622,-2.642,
47564030,-0.729,0.192,0.581,-2.362,-17.255,-1.172,
47564050,-0.745,0.214,0.59,0.857,-16.45,0.717,
47564050,-0.764,0.228,0.596,2.555,-14.262,2.082,
47564070,-0.823,0.245,0.601,2.73,-13.212,2.87,
47564070,-0.766,0.277,0.59,0.647,-14.717,2.905,
47564080,-0.807,0.285,0.594,-0.997,-14.84,2.712,
47564090,-0.767,0.277,0.582,-2.1,-16.17,2.152,
47564100,-0.76,0.299,0.615,-2.957,-14.962,1.89,
47564110,-0.755,0.229,0.731,-5.215,-9.537,-0.385,
47564120,-0.667,0.216,0.705,-2.73,2.275,-3.587,
47564130,-0.749,0.2,0.709,-2.87,10.29,-2.695,
47564140,-0.649,0.206,0.641,-5.792,5.6,-4.987,
47564150,-0.683,0.188,0.636,-1.715,5.967,-1.785,
47564160,-0.713,0.242,0.584,2.082,6.562,0.35,
47564170,-0.682,0.245,0.535,1.942,4.602,1.295,
47564180,-0.717,0.268,0.505,5.985,7.297,2.817,
47564190,-0.692,0.326,0.483,10.447,9.87,4.147,
47564200,-0.773,0.355,0.473,12.845,14.735,6.23,
47564210,-0.816,0.375,0.575,14.122,11.812,6.02,
47564220,-0.755,0.324,0.647,13.947,10.832,2.467,
47564230,-0.656,0.287,0.622,15.96,17.272,-0.122,
47564240,-0.662,0.262,0.63,19.53,29.68,-2.292,
47564250,-0.646,0.261,0.647,21.367,39.427,-4.287,
47564260,-0.695,0.272,0.567,22.487,50.855,-6.16,
47564270,-0.788,0.324,0.522,22.645,53.025,-7.297,
47564280,-0.937,0.316,0.497,22.522,48.842,-7.787,
47564290,-0.965,0.346,0.449,23.537,39.532,-7.735,
47564300,-0.986,0.318,0.465,21.927,29.75,-4.252,
47564310,-0.963,0.298,0.452,18.987,20.212,-4.182,
47564320,-0.896,0.243,0.455,19.687,14.507,-4.725,
47564330,-0.863,0.208,0.464,23.047,12.617,-4.987,
47564340,-0.861,0.186,0.476,25.777,10.482,-5.74,
47564350,-0.849,0.184,0.454,27.685,6.405,-5.792,
47564360,-0.879,0.182,0.453,31.202,7.507,-5.232,
47564370,-0.934,0.209,0.496,36.102,7.892,-8.295,
47564380,-0.967,0.214,0.504,38.92,3.517,-13.667,
47564390,-0.963,0.194,0.491,40.897,-6.65,-21.017,
47564400,-0.934,0.19,0.488,45.027,-17.535,-28.227,
47564410,-0.908,0.191,0.474,49.245,-27.615,-34.72,
47564420,-0.898,0.212,0.46,52.727,-34.492,-39.48,
47564420,-0.866,0.224,0.444,55.65,-39.34,-42.805,
47564440,-0.818,0.251,0.439,58.485,-39.585,-44.187,
47564440,-0.783,0.3,0.462,59.412,-33.915,-43.855,
47564460,-0.801,0.33,0.491,54.687,-24.097,-41.282,
47564460,-0.842,0.316,0.476,46.62,-16.677,-38.08,
47564480,-0.87,0.29,0.459,40.792,-13.737,-36.365,
47564480,-0.892,0.259,0.433,39.952,-15.4,-36.487,
47564500,-0.898,0.238,0.415,44.467,-18.567,-39.847,
47564500,-0.888,0.239,0.421,52.255,-22.872,-44.87,
47564510,-0.888,0.256,0.444,60.077,-27.107,-49.717,
47564520,-0.89,0.3,0.484,65.117,-31.937,-54.127,
47564530,-0.854,0.33,0.507,64.032,-36.19,-57.365,
47564540,-0.791,0.322,0.505,60.462,-37.852,-57.277,
47564550,-0.723,0.289,0.496,57.347,-35.35,-53.515,
47564560,-0.665,0.263,0.497,56.857,-28.997,-47.04,
47564570,-0.693,0.276,0.531,57.33,-20.055,-38.43,
47564580,-0.772,0.289,0.556,56.63,-14,-31.342,
47564590,-0.822,0.306,0.586,55.282,-14.892,-28.017,
47564600,-0.83,0.326,0.587,52.675,-21.525,-24.307,
47564610,-0.8,0.336,0.572,49.612,-28.857,-19.495,
47564620,-0.762,0.34,0.562,47.337,-33.46,-14.21,
47564630,-0.721,0.369,0.578,45.22,-34.58,-9.24,
47564640,-0.706,0.402,0.589,40.32,-32.97,-6.475,
47564650,-0.709,0.392,0.605,33.845,-31.832,-7.297,
47564660,-0.714,0.379,0.631,29.487,-32.76,-8.942,
47564670,-0.713,0.373,0.658,27.247,-37.607,-9.187,
47564680,-0.698,0.351,0.672,26.827,-43.557,-7.647,
47564690,-0.615,0.344,0.667,27.772,-46.2,-5.005,
47564700,-0.579,0.348,0.666,25.707,-36.242,-1.662,
47564710,-0.631,0.339,0.663,19.267,-19.355,0.472,
47564720,-0.664,0.299,0.633,11.952,-2.73,1.4,
47564730,-0.736,0.262,0.595,7.192,10.115,3.71,
47564740,-0.796,0.231,0.547,7.42,16.817,7.525,
47564750,-0.864,0.241,0.514,12.092,15.785,9.905,
47564760,-0.913,0.259,0.498,16.555,9.205,11.427,
47564760,-0.898,0.301,0.487,18.812,-3.605,12.11,
47564780,-0.894,0.343,0.49,18.462,-17.167,12.25,
47564780,-0.856,0.382,0.508,14.787,-29.54,10.727,
47564800,-0.823,0.387,0.527,8.697,-36.785,9.327,
47564800,-0.77,0.355,0.546,3.92,-39.812,6.755,
47564820,-0.718,0.333,0.572,3.062,-37.835,3.832,
47564820,-0.686,0.332,0.597,3.587,-31.657,1.032,
47564830,-0.708,0.307,0.606,3.587,-22.26,-1.242,
47564840,-0.726,0.287,0.599,5.6,-15.522,-2.66,
47564850,-0.737,0.308,0.581,8.592,-11.305,-3.43,
47564860,-0.755,0.327,0.567,9.38,-9.607,-4.427,
47564870,-0.791,0.339,0.559,7.262,-9.012,-4.112,
47564880,-0.807,0.337,0.547,3.727,-11.182,-3.412,
47564890,-0.825,0.332,0.541,0.665,-14.577,-2.59,
47564900,-0.837,0.306,0.543,-0.927,-20.352,-2.135,
47564910,-0.812,0.293,0.557,0.7,-26.88,-1.767,
47564920,-0.782,0.286,0.566,4.077,-31.43,-1.54,
47564930,-0.767,0.269,0.595,8.225,-32.882,-1.627,
47564940,-0.695,0.28,0.597,12.005,-33.215,-3.045,
47564950,-0.662,0.314,0.616,14.455,-28.84,-3.237,
47564960,-0.698,0.316,0.615,12.967,-20.072,-1.12,
47564970,-0.767,0.289,0.608,12.18,-14.77,0.927,
47564980,-0.756,0.288,0.602,15.085,-14.63,1.225,
47564990,-0.771,0.282,0.595,19.705,-16.31,1.47,
47565000,-0.767,0.305,0.593,24.552,-19.547,1.522,
47565010,-0.74,0.345,0.594,26.337,-23.31,0.927,
47565020,-0.742,0.366,0.576,23.415,-24.972,0.402,
47565030,-0.749,0.397,0.571,17.482,-26.442,0.665,
47565040,-0.745,0.467,0.591,7.682,-26.53,2.047,
47565050,-0.787,0.437,0.514,-8.365,-29.452,5.495,
47565060,-0.804,0.358,0.553,-20.002,-32.637,10.062,
47565070,-0.79,0.322,0.596,-22.505,-38.955,14.14,
47565080,-0.669,0.294,0.631,-17.972,-41.685,11.462,
47565090,-0.573,0.262,0.683,-9.817,-34.282,8.12,
47565100,-0.531,0.315,0.681,-0.962,-19.232,5.092,
47565110,-0.596,0.3,0.668,2.065,-6.44,1.19,
47565120,-0.669,0.334,0.638,4.55,2.082,0.332,
47565130,-0.752,0.354,0.594,4.077,3.342,-0.35,
47565140,-0.814,0.38,0.571,1.732,-1.54,-0.017,
47565150,-0.833,0.383,0.564,-3.097,-11.585,1.137,
47565160,-0.811,0.368,0.591,-8.382,-22.347,2.047,
47565170,-0.77,0.345,0.616,-12.757,-31.937,3.535,
47565170,-0.702,0.331,0.64,-15.557,-37.152,5.337,
47565190,-0.665,0.299,0.651,-16.24,-37.012,6.65,
47565190,-0.641,0.295,0.655,-13.65,-33.547,6.352,
47565210,-0.628,0.317,0.661,-9.975,-28.35,5.547,
47565210,-0.642,0.332,0.657,-8.837,-22.382,5.407,
47565230,-0.668,0.334,0.657,-9.835,-18.462,5.897,
47565230,-0.676,0.333,0.651,-10.99,-16.065,6.177,
47565240,-0.686,0.337,0.657,-11.305,-15.347,5.232,
47565250,-0.679,0.333,0.663,-11.742,-14.42,4.515,
47565260,-0.66,0.327,0.665,-11.742,-13.387,4.077,
47565270,-0.635,0.328,0.673,-11.34,-11.042,3.185,
47565280,-0.633,0.315,0.673,-10.92,-7.98,2.152,
47565290,-0.631,0.335,0.665,-10.447,-4.532,2.397,
47565300,-0.64,0.377,0.646,-12.792,-1.417,3.29,
47565310,-0.708,0.33,0.683,-17.902,-0.7,4.445,
47565320,-0.63,0.299,0.672,-17.78,-0.56,4.882,
47565330,-0.616,0.313,0.674,-16.59,2.205,6.002,
47565340,-0.648,0.312,0.665,-16.17,7.07,6.772,
47565350,-0.704,0.335,0.66,-16.625,8.435,6.685,
47565360,-0.721,0.328,0.661,-16.94,6.79,4.795,
47565370,-0.721,0.293,0.681,-16.31,3.535,3.482,
47565380,-0.647,0.295,0.656,-13.457,2.17,3.237,
47565390,-0.682,0.324,0.674,-13.702,4.672,4.69,
47565400,-0.687,0.273,0.669,-14.927,4.62,5.337,
47565410,-0.67,0.3,0.657,-12.687,4.952,6.965,
47565420,-0.688,0.293,0.66,-12.25,5.792,6.405,
47565430,-0.707,0.279,0.671,-10.867,5.04,5.827,
47565440,-0.678,0.289,0.662,-7.927,3.517,5.425,
47565450,-0.692,0.329,0.662,-6.545,4.077,5.757,
47565460,-0.752,0.259,0.664,-7.105,1.33,4.917,
47565470,-0.647,0.295,0.664,-2.17,-1.732,3.867,
47565480,-0.682,0.298,0.658,-0.857,-1.33,4.497,
47565490,-0.693,0.293,0.668,0.525,-1.942,3.71,
47565500,-0.693,0.303,0.663,1.697,-2.397,4.095,
47565510,-0.691,0.301,0.663,3.255,-3.622,4.2,
47565510,-0.692,0.298,0.662,5.022,-4.252,4.13,
47565530,-0.698,0.286,0.655,7.105,-5.477,3.5,
47565530,-0.699,0.292,0.648,10.465,-6.51,2.047,
47565550,-0.713,0.313,0.651,13.23,-8.365,0.91,
47565550,-0.741,0.312,0.65,13.877,-11.532,0.42,
47565570,-0.74,0.319,0.652,13.912,-17.517,0.892,
47565570,-0.714,0.334,0.664,12.46,-21.385,2.572,
47565580,-0.706,0.275,0.69,10.797,-25.655,3.43,
47565590,-0.568,0.272,0.686,15.365,-27.965,1.645,
47565600,-0.586,0.355,0.696,17.657,-20.002,2.45,
47565610,-0.657,0.307,0.689,14.805,-14.857,1.96,
47565620,-0.63,0.339,0.674,16.905,-12.617,1.732,
47565630,-0.646,0.381,0.651,15.82,-9.555,0.717,
47565640,-0.704,0.367,0.655,10.99,-8.505,0.682,
47565650,-0.68,0.381,0.645,6.037,-9.712,1.802,
47565660,-0.676,0.364,0.655,-0.245,-11.235,3.465,
47565670,-0.647,0.331,0.679,-3.692,-12.915,3.797,
47565680,-0.618,0.338,0.69,-4.34,-11.585,3.342,
47565690,-0.612,0.34,0.699,-5.582,-8.68,2.59,
47565700,-0.61,0.337,0.691,-7.245,-4.847,3.08,
47565710,-0.626,0.347,0.676,-8.785,-1.312,3.64,
47565720,-0.635,0.377,0.666,-11.025,1.697,4.375,
47565730,-0.659,0.404,0.658,-16.712,2.957,6.002,
47565740,-0.676,0.397,0.671,-25.462,3.307,9.765,
47565750,-0.604,0.407,0.684,-33.792,4.217,14.507,
47565760,-0.589,0.382,0.705,-43.68,9.485,21.017,
47565770,-0.524,0.373,0.674,-50.75,18.602,27.212,
47565780,-0.596,0.394,0.672,-57.802,33.022,35.052,
47565790,-0.748,0.241,0.68,-62.457,37.082,37.94,
47565800,-0.665,0.235,0.653,-52.15,38.482,36.085,
47565810,-0.74,0.301,0.685,-43.592,38.307,32.287,
47565820,-0.759,0.218,0.678,-39.445,29.855,24.587,
47565830,-0.705,0.23,0.698,-28.455,20.597,19.057,
47565840,-0.698,0.187,0.704,-17.745,12.355,10.01,
47565850,-0.59,0.204,0.664,-3.342,7.612,-1.172,
47565860,-0.68,0.304,0.671,9.45,11.095,-7.315,
47565870,-0.77,0.313,0.643,11.322,9.957,-8.242,
47565880,-0.802,0.296,0.63,10.552,3.377,-6.685,
47565890,-0.767,0.296,0.636,12.827,-5.022,-7.262,
47565900,-0.753,0.249,0.669,17.535,-11.725,-10.167,
47565910,-0.653,0.237,0.693,25.515,-16.992,-14.315,
47565910,-0.618,0.279,0.697,31.657,-16.852,-16.835,
47565920,-0.606,0.313,0.688,32.795,-14.245,-18.007,
47565930,-0.668,0.325,0.653,31.482,-11.375,-17.64,
47565940,-0.661,0.389,0.636,27.72,-8.382,-15.277,
47565950,-0.805,0.348,0.633,18.567,-7.84,-10.412,
47565960,-0.708,0.348,0.632,14.087,-14.647,-8.26,
47565970,-0.688,0.376,0.649,10.185,-16.467,-5.932,
47565980,-0.664,0.355,0.669,3.482,-14.752,-2.957,
47565990,-0.648,0.325,0.679,-2.607,-12.88,1.155,
47566000,-0.597,0.313,0.691,-5.775,-10.255,3.692,
47566010,-0.584,0.313,0.695,-7.787,-4.48,4.882,
47566020,-0.59,0.323,0.694,-9.432,2.625,5.862,
47566030,-0.607,0.341,0.686,-11.952,9.59,7.192,
47566040,-0.611,0.357,0.689,-15.085,15.452,7.945,
47566050,-0.615,0.33,0.694,-18.462,20.72,10.22,
47566060,-0.55,0.336,0.683,-20.842,27.212,14.437,
47566070,-0.461,0.453,0.632,-24.395,41.09,18.9,
47566080,-0.87,0.378,0.662,-40.215,66.412,28.07,
47566090,-0.816,0.16,0.584,-45.815,52.902,24.027,
47566100,-0.817,0.276,0.632,-30.362,42.297,23.152,
47566110,-0.743,0.22,0.637,-22.627,28.087,12.425,
47566120,-0.691,0.31,0.657,-10.972,25.865,8.767,
47566130,-0.804,0.237,0.616,-8.085,19.985,3.045,
47566140,-0.738,0.279,0.613,2.625,11.497,-3.64,
47566150,-0.826,0.309,0.604,8.995,5.477,-7.192,
47566160,-0.88,0.269,0.58,12.11,-5.127,-9.87,
47566170,-0.861,0.293,0.579,16.765,-19.355,-10.482,
47566180,-0.846,0.247,0.587,20.755,-33.145,-11.97,
47566190,-0.839,0.204,0.592,29.855,-49.542,-16.327,
47566200,-0.514,0.418,0.725,39.672,-65.415,-25.322,
47566210,-0.544,0.437,0.723,30.73,-45.78,-22.872,
47566220,-0.673,0.235,0.646,15.05,-32.34,-18.13,
47566230,-0.587,0.366,0.686,15.872,-26.547,-11.97,
47566240,-0.7,0.329,0.64,9.362,-17.57,-6.16,
47566250,-0.665,0.317,0.648,5.372,-16.31,-3.045,
47566260,-0.64,0.376,0.682,-0.14,-12.635,2.327,
47566260,-0.578,0.321,0.7,-10.167,-8.33,7.175,
47566280,-0.536,0.321,0.713,-15.767,0.98,14,
47566280,-0.582,0.319,0.702,-18.497,11.427,16.992,
47566300,-0.581,0.336,0.689,-18.462,21.402,15.977,
47566300,-0.466,0.436,0.694,-20.72,35.56,18.707,
47566320,-0.654,0.386,0.651,-33.285,62.02,28.14,
47566320,-0.768,0.25,0.627,-46.462,68.372,34.457,
47566330,-0.852,0.259,0.65,-41.825,57.295,32.182,
47566340,-0.729,0.251,0.622,-26.25,35.665,25.637,
47566350,-0.713,0.32,0.606,-18.532,32.182,14.297,
47566360,-0.811,0.322,0.621,-13.737,32.742,5.967,
47566370,-0.844,0.268,0.575,-11.952,24.937,0.105,
47566380,-0.732,0.234,0.527,-2.992,14.175,-5.46,
47566390,-0.847,0.336,0.596,8.907,10.587,-12.792,
47566400,-0.829,0.293,0.589,10.167,3.185,-19.495,
47566410,-0.852,0.241,0.557,11.602,-5.722,-20.597,
47566420,-0.848,0.22,0.565,18.025,-16.747,-20.615,
47566430,-0.925,0.191,0.537,28.245,-32.865,-23.03,
47566440,-0.658,0.383,0.659,37.52,-54.67,-28.875,
47566450,-0.622,0.441,0.719,31.885,-49.21,-28.945,
47566460,-0.569,0.338,0.686,15.487,-32.602,-26.11,
47566470,-0.588,0.309,0.676,6.195,-18.987,-17.377,
47566480,-0.674,0.303,0.676,0.402,-6.457,-8.627,
47566490,-0.641,0.29,0.66,-4.445,-0.507,-3.447,
47566500,-0.648,0.312,0.666,-8.417,6.177,2.415,
47566510,-0.633,0.3,0.661,-14.105,11.235,5.827,
47566520,-0.635,0.303,0.663,-17.307,17.78,8.4,
47566530,-0.654,0.328,0.667,-19.635,23.642,11.217,
47566540,-0.686,0.368,0.685,-23.975,28.665,13.37,
47566550,-0.588,0.496,0.802,-33.442,32.287,19.635,
47566560,-0.714,0.213,0.648,-51.59,47.635,28.525,
47566570,-0.675,0.14,0.569,-49.962,48.982,24.447,
47566580,-0.77,0.257,0.569,-34.65,52.552,20.912,
47566590,-0.865,0.298,0.57,-26.197,49.682,13.58,
47566600,-0.86,0.288,0.501,-23.117,35.997,8.19,
47566600,-0.83,0.267,0.477,-15.137,24.902,4.532,
47566620,-0.869,0.263,0.486,-4.042,17.465,-1.89,
47566620,-0.925,0.3,0.556,4.637,5.967,-8.365,
47566640,-0.851,0.259,0.579,6.475,-5.39,-11.06,
47566640,-0.789,0.203,0.568,7.315,-13.002,-10.412,
47566660,-0.748,0.186,0.571,12.372,-16.065,-10.43,
47566660,-0.812,0.182,0.558,19.162,-18.2,-10.972,
47566670,-0.731,0.235,0.527,28.192,-37.065,-15.575,
47566680,-0.647,0.528,0.783,33.197,-34.545,-17.325,
47566690,-0.769,0.335,0.664,10.727,-17.902,-14.84,
47566700,-0.703,0.276,0.613,-0.63,-11.585,-6.44,
47566710,-0.688,0.272,0.621,-4.69,-7.56,0.035,
47566720,-0.695,0.282,0.635,-7.42,-2.747,4.112,
47566730,-0.673,0.308,0.627,-10.797,2.222,6.387,
47566740,-0.667,0.325,0.637,-13.475,7.98,7.262,
47566750,-0.667,0.348,0.659,-18.672,14.91,10.71,
47566760,-0.652,0.312,0.719,-26.88,23.922,15.277,
47566770,-0.678,0.396,0.78,-34.002,34.912,21.577,
47566780,-0.603,0.154,0.628,-49.297,30.502,34.02,
47566790,-0.679,0.124,0.506,-44.17,38.955,32.06,
47566800,-0.863,0.248,0.511,-26.075,44.1,21.21,
47566810,-0.972,0.301,0.476,-17.255,32.567,16.817,
47566820,-0.883,0.289,0.482,-13.492,16.66,11.865,
47566830,-0.828,0.254,0.512,-5.46,10.762,5.547,
47566840,-0.873,0.314,0.58,2.17,8.697,0.42,
47566850,-0.828,0.284,0.582,2.345,2.555,-4.007,
47566860,-0.783,0.249,0.568,2.73,-1.4,-7.315,
47566870,-0.776,0.242,0.575,5.442,-3.692,-9.572,
47566880,-0.804,0.248,0.563,7.455,-4.917,-9.59,
47566890,-0.858,0.272,0.424,9.607,-14.28,-9.992,
47566900,-0.867,0.396,0.59,13.387,-33.757,-14.577,
47566910,-0.756,0.371,0.707,10.29,-33.897,-18.305,
47566920,-0.662,0.236,0.64,-1.557,-24.465,-13.702,
