#Format version: 1.0
time[ms],accX[g],accY[g],accZ[g],Value 1,Value 2,Value 3,
49319320,-1.004,0.205,0.753,17.832,-13.352,52.08,
49319330,-0.848,0.217,0.728,26.075,-39.515,58.205,
49319340,-0.717,0.202,0.713,31.57,-52.342,55.352,
49319350,-0.645,0.258,0.708,36.47,-54.74,51.835,
49319360,-0.558,0.322,0.703,38.412,-48.212,49.227,
49319370,-0.58,0.295,0.683,36.347,-39.147,46.462,
49319380,-0.672,0.281,0.664,33.897,-38.465,44.782,
49319390,-0.64,0.285,0.637,36.627,-42.297,44.712,
49319400,-0.673,0.31,0.622,42.63,-51.52,42.665,
49319410,-0.735,0.293,0.601,44.852,-66.71,43.54,
49319420,-0.691,0.323,0.588,48.37,-83.982,42.245,
49319430,-0.699,0.282,0.584,52.885,-106.61,45.167,
49319440,-0.506,0.259,0.618,61.845,-120.732,47.88,
49319450,-0.312,0.341,0.693,71.05,-121.905,43.995,
49319460,-0.199,0.458,0.75,72.747,-104.247,38.972,
49319470,-0.444,0.376,0.774,59.745,-92.995,37.52,
49319480,-0.421,0.262,0.718,57.785,-95.357,36.015,
49319490,-0.143,0.48,0.844,74.847,-90.212,34.93,
49319500,-0.37,0.591,0.943,66.185,-81.13,44.537,
49319510,-0.444,0.585,0.939,43.26,-75.6,42.84,
49319520,-0.446,0.579,0.913,34.142,-71.452,35.945,
49319530,-0.583,0.524,0.86,30.135,-76.58,32.462,
49319540,-0.376,0.536,0.839,33.915,-81.55,28.385,
49319550,-0.234,0.507,0.799,36.995,-74.637,32.235,
49319560,-0.437,0.464,0.803,37.87,-64.75,38.482,
49319570,-0.5,0.419,0.771,37.905,-67.742,40.232,
49319580,-0.411,0.407,0.734,46.427,-78.557,47.6,
49319590,-0.373,0.436,0.728,56.49,-86.1,56.577,
49319600,-0.272,0.478,0.711,56.84,-86.642,54.932,
49319610,-0.16,0.518,0.681,51.117,-75.232,44.677,
49319620,-0.145,0.554,0.675,42.927,-54.652,32.497,
49319630,-0.162,0.578,0.659,35.875,-32.497,20.615,
49319640,-0.166,0.591,0.67,29.855,-13.335,13.44,
49319650,-0.154,0.637,0.697,22.4,4.06,7.56,
49319660,-0.112,0.642,0.696,11.305,22.592,-0.472,
49319670,-0.13,0.647,0.705,2.012,43.102,-6.947,
49319670,-0.186,0.651,0.725,-5.932,61.74,-15.47,
49319690,-0.276,0.558,0.716,-15.12,73.85,-21.875,
49319690,-0.425,0.488,0.691,-16.625,75.495,-21.14,
49319710,-0.533,0.454,0.701,-10.43,62.352,-13.58,
49319710,-0.392,0.526,0.732,-0.525,43.82,-3.552,
49319730,-0.271,0.603,0.783,5.652,33.075,3.01,
49319730,-0.224,0.602,0.803,0.682,35.875,0.735,
49319750,-0.272,0.6,0.803,-5.617,42.84,-6.667,
49319750,-0.356,0.561,0.789,-7.472,45.972,-11.777,
49319760,-0.431,0.508,0.771,-5.67,39.865,-12.792,
49319770,-0.461,0.491,0.77,-1.732,27.212,-9.327,
49319780,-0.392,0.54,0.773,2.1,14.735,-6.107,
49319790,-0.336,0.601,0.792,-0.542,12.547,-6.422,
49319800,-0.348,0.562,0.771,-11.9,20.405,-11.2,
49319810,-0.421,0.523,0.747,-19.635,32.34,-16.642,
49319820,-0.448,0.553,0.742,-20.545,43.995,-20.93,
49319830,-0.437,0.56,0.733,-23.485,58.747,-27.247,
49319840,-0.439,0.514,0.721,-28.07,77.175,-39.025,
49319850,-0.519,0.482,0.744,-30.152,93.887,-46.725,
49319860,-0.637,0.455,0.768,-27.195,97.51,-49.455,
49319870,-0.677,0.406,0.788,-19.915,83.51,-47.757,
49319880,-0.653,0.427,0.8,-9.45,57.015,-37.607,
49319890,-0.64,0.46,0.792,-1.942,24.955,-25.637,
49319900,-0.534,0.472,0.739,1.172,-3.605,-15.855,
49319910,-0.372,0.53,0.671,2.905,-15.26,-11.567,
49319920,-0.247,0.578,0.627,-0.017,-5.442,-15.225,
49319930,-0.19,0.608,0.609,-10.71,22.697,-25.62,
49319940,-0.251,0.567,0.607,-25.602,58.835,-39.375,
49319950,-0.394,0.525,0.642,-36.995,87.447,-50.96,
49319960,-0.553,0.469,0.675,-44.45,95.287,-52.027,
49319970,-0.643,0.35,0.688,-42.98,84.735,-42.997,
49319980,-0.656,0.368,0.727,-32.777,63.262,-28.262,
49319990,-0.589,0.46,0.739,-26.985,45.255,-16.065,
49320000,-0.456,0.481,0.724,-28.577,43.872,-14.542,
49320010,-0.427,0.543,0.695,-35.665,61.547,-20.947,
49320010,-0.656,0.454,0.652,-49.752,78.627,-35.752,
49320030,-0.772,0.354,0.632,-57.75,78.155,-48.912,
49320030,-0.779,0.355,0.655,-49.542,63.7,-46.147,
49320050,-0.829,0.337,0.666,-37.887,38.255,-36.627,
49320050,-0.747,0.311,0.632,-27.072,10.745,-30.852,
49320070,-0.532,0.369,0.622,-14.647,-6.755,-27.527,
49320070,-0.418,0.402,0.6,-10.552,-4.76,-21.297,
49320080,-0.515,0.392,0.595,-13.65,7.49,-18.707,
49320090,-0.59,0.399,0.577,-19.022,17.43,-21.122,
49320100,-0.604,0.415,0.567,-24.255,19.985,-23.327,
49320110,-0.571,0.369,0.585,-30.572,21.175,-23.467,
49320120,-0.538,0.303,0.643,-33.547,25.252,-20.072,
49320130,-0.699,0.325,0.728,-28.665,31.185,-11.2,
49320140,-0.866,0.333,0.769,-22.715,25.042,-3.132,
49320150,-0.787,0.35,0.773,-16.31,12.967,-2.362,
49320160,-0.695,0.377,0.758,-11.847,0.245,-3.412,
49320170,-0.676,0.367,0.73,-12.145,-9.712,-2.572,
49320180,-0.624,0.36,0.7,-11.55,-18.077,-2.572,
49320190,-0.596,0.355,0.674,-9.485,-22.96,-1.855,
49320200,-0.565,0.341,0.659,-8.47,-23.362,-1.347,
49320210,-0.545,0.369,0.675,-9.292,-15.942,-0.542,
49320220,-0.584,0.393,0.693,-13.545,-5.267,-0.857,
49320230,-0.618,0.383,0.712,-20.895,5.145,-5.722,
49320240,-0.655,0.345,0.732,-27.387,12.722,-10.92,
49320250,-0.723,0.307,0.742,-27.72,15.207,-12.915,
49320260,-0.747,0.276,0.736,-21.962,12.705,-12.775,
49320270,-0.754,0.284,0.723,-15.032,6.877,-10.99,
49320280,-0.704,0.287,0.686,-9.782,0.647,-9.047,
49320290,-0.619,0.299,0.655,-3.745,1.715,-8.82,
49320300,-0.565,0.273,0.646,1.015,9.887,-10.097,
49320310,-0.584,0.186,0.622,6.475,22.732,-12.862,
49320320,-0.734,0.258,0.633,17.185,28.717,-14.315,
49320330,-0.877,0.276,0.613,23.187,19.32,-12.565,
49320340,-0.867,0.206,0.551,30.222,-0.245,-11.147,
49320350,-0.801,0.184,0.498,44.345,-22.575,-7.997,
49320360,-0.725,0.157,0.534,56.682,-41.86,1.102,
49320370,-0.758,0.176,0.568,67.777,-48.58,14.612,
49320380,-0.851,0.187,0.585,87.15,-52.465,20.93,
49320390,-0.714,0.228,0.615,105.472,-50.75,18.795,
49320400,-0.619,0.247,0.632,116.392,-42.542,19.985,
49320410,-0.56,0.301,0.698,132.545,-23.887,22.75,
49320420,-0.694,0.515,0.814,148.89,-12.6,29.225,
49320420,-0.892,0.694,0.859,142.52,-18.252,39.97,
49320440,-0.877,0.725,0.831,118.615,-35.245,48.755,
49320440,-0.712,0.615,0.748,99.33,-51.432,52.99,
49320460,-0.685,0.485,0.673,92.47,-61.11,56.14,
49320460,-0.644,0.416,0.628,93.45,-70.577,57.942,
49320480,-0.554,0.519,0.608,106.137,-79.642,55.037,
49320480,-0.534,0.706,0.598,106.645,-97.965,52.185,
49320500,-0.381,0.721,0.577,86.87,-109.007,55.965,
49320500,-0.42,0.675,0.552,69.02,-109.76,57.347,
49320510,-0.462,0.652,0.563,54.6,-112.052,49.665,
49320520,-0.307,0.608,0.518,40.04,-112.262,34.527,
49320530,-0.127,0.585,0.531,33.355,-91.945,13.842,
49320540,-0.203,0.567,0.561,24.185,-57.82,-7.245,
49320550,-0.398,0.548,0.561,10.465,-27.685,-21.017,
49320560,-0.608,0.522,0.524,1.505,-17.097,-22.067,
49320570,-0.594,0.378,0.525,0.525,-19.11,-10.745,
49320580,-0.541,0.404,0.558,16.467,-19.162,3.797,
49320590,-0.724,0.597,0.626,22.592,-22.067,15.12,
49320600,-0.702,0.577,0.59,11.812,-30.432,18.567,
49320610,-0.669,0.587,0.574,11.042,-39.445,18.952,
49320620,-0.554,0.602,0.581,7.962,-47.827,16.835,
49320630,-0.493,0.611,0.656,2.222,-47.635,11.025,
49320640,-0.47,0.594,0.719,0.035,-54.04,-1.575,
49320650,-0.379,0.74,0.759,5.897,-64.312,-13.037,
49320660,-0.267,0.73,0.741,2.205,-65.66,-15.365,
49320670,-0.231,0.622,0.719,-4.445,-54.792,-15.61,
49320680,-0.277,0.585,0.72,-4.077,-35.28,-14.927,
49320690,-0.479,0.585,0.74,-2.362,-24.062,-13.912,
49320700,-0.637,0.517,0.716,-3.5,-29.855,-9.537,
49320710,-0.641,0.526,0.704,1.75,-47.302,-0.752,
49320720,-0.67,0.546,0.694,5.81,-70.052,9.03,
49320730,-0.642,0.507,0.659,5.162,-94.377,12.862,
49320740,-0.551,0.56,0.642,10.185,-116.41,12.495,
49320750,-0.467,0.541,0.624,10.447,-133.385,13.352,
49320760,-0.254,0.594,0.618,11.077,-139.3,10.115,
49320760,-0.156,0.607,0.625,5.495,-132.352,11.725,
49320780,-0.076,0.575,0.666,0.385,-113.96,11.532,
49320780,-0.134,0.611,0.703,1.75,-95.602,10.377,
49320800,-0.181,0.677,0.75,-1.085,-80.552,12.67,
49320800,-0.204,0.672,0.754,-10.325,-72.327,13.632,
49320820,-0.198,0.674,0.701,-18.655,-66.64,10.01,
49320820,-0.122,0.663,0.702,-29.54,-61.775,6.895,
49320830,-0.062,0.636,0.639,-39.812,-50.032,1.347,
49320840,0.023,0.605,0.71,-35.28,-30.415,-10.062,
49320850,-0.17,0.645,0.776,-36.365,-14.98,-14.122,
49320860,-0.168,0.706,0.768,-46.252,-6.807,-15.225,
49320870,-0.205,0.716,0.738,-62.247,-2.117,-10.71,
49320880,-0.363,0.433,0.731,-79.59,5.845,0.49,
49320890,-0.266,0.336,0.691,-58.695,7.787,5.075,
49320900,-0.137,0.532,0.811,-23.66,17.237,14.297,
49320910,-0.373,0.616,0.88,-17.167,19.88,31.972,
49320920,-0.459,0.451,0.811,-20.562,10.99,36.732,
49320930,-0.34,0.437,0.764,-3.657,-0.98,29.872,
49320940,-0.309,0.534,0.759,10.29,-9.467,27.702,
49320950,-0.339,0.516,0.72,9.345,-14.56,25.777,
49320960,-0.271,0.552,0.742,10.535,-17.85,20.947,
49320970,-0.226,0.628,0.789,9.397,-19.005,18.707,
49320980,-0.157,0.662,0.803,-0.892,-15.435,14.122,
49320990,-0.126,0.647,0.809,-15.68,-7.665,9.065,
49321000,-0.172,0.604,0.798,-28.052,-2.555,5.775,
49321010,-0.255,0.556,0.772,-35.7,-3.342,6.667,
49321020,-0.334,0.471,0.74,-39.917,-11.462,12.67,
49321030,-0.349,0.387,0.701,-36.207,-23.065,15.592,
49321040,-0.249,0.407,0.708,-22.365,-31.342,14.227,
49321050,-0.206,0.502,0.762,-9.432,-31.955,13.825,
49321060,-0.295,0.592,0.804,-6.737,-33.425,12.197,
49321070,-0.338,0.61,0.806,-12.04,-42.297,9.03,
49321080,-0.252,0.574,0.788,-15.925,-52.412,7.332,
49321090,-0.124,0.596,0.781,-15.155,-54.845,6.825,
49321100,-0.082,0.661,0.802,-19.775,-49.997,6.37,
49321110,-0.032,0.647,0.791,-34.107,-40.127,2.52,
49321120,0.032,0.622,0.765,-46.27,-23.992,-5.477,
49321130,-0.021,0.608,0.784,-56.91,-7.385,-10.535,
49321140,0.005,0.552,0.8,-68.005,7.63,-12.827,
49321150,0.037,0.509,0.817,-70.437,24.745,-9.94,
49321160,-0.045,0.482,0.872,-67.97,39.2,-0.927,
49321170,-0.134,0.472,0.901,-66.22,47.897,7.315,
49321170,-0.158,0.526,0.883,-64.207,57.05,16.537,
49321190,-0.228,0.602,0.792,-69.685,72.537,33.827,
49321190,-0.383,0.496,0.795,-89.95,93.415,48.615,
49321210,-0.489,0.227,0.751,-109.847,103.442,39.042,
49321210,-0.364,0.277,0.762,-99.067,98,3.622,
49321230,-0.227,0.408,0.852,-82.862,89.145,-12.6,
49321230,-0.175,0.321,0.879,-80.202,86.31,-4.077,
49321250,-0.149,0.277,0.882,-64.75,85.907,1.33,
49321250,-0.107,0.352,0.913,-44.31,83.58,7.787,
49321260,-0.057,0.363,0.946,-36.085,90.475,21.735,
49321270,-0.105,0.335,0.945,-32.322,107.572,25.007,
49321280,-0.204,0.398,0.971,-28.175,122.587,10.99,
49321290,-0.347,0.396,0.942,-34.545,133.507,-4.532,
49321300,-0.435,0.285,0.882,-39.655,138.495,-18.34,
49321310,-0.452,0.231,0.821,-30.152,142.292,-31.675,
49321320,-0.458,0.231,0.775,-14.14,141.435,-41.002,
49321330,-0.461,0.24,0.734,-0.49,141.872,-46.13,
49321340,-0.486,0.253,0.696,14.157,144.742,-49.857,
49321350,-0.514,0.289,0.659,29.382,147.367,-52.202,
49321360,-0.594,0.349,0.641,36.645,145.757,-47.985,
49321370,-0.724,0.373,0.666,29.837,134.137,-39.287,
49321380,-0.804,0.362,0.65,17.78,118.387,-30.345,
49321390,-0.808,0.272,0.605,10.272,100.152,-20.842,
49321400,-0.706,0.225,0.597,11.165,83.965,-13.475,
49321410,-0.643,0.253,0.621,16.45,77.262,-5.442,
49321420,-0.625,0.28,0.646,20.195,80.92,-0.98,
49321430,-0.649,0.284,0.671,23.327,87.01,-2.082,
49321440,-0.666,0.276,0.675,28.437,88.357,-3.622,
49321450,-0.658,0.331,0.7,36.277,86.52,-2.205,
49321460,-0.641,0.377,0.721,39.042,84.647,-1.207,
49321470,-0.578,0.268,0.732,38.027,86.87,-5.897,
49321480,-0.523,0.184,0.728,51.712,96.005,-14.735,
49321490,-0.626,0.316,0.781,76.037,101.745,-17.78,
49321500,-0.789,0.415,0.804,85.365,98.402,-11.62,
49321510,-0.914,0.487,0.822,83.632,85.557,-5.407,
49321510,-0.919,0.549,0.708,74.55,64.085,-1.907,
49321530,-0.862,0.551,0.659,61.477,43.382,1.4,
49321530,-0.983,0.467,0.563,30.555,19.442,9.31,
49321550,-0.814,0.394,0.442,22.54,-3.727,6.597,
49321550,-0.658,0.393,0.431,23.835,-18.305,11.637,
49321570,-0.696,0.404,0.375,21.437,-18.375,20.352,
49321570,-0.775,0.405,0.333,14.822,-20.195,20.86,
49321580,-0.69,0.417,0.338,6.86,-22.365,19.705,
49321590,-0.862,0.291,0.302,-1.155,-23.59,26.46,
49321600,-0.937,0.186,0.318,0.385,-38.64,30.555,
49321610,-0.861,0.184,0.373,13.807,-58.31,35.052,
49321620,-0.835,0.272,0.484,30.922,-75.372,41.09,
49321630,-0.841,0.339,0.566,42.875,-89.582,42.017,
49321640,-0.758,0.365,0.607,49.157,-101.99,40.88,
49321650,-0.715,0.426,0.686,57.767,-111.58,44.345,
49321660,-0.668,0.483,0.707,65.31,-117.092,45.622,
49321670,-0.493,0.587,0.74,68.757,-108.517,37.992,
49321680,-0.328,0.717,0.752,61.582,-84.262,22.61,
49321690,-0.252,0.795,0.753,40.617,-43.487,2.94,
49321700,-0.362,0.762,0.715,13.212,-0.42,-18.165,
49321710,-0.481,0.699,0.688,-10.342,30.87,-36.89,
49321720,-0.512,0.653,0.647,-27.457,47.915,-45.78,
49321730,-0.471,0.54,0.574,-38.272,59.027,-45.027,
49321740,-0.497,0.431,0.549,-40.915,69.317,-35.927,
49321750,-0.661,0.389,0.54,-38.447,70.91,-24.272,
49321760,-0.623,0.414,0.526,-31.15,68.162,-20.107,
49321770,-0.563,0.503,0.554,-26.477,69.055,-20.107,
49321780,-0.61,0.506,0.556,-35,71.522,-22.925,
49321790,-0.625,0.407,0.512,-43.96,74.882,-29.767,
49321800,-0.572,0.368,0.508,-41.177,83.265,-35.962,
49321810,-0.568,0.419,0.546,-37.922,97.492,-39.602,
49321820,-0.659,0.456,0.577,-43.452,115.57,-44.607,
49321830,-0.772,0.434,0.591,-52.307,128.31,-52.167,
49321840,-0.873,0.335,0.601,-58.082,130.567,-57.855,
49321850,-0.895,0.365,0.592,-57.365,120.417,-60.2,
49321860,-0.903,0.387,0.571,-58.52,106.067,-57.277,
49321870,-0.909,0.167,0.457,-58.607,89.46,-53.2,
49321880,-0.913,0.203,0.479,-38.01,73.307,-50.592,
49321890,-1.049,0.246,0.491,-24.605,51.397,-42.927,
49321900,-1.008,0.279,0.46,-21.21,26.215,-39.165,
49321910,-0.942,0.324,0.467,-15.487,5.53,-32.2,
49321920,-0.841,0.418,0.462,-20.737,-0.507,-30.905,
49321920,-0.842,0.41,0.494,-31.15,4.06,-32.585,
49321940,-0.779,0.417,0.551,-39.095,16.45,-37.922,
49321940,-0.828,0.386,0.552,-45.447,28.665,-42.192,
49321960,-0.875,0.283,0.528,-48.597,36.172,-46.112,
49321960,-0.969,0.222,0.489,-43.4,33.127,-45.885,
49321970,-0.936,0.201,0.436,-35.49,22.96,-41.702,
49321980,-0.881,0.216,0.417,-25.812,15.452,-33.652,
49321990,-0.904,0.217,0.399,-21.49,11.812,-27.107,
49322000,-0.922,0.224,0.397,-22.382,8.347,-26.862,
49322010,-0.876,0.249,0.411,-25.34,6.317,-28.07,
49322020,-0.898,0.264,0.453,-29.242,4.06,-27.142,
49322030,-0.917,0.205,0.469,-35.577,-1.015,-26.827,
49322040,-0.843,0.192,0.506,-34.772,-6.65,-27.755,
49322050,-0.836,0.222,0.55,-31.85,-9.957,-24.867,
49322060,-0.9,0.163,0.547,-31.797,-15.697,-21.892,
49322070,-0.848,0.115,0.508,-27.912,-22.277,-22.732,
49322080,-0.737,0.091,0.411,-18.287,-19.495,-23.45,
49322090,-0.759,0.318,0.468,-0.07,-21.175,-34.702,
49322100,-0.703,0.386,0.505,-25.55,-8.592,-31.325,
49322110,-0.801,0.202,0.404,-56.052,4.287,-30.625,
49322120,-0.764,0.194,0.48,-60.217,10.202,-36.312,
49322130,-0.719,0.235,0.528,-61.565,11.707,-30.957,
49322140,-0.766,0.245,0.519,-70.437,13.527,-20.807,
49322150,-0.783,0.15,0.459,-77.805,15.557,-15.417,
49322160,-0.763,0.106,0.392,-78.785,20.667,-18.515,
49322170,-0.879,0.082,0.367,-77,25.375,-25.305,
49322180,-0.885,0.125,0.36,-70.962,25.392,-32.427,
49322190,-0.908,0.12,0.346,-63.122,24.395,-32.06,
49322200,-1.018,0.05,0.328,-55.02,18.69,-25.147,
49322210,-1.046,-0.01,0.316,-40.81,5.477,-15.96,
49322220,-1.038,0.007,0.34,-22.995,-10.57,-5.127,
49322230,-1.02,0.023,0.386,-8.33,-25.952,3.325,
49322240,-0.917,0.057,0.43,-1.085,-34.632,7.017,
49322250,-0.764,0.144,0.508,-0.437,-29.417,6.65,
49322260,-0.786,0.153,0.539,-12.302,-11.532,3.482,
49322260,-0.832,0.143,0.53,-28.875,5.215,-3.465,
49322280,-0.849,0.09,0.475,-40.197,16.17,-7.49,
49322280,-0.925,0.003,0.402,-43.05,15.732,-3.097,
49322300,-0.947,-0.014,0.355,-32.917,6.667,6.422,
49322300,-0.921,-0.048,0.317,-16.065,-4.83,18.62,
49322320,-0.864,0.017,0.36,-1.89,-11.865,26.88,
49322320,-0.812,0.143,0.436,3.972,-9.59,25.69,
49322330,-0.811,0.178,0.492,-2.345,2.747,19.18,
49322340,-0.873,0.161,0.541,-11.445,16.765,10.955,
49322350,-0.964,0.121,0.572,-16.1,24.15,6.282,
49322360,-0.981,0.081,0.562,-15.312,20.195,5.582,
49322370,-1.012,0.079,0.548,-10.255,7.665,8.242,
49322380,-0.999,0.06,0.476,-4.2,-12.477,8.47,
49322390,-0.849,0.112,0.433,2.852,-31.57,5.092,
49322400,-0.603,0.167,0.413,3.675,-38.22,-0.262,
49322410,-0.503,0.152,0.413,-4.357,-27.982,-8.907,
49322420,-0.478,0.122,0.421,-13.195,-13.23,-20.212,
49322430,-0.514,0.002,0.366,-17.622,0.682,-22.645,
49322440,-0.724,-0.132,0.319,-10.92,6.09,-17.99,
49322450,-0.881,-0.095,0.334,3.552,-1.365,-12.775,
49322460,-0.88,-0.029,0.332,14.472,-10.657,-9.485,
49322470,-0.961,-0.009,0.349,22.05,-14.227,-9.082,
49322480,-1.052,0.029,0.4,29.522,-17.01,-11.112,
49322490,-1.116,0.069,0.467,37.66,-20.23,-14.035,
49322500,-1.194,0.074,0.523,43.732,-25.567,-17.132,
49322510,-1.234,0.037,0.535,51.782,-35.63,-18.497,
49322520,-1.237,0.062,0.552,65.03,-52.5,-16.747,
49322530,-1.183,0.11,0.55,77.315,-73.71,-9.852,
49322540,-1.095,0.098,0.519,86.17,-92.4,-2.782,
49322550,-0.957,0.132,0.491,95.445,-106.837,1.925,
49322560,-0.76,0.249,0.495,100.87,-107.975,7.577,
49322570,-0.703,0.298,0.509,92.802,-93.345,11.865,
49322580,-0.726,0.263,0.489,74.445,-69.65,12.547,
49322590,-0.712,0.228,0.514,56.997,-42.21,8.872,
49322600,-0.74,0.2,0.554,37.415,-14.717,7.875,
49322610,-0.875,0.141,0.589,18.812,6.44,9.52,
49322620,-0.962,0.095,0.631,3.097,17.815,6.93,
49322630,-1.067,0.078,0.667,-12.512,11.812,9.52,
49322640,-1.08,0.087,0.681,-19.057,-6.72,15.015,
49322640,-0.89,0.075,0.737,-19.39,-31.482,23.87,
49322660,-0.451,0.081,0.653,-18.83,-16.38,45.465,
49322660,-0.729,0.265,0.801,-20.177,14.122,49.122,
49322670,-0.991,0.287,0.727,-46.865,21.752,21.525,
49322680,-0.894,-0.013,0.537,-60.497,6.317,3.167,
49322690,-0.673,-0.179,0.458,-41.02,-9.397,11.305,
49322700,-0.632,-0.053,0.543,-13.107,-16.66,34.597,
49322710,-0.701,0.087,0.572,2.467,-18.13,51.94,
49322720,-0.741,0.152,0.601,8.89,-15.82,53.917,
49322730,-0.77,0.1,0.521,12.845,-17.587,55.86,
49322740,-0.58,0.172,0.532,22.102,-12.67,51.31,
49322750,-0.501,0.338,0.581,19.005,3.535,48.072,
49322760,-0.604,0.376,0.551,-0.84,26.075,43.54,
49322770,-0.758,0.254,0.536,-20.492,42.28,33.302,
49322780,-0.808,0.16,0.525,-27.282,51.747,20.965,
49322790,-0.839,0.166,0.546,-19.95,54.162,15.172,
49322800,-0.947,0.208,0.577,-14.105,44.782,17.342,
49322810,-1.001,0.216,0.572,-10.797,28.42,20.825,
49322820,-0.957,0.196,0.556,-6.807,12.232,20.09,
49322830,-0.909,0.194,0.553,-3.937,1.26,16.887,
49322840,-0.895,0.188,0.537,-1.732,-6.002,14.542,
49322850,-0.855,0.183,0.525,2.187,-8.452,12.372,
49322860,-0.819,0.18,0.533,6.405,-6.44,10.92,
49322870,-0.826,0.172,0.527,9.817,-2.87,11.637,
49322880,-0.883,0.153,0.529,13.667,-0.962,14.595,
49322890,-0.948,0.118,0.544,19.407,-4.707,19.127,
49322900,-1.024,0.085,0.569,28.297,-16.485,23.765,
49322910,-1.053,0.089,0.57,40.11,-35.577,26.232,
49322920,-1.032,0.101,0.567,52.115,-61.792,28.927,
49322930,-0.992,0.103,0.527,63.997,-90.86,36.452,
49322940,-0.916,0.085,0.488,78.995,-119.402,51.065,
49322950,-0.801,0.054,0.482,99.557,-138.932,73.097,
49322960,-0.822,0.049,0.538,126,-153.002,100.8,
49322970,-0.925,0.228,0.561,146.107,-162.26,121.397,
49322980,-0.814,0.458,0.623,148.732,-167.65,123.025,
49322990,-0.636,0.549,0.626,132.037,-158.987,113.032,
49323000,-0.718,0.469,0.583,111.177,-144.025,104.597,
49323010,-0.721,0.494,0.595,98.315,-143.395,93.52,
49323010,-0.595,0.559,0.577,93.205,-148.435,87.85,
49323030,-0.395,0.612,0.582,89.635,-146.195,89.565,
49323030,-0.176,0.692,0.633,74.847,-122.517,89.372,
49323050,-0.12,0.708,0.641,47.337,-82.302,81.2,
49323050,-0.209,0.636,0.63,19.775,-38.15,64.802,
49323070,-0.31,0.589,0.626,0.157,-4.41,47.005,
49323070,-0.407,0.584,0.622,-9.415,15.54,35.35,
49323080,-0.484,0.644,0.65,-17.045,22.032,24.99,
49323090,-0.49,0.672,0.641,-34.37,21.087,13.055,
49323100,-0.497,0.635,0.6,-54.46,17.465,4.515,
49323110,-0.507,0.511,0.537,-70.91,12.88,4.532,
49323120,-0.492,0.396,0.504,-76.107,8.102,11.2,
49323130,-0.472,0.383,0.512,-70.682,5.25,21.525,
49323140,-0.447,0.415,0.544,-64.207,8.05,30.24,
49323150,-0.467,0.444,0.575,-63.035,15.977,32.62,
49323160,-0.578,0.465,0.602,-66.552,19.53,32.55,
49323170,-0.72,0.45,0.642,-70.84,8.627,32.13,
49323180,-0.927,0.326,0.644,-70.297,-25.935,32.725,
49323190,-1.017,0.132,0.585,-53.567,-84.14,38.57,
49323200,-0.867,0.035,0.549,-12.827,-151.847,54.477,
49323210,-0.625,0.097,0.58,41.632,-214.462,84.385,
49323220,-0.467,0.318,0.662,88.13,-260.4,120.907,
49323230,-0.441,0.612,0.78,111.107,-288.4,144.55,
49323240,-0.323,0.713,0.797,100.257,-299.617,151.725,
49323250,-0.131,0.611,0.72,82.88,-296.047,151.06,
49323260,-0.101,0.554,0.73,78.54,-285.337,151.707,
49323270,0.021,0.462,0.737,66.902,-276.552,151.252,
49323280,0.216,0.373,0.74,81.795,-260.4,151.497,
49323290,0.267,0.596,0.869,109.007,-239.82,143.832,
49323300,0.284,0.806,0.891,108.71,-220.605,125.877,
49323310,0.437,0.729,0.93,91.822,-196.805,105.525,
49323320,0.537,0.693,0.837,86.38,-159.232,86.782,
49323330,0.37,0.843,0.937,88.48,-122.43,63.56,
49323330,0.143,0.758,0.824,70.385,-98.682,54.95,
49323350,0.14,0.633,0.743,58.852,-89.075,45.587,
49323350,0.27,0.671,0.68,67.235,-78.032,36.522,
49323370,0.185,0.755,0.695,64.61,-59.447,39.987,
49323370,0.191,0.729,0.62,48.177,-38.78,38.325,
49323390,0.219,0.76,0.616,39.357,-15.645,25.9,
49323390,0.304,0.698,0.587,28.21,11.06,12.547,
49323410,0.298,0.749,0.59,21.63,35.612,-3.342,
49323410,0.267,0.73,0.588,10.15,55.282,-19.127,
49323420,0.268,0.648,0.61,1.295,68.512,-34.912,
49323430,0.141,0.644,0.64,1.452,71.645,-42.42,
49323440,0.053,0.703,0.684,3.01,59.5,-40.355,
49323450,0.092,0.715,0.689,2.572,42.717,-33.162,
49323460,0.047,0.693,0.681,2.327,29.785,-21.577,
49323470,0.034,0.707,0.661,1.785,19.39,-13.23,
49323480,0.124,0.711,0.658,1.995,15.96,-9.695,
49323490,0.219,0.741,0.651,1.487,27.387,-11.095,
49323500,0.283,0.765,0.71,-3.867,53.532,-17.692,
49323510,0.175,0.765,0.699,-15.032,88.13,-28.21,
49323520,0.194,0.77,0.715,-23.905,119.77,-44.572,
49323530,0.224,0.764,0.73,-31.027,152.757,-59.202,
49323540,0.08,0.739,0.74,-39.48,180.407,-70.875,
49323550,-0.01,0.688,0.718,-45.307,190.89,-80.027,
49323560,0,0.724,0.753,-44.642,188.86,-80.92,
49323570,-0.113,0.746,0.766,-48.387,180.95,-71.872,
49323580,-0.116,0.805,0.739,-56.717,170.817,-61.845,
49323590,-0.358,0.821,0.763,-74.007,161.402,-47.46,
49323600,-0.458,0.647,0.71,-90.755,136.062,-41.58,
49323610,-0.349,0.62,0.68,-90.037,105.665,-43.295,
49323620,-0.351,0.636,0.706,-90.79,76.877,-44.695,
49323630,-0.273,0.603,0.655,-93.485,52.202,-51.852,
49323640,-0.141,0.532,0.61,-89.53,38.972,-59.272,
49323650,-0.053,0.449,0.577,-79.24,36.015,-60.27,
49323660,-0.041,0.398,0.574,-63.822,39.375,-53.025,
49323670,-0.131,0.443,0.639,-46.97,50.452,-39.567,
49323680,-0.393,0.543,0.668,-35.35,52.745,-26.705,
49323690,-0.458,0.618,0.719,-35.542,40.775,-20.475,
49323700,-0.458,0.562,0.688,-43.207,22.102,-14.682,
49323710,-0.467,0.449,0.679,-41.895,1.26,-9.012,
49323720,-0.463,0.409,0.708,-30.135,-19.547,1.68,
49323730,-0.48,0.423,0.734,-12.88,-42.7,16.502,
49323740,-0.39,0.446,0.774,2.52,-62.947,30.45,
49323750,-0.278,0.511,0.804,13.055,-71.015,38.902,
49323760,-0.283,0.533,0.823,14.315,-73.237,38.85,
49323760,-0.312,0.475,0.818,12.285,-75.442,33.11,
49323780,-0.382,0.406,0.778,19.407,-83.125,28.035,
49323780,-0.49,0.397,0.764,39.427,-106.505,26.81,
49323800,-0.505,0.453,0.755,62.685,-143.115,32.62,
49323800,-0.488,0.511,0.746,81.165,-190.085,49.525,
49323820,-0.407,0.557,0.715,95.375,-237.107,74.357,
49323820,-0.315,0.536,0.661,106.732,-280.455,99.732,
49323830,-0.184,0.398,0.596,121.607,-310.957,120.417,
49323840,0.038,0.539,0.614,136.272,-327.075,133.927,
49323850,0.182,0.662,0.62,134.47,-326.235,142.66,
49323860,0.369,0.749,0.609,131.372,-304.937,129.955,
49323870,0.497,0.817,0.62,123.69,-267.75,108.36,
49323880,0.875,0.952,0.662,106.015,-208.617,75.932,
49323890,0.818,0.967,0.662,76.93,-131.652,47.652,
49323900,0.604,0.868,0.647,46.27,-63.297,24.587,
49323910,0.518,0.855,0.679,25.287,-15.575,-5.092,
49323920,0.659,0.913,0.715,11.742,18.707,-38.535,
49323930,0.665,0.931,0.762,-2.432,60.987,-59.972,
49323940,0.418,0.818,0.745,-21.735,97.877,-62.492,
49323950,0.42,0.862,0.688,-38.377,127.907,-82.985,
49323960,0.139,0.632,0.657,-62.79,148.627,-87.832,
49323970,0.12,0.483,0.57,-62.86,158.375,-86.607,
49323980,0.117,0.676,0.668,-38.745,158.865,-94.5,
49323990,0.127,0.781,0.701,-34.562,159.495,-100.397,
49324000,0.118,0.742,0.671,-49.56,159.775,-97.737,
49324010,0.121,0.69,0.645,-65.012,158.287,-91.717,
49324020,0.142,0.672,0.64,-71.785,163.782,-86.415,
49324030,0.154,0.703,0.691,-77.227,176.855,-90.44,
49324040,0.032,0.689,0.688,-88.095,188.807,-102.042,
49324050,-0.054,0.647,0.717,-93.712,189.665,-115.045,
49324060,-0.282,0.567,0.691,-87.99,183.417,-114.1,
49324070,-0.474,0.483,0.676,-71.767,149.87,-103.74,
49324080,-0.468,0.432,0.64,-48.405,99.347,-85.26,
49324080,-0.338,0.526,0.539,-20.09,51.782,-62.842,
49324100,-0.111,0.729,0.6,-7.437,20.02,-45.692,
49324100,0.235,0.585,0.588,-24.307,38.745,-28.805,
49324120,0.222,0.592,0.526,-40.53,100.117,-15.732,
49324120,0.108,0.732,0.578,-62.545,172.462,-12.652,
49324140,-0.207,0.635,0.535,-99.207,238.857,-16.38,
49324140,-0.547,0.294,0.521,-118.422,270.725,-29.312,
49324160,-0.647,0.136,0.552,-95.077,261.467,-40.127,
49324160,-0.848,0.186,0.661,-52.342,211.977,-24.202,
49324170,-1.044,0.292,0.749,-15.61,135.73,11.165,
49324180,-1.037,0.417,0.803,18.69,50.627,42.192,
49324190,-0.922,0.564,0.85,42.035,-24.587,58.94,
49324200,-0.697,0.713,0.854,41.37,-81.62,57.627,
49324210,-0.48,0.741,0.794,29.435,-107.782,49.665,
49324220,-0.338,0.732,0.752,20.09,-107.817,38.342,
49324230,-0.269,0.692,0.709,7.157,-91.21,26.915,
49324240,-0.241,0.614,0.666,-5.337,-69.842,14.157,
49324250,-0.225,0.534,0.626,-9.712,-50.61,3.43,
49324260,-0.266,0.439,0.615,-3.447,-38.745,5.547,
49324270,-0.393,0.417,0.626,10.815,-38.377,16.31,
49324280,-0.427,0.468,0.665,25.847,-45.395,24.15,
49324290,-0.433,0.482,0.679,40.057,-53.112,32.112,
49324300,-0.457,0.546,0.718,54.495,-61.267,38.675,
49324310,-0.431,0.621,0.73,61.442,-66.062,39.655,
49324320,-0.379,0.618,0.698,59.885,-66.902,31.255,
49324330,-0.305,0.572,0.663,57.207,-62.492,17.36,
49324340,-0.257,0.553,0.607,60.585,-53.655,6.615,
49324350,-0.12,0.665,0.645,67.83,-35.385,1.907,
49324360,-0.448,0.69,0.724,55.58,-28.91,9.537,
49324370,-0.393,0.764,0.709,40.932,-38.22,13.912,
49324380,-0.33,0.848,0.734,34.405,-51.975,14.262,
49324390,-0.272,0.743,0.666,15.522,-63.227,15.33,
49324400,-0.195,0.657,0.608,0.385,-65.432,15.4,
49324410,-0.106,0.639,0.579,0.227,-61.67,14.665,
49324420,0.007,0.647,0.608,2.835,-43.925,14.735,
49324430,-0.001,0.686,0.641,-0.752,-17.132,12.512,
49324440,-0.083,0.749,0.671,-7.332,9.765,5.827,
49324450,-0.196,0.734,0.67,-16.345,25.287,0.21,
49324460,-0.282,0.691,0.645,-22.662,26.915,-2.66,
49324470,-0.347,0.684,0.635,-24.587,14.42,-3.622,
49324480,-0.352,0.703,0.621,-27.667,-6.125,-2.397,
49324490,-0.31,0.685,0.575,-31.622,-29.837,1.242,
49324500,-0.245,0.639,0.543,-31.815,-49.507,4.9,
49324510,-0.15,0.545,0.556,-29.82,-61.827,8.487,
49324510,-0.004,0.332,0.697,-19.582,-53.27,15.137,
49324530,-0.385,0.493,0.805,11.34,-41.44,19.652,
49324530,-0.553,0.688,0.889,27.02,-59.255,16.975,
49324550,-0.444,0.574,0.825,27.317,-92.33,16.135,
49324550,-0.313,0.518,0.772,38.342,-120.137,21.717,
49324570,-0.264,0.569,0.721,55.212,-137.69,29.977,
49324570,-0.131,0.595,0.665,65.852,-143.5,33.705,
49324580,0.059,0.634,0.614,73.815,-137.042,35.542,
49324590,0.14,0.778,0.647,76.055,-120.102,39.812,
49324600,0.117,0.88,0.669,61.04,-99.47,39.55,
49324610,0.239,0.869,0.714,37.817,-69.177,26.722,
49324620,0.116,0.963,0.757,15.785,-37.187,7.035,
49324630,0.007,0.921,0.725,-17.447,-21.752,-7.245,
49324640,0.085,0.71,0.665,-31.132,-13.422,-12.565,
49324650,0.013,0.654,0.699,-17.64,-11.252,-10.692,
49324660,-0.079,0.714,0.761,-5.932,-20.545,-4.217,
49324670,-0.02,0.663,0.742,-1.295,-33.285,3.937,
49324680,0.062,0.645,0.748,7.577,-41.282,13.125,
49324690,0.102,0.711,0.782,14.227,-35.7,18.55,
49324700,0.157,0.758,0.806,12.81,-16.1,14.122,
49324710,0.196,0.725,0.737,7.28,11.725,5.25,
49324720,0.059,0.744,0.805,5.04,33.862,-2.852,
49324730,0.025,0.583,0.732,1.505,41.002,-12.547,
49324740,0.084,0.669,0.74,12.722,40.022,-25.655,
49324750,0.061,0.889,0.786,23.94,38.01,-37.73,
49324760,-0.014,0.908,0.75,10.71,30.502,-50.68,
49324770,0.015,0.776,0.654,-8.977,23.625,-56.367,
49324780,-0.034,0.714,0.571,-17.412,19.6,-50.435,
49324790,-0.108,0.65,0.54,-20.51,22.207,-40.757,
49324800,-0.123,0.645,0.589,-23.415,30.047,-30.45,
49324810,-0.294,0.658,0.647,-27.247,32.567,-24.482,
49324820,-0.319,0.646,0.645,-31.675,21.28,-17.937,
49324830,-0.296,0.625,0.666,-30.275,0.717,-3.01,
49324830,-0.256,0.616,0.667,-24.43,-20.912,10.255,
49324850,-0.204,0.672,0.653,-17.99,-38.955,16.222,
49324850,-0.188,0.626,0.626,-22.417,-53.672,17.605,
49324870,-0.062,0.569,0.576,-28.84,-58.852,15.82,
49324870,-0.169,0.67,0.604,-29.575,-56.157,13.947,
49324890,-0.019,0.6,0.814,-43.855,-53.83,8.907,
49324890,0.315,0.664,0.92,-33.407,-15.4,-2.572,
49324910,-0.123,1.086,1.068,-19.862,5.267,-24.465,
49324910,0.051,0.759,0.887,-55.492,18.62,-34.23,
49324920,0.014,0.508,0.77,-66.15,22.907,-30.03,
49324930,-0.162,0.527,0.773,-51.992,14.647,-22.61,
49324940,-0.176,0.524,0.707,-40.792,-1.68,-15.575,
49324950,-0.142,0.5,0.679,-29.05,-16.117,-8.907,
49324960,-0.154,0.545,0.701,-15.067,-30.012,-1.995,
49324970,-0.078,0.588,0.687,-8.172,-35.577,3.115,
49324980,-0.038,0.59,0.675,-2.835,-30.38,5.057,
49324990,-0.06,0.604,0.689,0.21,-21.052,5.11,
49325000,-0.062,0.584,0.677,-0.07,-13.475,7.105,
49325010,-0.089,0.597,0.687,3.71,-10.5,11.445,
49325020,-0.051,0.72,0.729,7.787,-12.46,12.32,
49325030,0.044,0.868,0.717,2.572,-12.425,7.98,
49325040,0.252,0.79,0.754,-10.797,0.525,-0.892,
49325050,0.066,0.671,0.724,-21.822,17.587,-11.252,
49325060,-0.032,0.621,0.726,-26.845,22.942,-16.8,
49325070,-0.066,0.548,0.714,-23.275,20.65,-9.852,
49325080,-0.149,0.485,0.709,-16.362,16.205,-0.087,
49325090,-0.222,0.5,0.722,-11.9,10.552,5.512,
49325100,-0.213,0.522,0.717,-8.995,6.405,9.24,
49325110,-0.153,0.503,0.684,-2.397,8.837,12.32,
49325120,-0.167,0.478,0.675,4.987,14.595,13.562,
49325130,-0.176,0.463,0.711,10.36,17.605,14.752,
49325140,-0.252,0.445,0.782,16.782,14.63,17.115,
49325150,-0.308,0.426,0.875,25.427,5.477,18.112,
49325160,-0.462,0.328,0.817,50.067,-11.13,10.937,
49325170,-0.559,0.388,0.856,84,-45.622,4.182,
49325180,-0.415,0.497,0.841,102.935,-85.837,22.557,
49325190,-0.222,0.693,0.83,118.055,-117.915,48.335,
49325200,0.008,0.818,0.813,123.375,-136.692,62.807,
49325210,0.162,0.873,0.814,128.152,-143.377,68.512,
49325220,0.354,1.121,0.844,131.372,-135.397,64.907,
49325230,0.44,1.161,0.774,110.285,-116.025,53.672,
49325240,0.332,0.984,0.611,78.225,-89.302,36.977,
49325250,0.201,0.792,0.488,55.23,-70.927,19.862,
49325260,0.133,0.663,0.427,43.4,-60.585,14.385,
49325260,0.07,0.617,0.425,41.16,-55.247,17.412,
49325280,0.105,0.661,0.452,40.897,-51.695,20.335,
49325280,0.205,0.698,0.493,35.367,-47.215,22.05,
49325300,0.268,0.788,0.555,23.222,-37.327,20.072,
49325300,0.234,0.839,0.623,7.157,-30.152,10.745,
49325320,0.411,0.892,0.69,-10.517,-15.802,-1.365,
49325320,0.352,0.892,0.664,-26.88,7.192,-10.78,
49325330,0.239,0.893,0.668,-39.165,31.675,-16.275,
49325340,0.073,0.779,0.645,-53.462,43.925,-17.605,
49325350,-0.103,0.659,0.62,-52.85,40.792,-19.915,
49325360,-0.218,0.758,0.749,-40.215,19.005,-18.917,
49325370,-0.191,0.787,0.804,-40.022,-8.435,-4.2,
49325380,-0.125,0.684,0.764,-38.587,-28.122,10.657,
49325390,-0.057,0.684,0.719,-28.385,-38.955,16.782,
49325400,0.097,0.757,0.66,-21.77,-40.46,18.987,
49325410,0.209,0.744,0.579,-24.465,-30.747,21.507,
49325420,0.25,0.753,0.518,-28.857,-17.71,20.02,
49325430,0.312,0.73,0.503,-28.402,-8.575,14.752,
49325440,0.287,0.769,0.541,-23.432,-3.062,13.58,
49325450,0.246,0.825,0.598,-24.185,-2.45,9.485,
49325460,0.242,0.822,0.65,-27.125,0.367,4.182,
49325470,0.157,0.744,0.672,-31.552,4.077,-0.7,
49325480,0.085,0.684,0.67,-32.655,2.415,-5.005,
49325490,0.024,0.704,0.662,-29.802,-5.705,-4.252,
49325500,0.029,0.699,0.661,-25.147,-17.15,-1.085,
49325510,0.132,0.764,0.659,-19.022,-31.71,-3.045,
49325520,0.222,0.804,0.653,-21.42,-41.72,-3.517,
49325530,0.295,0.806,0.628,-28.665,-43.312,-6.527,
49325540,0.411,0.85,0.612,-38.36,-37.467,-14.175,
49325550,0.438,0.855,0.593,-49.752,-25.287,-21.98,
49325560,0.429,0.833,0.594,-61.355,-12.67,-29.452,
49325570,0.438,0.792,0.615,-71.627,-4.287,-34.947,
49325580,0.398,0.721,0.632,-76.58,-1.207,-37.502,
49325580,0.382,0.665,0.59,-74.462,-5.25,-37.642,
49325600,0.505,0.56,0.509,-69.335,3.307,-35.945,
49325600,0.53,0.487,0.518,-61.092,31.43,-36.172,
49325620,0.447,0.473,0.528,-51.432,70.07,-34.422,
49325620,0.292,0.501,0.649,-45.972,117.88,-26.705,
49325640,-0.026,0.552,0.795,-52.202,155.715,-16.117,
49325640,-0.376,0.504,0.911,-60.795,169.802,-8.61,
49325660,-0.448,0.589,1.038,-75.337,161.052,-7.14,
49325660,-0.353,0.513,0.999,-96.32,145.6,-3.237,
49325670,-0.244,0.389,0.948,-101.027,131.477,-3.605,
49325680,-0.212,0.277,0.852,-89.845,117.495,-8.872,
49325690,-0.102,0.291,0.83,-49.7,101.482,-30.59,
49325700,0.04,0.552,0.961,-23.397,97.125,-51.712,
49325710,0.033,0.752,0.926,-38.5,97.195,-51.607,
49325720,-0.402,0.728,0.866,-74.672,83.072,-46.742,
49325730,-0.536,0.477,0.785,-115.85,63.07,-50.382,
49325740,-0.236,0.281,0.678,-118.055,44.03,-52.972,
49325750,0.024,0.187,0.69,-90.877,37.257,-27.807,
49325760,-0.014,0.262,0.767,-62.58,47.267,16.415,
49325770,-0.177,0.407,0.771,-51.187,60.97,51.485,
49325780,-0.233,0.582,0.809,-48.352,69.055,63.07,
49325790,-0.19,0.581,0.854,-59.255,76.16,55.177,
49325800,-0.157,0.592,0.86,-75.11,81.917,49.91,
49325810,-0.074,0.662,0.83,-93.205,97.685,50.365,
49325820,-0.005,0.549,0.821,-113.382,118.982,61.442,
49325830,-0.159,0.436,0.797,-124.04,142.1,73.062,
49325840,-0.448,0.271,0.733,-120.435,149.94,80.272,
49325850,-0.72,0.089,0.755,-91.052,140.14,78.68,
49325860,-0.98,0.147,0.815,-49.752,99.312,68.722,
49325870,-0.887,0.303,0.851,-10.272,33.127,46.392,
49325880,-0.616,0.394,0.902,20.177,-25.847,31.815,
49325890,-0.49,0.395,0.877,29.837,-78.12,38.377,
49325900,-0.376,0.369,0.816,32.777,-115.08,47.932,
49325910,-0.216,0.399,0.807,34.562,-128.275,44.38,
49325920,-0.024,0.506,0.813,31.465,-119.35,31.482,
49325930,0.139,0.487,0.748,25.41,-97.16,26.547,
49325940,0.175,0.428,0.725,29.855,-60.515,30.467,
49325950,0.007,0.367,0.725,39.27,-28.997,37.52,
49325960,-0.096,0.314,0.755,47.915,-9.73,38.622,
49325970,-0.132,0.309,0.808,63.892,2.695,28.49,
49325980,-0.142,0.424,0.866,83.072,10.622,11.427,
49325990,-0.125,0.493,0.933,86.887,13.79,1.26,
49326000,-0.151,0.486,0.909,78.785,15.925,-1.96,
49326000,-0.213,0.459,0.863,73.535,12.512,-5.285,
49326010,-0.257,0.471,0.844,73.517,7.122,-9.66,
49326020,-0.258,0.527,0.843,73.062,-0.735,-12.565,
49326030,-0.239,0.55,0.837,71.295,-7.367,-16.607,
49326040,-0.235,0.525,0.783,67.41,-14.122,-23.17,
49326050,-0.157,0.57,0.768,66.325,-15.907,-32.532,
49326060,-0.011,0.664,0.781,63.315,-9.73,-40.6,
49326070,0.074,0.692,0.793,51.887,7.805,-45.955,
49326080,0.007,0.643,0.794,36.242,27.807,-48.457,
49326090,-0.173,0.592,0.803,26.267,40.582,-50.697,
49326100,-0.226,0.578,0.799,24.937,39.532,-55.737,
49326110,-0.215,0.601,0.793,24.36,30.485,-58.922,
49326120,-0.353,0.525,0.789,17.99,14.035,-63.437,
49326130,-0.223,0.565,0.757,17.657,-2.73,-69.475,
49326140,-0.157,0.644,0.76,21.175,-15.522,-60.357,
49326150,-0.221,0.581,0.726,17.64,-27.405,-39.025,
49326160,-0.133,0.494,0.67,19.092,-30.415,-21.35,
49326170,-0.079,0.474,0.678,28.805,-22.627,-6.527,
49326180,-0.211,0.549,0.752,33.46,-10.675,3.395,
49326190,-0.225,0.657,0.818,22.68,-1.68,3.867,
49326200,-0.224,0.715,0.862,10.43,12.005,-5.04,
49326210,-0.288,0.715,0.831,-6.405,19.39,-11.742,
49326220,-0.134,0.698,0.81,-25.445,32.97,-12.845,
49326230,-0.129,0.682,0.791,-41.562,54.932,-10.027,
49326240,-0.136,0.609,0.73,-58.222,80.692,-9.17,
49326250,-0.076,0.483,0.663,-68.355,112.717,-12.022,
49326260,-0.166,0.413,0.661,-66.412,142.94,-8.417,
49326270,-0.393,0.443,0.687,-58.065,157.027,2.047,
49326280,-0.522,0.485,0.74,-51.1,149.94,10.395,
49326290,-0.551,0.459,0.738,-44.345,131.022,14.227,
49326300,-0.558,0.439,0.729,-34.107,105.105,16.537,
49326310,-0.475,0.489,0.728,-23.275,80.185,16.712,
49326320,-0.394,0.482,0.698,-16.485,63.49,16.187,
49326330,-0.365,0.365,0.647,-9.572,54.617,15.172,
49326330,-0.355,0.341,0.673,8.627,50.382,18.287,
49326350,-0.45,0.478,0.811,27.055,40.425,30.835,
49326350,-0.515,0.645,0.908,29.242,23.222,42.035,
49326370,-0.587,0.764,0.923,16.45,0.35,47.687,
49326370,-0.737,0.641,1.018,2.135,-34.912,39.13,
49326390,-0.428,0.543,0.859,-9.59,-73.22,36.785,
49326390,-0.252,0.619,0.842,-9.38,-84.63,44.695,
49326410,-0.275,0.641,0.805,-21.997,-76.37,42.892,
49326410,-0.157,0.556,0.701,-38.85,-49.98,32.06,
49326420,-0.224,0.361,0.666,-38.692,-18.987,26.477,
49326430,-0.343,0.347,0.727,-23.992,2.275,24.867,
49326440,-0.394,0.477,0.791,-8.977,6.877,18.13,
49326450,-0.359,0.548,0.798,-3.727,6.02,9.59,
49326460,-0.426,0.522,0.783,-4.077,0.945,4.62,
49326470,-0.485,0.472,0.754,-3.85,-13.247,2.59,
49326480,-0.47,0.5,0.739,2.52,-34.282,4.777,
49326490,-0.562,0.508,0.76,8.837,-62.877,10.71,
49326500,-0.576,0.456,0.73,17.552,-99.33,11.462,
49326510,-0.412,0.475,0.702,36.172,-131.967,10.167,
49326520,-0.388,0.449,0.7,52.36,-156.8,11.935,
49326530,-0.357,0.392,0.647,68.04,-175.42,5.25,
49326540,-0.147,0.517,0.669,92.382,-183.557,-5.425,
49326550,0.039,0.687,0.72,106.277,-176.697,-8.277,
49326560,0.228,0.772,0.742,101.972,-149.275,-7.962,
49326570,0.261,0.798,0.765,86.327,-103.635,-6.685,
49326580,0.119,0.769,0.755,67.287,-56.105,-5.985,
49326590,-0.107,0.735,0.774,51.38,-20.37,-11.62,
49326600,-0.182,0.669,0.725,37.082,-2.59,-24.937,
49326610,-0.011,0.61,0.696,32.287,12.932,-38.762,
49326620,-0.066,0.593,0.689,34.737,32.602,-39.532,
49326630,-0.287,0.656,0.734,33.915,45.885,-37.87,
49326640,-0.423,0.664,0.725,28.332,39.077,-37.292,
49326650,-0.392,0.635,0.716,26.6,20.65,-36.102,
49326660,-0.309,0.65,0.68,26.897,1.995,-31.762,
49326670,-0.21,0.741,0.668,21.56,-4.427,-28.507,
49326670,-0.159,0.741,0.65,3.675,-1.207,-26.6,
49326690,-0.078,0.634,0.574,-16.765,11.427,-27.912,
49326690,-0.143,0.537,0.574,-26.162,30.94,-31.535,
49326710,-0.273,0.486,0.617,-29.067,38.85,-37.432,
49326710,-0.349,0.501,0.653,-24.902,31.762,-42.49,
49326730,-0.219,0.539,0.708,-17.745,14.892,-39.025,
49326730,-0.217,0.621,0.842,-7.665,11.375,-32.952,
49326750,-0.326,0.686,0.882,-3.482,3.797,-28.682,
49326750,-0.287,0.62,0.859,2.205,-6.475,-24.797,
49326760,-0.202,0.621,0.853,15.977,-11.76,-22.592,
49326770,-0.11,0.791,0.888,24.955,-1.137,-25.515,
49326780,-0.105,0.834,0.861,16.432,20.807,-32.357,
49326790,-0.162,0.772,0.792,1.872,44.957,-39.847,
49326800,-0.242,0.711,0.74,-7.542,60.532,-45.062,
49326810,-0.223,0.714,0.699,-12.6,71.225,-48.93,
49326820,-0.22,0.715,0.671,-19.845,82.722,-50.417,
49326830,-0.267,0.656,0.62,-30.957,95.637,-51.677,
49326840,-0.245,0.636,0.593,-39.357,109.865,-56.122,
49326850,-0.262,0.644,0.565,-48.352,128.135,-63.805,
49326860,-0.274,0.641,0.57,-60.882,148.452,-73.92,
49326870,-0.428,0.612,0.607,-75.075,165.2,-88.287,
49326880,-0.597,0.489,0.613,-87.657,163.24,-104.72,
49326890,-0.563,0.384,0.586,-85.365,143.22,-112.315,
49326900,-0.603,0.382,0.627,-72.73,115.01,-100.905,
49326910,-0.676,0.349,0.639,-61.792,82.775,-79.537,
49326920,-0.552,0.391,0.651,-45.867,55.23,-61.722,
49326930,-0.468,0.495,0.7,-38.237,45.587,-52.132,
49326940,-0.454,0.564,0.728,-44.432,53.042,-55.23,
49326950,-0.472,0.639,0.775,-57.767,69.492,-67.655,
49326960,-0.526,0.61,0.778,-75.547,85.82,-83.387,
49326970,-0.475,0.474,0.689,-85.295,99.47,-95.83,
49326980,-0.65,0.359,0.648,-84.752,107.747,-92.05,
49326990,-0.712,0.256,0.564,-78.75,101.64,-79.625,
49327000,-0.815,0.213,0.553,-62.44,85.225,-63.245,
49327010,-0.849,0.287,0.566,-47.757,58.975,-48.65,
49327020,-0.624,0.332,0.549,-39.497,40.337,-40.652,
49327030,-0.663,0.267,0.54,-38.272,37.887,-33.512,
49327040,-0.611,0.221,0.559,-33.687,46.55,-31.955,
49327050,-0.794,0.311,0.654,-25.357,60.2,-31.815,
49327060,-0.915,0.217,0.668,-27.842,65.992,-35.262,
49327070,-0.947,0.139,0.629,-22.4,56.157,-37.747,
49327080,-0.929,0.251,0.659,-5.145,40.39,-27.842,
49327080,-0.997,0.254,0.667,3.78,21.332,-9.782,
49327100,-0.888,0.217,0.59,10.22,-0.087,2.222,
49327100,-0.782,0.306,0.569,20.58,-15.575,15.242,
49327120,-0.749,0.34,0.584,21.14,-18.147,26.565,
49327120,-0.609,0.402,0.591,15.207,-10.062,23.205,
49327140,-0.614,0.468,0.533,-2.327,14.472,18.235,
49327140,-0.847,0.335,0.612,-28.367,40.477,12.39,
49327160,-0.65,0.124,0.448,-36.12,37.502,6.09,
49327160,-0.57,0.559,0.706,-17.605,40.722,3.727,
49327170,-0.825,0.309,0.586,-39.69,34.3,19.757,
49327180,-0.605,0.292,0.683,-27.842,25.427,14.35,
49327190,-0.622,0.379,0.695,-21.63,20.685,12.232,
49327200,-0.574,0.405,0.635,-27.037,27.002,0.682,
49327210,-0.625,0.426,0.657,-34.597,45.08,-5.775,
49327220,-1.002,0.362,0.72,-50.89,56.542,-5.705,
49327230,-0.79,0.318,0.516,-57.172,43.452,-13.247,
49327240,-0.692,0.366,0.543,-57.435,42.385,-18.025,
49327250,-0.764,0.208,0.419,-69.177,44.87,-12.215,
49327260,-0.793,0.169,0.413,-54.355,38.972,-3.167,
49327270,-0.864,0.279,0.488,-34.44,25.812,11.322,
49327280,-0.866,0.313,0.493,-28.612,11.375,17.78,
49327290,-0.846,0.268,0.517,-25.13,1.89,13.212,
49327300,-0.86,0.235,0.541,-17.587,-7.647,8.155,
49327310,-0.875,0.209,0.549,-4.742,-18.497,7.105,
49327320,-0.873,0.236,0.579,9.467,-31.412,7.682,
49327330,-0.626,0.44,0.407,17.43,-38.552,7.857,
49327340,-0.578,0.516,0.698,5.582,-9.572,11.34,
49327350,-1.009,-0.035,0.482,-26.11,-2.362,16.257,
49327360,-0.563,0.313,0.626,2.345,-0.77,-5.74,
49327370,-0.63,0.462,0.684,8.452,7.805,-9.222,
49327380,-0.675,0.297,0.56,-14.14,19.425,-11.27,
49327390,-0.648,0.26,0.572,-10.99,32.165,-10.745,
49327400,-1.005,0.242,0.603,-13.615,36.137,3.447,
49327410,-0.892,0.149,0.551,-12.477,22.155,1.785,
49327420,-0.636,0.23,0.582,2.222,16.677,-4.515,
49327420,-0.882,0.27,0.613,-6.737,16.152,7.77,
49327440,-1.072,0.19,0.572,-14.997,3.745,6.72,
49327440,-0.784,0.218,0.583,7.385,-12.022,1.382,
49327460,-0.803,0.294,0.586,15.82,-18.672,13.195,
49327460,-0.828,0.368,0.552,7.98,-23.747,14.98,
49327480,-0.843,0.296,0.529,9.677,-26.18,16.975,
49327480,-0.907,0.164,0.519,13.737,-35.577,28.7,
49327500,-0.966,0.179,0.525,20.51,-51.082,38.692,
49327500,-1.062,0.206,0.56,30.432,-76.65,48.16,
49327510,-1.115,0.187,0.616,38.237,-112.192,59.395,
49327520,-1.097,0.181,0.637,50.172,-157.5,73.01,
49327530,-1.002,0.195,0.628,67.672,-204.715,91.822,
49327540,-0.865,0.274,0.634,86.327,-244.02,109.567,
49327550,-0.8,0.325,0.646,101.15,-275.695,125.72,
49327560,-0.818,0.315,0.673,117.81,-308.822,135.17,
49327570,-0.713,0.334,0.627,131.635,-345.975,139.265,
49327580,-0.558,0.436,0.588,137.27,-379.032,140.262,
49327590,-0.25,0.561,0.597,136.377,-392.84,137.305,
49327600,-0.052,0.61,0.611,122.15,-378.035,131.88,
49327610,0.066,0.697,0.645,99.085,-338.012,110.862,
49327620,0.314,0.735,0.609,71.662,-271.862,85.312,
49327630,0.444,0.742,0.667,45.5,-178.342,60.76,
49327640,0.292,0.765,0.739,14.472,-84.332,31.99,
49327650,0.157,0.853,0.72,-21.07,-5.092,2.485,
49327660,0.007,0.883,0.702,-63.14,51.362,-17.885,
49327670,-0.177,0.683,0.605,-106.05,78.225,-28.612,
49327680,-0.161,0.43,0.478,-120.522,87.552,-28.035,
49327690,-0.302,0.325,0.573,-105.962,82.127,-15.417,
49327700,-0.473,0.296,0.637,-84.385,53.287,2.31,
49327710,-0.314,0.248,0.615,-54.845,26.74,21.56,
49327720,-0.231,0.165,0.787,-22.277,13.177,32.252,
49327730,-0.369,0.342,0.883,13.002,6.702,34.072,
49327740,-0.511,0.59,1.004,31.64,-2.345,29.837,
49327750,-0.32,0.592,0.957,24.57,-9.31,18.672,
49327760,-0.162,0.527,0.877,16.765,-4.567,9.975,
49327770,-0.125,0.511,0.846,14.525,12.95,5.862,
49327780,-0.177,0.531,0.833,14.192,30.502,4.497,
49327790,-0.151,0.545,0.805,14.175,42.875,3.412,
49327800,-0.191,0.54,0.779,12.687,51.852,5.635,
49327810,-0.264,0.522,0.767,9.117,53.217,9.432,
49327820,-0.308,0.503,0.756,9.047,49.192,12.845,
49327830,-0.313,0.549,0.778,11.165,42.385,13.37,
49327830,-0.304,0.569,0.786,6.247,36.942,12.075,
49327850,-0.252,0.538,0.776,0.262,35.945,8.26,
49327850,-0.241,0.524,0.766,-1.365,40.547,5.092,
49327870,-0.243,0.534,0.776,-1.54,47.057,3.482,
49327870,-0.306,0.547,0.788,-3.167,52.272,0.542,
49327890,-0.332,0.527,0.775,-5.407,53.602,-6.58,
49327890,-0.345,0.507,0.75,-5.092,52.675,-13.02,
49327910,-0.329,0.52,0.749,-2.502,49.822,-15.61,
49327910,-0.343,0.489,0.755,-1.05,52.045,-19.6,
49327920,-0.473,0.438,0.732,-2.187,48.86,-21.822,
49327930,-0.488,0.44,0.745,4.812,39.095,-17.955,
49327940,-0.483,0.498,0.784,13.86,26.845,-8.312,
49327950,-0.471,0.565,0.809,12.005,17.43,-3.36,
49327960,-0.467,0.53,0.829,4.725,12.88,-5.705,
49327970,-0.503,0.47,0.81,3.692,7.787,-8.085,
49327980,-0.392,0.598,0.841,11.847,5.477,-13.422,
49327990,-0.309,0.705,0.886,7.105,11.987,-20.265,
49328000,-0.292,0.649,0.877,-11.34,27.912,-28.892,
49328010,-0.371,0.55,0.868,-20.44,43.627,-35.42,
49328020,-0.469,0.506,0.845,-19.39,42.98,-32.147,
49328030,-0.45,0.53,0.791,-15.96,31.71,-24.797,
49328040,-0.454,0.463,0.716,-15.487,18.497,-16.467,
49328050,-0.418,0.503,0.688,-13.212,7.28,-8.487,
49328060,-0.388,0.548,0.67,-15.592,4.007,0.315,
49328070,-0.452,0.32,0.568,-23.677,3.517,6.807,
49328080,-0.374,0.317,0.572,-11.637,1.96,6.247,
49328090,-0.4,0.424,0.603,5.967,2.24,7.945,
49328100,-0.448,0.425,0.579,10.972,3.78,11.042,
49328110,-0.495,0.354,0.535,14.595,4.48,14,
49328120,-0.6,0.393,0.581,23.345,-2.117,21.07,
49328130,-0.633,0.491,0.656,28.332,-19.04,28.857,
49328140,-0.549,0.523,0.728,28.227,-35.437,32.077,
49328150,-0.482,0.502,0.755,26.705,-44.94,33.355,
49328160,-0.424,0.499,0.742,27.177,-50.015,34.79,
49328170,-0.391,0.48,0.752,31.605,-50.785,37.922,
49328170,-0.409,0.455,0.689,37.905,-54.232,44.187,
49328190,-0.357,0.473,0.644,45.955,-59.885,51.572,
49328190,-0.368,0.49,0.626,54.985,-64.627,60.917,
49328210,-0.411,0.571,0.657,61.932,-71.295,73.535,
49328210,-0.514,0.644,0.749,62.23,-81.567,89.302,
49328230,-0.473,0.688,0.772,58.222,-100.065,99.82,
49328230,-0.458,0.65,0.872,52.587,-117.092,105.105,
49328250,-0.036,0.506,0.712,54.267,-141.995,89.862,
49328250,0.647,0.845,0.781,72.292,-117.722,59.272,
49328260,0.309,0.832,0.824,41.86,-65.117,50.68,
49328270,0.269,0.764,0.784,14.735,-22.435,32.83,
49328280,0.182,0.814,0.871,13.247,9.205,19.95,
49328290,-0.04,0.841,0.894,-1.487,34.597,11.41,
49328300,-0.168,0.771,0.803,-20.212,51.642,-3.902,
49328310,-0.314,0.682,0.731,-27.65,59.797,-13.842,
49328320,-0.429,0.584,0.672,-30.905,55.545,-15.662,
49328330,-0.479,0.52,0.612,-27.44,41.597,-14.77,
49328340,-0.448,0.463,0.564,-15.645,22.26,-9.24,
49328350,-0.38,0.467,0.566,-1.89,2.642,1.942,
49328360,-0.325,0.513,0.599,10.15,-13.93,12.39,
49328370,-0.256,0.518,0.639,17.57,-25.13,18.2,
49328380,-0.232,0.541,0.673,25.025,-30.852,19.967,
49328390,-0.239,0.579,0.72,29.837,-32.76,17.657,
49328400,-0.215,0.62,0.727,32.305,-32.095,13.475,
49328410,-0.207,0.645,0.732,33.81,-31.185,12.39,
49328420,-0.226,0.616,0.683,34.475,-30.38,16.432,
49328430,-0.242,0.569,0.636,35.665,-31.622,25.602,
49328440,-0.26,0.591,0.633,38.622,-35.297,38.447,
49328450,-0.308,0.764,0.658,37.625,-41.247,55.912,
49328460,-0.505,0.588,0.664,17.622,-46.637,71.26,
49328470,-0.137,0.353,0.624,36.05,-59.115,53.882,
49328480,0.082,0.949,0.827,77.175,-64.365,44.012,
49328490,-0.12,0.916,0.812,63.14,-61.442,50.907,
49328500,-0.029,0.724,0.7,50.715,-59.517,37.152,
49328510,0.006,0.844,0.743,59.307,-60.847,26.88,
49328520,-0.036,0.822,0.749,50.627,-57.242,22.295,
49328530,-0.108,0.72,0.684,44.362,-56.017,12.022,
49328540,-0.002,0.805,0.672,52.22,-59.745,4.287,
49328550,0.059,0.896,0.694,54.092,-58.502,1.942,
49328560,0.278,0.919,0.658,39.252,-46.182,0.647,
49328570,-0.038,0.842,0.644,16.082,-18.567,2.817,
49328580,-0.076,0.709,0.58,2.012,-3.202,-2.135,
49328580,0.023,0.764,0.591,5.985,7.367,-12.04,
49328600,0.102,0.778,0.586,-3.01,26.39,-18.077,
49328600,0.077,0.733,0.581,-14.962,51.415,-32.952,
49328620,0.048,0.704,0.593,-21.787,76.457,-46.025,
49328620,-0.146,0.761,0.642,-27.317,89.652,-52.727,
49328640,-0.142,0.75,0.656,-31.587,92.26,-62.02,
49328640,-0.166,0.784,0.681,-32.655,90.702,-66.08,
49328660,-0.224,0.808,0.699,-37.222,88.742,-66.237,
49328660,-0.268,0.746,0.679,-42.35,85.12,-65.222,
49328670,-0.228,0.704,0.667,-44.327,76.475,-61.25,
49328680,-0.155,0.655,0.619,-41.125,69.107,-51.572,
49328690,-0.261,0.619,0.611,-34.825,65.03,-41.247,
49328700,-0.259,0.601,0.566,-30.1,54.32,-32.077,
49328710,-0.286,0.624,0.634,-21.77,46.287,-20.755,
49328720,-0.422,0.592,0.612,-13.702,30.397,-10.36,
49328730,-0.313,0.666,0.641,-2.835,12.337,-4.042,
49328740,-0.304,0.67,0.654,0.157,-0.315,4.147,
49328750,-0.299,0.65,0.614,2.992,-6.667,8.085,
49328760,-0.254,0.666,0.689,11.515,-13.965,6.3,
49328770,-0.302,0.659,0.665,10.832,-13.877,12.705,
49328780,-0.366,0.647,0.642,14.927,-22.225,13.212,
49328790,-0.305,0.619,0.676,21.997,-32.252,14.332,
49328800,-0.132,0.735,0.674,32.462,-39.34,13.93,
49328810,-0.194,0.828,0.72,30.765,-37.59,12.32,
49328820,-0.146,0.705,0.621,16.362,-35.665,13.825,
49328830,-0.103,0.744,0.598,17.01,-31.71,14.14,
49328840,-0.062,0.81,0.596,13.527,-23.03,14.612,
49328850,-0.06,0.77,0.566,-2.975,-8.802,11.987,
49328860,-0.12,0.736,0.6,-16.292,6.492,6.072,
49328870,-0.193,0.7,0.64,-23.065,17.885,-1.172,
49328880,-0.205,0.693,0.663,-23.065,30.222,-7.192,
49328890,-0.292,0.699,0.706,-18.445,42.542,-11.287,
49328900,-0.432,0.691,0.74,-14.787,47.862,-13.475,
49328910,-0.468,0.701,0.742,-10.29,39.812,-12.547,
49328920,-0.409,0.737,0.734,-4.182,27.125,-7.91,
49328920,-0.316,0.704,0.691,-3.01,18.357,-4.392,
49328940,-0.248,0.675,0.629,-2.712,14.42,-2.782,
49328940,-0.161,0.673,0.586,0.07,13.335,0.35,
49328960,-0.148,0.68,0.564,0.49,18.83,4.077,
49328960,-0.198,0.621,0.539,-6.335,22.75,7.507,
49328980,-0.194,0.589,0.529,-9.432,23.712,12.127,
49328980,-0.226,0.622,0.599,-5.635,21.577,18.305,
49329000,-0.261,0.668,0.66,-3.745,18.497,19.687,
49329000,-0.385,0.723,0.751,-4.462,8.33,20.877,
49329010,-0.203,0.771,0.807,-10.377,-10.552,26.6,
49329020,-0.152,0.8,0.828,-8.505,-19.915,29.82,
49329030,-0.194,0.891,0.746,1.855,-22.89,19.967,
49329040,-0.034,0.776,0.665,-11.322,-16.817,22.75,
49329050,-0.115,0.696,0.595,-17.412,-1.067,22.802,
49329060,-0.142,0.796,0.632,-9.345,13.125,20.965,
49329070,-0.096,0.746,0.616,-9.467,33.302,22.54,
49329080,-0.249,0.675,0.596,-14.157,51.695,17.832,
49329090,-0.365,0.612,0.553,-17.727,59.045,14.542,
49329100,-0.357,0.516,0.564,-9.555,52.972,16.782,
49329110,-0.461,0.533,0.611,3.43,46.707,24.255,
49329120,-0.778,0.599,0.659,6.247,24.237,32.375,
49329130,-0.608,0.645,0.637,16.415,-5.127,39.672,
49329140,-0.45,0.669,0.638,31.237,-25.795,50.662,
49329150,-0.294,0.721,0.635,36.207,-33.845,51.642,
49329160,-0.174,0.761,0.621,31.552,-31.815,49.997,
49329170,-0.066,0.792,0.629,26.46,-21.525,44.17,
49329180,-0.027,0.772,0.615,19.46,-10.657,35.595,
49329190,0,0.733,0.62,11.217,-3.64,27.702,
49329200,-0.065,0.701,0.663,10.255,-1.137,19.687,
49329210,-0.083,0.755,0.677,15.54,-5.057,9.397,
49329220,-0.056,0.783,0.702,15.767,-11.795,5.022,
49329230,-0.157,0.732,0.71,14.07,-19.442,6.002,
49329240,-0.221,0.7,0.745,23.345,-31.15,5.285,
49329250,-0.23,0.89,0.773,33.967,-42.63,6.58,
49329260,-0.271,0.754,0.693,25.34,-55.632,11.655,
49329270,-0.321,0.634,0.592,21.752,-71.102,14.665,
49329280,-0.268,0.676,0.514,28.525,-84.84,20.02,
49329290,-0.213,0.705,0.472,32.305,-88.637,23.817,
49329300,-0.217,0.689,0.441,27.65,-84.752,19.39,
49329310,-0.172,0.717,0.456,22.417,-78.295,9.572,
49329320,-0.118,0.779,0.482,20.545,-68.04,0.892,
49329330,-0.154,0.787,0.548,13.667,-57.085,-5.057,
49329330,-0.15,0.826,0.626,4.235,-52.85,-9.887,
49329350,-0.088,0.885,0.666,-1.4,-52.36,-12.46,
49329350,-0.054,0.909,0.695,-12.232,-52.745,-12.6,
49329370,-0.017,0.879,0.688,-26.67,-51.922,-12.32,
49329370,-0.13,0.812,0.586,-34.44,-49.472,-13.44,
49329380,0.008,0.738,0.622,-34.475,-57.102,-14.752,
49329390,-0.065,0.728,0.617,-43.172,-49.262,1.487,
49329400,-0.173,0.855,0.649,-46.987,-44.485,-0.105,
49329410,-0.041,0.859,0.638,-52.062,-38.342,-5.547,
49329420,-0.039,0.768,0.649,-63.63,-30.1,-1.837,
49329430,-0.009,0.801,0.649,-67.987,-10.395,-2.52,
49329440,-0.106,0.679,0.636,-70.997,4.445,7.875,
49329450,-0.092,0.645,0.658,-62.405,16.8,4.725,
49329460,-0.013,0.672,0.692,-54.092,20.877,-5.792,
49329470,0.117,0.695,0.694,-42.752,33.705,-17.745,
49329480,-0.038,0.748,0.746,-33.845,46.935,-22.47,
49329490,-0.04,0.665,0.696,-37.625,47.215,-26.915,
49329500,-0.008,0.67,0.706,-32.602,47.18,-32.427,
49329510,-0.106,0.672,0.697,-31.465,49.42,-27.492,
49329520,-0.163,0.637,0.692,-32.97,46.305,-22.522,
49329530,-0.203,0.595,0.665,-33.145,38.797,-18.707,
49329540,-0.22,0.584,0.65,-29.732,29.26,-14.84,
49329550,-0.205,0.617,0.634,-26.512,20.352,-11.13,
49329560,-0.181,0.614,0.602,-24.01,14.927,-8.312,
49329570,-0.199,0.575,0.602,-22.785,9.555,-7.42,
49329580,-0.159,0.579,0.616,-18.2,5.53,-8.417,
49329590,-0.13,0.657,0.66,-10.675,5.757,-9.415,
49329600,-0.147,0.731,0.727,-9.695,9.17,-10.955,
49329610,-0.12,0.774,0.769,-16.31,12.547,-16.8,
49329620,-0.039,0.845,0.811,-24.57,22.802,-26.967,
49329630,-0.095,0.815,0.854,-36.662,39.515,-34.965,
49329640,-0.124,0.704,0.823,-46.637,55.405,-44.52,
49329650,-0.167,0.645,0.807,-48.16,64.837,-51.677,
49329660,-0.223,0.599,0.789,-47.53,64.715,-51.94,
49329670,-0.244,0.536,0.718,-39.532,58.397,-47.39,
49329670,-0.262,0.52,0.708,-26.687,47.075,-41.265,
49329690,-0.245,0.58,0.748,-20.037,33.092,-33.582,
49329690,-0.23,0.629,0.742,-19.232,26.302,-28.122,
49329710,-0.23,0.635,0.762,-21.787,24.797,-27.23,
49329710,-0.229,0.625,0.776,-27.387,28.805,-26.092,
49329730,-0.438,0.648,0.661,-30.397,29.575,-24.412,
49329730,-0.087,0.711,0.882,-28,24.307,-29.102,
49329750,-0.351,0.522,0.721,-39.217,39.357,-14.28,
49329750,-0.409,0.355,0.64,-43.015,35.787,-4.935,
49329760,-0.329,0.373,0.593,-17.325,30.73,-0.087,
49329770,-0.397,0.448,0.627,-0.945,18.865,8.592,
49329780,-0.315,0.553,0.592,2.59,9.695,15.75,
49329790,-0.316,0.591,0.633,6.072,6.702,18.55,
49329800,-0.31,0.624,0.718,4.007,9.24,14.735,
49329810,-0.335,0.665,0.791,-3.045,15.085,5.862,
49329820,-0.354,0.688,0.863,-8.855,18.655,-5.302,
49329830,-0.32,0.706,0.889,-14.98,20.212,-12.582,
49329840,-0.297,0.699,0.885,-21.07,18.637,-15.312,
49329850,-0.248,0.654,0.849,-27.265,19.355,-16.117,
49329860,-0.24,0.606,0.789,-31.867,21.035,-16.87,
49329870,-0.315,0.528,0.719,-35.612,20.982,-14.07,
49329880,-0.335,0.467,0.681,-34.02,17.867,-9.712,
49329890,-0.392,0.496,0.7,-28.245,13.86,-6.002,
49329900,-0.436,0.487,0.712,-27.387,6.947,-4.217,
49329910,-0.389,0.498,0.725,-25.882,0.857,-5.687,
49329920,-0.392,0.489,0.722,-23.712,-4.952,-5.967,
49329930,-0.342,0.484,0.718,-21.437,-7.367,-7.367,
49329940,-0.275,0.509,0.719,-19.145,-6.09,-9.24,
49329950,-0.204,0.533,0.722,-18.27,2.03,-10.692,
49329960,-0.205,0.537,0.729,-20.125,14.122,-12.285,
49329970,-0.248,0.517,0.736,-22.347,24.657,-13.37,
49329980,-0.319,0.52,0.759,-20.702,30.94,-10.342,
49329990,-0.41,0.525,0.781,-18.585,29.085,-2.135,
49330000,-0.44,0.517,0.785,-16.135,22.102,6.632,
49330010,-0.493,0.518,0.773,-13.195,11.882,13.982,
49330020,-0.49,0.533,0.756,-12.18,2.275,17.692,
49330030,-0.438,0.53,0.737,-11.9,-3.132,17.517,
49330040,-0.409,0.5,0.715,-11.707,-6.405,17.097,
49330050,-0.384,0.483,0.704,-9.782,-8.522,18.042,
49330050,-0.38,0.472,0.711,-6.65,-11.445,21.752,
49330070,-0.347,0.478,0.725,-2.345,-15.732,27.737,
49330070,-0.333,0.516,0.75,0.682,-18.252,35.227,
49330080,-0.436,0.576,0.793,-1.05,-22.347,42.49,
49330090,-0.414,0.597,0.79,-7.682,-31.15,44.135,
49330100,-0.427,0.568,0.813,-15.68,-31.29,46.095,
49330110,-0.532,0.465,0.731,-25.865,-41.265,44.485,
49330120,-0.474,0.426,0.699,-18.812,-51.712,37.012,
49330130,-0.595,0.422,0.698,-0.91,-71.225,33.25,
49330140,-0.503,0.489,0.727,12.425,-107.485,32.847,
49330150,-0.335,0.568,0.716,14.735,-140.752,41.317,
49330160,-0.244,0.575,0.703,13.177,-166.25,50.942,
49330170,-0.238,0.506,0.72,8.277,-179.042,56.595,
49330180,-0.322,0.422,0.75,5.005,-191.292,56.035,
49330190,-0.277,0.358,0.73,11.952,-203.875,46.375,
49330200,-0.063,0.456,0.796,34.177,-206.675,34.16,
49330210,0.118,0.621,0.864,48.475,-195.422,26.635,
49330220,0.263,0.742,0.917,45.08,-167.16,22.925,
49330230,0.406,0.746,0.968,31.902,-123.392,14.367,
49330240,0.387,0.632,0.81,18.48,-77.35,4.235,
49330250,0.258,0.425,0.907,15.225,-39.252,2.275,
49330260,0.083,0.446,0.81,20.475,-13.457,7.525,
49330270,0.057,0.6,0.845,29.33,-2.677,7.56,
49330280,0.014,0.587,0.817,29.995,-2.572,-3.797,
49330290,-0.005,0.586,0.724,30.782,-6.44,-16.24,
49330300,-0.145,0.646,0.784,27.562,-18.97,-17.5,
49330310,-0.265,0.661,0.803,20.93,-48.632,-14.682,
49330320,-0.205,0.689,0.738,20.702,-80.36,-8.085,
49330330,-0.039,0.647,0.709,19.792,-100.992,1.925,
49330340,0.091,0.603,0.703,14.472,-102.567,12.547,
49330350,0.041,0.587,0.731,11.83,-87.272,24.395,
49330360,-0.022,0.595,0.733,9.555,-76.16,31.937,
49330370,0.066,0.59,0.795,12.845,-63.332,34.685,
49330380,0.093,0.618,0.805,17.237,-52.08,40.705,
49330390,0.139,0.684,0.812,13.685,-42.315,40.687,
49330400,0.268,0.59,0.788,4.042,-25.847,31.92,
49330410,0.302,0.497,0.759,2.012,-6.755,23.012,
49330420,0.284,0.554,0.684,8.505,8.942,18.13,
49330420,0.445,0.613,0.687,13.842,23.642,4.812,
49330440,0.541,0.582,0.677,7.98,49.175,-13.895,
49330440,0.422,0.541,0.656,-1.102,77.052,-22.925,
49330460,0.209,0.552,0.626,-3.115,99.207,-25.917,
49330460,0.026,0.593,0.728,-6.562,112.42,-26.302,
49330480,-0.206,0.584,0.747,-12.95,106.137,-28.175,
49330480,-0.325,0.632,0.793,-12.145,90.807,-18.9,
49330500,-0.484,0.705,0.799,-11.795,56.752,-1.417,
49330500,-0.367,0.675,0.783,-13.86,22.33,4.917,
49330510,-0.145,0.614,0.753,-13.72,0.927,3.78,
49330520,0.028,0.62,0.756,-9.397,0.28,3.342,
49330530,0.056,0.64,0.789,-5.757,12.285,2.065,
49330540,0.058,0.635,0.775,-6.632,24.675,-4.077,
49330550,0.067,0.65,0.802,-7.962,41.37,-11.095,
49330560,-0.003,0.657,0.831,-11.427,52.272,-13.055,
49330570,-0.082,0.668,0.856,-14.787,53.165,-11.375,
49330580,-0.143,0.636,0.834,-16.747,41.422,-7.35,
49330590,-0.146,0.576,0.825,-15.137,25.357,-2.922,
49330600,-0.132,0.559,0.798,-8.96,7.7,-2.87,
49330610,-0.041,0.611,0.775,-1.47,-5.005,-8.102,
49330620,0.121,0.647,0.758,-1.085,-9.065,-14.787,
49330630,0.195,0.627,0.705,-9.555,1.417,-18.392,
49330640,0.192,0.555,0.715,-19.845,22.155,-23.1,
49330650,0.154,0.466,0.745,-23.94,49.84,-26.74,
49330660,-0.069,0.539,0.788,-15.785,68.897,-28.28,
49330670,-0.207,0.566,0.877,-12.862,66.045,-26.372,
49330680,-0.223,0.558,0.879,-12.792,53.672,-17.867,
49330690,-0.283,0.585,0.868,-7.945,34.737,-8.33,
49330700,-0.264,0.568,0.851,-4.637,13.86,-3.815,
49330710,-0.17,0.556,0.832,-2.625,-2.03,-2.222,
49330720,-0.072,0.598,0.813,1.785,-9.31,-1.872,
49330730,-0.019,0.627,0.793,3.062,-4.812,-2.117,
49330740,-0.01,0.64,0.772,-2.73,7.122,-7.035,
49330750,-0.026,0.659,0.745,-10.64,21.437,-15.435,
49330760,-0.053,0.621,0.715,-18.445,33.215,-22.032,
49330760,-0.065,0.521,0.705,-19.285,41.702,-25.252,
49330780,-0.23,0.516,0.745,-17.675,43.312,-22.365,
49330780,-0.217,0.606,0.768,-14.28,35.052,-18.182,
49330800,-0.152,0.611,0.785,-11.637,28.42,-15.645,
49330800,-0.166,0.54,0.776,-15.505,26.127,-13.72,
49330820,-0.092,0.52,0.784,-15.662,29.505,-17.832,
49330820,-0.127,0.573,0.793,-10.5,34.685,-16.03,
49330830,-0.322,0.598,0.801,-16.03,36.26,-9.59,
49330840,-0.327,0.414,0.725,-26.985,24.902,-8.61,
49330850,-0.154,0.398,0.715,-9.835,19.022,-9.345,
49330860,-0.189,0.514,0.798,10.587,16.065,1.382,
49330870,-0.25,0.552,0.807,11.725,12.95,9.607,
49330880,-0.218,0.548,0.778,13.352,7.017,6.23,
49330890,-0.207,0.498,0.798,18.585,-0.56,7.14,
49330900,-0.179,0.496,0.82,24.377,-9.45,12.635,
49330910,-0.199,0.575,0.856,31.85,-15.522,17.587,
49330920,-0.156,0.615,0.869,36.137,-21.122,18.777,
49330930,-0.083,0.639,0.862,35.63,-20.877,18.007,
49330940,0.004,0.621,0.836,28.682,-16.38,13.615,
49330950,0.009,0.644,0.795,23.467,-3.097,5.985,
49330960,-0.064,0.625,0.761,18.76,7.822,-1.557,
49330970,-0.074,0.6,0.74,15.032,16.975,-6.877,
49330980,-0.183,0.613,0.748,13.755,19.722,-7.787,
49330990,-0.22,0.67,0.723,11.742,13.877,-7.332,
49331000,-0.241,0.669,0.721,5.075,9.397,-3.115,
49331010,-0.256,0.578,0.703,-0.927,4.777,0.717,
49331020,-0.242,0.55,0.712,1.645,-0.157,2.415,
49331030,-0.217,0.591,0.737,6.02,-3.745,4.742,
49331040,-0.144,0.569,0.754,6.457,-3.01,4.97,
49331050,-0.137,0.551,0.79,8.995,0.752,3.412,
49331060,-0.216,0.606,0.836,12.022,-0.14,4.077,
49331070,-0.188,0.615,0.826,12.88,-3.517,5.25,
49331080,-0.13,0.576,0.788,16.765,-5.337,4.865,
49331090,-0.072,0.564,0.79,20.247,-2.887,4.672,
49331100,-0.18,0.6,0.743,22.68,2.135,5.372,
49331110,-0.029,0.584,0.703,26.022,3.745,0.087,
49331120,-0.162,0.665,0.738,24.622,7.612,1.295,
49331130,-0.369,0.629,0.715,6.492,-2.817,7.612,
49331140,-0.331,0.557,0.678,2.152,-16.94,11.2,
49331150,-0.309,0.61,0.729,9.502,-29.715,17.307,
49331160,-0.326,0.708,0.779,5.302,-38.255,22.802,
49331170,-0.301,0.729,0.8,-4.515,-44.082,21.577,
49331170,-0.219,0.686,0.809,-7.875,-45.885,20.072,
49331190,-0.135,0.689,0.825,-7.175,-44.362,21.017,
49331190,-0.044,0.688,0.822,-7.595,-36.627,18.62,
49331210,-0.042,0.668,0.817,-9.012,-27.195,13.755,
49331210,-0.065,0.652,0.803,-10.43,-18.917,10.132,
49331230,-0.053,0.642,0.78,-9.8,-13.195,8.067,
49331230,-0.1,0.616,0.782,-9.38,-7.945,6.387,
49331250,-0.128,0.595,0.76,-9.065,-7.105,5.547,
49331250,-0.146,0.608,0.753,-7.332,-9.607,7.07,
49331260,-0.114,0.592,0.733,-6.422,-12.81,9.625,
49331270,-0.177,0.592,0.636,-3.272,-20.93,8.68,
49331280,0.189,0.521,0.716,-3.36,-15.067,12.127,
49331290,-0.048,0.558,0.783,-0.157,6.457,18.182,
49331300,-0.009,0.66,0.8,-0.472,17.57,4.55,
49331310,0.015,0.606,0.801,-3.535,26.337,1.522,
49331320,-0.043,0.599,0.795,-2.24,30.1,1.015,
49331330,-0.077,0.597,0.765,-0.63,28.175,1.54,
49331340,-0.106,0.577,0.714,5.512,20.615,2.677,
49331350,-0.125,0.559,0.667,10.675,11.165,5.18,
49331360,-0.168,0.562,0.657,14.735,2.187,7.052,
49331370,-0.313,0.567,0.678,20.947,-7.14,8.61,
49331380,-0.362,0.589,0.696,28.7,-20.807,10.5,
49331390,-0.312,0.636,0.731,37.782,-33.53,14.63,
49331400,-0.321,0.662,0.752,42.49,-41.947,19.862,
49331410,-0.23,0.709,0.759,42,-45.657,18.865,
49331420,-0.187,0.716,0.747,37.03,-44.397,13.282,
49331430,-0.113,0.687,0.718,29.855,-38.622,4.497,
49331440,-0.065,0.68,0.707,26.705,-32.095,-2.677,
49331450,-0.086,0.661,0.701,25.06,-30.257,-3.622,
49331460,-0.089,0.643,0.69,25.252,-34.615,-1.557,
49331470,-0.089,0.652,0.697,25.602,-41.912,4.182,
49331480,-0.108,0.677,0.712,22.417,-49.91,12.985,
49331490,-0.075,0.662,0.695,18.83,-54.897,17.307,
49331500,-0.044,0.674,0.732,15.907,-49.752,17.622,
49331510,-0.089,0.747,0.732,10.797,-40.18,13.72,
49331510,-0.037,0.732,0.67,5.617,-29.732,5.967,
49331530,0.013,0.702,0.611,4.97,-21.7,0.962,
49331530,0.009,0.721,0.603,3.64,-15.505,0.997,
49331550,0,0.712,0.61,2.555,-14.805,1.837,
49331550,0.002,0.706,0.633,4.06,-17.43,2.8,
49331570,-0.037,0.721,0.67,4.392,-21.227,3.57,
49331570,-0.108,0.709,0.651,3.71,-25.55,3.255,
49331580,-0.135,0.663,0.608,8.715,-28.42,1.207,
49331590,-0.105,0.7,0.66,21.91,-29.225,-4.165,
49331600,-0.167,0.77,0.765,28.455,-38.71,-5.88,
49331610,-0.015,0.804,0.843,48.475,-53.235,-2.887,
49331620,-0.281,0.975,1.116,79.922,-105.35,21.507,
49331630,0.517,1.153,0.756,55.772,-149.03,56.892,
49331640,0.52,0.936,0.69,44.012,-128.117,52.92,
49331650,0.527,0.924,0.579,27.947,-91.49,14.315,
49331660,0.367,0.882,0.563,17.797,-51.695,-7.192,
49331670,0.18,0.667,0.454,3.99,-28.052,-19.11,
49331680,0.063,0.692,0.431,8.312,-20.51,-24.867,
49331690,0.038,0.575,0.466,9.852,-19.302,-15.19,
49331700,-0.15,0.659,0.567,23.17,-22.995,2.572,
49331710,-0.169,0.777,0.63,25.147,-31.43,21.105,
49331720,-0.072,0.805,0.612,22.102,-36.732,32.935,
49331730,0.044,0.853,0.634,16.905,-29.452,35.98,
49331740,0.102,0.839,0.675,3.92,-14.367,29.33,
49331750,0.172,0.794,0.727,-12.582,2.537,20.02,
49331760,0.203,0.734,0.758,-28.7,12.442,13.195,
49331770,0.214,0.599,0.748,-43.767,15.137,10.22,
49331780,0.176,0.555,0.811,-54.547,10.01,8.26,
49331790,0.111,0.586,0.847,-65.712,-6.527,8.312,
49331800,0.209,0.555,0.884,-80.255,-24.797,12.827,
49331810,0.272,0.586,0.904,-89.95,-33.617,14.77,
49331820,0.262,0.603,0.922,-106.802,-40.425,11.025,
49331830,0.284,0.583,0.922,-132.3,-43.33,3.29,
49331840,0.337,0.535,0.876,-154.84,-36.96,-8.19,
49331850,0.308,0.398,0.85,-159.617,-21.717,-18.55,
49331860,0.303,0.306,0.854,-151.55,-2.03,-29.61,
49331870,0.277,0.306,0.855,-142.8,16.712,-40.985,
49331880,0.254,0.303,0.847,-139.23,34.912,-52.937,
49331890,0.163,0.256,0.807,-137.952,51.922,-67.742,
49331900,0.021,0.345,0.816,-131.425,57.855,-81.725,
49331910,-0.059,0.439,0.843,-132.737,50.365,-91.227,
49331920,-0.079,0.5,0.817,-142.572,36.295,-96.11,
49331920,-0.08,0.56,0.815,-155.435,21.105,-101.762,
49331940,-0.061,0.602,0.771,-174.825,10.937,-108.622,
49331940,-0.018,0.597,0.694,-196.98,6.65,-115.062,
49331960,0.083,0.562,0.644,-216.125,11.55,-118.615,
49331960,0.137,0.524,0.604,-235.62,26.722,-115.097,
49331980,0.07,0.485,0.589,-249.672,46.917,-107.117,
49331980,-0.027,0.434,0.586,-260.312,62.842,-97.877,
49332000,-0.142,0.34,0.595,-266.192,72.415,-86.555,
49332000,-0.22,0.231,0.585,-262.587,76.195,-80.29,
49332010,-0.204,0.095,0.613,-244.877,77.717,-77.735,
49332020,-0.222,0.031,0.671,-218.312,78.085,-73.972,
49332030,-0.265,0.026,0.755,-190.715,76.072,-70.98,
49332040,-0.327,0.021,0.832,-167.615,68.827,-65.642,
49332050,-0.366,0.006,0.921,-150.622,59.132,-61.845,
49332060,-0.385,-0.006,0.974,-140.192,45.255,-61.127,
49332070,-0.391,-0.027,0.996,-133.77,29.505,-60.34,
49332080,-0.354,-0.104,0.995,-126.665,13.755,-57.4,
49332090,-0.319,-0.192,1.011,-112.735,0.56,-49.087,
49332100,-0.286,-0.239,1.012,-92.382,-10.045,-37.625,
49332110,-0.242,-0.216,1.032,-69.44,-16.94,-26.32,
49332120,-0.207,-0.172,1.079,-48.965,-21.105,-17.255,
49332130,-0.188,-0.116,1.117,-36.277,-24.412,-12.95,
49332140,-0.132,-0.058,1.122,-33.617,-25.392,-13.44,
49332150,-0.088,-0.048,1.122,-33.705,-23.485,-15.05,
49332160,-0.071,-0.045,1.109,-39.322,-19.722,-17.71,
49332170,-0.078,-0.049,1.089,-45.605,-16.187,-22.137,
49332180,-0.08,-0.03,1.098,-52.272,-13.667,-27.352,
49332190,-0.078,-0.038,1.045,-62.79,-13.527,-31.045,
49332200,-0.049,-0.066,1.021,-67.392,-13.387,-33.932,
49332210,-0.022,-0.085,0.998,-71.067,-10.745,-32.62,
49332220,-0.011,-0.128,0.973,-73.972,-6.807,-26.897,
49332230,0.005,-0.198,0.911,-70.14,-2.082,-18.585,
49332240,-0.073,-0.316,0.95,-49.157,4.602,0.735,
49332250,-0.041,-0.294,0.938,-41.142,10.92,3.15,
49332260,-0.063,-0.288,0.977,-29.697,19.705,-2.747,
49332260,-0.149,-0.302,1.01,-22.085,25.725,-2.835,
49332280,-0.2,-0.297,1.028,-20.387,26.18,-5.04,
49332280,-0.221,-0.295,1.024,-18.217,23.117,-8.732,
49332300,-0.246,-0.277,1.025,-13.755,17.99,-12.372,
49332300,-0.259,-0.281,1.006,-11.025,9.782,-14.945,
49332320,-0.26,-0.271,0.98,-9.45,1.137,-17.57,
49332320,-0.245,-0.278,0.97,-3.745,-10.15,-19.582,
49332330,-0.193,-0.276,0.976,0.63,-21.665,-17.71,
49332340,-0.153,-0.276,0.989,-0.035,-30.887,-14.42,
49332350,-0.097,-0.322,0.991,-0.455,-33.985,-15.942,
49332360,-0.025,-0.365,0.937,5.162,-28.927,-18.27,
49332370,-0.147,-0.295,0.958,17.29,-21.28,-17.255,
49332380,-0.12,-0.254,0.964,28.14,-16.222,-20.317,
49332390,-0.07,-0.248,0.936,28.315,-15.032,-18.392,
49332400,-0.144,-0.263,1.005,20.685,-17.377,-8.732,
49332410,-0.089,-0.316,0.977,13.825,-10.377,-7.245,
49332420,-0.164,-0.335,1.023,11.882,-7.875,-10.132,
49332430,-0.223,-0.357,1.021,9.275,-11.287,-14.577,
49332440,-0.159,-0.338,1.012,6.44,-17.605,-22.54,
49332450,-0.148,-0.348,1.001,3.85,-26.6,-26.722,
49332460,-0.086,-0.321,0.994,4.34,-32.795,-32.637,
49332470,-0.068,-0.295,0.988,5.565,-36.277,-33.302,
49332480,-0.024,-0.254,0.984,5.512,-37.992,-34.965,
49332490,0.015,-0.203,0.974,3.167,-35.63,-35.997,
49332500,0.024,-0.209,0.945,1.347,-31.185,-34.965,
49332510,0.027,-0.191,0.988,4.882,-24.342,-31.99,
49332520,0,-0.159,0.989,0.805,-19.985,-27.195,
49332530,0,-0.157,0.993,-1.015,-16.17,-26.652,
49332540,-0.006,-0.156,1.02,-0.875,-11.917,-27.877,
49332550,-0.027,-0.134,1.029,-4.147,-7.84,-29.12,
49332560,-0.037,-0.122,1.04,-7.647,-5.145,-31.622,
49332570,-0.044,-0.126,1.051,-12.04,-3.517,-33.932,
49332580,-0.028,-0.128,1.04,-15.942,-1.732,-35.91,
49332590,-0.017,-0.13,1.016,-16.187,0.945,-36.12,
49332600,-0.068,-0.144,1.05,-10.99,3.027,-33.495,
49332610,0.003,-0.08,1.025,-14.227,8.295,-40.512,
49332620,-0.062,-0.141,1.02,-5.652,13.44,-30.677,
49332630,-0.038,-0.118,1,0.14,19.127,-27.335,
49332640,-0.069,-0.115,1.004,10.552,23.31,-20.685,
49332650,-0.09,-0.086,1.018,16.922,26.565,-14.315,
49332660,-0.097,-0.076,0.998,15.96,29.172,-9.712,
49332670,-0.106,-0.085,0.997,16.17,32.147,-8.96,
49332670,-0.124,-0.078,0.987,13.562,34.615,-7.945,
49332690,-0.133,-0.074,0.97,11.742,35.28,-7.105,
49332690,-0.14,-0.083,0.955,12.547,35.087,-5.74,
49332710,-0.143,-0.083,0.957,14.315,34.002,-3.78,
49332710,-0.154,-0.08,0.959,15.452,32.742,-1.732,
49332730,-0.169,-0.085,0.961,17.272,29.767,0.227,
49332730,-0.169,-0.093,0.945,17.972,26.495,1.75,
49332740,-0.165,-0.12,0.927,20.58,22.907,1.785,
49332750,-0.177,-0.136,0.925,24.99,19.915,1.575,
49332760,-0.193,-0.129,0.924,26.845,15.61,1.242,
49332770,-0.19,-0.125,0.909,26.88,11.602,0.14,
49332780,-0.194,-0.138,0.914,27.44,7.227,-0.332,
49332790,-0.188,-0.136,0.922,25.76,3.097,-1.015,
49332800,-0.18,-0.148,0.926,23.03,-1.33,-0.647,
49332810,-0.167,-0.151,0.936,16.992,-5.11,1.977,
49332820,-0.168,-0.164,0.928,8.225,-8.75,6.072,
49332830,-0.183,-0.179,0.938,0.402,-10.832,8.907,
49332840,-0.152,-0.198,0.912,-8.277,-11.76,11.042,
49332850,-0.119,-0.224,0.882,-14.892,-9.607,14.122,
49332860,-0.104,-0.24,0.874,-18.83,-3.43,17.535,
49332870,-0.13,-0.248,0.862,-20.615,4.48,20.335,
49332880,-0.152,-0.27,0.871,-18.917,10.972,22.102,
49332890,-0.161,-0.254,0.886,-18.97,15.137,24.797,
49332900,-0.198,-0.26,0.896,-21.525,15.225,26.652,
49332910,-0.18,-0.238,0.898,-24.167,13.965,27.3,
49332920,-0.151,-0.224,0.884,-26.915,12.53,31.045,
49332930,-0.142,-0.214,0.883,-28.192,13.125,36.522,
49332940,-0.145,-0.199,0.892,-31.027,15.067,41.597,
49332950,-0.155,-0.205,0.874,-34.527,18.655,45.097,
49332960,-0.155,-0.231,0.842,-33.057,25.322,45.552,
49332970,-0.169,-0.236,0.849,-26.862,31.15,44.135,
49332980,-0.21,-0.215,0.875,-20.212,34.265,41.387,
49332990,-0.246,-0.209,0.91,-14.752,31.552,37.117,
49333000,-0.261,-0.224,0.944,-10.972,24.955,31.535,
49333010,-0.265,-0.241,0.974,-7.752,14.63,24.535,
49333010,-0.252,-0.243,1,-4.62,2.572,17.115,
49333030,-0.203,-0.224,1.031,-2.257,-9.17,11.147,
49333030,-0.139,-0.195,1.051,-1.4,-18.392,7.91,
49333050,-0.091,-0.18,1.057,-1.487,-23.94,5.53,
49333050,-0.027,-0.169,1.057,-1.085,-23.467,3.272,
49333070,0.015,-0.17,1.049,2.38,-18.655,0.805,
49333070,0.032,-0.182,1.044,9.152,-8.837,-3.622,
49333080,0.039,-0.183,1.055,17.937,2.012,-9.59,
49333090,0.036,-0.174,1.078,27.65,13.737,-15.487,
49333100,0.013,-0.167,1.085,38.745,24.535,-20.37,
49333110,-0.01,-0.142,1.092,50.435,35.98,-25.637,
49333120,-0.036,-0.093,1.074,60.077,45.255,-31.727,
49333130,-0.073,-0.03,1.065,64.645,52.745,-35.245,
49333140,-0.155,-0.004,1.067,66.115,56.542,-34.895,
49333150,-0.254,-0.008,1.092,66.5,55.912,-33.827,
49333160,-0.342,0.032,1.09,55.492,45.325,-31.465,
49333170,-0.419,0.009,1.063,48.527,26.075,-33.407,
49333180,-0.476,0.01,1.065,46.445,-0.49,-32.62,
49333190,-0.48,0.029,1.024,36.365,-32.987,-25.952,
49333200,-0.387,0.046,0.969,21.332,-60.935,-20.247,
49333210,-0.265,0.039,0.926,4.235,-76.177,-15.697,
49333220,-0.18,0.002,0.895,-11.62,-80.57,-9.607,
49333230,-0.137,-0.05,0.863,-24.132,-76.44,-1.067,
49333240,-0.108,-0.073,0.856,-28.385,-66.115,7.997,
49333250,-0.147,-0.102,0.884,-28.875,-55.545,17.29,
49333260,-0.209,-0.105,0.919,-33.057,-50.435,23.257,
49333270,-0.228,-0.131,0.929,-40.355,-51.502,24.15,
49333280,-0.201,-0.162,0.913,-45.797,-54.862,23.257,
49333290,-0.158,-0.18,0.903,-48.3,-56.717,19.337,
49333300,-0.133,-0.191,0.894,-49.175,-57.015,15.785,
49333310,-0.101,-0.2,0.878,-52.272,-55.037,10.85,
49333320,-0.056,-0.2,0.862,-56.595,-51.047,3.727,
49333330,-0.061,-0.232,0.842,-57.19,-48.055,-1.382,
49333340,-0.082,-0.25,0.854,-52.29,-47.582,-4.217,
49333350,-0.056,-0.282,0.894,-47.792,-49.525,-5.372,
49333360,0.031,-0.368,0.911,-39.655,-47.915,-3.482,
49333370,0.071,-0.433,0.902,-22.312,-40.88,-1.05,
49333380,-0.001,-0.367,0.979,-1.68,-34.58,1.645,
49333390,-0.013,-0.345,1.026,7.35,-29.05,6.527,
49333400,0.002,-0.352,1.044,15.575,-26.267,6.212,
49333410,-0.002,-0.357,1.055,20.842,-24.447,5.285,
49333420,0.01,-0.357,1.055,24.832,-22.155,3.867,
49333420,0.02,-0.341,1.046,29.942,-17.797,0.595,
49333430,-0.041,-0.307,1.056,32.655,-16.625,-0.717,
49333440,-0.044,-0.271,1.046,30.607,-17.762,-2.17,
49333450,-0.032,-0.27,1.014,26.845,-19.635,-4.2,
49333460,-0.073,-0.225,0.941,28.175,-24.36,-6.982,
49333470,-0.038,-0.144,0.935,27.615,-30.012,-8.522,
49333480,0.021,-0.153,0.909,15.365,-36.627,-6.422,
49333490,0.12,-0.212,0.876,1.82,-34.755,-4.987,
49333500,0.167,-0.235,0.85,-3.727,-25.042,-1.855,
49333510,0.171,-0.181,0.866,-1.365,-5.232,1.435,
49333520,0.105,-0.125,0.916,-2.38,12.81,6.737,
49333530,0.018,-0.143,0.935,-11.41,24.08,12.6,
49333540,-0.059,-0.197,0.929,-17.342,25.917,13.755,
49333550,-0.105,-0.219,0.946,-16.135,20.597,11.305,
49333560,-0.122,-0.206,0.983,-12.6,10.482,8.82,
49333570,-0.106,-0.206,1.013,-10.815,0.122,6.16,
49333580,-0.097,-0.229,1.028,-9.817,-9.275,2.712,
49333590,-0.074,-0.244,1.038,-7.035,-15.487,-0.07,
49333600,-0.048,-0.236,1.052,-1.837,-19.582,-0.35,
49333610,-0.028,-0.224,1.064,2.887,-22.032,1.89,
49333620,-0.036,-0.188,1.113,3.587,-24.71,5.337,
49333630,-0.074,-0.165,1.128,-2.432,-30.292,9.992,
49333640,-0.051,-0.155,1.069,-10.377,-33.425,12.18,
49333650,-0.069,-0.147,1.057,-17.937,-37.415,12.775,
49333660,-0.14,-0.142,1.01,-29.277,-45.552,12.565,
49333670,-0.025,-0.172,0.983,-38.972,-51.397,9.957,
49333680,0.104,-0.205,0.9,-38.15,-43.662,9.362,
49333690,0.085,-0.2,0.902,-21.472,-33.25,6.51,
49333700,0.003,-0.147,0.941,-7.507,-29.82,3.885,
49333710,-0.027,-0.124,0.96,-6.265,-34.195,6.247,
49333720,-0.005,-0.14,0.938,-5.88,-43.137,7.7,
49333730,0.007,-0.162,0.924,0.017,-53.41,8.242,
49333740,-0.024,-0.162,0.952,5.197,-65.292,10.902,
49333750,-0.006,-0.146,0.956,7.017,-76.912,9.957,
49333760,0.11,-0.135,0.961,7.297,-84.035,4.462,
49333760,0.198,-0.171,0.997,-0.735,-84.665,2.467,
49333780,0.22,-0.211,1.016,-9.922,-72.03,-0.262,
49333780,0.223,-0.296,1.014,-7.822,-61.092,-7.542,
49333800,0.192,-0.366,1.033,-0.787,-51.292,-10.29,
49333800,0.172,-0.367,1.055,9.537,-45.43,-13.807,
49333820,0.179,-0.357,1.091,17.885,-43.032,-17.832,
49333820,0.191,-0.367,1.096,22.295,-42.017,-20.195,
49333830,0.232,-0.373,1.096,24.99,-37.537,-22.505,
49333840,0.271,-0.383,1.065,28.91,-28.63,-24.29,
49333850,0.272,-0.379,1.045,35.14,-14.507,-26.81,
49333860,0.24,-0.379,1.011,44.8,0.262,-27.37,
49333870,0.199,-0.343,1.012,59.71,11.812,-21.735,
49333880,0.201,-0.264,1.018,65.257,22.732,-18.462,
49333890,0.151,-0.216,1.005,62.02,32.445,-13.965,
49333900,0.101,-0.208,0.963,57.417,38.78,-10.85,
49333910,0.088,-0.182,0.925,57.225,43.61,-8.785,
49333920,0.095,-0.157,0.889,57.837,48.545,-4.06,
49333930,0.119,-0.137,0.845,59.115,56.227,3.325,
49333940,0.138,-0.118,0.812,59.955,66.902,13.212,
49333950,0.15,-0.097,0.783,60.987,82.477,26.6,
49333960,0.112,-0.055,0.771,64.05,100.17,39.252,
49333970,0.056,0.013,0.782,65.205,116.602,48.265,
49333980,0.03,0.08,0.832,60.48,130.095,54.722,
49333990,-0.045,0.129,0.864,52.01,135.905,59.64,
49334000,-0.134,0.154,0.887,41.457,133.542,62.492,
49334010,-0.141,0.183,0.896,26.74,127.277,62.737,
49334020,-0.138,0.19,0.901,6.772,118.317,62.51,
49334030,-0.17,0.159,0.88,-17.622,107.45,60.042,
49334040,-0.135,0.119,0.856,-39.987,97.982,54.827,
49334050,-0.087,0.078,0.815,-55.597,92.785,53.935,
49334060,-0.127,0.01,0.821,-61.145,89.18,61.285,
49334070,-0.186,-0.028,0.831,-61.617,83.65,64.715,
49334080,-0.211,-0.028,0.86,-60.882,77.857,60.882,
49334090,-0.235,-0.055,0.885,-58.852,68.635,55.912,
49334100,-0.246,-0.072,0.912,-55.037,57.837,47.565,
49334100,-0.235,-0.069,0.944,-50.592,46.112,37.642,
49334120,-0.215,-0.07,0.965,-46.427,33.67,30.52,
49334120,-0.216,-0.095,0.984,-41.125,22.68,25.812,
49334140,-0.104,-0.001,1.021,-42.857,17.867,13.562,
49334140,-0.136,-0.05,1.018,-51.1,16.24,13.895,
49334160,-0.069,-0.063,0.992,-58.17,18.2,7.787,
49334160,-0.02,-0.082,1.003,-61.565,24.605,-4.41,
49334170,-0.144,-0.223,1.063,-62.947,27.755,-6.79,
49334180,-0.184,-0.311,1.012,-50.347,24.99,-13.02,
49334190,-0.082,-0.163,1.004,-26.88,24.832,-9.922,
49334200,-0.037,-0.057,1.028,-18.707,26.232,2.012,
49334210,-0.015,-0.01,1,-26.722,35.122,1.855,
49334220,-0.044,-0.041,0.974,-43.067,49.7,-3.395,
49334230,-0.163,-0.125,0.951,-57.837,58.87,-6.212,
49334240,-0.292,-0.237,0.924,-60.76,52.01,-8.662,
49334250,-0.424,-0.338,0.932,-41.195,28.577,-4.585,
49334260,-0.331,-0.236,1.01,-38.43,-1.662,-16.275,
49334270,-0.227,-0.252,0.96,-45.727,-26.582,-23.275,
49334280,-0.096,-0.298,0.954,-42.332,-34.16,-25.935,
49334290,-0.123,-0.344,1.002,-34.352,-34.177,-14.315,
49334300,-0.168,-0.325,1.015,-25.917,-35.875,2.415,
49334310,-0.085,-0.257,1.053,-17.85,-32.532,11.76,
49334320,0.016,-0.232,1.077,-16.31,-20.107,15.522,
49334330,0.075,-0.204,1.078,-22.662,0.577,15.032,
49334340,0.06,-0.183,1.057,-32.392,23.887,13.23,
49334350,-0.035,-0.223,1.089,-39.357,47.145,20.247,
49334360,-0.127,-0.244,1.048,-46.777,59.972,29.715,
49334370,-0.131,-0.201,1.034,-56.507,69.422,16.922,
49334380,-0.278,-0.342,0.946,-50.242,69.772,26.6,
49334390,-0.378,-0.388,1.018,-32.235,64.295,32.322,
49334400,-0.289,-0.268,0.965,-27.317,55.177,22.015,
49334410,-0.276,-0.217,0.956,-26.547,52.132,16.152,
49334420,-0.306,-0.243,0.908,-27.825,50.732,16.275,
49334430,-0.311,-0.264,0.876,-29.732,49.262,16.152,
49334440,-0.311,-0.273,0.84,-26.722,48.72,16.047,
49334450,-0.426,-0.364,0.817,-13.632,44.292,29.172,
49334460,-0.371,-0.285,0.817,-8.995,39.042,25.41,
49334470,-0.363,-0.211,0.829,-7.77,35.385,17.342,
49334480,-0.42,-0.266,0.802,-7.752,32.445,15.977,
49334490,-0.477,-0.285,0.813,-4.83,25.287,22.487,
49334500,-0.446,-0.243,0.826,-5.547,16.432,17.902,
49334510,-0.46,-0.251,0.859,-5.617,10.64,13.177,
49334510,-0.426,-0.269,0.857,-8.627,7.647,9.8,
49334530,-0.425,-0.275,0.862,-10.22,6.405,7.927,
49334530,-0.417,-0.262,0.882,-11.917,5.512,7.157,
49334550,-0.429,-0.288,0.911,-11.707,3.08,9.52,
49334550,-0.4,-0.32,0.919,-10.815,1.837,12.075,
49334570,-0.358,-0.293,0.918,-8.05,3.115,16.485,
49334570,-0.338,-0.283,0.91,-8.942,7,21.227,
49334580,-0.311,-0.237,0.887,-9.817,15.452,20.93,
49334590,-0.323,-0.272,0.874,-11.62,25.585,20.58,
49334600,-0.374,-0.326,0.832,-9.957,32.147,21.98,
49334610,-0.392,-0.288,0.84,-4.287,34.44,22.505,
49334620,-0.42,-0.261,0.842,-4.042,30.975,25.06,
49334630,-0.447,-0.289,0.825,-3.902,26.705,26.197,
49334640,-0.437,-0.302,0.807,-0.367,21.805,26.39,
49334650,-0.434,-0.277,0.814,2.555,17.99,26.617,
49334660,-0.447,-0.265,0.813,3.08,15.732,26.057,
49334670,-0.461,-0.282,0.836,1.347,13.772,25.427,
49334680,-0.475,-0.296,0.829,-0.262,11.655,23.765,
49334690,-0.463,-0.287,0.848,-0.157,10.062,20.842,
49334700,-0.469,-0.297,0.837,-1.872,8.505,19.53,
49334710,-0.46,-0.285,0.83,-1.155,9.415,18.9,
49334720,-0.47,-0.275,0.834,-2.922,9.695,19.582,
49334730,-0.488,-0.271,0.842,-4.62,10.342,16.73,
49334740,-0.515,-0.281,0.848,-5.862,9.572,13.877,
49334750,-0.524,-0.291,0.852,-7.787,7.42,11.62,
49334760,-0.53,-0.315,0.846,-9.555,4.532,10.92,
49334770,-0.524,-0.32,0.823,-10.622,2.1,10.43,
49334780,-0.509,-0.318,0.811,-8.662,1.032,8.452,
49334790,-0.51,-0.311,0.794,-6.335,0.787,6.177,
49334800,-0.516,-0.308,0.79,-3.15,-0.787,2.905,
49334810,-0.509,-0.295,0.779,-0.962,-2.257,1.33,
49334820,-0.514,-0.286,0.792,0.577,-4.077,2.625,
49334830,-0.54,-0.314,0.797,1.837,-8.925,1.295,
49334830,-0.48,-0.291,0.798,4.515,-13.86,-1.225,
49334850,-0.446,-0.265,0.816,5.495,-16.31,-0.91,
49334850,-0.448,-0.27,0.811,2.712,-16.835,3.78,
49334870,-0.437,-0.278,0.817,1.75,-15.68,5.915,
49334870,-0.425,-0.293,0.827,1.522,-12.355,5.862,
49334890,-0.442,-0.32,0.829,1.715,-9.257,6.09,
49334890,-0.466,-0.327,0.849,0.612,-9.03,7.787,
49334910,-0.454,-0.322,0.855,3.92,-11.025,5.25,
49334910,-0.429,-0.287,0.866,6.37,-11.357,3.377,
49334920,-0.43,-0.285,0.859,5.022,-10.92,3.762,
49334930,-0.445,-0.32,0.854,5.88,-9.117,3.29,
49334940,-0.45,-0.325,0.859,9.292,-8.557,1.505,
49334950,-0.439,-0.29,0.859,11.602,-8.767,0,
49334960,-0.424,-0.271,0.861,13.177,-9.205,0.21,
49334970,-0.406,-0.248,0.871,13.107,-8.225,1.47,
49334980,-0.421,-0.251,0.862,10.307,-7.332,3.745,
49334990,-0.432,-0.267,0.848,9.327,-7.07,4.322,
49335000,-0.425,-0.259,0.841,10.395,-7.7,3.342,
49335010,-0.423,-0.245,0.839,11.025,-7.647,3.465,
49335020,-0.427,-0.239,0.843,11.41,-8.732,3.71,
49335030,-0.427,-0.232,0.85,10.622,-9.135,4.165,
49335040,-0.44,-0.248,0.846,10.395,-10.727,4.007,
49335050,-0.441,-0.248,0.86,10.937,-12.285,2.485,
49335060,-0.447,-0.246,0.88,11.69,-14.735,2.712,
49335070,-0.453,-0.248,0.877,9.8,-17.202,3.027,
49335080,-0.43,-0.241,0.889,10.097,-18.585,0.455,
49335090,-0.422,-0.229,0.895,9.1,-17.727,0.262,
49335100,-0.41,-0.243,0.884,6.632,-16.8,-0.105,
49335110,-0.407,-0.234,0.903,6.16,-13.037,0.77,
49335120,-0.422,-0.244,0.895,4.375,-11.602,2.835,
49335130,-0.406,-0.228,0.907,5.46,-10.412,0.157,
49335140,-0.408,-0.217,0.907,4.41,-9.415,-0.77,
49335150,-0.404,-0.222,0.894,2.31,-9.327,-0.56,
49335160,-0.379,-0.216,0.887,1.995,-7.315,-1.487,
49335170,-0.386,-0.228,0.883,1.155,-5.11,0.84,
49335180,-0.394,-0.232,0.883,0.682,-3.202,3.01,
49335190,-0.404,-0.236,0.892,1.365,-1.575,2.607,
49335200,-0.402,-0.24,0.88,1.452,-0.857,2.205,
49335210,-0.401,-0.228,0.885,2.275,-1.032,1.925,
49335220,-0.411,-0.227,0.885,1.295,-1.68,2.555,
49335230,-0.407,-0.23,0.892,0.192,-2.467,2.695,
49335240,-0.404,-0.24,0.886,-0.595,-2.485,2.712,
49335250,-0.406,-0.244,0.883,-0.647,-2.24,2.502,
49335260,-0.414,-0.239,0.881,-0.525,-2.555,2.38,
49335260,-0.413,-0.234,0.877,-0.542,-3.745,2.572,
49335280,-0.407,-0.23,0.874,-0.84,-4.427,2.992,
49335280,-0.403,-0.231,0.869,-0.962,-4.602,3.115,
49335300,-0.402,-0.23,0.866,-0.7,-3.815,3.115,
49335300,-0.403,-0.225,0.867,-0.21,-3.657,3.15,
49335320,-0.407,-0.229,0.868,-0.017,-3.465,3.167,
49335320,-0.406,-0.236,0.87,0.595,-3.465,2.905,
49335330,-0.411,-0.235,0.87,1.505,-2.677,2.835,
49335340,-0.423,-0.233,0.871,2.502,-2.73,2.152,
49335350,-0.431,-0.23,0.876,3.377,-2.782,1.54,
49335360,-0.434,-0.222,0.883,3.5,-3.885,0.63,
49335370,-0.433,-0.22,0.887,3.01,-4.585,-0.35,
49335380,-0.43,-0.226,0.883,2.205,-5.495,-1.015,
49335390,-0.425,-0.234,0.876,2.065,-5.775,-1.855,
49335400,-0.424,-0.236,0.87,2.8,-6.055,-3.027,
49335410,-0.428,-0.24,0.864,3.762,-5.775,-4.2,
49335420,-0.424,-0.235,0.857,5.232,-5.582,-5.652,
49335430,-0.419,-0.231,0.852,6.37,-4.497,-6.807,
49335440,-0.401,-0.22,0.841,7.402,-3.727,-6.947,
49335450,-0.381,-0.196,0.855,7.42,-3.447,-2.975,
49335460,-0.489,-0.23,0.919,5.337,-7.857,2.992,
49335470,-0.417,-0.208,0.854,4.515,-18.182,1.435,
49335480,-0.327,-0.17,0.899,4.97,-17.71,1.68,
49335490,-0.336,-0.213,0.881,4.287,-15.277,0.945,
49335500,-0.312,-0.209,0.905,6.667,-10.692,-0.472,
49335510,-0.359,-0.206,0.911,5.827,-7.035,3.307,
49335520,-0.358,-0.203,0.916,6.597,-6.037,2.625,
49335530,-0.341,-0.202,0.923,6.247,-4.375,1.697,
49335540,-0.373,-0.226,0.928,4.095,-2.082,3.5,
49335550,-0.406,-0.232,0.925,3.692,-0.49,2.397,
49335560,-0.409,-0.209,0.925,3.622,0.105,1.067,
49335570,-0.408,-0.209,0.908,1.312,-0.665,0.367,
49335580,-0.409,-0.226,0.891,0.332,-1.225,-0.525,
49335580,-0.395,-0.227,0.875,1.47,-0.525,-1.155,
49335600,-0.405,-0.218,0.871,2.17,-0.28,-1.137,
49335600,-0.406,-0.219,0.874,2.765,-1.417,-1.242,
49335620,-0.395,-0.225,0.877,3.482,-2.905,-1.33,
49335620,-0.39,-0.232,0.877,4.007,-5.565,-0.927,
49335640,-0.345,-0.205,0.881,5.25,-5.512,-0.805,
49335640,-0.336,-0.183,0.897,4.742,-3.465,2.345,
49335660,-0.396,-0.218,0.911,1.872,-1.592,6.282,
49335660,-0.384,-0.228,0.919,1.207,-0.42,4.532,
49335670,-0.382,-0.205,0.926,1.295,-0.157,4.182,
49335680,-0.387,-0.206,0.934,-0.49,-0.157,4.06,
49335690,-0.372,-0.205,0.914,-1.61,2.152,3.36,
49335700,-0.387,-0.201,0.907,-1.067,4.322,3.5,
49335710,-0.415,-0.212,0.873,-0.437,5.25,2.257,
49335720,-0.386,-0.189,0.862,2.362,6.265,0.997,
49335730,-0.41,-0.175,0.853,3.325,6.877,2.642,
49335740,-0.448,-0.189,0.837,2.835,4.34,2.555,
49335750,-0.425,-0.182,0.84,3.85,2.187,1.75,
49335760,-0.437,-0.181,0.848,4.725,-0.98,2.24,
49335770,-0.438,-0.196,0.863,5.075,-3.745,1.172,
49335780,-0.417,-0.193,0.875,6.3,-5.635,-0.175,
49335790,-0.428,-0.178,0.901,6.982,-6.877,-0.56,
49335800,-0.44,-0.175,0.912,5.232,-10.08,-1.715,
49335810,-0.43,-0.186,0.912,2.502,-13.562,-3.272,
49335820,-0.401,-0.192,0.909,1.295,-15.907,-4.69,
49335830,-0.419,-0.175,0.897,0.7,-17.622,-5.635,
49335840,-0.436,-0.173,0.914,-0.857,-22.067,-6.457,
49335850,-0.475,-0.181,0.876,-0.857,-30.275,-10.447,
49335860,-0.324,-0.162,0.862,3.99,-39.917,-17.99,
49335870,-0.151,-0.166,0.894,0.35,-30.59,-10.552,
49335880,-0.279,-0.242,0.891,-3.202,-8.4,0.735,
49335890,-0.449,-0.255,0.945,4.445,-0.752,-3.097,
49335900,-0.391,-0.213,0.967,6.3,-2.887,-5.827,
49335910,-0.293,-0.206,0.956,5.407,-3.272,-4.13,
49335920,-0.293,-0.224,0.981,6.965,1.382,-1.155,
49335930,-0.311,-0.246,0.976,5.232,8.54,4.34,
49335940,-0.284,-0.249,0.976,6.387,15.68,9.415,
49335950,-0.345,-0.216,0.939,10.202,20.982,13.755,
49335960,-0.372,-0.194,0.956,8.382,18.235,13.755,
49335970,-0.327,-0.233,0.929,2.45,19.442,15.26,
49335980,-0.351,-0.253,0.88,6.737,18.287,14.035,
49335990,-0.363,-0.191,0.866,17.78,17.027,9.94,
49336000,-0.371,-0.084,0.854,20.807,13.317,7.857,
49336010,-0.369,-0.11,0.829,13.685,8.925,5.512,
49336010,-0.454,-0.168,0.814,9.03,4.007,4.602,
49336030,-0.389,-0.201,0.799,10.692,-2.45,3.5,
49336030,-0.288,-0.142,0.828,16.45,1.382,4.62,
49336050,-0.434,-0.115,0.887,14.437,2.065,11.182,
49336050,-0.493,-0.152,0.881,9.8,1.172,13.44,
49336070,-0.45,-0.176,0.875,10.64,-3.622,9.66,
49336070,-0.441,-0.163,0.89,11.095,-7.63,7.385,
49336080,-0.426,-0.162,0.906,9.187,-8.837,5.477,
49336090,-0.424,-0.179,0.901,9.205,-5.32,2.607,
49336100,-0.473,-0.179,0.91,11.34,-6.3,0.087,
49336110,-0.463,-0.161,0.912,12.022,-8.522,-3.377,
49336120,-0.415,-0.152,0.908,12.057,-9.782,-5.267,
49336130,-0.406,-0.149,0.9,12.075,-9.187,-3.167,
49336140,-0.404,-0.147,0.911,12.792,-8.697,0.455,
49336150,-0.392,-0.148,0.904,13.282,-7.157,3.097,
49336160,-0.374,-0.13,0.913,13.09,-7.227,2.345,
49336170,-0.352,-0.113,0.912,11.655,-5.197,3.22,
49336180,-0.33,-0.116,0.938,11.13,-0.42,5.162,
49336190,-0.362,-0.12,0.93,7.49,2.747,6.702,
49336200,-0.332,-0.106,0.916,4.672,5.915,5.285,
49336210,-0.347,-0.102,0.922,2.992,10.57,5.67,
49336220,-0.408,-0.113,0.918,-0.787,11.865,7.525,
49336230,-0.419,-0.132,0.903,-3.395,10.92,6.842,
49336240,-0.442,-0.145,0.897,-2.852,7.437,5.46,
49336250,-0.431,-0.139,0.882,-1.47,2.467,4.2,
49336260,-0.417,-0.127,0.875,0.647,-2.17,2.467,
49336270,-0.411,-0.132,0.875,0.875,-5.11,1.925,
49336280,-0.387,-0.134,0.872,1.242,-5.53,0.962,
49336290,-0.383,-0.126,0.882,2.45,-5.162,0.665,
49336300,-0.388,-0.114,0.896,1.855,-3.972,1.435,
49336310,-0.393,-0.122,0.907,0.857,-3.237,1.82,
49336320,-0.395,-0.138,0.919,0.7,-2.24,1.627,
49336330,-0.399,-0.137,0.917,0.962,-1.82,1.26,
49336330,-0.406,-0.129,0.916,2.31,-2.082,0.91,
49336350,-0.395,-0.116,0.912,2.87,-2.187,-0.35,
49336350,-0.387,-0.117,0.899,1.82,-1.732,-0.997,
49336370,-0.387,-0.126,0.89,1.872,-0.735,0,
49336370,-0.396,-0.126,0.891,2.45,0.07,1.312,
49336390,-0.407,-0.126,0.896,2.485,-0.157,1.82,
49336390,-0.409,-0.128,0.9,2.275,-0.367,1.767,
49336410,-0.41,-0.131,0.9,2.135,-1.085,1.575,
49336410,-0.409,-0.131,0.903,2.012,-0.91,1.4,
49336420,-0.412,-0.126,0.906,1.452,-1.26,0.805,
49336430,-0.413,-0.122,0.907,0.157,-1.47,-0.07,
49336440,-0.41,-0.121,0.907,-1.102,-2.66,-0.717,
49336450,-0.408,-0.125,0.899,-1.767,-3.045,-0.577,
49336460,-0.398,-0.124,0.899,-1.75,-3.395,-0.157,
49336470,-0.4,-0.122,0.896,-1.732,-3.027,0.525,
49336480,-0.405,-0.119,0.9,-1.627,-3.377,0.962,
49336490,-0.4,-0.118,0.902,-1.785,-3.57,1.33,
49336500,-0.395,-0.118,0.904,-1.715,-4.235,1.102,
49336510,-0.396,-0.114,0.911,-1.417,-3.972,0.857,
49336520,-0.399,-0.111,0.915,-1.645,-4.147,0.84,
49336530,-0.403,-0.113,0.913,-1.89,-4.042,0.84,
49336540,-0.393,-0.107,0.91,-1.662,-4.357,0.227,
49336550,-0.387,-0.101,0.909,-2.082,-3.955,0.192,
49336560,-0.388,-0.105,0.907,-2.835,-3.797,0.14,
49336570,-0.387,-0.121,0.909,-3.272,-2.695,0.367,
49336580,-0.397,-0.133,0.909,-2.467,-3.027,1.015,
49336590,-0.394,-0.136,0.925,-0.7,-4.445,0.682,
49336600,-0.325,-0.128,0.925,0.7,-3.92,-0.91,
49336610,-0.333,-0.124,0.916,0.035,0.507,-0.245,
49336620,-0.426,-0.119,0.892,-0.7,1.715,-0.35,
49336630,-0.406,-0.121,0.885,0.56,-1.82,-2.502,
49336640,-0.313,-0.116,0.866,1.19,-0.857,-3.045,
49336650,-0.371,-0.124,0.868,1.155,1.54,0.542,
49336660,-0.452,-0.132,0.895,1.522,3.045,3.062,
49336670,-0.446,-0.147,0.895,2.327,0.945,1.505,
49336680,-0.414,-0.14,0.909,2.747,-2.66,-1.4,
49336690,-0.406,-0.145,0.904,1.645,-3.71,-0.752,
49336700,-0.43,-0.161,0.896,1.837,-3.395,-0.297,
49336710,-0.441,-0.168,0.897,2.905,-5.11,-1.505,
49336720,-0.368,-0.131,0.846,4.165,-3.377,-2.73,
49336730,-0.415,-0.114,0.89,4.34,0.612,0.63,
49336740,-0.485,-0.146,0.857,2.45,-2.292,4.042,
49336750,-0.436,-0.138,0.878,4.007,-4.812,2.45,
49336760,-0.395,-0.109,0.867,5.565,-9.012,1.067,
49336760,-0.421,-0.099,0.904,5.285,-9.572,2.555,
49336780,-0.421,-0.113,0.895,4.777,-12.74,1.697,
49336780,-0.378,-0.098,0.912,6.65,-13.37,-0.402,
49336790,-0.378,-0.094,0.927,5.67,-12.722,-0.052,
49336800,-0.393,-0.096,0.95,4.235,-11.76,-0.315,
49336810,-0.391,-0.102,0.966,1.697,-11.602,-1.015,
49336820,-0.361,-0.107,0.957,-0.367,-10.132,-1.505,
49336830,-0.372,-0.11,0.951,-2.537,-8.435,-1.435,
49336840,-0.365,-0.108,0.943,-3.885,-7,-1.33,
49336850,-0.361,-0.113,0.881,-4.742,-3.727,-1.242,
49336860,-0.402,-0.119,0.895,-4.147,-2.52,-2.047,
49336870,-0.378,-0.114,0.845,-3.377,-4.235,-2.292,
49336880,-0.391,-0.123,0.87,-1.242,-3.395,-1.19,
49336890,-0.398,-0.132,0.854,0.297,-5.46,-0.402,
49336900,-0.401,-0.12,0.884,2.345,-5.057,0.577,
49336910,-0.437,-0.136,0.895,2.152,-7.91,1.942,
49336920,-0.405,-0.13,0.911,3.535,-10.447,1.12,
49336930,-0.372,-0.113,0.909,4.55,-11.34,1.382,
49336940,-0.401,-0.123,0.934,3.57,-11.147,3.115,
49336950,-0.359,-0.12,0.9,3.325,-10.815,2.082,
49336960,-0.37,-0.105,0.94,4.27,-8.697,1.557,
49336970,-0.394,-0.12,0.928,1.942,-10.605,1.277,
49336980,-0.336,-0.104,0.93,1.627,-11.305,-0.857,
49336990,-0.321,-0.114,0.928,1.785,-10.027,0.262,
49337000,-0.358,-0.113,0.915,2.467,-9.677,0.7,
49337010,-0.369,-0.111,0.906,3.482,-10.15,-0.595,
49337020,-0.359,-0.093,0.943,5.95,-11.76,-3.71,
49337030,-0.33,-0.117,0.94,5.775,-12.88,-3.622,
49337040,-0.311,-0.082,0.955,7.805,-12.092,-5.162,
49337050,-0.29,-0.124,0.92,1.907,-6.195,-2.852,
49337060,-0.36,-0.151,0.889,8.47,-2.957,-9.817,
49337070,-0.327,-0.033,0.909,11.462,1.47,-12.862,
49337080,-0.406,-0.056,0.889,2.73,3.132,-6.422,
49337080,-0.415,-0.109,0.91,1.067,2.327,-9.31,
49337100,-0.404,-0.133,0.903,1.627,1.82,-7.35,
49337100,-0.452,-0.131,0.922,4.007,-2.87,-3.71,
49337120,-0.453,-0.11,0.909,4.97,-7.665,-4.602,
49337120,-0.416,-0.095,0.881,4.97,-11.62,-6.195,
49337140,-0.391,-0.091,0.852,5.582,-14.192,-4.427,
49337140,-0.369,-0.099,0.859,6.93,-16.205,-1.627,
49337160,-0.336,-0.094,0.888,7.21,-16.117,0.192,
49337160,-0.322,-0.107,0.919,6.3,-14.542,0.385,
49337170,-0.319,-0.076,0.962,3.762,-11.585,-0.647,
49337180,-0.332,-0.121,0.968,0.49,-9.572,-1.645,
49337190,-0.292,-0.107,0.979,2.327,-6.807,-2.24,
49337200,-0.262,-0.084,0.99,3.815,-4.025,-1.4,
49337210,-0.25,-0.033,0.985,2.415,-0.21,-2.222,
49337220,-0.266,-0.067,0.951,-1.032,3.167,-3.692,
49337230,-0.275,-0.076,0.934,-1.75,6.895,-3.5,
49337240,-0.31,-0.082,0.918,-1.977,8.837,-1.365,
49337250,-0.34,-0.089,0.911,-1.662,10.85,-0.927,
49337260,-0.354,-0.086,0.909,-0.262,11.655,0.437,
49337270,-0.366,-0.089,0.917,0.42,12.565,2.747,
49337280,-0.387,-0.101,0.919,1.12,11.777,4.83,
49337290,-0.376,-0.101,0.951,2.152,10.78,4.62,
49337300,-0.362,-0.094,0.949,1.645,9.222,3.657,
49337310,-0.37,-0.095,0.939,0.612,8.592,3.5,
49337320,-0.371,-0.115,0.901,-0.035,8.207,2.485,
49337330,-0.281,-0.091,0.898,1.627,7.91,-2.292,
49337340,-0.363,-0.115,0.849,1.33,9.52,2.502,
49337350,-0.344,-0.122,0.864,4.287,8.4,4.48,
49337360,-0.341,-0.099,0.865,5.32,11.287,5.547,
49337370,-0.405,-0.092,0.879,1.662,14.682,8.102,
49337380,-0.44,-0.117,0.88,-0.665,15.365,5.215,
49337390,-0.473,-0.128,0.906,1.89,11.41,1.05,
49337400,-0.494,-0.118,0.91,3.99,4.48,1.837,
49337410,-0.482,-0.086,0.917,5.127,-2.432,2.485,
49337420,-0.433,-0.074,0.919,3.762,-6.527,0.84,
49337430,-0.41,-0.065,0.914,2.905,-6.965,1.662,
49337440,-0.393,-0.054,0.919,3.535,-6.947,2.292,
49337450,-0.367,-0.043,0.929,4.147,-6.422,3.92,
49337460,-0.352,-0.061,0.925,2.205,-5.932,4.847,
49337460,-0.315,-0.05,0.928,1.61,-4.13,3.797,
49337480,-0.306,-0.038,0.94,0.297,0.682,4.497,
49337480,-0.33,-0.056,0.93,-1.365,5.11,5.04,
49337500,-0.345,-0.077,0.93,-1.277,8.155,3.955,
49337500,-0.384,-0.09,0.931,-1.032,7.385,4.952,
49337510,-0.426,-0.108,0.913,-2.012,4.147,6.037,
49337520,-0.443,-0.11,0.909,-1.417,-0.577,4.952,
49337530,-0.438,-0.103,0.898,-0.717,-5.407,2.887,
49337540,-0.394,-0.064,0.875,0.682,-11.445,-0.157,
49337550,-0.331,-0.031,0.895,2.03,-14.455,-1.942,
49337560,-0.317,-0.045,0.918,1.435,-14.332,-1.82,
49337570,-0.316,-0.053,0.965,0.77,-7.77,-1.417,
49337580,-0.416,-0.09,0.984,-2.205,-1.225,0.98,
49337590,-0.471,-0.105,0.949,-4.777,-1.12,0.455,
49337600,-0.406,-0.076,0.924,-6.037,-2.572,-0.332,
49337610,-0.426,-0.086,0.901,-9.52,-2.94,0.595,
49337620,-0.444,-0.122,0.887,-10.342,-5.162,1.207,
49337630,-0.414,-0.129,0.863,-7.437,-8.347,0.07,
49337640,-0.396,-0.1,0.855,-3.255,-10.85,-0.14,
49337650,-0.409,-0.081,0.858,-0.577,-10.307,1.067,
49337660,-0.397,-0.102,0.87,-0.087,-9.87,2.94,
49337670,-0.375,-0.106,0.886,-0.105,-8.26,3.762,
49337680,-0.363,-0.1,0.906,1.207,-8.662,3.937,
49337690,-0.326,-0.084,0.928,1.662,-9.082,4.62,
49337700,-0.279,-0.074,0.937,1.137,-8.837,5.32,
49337710,-0.27,-0.071,0.926,1.032,-5.547,5.495,
49337720,-0.285,-0.078,0.928,2.45,-1.592,5.337,
49337730,-0.327,-0.107,0.886,2.432,2.572,7.192,
49337740,-0.351,-0.106,0.897,4.9,2.677,5.967,
49337750,-0.348,-0.108,0.917,5.092,5.74,5.04,
49337760,-0.443,-0.091,0.96,3.675,4.252,3.115,
49337770,-0.468,-0.066,0.965,-0.087,0.192,-0.717,
49337780,-0.445,-0.072,0.994,-1.19,-5.81,-2.677,
49337790,-0.441,-0.065,1.006,-2.572,-9.397,1.102,
49337800,-0.418,-0.062,1.02,-6.825,-14.21,-0.962,
49337810,-0.341,-0.05,1.036,-10.675,-14.472,-4.532,
49337820,-0.326,-0.042,1.058,-15.172,-11.637,-4.9,
49337830,-0.299,-0.033,1.062,-19.197,-5.232,-5.442,
49337830,-0.286,-0.094,0.966,-24.062,3.202,-3.465,
49337850,-0.255,-0.149,0.87,-15.592,9.24,3.272,
49337850,-0.185,-0.164,0.898,-7.822,20.79,12.74,
49337870,-0.203,-0.131,0.826,-14.017,41.475,19.215,
49337870,-0.571,-0.181,0.865,-22.802,62.965,24.885,
49337890,-0.562,-0.229,0.819,-10.465,63.122,15.715,
49337890,-0.697,-0.223,0.969,6.667,56.035,19.792,
49337910,-0.855,-0.223,0.956,17.797,31.99,31.71,
49337910,-0.554,-0.106,1.019,34.44,16.922,15.715,
49337920,-0.387,-0.049,1.031,37.502,5.372,3.22,
49337930,-0.344,-0.091,0.983,32.655,7.822,4.007,
49337940,-0.353,-0.14,1.015,39.462,16.012,4.847,
49337950,-0.361,-0.137,0.978,49.385,23.065,4.165,
49337960,-0.38,-0.103,1.013,57.785,25.637,3.36,
49337970,-0.437,-0.055,0.969,66.727,19.005,1.662,
49337980,-0.384,0.034,0.979,72.38,10.92,0.175,
49337990,-0.423,0.106,0.977,64.575,-1.47,-1.61,
49338000,-0.468,0.109,0.952,48.125,-16.59,-5.232,
49338010,-0.493,0.055,0.901,37.817,-33.6,-9.31,
49338020,-0.381,0.053,0.851,37.94,-48.947,-13.807,
49338030,-0.209,0.187,0.849,36.645,-53.2,-17.57,
49338040,-0.182,0.327,0.856,18.392,-48.615,-18.917,
49338050,-0.143,0.38,0.802,-11.882,-32.882,-18.532,
49338060,-0.142,0.354,0.737,-54.285,-9.852,-14.892,
49338070,-0.259,0.203,0.658,-97.195,11.725,-18.112,
49338080,-0.333,0.053,0.576,-129.342,30.555,-24.57,
49338090,-0.688,-0.135,0.63,-145.862,20.72,-25.602,
49338100,-0.581,-0.214,0.571,-126.805,-4.672,-32.112,
49338110,-0.366,-0.224,0.591,-90.09,-17.745,-17.045,
49338120,-0.564,-0.189,0.706,-73.325,-30.957,0.507,
49338130,-0.537,-0.129,0.735,-73.377,-40.057,-5.372,
49338140,-0.357,-0.157,0.747,-67.532,-36.557,-15.977,
49338150,-0.341,-0.201,0.773,-57.785,-25.55,-11.935,
49338160,-0.689,-0.571,0.769,-20.947,-25.795,16.642,
49338170,-0.492,-0.292,0.968,12.81,-31.325,3.99,
49338170,-0.44,-0.154,1.019,17.01,-35.56,-4.112,
49338190,-0.395,-0.142,1.075,18.445,-32.777,-9.135,
49338190,-0.327,-0.121,1.085,21.245,-26.687,-13.51,
49338210,-0.277,-0.048,1.085,22.015,-16.66,-14.14,
49338210,-0.282,-0.037,1.051,12.04,-3.447,-12.565,
49338230,-0.371,-0.107,1.014,3.22,8.085,-10.377,
49338230,-0.356,-0.118,0.965,1.295,17.517,-11.567,
49338250,-0.297,-0.175,0.942,-1.54,22.26,-6.632,
49338250,-0.454,-0.156,0.921,-4.375,26.617,-4.672,
49338260,-0.461,-0.12,0.922,-4.042,20.807,-8.12,
49338270,-0.413,-0.128,0.882,-7.14,14,-7.262,
49338280,-0.406,-0.127,0.856,-9.922,7,-3.885,
49338290,-0.414,-0.139,0.824,-14.455,3.272,1.207,
49338300,-0.401,-0.169,0.824,-16.415,-0.035,0.035,
49338310,-0.399,-0.165,0.834,-17.535,-7.385,-1.767,
49338320,-0.331,-0.152,0.794,-17.272,-14.035,-2.17,
49338330,-0.268,-0.106,0.864,-11.742,-8.155,-3.08,
49338340,-0.345,-0.126,0.876,-13.842,-4.62,1.102,
49338350,-0.382,-0.118,0.89,-18.007,-2.135,-0.875,
49338360,-0.368,-0.144,0.904,-18.882,-2.467,-7.752,
49338370,-0.383,-0.164,0.912,-17.99,-2.887,-11.725,
49338380,-0.414,-0.228,0.906,-14.542,-8.19,-15.26,
49338390,-0.365,-0.181,0.947,-8.645,-10.605,-17.955,
49338400,-0.364,-0.196,0.953,-5.11,-9.502,-20.65,
49338410,-0.357,-0.145,0.962,3.307,-9.572,-24.535,
49338420,-0.385,-0.106,0.96,2.24,-12.722,-19.127,
49338430,-0.365,-0.122,0.909,0.7,-19.95,-17.902,
49338440,-0.177,-0.149,0.926,-0.262,-17.307,-16.1,
49338450,-0.138,-0.178,0.906,-1.855,-0.63,-11.252,
49338460,-0.157,-0.159,0.93,-0.28,24.062,-8.085,
49338470,-0.266,-0.158,0.968,-3.202,46.602,-3.08,
49338480,-0.395,-0.139,0.981,-11.2,59.535,-2.467,
49338490,-0.434,-0.18,0.96,-16.275,63.84,-9.572,
49338500,-0.439,-0.197,0.948,-23.87,64.032,-19.127,
49338510,-0.452,-0.201,0.884,-33.565,62.44,-30.03,
49338520,-0.492,-0.206,0.869,-34.51,55.895,-31.115,
49338530,-0.454,-0.25,0.875,-29.802,46.69,-25.987,
49338540,-0.323,-0.195,0.843,-18.742,45.587,-20.545,
49338550,-0.238,-0.14,0.883,-12.337,60.13,-16.415,
49338560,-0.353,-0.15,0.868,-20.037,76.597,-10.272,
49338570,-0.479,-0.188,0.91,-27.02,84.56,-14.035,
49338580,-0.574,-0.272,0.918,-32.2,82.722,-24.325,
49338580,-0.682,-0.302,0.917,-28.857,63.822,-43.942,
49338600,-0.522,-0.336,0.906,-26.355,44.765,-61.285,
49338600,-0.382,-0.367,0.8,-12.722,46.095,-75.057,
49338620,-0.471,-0.239,0.826,3.342,47.495,-76.09,
49338620,-0.549,-0.168,0.756,0.402,44.327,-66.815,
49338640,-0.527,-0.179,0.757,-2.397,43.47,-61.407,
49338640,-0.571,-0.205,0.717,-8.435,33.845,-55.37,
49338660,-0.531,-0.219,0.721,-14.07,22.487,-53.48,
49338660,-0.365,-0.267,0.667,-19.425,23.1,-47.932,
49338670,-0.379,-0.296,0.734,-20.737,45.57,-36.942,
49338680,-0.705,-0.363,0.785,-23.45,55.492,-28.262,
49338690,-0.783,-0.374,0.78,-20.44,44.712,-30.975,
49338700,-0.693,-0.393,0.793,-10.937,23.765,-37.835,
49338710,-0.561,-0.325,0.768,-5.495,8.032,-34.02,
49338720,-0.531,-0.23,0.835,-3.552,0.087,-27.755,
49338730,-0.452,-0.264,0.854,-14.892,1.75,-17.99,
49338740,-0.434,-0.352,0.855,-15.645,8.715,-17.692,
49338750,-0.463,-0.298,0.847,-10.85,13.37,-5.582,
49338760,-0.441,-0.283,0.83,-11.865,16.345,-2.677,
49338770,-0.462,-0.32,0.795,-16.17,22.172,-1.102,
49338780,-0.543,-0.401,0.737,-21.227,24.36,-7.052,
49338790,-0.568,-0.418,0.759,-21.35,24.342,-15.592,
49338800,-0.606,-0.449,0.734,-22.26,21.7,-15.61,
49338810,-0.662,-0.481,0.763,-15.592,17.727,-11.515,
49338820,-0.694,-0.515,0.772,-9.327,10.657,-7.262,
49338830,-0.645,-0.519,0.764,0.542,7.157,-16.485,
49338840,-0.64,-0.449,0.721,7.892,7.227,-22.382,
49338850,-0.602,-0.335,0.756,13.09,7.42,-23.922,
49338860,-0.538,-0.391,0.699,2.485,11.777,-28.315,
49338870,-0.564,-0.421,0.696,3.307,17.342,-37.222,
49338880,-0.501,-0.297,0.719,0.227,18.602,-38.255,
49338890,-0.407,-0.28,0.65,-4.83,28.42,-25.287,
49338900,-0.63,-0.281,0.772,-5.25,32.882,-11.567,
49338910,-0.519,-0.261,0.642,-27.247,29.172,-3.115,
49338920,-0.46,-0.444,0.7,-38.202,44.607,-8.225,
49338920,-0.75,-0.765,0.691,-27.527,33.827,-13.247,
49338940,-0.527,-0.442,0.734,23.782,28.262,-35.56,
49338940,-0.676,-0.089,0.822,26.372,19.425,-30.817,
49338960,-0.618,-0.322,0.703,3.867,17.605,-25.865,
49338960,-0.655,-0.436,0.681,8.645,10.657,-16.677,
49338980,-0.674,-0.358,0.709,18.34,0.455,-11.322,
49338980,-0.637,-0.323,0.697,17.99,-8.417,-12.547,
49339000,-0.644,-0.371,0.714,15.365,-15.452,-13.002,
49339000,-0.64,-0.383,0.744,15.785,-23.922,-13.405,
49339010,-0.587,-0.352,0.769,14.07,-30.625,-11.76,
49339020,-0.495,-0.297,0.799,11.235,-34.09,-5.565,
49339030,-0.423,-0.255,0.815,9.24,-32.567,3.115,
49339040,-0.569,-0.27,0.715,-4.62,-30.257,20.842,
49339050,-0.504,-0.318,0.717,1.942,-35.367,16.152,
49339060,-0.457,-0.271,0.781,-0.175,-37.975,10.167,
49339070,-0.486,-0.29,0.815,-3.272,-36.907,12.197,
49339080,-0.558,-0.364,0.825,-6.212,-39.34,13.86,
49339090,-0.517,-0.402,0.82,-3.675,-42.577,12.985,
49339100,-0.546,-0.36,0.828,-0.472,-46.742,14.91,
49339110,-0.518,-0.336,0.81,-4.9,-48.965,11.305,
49339120,-0.367,-0.236,0.732,-17.202,-42.7,-2.712,
49339130,-0.468,-0.187,0.743,-19.407,-34.265,15.785,
49339140,-0.58,-0.467,0.71,-10.08,-37.905,34.895,
49339150,-0.374,-0.395,0.782,0.875,-36.907,7.402,
49339160,-0.453,-0.317,0.788,-7.927,-27.177,-1.365,
49339170,-0.543,-0.354,0.81,-15.767,-23.432,5.687,
49339180,-0.606,-0.442,0.775,-17.307,-27.545,13.912,
49339190,-0.561,-0.537,0.747,-8.697,-35.542,15.452,
49339200,-0.448,-0.468,0.768,5.757,-33.477,9.905,
49339210,-0.509,-0.411,0.769,9.677,-28.017,15.207,
49339220,-0.493,-0.416,0.745,11.182,-25.637,14.682,
49339230,-0.457,-0.476,0.683,17.675,-26.197,17.237,
49339240,-0.428,-0.477,0.646,31.535,-25.987,21.542,
49339250,-0.395,-0.401,0.648,47.075,-25.41,27.982,
49339260,-0.287,-0.346,0.692,52.097,-21.525,31.727,
49339270,-0.24,-0.353,0.726,48.895,-8.452,30.52,
49339280,-0.334,-0.344,0.745,45.867,0.227,28.665,
49339290,-0.381,-0.315,0.767,47.985,2.397,34.807,
49339300,-0.485,-0.317,0.864,48.965,-2.17,43.995,
49339310,-0.399,-0.282,0.886,50.452,-5.477,42.892,
49339320,-0.33,-0.16,0.903,49.927,-0.42,43.715,
49339330,-0.33,-0.099,0.9,41.265,9.642,46.445,
49339330,-0.35,-0.121,0.872,29.802,23.17,44.52,
49339350,-0.417,-0.216,0.811,21.332,32.847,38.412,
49339350,-0.46,-0.214,0.792,25.27,42,30.065,
49339370,-0.649,-0.249,0.851,34.965,42.245,31.937,
49339370,-0.57,-0.13,0.877,25.445,43.732,11.392,
49339390,-0.625,-0.17,0.883,10.552,46.707,5.355,
49339390,-0.71,-0.232,0.862,9.222,43.47,10.85,
49339410,-0.66,-0.189,0.896,16.065,35.035,12.11,
49339410,-0.613,-0.184,0.848,12.565,29.295,12.775,
49339420,-0.593,-0.196,0.818,10.29,26.687,11.06,
49339430,-0.606,-0.188,0.841,16.59,22.067,13.02,
49339440,-0.553,-0.137,0.865,11.042,19.442,4.532,
49339450,-0.565,-0.147,0.884,4.725,19.6,1.54,
49339460,-0.589,-0.173,0.858,-1.312,18.55,-1.925,
49339470,-0.609,-0.193,0.827,-3.797,14.367,0.385,
49339480,-0.599,-0.184,0.829,-4.97,9.695,2.52,
49339490,-0.641,-0.182,0.847,-6.947,6.212,5.53,
49339500,-0.659,-0.182,0.847,-10.115,0.682,7.997,
49339510,-0.662,-0.171,0.865,-14.7,-4.707,7.28,
49339520,-0.628,-0.156,0.858,-21.805,-10.01,5.722,
49339530,-0.575,-0.139,0.883,-29.522,-11.935,3.325,
49339540,-0.473,-0.191,0.726,-36.33,-9.817,2.24,
49339550,-0.541,-0.181,0.779,-35.315,-0.56,0.507,
49339560,-0.626,-0.226,0.768,-35.997,2.537,1.417,
49339570,-0.591,-0.262,0.745,-33.215,1.522,-0.315,
49339580,-0.565,-0.277,0.746,-28.945,-0.962,-1.225,
49339590,-0.558,-0.295,0.711,-24.272,-2.677,-0.35,
49339600,-0.553,-0.293,0.695,-17.185,-3.832,0.157,
49339610,-0.53,-0.292,0.725,-11.742,-4.532,1.627,
49339620,-0.511,-0.308,0.736,-6.982,-3.675,3.342,
49339630,-0.482,-0.289,0.731,-1.855,-2.485,5.582,
49339640,-0.463,-0.275,0.707,1.19,-1.61,9.817,
49339650,-0.454,-0.278,0.719,2.415,-1.12,16.24,
49339660,-0.479,-0.287,0.749,0.175,-1.505,22.855,
49339670,-0.574,-0.311,0.735,-1.33,-4.515,26.285,
49339670,-0.637,-0.322,0.74,-0.787,-10.15,23.345,
49339690,-0.667,-0.31,0.784,3.202,-12.81,16.345,
49339690,-0.746,-0.25,0.848,4.952,-17.675,11.742,
49339710,-0.71,-0.187,0.878,4.025,-25.69,6.825,
49339710,-0.527,-0.144,0.957,-4.235,-28.91,3.062,
49339730,-0.482,-0.125,0.831,-14.717,-24.605,4.777,
49339730,-0.569,-0.076,0.872,-25.077,-19.407,8.295,
49339750,-0.595,-0.124,0.904,-35.525,-16.345,5.547,
49339750,-0.588,-0.164,0.871,-47.162,-12.6,0.052,
49339760,-0.681,-0.234,0.8,-56.612,-15.89,-1.61,
49339770,-0.757,-0.364,0.652,-59.657,-24.325,-6.65,
49339780,-0.809,-0.349,0.669,-47.285,-36.19,-13.615,
49339790,-0.761,-0.291,0.79,-42.945,-55.352,-18.935,
49339800,-0.6,-0.391,0.81,-41.597,-67.497,-18.882,
49339810,-0.448,-0.439,0.862,-28.875,-66.552,-17.255,
49339820,-0.316,-0.317,0.9,-14.332,-62.965,-14.297,
49339830,-0.16,-0.181,0.901,-4.042,-50.137,-12.232,
49339840,-0.187,-0.114,0.85,-1.75,-28.035,-8.872,
49339850,-0.309,-0.184,0.759,-5.197,-9.887,-1.645,
49339860,-0.255,-0.197,0.796,-1.312,3.727,1.697,
49339870,-0.249,-0.155,0.878,-2.887,19.757,7.56,
49339880,-0.423,-0.184,0.943,-14.735,32.55,12.792,
49339890,-0.614,-0.283,0.912,-25.235,35.49,9.992,
49339900,-0.737,-0.354,0.875,-28.91,29.54,2.782,
49339910,-0.819,-0.374,0.842,-30.66,18.147,-3.885,
49339920,-0.887,-0.405,0.832,-33.775,3.202,-14.455,
49339930,-0.883,-0.431,0.793,-33.722,-13.632,-27.3,
49339940,-0.833,-0.424,0.75,-29.365,-31.535,-34.51,
49339950,-0.788,-0.392,0.78,-23.835,-49.367,-29.977,
49339960,-0.706,-0.404,0.773,-20.125,-67.812,-25.585,
49339970,-0.546,-0.431,0.758,-14.332,-82.547,-22.47,
49339980,-0.423,-0.428,0.749,-6.702,-91.63,-16.38,
49339990,-0.295,-0.355,0.786,2.922,-93.047,-12.775,
49340000,-0.241,-0.261,0.807,5.722,-84.227,-12.32,
49340010,-0.26,-0.275,0.804,-1.907,-73.657,-14.77,
49340020,-0.286,-0.32,0.807,-6.527,-64.89,-21,
49340030,-0.308,-0.346,0.779,-5.46,-58.695,-21.507,
49340040,-0.389,-0.329,0.815,-1.137,-54.215,-18.795,
49340050,-0.464,-0.345,0.839,0.787,-55.072,-14.542,
49340060,-0.448,-0.358,0.843,4.585,-59.237,-14.14,
49340070,-0.421,-0.352,0.867,9.17,-63.91,-13.86,
49340080,-0.448,-0.35,0.855,9.345,-66.272,-16.327,
49340080,-0.466,-0.323,0.871,7.595,-69.037,-22.155,
49340100,-0.454,-0.313,0.895,1.96,-73.465,-25.392,
49340100,-0.386,-0.303,0.896,-2.24,-77.752,-26.337,
49340120,-0.274,-0.275,0.901,-3.552,-77.84,-22.33,
49340120,-0.114,-0.235,0.879,-9.03,-68.67,-18.48,
49340140,0.034,-0.205,0.787,-19.985,-45.43,-11.69,
49340140,0.049,-0.14,0.481,-28.105,-14.595,-4.462,
49340160,-0.366,-0.003,0.929,-27.615,8.96,1.872,
49340160,-0.058,-0.413,1.211,-59.15,-5.162,-6.685,
49340170,0.281,-0.856,0.787,-67.095,-5.46,-17.01,
49340180,-0.189,-0.673,0.63,-36.627,-0.577,-9.012,
49340190,-0.203,-0.222,0.812,-12.215,3.972,-9.432,
49340200,-0.282,-0.315,0.893,-18.392,4.235,0.595,
49340210,-0.26,-0.511,0.841,-29.75,4.795,1.662,
49340220,-0.279,-0.494,0.847,-21.122,2.852,3.255,
49340230,-0.234,-0.348,0.894,-12.162,2.24,3.675,
49340240,-0.248,-0.283,0.923,-16.905,2.397,4.165,
49340250,-0.277,-0.354,0.903,-24.762,5.652,5.215,
49340260,-0.323,-0.404,0.947,-28.332,7,0.997,
49340270,-0.412,-0.461,0.903,-29.767,5.687,-5.932,
49340280,-0.48,-0.495,0.87,-24.92,-3.325,-11.287,
49340290,-0.457,-0.512,0.834,-18.69,-13.86,-11.252,
49340300,-0.437,-0.574,0.779,-14.315,-23.66,-15.767,
49340310,-0.414,-0.598,0.751,-5.932,-32.217,-20.387,
49340320,-0.349,-0.544,0.759,2.922,-42,-20.23,
49340330,-0.229,-0.462,0.803,11.935,-47.932,-18.322,
49340340,-0.124,-0.371,0.856,18.655,-48.895,-14.77,
49340350,-0.074,-0.317,0.947,17.937,-47.407,-10.57,
49340360,0.071,-0.317,0.816,12.722,-37.87,-8.242,
49340370,0.04,-0.28,0.834,11.637,-21.28,-3.692,
49340380,0.034,-0.324,0.829,6.44,-5.6,0.262,
49340390,0.026,-0.381,0.802,2.992,8.89,6.65,
49340400,0.015,-0.376,0.82,3.605,23.887,8.47,
49340410,0.063,-0.315,0.878,6.685,37.047,12.95,
49340420,0.143,-0.212,0.904,4.27,52.552,24.097,
49340420,0.104,-0.219,0.892,-6.755,71.977,28.245,
49340440,-0.114,-0.383,0.811,-16.73,90.965,27.93,
49340440,-0.364,-0.553,0.694,-14.56,97.195,27.877,
49340460,-0.681,-0.775,0.53,9.45,88.882,30.852,
49340460,-0.705,-0.752,0.669,41.352,68.862,27.09,
49340480,-0.683,-0.574,0.752,50.575,54.757,18.41,
49340480,-0.68,-0.47,0.887,56.752,40.495,18.322,
49340500,-0.517,-0.372,1.089,60.357,24.675,18.112,
49340500,-0.462,-0.315,1.078,55.562,9.012,26.372,
49340510,-0.341,-0.294,1.114,44.782,3.255,17.412,
49340520,-0.356,-0.369,0.976,37.187,2.922,5.897,
49340530,-0.416,-0.39,0.901,39.725,-0.647,1.557,
49340540,-0.364,-0.39,0.866,48.23,-8.61,-0.455,
49340550,-0.244,-0.447,0.833,65.397,-16.852,6.16,
49340560,-0.118,-0.405,0.856,84.262,-19.407,13.055,
49340570,-0.009,-0.351,0.886,98.647,-12.6,22.82,
49340580,-0.062,-0.312,0.857,105.297,1.4,36.522,
49340590,-0.136,-0.251,0.908,102.007,19.827,43.032,
49340600,-0.336,-0.269,0.996,87.605,31.5,40.005,
49340610,-0.631,-0.314,1.097,70.14,27.387,25.025,
49340620,-0.833,-0.323,1.232,54.477,1.995,-1.715,
49340630,-0.784,-0.301,1.295,42.962,-30.975,-21.595,
49340640,-0.505,-0.291,1.33,30.082,-51.38,-28.612,
49340650,-0.252,-0.274,1.321,19.967,-45.832,-20.79,
49340660,-0.183,-0.268,1.295,6.702,-19.827,-2.922,
49340670,-0.238,-0.349,1.243,-12.495,14.752,13.02,
49340680,-0.307,-0.444,1.143,-28.752,44.905,11.847,
49340690,-0.363,-0.656,1.072,-25.252,58.327,-1.242,
49340700,-0.384,-0.67,0.975,5.88,65.852,-19.652,
49340710,-0.516,-0.498,0.995,37.345,56.315,-26.512,
49340720,-0.619,-0.354,0.929,49.857,31.307,-22.82,
49340730,-0.611,-0.259,0.88,59.902,0.175,-25.707,
49340740,-0.554,-0.171,0.803,56.997,-34.475,-32.182,
49340750,-0.501,-0.122,0.736,44.59,-67.742,-37.555,
49340760,-0.419,-0.031,0.704,26.39,-94.745,-43.347,
49340770,-0.344,0.019,0.662,0.42,-117.127,-48.265,
49340780,-0.277,0.039,0.665,-25.62,-133.14,-52.062,
49340790,-0.241,0.044,0.631,-60.707,-143.902,-53.602,
49340800,-0.213,-0.04,0.598,-90.405,-147.997,-56.56,
49340810,-0.167,-0.12,0.588,-113.54,-147.105,-62.562,
49340820,-0.168,-0.161,0.589,-130.637,-141.155,-68.582,
49340830,-0.175,-0.197,0.584,-137.2,-134.172,-75.705,
49340830,-0.201,-0.244,0.581,-134.137,-128.712,-77.455,
49340840,-0.195,-0.26,0.578,-125.65,-124.74,-77.577,
49340850,-0.15,-0.279,0.583,-112.927,-120.26,-76.352,
49340860,-0.112,-0.275,0.613,-95.97,-114.625,-70.7,
49340870,-0.061,-0.248,0.631,-84.7,-105.472,-62.457,
49340880,-0.11,-0.375,0.706,-61.985,-94.92,-45.552,
49340890,0.043,-0.184,0.736,-61.757,-79.467,-40.547,
49340900,-0.026,-0.296,0.808,-54.092,-65.397,-25.62,
49340910,-0.011,-0.313,0.81,-49.157,-50.05,-17.867,
49340920,-0.058,-0.375,0.859,-40.11,-39.095,-11.217,
49340930,-0.083,-0.396,0.875,-28.787,-29.82,-7.717,
49340940,-0.111,-0.406,0.902,-15.592,-25.655,-5.18,
49340950,-0.132,-0.397,0.92,-4.76,-25.445,-3.762,
49340960,-0.163,-0.416,0.963,5.81,-28.717,-5.74,
49340970,-0.152,-0.388,0.993,11.952,-34.352,-4.27,
49340980,-0.116,-0.396,1.004,19.827,-39.217,0.385,
49340990,-0.071,-0.353,1.04,23.642,-39.637,1.942,
49341000,-0.066,-0.324,1.033,22.627,-40.53,2.677,
49341010,-0.048,-0.35,1.021,21.945,-40.197,-1.172,
49341020,-0.016,-0.304,1.027,19.197,-41.877,-2.555,
49341030,0.001,-0.303,1.017,11.217,-46.025,-0.525,
49341040,0.055,-0.327,0.98,5.547,-48.247,-0.07,
49341050,0.127,-0.337,0.954,7.402,-46.025,-3.132,
49341060,0.142,-0.328,0.973,9.047,-42.717,-5.232,
49341070,0.176,-0.297,1.003,7.35,-39.077,-6.562,
49341080,0.229,-0.3,1.017,-0.122,-34.335,-7.962,
49341090,0.27,-0.328,1.008,-10.762,-27.685,-8.26,
49341100,0.305,-0.374,1.014,-18.935,-18.585,-7.472,
49341110,0.36,-0.429,1.017,-24.115,-5.705,-5.267,
49341120,0.303,-0.458,1.058,-29.662,8.575,-1.575,
49341130,0.234,-0.465,1.017,-29.732,20.667,-4.637,
49341140,0.142,-0.486,0.993,-22.697,22.452,-8.732,
49341150,0.156,-0.491,0.981,-14.175,20.335,-9.73,
49341160,0.171,-0.473,0.965,-8.995,19.88,-6.912,
49341170,0.131,-0.42,0.954,-7.56,19.302,-9.1,
49341170,0.089,-0.367,0.936,-11.812,18.375,-15.417,
49341190,0.055,-0.372,0.904,-22.557,11.637,-18.252,
49341190,0.067,-0.411,0.84,-32.48,5.827,-21.262,
49341210,0.089,-0.441,0.806,-36.89,1.995,-23.275,
49341210,0.089,-0.468,0.8,-38.36,1.312,-20.545,
49341230,0.081,-0.522,0.793,-38.01,5.25,-16.257,
49341230,0.078,-0.55,0.783,-32.427,13.3,-15.19,
49341250,0.071,-0.557,0.764,-25.567,22.785,-14.945,
49341250,0.005,-0.546,0.781,-21.28,29.82,-15.557,
49341260,-0.078,-0.549,0.777,-18.865,29.732,-18.392,
49341270,-0.114,-0.559,0.778,-13.405,24.237,-22.89,
49341280,-0.15,-0.587,0.814,-6.055,10.605,-25.987,
49341290,-0.115,-0.606,0.803,0.595,-5.425,-27.72,
49341300,-0.023,-0.602,0.82,8.837,-19.145,-26.88,
49341310,0.038,-0.583,0.842,16.555,-24.64,-22.592,
49341320,0.082,-0.549,0.859,23.695,-23.222,-23.082,
49341330,0.094,-0.479,0.872,27.545,-18.34,-27.93,
49341340,0.078,-0.409,0.899,24.885,-17.115,-30.572,
49341350,0.031,-0.376,0.919,15.767,-20.247,-29.54,
49341360,0.06,-0.373,0.911,6.825,-26.46,-27.842,
49341370,0.146,-0.366,0.883,-1.382,-30.957,-22.697,
49341380,0.167,-0.367,0.867,-10.062,-30.047,-13.667,
49341390,0.224,-0.319,0.854,-16.625,-22.592,-8.68,
49341400,0.291,-0.272,0.894,-28.752,-9.817,-5.495,
49341410,0.25,-0.257,0.877,-49.927,2.415,-1.627,
49341420,0.227,-0.308,0.877,-70.157,10.657,-0.84,
49341430,0.178,-0.402,0.796,-82.11,14.28,-0.857,
49341440,0.088,-0.492,0.815,-80.552,9.31,0.472,
49341450,0.132,-0.553,0.784,-70.262,4.725,3.99,
49341460,0.138,-0.577,0.772,-52.395,1.732,7.28,
49341470,0.104,-0.636,0.849,-31.132,1.295,5.075,
49341480,0.149,-0.676,0.853,-15.505,4.357,-2.31,
49341490,0.135,-0.62,0.861,4.042,8.96,-9.345,
49341500,0.05,-0.505,0.872,15.872,5.88,-12.862,
49341510,0.049,-0.443,0.899,16.38,-4.497,-13.177,
49341510,0.15,-0.463,0.855,8.05,-9.66,-10.255,
49341530,0.137,-0.519,0.821,5.32,-9.275,-4.917,
49341530,0.126,-0.513,0.804,8.102,-5.32,0.14,
49341550,0.115,-0.479,0.823,11.06,-1.487,4.637,
49341550,0.118,-0.471,0.837,11.077,2.397,7.402,
49341570,0.124,-0.496,0.853,10.342,7.192,12.127,
49341570,0.081,-0.533,0.891,11.41,10.99,19.022,
49341580,0.085,-0.538,0.947,14.945,12.25,22.05,
49341590,0.141,-0.543,1.02,17.85,14.507,23.362,
49341600,0.174,-0.578,1.104,17.622,21.297,24.062,
49341610,0.139,-0.626,1.214,15.82,29.137,20.93,
49341620,0.091,-0.706,1.267,17.15,33.67,14.087,
49341630,0.113,-0.763,1.318,29.68,36.907,6.825,
49341640,0.155,-0.748,1.336,52.237,44.485,3.762,
49341650,0.134,-0.661,1.347,74.935,56.577,5.075,
49341660,0.116,-0.535,1.322,94.675,72.117,7.49,
49341670,0.035,-0.441,1.253,108.132,91.052,18.497,
49341680,-0.076,-0.336,1.175,116.637,106.347,32.042,
49341690,-0.228,-0.205,1.089,120.96,113.662,50.785,
49341700,-0.308,-0.057,0.981,120.05,113.242,64.855,
49341710,-0.356,0.056,0.849,109.882,110.67,81.147,
49341720,-0.409,0.146,0.735,94.517,106.032,96.25,
49341730,-0.442,0.196,0.639,76.597,99.732,105.297,
49341740,-0.465,0.211,0.57,57.592,90.475,114.485,
49341750,-0.473,0.189,0.5,36.19,79.415,118.702,
49341760,-0.504,0.135,0.478,15.015,65.817,116.9,
49341770,-0.512,0.089,0.462,-6.877,48.562,110.932,
49341780,-0.493,0.005,0.442,-25.427,28.665,103.04,
49341790,-0.442,-0.05,0.464,-40.81,7.91,93.887,
49341800,-0.37,-0.128,0.457,-55.912,-12.617,83.195,
49341810,-0.286,-0.2,0.496,-66.255,-28.7,72.275,
49341820,-0.193,-0.261,0.558,-77.157,-41.597,60.462,
49341830,-0.27,-0.401,0.531,-88.13,-54.897,57.942,
49341840,-0.17,-0.524,0.587,-78.365,-64.837,37.625,
49341850,-0.105,-0.562,0.636,-67.41,-72.835,34.037,
49341860,-0.084,-0.574,0.654,-57.627,-78.662,32.27,
49341870,-0.016,-0.521,0.729,-48.685,-81.2,23.502,
49341880,0.081,-0.475,0.767,-49.735,-83.387,20.457,
49341890,0.204,-0.482,0.831,-51.607,-77.875,20.597,
49341900,0.272,-0.501,0.907,-57.26,-64.802,22.61,
49341910,0.267,-0.542,0.954,-66.99,-48.405,24.5,
49341920,0.214,-0.635,0.96,-72.905,-32.06,20.212,
49341920,0.21,-0.696,0.968,-71.872,-18.182,9.87,
49341940,0.172,-0.73,0.955,-66.692,-6.895,2.677,
49341940,0.166,-0.722,1.011,-58.957,1.19,-4.9,
49341960,0.119,-0.788,0.945,-52.535,9.31,-9.607,
49341960,0.072,-0.806,0.937,-38.972,14.997,-12.6,
49341980,0.017,-0.785,0.898,-17.43,16.957,-8.33,
49341980,-0.015,-0.715,0.92,4.567,17.29,-2.152,
49342000,-0.097,-0.611,0.937,17.71,11.077,1.977,
49342000,-0.032,-0.584,1.023,16.835,-2.572,1.785,
49342010,0.344,-0.7,0.958,0.28,16.275,3.5,
49342020,0.099,-0.812,0.898,-7.875,42.087,13.545,
49342030,-0.297,-0.72,0.915,-2.205,46.375,17.395,
49342040,-0.302,-0.624,0.875,4.27,29.12,15.977,
49342050,-0.126,-0.582,0.801,7.875,12.81,13.387,
49342060,-0.053,-0.545,0.776,11.095,9.695,9.677,
49342070,-0.066,-0.488,0.764,12.565,16.747,1.855,
49342080,-0.116,-0.46,0.755,13.247,21.7,-3.92,
49342090,-0.121,-0.474,0.787,15.662,23.625,-8.68,
49342100,-0.106,-0.464,0.822,20.667,21.245,-14.945,
49342110,-0.06,-0.405,0.883,23.537,20.65,-18.27,
49342120,-0.197,-0.371,0.946,19.6,15.19,-14.63,
49342130,-0.28,-0.324,0.932,12.11,-2.397,-16.537,
49342140,-0.027,-0.284,0.899,0.245,-14.14,-23.782,
49342150,0.317,-0.35,0.923,-12.967,5.162,-21,
49342160,0.174,-0.46,0.891,-19.617,49.175,-10.01,
49342170,-0.354,-0.469,0.883,-21,62.912,3.832,
49342180,-0.384,-0.423,0.889,-21.577,54.18,8.417,
49342190,-0.295,-0.482,0.903,-22.89,39.497,12.215,
49342200,-0.348,-0.529,0.89,-24.097,28.157,16.537,
49342210,-0.408,-0.522,0.871,-22.75,18.567,20.825,
49342220,-0.419,-0.518,0.867,-17.657,9.345,26.6,
49342230,-0.456,-0.525,0.83,-9.345,2.082,35.332,
49342240,-0.397,-0.462,0.835,-0.927,-5.11,37.957,
49342250,-0.248,-0.445,0.862,-2.957,-6.947,36.96,
49342260,-0.171,-0.443,0.825,-6.422,3.132,43.767,
49342260,-0.329,-0.399,0.786,-14,13.982,57.33,
49342280,-0.545,-0.504,0.928,-23.66,6.825,65.502,
49342280,-0.235,-0.593,0.878,-18.182,-4.322,43.557,
49342300,-0.151,-0.539,0.92,-5.04,-12.845,23.257,
49342300,-0.1,-0.412,0.949,0.875,-15.802,17.535,
49342320,-0.076,-0.417,0.898,1.417,-12.285,16.38,
49342320,0.015,-0.405,0.885,1.96,-6.02,12.11,
49342330,0.07,-0.38,0.864,4.97,5.267,7.157,
49342340,-0.013,-0.353,0.842,4.182,17.727,3.202,
49342350,-0.086,-0.455,0.775,2.187,31.675,-2.03,
49342360,-0.21,-0.438,0.821,9.607,40.04,-4.305,
49342370,-0.327,-0.493,0.809,4.55,44.135,-16.292,
49342380,-0.416,-0.565,0.848,4.812,43.47,-26.827,
49342390,-0.391,-0.468,0.958,0.14,36.785,-35.927,
49342400,-0.399,-0.455,0.915,-14.647,28.017,-37.117,
49342410,-0.531,-0.596,0.961,-6.37,10.902,-15.977,
49342420,-0.418,-0.502,1.002,9.24,-10.202,-10.097,
49342430,-0.299,-0.401,0.954,4.707,-26.285,-15.172,
49342440,-0.267,-0.399,0.924,2.8,-29.26,-20.737,
49342450,-0.22,-0.392,0.855,8.12,-29.505,-21.385,
49342460,-0.242,-0.392,0.917,12.845,-32.305,-17.01,
49342470,-0.015,-0.248,0.854,17.605,-27.72,-20.51,
49342480,-0.066,-0.181,0.962,1.627,-20.265,-13.195,
49342490,-0.05,-0.206,0.845,-22.855,-6.02,4.147,
49342500,-0.281,-0.299,0.847,-51.152,0.927,27.335,
49342510,-0.253,-0.475,0.757,-69.195,4.812,37.94,
49342520,-0.263,-0.68,0.651,-59.727,8.085,39.952,
49342530,-0.267,-0.609,0.765,-45.605,9.8,29.925,
49342540,-0.347,-0.582,0.696,-49.822,10.972,18.217,
49342550,-0.459,-0.713,0.762,-46.252,6.947,5.582,
49342560,-0.387,-0.812,0.735,-34.16,-3.167,-4.987,
49342570,-0.361,-0.787,0.686,-17.447,-15.47,0,
49342580,-0.302,-0.656,0.686,0.227,-22.925,4.812,
49342590,-0.185,-0.541,0.719,9.747,-24.85,5.25,
49342600,-0.107,-0.512,0.728,9.17,-21.017,9.852,
49342610,-0.048,-0.451,0.728,2.835,-9.94,8.82,
49342620,-0.12,-0.478,0.756,-7.245,5.477,7.612,
49342630,-0.186,-0.684,0.775,-7.822,12.407,12.6,
49342640,-0.035,-0.565,0.869,12.6,13.09,-6.125,
49342650,-0.041,-0.382,0.919,15.33,12.285,-3.237,
49342660,-0.112,-0.385,0.864,9.117,16.887,7.91,
49342670,-0.13,-0.413,0.88,6.597,21.262,10.762,
49342670,-0.14,-0.389,0.841,-1.802,25.462,5.617,
49342690,-0.141,-0.393,0.868,-11.217,33.495,-9.642,
49342690,-0.194,-0.502,0.857,-16.205,45.29,-15.365,
49342710,-0.401,-0.631,0.859,-5.67,46.34,-14.647,
49342710,-0.532,-0.706,0.84,11.445,35.997,-20.615,
49342730,-0.61,-0.554,0.645,35.717,3.412,-31.815,
49342730,-0.244,-0.313,1.013,35.122,-8.015,-34.86,
49342750,-0.196,-0.395,0.861,13.16,-3.902,-19.845,
49342750,-0.364,-0.52,0.8,-2.31,7.717,-12.32,
49342760,-0.488,-0.555,0.788,-1.977,5.022,3.027,
49342770,-0.346,-0.494,0.839,0.017,-1.19,1.47,
