#Format version: 1.0
time[ms],accX[g],accY[g],accZ[g],Value 1,Value 2,Value 3,
65225760,0.283,-1.006,-0.602,-146.597,54.635,111.3,
65225770,0.173,-1.049,-0.661,-160.142,-25.76,136.517,
65225780,0.389,-1.154,-0.787,-165.147,-106.505,159.04,
65225790,0.812,-1.272,-1.232,-158.847,-164.902,159.512,
65225800,0.222,-1.896,-0.135,-93.66,-202.842,161.84,
65225810,-1.689,-1.998,1.825,113.75,-414.26,209.475,
65225820,1.552,-1.457,-1.997,341.88,-67.742,302.592,
65225830,-1.97,1.994,1.501,563.71,-318.955,109.182,
65225830,0.916,1.523,1.075,380.66,-207.217,-97.632,
65225850,-1.797,-1.889,1.964,274.942,-187.267,-64.592,
65225850,0.33,0.906,1.911,351.68,-226.957,-336.945,
65225870,1.745,0.68,1.903,244.545,-200.235,-314.282,
65225870,1.998,1.336,1.751,68.407,-118.282,-179.077,
65225890,1.997,1.216,1.581,-83.737,-41.405,-28.21,
65225890,1.204,0.147,1.069,-185.36,-5.845,113.715,
65225910,-0.171,-0.412,0.689,-183.767,-28.647,168.735,
65225910,-1.069,-1.236,0.496,-114.992,-86.922,176.925,
65225920,-0.279,-1.077,0.139,-48.842,-103.845,134.382,
65225930,-0.83,-1.196,0.244,9.03,-67.585,59.85,
65225940,-0.411,-1.156,0.336,36.242,-37.257,-8.662,
65225950,-0.285,-0.761,0.535,75.232,-15.487,-70.63,
65225960,0.209,-0.527,0.853,101.377,-1.907,-105.105,
65225970,0.483,-0.03,1.168,97.317,2.992,-104.685,
65225980,0.753,0.168,1.287,66.85,2.31,-82.915,
65225990,0.642,0.118,1.316,25.13,1.785,-44.94,
65226000,0.603,0.056,1.3,-16.117,-1.382,-5.985,
65226010,0.302,-0.174,1.269,-58.275,-1.295,22.855,
65226020,0.229,-0.178,1.228,-91.052,-2.835,30.992,
65226030,0.199,-0.268,1.235,-126.385,4.532,29.33,
65226040,0.252,-0.186,1.352,-163.94,18.445,22.785,
65226050,0.365,-0.138,1.417,-212.485,34.737,15.417,
65226060,0.377,-0.085,1.562,-272.825,48.912,10.885,
65226070,0.002,0.023,1.839,-342.65,43.505,8.82,
65226080,-0.188,-0.065,1.891,-407.295,-6.247,-5.67,
65226090,0.823,-1.066,1.752,-473.9,-33.285,-7.315,
65226100,0.753,-1.998,1.732,-499.415,41.755,39.585,
65226110,1.121,-1.848,0.606,-436.747,174.16,54.88,
65226120,1.434,-1.998,-1.577,-410.322,248.867,-11.34,
65226130,0.525,-1.998,-1.145,-301.017,227.587,-118.562,
65226140,-1.873,-1.88,-0.728,-137.445,130.882,-212.73,
65226150,-1.998,-0.626,-0.467,37.572,-68.39,-154.07,
65226160,-1.256,0.021,-0.4,43.277,-260.12,4.917,
65226170,-0.093,-0.269,-0.005,-46.497,-329.14,139.982,
65226180,0.385,-0.366,0.521,-124.81,-311.5,190.662,
65226190,0.714,-0.013,0.842,-150.255,-255.832,177.082,
65226200,0.771,0.099,1.087,-149.397,-182.28,148.452,
65226210,0.567,0.319,1.253,-122.78,-121.8,104.037,
65226220,0.492,0.821,1.387,-76.475,-78.4,55.877,
65226230,0.476,0.922,1.385,-45.29,-41.44,21.822,
65226240,0.203,0.67,1.389,-19.652,-11.672,5.425,
65226250,0.02,0.396,1.271,14.84,-0.735,-6.265,
65226260,0,0.151,1.053,66.237,-6.352,-7.91,
65226260,-0.011,-0.131,0.702,130.585,-15.89,-10.08,
65226270,-0.042,-0.257,0.327,201.18,-20.422,-11.392,
65226280,-0.117,-0.274,-0.037,260.4,-20.475,-7.84,
65226290,-0.224,-0.187,-0.295,301.875,-18.34,7.962,
65226300,-0.319,-0.104,-0.415,313.915,-16.485,37.187,
65226310,-0.397,-0.157,-0.46,291.777,-13.457,71.33,
65226320,-0.383,-0.325,-0.517,254.922,-5.547,105.017,
65226330,-0.277,-0.535,-0.611,224.997,11.252,135.345,
65226340,-0.2,-0.71,-0.842,205.957,32.602,151.462,
65226350,-0.046,-0.786,-1.174,193.9,58.677,148.627,
65226360,0.341,-0.707,-1.377,161.612,100.45,140.7,
65226370,0.563,-0.699,-1.555,86.695,151.287,118.037,
65226380,0.589,-0.986,-1.697,-2.887,205.187,77.175,
65226390,0.575,-1.311,-1.751,-72.782,261.257,20.597,
65226400,0.541,-1.502,-1.709,-111.492,311.342,-61.932,
65226410,0.01,-1.64,-0.873,-121.275,353.185,-145.652,
65226420,-1.641,-1.998,1.988,0.805,149.555,-196.63,
65226430,0.467,-1.937,-1.117,264.477,-173.442,-176.592,
65226440,0.369,1.801,0.88,557.585,40.145,-167.37,
65226450,-1.376,1.997,0.979,565.705,-188.107,-428.522,
65226460,-0.669,-0.582,1.998,450.38,-311.78,-281.96,
65226470,1.998,0.418,1.766,297.692,-306.477,-197.015,
65226480,1.716,1.31,1.415,81.217,-93.677,-183.067,
65226490,1.322,-1.479,1.646,-234.797,78.295,66.482,
65226500,-0.116,0.172,1.387,-256.427,94.675,73.552,
65226510,-0.608,-0.494,0.363,-261.66,57.54,96.932,
65226520,-0.738,-1.833,-0.105,-215.005,29.995,74.322,
65226530,-0.669,-1.44,-0.024,-89.582,-9.31,37.502,
65226540,-0.446,-1.155,0.043,33.862,-33.985,-2.835,
65226550,0.214,-0.919,0.299,109.445,-51.52,-38.832,
65226560,0.617,-0.325,0.91,158.375,-51.397,-47.792,
65226570,0.531,0.234,1.434,151.41,-39.602,-20.002,
65226580,0.383,0.2,1.412,93.065,-27.965,13.65,
65226580,0.063,0.044,1.274,38.272,-16.1,25.917,
65226600,-0.09,-0.103,1.298,-2.835,-14.84,21.192,
65226600,0.243,-0.064,1.204,-36.067,-23.712,13.16,
65226620,0.42,-0.258,1.079,-68.337,-21.437,15.82,
65226620,0.5,-0.162,1.15,-94.29,-10.815,25.602,
65226640,0.522,-0.071,1.29,-124.337,4.655,41.335,
65226640,0.566,-0.089,1.339,-162.995,24.185,57.032,
65226660,0.547,-0.069,1.401,-217.192,47.197,69.09,
65226660,0.584,0.046,1.37,-280.35,72.257,72.73,
65226670,0.392,0.105,1.317,-348.862,101.85,80.115,
65226680,-0.256,0.12,1.468,-417.462,107.117,80.832,
65226690,0.031,-0.022,1.775,-492.537,98.332,67.165,
65226700,1.507,-1.538,1.176,-557.567,135.73,62.002,
65226710,1.998,-1.998,0.864,-572.512,268.502,103.11,
65226720,1.362,-1.998,-0.758,-547.277,373.66,34.51,
65226730,1.998,-1.998,-0.997,-412.212,469.437,-98.245,
65226740,0.063,-1.998,-0.921,-188.107,505.697,-247.275,
65226750,-1.998,-1.995,-0.949,210.227,381.482,-450.257,
65226760,-1.998,-0.219,-0.778,424.865,137.322,-558.582,
65226770,-1.998,0.586,-0.801,343.455,-63.07,-514.797,
65226780,-1.998,0.951,-0.64,170.345,-143.29,-351.295,
65226790,-1.998,0.707,0.081,0.892,-144.655,-174.265,
65226800,-1.998,0.219,0.731,-110.075,-136.342,-32.987,
65226810,-1.979,-0.18,1.187,-131.442,-147.297,80.22,
65226820,-0.704,0.489,1.032,-88.987,-136.412,157.587,
65226830,0.543,0.821,1.082,-45.29,-48.37,225.977,
65226840,0.604,0.369,1.082,-25.55,34.51,227.797,
65226850,0.419,-0.22,0.957,26.565,82.372,208.477,
65226860,0.611,-0.234,0.8,119.332,87.115,194.827,
65226870,0.447,0.014,0.772,185.587,61.792,210.56,
65226880,0.726,-0.203,0.401,199.692,28.682,266.087,
65226890,0.995,-0.518,0.126,212.467,-8.277,294.245,
65226900,1.014,-0.559,-0.183,226.73,-35.945,282.922,
65226910,0.955,-0.609,-0.51,208.285,-52.885,242.077,
65226920,0.934,-0.654,-0.761,182.927,-69.527,158.34,
65226920,0.808,-0.617,-0.953,164.587,-82.285,45.15,
65226940,0.427,-0.557,-1.222,148.085,-103.757,-61.985,
65226940,0.158,-0.386,-1.415,121.747,-130.357,-135.817,
65226960,0.033,-0.19,-1.424,75.95,-149.695,-165.305,
65226960,0.006,0.04,-1.319,7.245,-160.72,-156.555,
65226980,-0.207,0.061,-1.252,-64.365,-170.572,-101.412,
65226980,-0.328,0.03,-1.094,-131.25,-186.112,-30.012,
65227000,-0.056,0.207,-0.842,-192.097,-197.75,34.632,
65227000,0.575,0.324,-0.514,-258.107,-187.232,96.407,
65227010,0.488,-1.323,-0.618,-251.265,-173.617,134.89,
65227020,1.119,-1.998,1.974,8.19,51.205,281.137,
65227030,-1.998,-1.895,-1.981,374.342,-88.375,297.762,
65227040,0.31,1.979,0.448,573.37,-244.195,-255.5,
65227050,-0.652,1.737,1.036,501.077,-61.442,-154.332,
65227060,-1.535,-1.968,1.875,211.662,-84.385,-126.98,
65227070,0.93,0.962,1.998,466.252,-153.667,-354.532,
65227080,1.998,1.953,1.994,254.537,-146.44,-292.302,
65227090,1.949,1.838,1.822,-50.995,-45.587,-120.837,
65227100,0.668,-0.186,1.233,-187.915,2.59,42.28,
65227110,-0.343,-0.912,0.478,-199.535,-21.927,91.035,
65227120,-0.338,-0.863,0.432,-137.34,-48.317,56.787,
65227130,-0.056,-1.012,0.465,-96.197,-22.837,-2.677,
65227140,0.212,-0.681,0.704,-56.735,-1.137,-38.605,
65227150,0.568,-0.107,0.864,-55.79,14.945,-56.822,
65227160,0.796,-0.194,0.886,-72.66,23.205,-34.93,
65227170,0.834,-0.275,0.866,-82.127,25.252,5.005,
65227180,0.608,-0.128,1.02,-81.935,28.787,37.905,
65227190,0.326,-0.162,1.165,-94.99,26.582,60.777,
65227200,0.13,-0.212,1.227,-116.497,15.225,72.24,
65227210,-0.007,-0.314,1.191,-146.842,1.47,69.317,
65227220,-0.008,-0.435,1.225,-176.067,-9.922,58.66,
65227230,-0.151,-0.454,1.357,-201.88,-23.38,46.077,
65227240,-0.344,-0.474,1.412,-245.385,-49.927,23.835,
65227250,-0.298,-0.538,1.46,-296.45,-71.417,-3.5,
65227260,0.319,-0.847,1.25,-352.24,-65.765,-25.935,
65227270,1.077,-1.659,1.615,-377.23,2.537,-18.042,
65227280,1.655,-1.998,0.952,-386.487,158.69,31.5,
65227290,1.329,-1.998,-0.84,-377.002,326.497,21.21,
65227300,1.166,-1.998,-1.615,-315.087,358.75,-108.867,
65227310,1.09,-1.998,-1.37,-229.81,328.545,-233.485,
65227320,-0.861,-1.914,-0.695,-138.495,299.792,-267.137,
65227330,-1.952,-1.253,-0.325,-56.525,153.632,-216.545,
65227330,-1.284,-0.763,-0.315,-10.465,-29.627,-119.42,
65227350,-0.634,-0.675,-0.075,-11.76,-137.13,-25.865,
65227350,-0.493,-0.594,0.278,-36.137,-177.537,35.892,
65227370,-0.592,-0.443,0.444,-53.812,-198.572,69.877,
65227370,-0.341,-0.302,0.517,-49.945,-210.332,88.707,
65227390,-0.052,-0.198,0.533,-28.56,-207.235,101.15,
65227390,0.075,0.018,0.569,-1.137,-193.112,98.665,
65227410,0.127,0.269,0.585,20.125,-171.447,86.94,
65227410,0.211,0.342,0.598,31.605,-139.79,77.35,
65227420,0.195,0.341,0.598,37.992,-103.547,68.372,
65227430,0.117,0.266,0.629,41.055,-68.652,58.327,
65227440,0.026,0.21,0.672,47.337,-33.67,52.955,
65227450,-0.051,0.077,0.638,57.137,-2.835,43.26,
65227460,-0.221,-0.049,0.552,81.322,21.997,32.777,
65227470,-0.363,-0.104,0.387,112.997,36.225,26.722,
65227480,-0.462,-0.104,0.203,148.872,39.392,23.66,
65227490,-0.528,-0.014,0.071,171.885,36.767,27.037,
65227500,-0.601,0.139,-0.153,184.572,30.45,30.292,
65227510,-0.505,0.507,-0.381,194.95,27.65,25.322,
65227520,-0.18,0.714,-0.602,189.56,47.267,23.94,
65227530,0.065,0.617,-0.699,168.49,90.685,32.41,
65227540,0.094,0.451,-0.651,134.382,140.787,37.362,
65227550,0.009,0.12,-0.566,94.552,167.615,28.315,
65227560,0.247,-0.205,-0.606,74.025,164.062,12.25,
65227570,0.658,-0.333,-1.008,69.772,145.792,-10.885,
65227580,0.287,-1.184,0.681,33.74,75.057,-69.282,
65227590,0.025,-1.998,-0.807,149.012,290.097,80.885,
65227600,-1.751,1.184,0.747,566.177,-39.76,-320.687,
65227610,1.626,1.997,-0.125,560.192,-6.317,-388.36,
65227620,-0.177,-0.984,1.998,221.62,134.312,285.46,
65227630,0.331,0.928,1.757,214.427,4.042,92.995,
65227640,-1.281,0.109,1.998,24.377,-102.83,-110.53,
65227650,1.686,0.628,1.629,-149.73,-144.357,-153.44,
65227660,1.05,-0.341,0.717,-218.33,-86.205,-47.337,
65227670,0.293,-0.986,-0.06,-210.122,-53.357,39.287,
65227670,0.117,-1.555,0.029,-136.78,-66.587,61.495,
65227690,-0.321,-0.86,0.511,-59.062,-49.91,28.56,
65227690,-0.305,-0.768,0.389,1.015,-48.72,1.697,
65227710,0.251,-0.894,0.503,37.66,-39.742,-20.16,
65227710,0.513,-0.333,0.816,58.52,-30.17,-30.082,
65227730,0.332,-0.2,1.059,49.017,-22.067,-14.315,
65227730,0.158,-0.218,1.199,26.11,-21.892,-1.96,
65227750,-0.027,-0.239,1.245,-3.552,-28.507,-2.047,
65227750,-0.11,-0.386,1.139,-31.955,-28.63,-13.615,
65227760,0.312,-0.352,1.013,-54.355,-15.347,-34.93,
65227770,0.52,-0.185,0.992,-72.905,7.717,-42.787,
65227780,0.772,-0.102,1.074,-104.615,34.177,-26.827,
65227790,0.848,0.054,1.127,-143.99,57.785,-0.315,
65227800,0.779,0.157,1.258,-187.722,75.827,31.85,
65227810,0.762,0.069,1.277,-253.242,87.64,55.895,
65227820,0.461,0.081,1.343,-318.85,93.187,70.787,
65227830,0.443,-0.034,1.462,-382.13,90.317,77.175,
65227840,0.838,-0.654,1.466,-434.035,101.57,90.737,
65227850,1.447,-1.776,1.754,-446.005,159.722,119.385,
65227860,1.497,-1.998,1.142,-412.492,293.177,172.585,
65227870,1.984,-1.865,-0.101,-382.27,398.912,139.79,
65227880,0.508,-1.91,-1.314,-305.865,381.062,22.785,
65227890,0.999,-1.998,-0.922,-210.962,357.245,-31.657,
65227900,-0.242,-1.996,-0.536,-30.607,271.092,-153.737,
65227910,-1.375,-0.816,-0.593,161.07,126.682,-280.997,
65227920,-1.656,0.448,-0.444,169.242,-39.952,-263.41,
65227930,-1.185,0.444,-0.328,55.79,-157.745,-162.697,
65227940,-0.709,0.09,-0.155,-42.997,-198.59,-50.207,
65227950,-0.548,-0.187,0.168,-103.722,-214.427,26.197,
65227960,-0.476,-0.367,0.461,-122.937,-224.822,82.705,
65227970,-0.232,-0.652,0.599,-112.157,-243.862,125.3,
65227980,-0.067,-0.753,0.639,-74.812,-272.72,144.042,
65227990,0.201,-0.642,0.538,-24.99,-297.185,147.315,
65228000,0.483,-0.453,0.444,19.39,-300.282,156.572,
65228010,0.64,-0.304,0.396,44.17,-285.215,152.39,
65228020,0.634,-0.1,0.434,56.455,-263.532,135.31,
65228030,0.723,0.234,0.5,62.247,-239.995,112.612,
65228040,0.725,0.354,0.582,62.125,-211.732,77.157,
65228050,0.713,0.316,0.675,65.642,-184.135,29.032,
65228060,0.666,0.217,0.696,77.14,-160.527,-24.762,
65228070,0.545,0.001,0.694,97.055,-141.872,-75.337,
65228080,0.386,-0.162,0.599,125.825,-132.335,-129.797,
65228080,0.02,-0.019,0.481,166.985,-138.215,-184.345,
65228100,-0.283,0.399,0.314,206.867,-155.575,-237.86,
65228100,-0.375,0.869,0.067,236.512,-163.52,-275.607,
65228120,-0.563,1.349,-0.226,248.185,-147.98,-292.932,
65228120,-1.175,1.856,-1.052,248.307,-111.65,-294.805,
65228140,-1.716,1.997,-1.244,223.265,-57.365,-271.232,
65228140,-1.954,1.997,-0.437,97.825,4.637,-166.687,
65228160,-0.626,0.419,0.28,-33.442,2.362,-13.177,
65228160,0,-1.998,-0.337,-17.92,357.472,275.467,
65228170,0.146,-0.012,-1.334,551.635,-128.24,89.372,
65228180,-0.177,1.997,1.224,536.777,50.75,-198.012,
65228190,-1.182,-0.472,1.975,337.645,138.372,139.685,
65228200,-1.378,-0.538,1.998,332.92,112.122,121.205,
65228210,-0.601,1.877,1.985,167.877,-53.532,-146.142,
65228220,0.429,0.126,1.547,-83.177,-111.527,-118.58,
65228230,-0.232,-0.393,0.768,-152.635,-60.672,-140.507,
65228240,0.265,-1.09,0.382,-149.1,-30.835,-164.43,
65228250,0.918,-0.386,0.659,-107.327,-10.36,-182.455,
65228260,1.113,0.105,0.934,-92.382,7.402,-156.257,
65228270,1.147,0.045,1.077,-121.24,9.73,-82.022,
65228280,1.062,0.126,1.038,-153.055,2.94,-8.732,
65228290,0.844,-0.048,0.944,-174.615,-2.992,61.022,
65228300,0.65,-0.14,1.012,-179.095,-0.245,106.942,
65228310,0.375,-0.122,1.228,-199.815,8.417,118.317,
65228320,0.276,-0.08,1.367,-247.117,19.145,103.092,
65228330,0.021,-0.185,1.249,-319.042,33.005,76.667,
65228340,-0.299,-0.365,1.19,-389.357,41.877,38.64,
65228350,-0.274,-0.71,1.085,-437.465,35.07,-17.902,
65228360,0.652,-1.134,1.218,-468.51,64.435,-40.792,
65228370,1.81,-1.993,1.155,-506.94,181.737,-13.545,
65228380,1.998,-1.998,0.539,-488.88,355.057,2.222,
65228390,1.058,-1.97,-0.086,-467.53,457.152,-101.307,
65228400,1.097,-1.998,-0.96,-344.732,462.682,-208.18,
65228410,0.037,-1.998,-0.939,-117.722,445.427,-266.612,
65228420,-1.772,-1.753,-0.716,167.877,372.75,-295.067,
65228420,-1.55,-0.397,-0.678,278.932,217.997,-303.117,
65228440,-1.742,-0.018,-0.967,221.48,72.152,-256.83,
65228440,-1.467,0.23,-0.929,158.9,-22.47,-155.592,
65228460,-1.072,0.145,-0.573,61.127,-74.147,-55.16,
65228460,-1.025,-0.275,-0.177,-25.025,-96.127,28,
65228480,-1.005,-0.553,0.164,-51.73,-114.642,75.582,
65228480,-0.864,-0.702,0.363,-40.25,-141.715,93.887,
65228500,-0.692,-0.651,0.475,-3.657,-163.047,94.167,
65228500,-0.62,-0.478,0.571,27.947,-173.775,99.12,
65228510,0.786,0.369,0.305,21.77,-155.907,83.527,
65228520,1.202,1.143,0.634,62.475,-76.65,104.107,
65228530,0.495,0.844,0.747,65.555,-24.412,147.735,
65228540,0.477,0.55,0.75,42.857,-5.845,164.272,
65228550,0.595,0.455,0.605,55.44,-31.727,163.642,
65228560,0.555,0.489,0.392,81.165,-74.935,145.897,
65228570,0.569,0.492,0.171,95.917,-119.105,121.45,
65228580,0.575,0.556,-0.098,98.892,-158.637,79.222,
65228590,0.666,0.787,-0.331,73.99,-172.882,39.375,
65228600,0.789,1.155,-0.402,27.527,-159.635,2.607,
65228610,0.77,1.376,-0.166,-36.82,-114.135,-25.095,
65228620,0.403,1.179,0.13,-93.572,-50.33,-28.647,
65228630,-1.85,-0.127,-0.675,-88.83,-191.625,-133.455,
65228640,1.758,-1.998,0.642,-78.172,-176.225,-94.745,
65228650,-1.815,-1.121,-0.725,449.137,77.682,402.447,
65228660,1.92,1.997,0.067,561.452,-136.377,-281.592,
65228670,-1.716,0.373,1.42,212.135,321.492,-15.68,
65228680,-0.45,-1.998,0.925,105.297,155.767,23.66,
65228690,0.615,-0.995,1.746,462.927,108.71,-60.2,
65228700,-1.263,1.081,1.994,416.605,77.245,-144.375,
65228710,-0.403,0.931,1.998,241.325,38.36,-186.095,
65228720,0.606,0.028,1.984,175.717,14.21,-155.68,
65228730,0.665,0.394,1.596,54.95,-17.535,-140.315,
65228740,0.825,0.126,1.185,-13.282,-33.32,-81.62,
65228750,0.815,-0.324,0.664,-44.45,-46.917,-14.525,
65228760,0.552,-0.597,0.435,-29.785,-55.282,31.115,
65228770,0.327,-0.611,0.576,5.88,-47.775,47.337,
65228780,0.12,-0.516,0.889,33.18,-36.96,43.627,
65228790,0.155,-0.333,1.074,33.74,-31.99,32.497,
65228800,0.214,-0.236,1.138,9.817,-29.172,23.047,
65228810,0.305,-0.236,1.161,-21.507,-27.457,20.09,
65228820,0.429,-0.146,1.267,-55.317,-24.657,22.942,
65228830,0.409,-0.04,1.523,-101.64,-17.727,30.415,
65228830,0.433,0.062,1.666,-169.557,-9.642,40.11,
65228850,0.363,0.139,1.795,-255.64,3.045,47.285,
65228850,0.027,0.035,1.737,-351.435,12.46,41.422,
65228870,0.287,-0.466,1.311,-447.37,22.715,24.797,
65228870,1.598,-1.441,1.697,-533.977,85.54,33.425,
65228890,1.998,-1.998,1.283,-571.812,270.322,54.477,
65228890,1.911,-1.998,-1.506,-531.615,491.837,5.53,
65228910,1.521,-1.998,-1.827,-394.625,446.967,-122.15,
65228910,-0.261,-1.998,-0.825,-300.772,248.202,-164.955,
65228920,-0.562,-1.732,-0.276,-162.732,27.282,-193.935,
65228930,-0.713,-1.143,-0.081,-28.402,-115.622,-178.885,
65228940,-0.986,-0.581,-0.118,38.447,-168.525,-167.667,
65228950,-1.091,0.037,0.042,57.487,-172.217,-115.867,
65228960,-1.208,0.087,0.142,2.8,-165.305,-34.842,
65228970,-0.917,-0.194,0.352,-43.155,-164.22,43.295,
65228980,-0.455,-0.007,0.572,-39.795,-173.53,91.577,
65228990,-0.265,0.341,0.774,-38.675,-183.68,119.402,
65229000,-0.042,0.589,0.891,-31.185,-188.51,125.492,
65229010,0.292,0.806,0.955,-2.957,-174.562,117.687,
65229020,0.453,0.82,1.003,16.677,-139.51,98.927,
65229030,0.466,0.819,0.902,22.907,-93.292,62.947,
65229040,0.259,0.712,0.871,43.54,-44.222,43.592,
65229050,0.157,0.406,0.712,50.05,-6.247,28.857,
65229060,-0.089,0.231,0.609,86.117,14.227,17.237,
65229070,-0.178,0.192,0.449,96.687,20.457,6.51,
65229080,-0.355,-0.026,0.381,106.295,15.522,16.695,
65229090,-0.394,-0.183,0.297,109.252,-1.277,29.715,
65229100,-0.314,-0.112,0.139,119.385,-22.12,37.152,
65229110,-0.246,0.122,-0.059,130.532,-40.022,42.997,
65229120,-0.309,0.471,-0.122,132.352,-52.15,48.405,
65229130,-0.55,1.044,-0.074,116.497,-72.362,49.787,
65229140,-0.355,1.546,0.019,63.997,-84.542,50.767,
65229150,0.048,1.622,0.374,-9.31,-66.867,79.047,
65229160,-0.929,0.184,-0.576,-94.692,-67.13,62.65,
65229170,0.581,-1.492,1.006,-128.607,-355.582,-299.6,
65229170,0.425,-1.998,-1.698,359.205,227.325,332.692,
65229190,0.019,0.94,-0.196,573.37,-135.082,75.18,
65229190,-0.349,1.983,-0.719,521.955,154.507,-359.555,
65229210,-1.977,-1.438,1.619,211.102,212.765,44.45,
65229210,0.909,-1.668,1.115,379.295,3.027,-15.242,
65229230,-1.583,1.907,1.595,553.245,-13.072,-216.195,
65229230,-0.576,-0.188,1.998,375.497,-19.705,-210.175,
65229250,1.337,1.033,1.998,297.15,-67.042,-201.827,
65229250,1.645,1.654,1.786,98.595,-89.74,-130.2,
65229260,0.431,-0.263,1.182,-78.907,-42.017,-3.902,
65229270,0.204,-0.592,0.76,-106.715,-9.275,2.327,
65229280,0.475,-0.21,1.187,-109.567,13.265,-17.622,
65229290,0.728,0.071,1.403,-161.245,25.217,-16.31,
65229300,0.764,0.017,1.319,-225.54,37.362,16.73,
65229310,0.742,-0.005,1.294,-252.437,50.627,43.207,
65229320,0.656,0.14,1.138,-278.6,62.265,59.22,
65229330,0.438,0.101,1.275,-346.57,74.9,65.292,
65229340,0.166,-0.186,1.339,-426.457,75.565,56.052,
65229350,0.243,-0.779,1.19,-484.82,63.997,31.185,
65229360,1.159,-1.78,0.564,-508.427,113.522,23.467,
65229370,1.862,-1.998,0.591,-439.337,206.92,32.2,
65229380,1.975,-1.998,0.854,-357.752,231.105,-57.68,
65229390,1.998,-1.998,-0.198,-245.542,250.355,-195.842,
65229400,1.291,-1.998,0.046,-27.387,289.695,-296.782,
65229410,-1.156,-1.826,-0.379,121.1,245.717,-363.317,
65229420,-1.998,-0.52,-0.953,230.317,119.875,-364.245,
65229430,-1.818,0.207,-1.047,248.377,-5.932,-279.615,
65229440,-1.047,0.273,-0.684,183.277,-65.1,-131.827,
65229450,-0.564,-0.063,-0.315,77.997,-95.567,-3.657,
65229460,-0.641,-0.526,-0.036,12.442,-126.017,64.925,
65229470,-0.649,-0.708,0.101,18.97,-168.91,93.887,
65229480,-0.403,-0.598,0.126,51.52,-216.492,107.992,
65229490,-0.083,-0.437,0.116,78.207,-246.995,127.855,
65229500,0.119,-0.336,0.124,82.967,-251.475,151.935,
65229510,0.197,-0.474,0.114,76.58,-239.645,179.55,
65229520,0.428,-0.278,0.095,80.885,-218.977,182.28,
65229530,0.447,0.038,0.095,86.8,-191.03,181.37,
65229540,0.434,0.195,0.112,74.62,-151.935,214.025,
65229550,0.57,0.176,0.131,34.142,-119.455,211.645,
65229560,0.513,0.088,0.242,8.47,-92.89,187.722,
65229570,0.441,0.164,0.362,-6.615,-70.262,151.48,
65229570,0.345,0.276,0.487,-15.47,-57.067,107.59,
65229580,0.202,0.309,0.446,-13.737,-56.84,61.897,
65229590,0.038,0.482,0.174,5.582,-70.402,10.097,
65229600,-0.071,1.116,-0.046,33.075,-83.02,-39.427,
65229610,-0.364,1.686,-0.091,45.202,-83.772,-64.505,
65229620,-1.245,1.419,-0.978,26.075,-130.76,-81.935,
65229630,0.11,-0.742,1.813,-24.605,-248.937,-81.935,
65229640,0.294,-1.998,-0.863,-1.085,289.24,353.36,
65229650,-0.731,0.357,-0.519,552.615,-104.072,113.19,
65229660,1.226,1.997,-0.441,553.647,57.522,-308.192,
65229670,-1.957,-0.369,1.998,320.792,204.347,83.335,
65229680,-0.566,-1.365,1.941,318.43,62.422,-29.575,
65229690,-1.026,1.934,1.959,392.455,32.707,-245.84,
65229700,0.031,-0.242,1.998,176.732,28.245,-184.677,
65229710,0.603,0.508,1.897,69.755,-19.005,-198.485,
65229720,0.836,0.608,1.311,-24.062,-28.052,-162.662,
65229730,0.747,-0.33,1.091,-84.577,-11.935,-82.757,
65229740,0.844,-0.042,1.136,-123.917,-6.895,-58.677,
65229750,0.722,-0.031,1.302,-176.085,7.752,-25.777,
65229760,0.492,-0.071,1.363,-225.347,16.992,10.71,
65229770,0.387,-0.069,1.226,-275.677,21.56,20.58,
65229780,0.264,-0.218,1.033,-326.917,29.47,9.835,
65229790,0.193,-0.454,0.887,-379.295,50.067,-13.72,
65229800,-0.033,-0.416,1.007,-426.422,71.102,-53.077,
65229810,0.512,-0.493,1.051,-479.937,70.21,-108.185,
65229820,1.904,-1.344,1.044,-514.727,134.942,-91.542,
65229830,0.799,-1.998,0.045,-476.122,314.02,33.337,
65229840,0.775,-1.998,0.765,-412.597,382.76,0.84,
65229850,1.099,-1.998,-0.899,-365.12,344.82,-101.412,
65229860,1.461,-1.998,-0.641,-245.07,292.005,-168.945,
65229870,-0.442,-1.998,-0.726,-118.755,269.237,-220.955,
65229880,-1.941,-1.731,-0.425,-11.69,159.67,-226.782,
65229890,-1.647,-1.084,-0.395,63.98,21.175,-167.72,
65229900,-1.198,-0.647,-0.472,115.43,-83.755,-67.76,
65229910,-0.738,-0.379,-0.321,117.355,-159.967,5.075,
65229920,-0.159,-0.208,0,73.64,-200.305,51.73,
65229920,0.108,-0.066,0.302,30.17,-214.882,81.077,
65229940,0.152,0.034,0.498,1.242,-219.327,92.837,
65229940,0.339,0.15,0.629,-7.735,-208.477,88.987,
65229960,0.561,0.41,0.698,-4.672,-178.325,73.132,
65229960,0.548,0.747,0.861,8.837,-132.055,47.897,
65229980,0.511,0.9,0.887,4.882,-76.142,31.815,
65229980,0.403,0.783,1.007,16.747,-26.705,23.24,
65230000,0.293,0.546,1.002,36.662,9.03,12.687,
65230000,0.202,0.245,0.919,63.525,25.375,1.137,
65230010,0.11,0,0.753,102.392,30.415,1.085,
65230020,0.027,-0.094,0.516,151.62,26.95,4.34,
65230030,0.07,-0.114,0.271,202.09,23.975,13.51,
65230040,0.09,-0.107,0.017,238.455,25.27,32.795,
65230050,0.01,-0.058,-0.238,252.262,27.457,54.862,
65230060,-0.087,0.048,-0.513,246.487,24.832,71.96,
65230070,-0.176,0.227,-0.735,215.617,12.145,81.165,
65230080,-0.137,0.2,-1.012,151.55,-10.797,86.327,
65230090,0.21,0.125,-1.077,61.04,-19.04,107.765,
65230100,0.276,-0.417,-1.484,-45.745,-5.792,146.195,
65230110,1.555,-1.883,1.693,-131.355,9.135,156.047,
65230120,0.242,-1.998,0.122,76.317,331.73,207.375,
65230130,-1.393,0.052,-1.189,544.635,-117.04,-44.397,
65230140,0.309,1.997,0.652,548.922,16.677,-234.097,
65230150,-0.999,0.677,1.686,343.91,70.192,42.192,
65230160,-0.905,-1.998,1.962,138.425,32.375,16.712,
65230170,-0.45,1.252,1.941,234.01,-26.53,-171.29,
65230180,0.233,0.66,1.93,103.092,-23.205,-169.435,
65230190,0.779,-0.384,1.538,-25.672,-13.352,-135.205,
65230200,0.81,0.161,1.056,-56.577,-21.945,-108.377,
65230210,0.746,-0.503,0.632,-92.207,-33.495,-40.18,
65230220,0.488,-0.569,0.598,-76.79,-39.865,1.05,
65230230,0.204,-0.538,0.767,-56,-42.612,19.67,
65230240,0.129,-0.495,0.912,-40.827,-40.582,24.937,
65230250,0.172,-0.417,0.898,-41.177,-35.63,21.56,
65230260,0.223,-0.421,0.919,-51.957,-26.127,17.272,
65230260,0.361,-0.37,0.948,-64.82,-16.94,15.015,
65230280,0.466,-0.28,1.12,-81.357,-5.04,19.477,
65230280,0.429,-0.134,1.279,-110.022,4.48,30.502,
65230300,0.445,0.022,1.355,-153.772,11.235,39.935,
65230300,0.372,-0.086,1.376,-216.615,13.965,50.715,
65230320,0.231,-0.264,1.257,-284.707,11.077,50.68,
65230320,-0.061,-0.623,1.218,-326.847,3.675,41.387,
65230330,-0.053,-0.509,1.327,-350.385,-17.832,18.987,
65230340,0.303,-0.74,1.234,-390.092,-21.857,14.157,
65230350,0.566,-1.546,1.061,-409.745,14.087,35.35,
65230360,0.697,-1.998,0.708,-386.47,63.402,55.737,
65230370,0.168,-1.954,0.737,-314.825,128.52,54.18,
65230380,-0.304,-1.754,-0.517,-243.74,110.285,-22.995,
65230390,0.64,-1.379,-0.407,-220.167,26.565,-81.182,
65230400,0.839,-1.438,0.472,-213.5,57.067,-69.615,
65230410,-0.685,-1.534,0.554,-145.442,60.567,-79.03,
65230420,-0.83,-0.39,0.755,-34.492,-22.645,-118.3,
65230430,-0.576,0.336,0.816,22.68,-86.275,-101.535,
65230440,-0.209,0.742,0.934,34.947,-105.402,-57.785,
65230450,-0.047,0.955,1.067,30.327,-95.497,-33.197,
65230460,-0.07,0.972,1.189,27.422,-68.215,-29.347,
65230470,-0.142,0.759,1.324,50.837,-35.84,-22.172,
65230480,-0.207,0.514,1.379,93.485,-14.402,-4.795,
65230490,-0.224,0.129,1.266,146.212,-9.345,16.52,
65230500,-0.229,-0.157,1.056,213.815,-13.072,45.377,
65230510,-0.17,-0.357,0.808,279.807,-17.885,79.24,
65230520,-0.159,-0.528,0.486,322.752,-24.097,103.897,
65230530,-0.151,-0.643,0.174,345.275,-31.762,115.535,
65230540,-0.145,-0.752,-0.153,356.912,-36.19,122.675,
65230550,-0.117,-0.803,-0.568,362.74,-34.405,127.855,
65230560,-0.051,-0.707,-1.002,358.995,-28.647,128.275,
65230570,-0.062,-0.486,-1.314,327.232,-24.097,129.972,
65230580,-0.179,-0.6,-1.533,250.407,-44.905,123.445,
65230590,-0.018,-0.831,-1.13,177.975,-78.015,87.587,
65230600,0.705,-1.163,-1.138,41.282,-118.282,30.205,
65230610,0.882,-1.862,-0.966,-23.38,-140.857,-4.287,
65230620,0.074,-1.993,-0.005,-30.082,-168.35,-14.507,
65230630,1.466,-1.998,1.44,-114.292,-20.772,130.392,
65230640,-1.799,-1.764,-1.997,313.232,-226.712,142.765,
65230650,1.808,1.956,0.534,569.625,-64.645,-189.542,
65230660,-1.704,1.745,1.349,336.77,97.58,-4.76,
65230670,-1.214,-1.516,1.854,42.56,36.435,18.987,
65230670,0.739,-0.659,1.9,114.747,-35.192,-90.755,
65230690,0.306,1.585,1.996,118.72,-56.07,-106.995,
65230690,0.552,0.074,1.371,-41.79,-62.177,-55.405,
65230710,0.106,-0.777,0.708,-80.395,-58.152,-37.765,
65230710,0.228,-0.87,0.358,-41.037,-57.05,-47.845,
65230730,0.358,-0.854,0.224,-18.532,-37.922,-66.727,
65230730,0.501,-0.484,0.639,4.375,0.752,-86.17,
65230750,0.846,-0.097,0.97,7.402,19.215,-87.762,
65230750,1.1,0.341,1.185,-8.312,25.602,-56.805,
65230760,0.832,0.119,1.2,-42.507,30.31,7.805,
65230770,0.68,-0.063,1.153,-73.377,32.305,54.04,
65230780,0.39,-0.061,1.457,-102.69,37.625,75.705,
65230790,0.253,0.012,1.568,-152.845,39.042,78.4,
65230800,0.354,-0.022,1.424,-211.855,41.142,72.747,
65230810,0.311,-0.016,1.405,-272.405,51.1,58.642,
65230820,-0.065,-0.208,1.269,-333.077,43.19,41.23,
65230830,-0.079,-0.521,1.106,-363.65,19.6,18.9,
65230840,0.361,-0.625,0.982,-383.897,15.75,7.822,
65230850,0.853,-0.957,1.044,-392.35,52.797,21.227,
65230860,1.154,-1.523,1.07,-400.96,144.497,56.35,
65230870,1.319,-1.52,0.698,-402.307,232.067,61.74,
65230880,1.302,-1.913,0.87,-396.41,251.755,61.145,
65230890,1.752,-1.72,-0.381,-394.292,239.925,34.895,
65230900,-0.024,-1.998,-0.6,-38.115,251.825,-103.967,
65230910,-0.803,-1.684,-0.449,302.47,188.23,-246.592,
65230920,-0.549,-0.7,-0.682,405.527,94.325,-231.647,
65230930,-0.741,-0.462,-0.83,371.105,19.005,-143.097,
65230940,-0.339,-0.448,-1.267,299.04,-50.785,-106.68,
65230950,-0.151,-0.208,-1.486,262.71,-79.187,-54.18,
65230960,-0.086,0.027,-1.496,234.43,-70.49,23.677,
65230970,0.016,0.165,-1.21,139.457,-70.56,86.782,
65230980,-0.032,-0.187,-0.851,4.287,-78.522,150.027,
65230990,-0.162,-0.691,-0.455,-108.255,-103.6,205.607,
65231000,-0.001,-1.157,-0.462,-197.26,-157.132,222.32,
65231010,-0.028,-1.408,-0.272,-193.06,-213.08,235.34,
65231010,0.453,-1.083,-0.281,-159.722,-248.5,231.945,
65231030,1.227,-0.663,-0.327,-152.81,-254.485,188.562,
65231030,1.594,-0.429,-0.158,-161.385,-205.817,155.487,
65231050,1.567,-0.345,0.106,-205.467,-129.272,90.685,
65231050,1.238,-0.343,0.242,-256.882,-51.887,12.565,
65231070,0.639,-0.461,0.282,-284.2,10.745,-40.932,
65231070,0.176,-1.15,0.365,-267.312,38.71,-89.74,
65231080,-0.031,-0.495,0.475,-210.455,12.827,-176.155,
65231090,-0.305,0.455,0.361,-182.332,-22.19,-224.35,
65231100,-0.563,1.443,0.743,-165.322,-49.647,-234.202,
65231110,-0.481,0.911,1.383,-253.155,-19.81,-214.532,
65231120,-1.968,-1.903,1.998,-17.867,37.1,-154.017,
65231130,1.483,-1.998,1.195,373.03,103.81,100.765,
65231140,-1.773,-1.998,-1.868,554.12,-134.785,420.717,
65231150,1.802,1.195,-1.456,573.37,-169.417,-154.07,
65231160,-0.36,1.647,1.301,472.815,463.312,-33.827,
65231170,-1.906,-1.864,1.645,179.987,156.922,54.582,
65231180,1.683,0.333,1.078,438.742,-43.365,-23.887,
65231190,-1.703,0.962,1.998,411.985,16.66,-126.07,
65231200,0.264,0.318,1.956,148.382,-51.887,-174.615,
65231210,0.369,0.124,1.88,73.78,-54.582,-147.752,
65231220,0.722,0.23,1.148,-20.125,-74.077,-140.595,
65231230,0.803,-0.547,0.799,-84.437,-59.657,-86.1,
65231240,0.958,-0.225,0.817,-98.56,-39.287,-67.322,
65231250,0.945,-0.074,1.081,-132.58,-17.377,-33.407,
65231260,0.956,0.012,1.077,-164.29,-8.802,5.652,
65231270,1.052,0.054,1.067,-185.622,-4.392,47.985,
65231280,0.955,0.06,1.07,-219.187,-0.472,79.397,
65231290,0.599,-0.145,1.018,-267.12,-1.715,94.342,
65231300,0.328,-0.296,1.141,-313.757,-9.222,85.067,
65231310,0.044,-0.716,1.454,-361.025,-31.902,52.92,
65231320,0.467,-1.137,1.407,-378.192,-67.025,-1.47,
65231330,0.988,-1.255,1.119,-335.09,-11.112,48.527,
65231340,1.626,-1.717,0.996,-357.437,110.67,102.235,
65231350,1.477,-1.998,0.506,-363.982,191.362,69.37,
65231360,1.064,-1.998,-0.099,-263.305,229.057,-96.18,
65231370,1.922,-1.998,-0.317,-146.055,298.042,-227.395,
65231380,-1.097,-1.998,-0.625,31.815,356.3,-346.552,
65231390,-1.998,-1.568,-0.596,164.22,248.937,-393.102,
65231400,-1.998,-0.463,-0.871,259.332,96.127,-324.275,
65231410,-1.961,-0.202,-1.036,261.047,-21.402,-185.132,
65231420,-1.833,-0.465,-0.698,185.465,-103.792,-50.295,
65231420,-1.761,-1.015,-0.452,104.58,-163.852,48.807,
65231440,-1.411,-1.111,-0.267,86.992,-198.257,102.007,
65231440,-0.799,-0.591,-0.12,84.647,-195.86,146.3,
65231460,-0.16,-0.336,0.004,56.717,-167.492,186.042,
65231460,0.139,-0.303,0.267,41.09,-133.682,204.995,
65231480,0.106,-0.296,0.515,9.152,-99.995,213.395,
65231480,0.421,-0.627,0.623,-9.765,-71.277,201.11,
65231500,1.443,-0.163,-0.006,40.32,-30.275,182.07,
65231500,1.998,0.956,0.122,123.55,69.457,174.807,
65231510,1.679,0.743,0.132,122.78,144.042,132.982,
65231520,1.286,0.39,0.018,73.465,167.195,59.15,
65231530,1.387,0.382,0.015,49.017,166.705,6.842,
65231540,1.238,0.376,-0.012,19.582,150.167,-29.942,
65231550,0.838,0.232,-0.101,-7.927,104.37,-43.662,
65231560,0.739,0.145,-0.076,-10.01,40.355,-32.83,
65231570,1.114,0.159,-0.127,-9.327,-14.49,-4.497,
65231580,1.349,0.203,-0.146,-0.91,-43.662,23.257,
65231590,1.289,0.252,-0.292,1.277,-54.005,27.982,
65231600,1.025,0.488,-0.622,2.957,-69.037,15.977,
65231610,-1.318,-0.233,0.085,19.81,-193.935,-10.99,
65231620,0.866,-1.944,1.387,-61.057,-226.24,103.285,
65231630,-0.959,-1.978,-1.366,341.652,37.38,474.372,
65231640,1.963,1.713,-0.103,570.762,-126.892,150.465,
65231650,-1.802,1.815,1.979,387.59,152.232,105,
65231660,-1.38,-1.502,1.69,229.302,10.412,66.115,
65231670,-0.599,-1.271,1.998,277.707,22.12,-55.947,
65231680,-1.109,1.822,1.993,210.507,4.69,-308.927,
65231690,0.595,0.173,1.929,25.357,-0.402,-276.937,
65231700,1.15,0.075,1.517,-33.932,-16.555,-237.142,
65231710,1.471,0.24,0.969,-80.412,-50.382,-154.892,
65231720,1.203,-0.138,0.747,-93.695,-76.755,-36.382,
65231730,0.896,-0.179,0.866,-89.46,-95.077,41.282,
65231740,0.536,-0.248,0.992,-94.955,-105.507,89.197,
65231750,0.501,-0.196,1.019,-104.265,-108.605,117.145,
65231760,0.01,-0.314,1.088,-122.622,-103.092,131.18,
65231760,0.22,-0.441,0.984,-153.457,-95.637,118.44,
65231780,0.224,-0.591,1.04,-172.935,-75.932,110.302,
65231780,0.227,-0.36,1.126,-211.802,-56.262,86.747,
65231800,0.303,-0.155,1.216,-280.455,-33.915,60.847,
65231800,0.271,-0.509,1.309,-350.577,-6.055,40.88,
65231820,0.95,-1.104,1.249,-409.622,19.53,19.407,
65231820,1.439,-1.906,0.77,-413.455,95.655,42.717,
65231830,0.847,-1.948,0.608,-357.035,209.51,82.67,
65231840,0.662,-1.542,0.596,-294.21,264.635,67.165,
65231850,0.629,-1.101,0.453,-228.935,239.592,-7.945,
65231860,-0.099,-1.424,0.297,-200.777,171.22,-80.185,
65231870,0.152,-1.322,0.299,-137.602,111.527,-89.355,
65231880,0.089,-0.932,0.451,-17.08,78.995,-91.91,
65231890,-0.522,-0.59,0.415,61.442,41.195,-95.27,
65231900,-0.611,-0.183,0.379,101.867,-11.077,-87.815,
65231910,-0.46,0.127,0.345,111.282,-52.15,-61.845,
65231920,-0.245,0.234,0.282,95.672,-67.515,-25.025,
65231930,-0.107,0.163,0.308,77.892,-66.237,4.97,
65231940,-0.031,0.069,0.284,64.96,-55.72,8.365,
65231950,-0.021,0.049,0.262,73.902,-41.702,-0.962,
65231960,0.009,0.087,0.246,89.845,-23.695,-1.592,
65231970,0.123,0.005,0.23,99.75,1.102,11.9,
65231980,0.138,-0.223,0.109,105.595,32.935,33.11,
65231990,-0.043,-0.375,-0.039,125.212,60.077,50.89,
65232000,-0.237,-0.292,-0.156,148.26,71.907,68.145,
65232010,-0.453,-0.276,-0.282,150.325,63.84,98.542,
65232020,-0.517,-0.298,-0.391,135.362,34.79,130.69,
65232030,-0.317,-0.305,-0.498,113.872,0.612,159.302,
65232040,-0.056,-0.283,-0.619,88.952,-22.872,189.175,
65232050,0.205,-0.254,-0.636,52.027,-33.32,204.645,
65232060,0.474,-0.266,-0.662,4.112,-39.672,191.537,
65232070,0.756,-0.204,-0.62,-47.722,-38.762,155.347,
65232080,0.56,-1.155,-1.164,-87.727,-48.317,107.607,
65232090,-1.329,-1.998,0.606,-50.89,-212.152,17.64,
65232100,0.456,-1.998,1.823,179.795,-323.837,-21.28,
65232110,1.556,-1.452,-1.658,412.457,-20.667,95.357,
65232120,-0.136,1.997,1.646,524.527,37.292,-44.117,
65232130,-1.998,1.898,1.039,398.44,56.507,-122.815,
65232140,0.071,-1.06,1.492,377.825,-28.997,-112.84,
65232150,0,-0.819,1.998,311.885,13.492,-171.412,
65232160,0.19,1.919,1.998,269.36,-7.332,-275.975,
65232170,1.342,-0.116,1.947,93.502,2.905,-179.27,
65232170,1.076,0.452,1.657,-16.24,-4.935,-119.665,
65232190,0.733,0.165,1.238,-86.992,-19.215,-32.76,
65232190,0.37,-0.548,0.778,-136.342,-20.405,21.07,
65232210,0.307,-0.472,0.751,-133.017,-5.652,21.682,
65232210,0.285,-0.446,0.889,-134.802,15.732,20.282,
65232220,0.25,-0.385,0.981,-139.492,28.84,20.16,
65232230,0.311,-0.374,0.925,-155.785,37.625,19.862,
65232240,0.334,-0.375,0.892,-176.662,52.57,20.37,
65232250,0.283,-0.468,0.855,-202.317,71.592,18.48,
65232260,0.083,-0.554,0.818,-232.89,90.825,7.297,
65232270,-0.131,-0.521,0.987,-273.525,103.985,-16.047,
65232280,-0.243,-0.589,0.934,-323.802,102.917,-54.127,
65232290,0.023,-0.883,0.954,-324.362,101.15,-88.077,
65232300,0.458,-0.542,0.799,-323.277,110.53,-86.73,
65232310,1.26,-1.172,0.613,-359.747,171.01,-72.467,
65232320,1.036,-1.937,0.208,-381.395,263.742,-33.425,
65232330,0.646,-1.865,0.763,-386.697,302.19,-21.595,
65232340,0.17,-1.348,1.07,-365.715,332.325,-15.75,
65232350,-1.019,-1.872,0.832,-280.63,270.462,-16.607,
65232360,-0.58,-1.963,0.689,-68.705,106.995,-38.92,
65232370,0.854,-1.023,0.528,153.615,-10.115,-105.735,
65232380,0.223,-0.95,0.317,238.682,-55.772,-164.552,
65232390,-0.78,-0.77,0.206,261.87,-102.917,-180.442,
65232400,-1.344,-0.53,0.047,289.292,-166.74,-180.985,
65232410,-1.231,-0.249,-0.182,324.73,-210.56,-140.472,
65232420,-0.652,0.147,-0.376,335.055,-223.125,-72.012,
65232430,-0.183,0.378,-0.366,313.285,-201.845,-3.815,
65232440,0.017,0.398,-0.321,267.102,-151.987,61.722,
65232450,0.155,0.263,-0.314,214.427,-89.39,119.892,
65232460,0.3,0.278,-0.396,179.672,-33.18,143.447,
65232470,0.418,0.461,-0.388,157.657,8.277,139.965,
65232480,0.462,0.688,-0.375,110.11,31.22,138.6,
65232490,0.626,0.579,-0.33,41.072,29.242,131.302,
65232500,0.703,0.26,-0.178,-21.525,6.09,105.28,
65232510,0.833,0,-0.115,-61.25,-29.435,45.15,
65232510,0.982,0.019,-0.188,-77.717,-52.797,-18.235,
65232530,0.934,-0.038,-0.243,-74.077,-48.387,-59.325,
65232530,0.823,-0.218,-0.318,-68.757,-26.722,-77.297,
65232550,1.921,-1.79,1.62,-39.777,143.57,5.337,
65232550,-1.217,-1.998,-0.958,136.465,357.507,360.272,
65232570,-0.158,-0.682,-1.644,538.335,-347.41,20.72,
65232570,0.408,1.997,1.052,566.492,-90.02,-188.492,
65232580,-1.998,0.886,1.885,374.255,62.58,31.605,
65232590,-0.556,-1.983,1.856,252.525,-8.995,-63.507,
65232600,-0.63,0.4,1.998,298.567,-27.44,-210.42,
65232610,1.438,1.581,1.942,170.292,-75.915,-224.035,
65232620,1.317,0.729,1.679,11.06,-46.9,-116.112,
65232630,0.644,0.072,1.123,-94.43,-2.275,-60.532,
65232640,0.09,-0.657,0.778,-124.845,9.572,-22.067,
65232650,0.25,-0.827,0.471,-106.277,8.137,-32.322,
65232660,0.418,-0.548,0.734,-70.735,21.525,-44.87,
65232670,0.61,-0.233,0.924,-58.73,29.785,-39.952,
65232680,0.676,-0.217,0.946,-70.63,31.132,-8.102,
65232690,0.417,-0.285,0.974,-82.687,32.41,25.97,
65232700,0.341,-0.368,0.97,-92.382,33.18,40.932,
65232710,0.272,-0.308,1.066,-97.37,38.185,42.367,
65232720,0.251,-0.221,1.179,-120.47,46.375,41.632,
65232730,0.213,-0.226,1.259,-160.545,57.33,39.182,
65232740,0.19,-0.13,1.255,-203.577,65.852,35.157,
65232750,-0.071,-0.27,1.199,-245.21,66.062,35.21,
65232760,-0.246,-0.384,1.162,-278.005,46.287,33.39,
65232770,-0.126,-0.554,1.113,-300.02,26.985,24.972,
65232780,0.242,-0.99,1.154,-309.907,31.185,12.11,
65232790,0.436,-1.882,1.038,-292.512,72.8,15.417,
65232800,0.139,-1.998,1.147,-238.297,112.735,20.107,
65232810,1.425,-1.998,1.071,-160.965,80.412,-22.452,
65232820,1.803,-1.613,0.097,111.055,79.327,-125.755,
65232830,-0.744,-0.423,-1.156,302.225,85.715,-243.285,
65232840,-1.228,0.706,-0.836,238.472,-10.342,-283.587,
65232850,-0.583,0.369,-0.486,86.957,-30.152,-138.827,
65232860,-0.413,-0.658,0.022,-19.285,-45.307,22.365,
65232870,-0.4,-1.096,0.058,-17.605,-87.972,79.765,
65232870,-0.203,-0.731,0.094,57.645,-134.102,99.155,
65232890,0.192,-0.376,0.082,95.48,-165.462,123.13,
65232890,0.49,-0.333,0.002,91.735,-173.092,143.202,
65232910,0.477,-0.195,0.028,80.482,-167.72,154.14,
65232910,0.545,0.084,0.029,50.19,-162.89,148.207,
65232920,0.559,0.175,0.11,7.42,-158.235,144.147,
65232930,0.56,0.066,0.242,-37.94,-153.3,142.257,
65232940,0.634,-0.02,0.327,-71.207,-147.857,135.887,
65232950,0.707,0.038,0.336,-85.277,-136.412,127.032,
65232960,0.789,0.343,0.274,-88.462,-119.84,109.917,
65232970,0.707,0.585,0.122,-93.205,-96.057,92.61,
65232980,-0.364,0.631,-0.024,-93.327,-97.895,60.935,
65232990,-0.64,1.524,-0.273,-44.59,-126.682,10.395,
65233000,-0.386,1.994,0.285,-31.465,-169.417,-26.11,
65233010,1.956,-1.331,0.357,-194.39,133.035,159.512,
65233020,-1.641,-1.998,0.692,263.777,273.752,464.922,
65233030,1.05,1.276,-1.53,567.332,-193.707,-67.672,
65233040,-1.612,1.926,1.343,511.402,56.682,-63.56,
65233050,-1.569,-1.676,1.9,287.752,36.995,59.132,
65233060,-0.66,-0.098,1.77,333.987,-7.595,-163.852,
65233070,0.06,1.657,1.998,245.682,3.64,-280.682,
65233080,1.038,0.156,1.998,76.947,7.647,-217.367,
65233090,1.145,0.879,1.809,-54.897,-4.287,-159.652,
65233100,1.051,0.085,1.08,-155.19,-28.63,-37.03,
65233110,0.642,-0.657,0.419,-178.797,-40.197,46.287,
65233120,0.413,-0.735,0.24,-141.19,-39.112,76.457,
65233130,0.252,-0.871,0.438,-98.367,-22.557,76.037,
65233140,0.247,-0.677,0.758,-55.457,-0.402,65.327,
65233150,0.122,-0.392,0.931,-46.987,17.185,56.175,
65233160,0.217,-0.417,1.06,-78.767,28.49,43.662,
65233170,0.322,-0.367,1.063,-112.91,35.105,34.107,
65233180,0.43,-0.304,1.101,-143.587,49.997,36.015,
65233190,0.344,-0.236,1.271,-183.785,74.34,37.485,
65233200,0.004,-0.093,1.445,-235.707,88.865,30.59,
65233210,-0.14,-0.255,1.262,-288.575,81.655,9.24,
65233220,-0.093,-0.577,1.294,-337.487,61.442,-7.507,
65233230,0.444,-1.292,1.072,-373.222,56.91,-11.41,
65233240,0.505,-1.94,1.054,-352.135,100.975,2.502,
65233250,0.258,-1.945,0.602,-307.93,161.07,31.745,
65233260,0.708,-1.998,0.352,-268.24,169.4,16.345,
65233260,-0.495,-1.998,-0.009,-154.945,130.235,-33.25,
65233280,0.85,-1.731,-0.086,-15.855,79.817,-88.042,
65233280,0,-1.384,-0.149,160.195,82.39,-122.465,
65233300,-1.08,-0.683,-0.414,235.27,16.047,-175.175,
65233300,-1.029,0.092,-0.477,214.462,-66.255,-154.21,
65233320,-0.836,0.086,-0.525,153.527,-112.63,-66.447,
65233320,-0.546,-0.098,-0.413,101.955,-129.727,20.142,
65233330,-0.387,-0.313,-0.212,61.967,-140.332,72.957,
65233340,-0.369,-0.494,-0.094,45.832,-148.172,106.032,
65233350,-0.148,-0.559,-0.029,54.67,-157.745,128.327,
65233360,0.128,-0.495,0.089,74.725,-164.762,141.575,
65233370,0.258,-0.385,0.084,74.462,-163.03,168.857,
65233380,0.411,-0.467,0.024,74.637,-156.94,189.21,
65233390,0.442,-0.453,-0.019,93.1,-146.405,205.975,
65233400,0.647,-0.198,-0.172,93.467,-137.41,198.397,
65233410,0.613,0.148,-0.278,76.247,-137.217,179.112,
65233420,0.412,0.299,-0.217,30.677,-164.22,134.697,
65233430,0.616,0.227,-0.186,-23.94,-204.435,72.17,
65233440,1.067,0.185,-0.039,-62.842,-205.152,19.967,
65233450,0.957,0.403,-0.097,-74.97,-161.262,-25.707,
65233460,0.301,1.143,-0.274,-54.372,-113.592,-81.55,
65233470,-0.985,1.769,-0.449,-1.662,-103.792,-147,
65233480,0.296,-0.981,1.836,-54.617,-110.495,-109.182,
65233490,-0.9,-1.998,-1.532,176.277,118.86,340.9,
65233500,1.452,1.347,-1.299,573.125,-150.43,-154.507,
65233510,-1.13,1.585,1.997,423.5,243.722,-93.52,
65233520,-0.953,-1.944,1.819,138.355,74.445,27.422,
65233530,0.252,-0.006,1.948,343.245,61.827,-67.27,
65233540,-1.04,1.725,1.998,246.575,28.42,-220.692,
65233550,0.649,-0.21,1.998,37.31,4.795,-154.332,
65233560,0.764,0.537,1.722,-42.332,-15.417,-144.672,
65233570,0.848,-0.113,1.087,-128.327,-33.005,-68.705,
65233580,0.716,-0.377,0.684,-150.605,-36.085,-11.69,
65233580,0.707,-0.467,0.607,-150.745,-23.695,18.27,
65233600,0.613,-0.343,0.876,-145.53,-3.167,36.925,
65233600,0.574,-0.195,0.935,-153.842,5.565,49.997,
65233620,0.372,-0.312,0.973,-173.932,11.655,61.722,
65233620,0.316,-0.378,0.971,-200.882,18.48,62.055,
65233640,0.084,-0.427,0.899,-233.695,21.35,54.197,
65233640,-0.022,-0.683,0.75,-268.52,15.925,34.72,
65233660,-0.062,-0.563,0.961,-282.257,28.087,10.097,
65233660,-0.092,-0.466,0.978,-304.535,34.615,-16.555,
65233670,0.517,-1.138,0.788,-336.91,38.64,-33.11,
65233680,0.92,-1.154,0.817,-309.207,85.61,-30.012,
65233690,0.135,-1.301,0.824,-276.937,144.34,4.917,
65233700,-0.071,-1.922,0.348,-276.587,141.365,-18.165,
65233710,0.412,-1.702,0.86,-226.397,96.495,-43.137,
65233720,0.773,-1.606,0.628,-127.452,78.26,-72.082,
65233730,1.444,-0.76,0.728,16.502,110.215,-112.087,
65233740,-0.344,-0.998,0.415,93.275,78.977,-206.202,
65233750,-1.965,-0.627,0.431,102.252,-15.592,-269.377,
65233760,-1.623,0.158,0.656,113.12,-83.562,-223.597,
65233770,-1.251,0.149,0.489,141.312,-100.642,-92.19,
65233780,-0.835,0.194,0.474,163.24,-83.422,15.4,
65233790,-0.7,0.128,0.704,191.31,-60.025,89.372,
65233800,-0.523,0.075,0.768,215.862,-44.8,144.217,
65233810,-0.282,0.14,0.738,242.48,-33.582,179.392,
65233820,-0.189,0.206,0.621,274.82,-33.617,208.81,
65233830,-0.068,0.249,0.383,300.965,-42.507,222.967,
65233840,0.099,0.292,-0.026,315.35,-47.145,228.812,
65233850,0.214,0.452,-0.425,313.11,-45.097,232.697,
65233860,0.435,0.738,-0.584,264.547,-37.17,222.81,
65233870,0.401,0.609,-0.472,169.68,-28.787,210.14,
65233880,0.192,-0.004,-0.165,60.48,-27.86,195.93,
65233890,-0.183,-0.815,0.16,-4.165,-44.292,177.415,
65233900,1.286,-1.998,1.363,-69.807,-63.787,175.875,
65233910,-1.665,-1.998,-1.997,241.115,-172.795,242.287,
65233920,1.503,0.958,0.264,564.55,-258.807,-125.825,
65233930,0.478,1.997,1.438,390.197,-29.68,-45.132,
65233940,-1.691,1.997,1.874,186.637,7.892,22.155,
65233950,0.153,-0.102,1.924,134.032,-22.995,-27.195,
65233960,-0.585,-1.116,1.974,30.012,-46.882,-66.377,
65233970,0.167,1.099,1.611,-10.115,-72.642,-126.525,
65233980,0.01,-0.251,1.076,-85.627,-53.795,-110.302,
65233990,0.409,-1.11,0.362,-100.292,-42.927,-115.92,
65234000,0.495,-1.129,0.274,-76.825,-27.475,-117.285,
65234010,0.494,-0.462,0.382,-29.89,-21.157,-119.805,
65234010,0.634,-0.52,0.53,9.94,-7.227,-102.165,
65234030,0.667,-0.274,0.755,30.712,4.515,-91.14,
65234030,0.722,-0.04,0.997,31.867,11.567,-66.202,
65234050,0.655,-0.022,1.155,11.62,14.735,-27.317,
65234050,0.542,-0.034,1.204,-18.935,15.89,8.977,
65234070,0.344,-0.109,1.327,-54.897,18.795,33.022,
65234070,0.321,-0.086,1.367,-97.86,19.46,43.102,
65234080,0.237,-0.132,1.312,-137.952,22.382,52.447,
65234090,0.246,-0.119,1.223,-169.505,26.337,55.457,
65234100,0.302,-0.126,1.123,-202.685,31.78,52.465,
65234110,0.21,-0.29,0.954,-238.332,38.307,46.375,
65234120,0.151,-0.464,0.958,-275.345,45.167,32.06,
65234130,0.042,-0.545,0.818,-298.392,42.385,4.392,
65234140,0.064,-0.631,0.828,-314.86,46.392,-25.06,
65234150,0.023,-0.672,0.947,-319.375,54.792,-39.235,
65234160,0.418,-0.818,0.671,-321.965,64.89,-53.182,
65234170,0.931,-1.171,0.606,-296.117,106.312,-44.73,
65234180,0.667,-1.207,0.797,-274.015,168.735,-13.212,
65234190,0.411,-1.468,0.529,-280.98,208.372,-17.99,
65234200,0.328,-1.527,0.735,-256.655,212.73,-26.81,
65234210,0.253,-1.795,0.623,-206.272,190.19,-54.442,
65234220,1.673,-1.891,0.209,-110.705,172.27,-73.465,
65234230,0.988,-1.682,0.457,48.492,185.185,-138.477,
65234240,-0.295,-1.478,0.271,140.892,162.067,-223.912,
65234250,-0.984,-1.123,-0.057,203.28,88.445,-239.137,
65234260,-1.717,-0.902,-0.246,258.037,-13.912,-221.935,
65234270,-1.386,-0.582,-0.42,292.582,-92.19,-195.982,
65234280,-0.621,-0.247,-0.654,301.945,-123.602,-143.325,
65234290,-0.294,0.083,-0.762,279.842,-106.54,-68.845,
65234300,-0.592,0.209,-0.731,226.362,-72.537,11.392,
65234310,-0.8,0.254,-0.703,154.105,-47.355,84.962,
65234320,-0.721,0.077,-0.495,85.627,-37.8,143.972,
65234330,-0.465,-0.02,-0.316,8.802,-38.255,184.257,
65234330,-0.201,-0.348,-0.07,-33.687,-28.455,239.015,
65234350,0.304,-0.409,-0.03,-58.152,-3.57,281.365,
65234350,0.365,-0.411,-0.064,-66.15,16.52,294.315,
65234370,0.708,-0.17,-0.178,-64.697,32.287,275.712,
65234370,1.169,0.141,-0.205,-65.485,62.667,246.102,
65234390,1.242,0.139,-0.072,-90.982,92.75,195.79,
65234390,1.115,-0.637,-0.32,-118.65,91.892,94.64,
65234410,0.715,-1.998,1.998,-84.752,-7.315,-7.245,
65234410,-0.848,-1.998,-0.02,33.267,-56.682,-41.475,
65234420,-1.065,-0.039,-0.043,495.635,-195.23,-110.11,
65234430,1.412,1.997,1.443,484.4,-75.862,-165.06,
65234440,-0.555,0.034,1.921,214.165,-42.35,-98.437,
65234450,0.327,-1.331,1.931,122.937,-25.672,-115.29,
65234460,0.641,1.037,1.916,82.372,-11.217,-174.597,
65234470,0.642,0.074,1.642,-41.002,0.175,-130.777,
65234480,0.792,-0.523,1.062,-118.58,0,-74.445,
65234490,0.533,-0.349,0.602,-107.922,-18.847,-31.832,
65234500,0.316,-0.852,0.292,-86.677,-25.34,3.605,
65234510,0.223,-0.879,0.308,-42.735,-23.152,8.12,
65234520,0.058,-0.772,0.604,-9.1,-11.41,3.465,
65234530,0.064,-0.619,0.763,10.552,-4.095,-5.775,
65234540,0.157,-0.508,0.923,18.777,2.52,-13.72,
65234550,0.292,-0.386,1.008,6.387,8.592,-16.047,
65234560,0.382,-0.391,0.993,-15.592,12.582,-8.015,
65234570,0.402,-0.349,1.106,-35.507,14.875,3.01,
65234580,0.352,-0.233,1.242,-62.492,17.045,15.365,
65234590,0.24,-0.224,1.372,-106.277,20.597,22.855,
65234600,0.151,-0.215,1.318,-162.68,21.787,21.962,
65234610,-0.044,-0.302,1.377,-224.21,22.89,16.117,
65234620,-0.163,-0.447,1.143,-279.002,10.972,-1.54,
65234630,-0.019,-0.646,1.1,-315.577,2.292,-25.83,
65234640,0.495,-1.071,0.971,-339.762,15.4,-46.077,
65234650,0.744,-1.396,0.914,-327.932,73.535,-42.437,
65234660,0.903,-1.908,0.964,-317.642,192.71,-11.76,
65234670,0.702,-1.969,0.476,-316.242,318.675,-16.625,
65234680,0.574,-1.795,0.088,-270.252,358.277,-79.887,
65234690,0.831,-1.981,-0.303,-164.78,372.75,-111.317,
65234700,1.246,-1.569,-0.407,-19.127,374.797,-160.737,
65234710,0.248,-0.967,-0.344,98.735,344.19,-242.795,
65234720,-0.339,-0.389,-0.307,125.755,253.067,-263.532,
65234730,-0.435,-0.328,-0.381,120.522,134.995,-238.402,
65234740,-0.33,-0.36,-0.543,114.345,41.597,-212.73,
65234750,-0.3,-0.2,-0.557,109.392,-15.365,-204.102,
65234760,-0.376,-0.016,-0.511,91.717,-38.605,-188.142,
65234760,-0.397,0.151,-0.408,55.562,-39.112,-149.782,
65234780,-0.338,0.267,-0.229,7.035,-30.8,-96.075,
65234780,-0.424,0.151,-0.006,-43.89,-21.927,-35.77,
65234800,-0.471,-0.065,0.194,-81.865,-25.305,20.807,
65234800,-0.354,-0.251,0.335,-90.545,-41.37,63.245,
65234820,-0.256,-0.392,0.488,-76.09,-62.79,99.05,
65234820,-0.028,-0.61,0.471,-57.47,-88.865,108.132,
65234830,-0.127,-0.511,0.579,18.69,-117.932,124.635,
65234840,-0.159,-0.067,0.5,47.32,-157.885,154.402,
65234850,0.088,-0.231,0.299,31.307,-201.565,183.12,
65234860,0.15,-0.427,-0.351,41.632,-241.605,176.26,
65234870,1.083,-0.73,0.16,85.82,-278.355,149.485,
65234880,1.616,-1.724,0.676,137.252,-254.31,51.205,
65234890,1.953,-1.998,1.915,187.39,-1.767,52.85,
65234900,-1.679,-1.998,-1.81,243.81,108.745,251.3,
65234910,-0.218,-0.096,-1.475,473.042,-183.487,11.83,
65234920,0.965,1.774,0.758,529.515,72.537,-18.882,
65234930,-1.998,-1.374,1.803,341.145,91.402,40.652,
65234940,-0.597,-0.589,1.437,340.375,1.295,-135.572,
65234950,-0.286,0.934,1.985,344.837,30.572,-198.082,
65234960,-0.012,0.581,1.952,197.715,18.392,-226.607,
65234970,0.649,0.027,1.875,106.837,14.945,-210.84,
65234980,0.714,0.179,1.644,13.3,17.29,-188.86,
65234990,0.783,0.187,1.259,-71.05,17.92,-149.397,
65235000,0.92,-0.242,0.955,-112.175,25.077,-90.842,
65235010,0.941,-0.193,0.805,-128.117,27.58,-40.617,
65235020,0.831,-0.241,0.813,-129.692,35.875,5.215,
65235030,0.638,-0.332,0.9,-134.837,43.382,40.127,
65235040,0.431,-0.244,0.982,-145.705,50.102,55.405,
65235050,0.265,-0.279,0.977,-171.43,56.332,60.515,
65235060,0.179,-0.38,1.061,-205.8,66.167,53.882,
65235070,0.001,-0.449,0.98,-243.827,70.07,35.735,
65235080,-0.287,-0.502,0.982,-281.452,66.29,12.985,
65235080,-0.273,-0.727,1.117,-328.492,52.552,-16.24,
65235100,0.02,-0.771,0.987,-336.262,44.17,-51.94,
65235100,0.716,-1.22,0.963,-350.665,69.16,-63.07,
65235120,1.124,-1.941,1.275,-371.752,178.237,-14.892,
65235120,0.901,-1.998,1.265,-392.857,301.21,18.235,
65235140,-0.105,-1.998,0.321,-351.96,321.685,8.347,
65235140,-0.859,-1.998,-0.112,-172.27,249.235,-32.532,
65235160,-0.888,-1.998,-1.097,42.122,100.327,-72.992,
65235160,-0.6,-1.315,-1.337,285.04,-47.11,-84.42,
65235170,-0.686,-0.021,-1.409,355.11,-163.922,-20.265,
65235180,-0.331,0.566,-1.37,238.035,-272.947,73.64,
65235190,0.423,0.414,-1.117,87.43,-295.977,199.132,
65235200,0.978,-0.067,-0.72,-44.047,-250.53,303.415,
65235210,1.13,-0.615,-0.187,-141.26,-191.257,334.915,
65235220,1.035,-0.802,0.132,-173.25,-145.46,301.175,
65235230,0.905,-0.604,0.379,-155.995,-109.007,261.065,
65235240,0.761,-0.359,0.564,-133.297,-84.192,227.57,
65235250,0.647,-0.464,0.702,-125.177,-71.697,187.197,
65235260,0.449,-0.525,0.828,-99.19,-74.41,139.177,
65235270,0.491,-0.269,0.849,-56.56,-85.452,78.645,
65235280,0.568,-0.27,0.729,-14.752,-86.73,31.937,
65235290,0.399,-0.081,0.796,40.53,-79.31,-0.682,
65235300,0.304,0.208,0.611,47.337,-86.345,-52.325,
65235310,0.154,0.072,0.532,49.857,-94.5,-90.982,
65235320,-0.033,0.007,0.449,66.255,-111.667,-125.912,
65235330,-0.189,0.104,0.238,103.495,-138.267,-159.88,
65235340,-0.159,0.437,-0.063,143.412,-150.675,-182.84,
65235350,-0.254,0.987,-0.393,161.805,-147.192,-190.68,
65235360,-0.477,1.516,-0.524,136.64,-133.805,-179.97,
65235370,-0.989,1.362,-1.171,70.682,-125.737,-141.207,
65235380,-1.747,0.194,0.095,-4.69,-332.64,-150.395,
65235390,1.99,-1.998,0.973,-53.987,-53.042,30.747,
65235400,-1.677,-1.512,-0.45,510.282,138.11,438.497,
65235410,1.884,1.997,-1.935,573.265,-160.335,-260.732,
65235420,-1.528,1.163,1.533,489.195,295.715,-63.857,
65235430,0.477,-1.998,1.237,326.987,66.062,-20.177,
65235440,-1.265,1.006,1.798,512.155,74.165,-179.725,
65235450,0.196,1.084,1.998,312.97,48.265,-266.052,
65235460,0.676,0.171,1.998,121.52,32.62,-203.052,
65235470,0.798,0.751,1.771,-14.49,1.89,-175.98,
65235480,0.754,-0.077,1.133,-127.505,-5.302,-80.307,
65235490,0.688,-0.379,0.665,-158.847,-1.662,-27.265,
65235500,0.725,-0.399,0.678,-159.022,8.872,6.475,
65235500,0.568,-0.369,0.933,-150.202,18.462,32.69,
65235510,0.359,-0.304,1.083,-137.76,19.32,51.817,
65235520,0.252,-0.126,1.107,-146.037,14.087,67.987,
65235530,-0.043,-0.27,1.145,-190.19,6.492,67.69,
65235540,-0.087,-0.467,0.913,-235.987,0.402,49.035,
65235550,-0.184,-0.746,0.873,-270.83,6.895,23.712,
65235560,-0.333,-0.806,1.007,-298.007,10.412,-11.06,
65235570,-0.297,-0.493,1.286,-316.697,6.772,-52.552,
65235580,0.174,-0.726,1.14,-358.47,12.25,-77.122,
65235590,1.396,-1.502,0.907,-368.882,63.542,-90.93,
65235600,1.154,-1.642,1.037,-335.212,194.127,-14.017,
65235610,0.12,-1.998,0.772,-347.007,309.785,56.647,
65235620,-0.114,-1.984,0.72,-252.297,288.015,-3.727,
65235630,0.088,-1.825,0.507,-82.057,179.095,-85.697,
65235640,0.518,-1.506,0.338,58.03,69.527,-112.945,
65235650,0.045,-0.653,-0.023,204.802,26.32,-122.237,
65235660,-0.575,-0.128,-0.16,231.962,-35.857,-131.092,
65235670,-0.526,0.086,-0.106,176.54,-99.802,-102.182,
65235680,-0.262,0.022,-0.055,129.937,-128.31,-45.395,
65235690,-0.132,-0.028,0.063,111.702,-131.705,10.01,
65235700,-0.153,-0.074,0.14,111.247,-126.84,50.365,
65235710,-0.145,-0.134,0.137,121.957,-120.312,79.275,
65235720,0.044,-0.071,0.149,139.615,-114.66,95.987,
65235730,0.118,0.039,0.232,142.642,-107.502,117.145,
65235740,0.148,-0.022,0.241,126.91,-103.46,138.67,
65235750,0.175,-0.071,0.199,127.575,-107.012,159.88,
65235760,0.371,0.023,0.109,132.825,-115.36,156.345,
65235770,0.498,0.194,0.013,132.667,-117.372,145.915,
65235780,0.467,0.28,-0.018,119.962,-114.257,135.94,
65235790,0.394,0.253,0.003,92.96,-107.73,122.045,
65235800,0.199,0.133,0.042,66.272,-108.692,97.807,
65235810,-0.074,0.056,-0.052,46.672,-115.447,68.81,
65235820,-0.452,0.131,-0.297,33.075,-125.037,47.075,
65235830,-0.56,0.472,-0.681,15.015,-136.342,34.562,
65235830,-0.172,1.116,-1.043,-15.102,-117.775,33.302,
65235850,-0.86,1.219,-1.4,-71.382,-82.635,22.68,
65235850,0.72,-1.246,1.414,-184.607,-52.71,-30.607,
65235870,-0.795,-1.998,-0.473,30.31,340.847,270.655,
65235870,0.429,1.354,-1.6,566.72,-149.31,-253.522,
65235890,-0.294,1.849,1.441,502.915,215.652,-336.595,
65235890,0.164,-1.902,1.998,166.845,153.877,-13.265,
65235910,0.262,0.505,1.625,357.665,52.062,-109.917,
65235910,-0.275,0.804,1.998,276.622,38.22,-114.73,
65235920,0.316,0.268,1.998,74.637,-0.577,-49.227,
65235930,0.353,0.586,1.897,-32.69,-27.37,-55.405,
65235940,0.476,-0.076,1.267,-145.495,-35.35,-16.537,
65235950,0.507,-0.362,0.807,-185.727,-25.795,3.937,
65235960,0.58,-0.439,0.74,-189.875,-13.44,27.352,
65235970,0.483,-0.333,0.922,-182.927,-9.327,49.682,
65235980,0.244,-0.275,0.951,-182.525,-14.227,70.7,
65235990,0.152,-0.223,0.936,-185.885,-18.077,80.01,
65236000,0.105,-0.336,0.96,-204.68,-15.907,76.562,
65236010,0.045,-0.502,1.002,-233.082,-11.34,63.035,
65236020,0.011,-0.626,0.935,-255.885,-8.61,36.785,
65236030,-0.216,-0.477,1.033,-256.725,-9.485,22.96,
65236040,0.136,-0.423,0.864,-305.987,-10.115,-5.635,
65236050,0.438,-0.966,1.143,-367.902,13.93,-14.822,
65236060,0.653,-1.766,1.166,-380.747,60.567,-2.992,
65236070,1.066,-1.887,1.069,-332.552,152.425,14.262,
65236080,0.603,-1.929,0.519,-315.84,265.387,56.402,
65236090,0.075,-1.536,0.294,-249.62,273.122,-3.202,
65236100,0.292,-1.558,0.039,-164.185,243.705,-74.112,
65236110,0.286,-1.667,0.011,-63.507,194.565,-85.452,
65236120,0.405,-0.998,0.003,85.085,157.36,-119.052,
65236130,-0.183,-0.543,0.033,169.33,103.6,-126.192,
65236140,-0.43,-0.282,-0.114,191.31,22.382,-109.13,
65236150,-0.376,-0.203,-0.215,187.6,-62.317,-79.992,
65236160,-0.236,-0.113,-0.243,172.742,-121.957,-44.432,
65236170,-0.208,-0.16,-0.245,153.125,-155.207,-10.01,
65236170,-0.133,-0.143,-0.185,134.907,-167.055,22.4,
65236190,-0.019,-0.045,-0.087,120.382,-157.272,55.842,
65236190,0.03,-0.035,-0.013,100.345,-137.007,89.127,
65236210,0.133,-0.075,0.033,82.932,-116.55,108.78,
65236210,0.2,0.001,0.11,85.82,-92.102,130.445,
65236230,0.258,0.109,0.143,79.345,-65.695,159.95,
65236230,0.278,0.124,0.127,69.44,-47.11,188.212,
65236250,0.251,0.151,0.116,67.917,-42.262,207.13,
65236250,0,0.185,0.107,61.88,-70.875,221.742,
65236260,-0.033,0.013,-0.083,36.207,-139.247,218.907,
65236270,0.565,-0.153,-0.343,-2.467,-206.535,207.375,
65236280,1.306,-0.181,-0.64,-27.825,-240.082,180.215,
65236290,1.795,-0.074,-0.788,-41.825,-225.33,124.6,
65236300,1.233,-1.303,0.802,-45.43,-187.705,72.572,
65236310,-1.982,-1.998,1.953,40.285,-187.95,91.315,
65236320,-1.148,-1.894,-1.935,395.71,-210.472,197.645,
65236330,1.991,1.822,0.803,570.867,-160.58,54.81,
65236340,-1.628,1.289,1.639,416.762,91.84,114.047,
65236350,-0.988,1.065,1.703,367.202,-24.167,-23.975,
65236360,-0.48,-1.219,1.998,335.58,-0.91,-82.232,
65236370,-0.324,1.287,1.998,214.9,-26.162,-194.74,
65236380,0.859,0.668,1.986,80.15,-38.307,-192.675,
65236390,0.925,0.391,1.6,-30.275,-43.75,-144.76,
65236400,0.796,-0.284,0.897,-100.187,-48.457,-84.647,
65236410,0.71,-0.485,0.511,-111.387,-45.132,-42.087,
65236420,0.728,-0.474,0.531,-90.475,-29.662,-15.085,
65236430,0.709,-0.396,0.831,-79.345,-10.185,11.375,
65236440,0.596,-0.241,0.968,-82.617,3.36,34.86,
65236450,0.469,-0.231,1.031,-99.697,17.447,52.92,
65236460,0.478,-0.193,1.069,-126.052,28.332,65.38,
65236470,0.346,-0.176,1.112,-157.622,38.027,70.717,
65236480,0.412,-0.208,1.139,-197.155,47.337,66.15,
65236490,0.352,-0.206,1.233,-241.202,57.767,60.462,
65236500,-0.005,-0.219,1.267,-288.242,59.01,51.52,
65236510,-0.166,-0.294,1.128,-332.71,46.357,36.575,
65236520,0.084,-0.556,1.131,-365.837,37.205,23.222,
65236530,0.404,-0.828,1.085,-366.03,32.025,21.805,
65236540,0.8,-1.39,0.756,-347.077,56.35,48.667,
65236550,0.211,-1.595,0.6,-282.38,74.182,82.652,
65236560,1.043,-1.998,0.746,-255.132,46.462,68.04,
65236570,0.706,-1.998,1.109,-175.28,11.217,42.49,
65236580,0.919,-1.998,0.88,-45.867,0.875,-44.887,
65236580,-0.376,-1.645,0.25,141.505,-60.76,-143.412,
65236600,-0.834,-0.608,-0.09,233.73,-132.107,-183.872,
65236600,-0.383,0.203,-0.14,224.315,-159.985,-138.267,
65236620,-0.093,0.276,-0.033,186.76,-128.8,-53.865,
65236620,-0.482,-0.047,0.271,137.882,-110.915,0.997,
65236640,-0.376,-0.263,0.32,131.11,-127.592,13.44,
65236640,-0.03,-0.195,0.241,173.88,-136.78,34.667,
65236660,0.203,-0.034,0.088,211.592,-134.137,54.127,
65236660,0.269,0.061,-0.126,214.585,-127.032,55.422,
65236670,0.111,0.12,-0.243,205.327,-115.202,58.065,
65236680,0.068,0.272,-0.323,182.84,-105.49,49.892,
65236690,0.003,0.383,-0.214,139.457,-95.952,49.892,
65236700,-0.026,0.154,-0.079,79.24,-80.465,65.73,
65236710,-0.04,-0.21,0.048,42.735,-59.22,85.82,
65236720,-0.035,-0.402,0.115,42.56,-38.062,97.545,
65236730,-0.164,-0.371,-0.004,60.2,-28.262,101.237,
65236740,-0.261,-0.226,-0.181,75.67,-40.635,96.162,
65236750,-0.15,-0.095,-0.399,76.195,-60.532,92.54,
65236760,-0.077,0.071,-0.609,56.752,-71.435,90.685,
65236770,-0.258,0.367,-0.724,23.047,-73.307,86.852,
65236780,-0.481,0.869,-0.839,-11.62,-68.442,81.777,
65236790,1.017,-0.675,1.552,-80.955,36.19,105.455,
65236800,-0.682,-1.998,-0.741,30.695,206.64,355.635,
65236810,1.001,0.72,-0.007,541.642,-168.945,-80.99,
65236820,-1.341,1.997,1.093,510.65,34.772,-188.825,
65236830,-0.644,-1.102,1.677,254.625,56.892,13.23,
65236840,-0.383,-0.251,1.998,274.662,26.932,-57.872,
65236850,0.322,1.767,1.997,145.477,-58.73,-181.527,
65236860,0.879,0.455,1.862,-56.175,-47.022,-98.14,
65236870,-0.002,-0.195,0.967,-175.07,-10.692,-97.37,
65236880,0.463,-1.008,0.497,-173.67,-18.462,-71.977,
65236890,0.629,-0.504,0.695,-157.237,-5.775,-78.61,
65236900,0.737,-0.321,0.896,-157.185,8.942,-59.08,
65236910,0.826,-0.237,1.029,-142.31,18.305,-21.595,
65236920,0.508,0.002,1.191,-154.997,28.42,10.727,
65236920,0.377,-0.032,1.199,-202.387,35.612,24.08,
65236940,0.475,-0.151,1.255,-266.98,58.222,22.347,
65236940,0.045,-0.241,1.532,-344.61,87.412,-0.42,
65236960,-0.08,-0.354,1.338,-425.81,84.42,-52.325,
65236960,0.284,-0.729,1.123,-506.8,83.597,-103.827,
65236980,1.771,-1.653,0.921,-564.042,182.857,-115.062,
65236980,1.921,-1.998,-0.728,-563.36,462.437,-41.912,
65237000,1.998,-1.998,-0.679,-554.785,569.362,-139.457,
65237000,1.988,-1.998,-0.646,-519.452,573.37,-298.235,
65237010,-0.573,-1.998,-0.143,-299.057,527.012,-413,
65237020,-1.996,-1.554,0.057,20.387,283.045,-441.35,
65237030,-1.815,-0.572,-0.036,198.415,24.255,-368.497,
65237040,-1.678,-0.098,-0.482,195.282,-100.187,-293.79,
65237050,-1.835,0.669,-0.25,154.875,-109.76,-231.332,
65237060,-1.998,0.847,0.214,49.787,-67.2,-149.432,
65237070,-1.998,0.536,0.665,-58.66,-19.285,-38.99,
65237080,-1.851,-0.057,0.928,-87.482,5.372,56.577,
65237090,-1.312,-0.113,1.012,-46.357,8.365,94.097,
65237100,-0.841,-0.046,0.949,3.5,12.95,110.442,
65237110,-0.483,-0.32,0.812,58.485,24.727,123.847,
65237120,-0.211,-0.409,0.666,117.617,34.265,105.227,
65237130,-0.143,-0.31,0.566,173.005,39.865,80.5,
65237140,-0.123,-0.174,0.433,192.062,46.217,61.687,
65237150,-0.263,-0.191,0.333,211.557,48.562,83.982,
65237160,-0.161,-0.305,0.228,209.492,43.12,103.337,
65237170,-0.169,-0.336,0.073,207.48,33.04,108.307,
65237180,-0.17,-0.24,-0.177,215.022,24.167,119.945,
65237190,-0.037,-0.018,-0.353,221.602,17.465,134.68,
65237200,0.033,0.085,-0.459,200.41,11.917,157.43,
65237210,0.111,0.106,-0.483,158.987,0.84,182.875,
65237220,0.117,0.033,-0.453,99.715,-25.007,216.93,
65237230,0.474,-0.142,-0.532,38.115,-64.33,244.58,
65237240,0.846,-0.203,-0.568,-12.407,-102.287,267.697,
65237250,1.226,-0.265,-0.757,-41.335,-151.707,258.597,
65237260,1.859,-0.291,-0.81,-65.047,-180.775,215.985,
65237270,1.802,-0.896,0.286,-116.917,-169.802,149.66,
65237280,0.345,-1.998,0.266,-98.577,-9.66,291.97,
65237290,-1.587,-0.944,-1.487,486.062,-157.01,123.095,
65237300,-0.996,1.997,1.6,571.865,-191.065,-224.927,
65237310,-0.162,1.25,1.84,383.372,-96.967,15.68,
65237320,-1.623,-1.959,1.998,222.495,-76.475,-30.397,
65237330,0.866,1.546,1.998,310.135,-149.117,-224.857,
65237330,1.94,1.616,1.313,127.925,-145.25,-149.432,
65237350,0.789,0.329,1.342,-27.947,-51.817,-61.88,
65237350,0.371,-0.649,0.681,-87.412,-9.152,-31.937,
65237370,0.271,-0.878,0.644,-60.917,1.96,-33.32,
65237370,0.494,-0.253,0.968,-40.862,5.652,-44.817,
65237390,0.601,-0.063,1.182,-56.42,17.972,-29.872,
65237390,0.515,0,1.384,-91.332,35,-9.047,
65237410,0.369,-0.105,1.371,-135.117,42.017,12.6,
65237410,0.458,-0.234,1.264,-179.847,45.237,29.907,
65237420,0.34,-0.035,1.373,-222.652,65.45,34.037,
65237430,0.203,0.107,1.509,-279.947,85.19,31.062,
65237440,-0.03,0.127,1.491,-343.42,84.105,21.56,
65237450,-0.223,0.002,1.337,-397.687,63,1.487,
65237460,0.053,-0.375,1.041,-440.597,46.515,-23.975,
65237470,1.021,-1.308,0.575,-476.052,86.887,-29.697,
65237480,1.274,-1.998,0.78,-488.075,189.402,9.905,
65237490,1.088,-1.998,0.454,-456.855,284.077,2.03,
65237500,1.498,-1.998,0.239,-349.615,289.065,-62.125,
65237510,1.16,-1.998,-0.392,-147.63,273.84,-158.27,
65237520,-0.829,-1.985,-0.327,68.005,210.63,-257.25,
65237530,-1.46,-1.203,-0.374,184.747,66.867,-271.827,
65237540,-1.24,-0.754,-0.443,219.87,-60.322,-217.752,
65237550,-1.028,-0.623,-0.587,212.467,-142.152,-156.222,
65237560,-0.659,-0.302,-0.492,191.415,-186.445,-105.98,
65237570,-0.749,-0.128,-0.548,152.39,-194.372,-38.64,
65237580,-0.775,-0.083,-0.382,107.17,-187.617,29.365,
65237590,-0.774,0.175,-0.094,63.052,-174.562,80.045,
65237600,-0.773,0.639,0.089,18.795,-168.035,108.237,
65237610,-0.443,1.26,0.167,-18.865,-152.67,118.842,
65237620,-0.069,1.554,0.294,-59.587,-114.677,123.445,
65237630,0.18,1.528,0.445,-112.735,-59.377,113.977,
65237640,0.183,1.25,0.666,-137.725,1.872,97.02,
65237650,-0.001,0.868,0.896,-130.27,50.522,88.847,
65237660,-0.076,0.399,1.096,-121.1,74.742,82.582,
65237670,-0.21,-0.231,1.149,-91.122,74.06,86.712,
65237670,-0.31,-1.002,0.95,-25.725,48.055,94.867,
65237690,-0.458,-1.344,0.748,112.7,-0.665,110.407,
65237690,-0.306,-1.418,0.121,243.197,-66.517,131.285,
65237710,-0.251,-1.367,-0.36,317.432,-128.187,142.415,
65237710,-0.241,-1.284,-0.913,350.805,-182.192,156.065,
65237730,0.031,-1.472,-1.621,316.925,-218.295,146.982,
65237730,1.803,-1.99,0.493,264.512,-241.92,121.31,
65237750,1.873,-1.998,1.11,237.597,9.485,109.025,
65237750,-1.89,-1.203,-1.652,467.757,-0.98,11.2,
65237760,0.039,1.997,1.542,573.37,-41.685,-190.82,
65237770,0.38,0.83,1.279,503.65,46.795,-45.552,
65237780,-1.322,-1.092,1.958,266.56,52.01,16.397,
65237790,1.447,1.955,1.529,248.272,-97.737,-139.807,
65237800,0.371,-0.895,1.915,-121.992,-40.25,-49.297,
65237810,0.918,1.079,1.387,-179.217,-33.67,-80.115,
65237820,-0.496,-1.378,0.46,-199.377,33.67,-55.387,
65237830,0.381,-1.764,0.183,-138.407,12.862,-39.935,
65237840,0.399,-0.656,0.269,-94.29,5.792,-73.5,
65237850,0.499,-0.606,0.457,-64.12,20.125,-58.082,
65237860,0.358,-0.348,1.073,-8.032,29.61,-38.727,
65237870,0.462,-0.082,1.299,-8.925,19.845,-15.26,
65237880,0.235,0.015,1.479,-52.815,20.072,4.97,
65237890,0.177,0.001,1.518,-110.687,13.317,17.885,
65237900,0.113,-0.088,1.584,-169.295,14.472,22.312,
65237910,0.011,-0.051,1.479,-233.537,4.952,16.852,
65237920,-0.274,-0.088,1.404,-287.367,-24.937,4.76,
65237930,0.04,-0.481,1.162,-337.54,-64.155,-18.83,
65237940,0.074,-1.106,0.941,-355.687,-78.225,-16.975,
65237950,0.297,-1.431,0.756,-324.275,-60.567,-5.407,
65237960,0.698,-1.56,0.692,-271.092,8.137,13.072,
65237970,0.089,-1.682,0.167,-216.79,61.25,32.357,
65237980,0.196,-1.913,0.264,-164.5,47.285,-9.45,
65237990,-0.188,-1.705,-0.687,-114.222,25.69,-25.357,
65238000,0.166,-1.445,-0.159,-61.337,-4.2,-50.26,
65238010,0.388,-1.158,-0.07,-48.09,11.287,-31.535,
65238020,-0.12,-1.143,-0.201,-3.78,25.217,-8.697,
65238030,-0.276,-0.968,-0.233,35.507,-1.085,-17.237,
65238040,-0.125,-0.711,-0.227,54.162,-26.145,-23.835,
65238050,-0.029,-0.588,-0.152,51.45,-36.102,-16.8,
65238060,-0.126,-0.486,-0.073,28.42,-37.415,-16.257,
65238070,-0.205,-0.331,0.002,6.3,-31.08,-21.472,
65238080,-0.093,-0.276,0.122,-8.347,-12.74,-23.765,
65238080,-0.082,-0.33,0.29,-19.127,16.117,-21.507,
65238100,-0.143,-0.392,0.414,-21.315,48.895,-19.32,
65238100,-0.263,-0.422,0.416,-7.297,78.032,-13.667,
65238120,-0.406,-0.366,0.284,16.257,96.617,-7.682,
65238120,-0.718,-0.173,-0.041,37.905,93.73,-1.855,
65238130,-0.945,0.292,-0.196,42.367,68.215,2.17,
65238140,-0.726,0.765,-0.389,6.615,44.8,24.185,
65238150,-0.244,1.164,-0.41,-65.397,49.472,82.792,
65238160,-0.185,1.565,-0.001,-149.502,56.455,124.162,
65238170,-0.171,1.752,-0.041,-200.987,36.137,106.312,
65238180,1,0.219,1.246,-159.617,-17.167,6.055,
65238190,0.525,-1.998,0.279,138.862,148.942,-57.645,
65238200,-0.923,-0.769,-1.332,523.337,-165.567,-129.622,
65238210,0.146,1.997,0.866,563.43,91.787,-339.727,
65238220,-0.562,0.213,1.92,382.987,39.62,-97.44,
65238230,1.274,-1.364,1.939,291.287,0.77,-12.18,
65238240,-0.341,1.887,1.998,343.857,-13.65,-142.03,
65238250,0.221,-0.212,1.998,141.487,-28.595,-37.782,
65238260,0.147,0.666,1.967,25.165,-57.715,-45.097,
65238270,0.32,-0.059,1.505,-87.22,-77.927,-17.132,
65238280,0.512,-0.285,1.043,-147.035,-80.342,1.82,
65238290,0.682,-0.206,1.022,-174.667,-62.702,18.025,
65238300,0.722,-0.032,1.159,-215.757,-40.757,39.2,
65238310,0.584,-0.006,1.23,-256.76,-31.045,59.447,
65238320,0.624,-0.109,1.101,-293.597,-31.08,70.595,
65238330,0.475,-0.287,1.057,-329.717,-28.035,68.915,
65238340,0.285,-0.332,1.151,-371.35,-27.002,50.68,
65238350,0.283,-0.943,1.058,-418.04,-38.64,13.3,
65238360,0.553,-0.98,1.103,-407.75,-13.632,-11.76,
65238370,1.711,-1.801,0.988,-386.067,74.917,41.002,
65238380,1.733,-1.998,1.442,-425.6,231.735,70.402,
65238390,0.431,-1.998,-0.231,-364.84,255.115,-71.172,
65238400,1.911,-1.984,0.11,-207.287,202.247,-196.892,
65238410,0.101,-1.998,-0.218,-47.757,222.162,-286.93,
65238420,-1.979,-1.884,-0.437,101.29,163.152,-339.29,
65238420,-1.998,-0.668,-0.406,204.925,38.167,-320.635,
65238440,-1.998,0.132,-0.694,220.01,-41.387,-230.3,
65238440,-1.785,0.607,-0.599,154.245,-95.935,-121.607,
65238460,-1.257,0.714,-0.15,57.487,-94.85,-14.455,
65238460,-1.332,0.341,0.201,-28.682,-73.64,63.245,
65238480,-1.144,0.085,0.489,-80.692,-45.745,93.467,
65238480,-0.695,0.115,0.596,-90.527,-15.417,92.19,
65238500,-0.129,0.046,0.693,-73.395,21.332,74.987,
65238500,-0.042,0.102,0.751,-48.142,63.735,53.217,
65238510,-0.079,-0.051,0.797,-6.195,94.5,54.635,
65238520,0.033,-0.131,0.74,62.387,98.63,64.592,
65238530,0.098,-0.14,0.67,137.567,85.487,81.532,
65238540,0.142,-0.183,0.557,206.832,59.587,111.177,
65238550,0.22,-0.266,0.33,255.675,27.895,142.555,
65238560,0.188,-0.373,0.112,289.765,-2.992,163.047,
65238570,0.141,-0.452,-0.303,306.11,-33.792,169.855,
65238580,0.212,-0.37,-0.687,310.082,-58.537,170.642,
65238590,0.38,-0.135,-0.922,280.647,-66.132,163.992,
65238600,0.413,0.008,-0.987,202.947,-56.98,162.05,
65238610,0.085,-0.17,-0.93,88.217,-51.625,174.632,
65238620,-0.686,-0.632,-1.243,-19.617,-80.08,193.655,
65238630,0.92,-1.909,1.81,-114.87,-172.672,195.107,
65238640,-0.189,-1.998,-0.831,94.01,55.65,263.305,
65238650,-0.496,0.907,-0.359,558.092,-222.985,-178.01,
65238660,0.165,1.997,1.602,526.54,14.402,-241.675,
65238670,-0.855,-0.866,1.522,220.465,30.957,84.507,
65238680,-0.242,-1.235,1.261,256.252,19.232,-60.112,
65238690,-0.539,1.71,1.975,339.202,-22.89,-226.187,
65238700,1.033,0.389,1.971,183.4,-59.29,-123.777,
65238710,0.947,1.268,1.443,55.982,-66.605,-80.307,
65238720,0.576,-0.235,1.201,-43.522,-45.605,0.227,
65238730,0.318,-0.237,0.959,-73.552,-33.162,12.022,
65238740,0.305,-0.452,1.172,-89.197,-22.347,17.885,
65238750,0.38,0.055,1.474,-113.837,-8.347,8.47,
65238760,0.413,0.036,1.443,-167.282,5.53,17.447,
65238770,0.624,0.004,1.336,-223.037,16.555,31.185,
65238780,0.775,0.203,1.183,-267.872,30.817,46.742,
65238790,0.803,0.248,1.151,-323.89,51.432,63.595,
65238800,0.397,0.048,1.362,-383.932,56.682,69.037,
65238800,0.027,-0.17,1.275,-439.092,24.85,58.485,
65238820,0.341,-0.615,1.26,-466.812,-11.707,42.735,
65238820,0.723,-1.431,1.22,-464.59,-0.49,69.702,
65238830,0.699,-1.998,0.793,-406.7,64.365,97.09,
65238840,0.547,-1.95,0.377,-293.545,102.41,72.205,
65238850,-0.122,-1.834,0.321,-222.81,64.242,4.532,
65238860,-0.127,-1.882,-0.397,-134.172,-3.867,-85.172,
65238870,0.135,-1.143,-0.159,-19.215,-7.385,-119.262,
65238880,-0.559,-0.824,-0.057,48.702,-9.59,-126.875,
65238890,-0.912,-0.422,-0.045,62.86,-25.865,-103.25,
65238900,-0.905,-0.247,-0.13,55.702,-41.037,-61.022,
65238910,-0.667,-0.206,-0.177,56.507,-49.875,-19.827,
65238920,-0.382,-0.234,-0.125,49.997,-43.382,10.185,
65238930,-0.312,-0.334,-0.036,40.11,-28.875,24.062,
65238940,-0.385,-0.384,0.028,39.147,-17.692,24.132,
65238950,-0.41,-0.421,0.074,42.927,-18.165,19.46,
65238960,-0.301,-0.381,0.117,48.195,-24.412,11.76,
65238970,-0.324,-0.44,0.111,62.912,-31.552,16.905,
65238980,-0.267,-0.48,0.071,72.957,-33.74,27.37,
65238990,-0.134,-0.39,-0.093,90.265,-33.127,35.577,
65239000,0.093,-0.041,-0.238,107.292,-26.792,44.24,
65239010,0.338,0.232,-0.286,101.342,-8.627,56.21,
65239020,0.276,0.218,-0.111,69.457,10.342,71.032,
65239030,0.106,-0.054,-0.022,22.225,12.547,76.562,
65239040,0.238,-0.149,0.015,-8.662,7.052,70.28,
65239050,0.287,-0.099,-0.059,-22.33,1.995,62.667,
65239060,0.089,0.102,-0.044,-30.66,-12.565,52.22,
65239070,-0.221,0.535,0.097,-41.02,-54.18,31.605,
65239080,-0.666,0.394,0.057,-33.442,-147.822,-6.912,
65239090,1.427,-1.678,1.993,-6.422,-121.765,-0.77,
65239100,-0.818,-1.998,-0.8,376.267,184.152,290.22,
65239110,0.214,1.11,-1.425,558.18,-189.455,-179.357,
65239120,0.01,1.981,0.687,527.012,112.017,-157.797,
65239130,-1.485,-1.49,1.747,313.267,66.237,44.59,
65239140,0.023,-0.063,1.738,383.582,11.375,-123.042,
65239150,-0.572,1.467,1.998,371.472,15.715,-206.885,
65239160,0.598,-0.104,1.998,196.35,-7.07,-142.975,
65239170,0.75,0.919,1.959,100.327,-20.37,-135.992,
65239170,0.705,0.244,1.604,-23.222,-27.982,-66.552,
65239190,0.631,-0.018,1.265,-101.815,-31.36,-15.715,
65239190,0.539,-0.215,1.105,-147.507,-23.572,20.282,
65239210,0.597,-0.13,1.134,-184.555,-7.997,39.095,
65239210,0.556,-0.053,1.23,-225.067,10.657,52.045,
65239230,0.474,0.034,1.192,-264.617,24.92,60.62,
65239230,0.398,0.029,1.1,-300.825,29.312,67.042,
65239250,0.21,-0.111,1.143,-344.662,33.582,69.072,
65239250,0.018,-0.137,1.158,-397.95,30.66,52.202,
65239260,0.27,-0.467,1.047,-450.607,20.842,26.827,
65239270,1.096,-1.719,1.11,-465.412,51.292,13.895,
65239280,1.27,-1.784,1.161,-375.55,149.222,73.185,
65239290,1.276,-1.998,0.281,-373.66,274.05,114.625,
65239300,-0.033,-1.998,-0.048,-288.102,273.7,57.802,
65239310,-0.381,-1.998,-0.418,-148.102,154.7,-74.847,
65239320,0.86,-1.47,-0.485,14.157,37.782,-103.775,
65239330,0.629,-0.695,-0.185,125.562,-11.095,-106.085,
65239340,-0.098,-0.263,-0.286,119.77,-56.087,-127.697,
65239350,-0.262,0.055,-0.242,81.305,-95.812,-118.37,
65239360,-0.059,0.047,-0.152,33.775,-102.41,-71.085,
65239370,0.181,-0.087,-0.095,5.145,-84.857,-22.82,
65239380,0.245,-0.251,0.094,3.027,-64.89,4.952,
65239390,0.123,-0.313,0.277,11.987,-52.465,13.807,
65239400,0.012,-0.348,0.345,24.657,-52.85,22.435,
65239410,-0.053,-0.288,0.361,39.672,-66.745,34.16,
65239420,-0.069,-0.18,0.374,50.19,-90.65,40.04,
65239430,-0.076,-0.08,0.314,58.38,-117.092,38.955,
65239440,-0.006,0.053,0.203,71.4,-140.315,36.242,
65239450,0.162,0.183,0.088,82.11,-149.87,36.977,
65239460,0.247,0.254,-0.008,83.44,-142.852,44.415,
65239470,0.234,0.255,-0.07,74.252,-128.467,52.325,
65239480,0.204,0.2,-0.104,57.382,-111.58,58.607,
65239490,0.105,0.173,-0.188,39.042,-99.225,59.867,
65239500,-0.061,0.258,-0.31,22.627,-99.96,59.692,
65239510,-0.104,0.171,-0.388,-2.8,-108.272,64.89,
65239510,-0.307,0.093,-0.99,-17.657,-122.99,72.03,
65239530,-1.781,-0.172,0.069,-17.01,-272.65,41.93,
65239530,1.47,-1.998,1.932,-77.98,-174.02,51.135,
65239550,-0.606,-1.998,-0.949,380.397,349.562,484.592,
65239550,0.554,0.737,0.421,570.342,-55.86,167.387,
65239570,-1.053,1.997,0.473,485.625,132.772,-113.417,
65239570,-1.52,-1.012,1.63,302.627,57.907,28.227,
65239580,0.246,-1.393,1.986,352.117,11.042,-85.715,
65239590,-0.755,1.969,1.971,343.945,23.205,-337.592,
65239600,0.745,-0.109,1.998,135.082,43.872,-286.125,
65239610,1.126,0.222,1.702,38.01,30.292,-231.455,
65239620,1.142,0.415,1.098,-43.89,1.452,-146.422,
65239630,0.991,-0.445,0.841,-72.537,-12.897,-27.562,
65239640,0.665,-0.305,0.876,-75.932,-20.615,25.62,
65239650,0.371,-0.31,1.042,-86.922,-19.897,57.12,
65239660,0.103,-0.365,1.165,-105.927,-14.892,71.925,
65239670,-0.034,-0.363,1.194,-127.365,-10.377,63.857,
65239680,0.185,-0.243,1.123,-159.582,-2.66,43.645,
65239690,0.235,-0.24,1.024,-204.575,9.012,29.785,
65239700,0.163,-0.381,0.876,-253.207,33.617,19.145,
65239710,-0.004,-0.516,1.126,-302.417,56.297,9.345,
65239720,-0.056,-0.658,0.943,-333.497,57.155,-13.072,
65239730,0.4,-1.231,0.918,-343.175,61.687,-51.957,
65239740,0.576,-1.161,0.999,-316.015,80.29,-48.387,
65239750,0.903,-1.343,0.737,-304.15,145.092,-4.637,
65239760,0.509,-1.92,0.504,-291.007,239.872,69.055,
65239770,-0.002,-1.89,0.446,-249.672,207.147,24.027,
65239780,-0.158,-1.525,0.188,-152.302,126.017,-40.39,
65239790,0.238,-1.519,0.081,-20.947,36.995,-44.66,
65239800,0.706,-0.882,0.198,111.37,-12.547,-49.315,
65239810,0.234,-0.586,0.178,167.335,-45.15,-78.68,
65239820,-0.178,-0.356,0.132,158.725,-90.895,-91.822,
65239830,-0.237,-0.203,0.219,146.772,-141.697,-81.725,
65239840,-0.189,-0.38,0.273,144.515,-179.48,-53.112,
65239850,-0.07,-0.535,0.317,161.875,-213.885,-36.295,
65239860,0.148,-0.362,0.236,199.15,-233.065,-34.387,
65239870,0.338,0.017,0.075,231.14,-220.132,-18.095,
65239880,0.431,0.241,-0.1,228.917,-186.62,9.73,
65239890,0.392,0.346,-0.184,201.302,-147.017,34.37,
65239900,0.169,0.502,-0.212,162.977,-117.197,47.39,
65239910,-0.023,0.806,-0.218,123.777,-111.3,44.257,
65239920,0.081,1.022,-0.162,81.217,-109.27,42.612,
65239920,0.245,0.999,0.017,38.412,-95.165,55.387,
65239940,0.152,0.701,0.182,1.417,-79.992,70.577,
65239940,-0.122,0.513,0.186,-14.017,-84.437,62.23,
65239960,-0.247,0.82,0.075,11.042,-101.36,39.637,
65239960,-0.86,0.756,-0.988,58.502,-145.862,34.44,
65239980,1.383,-1.686,0.953,-12.512,-105.175,95.637,
65239980,-1.07,-1.998,-0.2,143.167,300.545,473.445,
65240000,1.153,1.362,0.19,570.745,-52.167,106.365,
65240000,-0.53,1.99,0.013,515.532,43.925,-98.7,
65240010,-1.425,-1.631,1.639,210.595,126.962,202.352,
65240020,-0.648,-0.398,1.991,339.622,6.632,-0.525,
65240030,-1.113,1.576,1.998,274.82,6.107,-231.175,
65240040,0.237,-0.566,1.998,92.837,-8.68,-173.617,
65240050,0.587,1.198,1.783,4.2,-27.737,-211.33,
65240060,0.963,-0.249,1.081,-99.365,-36.347,-129.902,
65240070,1.011,-0.296,0.71,-121.8,-39.917,-70.875,
65240080,0.943,-0.277,0.795,-126.7,-30.205,-22.837,
65240090,0.915,-0.17,1.016,-132.055,-15.89,20.002,
65240100,0.643,-0.021,1.195,-149.292,-3.92,60.83,
65240110,0.468,-0.093,1.183,-187.39,4.585,88.515,
65240120,0.364,-0.109,1.126,-223.527,12.005,93.765,
65240130,0.358,-0.174,1.017,-261.047,22.557,86.8,
65240140,0.063,-0.306,0.92,-295.26,34.65,74.585,
65240150,0.121,-0.501,1.024,-336.525,44.415,56.892,
65240160,0.068,-0.816,1.067,-380.117,55.895,35.84,
65240170,0.162,-1.057,1.111,-382.76,65.065,-0.42,
65240180,0.777,-1.399,0.565,-360.937,106.085,-8.067,
65240190,1.911,-1.991,0.535,-350.262,197.47,11.795,
65240200,1.431,-1.966,0.392,-365.855,306.18,-8.977,
65240210,0.478,-1.822,-0.075,-301.105,342.965,-118.79,
65240220,1.962,-1.42,-0.051,-177.135,341.46,-119.455,
65240230,0.731,-1.922,0.228,-39.427,324.152,-198.187,
65240240,-1.395,-1.771,0.24,53.9,215.967,-293.79,
65240250,-1.636,-1.11,-0.012,156.625,56.892,-327.967,
65240260,-1.651,-0.702,-0.339,243.215,-67.305,-293.825,
65240260,-1.303,-0.207,-0.479,281.925,-135.747,-249.83,
65240280,-1.072,0.142,-0.444,260.277,-161.035,-192.29,
65240280,-1.014,0.309,-0.273,209.527,-143.587,-106.75,
65240300,-1.28,0.102,0,152.442,-120.365,-9.712,
65240300,-1.386,-0.292,0.196,116.707,-123.34,54.022,
65240320,-1.01,-0.445,0.271,124.845,-136.307,89.267,
65240320,-0.474,-0.414,0.121,147.262,-133.927,124.145,
65240330,0.209,-0.294,-0.106,176.592,-100.922,147,
65240340,0.706,-0.029,-0.347,191.24,-37.502,153.317,
65240350,1.114,0.221,-0.589,171.412,51.817,158.9,
65240360,1.655,0.566,-0.803,134.067,158.34,166.845,
65240370,1.307,0.828,-0.762,68.232,231.805,153.212,
65240380,0.419,0.48,-0.657,-23.712,181.02,58.065,
65240390,0.781,0.005,-0.63,-120.662,70.857,-63.245,
65240400,1.524,-0.231,-0.455,-171.657,22.015,-118.527,
65240410,1.647,-0.604,-0.039,-202.422,27.877,-144.375,
65240420,1.457,-1.925,1.693,-268.03,260.085,20.86,
65240430,-1.998,-1.998,-0.694,274.697,192.132,362.95,
65240440,1.108,0.875,-1.605,572.897,-401.765,-150.115,
65240450,-0.125,1.968,1.747,514.762,56.98,50.417,
65240460,-1.581,-1.55,1.859,191.065,15.452,161.875,
65240470,0.152,-0.599,1.749,247.59,-36.68,12.862,
65240480,-1.006,1.327,1.998,221.252,-17.955,-139.912,
65240490,0.197,-0.334,1.851,54.46,-25.655,-143.062,
65240500,0.28,0.21,1.421,-8.995,-27.667,-154.49,
65240510,0.668,-0.316,0.994,-72.52,-16.747,-131.792,
65240520,0.983,-0.145,0.946,-99.627,-2.45,-108.605,
65240530,1.08,-0.036,1.08,-118.335,7.455,-62.335,
65240540,0.962,0.009,1.202,-141.575,3.5,0.122,
65240550,0.689,0.015,1.184,-167.125,-7.315,55.457,
65240560,0.35,-0.12,1.145,-197.96,-12.88,90.667,
65240570,0.18,-0.289,1.052,-233.012,-13.562,94.062,
65240580,0.039,-0.459,1.03,-264.757,-7.105,80.272,
65240590,-0.223,-0.456,1.183,-296.73,4.112,54.88,
65240600,-0.416,-0.498,1.25,-327.897,0.192,25.305,
65240610,-0.077,-0.705,1.128,-357.385,-14.332,-19.092,
65240620,0.256,-1.129,1.059,-363.527,0.892,-30.187,
65240630,0.612,-1.761,0.997,-359.117,56.28,-3.727,
65240640,0.645,-1.983,0.944,-338.607,119.717,20.037,
65240650,-0.094,-1.682,0.663,-271.74,132.37,7,
65240660,-0.755,-1.729,0.278,-172.235,72.275,-38.675,
65240670,-0.693,-1.874,0.029,-80.815,-34.16,-74.83,
65240670,-0.498,-1.268,-0.149,34.877,-98.962,-103.722,
65240690,-1.259,-1.014,-0.027,109.287,-148.225,-86.905,
65240690,-1.394,-0.432,-0.187,131.582,-193.812,-36.19,
65240710,-0.991,0.024,-0.166,130.795,-234.517,23.502,
65240710,-0.478,0.402,-0.099,115.745,-230.965,98.262,
65240730,0.218,0.608,0.16,76.912,-196.962,153.947,
65240730,0.817,0.736,0.5,42.122,-138.197,165.165,
65240750,1.022,0.614,0.799,26.932,-69.877,143.675,
65240750,0.971,0.32,1.01,35.84,-21.945,101.062,
65240760,0.95,0.136,0.942,70.612,-4.025,55.002,
65240770,0.896,-0.059,0.66,129.955,-2.205,21.91,
65240780,0.694,-0.08,0.306,188.177,-15.82,0.07,
65240790,0.405,0.001,-0.086,230.667,-39.182,-8.277,
65240800,0.457,0.082,-0.424,237.58,-41.772,-14.612,
65240810,0.404,-0.063,-0.719,208.477,-19.617,-18.882,
65240820,-0.071,-0.289,-0.966,168.577,5.565,-11.147,
65240830,-0.363,-0.344,-1.243,128.87,12.285,-13.195,
65240840,-0.362,-0.257,-1.22,87.71,5.74,4.637,
65240850,-0.082,-0.463,-1.203,19.897,3.185,49.035,
65240860,0.781,-1.853,1.04,-61.215,-35.595,54.967,
65240870,0.585,-1.998,-0.162,145.792,213.622,225.242,
65240880,-0.811,-0.569,-1.551,528.937,-115.325,158.9,
65240890,0.806,1.997,1.25,559.545,45.535,-216.667,
65240900,-1.998,0.872,1.906,298.725,115.64,24.08,
65240910,-0.107,-1.998,1.669,205.187,38.832,65.31,
65240920,-1.343,0.634,1.996,326.095,-0.875,-127.627,
65240930,1.091,1.158,1.888,187.967,-53.305,-166.512,
65240940,0.241,-0.028,1.665,-8.277,-41.09,-9.38,
65240950,-0.628,0.021,1.453,-77.42,-29.015,-24.482,
65240960,0.405,-0.534,0.708,-126.455,-9.677,-45.465,
65240970,0.66,-0.825,0.515,-111.842,1.312,-54.372,
65240980,0.711,-0.54,0.787,-98.07,8.12,-25.812,
65240990,0.378,-0.211,1.048,-91.402,24.36,-9.922,
65241000,0.424,-0.145,1.13,-107.712,35.717,2.117,
65241010,0.452,-0.15,1.134,-141.33,46.147,11.567,
65241010,0.448,-0.26,1.075,-179.165,60.095,21.28,
65241030,0.351,-0.305,1.151,-211.33,74.725,24.482,
65241030,0.208,-0.123,1.318,-245.84,78.592,14.647,
65241050,0.117,-0.078,1.132,-287.525,71.26,0.647,
65241050,0.233,-0.543,1.047,-340.235,72.38,-0.297,
65241070,0.755,-1.238,0.949,-380.817,104.667,8.697,
65241070,0.673,-1.601,1.023,-367.08,171.465,16.852,
65241080,0.195,-1.85,0.895,-329.245,240.415,6.492,
65241090,0.243,-1.998,0.336,-273.927,244.317,-16.012,
65241100,1.647,-1.998,0.265,-182.297,178.01,-65.362,
65241110,1.945,-1.834,0.307,-30.222,197.575,-150.115,
65241120,0.463,-1.264,-0.249,115.815,220.167,-245.21,
65241130,-0.538,-0.307,-0.361,174.615,144.445,-263.27,
65241140,-0.489,-0.119,-0.364,147.612,49.507,-219.117,
65241150,-0.36,-0.535,-0.199,104.23,-18.042,-158.322,
65241160,-0.329,-0.793,-0.13,93.572,-65.817,-126.472,
65241170,-0.579,-0.685,-0.216,120.05,-91.717,-106.452,
65241180,-0.813,-0.388,-0.365,146.72,-112.122,-75.162,
65241190,-0.888,0.005,-0.432,138.267,-138.04,-27.125,
65241200,-0.775,0.212,-0.357,90.195,-159.512,42.542,
65241210,-0.663,0.064,-0.138,28.367,-171.115,119.805,
65241220,-0.505,-0.213,0.048,-22.732,-182.437,181.177,
65241230,-0.293,-0.367,0.182,-44.047,-191.03,225.155,
65241240,0.127,-0.385,0.196,-40.53,-188.51,243.302,
65241250,0.399,-0.169,0.168,-25.935,-168.035,235.602,
65241260,0.433,0.321,0.106,-4.497,-138.127,202.807,
65241270,0.12,1.054,0.001,5.652,-111.825,158.007,
65241280,0.535,1.895,0.065,2.117,-100.817,118.387,
65241290,0.544,1.987,0.127,-26.582,-92.61,77.577,
65241300,0.899,1.21,0.877,-37.24,-73.762,25.882,
65241310,0.809,-1.967,0.106,-155.802,194.827,239.785,
65241320,-0.796,-1.032,-1.782,372.347,-93.59,239.522,
65241330,0.424,1.997,0.355,572.6,-95.252,-230.632,
65241340,-1.94,0.658,1.491,383.005,7.367,-44.327,
65241350,0.733,-1.964,1.859,267.522,-11.41,-37.87,
65241360,-0.744,1.524,1.941,387.222,-14.945,-233.327,
65241370,1.241,1.211,1.998,207.41,-24.412,-207.585,
65241380,0.267,0.257,1.99,33.775,-38.605,-103.232,
65241390,0.911,0.63,1.493,-74.305,-62.615,-18.182,
65241400,0.141,-0.41,0.937,-140.105,-63.192,22.067,
65241410,0.261,-0.701,0.553,-139.877,-60.532,33.687,
65241420,0.412,-0.597,0.69,-128.065,-36.015,26.46,
65241420,0.392,-0.416,0.943,-137.095,-7.402,16.432,
65241430,0.507,-0.308,0.969,-151.935,15.365,14.175,
65241440,0.64,-0.167,0.995,-171.797,34.877,19.67,
65241450,0.62,-0.179,0.99,-205.922,47.967,27.212,
65241460,0.503,-0.214,0.994,-247.187,56.245,30.485,
65241470,0.298,-0.175,1.13,-288.137,60.165,25.287,
65241480,0.118,-0.327,1.13,-321.895,50.977,19.425,
65241490,0.227,-0.827,1.052,-352.222,44.065,18.567,
65241500,0.576,-1.406,0.975,-351.067,53.497,16.117,
65241510,0.558,-1.448,1.006,-301.332,99.592,34.002,
65241520,0.339,-1.769,0.872,-268.432,156.747,51.502,
65241530,0.138,-1.922,0.757,-216.055,144.987,30.625,
65241540,0.063,-1.777,0.568,-138.25,53.48,-47.547,
65241550,0.659,-1.681,-0.116,-3.325,8.365,-88.2,
65241560,0.969,-0.879,-0.035,136.605,30.765,-99.295,
65241570,-0.149,-0.635,-0.128,202.317,43.61,-134.715,
65241580,-0.983,-0.259,-0.351,205.012,21.717,-122.342,
65241590,-0.946,-0.169,-0.384,173.232,-36.26,-75.25,
65241600,-0.424,-0.259,-0.366,135.24,-70.787,-18.742,
65241610,-0.113,-0.423,-0.217,115.657,-69.877,26.792,
65241620,-0.028,-0.61,-0.105,113.89,-49.735,57.767,
65241630,-0.128,-0.613,-0.021,132.265,-29.015,82.32,
65241640,-0.137,-0.565,0.05,149.747,-20.475,96.495,
65241650,-0.084,-0.406,-0.002,158.935,-20.51,101.692,
65241660,-0.021,-0.146,-0.042,164.08,-26.39,106.05,
65241670,-0.028,0.056,-0.096,144.2,-35.42,114.572,
65241680,-0.052,0.148,-0.23,108.01,-50.872,115.885,
65241690,0.112,0.28,-0.299,73.92,-67.83,110.092,
65241700,0.378,0.413,-0.253,30.975,-73.815,104.685,
65241710,0.472,0.298,-0.135,-16.782,-69.107,94.552,
65241720,0.367,0.088,-0.017,-53.322,-66.587,76.387,
65241730,0.178,0.089,-0.034,-71.487,-77.525,48.247,
65241740,0.136,-0.411,0.492,-76.51,-120.54,15.89,
65241750,1.371,-1.993,1.702,-87.342,-19.355,97.842,
65241760,-1.617,-1.818,-1.997,326.847,-160.86,134.33,
65241760,1.873,1.911,0.783,568.47,-154.035,-141.715,
65241780,-1.844,1.162,1.478,390.67,27.247,-27.335,
65241780,-0.261,-1.614,1.504,274.085,3.797,-50.33,
65241800,-0.565,0.136,1.998,312.182,-1.26,-135.31,
65241800,0.365,1.001,1.998,201.04,-59.71,-156.45,
65241820,1.076,1.214,1.743,61.197,-76.632,-112.07,
65241820,0.832,0.139,1.26,-67.83,-39.147,-71.312,
65241830,0.394,-0.254,0.938,-120.977,3.692,-50.89,
65241840,0.339,-0.584,0.935,-138.53,33.81,-47.705,
65241850,0.681,-0.296,1.117,-151.322,41.002,-54.722,
65241860,0.695,-0.117,1.23,-175.612,50.575,-38.36,
65241870,0.624,-0.092,1.254,-203.105,61.092,-9.73,
65241880,0.561,-0.085,1.159,-237.16,64.277,9.94,
65241890,0.484,-0.078,1.133,-282.45,73.57,18.497,
65241900,-0.023,-0.167,1.181,-325.202,71.767,17.342,
65241910,-0.388,-0.291,1.141,-360.097,39.41,-1.295,
65241920,-0.121,-0.637,1.131,-391.387,7.525,-24.99,
65241930,0.538,-1.115,0.905,-399.84,11.48,-34.86,
65241940,0.98,-1.599,0.799,-378.017,82.407,-18.042,
65241950,0.34,-1.882,0.675,-331.94,185.045,2.677,
65241960,-0.013,-1.998,0.765,-302.417,194.232,-53.585,
65241970,0.441,-1.998,-0.073,-214.357,170.642,-114.747,
65241980,0.871,-1.705,-0.392,-49.455,178.745,-161.822,
65241990,-0.239,-1.325,-0.374,91.822,179.515,-210.682,
65242000,-0.96,-0.556,-0.275,149.537,137.725,-187.495,
65242010,-1.193,-0.25,-0.23,144.322,59.902,-113.085,
65242020,-0.944,-0.191,-0.335,120.487,-23.467,-28.892,
65242030,-0.577,-0.192,-0.392,103.285,-87.062,42.402,
65242040,-0.488,-0.323,-0.302,83.58,-132.475,96.25,
65242050,-0.371,-0.494,-0.194,66.92,-161.665,127.627,
65242060,-0.27,-0.574,-0.133,64.82,-178.465,145.845,
65242070,-0.249,-0.578,-0.001,80.307,-189.945,158.9,
65242080,-0.159,-0.569,0.115,81.707,-192.832,183.592,
65242080,0.031,-0.638,0.119,89.127,-184.992,213.587,
65242100,0.11,-0.614,0.094,113.12,-171.552,232.155,
65242100,0.196,-0.349,-0.022,136.605,-156.485,238.122,
65242120,0.44,0.006,-0.131,143.447,-131.967,237.545,
65242120,0.738,0.269,-0.178,121.712,-88.725,226.047,
65242140,0.725,0.506,-0.17,76.877,-41.545,195.807,
65242140,0.557,0.582,-0.168,23.677,-14.367,134.68,
65242160,0.463,0.576,-0.151,-24.5,-11.445,52.202,
65242160,0.385,0.573,-0.177,-66.535,-12.722,-25.27,
65242170,-0.538,1.116,-0.825,-77.945,-17.972,-83.982,
65242180,0.719,-0.965,1.733,-104.825,-13.002,-105.105,
65242190,-0.704,-1.998,-1.274,100.327,98,110.582,
65242200,1.149,0.9,-0.113,568.435,-140.892,-296.992,
65242210,-1.628,1.934,1.293,509.74,78.47,-242.602,
65242220,0.822,-1.85,1.543,242.217,28.525,-5.722,
65242230,-0.053,0.838,1.985,384.492,23.222,-111.72,
65242240,0.14,0.876,1.998,218.015,-10.605,-91.245,
65242250,0.744,1.495,1.99,25.147,-50.12,-48.282,
65242260,0.386,-0.041,1.635,-135.957,-43.942,-8.33,
65242270,0.298,-0.45,0.671,-191.397,-35.665,-0.752,
65242280,0.522,-0.814,0.396,-183.54,-9.065,8.767,
65242290,0.543,-0.602,0.686,-169.225,23.047,8.487,
65242300,0.703,-0.337,0.869,-153.072,40.985,22.925,
65242310,0.566,-0.192,1.035,-152.897,55.23,45.78,
65242320,0.424,-0.084,1.129,-177.87,64.715,55.685,
65242330,0.291,-0.137,1.114,-227.237,77.245,54.005,
65242340,-0.071,-0.203,1.059,-280.367,87.552,37.135,
65242350,-0.063,-0.361,1.213,-329.542,89.372,4.497,
65242360,-0.043,-0.577,1.172,-379.995,83.002,-30.975,
65242370,0.447,-0.893,1.02,-411.18,103.932,-59.377,
65242380,1.004,-1.703,0.769,-416.237,170.327,-67.497,
65242390,0.304,-1.95,0.482,-377.352,280.28,-47.302,
65242400,0.595,-1.895,0.566,-357.647,326.392,-82.04,
65242410,1.347,-1.987,0.387,-332.657,325.885,-128.765,
65242420,1.911,-1.998,0.276,-221.847,340.725,-185.92,
65242430,-0.116,-1.998,0.163,-47.967,306.512,-326.077,
65242440,-1.077,-1.532,-0.134,106.61,233.8,-418.092,
65242450,-1.752,-0.63,-0.196,191.765,153.247,-373.502,
65242460,-1.907,-0.051,-0.276,197.61,62.142,-270.497,
65242470,-1.457,0.188,-0.182,152.932,-14.98,-150.727,
65242480,-1.143,0.052,0.016,85.995,-69.055,-31.395,
65242490,-0.726,-0.109,0.214,37.502,-112.07,50.347,
65242500,-0.327,-0.168,0.385,21.91,-139.457,105.052,
65242510,-0.11,-0.166,0.447,23.66,-154.892,131.88,
65242510,0.081,-0.036,0.386,41.545,-160.632,129.937,
65242530,0.266,0.154,0.409,77.56,-150.675,127.75,
65242530,0.403,0.35,0.362,88.392,-127.54,131.74,
65242550,0.398,0.266,0.311,95.725,-101.097,141.365,
65242550,0.376,0.213,0.185,107.1,-79.765,143.255,
65242570,0.391,0.275,-0.028,126.805,-63.84,130.882,
65242570,0.357,0.38,-0.296,142.642,-49.07,116.13,
65242580,0.219,0.513,-0.521,142.957,-40.967,99.487,
65242590,0.115,0.665,-0.732,119.647,-42.787,82.425,
65242600,-0.025,0.68,-0.868,73.22,-58.222,70.052,
65242610,-0.07,0.724,-0.944,14.577,-89.18,51.625,
65242620,-0.008,0.924,-1.042,-25.637,-113.715,35.822,
65242630,0.061,-0.882,0.292,-80.92,-132.23,22.697,
65242640,0.183,-1.998,-0.455,-57.82,212.03,323.435,
65242650,-0.112,0.393,-1.319,543.585,-235.812,-7.7,
65242660,-0.35,1.997,1.347,540.785,42.49,-353.71,
65242670,-1.063,-0.778,1.647,175.297,58.485,33.845,
65242680,-0.431,-0.698,1.998,314.44,11.375,-56.21,
65242690,0.143,1.738,1.998,302.54,-55.877,-271.057,
65242700,1.347,0.39,1.994,10.797,-42.56,-129.797,
65242710,0.472,0.459,1.531,-147.385,-19.862,-103.197,
65242720,0.432,-0.772,0.673,-222.057,-15.907,-41.23,
65242730,0.625,-0.516,0.526,-216.93,16.24,-52.535,
65242740,0.868,-0.342,0.95,-217.402,49.892,-42.07,
65242750,0.817,-0.064,1.066,-226.45,64.295,-12.197,
65242760,0.597,-0.014,1.067,-237.195,72.887,9.31,
65242770,0.39,-0.115,1.052,-276.517,79.327,21.735,
65242780,0.178,-0.268,0.896,-328.422,75.582,21.455,
65242790,0.107,-0.326,1.005,-377.597,69.895,-2.695,
65242800,0.263,-0.443,0.93,-422.887,77.577,-35.262,
65242810,0.876,-1.438,0.662,-440.352,115.5,-50.225,
65242820,1.263,-1.538,0.956,-403.515,213.377,-15.75,
65242830,1.364,-1.924,0.728,-439.88,358.872,30.765,
65242830,0.818,-1.998,0.856,-452.655,422.765,19.442,
65242850,1.382,-1.998,0.573,-372.872,387.52,-34.79,
65242850,1.199,-1.998,0.703,-153.387,352.082,-122.29,
65242870,-0.623,-1.998,0.251,83.895,248.815,-282.187,
65242870,-1.571,-1.749,-0.029,270.025,100.345,-350.157,
65242890,-1.927,-1.16,-0.578,380.327,-49.91,-357.385,
65242890,-1.473,-0.273,-1.105,440.86,-141.382,-328.002,
65242910,-0.541,0.522,-1.264,424.27,-156.467,-246.522,
65242910,-0.117,0.778,-1.419,343.665,-91.28,-118.457,
65242920,-0.701,0.506,-1.139,239.382,-33.74,5.6,
65242930,-1.137,0.147,-0.816,118.93,-35.927,85.645,
65242940,-1.061,-0.118,-0.531,37.642,-83.475,127.05,
65242950,-0.807,-0.162,-0.2,-29.767,-148.417,172.882,
65242960,-0.476,-0.677,0.075,-83.685,-201.495,230.177,
65242970,-0.315,-1.163,0.205,-102.305,-252.28,246.68,
65242980,-0.048,-1.295,0.332,-67.41,-292.075,218.47,
65242990,0.164,-0.9,0.348,-4.515,-301.297,220.902,
65243000,0.516,-0.436,0.244,52.097,-274.802,250.88,
65243010,0.655,-0.163,0.108,86.765,-235.515,273.805,
65243020,1.114,0.279,-0.042,116.217,-164.255,290.5,
65243030,1.251,0.632,-0.074,107.695,-70.472,273.157,
65243040,1.109,1.033,-0.007,52.325,8.697,203.542,
65243050,0.6,1.244,0.287,-4.812,28.752,72.607,
65243060,0.307,1.227,0.51,-49.945,-1.417,-82.53,
65243070,0.329,1.091,-0.107,-55.965,-3.675,-190.067,
65243080,-0.946,-0.633,0.84,-9.957,-161.402,-278.95,
65243090,0.497,-1.998,-0.743,-3.22,181.772,135.17,
65243100,0.484,0.578,0.152,543.06,-65.222,17.062,
65243110,-0.69,1.997,0.229,534.73,177.52,-322.035,
65243120,-0.551,-0.804,1.798,202.457,160.37,-5.092,
65243130,0.506,-1.038,1.906,305.742,57.995,-24.815,
65243140,-1.061,1.957,1.998,362.11,7.682,-172.795,
65243150,0.315,-0.966,1.998,81.06,-2.52,-43.662,
65243160,0.324,0.885,1.984,-20.72,-38.167,-73.29,
65243170,0.431,0.09,1.477,-138.127,-60.445,-27.055,
65243180,0.575,-0.359,0.795,-203.21,-71.767,16.817,
65243190,0.406,-0.476,0.534,-207.06,-64.715,29.732,
65243200,0.454,-0.62,0.693,-205.712,-43.627,30.502,
65243210,0.366,-0.549,0.872,-200.497,-22.592,18.497,
65243220,0.329,-0.542,0.887,-198.292,-6.387,13.947,
65243230,0.31,-0.443,0.796,-218.347,9.555,1.417,
65243240,0.309,-0.423,0.627,-253.837,28.017,-19.74,
65243250,0.433,-0.684,0.824,-300.772,59.5,-33.565,
65243260,0.589,-0.966,0.857,-342.002,98.21,-64.767,
65243260,0.76,-1.202,0.735,-329.087,156.73,-80.92,
65243280,1.28,-1.28,0.644,-335.422,252.385,-61.495,
65243280,1.159,-1.822,0.086,-373.975,365.505,-22.26,
65243300,0.975,-1.893,0.748,-392.822,428.295,-35.752,
65243300,1.499,-1.901,0.234,-331.117,457.537,-69.965,
65243320,1.998,-1.706,0.533,-178.552,479.517,-125.282,
65243320,0.745,-1.998,0.288,-38.237,463.295,-305.322,
65243330,-0.657,-1.827,0.068,105.665,372.19,-414.785,
65243340,-1.309,-1.091,-0.169,228.882,248.727,-422.52,
65243350,-1.988,-0.892,-0.514,303.415,122.272,-365.12,
65243360,-1.63,-0.23,-0.695,341.215,-1.225,-325.447,
65243370,-0.757,0.318,-0.601,308.542,-46.567,-235.112,
65243380,-1.601,-0.254,-0.259,228.9,-74.497,-138.302,
65243390,-1.998,-0.951,-0.205,158.34,-115.027,-73.325,
65243400,-1.998,-1.079,-0.274,147.577,-132.562,32.917,
65243410,-1.611,-0.778,-0.11,177.152,-134.54,133.91,
65243420,-1.489,-0.498,-0.082,169.697,-130.69,246.54,
65243430,-1.371,-0.743,-0.186,158.042,-136.36,348.25,
65243440,-0.701,-0.742,-0.293,181.842,-157.797,398.51,
65243450,-0.001,-0.32,-0.408,204.4,-160.072,434.98,
65243460,0.301,0,-0.296,196.437,-137.83,465.36,
65243470,0.996,0.515,-0.597,184.17,-100.922,512.802,
65243480,1.99,1.493,-0.366,138.005,-25.655,541.222,
65243490,1.998,1.131,-0.072,19.495,-33.145,435.417,
65243500,1.998,0.626,0.359,-97.982,-136.027,190.452,
65243510,1.998,0.333,0.365,-138.81,-152.022,13.72,
65243520,0.432,-0.196,-1.271,-80.062,-177.1,-119.017,
65243530,0.35,-1.955,1.173,-118.842,-260.557,-34.562,
65243540,-0.606,-1.991,-0.715,99.82,87.955,403.707,
65243550,1.351,1.745,-1.05,562.66,-159.547,-149.152,
65243560,-1.948,1.926,1.953,511.927,55.72,-36.155,
65243570,1.062,-1.861,1.787,164.01,-8.26,129.972,
65243580,-0.643,0.586,1.949,212.59,27.475,-116.392,
65243580,0.285,0.638,1.998,117.232,4.252,-151.655,
65243600,1.007,-0.38,1.794,-113.715,-6.86,-31.99,
65243600,0.376,0.372,1.171,-180.25,-7.332,-49.63,
65243620,0.39,-0.462,0.826,-218.505,-3.237,6.825,
65243620,0.358,-0.741,0.64,-247.292,3.78,6.247,
65243640,0.32,-0.51,0.822,-223.58,14.017,1.767,
65243640,0.267,-0.393,0.972,-219.257,22.96,-0.752,
65243660,0.175,-0.404,0.954,-234.955,18.865,-8.645,
65243660,0.141,-0.365,0.907,-262.482,21.017,-14.63,
65243670,0.096,-0.525,0.874,-309.225,25.847,-28.682,
65243680,0.31,-0.89,1.049,-345.24,44.817,-48.65,
65243690,0.744,-1.339,0.862,-355.32,87.08,-61.337,
65243700,1.081,-1.415,0.798,-319.147,170.852,-29.75,
65243710,1.094,-1.911,0.772,-333.375,297.797,15.487,
65243720,0.69,-1.728,0.291,-328.912,347.375,-3.675,
65243730,0.488,-1.42,0.504,-251.44,334.145,-54.53,
65243740,1.001,-1.9,0.4,-168.105,289.345,-65.852,
65243750,0.793,-1.941,0.615,-26.845,241.097,-115.342,
65243760,-0.659,-1.877,0.48,111.405,136.255,-228.427,
65243770,-1.348,-1.17,0.197,225.137,-0.7,-275.397,
65243780,-1.641,-0.704,-0.267,285.232,-125.055,-267.575,
65243790,-1.324,-0.246,-0.47,316.96,-185.92,-229.827,
65243800,-0.763,0.23,-0.553,302.89,-196.595,-161.052,
65243810,-0.532,0.384,-0.531,261.292,-158.427,-70.332,
65243820,-0.854,0.212,-0.308,203.472,-112.21,32.252,
65243830,-1.182,-0.065,-0.095,145.46,-107.957,103.512,
65243840,-1.073,-0.295,0.06,108.92,-142.607,152.95,
65243850,-0.658,-0.491,0.123,91.192,-184.24,189.035,
65243860,-0.149,-0.603,0.124,105.647,-205.467,214.182,
65243870,0.324,-0.34,-0.043,114.187,-198.73,227.447,
65243880,0.715,0.003,-0.071,115.99,-162.592,229.95,
65243890,0.572,0.051,-0.099,103.722,-119.07,214.48,
65243900,1.084,0.31,-0.303,85.75,-74.69,184.397,
65243910,1.314,0.622,-0.229,64.977,-7.525,134.732,
65243920,1.202,0.668,-0.15,9.467,39.042,32.76,
65243930,0.685,0.878,-0.089,-43.12,73.675,-65.782,
65243940,-0.177,1.435,-0.21,-40.407,81.655,-140.07,
65243950,-1.076,1.994,-0.942,-14.752,58.222,-178.342,
65243960,-0.104,-0.384,1.227,-62.79,-92.68,-145.11,
65243970,-0.591,-1.998,-0.339,-93.817,163.082,342.125,
65243980,0.991,1.266,-1.895,543.602,-184.345,-172.917,
65243990,-0.719,1.895,1.792,480.725,212.047,-205.327,
65244000,0.093,-1.845,1.807,128.31,97.125,65.992,
65244010,-0.611,-0.103,1.882,343.262,62.58,-28.122,
65244010,-0.872,1.504,1.998,296.695,4.672,-190.172,
65244030,1.201,0.044,1.998,45.045,-72.625,-53.62,
65244030,0.361,0.913,1.748,-71.785,-68.302,-53.515,
65244050,-0.154,-0.744,1.008,-182.507,-53.13,-12.757,
65244050,0.323,-0.697,0.468,-166.197,-60.27,-31.71,
65244060,0.803,-0.588,0.412,-136.867,-43.942,-34.457,
65244070,0.841,-0.324,0.742,-110.477,-21.437,-9.485,
65244080,0.639,-0.152,0.985,-109.76,-9.362,24.99,
65244090,0.531,-0.086,1.044,-132.142,-10.325,54.39,
65244100,0.447,-0.215,1.044,-158.077,-7.56,72.66,
65244110,0.403,-0.376,0.94,-185.64,-6.125,73.15,
65244120,0.311,-0.387,0.873,-206.272,2.817,61.775,
65244130,0.156,-0.483,0.883,-232.785,18.777,48.615,
65244140,0.159,-0.638,1.062,-276.902,28.7,33.512,
65244150,0.013,-0.689,1.062,-313.425,29.435,7.98,
65244160,0.223,-0.776,0.937,-324.502,31.885,-20.965,
65244170,0.537,-0.933,0.616,-307.247,66.395,-10.202,
65244180,0.531,-1.012,0.548,-291.515,126.07,10.64,
65244190,0.87,-1.375,0.705,-295.89,147.77,2.03,
65244200,0.606,-1.386,0.926,-294.56,168.7,-15.435,
65244210,-0.344,-0.968,0.541,-225.522,161.175,-46.97,
65244220,0.081,-1.136,0.489,-162.225,109.095,-61.11,
65244230,1.32,-1.066,0.379,-106.382,80.902,-59.517,
65244240,1.156,-1.17,0.328,-29.907,82.687,-139.422,
65244250,-0.36,-1.116,0.409,40.215,80.22,-232.242,
65244260,-1.507,-1.002,0.471,88.13,48.825,-246.767,
65244270,-1.916,-0.835,0.409,152.04,-8.365,-194.88,
65244280,-1.489,-0.66,0.243,239.382,-63.052,-119.122,
65244290,-1.157,-0.61,0.102,298.637,-95.83,-33.915,
65244300,-0.973,-0.559,-0.078,326.987,-114.52,24.342,
65244310,-0.702,-0.376,-0.384,344.242,-117.6,64.715,
65244320,-0.527,0.001,-0.621,343.962,-95.252,130.392,
65244330,-0.233,0.498,-0.639,292.25,-62.422,209.615,
65244330,0.014,0.552,-0.481,210.017,-42.14,288.697,
65244350,0.118,0.255,-0.344,112.245,-50.872,327.775,
65244350,0.811,0.113,-0.167,31.447,-72.187,317.66,
65244370,1.33,0.06,0.013,-18.27,-78.207,297.115,
65244370,1.508,-0.146,0.109,-46.847,-77.472,246.12,
65244390,1.426,-0.223,0.148,-60.235,-70.91,165.007,
65244390,0.896,-0.705,-0.358,-56.14,-79.747,85.12,
65244410,0.493,-1.967,1.784,25.357,-123.305,86.082,
65244410,0.272,-1.998,-0.24,113.032,114.537,315.857,
65244420,-0.468,-0.652,-1.336,376.39,-138.705,55.335,
65244430,0.927,1.997,0.535,518.087,-16.765,-217.192,
65244440,-1.982,0.681,1.982,278.197,106.925,-12.687,
65244450,0.524,-1.994,1.476,162.925,18.2,-59.535,
65244460,-0.581,0.35,1.953,237.44,38.115,-172.865,
65244470,0.529,0.95,1.865,136.78,28.927,-226.975,
65244480,0.793,-0.247,1.706,14.472,45.675,-178.08,
65244490,0.926,0.353,1.275,-38.5,37.625,-138.162,
65244500,0.727,-0.261,0.937,-91.122,35.7,-59.727,
65244510,0.608,-0.313,0.816,-99.697,41.527,-20.037,
65244520,0.512,-0.354,0.963,-105.227,50.33,9.397,
65244530,0.347,-0.263,1.114,-114.38,56.297,27.422,
65244540,0.192,-0.262,1.225,-137.515,61.862,37.17,
65244550,0.136,-0.185,1.194,-173.565,68.337,31.867,
65244560,0.024,-0.189,1.118,-218.592,78.505,25.48,
65244570,-0.152,-0.373,1.029,-271.547,83.79,13.912,
65244580,-0.082,-0.413,1.091,-317.03,80.71,-10.027,
65244590,0.154,-0.34,1.029,-351.557,88.217,-26.897,
65244600,0.587,-0.927,0.921,-387.992,114.45,-36.575,
65244610,0.792,-1.174,0.958,-367.92,155.767,-17.99,
65244620,1.057,-1.747,0.943,-377.527,238.35,35.997,
65244630,0.802,-1.998,0.955,-370.545,309.592,82.442,
65244640,-0.276,-1.609,0.273,-298.812,294.56,75.652,
65244650,0.068,-1.734,0.351,-207.865,209.055,33.145,
65244660,-0.132,-1.988,0.256,-98.857,89.687,34.877,
65244670,-0.341,-1.687,-0.024,91.892,-47.6,-20.807,
65244680,0.147,-0.573,-0.134,210.28,-158.27,-70.175,
65244690,0.179,-0.106,-0.088,208.897,-219.292,-55.702,
65244700,0.331,0.016,-0.196,171.115,-236.337,-22.347,
65244710,0.401,-0.016,-0.254,149.257,-225.54,12.372,
65244710,0.342,-0.12,-0.053,136.272,-217.857,29.522,
65244730,0.201,-0.212,0.136,129.202,-223.265,23.94,
65244730,0.061,-0.253,0.121,137.252,-246.05,8.015,
65244750,0.122,-0.134,0.03,148.417,-279.125,-16.607,
65244750,0.24,0.049,-0.089,152.74,-299.932,-44.502,
65244760,0.328,0.22,-0.214,146.44,-289.275,-68.512,
65244770,0.333,0.372,-0.358,130.532,-247.45,-80.167,
65244780,0.137,0.412,-0.433,107.205,-185.535,-73.132,
65244790,-0.36,0.251,-0.509,72.87,-137.76,-57.487,
65244800,-0.753,0.052,-0.554,39.182,-123.305,-38.885,
65244810,-0.832,-0.07,-0.57,6.965,-131.022,-3.36,
65244820,-0.808,-0.138,-0.619,-19.232,-143.517,47.442,
65244830,-1.018,-0.074,-1.106,-34.895,-154.42,98.682,
65244840,1.42,-1.519,1.96,-33.687,-59.885,145.687,
65244850,-0.141,-1.998,-0.974,172.742,343.595,347.55,
65244860,-0.409,-0.344,-1.899,553,-163.03,75.705,
65244870,1.123,1.997,1.109,559.195,133.56,-150.657,
65244880,-1.845,-0.272,1.715,376.127,171.552,64.26,
65244890,0.162,-1.84,1.996,396.62,93.8,-68.897,
65244900,-1.132,1.411,1.998,367.43,30.922,-166.495,
65244910,1.192,1.663,1.892,142.467,-67.497,-108.237,
65244920,0.618,1.139,1.853,-73.325,-69.562,-45.132,
65244930,-0.1,-0.334,1.433,-205.957,-44.257,-35.56,
65244940,-0.307,-0.725,0.877,-226.695,4.252,-63.682,
65244950,0.542,-1.113,0.704,-222.32,15.102,-90.002,
65244960,0.747,-0.633,0.62,-224.262,17.797,-94.587,
65244970,0.963,-0.159,0.601,-188.772,38.465,-67.707,
65244980,1.092,-0.194,0.819,-160.002,56.315,-16.485,
65244990,0.859,-0.026,1.056,-178.325,55.072,32.042,
65245000,0.467,0.041,1.109,-215.775,53.812,57.645,
65245010,0.157,-0.16,1.131,-262.01,51.765,66.972,
65245020,-0.069,-0.368,1.093,-302.977,41.93,57.155,
65245030,-0.09,-0.548,1.026,-330.54,37.257,37.24,
65245040,0.342,-0.851,0.92,-352.45,52.972,16.03,
65245050,0.923,-1.277,0.805,-345.572,108.5,27.16,
65245060,0.825,-1.2,0.738,-300.72,178.062,47.775,
65245070,0.266,-1.052,0.452,-265.352,202.335,28.875,
65245080,0.08,-1.277,0.498,-251.86,162.767,-6.527,
65245080,-0.648,-1.427,0.674,-197.575,77.735,-32.007,
65245100,0.559,-1.554,0.092,-101.22,-26.81,-49.052,
65245100,1.726,-1.182,0.304,17.097,-32.375,-60.795,
65245120,1.171,-1.212,0.593,91.017,-3.395,-136.692,
65245120,-0.624,-0.998,0.304,146.947,-12.46,-211.627,
65245140,-1.685,-0.562,0.242,183.295,-76.37,-218.627,
65245140,-1.223,-0.144,-0.072,207.725,-127.925,-162.05,
65245160,-0.811,-0.055,-0.077,211.627,-147.035,-57.382,
65245160,-0.743,-0.11,0.033,191.047,-154.857,43.54,
65245170,-0.86,-0.165,0.099,162.697,-173.687,111.265,
65245180,-0.752,-0.167,0.073,146.65,-203.735,145.67,
65245190,-0.357,-0.064,-0.03,143.815,-217.98,172.025,
65245200,0.227,0.213,-0.152,143.325,-192.797,195.072,
65245210,0.594,0.457,-0.194,130.585,-130.742,207.917,
65245220,0.636,0.517,-0.169,105.105,-64.225,194.302,
65245230,0.38,0.578,-0.222,77.297,-24.482,157.325,
65245240,0.168,0.838,-0.415,47.547,-30.45,85.365,
65245250,0.365,1.259,-0.71,18.112,-30.59,14.892,
65245260,0.335,0.229,0.27,-28.91,-2.135,-22.68,
65245270,0.569,-1.998,-0.524,-112.892,252.91,228.06,
65245280,-0.56,-0.627,-0.27,446.197,-100.677,172.655,
65245290,1.051,1.997,0.44,564.55,-52.027,-328.807,
65245300,-1.958,-0.027,1.894,312.655,117.512,1.505,
65245310,1.175,-1.77,1.641,261.87,37.1,36.872,
65245320,-1.367,1.725,1.998,362.425,34.702,-133.98,
65245330,0.292,0.539,1.998,155.365,-34.86,-87.797,
65245340,0.891,1.27,1.997,5.162,-69.37,-51.397,
65245350,0.297,0.115,1.767,-125.807,-58.66,-11.462,
65245360,0.13,-0.355,1,-185.43,-75.6,15.662,
65245370,0.388,-0.648,0.597,-192.517,-79.135,30.275,
65245380,0.419,-0.609,0.671,-185.185,-57.382,31.307,
65245390,0.454,-0.407,0.893,-175.227,-35.122,24.71,
65245400,0.467,-0.233,0.982,-176.172,-23.38,28.315,
65245410,0.479,-0.111,1.026,-188.475,-13.93,39.812,
65245420,0.387,-0.231,0.992,-218.592,-7.28,50.82,
65245420,0.275,-0.471,0.929,-252.402,-6.055,45.99,
65245440,0.314,-0.567,0.928,-270.76,-8.75,27.405,
65245440,0.491,-0.637,0.984,-286.002,3.307,11.952,
65245460,0.698,-0.908,1.095,-295.522,38.167,13.86,
65245460,0.789,-1.498,0.94,-296.38,94.587,34.195,
65245480,0.551,-1.682,0.9,-279.265,154.122,42.42,
65245480,0.214,-1.613,0.456,-249.532,165.812,8.242,
65245500,0.165,-1.302,0.471,-195.002,134.47,-40.652,
65245500,0.429,-1.766,0.17,-133.875,85.715,-69.107,
65245510,0.65,-1.269,0.055,-41.212,68.512,-83.965,
65245520,-0.21,-1.175,0.144,56.927,50.19,-130.165,
65245530,-0.784,-0.887,0.196,99.96,17.027,-142.625,
65245540,-0.615,-0.581,0.06,125.615,-19.67,-118.965,
65245550,-0.618,-0.377,-0.081,153.282,-48.65,-74.025,
65245560,-0.574,-0.201,-0.157,166.687,-69.23,-32.252,
65245570,-0.515,-0.086,-0.149,164.045,-81.427,11.55,
65245580,-0.395,0.011,-0.143,146.457,-84.507,58.205,
65245590,-0.174,0.105,-0.179,120.032,-83.405,95.69,
65245600,0.038,0.097,-0.107,96.267,-73.447,122.937,
65245610,0.218,0.109,-0.074,66.605,-53.375,146.335,
65245620,0.458,0.01,-0.033,34.282,-22.995,168.07,
65245630,0.653,-0.116,-0.012,12.74,13.702,175.315,
65245640,0.704,-0.059,-0.036,1.802,49.892,176.19,
65245650,0.427,0.046,-0.045,5.25,66.482,169.977,
65245660,0.237,0.169,-0.132,-0.542,41.142,133.682,
65245670,0.399,0.366,-0.178,-13.125,-10.167,74.76,
65245680,0.496,0.607,-0.313,-19.092,-59.517,16.17,
65245690,0.438,0.79,-1.034,-13.737,-87.517,-49.77,
65245700,-1.081,-1.053,1.287,-13.527,-173.197,-74.9,
65245710,0.577,-1.983,-0.482,-8.522,75.46,217.647,
65245720,-0.053,-0.455,-1.81,513.957,-191.975,144.83,
65245730,0.416,1.997,1.344,564.952,38.325,-177.8,
65245740,-1.627,0.327,1.869,359.117,41.755,-44.205,
65245750,0.644,-1.936,1.853,306.897,-15.767,-9.52,
65245760,-0.929,1.61,1.998,349.755,-46.69,-202.44,
65245770,1.3,0.777,1.998,147.91,-93.677,-138.337,
65245780,1.07,1.277,1.846,-36.085,-63.542,-87.57,
65245790,0.307,-0.194,1.206,-159.6,-23.537,-36.662,
65245800,0.073,-0.868,0.64,-178.132,-25.69,-15.592,
65245810,0.458,-0.748,0.433,-158.602,-27.737,-26.705,
65245820,0.529,-0.54,0.764,-128.432,-6.492,-30.485,
65245830,0.565,-0.378,0.833,-113.435,5.827,-15.837,
65245830,0.553,-0.269,0.798,-105.892,11.41,7.472,
65245850,0.46,-0.3,0.927,-111.107,19.985,30.45,
65245850,0.294,-0.406,0.989,-128.957,22.855,36.925,
65245870,0.319,-0.351,1.038,-142.275,27.65,27.86,
65245870,0.282,-0.376,1.096,-162.715,40.985,20.072,
65245890,0.306,-0.482,1.044,-195.527,58.87,5.547,
65245890,-0.081,-0.69,0.971,-220.972,66.64,-20.037,
65245910,-0.023,-0.878,1.104,-240.362,64.697,-57.05,
65245910,0.493,-0.985,0.89,-241.517,79.677,-75.267,
65245920,0.671,-1.201,1.108,-232.645,105.927,-74.147,
65245930,0.261,-1.471,0.389,-204.382,119.472,-78.452,
65245940,1.86,-1.596,0.956,-160.772,105.997,-108.447,
65245950,1.998,-1.962,0.635,-137.34,120.312,-176.137,
65245960,1.955,-1.462,0.389,-32.9,224.577,-307.352,
65245970,-0.522,-1.934,0.321,51.047,258.09,-422.52,
65245980,-1.935,-1.499,-0.045,77.962,163.345,-493.202,
65245990,-1.998,-0.769,-0.323,150.57,45.867,-463.05,
65246000,-1.743,-0.633,-0.468,176.575,-33.04,-361.795,
65246010,-0.664,-0.268,-0.129,163.625,-2.642,-222.197,
65246020,-1.423,-0.468,0.258,162.05,20.65,-75.46,
65246030,-1.998,-0.568,0.309,166.617,-6.125,33.302,
65246040,-1.704,-0.53,0.206,200.235,-41.177,131.687,
65246050,-0.711,0.14,-0.115,230.527,-50.732,206.465,
65246060,-0.199,0.462,-0.308,227.062,-14.28,324.642,
65246070,0.47,0.748,-0.625,198.24,35.175,391.947,
65246080,1.534,1.106,-0.436,182.612,97.457,393.96,
65246090,1.316,1.135,-0.056,113.347,125.23,317.38,
65246100,0.993,0.812,0.305,23.537,85.557,163.415,
65246110,0.654,0.438,0.456,0.245,37.362,43.802,
65246120,0.557,0.498,0.363,26.827,5.25,-41.055,
65246130,0.43,0.536,0.24,48.44,7.192,-108.395,
65246140,1.198,-0.715,0.386,57.067,60.13,-117.827,
65246150,-0.669,-1.998,0.374,123.287,193.375,86.327,
65246160,-1.156,0.303,1.7,500.64,-163.38,-197.977,
65246170,0.41,1.997,-0.67,420.665,-266.507,-219.852,
65246170,0.652,1.494,0.176,194.162,-105.42,-46.917,
65246190,-0.044,-1.865,1.912,-290.22,-13.615,146.86,
65246190,1.017,-0.583,1.037,-111.16,-59.815,38.15,
65246210,0.948,-0.526,0.738,-58.8,-36.68,25.462,
65246210,0.191,-1.474,0.512,-86.275,-5.495,57.575,
65246230,0.213,-0.53,0.457,-35.21,-14.42,28.927,
65246230,0.508,-0.436,0.488,-4.217,-5.547,36.82,
65246250,0.278,-0.805,0.766,31.307,21.245,44.765,
65246250,-0.189,-0.739,1.083,64.662,29.19,30.275,
65246260,-0.246,-0.208,1.216,76.352,6.545,2.975,
65246270,0.028,0.081,1.104,59.727,-22.347,-18.865,
65246280,0.418,0.027,0.935,39.55,-32.602,-28.367,
65246290,0.595,0.114,0.94,23.24,-18.165,-26.092,
65246300,0.781,0.228,0.88,-5.547,6.51,-16.135,
65246310,0.741,-0.039,0.835,-46.882,39.952,-0.997,
65246320,0.294,-0.352,0.899,-65.607,67.357,9.572,
65246330,-0.001,-0.446,0.838,-55.79,75.915,8.312,
65246340,-0.045,-0.421,0.881,-37.327,73.167,1.382,
65246350,0.108,-0.23,0.848,-21.63,60.427,-11.34,
65246360,0.465,-0.13,0.849,-17.255,55.107,-18.567,
65246370,0.092,-0.345,0.679,-17.535,61.565,-14.367,
65246380,1.68,-0.033,0.73,-8.662,84.507,5.512,
65246390,-0.491,-0.577,1.039,-9.152,131.11,33.127,
65246400,-1.157,-0.573,1.021,1.627,104.247,34.475,
65246410,-0.603,-0.371,1.115,28.245,50.487,31.71,
65246420,-0.231,-0.346,1.026,23.065,11.252,2.992,
65246430,-0.082,-0.392,0.965,26.005,-9.31,-12.442,
65246440,-0.109,-0.34,0.974,29.26,-23.03,-14,
65246450,-0.032,-0.192,0.991,32.357,-35.56,-17.447,
65246460,0.181,-0.149,0.976,30.03,-42.35,-23.975,
65246470,0.385,-0.112,0.953,21.91,-38.167,-24.395,
65246480,0.443,-0.103,0.934,11.305,-23.695,-18.252,
65246490,0.352,-0.173,0.927,0.402,-6.037,-8.33,
65246500,0.248,-0.195,0.938,-4.235,7.822,-0.035,
65246510,0.186,-0.244,0.948,-6.247,16.152,6.247,
65246520,0.137,-0.255,0.949,-6.877,19.862,9.52,
65246530,0.075,-0.262,0.942,-7.332,20.3,10.377,
65246540,0.033,-0.274,0.946,-6.79,17.972,9.66,
65246550,0.053,-0.276,0.951,-5.407,14,7.665,
65246560,0.07,-0.299,0.947,-4.497,10.5,5.057,
65246570,0.069,-0.299,0.948,-2.782,7.542,2.502,
65246580,0.073,-0.309,0.95,-0.875,4.672,0.945,
65246580,0.09,-0.308,0.947,1.89,2.117,0.245,
65246600,0.074,-0.278,0.949,4.637,0.14,-0.28,
65246600,0.079,-0.27,0.951,6.107,-1.575,-0.577,
65246620,0.086,-0.272,0.953,6.44,-3.132,-0.997,
65246620,0.108,-0.263,0.953,6.807,-4.077,-1.207,
65246640,0.123,-0.256,0.953,6.597,-4.182,-1.12,
65246640,0.128,-0.244,0.955,6.002,-3.552,-0.98,
65246660,0.134,-0.241,0.953,4.637,-2.485,-0.7,
65246660,0.129,-0.248,0.95,3.517,-1.172,-0.455,
65246670,0.107,-0.25,0.952,2.975,-0.28,-0.42,
65246680,0.09,-0.248,0.954,2.52,-0.35,-0.77,
65246690,0.094,-0.254,0.952,2.292,-1.225,-1.855,
65246700,0.085,-0.266,0.953,2.31,-2.152,-2.887,
65246710,0.071,-0.254,0.955,2.572,-3.675,-3.727,
65246720,0.131,-0.248,0.95,2.292,-5.04,-3.535,
65246730,0.137,-0.24,0.95,2.047,-4.2,-2.887,
65246740,0.105,-0.249,0.954,1.557,-2.922,-1.977,
65246750,0.1,-0.264,0.954,1.312,-3.202,-1.89,
65246760,0.102,-0.271,0.953,1.417,-4.147,-2.415,
65246770,0.111,-0.26,0.953,2.03,-5.127,-2.712,
65246780,0.084,-0.286,0.957,2.485,-6.142,-2.432,
65246790,0.088,-0.265,0.955,3.937,-8.242,-2.782,
65246800,0.111,-0.273,0.952,4.917,-9.712,-2.047,
65246810,0.081,-0.244,0.952,5.512,-10.762,-2.187,
65246820,0.126,-0.236,0.952,5.53,-11.9,-1.347,
65246830,0.117,-0.203,0.961,4.182,-11.305,0.542,
65246840,0.116,-0.141,0.975,0.262,-10.815,1.417,
65246850,0.129,-0.111,0.995,-7.962,-10.5,3.167,
65246860,0.096,0.023,0.963,-18.672,-9.852,3.587,
65246870,0.124,0.283,1.194,-37.8,-9.135,2.607,
65246880,0.075,-0.042,1.278,-75.6,-12.18,10.447,
65246890,0.191,-0.133,1.377,-107.415,-21.595,16.275,
65246900,-0.323,-0.854,1.009,-134.855,-47.477,24.552,
65246910,-0.428,-0.857,0.631,-129.5,-97.09,48.44,
65246920,0.712,0.547,0.376,-49.735,-108.5,19.005,
65246920,0.589,-0.44,0.205,-23.362,-45.762,15.347,
65246940,-0.134,-1.949,0.2,-6.527,-4.69,14.7,
65246940,-0.053,-0.833,0.219,75.32,-1.75,-40.88,
65246960,-0.013,-0.568,0.876,131.372,11.847,-71.05,
65246960,0.407,0.008,1.755,148.435,9.065,-72.1,
65246980,0.505,0.966,1.613,107.607,-9.45,-61.372,
65246980,0.518,-0.034,1.076,19.547,-11.13,-19.67,
65247000,0.222,-0.016,1.119,-16.555,-5.985,-3.692,
65247000,-0.032,-0.062,1.349,-51.817,-13.44,3.832,
65247010,0.274,-0.176,1.295,-89.862,-32.165,3.85,
65247020,0.306,-0.276,1.258,-121.957,-23.607,1.382,
65247030,0.357,-0.207,1.235,-158.69,-0.507,2.537,
65247040,0.264,-0.093,1.304,-198.397,18.532,8.715,
65247050,0.337,-0.071,1.265,-242.9,21.42,10.85,
65247060,0.441,-0.015,1.158,-280.822,27.352,11.987,
65247070,0.279,-0.095,1.212,-322.122,39.567,11.235,
65247080,0.067,-0.409,1.162,-365.505,33.565,1.155,
65247090,0.286,-0.708,0.958,-388.99,27.527,-7.297,
65247100,0.81,-0.854,0.895,-381.99,60.952,-9.572,
65247110,0.829,-1.27,0.763,-379.382,133.472,2.187,
65247120,0.651,-1.4,0.318,-356.002,209.23,7.525,
65247130,0.626,-1.452,0.574,-315.682,235.235,-13.772,
65247140,0.149,-1.815,-0.032,-259.455,199.325,-53.48,
65247150,1.16,-1.522,-0.463,-180.092,113.96,-82.145,
65247160,0.802,-1.432,-0.048,-116.41,81.917,-118.702,
65247170,-0.932,-1.364,0.023,-64.61,36.89,-147.63,
65247180,-1.17,-0.777,-0.176,16.887,-39.847,-128.345,
65247190,-0.996,-0.299,-0.067,87.99,-104.702,-64.732,
65247200,-0.796,-0.023,0.119,84.91,-156.082,2.957,
65247210,-0.719,0.065,0.41,45.64,-198.467,65.852,
65247220,-0.599,0.048,0.69,23.747,-226.065,116.882,
65247230,-0.201,0.004,0.795,24.36,-247.082,139.422,
65247240,0.118,-0.001,0.88,65.222,-255.255,140.192,
65247250,0.309,0.03,0.797,111.072,-244.965,148.767,
65247260,0.503,-0.085,0.553,152.442,-224.542,166.932,
65247270,0.65,-0.135,0.237,188.545,-202.65,168.752,
65247280,0.61,-0.024,-0.173,225.522,-182.63,160.772,
65247290,0.676,0.382,-0.443,242.042,-164.43,149.817,
65247300,0.562,0.646,-0.502,209.125,-159.355,131.967,
65247310,0.605,0.647,-0.489,137.427,-163.065,94.237,
65247320,0.566,0.476,-0.359,59.01,-154.91,61.022,
65247330,-0.015,-0.08,-0.972,-2.205,-147.28,36.662,
65247330,-1.825,-1.371,0.988,-36.312,-288.365,-3.885,
65247340,1.729,-1.998,0.609,-151.777,-91.227,187.372,
65247350,-1.358,-1.818,-1.362,418.635,7.717,440.825,
65247360,1.883,1.891,-0.735,565.372,-159.075,32.812,
65247370,-0.121,1.802,1.446,401.065,142.047,64.89,
65247380,-1.789,-1.579,1.813,190.435,50.575,77.245,
65247390,1.144,-1.257,1.78,234.955,-20.09,-1.172,
65247400,-1.418,0.724,1.998,196.42,8.505,-125.877,
65247410,-0.081,0.421,1.97,55.65,-11.41,-170.52,
65247420,0.289,-0.307,1.744,-31.36,-26.32,-152.565,
65247430,0.707,0.136,1.025,-74.882,-54.827,-142.117,
65247440,0.871,-0.627,0.549,-88.76,-64.872,-75.705,
65247450,0.724,-0.655,0.26,-66.097,-65.87,-37.117,
65247460,0.641,-0.651,0.286,-31.972,-44.87,-17.027,
65247470,0.7,-0.535,0.603,-9.17,-8.277,-10.867,
65247480,0.743,-0.242,0.881,-2.275,14.805,-1.225,
65247490,0.7,-0.154,1.084,-17.097,25.725,29.452,
65247500,0.498,-0.176,1.163,-48.527,28.052,57.067,
65247510,0.391,-0.226,1.156,-83.055,29.627,73.395,
65247520,0.439,-0.255,1.216,-117.652,36.872,76.02,
65247530,0.391,-0.189,1.377,-159.162,48.195,68.267,
65247540,0.086,-0.195,1.432,-207.392,41.685,53.235,
65247550,-0.231,-0.406,1.317,-250.302,6.72,35.91,
65247560,-0.104,-0.697,1.024,-279.685,-27.177,15.837,
65247570,0.024,-0.973,0.92,-287.21,-32.462,7.682,
65247580,0.211,-1.142,0.754,-256.007,-14.472,8.855,
65247590,0.267,-1.246,0.822,-211.312,8.417,16.835,
65247600,0.225,-1.548,0.652,-187.547,18.182,9.065,
65247610,0.274,-1.439,0.697,-157.64,8.295,-19.355,
65247620,-0.221,-1.249,0.346,-97.142,3.815,-49.49,
65247630,-0.279,-0.967,0.132,-23.047,-8.26,-67.217,
65247640,0.198,-0.94,0.018,23.8,-30.765,-71.96,
65247650,0.862,-0.566,-0.06,61.915,-4.795,-55.877,
65247660,0.297,-0.479,-0.071,88.375,30.66,-61.495,
65247670,-0.348,-0.676,-0.09,86.152,36.452,-59.885,
65247670,-0.375,-0.629,-0.209,80.132,20.09,-41.352,
65247690,-0.255,-0.41,-0.36,78.54,-2.765,-18.305,
65247690,-0.148,-0.217,-0.338,60.9,-10.972,23.975,
65247710,-0.022,-0.196,-0.245,21.577,-0.91,82.775,
65247710,0.003,-0.326,-0.072,-10.237,19.407,144.077,
65247730,0.147,-0.403,0.054,-33.862,44.555,195.09,
65247730,0.379,-0.407,0.097,-39.83,75.215,225.715,
65247750,0.586,0.077,-0.045,-11.795,109.305,224.035,
65247750,0.503,1.229,-0.315,39.025,134.47,190.96,
65247760,0.564,1.996,-0.367,63.122,146.212,130.06,
65247770,0.578,1.965,-0.827,23.135,126.035,50.995,
65247780,-1.251,-0.667,0.99,-84.315,-87.675,-26.267,
65247790,-0.118,-1.998,-0.801,-28.052,-167.877,175.735,
65247800,1.182,0.815,0.2,545.405,-135.187,19.18,
65247810,-1.948,1.997,0.99,538.422,-14.84,-241.447,
65247820,0.069,-0.882,1.666,243.092,-44.1,-119.122,
65247830,0.788,-0.848,1.964,285.232,1.015,-174.352,
65247840,0.169,1.912,1.998,309.575,-8.487,-298.445,
65247850,1.457,-0.685,1.937,55.002,-11.567,-124.267,
65247860,0.883,0.644,1.458,-21.28,-25.13,-73.885,
65247870,0.581,-0.344,1.03,-90.58,-23.467,6.142,
65247880,0.523,-0.392,0.976,-120.627,-6.72,23.555,
65247890,0.462,-0.216,1.121,-136.447,18.76,26.74,
65247900,0.46,-0.199,1.139,-167.195,40.53,35.087,
65247910,0.376,-0.18,1.066,-194.04,56,42.21,
65247920,0.308,-0.312,0.944,-224.157,70.157,42.42,
65247930,0.204,-0.41,0.845,-251.23,81.357,34.615,
65247940,-0.048,-0.529,0.755,-264.18,84.227,29.435,
65247950,-0.238,-0.691,0.717,-270.305,81.322,17.01,
65247960,-0.092,-0.909,0.643,-262.465,78.487,-3.605,
65247970,0.232,-1.161,0.478,-246.575,92.557,-17.115,
65247980,0.341,-1.26,0.406,-218.557,131.005,-15.662,
65247990,-0.014,-1.604,0.171,-203.682,160.142,-25.48,
65248000,1.452,-1.998,0.95,-195.3,101.972,-80.22,
65248010,0.634,-1.998,0.667,-144.987,61.005,-107.065,
65248010,1.801,-1.871,-0.12,13.615,99.312,-99.575,
65248030,1.344,-1.281,0.391,198.187,98.472,-137.357,
65248030,-0.594,-1.126,-0.094,263.882,12.74,-228.305,
65248050,-1.949,-0.799,0.072,231.875,-142.135,-226.712,
65248050,-1.998,-1.04,-0.017,202.072,-313.705,-166.442,
65248070,-1.176,-0.965,-0.908,231.717,-360.867,-28.822,
65248070,-0.155,-0.382,-0.857,272.562,-296.642,162.26,
65248080,-0.884,-0.199,-0.638,232.627,-256.69,279.335,
65248090,-1.212,-0.254,-0.663,173.232,-261.817,342.947,
65248100,-0.634,-0.37,-0.596,123.235,-274.015,414.207,
65248110,0.2,-0.501,-0.509,61.18,-267.767,456.032,
65248120,0.767,-0.435,-0.726,18.602,-224.402,460.67,
65248130,1.036,0.115,-0.799,-0.192,-145.565,442.207,
65248140,1.36,0.767,-0.695,-38.99,-83.037,373.397,
65248150,1.216,1.341,-0.35,-105.437,-66.482,231.245,
65248160,1.348,0.7,1.589,-174.86,-74.55,22.715,
65248170,0.262,-1.827,-0.239,-92.505,166.915,-9.59,
65248180,-1.237,-1.359,-0.111,505.767,-68.652,-115.885,
65248190,1.465,1.996,0.279,572.81,2.555,-263.602,
65248200,-1.155,0.869,1.924,437.85,57.575,-141.417,
65248210,1.234,-1.428,1.971,281.662,28.245,-146.247,
65248220,0.401,1.911,1.998,287.087,18.812,-189.105,
65248230,0.91,0.457,1.998,86.275,0.595,-77.402,
65248240,0.696,0.917,1.975,-82.565,-22.785,-14.84,
65248250,0.335,-0.001,1.469,-210.542,-30.345,51.625,
65248260,0.013,-0.45,0.712,-257.145,-20.65,63.157,
65248270,0.131,-0.658,0.441,-245.98,6.212,45.325,
65248280,0.309,-0.682,0.651,-234.832,35.857,17.902,
65248290,0.419,-0.565,0.823,-224.98,56.49,-0.892,
65248300,0.46,-0.405,0.765,-215.46,73.15,-4.952,
65248310,0.297,-0.491,0.635,-218.54,80.885,-12.582,
