#Format version: 1.0
time[ms],accX[g],accY[g],accZ[g],Value 1,Value 2,Value 3,
39681450,-0.077,-0.26,0.955,-2.152,0.21,1.785,
39681460,-0.079,-0.26,0.955,-2.152,-0.175,1.715,
39681470,-0.078,-0.26,0.955,-2.152,0.105,1.697,
39681480,-0.078,-0.26,0.955,-2.135,-0.227,1.645,
39681490,-0.077,-0.26,0.956,-2.135,0.175,1.645,
39681500,-0.077,-0.26,0.955,-2.1,-0.122,1.627,
39681510,-0.076,-0.26,0.955,-2.117,0.28,1.68,
39681520,-0.077,-0.261,0.955,-2.082,0,1.61,
39681530,-0.078,-0.26,0.955,-2.1,0.455,1.662,
39681540,-0.076,-0.259,0.955,-1.995,0.245,1.68,
39681550,-0.076,-0.261,0.954,-1.96,0.717,1.785,
39681560,-0.076,-0.261,0.954,-1.872,0.752,1.785,
39681570,-0.076,-0.26,0.955,-1.802,1.347,1.925,
39681580,-0.073,-0.267,0.954,-1.505,1.697,1.855,
39681580,-0.075,-0.253,0.955,-1.277,2.905,1.907,
39681600,-0.075,-0.264,0.954,-1.137,3.657,2.712,
39681600,-0.075,-0.258,0.955,-0.717,4.462,2.52,
39681620,-0.082,-0.261,0.954,-0.84,4.567,2.59,
39681620,-0.082,-0.261,0.956,-0.717,4.655,2.677,
39681640,-0.09,-0.26,0.954,-0.717,4.567,2.537,
39681640,-0.092,-0.257,0.956,-0.717,4.007,2.45,
39681660,-0.087,-0.261,0.955,-0.857,3.377,2.397,
39681660,-0.092,-0.257,0.954,-0.735,2.887,2.117,
39681670,-0.096,-0.259,0.954,-0.805,2.345,2.17,
39681680,-0.09,-0.259,0.955,-0.63,1.627,2.012,
39681690,-0.094,-0.26,0.955,-0.455,1.207,1.837,
39681700,-0.094,-0.259,0.955,-0.35,0.35,1.802,
39681710,-0.099,-0.259,0.956,-0.542,-0.385,1.89,
39681720,-0.081,-0.261,0.96,-0.875,-1.33,1.942,
39681730,-0.069,-0.26,0.964,-1.312,-0.63,2.345,
39681740,-0.073,-0.28,0.966,-1.855,0.56,2.677,
39681750,-0.066,-0.27,0.968,-2.135,1.837,2.975,
39681760,-0.062,-0.287,0.969,-2.835,2.485,4.235,
39681770,-0.063,-0.267,0.966,-3.045,3.64,4.532,
39681780,-0.073,-0.269,0.963,-3.325,3.99,5.075,
39681790,-0.09,-0.253,0.956,-3.045,4.322,4.9,
39681800,-0.094,-0.261,0.957,-2.852,3.202,4.76,
39681810,-0.093,-0.256,0.947,-2.222,2.887,4.655,
39681820,-0.116,-0.245,0.938,-1.19,1.89,4.41,
39681830,-0.081,-0.231,0.945,-0.822,1.662,4.917,
39681840,-0.085,-0.242,0.938,-1.067,1.977,5.512,
39681850,-0.118,-0.155,0.944,-0.892,2.957,4.777,
39681860,-0.125,-0.218,0.918,-3.132,3.307,3.5,
39681870,-0.244,-0.121,0.919,-3.167,3.955,1.662,
39681880,-0.221,-0.176,0.907,-4.147,-0.227,-1.347,
39681890,-0.053,-0.184,0.95,-3.377,-4.62,-3.57,
39681900,0.014,-0.283,0.96,-2.397,-4.952,-7.595,
39681910,-0.111,-0.335,0.947,-2.31,-3.377,-8.977,
39681920,-0.129,-0.292,0.948,-0.035,-6.93,-7.84,
39681920,-0.087,-0.368,0.954,1.872,-9.922,-6.475,
39681940,-0.037,-0.295,0.971,5.337,-9.677,-8.365,
39681940,0.04,-0.229,0.984,3.15,-4.602,-8.54,
39681960,0.026,-0.199,0.991,-2.905,3.395,-6.422,
39681960,-0.046,-0.18,0.985,-9.537,10.675,-4.777,
39681980,-0.122,-0.24,0.972,-13.72,13.527,-4.462,
39681980,-0.147,-0.27,0.965,-13.772,13.055,-6.965,
39682000,-0.151,-0.272,0.962,-12.967,10.902,-10.045,
39682000,-0.107,-0.269,0.962,-11.952,8.627,-11.497,
39682010,-0.079,-0.303,0.956,-10.675,7.21,-10.885,
39682020,-0.056,-0.301,0.96,-9.852,7.035,-8.207,
39682030,-0.062,-0.272,0.975,-11.952,8.61,-4.725,
39682040,-0.063,-0.249,0.995,-18.48,10.78,-0.962,
39682050,0.001,-0.223,1.008,-29.277,14.052,3.832,
39682060,-0.038,-0.253,1.018,-41.982,19.827,9.205,
39682070,-0.068,-0.215,1.041,-54.67,25.987,11.34,
39682080,-0.03,-0.202,1.068,-68.302,31.85,11.095,
39682090,-0.005,-0.279,1.062,-85.89,40.547,13.282,
39682100,0.072,-0.275,1.085,-104.16,51.327,18.62,
39682110,0.113,-0.323,1.093,-120.225,68.46,23.695,
39682120,0.131,-0.329,1.137,-131.442,92.452,28.402,
39682130,-0.029,-0.378,1.212,-138.74,120.172,35.647,
39682140,-0.086,-0.538,1.249,-138.46,133.385,48.055,
39682150,-0.136,-0.765,1.012,-132.527,139.125,70.122,
39682160,0.112,-1.107,1.373,-105.7,138.652,95.06,
39682170,-0.596,-1.161,1.052,-60.462,100.747,131.53,
39682180,-0.31,-1.761,0.352,-39.217,-58.642,92.61,
39682190,1.935,-1.998,0.945,-57.137,-194.53,-3.15,
39682200,1.326,-1.91,-0.355,-5.267,-228.06,-121.975,
39682210,-0.698,-0.936,-0.888,-5.005,-197.785,-218.925,
39682220,-1.253,-1.104,-0.804,-94.605,-171.832,-171.64,
39682230,-1.177,-1.239,-0.764,-145.915,-144.83,-46.83,
39682240,-0.608,-0.539,-0.572,-137.322,-146.562,61.302,
39682250,0.517,-0.172,-0.466,-152.04,-158.97,132.16,
39682260,1.064,-0.1,-0.234,-171.57,-157.517,122.902,
39682270,1.019,0.732,0.787,-156.555,-136.972,41.23,
39682280,0.019,0.805,1.968,-29.75,115.692,16.87,
39682290,-1.892,1.997,1.973,220.937,184.765,99.662,
39682300,-0.763,-0.283,1.498,336.227,100.1,269.5,
39682310,-1.701,-1.855,0.83,306.04,-9.152,252.21,
39682320,-0.606,1.509,1.184,331.205,-68.915,39.987,
39682330,-0.825,-0.511,1.261,284.427,-80.832,13.02,
39682330,-0.24,0.133,1.403,272.51,-96.197,-41.72,
39682350,0.457,0.279,1.414,210.787,-99.96,-46.06,
39682350,0.747,0.363,1.238,115.045,-65.835,-20.037,
39682370,0.411,0.135,1.127,31.325,-17.115,2.66,
39682370,0.034,-0.003,1.063,-14.7,14.175,3.185,
39682390,-0.118,-0.259,1.003,-36.137,25.252,-7.542,
39682390,-0.194,-0.328,0.95,-42.297,25.812,-16.31,
39682410,-0.18,-0.353,0.944,-40.635,20.702,-17.185,
39682410,-0.175,-0.339,0.938,-36.872,16.257,-18.462,
39682420,-0.168,-0.288,0.95,-32.427,12.967,-20.527,
39682430,-0.189,-0.326,0.974,-28.91,9.275,-23.852,
39682440,-0.208,-0.249,1.019,-34.142,5.915,-27.65,
39682450,-0.209,-0.194,1.065,-49.525,8.05,-37.555,
39682460,-0.452,-0.308,1.115,-80.465,21.07,-55.475,
39682470,-0.232,-0.067,1.22,-113.12,24.92,-79.887,
39682480,-0.28,-0.199,1.24,-151.322,18.865,-96.46,
39682490,-0.238,-0.267,1.189,-189.945,12.075,-106.837,
39682500,-0.181,-0.277,1.1,-220.185,5.67,-115.202,
39682510,-0.091,-0.45,0.995,-241.5,7.735,-119.892,
39682520,-0.378,-0.518,0.998,-233.502,26.88,-125.3,
39682530,-0.547,-0.789,1.036,-227.482,27.492,-129.29,
39682540,-0.286,-0.523,1.069,-216.247,15.242,-150.447,
39682550,-0.306,-0.604,1.253,-199.832,25.567,-172.445,
39682560,-0.242,-1.165,1.024,-174.615,74.375,-140.385,
39682570,-0.974,0.504,0.579,-141.4,119.105,-92.627,
39682580,0.333,-0.031,0.712,-111.457,95.287,-129.92,
39682590,-0.124,-0.667,0.646,-100.887,101.377,-95.97,
39682600,-0.429,-0.435,0.321,-69.142,120.417,-112.035,
39682610,-0.733,0.616,0.148,-46.147,151.515,-131.582,
39682620,-1.135,0.813,0.312,-61.757,213.167,-76.23,
39682630,-1.047,1.505,0.414,6.947,260.365,102.34,
39682640,0.825,1.115,-0.042,77.682,253.137,290.867,
39682650,1.912,-0.544,-0.526,92.645,252.157,403.987,
39682660,1.998,-1.998,0.891,33.18,231.56,240.257,
39682670,-0.284,-1.998,-1.347,204.592,-137.41,-98.892,
39682670,-1.998,0.533,-0.92,239.592,-92.61,-16.992,
39682690,0.607,1.476,1.898,194.232,-165.025,96.897,
39682690,0.422,-0.765,1.383,266.997,-143.15,177.012,
39682710,-1.929,-0.652,0.52,337.785,-152.337,86.607,
39682710,-0.778,0.164,1.026,341.512,-181.265,55.545,
39682730,-0.518,-0.145,1.253,354.777,-197.697,4.41,
39682730,-1.507,-0.192,1.598,354.9,-215.005,-53.077,
39682750,1.296,0.793,1.547,250.932,-233.152,-48.387,
39682750,1.315,0.916,1.145,86.187,-137.182,-19.967,
39682760,1.144,0.234,1.048,-4.042,-24.745,-2.45,
39682770,0.31,-0.119,1.041,-53.2,37.695,15.837,
39682780,0.025,-0.269,1.041,-77.42,61.075,19.092,
39682790,-0.421,-0.525,0.933,-82.617,62.737,10.797,
39682800,-0.475,-0.408,0.891,-68.547,46.235,-1.96,
39682810,-0.407,-0.499,0.843,-47.197,27.23,-13.825,
39682820,-0.274,-0.437,0.83,-17.937,10.15,-20.702,
39682830,-0.132,-0.448,0.863,3.482,-2.205,-17.272,
39682840,-0.141,-0.342,0.923,17.552,-9.695,-8.907,
39682850,-0.172,-0.216,0.983,21.787,-13.387,-6.16,
39682860,-0.108,-0.152,1.019,17.43,-14.787,-8.732,
39682870,-0.071,-0.167,1.019,5.197,-12.39,-12.285,
39682880,-0.002,-0.215,1.008,-6.422,-8.995,-16.047,
39682890,0.037,-0.218,1.015,-17.867,-2.677,-17.57,
39682900,-0.059,-0.155,1.03,-30.31,6.825,-20.265,
39682910,-0.064,-0.301,1.021,-42.42,13.282,-27.195,
39682920,-0.03,-0.253,1.047,-57.802,18.007,-30.345,
39682930,-0.062,-0.254,1.073,-81.777,24.325,-29.33,
39682940,-0.261,-0.311,1.1,-111.527,32.935,-32.042,
39682950,-0.146,-0.165,1.151,-140.42,28.805,-42.437,
39682960,-0.243,-0.257,1.113,-168.98,20.142,-50.067,
39682970,-0.224,-0.295,1.055,-199.535,18.007,-57.33,
39682980,-0.252,-0.323,0.994,-222.25,15.102,-70.262,
39682990,-0.228,-0.362,0.94,-226.012,11.97,-86.94,
39683000,-0.314,-0.378,0.856,-222.092,10.955,-90.79,
39683010,-0.403,-0.698,0.807,-229.827,5.757,-97.265,
39683020,-0.543,-0.776,0.898,-236.775,1.715,-113.417,
39683030,-0.501,-0.741,0.976,-228.392,1.627,-134.26,
39683040,-0.157,-0.931,0.984,-201.232,8.295,-151.217,
39683050,-0.167,-1.126,1.041,-157.36,10.517,-151.462,
39683060,0.098,-1.241,0.922,-109.83,46.69,-126.332,
39683070,-1.241,-0.189,1.185,-77.962,91.122,-78.82,
39683080,-1.307,0.023,1.419,-37.555,40.18,-107.292,
39683080,-0.257,0.632,1.273,42.437,30.852,-26.512,
39683100,-1.314,1.525,-0.373,138.355,61.845,96.635,
39683100,-0.437,1.49,-0.271,142.38,47.845,148.312,
39683120,0.291,0.412,0.258,85.172,60.252,228.917,
39683120,0.541,-0.289,-0.093,104.212,63.385,258.16,
39683140,1.005,-0.121,-0.449,111.125,53.112,200.795,
39683140,1.034,-0.6,-0.626,60.9,51.765,135.905,
39683160,1.955,-1.785,0.569,29.4,65.135,75.897,
39683160,-1.243,-1.998,-0.952,282.03,32.025,158.987,
39683170,0.195,1.525,1.428,297.447,-54.915,-39.007,
39683180,-0.019,0.679,1.929,286.842,-94.832,79.957,
39683190,-0.941,-1.3,1.061,305.375,-95.165,143.657,
39683200,-1.017,-0.41,1.207,355.705,-122.43,69.335,
39683210,-1.549,-0.232,1.424,287.647,-142.047,36.942,
39683220,-0.17,0.438,1.353,244.177,-174.65,-12.11,
39683230,1.772,1.203,1.243,124.232,-147.945,-24.22,
39683240,1.029,0.227,1.055,17.202,-43.925,-3.71,
39683250,0.53,-0.052,1.043,-38.815,22.995,20.072,
39683260,0.055,-0.196,1.025,-68.932,53.9,22.837,
39683270,-0.196,-0.328,1.006,-82.46,59.57,14.752,
39683280,-0.341,-0.245,1.019,-88.585,53.69,7.665,
39683290,-0.44,-0.406,0.879,-88.27,41.422,4.095,
39683300,-0.338,-0.637,0.774,-68.32,25.55,-2.66,
39683310,-0.275,-0.389,0.802,-31.29,12.495,-6.597,
39683320,-0.245,-0.529,0.814,-7.105,1.12,-1.19,
39683330,-0.302,-0.462,0.825,16.817,-7.717,-4.847,
39683340,-0.265,-0.363,0.903,39.445,-17.132,-8.802,
39683350,-0.143,-0.208,1.001,47.022,-23.205,-14.07,
39683360,-0.015,-0.113,1.045,39.637,-23.765,-17.255,
39683370,0.052,-0.119,1.044,21.402,-16.835,-18.497,
39683380,0.056,-0.135,1.043,0.507,-7.595,-15.907,
39683390,-0.006,-0.137,1.057,-20.492,1.522,-10.815,
39683400,-0.073,-0.15,1.078,-42.647,6.93,-7.98,
39683410,-0.162,-0.165,1.099,-65.625,9.205,-8.505,
39683420,-0.181,-0.202,1.11,-88.655,7.175,-12.512,
39683420,-0.22,-0.218,1.132,-113.137,1.855,-17.29,
39683440,-0.18,-0.258,1.145,-143.395,-4.812,-22.592,
39683440,-0.334,-0.216,1.167,-173.092,-9.502,-31.167,
39683460,-0.252,-0.219,1.126,-202.247,-24.57,-37.117,
39683460,-0.185,-0.3,1.042,-234.92,-31.517,-46.707,
39683480,-0.171,-0.469,1.012,-259.192,-28.157,-62.37,
39683480,-0.28,-0.216,1.01,-256.48,-25.602,-69.125,
39683500,-0.072,-0.507,1.13,-273.227,-15.627,-76.475,
39683500,-0.092,-0.681,1.393,-279.702,13.002,-81.567,
39683510,-0.171,-0.701,1.583,-273.052,57.19,-79.66,
39683520,0.03,-1.012,1.575,-238.525,81.62,-88.97,
39683530,-1.127,-0.71,0.8,-190.47,150.57,-27.877,
39683540,-0.762,0.664,0.917,-134.487,127.172,-62.44,
39683550,-0.603,0.071,1.138,-94.185,102.9,-78.767,
39683560,-0.719,0.84,0.578,-19.705,101.832,-15.435,
39683570,-0.776,1.684,1.572,11.865,167.23,47.775,
39683580,-0.01,1.456,0.691,129.395,140.017,153.247,
39683590,0.787,1.131,0.53,185.097,64.627,237.86,
39683600,1.738,-0.104,0.348,181.125,17.062,259.612,
39683610,1.838,-0.701,0.196,149.712,7.857,155.347,
39683620,0.798,-0.799,-0.02,132.755,-10.902,65.467,
39683630,0.928,-0.813,-0.578,96.967,-30.537,-22.137,
39683640,0.229,-1.76,0.5,34.562,62.002,-49.717,
39683650,-1.203,-1.998,-1.94,193.392,-138.88,68.04,
39683660,0.42,0.423,0.575,267.155,-135.957,116.917,
39683670,0.22,1.958,1.885,198.082,-122.535,44.712,
39683680,-1.331,-0.512,1.087,262.692,-84.315,46.707,
39683690,-0.738,-0.745,1.137,316.96,-111.002,2.922,
39683700,-0.436,0.295,1.347,281.68,-128.537,-47.162,
39683710,-0.101,-0.196,1.297,236.337,-133.122,-60.567,
39683720,1.064,0.241,1.363,180.53,-123.62,-51.415,
39683730,0.732,0.264,1.215,85.925,-67.672,-14.35,
39683740,0.419,0.165,1.166,7.997,-16.992,11.445,
39683750,0.146,-0.097,1.097,-44.082,15.645,14.227,
39683760,-0.061,-0.288,0.998,-73.5,31.36,8.12,
39683770,-0.125,-0.395,0.935,-81.655,35.21,6.44,
39683780,-0.173,-0.434,0.862,-73.185,33.075,1.295,
39683790,-0.332,-0.517,0.778,-49.472,30.397,-4.235,
39683800,-0.185,-0.485,0.821,-25.077,19.652,-7.367,
39683810,-0.16,-0.442,0.836,-5.827,11.847,-5.635,
39683820,-0.175,-0.422,0.868,11.27,5.652,-2.397,
39683830,-0.151,-0.311,0.95,21.175,-0.052,0.507,
39683830,-0.119,-0.201,1.02,17.272,-2.572,1.872,
39683840,-0.091,-0.184,1.038,2.047,-1.715,2.835,
39683850,-0.094,-0.178,1.043,-16.502,0.997,1.82,
39683860,-0.09,-0.195,1.049,-36.4,3.727,2.59,
39683870,-0.12,-0.222,1.042,-55.807,5.372,3.43,
39683880,-0.157,-0.258,1.009,-73.867,6.387,3.325,
39683890,-0.175,-0.291,1.015,-87.71,7.367,1.767,
39683900,-0.253,-0.269,1.051,-103.95,9.975,-5.285,
39683910,-0.107,-0.322,1.059,-120.995,5.075,-11.2,
39683920,-0.081,-0.284,1.107,-141.697,-2.345,-11.76,
39683930,-0.048,-0.269,1.096,-168.682,-7.42,-9.065,
39683940,-0.044,-0.442,1.021,-193.742,-11.252,-5.932,
39683950,-0.073,-0.257,1.015,-197.75,-10.885,-9.817,
39683960,-0.094,-0.395,0.985,-213.762,-7.945,-9.205,
39683970,-0.119,-0.457,0.975,-219.887,-3.675,-21.577,
39683980,-0.007,-0.571,1.038,-220.797,5.985,-30.38,
39683990,0.244,-0.815,1.027,-216.44,32.235,-34.825,
39684000,0.338,-0.896,0.927,-199.745,72.94,-25.602,
39684010,0.063,-1.178,0.783,-165.9,110.092,8.225,
39684020,0.327,-1.998,1.339,-130.2,110.215,2.782,
39684030,1.249,-0.96,0.979,-38.22,42.052,-130.095,
39684040,1.998,-0.311,0.718,54.862,81.655,-222.477,
39684050,1.744,-0.733,1.23,105.822,164.797,-296.257,
39684060,-1.466,-0.665,-0.717,124.687,116.392,-456.277,
39684070,-1.998,0.72,-1.228,117.022,99.942,-505.102,
39684080,-1.996,0.165,-0.001,-14.525,86.1,-370.02,
39684090,-1.635,-0.548,0.379,-7.665,56.962,-156.047,
39684100,-0.843,1.08,-0.247,111.055,-21.752,104.002,
39684110,0.683,0.295,-0.326,68.565,-55.282,222.565,
39684120,1.408,-0.969,0.044,59.482,-45.412,263.287,
39684130,-1.173,-1.998,0.783,46.952,-55.912,222.057,
39684140,0.267,-1.998,-0.779,200.952,17.535,200.357,
39684150,0.782,-1.612,1.154,268.555,107.87,332.43,
39684160,-1.939,-0.245,0.692,337.33,68.687,206.517,
39684170,-1.276,1.647,1.701,431.725,-6.282,102.672,
39684170,-1.43,-0.733,1.511,381.885,-80.762,116.707,
39684190,-1.518,-0.365,1.591,351.925,-129.115,3.202,
39684190,0.056,0.305,1.456,289.24,-176.592,-76.58,
39684210,1.78,1.415,1.272,137.76,-144.655,-40.32,
39684210,0.824,0.352,1.086,8.05,-34.842,13.16,
39684230,0.452,-0.027,1.104,-59.587,26.302,33.022,
39684230,-0.002,-0.196,1.102,-99.085,53.935,25.41,
39684250,-0.377,-0.54,0.985,-107.205,56.962,6.142,
39684250,-0.359,-0.382,0.963,-106.12,44.24,-8.225,
39684260,-0.333,-0.408,0.873,-101.535,27.037,-13.055,
39684270,-0.305,-0.42,0.767,-74.06,14.577,-18.9,
39684280,-0.19,-0.672,0.721,-43.102,3.15,-15.61,
39684290,-0.154,-0.522,0.747,-9.45,-6.125,-11.585,
39684300,-0.16,-0.47,0.806,20.51,-13.737,-6.195,
39684310,-0.125,-0.348,0.932,43.155,-19.635,-3.097,
39684320,-0.118,-0.224,1.006,46.375,-23.957,-2.73,
39684330,-0.09,-0.218,1.011,38.535,-25.655,-1.54,
39684340,-0.02,-0.212,1.016,28.577,-25.305,-1.732,
39684350,0.032,-0.19,1.033,15.015,-21.507,0.927,
39684360,0.048,-0.18,1.039,-3.517,-16.117,6.422,
39684370,0.041,-0.196,1.036,-23.59,-9.292,12.407,
39684380,0.027,-0.189,1.046,-43.19,-3.885,18.34,
39684390,0.016,-0.205,1.05,-63.945,2.135,24.097,
39684400,-0.031,-0.186,1.08,-84.087,6.527,28.98,
39684410,0.024,-0.227,1.082,-105.787,8.312,34.632,
39684420,0.051,-0.244,1.084,-130.252,11.165,39.13,
39684430,0.097,-0.274,1.109,-157.027,17.692,45.01,
39684440,0.117,-0.266,1.128,-187.81,23.887,50.627,
39684450,0.174,-0.277,1.098,-215.722,30.957,55.125,
39684460,0.091,-0.364,1.028,-229.022,45.622,58.432,
39684470,0.021,-0.383,1.01,-234.867,59.587,58.275,
39684480,-0.069,-0.554,0.972,-248.097,65.817,49.945,
39684490,0.077,-0.539,1.187,-251.387,69.79,47.355,
39684500,0.211,-0.592,1.297,-248.027,75.81,63.647,
39684510,0.3,-0.854,1.177,-228.27,78.12,97.265,
39684510,0.202,-1.661,0.827,-188.79,60.322,114.17,
39684530,1.745,-1.863,1.824,-132.177,-6.09,56.472,
39684530,1.998,-1.971,1.671,-19.46,-17.272,-6.44,
39684550,1.479,-0.972,0.623,176.137,14,-96.495,
39684550,-0.531,-0.131,-0.243,175.857,-73.937,-246.977,
39684570,-0.689,0.533,-1.425,170.817,-83.965,-296.047,
39684570,-1.055,0.786,-0.888,86.957,-81.287,-250.32,
39684580,-1.771,-0.337,-0.213,-32.27,-43.61,-151.147,
39684590,-1.591,-0.56,-0.373,-23.24,-55.65,-15.89,
39684600,-0.877,0.251,-0.619,42.087,-102.62,119.577,
39684610,-0.022,-0.287,-0.741,7.367,-109.672,224.717,
39684620,0.252,-0.267,-0.501,-21.402,-81.637,251.947,
39684630,-0.064,-1.713,1.886,-12.495,68.162,283.5,
39684640,-1.998,-1.998,0.333,196.647,332.202,330.435,
39684650,-1.998,-1.901,0.371,337.47,43.592,223.632,
39684660,-1.139,0.841,1.12,326.532,-139.212,169.05,
39684670,-0.618,0.589,1.284,321.527,-178.15,119.822,
39684680,-1.354,-0.574,0.975,373.747,-170.625,-4.655,
39684690,-0.885,-0.209,1.413,384.615,-185.447,-105.367,
39684700,0.655,-0.132,1.588,336.962,-225.47,-120.68,
39684710,1.863,1.542,1.243,182.77,-177.677,-40.39,
39684720,0.885,0.559,1.088,26.022,-55.44,29.137,
39684730,0.327,0.071,1.058,-34.142,15.347,33.075,
39684740,0.265,-0.155,1.049,-63.052,42.945,27.3,
39684750,-0.04,-0.389,1.009,-79.205,56.612,28.525,
39684760,-0.27,-0.324,0.999,-85.242,56.402,24.92,
39684770,-0.341,-0.499,0.836,-81.97,46.847,17.832,
39684780,-0.308,-0.714,0.713,-50.47,30.817,11.182,
39684790,-0.257,-0.538,0.787,-4.97,15.155,10.675,
39684800,-0.324,-0.458,0.859,23.712,1.54,8.697,
39684810,-0.298,-0.189,0.981,40.372,-8.54,-0.052,
39684820,-0.136,-0.162,1.011,35.647,-13.142,-8.172,
39684830,0.064,-0.083,1.027,24.412,-9.642,-14.682,
39684840,0.061,-0.167,0.994,9.73,-1.785,-9.922,
39684850,-0.028,-0.185,0.981,-0.367,5.792,-2.747,
39684860,-0.116,-0.211,0.971,-7.735,8.82,2.047,
39684870,-0.218,-0.265,0.946,-11.497,8.435,3.307,
39684880,-0.237,-0.281,0.94,-9.38,2.852,0.35,
39684890,-0.213,-0.289,0.937,-4.375,-3.762,-4.06,
39684900,-0.165,-0.283,0.945,0.455,-9.625,-7.297,
39684910,-0.122,-0.268,0.95,3.255,-12.862,-8.645,
39684920,-0.129,-0.27,0.95,4.655,-14.822,-8.4,
39684920,-0.101,-0.266,0.959,5.81,-16.03,-8.295,
39684940,-0.085,-0.245,0.965,5.6,-16.257,-8.487,
39684940,-0.078,-0.239,0.966,3.587,-15.155,-7.84,
39684960,-0.099,-0.25,0.964,1.33,-14.227,-7.35,
39684960,-0.103,-0.252,0.963,-0.175,-14.332,-7.28,
39684980,-0.101,-0.256,0.964,-1.627,-15.33,-6.632,
39684980,-0.09,-0.245,0.973,-3.657,-16.415,-6.562,
39685000,-0.05,-0.245,0.979,-7.175,-16.485,-6.807,
39685000,0,-0.23,0.987,-12.81,-14.297,-6.65,
39685010,0.047,-0.19,1.019,-22.68,-9.082,-4.48,
39685020,0.144,0.053,1.108,-40.127,1.417,-0.647,
39685030,-0.317,-0.245,1.05,-72.677,24.097,-4.27,
39685040,-0.5,-0.178,1.075,-99.575,37.012,-17.43,
39685050,0.187,-0.228,1.213,-129.675,35.087,-35.035,
39685060,-0.063,-0.246,1.193,-165.427,29.015,-41.79,
39685070,0.095,-0.219,1.178,-198.922,30.765,-39.357,
39685080,-0.031,-0.381,1.192,-225.68,38.22,-28.262,
39685090,0.164,-0.499,1.171,-224.472,43.89,-19.88,
39685100,0.323,-0.657,1.107,-192.71,78.872,-5.145,
39685110,-0.022,-0.722,1.208,-136.325,125.755,22.137,
39685120,0.02,-1.219,1.583,-66.062,153.142,41.405,
39685130,-0.361,-1.027,0.926,54.915,140.297,55.055,
39685140,-1.289,0.04,0.102,125.282,72.012,76.825,
39685150,0.807,0.915,0.077,126.962,34.562,133.945,
39685160,0.922,0.134,-0.124,68.95,6.475,232.435,
39685170,1.025,-0.238,-0.605,41.737,-22.925,252.105,
39685180,1.303,0.251,-1.134,67.182,-47.6,213.85,
39685190,1.153,0.31,-0.936,24.972,-39.585,184.537,
39685200,0.643,-0.716,0.697,-51.712,69.912,205.712,
39685210,-1.998,-1.998,-0.081,-51.922,-234.045,201.705,
39685220,-1.256,-0.408,0.508,290.482,-298.935,326.042,
39685230,0.286,1.487,1.876,274.872,-300.422,252.262,
39685240,-1.076,-0.408,1.534,173.145,-263.585,3.517,
39685250,1.998,1.678,1.088,108.237,-228.9,-83.335,
39685260,0.121,-0.647,1.015,-20.667,-61.81,-35.997,
39685260,1.08,-0.134,1.004,-2.03,-8.015,-25.672,
39685280,0.215,-0.547,1.011,-20.807,42.017,0.7,
39685280,-0.557,-0.07,0.953,-9.397,60.007,-1.487,
39685300,-0.646,-0.586,0.897,-13.842,39.497,0.437,
39685300,-0.463,-0.315,0.922,-0.892,12.232,-0.56,
39685320,-0.191,-0.251,0.967,1.225,-7.175,-3.99,
39685320,-0.124,-0.249,0.961,2.31,-11.112,-3.832,
39685330,-0.194,-0.252,0.953,-3.237,-12.652,2.975,
39685340,-0.032,-0.163,0.982,-3.552,-14.647,4.077,
39685350,-0.119,-0.26,0.961,-4.83,-12.967,3.85,
39685360,-0.184,-0.294,0.942,-3.64,-14.437,5.215,
39685370,-0.146,-0.223,0.958,-1.207,-18.567,5.372,
39685380,-0.002,-0.17,0.975,-0.857,-19.092,4.2,
39685390,0.018,-0.247,0.958,-4.585,-13.457,6.475,
39685400,0.017,-0.245,0.959,-5.81,-6.895,9.31,
39685410,0.006,-0.202,0.969,-8.137,-0.175,11.497,
39685420,-0.106,-0.197,0.963,-9.975,4.305,10.972,
39685430,-0.212,-0.265,0.941,-7.805,3.57,5.827,
39685440,-0.154,-0.282,0.947,-2.082,-1.277,-0.717,
39685450,-0.101,-0.25,0.955,2.397,-3.115,-5.565,
39685460,-0.084,-0.223,0.963,4.847,-3.78,-7.84,
39685470,-0.083,-0.213,0.964,5.617,-3.36,-9.467,
39685480,-0.019,-0.21,0.971,6.125,-1.575,-11.865,
39685490,0.029,-0.193,0.977,5.425,3.552,-13.405,
39685500,-0.008,-0.225,0.974,3.587,9.817,-12.88,
39685510,-0.052,-0.252,0.965,1.732,15.785,-11.27,
39685520,-0.096,-0.243,0.963,0.595,18.812,-9.555,
39685530,-0.152,-0.266,0.953,-1.085,19.565,-7.105,
39685540,-0.168,-0.244,0.952,-2.012,16.782,-5.6,
39685550,-0.187,-0.223,0.958,-4.077,14,-3.465,
39685560,-0.195,-0.234,0.955,-6.51,9.817,-2.765,
39685570,-0.169,-0.208,0.962,-9.765,6.702,-2.66,
39685580,-0.147,-0.198,0.971,-15.907,4.69,-1.487,
39685590,-0.134,-0.193,0.982,-24.447,5.337,-1.312,
39685600,-0.089,-0.167,1.022,-38.29,7.472,-2.222,
39685610,0.009,-0.12,1.117,-60.077,15.837,-2.047,
39685620,0.057,-0.079,1.304,-93.625,31.57,-1.102,
39685630,-0.311,-0.248,1.397,-139.002,45.325,-3.727,
39685640,-0.462,-0.31,1.45,-185.832,31.92,-11.27,
39685650,-0.289,-0.432,1.281,-225.645,10.535,-24.972,
39685660,-0.366,-0.779,1.346,-227.517,21.017,-41.3,
39685670,-0.426,-0.942,1.387,-184.572,33.197,-49.63,
39685670,-0.566,-1.621,1.28,-114.257,61.46,-39.602,
39685690,-1.914,-1.998,0.617,-66.815,61.477,-3.22,
39685690,-0.864,-1.2,-0.337,18.217,-43.417,-17.342,
39685710,0.337,0.169,-0.067,42.245,-27.055,-20.317,
39685710,-0.584,-0.533,0.121,-37.852,15.26,19.95,
39685730,-0.372,-0.349,0.051,-34.755,16.257,35.682,
39685730,0.014,0.564,-0.494,19.11,1.645,42.595,
39685750,0.139,1.011,-0.631,-4.497,23.782,72.24,
39685750,0.24,0.805,-0.605,-50.137,57.855,126.262,
39685760,0.317,0.709,-0.462,-59.22,80.01,165.795,
39685770,0.462,0.787,-0.459,-60.305,84.385,174.002,
39685780,0.784,0.845,-0.724,-50.242,90.002,186.392,
39685790,-0.271,-0.16,0.007,-62.615,95.375,197.557,
39685800,0.291,-1.998,1.724,-73.797,-193.095,69.492,
39685810,-0.449,-0.908,-0.349,418.81,-282.1,44.082,
39685820,0.171,1.938,1.962,450.922,-262.535,107.205,
39685830,-1.591,-1.174,1.633,277.742,-266.525,108.587,
39685840,0.882,1.59,1.599,236.582,-252.91,-26.25,
39685850,1.17,0.137,1.129,53.147,-138.11,-58.152,
39685860,1.394,0.023,1.011,-5.792,-22.137,-22.4,
39685870,0.282,-0.443,0.992,-50.75,45.412,19.862,
39685880,-0.16,-0.277,1.002,-63.962,62.615,34.615,
39685890,-0.53,-0.341,0.962,-73.395,55.807,30.415,
39685900,-0.547,-0.319,0.943,-65.555,36.942,10.587,
39685910,-0.379,-0.425,0.862,-47.355,16.975,-9.607,
39685920,-0.125,-0.55,0.827,-23.502,0.717,-13.195,
39685930,-0.162,-0.54,0.828,-0.367,-10.29,0.84,
39685940,-0.18,-0.336,0.921,18.76,-19.897,11.392,
39685950,-0.164,-0.11,1.018,24.36,-23.747,11.305,
39685960,-0.102,-0.114,1.021,14.507,-22.417,2.87,
39685970,0.033,-0.192,0.995,2.047,-17.745,-3.43,
39685980,0.039,-0.208,0.992,-7.98,-12.53,1.575,
39685990,-0.074,-0.235,0.974,-16.327,-8.155,9.187,
39686000,-0.143,-0.292,0.944,-19.337,-8.067,10.955,
39686010,-0.076,-0.31,0.934,-16.852,-8.487,6.965,
39686010,-0.074,-0.294,0.933,-13.65,-7.052,3.465,
39686030,-0.109,-0.32,0.921,-9.905,-5.582,1.382,
39686030,-0.12,-0.323,0.923,-4.165,-5.67,-1.785,
39686050,-0.138,-0.306,0.927,1.785,-6.107,-6.405,
39686050,-0.146,-0.305,0.93,7.857,-7.805,-11.462,
39686070,-0.115,-0.308,0.938,13.475,-9.187,-16.887,
39686070,-0.054,-0.264,0.968,15.785,-9.73,-20.23,
39686080,0.004,-0.231,0.985,11.2,-7.542,-19.302,
39686090,0.039,-0.227,0.99,2.082,-2.712,-14.875,
39686100,0.009,-0.213,1.006,-9.607,4.13,-9.31,
39686110,-0.049,-0.195,1.045,-23.24,10.745,-8.19,
39686120,-0.058,-0.14,1.097,-41.79,15.925,-11.952,
39686130,-0.062,-0.132,1.127,-70.21,23.24,-15.592,
39686140,-0.073,-0.335,1.118,-101.745,27.825,-18.252,
39686150,0.094,-0.152,1.146,-133.245,35.227,-20.072,
39686160,0.193,-0.227,1.11,-170.502,56.28,-20.125,
39686170,-0.093,-0.195,1.209,-204.522,84.962,-26.845,
39686180,0.011,-0.081,1.123,-220.08,87.097,-35.157,
39686190,0.066,-0.389,1.07,-233.537,97.002,-34.65,
39686200,0,-0.416,1.111,-221.235,113.627,-21.997,
39686210,0.201,-0.667,1.208,-215.775,137.812,-0.332,
39686220,0.005,-0.819,0.937,-188.965,150.447,23.152,
39686230,-0.278,-0.88,1.071,-161.455,145.915,39.602,
39686240,-0.277,-1.114,0.968,-108.745,148.4,54.81,
39686250,-0.741,-0.924,0.564,-24.255,110.162,42.665,
39686260,-0.639,-0.147,0.521,16.73,22.872,18.13,
39686270,0.189,-0.201,0.833,22.242,-16.782,15.242,
39686280,0.29,0.008,0.107,86.712,-42.77,45.955,
39686290,0.702,0.859,-0.569,132.545,-47.915,35.07,
39686300,0.857,0.868,-0.257,82.092,-34.422,4.235,
39686310,0.796,0.184,-0.075,43.557,-7.91,-18.602,
39686320,0.693,0.559,-0.291,80.832,5.687,-36.12,
39686330,1.401,0.168,0.011,95.34,58.047,-42.227,
39686340,-1.981,-1.998,0.221,90.195,-27.685,-10.08,
39686350,-1.661,-1.017,-0.94,409.36,-196.157,153.02,
39686360,1.488,1.028,1.941,293.107,-248.29,185.027,
39686370,-0.512,1.894,1.924,345.712,-190.155,150.307,
39686380,-1.921,-1.253,1.296,307.72,-210.892,11.41,
39686390,1.71,1.573,1.7,189.035,-255.132,-62.335,
39686400,0.361,0.151,1.071,45.325,-104.02,-70.402,
39686410,1.306,0.115,1.105,-12.495,-9.642,-14.962,
39686420,-0.131,-0.372,0.962,-54.162,47.18,6.667,
39686420,-0.166,-0.532,0.941,-55.002,48.982,5.215,
39686440,-0.343,-0.412,0.911,-43.61,39.2,3.132,
39686440,-0.521,-0.449,0.906,-34.632,24.115,-2.362,
39686460,-0.187,-0.22,0.977,-23.817,8.47,-13.825,
39686460,0.698,0.001,1.129,-25.252,4.095,-11.165,
39686480,-0.594,-0.517,0.837,-46.497,34.352,30.205,
39686480,-0.666,-0.227,0.92,-60.672,31.272,49.735,
39686500,-0.503,-0.234,0.876,-46.515,11.06,19.932,
39686500,-0.056,-0.389,0.893,-23.397,-0.472,-10.115,
39686510,0.053,-0.371,0.937,-14.07,0.07,-9.205,
39686520,-0.012,-0.232,0.983,-18.112,6.475,0.84,
39686530,-0.094,-0.276,0.977,-27.107,14.175,3.71,
39686540,-0.124,-0.31,0.94,-33.6,17.815,4.2,
39686550,-0.177,-0.354,0.912,-34.527,19.18,3.185,
39686560,-0.248,-0.339,0.884,-29.015,17.08,-0.262,
39686570,-0.281,-0.364,0.864,-19.425,11.882,-5.285,
39686580,-0.28,-0.388,0.856,-6.195,3.622,-10.465,
39686590,-0.272,-0.355,0.873,7.962,-4.62,-14.7,
39686600,-0.237,-0.353,0.882,20.177,-13.422,-16.205,
39686610,-0.265,-0.372,0.876,32.62,-20.842,-18.182,
39686620,-0.225,-0.334,0.919,43.242,-29.172,-19.53,
39686630,-0.167,-0.316,0.947,48.352,-34.195,-20.737,
39686640,-0.064,-0.312,0.972,47.88,-36.225,-22.032,
39686650,0.11,-0.214,1.021,40.197,-32.515,-19.425,
39686660,0.239,-0.133,1.044,20.597,-20.265,-10.535,
39686670,0.186,-0.177,1.035,-4.235,-1.102,2.327,
39686680,0.098,-0.175,1.051,-28.98,15.592,12.687,
39686690,0.039,-0.186,1.083,-54.092,30.45,18.532,
39686700,-0.014,-0.179,1.132,-82.075,42.07,21.63,
39686710,-0.068,-0.183,1.162,-116.76,51.59,25.445,
39686720,-0.072,-0.212,1.177,-151.532,57.347,29.295,
39686730,-0.079,-0.193,1.174,-184.835,60.9,30.502,
39686740,-0.075,-0.175,1.142,-213.99,65.59,24.587,
39686750,0.094,-0.161,1.191,-233.45,73.15,23.887,
39686760,0.171,-0.495,1.104,-245.892,94.377,33.407,
39686760,0.026,-0.527,1.173,-229.722,121.607,41.23,
39686780,0.251,-0.828,1.084,-230.457,153.842,52.482,
39686780,-0.012,-1.481,1.076,-209.492,155.785,84.682,
39686800,-0.173,-1.998,0.795,-181.527,125.632,95.322,
39686800,0.113,-1.585,0.657,-93.397,55.37,92.592,
39686820,0.509,-1.9,0.701,-34.755,-23.712,62.615,
39686820,1.431,-1.035,0.264,7.647,-121.695,-15.837,
39686830,0.8,-0.032,0.201,43.942,-94.43,-77.962,
39686840,-0.173,-0.361,0.482,14.35,-77.35,-115.692,
39686850,-0.12,-0.528,0.268,37.135,-66.605,-117.722,
39686860,0.348,0.2,-0.209,94.395,-64.715,-137.585,
39686870,0.601,0.818,-0.562,104.44,-33.792,-167.072,
39686880,0.308,0.771,-0.737,73.78,-8.277,-188.825,
39686890,-0.057,0.772,-0.803,50.365,-6.037,-202.79,
39686900,-0.125,0.939,-0.817,34.352,-5.075,-196.542,
39686910,0.459,0.126,-0.664,26.267,28.052,-149.852,
39686920,-1.971,-1.988,0.516,144.9,251.86,97.597,
39686930,0.607,-0.632,0.193,443.87,-110.32,314.93,
39686940,0.661,0.978,1.913,316.12,-149.712,294.822,
39686950,-1.998,1.342,1.514,413.927,-150.797,170.905,
39686960,-1.29,-0.549,1.695,328.37,-193.62,45.5,
39686970,0.418,1.164,1.507,245.122,-203.822,-55.755,
39686980,1.839,0.906,1.233,85.82,-132.912,-56.367,
39686990,1.028,0.193,1.085,-18.322,-6.37,-8.557,
39687000,-0.038,-0.287,1.027,-72.222,52.062,22.295,
39687010,-0.239,-0.445,0.953,-74.917,55.002,19.127,
39687020,-0.355,-0.368,0.956,-68.25,46.69,6.475,
39687030,-0.409,-0.339,0.958,-65.52,36.627,-5.46,
39687040,-0.111,-0.254,0.991,-63.525,26.145,-16.502,
39687050,-0.05,-0.351,0.898,-64.68,23.765,-11.27,
39687060,-0.107,-0.588,0.777,-56.122,17.447,-0.945,
39687070,-0.08,-0.454,0.819,-27.247,13.492,1.242,
39687080,-0.11,-0.345,0.91,-8.207,11.55,4.06,
39687090,-0.145,-0.273,0.953,-0.735,12.092,2.047,
39687100,-0.106,-0.261,0.983,-2.66,13.23,-2.327,
39687110,-0.007,-0.249,0.991,-10.99,16.887,-2.415,
39687120,-0.011,-0.277,0.971,-20.422,21.927,2.362,
39687130,-0.126,-0.312,0.94,-25.13,27.09,5.285,
39687140,-0.19,-0.286,0.935,-24.15,28.805,1.067,
39687150,-0.216,-0.335,0.903,-19.967,28.77,-7.49,
39687160,-0.236,-0.375,0.88,-10.99,25.9,-16.8,
39687170,-0.253,-0.361,0.875,0.752,21.665,-25.445,
39687170,-0.265,-0.358,0.862,14.35,15.662,-34.545,
39687180,-0.244,-0.378,0.874,28.595,8.697,-41.492,
39687190,-0.199,-0.354,0.903,39.025,0.752,-42.525,
39687200,-0.126,-0.309,0.957,41.195,-6.405,-35.752,
39687210,-0.079,-0.234,0.999,32.025,-9.082,-24.255,
39687220,-0.098,-0.207,1.018,15.802,-6.93,-14.56,
39687230,-0.087,-0.196,1.037,-3.01,-2.1,-9.887,
39687240,-0.086,-0.198,1.056,-24.062,5.565,-8.785,
39687250,-0.124,-0.186,1.078,-50.05,16.607,-10.71,
39687260,-0.113,-0.208,1.097,-80.027,30.31,-16.152,
39687270,0.056,-0.278,1.045,-112.822,50.05,-23.8,
39687280,-0.353,-0.314,1.22,-149.922,77.122,-36.82,
39687290,-0.014,-0.272,1.23,-176.68,83.107,-45.867,
39687300,-0.148,-0.369,1.153,-196.63,96.705,-45.255,
39687310,-0.235,-0.453,1.165,-206.29,109.69,-40.11,
39687320,0.157,-0.815,1.19,-204.942,115.097,-31.902,
39687330,-0.371,-1.417,1.201,-150.64,122.465,5.285,
39687340,-0.429,-1.984,1.613,-58.87,153.527,31.552,
39687350,-0.362,-1.841,-0.035,71.365,112.192,39.62,
39687360,-1.945,-1.519,-1.087,92.067,48.527,33.197,
39687370,-0.417,-0.762,-0.487,19.845,-58.012,53.462,
39687380,0.206,-1.195,-0.527,-48.597,-66.867,142.59,
39687390,-0.333,-1.251,-0.553,-79.887,-74.567,153.982,
39687400,0.196,-0.41,-0.389,-103.075,-96.477,130.445,
39687410,0.368,-0.113,-0.224,-136.535,-79.975,150.395,
39687420,0.363,0.077,-0.232,-154.98,-64.89,160.737,
39687430,0.609,0.735,-0.331,-149.1,-71.68,156.625,
39687440,0.639,1.065,-0.28,-159.337,-77.857,159.53,
39687450,-0.348,0.459,0.902,-173.477,-127.47,133.49,
39687460,0.737,-0.807,1.714,49.56,-318.185,92.715,
39687470,-0.317,-1.436,-0.033,430.692,-158.987,214.917,
39687480,-0.594,-0.771,1.165,372.68,-255.43,95.497,
39687490,0.167,0.539,1.564,364.28,-209.352,82.355,
39687500,-1.405,-0.261,1.397,350.332,-192.815,13.667,
39687510,0.079,0.263,1.576,294.21,-204.365,-36.382,
39687510,1.91,1.274,1.37,155.47,-151.042,-45.062,
39687530,1.113,0.375,1.13,14.945,-35.21,-21.245,
39687530,0.496,-0.025,1.092,-58.765,39.042,4.882,
39687550,-0.042,-0.331,1.029,-94.85,69.597,16.065,
39687550,-0.344,-0.399,0.956,-102.515,70.455,17.377,
39687570,-0.534,-0.514,0.886,-96.355,56.262,13.055,
39687570,-0.435,-0.399,0.88,-78.872,36.225,6.002,
39687580,-0.267,-0.441,0.83,-61.81,20.335,-2.45,
39687590,-0.19,-0.589,0.753,-40.985,7.262,0.245,
39687600,-0.169,-0.496,0.786,-12.407,-1.365,6.125,
39687610,-0.149,-0.343,0.92,10.71,-4.952,4.06,
39687620,-0.001,-0.198,1.022,15.12,-3.412,-2.292,
39687630,0.076,-0.178,1.053,2.292,5.425,-2.38,
39687640,-0.145,-0.242,1.016,-18.375,16.257,1.242,
39687650,-0.268,-0.272,0.969,-30.555,21.507,-6.352,
39687660,-0.252,-0.32,0.932,-32.165,20.037,-20.895,
39687670,-0.207,-0.334,0.901,-28.84,16.117,-28.927,
39687680,-0.217,-0.398,0.844,-22.015,11.357,-30.327,
39687690,-0.238,-0.45,0.825,-9.537,6.72,-30.345,
39687700,-0.233,-0.416,0.858,6.09,1.26,-33.88,
39687710,-0.159,-0.367,0.928,15.995,-2.205,-37.45,
39687720,-0.081,-0.277,0.984,13.79,-3.972,-35.962,
39687730,-0.138,-0.262,1.041,0.245,-2.38,-29.47,
39687740,-0.12,-0.244,1.055,-24.395,3.29,-33.197,
39687750,-0.399,-0.186,1.227,-65.047,16.257,-49.962,
39687760,-0.243,-0.183,1.244,-112.332,14.857,-68.057,
39687770,-0.184,-0.224,1.162,-166.46,12.827,-76.737,
39687780,-0.168,-0.229,1.089,-209.79,19.88,-85.4,
39687790,-0.046,-0.428,1.049,-243.372,41.352,-102.987,
39687800,-0.156,-0.431,1.018,-250.302,78.54,-127.12,
39687810,-0.41,-1.098,0.939,-277.935,128.205,-147.927,
39687820,-0.324,-1.93,0.568,-266.822,173.46,-159.687,
39687830,-0.024,-1.965,0.701,-193.55,194.127,-199.605,
39687830,-0.631,-1.411,0.536,-123.112,178.622,-219.047,
39687850,-1.101,-0.405,0.611,-76.16,89.757,-241.745,
39687850,-0.316,-0.513,0.633,-46.025,27.3,-207.725,
39687870,-0.95,-0.407,0.682,-32.462,-21.35,-148.19,
39687870,-1.858,0.258,0.852,-20.755,-27.51,-126.315,
39687890,-1.982,0.809,0.717,-18.095,-27.545,-68.127,
39687890,-1.566,1.325,0.447,9.695,-39.987,74.602,
39687910,-0.603,1.662,0.316,49.857,-28.682,206.202,
39687910,-0.071,1.618,0.119,84.49,-3.062,365.435,
39687920,0.982,0.791,0.113,110.302,33.915,432.88,
39687930,1.662,0.059,0.163,95.97,87.657,348.04,
39687940,1.453,-0.272,-0.165,65.782,108.605,181.562,
39687950,1.998,-1.922,0.958,43.61,76.877,-47.81,
39687960,-1.197,-1.998,-1.641,107.415,-87.167,-69.562,
39687970,-0.051,1.141,1.851,156.45,-38.29,-72.065,
39687980,0.034,1.696,1.7,277.392,-118.737,-87.272,
39687990,0.108,-1.12,1.447,314.965,-109.095,19.967,
39688000,-0.717,-0.456,1.285,380.45,-116.357,6.16,
39688010,-0.129,0.349,1.556,265.807,-134.19,13.965,
39688020,-0.112,0.294,1.442,190.225,-122.482,-1.277,
39688030,1.052,0.692,1.275,93.712,-86.555,-15.645,
39688040,0.55,0.098,1.112,7.822,-21.175,-4.952,
39688050,0.236,-0.05,1.102,-40.25,20.352,6.895,
39688060,-0.018,-0.197,1.044,-72.327,39.462,15.207,
39688070,-0.125,-0.332,0.992,-88.83,42.892,22.032,
39688080,-0.244,-0.323,0.976,-93.135,35.035,26.39,
39688090,-0.447,-0.327,0.881,-92.19,25.795,24.71,
39688100,-0.448,-0.476,0.768,-76.3,13.265,12.285,
39688110,-0.316,-0.595,0.767,-41.055,-1.697,8.557,
39688120,-0.13,-0.537,0.817,-14.122,-14.892,4.55,
39688130,-0.143,-0.394,0.823,1.4,-15.137,-0.577,
39688140,-0.082,-0.437,0.892,19.215,-16.257,-2.52,
39688150,-0.062,-0.24,0.979,23.73,-13.65,-1.697,
39688160,-0.133,-0.212,1.006,15.89,-9.485,-2.205,
39688170,-0.155,-0.214,1.018,6.352,-4.777,-8.995,
39688180,-0.072,-0.166,1.024,-5.197,-1.172,-18.935,
39688190,-0.015,-0.245,1.013,-18.9,4.497,-21.262,
39688200,-0.034,-0.284,1.008,-32.69,10.097,-19.845,
39688210,-0.078,-0.258,1.023,-48.09,14.717,-17.01,
39688220,-0.066,-0.25,1.05,-67.025,18.06,-14.822,
39688230,-0.106,-0.243,1.062,-90.037,20.877,-12.39,
39688240,-0.169,-0.296,1.066,-113.12,17.745,-7.595,
39688250,-0.259,-0.305,1.062,-136.5,12.53,-6.65,
39688260,-0.3,-0.316,1.059,-160.667,5.792,-12.495,
39688260,-0.26,-0.417,1.021,-189.42,3.237,-26.897,
39688280,-0.222,-0.215,1.015,-202.247,5.442,-46.252,
39688280,-0.263,-0.39,0.959,-227.832,13.667,-56.682,
39688300,-0.268,-0.478,0.983,-244.667,16.345,-69.72,
39688300,-0.244,-0.539,1.127,-258.02,27.755,-84.577,
39688320,-0.222,-0.877,1.215,-266.437,58.87,-99.295,
39688320,-0.153,-1.185,1.092,-242.322,90.002,-105.892,
39688330,-0.231,-1.22,0.859,-191.292,105.752,-104.772,
39688340,-0.346,-1.368,1.284,-135.782,119.402,-95.06,
39688350,-0.542,-1.165,1.113,-82.53,134.925,-61.792,
39688360,-0.256,0.032,1.194,1.312,109.48,-109.637,
39688370,-1.072,0.017,0.747,55.37,53.357,-173.932,
39688380,-1.33,0.903,0.678,67.235,43.155,-128.45,
39688390,-1.136,1.049,0.402,102.305,18.427,-18.217,
39688400,-0.3,1.067,-0.254,139.615,-10.482,104.58,
39688410,0.356,0.995,-0.266,147.857,-9.1,191.712,
39688420,0.877,0.165,-0.069,100.117,8.19,203.017,
39688430,1.155,-0.062,-0.173,80.797,20.667,142.852,
39688440,1.025,0.627,-0.499,84.21,8.33,81.095,
39688450,1.141,0.649,-0.63,37.782,-17.15,34.947,
39688460,0.76,-0.498,-0.144,-0.122,-18.025,-15.452,
39688470,-1.33,-1.998,-0.562,163.345,19.897,186.06,
39688480,0.681,-0.425,1.534,416.412,-129.15,288.557,
39688490,-0.094,1.997,1.583,312.497,-104.037,38.517,
39688500,-1.713,-0.458,1.448,321.002,-129.22,195.65,
39688510,-0.455,-0.806,1.408,359.222,-168.892,122.132,
39688520,-1.69,0.461,1.487,308.525,-149.94,-4.217,
39688530,0.861,0.73,1.545,214.217,-173.582,-65.17,
39688540,1.62,0.744,1.247,95.97,-111.51,-52.675,
39688550,0.761,0.103,1.104,-14.542,-11.357,-2.502,
39688560,0.023,-0.213,1.049,-62.825,33.425,17.885,
39688570,-0.178,-0.266,0.999,-74.865,42.665,12.32,
39688580,-0.315,-0.418,0.928,-75.547,39.217,5.232,
39688580,-0.373,-0.373,0.922,-67.585,29.715,-4.847,
39688600,-0.229,-0.373,0.903,-57.032,20.755,-18.69,
39688600,-0.074,-0.384,0.882,-46.095,16.257,-24.22,
39688620,-0.028,-0.417,0.876,-35.49,13.037,-10.815,
39688620,-0.106,-0.338,0.92,-29.61,12.337,-1.75,
39688640,-0.187,-0.265,0.981,-26.74,11.147,1.557,
39688640,-0.239,-0.251,1.003,-32.375,9.765,-2.467,
39688660,-0.184,-0.241,1.026,-43.855,7.297,-9.52,
39688660,-0.158,-0.256,1.054,-60.41,5.967,-12.25,
39688670,-0.206,-0.245,1.107,-83.632,6.702,-15.54,
39688680,-0.181,-0.174,1.141,-112.21,2.677,-19.845,
39688690,-0.228,-0.227,1.176,-144.655,-4.375,-23.835,
39688700,-0.166,-0.199,1.155,-179.567,-10.692,-28.892,
39688710,-0.225,-0.258,1.113,-213.587,-15.207,-31.587,
39688720,-0.293,-0.317,1.084,-234.447,-19.145,-41.317,
39688730,-0.412,-0.257,1.008,-248.307,-29.33,-50.61,
39688740,-0.428,-0.333,0.961,-278.652,-42.455,-65.082,
39688750,-0.523,-0.462,0.879,-296.922,-53.567,-83.667,
39688760,-0.403,-0.571,0.981,-305.357,-52.937,-104.142,
39688770,-0.171,-0.707,1.106,-312.095,-20.195,-116.497,
39688780,0.244,-0.799,1.069,-297.465,33.932,-117.67,
39688790,0.943,-1.363,1.408,-247.817,70.245,-103.81,
39688800,-1.326,-0.36,1.288,-181.947,131.547,-8.067,
39688810,-0.107,0.096,1.279,-128.17,47.74,-40.057,
39688820,0.373,-0.005,1.972,-59.01,2.45,23.327,
39688830,-1.348,0.371,1.529,36.295,40.95,98.035,
39688840,-0.148,1.603,0.652,188.842,-28.262,153.422,
39688850,0.812,0.744,0.866,213.675,-54.95,231.612,
39688860,0.907,0.21,1.03,259.07,-46.532,217.42,
39688870,0.641,0.697,0.217,292.25,-33.617,136.43,
39688880,0.434,1.342,-0.591,308.647,-31.36,84.822,
39688890,0.555,0.953,-0.361,235.025,-22.697,53.252,
39688900,0.245,0.108,-0.215,168.927,-7.315,30.1,
39688910,-0.026,0.128,-0.469,160.877,-2.887,12.495,
39688920,0.533,0.571,-0.983,140.525,6.86,9.712,
39688930,-0.151,-1.088,0.274,16.415,218.487,85.277,
39688940,-0.175,-1.918,-1.862,363.755,-62.895,309.89,
39688950,1.167,1.741,1.205,431.69,-180.005,47.46,
39688960,-1.984,1.847,1.988,315.245,-126.157,139.632,
39688970,-1.935,-1.327,1.295,292.407,-178.622,67.69,
39688980,1.284,1.644,1.547,190.522,-212.782,-49.997,
39688990,0.998,0.085,1.086,49.227,-111.055,-68.88,
39689000,1.504,-0.008,1.016,-8.085,-15.855,-29.102,
39689010,0.023,-0.507,0.917,-45.78,47.18,1.365,
39689010,-0.194,-0.208,0.988,-49.402,54.88,7.56,
39689030,-0.505,-0.485,0.914,-48.93,45.395,3.36,
39689030,-0.533,-0.532,0.876,-29.522,24.132,-8.12,
39689050,-0.172,-0.354,0.934,-6.632,3.745,-16.502,
39689050,-0.092,-0.213,0.982,-1.837,-3.255,-12.705,
39689070,-0.01,-0.182,0.971,-4.637,-2.24,-6.912,
39689070,-0.028,-0.202,0.994,-11.13,2.082,-3.062,
39689080,-0.01,-0.194,0.987,-21.157,6.457,-3.377,
39689090,-0.07,-0.179,1.01,-27.142,11.55,-2.38,
39689100,-0.07,-0.188,1.019,-34.912,15.067,-3.85,
39689110,-0.077,-0.165,1.042,-45.325,18.515,-5.95,
39689120,-0.124,-0.088,1.09,-61.145,21.28,-8.417,
39689130,-0.191,-0.302,1.056,-82.075,20.51,-9.94,
39689140,-0.084,-0.23,1.055,-102.375,13.912,-7.63,
39689150,-0.109,-0.238,1.055,-122.027,11.392,-4.305,
39689160,-0.191,-0.292,1.067,-140.717,8.645,-3.832,
39689170,-0.263,-0.193,1.099,-158.585,0.717,-5.46,
39689180,-0.307,-0.292,1.035,-177.817,-11.83,-9.537,
39689190,-0.319,-0.355,1.002,-195.282,-23.257,-16.712,
39689200,-0.376,-0.512,1.014,-210.14,-34.825,-28.507,
39689210,-0.551,-0.516,1.158,-212.677,-49.787,-48.02,
39689220,-0.658,-0.603,1.165,-214.865,-70.945,-65.992,
39689230,-0.345,-0.872,1.208,-207.55,-69.177,-88.917,
39689240,-0.221,-1.256,1.085,-175.665,-26.67,-102.497,
39689250,-0.588,-1.209,0.696,-126.612,4.847,-107.607,
39689260,-0.377,-1.161,0.605,-92.767,16.502,-108.237,
39689270,-1.397,-1.998,0.617,-60.707,87.675,-38.097,
39689280,-1.994,-0.861,-0.261,21.192,72.87,35.822,
39689290,-0.366,0.786,0.074,51.502,88.287,123.06,
39689300,0.721,0.596,-0.33,76.527,106.837,248.325,
39689310,1.326,0.643,-0.83,101.552,166.81,230.002,
39689320,1.123,1.289,-0.264,63.122,221.76,129.727,
39689330,0.46,0.872,-0.107,-0.752,226.975,62.562,
39689330,0.789,0.94,-0.216,3.22,210.7,55.79,
39689350,0.92,0.698,-0.581,23.922,195.755,80.01,
39689350,1.258,-1.227,1.702,-29.277,54.775,1.96,
39689370,-1.255,-1.998,-1.865,99.977,-54.845,-30.572,
39689370,-0.338,1.422,0.994,242.427,-98.997,50.715,
39689390,0.936,0.527,1.881,260.155,-165.305,96.827,
39689390,-1.631,-0.793,0.998,290.64,-135.572,26.565,
39689410,-0.318,0.109,1.419,270.322,-144.375,-28.56,
39689410,-0.056,0.21,1.334,203.315,-136.622,-63.892,
39689420,1.093,0.161,1.309,128.502,-111.79,-61.792,
39689430,0.605,0.098,1.12,43.33,-53.287,-24.657,
39689440,0.079,-0.248,0.99,-1.33,-14.787,7.455,
39689450,-0.237,-0.341,0.94,-7.595,-4.2,11.97,
39689460,-0.195,-0.272,0.956,-5.267,-5.162,1.417,
39689470,-0.058,-0.251,0.971,-6.352,-4.427,-5.967,
39689480,-0.019,-0.285,0.96,-13.282,-0.717,-4.672,
39689490,-0.073,-0.31,0.935,-16.66,3.762,-0.315,
39689500,-0.074,-0.245,0.968,-15.137,6.807,1.417,
39689510,-0.049,-0.192,1.006,-21.752,11.567,0.805,
39689520,-0.061,-0.143,1.036,-32.497,17.605,0.49,
39689530,-0.149,-0.162,1.025,-46.165,24.01,-1.54,
39689540,-0.139,-0.239,1.003,-58.852,25.375,-2.905,
39689550,-0.143,-0.287,0.983,-69.23,24.71,-0.945,
39689560,-0.15,-0.293,0.967,-77.857,22.382,2.905,
39689570,-0.174,-0.311,0.979,-84.577,19.267,8.872,
39689580,-0.128,-0.261,0.993,-93.362,13.44,15.05,
39689590,-0.194,-0.349,1.003,-102.48,9.415,22.645,
39689600,-0.217,-0.305,1.004,-113.085,2.257,27.475,
39689610,-0.255,-0.35,1.011,-126.035,-7.175,30.065,
39689620,-0.25,-0.388,0.983,-135.397,-20.895,29.137,
39689630,-0.198,-0.46,0.938,-139.895,-30.677,27.265,
39689640,-0.235,-0.437,0.986,-142.747,-32.252,22.522,
39689650,-0.302,-0.526,1.027,-149.292,-36.032,16.695,
39689660,-0.447,-0.523,1.041,-147.262,-46.06,10.815,
39689670,-0.388,-0.665,0.953,-137.83,-67.06,8.505,
39689680,-0.302,-0.921,0.889,-114.782,-84.175,5.88,
39689690,-0.524,-1.148,1.023,-90.457,-84.227,-2.555,
39689700,-0.417,-1.364,1.003,-52.167,-87.132,2.835,
39689710,-0.758,-1.989,0.88,-8.802,-62.51,77.665,
39689720,-1.861,-1.313,-1.136,107.17,-48.86,205.082,
39689730,-0.656,-0.002,-0.723,94.57,-6.09,256.2,
39689740,0.473,-1.082,0.067,-13.562,-5.53,261.695,
39689750,0.427,-1.04,0.044,-28.91,13.352,215.46,
39689760,0.178,0.026,-0.029,-26.6,10.43,139.772,
39689760,0.184,0,-0.068,-31.062,-1.242,93.817,
39689780,0.04,0.062,-0.289,-36.907,-0.665,60.13,
39689780,-0.043,0.603,-0.411,-29.452,10.062,40.442,
39689800,0.08,0.746,-0.607,-24.167,32.55,54.512,
39689800,-1.222,0.585,0.572,-33.162,3.045,64.732,
39689820,1.816,-1.8,0.902,16.31,-132.387,0.77,
39689820,-1.217,-0.272,0.455,270.742,-3.605,10.832,
39689830,-0.546,-0.011,1.435,280.157,-63.192,27.02,
39689840,0.854,0.207,1.607,326.27,-118.965,77.332,
39689850,-1.72,-0.222,1.426,291.445,-102.147,58.887,
39689860,-0.517,0.382,1.429,226.082,-128.695,5.687,
39689870,0.747,0.815,1.304,133.367,-106.557,-50.382,
39689880,1.026,0.197,1.115,36.907,-44.782,-53.515,
39689890,0.504,-0.238,0.997,-18.952,12.862,-21.157,
39689900,-0.145,-0.418,0.926,-33.652,36.907,1.54,
39689910,-0.401,-0.355,0.92,-22.61,33.88,2.257,
39689920,-0.385,-0.335,0.922,-12.197,21.315,-5.967,
39689930,-0.322,-0.329,0.916,-4.235,9.362,-12.74,
39689940,-0.187,-0.346,0.928,4.27,-2.292,-12.565,
39689950,-0.133,-0.271,0.956,8.627,-8.26,-7.367,
39689960,-0.133,-0.222,0.968,6.947,-9.765,-4.112,
39689970,-0.007,-0.196,0.981,4.69,-7.682,-6.44,
39689980,0.088,-0.184,0.991,-2.66,-1.032,-4.515,
39689990,0.031,-0.174,0.993,-12.81,9.905,1.575,
39690000,-0.014,-0.158,1.007,-23.38,19.25,5.057,
39690010,-0.054,-0.133,1.025,-35.682,29.155,4.515,
39690020,-0.106,-0.18,1.022,-48.44,37.502,0.665,
39690030,-0.177,-0.222,1.02,-61.53,44.345,-4.287,
39690040,-0.162,-0.373,1.009,-74.112,46.812,-8.54,
39690050,-0.006,-0.307,1.102,-88.41,50.767,-8.242,
39690060,0.066,-0.32,1.144,-106.82,62.79,-6.09,
39690070,-0.046,-0.362,1.21,-121.397,76.387,-5.67,
39690080,-0.261,-0.428,1.186,-133.42,80.325,-7.192,
39690080,-0.171,-0.661,1.175,-132.527,76.317,-12.127,
39690100,-0.352,-1.242,1.225,-106.785,84.175,-17.36,
39690100,-0.346,-1.915,1.451,-53.847,119.507,-34.387,
39690120,-0.213,-1.585,1.544,36.067,106.225,-71.207,
39690120,0.491,-1.844,-0.244,88.41,-32.83,-104.825,
39690140,1.006,-1.998,-0.922,92.47,-50.977,-153.562,
39690140,-1.644,-1.225,-0.939,75.005,-8.05,-184.625,
39690160,-1.998,-0.679,-0.774,12.04,-31.132,-131.827,
39690160,-1.583,-0.719,-0.636,-40.092,-75.757,4.795,
39690170,-0.93,-0.549,-0.774,-85.452,-90.72,136.745,
39690180,-0.326,0.149,-0.782,-126.997,-75.215,232.75,
39690190,0.479,0.538,-0.193,-195.615,-56.28,289.082,
39690200,0.343,0.7,0.716,-252.892,-74.252,294.367,
39690210,0.457,0.947,1.998,-265.422,-239.015,191.957,
39690220,1.102,1.997,0.589,238.892,-52.762,162.347,
39690230,-1.998,-0.939,0.979,252.7,17.605,48.107,
39690240,0.746,-1.086,0.779,320.215,-125.755,138.145,
39690250,-0.831,1.318,1.775,321.86,-130.725,63.017,
39690260,-1.645,-0.474,1.257,257.11,-147.332,12.495,
39690270,1.579,1.23,1.438,180.845,-167.825,-50.54,
39690280,1.133,0.395,1.107,63.157,-81.41,-51.642,
39690290,0.733,0.128,1.069,-3.535,0.507,-19.617,
39690300,0.205,-0.179,1.007,-37.31,46.462,-12.145,
39690310,0.003,-0.296,0.98,-51.94,64.697,-8.452,
39690320,-0.341,-0.432,0.936,-60.515,65.24,3.972,
39690330,-0.522,-0.349,0.922,-59.622,52.815,8.54,
39690340,-0.304,-0.395,0.924,-52.447,35,4.515,
39690350,-0.305,-0.361,0.927,-47.057,23.047,6.597,
39690360,-0.238,-0.267,0.969,-42.472,13.387,7.612,
39690370,-0.126,-0.183,1.048,-49.157,9.31,6.982,
39690380,-0.15,-0.175,1.09,-66.937,9.485,8.05,
39690390,-0.148,-0.15,1.117,-89.407,11.217,6.282,
39690400,-0.09,-0.23,1.105,-116.812,12.967,1.802,
39690410,0.011,-0.249,1.08,-136.657,18.322,-2.467,
39690420,0.083,-0.365,1.057,-151.357,28.14,-5.267,
39690430,0.124,-0.351,0.981,-155.295,42.577,-5.705,
39690440,0.142,-0.4,0.948,-142.922,60.952,1.627,
39690450,0.088,-0.474,0.884,-129.535,81.97,8.96,
39690460,0.003,-0.493,0.868,-114.415,102.042,18.76,
39690470,-0.068,-0.535,0.802,-95.812,117.53,30.117,
39690480,-0.289,-0.606,0.653,-74.55,122.675,36.557,
39690490,-0.435,-0.548,0.567,-57.295,116.48,36.12,
39690500,-0.353,-0.618,0.547,-41.79,102.567,35.175,
39690500,-0.438,-0.654,0.546,-23.432,87.202,27.125,
39690510,-0.52,-0.5,0.535,-1.225,74.602,16.695,
39690520,-0.534,-0.409,0.568,15.155,61.337,6.72,
39690530,-0.638,-0.467,0.611,27.79,46.182,-7.98,
39690540,-0.667,-0.509,0.665,40.6,27.177,-23.572,
39690550,-0.684,-0.469,0.738,47.757,5.425,-38.955,
39690560,-0.629,-0.408,0.858,45.587,-12.232,-53.637,
39690570,-0.528,-0.36,0.941,37.17,-17.797,-68.04,
39690580,-0.537,-0.315,0.96,23.747,-16.975,-82.652,
39690590,-0.573,-0.279,0.999,5.022,-16.59,-96.74,
39690600,-0.495,-0.306,1.038,-18.025,-16.012,-104.387,
39690610,-0.36,-0.422,1.018,-37.747,-10.517,-106.26,
39690620,-0.261,-0.496,0.998,-46.777,-3.937,-105.577,
39690630,-0.169,-0.406,1.041,-47.565,6.912,-101.64,
39690640,-0.083,-0.393,1.012,-52.045,19.145,-96.39,
39690650,-0.189,-0.523,0.934,-59.465,43.487,-92.277,
39690660,-0.491,-0.501,1.138,-55.895,59.272,-87.64,
39690670,0.1,-0.305,1.583,-31.885,54.022,-88.725,
39690680,-0.932,-0.18,1.11,15.487,45.097,-98.682,
39690690,-0.944,0.074,1.017,27.44,8.575,-104.055,
39690700,-0.432,-0.222,0.983,41.037,-2.555,-73.587,
39690710,-0.298,-0.139,0.645,70.315,10.115,-55.002,
39690720,-0.331,-0.16,0.607,76.44,22.592,-47.565,
39690730,-0.171,-0.335,0.705,65.135,35.49,-46.9,
39690740,-0.242,-0.58,0.847,53.812,43.925,-50.645,
39690750,-0.376,-0.687,1.026,52.832,38.955,-58.537,
39690760,-0.137,-0.788,0.943,61.337,19.407,-66.832,
39690770,0.004,-0.722,0.685,73.15,1.802,-77.07,
39690780,-0.006,-0.556,0.324,68.285,-17.22,-93.205,
39690790,0.086,-0.344,0.089,49.525,-28.717,-101.78,
39690800,-0.031,-0.232,-0.056,21.595,-41.685,-103.145,
39690810,-0.022,-0.099,-0.16,-10.657,-57.715,-100.345,
39690820,0.303,-0.249,-0.194,-46.287,-50.995,-79.765,
39690830,0.95,-0.583,0.014,-87.902,11.725,-28.332,
39690830,-0.179,-0.773,0.061,-106.522,50.33,36.82,
39690850,0.082,-0.71,0.072,-91.945,16.432,40.25,
39690850,0.336,-1.054,0.009,-91.315,0.507,58.135,
39690870,0.269,-1.288,1.252,-74.462,-37.065,31.902,
39690870,1.249,-1.994,0.364,56.945,20.16,70.525,
39690890,-0.537,-0.408,-0.753,222.285,-8.627,81.917,
39690890,-1.615,0.267,1.13,161.297,-26.092,87.5,
39690910,0.148,-0.659,0.983,216.65,-63.822,152.915,
39690910,-0.426,-0.142,1.046,283.01,-93.327,123.252,
39690920,-0.752,-0.75,1.018,298.06,-106.4,92.575,
39690930,-0.938,-0.015,1.373,300.16,-118.772,38.517,
39690940,-0.95,-0.264,1.425,264.792,-146.842,-16.905,
39690950,1.084,1.018,1.343,182.14,-148.645,-42.07,
39690960,1.186,0.52,1.108,64.102,-75.757,-28.035,
39690970,0.438,0.008,1.032,-4.27,-1.032,-7.262,
39690980,0,-0.386,0.953,-24.43,27.51,-5.477,
39690990,-0.144,-0.396,0.932,-17.552,31.202,-13.335,
39691000,-0.182,-0.343,0.938,-8.382,27.842,-14.472,
39691010,-0.226,-0.3,0.943,-3.325,22.732,-12.81,
39691020,-0.183,-0.269,0.954,-0.122,15.68,-12.512,
39691030,-0.131,-0.207,0.97,-0.332,11.48,-9.537,
39691040,-0.18,-0.235,0.964,-2.852,9.065,-7.122,
39691050,-0.162,-0.173,0.983,-4.69,6.807,-8.855,
39691060,-0.16,-0.135,0.999,-10.99,6.177,-13.947,
39691070,-0.18,-0.179,1.009,-19.565,6.912,-19.652,
39691080,-0.167,-0.131,1.035,-28.21,6.947,-27.352,
39691090,-0.233,-0.04,1.109,-42.21,10.482,-39.41,
39691100,-0.204,-0.082,1.168,-71.487,14.21,-56.35,
39691110,-0.192,-0.422,1.076,-113.032,21.28,-77.91,
39691120,-0.366,-0.598,1.128,-152.285,45.36,-106.645,
39691130,-0.159,-0.293,1.164,-183.505,46.2,-138.355,
39691140,-0.033,-0.233,1.179,-191.712,45.5,-155.05,
39691150,0.254,-0.254,1.12,-196.647,61.04,-159.355,
39691160,0.356,-0.447,1.098,-201.722,91.682,-161.297,
39691170,0.352,-1.093,0.6,-186.97,151.795,-153.492,
39691170,0.311,-1.87,0.378,-132.79,237.002,-151.55,
39691190,0.222,-1.998,0.784,-68.005,259.84,-180.617,
39691190,1.701,-1.998,1.054,30.292,192.552,-242.935,
39691210,-0.649,-1.727,-0.549,102.007,56.91,-354.165,
39691210,-1.997,-0.987,-0.866,58.712,23.712,-368.882,
39691230,-1.998,-0.862,-0.583,-15.61,30.992,-231.437,
39691230,-1.654,-0.827,-0.39,-67.795,15.54,-88.655,
39691250,-1.068,-0.21,-0.58,-85.505,19.477,20.317,
39691250,-0.45,0.358,-0.371,-108.08,60.392,98.21,
39691260,0.031,0.513,-0.322,-135.59,110.617,143.605,
39691270,0.576,1.331,-0.25,-119.455,144.76,135.292,
39691280,0.691,1.881,-0.155,-92.82,163.012,96.11,
39691290,0.75,0.722,1.711,-36.225,106.802,32.55,
39691300,0.527,-1.396,0.272,325.745,-45.85,70.035,
39691310,-1.997,-1.937,0.213,496.65,-112.735,-3.57,
39691320,1.299,0.448,1.742,391.125,-208.127,89.512,
39691330,-0.839,0.753,1.433,373.135,-164.255,48.527,
39691340,-1.239,-0.597,1.565,323.435,-165.865,11.287,
39691350,0.209,1.015,1.519,243.757,-184.415,-32.41,
39691360,1.573,0.971,1.239,106.365,-125.037,-42.49,
39691370,0.771,0.212,1.062,2.397,-28.98,-25.112,
39691380,0.107,-0.317,0.982,-40.547,18.287,-2.065,
39691390,-0.17,-0.433,0.934,-41.265,26.355,2.152,
39691400,-0.326,-0.295,0.956,-31.325,20.86,-0.612,
39691410,-0.293,-0.304,0.951,-28.367,12.6,-8.085,
39691420,-0.171,-0.319,0.95,-23.922,3.255,-13.545,
39691430,-0.16,-0.427,0.874,-16.73,-4.077,-10.272,
39691440,-0.146,-0.541,0.826,0.297,-13.37,-3.78,
39691450,-0.185,-0.369,0.916,26.18,-21.052,1.102,
39691460,-0.191,-0.127,1.013,35.192,-25.952,1.802,
39691470,-0.095,-0.071,1.011,25.69,-25.55,-2.642,
39691480,0.033,-0.158,0.98,13.842,-22.732,-5.022,
39691490,-0.005,-0.181,0.977,5.687,-16.17,-2.327,
39691500,-0.018,-0.189,0.976,0.35,-11.217,-0.192,
39691510,-0.011,-0.214,0.963,-3.867,-6.177,-2.012,
39691520,0.052,-0.216,0.966,-5.372,-0.997,-3.727,
39691530,0.039,-0.194,0.969,-8.907,6.842,-3.815,
39691540,-0.015,-0.211,0.975,-13.65,13.807,-2.765,
39691550,-0.08,-0.198,0.989,-18.76,19.075,-2.765,
39691560,-0.106,-0.152,1.026,-27.055,20.912,-3.29,
39691570,-0.162,-0.084,1.086,-41.282,23.03,-4.602,
39691580,-0.33,0.051,1.194,-63.507,21.752,-12.18,
39691580,-0.445,-0.03,1.199,-95.13,16.1,-29.085,
39691600,-0.463,-0.443,1.184,-134.575,1.47,-47.81,
39691600,-0.503,-0.164,1.188,-170.502,-1.33,-71.102,
39691620,-0.392,-0.183,1.116,-200.357,-23.292,-88.025,
39691620,0.01,-0.271,0.947,-224.052,-35.997,-92.767,
39691640,0.036,-0.435,0.94,-239.785,-16.52,-86.59,
39691640,-0.166,-0.779,0.847,-243.285,6.982,-86.047,
39691660,0.026,-0.607,1.003,-208.022,33.32,-92.627,
39691660,0.702,-0.594,1.04,-185.307,88.917,-95.83,
39691670,0.616,-0.677,0.928,-165.55,158.55,-92.312,
39691680,0.429,-1.022,0.756,-123.655,196.42,-76.037,
39691690,0.065,-1.076,0.825,-75.915,168.805,-67.795,
39691700,-0.603,-0.952,0.442,-33.442,106.312,-17.552,
39691710,-0.38,-0.198,0.455,16.625,13.527,4.27,
39691720,0.292,-0.53,0.419,17.745,-42.035,18.637,
39691730,0.381,-0.777,0.256,26.32,-46.217,45.202,
39691740,0.108,-0.528,0.379,37.205,-39.497,26.547,
39691750,-0.238,-0.392,0.48,25.357,-21.07,14.875,
39691760,-0.357,-0.37,0.556,18.147,-3.36,22.575,
39691770,-0.239,-0.279,0.585,23.152,10.255,32.217,
39691780,-0.073,-0.236,0.549,29.417,20.807,35.892,
39691790,0.091,-0.227,0.709,29.487,39.847,29.855,
39691800,0.032,-0.331,0.902,23.782,63.07,20.282,
39691810,-0.208,-0.417,1.063,22.26,74.672,8.907,
39691820,-0.373,-0.455,1.079,21.437,69.615,-1.977,
39691830,-0.401,-0.383,1.01,20.422,51.555,-7.332,
39691840,-0.359,-0.324,1.05,11.445,37.817,-7.175,
39691850,-0.472,-0.375,1.115,-3.622,29.47,-4.69,
39691860,-0.509,-0.525,1.189,-11.795,17.185,-0.122,
39691870,-0.248,-0.511,1.228,-5.39,6.527,9.415,
39691880,0.413,-0.455,1.525,19.11,-3.972,1.435,
39691890,0.126,-0.635,1.305,38.045,6.895,-23.345,
39691900,-0.162,-0.663,1.033,53.305,12.932,-34.807,
39691910,-0.044,-0.537,0.846,63.21,11.742,-34.86,
39691920,0.146,-0.582,0.797,51.555,13.895,-23.94,
39691920,0.342,-0.661,0.821,33.25,23.66,-18.83,
39691940,0.468,-0.575,0.832,24.395,33.425,-19.705,
39691940,0.429,-0.479,0.89,14.717,30.065,-28.42,
39691960,0.383,-0.474,1.066,-6.195,16.677,-37.642,
39691960,0.401,-0.526,1.12,-21.875,2.292,-35,
39691980,0.448,-0.428,1.146,-22.33,-13.842,-26.075,
39691980,0.575,-0.47,1.212,-20.405,-28.402,-17.57,
39692000,0.575,-0.617,1.19,-13.947,-44.485,-13.807,
39692000,0.572,-0.566,1.147,3.78,-65.852,-18.41,
39692010,0.64,-0.454,0.931,22.715,-87.132,-21.227,
39692020,0.714,-0.335,0.485,34.212,-103.53,-24.762,
39692030,0.797,-0.218,0.15,28.997,-108.622,-36.995,
39692040,0.545,-0.3,-0.063,2.24,-104.142,-55.422,
39692050,0.175,-0.426,-0.098,-33.547,-97.615,-70.455,
39692060,0.041,-0.596,-0.027,-73.202,-74.637,-64.155,
39692070,-0.153,-0.793,-0.153,-103.722,-34.737,-33.057,
39692080,-0.462,-0.832,-0.276,-128.94,-4.742,-5.512,
39692090,-0.7,-0.761,-0.232,-159.442,-12.477,13.702,
39692100,-0.546,-0.588,-0.488,-191.38,-58.432,16.502,
39692110,-0.513,-0.269,-0.628,-188.65,-99.452,31.972,
39692120,-1.351,-0.929,1.453,-156.117,-97.807,87.5,
39692130,-1.998,-0.857,1.998,1.172,59.517,227.832,
39692140,-0.739,-0.395,1.946,220.937,70.577,278.442,
39692150,0.193,-1.594,-0.602,313.04,-41.492,234.675,
39692160,-1.92,-1.889,0.926,358.627,45.237,146.685,
39692170,-1.659,1.151,0.703,380.747,27.387,-34.527,
39692180,-1.064,-0.115,1.152,363.895,12.145,-114.012,
39692190,-0.676,-0.171,1.432,342.422,3.99,-172.672,
39692200,0.1,0.646,1.666,318.92,-51.52,-208.722,
39692210,1.761,0.173,1.549,242.077,-92.417,-139.545,
39692220,0.932,0.677,1.232,114.257,-33.512,-33.32,
39692230,-0.057,-0.021,1.093,8.89,20.352,40.967,
39692240,-0.247,-0.098,1.036,-22.225,32.952,32.41,
39692250,-0.134,-0.189,1.032,-40.88,34.597,10.92,
39692260,-0.083,-0.223,1.018,-54.915,36.19,2.345,
39692270,-0.099,-0.261,1.014,-67.462,37.467,5.862,
39692280,-0.13,-0.133,1.066,-78.207,36.487,9.712,
39692290,-0.246,-0.47,0.957,-87.08,35.21,7.385,
39692300,-0.163,-0.183,1.015,-98.28,28.927,5.442,
39692310,-0.079,-0.297,0.977,-113.68,29.732,10.692,
39692320,-0.164,-0.317,1.036,-130.2,34.212,5.582,
39692330,-0.051,-0.276,1.011,-136.36,35.035,1.645,
39692330,-0.022,-0.355,1.028,-148.715,40.74,8.61,
39692350,-0.046,-0.383,1.073,-155.802,46.987,14.735,
39692350,-0.143,-0.406,1.008,-157.115,49.507,22.382,
39692370,-0.294,-0.463,0.978,-153.615,48.177,34.457,
39692370,-0.37,-0.607,0.943,-152.495,33.775,38.342,
39692390,-0.074,-0.6,0.863,-134.977,18.62,43.907,
39692390,-0.1,-0.591,0.715,-114.555,16.572,68.477,
39692410,-0.118,-0.727,0.85,-110.862,25.305,84.542,
39692410,0.039,-0.663,0.724,-84.087,19.425,93.432,
39692420,0.147,-0.581,0.7,-71.767,-8.452,97.142,
39692430,-0.242,-0.858,0.705,-86.31,-19.81,91.595,
39692440,-0.384,-0.773,0.768,-88.952,-47.67,88.375,
39692450,0.553,-0.891,1.339,-113.75,-77.717,73.727,
39692460,0.131,-1.095,0.941,-107.642,-71.855,53.62,
39692470,0.089,-0.794,1.302,-103.372,-49.07,15.417,
39692480,-0.302,-1.187,1.589,-127.295,-49.717,-23.047,
39692490,-1.009,-1.239,1.533,-119.787,-78.925,-49.07,
39692500,-1.135,-0.876,1.43,-114.607,-122.22,-53.392,
39692510,-1.002,-1.038,1.362,-139.177,-145.057,-24.727,
39692520,-0.985,-1.252,1.3,-162.89,-151.76,14.052,
39692530,-0.842,-1.162,1.214,-177.397,-157.692,49.385,
39692540,-0.425,-1.165,1.129,-192.535,-158.69,79.187,
39692550,-0.028,-1.278,1.071,-199.22,-147.297,87.045,
39692560,0.197,-1.273,1.064,-197.767,-126.07,63.017,
39692570,0.186,-1.238,1.089,-192.43,-101.01,22.032,
39692580,-0.067,-1.242,1.052,-178.832,-84.735,-18.865,
39692590,-0.259,-1.087,0.904,-155.435,-84.017,-48.44,
39692600,-0.306,-0.894,0.683,-133.087,-91.227,-57.767,
39692610,-0.251,-0.796,0.47,-115.937,-91.542,-51.66,
39692620,-0.189,-0.736,0.33,-102.917,-80.605,-36.785,
39692630,-0.154,-0.717,0.261,-92.662,-61.11,-19.215,
39692640,-0.152,-0.718,0.235,-84.052,-43.995,-4.13,
39692650,-0.136,-0.675,0.216,-76.09,-34.177,5.53,
39692660,-0.16,-0.637,0.166,-70.84,-32.532,13.02,
39692670,-0.103,-0.598,0.093,-64.925,-35.21,19.092,
39692670,0.051,-0.543,0.035,-58.817,-31.5,26.145,
39692690,0.12,-0.506,0.049,-52.255,-17.15,31.64,
39692690,0.017,-0.46,0.039,-44.765,-6.72,35.262,
39692710,0.03,-0.392,0.025,-38.22,-5.967,37.677,
39692710,0.16,-0.334,0.03,-34.51,-8.855,39.795,
39692730,0.203,-0.328,0.044,-33.425,-7.087,39.97,
39692730,0.159,-0.288,0.022,-31.097,-6.072,36.715,
39692750,0.22,-0.218,0.012,-25.672,-6.335,30.397,
39692750,0.276,-0.198,0.021,-22.977,-4.69,23.327,
39692760,0.268,-0.193,0.044,-20.702,-1.575,12.057,
39692770,0.196,-0.173,0.082,-17.342,-0.402,0.49,
39692780,0.151,-0.16,0.132,-13.93,-2.835,-8.82,
39692790,0.173,-0.171,0.174,-11.165,-5.215,-15.225,
39692800,0.19,-0.183,0.217,-5.845,-5.39,-21.875,
39692810,0.175,-0.147,0.237,3.307,-5.127,-31.01,
39692820,0.102,-0.103,0.257,11.025,-7.105,-37.992,
39692830,0.126,-0.099,0.281,14.63,-10.727,-43.032,
39692840,0.052,-0.114,0.306,18.672,-15.4,-43.347,
39692850,-0.041,-0.133,0.315,23.432,-24.395,-39.917,
39692860,-0.02,-0.143,0.295,27.002,-38.062,-32.357,
39692870,0.041,-0.18,0.302,28.927,-48.912,-23.957,
39692880,0.099,-0.225,0.309,29.697,-55.65,-20.16,
39692890,0.207,-0.305,0.32,31.255,-52.972,-18.007,
39692900,0.277,-0.392,0.355,34.755,-43.977,-24.167,
39692910,0.143,-0.495,0.408,37.572,-36.907,-42.63,
39692920,0.001,-0.466,0.431,41.65,-41.51,-68.267,
39692930,0.011,-0.465,0.465,43.715,-44.887,-86.747,
39692940,0.012,-0.646,0.47,41.527,-33.372,-93.695,
39692950,-0.034,-0.785,0.474,41.16,-7.892,-97.09,
39692960,-0.086,-0.938,0.502,40.495,22.592,-96.6,
39692970,-0.179,-1.127,0.577,38.255,51.45,-92.522,
39692980,-0.246,-1.334,0.682,33.022,73.43,-84.857,
39692990,-0.143,-1.525,0.843,24.395,97.142,-70.455,
39693000,0.004,-1.736,1.021,9.047,123.042,-53.182,
39693010,0.028,-1.941,1.238,-6.335,152.967,-37.152,
39693020,-0.091,-1.998,1.29,-13.895,169.715,-24.22,
39693030,-0.064,-1.998,1.207,-17.727,169.032,-11.48,
39693040,0.095,-1.998,1.142,-29.942,164.657,1.417,
39693050,0.17,-1.998,1.14,-46.812,165.025,4.602,
39693060,0.147,-1.998,1.177,-54.022,162.225,-4.445,
39693070,0.141,-1.998,1.19,-54.005,154.647,-21.997,
39693080,0.166,-1.998,1.151,-49.315,140.665,-40.932,
39693080,0.165,-1.943,1.062,-43.137,122.552,-56.192,
39693100,0.234,-1.758,1.024,-42.017,109.427,-63.49,
39693100,0.224,-1.63,1.019,-46.812,101.972,-63.035,
39693120,0.222,-1.514,1.04,-51.52,98.052,-58.572,
39693120,0.174,-1.407,0.991,-51.415,89.39,-52.08,
39693140,0.188,-1.254,0.894,-48.615,71.977,-48.107,
39693140,0.255,-1.094,0.748,-44.94,51.117,-46.445,
39693160,0.324,-0.94,0.583,-40.775,36.015,-46.847,
39693160,0.237,-0.772,0.418,-35.875,26.005,-45.955,
39693170,0.122,-0.607,0.254,-33.11,13.51,-42.035,
39693180,0.099,-0.48,0.145,-35.542,-1.137,-34.317,
39693190,0.082,-0.428,0.068,-41.772,-14.35,-24.622,
39693200,0.074,-0.375,0.022,-46.725,-25.025,-14.91,
39693210,0.133,-0.306,-0.001,-49.052,-30.117,-2.45,
39693220,0.203,-0.279,-0.017,-49.035,-28.577,10.622,
39693230,0.216,-0.275,-0.046,-45.097,-25.41,17.85,
39693240,0.224,-0.228,-0.082,-37.555,-24.132,17.797,
39693250,0.223,-0.161,-0.082,-31.815,-24.465,13.632,
39693260,0.21,-0.124,-0.05,-27.545,-28.752,6.632,
39693270,0.172,-0.087,-0.051,-22.557,-38.57,-0.35,
39693280,0.207,-0.03,-0.045,-16.345,-47.757,-3.972,
39693290,0.12,0.008,-0.072,-11.427,-55.23,-2.1,
39693300,0.012,0.016,-0.081,-9.117,-65.94,2.082,
39693310,-0.008,0.032,-0.063,-10.395,-77.175,13.842,
39693320,-0.012,-0.027,-0.065,-15.137,-90.877,29.487,
39693330,0.053,-0.073,-0.083,-19.32,-107.082,41.37,
39693340,0.313,-0.081,-0.077,-23.257,-116.69,43.54,
39693350,0.281,-0.224,-0.031,-18.707,-109.112,44.905,
39693360,0.517,-0.286,0.199,25.357,-96.95,31.447,
39693370,0.334,-0.13,0.181,-13.667,-81.042,15.225,
39693380,0.192,-0.319,0.292,-24.762,-74.27,-1.592,
39693390,0.164,-0.353,0.431,-23.205,-72.082,-12.302,
39693400,0.194,-0.382,0.517,-33.827,-64.557,-4.847,
39693410,0.217,-0.487,0.621,-46.427,-54.232,1.452,
39693420,0.172,-0.623,0.701,-50.785,-49.35,-1.96,
39693420,0.179,-0.652,0.823,-45.237,-47.635,-15.26,
39693440,0.056,-0.69,0.91,-35.752,-48.23,-29.96,
39693440,-0.071,-0.876,0.941,-21.297,-49.49,-31.115,
39693460,-0.044,-0.989,0.918,-17.552,-49.84,-34.125,
39693460,-0.053,-1.064,0.905,-2.17,-47.215,-51.905,
39693480,-0.141,-1.164,1.105,60.34,-40.04,-27.895,
39693480,-0.19,-1.423,1.182,47.845,-31.237,17.482,
39693500,-0.303,-1.732,1.195,22.155,-42.122,33.81,
39693500,-0.155,-1.72,1.096,25.935,-55.772,37.117,
39693510,-0.045,-1.701,0.956,10.937,-50.032,51.467,
39693520,0.244,-1.99,0.889,-1.382,-41.772,32.847,
39693530,0.032,-1.99,0.823,-1.277,-37.1,-15.942,
39693540,-0.27,-1.908,0.785,13.842,-19.145,13.772,
39693550,-0.194,-1.998,0.76,18.182,-13.212,10.937,
39693560,-0.136,-1.974,0.695,21.752,-9.45,14.507,
39693570,0.018,-1.959,0.642,21.682,6.667,29.68,
39693580,0.085,-1.952,0.585,20.51,22.452,44.327,
39693590,0.205,-1.867,0.545,13.422,31.71,53.497,
39693600,0.395,-1.808,0.556,11.602,34.387,55.195,
39693610,0.509,-1.775,0.516,15.155,33.25,48.02,
39693620,0.567,-1.629,0.428,27.44,29.557,36.295,
39693630,0.578,-1.451,0.316,35.28,26.145,26.267,
39693640,0.565,-1.264,0.207,38.342,19.075,16.397,
39693650,0.533,-1.119,0.087,37.782,10.762,13.125,
39693660,0.551,-0.959,0.041,42.822,0.49,6.772,
39693670,0.437,-0.819,0.009,45.92,-8.032,5.145,
39693680,0.34,-0.706,-0.015,44.152,-15.382,9.8,
39693690,0.297,-0.558,0.001,40.355,-21.14,14.717,
39693700,0.246,-0.41,0.012,37.38,-24.167,18.76,
39693710,0.208,-0.255,0.022,35.77,-24.36,21.402,
39693720,0.279,-0.083,0.051,33.985,-21.017,23.345,
39693730,0.427,0.044,0.127,31.902,-11.9,22.277,
39693740,0.569,0.107,0.253,33.407,-0.14,13.562,
39693750,0.607,0.081,0.388,40.512,12.582,-5.932,
39693760,0.489,0.037,0.467,57.47,19.39,-34.072,
39693770,0.263,0.088,0.497,80.517,18.655,-62.107,
39693780,-0.039,0.098,0.478,98.525,6.055,-81.567,
39693790,-0.241,0.07,0.383,110.302,-12.145,-83.492,
39693800,-0.279,0.081,0.245,119.822,-26.705,-69.527,
39693810,-0.273,0.077,0.088,124.04,-29.995,-46.69,
39693820,-0.299,0.034,0.032,120.295,-25.672,-20.02,
39693820,-0.314,-0.137,0.015,112.087,-21.647,5.897,
39693830,-0.282,-0.311,-0.021,106.89,-23.187,26.057,
39693840,-0.157,-0.386,-0.043,104.527,-23.8,37.1,
39693850,-0.046,-0.452,0.014,97.195,-14.892,42.647,
39693860,-0.09,-0.64,0.094,84.717,0.63,45.272,
39693870,-0.178,-0.786,0.151,76.265,8.085,41.317,
39693880,-0.172,-0.791,0.187,72.94,5.022,30.152,
39693890,-0.19,-0.78,0.184,67.567,-0.647,16.66,
39693900,-0.234,-0.751,0.193,60.235,-3.377,7,
39693910,-0.178,-0.725,0.106,52.815,1.067,7.035,
39693920,-0.122,-0.669,0.052,44.38,12.477,15.4,
39693930,-0.071,-0.646,-0.009,28.332,24.5,23.065,
39693940,0.033,-0.68,-0.058,6.16,38.097,33.32,
39693950,0.095,-0.868,0.102,-21.577,61.81,43.977,
39693960,0.146,-1.068,0.418,-42.332,96.565,47.547,
39693970,-0.397,-1.303,0.494,-66.01,125.947,89.46,
39693980,-0.184,-1.744,0.865,-75.67,119.945,102.112,
39693990,-0.093,-1.993,1.108,-73.115,104.352,106.015,
39694000,0.034,-1.998,1.063,-70.245,91.77,127.312,
39694010,0.151,-1.998,1.022,-54.705,62.002,104.44,
39694020,0.154,-1.998,0.976,-41.23,36.277,65.852,
39694030,-0.06,-1.977,0.901,-30.975,20.982,31.78,
39694040,-0.399,-1.813,0.771,-18.515,4.112,5.967,
39694050,-0.579,-1.537,0.634,-11.41,-10.255,0.07,
39694060,-0.676,-1.309,0.473,-20.335,-17.08,14.63,
39694070,-0.681,-1.029,0.413,-36.96,-16.992,37.905,
39694080,-0.564,-0.78,0.318,-53.795,-11.637,62.58,
39694090,-0.382,-0.48,0.37,-67.165,-1.715,75.792,
39694100,-0.382,-0.348,0.532,-81.182,4.9,67.322,
39694110,-0.488,-0.343,0.8,-84.91,12.022,48.055,
39694120,-0.739,-0.305,1.095,-66.43,21.42,34.965,
39694130,-0.946,-0.274,1.05,-32.445,39.795,40.11,
39694140,-1.256,-0.03,0.873,16.135,44.94,68.355,
39694150,-1.269,0.029,0.796,42.437,31.185,100.642,
39694160,-1.031,0.069,0.585,29.172,17.132,123.935,
39694170,-1.29,0.023,0.538,30.73,10.202,147.77,
39694170,-0.993,-0.109,0.53,44.047,1.085,198.292,
39694190,-1.051,-0.406,0.435,49.752,-1.54,218.277,
39694190,-1.043,-0.452,0.279,75.617,-0.07,230.755,
39694210,-1.035,-0.41,0.199,77.157,-3.447,224.035,
39694210,-0.993,-0.527,0.197,67.182,-2.905,222.372,
39694230,-0.803,-0.428,0.248,53.655,3.167,227.185,
39694230,-0.592,-0.6,0.48,44.292,10.43,226.152,
39694250,-0.301,-0.816,0.667,43.382,20.737,217.63,
39694250,-0.155,-0.808,0.798,61.757,27.86,201.302,
39694260,-0.157,-0.909,0.876,83.597,13.405,173.74,
39694270,0.016,-0.988,0.898,115.692,-9.38,148.032,
39694280,0.126,-0.865,0.746,150.885,-27.772,122.045,
39694290,0.527,-0.746,0.387,176.995,-46.812,87.885,
39694300,1.136,-0.659,0.055,182.927,-37.87,40.635,
39694310,0.878,-0.967,-0.476,163.17,0.787,-20.282,
39694320,0.59,-1.997,0.631,99.732,-27.457,-180.862,
39694330,0.433,-1.998,-0.488,273.052,-448.332,-400.54,
39694340,-1.532,0.28,-0.206,471.327,-401.555,-243.162,
39694350,1.996,1.762,1.997,403.462,-292.407,-123.637,
39694360,1.172,0.801,1.718,441.402,-220.797,-80.745,
39694370,-0.882,-1.069,1.745,390.145,-167.265,-27.895,
39694380,0.354,1.144,1.586,263.2,-174.965,7.77,
39694390,0.883,1.194,1.236,99.662,-111.195,-19.425,
39694400,1.021,0.316,1.071,7.157,-29.12,-40.775,
39694410,0.519,-0.439,0.955,-37.012,32.217,-23.397,
39694420,-0.149,-0.458,0.93,-47.88,56.507,-0.945,
39694430,-0.472,-0.433,0.91,-38.692,50.715,8.05,
39694440,-0.565,-0.498,0.875,-19.617,30.31,-0.945,
39694450,-0.387,-0.381,0.916,5.442,7.542,-13.405,
39694460,-0.128,-0.27,0.958,13.51,-7.49,-15.435,
39694470,-0.095,-0.245,0.971,10.08,-10.237,-9.66,
39694480,0.023,-0.173,0.99,4.917,-8.942,-6.615,
39694490,-0.052,-0.158,0.995,-4.585,-2.24,-2.66,
39694500,-0.044,-0.133,1.024,-15.592,2.52,-2.537,
39694510,-0.09,-0.124,1.052,-31.325,7.84,-3.727,
39694510,-0.138,-0.162,1.098,-51.082,10.255,-6.86,
39694530,-0.144,-0.086,1.169,-74.392,9.835,-13.702,
39694530,-0.277,0,1.186,-104.65,11.182,-28.63,
39694550,-0.132,-0.636,0.957,-141.767,17.955,-51.292,
39694550,-0.597,-0.449,1.223,-185.447,44.66,-90.405,
39694570,-0.174,-0.213,1.013,-207.182,46.55,-127.697,
39694570,0,-0.413,0.976,-229.652,75.705,-147.962,
39694580,0.062,-0.663,1.066,-224.122,104.72,-163.24,
39694590,0.433,-1.018,0.804,-199.972,154.367,-171.587,
39694600,0.625,-1.49,0.692,-143.29,257.215,-188.265,
39694610,1.689,-1.996,1.774,-73.535,400.645,-198.432,
39694620,1.1,-1.998,1.255,87.255,399.945,-288.645,
39694630,-1.352,-1.667,-0.711,154.857,110.652,-523.967,
39694640,-1.822,-0.083,-1.583,153.965,86.1,-529.375,
39694650,-1.998,0.211,-0.888,43.05,75.39,-378.017,
39694660,-1.998,-0.59,-0.283,-68.757,73.64,-193.707,
39694670,-1.613,-0.503,-0.31,-73.5,34.282,-25.252,
39694680,-0.813,0.051,-0.338,-35.787,12.6,103.88,
39694690,-0.185,-0.124,-0.326,-59.517,31.447,187.477,
39694700,0.301,-0.353,-0.142,-96.46,56.28,184.432,
39694710,0.446,-0.102,-0.104,-103.46,62.177,153.335,
39694720,0.416,0.079,-0.214,-109.532,47.477,128.537,
39694730,-0.772,0.217,1.812,-71.242,-64.627,75.775,
39694740,1.868,1.371,0.017,243.862,-131.53,69.825,
39694750,-1.686,-0.996,1.213,373.047,-55.037,116.655,
39694760,-0.502,-0.96,0.802,375.025,-149.38,142.87,
39694770,-0.533,0.954,1.529,401.607,-174.475,130.41,
39694780,-1.389,-0.315,1.532,343.612,-184.082,79.275,
39694790,-0.722,0.312,1.487,291.235,-196.542,-2.117,
39694800,1.9,1.372,1.384,155.732,-161.857,-32.042,
39694810,1.113,0.382,1.12,19.845,-48.79,-22.207,
39694820,0.525,-0.195,1.05,-47.46,25.83,1.365,
39694830,-0.009,-0.373,0.979,-67.532,54.932,7.822,
39694840,-0.448,-0.454,0.896,-59.727,54.442,2.607,
39694850,-0.596,-0.497,0.845,-40.565,37.8,-5.967,
39694860,-0.477,-0.5,0.827,-10.955,13.667,-15.487,
39694870,-0.244,-0.417,0.894,13.912,-6.632,-18.427,
39694880,-0.152,-0.273,0.951,24.185,-17.587,-12.985,
39694890,-0.086,-0.14,1.003,23.012,-18.69,-6.37,
39694900,-0.076,-0.088,1.02,9.082,-13.86,-4.532,
39694910,-0.068,-0.112,1.022,-7.665,-7.262,-5.652,
39694920,-0.068,-0.157,1.03,-24.01,-2.1,-5.425,
39694920,-0.104,-0.122,1.074,-41.142,2.292,-5.792,
39694940,-0.195,-0.054,1.167,-63.262,5.827,-11.62,
39694940,-0.392,-0.074,1.195,-95.637,6.282,-28.035,
39694960,-0.292,-0.314,1.23,-136.78,-3.272,-47.04,
39694960,-0.387,-0.233,1.201,-186.235,-1.032,-65.712,
39694980,-0.266,-0.151,1.131,-233.45,-0.297,-87.237,
39694980,-0.168,-0.134,1.115,-264.757,7.052,-98.945,
39695000,0.107,-0.375,0.892,-289.677,26.705,-120.26,
39695000,-0.578,-0.691,0.881,-283.99,66.64,-144.392,
39695010,-0.486,-0.98,0.971,-298.357,77.665,-167.685,
39695020,0.037,-0.787,1.02,-283.675,112.665,-185.15,
39695030,0.25,-1.702,1.093,-245.63,172.515,-170.887,
39695040,-0.597,-1.458,0.618,-170.45,236.705,-139.142,
39695050,-0.735,-0.335,0.716,-112.507,179.252,-150.745,
39695060,-0.173,-0.881,0.9,-89.092,125.44,-126.525,
39695070,-1.121,-0.213,0.139,-47.53,95.13,-59.045,
39695080,-0.633,0.904,0.114,-10.535,67.55,-57.47,
39695090,-0.376,0.509,0.297,-42.787,64.47,12.897,
39695100,-0.113,0.673,0.583,-13.352,64.452,89.74,
39695110,0.269,0.791,0.535,18.147,64.26,106.89,
39695120,0.281,0.911,0.355,36.505,69.387,112.857,
39695130,0.337,0.549,0.216,42.927,49.385,138.425,
39695140,0.555,-0.013,0.19,51.59,-4.007,181.58,
39695150,0.991,-0.691,0.108,74.077,-75.25,182.455,
39695160,1.963,-1.908,0.902,63.525,-180.145,88.865,
39695170,-1.563,-1.998,-0.585,214.007,-112.927,102.637,
39695180,-0.017,-0.429,0.993,291.917,-132.737,168.315,
39695190,0.326,1.997,1.461,258.825,-127.05,109.252,
39695200,-1.458,-0.418,0.858,332.237,-82.617,115.045,
39695210,-0.818,-1.036,1.077,392.175,-108.255,63.595,
39695220,-1.062,0.634,1.345,386.312,-136.99,-21.42,
39695230,-0.626,-0.341,1.509,321.877,-172.2,-44.205,
39695240,1.258,0.596,1.508,253.452,-174.58,-47.092,
39695250,0.659,0.586,1.185,111.597,-103.932,-23.957,
39695260,0.695,0.271,1.089,32.007,-41.527,-16.817,
39695260,0.395,-0.091,1.023,-9.292,6.037,-13.615,
39695280,0.098,-0.223,0.997,-30.17,34.912,-12.46,
39695280,-0.214,-0.256,0.971,-42.63,46.287,-10.727,
39695300,-0.289,-0.379,0.954,-49.402,40.67,-10.045,
39695300,-0.265,-0.356,0.952,-47.46,31.535,-9.8,
39695320,-0.228,-0.222,1.002,-46.41,23.835,-9.607,
39695320,-0.199,-0.202,1.019,-54.547,20.16,-8.487,
39695330,0.014,-0.277,1.039,-65.345,18.252,-1.347,
39695340,0.106,-0.15,1.153,-89.127,24.15,8.242,
39695350,0.577,0.002,1.247,-132.247,37.17,26.512,
39695360,0.121,-0.335,1.163,-177.1,60.41,57.907,
39695370,-0.601,-0.135,1.073,-197.54,65.31,61.022,
39695380,-0.708,-0.296,1.024,-209.247,50.61,36.277,
39695390,-0.514,-0.33,1.031,-224.752,42.822,-4.97,
39695400,-0.416,-0.394,0.975,-237.527,45.587,-41.492,
39695410,-0.372,-0.551,0.969,-232.96,51.45,-63.752,
39695420,-0.241,-0.632,1.072,-203.332,58.817,-63.7,
39695430,-0.277,-0.887,0.965,-183.785,63.227,-61.617,
39695440,-0.512,-0.912,0.905,-150.43,65.59,-65.52,
39695450,-0.397,-0.876,0.801,-112.087,77.087,-66.15,
39695460,-0.279,-0.924,0.67,-58.887,85.015,-70.752,
39695470,-0.605,-0.59,0.633,2.38,118.195,-69.772,
39695480,-1.112,0.49,-0.044,70.595,132.877,-62.282,
39695490,-0.638,0.734,-0.05,64.872,139.177,-47.53,
39695500,-0.729,0.132,0.068,31.85,163.52,-0.297,
39695510,-0.586,0.391,-0.039,51.012,157.85,34.352,
39695520,-0.001,0.747,-0.106,60.97,141.837,66.902,
39695530,0.304,0.272,-0.181,50.47,130.777,97.475,
39695540,1.327,-0.668,-0.836,45.78,96.127,85.54,
39695550,1.64,-1.99,1.32,31.465,-22.837,-18.515,
39695560,-1.857,-1.97,-1.801,264.81,-262.57,-77.752,
39695570,-0.961,1.461,1.099,303.485,-227.832,49.35,
39695580,1.799,1.276,1.996,251.317,-237.475,178.622,
39695590,-1.281,-1.121,1.056,329.472,-204.137,124.757,
39695600,-0.79,0.552,1.356,329.682,-197.137,54.722,
39695610,-1.156,0.036,1.331,247.082,-182.682,-11.655,
39695620,1.099,0.324,1.494,192.902,-170.485,-74.2,
39695630,1.44,0.535,1.247,89.81,-101.535,-64.452,
39695640,0.569,-0.018,1.082,4.165,-15.75,-19.985,
39695650,-0.051,-0.229,0.987,-28.525,24.237,-2.817,
39695660,-0.297,-0.29,0.948,-32.76,31.692,-7.717,
39695670,-0.36,-0.379,0.906,-26.11,26.652,-18.725,
39695670,-0.255,-0.367,0.922,-17.15,16.642,-24.972,
39695690,-0.081,-0.361,0.94,-9.607,9.695,-21.07,
39695690,-0.079,-0.318,0.95,-12.915,7.402,-9.467,
39695710,-0.074,-0.235,0.985,-17.587,8.137,3.605,
39695710,-0.052,-0.13,1.039,-28.14,13.912,5.565,
39695730,-0.028,-0.164,1.061,-45.115,24.71,2.152,
39695730,0.019,-0.19,1.095,-66.727,37.45,0.28,
39695750,0.061,-0.171,1.121,-95.742,52.902,2.642,
39695750,0.102,-0.217,1.139,-129.307,70.437,10.5,
39695760,0.197,-0.29,1.173,-164.255,90.93,23.45,
39695770,0.171,-0.287,1.178,-198.467,117.827,34.93,
39695780,0.122,-0.287,1.192,-221.9,150.395,44.485,
39695790,0.254,-0.481,1.33,-231.122,189.052,58.327,
39695800,0.653,-1.066,0.982,-212.275,249.9,93.887,
39695810,-0.237,-1.448,0.754,-152.372,300.212,148.54,
39695820,0.242,-1.257,0.963,-136.92,270.305,178.097,
39695830,-0.745,-1.238,0.333,-109.41,155.662,229.547,
39695840,0.045,-1.812,0.055,-105.892,-9.1,230.545,
39695850,1.998,-1.998,1.233,-146.457,-156.607,135.205,
39695860,1.81,-1.95,0.589,-92.505,-201.6,25.445,
39695870,-0.034,-1.012,-0.173,-55.23,-183.172,-61.722,
39695880,-0.936,-0.953,0.171,-106.085,-190.522,-86.257,
39695890,-1.138,-0.937,0.246,-124.25,-216.125,-17.657,
39695900,-1.261,0.227,0.206,-108.395,-276.255,38.815,
39695910,-0.22,1.557,-0.154,-115.71,-311.92,93.8,
39695920,0.975,1.987,-0.252,-126.945,-266.612,157.342,
39695930,0.225,1.957,1.287,-93.432,-182.98,167.79,
39695940,-1.998,1.733,-0.491,113.347,-103.005,255.272,
39695950,-0.712,-0.859,1.078,338.31,-266.997,496.615,
39695960,1.051,-1.226,1.205,211.925,-370.44,365.085,
39695970,-1.38,1.136,0.674,398.457,-222.285,50.697,
39695980,-0.546,-1.004,1.338,375.865,-195.247,-60.357,
39695990,-0.436,0.557,1.785,396.077,-213.622,-148.942,
39696000,1.958,0.708,1.527,252.42,-220.85,-103.932,
39696010,1.14,0.81,1.123,85.295,-99.767,-9.485,
39696010,0.543,0.202,1.06,0.472,-11.445,10.185,
39696030,0.474,-0.128,1.006,-29.96,34.615,0.192,
39696030,-0.111,-0.34,0.964,-45.325,60.095,4.742,
39696050,-0.438,-0.357,0.963,-42.892,59.57,3.885,
39696050,-0.201,-0.32,0.98,-37.782,45.885,-2.537,
39696070,-0.338,-0.372,0.893,-37.712,36.225,4.707,
39696070,-0.384,-0.352,0.924,-29.942,21.122,13.107,
39696080,-0.184,-0.199,1.005,-26.582,8.102,10.657,
39696090,-0.069,-0.09,1.08,-38.08,7.332,8.802,
39696100,-0.075,-0.108,1.11,-65.677,14.262,12.355,
39696110,-0.076,-0.214,1.131,-100.45,23.257,12.582,
39696120,0.066,-0.172,1.108,-132.86,35.892,6.58,
39696130,-0.166,-0.25,1.24,-170.94,58.275,-11.252,
39696140,0.135,-0.166,1.188,-193.637,65.012,-27.895,
39696150,0.059,-0.196,1.205,-216.107,82.442,-37.362,
39696160,0.129,-0.337,1.203,-231.122,102.305,-39.34,
39696170,0.341,-0.474,1.303,-226.117,132.352,-38.885,
39696180,0.503,-0.667,1.041,-193.34,180.127,-24.78,
39696190,0.023,-0.771,0.911,-137.795,227.132,-10.045,
39696200,0.043,-0.93,1.25,-95.445,226.677,-6.282,
39696210,0.222,-1.476,0.485,-16.17,174.842,33.11,
39696220,1.019,-1.445,0.842,-15.417,-34.982,-52.325,
39696230,1.982,-1.108,0.655,3.937,-115.29,-172.76,
39696240,-0.553,-0.792,-0.387,43.645,-36.435,-212.047,
39696250,-1.997,-0.228,-0.415,14.105,-57.277,-201.04,
39696260,-1.526,0.077,-0.377,-35.14,-111.002,-97.545,
39696270,-1.37,0.411,-0.61,-45.657,-141.68,36.977,
39696280,-0.821,0.922,-0.946,-46.515,-129.412,153.405,
39696290,0.064,0.475,-0.864,-66.29,-89.512,223.562,
39696300,0.783,-1.394,1.933,12.915,35.63,237.667,
39696310,-1.998,-1.998,-1.185,261.117,-2.38,274.82,
39696320,-1.65,-1.176,0.208,356.422,-234.85,231.367,
39696330,1.549,1.284,1.889,346.797,-253.662,214.515,
39696340,-1.858,-0.163,1.107,397.757,-186.865,82.372,
39696350,-1.158,-0.421,1.76,376.39,-218.557,-19.18,
39696360,1.043,1.244,1.507,259.805,-233.187,-54.565,
39696370,1.342,0.851,1.101,73.885,-121.222,-25.06,
39696380,0.894,0.036,1.031,-11.112,-9.187,-2.135,
39696390,0.189,-0.393,0.96,-34.265,37.572,-3.36,
39696400,0.13,-0.316,0.964,-32.567,52.902,-5.53,
39696410,-0.361,-0.351,0.935,-35.14,59.657,0.07,
39696420,-0.447,-0.401,0.921,-30.222,47.337,-3.517,
39696420,-0.285,-0.327,0.938,-19.075,30.275,-7.245,
39696440,-0.295,-0.282,0.944,-14.175,18.34,-3.412,
39696440,-0.184,-0.261,0.961,-11.41,8.452,-1.015,
39696460,-0.077,-0.131,1.007,-14.437,4.655,2.905,
39696460,-0.13,-0.125,1.02,-29.032,7.542,9.397,
39696480,-0.165,-0.198,1.02,-43.242,8.89,12.827,
39696480,-0.141,-0.188,1.031,-58.065,7.822,10.745,
39696490,-0.12,-0.168,1.075,-70.997,7.227,8.295,
39696500,-0.184,-0.332,0.997,-82.967,6.685,3.5,
39696510,-0.076,-0.25,1.039,-96.11,5.407,1.68,
39696520,-0.062,-0.277,1.009,-108.465,6.772,-0.962,
39696530,-0.019,-0.376,0.961,-113.785,9.905,-1.277,
39696540,-0.005,-0.398,0.943,-112.962,16.31,-2.677,
39696550,-0.037,-0.42,0.918,-112.227,23.73,-2.992,
39696560,-0.011,-0.438,0.88,-103.827,24.43,1.33,
39696570,-0.047,-0.466,0.861,-92.557,29.295,3.36,
39696580,-0.138,-0.437,0.864,-75.232,33.285,6.405,
39696590,-0.183,-0.502,0.812,-59.15,36.225,7.63,
39696600,-0.171,-0.548,0.748,-38.99,43.242,7.245,
39696610,-0.227,-0.489,0.745,-18.252,50.942,4.55,
39696620,-0.3,-0.453,0.729,-3.307,51.975,-1.855,
39696630,-0.299,-0.412,0.723,11.217,48.317,-7.997,
39696640,-0.307,-0.361,0.765,20.58,40.04,-17.465,
39696650,-0.297,-0.398,0.762,27.195,32.812,-25.13,
39696660,-0.278,-0.36,0.885,31.657,24.762,-34.02,
39696670,-0.295,-0.36,0.97,29.452,20.125,-44.695,
39696680,-0.357,-0.352,0.988,25.217,16.432,-52.307,
39696690,-0.392,-0.322,1.063,12.897,10.71,-59.377,
39696700,-0.35,-0.337,1.087,-4.882,4.427,-60.725,
39696710,-0.265,-0.379,1.092,-20.895,-1.015,-57.26,
39696720,-0.216,-0.434,1.143,-34.737,-6.352,-51.677,
39696730,-0.206,-0.482,1.082,-44.887,-12.285,-42.787,
39696740,-0.216,-0.469,1.148,-50.487,-17.447,-27.86,
39696750,-0.28,-0.532,1.25,-52.605,-27.125,-9.887,
39696760,-0.149,-0.593,1.226,-42.875,-42,10.517,
39696760,-0.119,-0.74,1.079,-33.46,-34.965,52.185,
39696780,-1.723,-0.589,0.606,-34.055,-14.805,117.81,
39696780,-0.638,-0.264,0.522,-33.6,-62.825,149.152,
39696800,0.224,-0.759,0.666,-63.717,-92.05,188.72,
39696800,0.307,-1.146,0.661,-88.48,-83.737,175.315,
39696820,0.108,-0.939,0.715,-94.71,-78.575,147.35,
39696820,-0.082,-0.951,0.72,-109.112,-101.062,115.202,
39696830,-0.104,-1.113,0.695,-121.152,-128.082,83.877,
39696840,-0.157,-1.107,0.703,-126.192,-132.16,64.837,
39696850,-0.304,-1.111,0.828,-123.375,-112.56,62.737,
39696860,-0.318,-1.168,0.921,-110.67,-92.522,69.912,
39696870,-0.101,-1.058,0.716,-82.985,-77.927,73.885,
39696880,0.182,-0.697,0.412,-57.557,-57.995,72.275,
39696890,0.191,-0.487,0.326,-56.402,-34.195,57.47,
39696900,0.015,-0.388,0.337,-61.845,-18.042,25.987,
39696910,-0.077,-0.185,0.339,-54.057,-4.725,1.067,
39696920,-0.137,0.045,0.112,-39.655,4.672,-11.812,
39696930,-0.154,0.294,-0.074,-33.197,14.315,-20.615,
39696940,-0.038,0.387,0.003,-39.97,31.097,-23.782,
39696950,0.015,0.14,0.119,-38.342,43.575,-21.367,
39696960,0.286,0.072,0.113,-33.302,58.45,-26.425,
39696970,0.412,0.085,0.058,-37.537,85.365,-33.915,
39696980,0.399,-0.174,0.177,-48.457,117.18,-38.815,
39696990,0.327,-0.543,0.143,-40.425,151.48,-37.257,
39697000,0.129,-0.505,-0.05,-20.895,171.377,-32.357,
39697010,-0.194,-0.764,0.135,-23.065,171.902,-15.557,
39697020,-0.947,-1.222,1.201,24.745,129.64,22.137,
39697030,-0.263,-1.998,1.998,128.467,17.587,22.802,
39697040,-0.769,-1.032,-0.537,319.025,-68.81,62.212,
39697050,-1.067,-0.033,1.111,333.252,-97.51,68.46,
39697060,0.167,-0.492,1.261,289.73,-87.132,87.202,
39697070,-0.733,0.225,1.24,333.252,-86.45,60.392,
39697080,-0.432,-0.258,1.31,296.747,-95.637,31.272,
39697090,-0.407,0.136,1.31,250.635,-94.745,-7.647,
39697100,-0.054,0.003,1.274,196.63,-91.315,-29.05,
39697110,0.2,-0.071,1.193,144.48,-79.1,-36.907,
39697120,0.379,-0.089,1.131,99.837,-60.375,-31.097,
39697130,0.255,-0.072,1.07,57.592,-34.195,-16.467,
39697140,0.061,-0.173,1.018,26.372,-13.037,-7.42,
39697150,-0.014,-0.207,0.994,7.437,0.157,-7.262,
39697160,-0.05,-0.251,0.97,-3.342,7.035,-8.855,
39697160,-0.069,-0.259,0.968,-9.012,10.902,-7.805,
39697170,-0.098,-0.233,0.978,-14.997,13.422,-4.742,
39697180,-0.09,-0.162,1.013,-22.96,15.767,-3.027,
39697190,-0.201,-0.209,0.998,-31.465,19.74,-5.075,
39697200,-0.133,-0.243,1.012,-41.877,21.7,-12.705,
39697210,-0.101,-0.263,1.022,-56.105,24.78,-17.92,
39697220,-0.061,-0.21,1.04,-73.867,29.82,-18.795,
39697230,-0.208,-0.231,1.074,-97.212,40.88,-21.402,
39697240,-0.004,-0.221,1.121,-122.255,47.477,-29.417,
39697250,-0.016,-0.238,1.157,-150.342,54.057,-36.82,
39697260,0.082,-0.345,1.175,-178.535,63.367,-39.76,
39697270,0.022,-0.37,1.173,-199.657,76.702,-40.635,
39697280,0.008,-0.464,1.16,-210.665,92.522,-41.212,
39697290,0.256,-0.58,1.311,-199.115,127.977,-40.88,
39697300,0.018,-0.779,1.046,-163.572,157.937,-36.575,
39697310,0.106,-1.084,1.242,-120.05,193.777,-49.84,
39697320,0.652,-1.668,1.568,-47.932,225.05,-65.03,
39697330,1.906,-1.998,1.537,58.87,177.03,-153.422,
39697340,1.611,-1.844,-0.162,110.092,2.135,-369.215,
39697350,-1.733,-0.74,-1.331,132.16,58.817,-459.777,
39697360,-1.998,-0.164,-0.757,15.015,30.992,-372.19,
39697370,-1.962,0.177,-0.453,-58.362,14.28,-127.47,
39697380,-0.998,0.473,-0.273,-57.242,-4.777,115.412,
39697390,0.282,-0.178,-0.261,-66.167,22.137,244.737,
39697400,1.489,-0.178,0.207,-89.32,51.555,181.107,
39697410,0.953,0.645,0.224,-74.322,40.022,81.392,
39697420,0.347,0.85,-0.043,-76.457,17.692,12.145,
39697430,-0.24,-0.445,1.048,-23.24,-27.107,-33.88,
39697440,-1.88,-1.545,0.931,128.485,-57.68,13.177,
39697450,-1.373,-1.998,0.076,323.085,-55.597,155.225,
39697460,0.613,0.785,1.576,281.837,-134.54,59.937,
39697470,-1.057,1.027,1.219,304.097,-94.937,24.57,
39697480,-0.739,-1.124,1.335,316.347,-109.375,9.397,
39697490,-0.283,0.545,1.398,296.677,-129.692,-45.255,
39697500,0.139,0.028,1.43,214.847,-123.497,-55.562,
39697510,0.727,0.41,1.417,138.25,-94.815,-51.485,
39697510,0.545,0.235,1.242,43.942,-41.37,-32.34,
39697530,0.239,-0.069,1.106,-18.602,2.555,-19.635,
39697530,-0.129,-0.27,0.93,-44.222,28.385,-21.752,
39697550,-0.267,-0.521,0.854,-36.977,32.48,-32.69,
39697550,-0.207,-0.397,0.873,-24.867,25.287,-34.667,
39697570,-0.185,-0.438,0.877,-13.737,19.127,-29.417,
39697570,-0.209,-0.338,0.938,-10.92,15.172,-27.842,
39697580,-0.124,-0.284,0.955,-11.707,11.935,-25.83,
39697590,-0.119,-0.252,0.993,-19.25,11.55,-23.502,
39697600,-0.154,-0.235,1.003,-30.485,12.495,-21.227,
39697610,-0.162,-0.196,1.049,-44.572,13.755,-21.437,
39697620,-0.153,-0.158,1.105,-66.727,14.787,-22.785,
39697630,-0.117,-0.162,1.138,-96.845,14.717,-21.665,
39697640,-0.052,-0.207,1.138,-128.292,9.782,-15.767,
39697650,-0.054,-0.24,1.128,-158.34,3.92,-5.827,
39697660,-0.066,-0.247,1.102,-186.025,-2.52,5.985,
39697670,-0.082,-0.249,1.043,-207.655,-8.82,18.637,
39697680,-0.057,-0.443,0.991,-222.95,-12.075,24.71,
39697690,-0.002,-0.276,0.919,-217.665,-10.167,30.17,
39697700,0.114,-0.437,1.011,-236.32,1.487,36.907,
39697710,0.036,-0.621,1.128,-242.042,15.732,40.67,
39697720,0.005,-0.747,1.461,-234.167,29.54,46.252,
39697730,-0.183,-0.961,1.272,-218.837,46.025,60.987,
39697740,-0.351,-1.186,1.039,-187.477,29.242,73.465,
39697750,-0.136,-1.728,0.583,-150.622,-9.17,90.545,
39697760,0.227,-1.998,0.492,-128.607,-48.58,119.122,
39697770,0.339,-1.794,-0.17,-81.97,-57.085,131.81,
39697780,0.25,-0.86,-0.131,-53.497,-60.637,113.347,
39697790,0.386,-1.251,0.302,-118.335,-42.927,102.445,
39697800,0.275,-1.34,0.409,-125.44,-34.912,80.412,
39697810,0.325,-0.752,0.511,-100.24,-25.007,47.705,
39697820,0.32,-0.561,0.556,-96.145,-10.062,15.085,
39697830,0.328,-0.63,0.714,-100.537,2.87,-22.33,
39697830,0.25,-0.707,0.874,-95.392,9.765,-62.93,
39697850,0.066,-0.755,0.906,-83.755,8.47,-99.68,
39697850,-0.092,-0.765,0.941,-76.86,-0.35,-126.647,
39697870,-0.242,-0.774,0.97,-81.585,-11.742,-139.755,
39697870,-0.267,-0.75,1.084,-91.822,-17.272,-143.99,
39697890,-0.226,-0.793,1.25,-107.87,-14.752,-146.212,
39697890,-0.345,-0.903,1.448,-119.595,-10.045,-143.307,
39697910,-0.53,-0.959,1.525,-126.612,-13.842,-142.8,
39697910,-0.673,-0.943,1.498,-125.475,-30.222,-138.775,
39697920,-0.754,-0.972,1.392,-118.79,-51.73,-123.83,
39697930,-0.786,-0.985,1.28,-121.292,-69.667,-103.04,
39697940,-0.841,-1.067,1.137,-118.107,-83.72,-73.395,
39697950,-0.767,-1.165,0.95,-111.667,-91.91,-35.77,
39697960,-0.567,-1.12,0.773,-105.035,-91.315,3.185,
39697970,-0.403,-1.102,0.632,-99.89,-86.362,32.165,
39697980,-0.272,-1.152,0.505,-94.115,-81.725,48.125,
39697990,-0.174,-1.112,0.393,-82.127,-79.835,49.84,
39698000,-0.132,-1.044,0.296,-65.397,-82.687,40.302,
39698010,-0.099,-0.998,0.187,-48.877,-83.685,25.515,
39698020,-0.073,-0.949,0.118,-34.072,-80.29,10.78,
39698030,-0.077,-0.924,0.091,-24.08,-70.262,0,
39698040,-0.123,-0.909,0.072,-16.642,-59.762,-9.415,
39698050,-0.081,-0.892,0.051,-10.745,-46.707,-17.307,
39698060,0.004,-0.857,0.032,-4.83,-30.1,-22.592,
39698070,0.06,-0.797,0.04,0.507,-13.002,-31.517,
39698080,0.011,-0.712,0.044,3.692,-2.835,-45.447,
39698090,-0.048,-0.629,0.009,3.43,1.12,-55.545,
39698100,-0.085,-0.539,-0.024,2.887,-0.192,-59.657,
39698110,-0.096,-0.491,-0.048,2.205,0.437,-55.562,
39698120,-0.111,-0.463,-0.058,2.17,2.905,-46.655,
39698130,-0.128,-0.445,-0.036,3.64,7.175,-33.407,
39698140,-0.201,-0.442,-0.02,5.162,6.055,-19.915,
39698150,-0.253,-0.417,-0.028,7.28,-1.732,-8.26,
39698160,-0.265,-0.332,-0.047,10.22,-13.667,6.02,
39698170,-0.21,-0.245,-0.066,10.552,-24.255,25.392,
39698180,-0.12,-0.198,-0.058,9.292,-30.922,46.987,
39698190,-0.088,-0.155,-0.02,7.28,-35.297,64.277,
39698200,-0.201,-0.181,0.018,4.987,-47.267,76.457,
39698210,-0.317,-0.212,0.019,0.577,-72.31,82.6,
39698220,-0.263,-0.206,-0.013,-5.652,-109.287,89.635,
39698230,-0.004,-0.222,-0.141,-14.997,-149.047,93.485,
39698240,0.27,-0.253,-0.142,-26.285,-176.242,84.455,
39698250,0.428,-0.268,-0.105,-33.512,-187.092,60.917,
39698260,0.441,-0.285,-0.011,-36.662,-182.297,35.175,
39698260,0.397,-0.328,0.152,-39.55,-163.87,15.382,
39698280,0.344,-0.371,0.333,-34.457,-138.075,0.84,
39698280,0.199,-0.391,0.351,-18.76,-110.915,-3.517,
39698300,-0.004,-0.34,0.226,3.22,-97.195,-2.012,
39698300,-0.072,-0.278,0.115,19.67,-94.71,3.325,
39698320,-0.023,-0.282,0.091,24.517,-93.432,14.98,
39698320,0.015,-0.362,0.17,21.507,-86.625,28.017,
39698330,0.068,-0.462,0.336,12.687,-73.167,35.752,
39698340,0.149,-0.592,0.613,1.137,-52.255,36.75,
39698350,0.072,-0.812,0.802,-6.247,-34.212,26.267,
39698360,0.014,-0.947,0.855,-4.812,-19.18,7.875,
39698370,-0.043,-1.054,0.86,-2.485,1.767,-1.417,
39698380,-0.076,-1.254,0.883,0.455,24.447,-8.172,
39698390,-0.13,-1.174,0.733,-18.077,51.66,2.082,
39698400,0.031,-1.675,0.932,-9.362,70.717,14.157,
39698410,0.144,-1.717,1.033,-32.917,80.22,-7.84,
39698420,0.028,-1.804,1.052,-26.6,81.69,5.425,
39698430,0.147,-1.887,1.083,-12.04,79.03,14.98,
39698440,0.208,-1.949,1.01,-7.21,68.845,13.37,
39698450,0.313,-1.99,0.904,-3.64,62.527,15.05,
39698460,0.425,-1.998,0.831,-4.62,57.96,9.1,
39698470,0.466,-1.998,0.752,-1.365,56.175,-12.232,
39698480,0.415,-1.998,0.658,2.747,59.202,-34.51,
39698490,0.276,-1.987,0.566,4.882,67.935,-52.535,
39698500,0.12,-1.863,0.404,4.147,72.432,-61.687,
39698510,0.082,-1.722,0.339,-1.155,75.897,-60.795,
39698520,0.149,-1.571,0.253,-5.547,77.822,-55.335,
39698530,0.215,-1.429,0.206,-8.977,82.075,-51.24,
39698540,0.215,-1.306,0.144,-12.985,84.367,-49.577,
39698550,0.168,-1.187,0.065,-16.817,85.557,-47.897,
39698560,0.108,-1.078,0,-19.862,82.67,-42.192,
39698570,0.075,-1.013,-0.029,-21.98,77.28,-35.385,
39698580,0.075,-0.95,-0.014,-21.7,70.21,-26.32,
39698580,0.042,-0.884,-0.036,-20.125,63.437,-13.457,
39698600,0.018,-0.776,-0.106,-15.662,51.607,-1.907,
39698600,0.044,-0.662,-0.193,-14.402,41.247,11.462,
39698620,0.103,-0.554,-0.265,-13.632,34.247,26.285,
39698620,0.151,-0.45,-0.301,-12.67,26.705,38.377,
39698640,0.234,-0.379,-0.268,-14.665,16.677,42.192,
39698640,0.301,-0.319,-0.241,-17.482,5.88,36.347,
39698660,0.352,-0.234,-0.223,-18.987,-5.775,22.715,
39698660,0.35,-0.15,-0.209,-20.212,-16.8,5.67,
39698670,0.343,-0.12,-0.148,-23.012,-25.795,-11.585,
39698680,0.371,-0.122,-0.067,-23.887,-28.717,-24.885,
39698690,0.433,-0.123,0.002,-21.682,-27.195,-34.965,
39698700,0.521,-0.139,0.128,-19.845,-23.485,-47.88,
39698710,0.646,-0.216,0.279,-18.217,-16.66,-66.815,
39698720,0.699,-0.284,0.428,-12.967,-8.067,-91.805,
39698730,0.595,-0.343,0.553,-5.617,-2.345,-123.707,
39698740,0.35,-0.44,0.7,3.045,1.242,-151.76,
39698750,0.043,-0.484,0.686,16.94,3.342,-162.015,
39698760,-0.164,-0.354,0.569,29.172,0.962,-150.272,
39698770,-0.323,-0.312,0.5,22.645,-4.462,-124.337,
39698780,-0.333,-0.408,0.557,5.075,-12.075,-92.26,
39698790,-0.221,-0.42,0.704,-9.432,-15.942,-59.36,
39698800,-0.136,-0.591,0.875,-14.997,-14.315,-27.352,
39698810,0.046,-0.739,0.989,-19.32,-7.7,-14.07,
39698820,0.033,-0.907,1.067,-8.102,1.19,-7.612,
39698830,0.024,-1.154,1.077,14.49,9.975,0.577,
39698840,0.064,-1.321,1.085,37.31,11.602,7.91,
39698850,0.107,-1.43,1.14,45.745,10.955,23.59,
39698860,0.224,-1.604,1.253,42.717,10.99,37.94,
39698870,0.358,-1.771,1.308,40.11,13.037,40.722,
39698880,0.451,-1.854,1.309,44.292,16.327,30.205,
39698890,0.401,-1.839,1.219,50.61,21.91,12.425,
39698900,0.344,-1.801,1.147,57.977,26.757,-5.232,
39698910,0.259,-1.724,1.105,58.94,32.41,-13.807,
39698920,0.262,-1.746,1.026,56.682,37.66,-13.65,
39698930,0.336,-1.736,0.922,62.422,45.395,-7.157,
39698940,0.3,-1.756,0.814,63.91,52.255,-2.24,
39698950,0.21,-1.758,0.745,62.055,54.53,0.735,
39698960,0.153,-1.751,0.656,58.222,52.605,7.91,
39698970,0.186,-1.659,0.51,53.637,50.54,23.747,
39698980,0.339,-1.545,0.347,50.417,52.01,39.497,
39698990,0.474,-1.48,0.245,45.5,55.737,47.005,
39699000,0.423,-1.387,0.144,36.19,48.615,47.25,
39699010,0.382,-1.235,0.08,32.742,25.97,38.167,
39699010,0.358,-1.109,-0.007,27.16,2.327,31.5,
39699030,0.317,-1.042,-0.099,30.87,-17.535,27.457,
39699030,0.237,-0.854,-0.218,33.722,-35.087,30.345,
39699050,0.203,-0.735,-0.355,32.427,-50.33,36.487,
39699050,0.223,-0.632,-0.458,29.61,-62.86,39.725,
39699070,0.199,-0.571,-0.477,22.47,-71.05,41.895,
39699070,0.161,-0.576,-0.467,14.262,-77.962,40.862,
39699080,0.16,-0.533,-0.443,8.312,-83.72,40.04,
39699090,0.158,-0.48,-0.417,0.052,-87.657,38.202,
39699100,0.189,-0.442,-0.367,-6.002,-89.67,34.702,
39699110,0.181,-0.403,-0.312,-8.557,-90.282,28.525,
39699120,0.15,-0.357,-0.259,-9.502,-90.037,21.07,
39699130,0.11,-0.305,-0.239,-9.135,-87.797,14.91,
39699140,0.107,-0.209,-0.225,-7.21,-83.387,11.97,
39699150,0.111,-0.17,-0.144,-9.887,-74.445,12.477,
39699160,0.132,-0.203,-0.048,-13.492,-64.155,15.855,
39699170,0.233,-0.218,0.088,-14.315,-48.825,20.02,
39699180,0.27,-0.239,0.196,-14,-35.175,20.282,
39699190,0.264,-0.289,0.286,-12.792,-23.887,12.092,
39699200,0.221,-0.343,0.384,-12.95,-11.795,8.312,
39699210,0.141,-0.463,0.471,-16.642,-1.942,8.855,
39699220,0.067,-0.658,0.516,-20.947,-1.4,10.132,
39699230,0.055,-0.844,0.415,-23.992,-8.295,11.707,
39699240,0.148,-0.922,0.27,-26.67,-15.12,8.697,
39699250,0.161,-0.98,0.193,-36.452,-11.375,5.092,
39699260,0.127,-1.125,0.207,-53.882,-1.452,-1.505,
39699270,0.127,-1.343,0.335,-70.612,15.207,-3.972,
39699280,0.197,-1.565,0.362,-76.58,35.227,5.145,
39699290,0.297,-1.542,0.471,-74.375,50.26,11.83,
39699300,0.218,-1.622,0.773,-81.34,60.427,12.757,
39699310,0.009,-1.881,0.965,-90.895,65.537,13.947,
39699320,0.098,-1.787,0.976,-86.275,65.555,9.45,
39699330,0.174,-1.609,0.885,-78.732,67.725,-5.582,
39699330,0.212,-1.512,0.929,-78.435,77.805,-28.21,
39699350,0.073,-1.619,1.003,-72.835,86.905,-51.275,
39699350,-0.133,-1.442,0.966,-61.407,82.215,-75.075,
39699370,-0.225,-1.474,0.965,-52.692,74.847,-75.39,
39699370,0.065,-1.472,0.916,-61.792,75.53,-85.54,
39699390,-0.018,-1.298,0.941,-60.742,91.91,-79.957,
39699390,-0.156,-1.184,0.998,-46.567,102.637,-65.59,
39699410,-0.199,-1.099,0.928,-36.417,92.942,-48.632,
39699410,0.045,-0.985,0.795,-22.312,80.15,-25.882,
39699420,0.201,-1.007,0.652,-13.545,79.38,-6.3,
39699430,0.224,-1.041,0.544,-3.99,84.91,3.062,
39699440,0.265,-1.046,0.446,5.04,86.345,5.67,
39699450,0.282,-1.041,0.335,14.612,81.34,5.18,
39699460,0.294,-1.011,0.197,24.5,67.375,-0.315,
39699470,0.306,-0.924,0.064,32.095,53.935,-7.612,
39699480,0.271,-0.818,-0.02,34.51,46.812,-8.505,
39699490,0.209,-0.719,-0.038,29.662,41.212,-1.942,
39699500,0.216,-0.611,-0.041,21.822,29.435,7.262,
39699510,0.317,-0.459,-0.005,15.33,18.865,18.427,
39699520,0.32,-0.319,0.053,10.08,9.572,29.19,
39699530,0.372,-0.2,0.095,7.927,-0.822,37.905,
39699540,0.65,-0.086,0.199,9.712,-7.07,45.29,
39699550,0.746,-0.201,0.329,13.037,-10.92,38.972,
39699560,0.628,-0.295,0.388,28.735,-24.605,10.5,
39699570,0.46,-0.152,0.326,52.622,-46.865,-21.822,
39699580,0.355,-0.016,0.236,66.08,-67.952,-40.915,
39699590,0.121,0,0.171,69.37,-80.552,-40.057,
39699600,-0.083,0.009,0.112,73.692,-94.937,-28.245,
39699610,-0.128,0.059,0.054,77.875,-108.657,-9.082,
39699620,-0.079,0.043,0.03,75.355,-112.962,15.172,
39699630,-0.074,-0.034,0.022,71.05,-106.802,37.362,
39699640,-0.101,-0.101,0.055,68.232,-99.767,51.467,
39699650,-0.146,-0.137,0.089,65.73,-98.787,57.977,
39699660,-0.066,-0.21,0.134,62.545,-99.4,60.795,
39699670,-0.038,-0.268,0.154,59.307,-95.9,59.167,
39699680,-0.089,-0.307,0.168,59.535,-91.052,50.032,
39699690,-0.159,-0.311,0.219,57.732,-84.962,40.425,
39699700,-0.231,-0.374,0.293,53.497,-76.615,33.232,
39699710,-0.272,-0.45,0.37,50.4,-63.63,29.61,
39699720,-0.287,-0.504,0.464,48.037,-47.565,25.935,
39699730,-0.275,-0.616,0.578,45.185,-27.545,21.367,
39699740,-0.23,-0.799,0.697,43.435,-4.882,16.66,
39699750,-0.161,-0.973,0.79,45.272,15.89,9.87,
39699760,-0.083,-1.101,0.879,48.86,34.265,2.415,
39699760,-0.064,-1.29,0.978,54.005,49.017,-6.352,
39699780,0.041,-0.926,1.113,56.647,67.2,-12.39,
39699780,0.014,-1.383,1.281,45.745,98.945,27.142,
39699800,0.404,-1.758,1.411,52.29,118.702,18.567,
39699800,0.315,-1.549,1.375,63.035,127.12,3.01,
39699810,0.35,-1.523,1.314,71.295,123.095,-7.017,
39699820,0.297,-1.469,1.161,74.322,105.98,-35.857,
39699830,0.183,-1.246,1.008,78.505,98.192,-51.205,
39699840,0.136,-1.267,0.969,73.675,106.487,-40.162,
39699850,0.224,-1.428,1.002,63.682,116.567,-19.565,
39699860,0.394,-1.603,1.059,62.492,119.035,-3.727,
39699870,0.509,-1.662,1.066,64.295,114.747,-1.347,
39699880,0.55,-1.664,1.045,65.38,108.622,1.155,
39699890,0.559,-1.667,0.976,60.392,97.545,4.69,
39699900,0.569,-1.621,0.884,54.477,78.47,4.235,
39699910,0.586,-1.495,0.723,50.295,55.37,-2.8,
39699920,0.604,-1.319,0.583,47.057,40.582,-8.47,
39699930,0.427,-1.193,0.421,41.44,33.232,-10.342,
39699940,0.269,-0.997,0.265,38.937,22.172,-10.657,
39699950,0.18,-0.778,0.179,36.05,11.025,-7.875,
39699960,0.148,-0.601,0.185,32.165,7.087,0.332,
39699970,0.22,-0.516,0.312,29.855,18.06,14.595,
39699980,0.286,-0.638,0.525,30.992,36.645,28.017,
39699990,0.265,-0.809,0.658,39.077,40.197,25.182,
39700000,0.262,-0.844,0.69,56.262,25.462,3.797,
39700010,0.199,-0.809,0.664,70.822,10.377,-17.29,
39700020,0.093,-0.802,0.632,72.87,2.047,-24.01,
39700030,-0.029,-0.824,0.568,66.5,-8.575,-20.422,
39700040,-0.082,-0.759,0.476,58.677,-23.59,-11.13,
39700050,-0.111,-0.693,0.36,47.547,-36.242,4.935,
39700060,-0.124,-0.63,0.265,33.215,-46.235,22.05,
39700070,-0.058,-0.586,0.251,18.06,-51.415,39.077,
39700080,-0.076,-0.577,0.243,4.462,-57.662,50.505,
39700080,0.002,-0.498,0.261,-3.885,-63.332,54.477,
39700100,0.043,-0.464,0.281,-9.24,-61.757,56.472,
39700100,-0.054,-0.489,0.236,-11.515,-62.195,52.535,
39700120,-0.115,-0.415,0.201,-10.867,-68.582,45.115,
39700120,-0.117,-0.397,0.143,-17.342,-76.597,39.83,
39700140,-0.088,-0.407,0.089,-26.88,-77.14,37.537,
39700140,-0.191,-0.345,-0.227,-35.157,-91.49,27.545,
39700160,0.052,-0.145,-0.236,-62.265,-112.63,5.547,
39700160,0.195,-0.338,-0.111,-105.595,-114.66,-14.805,
39700170,-0.025,-0.466,-0.015,-127.277,-115.15,-47.67,
39700180,0.121,-0.493,0.377,-141.575,-105.892,-79.94,
39700190,0.082,-0.654,0.616,-140.385,-78.277,-90.842,
39700200,0.065,-0.55,0.838,-122.552,-62.107,-113.032,
39700210,0.062,-0.62,1.067,-111.93,-45.552,-127.54,
39700220,-0.155,-0.815,1.037,-92.067,-31.99,-124.285,
39700230,-0.279,-0.639,1.02,-69.545,-30.66,-118.177,
39700240,-0.288,-0.597,1.274,-64.505,-29.645,-97.44,
39700250,-0.425,-0.96,1.423,-56.91,-21.402,-54.792,
39700260,-0.116,-1.235,1.164,-31.78,-7.875,-8.61,
39700270,0.269,-1.415,1.188,-61.425,27.615,-14.595,
39700280,-0.418,-1.188,1.233,2.73,24.045,-14,
39700290,0.02,-1.299,0.938,10.377,24.185,27.002,
39700300,0.793,-1.576,0.846,5.285,32.97,48.405,
39700310,0.666,-1.526,0.915,7.122,52.797,28.472,
39700320,0.559,-1.378,0.917,3.955,60.9,17.657,
39700330,0.904,-1.471,1.145,-5.67,66.29,9.117,
39700340,0.721,-1.538,1.414,-6.422,75.67,-11.445,
39700350,0.146,-1.505,1.432,-8.19,76.545,-21.98,
39700360,0.072,-1.346,1.389,-9.45,67.41,-10.832,
39700370,0.171,-1.291,1.399,-9.45,69.667,20.72,
39700380,0.217,-1.194,1.398,-10.92,81.637,45.745,
39700390,0.576,-0.868,1.384,-9.887,95.27,58.065,
39700400,1.28,-0.707,1.454,-5.022,110.705,54.495,
39700410,1.51,-0.845,1.478,3.237,112.175,17.605,
39700420,1.277,-0.768,1.318,24.22,88.847,-47.372,
39700430,0.947,-0.531,1.071,43.592,58.275,-99.435,
39700440,0.641,-0.372,0.856,48.877,32.427,-113.54,
39700450,0.357,-0.309,0.696,47.145,15.067,-97.387,
39700460,0.257,-0.199,0.526,48.37,2.03,-65.975,
39700470,0.33,-0.061,0.415,45.167,-5.862,-26.792,
39700480,0.369,-0.153,0.382,34.842,-9.905,15.68,
39700480,0.361,-0.252,0.336,27.667,-19.04,52.78,
39700500,0.462,-0.24,0.224,29.505,-33.862,79.782,
39700500,0.572,-0.172,0.141,28.315,-47.285,91.49,
39700510,0.551,-0.099,0.143,21.805,-55.405,87.325,
39700520,0.492,-0.04,0.199,18.83,-60.97,69.422,
39700530,0.329,-0.025,0.196,22.557,-65.905,45.71,
39700540,0.119,-0.048,0.102,31.78,-70.385,23.712,
39700550,-0.039,-0.059,-0.028,43.207,-72.555,10.815,
39700560,-0.155,-0.095,-0.142,49,-74.637,8.47,
39700570,-0.2,-0.144,-0.189,47.495,-75.722,12.617,
39700580,-0.286,-0.198,-0.17,43.645,-75.477,19.232,
39700590,-0.44,-0.272,-0.149,39.34,-73.692,27.405,
39700600,-0.497,-0.343,-0.106,33.915,-69.265,42.735,
39700610,-0.258,-0.441,-0.022,22.365,-56.28,66.132,
39700620,0.116,-0.61,0.088,3.552,-29.417,88.147,
39700630,0.261,-0.901,0.39,-19.11,-0.262,84.752,
39700640,0.084,-1.249,0.644,-35.787,9.135,60.602,
39700650,-0.007,-1.262,0.817,-40.705,-2.345,31.78,
39700660,-0.073,-1.264,0.807,-48.055,-19.442,15.61,
39700670,-0.162,-1.314,0.92,-61.915,-24.132,15.75,
39700680,-0.287,-1.39,1.185,-79.765,-19.757,26.46,
39700690,-0.301,-1.44,1.535,-92.015,-12.775,44.432,
39700700,-0.106,-1.475,1.958,-94.587,-3.535,64.172,
39700710,-0.299,-1.746,1.982,-85.872,-3.255,83.667,
39700720,-0.065,-1.735,1.89,-75.547,-15.015,69.842,
39700730,0.039,-1.687,1.74,-74.532,-15.802,22.522,
39700740,-0.238,-1.529,1.605,-68.6,-1.015,-31.797,
39700750,-0.613,-1.225,1.462,-59.01,11.112,-62.667,
39700760,-0.592,-1.04,1.281,-54.495,19.757,-58.94,
39700770,-0.319,-1.052,1.066,-43.837,33.337,-35.105,
39700780,0.054,-0.922,0.882,-25.147,55.79,-16.677,
39700790,0.27,-0.652,0.743,-14.14,74.935,-3.115,
39700800,0.592,-0.569,0.6,-7.7,85.05,17.535,
39700810,0.978,-0.466,0.697,-9.065,89.425,58.31,
39700820,1.359,-0.695,0.926,-16.152,88.847,109.725,
39700830,1.735,-0.927,0.826,7.525,72.45,130.655,
39700830,1.899,-0.862,0.701,40.512,45.29,93.1,
39700850,1.531,-0.879,0.637,54.127,11.637,21.717,
39700850,1.103,-1.06,0.544,65.817,-21.035,-41.877,
39700870,0.741,-1.084,0.442,77.77,-37.887,-70.332,
39700870,0.468,-0.964,0.325,80.955,-47.932,-70.997,
39700890,0.401,-0.952,0.237,71.067,-55.492,-56.035,
39700890,0.404,-0.954,0.222,60.305,-59.745,-46.025,
39700910,0.256,-0.854,0.185,53.585,-63.507,-49.682,
39700910,0.186,-0.725,0.131,46.847,-67.217,-61.845,
39700920,0.217,-0.645,0.106,39.095,-64.855,-75.722,
39700930,0.084,-0.618,0.091,30.275,-57.54,-90.23,
39700940,-0.118,-0.529,0.087,20.807,-55.23,-101.815,
39700950,-0.182,-0.423,0.047,10.465,-55.562,-102.217,
39700960,-0.2,-0.332,-0.036,-1.277,-52.29,-91.63,
39700970,-0.197,-0.25,-0.093,-12.53,-44.257,-77.717,
39700980,-0.209,-0.191,-0.083,-21.962,-33.267,-62.177,
39700990,-0.261,-0.178,-0.055,-30.502,-25.445,-46.48,
39701000,-0.213,-0.118,-0.027,-34.177,-23.905,-33.145,
39701010,-0.148,-0.092,0.009,-35.63,-21.77,-20.335,
39701020,-0.123,-0.119,0.03,-37.467,-19.302,-10.29,
39701030,-0.057,-0.134,0.058,-36.925,-17.045,-5.005,
39701040,-0.006,-0.149,0.092,-35.875,-15.277,-4.095,
39701050,0.006,-0.181,0.156,-35.472,-12.372,-6.247,
39701060,-0.001,-0.256,0.284,-37.747,-8.102,-10.552,
39701070,-0.042,-0.333,0.422,-39.287,-2.835,-14.122,
39701080,-0.013,-0.362,0.598,-38.92,2.345,-17.01,
39701090,0.002,-0.468,0.799,-36.172,8.627,-21.105,
39701100,-0.076,-0.606,0.989,-27.457,14.595,-26.617,
39701110,-0.152,-0.68,1.113,-14.385,17.622,-30.38,
39701120,-0.207,-0.822,1.178,-4.847,19.81,-23.747,
39701130,-0.155,-0.958,1.238,0.805,25.76,-5.792,
39701140,-0.123,-1.074,1.354,-0.665,34.457,20.492,
39701150,0.002,-1.348,1.534,-4.935,44.012,44.992,
39701160,0.169,-1.196,1.462,-17.097,54.39,63.297,
39701170,0.288,-1.858,1.5,-20.807,68.39,95.007,
39701170,0.543,-1.998,1.478,-15.697,71.575,56.332,
39701190,0.438,-1.923,1.449,-4.847,78.067,43.96,
39701190,0.472,-1.998,1.454,-21.437,83.37,47.827,
39701210,0.571,-1.998,1.51,-39.742,80.902,47.862,
39701210,0.722,-1.998,1.58,-49.945,81.515,45.85,
39701230,0.745,-1.998,1.598,-55.877,79.66,36.732,
39701230,0.708,-1.998,1.557,-55.02,67.357,16.817,
39701250,0.652,-1.92,1.438,-53.2,46.147,-7.805,
39701250,0.598,-1.655,1.247,-48.142,25.935,-29.557,
39701260,0.471,-1.316,1.021,-45.71,12.372,-38.692,
39701270,0.351,-1.045,0.803,-49.927,-2.572,-36.172,
39701280,0.364,-0.851,0.588,-52.43,-22.907,-28.542,
39701290,0.389,-0.69,0.375,-54.6,-40.81,-20.877,
39701300,0.374,-0.553,0.226,-56.752,-53.287,-17.08,
39701310,0.315,-0.47,0.121,-59.132,-57.575,-15.225,
39701320,0.223,-0.369,0.02,-59.71,-59.027,-11.97,
39701330,0.158,-0.29,-0.107,-61.18,-61.162,-7.402,
39701340,0.119,-0.219,-0.242,-62.58,-67.112,-0.647,
39701350,0.158,-0.143,-0.33,-63.035,-70.577,7.385,
39701360,0.153,-0.131,-0.385,-63.402,-70.42,12.635,
39701370,0.111,-0.107,-0.411,-62.142,-68.827,14.577,
39701380,0.105,-0.068,-0.421,-60.077,-67.9,15.295,
39701390,0.045,-0.071,-0.434,-59.972,-67.602,15.277,
39701400,-0.011,-0.065,-0.462,-59.01,-71.137,11.76,
39701410,0.015,-0.024,-0.476,-56.315,-72.362,7.752,
39701420,0.005,-0.013,-0.482,-55.177,-69.247,5.127,
39701430,-0.028,0.009,-0.475,-53.865,-65.555,2.94,
39701440,-0.01,0.025,-0.419,-53.13,-61.162,0.07,
39701450,-0.017,0.011,-0.344,-53.182,-55.142,-2.537,
39701460,-0.005,0.029,-0.268,-52.15,-49.805,-6.23,
39701470,0.013,0.064,-0.188,-52.727,-44.87,-8.925,
39701480,0.041,0.042,-0.052,-57.575,-38.57,-8.05,
39701490,-0.026,-0.012,0.12,-64.067,-31.342,-2.415,
39701500,0.084,-0.105,0.3,-71.802,-22.82,10.167,
39701510,0.24,-0.183,0.453,-78.155,-13.09,24.552,
39701520,0.416,-0.227,0.649,-82.355,-3.605,25.97,
39701530,0.388,-0.387,0.813,-83.125,2.59,9.555,
39701540,0.36,-0.466,0.869,-73.062,5.442,-17.92,
39701550,0.346,-0.412,0.878,-58.94,6.002,-48.16,
39701560,0.191,-0.501,0.866,-51.467,10.307,-71.715,
39701570,-0.003,-0.561,0.927,-46.48,17.342,-83.597,
39701580,-0.169,-0.706,1.011,-39.217,24.657,-79.397,
39701580,-0.176,-0.856,1.099,-27.072,34.667,-54.407,
39701600,-0.114,-0.933,1.263,-12.512,42.052,-16.52,
39701600,-0.038,-1.188,1.435,-0.507,42.157,25.9,
39701620,0.102,-1.484,1.503,13.317,38.325,62.772,
39701620,0.291,-1.653,1.544,26.11,37.187,81.69,
39701640,0.371,-1.844,1.499,33.092,38.395,76.107,
39701640,0.408,-1.941,1.394,46.585,37.8,53.707,
39701660,0.494,-1.919,1.233,68.337,40.022,19.635,
39701660,0.407,-1.562,1.061,79.362,48.335,-19.285,
39701670,0.088,-1.941,0.997,63.315,62.72,-1.68,
39701680,0.261,-1.977,0.97,38.517,61.915,-53.112,
39701690,-0.1,-1.718,0.997,70.07,70.665,-17.797,
39701700,-0.219,-1.351,0.949,74.182,71.54,27.562,
39701710,-0.381,-1.395,0.852,59.587,65.572,81.042,
39701720,-0.137,-1.13,0.781,60.742,62.335,114.1,
39701730,0.693,-0.862,0.914,56.437,93.695,152.967,
39701740,1.118,-1.378,1.311,38.097,139.387,152.915,
39701750,0.887,-1.827,1.498,56.245,145.18,84.717,
39701760,0.762,-1.544,1.318,106.767,114.8,19.53,
39701770,0.856,-1.327,0.859,132.597,82.04,-17.01,
39701780,0.732,-1.21,0.502,131.39,72.082,-29.137,
39701790,0.426,-1.099,0.286,121.625,65.1,-24.132,
39701800,0.267,-0.902,0.131,111.387,45.99,-3.43,
39701810,0.231,-0.898,-0.094,103.477,21.087,27.58,
39701820,0.149,-0.71,-0.316,104.51,-3.062,57.05,
39701830,0.061,-0.565,-0.475,93.887,-20.965,94.342,
39701840,-0.002,-0.593,-0.584,74.095,-37.607,126.315,
39701850,-0.038,-0.587,-0.655,59.657,-52.167,155.33,
39701860,0,-0.502,-0.678,51.205,-63.122,168.595,
39701870,0.031,-0.403,-0.675,47.967,-65.082,169.505,
39701880,0.033,-0.29,-0.652,46.76,-60.217,162.05,
39701890,0.05,-0.205,-0.622,45.132,-53.777,144.287,
39701900,0.102,-0.131,-0.572,43.89,-45.902,120.155,
39701910,0.126,-0.071,-0.468,43.382,-36.767,90.965,
39701920,0.102,-0.03,-0.328,45.447,-28.525,59.325,
39701920,0.07,-0.018,-0.209,51.065,-22.015,27.335,
39701940,-0.01,0.014,-0.128,60.76,-16.695,-4.27,
39701940,-0.144,0.039,-0.072,67.76,-13.825,-32.9,
39701960,-0.184,0.015,0.002,70.052,-5.162,-50.89,
39701960,-0.28,-0.063,0.081,68.425,10.552,-59.535,
39701980,-0.398,-0.156,0.204,61.547,30.047,-61.075,
39701980,-0.511,-0.258,0.369,48.335,48.597,-53.672,
39702000,-0.464,-0.378,0.538,31.552,68.6,-35.787,
39702000,-0.354,-0.56,0.747,15.855,89.705,-12.775,
39702010,-0.384,-0.871,0.884,7.332,101.587,1.102,
39702020,-0.355,-1.133,0.899,7.56,109.165,19.285,
39702030,-0.046,-1.3,0.842,9.817,118.212,47.407,
39702040,0.119,-1.525,0.786,-12.582,128.887,82.722,
39702050,0.179,-1.993,1.036,-27.457,116.952,89.267,
39702060,0.399,-1.998,1.359,-37.835,93.957,59.395,
39702070,0.483,-1.998,1.573,-31.85,78.067,67.865,
39702080,0.583,-1.998,1.58,-27.3,54.075,42.822,
39702090,0.663,-1.998,1.405,-22.347,35.542,2.047,
39702100,0.588,-1.998,1.312,-25.217,31.71,-44.625,
39702110,0.186,-1.998,1.312,-37.712,33.547,-90.44,
39702120,-0.131,-1.998,1.291,-53.515,32.165,-112.805,
39702130,-0.16,-1.921,1.236,-63.787,31.815,-116.375,
39702140,-0.178,-1.567,1.173,-77.542,37.765,-110.075,
39702150,-0.21,-1.286,1.163,-90.475,48.002,-98.28,
39702160,-0.19,-1.035,1.148,-91.332,53.392,-92.155,
39702170,-0.145,-0.763,1.131,-83.965,55.632,-86.642,
39702180,-0.177,-0.534,1.126,-75.722,52.745,-80.15,
39702190,-0.109,-0.327,1.134,-65.082,45.692,-71.505,
39702200,0.001,-0.141,1.113,-49.997,38.552,-58.24,
39702210,0.022,0.035,1.009,-28.857,29.767,-41.352,
39702220,0.096,0.223,0.897,-7.227,17.325,-22.19,
39702230,0.11,0.295,0.794,10.692,6.51,-6.072,
39702240,0.072,0.348,0.687,30.607,-4.025,8.907,
39702250,0.058,0.439,0.616,44.555,-14.455,18.007,
39702260,0.055,0.436,0.554,58.397,-19.075,30.1,
39702270,0.024,0.392,0.53,69.615,-22.365,38.657,
39702280,-0.024,0.33,0.493,78.977,-27.317,44.222,
39702290,-0.019,0.252,0.441,87.15,-31.92,47.442,
39702300,-0.006,0.224,0.393,94.36,-33.967,43.155,
39702310,-0.065,0.218,0.347,99.312,-32.62,33.88,
39702320,-0.153,0.224,0.276,101.85,-28.647,23.8,
39702330,-0.213,0.248,0.204,105.087,-21.752,16.047,
39702330,-0.249,0.252,0.149,106.977,-8.12,16.012,
39702350,-0.295,0.216,0.092,105.98,10.185,23.537,
39702350,-0.34,0.148,0.06,101.64,31.535,39.007,
39702370,-0.327,0.054,0.076,91.402,53.497,63.245,
39702370,-0.242,-0.125,0.185,71.61,72.065,84.997,
39702390,-0.148,-0.413,0.371,52.465,89.145,98.21,
39702390,-0.199,-0.662,0.45,49.49,97.317,99.417,
39702410,-0.232,-0.722,0.428,59.29,88.305,88.322,
39702410,-0.177,-0.685,0.394,58.852,70.525,70.21,
39702420,-0.151,-0.775,0.359,47.442,55.317,50.155,
39702430,-0.258,-0.946,0.305,35.735,45.57,33.355,
39702440,-0.348,-0.905,0.302,24.29,36.802,19.372,
39702450,-0.511,-0.882,0.33,2.327,28.945,16.152,
39702460,-0.607,-0.918,0.393,-23.765,17.972,11.392,
39702470,-0.73,-0.932,0.434,-52.185,7.787,15.435,
39702480,-0.848,-0.973,0.497,-78.645,-3.132,20.615,
39702490,-0.911,-1.044,0.422,-98.56,-11.742,27.335,
39702500,-0.894,-0.866,0.496,-109.427,-17.465,30.642,
39702510,-0.875,-0.75,0.563,-123.585,-19.425,29.067,
39702520,-0.607,-0.928,0.767,-122.062,-16.52,-3.727,
39702530,-0.757,-0.623,1.102,-168.857,8.067,-55.247,
39702540,-0.743,-1.091,1.614,-122.342,53.812,9.73,
39702550,-0.797,-1.412,1.932,-46.812,127.295,72.642,
39702560,-1.15,-1.611,1.734,69.737,162.47,150.517,
39702570,-1.213,-1.321,1.583,145.285,158.217,132.247,
39702580,-1.071,-0.953,1.361,155.312,126.875,105.21,
39702590,-0.668,-0.718,1.182,160.37,90.317,109.777,
39702600,-0.238,-1.152,0.935,151.48,68.67,110.075,
39702610,-0.012,-1.718,0.595,140.28,59.412,78.505,
39702620,0.192,-1.839,0.332,127.435,53.69,31.237,
39702630,0.253,-1.906,0.379,89.74,35.07,-25.76,
39702640,0.527,-1.998,0.682,59.342,15.172,-72.432,
39702650,0.922,-1.998,0.417,81.637,10.64,-88.392,
39702660,1.039,-1.714,-0.194,128.642,-15.82,-107.31,
39702670,1.376,-0.876,-0.527,108.972,-48.842,-167.895,
39702670,1.392,-0.831,-0.284,31.202,-38.972,-194.757,
39702690,0.694,-1.166,-0.067,-27.475,-21.07,-199.675,
39702690,-0.112,-0.485,-0.178,-23.555,-51.852,-191.94,
39702710,-0.149,0.062,-0.467,-32.112,-117.722,-164.587,
39702710,-1.024,0.287,1.317,-8.295,-164.85,-56.892,
39702730,-1.957,0.854,0.055,106.172,-170.432,74.882,
39702730,1.613,0.829,0.925,324.817,-162.452,284.83,
39702750,-1.264,-1.998,0.47,154.577,-181.142,244.195,
39702750,-0.992,0.811,0.807,282.082,-160.755,76.352,
39702760,-0.362,-0.125,1.13,273.7,-137.935,12.95,
39702770,-0.23,-0.289,1.178,281.732,-122.15,-35.525,
39702780,0.163,0.045,1.278,261.047,-118.282,-64.487,
39702790,0.625,-0.003,1.313,205.712,-106.837,-36.732,
39702800,0.556,0.06,1.237,144.357,-76.23,-4.97,
39702810,0.151,-0.009,1.117,77.56,-38.412,15.102,
39702820,-0.022,-0.121,1.043,36.575,-13.317,9.975,
39702830,0.006,-0.168,1.012,13.142,3.045,-6.177,
39702840,0.025,-0.296,0.971,0.035,13.86,-16.275,
39702850,0.044,-0.244,0.979,-7.175,22.977,-15.942,
39702860,-0.013,-0.213,0.985,-16.45,31.08,-8.417,
39702870,-0.15,-0.268,0.963,-25.13,36.785,0.402,
39702880,-0.274,-0.291,0.949,-27.755,36.82,0.035,
39702890,-0.224,-0.16,0.987,-27.282,34.072,-5.74,
39702900,-0.278,-0.347,0.953,-30.082,31.867,-11.637,
39702910,-0.137,-0.29,0.981,-36.277,27.72,-12.092,
39702920,-0.1,-0.257,1.006,-49.105,28.595,-7.752,
39702930,-0.096,-0.241,1.024,-66.272,33.775,-3.307,
39702940,-0.143,-0.232,1.043,-85.872,42.28,-2.782,
39702950,-0.175,-0.274,1.067,-109.095,58.555,-9.012,
39702960,-0.032,-0.265,1.103,-131.302,76.93,-21.542,
39702970,0.044,-0.317,1.149,-149.992,100.17,-28.245,
39702980,0.141,-0.412,1.186,-164.517,132.16,-29.522,
39702990,0.091,-0.361,1.248,-174.405,165.41,-32.882,
39703000,0.202,-0.4,1.251,-179.112,205.555,-26.897,
39703010,-0.132,-0.676,0.951,-163.117,231.262,-16.1,
39703020,-0.298,-0.866,1.073,-123.952,240.695,-20.335,
39703030,-0.224,-0.939,1.13,-77.087,221.987,-9.135,
39703040,0.724,-0.911,0.617,-24.36,184.537,2.66,
39703050,0.788,-1.793,0.374,-13.02,119.017,-54.53,
39703060,1.998,-1.998,1.624,9.082,3.78,-215.215,
39703070,0.395,-1.952,-0.042,109.427,-13.317,-344.785,
39703080,-0.992,-0.68,-0.526,183.715,-47.845,-457.012,
39703080,-0.899,0.113,-0.721,137.532,-81.41,-447.65,
39703100,-0.486,0.162,-0.561,81.9,-90.492,-346.29,
39703100,-0.585,0.492,-0.902,69.212,-103.6,-240.45,
39703120,-0.566,1.181,-1.412,25.865,-115.412,-179.287,
39703120,-1.248,-0.184,0.309,-28.28,-89.862,-110.985,
39703130,-1.998,-1.952,1.603,119.892,-35.385,102.06,
39703140,1.2,-0.259,-0.111,439.145,-169.767,314.265,
39703150,-0.653,-1.847,1.514,361.742,-53.27,308.945,
39703160,-1.584,1.45,1.571,466.602,-55.79,62.212,
39703170,-1.735,-0.53,1.78,382.27,-125.737,-15.837,
39703180,1.37,1.741,1.518,209.317,-162.662,-38.377,
39703190,0.765,0.47,1.141,36.382,-77.122,-29.487,
39703200,0.502,-0.382,1.028,-39.13,-12.092,-13.667,
39703210,-0.086,-0.538,0.919,-50.645,5.46,-14.875,
39703220,-0.05,-0.535,0.872,-28.7,0.822,-16.24,
39703230,-0.157,-0.412,0.876,-4.305,-4.06,-1.33,
39703240,-0.021,-0.367,0.945,3.605,-8.767,4.847,
39703250,-0.128,-0.13,0.996,7.787,-8.4,5.372,
39703260,0.097,-0.164,0.994,0.07,-10.132,10.272,
39703270,0.005,-0.136,1.012,-10.937,-4.322,19.145,
39703280,-0.031,-0.114,1.046,-24.517,-0.84,23.292,
39703290,-0.001,-0.116,1.085,-43.837,1.155,23.642,
39703300,-0.03,-0.055,1.165,-69.912,2.502,22.312,
39703310,0.01,-0.072,1.196,-107.555,2.327,21.892,
39703320,0.097,0.082,1.213,-149.695,7.297,24.727,
39703330,0.039,-0.397,1.075,-182.857,20.492,30.747,
39703340,0.239,-0.275,1.067,-203.227,24.99,43.837,
39703350,0.275,-0.291,1.03,-220.605,37.677,60.427,
39703360,0.353,-0.365,1.067,-229.04,54.057,76.107,
39703370,0.503,-0.615,1.079,-221.007,77.49,95.252,
39703380,0.528,-0.711,1.025,-202.3,115.797,116.06,
39703390,0.329,-1.152,1.007,-198.292,133.507,144.392,
39703400,0.784,-1.832,0.597,-173.057,103.897,175.997,
39703410,0.221,-1.998,-0.303,-120.505,53.515,260.697,
39703420,1.279,-1.998,-0.481,-49.297,-19.495,293.947,
39703420,1.733,-1.998,-0.486,-92.75,-104.422,225.347,
39703440,1.322,-1.998,-0.186,-135.922,-150.482,157.237,
39703440,0.259,-1.951,-0.111,-174.44,-171.115,114.485,
39703460,0.025,-1.473,0.114,-207.427,-193.76,105.472,
39703460,0.103,-0.836,0.361,-229.022,-204.487,141.872,
39703480,0.588,0.419,0.26,-234.29,-204.732,168,
39703480,1.307,1.938,0.244,-215.67,-188.265,144.34,
39703500,0.993,1.987,0.26,-197.032,-167.632,105.385,
39703500,-0.038,1.997,1.387,-131.11,-169.61,42.805,
39703510,-1.91,1.986,1.998,64.645,-114.887,122.605,
39703520,-0.7,-0.395,1.998,405.737,-128.52,308.7,
39703530,-1.718,-1.998,-0.051,521.57,-102.235,467.162,
39703540,0.087,1.188,1.679,334.827,-235.41,266.735,
39703550,-1.553,-0.046,1.325,443.327,-168.682,8.802,
39703560,-0.233,0.097,1.539,400.855,-137.707,-112.402,
39703570,-0.054,0.45,1.63,328.265,-117.722,-179.497,
39703580,1.233,0.475,1.532,231.927,-117.932,-166.232,
39703590,1.4,0.425,1.19,136.115,-82.075,-80.955,
39703600,0.418,0.036,1.112,40.057,-12.617,14.28,
39703610,-0.293,0.006,1.105,-6.317,18.025,35.455,
39703620,-0.411,-0.116,1.081,-30.555,13.877,11.602,
39703630,-0.277,-0.335,1.037,-42.122,0.507,-13.667,
39703640,-0.067,-0.227,0.954,-43.82,-10.885,-23.45,
39703650,0.001,-0.13,0.984,-46.917,-11.06,-16.957,
39703660,-0.239,-0.32,1.102,-60.812,-5.022,-21.122,
39703670,-0.199,-0.216,1.108,-80.447,-13.737,-23.817,
39703680,-0.24,-0.191,1.119,-102.34,-22.137,-32.812,
39703690,-0.26,-0.257,1.127,-129.85,-28.787,-44.257,
39703700,-0.28,-0.301,1.138,-162.172,-33.407,-59.412,
39703710,-0.382,-0.305,1.147,-193.882,-41.965,-76.807,
39703720,-0.575,-0.376,1.186,-221.165,-57.137,-90.807,
39703730,-0.521,-0.51,1.086,-231.175,-73.622,-106.05,
39703740,-0.887,-0.739,0.911,-217.7,-82.407,-136.622,
39703750,-0.817,-1.07,0.587,-198.467,-107.345,-177.975,
39703760,-0.198,-0.731,0.909,-200.235,-60.182,-216.475,
39703770,0.151,-1.321,0.736,-182.577,51.012,-230.02,
39703780,-1.997,-1.548,1.028,-173.827,172.445,-174.492,
39703790,-1.413,-1.002,0.648,-125.667,145.215,-196.297,
39703800,-1.998,-0.218,0.375,-132.51,126.875,-62.107,
39703800,-1.849,0.474,0.6,-106.977,169.715,119.91,
39703820,-0.131,1.879,0.862,-3.797,147.157,270.777,
39703820,1.218,0.757,0.422,67.357,138.932,375.27,
39703830,1.74,0.298,0.126,102.305,166.512,270.935,
39703840,0.983,0.658,-0.154,47.792,172.34,112.507,
39703850,0.496,0.108,0.199,23.957,164.43,43.242,
39703860,1.998,-1.896,1.127,182.647,82.565,1.872,
39703870,0.499,-1.998,-0.625,241.832,-62.737,-168.98,
39703880,-1.184,0.065,0.833,233.642,23.695,-263.2,
39703890,1.94,1.991,1.365,224.717,38.342,-106.61,
39703900,0.286,-1.442,1.45,291.13,35.07,137.917,
39703910,-0.348,-0.445,1.427,343.367,14.297,173.687,
39703920,-1.612,0.278,1.3,305.322,-34.965,127.54,
39703930,-1.664,0.133,1.302,216.02,-59.815,77.052,
39703940,-0.854,0.141,1.232,160.475,-76.09,-39.62,
39703950,0.636,0.41,1.284,102.9,-75.862,-97.912,
39703960,0.561,0.509,1.2,27.667,-29.68,-94.202,
39703970,0.4,-0.143,1.161,-46.62,21.822,-66.342,
39703980,0.132,-0.1,1.189,-94.185,53.217,-48.51,
39703990,-0.047,0.014,1.166,-134.102,72.73,-43.225,
39704000,-0.323,-0.307,0.965,-163.975,87.132,-45.832,
39704010,-0.301,-0.466,0.811,-158.462,85.575,-59.71,
39704020,-0.326,-0.639,0.706,-120.977,70.665,-48.055,
39704030,-0.118,-0.695,0.736,-96.337,57.19,-48.545,
39704040,-0.06,-0.552,0.728,-72.572,45.342,-34.912,
39704050,0.009,-0.547,0.775,-50.89,37.817,-10.43,
39704060,-0.046,-0.512,0.849,-30.66,37.992,5.442,
39704070,-0.137,-0.404,0.928,-17.64,44.38,11.375,
39704080,-0.262,-0.373,0.958,-15.907,52.552,13.86,
39704090,-0.337,-0.374,0.97,-17.115,57.54,10.045,
39704100,-0.376,-0.336,0.959,-18.812,58.467,2.852,
39704110,-0.441,-0.322,0.979,-27.02,58.012,-5.652,
39704120,-0.411,-0.275,1.015,-42.35,57.942,-17.272,
39704130,-0.399,-0.265,1.02,-59.325,57.487,-29.295,
39704140,-0.361,-0.216,1.02,-72.905,47.215,-45.377,
39704150,-0.338,-0.256,0.952,-82.67,37.87,-53.235,
39704160,-0.349,-0.429,0.899,-88.847,33.337,-54.512,
39704170,-0.321,-0.609,0.897,-76.58,36.435,-56.157,
39704170,-0.414,-0.608,0.93,-52.062,42.98,-57.015,
39704190,-0.199,-0.529,1.006,-30.292,45.797,-62.842,
39704190,0.164,-0.454,1.215,-4.707,53.97,-79.275,
39704210,0.649,-0.568,1.592,34.877,69.16,-115.08,
39704210,-0.623,-0.958,1.129,78.435,69.58,-172.847,
39704230,-1.08,-0.558,1.195,108.955,9.73,-237.247,
39704230,-0.849,-0.128,0.652,98.875,-3.167,-221.725,
39704250,-0.921,-0.266,0.457,54.145,23.695,-139.265,
39704250,-1.103,-0.599,0.521,-20.23,35.28,-65.992,
39704260,-0.479,-0.797,0.533,-49.262,29.697,-9.31,
39704270,-0.322,-1.118,0.559,-68.81,35.735,25.865,
39704280,-0.466,-1.287,0.601,-75.81,31.815,41.002,
39704290,-0.219,-0.928,0.376,-54.075,-7.052,37.572,
39704300,0.372,-0.594,0.063,-46.83,-40.355,26.932,
