#Format version: 1.0
time[ms],accX[g],accY[g],accZ[g],Value 1,Value 2,Value 3,
37506360,0.005,-0.047,1.003,0.822,0.84,0.997,
37506370,0.028,-0.052,1.006,2.66,2.782,0.437,
37506380,0.003,-0.042,1.005,5.197,5.897,0.315,
37506390,-0.021,-0.032,1.004,7.507,6.755,-0.98,
37506400,-0.089,-0.013,1.023,9.555,7.122,-0.7,
37506410,-0.128,-0.022,1.025,10.552,2.047,-0.647,
37506420,-0.074,-0.021,0.989,12.617,-2.135,1.085,
37506430,-0.013,0,0.952,14.647,-2.117,3.062,
37506440,-0.047,0.015,0.963,13.895,1.557,2.52,
37506450,-0.017,-0.006,0.971,11.532,3.307,0.175,
37506460,0.052,0.018,0.933,10.745,8.75,-2.66,
37506470,0.058,0.083,0.903,9.17,18.235,-4.865,
37506480,0.001,0.157,0.864,4.69,26.407,-6.02,
37506490,-0.042,0.24,0.813,-1.767,26.267,-6.475,
37506500,0.016,0.26,0.7,-10.92,20.44,-5.67,
37506510,0.241,0.424,0.882,-19.932,16.607,-2.485,
37506510,0.006,0.087,1.101,-35.262,19.652,-2.572,
37506530,-0.597,-0.333,1.177,-32.567,18.34,-10.675,
37506530,-0.588,-0.453,1.027,-15.522,2.8,-10.92,
37506550,-0.05,-0.29,0.938,-6.142,-12.67,-9.52,
37506550,0.174,-0.215,0.986,6.842,-10.045,-13.335,
37506570,-0.008,-0.101,1.033,17.22,2.45,-9.94,
37506570,-0.024,0.075,1.005,17.692,10.255,0.42,
37506580,0.12,0.123,0.95,17.01,14.927,11.322,
37506590,-0.009,0.032,1.003,18.392,20.685,12.32,
37506600,-0.449,0.117,1.009,19.74,17.5,7.945,
37506610,-0.391,0.139,0.99,9.31,-1.085,6.65,
37506620,-0.074,-0.034,0.995,-1.662,-16.695,4.34,
37506630,0.01,0,1.021,-2.712,-16.712,0.997,
37506640,-0.111,0.126,0.998,-1.925,-12.547,2.817,
37506650,-0.012,-0.075,0.999,-7,-11.41,7.927,
37506660,-0.107,-0.057,0.992,-3.395,-6.895,7.77,
37506670,-0.117,0.064,1.005,-3.377,-6.09,5.407,
37506680,-0.109,0.088,1.016,-9.59,-6.947,3.325,
37506690,-0.103,0.072,1.033,-17.727,-7.157,-0.122,
37506700,-0.002,0.069,1.07,-26.25,-4.445,-2.537,
37506710,-0.019,0.09,1.113,-34.335,2.24,-4.55,
37506720,-0.101,0.176,1.194,-45.412,9.765,-7.262,
37506730,0.042,0.16,1.271,-65.555,19.075,-12.582,
37506740,0.099,0.166,1.355,-96.11,42.21,-20.772,
37506750,-0.299,0.146,1.314,-130.48,72.537,-31.85,
37506760,-0.033,0.015,1.299,-174.387,82.757,-42.262,
37506770,0.25,-0.094,1.407,-206.727,97.58,-53.165,
37506780,0.398,-0.108,1.642,-230.107,124.53,-62.982,
37506790,1.087,-0.756,1.758,-256.025,190.907,-74.2,
37506800,0.972,-1.108,1.955,-225.575,265.09,-54.74,
37506810,-0.151,-0.597,1.464,-141.347,242.112,-74.48,
37506820,-0.392,-1.694,1.313,-135.38,87.307,-117.232,
37506830,1.466,-1.998,1.005,-72.45,-2.432,-171.062,
37506840,0.368,-1.565,1.127,47.74,47.775,-255.64,
37506850,-1.946,-0.618,0.012,151.9,49.665,-331.03,
37506860,-1.998,0.333,-0.283,138.512,55.422,-217.735,
37506870,-1.935,0.381,-0.417,77.577,25.392,-64.662,
37506880,-1.269,0.192,-0.375,39.357,10.5,77.332,
37506890,-0.427,0.136,-0.517,25.97,-6.93,168.437,
37506900,0.299,0.043,-0.62,3.797,-26.127,211.575,
37506910,0.791,0.005,-0.392,-39.9,-36.382,203.612,
37506910,0.902,-0.048,-0.161,-71.68,-48.09,159.25,
37506920,0.776,0.229,-0.201,-61.687,-75.092,104.387,
37506930,0.636,0.563,-0.49,-54.74,-103.547,51.415,
37506940,0.276,0.697,-0.742,-68.442,-119.577,12.582,
37506950,-0.09,0.65,-1.008,-88.095,-134.435,-12.477,
37506960,-0.497,0.529,-1.105,-118.93,-157.972,-24.92,
37506970,-0.62,-0.044,-0.799,-180.582,-187.53,-37.082,
37506980,-0.834,-0.839,0.822,-238.315,-195.667,-37.957,
37506990,-1.833,-1.998,1.998,-151.935,-380.642,-80.377,
37507000,1.496,-0.991,-1.356,442.785,-72.975,-17.762,
37507010,-1.021,1.997,0.95,530.547,-11.655,37.677,
37507020,1.998,1.043,1.486,293.387,-103.88,-83.037,
37507030,1.069,-1.681,1.985,316.33,-51.73,-68.145,
37507040,1.592,1.059,1.996,357.507,53.9,13.23,
37507050,-0.319,0.999,1.693,223.3,117.005,27.702,
37507060,-1.751,1.902,1.095,85.592,103.425,47.162,
37507070,-1.26,0.952,1.205,-39.445,5.46,34.912,
37507080,-0.4,0.307,1.163,-112.56,-57.942,4.83,
37507090,0.116,-0.768,0.934,-129.097,-74.97,-13.107,
37507100,-0.026,-0.826,0.841,-101.815,-64.592,-25.252,
37507110,0.403,-0.335,0.754,-64.645,-52.202,-15.697,
37507120,0.307,-0.519,0.835,-33.547,-31.71,-0.192,
37507130,0.032,-0.265,0.918,-5.127,-14.542,16.45,
37507140,0.062,-0.008,1.114,2.362,-5.565,18.97,
37507150,0.037,0.263,1.297,-14.157,2.03,17.377,
37507160,0.017,0.385,1.502,-57.295,4.34,15.872,
37507170,0.207,0.419,1.624,-117.74,5.547,16.922,
37507180,0.047,0.238,1.56,-181.037,25.305,14.7,
37507190,-0.05,-0.033,1.439,-242.445,43.75,14.875,
37507200,-0.001,0.077,1.434,-281.662,64.68,15.137,
37507210,0.265,0.011,1.503,-296.502,91.77,2.397,
37507220,0.125,-0.376,1.692,-316.417,127.312,-28.28,
37507230,-0.281,-0.658,1.775,-303.275,150.447,-51.607,
37507240,-0.306,-0.512,1.512,-263.935,143.272,-79.31,
37507250,-0.165,-0.746,0.99,-254.607,142.082,-91.262,
37507260,-0.428,-0.732,1.073,-219.73,157.727,-87.727,
37507260,-0.441,-1.226,0.699,-153.737,154.122,-84,
37507280,0.095,-1.064,0.923,-55.09,133.035,-77.997,
37507280,-0.619,-1.202,0.917,42.7,77.577,-80.955,
37507300,-1.304,-0.399,-0.105,202.947,24.482,-38.097,
37507300,-1.069,-0.1,-0.864,250.792,-14.402,81.217,
37507320,-0.722,-0.16,-1.269,204.19,-70.42,142.257,
37507320,-0.016,-0.208,-1.414,136.867,-113.697,160.685,
37507330,0.672,-0.361,-1.158,34.632,-109.917,126.192,
37507340,0.806,-0.524,-0.625,-56.752,-65.66,66.29,
37507350,0.581,-0.407,-0.412,-81.76,-16.205,2.677,
37507360,0.094,-0.124,-0.411,-67.41,10.552,-43.452,
37507370,-0.217,-0.012,-0.608,-62.23,0.507,-62.702,
37507380,-0.215,0.104,-0.813,-67.55,-23.765,-58.257,
37507390,-0.052,0.053,-0.805,-93.607,-36.435,-49.77,
37507400,-0.147,-0.553,-0.32,-129.64,-28.98,-49.35,
37507410,-1.303,-1.548,1.997,-168.735,-60.252,-86.467,
37507420,0.192,-1.754,1.212,110.092,-171.71,-21.63,
37507430,-0.609,-1.296,1.788,318.447,-165.585,1.19,
37507440,1.341,-0.291,-0.139,528.482,-166.022,-136.045,
37507450,-0.415,1.746,1.235,536.147,-15.452,-98,
37507460,0.528,-0.32,1.029,456.4,-34.65,-78.54,
37507470,1.128,-0.72,1.597,469.28,-41.65,-31.5,
37507480,1.84,0.478,1.998,418.897,32.847,26.88,
37507490,-0.056,1,1.791,281.33,151.41,21.63,
37507500,-1.943,1.93,0.624,136.115,137.182,50.75,
37507510,-1.066,0.83,1.312,-74.9,-18.48,28.892,
37507520,-0.742,0.331,1.2,-123.13,-76.562,-16.065,
37507530,-0.233,-0.795,0.942,-154.857,-89.355,-43.295,
37507540,0.348,-1.05,0.757,-120.697,-83.877,-55.422,
37507550,0.277,-0.533,0.628,-73.902,-59.622,-53.952,
37507560,0.66,-0.692,0.737,-28.385,-43.225,-17.395,
37507570,0.306,-0.252,0.939,17.64,-20.16,25.532,
37507580,0.063,-0.018,1.125,29.365,1.82,41.51,
37507580,-0.038,0.171,1.219,13.545,13.002,39.585,
37507600,-0.099,0.318,1.311,-21.297,17.097,33.95,
37507600,0.101,0.328,1.442,-70.805,6.23,34.37,
37507620,0.024,0.29,1.481,-124.757,5.022,37.607,
37507620,-0.045,0.244,1.523,-183.312,11.287,38.045,
37507640,-0.148,0.188,1.477,-248.377,20.737,36.417,
37507640,0.07,0.035,1.36,-304.955,18.095,38.132,
37507660,0.156,0.238,1.324,-341.687,29.26,51.66,
37507660,0.02,-0.034,1.433,-372.662,35.665,39.48,
37507670,-0.47,-0.521,1.637,-399.262,12.88,37.8,
37507680,-0.254,-0.958,1.837,-373.992,-40.53,33.512,
37507690,-0.835,-1.189,1.541,-339.885,-74.55,8.347,
37507700,0.106,-0.687,0.99,-266.665,-87.605,-12.46,
37507710,-0.367,-1.083,0.834,-173.162,-32.147,19.862,
37507720,-1.093,-1.285,0.748,-86.555,-19.495,3.412,
37507730,-1.27,-1.091,0.517,34.667,-71.032,38.85,
37507740,-0.317,-0.689,-0.523,128.292,-92.172,111.562,
37507750,0.1,-0.525,-0.528,115.92,-40.722,133.437,
37507760,0.047,-0.887,0.038,63.875,-0.14,109.112,
37507770,0.153,-0.703,-0.033,103.722,29.925,100.607,
37507780,0.206,-0.254,-0.582,142.555,48.037,84.472,
37507790,0.098,0.072,-1.056,110.32,56.35,42.752,
37507800,0.041,0.017,-0.941,23.607,61.425,-5.582,
37507810,-0.042,-0.136,-0.497,-40.005,63.717,-50.872,
37507820,-0.261,0.053,-0.188,-58.817,72.275,-78.592,
37507830,-0.515,0.536,-0.159,-43.557,74.095,-83.352,
37507840,-0.619,0.901,-0.243,-34.562,60.252,-69.65,
37507850,-0.566,0.906,-0.252,-42.227,42.595,-43.522,
37507860,-0.483,0.781,-0.257,-46.025,27.842,-13.212,
37507870,-0.381,0.579,-0.327,-52.185,6.387,12.442,
37507880,0.18,-0.059,-0.471,-67.462,1.82,29.995,
37507890,0.871,-1.769,1.799,-204.732,9.52,8.68,
37507900,-1.463,-1.998,0.315,299.845,-331.922,-314.492,
37507910,-0.596,0.496,-0.348,556.745,-108.535,-289.03,
37507920,1.098,1.922,0.621,458.202,-60.672,-104.807,
37507930,1.764,-0.526,1.008,442.4,8.277,-88.2,
37507940,0.59,-0.901,1.585,478.047,46.182,-51.537,
37507950,1.63,1.132,1.573,468.387,79.502,118.965,
37507960,-0.069,0.358,1.998,367.272,145.827,155.382,
37507970,-1.875,1.537,1.65,260.365,156.677,122.097,
37507980,-1.753,1.508,1.181,102.497,55.037,48.702,
37507990,-0.706,0.601,1.225,-47.407,-44.625,-34.23,
37508000,-0.016,-0.062,1.019,-96.617,-76.912,-62.79,
37508010,0.162,-0.441,0.918,-96.722,-69.457,-59.325,
37508010,0.414,-0.447,0.904,-74.497,-49.805,-37.327,
37508030,0.301,-0.276,0.929,-53.462,-25.777,-11.917,
37508030,0.091,-0.215,0.934,-34.195,-10.167,11.06,
37508050,-0.112,-0.236,0.982,-24.395,-9.117,22.715,
37508050,-0.089,-0.05,1.084,-23.502,-6.055,22.417,
37508070,-0.053,0.115,1.182,-37.467,-3.517,19.477,
37508070,-0.027,0.15,1.285,-66.307,-0.14,17.78,
37508080,-0.05,0.157,1.367,-105.21,5.215,17.657,
37508090,-0.152,0.156,1.378,-153.562,11.812,19.11,
37508100,-0.197,0.104,1.294,-207.34,12.95,20.335,
37508110,-0.153,-0.224,1.241,-249.567,10.622,15.19,
37508120,-0.119,0.272,1.196,-275.677,17.29,17.57,
37508130,0.186,0.047,1.235,-278.652,31.01,1.522,
37508140,0.075,-0.422,1.358,-320.04,51.66,-17.622,
37508150,-0.032,-0.734,1.588,-332.237,63.49,-35.035,
37508160,-0.207,-1.018,1.754,-314.212,47.285,-55.02,
37508170,-0.525,-1.551,1.225,-271.617,10.78,-74.375,
37508180,-0.761,-0.786,1.224,-220.08,-2.292,-78.697,
37508190,-0.459,-1.589,0.53,-190.435,-11.725,-56.192,
37508200,-0.043,-1.661,0.229,-133.35,32.62,-69.055,
37508210,-0.671,-1.48,0.841,-113.12,78.487,-109.322,
37508220,-0.91,-0.994,0.706,-26.827,68.46,-130.217,
37508230,-0.754,0.021,0.272,79.8,76.212,-84.892,
37508240,-0.598,0.871,-0.124,102.112,87.01,-37.135,
37508250,-0.594,1.269,-0.046,69.212,79.957,-7.542,
37508260,-0.148,1.157,0.127,47.337,70.437,28.735,
37508270,0.202,0.943,0.095,63.717,80.342,61.407,
37508280,0.261,0.644,-0.153,75.075,87.587,73.727,
37508290,0.536,0.167,-0.495,91.262,77.262,78.26,
37508300,0.865,-0.211,-0.792,87.29,69.247,67.707,
37508310,0.956,-0.589,-0.809,54.46,55.597,22.417,
37508320,0.895,-0.81,-0.709,17.027,36.365,-33.162,
37508330,0.683,-0.876,-0.583,-7.752,18.305,-77.017,
37508330,0.426,-0.8,-0.55,-22.89,-7.787,-105.402,
37508350,0.328,-0.659,-0.953,-35.49,-43.312,-116.217,
37508350,-1.118,-1.339,1.012,-89.88,-54.11,-118.3,
37508370,-1.639,-1.998,1.873,6.825,-102.217,-35.787,
37508370,-0.22,-1.998,-0.004,347.812,-281.522,-14.332,
37508390,0.733,0.653,-0.367,564.497,-37.835,26.092,
37508390,-0.114,1.91,0.586,499.66,-109.847,-14.245,
37508410,0.44,-0.975,0.92,396.987,-88.042,-11.252,
37508410,0.658,-1.18,1.694,487.375,-78.242,-12.74,
37508420,1.42,1.077,1.864,491.82,9.432,54.11,
37508430,1.012,0.389,1.998,345.8,110.565,50.767,
37508440,-1.824,1.952,1.142,197.19,142.415,46.917,
37508450,-1.491,1.167,1.178,-2.52,26.547,55.317,
37508460,-0.676,0.297,1.348,-130.007,-62.475,-2.152,
37508470,-0.192,-0.234,0.926,-162.155,-81.707,-36.05,
37508480,-0.108,-1.313,0.667,-144.637,-79.17,-44.905,
37508490,0.332,-0.695,0.564,-90.002,-68.985,-40.337,
37508500,0.603,-0.725,0.618,-28.315,-50.662,-19.215,
37508510,0.47,-0.486,0.742,25.97,-30.117,23.782,
37508520,0.106,-0.244,1.023,67.165,-6.615,49.98,
37508530,-0.119,0.156,1.181,71.995,9.065,50.12,
37508540,-0.22,0.309,1.156,47.967,11.742,36.907,
37508550,-0.271,0.246,1.138,16.66,5.197,22.732,
37508560,-0.262,0.201,1.146,-12.617,-3.64,7.455,
37508570,-0.172,0.13,1.163,-40.792,-11.025,-8.085,
37508580,-0.003,0.055,1.209,-65.747,-11.357,-18.987,
37508590,-0.025,0.126,1.325,-90.86,-5.32,-22.925,
37508600,0.242,0.088,1.367,-130.375,-0.717,-16.712,
37508610,0.113,-0.047,1.265,-170.1,16.922,-8.855,
37508620,0.13,-0.2,1.217,-210.28,28.262,5.197,
37508630,0.138,-0.142,1.229,-238.437,32.585,20.51,
37508640,0.159,-0.157,1.299,-254.52,29.452,35.087,
37508650,0.051,-0.082,1.441,-259.962,27.177,61.705,
37508660,-0.013,-0.719,1.445,-250.46,6.387,77.402,
37508670,-0.145,-1.947,1.848,-259.98,-31.867,74.462,
37508680,-0.007,-1.998,1.925,-176.382,-85.767,31.692,
37508690,0.915,-1.998,0.873,-22.82,-71.627,36.435,
37508700,1.084,-1.84,-0.066,102.812,23.03,-17.045,
37508710,-0.449,-1.33,-0.776,137.48,63.997,-105.385,
37508720,-1.245,-1.127,-0.872,70.122,46.06,-143.15,
37508730,-1.013,-1.061,-0.47,-32.007,28.227,-125.037,
37508740,-0.58,-1.144,-0.025,-108.622,27.352,-100.31,
37508750,-0.361,-0.999,0.367,-153.422,47.162,-86.31,
37508760,-0.267,-0.692,0.508,-172.147,63.735,-71.207,
37508760,-0.139,0.241,0.432,-170.957,60.025,-58.677,
37508780,-0.208,1.498,0.232,-167.667,34.79,-41.807,
37508780,-0.035,1.997,0.054,-169.907,-1.925,-28.945,
37508800,0.213,1.997,0.029,-161.49,-20.23,-20.02,
37508800,0.114,1.997,-0.013,-115.675,-38.867,-21.087,
37508820,0.227,1.997,-0.076,-64.575,-57.907,-17.185,
37508820,0.46,1.997,-0.126,-32.672,-68.67,-15.977,
37508830,0.502,0.89,-0.114,-1.032,-70.28,-33.407,
37508840,1.035,1.293,-0.496,33.705,-73.465,-128.905,
37508850,-0.218,-0.772,0.634,102.322,33.722,-76.93,
37508860,-1.402,-1.97,-0.291,53.042,153.037,-245.262,
37508870,-1.963,1.801,-1.509,543.917,140.822,-129.955,
37508880,1.453,1.741,-0.213,361.13,-79.205,58.38,
37508890,1.726,-1.748,1.92,122.08,10.5,55.125,
37508900,-1.206,-0.535,1.394,491.662,45.237,-34.93,
37508910,0.521,1.71,1.28,458.762,65.73,122.902,
37508920,-0.268,0.468,1.936,277.83,55.615,95.375,
37508930,-0.766,1.327,1.866,209.79,67.112,82.005,
37508940,-1.274,1.488,1.509,94.64,40.25,45.937,
37508950,-0.824,0.601,1.368,-47.687,-14.875,-4.217,
37508960,-0.318,0.313,1.144,-107.31,-46.025,-45.447,
37508970,0.1,-0.221,0.991,-134.085,-47.547,-60.007,
37508980,0,-0.47,0.798,-123.952,-26.46,-68.285,
37508990,0.094,-0.64,0.665,-93.87,-16.555,-59.71,
37509000,0.245,-0.647,0.66,-54.792,-12.162,-42.822,
37509010,0.371,-0.589,0.674,-9.59,-10.132,-16.082,
37509020,0.296,-0.504,0.785,29.26,-3.692,13.125,
37509030,0.184,-0.292,0.984,58.327,5.95,35.052,
37509040,0.129,-0.026,1.189,61.67,15.68,48.65,
37509050,0.016,0.156,1.283,40.18,25.077,58.642,
37509060,-0.013,0.197,1.348,1.785,35.28,64.12,
37509070,-0.074,0.298,1.401,-42.927,47.267,63.315,
37509080,-0.199,0.368,1.393,-95.55,55.58,60.567,
37509080,-0.382,0.094,1.286,-152.757,50.137,54.967,
37509100,-0.094,-0.028,1.197,-203.962,38.902,51.275,
37509100,0.014,-0.135,1.167,-229.53,38.692,50.557,
37509120,-0.015,-0.441,1.176,-248.692,40.757,52.167,
37509120,0.096,-0.348,1.153,-253.417,47.985,69.667,
37509140,0.173,-0.399,1.175,-230.492,61.407,89.687,
37509140,-0.234,-0.783,1.305,-221.095,73.412,87.885,
37509160,-0.481,-1.936,1.713,-230.737,44.677,68.582,
37509160,0.83,-1.998,1.708,-136.535,21.385,38.867,
37509170,0.41,-1.998,1.431,5.95,14.577,28.507,
37509180,0.27,-1.247,-0.069,191.66,22.015,-6.107,
37509190,-0.481,-0.286,-0.679,192.045,8.067,-14.472,
37509200,-0.753,0.096,-0.923,109.602,-63.577,-14.735,
37509210,-0.38,0.399,-0.904,31.43,-121.17,10.902,
37509220,-0.052,0.287,-0.472,-56.472,-119.665,28.21,
37509230,0.06,-0.114,-0.031,-100.765,-84.822,27.16,
37509240,-0.088,-0.114,-0.01,-74.165,-48.912,17.972,
37509250,-0.213,0.111,-0.3,-36.942,-37.205,3.587,
37509260,-0.268,0.162,-0.472,-55.02,-40.967,-15.767,
37509270,-0.328,0.082,-0.513,-87.692,-46.672,-35.717,
37509280,-0.456,0.491,-0.638,-92.785,-50.557,-45.447,
37509290,-0.551,1.147,-0.841,-93.065,-56.875,-38.675,
37509300,-0.601,1.434,-0.898,-113.452,-75.53,-18.235,
37509310,-0.391,1.611,0.012,-152.932,-103.635,5.547,
37509320,-0.715,-1.878,0.286,-186.917,-280.157,-125.405,
37509330,0.982,-0.702,-0.448,472.85,39.812,-76.947,
37509340,-0.841,1.997,0.385,447.86,54.285,-27.142,
37509350,1.081,0.678,1.056,339.78,-17.762,-37.94,
37509360,0.998,-0.844,1.998,376.442,1.575,38.552,
37509370,0.111,1.62,1.998,347.182,76.072,76.58,
37509380,-0.996,1.575,1.929,164.657,99.295,83.93,
37509390,-1.246,1.402,1.683,6.755,50.067,56.42,
37509400,-0.813,0.822,1.45,-123.007,-12.267,8.26,
37509410,-0.612,0.024,0.842,-186.445,-34.072,-49.98,
37509420,-0.439,-0.867,0.413,-165.567,-35.122,-97.86,
37509430,0.201,-1.332,0.421,-105.507,-26.092,-112.665,
37509440,0.766,-0.854,0.476,-33.582,-20.912,-82.355,
37509450,0.91,-0.722,0.584,25.095,-19.11,-24.08,
37509460,0.502,-0.622,0.692,83.685,-3.517,40.32,
37509470,0.099,-0.42,0.993,120.277,6.352,75.512,
37509480,-0.255,0.188,1.181,126.455,17.045,83.842,
37509490,-0.416,0.345,1.212,102.602,21.997,66.937,
37509500,-0.475,0.438,1.258,68.547,18.042,34.65,
37509510,-0.366,0.446,1.33,23.222,5.687,3.727,
37509510,-0.147,0.366,1.324,-28.332,-2.082,-19.197,
37509530,-0.007,0.188,1.358,-76.44,1.662,-32.777,
37509530,0.057,0.129,1.369,-119.07,19.792,-39.392,
37509550,-0.071,0.051,1.278,-162.54,41.492,-40.915,
37509550,-0.101,0.032,1.175,-204.225,43.085,-32.147,
37509570,0.052,0.049,1.158,-236.6,31.325,-17.15,
37509570,0.094,0.071,1.186,-260.942,23.012,1.365,
37509580,-0.097,0.028,1.131,-284.567,11.27,23.467,
37509590,-0.14,-0.555,1.171,-310.87,-1.347,45.867,
37509600,-0.301,0.177,0.938,-320.827,-4.2,64.995,
37509610,-0.042,-0.664,0.94,-292.67,-3.92,74.865,
37509620,-0.491,-0.885,1.224,-305.795,4.515,63.14,
37509630,-0.585,-1.53,1.325,-250.635,-7.455,50.592,
37509640,-0.431,-1.56,1.888,-155.207,-26.267,47.127,
37509650,0.022,-1.309,1.344,-46.462,-51.222,47.687,
37509660,0.759,-0.77,1.074,47.232,4.83,56.315,
37509670,0.093,-0.152,1.026,90.527,37.555,27.965,
37509680,-0.32,0.615,0.405,172.655,10.185,6.702,
37509690,0.021,1.374,-0.565,214.725,-13.947,39.567,
37509700,0.174,1.879,-0.917,171.15,-17.832,60.305,
37509710,0.067,1.336,-0.604,62.282,0.822,66.85,
37509720,0.053,0.35,0.03,4.357,21.367,69.527,
37509730,0.006,-0.245,0.041,35.28,29.907,65.817,
37509740,-0.005,-0.245,-0.521,88.795,18.235,55.667,
37509750,0.182,-0.335,-0.882,82.705,-2.415,30.362,
37509760,0.103,-0.805,-0.718,33.495,-7.892,-9.695,
37509770,-0.37,-1.083,-0.552,8.26,-7.735,-46.497,
37509780,-0.549,-1.063,-0.723,22.435,-21.28,-60.655,
37509790,-1.49,-1.465,1.756,-39.042,-141.942,-75.74,
37509800,-0.005,-1.998,-0.419,251.352,-423.78,-190.505,
37509810,1.075,1.29,1.296,497.507,-69.212,-68.337,
37509820,0.718,1.997,0.501,424.287,-20.807,-27.072,
37509830,0.687,-0.463,1.114,321.86,-95.865,-64.662,
37509830,1.914,-1.019,1.966,352.187,-0.367,25.637,
37509850,0.591,1.325,1.981,393.592,129.762,36.54,
37509850,-0.923,1.718,1.509,193.287,159.652,56.577,
37509870,-1.812,1.725,1.001,59.71,92.68,70.385,
37509870,-0.984,0.411,1.165,-69.457,-13.72,27.65,
37509890,-0.239,-0.07,1.051,-111.65,-59.307,-19.145,
37509890,0.18,-0.531,0.876,-105.752,-55.247,-32.882,
37509910,0.143,-0.668,0.78,-77.98,-40.232,-29.382,
37509910,0.368,-0.547,0.785,-42.192,-25.987,-14.385,
37509920,0.309,-0.362,0.859,-2.572,-8.242,9.065,
37509930,0.001,-0.187,0.954,21.315,7.21,26.845,
37509940,-0.197,-0.113,0.987,29.925,10.937,27.002,
37509950,-0.175,0.012,1.041,28.455,8.33,16.082,
37509960,-0.044,0.101,1.085,20.125,6.492,8.102,
37509970,-0.107,0.12,1.11,6.965,9.205,4.725,
37509980,-0.15,0.167,1.17,-10.902,10.482,-2.03,
37509990,-0.116,0.216,1.262,-37.135,10.5,-10.237,
37510000,-0.128,0.224,1.336,-68.267,17.482,-20.597,
37510010,-0.178,0.221,1.387,-111.16,31.272,-33.092,
37510020,-0.194,0.172,1.324,-162.137,45.307,-44.835,
37510030,-0.119,0.135,1.219,-207.952,50.172,-54.775,
37510040,0.143,0.18,1.244,-240.887,52.325,-55.247,
37510050,0.162,0.065,1.255,-265.58,67.725,-44.87,
37510060,0.124,-0.199,1.209,-284.165,80.115,-30.782,
37510070,0.073,-0.562,1.272,-295.592,90.177,-10.307,
37510080,-0.091,-0.522,1.265,-287.367,97.947,14.962,
37510090,-0.355,-1.213,1.557,-243.897,93.45,24.955,
37510100,-1.028,-1.933,1.456,-185.57,37.047,-12.232,
37510110,-0.931,-1.998,1.605,-52.902,12.11,-11.725,
37510120,-0.336,-1.61,0.147,105.595,16.502,6.51,
37510130,-0.529,-0.723,-0.543,168.507,69.737,-6.632,
37510140,-1.638,-0.199,-1.355,133.175,59.622,-39.935,
37510150,-1.529,0.297,-1.013,38.99,9.117,-21.77,
37510160,-0.77,-0.277,-0.129,-119.805,-14.595,22.382,
37510170,-0.083,-0.557,0.473,-154.472,-3.71,33.757,
37510180,0.031,-0.065,0.422,-99.645,48.562,35.332,
37510190,0.076,0.37,0.174,-69.107,88.725,22.225,
37510200,0.187,0.468,0.031,-67.2,95.41,-9.152,
37510210,0.283,0.456,0.03,-72.205,87.167,-47.425,
37510220,0.371,0.453,0.046,-73.867,80.027,-81.147,
37510230,0.526,0.73,-0.033,-65.065,77.385,-106.487,
37510240,0.534,1.052,-0.148,-61.18,72.677,-132.195,
37510250,0.414,1.229,-0.232,-71.54,55.807,-157.202,
37510250,0.464,0.621,-0.434,-85.785,48.772,-163.782,
37510260,-1.125,-1.405,1.723,-166.565,61.932,-217.122,
37510270,-0.489,-1.998,-0.256,231.017,-343.297,-260.33,
37510280,0.424,0.988,0.555,501.392,-16.572,-157.255,
37510290,-0.223,1.946,-1.232,407.907,-84.28,-95.742,
37510300,1.714,-0.621,1.359,180.495,-202.492,-149.66,
37510310,1.262,-1.578,1.543,252.84,2.152,-90.79,
37510320,0.15,1.764,0.627,478.135,45.587,14.472,
37510330,0.84,-0.132,1.704,248.342,12.512,95.147,
37510340,0.055,0.208,1.581,234.535,13.79,140.927,
37510350,-0.567,1.03,1.378,193.077,12.092,177.152,
37510360,-0.959,0.36,1.416,107.065,-1.172,149.922,
37510370,-1.004,0.392,1.243,50.925,-7.192,87.465,
37510380,-0.773,0.194,1.14,-3.692,-14.35,11.182,
37510390,-0.359,-0.005,1.033,-43.522,-20.177,-40.74,
37510400,0.009,-0.196,0.906,-50.96,-21.227,-59.517,
37510410,0.218,-0.452,0.879,-39.567,-17.517,-56.595,
37510420,0.358,-0.476,0.905,-17.867,-11.76,-30.87,
37510430,0.411,-0.379,0.991,-3.71,-4.235,7.805,
37510440,0.3,-0.258,1.064,2.03,6.44,45.71,
37510450,0.132,-0.066,1.093,-3.045,17.64,74.812,
37510460,-0.181,-0.035,1.093,-16.8,21.945,88.567,
37510470,-0.186,-0.196,1.157,-44.73,14.227,96.18,
37510480,-0.091,-0.073,1.159,-72.8,18.392,105.245,
37510490,-0.071,-0.083,1.174,-96.565,21.455,105.14,
37510500,-0.072,-0.177,1.158,-121.555,27.58,103.53,
37510510,-0.116,-0.245,1.154,-136.255,35.525,99.785,
37510520,-0.072,-0.255,1.259,-153.877,43.557,103.582,
37510530,0.249,-0.396,1.269,-161.752,56.21,117.792,
37510540,0.373,-0.749,1.439,-154.612,80.325,131.74,
37510550,-0.271,-1.107,1.929,-121.38,58.327,135.205,
37510560,-0.514,-1.613,1.902,-52.482,-71.872,109.147,
37510570,0.275,-1.998,1.436,36.365,-156.257,72.03,
37510580,1.745,-1.846,-0.167,182.035,-121.065,60.882,
37510580,0.317,-0.718,-0.782,234.692,-60.375,29.347,
37510600,-0.947,-0.469,-0.728,123.445,-150.57,-63.297,
37510600,-0.128,-1.032,-0.586,-20.51,-245.875,-103.635,
37510620,0.326,-1.154,-0.195,-115.185,-235.935,-109.13,
37510620,-0.508,-0.933,-0.133,-116.97,-201.862,-137.27,
37510640,-1.136,-0.131,-0.051,-108.115,-196.682,-123.182,
37510640,-1.056,0.129,0.167,-157.027,-214.27,-49.577,
37510660,-0.607,-0.171,0.202,-192.15,-221.707,29.032,
37510660,-0.31,0.166,0.124,-176.295,-201.495,72.187,
37510670,-0.285,0.741,0.133,-171.517,-150.43,95.725,
37510680,-0.365,1.329,0.291,-168.735,-111.685,100.747,
37510690,1.629,1.894,1.992,-158.357,47.687,89.74,
37510700,-0.094,-0.203,0.24,208.6,326.602,17.045,
37510710,-0.377,-1.082,1.127,498.592,163.187,-55.072,
37510720,0.035,-1.568,1.806,285.32,142.66,20.387,
37510730,-0.154,1.718,0.699,407.54,114.8,31.57,
37510740,-0.25,0.199,1.394,317.8,67.112,43.575,
37510750,-0.656,-0.073,1.72,239.382,55.3,54.74,
37510760,-0.438,0.987,1.6,216.107,40.705,43.032,
37510770,-0.598,0.755,1.517,87.132,20.475,19.355,
37510780,-0.595,0.52,1.226,14.927,-8.4,4.55,
37510790,-0.446,-0.044,1.055,-40.74,-35.682,-14.612,
37510800,0.026,-0.225,0.942,-49.157,-51.852,-28.332,
37510810,0.391,-0.222,1,-42.857,-45.867,-28.367,
37510820,0.354,-0.094,1.041,-35.822,-23.257,-16.59,
37510830,0.123,-0.122,1.07,-40.74,-2.222,-6.282,
37510840,-0.065,-0.067,1.101,-47.512,11.462,-8.645,
37510850,-0.04,-0.003,1.166,-60.567,19.372,-19.74,
37510860,0.069,0.046,1.258,-81.375,32.672,-32.147,
37510870,0.088,0.1,1.331,-111.317,51.502,-39.427,
37510880,0.078,0.118,1.34,-151.917,64.575,-36.942,
37510890,0.103,0.081,1.281,-198.59,64.172,-23.607,
37510900,-0.005,0.072,1.202,-241.92,53.707,-1.067,
37510910,-0.088,-0.257,1.23,-275.572,39.27,21.122,
37510920,-0.404,0.473,1.078,-291.917,32.812,37.66,
37510920,-0.424,-0.292,0.937,-314.16,21.14,44.537,
37510940,-0.282,-0.636,1.167,-357.717,6.51,31.5,
37510940,-0.376,-0.75,1.168,-340.637,5.32,19.512,
37510960,-0.301,-1.03,1.235,-296.222,-9.38,1.242,
37510960,-0.165,-1.054,1.342,-243.092,-15.785,1.61,
37510980,0.144,-0.74,1.113,-165.182,-10.255,7.315,
37510980,0.185,-0.706,0.997,-86.747,12.88,18.865,
37511000,0.282,-0.687,1.213,-15.435,44.817,17.517,
37511000,-0.359,-0.413,1.323,66.01,22.295,6.597,
37511010,0.338,-0.001,0.448,184.537,-7.35,13.51,
37511020,0.652,0.443,-0.26,228.97,5.477,21.402,
37511030,0.424,0.687,-0.955,222.11,-16.485,-32.76,
37511040,0.182,0.795,-1.229,176.54,-36.82,-74.007,
37511050,-0.049,0.688,-0.968,76.807,-33.985,-88.462,
37511060,-0.279,0.113,-0.496,-3.885,-22.05,-95.112,
37511070,-0.498,-0.437,-0.209,-17.342,-6.562,-82.302,
37511080,-0.676,0.044,-0.4,1.872,8.172,-50.522,
37511090,-0.709,-0.167,-0.541,25.847,7.91,19.302,
37511100,-0.396,-0.305,-0.511,-2.012,-10.307,42.367,
37511110,-1.525,-1.427,1.786,-91.997,-100.047,0.035,
37511120,0.225,-1.998,-1.262,181.405,-384.16,-223.492,
37511130,-0.36,1.525,0.881,542.325,-17.01,-146.895,
37511140,1.526,1.945,0.015,347.672,32.9,-3.272,
37511150,0.906,-0.657,1.5,233.642,43.085,-63.122,
37511160,0.081,-1.314,1.53,377.475,60.725,-48.002,
37511170,0.63,0.839,1.156,381.22,70.21,45.202,
37511180,-0.069,0.379,1.61,290.045,79.397,47.18,
37511190,-0.547,0.488,1.716,240.537,81.672,50.785,
37511200,-0.8,1,1.398,155.575,61.757,23.765,
37511210,-0.828,0.645,1.207,60.27,23.345,1.82,
37511220,-0.432,0.275,1.083,-0.507,-12.635,-17.045,
37511230,-0.199,-0.078,1.007,-28.857,-31.115,-23.1,
37511240,-0.047,-0.167,0.996,-34.44,-35.787,-19.092,
37511250,0.06,-0.078,1.043,-34.93,-32.34,-12.25,
37511260,0.116,-0.037,1.077,-39.952,-22.75,-6.055,
37511270,0.098,-0.027,1.102,-48.475,-10.29,-2.467,
37511280,0.068,0.049,1.183,-60.62,4.235,-4.235,
37511290,0.146,0.142,1.285,-80.797,20.195,-6.667,
37511300,0.114,0.203,1.396,-113.645,38.605,-5.32,
37511310,0.127,0.157,1.401,-164.255,48.947,6.825,
37511320,0.147,0.137,1.373,-224.332,49.805,25.585,
37511330,-0.045,0.037,1.202,-276.465,46.007,50.085,
37511330,-0.033,0.007,1.214,-320.285,19.32,80.797,
37511350,0.129,-0.423,1.24,-370.895,15.907,108.36,
37511350,0.127,0.065,1.207,-390.022,24.902,123.06,
37511370,-0.195,-0.968,1.364,-389.585,25.497,130.445,
37511370,-0.753,-1.543,1.242,-392.122,-25.112,112.7,
37511390,-0.035,-1.266,1.438,-311.937,-73.167,97.352,
37511390,-0.274,-0.659,0.693,-243.967,-82.88,90.965,
37511410,0.014,-0.592,0.306,-171.902,-18.707,92.382,
37511410,0.068,-0.516,0.97,-171.727,54.39,90.072,
37511420,0.199,-0.292,1.436,-150.64,83.93,70.525,
37511430,0.133,0.227,1.708,-45.115,79.38,46.235,
37511440,0.38,0.882,1.306,95.357,58.537,31.57,
37511450,0.439,1.164,0.833,182.14,53.007,14.63,
37511460,0.236,1.143,0.447,214.83,26.775,-25.62,
37511470,-0.009,1.125,0.092,239.365,-11.025,-46.287,
37511480,-0.256,1.034,-0.425,231.892,-47.39,-46.165,
37511490,-0.471,0.786,-0.705,182.63,-61.827,-45.377,
37511500,-0.62,0.33,-0.553,114.275,-41.755,-27.965,
37511510,-0.94,-0.111,-0.05,72.38,-15.137,1.417,
37511520,-1.051,-0.534,0.146,55.755,-40.075,35.805,
37511530,-0.667,-0.619,-0.133,74.445,-95.042,67.077,
37511540,-0.267,-0.731,-0.302,71.417,-125.212,71.977,
37511550,-0.33,-1.115,-0.302,48.422,-125.702,57.522,
37511560,-0.555,-1.28,-0.048,47.04,-123.602,34.265,
37511570,-1.868,-1.938,0.775,-13.545,-288.54,-29.575,
37511580,1.156,-1.718,0.125,355.635,-299.075,-257.302,
37511590,-1.12,1.942,1.008,467.897,21.612,-59.937,
37511600,1.793,1.997,0.474,316.225,-5.775,-15.662,
37511610,1.021,-0.505,1.081,259.35,-54.81,-70.245,
37511620,1.265,-1.298,1.627,315.402,20.405,-15.067,
37511630,0.766,1.016,1.497,369.25,112.577,49.157,
37511640,0.166,0.072,1.958,261.555,162.137,61.495,
37511650,-1.699,1.788,1.3,168.035,147.227,77.017,
37511660,-1.421,1.269,1.113,33.302,48.912,60.235,
37511670,-0.793,0.397,1.173,-83.58,-39.742,-0.402,
37511670,0.182,-0.248,0.931,-115.202,-70.49,-33.81,
37511690,0.309,-0.948,0.785,-96.407,-55.457,-38.657,
37511690,0.345,-0.637,0.757,-48.615,-30.415,-21.087,
37511710,0.395,-0.305,0.886,-8.575,-8.522,3.482,
37511710,0.094,-0.107,1.006,16.957,12.967,28.682,
37511730,-0.222,0.047,1.053,18.042,17.395,40.267,
37511730,-0.278,0.075,1.047,-0.402,5.862,36.172,
37511750,-0.212,0.064,1.085,-15.015,-3.15,21.962,
37511750,-0.079,0.185,1.177,-33.04,-6.842,12.477,
37511760,0.033,0.221,1.254,-58.52,-6.702,7.997,
37511770,0.108,0.18,1.251,-88.112,-0.192,9.695,
37511780,0.008,0.054,1.214,-118.755,9.187,14.752,
37511790,-0.118,-0.045,1.172,-150.412,16.485,21.735,
37511800,-0.174,-0.055,1.134,-179.865,16.03,27.107,
37511810,-0.099,-0.143,1.058,-202.475,9.222,25.97,
37511820,0.078,-0.273,1.084,-223.422,14.332,28.542,
37511830,0.178,-0.124,1.124,-232.242,34.965,33.477,
37511840,0.202,-0.229,1.131,-230.807,65.1,38.972,
37511850,0.174,-0.248,1.116,-210.875,97.982,43.697,
37511860,0.251,-0.579,1.076,-209.23,128.432,23.94,
37511870,0.321,-0.766,1.076,-197.417,174.23,27.3,
37511880,0.028,-0.645,1.062,-150.832,197.785,25.672,
37511890,-0.61,-0.79,1.371,-123.97,173.6,3.902,
37511900,-0.649,-1.453,1.827,-80.815,98.945,-7.647,
37511910,-0.212,-1.463,1.597,32.06,-11.812,9.327,
37511920,0.636,-0.524,-0.283,193.69,-70.07,32.025,
37511930,-0.296,0.542,-0.639,171.272,-44.45,-5.215,
37511940,-1.138,0.343,-0.396,43.417,-88.777,-45.08,
37511950,-1.102,0.35,-0.032,-4.76,-135.467,-33.652,
37511960,-0.986,0.616,0.186,-22.82,-137.217,-9.712,
37511970,-0.947,0.617,0.163,-24.027,-100.485,15.977,
37511980,-0.868,0.725,-0.093,-2.257,-46.515,57.312,
37511990,-0.875,0.878,-0.09,5.215,-24.587,85.872,
37512000,-0.685,0.448,0.128,-19.512,-41.142,105.087,
37512010,-0.267,0.118,0.179,-11.025,-69.002,112.455,
37512020,0.043,0.206,-0.001,16.537,-82.11,98.245,
37512030,-0.006,0.287,-0.226,26.127,-87.85,63.875,
37512040,-1.025,-0.842,1.26,-3.325,-128.327,22.995,
37512050,0.851,-1.998,-0.318,78.277,-325.92,-235.55,
37512060,-1.151,0.172,1.722,460.285,-75.67,-310.31,
37512070,1.219,1.997,-0.12,448.77,-5.232,-26.39,
37512080,1.155,0.074,1.326,280.122,-11.34,0.315,
37512080,0.578,-0.958,1.815,324.695,9.747,30.817,
37512100,1.018,0.893,1.639,339.657,83.737,173.04,
37512100,-1.324,0.403,1.824,245.805,131.425,162.557,
37512120,-1.933,1.793,1.137,151.76,92.645,122.115,
37512120,-1.001,0.706,1.139,15.382,-11.165,17.395,
37512140,0.038,0.217,1.104,-61.127,-62.475,-33.565,
37512140,0.284,-0.234,0.999,-78.19,-56.42,-34.142,
37512160,0.37,-0.384,0.935,-61.407,-33.74,-12.932,
37512160,0.185,-0.263,0.957,-39.2,-10.36,6.562,
37512170,0.085,-0.187,0.984,-25.532,-4.077,25.13,
37512180,0.044,-0.07,1.046,-21.42,-3.85,42.105,
37512190,-0.006,0.092,1.121,-27.702,-1.61,51.327,
37512200,-0.073,0.152,1.184,-50.085,-5.285,56.192,
37512210,-0.058,0.144,1.225,-83.3,-11.655,63.367,
37512220,-0.14,0.066,1.265,-123.34,-19.25,74.777,
37512230,-0.236,0.009,1.252,-166.197,-31.57,90.79,
37512240,-0.251,-0.023,1.199,-208.722,-51.59,106.925,
37512250,-0.259,0.009,1.099,-239.47,-73.01,119.105,
37512260,-0.427,0.134,1.014,-259.175,-95.182,125.825,
37512270,-0.609,-0.023,1.064,-283.745,-113.925,133.052,
37512280,-0.62,-0.514,1.42,-265.58,-137.462,122.605,
37512290,-0.604,-1.038,1.352,-213.115,-177.257,103.775,
37512300,-0.571,-1.059,1.343,-109.812,-191.205,110.652,
37512310,-1.959,-0.805,1.362,33.81,-177.59,159.425,
37512320,-1.986,-0.975,1.559,140.14,27.247,346.237,
37512330,0.354,-1.422,-0.083,251.282,79.345,538.912,
37512340,1.428,-0.75,-0.621,290.045,104.65,513.537,
37512350,0.806,-0.209,-0.316,148.872,119.507,389.025,
37512360,0.932,-0.779,0.012,31.955,84.752,219.03,
37512370,0.795,-0.631,-0.024,10.412,65.905,66.972,
37512380,0.146,-0.116,-0.053,-1.277,75.967,-62.65,
37512390,-0.61,-0.158,0.008,-15.382,74.2,-162.4,
37512400,-0.894,0.023,-0.022,-21.91,78.995,-198.572,
37512410,-1.387,0.187,-0.03,-25.165,79.537,-203.052,
37512420,-1.379,0.148,0.064,-39.217,87.727,-154.122,
37512420,-1.12,0.251,0.555,-36.82,99.942,-85.715,
37512440,0.141,-0.419,1.888,-73.832,-73.202,-84.14,
37512440,1.844,-0.441,0.971,105.07,-253.995,-232.067,
37512460,-1.815,0.14,1.07,424.27,-78.102,-415.082,
37512460,1.164,-1.892,1.562,265.387,-58.712,-273.42,
37512480,1.837,1.083,0.896,264.985,-31.902,-13.317,
37512480,0.969,0.267,1.302,271.057,-18.655,77.787,
37512500,0.757,-0.114,1.712,194.04,14,167.282,
37512500,-0.619,0.819,1.482,173.652,69.667,206.605,
37512510,-1.597,1.097,1.194,92.207,64.487,165.252,
37512520,-1.667,0.758,1.087,13.72,5.442,63.105,
37512530,-0.833,0.345,1.099,-51.66,-60.83,-38.43,
37512540,0.186,-0.086,1.023,-79.572,-88.655,-81.83,
37512550,0.602,-0.372,0.948,-72.992,-63.542,-83.142,
37512560,0.531,-0.41,0.897,-52.902,-24.99,-54.39,
37512570,0.41,-0.347,0.907,-32.217,-1.155,-12.075,
37512580,0.072,-0.167,0.976,-10.955,16.275,16.765,
37512590,-0.104,-0.101,1.031,-3.955,22.47,23.94,
37512600,-0.113,-0.032,1.087,-5.985,25.462,17.43,
37512610,-0.094,0.057,1.142,-16.8,31.885,6.23,
37512620,-0.015,0.063,1.199,-36.382,41.86,-3.5,
37512630,0.021,0.06,1.226,-64.382,55.125,-6.79,
37512640,-0.024,0.025,1.197,-99.155,64.382,-4.077,
37512650,-0.113,-0.051,1.126,-135.502,62.212,-0.84,
37512660,-0.044,-0.132,1.091,-166.985,51.065,0.63,
37512670,-0.157,-0.077,1.125,-185.202,47.757,3.57,
37512680,-0.093,-0.146,1.154,-198.992,43.68,4.112,
37512690,0.054,-0.571,1.173,-203.945,56.21,-3.255,
37512700,-0.001,-0.285,1.158,-173.67,99.872,-5.652,
37512710,0.779,-0.501,1.045,-122.465,175.14,-47.88,
37512720,-0.185,-1.441,0.996,-93.94,242.882,-119,
37512730,0.079,-1.998,1.565,-48.405,204.785,-281.207,
37512740,1.807,-1.998,0.159,28.472,96.722,-445.41,
37512750,-0.979,-1.606,-1.215,210.227,175.367,-542.64,
37512760,-1.998,-0.91,-0.842,123.27,152.25,-570.622,
37512770,-1.998,-0.541,-0.337,-19.197,79.887,-495.827,
37512780,-1.695,0.071,0.176,-70.735,59.587,-345.695,
37512790,-0.903,0.701,0.333,-70.822,67.06,-226.45,
37512800,-0.216,1.233,0.279,-43.155,60.252,-162.085,
37512810,0.201,1.433,0.181,-32.112,33.88,-137.655,
37512820,0.184,1.666,-0.026,-39.882,13.405,-112.91,
37512830,-0.2,1.996,-0.347,-35.28,-22.382,-78.645,
37512830,-0.246,1.997,-0.595,-53.567,-74.497,-31.29,
37512850,-0.922,-0.533,1.221,-115.692,-106.155,8.505,
37512850,-0.157,-1.998,0.073,121.432,-296.187,-143.71,
37512870,-0.378,1.228,0.323,450.975,-42.087,-25.672,
37512870,1.3,1.876,0.081,385.717,-34.947,88.672,
37512890,0.137,-1.595,1.779,217.822,-67.882,-44.747,
37512890,-0.105,-0.172,1.34,339.832,-41.457,1.47,
37512910,0.722,1.329,1.366,290.745,-33.267,78.837,
37512910,-0.112,0.244,1.856,177.8,-34.702,60.672,
37512920,-0.213,0.904,1.645,116.76,-15.12,71.907,
37512930,-0.6,0.46,1.469,24.307,-8.05,40.67,
37512940,-0.532,0.128,1.204,-43.242,-12.337,-3.762,
37512950,-0.125,-0.101,1.024,-75.04,-17.955,-36.837,
37512960,0.118,-0.244,0.974,-79.87,-6.265,-53.427,
37512970,0.256,-0.3,0.986,-75.11,7.21,-53.445,
37512980,0.372,-0.305,1.023,-74.305,17.167,-34.09,
37512990,0.368,-0.267,1.049,-77.402,26.372,-3.71,
37513000,0.272,-0.285,1.098,-87.01,32.917,27.09,
37513010,0.108,-0.109,1.157,-101.745,36.155,52.5,
37513020,-0.115,-0.01,1.13,-124.022,36.96,65.66,
37513030,-0.249,-0.304,1.109,-157.675,23.8,74.34,
37513040,0.124,-0.497,1.219,-203.297,22.627,93.24,
37513050,0.003,0.157,1.197,-218.61,23.607,105,
37513060,0.128,-0.11,1.145,-227.745,26.285,107.345,
37513070,0,-0.462,1.326,-265.265,40.372,108.727,
37513080,-0.003,-0.586,1.41,-264.81,66.255,107.957,
37513090,-0.512,-1.206,1.324,-237.527,62.177,96.967,
37513100,0.713,-0.656,1.445,-189.63,2.975,44.135,
37513110,-0.748,-0.056,0.58,-118.195,13.16,47.372,
37513120,-0.764,0.157,0.95,-101.937,23.415,49.63,
37513130,0.275,-0.487,1.462,-103.145,-19.495,54.705,
37513140,0.531,0.027,1.4,-7.735,-49.962,31.797,
37513150,0.366,0.949,0.388,108.01,-72.572,-9.275,
37513160,-0.551,1.671,-0.643,155.662,-91.962,-35.612,
37513170,-0.701,1.425,-0.792,100.782,-90.317,-1.662,
37513170,-0.773,0.811,-0.536,45.605,-73.377,43.242,
37513190,-0.665,0.582,-0.365,53.637,-62.877,71.12,
37513190,-0.54,0.395,-0.365,67.707,-47.302,100.52,
37513210,-0.389,0.173,-0.645,80.692,-47.897,98.892,
37513210,-0.09,-1.604,0.464,53.025,-10.342,66.675,
37513230,-0.684,-1.998,-0.221,119.437,-230.912,-203.875,
37513230,-1.919,0.933,0.744,456.872,-114.852,-190.522,
37513250,1.244,1.848,-0.103,313.075,-95.97,13.37,
37513250,1.918,-1.093,0.52,235.55,-65.222,12.267,
37513260,0.513,-1.622,1.496,371.07,-33.25,-65.467,
37513270,0.32,0.935,1.369,425.582,-12.81,54.74,
37513280,0.976,1.075,1.838,301.647,0.052,114.765,
37513290,-0.303,0.592,1.961,213.132,51.695,116.55,
37513300,-1.19,1.424,1.523,126.175,64.872,103.897,
37513310,-1.106,0.845,1.291,0.927,17.272,52.36,
37513320,-0.47,0.238,1.212,-75.057,-22.68,-14.017,
37513330,-0.105,-0.018,0.986,-105.367,-30.887,-41.755,
37513340,0.019,-0.406,0.815,-104.895,-30.537,-46.55,
37513350,0.129,-0.574,0.801,-78.015,-24.097,-39.287,
37513360,0.286,-0.5,0.792,-44.292,-12.302,-22.89,
37513370,0.333,-0.475,0.841,-15.207,0.875,-1.522,
37513380,0.207,-0.315,0.949,8.225,15.26,19.722,
37513390,0.124,-0.092,1.104,14.7,26.215,37.695,
37513400,-0.096,0.13,1.197,2.992,33.967,43.96,
37513410,-0.097,0.158,1.232,-26.81,36.452,42.297,
37513420,-0.168,0.143,1.31,-63.105,37.327,37.415,
37513430,-0.258,0.155,1.331,-106.365,35.857,32.847,
37513440,-0.244,0.123,1.235,-156.362,27.72,26.442,
37513450,-0.18,-0.038,1.163,-201.232,23.205,20.195,
37513460,-0.189,-0.07,1.164,-229.582,23.047,16.852,
37513470,-0.123,-0.086,1.174,-246.575,27.912,11.952,
37513480,-0.194,-0.373,1.24,-259.385,42.245,4.515,
37513490,-0.342,-0.288,1.477,-253.505,51.415,7.262,
37513500,-0.433,-1.158,1.383,-250.162,37.24,-16.59,
37513510,-0.538,-1.429,1.974,-246.137,21.42,-30.467,
37513520,-0.366,-1.313,1.178,-193.97,9.642,-5.495,
37513530,-0.165,-1.226,1.492,-173.617,45.85,9.765,
37513540,-0.5,-1.418,1.791,-203.192,42.385,-4.812,
37513550,-0.25,-0.277,1.855,-132.895,29.19,25.637,
37513560,0.901,1.529,0.616,-0.017,29.295,77.945,
37513570,0.543,1.997,-0.286,71.767,28.052,80.5,
37513580,0.421,1.997,-0.267,45.727,-30.485,31.692,
37513580,0.527,1.997,0.134,9.415,-71.715,5.757,
37513590,0.947,1.629,-0.031,104.405,-43.312,17.377,
37513600,0.118,1.417,-0.825,228.2,14.28,6.195,
37513610,-0.471,0.301,-1.167,240.152,32.62,-34.965,
37513620,-0.932,-1.216,-0.847,167.947,0.945,-57.505,
37513630,-0.823,-1.998,-0.492,119.752,-16.887,-38.64,
37513640,-0.513,-1.998,-0.936,135.957,13.492,-8.872,
37513650,-0.29,-1.998,0.916,114.66,34.562,-39.532,
37513660,-0.724,-1.998,-0.441,157.972,-280.875,-370.387,
37513670,-1.998,1.177,1.003,543.97,-82.67,-257.88,
37513680,1.379,1.997,0.077,425.495,-38.29,54.46,
37513690,0.975,0.259,1.643,293.755,-109.445,50.522,
37513700,0.411,-1.118,1.998,251.965,-35.367,-34.23,
37513710,0.661,1.986,1.511,245.787,84.63,94.43,
37513720,-1.487,1.363,1.411,49.98,84.017,50.417,
37513730,-1.111,0.755,1.14,-51.852,20.317,25.672,
37513740,-0.765,-0.21,0.95,-101.902,-39.847,-22.61,
37513750,0.244,-0.521,0.874,-99.435,-57.89,-57.452,
37513760,0.178,-0.628,0.756,-60.97,-35.962,-66.412,
37513770,0.398,-0.513,0.851,-34.545,-21.787,-41.597,
37513780,0.301,-0.264,0.928,-4.27,-8.697,-2.8,
37513790,-0.067,-0.088,1.015,10.412,5.057,21.367,
37513800,-0.273,-0.011,1.062,8.207,5.95,24.57,
37513810,-0.254,0.057,1.127,-6.562,-0.087,16.1,
37513820,-0.218,0.187,1.228,-31.167,-3.692,5.967,
37513830,-0.098,0.197,1.332,-65.73,-4.602,-4.182,
37513840,-0.134,0.208,1.389,-108.412,1.085,-8.207,
37513850,-0.135,0.083,1.343,-155.347,8.435,-8.417,
37513860,-0.099,-0.046,1.242,-199.377,12.635,-3.5,
37513870,-0.102,-0.072,1.18,-228.637,8.732,6.877,
37513880,-0.066,0.006,1.208,-247.117,1.522,13.825,
37513890,-0.088,-0.001,1.376,-264.197,8.592,15.75,
37513900,-0.128,-0.5,1.439,-273.385,36.697,17.272,
37513910,-0.081,-1.082,1.638,-227.15,59.92,17.78,
37513920,-0.158,-1.585,1.815,-155.19,35.367,-18.41,
37513920,-0.104,-1.995,1.694,-71.75,65.817,-31.237,
37513940,-0.357,-1.7,1.433,61.32,85.732,-25.847,
37513940,0.361,-0.897,-0.128,202.79,80.85,5.302,
37513960,-0.007,-0.298,-0.221,175.84,74.165,-2.975,
37513960,-0.278,-0.631,-0.391,108.657,-2.082,-41.527,
37513980,-0.116,-0.376,-0.701,93.852,-77.262,-57.837,
37513980,-0.017,0.064,-0.766,33.39,-102.987,-70.752,
37514000,-0.332,-0.031,-0.48,-68.67,-102.83,-94.237,
37514000,-0.64,-0.314,-0.175,-125.86,-105.017,-109.48,
37514010,-0.761,-0.244,-0.117,-119.612,-103.39,-98.192,
37514020,-0.828,-0.05,-0.247,-110.145,-94.15,-71.032,
37514030,-0.939,0.12,-0.248,-118.387,-82.635,-33.617,
37514040,-0.912,0.312,-0.166,-133.192,-80.85,9.607,
37514050,-0.498,0.62,-0.267,-130.392,-85.347,46.882,
37514060,-0.085,1.062,-0.427,-116.375,-75.792,68.337,
37514070,0.125,1.204,-0.495,-112.262,-56.805,60.567,
37514080,1.522,0,1.218,-149.94,10.815,-0.157,
37514090,1.779,-1.896,1.528,-67.217,105.14,-187.775,
37514100,-0.119,-1.06,-0.7,483.14,226.817,-393.732,
37514110,-0.542,1.997,0.645,455.822,76.65,-161.98,
37514120,1.859,-0.341,1.431,303.065,56.507,96.407,
37514130,-1.02,-0.284,1.952,387.712,32.042,38.675,
37514140,0.593,1.439,1.969,302.365,39.672,195.737,
37514150,-1.449,1.029,1.84,180.46,53.707,165.83,
37514160,-1.467,1.131,1.44,62.177,28.682,104.912,
37514170,-1.096,0.371,1.293,-33.985,-16.222,2.292,
37514180,-0.267,0.207,1.106,-94.325,-51.065,-61.337,
37514190,0.256,-0.199,1.002,-114.485,-54.53,-79.152,
37514200,0.374,-0.353,0.915,-106.12,-35.682,-60.41,
37514210,0.394,-0.451,0.851,-89.25,-24.377,-22.872,
37514220,0.216,-0.401,0.842,-67.567,-15.68,11.935,
37514230,0.009,-0.397,0.867,-48.842,-14.962,33.425,
37514240,-0.066,-0.317,0.936,-37.187,-16.292,44.24,
37514250,-0.087,-0.139,1.063,-36.802,-17.08,46.2,
37514260,-0.132,-0.023,1.164,-51.747,-18.567,44.345,
37514260,-0.151,0.018,1.233,-76.93,-26.057,42.21,
37514280,-0.078,-0.013,1.244,-109.025,-37.87,42.402,
37514280,-0.004,-0.14,1.266,-144.9,-52.185,49.56,
37514300,-0.073,0.067,1.187,-173.582,-60.952,62.825,
37514300,-0.132,-0.061,1.08,-197.33,-72.607,60.305,
37514320,-0.257,-0.222,1.043,-227.552,-78.855,65.905,
37514320,-0.357,-0.328,1.19,-238.332,-90.142,61.372,
37514330,-0.694,-0.653,1.615,-240.817,-130.287,48.562,
37514340,-0.77,-1.075,1.712,-203.857,-207.567,34.335,
37514350,-0.521,-1.453,1.483,-136.237,-257.25,20.842,
37514360,-0.047,-1.766,1.552,-44.047,-220.115,7.98,
37514370,0.364,-1.977,0.343,94.745,-106.067,12.88,
37514380,-0.883,-1.079,0.477,191.257,58.222,1.89,
37514390,-0.969,-1.247,-0.093,229.267,96.442,2.905,
37514400,-0.067,-1.151,-1.044,252.945,82.407,-23.817,
37514410,0.124,-0.342,-1.011,201.285,142.8,-52.937,
37514420,-0.654,-0.466,-0.619,59.097,173.057,-112.087,
37514430,-0.822,-0.794,-0.244,-46.235,128.8,-166.582,
37514440,-0.16,-0.615,-0.312,-88.742,88.305,-176.4,
37514450,-0.138,-0.343,-0.315,-132.44,72.8,-196.857,
37514460,-0.65,-0.348,-0.146,-182.77,53.182,-226.73,
37514470,-0.826,-0.032,-0.117,-200.147,21.91,-214.27,
37514480,-0.745,0.749,-0.343,-189.77,0.175,-152.985,
37514490,-0.342,1.437,-0.118,-187.425,-13.177,-88.637,
37514500,1.786,1.995,1.592,-205.94,40.617,-53.235,
37514510,1.939,-0.225,1.873,-29.575,112.105,-108.815,
37514520,1.467,-1.998,-0.851,455.892,304.01,-324.1,
37514530,-1.459,0.082,1.893,462.77,249.707,-175.822,
37514540,1.53,1.739,0.698,464.835,142.625,137.882,
37514550,0.023,-0.444,1.805,435.225,92.365,177.835,
37514560,-1.176,1.158,1.932,368.515,98.63,240.607,
37514570,-1.89,1.661,1.757,276.22,92.89,209.72,
37514580,-1.814,1.446,1.429,105.122,38.465,81.235,
37514590,-0.807,0.902,1.339,-25.865,-45.342,-24.045,
37514600,-0.135,0.272,1.179,-105.28,-75.18,-64.89,
37514610,0.231,-0.269,0.968,-127.785,-70.472,-68.722,
37514620,0.5,-0.447,0.932,-117.967,-47.197,-54.6,
37514630,0.458,-0.31,0.998,-92.172,-17.552,-30.625,
37514640,0.398,-0.307,0.987,-81.235,5.897,-1.365,
37514650,0.109,-0.225,1.039,-72.695,19.127,21.875,
37514660,-0.048,-0.082,1.147,-81.655,21.175,38.01,
37514670,-0.221,0.014,1.2,-106.662,10.097,44.59,
37514670,0.026,-0.047,1.21,-142.852,-13.142,52.78,
37514690,-0.075,0.067,1.242,-179.62,-20.002,64.242,
37514690,-0.026,0.078,1.253,-219.502,-28.175,78.067,
37514710,-0.201,0.016,1.133,-255.99,-34.457,94.045,
37514710,-0.257,-0.208,1.129,-288.715,-37.345,105.455,
37514730,-0.433,-0.121,1.302,-307.125,-51.152,116.83,
37514730,-0.501,-0.993,1.726,-301.612,-99.137,95.497,
37514750,-0.507,-1.612,1.695,-272.387,-168.752,87.587,
37514750,-0.357,-1.78,1.128,-162.382,-170.065,70.595,
37514760,-1.007,-1.185,1.123,-54.127,-76.002,95.06,
37514770,-1.472,-1.113,0.759,48.632,13.44,154.262,
37514780,-0.114,-0.85,0.52,114.432,108.185,241.43,
37514790,0.44,-0.251,-0.038,153.317,131.18,234.657,
37514800,0.277,0.255,-0.527,159.18,116.357,165.707,
37514810,0.099,0.397,-0.605,101.307,82.197,94.43,
37514820,0.081,0.21,-0.49,29.085,35.77,24.115,
37514830,0.101,-0.083,-0.216,-29.33,8.54,-33.372,
37514840,-0.043,-0.425,-0.084,-51.642,14.367,-87.482,
37514850,-0.481,-0.326,-0.255,-30.065,35.105,-132.58,
37514860,-0.763,0.128,-0.464,-15.872,51.975,-150.22,
37514870,-0.773,0.597,-0.517,-19.845,57.907,-141.767,
37514880,-0.748,0.805,-0.464,-26.092,53.69,-118.702,
37514890,-0.653,0.813,-0.405,-29.417,45.745,-83.86,
37514900,-0.399,0.779,-0.43,-25.847,36.505,-46.13,
37514910,-0.875,-0.596,1.582,-68.512,-24.955,-44.677,
37514920,1.088,-1.998,-0.684,46.252,-386.767,-313.442,
37514930,-0.721,0.709,1.26,536.13,-7.262,-395.062,
37514940,0.992,1.912,0.416,457.957,55.545,-111.177,
37514950,1.508,-1.075,1.386,329.507,34.632,-74.987,
37514960,0.473,-0.146,1.446,398.895,29.82,29.575,
37514970,0.837,0.803,1.704,349.475,43.26,180.092,
37514980,-0.812,0.822,1.881,263.497,87.815,188.002,
37514990,-1.943,1.237,1.367,174.667,86.415,131.32,
37515000,-1.328,0.918,1.144,58.205,9.712,35.14,
37515010,-0.181,0.395,1.184,-30.257,-55.037,-25.672,
37515010,0.2,0.068,1.151,-66.325,-57.82,-31.412,
37515030,0.153,0.064,1.152,-82.04,-37.362,-21.91,
37515030,0.155,0.057,1.204,-98.84,-16.922,-11.06,
37515050,0.204,0.134,1.259,-124.582,-15.61,4.637,
37515050,0.082,-0.015,1.234,-153.772,-13.545,22.312,
37515070,-0.056,-0.078,1.222,-186.06,-17.867,38.465,
37515070,0.034,-0.024,1.177,-218.172,-32.777,61.04,
37515080,-0.066,0.031,1.151,-249.9,-51.31,86.24,
37515090,-0.412,-0.018,1.144,-280.035,-89.215,114.012,
37515100,-0.301,-0.319,1.167,-311.377,-146.142,146.37,
37515110,-0.334,-0.815,1.491,-318.762,-200.025,172.812,
37515120,-0.13,-1.45,1.694,-241.535,-284.637,174.772,
37515130,0.045,-1.851,1.501,-145.302,-302.977,126.035,
37515140,-0.178,-1.578,0.853,-21.175,-163.747,130.585,
37515150,-0.957,-1.236,0.583,90.125,-18.812,122.972,
37515160,-1.044,-0.782,0.485,126.717,91.192,124.005,
37515170,0.23,-0.76,-0.107,164.43,149.345,134.697,
37515180,0.424,-0.46,-0.062,159.635,209.772,110.88,
37515190,0.232,-0.339,-0.178,140.122,230.352,59.517,
37515200,0.379,-0.043,-0.42,118.387,218.312,4.777,
37515210,0.342,0.146,-0.542,64.067,194.022,-40.197,
37515220,0.204,0.243,-0.477,-3.412,140.682,-104.422,
37515230,0.303,0.168,-0.308,-69.3,80.465,-169.995,
37515240,0.396,0.018,-0.185,-113.032,58.73,-224.385,
37515250,0.124,0.129,-0.07,-126.787,67.392,-262.675,
37515260,-0.257,0.516,-0.063,-126.612,72.432,-284.252,
37515270,-0.645,0.979,-0.127,-120.942,51.03,-279.282,
37515280,-0.973,1.314,0.147,-127.172,19.197,-239.68,
37515290,-1.995,-0.777,1.998,-149.117,-111.947,-199.43,
37515300,0.243,-1.998,-0.158,191.38,-314.93,-146.51,
37515310,0.858,-0.207,0.362,468.107,88.917,-93.555,
37515320,-1.198,1.968,0.465,356.702,53.48,-106.82,
37515330,1.653,-0.099,1.244,300.02,41.475,-28.017,
37515340,0.216,-0.664,1.428,296.677,45.062,36.4,
37515350,0.36,0.508,1.532,278.652,27.982,92.872,
37515360,-0.414,1.031,1.696,179.637,38.832,138.652,
37515370,-1.027,0.724,1.573,108.412,28.525,121.1,
37515380,-1.138,0.567,1.345,29.732,11.532,74.532,
37515390,-0.974,0.161,1.148,-35.682,-11.147,-3.5,
37515400,-0.358,-0.043,0.935,-69.195,-29.592,-57.82,
37515410,0.09,-0.346,0.835,-67.427,-27.195,-83.912,
37515420,0.36,-0.566,0.831,-44.152,-16.502,-76.37,
37515420,0.593,-0.538,0.845,-18.427,-8.697,-45.167,
37515440,0.515,-0.376,0.927,5.127,4.182,-2.8,
37515440,0.208,-0.28,1.07,18.427,18.427,31.482,
37515460,-0.02,-0.008,1.218,11.165,29.085,50.382,
37515460,-0.22,0.294,1.236,-11.427,41.877,48.3,
37515480,-0.384,0.153,1.232,-47.862,47.757,29.172,
37515480,-0.365,0.136,1.334,-92.067,42.472,11.812,
37515500,-0.139,0.184,1.383,-142.94,37.572,3.99,
37515500,-0.276,0.163,1.311,-190.942,47.11,-0.63,
37515510,-0.247,0.059,1.244,-227.587,57.417,-7.647,
37515520,-0.191,-0.181,1.151,-244.79,71.382,-14.717,
37515530,-0.032,-0.033,1.086,-236.722,84.437,-17.237,
37515540,0.012,-0.31,1.133,-240.345,89.092,-44.205,
37515550,-0.287,-0.532,1.271,-251.037,91.332,-33.652,
37515560,-0.336,-1.064,1.462,-231.787,65.467,-20.772,
37515570,-0.248,-1.314,1.325,-182.087,28.14,-6.667,
37515580,-0.097,-1.106,1.004,-120.575,7.787,12.337,
37515590,0.45,-1.168,0.927,-86.135,17.342,42.332,
37515600,0.157,-1.309,1.208,-46.532,24.745,35.857,
37515610,0.184,-0.921,0.673,47.845,24.885,42.402,
37515620,0.685,-0.082,0.025,118.09,49.332,61.617,
37515630,0.166,0.635,-0.449,116.76,23.415,24.22,
37515640,-0.036,1.028,-0.59,84.927,-47.565,-22.172,
37515650,0.058,1.081,-0.42,26.967,-100.94,-39.27,
37515660,0.063,0.837,-0.161,-9.275,-113.802,-54.372,
37515670,-0.119,0.664,-0.035,-12.757,-88.305,-69.265,
37515680,-0.505,0.511,-0.169,11.515,-58.432,-75.425,
37515690,-0.736,0.42,-0.463,31.605,-46.987,-62.965,
37515700,-0.731,0.047,-0.668,24.29,-46.725,-38.29,
37515710,-0.95,0.232,-0.649,-9.117,-53.13,-3.307,
37515720,-0.325,-0.976,-0.344,-9.607,-59.237,-1.837,
37515730,-1.868,-1.998,1.529,-103.232,-176.47,-114.572,
37515740,1.411,-0.646,-0.343,382.007,-258.562,-267.155,
37515750,-0.128,1.997,-0.188,442.067,21.157,-34.387,
37515760,1.891,1.057,1.292,248.605,-15.47,-60.847,
37515760,0.209,-1.936,1.872,241.29,38.15,-121.187,
37515780,0.538,0.293,1.338,340.707,44.17,-2.17,
37515780,0.798,1.065,1.44,231.542,46.375,82.075,
37515800,-0.129,0.116,1.764,137.445,45.045,97.877,
37515800,-0.653,0.755,1.549,82.477,43.172,103.162,
37515820,-0.905,0.388,1.331,0.49,34.44,69.09,
37515820,-1.004,0.095,1.112,-58.712,23.257,10.132,
37515830,-0.626,-0.035,0.949,-89.022,10.902,-42.542,
37515840,-0.238,-0.202,0.879,-95.847,6.597,-79.065,
37515850,0.054,-0.436,0.907,-84.192,8.33,-90.317,
37515860,0.403,-0.397,0.98,-74.602,11.672,-73.342,
37515870,0.451,-0.265,1.012,-69.107,18.165,-42.77,
37515880,0.333,-0.277,1.073,-73.307,25.095,-10.762,
37515890,0.167,-0.243,1.105,-81.55,34.37,15.015,
37515900,-0.002,-0.195,1.12,-95.882,43.907,30.17,
37515910,-0.109,-0.275,1.2,-114.047,52.202,38.937,
37515920,-0.187,0.009,1.16,-131.74,61.967,48.352,
37515930,-0.164,-0.082,1.17,-146.632,67.795,39.69,
37515940,-0.245,-0.213,1.193,-180.495,70.192,36.207,
37515950,-0.113,-0.266,1.22,-198.047,71.452,34.072,
37515960,-0.249,-0.289,1.147,-201.67,75.18,30.257,
37515970,-0.296,-0.461,1.294,-202.37,63.367,17.99,
37515980,-0.233,-0.771,1.483,-182.63,45.692,11.077,
37515990,-0.178,-0.878,1.566,-143.535,23.537,3.447,
37516000,0.28,-0.755,1.225,-97.72,3.552,-13.002,
37516010,0.429,-0.55,0.846,-33.722,35.63,-3.272,
37516020,0.464,-0.203,0.815,20.282,72.135,-8.505,
37516030,0.648,-0.204,1.196,71.085,40.495,-28.437,
37516040,1.773,0.162,0.678,138.197,-18.112,-55.09,
37516050,0.587,1.081,-0.661,210.21,-42.665,-111.545,
37516060,-0.177,1.848,-0.744,188.51,-111.282,-141.522,
37516070,-0.721,1.088,-0.135,45.745,-163.905,-92.925,
37516080,-0.411,0.026,0.431,-1.767,-180.757,1.137,
37516090,-0.301,-0.032,0.204,65.607,-148.82,74.795,
37516100,-0.669,0.216,-0.201,104.16,-111.755,122.622,
37516110,-0.555,-0.167,-0.442,76.755,-121.485,144.305,
37516120,-0.299,-0.543,-0.62,47.197,-132.317,145.687,
37516130,-1.036,-1.193,1.265,28.42,-137.007,120.96,
37516140,-0.49,-1.998,-0.079,156.852,-248.22,-80.727,
37516150,-0.416,0.793,0.793,437.675,41.527,44.852,
37516160,0.375,1.997,0.05,409.5,66.605,149.205,
37516170,0.124,-0.42,1.466,226.135,-37.415,-27.982,
37516170,-0.363,-1.025,1.764,251.055,-47.495,-54.67,
37516190,1.062,1.656,1.335,272.02,-19.915,16.485,
37516190,0.377,0.43,1.75,123.2,11.41,18.777,
37516210,-0.165,0.988,1.439,71.137,43.592,41.79,
37516210,-0.785,0.381,1.232,-5.81,35.42,33.547,
37516230,-0.69,-0.043,1.037,-48.475,5.53,0.77,
37516230,-0.353,-0.188,0.978,-70.07,-21.455,-30.012,
37516250,0.12,-0.103,1.031,-72.852,-29.242,-42.805,
37516250,0.131,-0.082,1.099,-71.452,-11.112,-44.782,
37516260,0.15,-0.037,1.173,-85.417,2.992,-32.777,
37516270,0.071,0.016,1.156,-104.982,12.652,-18.9,
37516280,-0.022,-0.077,1.116,-131.057,18.147,-10.517,
37516290,-0.03,-0.115,1.099,-152.022,16.047,-4.847,
37516300,-0.001,-0.105,1.092,-171.097,14.035,0.577,
37516310,0.027,-0.142,1.065,-186.637,14.42,4.06,
37516320,0.089,-0.281,1.059,-199.692,20.072,8.4,
37516330,0.038,-0.26,1.076,-203.262,32.567,19.512,
37516340,0.251,-0.311,1.081,-177.852,46.025,22.697,
37516350,0.154,-0.433,1.216,-191.625,68.775,19.74,
37516360,0.314,-0.797,1.268,-181.912,105.157,19.477,
37516370,0.282,-1.016,1.19,-135.082,128.222,0.822,
37516380,-0.281,-1.164,1.281,-79.432,124.477,-38.412,
37516390,-0.597,-1.686,1.549,-27.3,71.82,-86.52,
37516400,1.641,-1.662,0.54,39.445,14.56,-122.08,
37516410,0.921,-0.709,0.062,105.927,59.885,-182.857,
37516420,-1.154,-0.057,-0.378,124.827,46.672,-267.977,
37516430,-1.502,0.562,-0.455,65.642,1.54,-218.435,
37516440,-1.175,0.639,-0.335,0.647,-27.667,-112.717,
37516450,-0.893,0.64,-0.062,-36.4,-27.93,-26.862,
37516460,-0.577,0.861,-0.144,-21.822,-3.762,58.905,
37516470,-0.235,1.321,-0.566,9.397,1.855,117.495,
37516480,0.24,1.495,-0.959,0.28,-10.062,137.252,
37516490,0.436,1.409,-0.9,-35.07,-32.112,121.345,
37516500,-0.148,-0.181,0.876,-90.405,-76.755,65.012,
37516510,-0.218,-1.998,-0.195,40.582,-316.347,-208.005,
37516510,-1.007,0.962,0.418,543.007,-11.795,-130.287,
37516530,1.549,1.969,-0.112,483.175,-17.832,32.952,
37516530,0.865,-1.327,1.84,246.697,-39.532,-46.375,
37516550,0.162,-0.175,1.657,403.235,-28.42,5.705,
37516550,1.11,1.514,1.792,330.89,26.512,101.097,
37516570,-0.697,0.831,1.857,190.96,76.79,81.077,
37516570,-1.382,1.588,1.295,91.28,57.732,70.682,
37516580,-0.988,0.618,1.256,-33.687,-8.715,16.52,
37516590,-0.427,0.12,1.089,-93.607,-53.06,-32.655,
37516600,0.115,-0.363,0.992,-114.94,-62.807,-56.77,
37516610,0.367,-0.273,0.98,-104.65,-48.72,-52.587,
37516620,0.453,-0.287,0.987,-92.47,-23.537,-35.21,
37516630,0.191,-0.239,1.023,-85.382,-0.245,-13.982,
37516640,-0.007,-0.168,1.01,-83.877,11.305,-1.96,
37516650,-0.079,-0.153,1.081,-92.155,12.88,-3.867,
37516660,-0.051,-0.074,1.125,-106.435,12.337,-5.845,
37516670,0.002,-0.053,1.138,-128.782,12.057,-5.127,
37516680,-0.017,-0.073,1.129,-152.39,9.31,-1.032,
37516690,-0.081,-0.11,1.13,-173.215,0.017,8.155,
37516700,-0.116,-0.284,1.119,-189.175,-15.207,21,
37516710,-0.278,0.054,1.139,-189.98,-15.557,37.345,
37516720,-0.002,-0.309,1.024,-186.865,3.255,24.727,
37516730,-0.194,-0.491,1.004,-194.582,34.947,19.057,
37516740,-0.291,-0.571,0.941,-178.465,67.27,0.927,
37516750,-0.694,-1.011,1.302,-159.162,75.705,-29.19,
37516760,-1.102,-1.366,1.554,-93.432,32.147,-68.127,
37516770,-0.925,-1.273,1.007,4.147,4.007,-76.335,
37516780,-1.253,-0.428,0.363,88.48,27.457,-45.832,
37516790,-1.354,0.265,-0.012,117.635,51.59,6.947,
37516800,-1.13,0.22,-0.207,98.245,73.955,71.802,
37516810,-0.835,0.384,-0.533,103.477,115.657,140.577,
37516820,-0.871,0.717,-0.647,87.027,144.795,189,
37516830,-0.498,0.579,-0.62,31.132,125.23,200.952,
37516840,0.373,0.321,-0.563,-22.855,100.1,192.307,
37516850,0.808,0.344,-0.563,-45.08,92.505,141.68,
37516860,0.049,0.365,0.6,-63.892,65.432,57.68,
37516870,0.49,-1.706,1.184,-130.672,-302.54,-149.17,
37516880,0.313,-1.675,0.658,217.245,-239.032,-429.03,
37516890,-1.325,1.412,0.429,527.467,-166.075,-348.32,
37516900,1.998,0.815,1.207,327.74,-126.805,-146.877,
37516910,0.481,-0.896,1.593,305.252,-65.52,-130.742,
37516920,1.348,0.656,1.684,365.575,-36.82,1.417,
37516920,0.498,0.512,1.948,255.675,53.83,129.605,
37516930,-1.372,1.614,1.521,173.477,100.415,135.345,
37516940,-1.794,1.22,1.137,51.03,39.305,79.94,
37516950,-0.988,0.267,1.115,-52.517,-41.807,-3.867,
37516960,-0.005,-0.106,0.975,-85.557,-76.002,-51.835,
37516970,0.468,-0.505,0.949,-84.332,-66.587,-61.6,
37516980,0.618,-0.389,0.903,-60.287,-35.175,-34.86,
37516990,0.421,-0.249,0.969,-36.032,-2.975,5.792,
37517000,-0.011,-0.168,0.991,-18.97,14.28,34.142,
37517010,-0.09,-0.163,1.022,-17.465,14.56,38.132,
37517020,-0.121,-0.007,1.108,-21.77,17.29,30.922,
37517030,-0.042,0.109,1.183,-39.445,20.177,22.872,
37517040,0.012,0.074,1.225,-67.917,24.832,19.04,
37517050,0.058,0.02,1.235,-102.9,26.005,24.08,
37517060,0.009,-0.02,1.221,-140.56,25.585,38.237,
37517070,-0.103,-0.075,1.159,-173.372,16.345,53.882,
37517080,-0.336,-0.145,1.042,-198.187,6.107,71.487,
37517090,-0.269,-0.06,1.116,-215.355,-5.145,84.332,
37517100,-0.34,0.024,1.056,-223.475,-8.417,83.615,
37517110,-0.352,-0.346,1.212,-229.04,-5.355,75.11,
37517120,0.085,-0.786,1.046,-206.395,29.26,61.127,
37517130,-0.066,-0.924,1.159,-170.31,53.672,40.267,
37517140,-0.406,-1.28,1.473,-122.36,41.597,7.77,
37517150,-0.475,-1.61,0.979,-49.455,16.782,-19.075,
37517160,-0.373,-1.48,0.775,27.825,37.695,-17.482,
37517170,-0.137,-0.883,0.23,100.345,50.837,7.542,
37517180,-0.164,-0.283,-0.47,126.122,34.702,-0.297,
37517190,0.051,0.082,-0.886,104.387,5.39,-24.552,
37517200,-0.025,0.332,-0.566,15.487,-20.125,-52.71,
37517210,0.019,-0.071,-0.099,-79.1,-57.242,-95.935,
37517220,0.042,-0.032,-0.021,-97.3,-64.172,-123.48,
37517230,-0.647,0.315,-0.13,-85.347,-41.335,-130.27,
37517240,-1.292,0.458,-0.3,-83.947,-40.985,-111.37,
37517250,-1.444,0.733,-0.09,-84.262,-51.992,-50.54,
37517260,-0.779,0.23,1.453,-105.035,-53.357,26.792,
37517260,1.888,-1.957,1.152,10.657,-47.442,13.3,
37517280,-0.604,-0.929,0.359,495.285,65.152,-171.972,
37517280,-1,1.3,0.999,400.942,-16.31,-176.995,
37517300,1.836,-0.074,0.968,261.345,21.717,5.827,
37517300,-0.384,-0.172,1.252,317.607,-23.275,-31.78,
37517320,0.517,0.242,1.382,265.23,-21.087,49,
37517320,-0.154,0.513,1.521,224.157,-10.255,77.175,
37517330,-0.35,0.557,1.509,157.15,5.285,73.167,
37517340,-0.644,0.519,1.392,102.322,8.295,44.415,
37517350,-0.502,0.443,1.286,37.467,-9.432,7.542,
37517360,-0.106,0.274,1.231,-14.28,-24.587,-21.245,
37517370,0.079,0.113,1.191,-48.352,-21,-30.73,
37517380,0.099,0.033,1.199,-71.592,-3.85,-27.772,
37517390,0.085,0.065,1.227,-91.35,14.157,-20.3,
37517400,0.069,-0.001,1.237,-117.582,29.05,-12.67,
37517410,-0.016,-0.042,1.187,-147.962,37.625,-2.59,
37517420,-0.019,-0.083,1.14,-178.727,33.6,8.89,
37517430,0.01,-0.125,1.123,-207.55,24.867,19.495,
37517440,0.085,-0.186,1.134,-231.542,20.772,32.97,
37517450,0.084,-0.272,1.127,-252.787,20.125,52.29,
37517460,0.002,-0.355,1.185,-269.57,14.927,71.295,
37517470,-0.174,-0.245,1.217,-285.617,10.972,95.287,
37517480,-0.085,-0.469,1.153,-263.077,4.9,99.627,
37517490,-0.569,-0.834,1.059,-265.247,-7.7,79.887,
37517500,-0.647,-1.266,1.149,-229.687,4.462,64.732,
37517510,-0.254,-1.563,0.472,-153.107,14.91,46.182,
37517520,-0.479,-1.722,-0.046,-96.075,74.97,36.05,
37517530,-0.999,-1.477,1.078,-95.55,107.66,33.25,
37517540,-0.131,-1.266,0.91,-24.5,79.432,63.122,
37517550,0.189,-0.357,0.443,76.772,89.827,82.985,
37517560,0.43,0.281,0.095,99.417,94.307,65.52,
37517570,0.602,0.818,-0.198,91.035,78.61,24.867,
37517580,0.737,1.344,-0.454,77.315,46.725,-18.707,
37517590,0.761,1.468,-0.453,33.827,9.642,-72.817,
37517600,0.641,1.09,-0.261,-18.882,-13.16,-126.892,
37517600,0.344,0.781,-0.183,-32.55,-16.45,-162.54,
37517620,0.018,0.541,-0.389,-13.51,-12.792,-171.167,
37517620,-0.305,0.832,-0.63,-10.482,-20.545,-173.285,
37517640,-0.774,-0.129,-0.708,-5.005,-31.657,-104.107,
37517640,-1.994,-1.925,1.506,-96.18,-151.97,-138.985,
37517660,1.1,-0.421,-0.355,350.21,-311.885,-174.72,
37517660,1.371,1.997,-0.266,444.64,40.932,95.777,
37517670,1.521,0.81,0.946,253.417,-74.812,-48.037,
37517680,-0.828,-1.996,1.998,235.305,-26.845,-113.89,
37517690,0.573,0.484,0.998,390.792,20.405,62.44,
37517700,0.576,1.224,1.264,301.105,13.3,103.967,
37517710,-0.142,-0.104,1.703,183.172,0.805,96.092,
37517720,-0.67,0.735,1.558,145.285,6.195,99.225,
37517730,-0.921,0.53,1.333,62.125,4.357,65.292,
37517740,-0.94,0.07,1.185,-9.345,-3.325,-5.81,
37517750,-0.368,0.105,1.045,-38.675,-10.22,-56.472,
37517760,-0.099,-0.114,1.042,-52.78,-4.83,-89.757,
37517770,0.187,-0.317,1.121,-59.097,2.047,-93.852,
37517780,0.442,-0.179,1.147,-69.002,12.617,-66.692,
37517790,0.384,-0.131,1.146,-87.08,19.88,-29.96,
37517800,0.199,-0.172,1.159,-107.31,24.5,5.582,
37517810,0.054,-0.121,1.163,-128.8,27.107,31.78,
37517820,-0.04,-0.079,1.194,-156.1,31.657,47.827,
37517830,-0.084,-0.029,1.224,-182.7,41.755,56.14,
37517840,-0.14,-0.216,1.237,-207.13,58.432,57.627,
37517850,-0.097,-0.022,1.103,-215.215,76.842,61.285,
37517860,0.014,-0.451,1.17,-228.847,85.05,55.125,
37517870,-0.077,-0.49,1.145,-247.362,95.83,68.407,
37517880,-0.093,-0.559,1.117,-226.187,85.557,66.762,
37517890,-0.225,-0.741,1.23,-212.502,58.17,48.93,
37517900,-0.381,-0.944,1.372,-191.975,23.432,37.257,
37517910,-0.162,-0.969,1.413,-158.025,-9.94,26.845,
37517920,0.098,-0.64,0.985,-101.29,-8.295,32.147,
37517930,-0.02,-0.663,1.147,-49.77,14.262,26.005,
37517940,-0.405,-1.081,1.547,1.925,-26.985,1.89,
37517950,0.897,-1.152,0.344,119.192,-92.435,-6.37,
37517960,0.757,-0.254,-0.488,193.235,-73.395,-56.98,
37517970,-0.296,0.35,-1.015,135.292,-86.205,-133.997,
37517980,-0.901,0.3,-0.679,28.227,-120.137,-157.937,
37517990,-0.739,-0.111,-0.148,-60.515,-136.815,-125.597,
37518000,-0.619,-0.408,0.127,-73.027,-111.51,-83.58,
37518010,-1.014,-0.208,-0.011,-27.895,-67.637,-36.242,
37518010,-1.222,0.167,-0.371,8.575,-48.107,21.98,
37518030,-0.936,0.26,-0.614,4.042,-49.455,77.157,
37518030,-0.601,0.141,-0.655,-18.742,-41.982,111.702,
37518050,-0.451,0.118,-0.682,-24.237,-22.225,121.625,
37518050,-0.432,0.02,-0.837,-27.23,-8.102,106.47,
37518070,0.198,-0.133,0.05,-70.315,47.6,88.445,
37518070,-1.078,-1.976,1.932,-112.595,-83.632,-76.562,
37518080,0.615,-1.517,-1.264,418.775,-341.897,-295.767,
37518090,-0.75,1.996,0.283,484.05,19.582,-133.84,
37518100,1.965,1.075,0.862,371.525,-7.035,-55.282,
37518110,0.666,-1.65,1.446,377.16,71.12,-102.655,
37518120,0.266,-0.013,1.275,453.81,53.287,-3.167,
37518130,0.683,1.241,1.475,378.315,37.187,104.685,
37518140,-0.258,0.425,1.956,260.4,38.22,123.637,
37518150,-0.824,1.124,1.655,187.915,56.56,118.755,
37518160,-1.295,0.812,1.391,79.012,44.887,58.52,
37518170,-0.932,0.342,1.186,-9.117,9.397,-13.16,
37518180,-0.207,0.136,1.069,-53.497,-19.495,-60.497,
37518190,0.067,-0.111,1.033,-66.395,-19.04,-78.05,
37518200,0.159,-0.184,1.042,-66.727,-3.115,-69.527,
37518210,0.223,-0.162,1.079,-70.227,7.315,-41.702,
37518220,0.125,-0.114,1.081,-78.575,15.75,-13.51,
37518230,-0.079,-0.117,1.067,-91.315,19.232,3.36,
37518240,-0.146,-0.1,1.052,-105.7,15.872,12.81,
37518250,-0.179,-0.11,1.059,-121.887,8.82,16.345,
37518260,-0.135,-0.129,1.062,-138.67,0.682,19.285,
37518270,-0.079,-0.155,1.052,-154.682,-5.372,25.69,
37518280,-0.034,-0.211,1.05,-169.61,-9.502,36.627,
37518290,-0.072,-0.307,1.071,-179.655,-7.262,50.417,
37518300,-0.31,-0.07,1.136,-176.575,-3.692,63.28,
37518310,-0.11,-0.368,1.029,-154.612,2.782,65.485,
37518320,0.051,-0.784,0.958,-163.765,30.222,69.387,
37518330,-0.241,-0.943,1.089,-124.39,29.54,59.92,
37518330,-0.329,-1.123,1.248,-73.78,19.477,39.007,
37518350,-0.419,-1.646,1.608,-8.942,11.672,40.757,
37518350,-1.493,-1.329,0.739,120.575,22.102,70.455,
37518370,-0.16,-0.209,-0.485,223.492,29.347,123.042,
37518370,0.538,-0.196,-0.287,128.065,33.915,139.562,
37518390,0.392,-0.493,-0.431,74.077,-10.675,66.08,
37518390,0.388,0.157,-0.592,62.002,-17.64,24.01,
37518410,0.144,0.571,-0.534,3.43,-15.89,-8.33,
37518410,-0.043,0.515,-0.495,-52.097,-26.862,-51.87,
37518420,-0.373,0.755,-0.482,-59.605,-34.947,-79.397,
37518430,-0.529,1.039,-0.344,-56.245,-51.047,-97.195,
37518440,-1.573,-0.22,1.711,-91.122,-140.507,-110.372,
37518450,1.428,-1.998,0.798,259.245,-202.807,-201.547,
37518460,-0.774,-0.102,0.888,452.427,-17.692,-148.977,
37518470,1.103,1.849,1.248,332.167,-45.797,-92.452,
37518480,1.206,-0.153,1.611,295.47,-57.067,-17.325,
37518490,1.052,0.373,1.812,245.752,3.797,40.6,
37518500,-0.221,0.946,1.603,194.775,78.487,87.885,
37518510,-1.408,1.104,1.285,89.11,70.332,80.045,
37518520,-1.138,0.673,1.15,-0.717,6.212,30.852,
37518530,-0.473,0.133,1.097,-63.787,-46.27,-20.895,
37518540,0.092,-0.192,1.026,-83.072,-60.637,-44.905,
37518550,0.374,-0.237,1.031,-78.75,-47.32,-43.225,
37518560,0.426,-0.131,1.057,-72.205,-20.545,-23.17,
37518570,0.139,-0.091,1.091,-72.765,3.745,-2.922,
37518580,0.005,-0.058,1.107,-80.535,14.717,6.65,
37518590,-0.045,-0.072,1.12,-94.622,19.775,4.935,
37518600,-0.049,-0.078,1.13,-114.782,22.172,3.43,
37518610,-0.017,-0.088,1.12,-137.637,19.53,9.17,
37518620,0.001,-0.102,1.102,-160.93,13.825,22.067,
37518630,-0.014,-0.156,1.081,-181.37,5.057,38.552,
37518640,-0.078,-0.176,1.099,-200.532,-5.25,56.245,
37518650,-0.139,-0.325,1.198,-216.562,-12.792,72.59,
37518660,-0.44,0.183,1.106,-222.11,-18.147,90.055,
37518670,-0.082,-0.311,1.177,-212.03,-30.572,80.15,
37518680,-0.217,-0.82,1.345,-230.457,-18.147,76.912,
37518690,-0.192,-1.166,1.167,-180.95,-24.132,62.685,
37518700,-0.167,-1.382,1.188,-108.552,-26.74,40.005,
37518710,-0.261,-1.378,1.127,-44.17,3.412,23.362,
37518720,-0.55,-1.29,0.801,41.562,36.872,41.562,
37518730,-0.389,-0.565,-0.012,130.672,77.21,64.802,
37518740,-0.264,-0.038,-0.211,121.24,99.89,77.735,
37518750,-0.287,-0.164,-0.435,87.57,65.397,48.842,
37518760,-0.124,0.049,-0.701,69.247,33.46,18.13,
37518760,0.024,0.258,-0.75,17.465,22.61,-11.637,
37518780,0.134,0.302,-0.765,-52.29,17.395,-54.617,
37518780,0.201,0.61,-0.85,-94.01,11.217,-95.025,
37518800,0.119,0.919,-0.899,-123.48,6.177,-130.392,
37518800,-0.254,1.058,0.187,-168.507,3.22,-167.02,
37518820,-1.969,-1.192,1.998,-194.022,-125.23,-218.435,
37518820,0.607,-1.998,-0.61,244.23,-220.272,-230.58,
37518830,-0.321,0.422,0.253,539.472,138.232,-145.757,
37518840,0.436,1.789,0.343,414.102,-16.415,-162.365,
37518850,1.561,-1.54,1.561,295.82,33.285,-51.712,
37518860,-0.028,0.189,1.328,380.012,14.157,8.172,
37518870,0.813,0.687,1.553,317.992,7.052,143.57,
37518880,-0.373,0.721,1.94,220.185,27.107,164.99,
37518890,-1.247,1.357,1.654,153.142,47.897,146.667,
37518900,-1.29,1.001,1.451,30.065,22.172,61.652,
37518910,-0.749,0.521,1.347,-58.1,-13.615,-22.977,
37518920,-0.08,0.195,1.167,-114.852,-28.105,-73.377,
37518930,0.138,-0.094,1.064,-132.755,-13.755,-94.255,
37518940,0.266,-0.3,1.009,-133.77,9.537,-80.062,
37518950,0.255,-0.294,1.012,-135.52,15.645,-47.757,
37518960,0.153,-0.202,1.015,-141.12,11.952,-9.695,
37518970,0.014,-0.194,1.002,-150.167,3.937,20.772,
37518980,-0.118,-0.242,0.983,-157.955,-4.83,43.557,
37518990,-0.111,-0.268,0.993,-167.982,-13.702,57.925,
37519000,-0.147,-0.259,1.007,-180.25,-17.29,68.6,
37519010,-0.135,-0.303,0.993,-191.66,-22.61,80.57,
37519020,-0.2,-0.218,1.038,-199.36,-25.882,101.727,
37519030,-0.093,-0.322,1.052,-169.085,-36.137,114.135,
37519040,-0.08,-0.549,1.234,-192.43,-43.225,122.202,
37519050,-0.296,-1.12,1.407,-176.33,-61.845,128.012,
37519060,-0.247,-1.213,1.354,-103.862,-84,118.44,
37519070,-0.754,-1.241,1.335,-26.635,-88.462,118.755,
37519080,-1.441,-1.155,1.245,73.482,-81.287,158.147,
37519080,-0.398,-0.862,-0.216,217.052,-64.557,215.53,
37519100,0.468,0.052,-0.338,204.207,-9.362,238.595,
37519100,0.5,-0.073,-0.552,127.627,-25.497,181.265,
37519120,0.467,0,-0.568,93.117,-75.005,94.99,
37519120,0.258,0.275,-0.621,35.07,-119.017,22.96,
37519140,0.051,0.446,-0.594,-46.392,-153.685,-41.125,
37519140,-0.366,0.321,-0.423,-121.117,-174.667,-77.612,
37519160,-0.734,0.217,-0.319,-143.36,-198.31,-80.255,
37519160,-0.86,0.103,-0.071,-146.212,-223.58,-65.31,
37519170,0.513,-1.017,1.78,-156.625,-160.265,-50.697,
37519180,1.959,-1.998,0.646,36.575,139.3,-57.365,
37519190,-0.01,-0.166,-0.038,479.832,139.65,-135.292,
37519200,0.171,1.672,1.164,274.557,110.232,-48.125,
37519210,1.549,-0.045,1.042,281.05,91.157,55.947,
37519220,-0.184,-0.379,1.229,323.96,81.182,97.965,
37519230,0.005,-0.094,1.453,284.427,73.185,143.745,
37519240,-1.115,0.827,1.517,256.13,84.507,136.535,
37519250,-1.265,0.744,1.515,172.322,53.952,73.622,
37519260,-0.701,0.825,1.344,82.267,5.512,16.485,
37519270,-0.293,0.564,1.257,0.892,-26.32,-13.317,
37519280,-0.143,0.182,1.157,-52.167,-35.122,-28.98,
37519290,0.013,-0.082,1.076,-75.53,-33.81,-38.92,
37519300,0.195,-0.152,1.075,-83.702,-25.83,-38.412,
37519310,0.219,-0.069,1.126,-90.37,-10.342,-25.585,
37519320,0.075,0.033,1.162,-103.757,4.427,-9.677,
37519330,-0.012,-0.035,1.133,-122.937,2.835,7.385,
37519340,-0.133,-0.1,1.116,-146.457,-8.155,23.747,
37519350,-0.093,-0.143,1.092,-166.635,-32.305,41.632,
37519360,-0.025,-0.174,1.063,-187.18,-51.082,59.552,
37519370,0.021,-0.162,1.097,-203.175,-63.962,76.93,
37519380,-0.154,-0.163,1.075,-215.967,-75.687,94.885,
37519390,-0.272,-0.582,1.219,-224.367,-88.55,115.797,
37519400,-0.195,-1.073,1.405,-212.712,-106.872,144.655,
37519410,-0.065,-1.754,0.875,-112.07,-131.25,134.662,
37519420,-0.87,-1.991,1.218,-45.937,-132.317,132.475,
37519430,-1.211,-1.998,0.864,68.425,-28.997,178.517,
37519440,-0.56,-1.405,0.021,219.187,88.9,259.367,
37519450,0.721,-1.414,-0.201,194.897,154.84,280.927,
37519460,1.173,-1.745,-0.324,152.425,165.707,203.542,
37519470,0.911,-1.071,-0.877,134.837,171.36,115.692,
37519480,0.759,-0.34,-0.869,41.825,150.08,23.52,
37519490,0.595,-0.38,-0.495,-117.757,80.202,-101.622,
37519500,0.294,-0.696,-0.041,-209.702,9.8,-218.89,
37519510,-0.103,-0.363,-0.06,-226.065,-6.702,-256.252,
37519510,-0.877,0.608,-0.343,-199.552,-17.482,-272.125,
37519530,-0.815,1.717,-0.461,-202.352,-27.86,-234.342,
37519530,-1.998,1.897,1.998,-217.35,-95.76,-81.69,
37519550,0.586,0.066,-0.188,216.58,-284.672,26.827,
37519550,1.683,-1.685,0.512,498.487,37.117,57.47,
37519570,-1.902,-1.86,1.636,361.76,55.825,-150.185,
37519570,1.404,1.424,0.814,455.07,14.787,48.982,
37519580,0.106,0.836,1.512,372.522,4.112,100.292,
37519590,0.063,0.294,1.966,259.682,11.83,91.98,
37519600,-0.814,1.57,1.63,195.93,52.325,108.185,
37519610,-1.118,0.992,1.388,45.237,27.982,55.177,
37519620,-0.759,0.551,1.226,-44.03,-17.08,8.977,
37519630,-0.397,0.019,1.047,-97.037,-43.54,-24.605,
37519640,0.002,-0.282,0.95,-110.915,-53.252,-35.507,
37519650,0.335,-0.284,1.015,-102.987,-45.605,-28.28,
37519660,0.465,-0.228,1.07,-94.412,-21.105,-9.082,
37519670,0.301,-0.174,1.079,-95.462,3.552,15.522,
37519680,0.12,-0.155,1.086,-104.282,15.68,36.277,
37519690,-0.051,-0.163,1.107,-121.187,13.072,46.27,
37519700,0.054,-0.168,1.156,-143.115,8.575,48.387,
37519710,0.071,-0.062,1.164,-163.975,15.75,51.572,
37519720,0.043,-0.107,1.165,-183.627,22.015,55.702,
37519730,-0.077,-0.078,1.155,-202.23,29.365,62.09,
37519740,-0.106,-0.327,1.084,-215.967,38.867,62.335,
37519750,-0.205,-0.078,1.168,-221.427,44.065,70.21,
37519760,0.057,-0.471,1.236,-215.25,56.315,54.39,
37519770,-0.481,-0.535,1.553,-224.787,58.205,47.005,
37519780,-0.459,-0.88,1.665,-184.205,22.89,29.767,
37519790,-0.474,-0.793,1.235,-117.722,-26.652,3.377,
37519800,-0.408,-0.599,0.863,-65.957,-34.562,-9.345,
37519810,-0.651,-0.549,1.3,-16.467,-15.12,2.625,
37519820,-0.441,-0.681,0.402,77.577,-38.465,19.915,
37519830,0.556,-0.307,-0.359,167.055,-11.69,45.692,
37519830,0.047,0.306,-1.114,180.582,-29.05,2.625,
37519850,-0.381,0.463,-1.403,124.162,-86.537,-71.96,
37519850,-0.606,-0.059,-0.889,6.807,-127.015,-104.282,
37519870,-0.568,-0.699,-0.579,-43.05,-132.387,-106.907,
37519870,-0.912,-0.481,-0.726,-5.337,-92.855,-88.357,
37519890,-1.384,-0.025,-0.878,8.995,-62.212,-49.227,
37519890,-1.186,-0.304,-0.844,-27.02,-65.607,8.907,
37519910,-0.491,-0.395,0.675,-59.377,-68.617,38.64,
37519910,1.752,-1.868,0.635,-60.287,-160.037,-76.632,
37519920,0.478,-0.536,0.295,452.497,36.347,-208.32,
37519930,-0.306,1.949,0.736,449.295,100.117,-87.552,
37519940,1.95,-0.325,1.218,346.552,66.43,35.035,
37519950,0.543,0.087,1.848,378.472,108.185,99.365,
37519960,-0.941,1.101,1.955,328.265,154.21,137.865,
37519970,-1.939,1.42,1.539,195.107,110.04,84.91,
37519980,-1.34,1.077,1.243,55.142,19.95,19.635,
37519990,-0.516,0.485,1.222,-49.175,-48.86,-29.627,
37520000,0.07,-0.147,1.051,-93.817,-65.117,-52.202,
37520010,0.37,-0.425,0.947,-93.187,-51.94,-52.202,
37520020,0.483,-0.339,0.957,-77.402,-27.475,-32.147,
37520030,0.265,-0.165,1.005,-61.967,-3.64,-3.727,
37520040,0.05,-0.126,1.049,-58.012,7.245,17.727,
37520050,-0.074,-0.09,1.133,-65.607,6.632,24.92,
37520060,-0.086,-0.026,1.167,-86.275,5.827,24.867,
37520070,-0.047,-0.026,1.196,-113.26,3.255,26.267,
37520080,0.022,-0.055,1.232,-145.46,-1.47,36.75,
37520090,0.033,-0.104,1.236,-179.147,-10.132,52.815,
37520100,-0.007,-0.082,1.211,-205.625,-22.207,67.917,
37520110,-0.054,-0.181,1.19,-221.707,-25.882,81.69,
37520120,-0.211,-0.703,1.415,-224.49,-23.922,94.78,
37520130,0.192,-0.882,1.523,-179.27,-31.272,96.372,
37520140,0.65,-1.947,1.213,-135.327,-59.92,50.295,
37520150,0.084,-1.856,1.121,-61.39,8.312,30.905,
37520160,-0.447,-1.703,0.197,33.757,64.82,3.08,
37520170,0.214,-1.474,0.751,59.675,103.092,5.845,
37520180,0.829,-1.057,0.16,66.115,106.662,-15.872,
37520190,0.581,-0.18,-0.276,93.205,104.965,-64.925,
37520200,0.24,0.43,-0.491,42.07,72.887,-112.227,
37520210,0.173,0.643,-0.527,-30.502,5.162,-159.285,
37520220,0.1,0.812,-0.426,-94.902,-46.34,-175.647,
37520230,-0.192,1.146,-0.376,-120.89,-73.675,-162.645,
37520240,-0.421,1.713,-0.45,-116.48,-79.695,-125.667,
37520250,-0.837,1.997,-0.341,-117.355,-77.402,-55.457,
37520260,-1.181,1.936,-0.499,-105.42,-110.425,27.982,
37520260,-1.239,-0.795,1.584,-121.782,-111.527,88.882,
37520270,-0.016,-1.998,0.8,141.382,-126.7,2.012,
37520280,-0.487,1.247,0.172,514.045,109.357,14.7,
37520290,0.073,1.825,0.236,470.662,38.465,76.912,
37520300,0.017,-1.727,1.871,255.29,-10.255,-4.462,
37520310,-0.186,0.42,1.446,371.927,-11.147,18.322,
37520320,0.623,1.188,1.599,305.322,1.592,70.437,
37520330,-0.032,0.404,1.852,161.875,29.942,42.087,
37520340,-0.55,1.247,1.471,108.307,43.47,46.69,
37520350,-0.642,0.699,1.489,-9.345,20.16,19.652,
37520360,-0.277,0.518,1.476,-90.212,1.645,-13.912,
37520370,-0.136,0.235,1.334,-152.74,1.662,-38.325,
37520380,0.149,-0.088,1.157,-193.812,6.422,-38.29,
37520390,-0.099,-0.239,0.986,-211.067,13.142,-27.457,
37520400,-0.085,-0.293,0.932,-225.085,9.17,-14.175,
37520410,-0.026,-0.285,0.871,-223.107,0.14,-5.285,
37520420,-0.005,-0.366,0.868,-218.382,-7.665,4.217,
37520430,0.026,-0.407,0.958,-215.932,-9.905,17.412,
37520440,0.044,-0.748,1.106,-215.11,-2.187,36.19,
37520450,0.118,-0.404,1.316,-195.352,9.87,67.76,
37520460,0.493,-1.48,1.449,-159.915,13.405,63.735,
37520470,0.217,-1.562,0.996,-83.002,0.175,57.995,
37520480,-0.176,-1.114,0.592,-0.525,-7.402,56.945,
37520490,-0.455,-1.385,0.639,30.415,6.895,68.022,
37520500,-0.294,-1.75,0.281,93.975,22.312,80.745,
37520510,0.261,-1.346,-0.154,145.057,76.93,85.837,
37520520,0.667,-1.2,-0.143,126.157,122.15,45.045,
37520530,0.132,-0.977,-0.305,110.46,121.817,-46.987,
37520540,-0.185,-0.287,-0.374,86.625,108.307,-116.987,
37520550,-0.337,0.169,-0.714,37.572,87.412,-150.167,
37520560,-0.428,0.908,-0.921,-7.927,65.957,-167.72,
37520570,-0.527,1.318,-0.756,-78.855,67.69,-150.29,
37520580,-0.318,1.373,-0.559,-124.215,83.352,-107.905,
37520580,-0.169,1.799,-0.034,-113.662,98.752,-65.712,
37520600,-1.96,-0.151,1.059,-160.107,-176.855,-60.812,
37520600,1.522,-1.998,-0.033,354.007,-307.475,-107.292,
37520620,-0.57,-0.037,1.011,429.082,-52.885,-1.557,
37520620,0.385,1.864,0.851,439.53,-81.112,-36.645,
37520640,0.828,-0.37,1.593,386.382,-104.527,9.835,
37520640,0.872,0.133,1.998,317.397,-74.76,45.465,
37520660,0.606,1.411,1.967,274.522,20.037,78.802,
37520660,-0.878,1.401,1.529,125.755,70.525,72.695,
37520670,-0.907,1.115,1.248,13.142,39.34,55.125,
37520680,-0.422,0.077,1.251,-78.96,-6.685,15.33,
37520690,-0.15,-0.07,1.098,-105.787,-18.41,-10.57,
37520700,0.132,-0.136,1.137,-110.827,-6.317,-23.345,
37520710,0.208,-0.209,1.077,-121.922,15.715,-22.522,
37520720,-0.098,-0.189,0.98,-127.785,27.667,-13.09,
37520730,-0.256,-0.166,1.001,-135.31,26.582,-10.972,
37520740,-0.213,-0.045,1.054,-146.125,21.42,-16.905,
37520750,-0.109,-0.033,1.123,-164.815,14.997,-20.457,
37520760,-0.036,-0.012,1.165,-194.25,12.617,-12.477,
37520770,-0.116,0.034,1.158,-221.76,14.962,5.092,
37520780,-0.081,0.042,1.124,-245.297,27.317,16.187,
37520790,-0.02,-0.492,1.136,-261.817,45.955,14.087,
37520800,0.055,0.296,1.272,-266.262,76.44,27.055,
37520810,0.366,-0.199,1.393,-264.705,97.58,20.09,
37520820,0.003,-0.822,1.877,-291.445,99.032,30.292,
37520830,-0.181,-1.01,1.94,-227.937,85.225,31.71,
37520840,0.181,-0.462,1.671,-150.692,59.535,49.962,
37520850,0.435,0.782,1.155,-84.245,46.76,73.972,
37520860,-0.649,1.878,1.603,-5.372,-1.172,88.865,
37520870,0.645,1.997,0.679,143.78,-72.065,141.697,
37520880,1.711,1.997,-0.033,209.072,-12.512,236.285,
37520890,1.3,1.997,-0.525,263.672,-67.252,148.732,
37520900,1.334,1.732,-0.832,260.96,-122.395,68.005,
37520910,1.19,0.735,-0.779,225.4,-136.167,-1.925,
37520920,0.048,-0.21,-0.441,187.442,-125.702,-93.082,
37520930,-1.278,-1.683,1.367,129.027,-194.985,-159.547,
37520940,-0.147,-1.998,-0.033,356.79,-327.005,-353.097,
37520940,-1.308,-0.925,-0.195,421.47,36.295,25.025,
37520960,0.502,1.997,0.343,346.587,-31.15,24.815,
37520960,0.806,0.522,1.26,323.12,-113.312,-1.12,
37520980,0.606,-0.835,1.95,198.87,-56.84,-11.042,
37520980,0.375,1.961,1.18,202.247,45.377,68.25,
37521000,-0.958,0.811,1.306,25.882,49.332,57.837,
37521000,-1.119,0.834,1.133,-33.407,2.082,41.09,
37521010,-0.474,-0.108,1.201,-101.692,-47.547,-8.382,
37521020,0.032,-0.17,1.09,-117.915,-56.647,-42.227,
37521030,0.535,-0.177,1.118,-120.085,-38.517,-54.267,
37521040,0.204,-0.084,1.107,-117.425,13.86,-55.877,
37521050,0.151,-0.181,1.131,-129.377,34.317,-44.87,
37521060,0.14,-0.061,1.051,-138.197,40.547,-30.117,
37521070,0.017,-0.244,1.079,-151.97,38.027,-16.94,
37521080,0.082,-0.149,1.094,-165.112,34.842,-0.56,
37521090,0.079,-0.176,1.083,-172.62,35.525,4.27,
37521100,-0.043,-0.256,1.125,-178.797,39.025,16.327,
37521110,-0.084,-0.26,1.207,-191.52,43.61,36.487,
37521120,0.049,-0.399,1.265,-198.817,61.39,55.335,
37521130,0.095,-0.607,1.19,-190.662,77.787,67.2,
37521140,-0.253,-0.947,1.204,-159.285,63.84,55.86,
37521150,-0.556,-0.946,1.126,-105.682,38.325,44.082,
37521160,-0.414,-1.249,1.331,-38.325,18.742,29.277,
37521170,0.21,-0.867,0.9,20.107,4.585,21.7,
37521180,0.332,0.112,0,110.967,4.48,13.982,
37521190,0.159,0.737,-0.521,104.842,-20.965,-37.52,
37521200,0.127,0.81,-0.622,60.567,-48.282,-77.84,
37521210,-0.106,0.74,-0.468,15.82,-62.037,-103.215,
37521220,-0.22,0.578,-0.435,-9.345,-64.067,-112.84,
37521230,-0.196,0.681,-0.569,-13.842,-57.697,-109.392,
37521240,-0.193,0.706,-0.742,-17.745,-47.88,-105.245,
37521250,-0.463,0.813,-0.325,-28.787,-63.91,-109.865,
37521260,-1.884,-1.138,1.701,-85.942,-197.207,-155.067,
37521270,1.478,-1.998,-0.84,313.232,-169.68,-240.922,
37521280,-0.155,1.481,0.498,521.412,84.542,-29.12,
37521290,1.312,1.688,0.771,427.822,8.61,-4.987,
37521300,1.295,-1.603,1.968,324.975,12.04,36.732,
37521310,0.355,1.018,1.965,357.175,128.45,67.62,
37521320,-1.655,1.834,1.382,217.892,146.632,75.617,
37521330,-1.424,1.666,1.002,60.147,59.36,52.307,
37521330,-0.683,0.748,1.221,-57.33,-39.095,-2.03,
37521350,-0.282,0.122,1.273,-119.682,-67.76,-25.515,
37521350,-0.218,-0.16,1.208,-149.275,-68.25,-47.022,
37521370,0.492,-0.415,1.181,-157.692,-58.992,-57.82,
37521370,0.453,-0.036,1.115,-166.442,-22.47,-52.377,
37521390,0.11,-0.107,1.055,-169.417,8.33,-28.805,
37521390,-0.097,-0.195,1.017,-184.397,6.667,-17.255,
37521410,-0.064,-0.176,0.953,-187.25,-2.362,-9.432,
37521410,-0.127,-0.188,0.978,-193.445,-12.845,-5.705,
37521420,-0.228,-0.207,1.004,-196.227,-28.297,-3.395,
37521430,-0.236,-0.287,1.057,-200.69,-53.322,4.27,
37521440,-0.111,-0.722,1.033,-194.11,-76.055,14.245,
37521450,-0.015,-0.154,1.109,-148.61,-70.42,33.425,
37521460,0.109,-0.765,1.16,-118.405,-64.26,7.612,
37521470,-0.123,-1.041,1.149,-86.415,-44.152,0.367,
37521480,0.242,-1.111,0.883,-16.257,-21.525,-22.277,
37521490,0.032,-0.935,0.725,40.372,23.52,-25.847,
37521500,-0.506,-0.353,0.108,105.437,67.567,-15.942,
37521510,-0.554,0.439,-0.762,141.295,71.767,20.422,
37521520,-0.127,0.97,-1.112,111.492,90.247,64.977,
37521530,-0.203,0.917,-0.968,51.695,104.282,92.82,
37521540,0.302,0.785,-0.691,-1.365,96.635,91.14,
37521550,0.117,0.45,0.915,-48.457,68.407,57.977,
37521560,0.718,-1.906,0.335,-23.275,-154.175,-124.46,
37521570,-0.239,-1.615,1.032,398.93,-25.462,-246.522,
37521580,-0.291,1.838,0.364,394.047,40.617,-80.412,
37521590,1.747,1.144,0.945,333.06,-31.342,-12.74,
37521600,0.512,-1.058,1.903,316.05,-32.672,-10.255,
37521610,1.041,0.995,1.944,301,59.867,58.205,
37521620,-1.306,1.799,1.418,184.082,110.74,61.302,
37521630,-1.583,1.447,1.074,50.312,49.105,49.192,
37521640,-0.707,0.643,1.204,-54.267,-41.107,-4.515,
37521650,0.049,0.088,1.222,-112.595,-69.597,-32.357,
37521660,0.216,-0.347,1.051,-126.892,-52.22,-37.065,
37521670,0.098,-0.461,0.948,-118.702,-31.097,-37.222,
37521670,0.18,-0.292,0.928,-103.092,-17.412,-31.01,
37521690,0.218,-0.242,0.921,-85.05,-4.445,-16.765,
37521690,-0.023,-0.367,0.907,-73.465,3.447,-7.472,
37521710,-0.073,-0.29,0.904,-63.332,3.027,-4.567,
37521710,-0.001,-0.198,0.977,-57.33,0.945,-5.652,
37521730,0.015,-0.124,1.035,-60.672,-0.507,-3.395,
37521730,0.016,-0.147,1.043,-71.907,-4.13,4.742,
37521750,-0.049,-0.197,1.064,-83.335,-12.88,19.057,
37521750,-0.12,-0.252,1.091,-93.1,-29.732,38.832,
37521760,-0.175,-0.324,1.085,-98.787,-42.122,54.67,
37521770,-0.207,-0.456,1.02,-92.715,-47.617,58.957,
37521780,-0.011,-0.718,1.069,-82.442,-34.65,67.865,
37521790,-0.4,-0.991,1.229,-59.92,-26.267,63.507,
37521800,-0.27,-1.136,0.904,-10.342,-55.02,36.172,
37521810,-0.758,-1.606,0.213,53.987,-69.177,9.555,
37521820,0.163,-1.851,0.049,51.1,-28.315,-10.15,
37521830,-0.661,-1.171,0.108,44.012,73.325,15.137,
37521840,-0.592,-0.592,-0.294,71.872,118.685,18.077,
37521850,-0.678,0.065,-0.425,11.935,139.055,52.36,
37521860,-0.25,0.388,-0.195,-75.372,120.242,77.437,
37521870,0.445,1.74,1.962,-140.612,19.442,112.507,
37521880,1.995,1.925,0.986,75.582,-7.087,118.02,
37521890,-1.047,1.778,0.635,327.215,-22.575,-27.23,
37521900,-0.893,-1.856,1.62,226.047,-101.85,-78.645,
37521910,0.65,-0.182,1.397,256.865,-51.87,20.09,
37521920,1.045,1.387,1.573,332.692,15.347,62.125,
37521930,-0.095,0.325,1.799,150.727,68.355,34.877,
37521940,-1.109,1.688,0.886,116.042,79.555,55.527,
37521950,-0.841,0.575,1.101,-7.07,12.46,22.925,
37521960,-0.379,0.312,1.074,-43.89,-29.96,-5.547,
37521970,-0.135,-0.201,1.103,-79.502,-41.125,-16.73,
37521980,-0.097,-0.207,1.092,-82.18,-36.995,-21.805,
37521990,0.142,-0.131,1.127,-88.497,-28.017,-26.897,
37522000,0.363,-0.1,1.221,-100.45,-3.657,-22.54,
37522010,0.151,-0.055,1.195,-119.997,18.865,-6.335,
37522020,0.011,-0.091,1.112,-146.125,24.447,15.347,
37522030,-0.024,-0.123,1.083,-161.525,19.162,30.24,
37522040,-0.107,-0.074,1.073,-178.465,13.037,40.705,
37522050,-0.108,-0.102,1.027,-191.94,-3.062,52.412,
37522060,-0.265,-0.089,1.006,-201.267,-11.532,60.025,
37522070,-0.421,-0.086,1.013,-202.405,-19.145,60.392,
37522080,-0.528,-0.238,1.041,-190.802,-39.532,63.245,
37522080,-0.134,-0.703,1.081,-159.145,-38.115,32.76,
37522100,-0.483,-0.889,1.033,-129.622,-30.94,9.817,
37522100,-0.24,-1.036,0.824,-70.84,-19.932,-0.735,
37522120,-0.14,-1.313,0.848,-40.407,5.897,0.577,
37522120,-0.662,-1.223,0.651,3.185,41.51,-8.487,
37522140,-1.327,-0.696,0.546,76.072,90.002,30.415,
37522140,-0.003,-0.378,0.327,74.497,98.595,80.237,
37522160,0.384,-0.071,-0.075,60.532,90.982,72.537,
37522160,0.259,0.383,-0.374,44.922,80.255,36.767,
37522170,0.448,0.598,-0.685,2.31,62.23,-8.68,
37522180,0.424,0.83,-0.706,-45.675,39.462,-74.34,
37522190,0.24,1.112,-0.73,-86.432,17.307,-139.772,
37522200,-0.412,1.791,0.817,-108.815,-11.742,-171.202,
37522210,-1.24,-1.44,0.634,-57.085,-299.46,-259.7,
37522220,1.6,-1.981,0.466,423.29,-69.405,-183.47,
37522230,-0.814,1.356,0.477,417.917,-0.367,-163.012,
37522240,1.588,0.912,0.979,348.46,-66.815,-136.255,
37522250,1.084,-0.294,1.714,347.76,-67.795,-24.885,
37522260,1.464,0.584,1.998,310.887,20.825,95.637,
37522270,-0.815,1.137,1.784,231.945,118.562,131.6,
37522280,-1.949,1.582,1.179,118.317,89.967,99.032,
37522290,-1.101,0.825,1.17,-4.217,-8.505,16.677,
37522300,-0.012,0.443,1.294,-83.93,-62.475,-33.39,
37522310,0.076,-0.001,1.19,-121.607,-54.985,-37.957,
37522320,0.267,-0.2,1.151,-139.265,-41.16,-26.32,
37522330,0.394,-0.183,1.174,-148.942,-17.762,-9.8,
37522340,0.113,-0.096,1.121,-155.855,8.575,10.937,
37522350,-0.018,-0.21,1.078,-175,20.055,21.647,
37522360,-0.081,-0.123,1.038,-186.095,25.48,25.795,
37522370,-0.045,-0.093,1.061,-197.75,27.475,23.205,
37522380,0.008,-0.165,1.095,-210.227,36.067,20.58,
37522390,0.029,-0.219,1.072,-218.032,48.09,19.057,
37522400,-0.116,-0.279,1.08,-220.08,54.74,26.687,
37522410,0.061,-0.208,1.058,-204.627,56.472,32.515,
37522420,-0.334,-0.467,1.405,-229.285,42.332,15.155,
37522420,-0.497,-0.866,1.624,-207.935,16.1,16.187,
37522440,-0.244,-1.225,1.166,-144.585,-17.657,10.307,
37522440,-0.128,-0.976,0.79,-90.562,-10.15,8.487,
37522460,-0.274,-0.597,0.717,-49.717,20.405,-1.627,
37522460,-0.343,-1.014,0.78,-18.83,25.48,-11.655,
37522480,0.216,-0.383,0.399,48.895,29.75,-26.39,
37522480,-0.207,0.583,-0.229,98.875,48.965,-35.017,
37522500,-0.251,1.086,-0.806,95.707,33.74,-48.44,
37522500,-0.168,1.289,-0.81,52.167,17.762,-40.582,
37522510,-0.057,0.801,-0.478,-7.402,-1.207,-45.22,
37522520,-0.009,0.448,-0.41,-12.81,-2.695,-55.352,
37522530,-0.266,0.437,-0.484,1.855,7.98,-55.352,
37522540,-0.367,-0.042,-0.75,-0.892,-12.005,-53.2,
37522550,-1.285,-0.486,1.043,-42.787,-52.99,-21.997,
37522560,-0.014,-1.998,-0.18,57.68,-335.615,-266.385,
37522570,-1.15,1.031,1.395,498.785,-55.947,-188.492,
37522580,1.438,1.926,-0.386,426.51,-58.66,4.375,
37522590,1.213,-1.402,1.658,201.495,-27.177,-67.97,
37522600,-0.36,-0.935,1.495,368.2,-10.08,-68.81,
37522610,1.273,1.463,1.15,357.927,19.932,100.8,
37522620,0.032,0.066,1.81,239.522,45.167,101.727,
37522630,-0.794,0.98,1.621,196.192,67.27,102.147,
37522640,-1.13,0.944,1.417,100.73,46.445,54.687,
37522650,-0.782,0.671,1.35,-2.607,3.272,-3.115,
37522660,-0.233,0.437,1.336,-77.367,-23.695,-42.77,
37522670,-0.084,0.175,1.284,-127.4,-26.74,-58.852,
37522680,0.211,0.026,1.215,-161.07,-18.2,-56.542,
37522690,0.094,-0.108,1.143,-178.692,0.42,-45.465,
37522700,0.042,-0.189,1.068,-199.815,10.675,-28,
37522710,0.031,-0.176,0.996,-210.805,8.697,-10.885,
37522720,0.097,-0.283,0.939,-213.517,7.665,3.972,
37522730,0.037,-0.378,0.931,-211.032,8.225,17.202,
37522740,0.047,-0.37,0.999,-209.86,8.767,31.57,
37522750,-0.093,-0.523,1.149,-210.822,9.555,53.76,
37522760,0.087,-0.485,1.199,-175.402,11.707,75.267,
37522770,-0.151,-1.135,1.272,-152.897,3.745,57.015,
37522780,-0.284,-1.066,0.833,-81.182,-4.025,50.645,
37522790,-0.249,-1.031,0.808,-24.57,-15.855,31.85,
37522800,-0.538,-1.214,0.826,6.335,5.442,31.062,
37522810,-0.46,-1.258,0.469,83.475,39.182,44.677,
37522820,-0.378,-0.614,-0.1,138.057,74.497,50.925,
37522830,-0.217,-0.222,-0.609,128.8,80.167,45.692,
37522830,-0.242,0.059,-0.604,81.497,54.127,16.73,
37522850,-0.099,-0.102,-0.26,3.867,34.58,-7.14,
37522850,0.226,-0.097,-0.274,-26.705,26.005,-30.362,
37522870,0.201,0.484,-0.424,-28.07,40.092,-59.255,
37522870,0.031,0.893,-0.536,-47.32,38.727,-93.94,
37522890,0.138,1.346,-0.614,-56.665,17.237,-119.647,
37522890,-1.767,0.272,1.998,-95.532,-122.465,-139.947,
37522910,0.695,-1.998,0.12,239.995,-287.91,-210.945,
37522910,-0.3,-0.581,0.419,498.785,37.887,-109.917,
37522920,0.61,1.953,0.947,438.655,-54.442,-139.212,
37522930,1.634,0.189,1.337,381.43,-58.24,-23.152,
37522940,0.861,-0.137,1.998,349.23,-21.63,27.65,
37522950,0.444,1.252,1.931,284.41,90.667,92.925,
37522960,-0.221,0.647,1.28,151.9,51.1,46.235,
37522970,-0.786,0.912,1.395,-15.89,-40.897,-43.102,
37522980,0.285,0.785,1.343,-68.617,-3.972,0.612,
37522990,-0.553,0.077,1.178,-131.792,9.992,-1.802,
37523000,-0.073,-0.357,1.168,-149.485,-9.87,-14.805,
37523010,-0.046,-0.015,1.093,-166.442,-4.305,-19.127,
37523020,0.031,-0.202,1.076,-177.905,4.935,-9.327,
37523030,-0.27,-0.122,1.037,-194.81,2.327,-3.36,
37523040,-0.127,-0.127,0.99,-207.165,-2.607,0.735,
37523050,-0.072,-0.205,1.004,-220.605,-10.272,0.84,
37523060,0.01,-0.236,1.024,-228.007,-10.325,6.86,
37523070,-0.011,-0.469,0.981,-230.317,-8.435,14.665,
37523080,-0.159,-0.038,1.062,-224.892,1.452,27.807,
37523090,0.126,-0.389,0.928,-195.667,-2.817,21.595,
37523100,-0.251,-0.479,1.181,-222.915,-0.07,11.97,
37523110,-0.243,-0.586,1.302,-200.375,3.692,4.865,
37523120,-0.254,-0.793,1.339,-169.942,2.17,-14.035,
37523130,-0.415,-1.104,1.115,-124.81,15.89,-36.295,
37523140,-0.522,-0.99,0.908,-70.91,53.725,-49.227,
37523150,-0.534,-0.822,0.859,-25.287,92.627,-60.392,
37523160,-0.688,-0.015,0.61,35.087,94.482,-73.902,
37523170,-0.448,1.054,0.177,105.455,99.207,-57.312,
37523170,-0.681,1.951,-0.334,138.11,118.195,-21.875,
37523190,-1.002,1.997,-0.661,147.927,85.557,10.972,
37523190,-0.495,1.868,-0.653,109.532,40.512,56.437,
37523210,-0.085,1.54,-0.418,81.042,12.775,90.527,
37523210,0.392,0.787,-0.485,92.75,-7.875,71.925,
37523230,1.294,-1.096,0.201,60.917,10.482,12.302,
37523230,1.065,-1.998,-0.124,-19.757,-171.43,-342.86,
37523250,-1.998,0.391,0.306,501.76,-95.76,-411.985,
37523250,1.555,1.959,0.038,394.957,-91.665,-123.987,
37523260,0.709,-0.759,1.449,188.142,-34.527,-81.917,
37523270,0.532,-0.898,1.745,373.292,-49.595,-109.375,
37523280,1.292,1.477,1.386,343.91,54.775,185.167,
37523290,-0.842,0.306,1.907,233.555,114.117,173.302,
37523300,-1.887,1.351,1.251,176.977,102.952,132.457,
37523310,-1.334,0.815,1.191,48.86,20.422,28.402,
37523320,-0.289,0.66,1.29,-41.44,-43.522,-38.272,
37523330,-0.02,0.26,1.286,-101.062,-51.747,-58.992,
37523340,0.261,-0.053,1.211,-134.172,-36.015,-59.605,
37523350,0.289,-0.006,1.187,-154.035,-20.79,-38.255,
37523360,-0.01,-0.104,1.154,-168.525,-6.317,-16.222,
37523370,-0.275,-0.133,1.063,-188.107,-8.05,1.015,
37523380,-0.124,-0.144,0.987,-203.017,-17.517,17.71,
37523390,-0.175,-0.176,0.939,-212.59,-24.535,21.91,
37523400,-0.108,-0.239,0.913,-218.33,-29.085,21.7,
37523410,-0.063,-0.274,0.931,-219.45,-31.255,23.03,
37523420,-0.11,-0.44,1.039,-217.087,-33.617,25.375,
37523430,-0.097,0.088,0.897,-194.25,-34.037,40.145,
37523440,0.44,-0.743,0.969,-152.775,-15.592,22.89,
37523450,0.235,-1.175,1.229,-154.472,28.087,21.7,
37523460,0.198,-1.042,0.94,-65.73,77.052,9.117,
37523470,-0.523,-1.108,1.163,-2.957,117.985,-15.19,
37523480,-0.732,-1.149,1.181,42,121.992,-20.002,
37523490,-0.253,-0.57,0.569,116.69,108.587,13.37,
37523500,-0.586,0.269,-0.465,181.615,97.702,35.962,
37523510,-0.153,1.025,-1.224,166.6,89.932,61.565,
37523520,-0.282,1.256,-1.352,97.895,54.477,73.64,
37523530,0.237,1.006,-0.942,21,12.775,60.882,
37523540,0.523,0.767,-0.559,-16.432,-6.807,29.33,
37523550,-0.251,0.052,1.005,-11.112,-50.855,-44.87,
37523560,-0.732,-1.998,0.173,74.322,-267.68,-231.945,
37523570,-1.289,-0.322,1.304,426.3,-136.78,-273.49,
37523580,1.386,1.997,0.813,426.352,-55.247,-57.925,
37523580,1.329,0.24,1.621,301.49,-94.832,-78.627,
37523590,0.925,-0.459,1.955,268.257,-55.44,-36.067,
37523600,1.063,1.418,1.706,237.405,53.322,74.34,
37523610,-1.016,1.203,1.5,105.98,97.755,84.717,
37523620,-1.08,1.061,1.225,6.545,49.07,72.677,
37523630,-0.653,0.366,1.241,-85.732,-14.227,30.292,
37523640,-0.415,-0.107,1.016,-115.832,-35.612,-6.912,
37523650,-0.154,-0.353,0.977,-125.247,-39.025,-31.605,
37523660,0.18,-0.342,0.95,-114.065,-27.685,-36.977,
37523670,0.253,-0.352,0.938,-104.86,-10.237,-26.267,
37523680,0.096,-0.267,0.975,-95.2,1.557,-6.405,
37523690,0.047,-0.212,1.035,-93.625,5.18,8.645,
37523700,0.002,-0.138,1.094,-104.037,6.37,19.652,
37523710,-0.003,-0.071,1.115,-120.977,4.095,30.695,
37523720,-0.054,-0.074,1.1,-143.692,-1.382,41.895,
37523730,-0.179,-0.092,1.104,-165.095,-15.225,52.727,
37523740,-0.322,-0.192,1.071,-186.27,-31.062,67.375,
37523750,-0.482,-0.155,1.127,-196.525,-44.432,87.395,
37523760,-0.034,-0.224,0.993,-179.13,-51.45,80.132,
37523770,-0.283,-0.662,1.109,-185.36,-42.315,65.765,
37523780,-0.334,-1.014,0.977,-154.35,-42.07,46.97,
37523790,-0.312,-0.987,0.952,-102.147,-44.24,20.387,
37523800,-0.19,-1.209,0.849,-47.547,-19.302,17.115,
37523810,-0.512,-0.767,0.65,5.46,13.597,15.732,
37523820,-0.931,-0.133,0.244,67.602,55.807,50.68,
37523830,-0.553,0.679,-0.219,89.232,72.94,92.4,
37523840,0.162,1.118,-1.019,85.172,100.397,132.912,
37523850,-0.045,1.896,-1.163,61.477,111.65,127.19,
37523860,0.188,1.508,-0.739,-32.55,92.627,92.855,
37523870,0.922,-0.774,1.812,-148.312,-21.367,1.89,
37523880,0.88,-1.998,-0.082,65.607,-131.495,-305.427,
37523890,-1.876,0.787,0.399,482.702,-35.087,-247.047,
37523900,1.872,1.547,0.51,320.11,-54.845,-15.522,
37523910,0.375,-1.46,1.483,193.305,-66.15,-34.335,
37523920,0.066,-0.573,1.538,351.172,-86.117,-46.182,
37523920,1.166,1.138,1.395,271.005,-25.095,137.515,
37523940,-0.223,0.331,1.777,208.092,14.997,119.052,
37523940,-0.872,0.88,1.498,145.442,50.207,112.945,
37523960,-0.946,0.869,1.338,58.765,28.77,61.582,
37523960,-0.512,0.577,1.393,-29.417,-7.49,-0.542,
37523980,-0.136,0.456,1.43,-99.575,-19.512,-39.672,
37523980,0.069,0.217,1.345,-151.655,-6.422,-55.09,
37524000,0.16,-0.015,1.197,-189.822,17.57,-55.09,
37524000,0.071,-0.119,1.095,-213.132,33.512,-41.352,
37524010,0.058,-0.144,1.004,-231.227,34.93,-27.72,
37524020,-0.001,-0.179,0.988,-239.662,33.145,-15.365,
37524030,-0.038,-0.266,0.953,-239.907,39.497,-0.63,
37524040,-0.073,-0.313,0.902,-235.147,46.147,10.465,
37524050,-0.098,-0.733,0.955,-229.337,47.985,19.932,
37524060,-0.355,0.147,0.893,-206.605,49.98,50.96,
37524070,-0.105,-0.715,1.037,-189.875,30.747,26.145,
37524080,-0.508,-0.909,1.002,-163.73,18.725,27.142,
37524090,-0.357,-0.888,0.938,-97.09,21.402,28.122,
37524100,-0.04,-0.795,0.908,-55.352,23.677,21.472,
37524110,-0.816,-0.54,0.855,7.682,43.942,7.367,
37524120,-0.504,-0.491,0.79,75.355,47.897,14.402,
37524130,-1.066,0.071,0.346,138.11,41.422,54.512,
37524140,0.443,0.211,-0.312,155.977,62.475,94.01,
37524150,0.536,0.616,-0.836,133.42,51.222,83.947,
37524160,0.518,1.137,-0.708,86.852,16.642,18.777,
37524170,0.721,1.02,-0.161,-12.792,-21.017,-39.69,
37524180,0.703,1.096,0.029,-34.037,-49.945,-98.28,
37524190,-0.221,0.736,0.858,-12.757,-54.95,-146.335,
37524200,-1.815,-1.986,0.114,17.657,-252.332,-299.057,
37524210,-0.07,-0.983,1.242,302.26,-148.855,-267.785,
37524220,1.308,1.997,-0.399,404.687,-27.86,-94.482,
37524230,1.759,0.125,1.107,287.175,-65.642,-155.102,
37524240,0.288,-1.527,1.63,291.48,-49.525,-124.057,
37524250,1.428,1.168,1.237,355.162,-28.822,59.622,
37524260,0.522,0.308,1.858,245.717,8.365,121.1,
37524260,-0.582,1.025,1.73,189.21,65.52,136.097,
37524280,-1.526,1.25,1.383,98.612,60.777,88.41,
37524280,-0.875,0.911,1.371,-16.17,3.622,15.4,
37524300,-0.174,0.558,1.425,-98,-27.527,-37.695,
37524300,0.047,0.177,1.25,-147.437,-21.122,-61.565,
37524320,0.271,-0.242,1.052,-172.777,0.21,-63.962,
37524320,0.071,-0.323,0.963,-172.007,20.335,-49.875,
37524330,0.016,-0.342,0.927,-172.287,20.755,-29.592,
37524340,-0.012,-0.283,0.907,-172.025,14.472,-10.132,
37524350,-0.101,-0.301,0.907,-168.892,6.755,10.237,
37524360,-0.2,-0.274,0.943,-171.325,-0.525,27.877,
37524370,-0.097,-0.227,0.952,-176.365,-6.685,42.105,
37524380,-0.108,-0.288,0.963,-183.627,-10.535,52.482,
37524390,-0.317,-0.446,1.06,-188.335,-16.345,61.915,
37524400,-0.103,-0.084,0.924,-163.24,-19.547,66.675,
37524410,-0.184,-0.45,1.157,-188.125,-20.16,56.472,
37524420,-0.099,-0.825,1.225,-170.415,-7.822,57.925,
37524430,0.077,-0.953,1.109,-113.75,2.222,42.035,
37524440,0.014,-0.925,0.911,-63.192,19.95,22.995,
37524450,-0.454,-0.894,0.813,-7.385,45.92,17.395,
37524460,-0.047,-0.698,0.736,30.94,57.277,36.785,
37524470,0.043,-0.323,0.502,88.007,43.505,46.777,
37524480,-0.244,0.304,0.094,147.14,43.47,44.397,
37524490,0.701,0.651,-0.482,149.065,68.25,66.185,
37524500,0.768,0.977,-0.57,101.342,51.94,33.197,
37524510,0.938,0.87,-0.273,47.775,7.35,-57.522,
37524520,0.958,0.566,-0.023,0.052,-7.507,-132.125,
37524530,0.453,0.73,-0.257,15.33,-8.417,-190.417,
37524540,-1.594,-1.218,0.958,14.647,-83.405,-226.887,
37524550,0.019,-1.993,0.697,261.432,-233.415,-226.187,
37524560,1.432,1.241,0.336,293.16,-29.155,23.275,
37524570,0.532,1.936,0.582,363.125,-65.957,-48.352,
37524580,0.158,-0.918,1.579,240.73,-82.425,-80.71,
37524590,0.613,-0.899,1.577,264.162,-54.075,15.68,
37524600,0.613,1.235,1.33,268.345,-17.535,73.99,
37524610,0.017,0.225,1.682,163.555,18.83,75.302,
37524620,-0.54,0.822,1.45,113.575,33.145,62.545,
37524630,-0.758,0.703,1.273,33.11,12.547,39.41,
37524640,-0.448,0.306,1.201,-35.245,-17.622,4.952,
37524650,-0.104,0.096,1.155,-73.255,-31.605,-18.777,
37524660,0.116,-0.025,1.163,-94.552,-27.037,-26.915,
37524670,0.271,0.003,1.216,-110.95,-15.085,-20.93,
37524670,0.199,0.013,1.208,-130.042,1.697,-7.647,
37524690,0.042,-0.128,1.138,-153.265,10.552,9.012,
37524690,-0.02,-0.175,1.088,-178.832,8.382,22.855,
37524710,0.033,-0.14,1.062,-197.785,4.672,37.432,
37524710,0.013,-0.16,1.027,-213.255,-2.502,50.697,
37524730,-0.162,-0.425,0.936,-228.935,-16.24,69.79,
37524730,-0.036,-0.424,1.087,-251.405,-25.9,96.95,
37524750,-0.11,-0.256,1.138,-259.735,-30.992,123.217,
37524750,0.22,-1.014,1.255,-230.492,-33.18,129.43,
37524760,0.235,-1.627,1.075,-195.65,-31.64,107.222,
37524770,-0.444,-1.501,0.994,-105.122,-19.39,83.072,
37524780,-0.482,-0.938,0.27,-38.85,-8.417,52.92,
37524790,-0.398,-1.339,0.331,-4.042,26.95,61.442,
37524800,-0.045,-1.134,0.511,35.892,70.63,37.047,
37524810,0.24,-0.619,0.459,68.81,107.485,4.322,
37524820,0.288,-0.11,0.149,101.325,120.785,-55.3,
37524830,0.046,0.535,-0.259,115.027,112.542,-121.642,
37524840,-0.152,0.977,-0.539,86.957,89.145,-160.755,
37524850,-0.418,1.187,-0.441,28.07,49.56,-176.872,
37524860,-0.329,1.021,-0.183,-24.727,8.26,-181.335,
37524870,-0.307,0.922,-0.109,-36.907,-8.365,-180.39,
37524880,-0.647,1.264,-0.327,-16.31,-12.967,-169.872,
37524890,-1.193,-0.325,1.445,-34.212,-13.632,-154.122,
37524900,-1.112,-1.993,0.751,74.795,-171.622,-169.557,
37524910,0.974,-0.562,1.102,417.69,-42.42,-228.742,
37524920,-0.037,1.997,-0.201,416.272,38.307,-98.35,
37524930,1.611,0.366,1.108,287.56,8.82,-76.195,
37524940,0.458,-1.654,1.575,283.867,6.842,-36.855,
37524950,0.794,0.855,1.263,347.847,18.165,86.03,
37524960,0.013,0.548,1.75,249.725,44.135,138.162,
37524970,-1.036,0.854,1.646,195.527,66.22,122.5,
37524980,-1.423,1.059,1.327,110.145,43.242,68.232,
37524990,-0.81,0.7,1.273,9.327,-14.7,-1.067,
37525000,-0.077,0.378,1.274,-58.31,-46.497,-39.585,
37525010,0.138,0.135,1.247,-95.865,-39.952,-51.17,
37525010,0.258,0.012,1.256,-121.887,-18.672,-46.795,
37525030,0.238,0.077,1.301,-145.915,6.72,-35.035,
37525030,-0.02,0.065,1.254,-175.28,22.242,-16.607,
37525050,-0.236,-0.032,1.179,-216.615,16.747,-1.505,
37525050,-0.165,-0.059,1.088,-249.9,-2.502,12.232,
37525070,-0.004,-0.11,1.052,-274.54,-13.282,24.57,
37525070,0.008,-0.177,1.056,-292.792,-18.095,37.03,
37525080,-0.067,-0.258,1.057,-307.755,-20.632,51.975,
37525090,-0.33,-0.214,1.194,-324.345,-21.455,78.977,
37525100,-0.097,-0.783,1.353,-303.117,-31.815,87.657,
37525110,-0.381,-1.459,1.69,-302.82,-81.427,80.447,
37525120,-0.415,-1.682,1.066,-210.49,-113.155,96.495,
37525130,-0.883,-1.001,0.519,-105.525,-111.475,118.265,
37525140,-0.799,-1.068,0.638,-69.492,-99.312,146.265,
37525150,-1.233,-0.845,0.556,7.385,-73.465,187.145,
37525160,0.214,-0.733,0.755,55.842,33.722,251.125,
37525170,0.745,-0.273,0.68,69.177,96.845,259.14,
37525180,1.345,0.375,0.286,135.292,120.155,202.317,
37525190,1.44,1.053,-0.064,135.03,135.467,133.997,
37525200,1.441,1.652,-0.223,114.677,91.752,2.87,
37525210,1.504,1.656,-0.353,70.542,43.382,-88.515,
37525220,1.231,1.637,-0.16,39.095,12.477,-180.495,
37525230,0.452,1.225,0.013,11.795,-19.862,-250.757,
37525240,-0.05,0.637,-0.118,16.835,-56.822,-281.942,
37525250,-0.249,0.475,-0.489,32.34,-85.172,-297.377,
37525260,-1.439,0.043,-1.119,52.08,-91.332,-228.882,
37525270,-1.778,-1.746,1.673,-5.04,-61.25,-188.895,
37525280,0.019,-1.998,0.396,180.11,-128.625,-214.445,
37525290,1.245,1.016,0.463,485.695,69.492,-134.925,
37525300,1.614,1.997,-0.224,393.155,-23.94,-160.072,
37525310,0.672,-0.821,1.557,341.495,35.595,-86.082,
37525320,-0.029,-0.973,1.629,346.395,43.592,18.182,
37525330,0.739,1.814,1.104,375.147,71.802,129.535,
37525340,-0.873,0.104,1.971,228.41,92.435,114.817,
37525350,-1.426,1.466,1.52,176.627,74.707,75.67,
37525360,-1.209,1.043,1.333,46.2,11.62,17.587,
37525370,-0.401,0.539,1.275,-60.987,-42.647,-24.097,
37525380,-0.049,0.055,1.148,-107.555,-56.157,-44.257,
37525390,0.171,-0.285,1.057,-126.962,-49.7,-53.83,
37525400,0.301,-0.211,1.069,-121.94,-28.7,-47.67,
37525410,0.173,-0.171,1.118,-119.577,-6.195,-34.09,
37525420,0.099,-0.121,1.105,-126.735,6.492,-13.317,
37525420,-0.083,-0.15,1.095,-141.382,11.567,3.535,
37525440,-0.139,-0.137,1.06,-163.117,4.392,16.572,
37525440,-0.079,-0.14,1.06,-186.585,-6.93,26.932,
37525460,0.036,-0.126,1.113,-206.29,-17.955,36.82,
37525460,0.027,-0.18,1.104,-224.735,-25.97,53.06,
37525480,-0.045,-0.302,1.174,-241.885,-27.352,76.492,
37525480,0.068,-0.258,1.166,-228.655,-20.335,96.005,
37525500,-0.46,-1.248,1.149,-237.23,-23.992,87.465,
37525500,-0.588,-1.872,1.557,-222.302,-27.545,79.45,
37525510,0.565,-0.937,1.242,-137.235,-16.712,97.475,
37525520,0.749,-0.164,0.595,-56.98,17.517,122.202,
37525530,-0.162,-0.692,0.979,-39.725,20.947,70.42,
37525540,-0.445,-0.892,0.796,30.327,27.685,65.782,
37525550,0.944,-0.543,0.445,98.07,60.795,107.747,
37525560,1.251,-0.35,0.306,97.44,88.97,78.295,
37525570,0.714,-0.045,-0.427,136.99,66.465,-21.35,
37525580,0.214,0.606,-0.563,106.995,38.517,-74.112,
37525590,-0.043,0.437,-0.336,17.815,-16.1,-101.062,
37525600,-0.063,0.169,-0.024,-37.642,-59.762,-127.33,
37525610,-0.402,0.077,0.012,-36.067,-66.867,-136.15,
37525620,-0.924,0.236,-0.156,-13.177,-59.657,-133.122,
37525630,-1.215,0.229,-0.43,-2.607,-58.397,-108.027,
37525640,-1.327,-0.035,-0.515,-6.142,-55.09,-66.202,
37525650,-1.438,-0.432,0.564,-28.542,-39.917,-30.59,
37525660,-1.233,-1.998,1.947,12.407,-95.9,-53.13,
37525670,0.793,-1.998,0.088,257.127,-125.44,-179.865,
37525680,0.154,1.169,0.699,490.49,68.81,-131.11,
37525690,1.429,1.819,0.456,380.222,20.912,-98.77,
37525700,0.732,-1.008,1.532,308.332,22.89,-75.215,
37525710,0.862,-0.016,1.744,326.742,23.677,9.957,
37525720,0.68,1.278,1.645,288.592,80.412,85.662,
37525730,-0.975,0.508,1.723,170.432,111.352,96.267,
37525740,-1.422,1.043,1.297,103.477,69.142,69.685,
37525750,-1.184,0.417,1.208,0.402,3.85,5.757,
37525760,-0.437,0.203,1.038,-56.21,-46.935,-52.08,
37525760,0.367,-0.495,0.926,-73.255,-62.055,-70.402,
37525780,0.544,-0.386,0.851,-51.38,-39.007,-46.252,
37525780,0.253,-0.302,0.917,-26.985,-11.602,-3.745,
37525800,-0.107,-0.129,1.016,-11.34,3.15,20.615,
37525800,-0.18,-0.015,1.104,-15.4,2.625,21.665,
37525820,-0.049,0.11,1.197,-33.6,-0.682,15.872,
37525820,0.058,0.11,1.255,-62.247,1.995,11.882,
37525830,0.061,0.166,1.383,-96.495,10.097,13.615,
37525840,0.016,0.174,1.455,-143.307,19.407,21.227,
37525850,-0.05,0.158,1.395,-203.017,25.497,30.905,
37525860,0,0.099,1.264,-256.637,26.425,36.172,
37525870,0.082,-0.351,1.251,-291.287,25.69,38.832,
37525880,-0.019,0.293,1.212,-301.805,37.922,45.115,
37525890,0.105,-0.36,1.222,-293.072,49.665,38.552,
37525900,-0.175,-0.704,1.609,-315.787,47.547,17.465,
37525910,-0.388,-1.094,1.971,-287.245,7.665,-2.485,
37525920,-0.336,-1.525,1.586,-204.26,-48.492,-18.147,
37525930,0.437,-1.044,0.894,-112.262,-60.007,-27.16,
37525940,0.111,-1.248,1.154,-55.877,-23.38,-26.95,
37525950,0.152,-1.101,0.572,28.542,-22.417,-89.477,
37525960,0.336,-0.472,0.14,129.5,-2.362,-104.545,
37525970,-0.279,-0.202,-0.152,129.552,30.52,-135.922,
37525980,-1.041,-0.141,-0.267,106.925,31.552,-154.682,
37525990,-0.962,0.004,-0.531,112.595,26.162,-117.635,
37526000,-0.977,0.34,-0.654,103.582,38.745,-54.74,
37526010,-1.133,0.247,-0.421,47.512,54.985,7.752,
37526020,-0.867,-0.149,-0.138,7.367,60.252,80.535,
37526030,-0.41,-0.269,-0.083,15.102,58.257,141.855,
37526040,-0.091,-0.189,-0.174,21.612,53.777,172.427,
37526050,0.194,-0.244,-0.231,-1.435,45.43,171.255,
37526060,0.494,-0.339,-0.172,-34.65,41.23,143.797,
37526070,0.583,-0.413,-0.112,-59.255,43.61,100.135,
37526080,0.459,-0.325,-0.152,-68.687,40.827,49.682,
37526090,0.33,-0.118,-0.17,-75.652,25.9,5.565,
37526100,0.308,-0.12,-0.375,-92.155,13.16,-26.355,
37526110,-0.415,-0.782,1.99,-122.692,5.967,-54.46,
37526120,-1.884,-1.99,1.538,-23.362,-285.092,-110.88,
37526130,1.589,-1.386,-0.308,462.385,-256.182,-125.107,
37526140,-0.885,1.992,0.361,431.9,-3.342,-28.98,
37526150,1.547,1.123,1.2,303.835,-83.335,-59.517,
37526160,0.811,-1.624,1.745,284.812,-31.325,-45.237,
37526170,0.027,0.248,1.443,335.44,-20.702,24.57,
37526170,0.634,0.88,1.554,234.237,-10.832,91.875,
37526190,-0.138,0.446,1.657,141.75,2.59,105.63,
37526190,-0.609,0.6,1.4,86.607,9.555,107.257,
37526210,-0.868,0.273,1.202,19.862,-2.17,70.437,
37526210,-0.681,0.041,1.051,-20.422,-21.945,19.792,
37526230,-0.183,-0.092,1.036,-45.132,-38.972,-15.137,
37526230,0.212,-0.106,1.039,-53.182,-41.335,-19.915,
37526250,0.256,-0.164,1.018,-53.917,-27.475,-10.955,
37526250,0.122,-0.177,0.963,-49.91,-13.825,1.855,
37526260,0.015,-0.293,0.904,-41.545,-8.715,13.72,
37526270,-0.065,-0.31,0.92,-28.805,-7.052,17.885,
37526280,-0.023,-0.216,0.98,-20.142,-3.622,16.467,
37526290,0.053,-0.12,1.086,-21.14,1.767,13.807,
37526300,0.062,-0.036,1.183,-33.967,9.817,13.93,
37526310,0.004,-0.033,1.221,-58.275,13.965,16.52,
37526320,0.005,-0.056,1.271,-90.86,13.877,19.057,
37526330,0.03,-0.02,1.287,-132.177,11.235,23.73,
37526340,-0.007,-0.035,1.206,-173.092,11.182,32.725,
37526350,-0.117,-0.348,1.201,-208.057,3.867,46.322,
37526360,-0.031,0.038,1.124,-229.005,4.637,64.715,
37526370,-0.103,-0.235,1.021,-221.777,-1.452,59.465,
37526380,-0.142,-0.552,1.309,-258.3,-7.262,52.867,
37526390,-0.549,-1.018,1.831,-273.385,-14.717,48.142,
37526400,-0.578,-1.92,1.873,-231.717,-96.477,18.462,
37526410,-0.897,-1.998,1.206,-102.48,-175.07,-21.017,
37526420,0.212,-1.826,0.515,52.797,-130.252,-36.942,
37526430,-0.306,-1.468,-0.267,145.512,-39.935,-36.977,
37526440,-1.189,-1.014,-0.327,136.237,17.622,-110.74,
37526450,-1.753,-1.166,-0.233,105.455,16.432,-131.617,
37526460,-1.773,-0.846,-0.515,111.107,-10.552,-123.287,
37526470,-1.769,-0.139,-0.626,94.482,-21.105,-94.867,
37526480,-1.803,-0.097,-0.377,6.597,-11.777,-29.61,
37526490,-1.376,-0.472,0.177,-83.965,15.592,52.412,
37526500,-0.616,-0.75,0.599,-112.997,55.807,123.252,
37526510,0.109,-0.625,0.616,-91.035,110.95,166.845,
37526510,0.226,-0.259,0.577,-75.74,147.892,169.802,
37526530,0.509,-0.144,0.515,-85.33,145.985,145.407,
37526530,1.146,-0.189,0.406,-102.882,143.972,110.04,
37526550,1.432,0.052,0.08,-100.31,148.277,57.505,
37526550,1.59,0.842,-0.34,-80.202,143.552,-13.44,
37526570,1.527,1.656,-0.552,-83.895,120.715,-84.647,
37526570,1.321,1.928,-0.465,-113.4,68.687,-133.857,
37526580,1.154,1.822,0.133,-119.805,27.16,-172.865,
37526590,-0.158,-0.054,1.401,-99.82,20.527,-194.845,
37526600,-1.136,-1.998,0.707,303.31,-203.14,-194.6,
37526610,0.444,-0.017,-0.133,557.095,32.672,-158.357,
37526620,0.785,1.997,-0.92,557.077,-19.092,39.515,
37526630,1.874,-0.885,1.419,348.652,-27.72,10.342,
37526640,-1.259,-0.584,1.609,459.707,12.985,26.127,
37526650,0.367,1.989,1.549,478.292,3.972,187.81,
37526660,-0.942,0.882,1.998,243.897,21.017,156.327,
37526670,-1.446,1.823,1.633,137.445,38.587,109.042,
37526680,-1.259,1.029,1.408,-16.065,-12.967,16.31,
37526690,-0.597,0.378,1.161,-115.657,-62.562,-49.647,
37526700,0.008,-0.195,0.827,-143.062,-69.667,-77.577,
37526710,0.272,-0.64,0.812,-126.105,-51.362,-86.187,
37526720,0.544,-0.491,0.936,-88.725,-30.1,-55.195,
37526730,0.541,-0.33,1.012,-71.155,-15.225,-12.407,
37526740,0.221,-0.286,0.966,-57.4,2.625,23.52,
37526750,0.032,-0.273,1.042,-53.13,10.272,47.267,
37526760,-0.091,-0.088,1.127,-58.38,18.497,56.525,
37526770,-0.132,0.071,1.227,-79.975,24.43,54.862,
37526780,-0.092,0.04,1.319,-119.42,22.347,46.06,
37526790,-0.031,0.118,1.378,-168.14,31.29,35.752,
37526800,0.061,0.038,1.316,-208.477,48.142,25.462,
37526810,0.097,-0.053,1.392,-244.3,67.9,15.942,
37526820,-0.029,-0.18,1.396,-260.995,90.895,10.237,
37526830,0.081,-0.524,1.422,-256.55,97.352,-1.33,
37526840,-0.204,-0.929,1.44,-261.625,74.812,-47.32,
37526850,-0.59,-1.294,1.423,-262.202,45.78,-53.637,
37526860,0.438,-0.874,1.725,-217.945,41.965,-52.325,
37526870,-0.601,-1.513,0.176,-179.9,38.78,-65.66,
37526880,0.7,-1.811,0.531,-142.747,56.087,-125.44,
37526890,0.535,-1.347,0.771,-182.367,66.535,-192.57,
37526900,-0.423,-0.868,0.767,-110.862,20.772,-292.162,
37526910,-1.241,-0.083,0.812,-39.76,-12.005,-285.425,
37526920,-1.49,0.959,0.397,25.007,-47.127,-211.645,
37526920,-1.436,1.513,0.2,44.975,-85.802,-134.172,
37526930,-1.097,1.393,0.26,45.15,-91.21,-21.665,
37526940,-0.726,1.142,0.187,92.522,-69.667,83.895,
37526950,-0.512,0.972,-0.07,145.582,-37.607,154.752,
37526960,-0.345,0.592,-0.378,163.537,-4.427,197.417,
37526970,-0.173,-0.009,-0.656,161.822,16.747,220.377,
37526980,0.051,-0.493,-0.875,144.445,25.567,218.067,
37526990,0.317,-0.809,-0.812,89.425,30.152,186.707,
37527000,0.486,-1.207,-0.458,9.275,14.455,129.22,
37527010,0.561,-1.718,-0.134,-39.935,-18.76,58.537,
37527020,0.523,-1.778,-0.144,-31.692,-48.247,-8.715,
37527030,0.495,-1.466,-0.71,-8.032,-67.27,-65.205,
37527040,-0.166,-1.307,0.654,-26.355,-40.915,-110.985,
37527050,-1.802,-1.861,1.998,-67.935,-132.965,-119.927,
37527060,-0.092,-1.998,-0.326,328.702,-299.005,-72.345,
37527070,1.503,1.115,-0.116,559.072,43.977,50.417,
37527080,0.628,1.666,0.494,402.745,-26.442,30.047,
37527090,0.531,-1.562,1.697,342.965,-31.097,-73.43,
37527100,0.333,-0.149,1.464,450.222,35.017,41.037,
37527110,0.255,0.785,1.638,440.492,50.557,75.092,
37527120,0.078,0.45,1.989,267.872,79.887,64.942,
37527130,-1.395,1.984,1.126,172.795,90.947,50.802,
37527140,-1.399,1.082,1.096,-0.525,16.625,28.542,
37527150,-0.716,0.152,1.073,-81.48,-56.455,-10.885,
37527160,-0.008,-0.593,0.913,-96.687,-78.715,-42.927,
37527170,0.433,-0.733,0.839,-67.41,-68.162,-46.252,
37527180,0.495,-0.294,0.946,-31.377,-41.842,-18.042,
37527190,0.361,-0.201,0.967,-10.167,-12.845,18.497,
37527200,-0.097,-0.024,1.04,3.062,9.117,41.562,
37527210,-0.365,0.105,1.092,-1.732,11.462,36.697,
37527220,-0.073,0.136,1.203,-22.645,5.81,18.952,
37527230,0.169,0.346,1.394,-50.54,10.027,8.89,
37527240,0.317,0.303,1.57,-95.602,33.18,10.745,
37527250,0.238,0.159,1.523,-158.445,62.755,19.74,
37527260,0.142,0.11,1.414,-228.252,75.32,36.26,
37527260,0.066,0.066,1.373,-278.617,69.545,49.542,
37527280,0.099,-0.056,1.408,-311.202,64.102,66.115,
37527280,0.198,-0.71,1.484,-335.072,69.3,70.245,
37527300,0.054,-1.066,1.878,-349.002,90.142,56.91,
37527300,-0.586,-1.376,1.884,-334.915,92.347,51.467,
37527320,-0.102,-1.998,1.641,-226.555,13.177,24.045,
37527320,1.56,-1.998,1.288,-106.4,-0.875,-52.272,
37527330,0.507,-1.774,0.949,70.91,14.682,-132.79,
37527340,-0.157,-1.026,-0.42,179.235,-5.092,-224.752,
37527350,-0.512,-0.467,-0.583,129.237,18.532,-227.832,
37527360,-0.975,-0.369,-0.482,55.387,-11.602,-226.31,
37527370,-1.062,-0.079,-0.533,47.582,-67.34,-208.075,
37527380,-0.903,0.291,-0.6,39.375,-98.665,-157.5,
37527390,-0.674,0.297,-0.576,6.65,-104.667,-101.692,
37527400,-0.485,0.105,-0.571,-16.537,-84.805,-44.922,
37527410,-0.381,0.048,-0.567,-10.202,-55.002,6.755,
37527420,-0.385,0.078,-0.562,-12.547,-28.472,48.405,
37527430,-0.395,0,-0.495,-37.975,-14.665,79.205,
37527440,-0.353,-0.084,-0.34,-66.272,-15.47,98.805,
37527450,-0.283,-0.128,-0.194,-86.905,-27.107,106.627,
37527460,-0.205,-0.088,-0.035,-102.725,-40.285,106.837,
37527470,-0.107,-0.015,0.021,-113.05,-53.322,104.002,
37527480,-0.035,0.081,0.039,-115.605,-65.432,98.892,
37527490,0.043,0.114,0.01,-116.27,-74.095,90.142,
37527500,0.167,0.101,-0.036,-115.587,-67.392,81.095,
37527510,0.274,0.147,-0.046,-114.152,-44.082,66.027,
37527520,0.402,-0.089,-0.354,-115.43,-12.845,39.812,
37527530,-0.116,-0.761,1.768,-164.64,57.47,-10.097,
37527540,-0.87,-1.998,0.221,276.867,-98.752,-133.84,
37527550,0.576,0.027,-0.981,572.512,130.637,-69.107,
37527560,-1.326,1.967,0.087,480.375,-62.58,-13.3,
37527570,1.988,-1.239,1.588,275.292,-70.157,52.22,
37527580,0.299,-0.627,1.926,450.45,0.175,24.342,
37527590,0.785,1.658,1.989,453.862,63.927,85.995,
37527600,-0.726,1.505,1.874,225.225,128.012,80.08,
37527600,-1.569,1.909,1.082,105.07,90.965,82.81,
37527620,-1.094,0.477,1.165,-54.04,-6.51,36.837,
37527620,-0.259,-0.268,0.946,-92.522,-57.697,4.532,
37527640,0.137,-0.624,0.897,-83.405,-59.937,-5.547,
37527640,0.12,-0.334,0.884,-54.075,-44.642,0.822,
37527660,0.131,-0.256,0.959,-37.45,-33.652,10.517,
37527660,0.087,-0.275,0.946,-23.677,-25.217,23.065,
37527670,-0.056,-0.112,0.969,-14.525,-20.37,30.415,
37527680,0.008,-0.127,1.044,-11.725,-16.152,28.542,
37527690,-0.034,0.069,1.091,-18.602,-12.845,26.705,
37527700,0.057,0.2,1.23,-37.73,-10.29,25.69,
37527710,0.047,0.268,1.292,-67.532,-7.542,25.602,
37527720,0.051,0.182,1.396,-108.29,0,25.007,
37527730,-0.231,0.142,1.385,-155.505,7.035,21.7,
37527740,-0.349,0.147,1.321,-214.235,-3.972,20.615,
37527750,-0.136,0.066,1.208,-268.8,-20.755,18.847,
37527760,-0.066,0.031,1.175,-305.725,-24.43,18.165,
37527770,-0.011,-0.401,1.175,-323.767,-22.47,15.925,
37527780,-0.076,0.22,1.143,-314.877,-6.3,26.775,
37527790,0.262,-0.708,1.234,-310.24,6.387,0.385,
37527800,0.101,-1.176,1.686,-329.35,30.03,-6.58,
37527810,0.013,-1.356,1.938,-282.152,34.142,-31.202,
37527820,-0.211,-1.569,1.772,-210.21,4.165,-62.3,
37527830,0.245,-1.732,1.275,-92.47,-1.277,-79.012,
37527840,0.068,-1.543,0.404,70.07,42.822,-87.36,
37527850,-0.254,-0.779,0.166,162.435,74.952,-121.502,
37527860,-0.78,-0.503,-0.04,170.905,59.482,-133.787,
37527870,-0.779,-0.28,-0.385,161.752,36.925,-137.41,
37527880,-0.814,-0.016,-0.571,144.952,33.25,-119.735,
37527890,-1.063,0.209,-0.609,106.662,22.312,-105.7,
37527900,-1.125,0.379,-0.614,61.932,-1.26,-79.45,
37527910,-1.057,0.466,-0.535,5.302,-24.377,-33.565,
37527920,-0.885,0.459,-0.199,-49.875,-52.622,4.865,
37527930,-0.621,0.225,0.183,-78.68,-90.037,29.312,
37527940,-0.257,0.134,0.227,-60.69,-117.092,49.315,
37527950,0.326,0.305,0.019,-23.94,-102.252,65.467,
37527960,0.904,0.297,-0.094,-20.842,-33.495,63.857,
37527970,0.988,0.002,-0.102,-38.062,60.847,27.44,
37527980,0.656,-0.197,-0.093,-34.265,137.2,-32.252,
37527990,0.312,-0.321,-0.218,-24.01,166.565,-81.48,
37528000,0.63,-0.854,-0.02,-26.512,154.91,-114.66,
37528010,1.928,-1.911,0.864,-37.712,257.145,-137.13,
37528010,-1.441,-1.998,0.925,141.942,214.112,-259.087,
37528030,-0.433,-0.142,-0.439,542.535,60.2,-300.965,
37528030,-0.148,1.997,0.005,506.52,17.657,-83.807,
37528050,1.719,-0.362,1.126,237.335,-16.817,7.14,
37528050,0.595,-1.161,1.761,408.835,-29.225,-52.622,
37528070,0.502,1.4,1.739,463.365,50.715,94.43,
37528070,-0.724,0.733,1.993,275.432,105.595,88.707,
37528080,-1.76,1.994,1.179,160.405,86.467,57.89,
37528090,-1.083,0.978,1.278,-26.985,-6.702,12.617,
37528100,-0.534,0.409,1.192,-114.38,-63.945,-25.2,
37528110,0.054,-0.524,0.931,-143.657,-79.94,-41.65,
37528120,0.276,-0.759,0.795,-126.367,-65.922,-31.955,
37528130,0.422,-0.507,0.759,-81.095,-45.29,-7.542,
37528140,0.219,-0.473,0.751,-42.822,-27.317,18.2,
37528150,0.119,-0.503,0.834,-5.67,-19.022,41.527,
37528160,0.028,-0.193,1.012,17.447,-9.485,51.502,
37528170,-0.013,0.134,1.145,15.015,-2.73,52.675,
37528180,-0.039,0.213,1.219,-6.09,2.187,48.195,
37528190,-0.114,0.247,1.293,-38.08,1.592,43.627,
37528200,-0.142,0.26,1.388,-79.537,1.715,35.595,
37528210,-0.288,0.237,1.42,-127.837,-0.262,28.052,
37528220,-0.215,0.112,1.365,-185.517,-8.19,23.397,
37528230,-0.08,0.075,1.239,-239.19,-15.295,25.865,
37528240,0.084,-0.025,1.118,-279.79,-18.55,36.102,
37528250,0.016,-0.189,1.107,-308.385,-17.08,54.81,
37528260,-0.033,-0.032,1.195,-323.417,-13.23,77.052,
37528270,-0.082,-0.119,1.121,-309.4,-12.792,97.16,
37528280,-0.368,-0.764,1.254,-339.325,-34.23,96.425,
37528290,-0.769,-1.466,1.61,-337.522,-99.732,101.045,
37528300,-1.041,-1.772,1.796,-296.397,-208.39,95.445,
37528310,0.096,-1.525,1.199,-201.04,-287.07,96.355,
37528320,-0.205,-1.222,0.774,-92.522,-234.675,153.142,
37528330,-0.508,-1.105,0.633,-17.22,-150.885,145.407,
37528330,-0.664,-0.624,0.364,74.76,-63.875,166.285,
37528350,-0.309,-0.247,0.024,130.585,4.707,183.925,
37528350,-0.026,0.002,-0.024,132.772,47.845,157.587,
37528370,-0.052,0.131,-0.165,135.275,63.14,111.457,
37528370,-0.054,0.365,-0.398,136.027,67.515,72.975,
37528390,-0.09,0.494,-0.479,96.687,68.04,40.6,
37528390,-0.092,0.397,-0.335,36.295,59.465,10.062,
37528410,-0.045,0.127,-0.131,-4.182,39.567,-16.555,
37528410,0.028,0.016,-0.04,-8.102,21.77,-37.922,
37528420,0.06,0.096,-0.077,7.525,17.675,-55.527,
37528430,-0.011,0.208,-0.24,27.965,17.377,-74.515,
37528440,-0.245,0.309,-0.364,34.125,14.192,-95.725,
37528450,-0.463,0.311,-0.467,25.217,2.1,-113.942,
37528460,-0.537,0.358,-0.477,11.322,-8.715,-119.63,
37528470,-0.479,0.467,-0.435,-1.33,-8.12,-110.302,
37528480,-0.066,0.051,-0.374,-7.35,31.745,-94.132,
37528490,1.068,-1.846,1.998,-116.077,109.427,-117.215,
37528500,0.195,-1.814,-1.175,270.865,-191.38,-416.937,
37528510,-1.169,1.963,-0.169,572.407,79.835,-270.847,
37528520,1.965,1.857,0.213,444.622,57.015,31.675,
37528530,0.941,-1.62,1.869,331.24,-2.94,-83.09,
37528540,1.356,1.144,1.998,498.295,119.892,109.742,
37528550,-1.203,1.768,1.811,346.937,209.597,148.102,
37528560,-1.844,1.997,0.918,114.012,118.352,105.735,
37528570,-1.368,0.831,1.114,-54.6,-44.625,4.41,
37528580,0.505,-0.128,1.178,-131.967,-107.292,-42.105,
37528590,0.353,-0.648,0.942,-123.375,-77.21,-29.277,
37528600,0.289,-0.646,0.846,-91.682,-45.937,-4.147,
37528610,0.392,-0.425,0.784,-57.522,-27.965,18.725,
37528620,0.152,-0.523,0.832,-21,-11.007,40.652,
37528630,-0.077,-0.399,0.877,10.902,1.225,47.88,
37528640,-0.119,-0.062,1.044,27.387,9.712,37.642,
37528650,-0.052,0.28,1.168,18.41,14.612,24.395,
37528660,-0.025,0.201,1.228,-10.307,16.765,17.132,
37528670,-0.001,0.231,1.342,-44.135,18.847,13.597,
37528680,0.014,0.255,1.374,-85.435,24.832,10.605,
37528690,-0.253,0.135,1.35,-135.992,33.407,2.362,
37528700,-0.192,0.067,1.297,-185.902,36.4,-5.652,
37528710,-0.133,0.079,1.187,-227.535,36.715,-10.885,
37528720,-0.015,0.077,1.195,-256.602,43.75,-14.42,
37528730,-0.046,-0.021,1.19,-273.997,59.167,-14.455,
37528740,-0.047,-0.179,1.17,-282.66,69.282,-10.115,
37528750,0.055,-0.161,1.083,-277.147,83.895,6.37,
37528760,-0.118,-0.456,1.318,-278.355,74.515,-20.562,
37528760,-0.566,-1.081,1.731,-284.13,46.83,-21.735,
37528780,-0.611,-1.343,1.655,-211.172,-19.355,-18.515,
37528780,0.132,-1.249,0.913,-114.887,-78.645,1.137,
37528800,0.436,-0.937,0.973,-61.442,-45.237,29.802,
37528800,0.166,-0.751,0.699,-4.287,-21.962,6.16,
37528820,0.061,-0.188,0.278,66.447,-2.747,5.617,
37528820,-0.222,0.124,0.083,72.047,2.922,5.985,
37528830,-0.564,0.023,0.245,43.452,-20.457,-19.18,
37528840,-0.296,-0.191,0.185,54.862,-25.952,-19.705,
37528850,-0.164,-0.012,-0.043,93.415,3.85,-13.23,
37528860,-0.454,0.304,-0.417,113.505,30.922,-19.495,
37528870,-0.635,0.499,-0.742,104.457,32.322,-18.83,
37528880,-0.438,0.468,-0.874,72.537,26.582,-5.985,
37528890,-0.226,0.37,-0.732,26.057,33.915,3.115,
37528900,-0.216,0.14,-0.395,-11.252,48.107,-3.307,
37528910,-0.307,-0.144,-0.095,-14.192,56.21,-19.425,
37528920,-0.419,-0.215,-0.012,14.91,52.972,-35.21,
37528930,-0.483,-0.196,-0.082,46.147,45.867,-47.127,
37528940,-0.809,-0.507,0.268,61.897,44.782,-59.202,
37528950,-1.958,-1.813,1.915,-5.582,-188.65,-126.105,
37528960,0.828,-1.822,-0.253,357.787,-422.782,-291.882,
37528970,0.759,1.869,0.207,526.452,9.695,-198.94,
37528980,1.532,1.997,1.147,453.075,24.482,-167.965,
37528990,0.67,-0.392,1.865,356.072,-58.485,-133.49,
37529000,1.275,0.545,1.965,276.57,26.127,25.76,
37529010,-0.215,1.521,1.638,205.012,124.967,100.117,
37529020,-1.478,0.99,1.356,51.012,95.392,104.615,
37529030,-1.406,0.474,1.07,-29.382,14.56,66.85,
37529040,-0.891,-0.232,0.882,-70.315,-33.11,-8.172,
37529050,-0.117,-0.357,0.84,-63.157,-63.927,-54.46,
37529060,0.517,-0.428,0.947,-44.187,-62.247,-55.037,
37529070,0.534,-0.278,0.929,-22.47,-31.85,-24.132,
37529080,0.096,-0.221,0.978,-7.857,-4.69,11.287,
37529080,-0.199,-0.043,1.026,-0.017,6.247,21.472,
37529100,-0.267,0.033,1.088,-9.607,1.872,15.085,
37529100,-0.102,0.154,1.181,-29.47,-5.547,7.927,
37529120,-0.056,0.263,1.286,-59.342,-7.367,8.085,
