#Format version: 1.0
time[ms],accX[g],accY[g],accZ[g],Value 1,Value 2,Value 3,
49679070,-0.41,-0.186,0.927,-7,7.56,9.695,
49679080,-0.408,-0.184,0.911,-8.382,5.827,9.467,
49679080,-0.386,-0.193,0.858,-9.625,4.795,9.03,
49679100,-0.32,-0.135,0.874,-8.312,5.547,9.66,
49679100,-0.334,-0.131,0.896,-11.515,8.75,10.727,
49679120,-0.335,-0.159,0.922,-14.332,11.952,9.887,
49679120,-0.341,-0.172,0.936,-17.097,14.857,10.64,
49679140,-0.422,-0.229,0.874,-19.355,14.315,10.78,
49679140,-0.467,-0.266,0.871,-16.397,14.7,10.622,
49679160,-0.427,-0.262,0.792,-13.597,12.845,9.17,
49679160,-0.395,-0.237,0.829,-10.045,17.902,9.275,
49679170,-0.423,-0.226,0.869,-10.15,21.175,12.215,
49679180,-0.394,-0.224,0.931,-9.782,23.31,12.81,
49679190,-0.377,-0.232,0.903,-11.287,24.097,13.982,
49679200,-0.455,-0.234,0.882,-10.99,23.047,13.807,
49679210,-0.485,-0.221,0.875,-9.94,23.52,12.46,
49679220,-0.602,-0.231,0.893,-9.012,18.585,9.817,
49679230,-0.579,-0.266,0.864,-9.012,11.077,1.207,
49679240,-0.562,-0.243,0.811,-6.72,5.477,-2.292,
49679250,-0.652,-0.204,0.883,-0.945,-1.61,0.472,
49679260,-0.54,-0.231,0.842,-1.732,-10.482,0.28,
49679270,-0.522,-0.216,0.853,2.397,-14.28,-4.34,
49679280,-0.454,-0.189,0.831,3.622,-17.57,-7.63,
49679290,-0.376,-0.197,0.811,7.315,-17.762,-8.277,
49679300,-0.349,-0.189,0.842,10.517,-15.662,-5.285,
49679310,-0.381,-0.195,0.828,12.39,-13.667,-0.805,
49679320,-0.406,-0.196,0.849,14.472,-12.792,2.66,
49679330,-0.475,-0.195,0.888,14.455,-11.812,3.692,
49679340,-0.512,-0.218,0.891,13.072,-13.597,1.61,
49679350,-0.521,-0.196,0.899,12.687,-16.38,-1.277,
49679360,-0.517,-0.192,0.89,9.94,-20.247,-4.462,
49679370,-0.462,-0.198,0.889,8.032,-23.275,-7.805,
49679380,-0.439,-0.199,0.889,6.387,-25.007,-8.417,
49679390,-0.416,-0.183,0.903,4.935,-25.567,-8.155,
49679400,-0.37,-0.177,0.915,2.87,-25.06,-7.577,
49679410,-0.357,-0.167,0.909,1.067,-23.397,-6.055,
49679420,-0.399,-0.179,0.926,-1.242,-22.172,-4.445,
49679420,-0.41,-0.189,0.943,-2.73,-21.297,-5.005,
49679440,-0.476,-0.2,0.941,-5.162,-21.017,-6.79,
49679440,-0.546,-0.225,0.924,-7.892,-25.357,-11.392,
49679460,-0.545,-0.208,0.907,-8.522,-32.147,-15.522,
49679460,-0.526,-0.201,0.867,-9.537,-41.002,-17.29,
49679480,-0.465,-0.198,0.877,-8.347,-47.705,-18.48,
49679480,-0.389,-0.203,0.864,-8.54,-51.52,-17.097,
49679500,-0.293,-0.213,0.862,-7.21,-50.89,-14.385,
49679500,-0.209,-0.207,0.879,-2.922,-44.94,-11.2,
49679510,-0.22,-0.175,0.896,-3.045,-36.942,-8.067,
49679520,-0.253,-0.174,0.932,-5.915,-29.155,-7.472,
49679530,-0.308,-0.215,0.948,-9.52,-23.957,-6.982,
49679540,-0.326,-0.211,0.941,-9.467,-21.857,-5.967,
49679550,-0.349,-0.179,0.972,-9.572,-21.245,-4.287,
49679560,-0.375,-0.191,0.964,-12.722,-22.522,-3.867,
49679570,-0.377,-0.208,0.948,-14.595,-24.447,-5.32,
49679580,-0.381,-0.213,0.951,-15.837,-27.545,-6.37,
49679590,-0.378,-0.225,0.947,-16.362,-29.54,-6.947,
49679600,-0.375,-0.235,0.933,-15.872,-31.517,-8.242,
49679610,-0.361,-0.223,0.931,-14,-33.215,-9.362,
49679620,-0.314,-0.208,0.934,-10.692,-35.052,-9.87,
49679630,-0.286,-0.227,0.934,-9.152,-34.405,-11.287,
49679640,-0.241,-0.239,0.915,-8.54,-32.795,-13.212,
49679650,-0.211,-0.238,0.902,-6.615,-28.595,-12.775,
49679660,-0.263,-0.226,0.879,-4.27,-25.27,-11.007,
49679670,-0.237,-0.212,0.953,-2.222,-23.222,-10.22,
49679680,-0.208,-0.292,0.811,-2.415,-22.295,-7.98,
49679690,-0.238,-0.266,0.851,3.097,-15.75,-4.777,
49679700,-0.24,-0.258,0.889,8.522,-15.505,0.455,
49679710,-0.139,-0.264,0.871,11.095,-13.825,1.015,
49679720,-0.135,-0.288,0.825,12.285,-6.842,2.24,
49679730,-0.214,-0.241,0.839,18.83,1.4,6.02,
49679740,-0.249,-0.175,0.93,20.37,4.865,6.86,
49679750,-0.231,-0.231,0.94,13.177,9.082,3.78,
49679760,-0.308,-0.24,0.969,10.902,13.055,3.587,
49679770,-0.365,-0.192,1.01,10.692,12.022,3.78,
49679780,-0.326,-0.218,0.991,6.107,9.152,1.032,
49679790,-0.319,-0.255,0.941,5.792,8.295,-1.05,
49679800,-0.35,-0.207,0.901,7.892,8.505,-2.782,
49679810,-0.311,-0.264,0.901,9.152,8.417,-3.185,
49679820,-0.156,-0.316,0.954,17.797,16.817,-3.255,
49679830,-0.436,-0.181,0.946,23.432,19.6,0.63,
49679830,-0.403,-0.095,0.85,14.647,2.31,-3.605,
49679850,-0.114,-0.22,0.831,12.25,-3.377,-7.14,
49679850,-0.192,-0.227,0.918,18.602,7.577,-1.067,
49679870,-0.338,-0.151,0.943,15.067,11.48,2.152,
49679870,-0.31,-0.184,0.929,8.19,7.7,1.82,
49679890,-0.273,-0.232,0.926,7.175,5.6,5.372,
49679890,-0.293,-0.218,0.946,6.615,4.602,8.907,
49679910,-0.302,-0.207,0.904,4.217,3.202,10.727,
49679910,-0.312,-0.183,0.89,4.725,1.68,12.162,
49679920,-0.279,-0.149,0.91,0.945,-0.962,13.335,
49679930,-0.234,-0.122,0.947,-3.972,3.342,7.735,
49679940,-0.276,-0.094,0.96,-16.257,7.07,4.602,
49679950,-0.292,-0.135,0.944,-27.265,9.887,3.5,
49679960,-0.32,-0.191,0.938,-26.792,9.432,1.767,
49679970,-0.329,-0.158,0.982,-25.55,7.84,0.77,
49679980,-0.358,-0.192,0.982,-27.79,6.16,-0.42,
49679990,-0.387,-0.231,0.949,-28.035,5.372,-1.557,
49680000,-0.423,-0.251,0.935,-26.705,1.347,-2.152,
49680010,-0.405,-0.234,0.94,-24.482,-4.165,-2.765,
49680020,-0.358,-0.227,0.951,-23.765,-9.45,-3.745,
49680030,-0.34,-0.236,0.921,-24.92,-10.465,-6.125,
49680040,-0.374,-0.26,0.884,-26.477,-13.492,-6.177,
49680050,-0.357,-0.255,0.888,-25.147,-18.305,-6.3,
49680060,-0.331,-0.283,0.897,-23.922,-22.89,-6.352,
49680070,-0.312,-0.326,0.882,-21.332,-25.287,-7.087,
49680080,-0.298,-0.327,0.869,-15.627,-27.44,-6.335,
49680090,-0.282,-0.3,0.86,-10.272,-30.362,-3.15,
49680100,-0.235,-0.264,0.87,-5.6,-31.85,-1.295,
49680110,-0.22,-0.282,0.868,-5.53,-32.252,-1.68,
49680120,-0.197,-0.31,0.859,-5.862,-34.685,-3.027,
49680130,-0.148,-0.302,0.858,-5.792,-36.015,-0.262,
49680140,-0.199,-0.318,0.803,-7.595,-35.105,5.985,
49680150,-0.319,-0.352,0.853,-11.375,-31.01,7.7,
49680160,-0.409,-0.404,0.871,-17.115,-30.905,-0.997,
49680170,-0.426,-0.449,0.945,-11.357,-34.86,-11.935,
49680170,-0.414,-0.459,1.002,-2.992,-42.35,-13.405,
49680190,-0.363,-0.443,0.997,8.33,-47.845,-11.707,
49680190,-0.157,-0.289,0.927,17.115,-50.942,-10.307,
49680210,0.005,-0.075,0.924,25.392,-46.147,-5.32,
49680210,0.052,0.047,0.952,24.745,-31.535,-0.122,
49680230,0.047,0.009,0.985,9.87,-14.017,-0.577,
49680230,-0.033,-0.073,1.01,-0.752,2.415,-4.27,
49680250,-0.134,-0.081,1.057,-5.67,15.05,-5.495,
49680250,-0.257,-0.112,1.082,-12.985,20.79,-2.187,
49680260,-0.323,-0.172,1.054,-20.335,20.895,-1.102,
49680270,-0.345,-0.233,0.988,-25.445,18.287,-1.522,
49680280,-0.418,-0.31,0.93,-20.247,12.232,2.642,
49680290,-0.286,-0.259,0.922,-13.3,6.597,-3.727,
49680300,-0.278,-0.242,0.89,-15.907,3.325,-5.67,
49680310,-0.277,-0.302,0.851,-18.41,2.327,-3.43,
49680320,-0.243,-0.359,0.835,-16.73,1.155,-3.902,
49680330,-0.264,-0.35,0.861,-11.62,1.277,-3.272,
49680340,-0.265,-0.308,0.92,-9.152,-1.225,-4.795,
49680350,-0.246,-0.309,0.947,-11.987,-2.607,-6.492,
49680360,-0.271,-0.324,0.948,-14.472,-4.252,-7.752,
49680370,-0.233,-0.301,0.947,-14.647,-5.95,-7.927,
49680380,-0.193,-0.291,0.942,-14.805,-6.702,-5.845,
49680390,-0.171,-0.277,0.92,-14.962,-4.9,-2.957,
49680400,-0.149,-0.269,0.914,-15.592,-1.277,-1.33,
49680410,-0.153,-0.28,0.89,-18.357,3.395,-4.602,
49680420,-0.203,-0.294,0.92,-19.32,7.63,-7.822,
49680430,-0.31,-0.338,0.926,-15.767,6.16,0.105,
49680440,-0.272,-0.335,0.902,-15.697,3.167,-9.467,
49680450,-0.319,-0.342,0.907,-16.31,2.117,-25.672,
49680460,-0.354,-0.364,0.879,-13.107,-3.832,-28.14,
49680470,-0.45,-0.305,0.918,-9.502,-19.197,-23.345,
49680480,-0.403,-0.339,0.901,-9.012,-35.227,-22.47,
49680490,-0.439,-0.38,0.947,-4.48,-47.092,-28.455,
49680500,-0.352,-0.364,0.952,-2.8,-58.415,-33.862,
49680510,-0.227,-0.324,0.975,3.412,-63.472,-36.172,
49680520,-0.163,-0.26,0.96,3.675,-65.607,-35.28,
49680530,-0.041,-0.238,0.953,-0.315,-62.895,-32.427,
49680540,-0.004,-0.286,0.931,-3.605,-56.455,-27.23,
49680550,-0.001,-0.299,0.925,-4.76,-47.6,-23.765,
49680560,-0.012,-0.282,0.927,-4.707,-38.657,-20.23,
49680570,-0.068,-0.291,0.926,-5.092,-32.602,-16.397,
49680580,-0.111,-0.334,0.903,-6.79,-28.647,-15.557,
49680580,-0.142,-0.345,0.912,-5.512,-27.37,-15.365,
49680600,-0.148,-0.318,0.928,-4.182,-28.192,-14.07,
49680600,-0.186,-0.333,0.892,-3.692,-30.607,-11.602,
49680620,-0.387,-0.36,0.876,-2.905,-43.242,-11.725,
49680620,-0.011,-0.365,1.015,-0.612,-42.542,-14.752,
49680640,-0.121,-0.399,0.946,1.89,-44.31,-11.287,
49680640,-0.065,-0.239,0.97,4.777,-43.172,-10.43,
49680660,-0.031,-0.241,0.947,1.732,-42.822,-9.905,
49680660,0.076,-0.273,0.949,-1.96,-39.077,-9.292,
49680670,0.171,-0.26,0.954,-2.45,-30.677,-7.07,
49680680,0.199,-0.217,0.962,-5.04,-18.305,-1.592,
49680690,0.145,-0.234,0.953,-12.705,-3.657,3.622,
49680700,0.193,-0.238,0.951,-18.917,11.69,6.352,
49680710,0.026,-0.284,0.925,-21.962,24.64,10.745,
49680720,-0.128,-0.363,0.914,-22.522,27.65,8.907,
49680730,-0.265,-0.411,0.912,-20.02,21.49,2.467,
49680740,-0.271,-0.373,0.915,-18.042,9.66,-2.572,
49680750,-0.162,-0.416,1.037,-19.145,3.99,-3.762,
49680760,-0.265,-0.49,0.907,-17.01,4.9,0.367,
49680770,-0.255,-0.347,0.948,-8.312,-5.845,-4.287,
49680780,-0.116,-0.314,0.934,-9.205,-12.6,-7.105,
49680790,-0.134,-0.388,0.918,-13.457,-13.142,-5.25,
49680800,-0.046,-0.349,0.956,-10.027,-13.002,-6.09,
49680810,0.03,-0.356,0.916,-8.47,-10.657,-1.977,
49680820,0.043,-0.322,0.9,-6.527,-5.547,1.19,
49680830,0.002,-0.303,0.908,-6.247,0.35,3.027,
49680840,-0.043,-0.34,0.92,-8.82,3.657,5.162,
49680850,-0.132,-0.389,0.92,-9.852,6.16,5.425,
49680860,-0.185,-0.373,0.968,-9.012,4.987,3.657,
49680870,-0.155,-0.393,0.974,-9.03,1.312,3.412,
49680880,-0.111,-0.397,0.953,-7.962,-0.997,3.395,
49680890,-0.092,-0.365,0.945,-5.915,-0.665,3.08,
49680900,-0.102,-0.368,0.91,-5.267,-0.682,3.517,
49680910,-0.105,-0.387,0.887,-4.41,-0.927,5.057,
49680920,-0.065,-0.374,0.904,-0.192,1.942,8.242,
49680920,-0.038,-0.368,0.892,2.292,3.832,10.71,
49680940,-0.046,-0.367,0.875,3.622,6.142,12.88,
49680940,-0.047,-0.371,0.857,7.122,8.89,16.082,
49680960,-0.07,-0.403,0.837,14.28,11.375,21.245,
49680960,-0.054,-0.433,0.8,24.797,12.6,26.232,
49680980,-0.041,-0.463,0.772,37.765,13.142,30.695,
49680980,-0.006,-0.478,0.767,53.2,15.417,34.335,
49681000,0.002,-0.453,0.762,70.245,20.895,37.747,
49681000,-0.016,-0.369,0.822,87.202,27.195,39.795,
49681010,-0.023,-0.294,0.938,96.757,33.092,42.402,
49681020,-0.034,-0.269,1.056,97.055,37.31,42.945,
49681030,-0.07,-0.212,1.152,87.64,40.005,41.667,
49681040,-0.145,-0.205,1.203,72.17,39.025,43.347,
49681050,-0.305,-0.2,1.205,54.355,31.605,43.592,
49681060,-0.457,-0.2,1.135,42.297,14.7,36.697,
49681070,-0.475,-0.23,1.063,41.58,-4.62,24.377,
49681080,-0.466,-0.252,1.029,40.582,-22.225,19.81,
49681090,-0.443,-0.235,0.998,41.965,-34.947,17.43,
49681100,-0.417,-0.235,0.977,42.612,-44.887,14.997,
49681110,-0.361,-0.232,0.984,42.84,-51.59,10.552,
49681120,-0.256,-0.227,0.976,40.04,-56.595,3.797,
49681130,-0.144,-0.211,0.971,38.797,-58.45,-0.402,
49681140,-0.061,-0.221,0.945,40.25,-58.327,-0.717,
49681150,0.028,-0.174,0.956,44.502,-54.075,-0.595,
49681160,0.074,-0.12,0.973,45.08,-48.387,0.105,
49681170,0.105,-0.13,0.976,41.965,-39.462,0.525,
49681180,0.157,-0.06,0.991,37.327,-28.14,-0.822,
49681190,0.149,-0.005,1.001,28.35,-14.577,0.122,
49681200,0.123,0.015,1.029,19.145,0.7,-0.07,
49681210,0.131,0.003,1.052,6.825,16.712,-2.222,
49681220,0.177,0.023,1.082,-6.457,32.462,-3.43,
49681230,0.125,-0.046,1.084,-18.025,47.687,-1.802,
49681240,0.167,-0.008,1.129,-26.372,61.005,-3.377,
49681250,0.166,-0.007,1.176,-37.905,75.827,2.502,
49681260,-0.015,-0.109,1.128,-45.902,90.282,6.457,
49681270,-0.202,-0.193,1.117,-50.522,89.477,-1.82,
49681280,-0.311,-0.239,1.081,-52.64,74.497,-13.44,
49681290,-0.319,-0.273,1.042,-47.267,56.927,-20.422,
49681300,-0.34,-0.308,0.939,-33.687,41.86,-23.03,
49681310,-0.358,-0.353,0.939,-16.082,33.46,-31.062,
49681320,-0.341,-0.353,0.92,-4.147,35,-42.542,
49681330,-0.352,-0.397,0.798,12.53,38.027,-54.95,
49681330,-0.343,-0.408,0.75,44.712,42.577,-69.562,
49681350,-0.414,-0.338,0.777,72.502,37.765,-73.22,
49681350,-0.491,-0.199,0.819,81.55,24.64,-68.74,
49681370,-0.469,-0.135,0.821,79.782,8.242,-65.187,
49681370,-0.429,-0.139,0.798,78.295,-7.122,-64.557,
49681390,-0.417,-0.146,0.759,76.422,-18.427,-65.66,
49681390,-0.371,-0.096,0.743,79.87,-25.917,-70.017,
49681410,-0.321,-0.036,0.752,86.187,-30.24,-74.13,
49681410,-0.305,0.021,0.776,89.372,-33.617,-77.297,
49681420,-0.284,0.037,0.785,88.34,-38.307,-80.167,
49681430,-0.23,0.049,0.811,85.102,-40.985,-81.182,
49681440,-0.144,0.11,0.82,78.102,-42.315,-79.397,
49681450,-0.141,0.087,0.884,75.215,-41.387,-70.857,
49681460,-0.058,0.215,0.937,56.77,-38.325,-67.305,
49681470,-0.06,0.212,0.936,33.005,-35.752,-58.642,
49681480,-0.066,0.16,0.982,17.692,-32.847,-47.582,
49681490,-0.047,0.171,0.988,-6.352,-29.242,-39.76,
49681500,-0.067,0.136,1,-23.275,-25.637,-32.585,
49681510,-0.002,0.158,0.993,-40.495,-16.905,-30.45,
49681520,-0.014,0.093,0.967,-48.912,-7.052,-23.572,
49681530,-0.031,0.043,0.991,-50.12,4.567,-17.115,
49681540,-0.034,0.007,0.968,-56.752,14.752,-17.78,
49681550,-0.091,-0.059,0.942,-54.162,25.095,-18.882,
49681560,-0.137,-0.105,0.95,-41.3,32.2,-20.422,
49681570,-0.191,-0.087,0.963,-28.945,33.425,-23.012,
49681580,-0.206,-0.032,0.979,-21.752,30.065,-25.882,
49681590,-0.219,-0.04,0.954,-22.61,25.217,-25.917,
49681600,-0.207,-0.094,0.953,-24.045,22.102,-26.39,
49681610,-0.186,-0.112,0.959,-29.732,21.507,-27.737,
49681620,-0.216,-0.174,0.973,-29.067,21.805,-28.717,
49681630,-0.227,-0.165,0.998,-29.767,22.802,-33.985,
49681640,-0.241,-0.156,1.043,-32.305,20.527,-41.107,
49681650,-0.189,-0.122,1.059,-43.032,17.08,-46.2,
49681660,-0.163,-0.116,1.046,-62.055,15.312,-46.235,
49681670,-0.152,-0.192,0.981,-76.982,15.68,-45.43,
49681670,-0.118,-0.256,0.974,-82.53,20.825,-44.677,
49681690,-0.12,-0.236,0.96,-90.23,28.28,-45.622,
49681690,-0.175,-0.239,0.934,-95.637,33.932,-49.857,
49681710,-0.199,-0.27,0.926,-95.76,35.21,-54.425,
49681710,-0.211,-0.292,0.92,-95.182,31.692,-56.262,
49681730,-0.219,-0.308,0.918,-92.12,24.657,-55.545,
49681730,-0.181,-0.32,0.905,-87.832,17.622,-53.83,
49681750,-0.111,-0.329,0.888,-81.392,13.65,-49.455,
49681750,-0.057,-0.32,0.873,-76.107,17.167,-40.565,
49681760,-0.069,-0.319,0.896,-72.66,25.62,-28.332,
49681770,-0.096,-0.305,0.907,-76.79,34.79,-18.322,
49681780,-0.135,-0.351,0.875,-79.362,41.457,-8.785,
49681790,-0.32,-0.528,0.838,-60.9,40.18,9.712,
49681800,-0.197,-0.414,0.887,-49.927,36.715,-2.485,
49681810,-0.236,-0.389,0.87,-51.52,32.322,2.327,
49681820,-0.222,-0.442,0.838,-54.232,29.802,1.575,
49681830,-0.214,-0.459,0.823,-54.302,28.577,2.677,
49681840,-0.269,-0.532,0.812,-53.952,25.865,3.535,
49681850,-0.305,-0.618,0.798,-44.345,20.475,3.482,
49681860,-0.241,-0.539,0.797,-31.587,18.322,-0.98,
49681870,-0.311,-0.53,0.845,-24.43,14.35,-1.295,
49681880,-0.347,-0.555,0.832,-22.785,8.68,-0.402,
49681890,-0.344,-0.595,0.817,-22.19,0.175,0.262,
49681900,-0.319,-0.636,0.801,-17.325,-8.312,-2.222,
49681910,-0.305,-0.632,0.789,-7.577,-14.21,-6.02,
49681920,-0.26,-0.595,0.866,-0.315,-19.25,-7,
49681930,-0.137,-0.568,0.893,-2.24,-13.492,-1.697,
49681940,-0.181,-0.574,0.856,-2.1,-1.785,5.67,
49681950,-0.244,-0.52,0.896,4.882,6.125,7.577,
49681960,-0.255,-0.439,0.913,2.87,7.245,10.972,
49681970,-0.236,-0.405,0.936,-6.877,7.875,16.73,
49681980,-0.204,-0.449,0.938,-19.652,4.812,22.19,
49681990,-0.118,-0.499,0.914,-28.315,8.05,27.405,
49682000,-0.105,-0.47,0.87,-22.242,19.442,28.927,
49682010,-0.208,-0.409,0.954,-18.935,27.842,31.5,
49682020,-0.305,-0.415,0.924,-33.932,30.905,34.44,
49682030,-0.243,-0.455,0.838,-40.915,29.75,30.275,
49682040,-0.204,-0.489,0.837,-38.92,32.585,27.755,
49682050,-0.283,-0.496,0.825,-38.307,38.482,29.47,
49682060,-0.33,-0.502,0.841,-34.195,38.605,26.022,
49682070,-0.338,-0.528,0.853,-30.257,37.03,22.977,
49682080,-0.36,-0.566,0.875,-24.99,33.81,21.052,
49682080,-0.348,-0.577,0.873,-18.742,30.52,14.805,
49682090,-0.319,-0.583,0.865,-12.617,29.872,11.602,
49682100,-0.305,-0.562,0.85,-5.74,32.357,13.65,
49682110,-0.332,-0.537,0.859,-0.682,37.24,20.142,
49682120,-0.35,-0.512,0.852,-2.012,41.667,27.282,
49682130,-0.318,-0.515,0.8,-3.622,46.83,32.865,
49682140,-0.261,-0.562,0.754,1.522,54.985,40.862,
49682150,-0.08,-0.628,0.663,16.17,79.275,54.687,
49682160,-0.062,-0.555,0.652,49.612,118.107,78.067,
49682170,-0.348,-0.379,0.743,64.277,148.977,113.05,
49682180,-0.445,-0.251,0.795,52.29,163.292,135.537,
49682190,-0.535,-0.267,0.875,21.787,169.977,149.975,
49682200,-0.639,-0.444,0.793,-13.23,167.37,151.55,
49682210,-0.841,-0.53,0.735,-25.9,149.17,137.707,
49682220,-0.873,-0.458,0.703,-33.722,119.805,110.162,
49682230,-0.871,-0.604,0.629,-44.817,87.08,85.977,
49682240,-0.736,-0.74,0.556,-22.522,50.295,63.332,
49682250,-0.576,-0.499,0.595,13.002,32.795,56.052,
49682260,-0.597,-0.287,0.648,17.972,25.795,64.82,
49682270,-0.626,-0.242,0.631,6.195,28.647,75.687,
49682280,-0.619,-0.273,0.629,-6.755,34.247,82.95,
49682290,-0.658,-0.31,0.605,-15.732,37.87,85.61,
49682300,-0.687,-0.306,0.591,-19.285,38.78,81.13,
49682310,-0.734,-0.292,0.575,-19.442,35.962,74.182,
49682320,-0.781,-0.251,0.573,-17.377,27.545,68.32,
49682330,-0.829,-0.235,0.569,-9.94,14.787,65.677,
49682340,-0.798,-0.164,0.544,-10.097,0.367,62.37,
49682350,-0.739,-0.152,0.548,-11.847,-11.2,53.83,
49682360,-0.732,-0.15,0.513,-15.015,-16.765,57.557,
49682370,-0.714,-0.191,0.484,-18.2,-18.602,56.087,
49682380,-0.691,-0.182,0.501,-14.332,-18.042,51.432,
49682390,-0.734,-0.2,0.529,-9.537,-17.622,55.702,
49682400,-0.743,-0.193,0.575,0.402,-19.267,56.857,
49682410,-0.759,-0.191,0.618,3.097,-24.115,53.847,
49682420,-0.769,-0.161,0.669,6.562,-31.657,46.13,
49682420,-0.741,-0.157,0.695,6.247,-40.932,41.947,
49682440,-0.652,-0.137,0.744,7.962,-47.862,37.502,
49682440,-0.586,-0.144,0.713,6.772,-48.632,37.66,
49682460,-0.625,-0.168,0.734,11.76,-47.372,34.265,
49682460,-0.631,-0.173,0.737,18.97,-47.897,32.83,
49682480,-0.684,-0.168,0.755,24.465,-51.66,27.58,
49682480,-0.706,-0.182,0.73,29.137,-62.37,20.562,
49682500,-0.697,-0.174,0.718,39.83,-74.147,13.405,
49682500,-0.67,-0.139,0.724,48.212,-87.202,9.292,
49682510,-0.566,-0.093,0.735,51.467,-90.475,5.582,
49682520,-0.509,-0.056,0.753,51.327,-84.175,3.062,
49682530,-0.279,-0.055,0.795,45.272,-61.67,4.655,
49682540,-0.325,-0.09,0.87,39.585,-17.692,15.347,
49682550,-0.576,-0.092,0.891,36.137,13.317,21.56,
49682560,-0.708,-0.042,0.919,29.155,23.887,19.547,
49682570,-0.75,-0.075,0.876,17.762,16.572,17.132,
49682580,-0.728,-0.143,0.834,15.277,4.41,14.507,
49682590,-0.711,-0.168,0.811,20.16,-4.742,12.705,
49682600,-0.713,-0.151,0.799,27.545,-12.477,11.252,
49682610,-0.714,-0.12,0.793,34.265,-18.13,9.922,
49682620,-0.684,-0.094,0.789,36.697,-21.42,10.377,
49682630,-0.691,-0.085,0.785,35.77,-23.205,12.477,
49682640,-0.663,-0.09,0.782,33.215,-24.412,12.95,
49682650,-0.622,-0.085,0.792,31.29,-23.73,11.952,
49682660,-0.578,-0.063,0.817,29.785,-18.69,10.815,
49682670,-0.593,-0.058,0.835,26.302,-11.305,10.307,
49682680,-0.598,-0.06,0.848,22.12,-4.637,7.945,
49682690,-0.615,-0.063,0.855,16.765,0.91,5.005,
49682700,-0.632,-0.075,0.855,10.535,2.975,2.485,
49682710,-0.628,-0.08,0.853,5.442,2.887,1.05,
49682720,-0.626,-0.096,0.838,0.787,0.927,1.19,
49682730,-0.609,-0.133,0.831,-2.94,-0.402,1.68,
49682740,-0.631,-0.127,0.823,-2.677,-3.447,1.925,
49682750,-0.676,-0.102,0.789,-2.59,-11.042,1.575,
49682760,-0.615,-0.112,0.765,-4.06,-20.58,0,
49682760,-0.566,-0.128,0.729,-2.38,-25.777,0.192,
49682780,-0.567,-0.121,0.725,1.732,-28.525,0.175,
49682780,-0.562,-0.085,0.727,4.497,-31.535,-1.067,
49682800,-0.558,-0.054,0.727,5.04,-35.052,-2.852,
49682800,-0.527,-0.019,0.718,2.59,-38.692,-4.795,
49682820,-0.49,0.007,0.706,-3.377,-39.305,-6.335,
49682820,-0.457,0.008,0.69,-11.725,-35.77,-7.77,
49682830,-0.454,-0.015,0.664,-19.81,-28.735,-8.802,
49682840,-0.476,-0.048,0.652,-23.957,-22.347,-7.875,
49682850,-0.499,-0.073,0.657,-23.677,-17.902,-4.217,
49682860,-0.47,-0.104,0.724,-21.945,-13.352,-0.98,
49682870,-0.295,-0.159,0.756,-20.002,4.62,1.715,
49682880,-0.405,-0.176,0.828,-11.13,33.057,5.827,
49682890,-0.642,-0.085,0.892,-6.51,47.915,5.04,
49682900,-0.712,-0.066,0.905,-10.85,47.32,2.52,
49682910,-0.705,-0.138,0.858,-15.75,37.852,2.625,
49682920,-0.688,-0.165,0.836,-14,29.032,2.94,
49682930,-0.692,-0.126,0.818,-11.427,21.402,1.785,
49682940,-0.698,-0.116,0.809,-11.742,14.42,1.137,
49682950,-0.764,-0.135,0.779,-12.775,6.877,1.207,
49682960,-0.771,-0.105,0.754,-11.217,-7.665,-1.207,
49682970,-0.691,-0.078,0.763,-15.382,-21.875,-2.73,
49682980,-0.654,-0.096,0.751,-21.28,-30.152,-2.485,
49682990,-0.574,-0.115,0.786,-24.587,-28.437,-2.065,
49683000,-0.873,-0.17,0.676,-27.737,-29.557,0.14,
49683010,-1.255,-0.181,0.682,-19.6,-94.92,-13.597,
49683020,-0.497,-0.049,0.602,-11.725,-145.442,-16.257,
49683030,-0.058,-0.072,0.556,-13.405,-132.947,-3.57,
49683040,-0.347,-0.138,0.687,-16.012,-96.705,-10.342,
49683050,-0.465,-0.137,0.793,-25.287,-78.592,-18.252,
49683060,-0.295,-0.078,0.865,-20.002,-54.775,-7.665,
49683070,-0.308,-0.17,0.936,-16.205,-31.64,10.097,
49683080,-0.415,-0.258,1.044,-10.587,-8.12,19.355,
49683090,-0.343,-0.266,1.142,-1.505,19.617,19.46,
49683100,-0.576,-0.27,1.172,5.477,43.522,21.997,
49683110,-0.872,-0.198,1.163,8.172,39.497,16.8,
49683120,-0.797,-0.102,1.075,6.58,18.48,5.67,
49683130,-0.591,-0.085,0.931,-2.292,3.465,-4.06,
49683140,-0.542,-0.115,0.807,-7.892,2.345,-6.212,
49683150,-0.576,-0.09,0.752,-8.522,4.9,-7.017,
49683160,-0.575,-0.056,0.731,-9.887,3.955,-8.347,
49683170,-0.528,-0.078,0.725,-10.482,2.59,-8.26,
49683170,-0.508,-0.103,0.762,-9.537,3.605,-5.285,
49683190,-0.537,-0.109,0.769,-10.972,4.9,-4.48,
49683190,-0.528,-0.086,0.841,-10.167,4.497,-8.942,
49683210,-0.47,-0.105,0.91,-13.457,5.565,-12.32,
49683210,-0.469,-0.177,0.892,-18.567,7.455,-13.177,
49683230,-0.497,-0.19,0.899,-17.43,8.032,-13.562,
49683230,-0.517,-0.177,0.872,-17.815,7.875,-12.67,
49683250,-0.498,-0.19,0.825,-18.48,4.812,-12.897,
49683250,-0.482,-0.196,0.775,-15.365,6.037,-13.23,
49683260,-0.508,-0.222,0.734,-13.002,4.742,-10.395,
49683270,-0.537,-0.236,0.723,-7.735,3.535,-6.422,
49683280,-0.522,-0.235,0.738,-4.217,0.857,-2.38,
49683290,-0.581,-0.259,0.709,-4.025,0.332,2.047,
49683300,-0.646,-0.307,0.681,0.175,-5.407,1.61,
49683310,-0.628,-0.167,0.761,1.085,-11.865,2.712,
49683320,-0.422,-0.183,0.819,-8.89,-9.922,5.477,
49683330,-0.53,-0.267,0.855,-14.525,-0.297,13.09,
49683340,-0.605,-0.271,0.869,-13.125,2.625,15.172,
49683350,-0.526,-0.21,0.871,-8.942,2.695,13.492,
49683360,-0.492,-0.189,0.856,-9.065,3.832,14.35,
49683370,-0.495,-0.185,0.816,-11.077,6.667,17.972,
49683380,-0.502,-0.195,0.788,-10.115,8.207,21.122,
49683390,-0.501,-0.192,0.761,-6.212,8.365,23.082,
49683400,-0.503,-0.186,0.748,-3.797,7.962,25.34,
49683410,-0.548,-0.216,0.718,-1.977,7.805,27.632,
49683420,-0.86,-0.105,0.572,4.27,-9.187,23.432,
49683430,-0.167,-0.086,0.839,-3.535,-29.575,15.067,
49683440,-0.367,-0.495,0.809,-9.03,10.43,34.352,
49683450,-0.893,-0.438,0.962,22.767,9.817,26.95,
49683460,-0.771,-0.037,1.021,33.285,-1.277,13.44,
49683470,-0.673,-0.14,0.902,17.167,-14.332,6.265,
49683480,-0.548,-0.221,0.805,12.127,-13.755,5.18,
49683490,-0.615,-0.129,0.83,16.887,-10.587,6.72,
49683500,-0.623,-0.067,0.829,8.417,-11.112,6.055,
49683510,-0.563,-0.132,0.793,0.437,-12.547,3.482,
49683510,-0.508,-0.139,0.804,-0.105,-11.567,2.205,
49683530,-0.507,-0.123,0.819,1.05,-10.465,2.765,
49683530,-0.491,-0.13,0.815,2.222,-9.8,3.692,
49683550,-0.514,-0.125,0.807,2.45,-9.187,6.982,
49683550,-0.555,-0.135,0.803,1.907,-8.645,7.91,
49683570,-0.571,-0.164,0.803,2.257,-9.205,7.717,
49683570,-0.618,-0.194,0.803,2.555,-11.042,8.382,
49683580,-0.628,-0.179,0.812,4.445,-14.595,5.547,
49683590,-0.584,-0.142,0.839,4.882,-16.817,2.31,
49683600,-0.558,-0.144,0.85,2.205,-17.885,1.487,
49683610,-0.523,-0.145,0.849,1.382,-16.94,0.927,
49683620,-0.478,-0.126,0.838,3.325,-15.505,1.225,
49683630,-0.453,-0.101,0.828,4.2,-12.495,3.062,
49683640,-0.473,-0.1,0.831,2.712,-9.135,4.847,
49683650,-0.5,-0.118,0.822,0.297,-6.632,6.527,
49683660,-0.535,-0.128,0.814,-0.612,-6.912,7.14,
49683670,-0.545,-0.144,0.814,-0.77,-9.467,6.247,
49683680,-0.591,-0.195,0.82,-0.035,-10.29,7.315,
49683690,-0.645,-0.2,0.841,2.275,-14.14,6.475,
49683700,-0.602,-0.18,0.866,4.34,-17.447,1.05,
49683710,-0.591,-0.196,0.863,4.567,-19.162,-2.45,
49683720,-0.572,-0.182,0.849,6.247,-21.752,-2.607,
49683730,-0.522,-0.157,0.838,8.575,-23.397,-1.907,
49683740,-0.478,-0.132,0.846,11.55,-23.24,-1.75,
49683750,-0.46,-0.105,0.835,11.27,-20.37,0.332,
49683760,-0.48,-0.091,0.847,10.097,-18.13,0.997,
49683770,-0.495,-0.106,0.843,7.14,-16.765,0.507,
49683780,-0.496,-0.122,0.838,7.07,-16.205,0.507,
49683790,-0.514,-0.121,0.85,7.42,-16.222,2.135,
49683800,-0.533,-0.132,0.86,7.262,-17.5,2.975,
49683810,-0.522,-0.134,0.865,7.612,-18.462,3.255,
49683820,-0.502,-0.125,0.865,7.962,-19.075,2.73,
49683830,-0.489,-0.114,0.862,6.895,-17.99,2.52,
49683840,-0.469,-0.114,0.843,5.302,-16.712,3.36,
49683850,-0.455,-0.106,0.844,4.602,-14.717,4.235,
49683860,-0.455,-0.111,0.844,3.657,-12.39,4.322,
49683870,-0.471,-0.123,0.851,3.167,-10.535,4.305,
49683880,-0.46,-0.123,0.87,4.462,-9.082,3.167,
49683890,-0.462,-0.114,0.893,5.18,-7.752,1.26,
49683900,-0.482,-0.112,0.924,3.937,-7.157,0.315,
49683910,-0.452,-0.087,0.915,2.73,-6.3,-0.595,
49683920,-0.464,-0.074,0.911,1.015,-3.71,-0.857,
49683920,-0.488,-0.087,0.892,-2.415,-2.695,-0.507,
49683940,-0.47,-0.09,0.886,-3.325,-0.927,-0.35,
49683940,-0.496,-0.104,0.879,-4.847,0.962,1.522,
49683960,-0.516,-0.119,0.862,-6.107,1.207,2.782,
49683960,-0.507,-0.119,0.856,-5.915,0.962,2.502,
49683980,-0.513,-0.131,0.85,-6.895,1.067,2.607,
49683980,-0.52,-0.147,0.841,-7,0.192,2.975,
49684000,-0.5,-0.161,0.824,-5.267,-0.052,4.025,
49684000,-0.497,-0.172,0.814,-3.57,-0.612,6.265,
49684010,-0.516,-0.155,0.826,-1.347,-2.152,6.825,
49684020,-0.501,-0.125,0.836,1.085,-4.357,5.862,
49684030,-0.507,-0.118,0.819,0,-7,7.035,
49684040,-0.496,-0.109,0.821,-0.962,-10.062,7.875,
49684050,-0.467,-0.1,0.82,-1.452,-10.185,7.227,
49684060,-0.473,-0.11,0.819,-3.22,-9.17,5.145,
49684070,-0.494,-0.13,0.838,-3.762,-8.015,3.412,
49684080,-0.527,-0.138,0.864,-3.08,-9.94,2.94,
49684090,-0.538,-0.132,0.876,-2.677,-13.335,1.645,
49684100,-0.537,-0.122,0.886,-2.065,-17.01,-0.63,
49684110,-0.531,-0.133,0.885,-2.17,-19.88,-3.22,
49684120,-0.508,-0.122,0.908,-0.997,-21.63,-5.215,
49684130,-0.487,-0.117,0.933,0.997,-22.277,-3.99,
49684140,-0.469,-0.107,0.957,5.425,-24.255,-1.47,
49684150,-0.458,-0.104,0.981,6.685,-25.847,-2.135,
49684160,-0.415,-0.1,0.949,5.775,-27.107,-4.62,
49684170,-0.407,-0.122,0.935,5.11,-24.5,-2.8,
49684180,-0.536,-0.157,0.873,5.197,-26.897,0.857,
49684190,-0.618,-0.147,0.855,7.175,-36.347,5.39,
49684200,-0.544,-0.12,0.778,14,-43.872,10.657,
49684210,-0.511,-0.108,0.858,18.427,-42.822,11.042,
49684220,-0.517,-0.101,0.823,11.287,-43.575,5.25,
49684230,-0.43,-0.085,0.876,9.38,-39.252,0.35,
49684240,-0.405,-0.089,0.901,7.367,-36.75,2.45,
49684250,-0.345,-0.092,0.941,4.427,-31.71,3.71,
49684260,-0.27,-0.074,0.933,1.487,-24.622,2.45,
49684260,-0.241,-0.051,0.999,-0.315,-12.057,6.457,
49684280,-0.363,-0.064,0.985,-1.767,-1.155,14,
49684280,-0.257,0.027,0.965,-8.085,2.275,4.812,
49684300,-0.168,0.068,0.944,-16.082,9.73,0.332,
49684300,-0.211,0.027,0.905,-25.445,21.735,3.272,
49684320,-0.253,-0.007,0.888,-30.275,33.005,2.537,
49684320,-0.323,-0.064,0.896,-34.247,40.285,-0.997,
49684330,-0.379,-0.102,0.893,-41.685,43.61,-6.107,
49684340,-0.534,-0.214,0.844,-40.477,39.515,-1.96,
49684350,-0.585,-0.203,0.847,-33.6,28.14,2.205,
49684360,-0.648,-0.251,0.824,-30.012,14.787,4.095,
49684370,-0.687,-0.271,0.824,-24.045,1.225,6.405,
49684380,-0.641,-0.259,0.837,-19.722,-12.67,4.707,
49684390,-0.596,-0.254,0.821,-14.997,-23.52,4.83,
49684400,-0.541,-0.238,0.84,-5.897,-31.937,2.73,
49684410,-0.463,-0.178,0.851,0.577,-36.102,2.187,
49684420,-0.402,-0.145,0.85,1.487,-36.522,2.572,
49684430,-0.354,-0.134,0.864,-0.56,-32.41,0.84,
49684440,-0.308,-0.116,0.859,-4.217,-25.252,-2.187,
49684450,-0.324,-0.123,0.88,-6.632,-17.482,-2.922,
49684460,-0.345,-0.127,0.887,-10.29,-11.935,-2.362,
49684470,-0.36,-0.132,0.887,-12.915,-6.825,-3.972,
49684480,-0.388,-0.133,0.895,-13.825,-3.605,-4.147,
49684490,-0.407,-0.134,0.892,-14.735,-1.295,-2.747,
49684500,-0.415,-0.138,0.896,-14.857,0.157,-0.735,
49684510,-0.423,-0.134,0.89,-15.032,1.977,0.98,
49684520,-0.42,-0.14,0.886,-15.365,3.622,1.172,
49684530,-0.441,-0.17,0.853,-15.295,4.445,0.857,
49684540,-0.43,-0.172,0.858,-10.447,3.78,-1.977,
49684550,-0.41,-0.164,0.87,-8.907,3.972,-1.487,
49684560,-0.401,-0.181,0.883,-8.732,4.392,-0.07,
49684570,-0.406,-0.213,0.867,-9.38,4.427,1.085,
49684580,-0.384,-0.219,0.878,-6.615,3.78,-0.157,
49684590,-0.384,-0.227,0.891,-4.655,2.362,-1.452,
49684600,-0.413,-0.233,0.901,-4.305,-1.207,-2.397,
49684610,-0.412,-0.213,0.884,-6.685,-5.827,-4.147,
49684620,-0.388,-0.181,0.865,-9.222,-7.665,-5.547,
49684630,-0.388,-0.193,0.835,-10.815,-4.76,-4.812,
49684640,-0.408,-0.2,0.807,-8.942,0.017,-3.605,
49684650,-0.424,-0.191,0.813,-5.617,4.287,-2.485,
49684660,-0.458,-0.187,0.837,-2.625,7.402,-0.665,
49684670,-0.469,-0.129,0.848,0.315,9.922,0.315,
49684670,-0.409,-0.177,0.91,-1.96,13.125,-1.837,
49684690,-0.46,-0.256,0.925,-3.745,14.455,2.59,
49684690,-0.573,-0.238,0.93,2.94,13.545,6.475,
49684710,-0.536,-0.171,0.957,9.012,8.067,4.532,
49684710,-0.5,-0.154,0.941,4.305,4.515,1.417,
49684730,-0.492,-0.205,0.901,-2.065,-1.155,-0.945,
49684730,-0.472,-0.186,0.899,-0.927,-4.812,-1.102,
49684750,-0.61,-0.169,0.874,-1.697,-19.39,1.505,
49684750,-0.388,-0.175,0.827,-2.117,-25.427,0.945,
49684760,-0.297,-0.175,0.87,8.015,-17.062,-1.505,
49684770,-0.432,-0.13,0.89,5.32,-13.072,-0.017,
49684780,-0.439,-0.136,0.866,1.96,-10.43,-1.102,
49684790,-0.394,-0.168,0.87,3.92,-11.375,-3.57,
49684800,-0.383,-0.167,0.863,3.71,-11.97,-3.71,
49684810,-0.38,-0.158,0.866,4.322,-9.1,-4.095,
49684820,-0.38,-0.147,0.876,3.92,-5.827,-3.447,
49684830,-0.361,-0.157,0.88,0.367,-3.202,-3.045,
49684840,-0.319,-0.186,0.879,-3.29,2.047,-2.992,
49684850,-0.355,-0.222,0.877,-4.13,9.292,2.292,
49684860,-0.427,-0.237,0.893,-2.152,12.442,7.7,
49684870,-0.447,-0.248,0.892,2.38,14.052,6.965,
49684880,-0.509,-0.202,0.87,6.405,11.147,6.317,
49684890,-0.475,-0.176,0.84,5.897,9.765,5.582,
49684900,-0.541,-0.227,0.864,2.397,7.595,3.097,
49684910,-0.558,-0.271,0.817,-0.91,-2.17,0.49,
49684920,-0.511,-0.262,0.828,9.712,-8.645,-1.662,
49684930,-0.503,-0.212,0.856,16.24,-15.767,-1.942,
49684940,-0.482,-0.164,0.868,19.88,-20.475,-0.35,
49684950,-0.422,-0.144,0.905,23.835,-21.612,-1.102,
49684960,-0.371,-0.115,0.928,22.487,-20.037,-2.17,
49684970,-0.349,-0.08,0.944,17.377,-14.735,-2.992,
49684980,-0.357,-0.065,0.967,11.41,-8.592,-2.292,
49684990,-0.36,-0.07,0.969,4.147,-2.747,-1.225,
49685000,-0.37,-0.088,0.957,-2.082,1.802,-0.647,
49685010,-0.401,-0.109,0.926,-6.16,5.057,-0.367,
49685010,-0.45,-0.112,0.896,-7.717,5.425,-1.015,
49685030,-0.452,-0.117,0.864,-8.82,3.99,-1.96,
49685030,-0.454,-0.131,0.852,-7.822,3.675,-2.362,
49685050,-0.484,-0.145,0.838,-7.577,2.135,-2.59,
49685050,-0.454,-0.152,0.856,-7.07,0.717,-5.057,
49685070,-0.449,-0.147,0.863,-7,1.365,-5.04,
49685070,-0.413,-0.164,0.905,-9.45,2.415,-5.74,
49685080,-0.424,-0.175,0.913,-14.735,3.71,-6.072,
49685090,-0.447,-0.212,0.906,-18.62,2.957,-4.375,
49685100,-0.429,-0.235,0.889,-16.852,0.787,-3.447,
49685110,-0.426,-0.229,0.852,-13.895,-2.275,-2.31,
49685120,-0.424,-0.217,0.822,-8.645,-4.182,-1.557,
49685130,-0.424,-0.208,0.809,-5.11,-3.832,0.122,
49685140,-0.412,-0.234,0.785,-1.382,-3.622,1.487,
49685150,-0.38,-0.209,0.81,5.495,-1.312,2.082,
49685160,-0.384,-0.196,0.855,7.42,2.065,4.252,
49685170,-0.417,-0.216,0.877,5.285,3.535,5.162,
49685180,-0.402,-0.219,0.904,5.355,4.042,3.5,
49685190,-0.484,-0.215,0.943,8.855,2.677,7.945,
49685200,-0.493,-0.183,0.959,10.972,-2.765,8.505,
49685210,-0.454,-0.151,0.94,7.752,-5.862,4.445,
49685220,-0.418,-0.144,0.906,3.377,-5.915,-0.157,
49685230,-0.399,-0.126,0.876,0.752,-2.992,-3.167,
49685240,-0.406,-0.116,0.854,0.227,-1.312,-0.945,
49685250,-0.414,-0.133,0.846,1.365,-0.42,2.905,
49685260,-0.412,-0.147,0.851,4.007,0.227,4.69,
49685270,-0.421,-0.149,0.86,4.375,1.715,6.3,
49685280,-0.468,-0.172,0.862,5.32,1.557,7.332,
49685290,-0.488,-0.175,0.868,6.3,0.35,6.457,
49685300,-0.488,-0.18,0.864,5.617,-2.415,5.355,
49685310,-0.488,-0.188,0.866,6.44,-4.392,3.902,
49685320,-0.467,-0.175,0.879,8.942,-5.617,1.785,
49685330,-0.458,-0.161,0.899,8.452,-6.807,0.612,
49685340,-0.432,-0.165,0.895,6.405,-7.21,-0.525,
49685350,-0.424,-0.17,0.898,6.335,-6.965,-1.172,
49685360,-0.393,-0.148,0.899,6.772,-6.037,-0.84,
49685370,-0.375,-0.12,0.906,6.895,-3.92,0.91,
49685380,-0.377,-0.115,0.91,5.232,-1.522,2.922,
49685390,-0.345,-0.093,0.913,3.657,2.31,3.132,
49685400,-0.343,-0.093,0.9,0.892,7.98,4.252,
49685410,-0.384,-0.101,0.888,-0.7,13.492,5.932,
49685420,-0.428,-0.102,0.892,-1.715,16.712,6.982,
49685420,-0.457,-0.125,0.898,-4.252,17.605,7.017,
49685440,-0.469,-0.16,0.915,-6.107,17.902,5.582,
49685440,-0.503,-0.18,0.925,-6.055,17.465,4.06,
49685450,-0.512,-0.187,0.924,-6.457,15.435,1.907,
49685460,-0.492,-0.198,0.902,-6.58,12.6,-0.752,
49685470,-0.5,-0.194,0.899,-4.147,9.135,1.942,
49685480,-0.487,-0.191,0.857,-3.517,4.882,3.972,
49685490,-0.457,-0.205,0.816,-0.035,2.73,2.607,
49685500,-0.503,-0.209,0.81,3.745,2.817,3.29,
49685510,-0.503,-0.193,0.805,6.842,-1.697,2.642,
49685520,-0.45,-0.166,0.829,11.637,-1.872,1.785,
49685530,-0.455,-0.152,0.854,12.145,-0.7,2.905,
49685540,-0.467,-0.148,0.861,10.85,0.787,2.012,
49685550,-0.426,-0.128,0.867,11.077,2.887,-0.822,
49685560,-0.4,-0.112,0.876,10.71,6.457,-0.28,
49685570,-0.4,-0.091,0.875,8.925,10.517,0.805,
49685580,-0.43,-0.094,0.888,7.997,13.702,2.677,
49685590,-0.475,-0.098,0.892,5.267,15.487,5.25,
49685600,-0.476,-0.094,0.893,2.975,16.205,5.53,
49685610,-0.489,-0.093,0.893,-0.332,18.567,4.165,
49685620,-0.5,-0.109,0.892,-5.11,20.09,1.557,
49685630,-0.51,-0.115,0.922,-5.915,21.157,0.595,
49685640,-0.508,-0.115,0.93,-7.577,19.285,2.695,
49685650,-0.452,-0.122,0.909,-10.395,19.057,2.642,
49685660,-0.436,-0.133,0.908,-10.937,22.452,3.377,
49685670,-0.557,-0.208,0.892,-12.635,18.305,4.287,
49685680,-0.536,-0.252,0.865,-8.592,10.237,2.852,
49685690,-0.524,-0.256,0.846,0.787,2.992,-0.227,
49685700,-0.523,-0.238,0.798,8.697,-5.32,-2.397,
49685710,-0.531,-0.206,0.754,15.627,-12.127,-5.372,
49685720,-0.472,-0.111,0.729,20.982,-18.147,-11.322,
49685730,-0.383,-0.052,0.743,23.975,-13.282,-14.122,
49685740,-0.448,-0.109,0.755,24.132,-4.025,-8.312,
49685750,-0.52,-0.112,0.778,22.75,2.677,-4.585,
49685760,-0.569,-0.09,0.865,25.427,4.462,-1.032,
49685760,-0.568,-0.102,0.896,19.897,3.832,0.927,
49685780,-0.545,-0.138,0.941,13.002,2.73,-2.8,
49685780,-0.512,-0.127,0.947,7.945,3.237,-4.497,
49685800,-0.535,-0.116,0.957,1.627,3.167,-3.657,
49685800,-0.507,-0.112,0.918,-4.025,1.242,-4.235,
49685820,-0.451,-0.076,0.913,-3.412,4.06,-1.382,
49685820,-0.464,-0.061,0.889,-7.647,6.492,6.002,
49685830,-0.493,-0.088,0.862,-13.807,8.452,9.152,
49685840,-0.494,-0.11,0.854,-16.415,9.03,10.867,
49685850,-0.521,-0.136,0.844,-18.76,9.502,12.582,
49685860,-0.57,-0.167,0.853,-18.952,8.54,12.092,
49685870,-0.591,-0.178,0.851,-17.71,4.97,9.17,
49685880,-0.574,-0.152,0.855,-16.66,1.697,5.477,
49685890,-0.578,-0.132,0.861,-18.812,-1.295,3.692,
49685900,-0.55,-0.127,0.864,-23.03,-2.835,2.887,
49685910,-0.518,-0.125,0.898,-28.315,-0.612,3.325,
49685920,-0.599,-0.102,0.919,-38.062,-2.887,5.057,
49685930,-0.536,-0.127,0.87,-49.77,-8.907,5.81,
49685940,-0.514,-0.2,0.851,-55.947,-9.59,7.017,
49685950,-0.484,-0.267,0.812,-50.417,-7.56,7.35,
49685960,-0.437,-0.261,0.809,-34.93,-0.665,6.037,
49685970,-0.459,-0.202,0.813,-21.052,7.402,6.807,
49685980,-0.456,-0.173,0.805,-12.495,14.752,6.825,
49685990,-0.451,-0.176,0.79,-7.245,22.225,7.122,
49686000,-0.47,-0.178,0.776,-2.975,28.822,7.595,
49686010,-0.489,-0.165,0.781,1.032,34.807,7.595,
49686020,-0.518,-0.154,0.778,3.377,38.395,7.052,
49686030,-0.562,-0.145,0.792,4.515,39.83,7.017,
49686040,-0.61,-0.161,0.773,4.392,36.12,6.965,
49686050,-0.617,-0.163,0.75,7.577,30.31,4.147,
49686060,-0.612,-0.156,0.738,11.62,22.33,2.362,
49686070,-0.654,-0.158,0.729,13.877,13.335,1.802,
49686080,-0.689,-0.142,0.703,16.082,-0.227,-1.277,
49686090,-0.654,-0.1,0.73,16.047,-16.345,-4.777,
49686100,-0.609,-0.084,0.729,10.15,-30.905,-4.41,
49686110,-0.548,-0.125,0.735,5.88,-38.36,-2.66,
49686120,-0.447,-0.133,0.747,6.825,-34.807,-3.482,
49686120,-0.403,-0.112,0.798,8.592,-22.295,-3.01,
49686140,-0.45,-0.111,0.834,6.335,-8.032,0.052,
49686140,-0.499,-0.114,0.876,2.03,2.45,1.732,
49686160,-0.629,-0.219,0.864,0.647,4.567,5.775,
49686160,-0.596,-0.206,0.907,4.69,0.647,-0.297,
49686170,-0.569,-0.213,0.895,3.465,-3.85,-2.187,
49686180,-0.577,-0.228,0.836,5.145,-6.632,-3.307,
49686190,-0.562,-0.19,0.843,10.972,-8.802,-5.145,
49686200,-0.517,-0.153,0.842,10.85,-8.312,-2.87,
49686210,-0.528,-0.161,0.787,9.52,-6.825,0.07,
49686220,-0.534,-0.15,0.797,12.267,-6.58,3.692,
49686230,-0.49,-0.139,0.795,10.255,-6.317,3.535,
49686240,-0.488,-0.147,0.799,8.207,-5.232,2.082,
49686250,-0.488,-0.155,0.82,8.54,-3.097,2.52,
49686260,-0.518,-0.169,0.835,8.575,-2.327,4.567,
49686270,-0.547,-0.193,0.847,9.327,-3.097,6.335,
49686280,-0.559,-0.197,0.839,11.62,-5.652,6.23,
49686290,-0.571,-0.183,0.821,13.02,-8.347,4.515,
49686300,-0.568,-0.162,0.81,14.682,-10.5,2.415,
49686310,-0.574,-0.132,0.804,15.75,-11.742,1.487,
49686320,-0.585,-0.114,0.804,15.33,-14.402,2.257,
49686330,-0.567,-0.112,0.805,15.872,-15.522,4.707,
49686340,-0.587,-0.11,0.804,15.68,-18.025,4.987,
49686350,-0.508,-0.116,0.846,17.902,-20.667,1.61,
49686360,-0.442,-0.091,0.869,20.3,-18.655,1.54,
49686370,-0.48,-0.07,0.884,16.205,-13.37,5.092,
49686380,-0.519,-0.073,0.867,9.695,-9.345,5.145,
49686390,-0.505,-0.079,0.852,6.352,-7.525,3.237,
49686400,-0.496,-0.087,0.842,5.932,-5.985,4.13,
49686410,-0.527,-0.089,0.841,7.822,-4.077,5.897,
49686420,-0.553,-0.09,0.85,8.015,-6.177,5.967,
49686430,-0.543,-0.09,0.835,8.312,-9.345,4.83,
49686440,-0.506,-0.091,0.817,9.782,-11.06,4.13,
49686450,-0.477,-0.097,0.808,10.062,-9.45,3.622,
49686460,-0.478,-0.121,0.813,8.89,-6.755,3.71,
49686470,-0.501,-0.15,0.837,8.575,-5.652,4.777,
49686480,-0.522,-0.145,0.88,8.592,-6.58,5.652,
49686490,-0.578,-0.15,0.882,6.09,-9.065,5.337,
49686500,-0.617,-0.175,0.872,5.25,-12.582,3.727,
49686510,-0.638,-0.176,0.873,10.395,-18.147,3.36,
49686510,-0.641,-0.14,0.879,16.957,-25.235,4.025,
49686530,-0.589,-0.088,0.886,20.125,-30.922,1.4,
49686530,-0.507,-0.053,0.856,19.302,-32.952,-1.89,
49686550,-0.448,-0.041,0.819,17.832,-32.34,-2.24,
49686550,-0.399,-0.04,0.802,16.607,-29.907,-1.032,
49686570,-0.348,-0.043,0.827,15.767,-23.905,1.067,
49686570,-0.371,-0.044,0.855,12.757,-15.68,2.712,
49686580,-0.411,-0.035,0.873,7.612,-9.555,1.89,
49686590,-0.44,-0.053,0.89,4.445,-6.055,0.945,
49686600,-0.444,-0.043,0.894,3.535,-5.722,-2.8,
49686610,-0.512,-0.052,0.853,1.172,-9.817,-6.387,
49686620,-0.346,-0.063,0.878,2.677,-9.17,-10.885,
49686630,-0.479,-0.141,0.87,1.627,-0.21,-7.892,
49686640,-0.61,-0.18,0.827,0.14,2.87,-7.087,
49686650,-0.639,-0.151,0.866,7.367,-0.367,-7.542,
49686660,-0.613,-0.121,0.921,13.527,-7.735,-5.477,
49686670,-0.551,-0.081,1.001,15.855,-13.317,-8.505,
49686680,-0.492,-0.009,1.078,14.332,-17.657,-13.51,
49686690,-0.479,0.017,1.103,9.012,-20.212,-16.555,
49686700,-0.478,0.032,1.077,2.117,-23.922,-20.282,
49686710,-0.432,0.053,1.045,-5.04,-25.2,-23.117,
49686720,-0.42,0.044,1.015,-12.407,-22.61,-23.24,
49686730,-0.462,0.009,0.979,-19.582,-18.322,-24.255,
49686740,-0.442,-0.008,0.956,-26.687,-14.98,-26.74,
49686750,-0.446,-0.071,0.926,-31.99,-10.185,-25.322,
49686760,-0.488,-0.126,0.9,-34.247,-8.925,-20.685,
49686770,-0.521,-0.146,0.872,-33.057,-12.075,-13.615,
49686780,-0.523,-0.151,0.882,-28.437,-17.447,-9.572,
49686790,-0.489,-0.129,0.881,-28.192,-21.332,-9.03,
49686800,-0.494,-0.136,0.889,-31.727,-25.462,-10.902,
49686810,-0.459,-0.12,0.87,-34.93,-25.707,-14.77,
49686820,-0.457,-0.128,0.911,-39.497,-25.97,-18.917,
49686830,-0.45,-0.173,0.899,-44.415,-26.775,-19.32,
49686830,-0.449,-0.205,0.905,-44.17,-29.085,-18.2,
49686850,-0.451,-0.233,0.9,-41.125,-32.532,-16.205,
49686850,-0.389,-0.265,0.922,-37.222,-33.915,-16.187,
49686870,-0.387,-0.254,0.856,-32.97,-33.88,-14.07,
49686870,-0.45,-0.19,0.877,-23.59,-35.507,-10.185,
49686890,-0.418,-0.177,0.87,-25.287,-38.675,-8.89,
49686890,-0.36,-0.236,0.859,-29.155,-40.145,-11.69,
49686910,-0.286,-0.354,0.832,-27.475,-41.177,-11.357,
49686910,-0.212,-0.334,0.805,-8.277,-30.45,-13.3,
49686920,-0.21,-0.234,0.839,11.007,-18.655,-12.792,
49686930,-0.211,-0.207,0.828,17.64,-2.187,-3.045,
49686940,-0.28,-0.226,0.8,25.515,14.892,6.265,
49686950,-0.367,-0.192,0.819,34.247,28.367,9.607,
49686960,-0.416,-0.109,0.835,33.705,33.512,11.182,
49686970,-0.469,-0.044,0.822,26.092,32.2,11.777,
49686980,-0.507,-0.027,0.819,12.985,25.34,11.62,
49686990,-0.51,-0.036,0.781,-2.555,17.097,10.605,
49687000,-0.469,-0.071,0.745,-11.777,9.87,8.26,
49687010,-0.45,-0.096,0.724,-15.54,6.16,7.805,
49687020,-0.437,-0.115,0.719,-15.837,4.427,7.735,
49687030,-0.423,-0.13,0.741,-13.492,4.147,9.292,
49687040,-0.438,-0.147,0.767,-10.675,3.517,13.685,
49687050,-0.432,-0.153,0.786,-7.455,4.445,17.57,
49687060,-0.415,-0.151,0.824,-4.655,6.772,19.477,
49687070,-0.429,-0.174,0.861,-5.075,8.557,20.282,
49687080,-0.45,-0.227,0.884,-4.742,7.28,17.482,
49687090,-0.473,-0.264,0.905,0.787,2.467,11.392,
49687100,-0.48,-0.266,0.932,9.992,-6.702,3.307,
49687110,-0.471,-0.256,0.944,18.777,-18.112,-3.605,
49687120,-0.535,-0.276,0.941,25.392,-32.987,-8.592,
49687130,-0.633,-0.284,0.92,32.06,-53.252,-15.89,
49687140,-0.623,-0.225,0.937,40.267,-80.255,-25.007,
49687150,-0.47,-0.209,0.963,42.84,-106.382,-30.782,
49687160,-0.258,-0.178,1.018,40.32,-119.262,-35.997,
49687170,-0.085,-0.127,1.124,29.207,-116.322,-34.335,
49687180,-0.017,-0.141,1.194,9.94,-100.152,-25.042,
49687190,0.003,-0.197,1.237,-9.59,-74.427,-18.357,
49687200,0.006,-0.249,1.243,-26.775,-46.672,-16.45,
49687210,-0.027,-0.294,1.22,-40.04,-21.175,-17.937,
49687220,-0.146,-0.352,1.161,-46.585,-4.305,-23.992,
49687230,-0.252,-0.394,1.096,-45.692,0.91,-35.857,
49687240,-0.329,-0.396,1.041,-36.732,-5.425,-50.907,
49687250,-0.373,-0.36,0.988,-22.33,-21.402,-66.727,
49687260,-0.371,-0.309,0.92,-7.297,-41.352,-82.092,
49687260,-0.344,-0.256,0.881,9.1,-59.92,-93.502,
49687280,-0.281,-0.177,0.853,20.51,-72.852,-100.485,
49687280,-0.223,-0.132,0.822,29.085,-79.17,-102.042,
49687300,-0.199,-0.08,0.825,32.882,-79.45,-99.452,
49687300,-0.176,-0.027,0.828,28.017,-75.495,-95.725,
49687320,-0.132,0.01,0.83,16.135,-66.692,-91.84,
49687320,-0.114,0.017,0.82,-0.927,-55.475,-85.662,
49687330,-0.144,-0.002,0.806,-20.037,-43.557,-77.385,
49687340,-0.189,-0.038,0.792,-36.697,-33.897,-69.177,
49687350,-0.225,-0.088,0.767,-48.3,-27.335,-60.007,
49687360,-0.236,-0.104,0.749,-54.442,-22.662,-51.485,
49687370,-0.247,-0.141,0.731,-57.977,-17.815,-43.172,
49687380,-0.277,-0.162,0.739,-57.575,-13.475,-35.42,
49687390,-0.338,-0.21,0.761,-55.825,-12.04,-28.717,
49687400,-0.338,-0.211,0.776,-52.71,-14.98,-24.237,
49687410,-0.311,-0.215,0.816,-50.575,-20.265,-20.055,
49687420,-0.276,-0.246,0.839,-52.115,-25.865,-16.292,
49687430,-0.234,-0.237,0.871,-54.652,-28.647,-13.37,
49687440,-0.218,-0.274,0.876,-59.57,-30.817,-12.46,
49687450,-0.17,-0.28,0.887,-63.507,-30.502,-12.407,
49687460,-0.142,-0.305,0.893,-65.117,-29.225,-10.29,
49687470,-0.13,-0.302,0.906,-63.315,-25.83,-7.227,
49687480,-0.132,-0.295,0.918,-59.99,-22.207,-4.34,
49687490,-0.125,-0.279,0.923,-59.692,-17.15,-1.942,
49687500,-0.131,-0.29,0.932,-57.312,-13.107,1.942,
49687510,-0.131,-0.297,0.923,-54.005,-8.4,5.582,
49687520,-0.134,-0.324,0.91,-44.1,-3.097,10.955,
49687530,-0.125,-0.324,0.894,-30.24,4.06,18.252,
49687540,-0.133,-0.299,0.897,-16.747,11.235,24.045,
49687550,-0.194,-0.288,0.916,-6.422,15.505,27.667,
49687560,-0.229,-0.3,0.945,1.032,14,27.212,
49687570,-0.229,-0.3,0.953,0.752,7.717,25.62,
49687580,-0.234,-0.322,0.968,-1.155,-2.012,22.242,
49687580,-0.221,-0.338,0.974,-4.62,-11.602,17.185,
49687600,-0.198,-0.351,0.972,-9.397,-20.755,11.2,
49687600,-0.187,-0.374,0.964,-13.265,-29.312,5.407,
49687620,-0.157,-0.396,0.968,-15.207,-35.735,-0.035,
49687620,-0.044,-0.422,0.969,-14.472,-37.345,-2.345,
49687640,-0.049,-0.448,0.888,-8.592,-31.482,1.96,
49687640,-0.093,-0.46,0.941,3.815,-32.165,5.005,
49687660,-0.114,-0.451,0.906,11.165,-35.21,11.462,
49687660,-0.05,-0.46,0.948,20.755,-37.38,15.627,
49687670,0.135,-0.492,0.981,30.712,-28.21,19.092,
49687680,0.201,-0.543,0.964,40.915,-8.767,25.305,
49687690,0.044,-0.497,0.987,52.307,8.557,28.07,
49687700,-0.102,-0.389,1.1,55.037,13.072,26.617,
49687710,-0.053,-0.398,1.124,42.192,6.16,26.425,
49687720,0.014,-0.467,1.042,30.59,0.892,24.465,
49687730,0.06,-0.476,1.026,31.78,5.547,19.53,
49687740,0.074,-0.449,1.035,35.28,15.242,18.217,
49687750,0.071,-0.431,1.005,37.695,28.822,18.287,
49687760,0.079,-0.41,0.994,42.7,46.27,16.24,
49687770,0.057,-0.376,0.969,49.21,65.222,15.452,
49687780,0.027,-0.332,0.949,56.262,83.352,16.292,
49687790,-0.013,-0.277,0.955,59.885,100.782,18.707,
49687800,-0.073,-0.247,0.945,59.535,113.61,23.257,
49687810,-0.129,-0.232,0.94,57.802,124.687,28.175,
49687820,-0.205,-0.217,0.949,56.42,131.687,31.29,
49687830,-0.251,-0.183,0.955,55.02,135.047,33.687,
49687840,-0.3,-0.145,0.963,51.887,134.365,36.365,
49687850,-0.362,-0.12,0.95,44.94,130.655,37.66,
49687860,-0.391,-0.112,0.922,35.507,123.987,36.505,
49687870,-0.406,-0.123,0.889,26.285,117.215,35.752,
49687880,-0.441,-0.153,0.856,19.267,109.41,35.017,
49687890,-0.443,-0.168,0.834,15.68,104.107,32.515,
49687900,-0.465,-0.178,0.828,14.787,100.152,29.33,
49687910,-0.504,-0.194,0.823,15.89,95.672,25.462,
49687920,-0.525,-0.203,0.826,18.602,90.16,20.527,
49687930,-0.532,-0.192,0.821,21.402,83.72,16.782,
49687940,-0.522,-0.172,0.813,23.572,77.052,16.205,
49687950,-0.485,-0.142,0.802,23.152,73.395,18.602,
49687960,-0.427,-0.107,0.798,19.25,75.792,23.397,
49687970,-0.383,-0.071,0.801,10.692,86.065,30.082,
49687980,-0.36,-0.048,0.803,-3.027,103.057,38.395,
49687990,-0.378,-0.054,0.775,-19.512,123.007,47.04,
49688000,-0.346,-0.038,0.774,-36.96,146.562,54.985,
49688010,-0.332,-0.024,0.758,-55.44,172.217,65.485,
49688010,-0.384,-0.037,0.707,-74.235,197.575,76.965,
49688030,-0.336,-0.018,0.673,-91.297,224.612,87.5,
49688030,-0.456,-0.032,0.606,-108.5,248.832,100.8,
49688050,-0.664,-0.079,0.542,-122.395,263.637,108.36,
49688050,-0.764,-0.102,0.506,-127.452,264.547,109.987,
49688070,-1.178,-0.388,0.357,-107.782,242.532,137.287,
49688070,-1.17,-0.41,0.434,-65.94,207.83,117.075,
49688080,-1.061,-0.25,0.494,-42.962,173.53,80.99,
49688090,-1.106,-0.202,0.502,-33.565,137.882,72.135,
49688100,-1.042,-0.221,0.472,-29.61,107.467,57.82,
49688110,-0.962,-0.225,0.459,-19.232,86.257,44.712,
49688120,-0.925,-0.163,0.474,-9.625,71.557,35.56,
49688130,-0.877,-0.102,0.475,-6.072,63.35,28.507,
49688140,-0.813,-0.076,0.47,-7.017,62.23,25.62,
49688150,-0.79,-0.081,0.451,-10.185,67.322,28.805,
49688160,-0.765,-0.056,0.447,-17.22,76.387,30.397,
49688170,-0.844,-0.075,0.423,-26.74,84.857,34.247,
49688180,-0.925,-0.118,0.4,-34.195,88.305,37.572,
49688190,-0.996,-0.169,0.391,-35.087,85.732,40.512,
49688200,-1.059,-0.188,0.38,-32.812,76.51,36.802,
49688210,-1.097,-0.224,0.355,-27.93,63.787,31.605,
49688220,-1.052,-0.225,0.351,-18.707,51.625,26.075,
49688230,-1.043,-0.194,0.36,-9.082,41.387,22.102,
49688240,-1.039,-0.167,0.358,-2.117,32.27,18.322,
49688250,-0.971,-0.134,0.368,1.942,27.23,15.05,
49688260,-0.927,-0.107,0.363,2.922,26.285,14.21,
49688270,-0.917,-0.092,0.355,1.365,29.067,15.05,
49688280,-0.897,-0.085,0.348,-1.54,34.16,17.097,
49688290,-0.905,-0.097,0.322,-4.112,41.16,19.442,
49688300,-0.931,-0.112,0.302,-4.987,46.497,21.997,
49688310,-0.947,-0.113,0.288,-3.885,52.062,23.922,
49688320,-0.999,-0.11,0.28,-2.852,54.722,25.357,
49688330,-1.05,-0.098,0.277,-2.065,51.94,24.972,
49688330,-1.07,-0.081,0.272,-1.085,44.8,21.945,
49688350,-1.06,-0.085,0.246,-0.175,35.735,17.097,
49688350,-1.058,-0.101,0.226,2.152,26.932,12.442,
49688370,-1.069,-0.096,0.221,6.825,18.672,8.33,
49688370,-1.052,-0.062,0.242,12.11,11.217,3.622,
49688390,-0.995,-0.029,0.245,14.507,5.442,0.105,
49688390,-0.927,0.002,0.256,13.737,6.265,-1.312,
49688410,-0.936,0.019,0.265,8.75,11.392,0.735,
49688410,-0.975,0.016,0.262,0.875,17.587,3.132,
49688420,-1.012,0.008,0.259,-5.04,20.982,2.485,
49688430,-1.059,-0.008,0.257,-10.675,21,0.612,
49688440,-1.084,-0.021,0.25,-13.895,17.01,-3.43,
49688450,-1.098,-0.033,0.235,-13.037,9.992,-9.327,
49688460,-1.069,-0.014,0.27,-8.54,1.505,-13.247,
49688470,-1.06,-0.013,0.237,-11.357,-4.777,-9.135,
49688480,-1.035,-0.049,0.228,-9.135,-8.47,-10.342,
49688490,-0.994,-0.04,0.249,-4.637,-8.085,-13.667,
49688500,-0.977,-0.035,0.242,-2.17,-7.262,-14.787,
49688510,-0.947,-0.012,0.275,-0.577,-5.25,-15.785,
49688520,-0.942,-0.033,0.255,-4.97,-3.57,-14.017,
49688530,-0.927,-0.027,0.277,-6.247,-0.455,-9.397,
49688540,-0.939,-0.062,0.247,-9.59,1.54,-0.35,
49688550,-0.933,-0.057,0.258,-11.707,4.917,4.287,
49688560,-0.988,-0.122,0.233,-11.55,4.882,9.292,
49688570,-1.012,-0.165,0.216,-6.965,2.747,8.837,
49688580,-1.017,-0.209,0.22,5.11,-3.097,4.48,
49688590,-1.034,-0.221,0.219,19.022,-10.447,-0.35,
49688600,-1.043,-0.219,0.198,35.542,-18.812,-5.722,
49688610,-1.033,-0.209,0.195,54.792,-26.547,-13.09,
49688620,-0.992,-0.142,0.212,67.375,-33.267,-19.565,
49688630,-0.978,-0.129,0.213,75.967,-39.165,-20.632,
49688640,-0.938,-0.092,0.254,83.93,-41.982,-24.22,
49688650,-0.887,-0.06,0.257,80.202,-40.197,-26.162,
49688660,-0.857,-0.04,0.28,74.707,-34.125,-25.287,
49688670,-0.862,-0.011,0.308,66.85,-24.832,-18.445,
49688680,-0.911,-0.013,0.333,55.492,-16.975,-9.205,
49688690,-0.974,-0.041,0.33,41.527,-12.145,-2.642,
49688700,-1.034,-0.11,0.324,32.585,-13.51,-0.437,
49688710,-1.054,-0.181,0.323,33.495,-18.97,-0.297,
49688720,-1.009,-0.133,0.335,40.11,-23.17,-3.045,
49688730,-0.952,-0.129,0.357,45.412,-26.355,-5.757,
49688740,-0.924,-0.099,0.39,47.915,-24.01,-6.79,
49688750,-0.931,-0.086,0.391,46.935,-20.457,-4.847,
49688760,-0.905,-0.065,0.414,48.02,-14.385,-2.502,
49688760,-0.889,-0.039,0.416,43.015,-7.192,0.91,
49688780,-0.939,-0.038,0.408,35.997,-3.185,3.92,
49688780,-0.965,-0.02,0.406,29.26,-1.697,6.02,
49688800,-0.995,-0.034,0.388,22.295,-5.162,8.68,
49688800,-1.042,-0.088,0.368,18.322,-13.86,9.59,
49688810,-1.027,-0.093,0.35,15.47,-24.395,7.245,
49688820,-0.982,-0.076,0.336,15.067,-34.702,3.517,
49688830,-0.957,-0.076,0.323,16.24,-40.985,3.307,
49688840,-0.927,-0.089,0.315,17.342,-43.54,3.482,
49688850,-0.883,-0.081,0.303,17.657,-40.897,4.077,
49688860,-0.87,-0.064,0.33,21.612,-33.95,5.39,
49688870,-0.895,-0.035,0.343,21.017,-25.077,5.11,
49688880,-0.914,-0.01,0.352,18.812,-18.725,2.205,
49688890,-0.906,-0.004,0.352,13.51,-13.492,0.91,
49688900,-0.909,-0.023,0.365,8.96,-8.732,0.332,
49688910,-0.948,0.004,0.345,4.987,-4.007,-0.35,
49688920,-1.137,-0.064,0.374,-1.925,-13.65,-2.87,
49688930,-1.023,-0.09,0.344,-0.997,-26.407,-8.505,
49688940,-0.989,-0.083,0.356,6.58,-35,-8.925,
49688950,-1.061,-0.127,0.316,11.025,-45.395,-14.875,
49688960,-1.037,-0.098,0.339,24.377,-55.825,-22.61,
49688970,-1.024,-0.077,0.347,34.702,-68.582,-19.95,
49688980,-0.962,-0.036,0.388,44.537,-78.61,-16.94,
49688990,-0.818,0.028,0.421,47.25,-77.647,-13.72,
49689000,-0.812,0.062,0.444,41.965,-67.2,-7.787,
49689010,-0.865,0.052,0.469,30.887,-53.882,-3.045,
49689020,-0.865,0.02,0.459,19.127,-41.317,0.525,
49689030,-0.87,-0.032,0.465,12.652,-29.61,4.41,
49689040,-0.92,-0.087,0.457,11.34,-20.877,6.51,
49689050,-0.972,-0.09,0.466,18.147,-17.43,4.357,
49689060,-1.017,-0.091,0.493,27.597,-21.227,1.487,
49689070,-0.994,-0.091,0.468,33.127,-28.805,-1.61,
49689080,-0.931,-0.087,0.484,39.987,-36.207,-4.795,
49689080,-0.922,-0.065,0.466,45.832,-40.67,-5.127,
49689100,-0.989,-0.033,0.483,52.045,-47.53,-4.532,
49689100,-0.945,-0.006,0.496,54.25,-63.962,-3.815,
49689120,-0.813,0.034,0.514,56.857,-72.695,2.87,
49689120,-0.823,0.052,0.52,53.41,-73.15,11.165,
49689140,-0.824,0.048,0.523,45.08,-73.57,10.15,
49689140,-0.753,0.073,0.531,37.17,-70.612,9.292,
49689160,-0.706,0.089,0.551,28.752,-62.422,11.515,
49689160,-0.697,0.095,0.541,18.095,-51.24,12.145,
49689170,-0.698,0.091,0.559,10.307,-38.622,10.36,
49689180,-0.703,0.068,0.564,-1.102,-26.127,10.517,
49689190,-0.691,0.032,0.585,-6.422,-14.122,7.945,
49689200,-0.706,-0.022,0.562,-7.087,-4.497,6.702,
49689210,-0.758,-0.003,0.558,-3.517,1.645,5.267,
49689220,-0.832,-0.014,0.552,0.472,0.21,3.272,
49689230,-0.866,-0.008,0.542,4.375,-6.545,0.105,
49689240,-0.81,0.006,0.526,8.015,-16.835,-1.645,
49689250,-0.755,0.024,0.517,11.497,-24.885,-0.962,
49689260,-0.775,0.034,0.519,12.88,-28.262,1.645,
49689270,-0.807,0.036,0.513,7.98,-31.027,2.765,
49689280,-0.781,-0.014,0.49,6.632,-34.055,2.747,
49689290,-0.751,0.003,0.515,11.515,-33.95,4.2,
49689300,-0.737,0.038,0.531,8.732,-33.705,6.072,
49689310,-0.76,0.025,0.563,6.615,-31.36,6.44,
49689320,-0.75,0.024,0.578,1.05,-29.855,5.775,
49689330,-0.72,0.002,0.614,-0.49,-27.79,4.707,
49689340,-0.7,-0.015,0.648,-1.225,-25.182,5.827,
49689350,-0.683,-0.019,0.673,0.315,-21.77,6.545,
49689360,-0.696,0.022,0.718,1.627,-19.302,6.055,
49689370,-0.673,0.042,0.739,-2.747,-17.57,5.547,
49689380,-0.65,0.053,0.755,-6.632,-12.827,7.56,
49689390,-0.639,0.016,0.756,-14.245,-6.702,9.607,
49689400,-0.655,-0.013,0.759,-19.46,-0.49,9.642,
49689410,-0.656,-0.005,0.747,-21.21,5.46,7.07,
49689420,-0.666,0.009,0.721,-23.047,10.272,4.042,
49689430,-0.69,0.008,0.69,-25.69,13.632,1.382,
49689440,-0.707,0.006,0.654,-26.705,16.257,0.402,
49689450,-0.702,0.006,0.626,-26.565,19.46,0.875,
49689460,-0.708,0.009,0.612,-27.09,23.73,2.432,
49689470,-0.693,0.027,0.603,-29.365,30.31,5.215,
49689480,-0.68,0.037,0.575,-33.915,40.005,9.555,
49689480,-0.704,0.036,0.564,-40.547,51.485,15.312,
49689500,-0.787,0.013,0.555,-47.897,62.247,20.195,
49689500,-0.874,-0.009,0.548,-52.465,67.672,20.177,
49689510,-0.938,-0.024,0.524,-54.775,67.532,16.992,
49689520,-0.989,-0.049,0.508,-50.96,60.655,12.81,
49689530,-1.002,-0.057,0.486,-44.362,50.767,6.3,
49689540,-0.982,-0.059,0.466,-36.102,39.462,-1.452,
49689550,-0.978,-0.065,0.455,-28.262,29.68,-5.565,
49689560,-0.985,-0.065,0.476,-18.847,20.58,-6.597,
49689570,-0.959,-0.041,0.479,-11.812,11.585,-6.667,
49689580,-0.961,-0.026,0.489,-8.54,2.8,-3.202,
49689590,-0.979,-0.022,0.496,-6.702,-4.165,-1.067,
49689600,-0.944,-0.015,0.498,-5.127,-10.535,-2.257,
49689610,-0.913,-0.019,0.508,-3.832,-13.615,-3.202,
49689620,-0.896,-0.017,0.513,-2.625,-13.825,-4.147,
49689630,-0.891,-0.014,0.523,-2.257,-11.725,-5.285,
49689640,-0.901,-0.025,0.531,-1.592,-10.15,-6.037,
49689650,-0.912,-0.036,0.533,0.122,-9.922,-5.88,
49689660,-0.919,-0.033,0.535,2.73,-12.127,-5.6,
49689670,-0.9,-0.021,0.53,5.6,-14.49,-6.667,
49689680,-0.881,-0.022,0.516,7.192,-16.975,-8.19,
49689690,-0.874,-0.03,0.508,7.647,-17.832,-9.38,
49689700,-0.864,-0.032,0.505,9.187,-18.287,-10.605,
49689710,-0.843,-0.032,0.506,10.92,-17.902,-10.412,
49689720,-0.821,-0.032,0.499,12.022,-16.135,-8.767,
49689730,-0.809,-0.028,0.505,12.827,-12.547,-6.195,
49689740,-0.807,-0.022,0.512,12.845,-8.19,-3.412,
49689750,-0.818,-0.019,0.519,12.792,-3.78,-0.63,
49689760,-0.845,-0.011,0.535,11.462,-1.295,1.767,
49689770,-0.847,-0.005,0.547,8.26,-0.297,2.817,
49689780,-0.844,-0.017,0.546,4.322,-0.665,3.727,
49689790,-0.867,-0.036,0.547,0.595,-2.31,4.585,
49689800,-0.865,-0.04,0.543,-1.417,-4.97,3.972,
49689810,-0.843,-0.045,0.541,-1.47,-7.805,3.552,
49689820,-0.814,-0.059,0.541,-1.417,-9.292,4.69,
49689830,-0.849,-0.063,0.538,0.35,-9.117,6.055,
49689830,-0.843,-0.045,0.538,5.53,-9.38,5.215,
49689850,-0.865,-0.036,0.545,8.96,-12.792,7.14,
49689850,-0.867,-0.027,0.536,11.06,-16.677,8.522,
49689870,-0.833,-0.018,0.548,12.057,-19.075,7.157,
49689870,-0.825,0.006,0.552,9.992,-19.092,4.987,
49689890,-0.783,0.018,0.554,7.297,-17.5,3.885,
49689890,-0.783,0.012,0.57,2.817,-12.547,4.515,
49689910,-0.805,0.011,0.582,-1.785,-7.315,2.047,
49689910,-0.793,0.013,0.595,-5.005,-2.922,-1.417,
49689920,-0.816,-0.007,0.601,-7.717,-0.157,-2.03,
49689930,-0.824,-0.025,0.607,-7.84,1.697,-2.66,
49689940,-0.826,-0.035,0.617,-4.007,2.485,-1.505,
49689950,-0.842,-0.028,0.626,0.315,3.15,0.63,
49689960,-0.872,-0.025,0.626,2.432,2.467,1.102,
49689970,-0.897,-0.029,0.62,3.202,0.367,0.507,
49689980,-0.901,-0.03,0.608,4.375,-3.71,-0.175,
49689990,-0.899,-0.031,0.602,5.302,-8.067,-0.402,
49690000,-0.881,-0.021,0.592,5.652,-12.092,-1.19,
49690010,-0.853,-0.013,0.584,4.637,-13.597,-1.645,
49690020,-0.844,-0.026,0.565,2.537,-13.632,-1.137,
49690030,-0.833,-0.036,0.55,1.645,-12.092,0.14,
49690040,-0.822,-0.026,0.548,2.66,-11.007,2.975,
49690050,-0.839,-0.02,0.545,2.555,-9.432,6.58,
49690060,-0.853,-0.015,0.553,1.33,-9.205,7.717,
49690070,-0.856,-0.011,0.553,0.14,-10.5,7.385,
49690080,-0.864,-0.012,0.551,-0.665,-13.842,6.807,
49690090,-0.849,-0.012,0.552,-0.297,-18.322,5.897,
49690100,-0.823,-0.014,0.557,0.787,-22.487,5.232,
49690110,-0.79,-0.021,0.549,2.17,-23.45,4.305,
49690120,-0.774,-0.012,0.56,4.917,-22.522,3.43,
49690130,-0.785,0.002,0.569,6.195,-20.562,3.762,
49690140,-0.795,0.007,0.575,6.195,-18.707,3.745,
49690150,-0.767,0.002,0.582,5.967,-15.487,3.115,
49690160,-0.767,-0.003,0.59,5.547,-11.497,3.482,
49690170,-0.794,0.002,0.606,4.48,-7.787,4.305,
49690170,-0.819,0.002,0.617,3.43,-6.055,4.497,
49690190,-0.82,0.002,0.62,2.887,-6.492,3.692,
49690190,-0.81,0.005,0.622,2.292,-7.542,2.922,
49690210,-0.798,0.003,0.614,1.207,-7.787,1.75,
49690210,-0.779,0.004,0.609,0.525,-6.142,0.122,
49690230,-0.778,0.003,0.604,0.455,-3.902,-0.507,
49690230,-0.8,-0.001,0.598,0.717,-2.415,-0.367,
49690250,-0.786,-0.005,0.597,1.365,-2.415,0,
49690250,-0.786,-0.003,0.598,1.785,-1.277,1.505,
49690260,-0.803,-0.003,0.591,2.17,-0.122,2.66,
49690270,-0.814,-0.005,0.589,2.537,0.735,3.78,
49690280,-0.827,-0.005,0.586,3.325,0.052,5.302,
49690290,-0.836,0,0.587,4.007,-0.84,6.055,
49690300,-0.833,0.01,0.59,3.99,-2.362,5.582,
49690310,-0.825,0.017,0.594,3.447,-2.905,4.917,
49690320,-0.821,0.025,0.595,2.135,-3.325,4.305,
49690330,-0.827,0.024,0.595,-0.21,-2.94,3.727,
49690340,-0.829,0.02,0.592,-2.397,-3.57,2.747,
49690350,-0.817,0.016,0.587,-3.832,-3.465,2.45,
49690360,-0.818,0.01,0.585,-4.532,-3.202,3.115,
49690370,-0.828,0.008,0.585,-4.567,-2.222,3.552,
49690380,-0.822,0.012,0.583,-3.92,-2.135,3.587,
49690390,-0.819,0.013,0.585,-3.185,-2.065,4.69,
49690400,-0.818,0.018,0.586,-3.027,-2.415,5.792,
49690410,-0.818,0.019,0.59,-3.657,-2.222,6.352,
49690420,-0.818,0.014,0.592,-4.935,-2.327,6.37,
49690430,-0.818,0.017,0.595,-6.212,-1.785,5.6,
49690440,-0.826,0.012,0.594,-7.91,-2.38,4.2,
49690450,-0.835,0,0.589,-9.205,-4.042,2.45,
49690460,-0.83,-0.006,0.584,-8.802,-7.262,0.892,
49690470,-0.829,-0.012,0.582,-7.857,-10.937,0.42,
49690480,-0.83,-0.02,0.581,-6.51,-15.19,0.157,
49690490,-0.822,-0.021,0.585,-4.48,-19.425,-0.035,
49690500,-0.815,-0.014,0.593,-2.94,-23.572,-0.227,
49690510,-0.81,-0.004,0.605,-3.167,-26.74,-0.472,
49690520,-0.829,-0.013,0.588,-4.882,-30.292,-1.137,
49690530,-0.827,-0.034,0.592,-3.237,-36.452,-3.902,
49690540,-0.726,-0.012,0.599,2.957,-40.302,-7.437,
49690550,-0.701,0.009,0.627,4.725,-40.407,-7.14,
49690560,-0.71,0.019,0.642,0.962,-36.067,-7.175,
49690570,-0.695,0.021,0.654,-2.485,-28.577,-7.437,
49690580,-0.684,0.016,0.655,-7.21,-19.127,-5.285,
49690580,-0.601,-0.004,0.693,-12.775,-4.445,-1.347,
49690600,-0.678,-0.002,0.683,-17.15,16.835,3.902,
49690600,-0.842,0.026,0.681,-19.967,28.122,10.01,
49690620,-0.998,-0.112,0.667,-14.455,24.08,19.915,
49690620,-0.923,-0.073,0.664,-9.187,13.632,8.382,
49690640,-0.96,-0.084,0.643,-5.88,-1.802,4.567,
49690640,-0.836,-0.067,0.628,0.472,-15.942,-1.96,
49690660,-0.718,-0.026,0.631,5.022,-21.087,-2.905,
49690660,-0.725,-0.003,0.631,4.83,-18.585,0.332,
49690670,-0.723,0.011,0.63,4.322,-11.812,2.572,
49690680,-0.714,0.011,0.634,4.095,-4.497,4.165,
49690690,-0.731,0,0.624,0.647,2.747,6.807,
49690700,-0.764,-0.014,0.619,-1.522,7.332,7.647,
49690710,-0.799,-0.022,0.617,-1.137,9.065,8.137,
49690720,-0.828,-0.028,0.617,1.295,7.14,7.822,
49690730,-0.845,-0.029,0.613,3.29,3.36,5.67,
49690740,-0.845,-0.035,0.596,6.352,-2.607,1.26,
49690750,-0.824,-0.027,0.603,12.145,-7.577,-2.537,
49690760,-0.807,0.001,0.6,14.945,-11.83,-4.287,
49690770,-0.774,0.036,0.609,15.295,-13.895,-6.125,
49690780,-0.764,0.063,0.626,12.302,-13.982,-3.71,
49690790,-0.769,0.056,0.617,4.095,-12.337,-1.067,
49690800,-0.773,0.043,0.615,-1.47,-10.412,0.175,
49690810,-0.79,0.021,0.615,-5.127,-8.347,3.92,
49690820,-0.791,0.01,0.605,-8.645,-7.297,6.72,
49690830,-0.783,0.002,0.608,-9.187,-6.352,7.105,
49690840,-0.794,-0.009,0.608,-9.292,-5.53,7.647,
49690850,-0.815,-0.024,0.601,-8.697,-5.74,8.662,
49690860,-0.821,-0.025,0.597,-5.302,-7.507,9.187,
49690870,-0.804,-0.015,0.598,-1.872,-9.1,8.242,
49690880,-0.81,-0.008,0.603,0.577,-11.042,8.19,
49690890,-0.822,0.002,0.614,2.135,-13.597,8.4,
49690900,-0.82,0.019,0.628,2.975,-17.29,7.98,
49690910,-0.814,0.022,0.629,3.08,-21,7.63,
49690920,-0.798,0.022,0.634,2.66,-23.817,7.315,
49690920,-0.781,0.038,0.653,2.695,-25.515,8.242,
49690940,-0.776,0.058,0.668,2.712,-25.847,9.59,
49690940,-0.759,0.07,0.679,1.767,-24.92,9.922,
49690960,-0.752,0.055,0.675,-0.28,-22.855,9.695,
49690960,-0.743,0.041,0.671,-2.17,-20.09,6.597,
49690980,-0.737,0.029,0.672,-3.797,-17.43,3.43,
49690980,-0.761,0.013,0.66,-5.075,-16.747,1.662,
49691000,-0.752,0.03,0.667,-5.11,-18.112,0.98,
49691000,-0.742,0.032,0.661,-6.58,-21.21,2.52,
49691010,-0.73,0.028,0.65,-8.82,-22.557,4.042,
49691020,-0.72,0.02,0.648,-10.412,-22.61,5.04,
49691030,-0.721,0.011,0.646,-11.532,-20.807,5.81,
49691040,-0.722,0.013,0.656,-11.952,-18.725,5.652,
49691050,-0.727,0.001,0.667,-12.337,-16.905,5.53,
49691060,-0.728,-0.009,0.674,-11.165,-15.837,4.812,
49691070,-0.728,0,0.686,-8.855,-15.295,4.06,
49691080,-0.72,-0.003,0.693,-7.385,-15.96,4.252,
49691090,-0.721,-0.002,0.697,-5.722,-16.222,4.672,
49691100,-0.725,0.01,0.705,-4.06,-17.01,4.952,
49691110,-0.723,0.016,0.708,-3.43,-17.325,5.442,
49691120,-0.723,0.008,0.699,-3.307,-18.042,5.407,
49691130,-0.725,0.009,0.693,-3.167,-17.902,4.515,
49691140,-0.723,0.016,0.687,-2.572,-17.902,3.43,
49691150,-0.722,0.02,0.683,-2.887,-17.587,2.8,
49691160,-0.727,0.021,0.678,-3.622,-18.305,2.222,
49691170,-0.737,0.011,0.684,-2.782,-19.46,1.68,
49691180,-0.745,0.006,0.684,-1.54,-22.33,2.292,
49691190,-0.752,0.004,0.692,0.875,-25.69,2.835,
49691200,-0.745,0.001,0.698,4.55,-29.207,2.537,
49691210,-0.737,0,0.705,8.33,-31.92,1.417,
49691220,-0.722,0.005,0.708,12.057,-35.42,-0.07,
49691230,-0.703,0.011,0.71,15.347,-37.975,0.665,
49691240,-0.693,0.025,0.717,17.937,-38.762,2.73,
49691250,-0.669,0.032,0.722,17.43,-37.257,4.567,
49691260,-0.648,0.033,0.726,16.187,-32.13,6.072,
49691270,-0.669,0.032,0.734,15.487,-26.407,7.245,
49691280,-0.691,0.041,0.743,14.682,-23.345,7.665,
49691290,-0.706,0.035,0.745,14.14,-23.625,8.12,
49691300,-0.718,0.019,0.74,14.577,-26.652,7.805,
49691310,-0.692,0.028,0.746,16.765,-31.78,7.752,
49691320,-0.67,0.056,0.767,17.57,-36.33,11.69,
49691330,-0.694,0.053,0.771,15.207,-39.217,16.082,
49691330,-0.682,0.038,0.767,14.297,-40.057,16.45,
49691350,-0.665,0.028,0.758,16.047,-40.407,17.255,
49691350,-0.67,0.019,0.748,20.51,-39.865,19.057,
49691370,-0.684,0.007,0.752,27.317,-42.297,20.545,
49691370,-0.696,0,0.751,36.242,-48.352,23.24,
49691390,-0.697,0.011,0.753,47.04,-56.332,25.585,
49691390,-0.689,0.037,0.768,55.615,-66.045,28.035,
49691410,-0.662,0.073,0.78,60.41,-74.97,29.872,
49691410,-0.627,0.107,0.788,61.425,-78.715,29.627,
49691420,-0.584,0.142,0.795,58.292,-78.137,27.3,
49691430,-0.533,0.173,0.791,52.255,-71.155,24.517,
49691440,-0.503,0.166,0.775,45.167,-60.567,22.505,
49691450,-0.502,0.155,0.762,40.267,-48.895,22.19,
49691460,-0.516,0.177,0.779,37.8,-40.285,22.295,
49691470,-0.519,0.193,0.799,34.212,-34.842,21.7,
49691480,-0.502,0.192,0.8,29.732,-30.73,18.567,
49691490,-0.493,0.2,0.816,25.567,-26.652,14.122,
49691500,-0.494,0.226,0.838,20.912,-24.255,10.097,
49691510,-0.48,0.235,0.849,14.367,-22.47,7.21,
49691520,-0.45,0.226,0.847,7.892,-18.97,4.795,
49691530,-0.436,0.224,0.852,3.36,-12.372,3.115,
49691540,-0.441,0.221,0.85,0.35,-4.795,2.415,
49691550,-0.469,0.21,0.847,-1.715,2.66,2.52,
49691560,-0.503,0.204,0.841,-2.677,7.717,1.767,
49691570,-0.536,0.195,0.832,-2.275,9.555,0.595,
49691580,-0.56,0.179,0.821,-0.28,7.717,-0.017,
49691590,-0.569,0.172,0.817,3.22,2.992,0.385,
49691600,-0.56,0.18,0.814,6.982,-2.905,1.767,
49691610,-0.555,0.19,0.819,9.52,-7.28,3.342,
49691620,-0.554,0.194,0.825,9.625,-10.115,3.815,
49691630,-0.558,0.191,0.827,8.767,-11.9,3.762,
49691640,-0.572,0.189,0.83,8.54,-13.562,3.342,
49691650,-0.595,0.177,0.825,8.19,-17.377,3.01,
49691660,-0.592,0.175,0.82,8.89,-22.802,2.485,
49691670,-0.571,0.181,0.818,9.695,-28.262,2.135,
49691670,-0.544,0.178,0.811,9.24,-31.745,2.205,
49691690,-0.5,0.168,0.807,9.362,-32.55,2.117,
49691690,-0.473,0.171,0.81,11.322,-30.765,3.325,
49691710,-0.486,0.188,0.825,12.687,-29.557,5.285,
49691710,-0.486,0.196,0.825,12.46,-28.875,6.16,
49691730,-0.488,0.203,0.834,12.582,-30.082,5.547,
49691730,-0.474,0.216,0.84,11.06,-31.447,4.69,
49691750,-0.456,0.229,0.844,8.89,-32.077,3.342,
49691750,-0.465,0.24,0.847,5.25,-31.482,2.047,
49691760,-0.5,0.261,0.822,0.63,-32.83,1.295,
49691770,-0.538,0.231,0.794,-5.022,-38.517,2.047,
49691780,-0.581,0.253,0.743,-8.452,-49.595,1.365,
49691790,-0.692,0.386,0.693,-15.662,-70.875,-0.577,
49691800,-0.765,0.478,0.53,-36.767,-102.392,-4.48,
49691810,-0.538,0.245,0.438,-63.77,-131.67,-12.897,
49691820,-0.182,-0.025,0.328,-73.5,-127.26,-7.857,
49691830,-0.199,-0.168,0.444,-57.872,-104.615,20.685,
49691840,-0.259,-0.187,0.646,-22.715,-73.412,52.815,
49691850,-0.346,0.007,1.024,12.547,-47.18,85.522,
49691860,-0.647,0.158,1.297,23.59,-27.09,110.53,
49691870,-0.911,0.166,1.403,17.92,-18.952,106.452,
49691880,-0.897,0.126,1.39,10.85,-27.492,85.365,
49691890,-0.74,0.06,1.234,8.855,-47.075,61.88,
49691900,-0.488,-0.017,1.111,25.095,-64.75,44.94,
49691910,-0.344,0.05,1.095,50.977,-72.66,42.822,
49691920,-0.312,0.088,1.037,70.577,-76.072,40.197,
49691930,-0.144,0.223,1.023,87.71,-72.135,25.462,
49691940,-0.005,0.37,1.018,89.757,-66.237,15.68,
49691950,-0.039,0.431,0.948,77.962,-56.175,10.01,
49691960,-0.107,0.415,0.865,64.295,-45.202,-2.292,
49691970,-0.11,0.438,0.798,52.605,-38.167,-18.882,
49691980,-0.08,0.512,0.762,37.922,-36.137,-32.34,
49691990,-0.06,0.543,0.718,16.555,-36.277,-41.755,
49692000,0.081,0.558,0.685,-8.085,-33.845,-52.062,
49692010,0.25,0.478,0.626,-36.295,-23.73,-47.215,
49692020,0.294,0.36,0.591,-54.757,-1.995,-23.415,
49692030,0.211,0.364,0.68,-60.2,31.237,6.842,
49692040,-0.007,0.342,0.794,-72.94,65.38,29.417,
49692050,-0.323,0.202,0.855,-91.875,88.777,31.045,
49692060,-0.667,0.068,0.948,-100.485,95.305,17.64,
49692070,-0.972,-0.03,1.029,-100.625,79.065,1.382,
49692080,-1.135,-0.137,1.035,-95.322,45.22,-16.94,
49692080,-1.093,-0.224,1.01,-79.677,0.892,-31.71,
49692100,-0.918,-0.242,0.985,-51.905,-43.697,-31.08,
49692100,-0.743,-0.2,0.967,-14,-78.627,-18.217,
49692120,-0.511,-0.061,0.943,24.447,-96.792,-8.225,
49692120,-0.213,0.17,0.932,51.485,-97.65,-3.745,
49692140,0.006,0.382,1.031,59.447,-85.207,4.76,
49692140,0.052,0.407,0.92,44.275,-71.382,14.77,
49692160,0.106,0.49,0.982,37.695,-56.787,18.62,
49692160,0.164,0.558,0.867,13.055,-47.39,26.687,
49692170,0.195,0.595,0.887,-1.802,-41.247,32.935,
49692180,0.141,0.609,0.877,-28.07,-34.965,38.675,
49692190,0.062,0.539,0.839,-56.665,-32.165,34.632,
49692200,0.055,0.388,0.769,-76.877,-34.79,22.855,
49692210,0.112,0.233,0.751,-79.782,-37.31,12.495,
49692220,0.117,0.162,0.822,-68.495,-37.572,5.512,
49692230,0.032,0.151,0.923,-53.655,-40.232,-3.832,
49692240,-0.053,0.13,1.001,-39.445,-50.365,-16.1,
49692250,-0.051,0.108,1.051,-23.852,-63.28,-27.527,
49692260,0.002,0.125,1.096,-12.932,-74.847,-36.557,
49692270,0.05,0.168,1.131,-12.74,-79.66,-42.945,
49692280,0.072,0.174,1.132,-23.922,-74.48,-45.955,
49692290,0.081,0.139,1.106,-42.017,-57.68,-48.107,
49692300,0.103,0.116,1.069,-63.035,-31.675,-50.942,
49692310,0.122,0.095,1.005,-83.79,0.77,-52.115,
49692320,0.059,0.067,0.976,-93.975,33.407,-46.217,
49692330,-0.119,-0.003,0.967,-97.492,57.54,-30.712,
49692340,-0.224,-0.016,0.933,-102.095,68.285,-24.727,
49692350,-0.308,-0.036,0.93,-97.352,67.112,-20.755,
49692360,-0.375,-0.055,0.957,-85.12,55.842,-16.852,
49692370,-0.406,-0.025,0.978,-70.84,36.837,-14.507,
49692380,-0.368,0.003,0.993,-59.412,15.855,-20.107,
49692390,-0.35,0.048,1.027,-50.172,-1.942,-20.772,
49692400,-0.264,0.064,1.002,-51.31,-14.98,-29.277,
49692410,-0.2,0.088,0.99,-49.665,-19.827,-32.27,
49692420,-0.163,0.024,0.981,-48.737,-19.32,-31.097,
49692420,-0.123,0.021,0.948,-46.987,-12.565,-24.902,
49692440,-0.093,-0.012,0.924,-45.78,-0.472,-19.862,
49692440,-0.071,-0.055,0.949,-39.882,16.782,-14.087,
49692460,-0.132,-0.097,0.94,-34.807,37.082,-6.597,
49692460,-0.262,-0.139,1.01,-27.177,50.085,-5.197,
49692480,-0.399,-0.204,0.989,-17.815,49.332,-4.497,
49692480,-0.343,-0.147,1.048,-6.282,41.142,-12.635,
49692500,-0.322,-0.095,1.091,-3.692,34.667,-10.57,
49692500,-0.33,-0.082,1.061,-8.977,28.192,-7.35,
49692510,-0.284,-0.058,1.063,-16.31,25.427,-12.565,
49692520,-0.278,-0.062,1.03,-25.532,23.38,-11.095,
49692530,-0.286,-0.09,1.003,-30.345,22.12,-8.54,
49692540,-0.269,-0.108,0.983,-30.047,19.582,-8.662,
49692550,-0.242,-0.091,0.957,-27.597,17.027,-10.202,
49692560,-0.222,-0.07,0.932,-25.41,15.242,-10.605,
49692570,-0.215,-0.059,0.914,-24.465,14.91,-9.87,
49692580,-0.222,-0.067,0.905,-23.66,14.367,-8.435,
49692590,-0.249,-0.087,0.894,-21.805,12.057,-7.297,
49692600,-0.253,-0.1,0.891,-18.69,8.26,-7.297,
49692610,-0.242,-0.083,0.896,-15.575,5.145,-6.422,
49692620,-0.247,-0.087,0.917,-13.177,2.292,-5.337,
49692630,-0.265,-0.094,0.926,-14.297,1.032,-3.5,
49692640,-0.261,-0.1,0.937,-16.695,0.122,-4.462,
49692650,-0.277,-0.136,0.943,-16.345,-0.122,-5.267,
49692660,-0.281,-0.142,0.964,-14.472,-0.192,-6.265,
49692670,-0.294,-0.144,0.971,-14.122,-0.63,-6.352,
49692680,-0.297,-0.151,0.983,-13.79,-1.417,-6.93,
49692690,-0.294,-0.157,0.974,-15.505,-1.54,-7.84,
49692700,-0.286,-0.161,0.964,-16.45,-1.172,-9.52,
49692710,-0.277,-0.168,0.962,-15.19,-0.805,-9.642,
49692720,-0.279,-0.178,0.94,-14.525,-0.612,-8.312,
49692730,-0.25,-0.173,0.935,-11.567,0.035,-10.535,
49692740,-0.255,-0.163,0.936,-8.155,1.137,-8.872,
49692750,-0.256,-0.155,0.94,-6.807,1.225,-7.087,
49692760,-0.244,-0.155,0.922,-7.472,1.732,-8.452,
49692770,-0.21,-0.149,0.908,-6.65,3.482,-11.987,
49692780,-0.246,-0.155,0.925,-3.78,6.457,-11.585,
49692790,-0.268,-0.156,0.917,-4.707,5.495,-13.93,
49692800,-0.262,-0.156,0.923,-3.325,4.357,-16.187,
49692810,-0.258,-0.142,0.938,-2.625,2.152,-16.712,
49692820,-0.267,-0.15,0.945,-3.657,0.227,-16.922,
49692830,-0.261,-0.164,0.954,-3.797,-1.417,-16.8,
49692830,-0.253,-0.173,0.968,-5.162,-1.662,-14.157,
49692840,-0.256,-0.183,0.963,-8.4,-1.715,-12.425,
49692850,-0.257,-0.197,0.975,-7.7,-1.032,-12.705,
49692860,-0.263,-0.204,0.979,-8.102,-0.997,-10.482,
49692870,-0.265,-0.199,0.973,-7.98,-0.98,-9.345,
49692880,-0.251,-0.184,0.969,-6.965,-0.77,-9.275,
49692890,-0.254,-0.169,0.962,-8.347,0.21,-7.49,
49692900,-0.26,-0.171,0.948,-10.465,0.56,-7.577,
49692910,-0.27,-0.174,0.946,-10.675,0.735,-7.665,
49692920,-0.28,-0.163,0.942,-10.762,-0.892,-6.807,
49692930,-0.275,-0.144,0.937,-9.712,-2.835,-6.037,
49692940,-0.268,-0.127,0.939,-8.435,-4.987,-4.2,
49692950,-0.263,-0.123,0.942,-9.607,-5.267,-2.852,
49692960,-0.262,-0.14,0.936,-11.025,-5.442,-5.827,
49692970,-0.257,-0.155,0.943,-10.71,-4.217,-10.622,
49692980,-0.263,-0.168,0.951,-9.747,-3.972,-11.917,
49692990,-0.269,-0.171,0.958,-8.067,-3.552,-11.987,
49693000,-0.277,-0.172,0.965,-6.912,-4.357,-11.795,
49693010,-0.272,-0.171,0.969,-8.47,-4.445,-12.022,
49693020,-0.269,-0.176,0.966,-10.255,-5.565,-13.93,
49693030,-0.265,-0.177,0.973,-11.777,-5.967,-13.842,
49693040,-0.258,-0.181,0.97,-13.177,-7.087,-13.212,
49693050,-0.249,-0.193,0.974,-13.562,-7.437,-12.337,
49693060,-0.243,-0.201,0.967,-15.522,-7.7,-12.232,
49693070,-0.229,-0.202,0.96,-17.64,-7,-13.387,
49693080,-0.237,-0.219,0.959,-19.302,-6.352,-11.865,
49693090,-0.235,-0.233,0.94,-21.542,-6.23,-12.425,
49693100,-0.219,-0.242,0.935,-21.455,-5.372,-12.46,
49693110,-0.218,-0.248,0.925,-21.402,-4.812,-9.555,
49693120,-0.221,-0.255,0.908,-21.035,-4.41,-7.63,
49693130,-0.211,-0.263,0.894,-20.037,-3.85,-6.965,
49693140,-0.198,-0.265,0.878,-17.902,-2.467,-6.177,
49693150,-0.203,-0.268,0.876,-14.84,-1.26,-3.29,
49693160,-0.21,-0.273,0.87,-12.04,-0.77,-0.472,
49693170,-0.208,-0.281,0.867,-8.015,-1.242,0.77,
49693170,-0.211,-0.275,0.871,-3.342,-1.47,2.135,
49693190,-0.211,-0.263,0.876,0.63,-1.89,2.765,
49693190,-0.218,-0.255,0.893,4.235,-1.96,4.025,
49693210,-0.22,-0.248,0.906,6.352,-2.467,5.215,
49693210,-0.222,-0.246,0.922,7.91,-2.765,6.195,
49693230,-0.22,-0.24,0.932,8.295,-2.887,6.317,
49693230,-0.219,-0.232,0.94,7.63,-1.557,4.987,
49693250,-0.223,-0.228,0.953,7.367,0.367,2.642,
49693250,-0.234,-0.22,0.974,7,3.097,2.537,
49693260,-0.259,-0.214,0.978,4.865,3.85,3.71,
49693270,-0.262,-0.211,0.985,2.852,4.235,3.132,
49693280,-0.256,-0.21,0.983,0.245,4.165,2.835,
49693290,-0.268,-0.206,0.987,-1.715,4.48,5.127,
49693300,-0.273,-0.209,0.975,-4.655,3.325,6.597,
49693310,-0.261,-0.213,0.96,-6.807,2.975,5.53,
49693320,-0.256,-0.214,0.951,-8.505,2.747,4.445,
49693330,-0.264,-0.217,0.943,-10.167,3.552,3.937,
49693340,-0.276,-0.225,0.939,-10.377,3.29,4.322,
49693350,-0.287,-0.234,0.936,-10.727,2.975,5.355,
49693360,-0.292,-0.244,0.929,-11.112,2.1,3.097,
49693370,-0.295,-0.248,0.928,-10.815,1.575,0.175,
49693380,-0.294,-0.247,0.924,-11.235,0.525,-1.96,
49693390,-0.291,-0.247,0.924,-11.392,-0.315,-2.537,
49693400,-0.288,-0.246,0.92,-11.9,-1.645,-2.835,
49693410,-0.29,-0.247,0.927,-11.97,-3.01,-3.01,
49693420,-0.29,-0.248,0.927,-12.687,-5.267,-3.325,
49693430,-0.278,-0.251,0.925,-13.02,-7.262,-4.27,
49693440,-0.258,-0.247,0.931,-12.267,-8.207,-5.6,
49693450,-0.256,-0.247,0.942,-11.865,-8.435,-5.495,
49693460,-0.247,-0.247,0.939,-12.46,-8.155,-5.302,
49693470,-0.236,-0.253,0.935,-11.69,-7.455,-4.567,
49693480,-0.233,-0.248,0.932,-10.5,-6.282,-3.64,
49693490,-0.23,-0.244,0.925,-9.905,-4.987,-3.36,
49693500,-0.23,-0.244,0.922,-8.855,-3.237,-2.957,
49693510,-0.234,-0.243,0.921,-8.26,-1.977,-1.872,
49693510,-0.243,-0.244,0.916,-8.522,-1.505,-0.717,
49693530,-0.242,-0.253,0.919,-8.067,-1.522,-1.102,
49693530,-0.237,-0.256,0.911,-7.49,-1.312,-1.767,
49693550,-0.236,-0.252,0.914,-6.195,-1.662,-1.137,
49693550,-0.226,-0.249,0.91,-5.46,-1.225,-0.612,
49693570,-0.219,-0.246,0.913,-4.812,-0.402,0.437,
49693570,-0.217,-0.247,0.911,-5.477,0.84,2.485,
49693580,-0.216,-0.245,0.914,-6.177,1.767,4.585,
49693590,-0.226,-0.25,0.921,-6.457,2.87,7.717,
49693600,-0.242,-0.263,0.932,-8.207,3.01,9.17,
49693610,-0.252,-0.28,0.928,-9.712,2.922,7.122,
49693620,-0.237,-0.283,0.925,-8.312,3.29,4.585,
49693630,-0.226,-0.275,0.928,-6.58,5.355,3.255,
49693640,-0.237,-0.274,0.922,-4.445,6.685,3.762,
49693650,-0.241,-0.264,0.925,-2.887,8.68,4.322,
49693660,-0.247,-0.257,0.919,-2.87,9.817,4.707,
49693670,-0.258,-0.252,0.923,-2.432,10.99,5.705,
49693680,-0.278,-0.25,0.928,-2.607,10.71,7.7,
49693690,-0.285,-0.25,0.933,-4.147,9.555,7.98,
49693700,-0.28,-0.248,0.939,-6.51,7.717,6.195,
49693710,-0.267,-0.249,0.932,-10.43,6.86,3.657,
49693720,-0.292,-0.268,0.948,-11.217,6.142,5.25,
49693730,-0.292,-0.269,0.942,-13.912,4.83,6.79,
49693740,-0.276,-0.28,0.932,-13.142,3.15,6.772,
49693750,-0.27,-0.269,0.936,-11.742,3.185,8.907,
49693760,-0.262,-0.26,0.934,-13.16,3.885,10.01,
49693770,-0.259,-0.265,0.934,-13.965,5.95,10.377,
49693780,-0.26,-0.269,0.934,-16.275,8.277,9.502,
49693790,-0.241,-0.268,0.925,-18.515,11.217,4.497,
49693800,-0.268,-0.28,0.924,-18.462,13.79,5.355,
49693810,-0.28,-0.28,0.924,-18.952,15.207,7,
49693820,-0.282,-0.288,0.911,-19.39,15.592,8.347,
49693830,-0.291,-0.285,0.904,-20.177,15.995,9.887,
49693840,-0.294,-0.3,0.891,-21.21,16.205,8.365,
49693850,-0.299,-0.304,0.884,-19.88,16.362,7.367,
49693860,-0.293,-0.309,0.869,-19.092,16.362,4.97,
49693870,-0.305,-0.312,0.871,-16.712,16.362,3.78,
49693880,-0.292,-0.302,0.859,-16.817,16.415,-0.245,
49693890,-0.323,-0.329,0.859,-14.63,17.097,-0.07,
49693900,-0.341,-0.333,0.863,-12.967,17.132,4.095,
49693910,-0.368,-0.341,0.857,-12.337,15.4,7.315,
49693920,-0.361,-0.338,0.876,-11.585,14.42,3.64,
49693920,-0.353,-0.325,0.882,-15.172,14.455,-2.607,
49693940,-0.361,-0.361,0.882,-18.62,14.91,-3.937,
49693940,-0.372,-0.362,0.86,-19.302,13.947,-0.49,
49693960,-0.361,-0.376,0.858,-15.61,13.02,-1.155,
49693960,-0.396,-0.362,0.85,-11.795,11.567,6.685,
49693980,-0.388,-0.343,0.856,-11.48,8.732,5.127,
49693980,-0.367,-0.339,0.839,-12.25,7.525,2.03,
49694000,-0.397,-0.356,0.839,-10.482,5.932,7.175,
49694000,-0.399,-0.356,0.837,-8.26,2.485,6.895,
49694010,-0.385,-0.334,0.851,-5.18,-0.21,5.792,
49694020,-0.38,-0.343,0.832,-5.232,-2.922,5.512,
49694030,-0.364,-0.327,0.857,-3.465,-3.342,2.065,
49694040,-0.352,-0.33,0.847,-5.32,-3.272,-0.577,
49694050,-0.37,-0.341,0.851,-1.767,-2.992,2.992,
49694060,-0.359,-0.33,0.876,2.345,-3.955,3.552,
49694070,-0.364,-0.306,0.884,2.327,-4.777,6.317,
49694080,-0.356,-0.313,0.884,0.875,-5.827,5.197,
49694090,-0.331,-0.311,0.884,-0.367,-4.585,0.682,
49694100,-0.338,-0.314,0.886,-0.647,-2.537,-0.822,
49694110,-0.344,-0.306,0.889,-0.647,-0.595,-0.787,
49694120,-0.354,-0.307,0.882,-0.122,0.035,-0.612,
49694130,-0.351,-0.307,0.885,0.98,0.752,-0.927,
49694140,-0.354,-0.293,0.881,0.455,0.962,0.822,
49694150,-0.366,-0.317,0.871,1.907,0.525,3.15,
49694160,-0.374,-0.307,0.886,4.707,-0.385,5.407,
49694170,-0.372,-0.297,0.886,4.392,-1.767,4.27,
49694180,-0.365,-0.296,0.89,4.235,-2.362,1.4,
49694190,-0.365,-0.308,0.899,4.2,-2.66,0.087,
49694200,-0.368,-0.299,0.899,3.797,-3.08,2.362,
49694210,-0.351,-0.298,0.903,3.657,-3.447,0.805,
49694220,-0.338,-0.303,0.901,2.905,-2.065,0.122,
49694230,-0.345,-0.316,0.902,2.222,-0.472,-0.07,
49694240,-0.346,-0.319,0.9,2.275,0.892,-0.612,
49694250,-0.344,-0.316,0.896,2.065,1.4,-0.507,
49694260,-0.342,-0.316,0.889,1.102,2.292,-0.175,
49694260,-0.34,-0.319,0.89,0.052,3.045,0.455,
49694280,-0.343,-0.323,0.885,-1.522,3.272,1.522,
49694280,-0.346,-0.329,0.88,-2.555,3.01,2.31,
49694300,-0.349,-0.335,0.878,-2.94,3.272,3.307,
49694300,-0.356,-0.335,0.872,-2.975,2.87,3.937,
49694320,-0.361,-0.331,0.874,-2.922,2.625,3.972,
49694320,-0.36,-0.331,0.874,-2.94,1.715,3.745,
49694330,-0.356,-0.327,0.871,-2.992,1.26,4.095,
49694340,-0.341,-0.316,0.869,-3.255,0.175,4.48,
49694350,-0.323,-0.311,0.878,-2.975,0.175,5.39,
49694360,-0.314,-0.308,0.883,-3.255,0.245,8.067,
49694370,-0.292,-0.295,0.884,-3.167,1.61,9.082,
49694380,-0.28,-0.291,0.887,-2.555,4.147,10.395,
49694390,-0.286,-0.292,0.886,-2.712,7.857,12.617,
49694400,-0.299,-0.293,0.889,-1.942,11.235,13.247,
49694410,-0.315,-0.297,0.896,-1.26,15.032,12.845,
49694420,-0.361,-0.316,0.881,-0.717,17.5,15.802,
49694430,-0.369,-0.307,0.896,-0.14,20.072,15.645,
49694440,-0.393,-0.307,0.87,-4.112,22.05,15.802,
49694450,-0.416,-0.333,0.878,-4.095,23.94,10.972,
49694460,-0.443,-0.299,0.878,-6.457,24.482,8.802,
49694470,-0.421,-0.285,0.84,-14.14,23.52,-0.595,
49694480,-0.486,-0.371,0.846,-10.78,22.68,-0.647,
49694490,-0.507,-0.326,0.846,-10.237,18.707,4.672,
49694500,-0.506,-0.31,0.847,-11.48,12.88,3.972,
49694510,-0.502,-0.349,0.827,-11.97,9.677,0.752,
49694520,-0.494,-0.316,0.854,-11.952,6.877,-2.31,
49694530,-0.514,-0.372,0.829,-13.615,3.167,-2.992,
49694540,-0.473,-0.332,0.859,-10.465,0.402,-4.97,
49694550,-0.472,-0.343,0.833,-14.297,-3.202,-2.45,
49694560,-0.446,-0.363,0.833,-15.697,-5.057,-4.392,
49694570,-0.412,-0.383,0.828,-14.612,-5.652,-7.245,
49694580,-0.388,-0.367,0.866,-12.74,-5.617,-3.57,
49694590,-0.396,-0.381,0.869,-15.907,-6.72,4.97,
49694600,-0.352,-0.403,0.922,-15.592,-6.895,5.46,
49694610,-0.326,-0.394,0.91,-22.102,-6.44,9.625,
49694620,-0.303,-0.415,0.913,-25.55,-4.777,12.04,
49694630,-0.293,-0.397,0.931,-30.1,-1.505,18.515,
49694640,-0.407,-0.477,0.912,-38.71,-1.855,25.235,
49694650,-0.375,-0.485,0.897,-39.812,-7.647,20.667,
49694660,-0.308,-0.456,0.921,-34.422,-9.1,16.467,
49694670,-0.301,-0.468,0.845,-29.645,-8.505,14.84,
49694670,-0.283,-0.432,0.849,-20.072,-0.612,10.64,
49694690,-0.313,-0.362,0.869,-13.877,6.317,12.092,
49694690,-0.465,-0.512,0.881,-11.882,8.12,17.272,
49694710,-0.496,-0.601,0.815,1.75,0.7,8.645,
49694710,-0.438,-0.524,0.831,23.1,-4.637,-11.62,
49694730,-0.423,-0.41,0.858,35.315,-11.9,-29.942,
49694730,-0.375,-0.384,0.844,39.042,-16.747,-42.56,
49694750,-0.297,-0.386,0.82,47.075,-16.485,-46.147,
49694750,-0.249,-0.353,0.833,57.382,-10.902,-41.597,
49694760,-0.256,-0.333,0.817,68.232,-2.87,-27.51,
49694770,-0.265,-0.317,0.812,80.237,7.507,-13.405,
49694780,-0.247,-0.251,0.823,84.91,19.092,-7.752,
49694790,-0.261,-0.2,0.825,80.797,32.252,-5.46,
49694800,-0.32,-0.199,0.811,73.692,43.102,-1.75,
49694810,-0.39,-0.212,0.798,68.25,49.21,0.77,
49694820,-0.463,-0.211,0.8,64.417,48.265,0.682,
49694830,-0.517,-0.21,0.802,59.622,41.632,-2.467,
49694840,-0.552,-0.213,0.8,53.882,30.065,-8.907,
49694850,-0.576,-0.223,0.807,48.755,15.592,-17.272,
49694860,-0.572,-0.211,0.785,43.872,-0.962,-26.285,
49694870,-0.573,-0.24,0.8,44.87,-17.202,-33.39,
49694880,-0.554,-0.248,0.798,45.132,-32.252,-40.162,
49694890,-0.502,-0.242,0.818,48.282,-43.295,-47.005,
49694900,-0.437,-0.232,0.817,49.175,-49.717,-51.677,
49694910,-0.383,-0.207,0.829,51.467,-51.537,-53.112,
49694920,-0.349,-0.205,0.828,53.252,-49.612,-52.762,
49694930,-0.316,-0.169,0.839,55.51,-44.695,-51.467,
49694940,-0.294,-0.131,0.844,53.042,-37.712,-49.525,
49694950,-0.291,-0.118,0.84,49.402,-29.295,-46.165,
49694960,-0.298,-0.11,0.851,45.622,-20.895,-41.37,
49694970,-0.304,-0.091,0.858,36.977,-13.16,-37.17,
49694980,-0.309,-0.08,0.857,25.69,-5.722,-33.232,
49694990,-0.338,-0.104,0.85,15.05,0.192,-27.335,
49695000,-0.366,-0.108,0.86,4.27,4.445,-23.205,
49695010,-0.389,-0.115,0.865,-7.437,6.107,-20.702,
49695010,-0.413,-0.146,0.862,-17.85,6.037,-18.795,
49695030,-0.436,-0.189,0.865,-25.445,3.552,-18.147,
49695030,-0.458,-0.238,0.872,-29.68,-0.717,-19.162,
49695050,-0.471,-0.29,0.877,-28.455,-7.42,-20.947,
49695050,-0.463,-0.325,0.874,-21.927,-13.632,-23.1,
49695070,-0.455,-0.334,0.897,-10.325,-20.107,-25.217,
49695070,-0.431,-0.311,0.915,-0.525,-25.217,-28.175,
49695080,-0.397,-0.288,0.931,6.685,-28.577,-31.342,
49695090,-0.361,-0.262,0.946,10.36,-28.647,-32.585,
49695100,-0.345,-0.241,0.957,10.325,-27.405,-30.397,
49695110,-0.327,-0.226,0.967,7.437,-23.747,-27.282,
49695120,-0.32,-0.222,0.968,2.502,-19.127,-22.645,
49695130,-0.327,-0.233,0.963,-4.235,-13.422,-17.377,
49695140,-0.353,-0.241,0.949,-10.85,-8.767,-14.455,
49695150,-0.406,-0.256,0.927,-16.275,-6.702,-12.582,
49695160,-0.456,-0.268,0.906,-19.232,-9.17,-12.862,
49695170,-0.507,-0.273,0.89,-19.705,-16.117,-15.33,
49695180,-0.56,-0.278,0.876,-18.252,-28.717,-19.635,
49695190,-0.568,-0.278,0.866,-14.945,-44.695,-24.622,
49695200,-0.529,-0.269,0.859,-10.062,-61.845,-28.437,
49695210,-0.472,-0.254,0.862,-5.197,-76.352,-29.312,
49695220,-0.422,-0.246,0.864,-2.065,-86.817,-28.42,
49695230,-0.36,-0.236,0.875,-1.295,-92.26,-27.527,
49695240,-0.296,-0.226,0.894,-2.712,-93.94,-25.69,
49695250,-0.263,-0.234,0.916,-6.142,-92.785,-22.732,
49695260,-0.257,-0.261,0.935,-10.045,-91.927,-20.422,
49695270,-0.228,-0.285,0.949,-12.197,-91.91,-19.53,
49695280,-0.185,-0.299,0.956,-12.11,-92.487,-19.022,
49695290,-0.145,-0.322,0.957,-10.062,-92.225,-18.585,
49695300,-0.107,-0.342,0.954,-6.37,-89.827,-19.267,
49695310,-0.089,-0.346,0.961,-1.662,-86.1,-21.157,
49695320,-0.112,-0.361,0.96,3.675,-83.93,-23.765,
49695330,-0.147,-0.378,0.946,10.395,-85.102,-29.067,
49695340,-0.166,-0.393,0.946,19.25,-90.142,-36.33,
49695350,-0.18,-0.378,0.924,30.31,-100.782,-43.977,
49695360,-0.215,-0.373,0.902,43.452,-115.605,-50.715,
49695370,-0.2,-0.352,0.882,58.87,-132.702,-58.695,
49695380,-0.15,-0.336,0.826,77.455,-149.572,-69.142,
49695390,0.017,-0.199,0.926,98.717,-159.46,-81.165,
49695400,0.122,-0.124,0.93,92.4,-161.507,-74.567,
49695410,0.243,-0.11,0.942,83.387,-154.14,-68.495,
49695420,0.346,-0.091,0.967,71.732,-135.712,-56.735,
49695420,0.368,-0.097,0.978,57.54,-113.032,-40.25,
49695440,0.329,-0.126,0.983,44.135,-88.882,-24.22,
49695440,0.281,-0.159,0.982,33.18,-67.952,-11.935,
49695460,0.225,-0.184,0.982,25.077,-52.132,-3.675,
49695460,0.166,-0.221,0.969,20.422,-43.907,0.035,
49695480,0.126,-0.253,0.952,21.315,-41.58,0.315,
49695480,0.11,-0.26,0.949,27.125,-44.432,-2.362,
49695500,0.132,-0.23,0.961,33.95,-49.245,-6.037,
49695500,0.197,-0.208,0.958,39.042,-53.847,-8.137,
49695510,0.252,-0.197,0.947,43.12,-54.022,-6.93,
49695520,0.287,-0.165,0.955,45.71,-50.05,-4.007,
49695530,0.321,-0.121,0.961,44.485,-42,-0.437,
49695540,0.328,-0.108,0.955,40.057,-32.585,3.57,
49695550,0.322,-0.105,0.94,34.982,-21.892,6.93,
49695560,0.301,-0.104,0.929,30.992,-12.985,9.485,
49695570,0.256,-0.107,0.915,28.857,-7.227,11.882,
49695580,0.231,-0.101,0.906,29.33,-5.127,12.46,
49695590,0.218,-0.089,0.898,30.73,-5.705,11.882,
49695600,0.224,-0.073,0.896,31.587,-7.787,10.447,
49695610,0.238,-0.059,0.891,31.99,-10.027,9.362,
49695620,0.272,-0.04,0.897,32.165,-11.252,8.96,
49695630,0.31,-0.018,0.904,30.992,-10.097,10.15,
49695640,0.342,0.003,0.919,27.72,-6.475,13.107,
49695650,0.377,0.01,0.924,22.715,0.612,16.852,
49695660,0.4,0.009,0.938,17.447,10.465,22.47,
49695670,0.383,0,0.944,11.76,20.58,28.437,
49695680,0.337,-0.011,0.951,7.315,29.872,31.64,
49695690,0.305,-0.018,0.959,4.147,36.26,31.797,
49695700,0.285,-0.028,0.969,2.187,38.885,32.322,
49695710,0.237,-0.041,0.977,1.417,37.537,32.042,
49695720,0.195,-0.066,0.972,2.275,33.04,28.07,
49695730,0.184,-0.1,0.968,9.117,25.392,23.03,
49695740,0.2,-0.095,0.984,19.845,16.572,19.442,
49695750,0.237,-0.054,1.007,27.265,9.485,15.417,
49695760,0.292,-0.014,1.02,27.667,7.595,10.08,
49695760,0.343,0.001,1.029,23.887,11.147,6.562,
49695780,0.35,0.008,1.028,18.375,19.267,5.04,
49695780,0.314,0.001,1.02,12.722,28.77,2.677,
49695800,0.285,-0.009,1.004,9.8,38.062,0.227,
49695800,0.268,-0.008,0.999,9.922,45.465,-1.855,
49695820,0.254,0.011,1.007,9.065,52.605,-2.607,
49695820,0.25,0.034,0.998,4.06,59.552,-2.765,
49695830,0.271,0.041,0.976,-1.347,69.51,-3.115,
49695840,0.295,0.052,0.977,-6.142,83.58,-1.085,
49695850,0.29,0.069,0.971,-14.472,100.677,4.147,
49695860,0.237,0.047,0.959,-22.715,116.935,10.01,
49695870,0.178,0.015,0.95,-28.875,131.792,14.927,
49695880,0.095,-0.015,0.938,-31.797,141.19,18.62,
49695890,-0.035,-0.071,0.941,-30.292,142.625,20.58,
49695900,-0.133,-0.091,0.939,-26.495,135.66,18.532,
49695910,-0.191,-0.113,0.953,-18.27,122.657,13.177,
49695920,-0.205,-0.095,0.962,-11.637,105.875,4.742,
49695930,-0.207,-0.08,0.973,-5.967,89.687,-4.06,
49695940,-0.187,-0.059,0.986,-3.482,75.915,-11.865,
49695950,-0.162,-0.04,0.993,-5.232,66.307,-17.605,
49695960,-0.139,-0.035,0.991,-9.94,60.83,-20.475,
49695970,-0.128,-0.042,0.993,-15.347,59.08,-19.88,
49695980,-0.124,-0.053,0.993,-21.542,58.905,-16.8,
49695990,-0.122,-0.068,0.985,-27.282,59.937,-12.652,
49696000,-0.129,-0.082,0.986,-32.165,61.425,-8.4,
49696010,-0.154,-0.109,0.976,-36.557,62.492,-4.305,
49696020,-0.166,-0.121,0.978,-39.532,63.42,-1.995,
49696030,-0.165,-0.111,0.98,-42.857,63.962,-0.665,
49696040,-0.172,-0.099,0.977,-48.212,63.647,2.135,
49696050,-0.183,-0.08,0.979,-56.612,63.56,5.705,
49696060,-0.197,-0.072,0.976,-69.037,63.98,8.47,
49696070,-0.2,-0.071,0.969,-86.012,64.715,9.415,
49696080,-0.208,-0.1,0.958,-104.912,65.24,8.785,
49696090,-0.226,-0.13,0.939,-125.65,65.24,5.617,
49696100,-0.269,-0.173,0.914,-146.86,63.63,-0.857,
49696110,-0.345,-0.237,0.882,-164.307,57.015,-7.332,
49696120,-0.438,-0.321,0.845,-174.247,41.632,-11.042,
49696130,-0.443,-0.415,0.791,-170.17,20.965,-11.917,
49696140,-0.376,-0.454,0.743,-152.932,4.987,-13.51,
49696150,-0.346,-0.494,0.739,-126.542,-3.815,-11.847,
49696160,-0.314,-0.466,0.777,-99.662,-4.375,-10.43,
49696170,-0.296,-0.463,0.802,-79.292,0.525,-9.52,
49696170,-0.323,-0.454,0.845,-61.757,7.402,-8.19,
49696190,-0.343,-0.437,0.868,-53.865,13.037,-12.547,
49696190,-0.373,-0.46,0.869,-47.95,15.015,-16.187,
49696200,-0.374,-0.443,0.87,-44.45,12.267,-19.495,
49696210,-0.374,-0.421,0.874,-44.1,7.21,-21.455,
49696220,-0.374,-0.427,0.855,-47.967,1.68,-25.007,
49696230,-0.369,-0.453,0.828,-50.365,-3.29,-28.735,
49696240,-0.332,-0.436,0.815,-52.395,-7.297,-34.107,
49696250,-0.346,-0.482,0.789,-53.62,-9.852,-37.87,
49696260,-0.363,-0.499,0.784,-55.58,-14.297,-43.452,
49696270,-0.39,-0.518,0.79,-57.697,-21.91,-49.437,
49696280,-0.385,-0.551,0.771,-56.875,-33.407,-54.915,
49696290,-0.329,-0.553,0.758,-51.205,-43.102,-59.185,
49696300,-0.306,-0.572,0.74,-40.67,-50.05,-60.795,
49696310,-0.29,-0.51,0.789,-26.267,-54.477,-60.322,
49696320,-0.234,-0.42,0.795,-25.497,-55.615,-67.935,
49696330,-0.217,-0.416,0.8,-23.415,-54.372,-70.98,
49696340,-0.206,-0.402,0.796,-20.93,-53.095,-69.842,
49696350,-0.185,-0.327,0.807,-19.442,-51.677,-68.372,
49696360,-0.197,-0.309,0.823,-19.547,-51.607,-64.33,
49696370,-0.175,-0.293,0.818,-21.14,-51.975,-58.677,
49696380,-0.145,-0.287,0.835,-22.575,-51.835,-51.992,
49696390,-0.121,-0.291,0.843,-27.772,-50.575,-44.572,
49696400,-0.09,-0.369,0.88,-29.89,-47.495,-35.14,
49696410,-0.064,-0.458,0.862,-23.607,-42.14,-23.065,
49696420,-0.024,-0.452,0.899,-15.47,-32.655,-17.535,
49696430,-0.061,-0.459,0.917,-7.945,-24.185,-4.865,
49696440,-0.03,-0.509,0.933,-0.402,-18.375,5.722,
49696450,-0.023,-0.542,0.95,9.677,-13.265,16.835,
49696460,-0.001,-0.541,0.964,19.687,-5.355,23.485,
49696470,0.006,-0.529,0.934,25.777,3.465,25.655,
49696480,-0.037,-0.49,0.946,26.53,9.765,30.502,
49696490,-0.023,-0.505,0.936,27.212,13.912,38.08,
49696500,-0.069,-0.511,0.954,27.632,18.567,49.367,
49696510,-0.095,-0.499,0.957,29.225,23.502,52.587,
49696510,-0.098,-0.484,0.944,29.295,29.575,53.515,
49696530,-0.124,-0.477,0.947,30.135,35.332,54.67,
49696530,-0.147,-0.474,0.941,31.64,40.407,57.925,
49696550,-0.153,-0.462,0.932,32.602,45.132,61.757,
49696550,-0.195,-0.456,0.922,32.532,50.12,64.802,
49696570,-0.246,-0.457,0.917,35.297,52.64,66.29,
49696570,-0.299,-0.436,0.917,37.73,52.605,66.64,
49696580,-0.309,-0.386,0.934,38.465,49.28,63.735,
49696590,-0.362,-0.364,0.888,33.057,43.137,64.47,
49696600,-0.366,-0.399,0.855,35.175,35.122,60.445,
49696610,-0.35,-0.345,0.861,34.79,29.557,55.335,
49696620,-0.354,-0.307,0.852,30.817,24.185,51.327,
49696630,-0.352,-0.311,0.835,27.23,20.597,48.58,
49696640,-0.361,-0.289,0.822,22.242,16.695,46.655,
49696650,-0.38,-0.303,0.797,17.92,12.74,43.085,
49696660,-0.377,-0.276,0.809,14.14,8.435,38.22,
49696670,-0.398,-0.303,0.775,9.73,2.047,36.295,
49696680,-0.375,-0.325,0.746,10.832,-3.395,33.302,
49696690,-0.363,-0.351,0.728,17.272,-6.072,28.875,
49696700,-0.383,-0.343,0.742,25.287,-8.557,23.782,
49696710,-0.358,-0.342,0.761,34.895,-10.64,16.782,
49696720,-0.321,-0.343,0.744,43.207,-11.147,11.76,
49696730,-0.304,-0.34,0.755,52.692,-9.887,6.265,
49696740,-0.295,-0.32,0.806,58.345,-8.575,0.42,
49696750,-0.325,-0.305,0.836,54.67,-10.99,-3.097,
49696760,-0.321,-0.309,0.862,49.787,-17.185,-9.345,
49696770,-0.297,-0.319,0.868,43.172,-24.605,-14.42,
49696780,-0.266,-0.317,0.895,34.737,-33.442,-18.55,
49696790,-0.237,-0.33,0.908,26.127,-40.477,-20.02,
49696800,-0.191,-0.364,0.925,19.442,-45.605,-20.44,
49696810,-0.163,-0.398,0.936,12.6,-48.23,-22.137,
49696820,-0.143,-0.414,0.962,7.157,-48.247,-26.862,
49696830,-0.133,-0.434,0.985,2.572,-48.072,-32.795,
49696840,-0.119,-0.443,0.983,-2.1,-48.107,-39.182,
49696850,-0.099,-0.431,0.983,-5.74,-49.017,-44.362,
49696860,-0.093,-0.424,0.974,-8.207,-50.925,-46.602,
49696870,-0.111,-0.474,0.953,-4.217,-54.18,-44.135,
49696870,-0.063,-0.431,0.969,-2.257,-56.262,-44.24,
49696890,-0.022,-0.402,0.948,-5.32,-54.827,-46.515,
49696890,-0.01,-0.412,0.945,-4.06,-48.93,-43.82,
49696910,0.049,-0.41,0.953,-2.415,-39.322,-37.87,
49696910,0.068,-0.389,0.919,-0.84,-22.207,-30.065,
49696920,-0.013,-0.375,0.917,3.36,-7.367,-24.85,
49696930,-0.066,-0.369,0.939,8.067,0.962,-19.547,
49696940,-0.086,-0.359,0.937,10.447,3.815,-10.255,
49696950,-0.107,-0.356,0.931,11.165,4.76,-3.395,
49696960,-0.122,-0.347,0.937,10.64,5.565,-2.52,
49696970,-0.135,-0.348,0.934,8.872,6.86,-5.407,
49696980,-0.154,-0.338,0.933,5.845,6.702,-8.575,
49696990,-0.152,-0.363,0.93,5.32,6.055,-12.46,
49697000,-0.159,-0.354,0.943,8.312,4.987,-9.957,
49697010,-0.176,-0.327,0.947,5.302,2.555,-7.367,
49697020,-0.16,-0.346,0.928,2.24,0.49,-12.39,
49697030,-0.132,-0.363,0.946,5.845,0.787,-10.587,
49697040,-0.106,-0.358,0.929,5.617,2.485,-3.22,
49697050,-0.096,-0.351,0.931,6.02,8.067,-1.557,
49697060,-0.123,-0.358,0.945,7.77,13.825,-2.817,
49697070,-0.132,-0.352,0.952,10.15,18.55,-0.84,
49697080,-0.18,-0.337,0.953,9.817,18.077,5.057,
49697090,-0.172,-0.349,0.95,9.257,15.977,2.695,
49697100,-0.163,-0.352,0.95,9.205,13.93,1.032,
49697110,-0.15,-0.353,0.909,6.142,13.352,-2.887,
49697120,-0.126,-0.374,0.918,16.082,15.505,-5.442,
49697130,-0.157,-0.339,0.923,22.68,16.87,5.705,
49697140,-0.167,-0.32,0.909,22.89,15.89,6.772,
49697150,-0.148,-0.31,0.917,24.447,18.48,0.717,
49697160,-0.148,-0.282,0.897,19.582,21.805,-2.59,
49697170,-0.14,-0.303,0.892,20.545,26.127,-5.775,
49697180,-0.157,-0.28,0.883,24.377,31.185,2.975,
49697190,-0.205,-0.281,0.891,27.702,33.162,14.157,
49697200,-0.229,-0.265,0.895,28.892,33.792,17.675,
49697210,-0.245,-0.252,0.904,28.245,33.74,16.467,
49697220,-0.26,-0.253,0.906,26.267,32.375,15.715,
49697230,-0.287,-0.256,0.917,24.465,28.822,17.115,
49697240,-0.301,-0.25,0.922,21.07,23.8,15.54,
49697250,-0.305,-0.238,0.934,16.537,18.077,10.29,
49697260,-0.285,-0.251,0.914,13.352,12.775,3.762,
49697260,-0.287,-0.259,0.935,17.08,7.962,6.212,
49697280,-0.295,-0.247,0.936,16.782,2.59,10.15,
49697280,-0.282,-0.235,0.948,16.117,-1.715,6.965,
49697300,-0.26,-0.228,0.955,14.63,-3.325,3.097,
49697300,-0.257,-0.233,0.965,13.527,-4.375,3.237,
49697320,-0.262,-0.228,0.976,12.005,-4.392,4.795,
49697320,-0.246,-0.219,0.971,9.187,-3.255,2.642,
49697330,-0.234,-0.223,0.985,8.785,0.28,1.33,
49697340,-0.26,-0.224,0.987,7.245,3.027,5.075,
49697350,-0.274,-0.225,0.983,5.075,5.057,6.195,
49697360,-0.269,-0.224,0.983,3.797,6.772,4.567,
49697370,-0.277,-0.227,0.975,1.47,8.312,4.322,
49697380,-0.277,-0.236,0.966,-0.315,8.907,4.445,
49697390,-0.263,-0.24,0.952,-1.277,10.92,4.217,
49697400,-0.256,-0.241,0.936,-1.487,13.492,4.007,
49697410,-0.26,-0.238,0.928,-1.137,16.8,4.13,
49697420,-0.267,-0.237,0.918,-0.752,18.9,4.375,
49697430,-0.274,-0.24,0.908,-0.437,20.3,5.127,
49697440,-0.282,-0.242,0.899,0.262,19.967,5.845,
49697450,-0.284,-0.242,0.89,0.997,19.232,6.335,
49697460,-0.284,-0.243,0.886,1.96,17.447,6.755,
49697470,-0.289,-0.243,0.885,3.045,15.347,7.28,
49697480,-0.295,-0.241,0.883,4.27,12.355,7.315,
49697490,-0.295,-0.238,0.886,5.32,9.257,7.052,
49697500,-0.296,-0.237,0.887,6.282,5.477,6.912,
49697510,-0.29,-0.235,0.889,7.157,2.17,7.175,
49697520,-0.287,-0.233,0.896,8.242,-0.752,7.28,
49697530,-0.284,-0.226,0.909,9.222,-2.835,7.157,
49697540,-0.283,-0.215,0.919,9.45,-4.602,7.14,
49697550,-0.281,-0.204,0.93,8.907,-5.845,6.842,
49697560,-0.281,-0.202,0.935,7.472,-6.702,6.3,
49697570,-0.276,-0.199,0.939,5.302,-6.825,5.652,
49697580,-0.276,-0.201,0.94,4.217,-6.562,5.04,
49697580,-0.276,-0.198,0.948,4.13,-5.792,4.2,
49697600,-0.277,-0.194,0.951,3.5,-4.9,3.902,
49697600,-0.274,-0.193,0.948,2.45,-3.867,3.605,
49697620,-0.275,-0.196,0.945,1.557,-2.222,3.395,
49697620,-0.284,-0.197,0.945,1.295,-0.857,3.255,
49697640,-0.29,-0.194,0.942,0.717,0.332,2.835,
49697640,-0.294,-0.192,0.936,-0.035,0.892,2.31,
49697660,-0.297,-0.191,0.931,-0.822,1.295,2.065,
49697660,-0.299,-0.189,0.928,-1.645,0.997,2.082,
49697670,-0.301,-0.187,0.926,-2.835,0.682,1.96,
49697680,-0.303,-0.191,0.925,-4.165,-0.157,1.767,
49697690,-0.3,-0.198,0.923,-5.425,-0.752,1.925,
49697700,-0.297,-0.203,0.921,-6.51,-1.68,2.257,
49697710,-0.292,-0.209,0.919,-7.385,-2.187,2.905,
49697720,-0.286,-0.219,0.918,-7.892,-2.59,3.972,
49697730,-0.283,-0.232,0.922,-7.805,-2.24,5.495,
49697740,-0.284,-0.244,0.929,-7.14,-2.345,6.965,
49697750,-0.279,-0.258,0.931,-6.247,-2.065,8.067,
49697760,-0.274,-0.26,0.937,-4.112,-0.945,7.647,
49697770,-0.278,-0.249,0.943,-2.292,0.857,7.28,
49697780,-0.29,-0.237,0.943,-1.575,1.47,7.402,
49697790,-0.29,-0.231,0.941,-1.4,2.117,7.735,
49697800,-0.288,-0.23,0.935,-1.242,2.607,8.277,
49697810,-0.292,-0.229,0.932,-0.35,3.78,9.24,
49697820,-0.292,-0.22,0.935,1.015,5.46,10.115,
49697830,-0.291,-0.209,0.939,1.75,8.732,10.867,
49697840,-0.3,-0.199,0.937,2.187,11.602,11.935,
49697850,-0.311,-0.188,0.935,3.377,15.015,14.332,
49697860,-0.327,-0.178,0.939,4.357,17.237,17.885,
49697870,-0.33,-0.165,0.929,2.292,18.55,18.725,
49697880,-0.355,-0.185,0.896,-0.035,19.022,18.445,
49697890,-0.33,-0.205,0.897,3.447,19.967,15.155,
49697900,-0.337,-0.195,0.898,7.035,21.017,20.492,
49697910,-0.349,-0.183,0.918,8.417,21.105,27.72,
49697920,-0.347,-0.185,0.915,7.28,21.21,30.87,
49697930,-0.368,-0.239,0.869,7,22.54,29.557,
49697940,-0.286,-0.196,0.919,11.62,26.915,23.45,
49697950,-0.337,-0.203,0.904,9.467,29.382,37.975,
49697960,-0.35,-0.213,0.877,7.962,30.782,43.557,
49697970,-0.329,-0.215,0.893,11.305,35.07,47.547,
49697980,-0.331,-0.2,0.889,9.922,40.215,57.89,
49697990,-0.351,-0.204,0.87,8.855,45.36,63.805,
49698000,-0.358,-0.205,0.893,11.532,51.887,68.232,
49698010,-0.364,-0.181,0.883,10.412,57.33,74.375,
49698010,-0.372,-0.165,0.876,8.417,64.487,76.37,
49698030,-0.385,-0.154,0.877,7.665,72.345,78.032,
49698030,-0.39,-0.131,0.876,3.465,80.29,79.187,
49698050,-0.428,-0.136,0.835,0.56,88.13,78.645,
49698050,-0.504,-0.122,0.875,3.447,93.66,80.972,
49698070,-0.576,-0.113,0.849,-0.227,92.802,78.102,
49698070,-0.636,-0.124,0.833,0.525,87.64,66.885,
49698080,-0.658,-0.137,0.812,4.357,77.367,53.62,
49698090,-0.664,-0.115,0.82,11.147,64.032,42.595,
49698100,-0.668,-0.095,0.795,13.37,47.355,32.935,
49698110,-0.644,-0.079,0.817,20.212,30.992,24.745,
49698120,-0.64,-0.057,0.812,20.755,14.647,25.462,
49698130,-0.615,-0.046,0.783,17.045,-0.017,18.375,
49698140,-0.577,-0.052,0.8,18.602,-10.482,5.477,
49698150,-0.557,-0.031,0.801,16.537,-17.552,0.105,
49698160,-0.549,-0.008,0.814,12.53,-23.345,-0.875,
49698170,-0.536,0.007,0.833,3.675,-27.387,-4.147,
49698180,-0.563,-0.064,0.822,-3.342,-32.707,-10.745,
49698190,-0.51,-0.07,0.839,-1.067,-38.535,-20.562,
49698200,-0.5,-0.082,0.841,-1.242,-49.052,-23.24,
49698210,-0.475,-0.065,0.849,-0.682,-58.012,-24.605,
49698220,-0.43,-0.05,0.853,0.717,-64.592,-26.88,
49698230,-0.387,-0.048,0.871,0.735,-66.237,-25.9,
49698240,-0.388,-0.058,0.87,-0.822,-64.89,-19.985,
49698250,-0.379,-0.064,0.868,-1.662,-59.132,-17.325,
49698260,-0.362,-0.063,0.879,-2.187,-50.575,-16.432,
49698270,-0.37,-0.062,0.891,-5.932,-40.81,-13.125,
49698280,-0.376,-0.061,0.897,-11.305,-30.555,-8.4,
49698290,-0.364,-0.05,0.948,-19.25,-16.922,-2.117,
49698300,-0.491,-0.087,0.921,-30.94,-7.805,7.017,
49698310,-0.584,-0.186,0.91,-32.34,-5.74,5.757,
49698320,-0.469,-0.165,0.896,-27.982,-5.915,-1.312,
49698330,-0.454,-0.162,0.89,-27.79,-5.075,1.47,
49698330,-0.51,-0.198,0.887,-24.797,-3.237,3.587,
49698350,-0.51,-0.196,0.907,-17.832,-1.802,2.45,
49698350,-0.516,-0.175,0.927,-12.74,-2.397,2.642,
49698370,-0.524,-0.157,0.947,-10.185,-4.882,2.975,
49698370,-0.529,-0.146,0.96,-10.657,-8.015,5.092,
49698390,-0.503,-0.144,0.938,-14.28,-11.917,6.825,
49698390,-0.485,-0.16,0.917,-14.892,-14.875,7.927,
49698410,-0.476,-0.164,0.888,-15.697,-18.48,7.892,
49698410,-0.459,-0.169,0.86,-13.982,-21.192,1.382,
49698420,-0.403,-0.13,0.864,-11.27,-22.207,-5.617,
49698430,-0.431,-0.134,0.873,-12.005,-24.062,-1.715,
49698440,-0.436,-0.172,0.851,-14.35,-27.912,-2.957,
49698450,-0.368,-0.197,0.854,-11.445,-28.385,-11.83,
49698460,-0.371,-0.195,0.871,-8.767,-27.335,-15.242,
49698470,-0.399,-0.184,0.905,-7.805,-27.457,-16.327,
49698480,-0.367,-0.175,0.911,-7.577,-27.37,-17.587,
49698490,-0.33,-0.177,0.932,-9.817,-27.492,-20.177,
49698500,-0.343,-0.165,0.932,-11.462,-27.545,-22.82,
49698510,-0.343,-0.13,0.94,-13.842,-27.212,-25.042,
49698520,-0.34,-0.115,0.934,-19.215,-28.63,-26.285,
49698530,-0.34,-0.125,0.904,-24.85,-30.135,-26.547,
49698540,-0.341,-0.159,0.875,-26.127,-33.145,-25.602,
49698550,-0.331,-0.165,0.854,-24.062,-34.86,-23.782,
49698560,-0.322,-0.174,0.848,-21.262,-35.542,-21.945,
49698570,-0.327,-0.206,0.847,-17.57,-35.21,-18.742,
49698580,-0.304,-0.245,0.867,-12.285,-32.165,-16.082,
49698590,-0.147,-0.344,0.899,-3.517,-14.612,-11.585,
49698600,-0.362,-0.329,0.921,13.947,4.182,-6.545,
49698610,-0.572,-0.221,1.011,24.045,2.327,-12.617,
49698620,-0.565,-0.173,1.027,16.992,-12.67,-19.127,
49698630,-0.483,-0.223,0.972,6.615,-30.03,-26.285,
49698640,-0.466,-0.247,0.926,4.462,-44.31,-32.83,
49698650,-0.426,-0.225,0.902,6.282,-56.577,-36.785,
49698660,-0.298,-0.2,0.889,5.985,-62.072,-38.832,
49698670,-0.224,-0.211,0.878,7.507,-58.152,-35.577,
49698680,-0.219,-0.212,0.894,11.725,-48.72,-30.415,
49698690,-0.228,-0.197,0.925,14.525,-37.275,-24.412,
49698700,-0.251,-0.203,0.936,14.77,-26.792,-19.565,
49698710,-0.284,-0.217,0.952,16.765,-17.99,-16.642,
49698720,-0.328,-0.225,0.958,19.827,-13.072,-11.62,
49698730,-0.378,-0.229,0.969,24.29,-12.687,-7.717,
49698740,-0.399,-0.214,0.972,26.967,-15.015,-7.595,
49698750,-0.401,-0.201,0.961,28.105,-19.582,-7.822,
49698760,-0.394,-0.192,0.96,29.855,-24.447,-6.545,
49698760,-0.374,-0.168,0.957,30.24,-28.892,-4.672,
49698780,-0.348,-0.144,0.959,28.542,-31.5,-2.852,
49698780,-0.322,-0.136,0.953,25.007,-32.042,-0.7,
49698800,-0.294,-0.134,0.942,21.7,-30.257,1.662,
49698800,-0.269,-0.113,0.934,19.267,-27.142,5.285,
49698820,-0.287,-0.133,0.924,19.6,-24.36,11.165,
49698820,-0.28,-0.107,0.959,19.792,-20.562,12.635,
49698830,-0.257,-0.073,0.942,10.15,-15.942,14.63,
49698840,-0.256,-0.117,0.915,4.9,-11.585,17.517,
49698850,-0.246,-0.144,0.916,4.462,-5.687,18.042,
49698860,-0.259,-0.139,0.918,4.532,-1.032,20.422,
49698870,-0.277,-0.147,0.92,5.88,2.695,20.93,
49698880,-0.281,-0.134,0.928,6.265,5.985,21.315,
49698890,-0.272,-0.119,0.926,5.092,8.96,23.24,
49698900,-0.272,-0.125,0.915,4.112,11.917,25.13,
49698910,-0.261,-0.103,0.933,2.065,16.677,26.057,
49698920,-0.274,-0.112,0.913,-1.995,20.002,27.317,
49698930,-0.271,-0.096,0.927,-4.305,24.587,27.842,
49698940,-0.286,-0.104,0.911,-9.222,27.072,30.24,
49698950,-0.29,-0.097,0.916,-13.23,29.732,30.625,
49698960,-0.303,-0.107,0.909,-17.01,30.712,31.587,
49698970,-0.302,-0.113,0.918,-19.407,31.745,30.555,
49698980,-0.285,-0.109,0.911,-21.42,32.06,30.555,
49698990,-0.285,-0.128,0.892,-23.345,32.34,33.197,
49699000,-0.253,-0.129,0.911,-20.912,34.562,31.867,
49699010,-0.276,-0.122,0.894,-21.542,37.905,35.455,
49699020,-0.289,-0.121,0.912,-18.392,40.302,34.195,
49699030,-0.31,-0.098,0.92,-18.147,41.562,35.805,
49699040,-0.327,-0.114,0.907,-19.11,40.722,34.317,
49699050,-0.325,-0.102,0.93,-19.337,40.845,31.167,
49699060,-0.338,-0.109,0.923,-23.205,39.2,29.855,
49699070,-0.343,-0.113,0.921,-25.462,37.66,28.787,
49699080,-0.318,-0.126,0.92,-27.247,36.487,29.015,
49699080,-0.295,-0.13,0.911,-28.332,37.45,31.43,
49699100,-0.28,-0.133,0.994,-28.157,41.667,33.547,
49699100,-0.353,-0.155,0.958,-32.952,42.122,34.58,
49699120,-0.272,-0.186,0.93,-29.75,40.162,29.592,
49699120,-0.245,-0.177,0.953,-25.76,41.212,32.69,
49699140,-0.306,-0.172,0.93,-27.282,43.067,35.227,
49699140,-0.306,-0.161,0.931,-26.81,44.887,29.925,
49699160,-0.285,-0.166,0.931,-27.65,46.007,30.415,
49699160,-0.307,-0.145,0.911,-33.582,50.102,36.155,
49699170,-0.315,-0.133,0.911,-41.807,58.205,38.85,
49699180,-0.357,-0.155,0.895,-50.417,69.177,41.615,
49699190,-0.381,-0.208,0.85,-57.032,80.15,44.065,
49699200,-0.447,-0.265,0.811,-56.42,87.517,46.025,
49699210,-0.546,-0.3,0.794,-50.015,88.9,48.195,
49699220,-0.619,-0.312,0.794,-39.34,83.405,47.862,
49699230,-0.654,-0.302,0.787,-27.597,73.815,44.1,
49699240,-0.686,-0.268,0.79,-19.18,60.655,39.06,
49699250,-0.707,-0.235,0.819,-16.31,49.14,33.81,
49699260,-0.665,-0.23,0.791,-14.98,39.795,25.602,
49699270,-0.594,-0.229,0.761,-10.99,34.142,19.25,
49699280,-0.592,-0.224,0.751,-6.457,30.747,19.057,
49699290,-0.627,-0.223,0.747,-2.03,27.982,20.405,
49699300,-0.621,-0.21,0.748,5.6,25.252,18.97,
49699310,-0.617,-0.189,0.761,13.492,22.592,17.832,
49699320,-0.647,-0.173,0.759,18.112,17.342,17.22,
49699330,-0.659,-0.166,0.756,21.665,11.585,14.017,
49699340,-0.66,-0.168,0.756,26.11,4.567,9.047,
49699350,-0.681,-0.179,0.749,31.115,-3.535,4.095,
49699360,-0.704,-0.178,0.757,37.8,-12.635,-3.08,
49699370,-0.72,-0.151,0.762,43.96,-23.607,-11.025,
49699380,-0.722,-0.132,0.772,46.427,-36.872,-17.412,
49699390,-0.716,-0.132,0.767,46.2,-49.525,-21.437,
49699400,-0.674,-0.137,0.774,46.567,-59.762,-24.832,
49699410,-0.604,-0.126,0.793,45.727,-65.66,-26.862,
49699420,-0.536,-0.118,0.799,41.37,-66.605,-25.13,
49699430,-0.488,-0.107,0.807,36.172,-59.832,-21.647,
49699440,-0.437,-0.102,0.83,31.43,-47.372,-18.515,
49699450,-0.378,-0.11,0.894,25.445,-30.012,-13.632,
49699460,-0.403,-0.15,0.902,18.007,-12.722,-6.772,
49699470,-0.444,-0.216,0.914,12.88,-2.17,-2.957,
49699480,-0.426,-0.245,0.906,16.73,5.95,-4.34,
49699490,-0.441,-0.241,0.93,25.637,9.502,-4.882,
49699500,-0.516,-0.215,0.945,32.305,8.732,-3.325,
49699510,-0.536,-0.188,0.944,37.432,4.987,-5.337,
49699510,-0.516,-0.164,0.942,40.285,1.452,-8.522,
49699530,-0.547,-0.139,0.925,39.497,-2.275,-9.94,
49699530,-0.59,-0.108,0.911,35.997,-7.245,-12.32,
49699550,-0.605,-0.076,0.898,29.61,-14.7,-16.677,
49699550,-0.618,-0.077,0.873,20.177,-24.43,-21.787,
49699560,-0.617,-0.108,0.838,11.935,-35.787,-27.825,
49699570,-0.593,-0.147,0.791,9.922,-47.197,-31.57,
49699580,-0.575,-0.165,0.776,16.345,-58.17,-31.745,
49699590,-0.568,-0.15,0.786,25.305,-67.637,-31.29,
49699600,-0.545,-0.11,0.811,31.325,-75.862,-32.655,
49699610,-0.509,-0.077,0.825,33.897,-81.41,-33.092,
49699620,-0.467,-0.063,0.841,35.892,-84.962,-31.167,
49699630,-0.428,-0.045,0.867,36.592,-85.487,-27.387,
49699640,-0.395,-0.016,0.876,32.357,-83.772,-24.36,
49699650,-0.367,0.003,0.879,25.515,-79.24,-22.802,
49699660,-0.331,-0.001,0.869,18.532,-72.975,-21.595,
49699670,-0.299,0.004,0.875,13.352,-64.19,-18.725,
49699680,-0.294,0.019,0.874,4.795,-55.23,-15.382,
49699690,-0.298,0.017,0.873,-4.217,-45.92,-12.635,
49699700,-0.306,0,0.87,-11.882,-38.815,-10.115,
49699710,-0.351,-0.012,0.866,-18.165,-33.18,-7.017,
49699720,-0.396,-0.012,0.882,-22.785,-32.462,-4.567,
49699730,-0.417,-0.01,0.863,-27.947,-35.682,-1.172,
49699740,-0.388,-0.045,0.874,-33.302,-41.02,3.815,
49699750,-0.367,-0.076,0.867,-33.88,-40.757,8.05,
49699760,-0.374,-0.054,0.863,-30.765,-39.725,11.917,
49699770,-0.316,-0.107,0.871,-30.397,-36.925,15.82,
49699780,-0.231,-0.151,0.893,-25.515,-26.967,13.195,
49699790,-0.237,-0.117,0.959,-15.837,-16.66,9.205,
49699800,-0.376,-0.126,0.967,-12.197,-16.94,15.907,
49699810,-0.37,-0.123,0.979,-5.932,-16.047,14.647,
49699820,-0.344,-0.114,0.995,-1.505,-19.162,7.262,
49699830,-0.346,-0.121,0.982,-3.307,-22.347,2.117,
49699830,-0.354,-0.127,0.966,-2.397,-24.482,-3.675,
49699850,-0.345,-0.117,0.97,0.63,-26.897,-7.875,
49699850,-0.317,-0.099,0.962,1.96,-28.315,-8.522,
49699870,-0.313,-0.09,0.968,1.995,-28.21,-7.245,
49699870,-0.307,-0.077,0.977,-0.35,-25.795,-6.44,
49699890,-0.305,-0.068,0.991,-5.372,-23.45,-5.512,
49699890,-0.316,-0.083,0.99,-12.162,-21.98,-3.71,
49699910,-0.315,-0.107,0.984,-17.325,-21.455,-1.557,
49699910,-0.315,-0.127,0.981,-19.25,-21.367,1.172,
49699920,-0.325,-0.14,0.981,-19.145,-22.4,3.78,
49699930,-0.341,-0.152,0.979,-18.515,-24.22,5.687,
49699940,-0.348,-0.155,0.982,-17.22,-27.842,6.44,
49699950,-0.346,-0.148,0.979,-15.417,-31.64,6.545,
49699960,-0.329,-0.135,0.989,-13.982,-35.84,5.25,
49699970,-0.309,-0.138,0.992,-15.645,-40.127,4.112,
49699980,-0.261,-0.158,0.964,-15.942,-45.815,-0.052,
49699990,-0.232,-0.149,0.96,-15.487,-47.757,-3.097,
49700000,-0.222,-0.121,0.958,-17.115,-46.637,-3.605,
49700010,-0.22,-0.11,0.95,-19.547,-44.065,-5.652,
49700020,-0.222,-0.112,0.931,-22.732,-42.472,-7.787,
49700030,-0.208,-0.118,0.924,-24.552,-40.232,-7.98,
49700040,-0.226,-0.103,0.922,-25.585,-38.622,-7.14,
49700050,-0.268,-0.104,0.931,-27.86,-39.235,-6.86,
49700060,-0.305,-0.103,0.921,-30.275,-43.697,-7.245,
49700070,-0.283,-0.128,0.905,-30.887,-51.257,-6.93,
49700080,-0.24,-0.14,0.901,-28.98,-54.985,-6.51,
49700090,-0.2,-0.124,0.923,-25.847,-55.772,-7.945,
49700100,-0.203,-0.114,0.928,-25.462,-55.16,-8.365,
49700110,-0.185,-0.113,0.915,-26.705,-53.62,-9.992,
49700120,-0.144,-0.119,0.928,-26.32,-51.012,-11.375,
49700130,-0.126,-0.126,0.922,-27.825,-47.267,-9.607,
49700140,-0.105,-0.139,0.936,-30.397,-42.052,-6.86,
49700150,-0.096,-0.155,0.935,-33.495,-35.822,-4.637,
49700160,-0.114,-0.175,0.939,-37.31,-31.395,-3.027,
49700170,-0.124,-0.193,0.947,-41.265,-28.962,-2.047,
49700180,-0.114,-0.229,0.946,-45.062,-28.717,-0.577,
49700190,-0.104,-0.267,0.939,-46.357,-28.665,0.192,
49700200,-0.095,-0.29,0.944,-44.607,-29.732,0.752,
49700210,-0.065,-0.309,0.961,-42.787,-30.66,4.112,
49700220,-0.064,-0.333,0.944,-42.507,-31.745,7.892,
49700230,-0.087,-0.342,0.934,-40.267,-34.055,5.53,
49700230,-0.094,-0.328,0.927,-35.7,-37.677,-1.435,
49700250,-0.076,-0.321,0.927,-32.637,-40.862,-4.637,
49700250,-0.067,-0.334,0.92,-30.922,-41.685,-3.5,
49700260,-0.012,-0.349,0.907,-26.477,-37.8,-1.015,
49700270,0.023,-0.349,0.913,-20.79,-27.527,4.34,
49700280,-0.041,-0.335,0.93,-17.692,-18.34,9.275,
49700290,-0.052,-0.322,0.947,-17.01,-11.48,9.887,
49700300,-0.056,-0.331,0.96,-17.727,-8.417,9.695,
49700310,-0.051,-0.343,0.972,-20.142,-6.86,9.31,
49700320,-0.07,-0.369,0.971,-20.3,-6.142,8.47,
49700330,-0.101,-0.384,0.973,-15.855,-8.137,6.545,
49700340,-0.116,-0.373,0.973,-10.027,-14.07,4.602,
49700350,-0.104,-0.35,0.963,-5.442,-20.475,2.975,
49700360,-0.099,-0.326,0.954,-2.31,-27.212,1.837,
49700370,-0.071,-0.302,0.941,-0.507,-32.182,1.96,
49700380,-0.05,-0.277,0.929,-0.7,-35.77,3.29,
49700390,-0.04,-0.255,0.923,-3.482,-37.922,3.535,
49700400,-0.007,-0.244,0.917,-8.137,-38.027,3.255,
49700410,0.019,-0.247,0.908,-12.862,-34.737,3.43,
49700420,-0.023,-0.247,0.906,-17.745,-33.477,3.29,
49700430,-0.045,-0.252,0.908,-22.61,-35.647,3.132,
49700440,-0.021,-0.28,0.902,-25.13,-39.725,3.71,
49700450,0.029,-0.307,0.921,-24.64,-41.755,5.215,
49700460,0.033,-0.341,0.946,-21.472,-41.93,7.227,
49700470,0.04,-0.359,0.961,-17.482,-42.122,8.207,
49700480,0.062,-0.352,0.976,-12.547,-40.757,6.702,
49700490,0.083,-0.328,0.989,-9.397,-37.8,4.83,
49700500,0.099,-0.308,0.995,-9.047,-32.83,4.48,
49700510,0.087,-0.283,0.991,-12.092,-27.615,4.095,
49700520,0.086,-0.264,0.991,-17.395,-22.575,4.655,
49700530,0.075,-0.245,0.987,-24.377,-17.097,5.512,
49700540,0.031,-0.233,0.986,-33.197,-13.86,4.567,
49700550,0.001,-0.25,0.968,-43.19,-13.02,1.575,
49700560,-0.024,-0.285,0.95,-49.157,-14.455,-1.645,
49700570,-0.041,-0.315,0.942,-49.875,-18.497,-4.357,
49700580,-0.015,-0.331,0.947,-47.512,-23.38,-6.562,
49700580,0.001,-0.34,0.959,-45.097,-28.472,-8.47,
49700600,0.051,-0.353,0.963,-44.537,-32.585,-10.482,
49700600,0.103,-0.362,0.95,-44.362,-33.757,-10.797,
49700620,0.143,-0.368,0.945,-43.872,-32.515,-8.225,
49700620,0.221,-0.364,0.929,-43.662,-27.492,-5.145,
49700640,0.27,-0.356,0.917,-44.502,-18.2,-1.067,
49700640,0.303,-0.364,0.916,-47.267,-5.005,4.97,
49700660,0.294,-0.38,0.894,-50.697,10.15,12.617,
49700660,0.294,-0.399,0.888,-53.777,26.355,20.965,
49700670,0.208,-0.448,0.872,-55.842,41.195,30.222,
49700680,0.093,-0.482,0.858,-53.707,48.212,37.082,
49700690,0.051,-0.482,0.846,-47.74,51.555,41.16,
49700700,-0.003,-0.47,0.862,-41.895,53.375,42.332,
49700710,-0.069,-0.462,0.868,-40.775,53.462,41.23,
49700720,-0.103,-0.468,0.866,-41.825,49.98,38.867,
49700730,-0.119,-0.476,0.862,-43.26,45.5,35.175,
49700740,-0.151,-0.471,0.864,-45.587,38.202,29.452,
49700750,-0.161,-0.478,0.865,-48.965,29.295,21.7,
49700760,-0.149,-0.503,0.862,-52.132,19.495,13.755,
49700770,-0.085,-0.513,0.861,-53.322,11.9,7.035,
49700780,0,-0.511,0.872,-54.162,9.555,1.785,
49700790,0.039,-0.517,0.87,-57.54,12.267,-1.54,
49700800,0.072,-0.54,0.86,-61.407,17.675,-2.747,
49700810,0.069,-0.573,0.848,-62.527,24.29,-2.012,
49700820,0.05,-0.589,0.839,-60.97,29.19,-1.662,
49700830,0.003,-0.616,0.826,-56.91,32.235,-0.962,
49700840,-0.045,-0.646,0.813,-48.947,30.957,0.297,
49700850,-0.076,-0.668,0.813,-37.257,26.845,1.925,
49700860,-0.086,-0.661,0.814,-24.85,21.297,2.38,
49700870,-0.073,-0.637,0.817,-14.14,18.585,1.505,
49700880,-0.1,-0.627,0.816,-7.297,16.905,-1.75,
49700890,-0.132,-0.616,0.8,-2.835,16.082,-8.627,
49700900,-0.141,-0.632,0.787,2.59,13.965,-16.45,
49700910,-0.134,-0.641,0.763,11.69,12.442,-20.965,
49700920,-0.151,-0.632,0.771,24.64,9.625,-22.085,
49700920,-0.158,-0.618,0.792,36.05,5.477,-22.12,
49700940,-0.143,-0.631,0.798,45.587,0.367,-23.065,
49700940,-0.119,-0.636,0.809,55.23,-3.342,-27.09,
49700960,-0.074,-0.621,0.836,61.827,-3.237,-34.072,
49700960,-0.068,-0.621,0.807,69.947,-1.382,-45.377,
49700980,-0.071,-0.619,0.79,80.535,-4.935,-56.437,
49700980,-0.058,-0.596,0.774,92.977,-8.82,-60.637,
49701000,0.015,-0.565,0.775,104.772,-8.96,-56.735,
49701000,0.035,-0.487,0.783,116.48,-7.385,-53.497,
49701010,-0.028,-0.493,0.811,125.335,-6.142,-46.532,
49701020,0.008,-0.52,0.745,132.895,-2.625,-38.29,
49701030,0.048,-0.479,0.75,147.927,3.692,-33.337,
49701040,0.067,-0.393,0.786,161.787,13.405,-25.567,
49701050,0.076,-0.304,0.825,166.6,24.185,-15.12,
49701060,0.059,-0.229,0.849,160.02,35.157,-7.437,
49701070,0.016,-0.185,0.843,143.727,45.622,-0.84,
49701080,-0.046,-0.191,0.829,128.765,51.975,5.53,
49701090,-0.074,-0.198,0.828,119.787,54.302,9.362,
49701100,-0.094,-0.177,0.853,115.5,53.532,14.997,
49701110,-0.104,-0.138,0.873,113.085,53.357,22.032,
49701120,-0.125,-0.086,0.945,109.795,54.407,25.287,
49701130,-0.142,-0.027,0.988,97.632,52.902,26.162,
49701140,-0.182,-0.034,1.001,79.047,45.99,25.62,
49701150,-0.207,-0.093,0.976,62.265,33.932,24.202,
49701160,-0.145,-0.122,0.955,51.17,21.56,22.662,
49701170,-0.074,-0.162,0.928,46.077,14.525,21.98,
49701180,-0.063,-0.174,0.94,49.665,13.247,22.207,
49701190,-0.087,-0.175,0.946,53.392,14.227,23.852,
49701200,-0.094,-0.132,0.985,56.35,15.487,21.367,
49701210,-0.118,-0.109,0.997,53.06,15.522,16.87,
49701220,-0.107,-0.101,0.998,46.532,15.977,7.105,
49701230,-0.072,-0.084,1.003,39.27,18.515,-1.05,
49701240,-0.06,-0.064,1.008,31.447,22.785,-3.255,
49701250,-0.107,-0.053,1.013,22.575,27.195,-2.607,
49701260,-0.169,-0.049,1.004,13.317,28.157,0.402,
49701270,-0.237,-0.054,1.003,6.16,24.237,2.94,
49701280,-0.255,-0.063,0.984,1.522,14.822,3.657,
49701290,-0.235,-0.079,0.974,-0.822,3.745,5.705,
49701300,-0.22,-0.088,0.961,-0.63,-5.46,8.837,
49701310,-0.148,-0.09,0.947,2.03,-9.117,9.59,
49701320,-0.135,-0.09,0.983,2.38,-7.157,12.635,
49701330,-0.154,-0.072,1.002,-0.42,-2.432,14.07,
49701330,-0.127,-0.043,0.994,-6.755,2.415,16.835,
49701350,-0.176,-0.043,0.992,-20.037,4.795,24.342,
49701350,-0.222,-0.047,1.028,-37.03,4.9,26.565,
49701370,-0.235,-0.092,1.002,-48.737,6.387,18.812,
49701370,-0.163,-0.146,0.959,-50.855,3.535,6.842,
49701390,-0.164,-0.132,0.946,-55.737,-0.647,7.42,
49701390,-0.338,-0.085,0.967,-68.04,-5.162,6.23,
49701410,-0.275,-0.115,0.916,-79.922,-13.055,-6.545,
49701410,-0.205,-0.181,0.878,-86.345,-17.062,-12.495,
49701420,-0.242,-0.235,0.845,-86.065,-20.107,-9.45,
49701430,-0.259,-0.293,0.823,-77.472,-21.297,-4.83,
49701440,-0.221,-0.363,0.812,-60.532,-21.332,0.822,
49701450,-0.182,-0.379,0.817,-37.765,-15.575,6.002,
49701460,-0.185,-0.351,0.868,-16.782,-8.837,7.437,
49701470,-0.194,-0.303,0.91,-0.665,-2.712,6.825,
49701480,-0.178,-0.25,0.965,11.48,3.85,2.642,
49701490,-0.195,-0.217,1.02,16.205,7.612,-0.875,
49701500,-0.247,-0.196,1.073,14.28,5.845,-3.132,
49701510,-0.256,-0.19,1.096,8.452,-0.98,-4.165,
49701520,-0.228,-0.211,1.106,1.82,-10.727,-2.537,
49701530,-0.17,-0.25,1.079,-2.782,-18.025,-0.052,
49701540,-0.095,-0.28,1.07,-3.57,-19.215,0.962,
49701550,-0.097,-0.296,1.086,-3.937,-16.782,2.292,
49701560,-0.125,-0.312,1.111,-4.69,-15.33,1.225,
49701570,-0.119,-0.351,1.129,-3.22,-16.485,-2.117,
49701580,-0.127,-0.412,1.155,2.362,-21.56,-5.495,
49701590,-0.165,-0.467,1.209,11.672,-30.747,-12.022,
49701600,-0.138,-0.496,1.234,23.555,-45.185,-24.08,
49701610,-0.054,-0.503,1.217,37.992,-60.55,-35.91,
49701620,0.022,-0.477,1.204,55.457,-72.73,-46.532,
49701630,0.105,-0.408,1.19,70.787,-79.45,-58.695,
49701640,0.206,-0.325,1.158,82.232,-79.292,-70.42,
49701650,0.301,-0.251,1.13,88.882,-71.732,-77.35,
49701660,0.36,-0.192,1.086,90.335,-57.4,-79.38,
49701670,0.374,-0.134,1.062,87.92,-36.802,-79.695,
49701670,0.373,-0.075,1.057,79.397,-12.53,-79.047,
49701690,0.366,-0.019,1.011,62.842,13.895,-75.652,
49701690,0.316,0,0.966,43.4,41.265,-70.367,
49701710,0.214,0.023,0.936,21,64.382,-66.22,
49701710,0.09,0.052,0.903,-4.585,79.817,-63.752,
49701730,-0.024,0.052,0.89,-28.857,85.435,-60.235,
49701730,-0.133,0.059,0.865,-56.297,82.407,-55.825,
49701750,-0.245,0.027,0.848,-81.41,70.84,-53.147,
49701750,-0.324,-0.011,0.8,-104.755,53.06,-52.465,
49701760,-0.367,-0.065,0.75,-120.19,31.167,-52.867,
49701770,-0.377,-0.127,0.701,-126.997,10.395,-52.85,
49701780,-0.363,-0.165,0.674,-125.895,-7.682,-52.132,
49701790,-0.322,-0.171,0.645,-123.252,-19.687,-51.502,
49701800,-0.308,-0.202,0.627,-117.11,-25.987,-48.37,
49701810,-0.29,-0.239,0.627,-110.197,-26.827,-44.082,
49701820,-0.282,-0.259,0.62,-101.01,-25.357,-37.677,
49701830,-0.3,-0.276,0.637,-88.13,-22.995,-29.207,
49701840,-0.31,-0.27,0.674,-76.51,-23.222,-19.74,
49701850,-0.334,-0.257,0.721,-67.55,-26.897,-7.822,
49701860,-0.327,-0.242,0.762,-65.187,-32.987,3.745,
49701870,-0.28,-0.258,0.773,-66.622,-37.502,15.12,
49701880,-0.227,-0.286,0.795,-73.01,-37.485,22.89,
49701890,-0.206,-0.358,0.794,-78.522,-33.442,28.63,
49701900,-0.167,-0.407,0.792,-81.812,-25.515,27.58,
49701910,-0.182,-0.455,0.814,-77.98,-18.305,24.622,
49701920,-0.183,-0.474,0.831,-72.415,-14.21,18.095,
49701930,-0.182,-0.48,0.876,-63.612,-14.56,12.88,
49701940,-0.177,-0.499,0.896,-56.245,-18.97,8.417,
49701950,-0.138,-0.522,0.916,-44.677,-24.5,6.125,
49701960,-0.058,-0.496,0.924,-37.485,-26.985,2.677,
49701970,-0.039,-0.509,0.948,-27.615,-26.722,2.747,
49701980,0.004,-0.535,0.999,-21.245,-23.415,1.802,
49701990,0.071,-0.603,1.005,-12.775,-16.03,4.322,
49702000,0.103,-0.604,1.018,6.93,-2.327,4.935,
49702010,0.065,-0.502,1.056,23.065,10.622,3.745,
49702020,-0.016,-0.439,1.055,29.05,15.785,8.802,
49702030,-0.054,-0.417,1.038,30.555,14.997,13.527,
49702040,-0.048,-0.375,1.038,27.615,12.617,16.397,
49702050,-0.051,-0.39,1.004,22.435,10.482,17.36,
49702060,-0.045,-0.394,0.976,20.842,12.075,14.98,
49702070,-0.052,-0.378,0.965,21.07,15.015,11.392,
49702080,-0.072,-0.358,0.962,20.3,17.885,8.54,
49702080,-0.101,-0.361,0.948,17.99,18.567,5.617,
49702100,-0.122,-0.369,0.936,16.765,17.22,2.1,
49702100,-0.133,-0.401,0.929,20.3,13.632,-1.067,
49702120,-0.121,-0.398,0.939,25.462,9.747,-2.555,
49702120,-0.115,-0.391,0.946,28.21,5.127,-2.187,
49702140,-0.097,-0.386,0.946,29.592,2.327,-2.24,
49702140,-0.067,-0.384,0.948,29.96,1.225,-2.975,
49702160,-0.06,-0.375,0.956,28,2.24,-3.01,
49702160,-0.062,-0.372,0.951,24.342,4.06,-2.625,
49702170,-0.065,-0.377,0.951,21.42,6.877,-2.065,
49702180,-0.07,-0.382,0.952,18.602,9.345,-1.242,
49702190,-0.083,-0.389,0.942,16.415,12.477,-0.577,
49702200,-0.108,-0.392,0.942,16.012,14.612,-0.262,
49702210,-0.137,-0.398,0.935,17.325,15.505,0.84,
49702220,-0.147,-0.395,0.928,21.49,14.717,2.467,
49702230,-0.146,-0.374,0.929,26.827,14.507,4.585,
49702240,-0.158,-0.344,0.941,30.695,14.297,6.492,
49702250,-0.175,-0.327,0.94,32.812,14.875,7.017,
49702260,-0.176,-0.307,0.945,33.6,15.662,7.42,
49702270,-0.185,-0.294,0.944,31.447,16.362,8.05,
49702280,-0.199,-0.289,0.941,29.855,16.275,7.945,
49702290,-0.21,-0.287,0.945,29.032,15.382,8.382,
49702300,-0.209,-0.277,0.946,28.175,13.247,8.68,
49702310,-0.203,-0.267,0.944,26.967,11.025,9.047,
49702320,-0.196,-0.261,0.944,25.34,8.802,9.59,
49702330,-0.186,-0.258,0.945,23.257,7.525,9.695,
49702340,-0.174,-0.26,0.942,20.667,6.842,9.625,
49702350,-0.172,-0.265,0.943,17.622,6.475,9.835,
49702360,-0.178,-0.272,0.941,14.367,5.512,10.447,
49702370,-0.183,-0.284,0.943,11.06,3.867,11.077,
49702380,-0.182,-0.292,0.939,6.912,1.802,11.287,
49702390,-0.182,-0.311,0.934,3.097,-0.577,10.972,
49702400,-0.178,-0.32,0.929,-0.157,-2.432,9.975,
49702410,-0.18,-0.335,0.926,-2.397,-4.27,8.662,
49702420,-0.165,-0.334,0.914,-3.902,-5.6,7.297,
49702420,-0.153,-0.337,0.906,-2.8,-6.877,7.805,
49702440,-0.143,-0.328,0.914,-0.875,-7.28,9.467,
49702440,-0.137,-0.318,0.918,-1.015,-8.102,11.165,
49702460,-0.129,-0.326,0.915,-1.172,-8.435,12.18,
49702460,-0.115,-0.337,0.911,-0.157,-8.435,12.722,
