#Format version: 1.0
time[ms],accX[g],accY[g],accZ[g],Value 1,Value 2,Value 3,
39777530,-0.126,-0.261,0.959,22.102,-12.687,-16.187,
39777540,0.005,-0.254,0.992,21.157,-9.362,-15.662,
39777550,0.089,-0.185,1.032,14.735,0.35,-12.757,
39777560,0.074,-0.14,1.005,1.645,14.472,-5.862,
39777570,0.079,-0.149,1.043,-12.302,30.782,0.437,
39777580,0.049,-0.132,1.066,-25.497,48.58,1.067,
39777590,-0.001,-0.18,1.063,-36.61,68.022,-2.345,
39777600,-0.02,-0.241,1.105,-49.525,85.942,-6.037,
39777610,-0.056,-0.189,1.137,-68.81,103.932,-8.207,
39777620,-0.279,-0.262,1.122,-99.872,122.885,-9.8,
39777630,-0.475,-0.289,1.156,-134.505,139.37,-14.175,
39777640,-0.732,-0.061,1.07,-169.26,130.217,-20.737,
39777650,-0.734,-0.248,1.012,-206.92,106.557,-28.647,
39777660,-0.753,-0.348,1.155,-230.23,80.272,-50.662,
39777670,-0.512,-0.581,1.517,-252.945,97.352,-68.04,
39777680,-0.328,-1.824,0.781,-276.395,145.897,-107.03,
39777690,-1.416,-1.998,0.571,-235.532,93.94,-141.54,
39777700,-0.585,-1.998,0.162,-65.275,29.137,-199.85,
39777710,-0.529,-1.814,-1.88,122.027,-9.695,-199.535,
39777720,-1.429,-0.14,-1.861,100.59,-28.105,-195.895,
39777730,-1.604,-0.121,-0.878,-89.127,-5.11,-99.435,
39777740,-1.273,-0.721,-0.006,-228.637,-8.627,93.012,
39777750,0.064,-0.231,0.313,-169.015,-53.41,241.552,
39777760,1.55,0.382,0.692,-127.855,-30.152,256.235,
39777770,1.98,0.511,0.882,-151.34,34.107,195.23,
39777780,1.579,0.701,0.888,-116.357,60.34,104.142,
39777790,0.85,0.897,0.637,-79.677,47.425,22.802,
39777800,0.274,0.864,0.214,-48.772,6.737,8.487,
39777810,0.283,0.693,-0.133,-42.927,-27.545,46.515,
39777820,0.231,0.04,-0.339,-59.062,-46.025,110.88,
39777830,0.535,-1.655,1.761,6.65,-44.695,148.61,
39777830,-1.701,-0.147,1.535,333.445,-34.23,220.255,
39777850,-1.998,-0.145,-0.451,451.167,-172.042,202.02,
39777850,-0.343,-0.812,1.58,218.697,-340.97,244.947,
39777870,-0.437,0.941,1.151,232.225,-272.142,143.482,
39777870,-1.379,-0.747,0.966,264.32,-248.342,16.537,
39777890,-0.26,0.256,1.24,264.582,-236.915,-34.3,
39777890,0.395,0.072,1.324,239.417,-223.422,-67.2,
39777910,0.813,-0.008,1.384,199.622,-182.647,-47.302,
39777910,0.537,0.305,1.274,143.692,-119.945,-19.092,
39777920,0.409,0.242,1.16,67.13,-66.01,-7.787,
39777930,0.26,0.071,1.077,8.925,-23.397,-7.332,
39777940,0.021,-0.165,1.027,-26.792,2.24,-3.675,
39777950,-0.134,-0.266,0.979,-43.435,13.107,1.767,
39777960,-0.146,-0.258,0.988,-49.665,14.455,6.422,
39777970,-0.146,-0.26,0.99,-53.795,14.665,10.08,
39777980,-0.088,-0.242,1.013,-61.915,15.155,11.007,
39777990,-0.123,-0.149,1.047,-71.452,19.092,13.51,
39778000,-0.137,-0.164,1.106,-89.845,24.167,15.12,
39778010,-0.176,-0.137,1.145,-115.377,29.662,11.497,
39778020,-0.176,-0.18,1.176,-145.162,30.642,8.557,
39778030,-0.215,-0.164,1.181,-176.155,29.505,3.29,
39778040,-0.312,-0.168,1.155,-208.337,21.805,-6.16,
39778050,-0.378,-0.256,1.071,-237.02,11.812,-16.502,
39778060,-0.308,-0.392,0.939,-253.382,1.522,-28.927,
39778070,-0.457,-0.316,0.96,-234.885,-12.652,-39.182,
39778080,-0.239,-0.462,0.968,-238.98,-26.932,-48.58,
39778090,-0.101,-0.518,1.068,-249.935,-29.33,-50.05,
39778100,0.028,-0.755,1.36,-257.53,-8.75,-42.822,
39778110,-0.049,-1.053,1.412,-234.395,26.005,-36.942,
39778120,-0.375,-1.229,1.286,-188.86,42.175,-37.572,
39778130,-0.178,-0.779,0.939,-125.405,32.445,-39.147,
39778140,-0.184,-0.324,0.893,-85.137,30.362,-48.125,
39778150,-0.051,-0.205,0.959,-37.187,9.205,-102.567,
39778160,1.031,0.074,1.663,26.075,59.815,-116.812,
39778170,1.106,0.026,1.072,166.127,104.492,-133.752,
39778170,-0.839,0.608,-0.71,253.837,48.93,-219.817,
39778190,-0.879,1.125,-1.968,266.105,121.905,-213.622,
39778190,-1.027,0.904,-1.559,170.117,160.86,-114.275,
39778210,-0.754,-0.442,-0.948,52.29,190.452,39.935,
39778210,0.15,-1.136,-1.061,62.545,155.067,167.142,
39778230,1.158,-1.207,-1.443,76.685,121.572,197.837,
39778230,0.798,-1.76,-0.939,22.925,116.48,143.517,
39778250,-0.565,-1.998,0.401,101.447,61.985,21.612,
39778250,-1.998,-0.435,-0.271,501.27,-78.33,158.235,
39778260,0.872,1.997,1.902,401.992,-198.975,90.72,
39778270,-0.8,-0.474,1.775,354.042,-166.967,170.467,
39778280,-1.998,-0.982,1.331,385.612,-229.215,67.077,
39778290,-0.197,0.099,1.537,300.177,-310.03,31.657,
39778300,1.177,1.309,0.561,87.202,-217.035,3.955,
39778310,0.417,-0.279,1.15,-35.385,-21.507,-29.802,
39778320,0.946,-0.488,1.089,-39.392,46.585,9.292,
39778330,-0.179,-0.312,0.985,-45.5,94.815,10.132,
39778340,-0.798,-0.902,0.861,-40.792,83.737,4.62,
39778350,-0.656,-0.308,0.9,-13.912,50.855,-5.652,
39778360,-0.353,-0.317,0.938,-4.97,24.465,-8.89,
39778370,-0.543,-0.377,0.9,4.97,8.032,-4.095,
39778380,-0.239,-0.166,0.966,14.437,-9.572,-5.425,
39778390,0.125,0.056,1.034,9.135,-10.482,-8.907,
39778400,-0.052,-0.103,0.987,-2.94,2.467,0.192,
39778410,-0.121,-0.179,0.974,-14.7,9.905,-0.07,
39778420,-0.013,-0.122,0.999,-18.095,14.087,-3.972,
39778430,0.005,-0.126,1.015,-24.552,24.272,-7.315,
39778440,0.072,-0.076,1.055,-35.017,37.397,-11.06,
39778450,-0.277,-0.187,0.997,-51.065,51.52,-8.19,
39778460,-0.41,-0.187,0.945,-61.285,49.752,-9.292,
39778470,-0.538,-0.429,0.937,-63.927,37.31,-16.887,
39778480,-0.301,-0.179,1.034,-70.56,22.68,-17.447,
39778490,-0.382,-0.232,1.084,-93.222,12.792,-15.82,
39778500,-0.368,-0.157,1.124,-122.867,-0.612,-17.43,
39778510,-0.409,-0.239,1.138,-159.827,-9.887,-23.397,
39778520,-0.441,-0.246,1.109,-191.117,-26.127,-34.492,
39778530,-0.308,-0.159,1.078,-224.647,-37.502,-44.012,
39778540,-0.123,-0.175,1.053,-254.117,-30.38,-55.667,
39778550,0.026,-0.293,1.028,-268.66,-15.942,-74.077,
39778560,-0.047,-0.305,1.132,-265.825,0.402,-84.542,
39778570,-0.063,-0.872,1.134,-289.03,34.807,-77.84,
39778580,0.755,-1.076,1.329,-303.187,103.005,-64.26,
39778580,0.428,-1.789,0.28,-255.185,223.16,-9.52,
39778600,-0.312,-1.435,0.914,-204.207,266.262,33.845,
39778600,0.773,-1.004,0.94,-141.942,114.782,-68.74,
39778620,0.774,-1.152,0.658,-81.917,37.31,-82.547,
39778620,1.575,-0.941,0.669,5.162,13.02,-87.622,
39778640,1.148,-0.67,0.753,45.325,-11.217,-152.075,
39778640,-0.383,-0.178,-0.002,68.862,-31.622,-223.86,
39778660,-0.539,0.649,-0.514,106.697,-18.497,-211.942,
39778660,-0.457,0.776,-0.759,108.71,-21.21,-137.34,
39778670,-0.11,0.511,-0.839,84.07,-18.917,-51.975,
39778680,0.451,0.1,-0.871,64.137,-19.005,8.54,
39778690,1.04,-0.156,-0.82,53.672,-19.232,43.452,
39778700,1.605,-0.84,-0.425,47.022,-25.865,52.885,
39778710,-1.424,-1.943,1.951,73.185,19.565,155.312,
39778720,-1.71,-1.973,-1.193,278.232,79.52,237.125,
39778730,1.906,0.223,1.649,463.207,62.72,420.542,
39778740,-1.768,-0.314,0.978,339.36,-8.89,360.885,
39778750,-1.379,0.489,1.151,439.687,-113.225,162.33,
39778760,-1.257,0.525,1.676,392.052,-154.175,93.03,
39778770,-1.147,-0.203,1.759,341.005,-211.802,-62.842,
39778780,1.961,1.739,1.416,226.047,-215.075,-99.365,
39778790,1.004,0.389,1.084,39.48,-66.307,-40.897,
39778800,0.432,-0.059,1.06,-37.135,24.062,-1.172,
39778810,-0.16,-0.222,1.047,-66.99,56.752,4.077,
39778820,-0.349,-0.078,1.069,-79.975,63.175,-8.435,
39778830,-0.685,-0.426,0.955,-89.075,60.147,-29.662,
39778840,-0.228,-0.411,0.903,-82.092,42.175,-50.68,
39778850,-0.262,-0.449,0.85,-82.25,50.925,-64.925,
39778860,-0.129,-0.518,0.763,-56.56,40.267,-57.155,
39778870,0.011,-0.589,0.803,-24.71,20.755,-28.49,
39778880,-0.022,-0.406,0.866,3.955,5.6,1.505,
39778890,-0.247,-0.329,0.934,17.832,0.367,19.302,
39778900,-0.236,-0.146,1.026,16.747,-3.815,22.522,
39778910,-0.214,-0.105,1.039,2.222,-4.182,18.2,
39778920,-0.176,-0.154,1.018,-17.132,-3.692,17.01,
39778920,-0.126,-0.193,1.031,-35.385,-1.732,21.787,
39778940,-0.08,-0.142,1.066,-53.725,1.067,25.48,
39778940,-0.087,-0.122,1.098,-77.315,5.932,34.055,
39778960,-0.045,-0.177,1.106,-99.627,9.03,42.577,
39778960,-0.076,-0.233,1.088,-125.09,14.437,45.15,
39778980,-0.101,-0.247,1.099,-148.627,19.652,43.207,
39778980,-0.104,-0.203,1.089,-173.337,24.43,37.887,
39779000,-0.206,-0.227,1.053,-201.88,28.612,29.697,
39779000,-0.287,-0.323,0.999,-225.347,38.237,17.08,
39779010,-0.309,-0.352,1.103,-229.705,45.692,2.17,
39779020,-0.281,-0.292,1.137,-234.027,35.28,-1.225,
39779030,-0.023,-0.462,1.251,-257.425,30.555,-3.692,
39779040,0.413,-0.781,1.45,-276.062,56.122,3.64,
39779050,0.348,-0.934,1.314,-275.957,96.04,13.947,
39779060,0.207,-1.317,0.919,-254.012,110.372,36.015,
39779070,0.556,-1.591,1.138,-210.56,103.652,-9.555,
39779080,-0.29,-1.003,0.85,-136.78,46.165,-80.045,
39779090,1.315,-0.955,1.777,-78.12,34.702,-131.162,
39779100,0.45,-0.895,1.667,51.555,17.342,-154.175,
39779110,-0.661,-0.122,1.155,158.865,-41.947,-288.89,
39779120,-1.104,0.935,0.497,231.297,-20.632,-307.317,
39779130,-1.493,1.144,0.456,219.695,-24.447,-227.167,
39779140,-0.918,0.915,-0.107,231.752,-36.575,-110.285,
39779150,-0.313,1.3,-1.196,273.7,-51.03,-2.695,
39779160,0.349,1.692,-1.46,257.057,-18.095,62.72,
39779170,0.581,0.998,-0.708,128.66,47.25,103.11,
39779180,0.394,-0.142,-0.169,22.382,73.832,127.977,
39779190,0.442,-0.718,-0.254,42.822,46.497,118.335,
39779200,0.952,-0.496,-0.512,73.64,7.472,58.222,
39779210,0.338,-1.765,0.4,36.89,160.44,33.477,
39779220,-1.062,-1.879,-0.738,354.147,-41.597,274.68,
39779230,1.992,1.963,1.934,463.855,-203.07,228.165,
39779240,-1.606,1.447,1.807,335.772,-138.442,270.795,
39779250,-1.876,-1.137,1.43,284.165,-210,111.265,
39779260,1.015,1.287,1.445,221.13,-244.247,-49.28,
39779270,1.214,0.709,1.065,66.447,-127.33,-75.162,
39779280,1.141,0.181,1.081,-14.42,-6.055,-25.672,
39779290,-0.317,-0.376,0.968,-52.43,49.56,-15.172,
39779300,0.002,-0.146,1.024,-55.982,51.887,-22.82,
39779310,-0.369,-0.51,0.924,-62.877,50.925,-12.25,
39779320,-0.653,-0.662,0.816,-40.862,33.057,-13.247,
39779330,-0.273,-0.454,0.885,-5.197,5.372,-19.74,
39779330,-0.087,-0.356,0.925,13.457,-9.397,-13.632,
39779350,-0.207,-0.217,0.967,22.522,-13.632,-4.34,
39779350,-0.096,-0.09,1.01,19.425,-14.542,1.837,
39779370,-0.043,-0.059,1.014,3.185,-8.12,-3.01,
39779370,-0.002,-0.098,1.008,-12.285,0.035,-1.645,
39779390,-0.046,-0.164,1.007,-27.807,8.12,5.18,
39779390,-0.092,-0.149,1.02,-40.04,13.597,9.222,
39779400,-0.095,-0.067,1.1,-55.247,17.517,11.252,
39779410,-0.319,-0.092,1.069,-74.83,21.787,3.097,
39779420,-0.274,-0.312,1.141,-96.565,15.522,-8.365,
39779430,-0.139,-0.1,1.179,-124.967,6.457,-12.32,
39779440,-0.086,-0.156,1.171,-163.03,6.037,-10.552,
39779450,-0.169,-0.234,1.15,-200.112,11.97,-9.73,
39779460,-0.247,-0.189,1.102,-230.597,18.095,-12.652,
39779470,-0.289,-0.156,1.061,-263.427,24.605,-19.162,
39779480,-0.36,-0.42,0.943,-283.622,25.935,-28.017,
39779490,-0.464,-0.66,0.907,-262.815,16.31,-41.947,
39779500,-0.276,-0.751,0.91,-261.24,11.917,-50.277,
39779510,-0.221,-0.991,0.994,-263.987,27.772,-58.275,
39779520,-0.416,-1.077,1.003,-243.18,52.202,-61.74,
39779530,-0.596,-1.162,0.646,-202.195,63.875,-67.025,
39779540,-0.558,-1.59,0.476,-153.247,79.94,-54.687,
39779550,-0.645,-1.451,-0.257,-119.945,81.882,-33.967,
39779560,-1.898,-1.369,0.089,-104.247,41.142,0.227,
39779570,-1.674,-1.158,0.576,-83.457,0.28,26.617,
39779580,-1.304,-0.896,0.653,-3.237,-70.175,114.257,
39779590,-0.809,-0.551,0.426,92.312,-128.975,202.44,
39779600,0.149,-0.087,-0.309,144.305,-134.085,249.935,
39779610,1.833,0.643,-1.009,192.36,-25.637,276.675,
39779620,1.994,1.138,-1.344,177.03,119.612,238.122,
39779630,1.469,1.125,-1.111,87.762,144.9,127.4,
39779640,1.313,0.51,-0.246,-13.265,84.752,63.595,
39779650,1.52,-0.461,0.153,-74.935,16.782,59.167,
39779660,1.31,-0.911,-0.506,-38.517,-45.955,52.99,
39779670,0.123,-1.812,0.564,38.5,-90.422,39.217,
39779670,-1.998,-1.998,-0.163,334.162,-231.787,183.592,
39779690,-1.747,0.285,0.477,521.027,-306.67,244.335,
39779690,1.728,1.402,1.996,416.692,-318.395,283.5,
39779710,-1.967,-0.991,1.31,398.002,-243.302,180.95,
39779710,-1.031,0.354,1.546,379.837,-305.865,44.012,
39779730,1.973,1.819,1.383,155.26,-244.405,-15.225,
39779730,1.184,0.76,1.111,9.012,-47.092,-33.39,
39779750,0.667,-0.214,1.174,-88.13,63.875,3.01,
39779750,-0.661,-0.425,0.977,-118.615,98.787,-4.252,
39779760,-0.669,-0.604,0.871,-95.305,75.67,-32.917,
39779770,-0.804,-0.948,0.651,-44.555,46.69,-59.342,
39779780,-0.274,-0.785,0.726,7.875,9.52,-59.85,
39779790,0.037,-0.548,0.904,54.215,-19.11,-28.017,
39779800,-0.263,-0.183,0.996,61.582,-27.212,6.755,
39779810,-0.216,0.052,1.054,46.48,-27.142,8.89,
39779820,0.003,0.095,1.049,23.082,-19.075,-5.145,
39779830,0.096,-0.095,1.014,1.19,-6.247,-11.112,
39779840,0.067,-0.154,0.994,-11.55,6.212,-5.862,
39779850,0.02,-0.206,0.986,-21.735,16.817,1.557,
39779860,-0.127,-0.244,0.968,-28.577,23.432,7.227,
39779870,-0.229,-0.269,0.949,-31.237,25.165,7.822,
39779880,-0.241,-0.266,0.942,-28.087,22.067,6.142,
39779890,-0.212,-0.278,0.946,-27.772,18.515,4.515,
39779900,-0.186,-0.242,0.959,-25.147,15.627,3.517,
39779910,-0.169,-0.214,0.987,-29.68,15.96,3.657,
39779920,-0.147,-0.201,1.021,-38.167,18.375,1.47,
39779930,-0.133,-0.16,1.082,-55.02,24.255,-1.417,
39779940,-0.18,-0.144,1.16,-81.427,31.185,-6.755,
39779950,-0.259,-0.132,1.226,-117.232,35.507,-15.435,
39779960,-0.329,-0.186,1.181,-158.427,30.642,-26.862,
39779970,-0.478,-0.296,1.122,-201.11,27.965,-45.745,
39779980,-0.548,-0.287,1.116,-229.915,24.815,-69.282,
39779990,-0.729,-0.504,1.114,-250.075,25.165,-95.97,
39780000,-0.833,-0.827,1.349,-242.865,2.835,-133.437,
39780010,-0.277,-0.878,0.572,-209.055,-3.22,-161.595,
39780020,-0.234,-1.808,-0.053,-124.337,74.287,-127.382,
39780030,-1.45,-1.998,-0.032,-118.002,167.965,-73.517,
39780040,-1.897,-1.983,-0.904,-28.665,87.885,-106.697,
39780050,-1.761,-1.11,-1.355,15.417,31.745,-151.462,
39780060,-1.998,-1.075,-0.77,-93.152,34.982,-58.852,
39780070,-1.747,-1.256,-0.354,-160.93,64.365,71.19,
39780070,0.016,-0.535,-0.128,-101.85,99.89,183.067,
39780080,1.057,-0.203,-0.085,-66.43,145.442,222.337,
39780090,1.335,-0.182,-0.01,-90.527,170.607,167.247,
39780100,1.502,0.224,-0.01,-91.525,167.387,90.037,
39780110,1.998,0.741,0.174,-85.645,232.942,26.197,
39780120,1.983,1.094,0.913,-61.092,296.17,-43.732,
39780130,1.056,0.285,0.831,-9.117,222.197,-115.832,
39780140,-1.137,0.46,1.979,105.192,15.96,-93.817,
39780150,-1.627,1.252,1.549,359.957,-330.54,49.035,
39780160,0.117,-1.705,0.384,473.567,-151.76,311.395,
39780170,-0.488,-0.457,1.484,298.445,-371.595,274.82,
39780180,0.116,1.044,1.371,341.32,-296.957,204.557,
39780190,-1.468,-0.219,1.067,332.867,-270.987,66.675,
39780200,-0.598,0.357,1.414,309.872,-261.415,-24.867,
39780210,0.994,0.133,1.493,224.682,-238.665,-65.187,
39780220,1.741,0.704,1.277,123.567,-152.495,-39.917,
39780230,0.55,0.003,1.074,23.59,-50.47,4.375,
39780240,-0.215,-0.432,0.95,-7.997,-11.882,25.305,
39780250,-0.391,-0.493,0.928,4.76,-16.572,19.6,
39780260,-0.287,-0.322,0.956,23.117,-29.522,3.937,
39780270,-0.072,-0.165,0.954,27.492,-34.772,-1.575,
39780280,0.157,0.047,0.988,19.197,-26.74,3.29,
39780290,-0.008,-0.179,0.968,1.312,-8.417,8.435,
39780300,-0.062,-0.235,0.964,-3.237,-0.07,9.362,
39780310,-0.042,-0.192,0.969,-2.415,3.937,5.25,
39780320,0.073,-0.174,0.978,-3.202,9.24,0.787,
39780330,0.082,-0.185,0.981,-6.685,20.265,1.47,
39780340,-0.05,-0.219,0.972,-10.482,30.8,3.937,
39780350,-0.14,-0.214,0.963,-10.797,36.015,3.552,
39780360,-0.178,-0.19,0.96,-9.66,35.735,1.855,
39780370,-0.229,-0.178,0.956,-9.817,34.597,0.367,
39780380,-0.281,-0.212,0.948,-10.815,30.502,-1.26,
39780390,-0.261,-0.201,0.943,-11.165,25.83,-1.995,
39780400,-0.251,-0.199,0.945,-11.025,20.93,-1.645,
39780410,-0.229,-0.197,0.949,-14.595,18.007,-1.505,
39780420,-0.208,-0.171,0.954,-18.06,16.1,-0.577,
39780420,-0.171,-0.163,0.974,-26.197,16.747,0.087,
39780440,-0.112,-0.133,1.007,-36.802,20.107,-0.84,
39780440,-0.084,-0.139,1.057,-53.532,29.54,-1.942,
39780460,-0.033,-0.083,1.138,-75.057,45.062,-3.64,
39780460,-0.095,-0.292,1.128,-100.87,66.727,-6.912,
39780480,-0.018,-0.195,1.245,-132.265,89.46,-12.442,
39780480,-0.096,-0.095,1.31,-171.832,114.957,-23.695,
39780500,-0.016,-0.297,1.127,-215.005,132.072,-37.625,
39780500,-0.528,-0.58,1.44,-229.302,146.37,-59.062,
39780510,-0.662,-0.978,1.343,-202.107,134.645,-59.167,
39780520,-0.531,-1.356,1.607,-137.55,183.872,-59.71,
39780530,-0.056,-1.756,0.955,-26.425,205.87,-95.585,
39780540,-0.112,-1.998,0.063,46.427,143.605,-180.635,
39780550,0.482,-1.638,-0.505,57.732,40.967,-254.852,
39780560,-0.493,-1.095,-0.14,38.045,69.335,-268.59,
39780570,-1.37,-1.209,-0.01,4.41,52.01,-233.135,
39780580,-0.924,-0.604,0.136,-22.19,-10.587,-167.685,
39780590,-0.607,-0.307,0.132,-34.72,-51.397,-102.585,
39780600,-0.182,-0.041,-0.163,-19.145,-65.012,-39.602,
39780610,0.327,0.423,-0.381,-24.972,-61.495,-10.342,
39780620,0.512,0.65,-0.265,-56.157,-57.4,-8.995,
39780630,0.476,0.878,-0.061,-79.555,-58.642,-4.042,
39780640,0.464,0.962,0.136,-88.13,-63.892,20.405,
39780650,0.819,0.935,-0.008,-67.427,-67.987,70.052,
39780660,1.025,1.14,-0.126,-43.505,-80.412,114.135,
39780670,0.222,0.151,0.897,-26.127,-100.257,133.455,
39780680,-1.374,-1.998,-0.3,200.83,5.442,223.405,
39780690,0.413,-0.348,1.159,461.492,-215.897,353.237,
39780700,0.294,1.6,1.733,336.735,-190.785,237.457,
39780710,-1.866,-0.061,1.15,324.292,-155.61,98.577,
39780720,-0.893,0.062,1.558,282.24,-193.917,-27.037,
39780730,1.869,1.109,1.421,193.637,-180.547,-73.097,
39780740,1.209,0.485,1.125,42.472,-72.117,-43.295,
39780750,0.415,-0.269,1.001,-25.987,8.365,0.157,
39780760,-0.335,-0.555,0.914,-36.75,29.855,16.117,
39780760,-0.432,-0.373,0.921,-14.245,17.377,3.955,
39780780,-0.322,-0.237,0.956,-1.26,3.57,-11.13,
39780780,-0.021,-0.18,0.985,-1.662,-1.207,-19.88,
39780800,-0.071,-0.16,0.981,-11.182,3.745,-14.77,
39780800,-0.2,-0.249,0.954,-17.062,7.752,-11.97,
39780820,-0.167,-0.206,0.979,-14.892,5.635,-16.712,
39780820,-0.125,-0.124,1.003,-18.935,6.212,-19.932,
39780830,-0.14,-0.166,0.997,-29.347,8.785,-21.577,
39780840,-0.113,-0.264,0.972,-37.152,12.285,-26.215,
39780850,-0.092,-0.32,0.951,-39.707,15.575,-28.175,
39780860,-0.048,-0.264,0.969,-41.965,19.635,-24.167,
39780870,-0.025,-0.255,0.959,-48.527,24.832,-18.06,
39780880,-0.171,-0.234,1.03,-59.412,32.375,-13.912,
39780890,-0.17,-0.245,1.029,-70.472,31.657,-12.32,
39780900,-0.161,-0.228,1.067,-86.467,30.975,-11.777,
39780910,-0.148,-0.212,1.12,-109.532,29.942,-12.075,
39780920,-0.143,-0.211,1.147,-138.145,29.26,-12.232,
39780930,-0.109,-0.244,1.123,-174.702,30.31,-12.425,
39780940,-0.153,-0.208,1.08,-209.982,37.275,-13.807,
39780950,-0.154,-0.156,1.005,-245.192,46.742,-20.125,
39780960,-0.114,-0.409,0.985,-260.015,53.025,-26.6,
39780970,-0.012,-0.277,0.947,-249.707,51.992,-21.332,
39780980,0.015,-0.548,1.109,-278.652,58.467,-13.51,
39780990,0.329,-0.835,1.225,-291.077,86.485,11.97,
39781000,0.085,-1.059,1.375,-278.425,128.957,33.74,
39781010,-0.008,-1.095,1.109,-247.765,160.107,48.965,
39781020,-0.061,-1.068,0.459,-201.985,157.5,83.527,
39781030,-0.025,-0.918,0.597,-185.185,136.08,60.077,
39781040,-0.482,-0.742,0.484,-130.217,79.065,37.835,
39781050,0.196,-1.184,0.691,-100.52,9.1,35.017,
39781060,0.93,-1.317,0.903,-40.495,-70.315,22.277,
39781070,0.523,-1.038,1.335,9.257,-115.447,-35.997,
39781080,-0.23,-0.358,1.147,70.77,-140.56,-70.717,
39781090,-0.486,0.36,0.891,125.405,-168.262,-63.962,
39781100,-0.334,0.622,0.901,147.91,-182.297,-48.912,
39781110,-0.129,0.613,0.615,180.722,-167.072,-27.317,
39781120,0.049,0.976,-0.483,248.57,-134.557,-10.395,
39781130,0.38,1.475,-1.038,276.097,-77.14,-18.27,
39781140,0.451,1.061,-0.855,199.097,-4.672,-31.132,
39781150,0.38,-0.052,-0.33,141.155,61.6,-41.842,
39781160,0.124,-0.75,-0.592,166.337,93.642,-50.155,
39781170,-0.075,-0.309,-1.385,203.437,74.55,-56.787,
39781170,-0.454,-1.547,0.478,152.355,96.32,-35.332,
39781190,-1.679,-1.998,-0.607,346.29,19.442,165.725,
39781190,1.192,1.679,1.536,485.012,-198.065,299.827,
39781210,-1.211,1.909,1.998,360.465,-143.202,224.717,
39781210,-1.811,-1.472,1.299,247.66,-180.355,94.762,
39781230,1.741,1.87,1.293,167.667,-197.522,-15.505,
39781230,0.795,0.31,1.082,10.272,-70.577,-70.052,
39781250,0.981,-0.7,0.998,-30.975,12.075,-36.907,
39781250,0.027,-0.342,0.98,-38.22,53.812,2.835,
39781260,-0.531,-0.333,0.935,-40.6,57.697,21.735,
39781270,-0.733,-0.423,0.895,-32.06,40.722,7.245,
39781280,-0.431,-0.233,0.953,-16.012,17.762,-18.76,
39781290,0.013,-0.149,1.018,-16.03,8.242,-28.962,
39781300,0.01,-0.209,0.993,-31.22,13.807,-16.642,
39781310,-0.203,-0.34,0.899,-31.465,15.19,-1.872,
39781320,-0.268,-0.24,0.929,-16.537,6.93,8.487,
39781330,-0.33,-0.274,0.921,-9.992,-1.452,2.17,
39781340,-0.122,-0.299,0.935,-0.717,-10.027,-2.712,
39781350,-0.137,-0.233,0.956,8.697,-15.242,1.05,
39781360,-0.285,-0.215,0.953,5.705,-15.942,7.07,
39781370,-0.111,-0.244,0.955,10.762,-18.9,-4.392,
39781380,-0.01,-0.205,0.977,12.075,-19.967,-2.502,
39781390,-0.082,-0.187,0.975,8.312,-14.927,0.035,
39781400,-0.151,-0.224,0.966,5.862,-12.337,-1.47,
39781410,-0.061,-0.211,0.971,6.177,-10.325,-6.755,
39781420,-0.078,-0.221,0.961,4.41,-6.912,-7.735,
39781430,-0.098,-0.206,0.969,3.57,-3.815,-6.212,
39781440,-0.127,-0.184,0.974,0.507,-1.802,-6.352,
39781450,-0.085,-0.143,0.997,-4.217,0.665,-7.56,
39781460,-0.15,-0.099,1.019,-12.162,4.2,-11.217,
39781470,-0.198,-0.021,1.077,-25.637,7.367,-18.042,
39781480,-0.309,-0.042,1.15,-47.827,6.09,-29.312,
39781490,-0.401,-0.08,1.198,-82.915,-1.785,-41.65,
39781500,-0.418,-0.391,1.133,-127.452,-17.167,-52.062,
39781510,-0.34,-0.386,1.049,-168.367,-11.777,-63.42,
39781510,-0.545,-0.35,1.179,-207.515,-2.345,-87.272,
39781530,-0.435,-0.441,1.043,-228.41,-6.667,-108.062,
39781530,-0.546,-0.824,1.001,-223.44,1.172,-121.345,
39781550,-0.732,-1.093,0.822,-169.172,-10.167,-145.092,
39781550,-0.566,-1.837,1.23,-114.992,26.407,-164.727,
39781570,0.594,-1.998,1.044,-79.957,122.062,-150.92,
39781570,-1.978,-1.722,-1.668,106.05,173.302,1.767,
39781580,-1.18,-0.2,-0.961,125.317,38.29,-9.765,
39781590,0.079,-1.602,-0.185,-79.782,46.97,126.017,
39781600,-0.235,-1.971,-0.443,-105.315,11.515,230.037,
39781610,0.319,-0.436,-0.742,-34.807,-27.125,237.352,
39781620,0.588,-0.129,-0.35,-128.572,-14.35,287.787,
39781630,0.76,-0.787,-0.31,-210.56,-2.012,305.795,
39781640,1.191,0.325,-0.001,-193.357,7.35,284.252,
39781650,1.403,1.348,0.137,-209.825,28.227,263.305,
39781660,1.839,1.695,-0.004,-211.907,23.852,218.575,
39781670,1.865,1.446,0.528,-208.407,2.257,140.455,
39781680,0.727,-0.533,1.612,-145.6,-58.8,2.047,
39781690,0.074,-1.125,-0.125,341.372,-167.72,26.81,
39781700,-1.819,-0.319,0.858,461.422,-188.79,-8.155,
39781710,1.015,-0.739,1.62,346.885,-134.172,82.67,
39781720,-0.87,0.814,1.445,425.267,-124.127,2.975,
39781730,-0.901,-0.174,1.613,351.995,-144.83,-11.9,
39781740,0.206,0.484,1.614,277.777,-169.382,-43.347,
39781750,1.032,0.843,1.242,158.357,-122.062,-43.942,
39781760,0.713,0.38,1.075,44.082,-46.987,-24.062,
39781770,0.321,0.042,1.036,-11.97,8.89,-10.972,
39781780,0.109,-0.153,1.022,-41.807,37.467,-10.167,
39781790,-0.159,-0.204,1.015,-59.727,51.397,-3.937,
39781800,-0.319,-0.239,1.014,-73.15,52.08,4.147,
39781810,-0.426,-0.279,1.023,-82.285,42.857,4.252,
39781820,-0.382,-0.295,0.991,-84.385,27.212,-3.605,
39781830,-0.26,-0.279,1.039,-90.895,11.567,0,
39781840,-0.246,-0.234,1.061,-105.192,1.4,-1.032,
39781850,-0.297,-0.223,1.093,-129.902,-2.747,-5.652,
39781860,-0.207,-0.161,1.05,-148.89,-11.252,-9.782,
39781870,-0.041,-0.233,1.035,-166.705,-10.622,-7.052,
39781880,0.05,-0.238,0.999,-180.39,0.07,-0.665,
39781890,0.212,-0.256,1.005,-189.577,16.887,9.45,
39781900,0.283,-0.479,0.99,-187.512,34.09,26.915,
39781910,0.331,-0.434,1.046,-172.27,50.312,46.375,
39781920,0.252,-0.484,1.054,-157.027,60.76,75.075,
39781920,-0.043,-0.415,1.065,-146.58,60.532,99.96,
39781940,-0.161,-0.501,0.791,-133.875,45.797,122.972,
39781940,0.156,-1.223,0.682,-128.817,15.225,136.71,
39781960,0.155,-1.316,0.665,-120.89,-3.465,133.787,
39781960,0.487,-0.702,0.958,-101.762,9.082,117.792,
39781980,-0.371,-0.55,0.631,-120.995,49.822,121.24,
39781980,-0.588,-1.046,0.816,-131.67,61.075,105.017,
39782000,1.111,-1.187,1.471,-129.902,50.295,44.397,
39782000,1.241,-1.481,1.768,-125.247,47.512,-46.217,
39782010,0.449,-1.726,1.948,-109.515,35.14,-186.392,
39782020,-1.056,-1.626,1.989,-86.397,-15.89,-284.865,
39782030,-1.875,-1.098,1.687,-79.992,-84.525,-309.505,
39782040,-1.726,-0.436,1.518,-99.592,-120.137,-265.212,
39782050,-1.538,-0.359,1.558,-146.562,-114.362,-173.39,
39782060,-1.287,-0.706,1.636,-184.94,-94.062,-87.062,
39782070,-0.885,-0.731,1.744,-194.267,-75.18,-28.07,
39782080,-0.506,-0.768,1.755,-193.585,-64.802,-3.902,
39782090,-0.277,-0.867,1.661,-179.795,-58.485,-13.685,
39782100,-0.234,-0.817,1.524,-155.435,-56.7,-40.897,
39782110,-0.302,-0.725,1.268,-129.115,-58.222,-69.895,
39782120,-0.372,-0.717,0.962,-97.545,-63.105,-93.975,
39782130,-0.427,-0.62,0.708,-75.162,-65.695,-110.652,
39782140,-0.551,-0.601,0.471,-59.727,-63.682,-110.827,
39782150,-0.528,-0.618,0.266,-44.17,-52.202,-90.265,
39782160,-0.381,-0.697,0.139,-30.73,-29.487,-64.732,
39782170,-0.325,-0.828,0.046,-13.772,-8.312,-44.922,
39782180,-0.239,-0.91,-0.029,0.857,3.027,-35.647,
39782190,-0.103,-0.972,-0.131,14.997,3.71,-36.067,
39782200,-0.005,-0.966,-0.218,29.522,2.1,-44.835,
39782210,-0.113,-0.885,-0.368,39.777,-1.242,-55.772,
39782220,-0.301,-0.787,-0.51,42.245,-11.392,-63.07,
39782230,-0.493,-0.793,-0.676,41.16,-27.265,-54.81,
39782240,-0.53,-0.717,-0.903,34.947,-43.417,-31.937,
39782250,-0.361,-0.543,-1.085,21.035,-38.92,1.61,
39782260,-0.262,-0.369,-0.926,-10.465,-14.157,36.855,
39782260,-0.362,-0.441,-0.543,-55.265,15.33,66.517,
39782280,-0.57,-0.579,-0.195,-81.287,19.582,88.497,
39782280,-0.486,-0.533,0.032,-89.407,-4.865,104.352,
39782300,-0.1,-0.537,0.165,-95.48,-26.285,120.47,
39782300,0.322,-0.664,0.263,-88.9,-20.597,129.57,
39782320,0.58,-0.736,0.22,-61.057,8.225,124.46,
39782320,0.481,-0.609,0.065,-27.702,25.41,98.49,
39782330,0.346,-0.496,0.017,-11.83,17.29,51.537,
39782340,0.307,-0.546,0.034,-9.03,6.545,9.975,
39782350,0.156,-0.543,-0.035,-0.682,4.34,-16.362,
39782360,-0.043,-0.391,-0.138,8.872,3.132,-31.762,
39782370,-0.075,-0.294,-0.177,8.242,1.435,-35.35,
39782380,0.014,-0.295,-0.117,5.932,5.285,-31.342,
39782390,-0.038,-0.273,-0.003,6.212,10.22,-27.597,
39782400,-0.13,-0.215,0.054,7.315,9.432,-22.12,
39782410,-0.087,-0.148,0.106,5.862,4.795,-11.025,
39782420,0.007,-0.136,0.207,0.595,2.712,1.89,
39782430,0.022,-0.183,0.333,-5.092,3.745,12.32,
39782440,0.033,-0.212,0.431,-7.63,2.992,18.27,
39782450,0.105,-0.184,0.512,-7.91,1.312,21.787,
39782460,0.18,-0.221,0.567,-9.31,0.542,21.752,
39782470,0.29,-0.209,0.677,-10.885,2.975,18.41,
39782480,0.266,-0.139,0.77,-26.53,9.45,18.987,
39782490,0.242,-0.412,0.992,-23.117,9.52,12.355,
39782500,0.152,-0.378,1.189,-36.872,3.605,-16.467,
39782510,-0.051,-0.489,1.269,-30.887,-5.442,-17.08,
39782520,0.019,-0.627,1.297,-13.037,-11.97,-11.55,
39782530,0.041,-0.729,1.256,-0.332,-13.09,-8.732,
39782540,0.072,-0.82,1.211,11.077,-8.715,-7.105,
39782550,0.138,-0.977,1.144,20.982,-1.925,-5.687,
39782560,0.209,-1.2,1.052,31.622,2.975,-7.717,
39782570,0.159,-1.361,0.968,36.067,2.695,-14.332,
39782580,0.093,-1.63,1.052,43.802,-9.835,-20.597,
39782590,0.076,-1.211,0.934,29.89,-19.022,-10.395,
39782600,0.097,-1.856,1.053,8.995,-21.262,-2.817,
39782610,0.092,-1.947,1.085,63.472,-33.355,-6.895,
39782620,0.045,-1.893,0.854,94.815,-39.602,7.332,
39782630,0.287,-1.998,0.495,119.525,-47.88,10.675,
39782640,0.602,-1.996,0.302,115.797,-43.837,-2.502,
39782650,0.535,-1.993,0.22,91,-32.987,-19.775,
39782660,0.398,-1.998,0.21,69.405,-26.302,-38.027,
39782670,0.308,-1.998,0.176,46.795,-27.755,-54.512,
39782670,0.227,-1.97,0.162,24.762,-27.002,-61.425,
39782690,0.202,-1.86,0.23,11.182,-19.775,-70.087,
39782690,0.049,-1.728,0.315,-5.547,-11.025,-74.655,
39782710,-0.005,-1.634,0.408,-20.492,-1.767,-74.2,
39782710,0.027,-1.565,0.48,-33.862,6.912,-67.13,
39782720,0.108,-1.434,0.562,-48.335,16.817,-63.105,
39782730,0.133,-1.327,0.65,-67.147,24.535,-63.682,
39782740,0.13,-1.251,0.733,-85.89,26.32,-71.12,
39782750,0.071,-1.144,0.796,-102.76,24.605,-79.38,
39782760,-0.02,-1.069,0.818,-115.08,22.067,-79.887,
39782770,-0.044,-1.006,0.819,-119.157,19.215,-70.787,
39782780,-0.001,-0.957,0.79,-116.83,17.675,-54.967,
39782790,0.068,-0.891,0.726,-109.252,16.887,-38.692,
39782800,0.108,-0.839,0.655,-98.595,16.397,-24.815,
39782810,0.036,-0.774,0.552,-86.852,11.707,-12.897,
39782820,-0.006,-0.692,0.433,-77.455,0.647,0.402,
39782830,0.029,-0.611,0.327,-71.627,-10.202,16.747,
39782840,0.137,-0.583,0.258,-67.48,-13.93,33.687,
39782850,0.223,-0.556,0.221,-60.445,-8.837,48.335,
39782860,0.192,-0.52,0.213,-49.49,-4.27,59.342,
39782870,0.069,-0.318,0.161,-43.627,-8.995,65.502,
39782880,0.106,-0.336,0.177,-36.802,-23.922,66.132,
39782890,0.161,-0.167,0.139,-48.282,-39.375,60.095,
39782900,0.638,-0.035,0.323,-35,-29.47,62.702,
39782910,0.95,0.046,0.603,-25.357,-2.432,47.197,
39782920,0.883,0.019,0.889,-12.215,1.715,-0.017,
39782930,0.83,0.081,1.085,11.357,-21.875,-67.917,
39782940,0.857,0.181,1.212,39.97,-45.027,-128.817,
39782950,0.587,0.283,1.12,69.037,-51.677,-171.465,
39782960,0.16,0.434,0.963,97.457,-53.322,-193.252,
39782970,-0.222,0.565,0.804,113.05,-53.917,-189.035,
39782980,-0.493,0.597,0.675,114.572,-53.795,-160.667,
39782990,-0.645,0.535,0.56,110.722,-46.935,-115.08,
39783000,-0.692,0.469,0.453,110.705,-35.297,-59.132,
39783010,-0.586,0.389,0.434,114.502,-18.392,-2.852,
39783010,-0.384,0.22,0.518,116.76,-0.07,43.802,
39783030,-0.232,-0.014,0.574,121.327,13.632,70.122,
39783030,-0.081,-0.138,0.609,133.962,15.452,64.855,
39783050,0.062,-0.213,0.625,146.562,20.632,44.94,
39783050,0.077,-0.338,0.629,152.565,33.687,23.852,
39783070,0.02,-0.459,0.672,152.442,46.497,-1.085,
39783070,-0.109,-0.6,0.721,151.235,55.212,-30.187,
39783080,-0.297,-0.6,0.715,156.66,62.265,-54.337,
39783090,-0.552,-0.407,0.775,159.932,73.062,-64.837,
39783100,-0.947,-0.351,0.873,157.22,85.032,-57.47,
39783110,-1.395,-0.211,0.995,156.835,91.367,-32.427,
39783120,-1.68,0.043,1.271,156.625,94.657,26.95,
39783130,-1.613,-0.044,1.79,147.472,109.882,112.07,
39783140,-1.285,-0.607,1.998,149.415,141.312,219.52,
39783150,-0.452,-1.032,1.998,179.27,173.215,315,
39783160,0.923,-1.403,1.96,243.897,216.107,330.592,
39783170,1.526,-1.448,1.998,289.415,258.965,256.217,
39783180,1.193,-1.872,1.998,240.835,267.26,64.68,
39783190,0.622,-1.934,1.998,252.28,244.93,-66.622,
39783200,0.421,-1.998,1.996,273.28,220.64,-126.14,
39783210,-0.028,-1.951,1.864,244.142,207.305,-146.107,
39783220,-0.258,-1.795,1.737,207.62,198.292,-115.902,
39783230,-0.097,-1.582,1.802,165.725,187.442,-52.972,
39783240,0.115,-1.795,1.896,104.51,164.045,13.895,
39783250,0.502,-1.985,1.876,54.67,137.462,50.942,
39783260,0.678,-1.998,1.736,36.715,117.862,63.577,
39783270,0.47,-1.996,1.549,26.285,98.857,61.355,
39783280,0.302,-1.868,1.291,8.015,65.012,53.742,
39783290,0.251,-1.465,1.078,-7.945,27.002,40.407,
39783300,0.158,-1.351,0.881,-38.062,1.96,34.457,
39783310,0.087,-0.787,0.7,-53.987,-14.245,14.892,
39783320,0.08,-0.541,0.602,-33.075,-26.565,16.292,
39783330,0.131,-0.076,0.469,-50.942,-32.725,13.702,
39783340,0.039,0.123,0.338,-66.622,-40.81,7.472,
39783350,0.001,0.203,0.274,-54.442,-45.447,-0.56,
39783360,-0.071,0.279,0.238,-31.027,-44.292,0.105,
39783370,-0.129,0.31,0.162,-6.545,-44.345,3.255,
39783380,-0.136,0.327,0,12.88,-46.707,6.615,
39783390,-0.216,0.256,-0.078,22.75,-49,8.452,
39783390,-0.359,0.019,-0.133,21.56,-47.652,10.552,
39783410,-0.451,-0.239,-0.166,19.162,-44.607,17.482,
39783410,-0.47,-0.414,-0.151,18.2,-41.107,24.762,
39783420,-0.505,-0.542,-0.151,15.925,-39.567,32.69,
39783430,-0.534,-0.67,-0.123,9.572,-41.702,40.46,
39783440,-0.551,-0.801,-0.094,-1.032,-45.027,52.08,
39783450,-0.498,-0.907,-0.051,-12.005,-47.967,68.075,
39783460,-0.314,-0.977,0.015,-23.222,-46.497,80.097,
39783470,-0.164,-0.985,0.084,-32.637,-42.122,82.197,
39783480,-0.115,-0.919,0.174,-37.52,-39.847,70.647,
39783490,-0.127,-0.81,0.255,-40.757,-40.145,53.235,
39783500,-0.153,-0.678,0.351,-42.63,-40.425,36.015,
39783510,-0.188,-0.771,0.381,-39.375,-39.812,17.465,
39783520,-0.228,-0.241,0.388,-23.362,-37.362,-1.242,
39783530,-0.54,-0.286,0.301,-54.302,-25.637,5.985,
39783540,-0.274,-0.334,0.32,-59.99,-25.042,-4.76,
39783550,-0.249,-0.188,0.379,-60.882,-18.095,-19.18,
39783560,-0.322,-0.012,0.522,-60.69,-1.505,-2.52,
39783570,-0.274,-0.03,0.652,-69.142,9.292,-1.295,
39783580,-0.203,0.013,0.774,-74.55,17.08,-5.11,
39783590,0.023,0.102,0.958,-66.937,33.267,-10.29,
39783600,0.1,0.155,1.164,-58.467,56.087,-24.885,
39783610,0.049,0.195,1.358,-47.617,75.932,-48.282,
39783620,0.059,0.263,1.602,-28.28,89.547,-75.845,
39783630,-0.021,0.203,1.808,-0.787,102.515,-98.595,
39783640,-0.247,0.122,1.936,37.415,112.385,-115.972,
39783650,-0.365,0.087,1.892,82.652,111.877,-118.685,
39783660,-0.175,0.098,1.797,116.97,108.325,-114.257,
39783670,-0.106,-0.145,1.77,126.332,115.097,-109.427,
39783680,-0.247,-0.294,1.753,128.31,114.432,-112.997,
39783690,-0.349,-0.389,1.734,130.147,103.46,-110.145,
39783700,-0.404,-0.385,1.646,126.577,92.837,-92.522,
39783710,-0.403,-0.584,1.575,110.985,89.897,-54.792,
39783720,-0.138,-0.629,1.665,83.772,93.555,-16.187,
39783730,0.2,-0.787,1.899,43.452,105.63,10.622,
39783740,0.375,-0.971,1.998,15.382,110.145,20.58,
39783750,0.478,-1.048,1.998,0.805,91.735,12.425,
39783760,0.523,-1.063,1.998,-10.22,53.987,-6.667,
39783760,0.392,-1.042,1.998,-16.432,11.305,-26.005,
39783780,0.201,-0.967,1.998,-18.217,-29.662,-41.667,
39783780,0.001,-0.848,1.998,-20.702,-59.78,-49.332,
39783800,-0.262,-0.74,1.952,-30.012,-80.43,-43.417,
39783800,-0.43,-0.693,1.766,-43.89,-98.7,-30.537,
39783820,-0.496,-0.718,1.55,-57.277,-112.717,-18.34,
39783820,-0.564,-0.746,1.35,-68.057,-117.67,-13.352,
39783830,-0.577,-0.811,1.226,-76.037,-114.922,-17.657,
39783840,-0.59,-0.822,1.091,-79.467,-105.647,-33.355,
39783850,-0.692,-0.774,0.897,-71.61,-97.615,-49.875,
39783860,-0.684,-0.665,0.673,-61.302,-94.395,-71.837,
39783870,-0.676,-0.557,0.447,-53.217,-89.145,-84.175,
39783880,-0.708,-0.492,0.281,-49,-81.235,-87.517,
39783890,-0.742,-0.48,0.203,-49.297,-71.54,-81.9,
39783900,-0.761,-0.474,0.128,-52.832,-64.12,-69.93,
39783910,-0.673,-0.463,0.075,-55.177,-58.782,-57.452,
39783920,-0.557,-0.456,0.033,-57.855,-52.132,-47.757,
39783930,-0.517,-0.439,-0.032,-59.272,-43.12,-41.072,
39783940,-0.525,-0.379,-0.111,-55.422,-39.27,-37.117,
39783950,-0.49,-0.269,-0.18,-52.797,-42.192,-32.515,
39783960,-0.351,-0.156,-0.239,-55.79,-44.537,-20.825,
39783970,-0.258,-0.087,-0.262,-62.212,-38.167,-1.102,
39783980,-0.23,-0.064,-0.256,-69.562,-33.652,17.99,
39783990,-0.076,-0.024,-0.22,-75.985,-33.81,36.032,
39784000,0.157,0.007,-0.192,-85.085,-33.617,51.047,
39784010,0.341,-0.016,-0.171,-96.145,-28.997,55.212,
39784020,0.387,-0.057,-0.161,-100.135,-24.29,46.76,
39784030,0.371,-0.005,-0.104,-95.095,-20.72,26.792,
39784040,0.273,0.063,-0.02,-94.535,-14.577,6.615,
39784050,0.198,0.049,0.04,-98.175,-3.902,-8.82,
39784060,0.09,0.068,0.122,-95.655,9.695,-14.35,
39784070,-0.083,0.095,0.317,-93.1,27.247,-14.577,
39784080,-0.354,-0.006,0.461,-94.955,37.8,-6.037,
39784080,-0.486,-0.076,0.669,-97.212,35.402,10.202,
39784100,-0.321,-0.163,0.868,-100.782,23.275,25.27,
39784100,-0.124,-0.281,1.044,-101.727,13.055,31.552,
39784120,-0.055,-0.35,1.244,-97.387,5.372,17.237,
39784120,-0.244,-0.411,1.447,-87.15,0.7,-5.862,
39784140,-0.523,-0.449,1.591,-74.935,-8.995,-23.555,
39784140,-0.747,-0.446,1.657,-65.555,-24.535,-32.077,
39784160,-0.827,-0.498,1.686,-56.472,-36.435,-29.347,
39784160,-0.899,-0.578,1.717,-45.412,-35.192,-12.985,
39784170,-1.066,-0.636,1.732,-33.722,-33.127,11.095,
39784180,-1.063,-1.085,1.657,-15.435,-39.287,31.447,
39784190,-0.733,-0.728,1.754,-10.185,-48.737,12.985,
39784200,-1.071,-0.904,1.692,-29.172,-39.935,81.445,
39784210,-0.652,-1.25,1.818,-38.797,-29.75,106.417,
39784220,-0.642,-1.269,1.775,-22.19,-18.602,103.18,
39784230,-0.619,-1.22,1.672,5.95,1.242,78.75,
39784240,-0.706,-1.249,1.513,29.855,16.765,39.83,
39784250,-0.864,-1.134,1.334,44.957,28.245,10.15,
39784260,-0.877,-1.048,1.199,38.692,40.267,9.817,
39784270,-0.702,-1.118,1.106,18.602,54.757,29.382,
39784280,-0.398,-1.25,1.168,2.905,74.637,60.55,
39784290,-0.126,-1.501,1.249,-0.63,85.89,75.512,
39784300,-0.047,-1.635,1.271,9.467,77,67.725,
39784310,-0.018,-1.687,1.14,24.465,49.402,49.542,
39784320,0.016,-1.642,0.981,33.897,22.172,38.745,
39784330,0.006,-1.601,0.799,31.377,-0.192,39.777,
39784340,0.05,-1.479,0.621,22.662,-22.575,49.665,
39784350,0.149,-1.387,0.502,10.29,-38.115,67.427,
39784360,0.235,-1.38,0.364,0.035,-51.432,86.975,
39784370,0.404,-1.368,0.247,-4.427,-62.317,97.055,
39784380,0.54,-1.336,0.156,-6.09,-72.345,88.427,
39784390,0.465,-1.245,0.077,-6.492,-78.837,67.392,
39784400,0.283,-1.133,-0.01,-6.86,-87.132,42.14,
39784410,0.161,-0.986,-0.122,-10.325,-95.165,20.3,
39784420,0.129,-0.8,-0.229,-16.695,-96.267,8.12,
39784430,0.097,-0.62,-0.288,-28.192,-87.78,2.327,
39784440,0.072,-0.476,-0.283,-43.435,-74.392,-0.612,
39784450,0.091,-0.358,-0.21,-56.735,-59.832,-3.15,
39784460,0.075,-0.227,-0.127,-63.21,-51.24,-8.907,
39784470,0.056,-0.078,-0.061,-64.085,-45.937,-16.257,
39784480,0.072,0.058,-0.015,-62.982,-41.86,-22.26,
39784490,0.049,0.161,0.029,-62.282,-36.487,-24.115,
39784500,0.021,0.22,0.074,-59.727,-31.202,-22.75,
39784510,-0.017,0.258,0.118,-53.83,-24.71,-18.042,
39784510,-0.069,0.285,0.119,-44.52,-22.4,-13.947,
39784530,-0.109,0.331,0.119,-34.072,-22.4,-10.867,
39784530,-0.181,0.355,0.129,-25.917,-20.177,-4.48,
39784550,-0.235,0.343,0.189,-17.045,-15.312,8.505,
39784550,-0.141,0.269,0.236,-3.325,-9.607,26.775,
39784570,0.123,0.106,0.315,10.412,-3.815,47.862,
39784570,0.159,-0.285,0.261,17.255,-12.635,52.027,
39784580,0.139,-0.123,0.204,15.907,-34.457,35.77,
39784590,0.061,-0.679,0.33,-14.385,-30.607,38.43,
39784600,0.12,-0.95,0.439,-24.955,-37.94,1.382,
39784610,-0.413,-1.005,0.561,-25.235,-46.865,-27.335,
39784620,-0.433,-1.067,0.736,-27.002,-44.187,-9.642,
39784630,-0.102,-1.199,0.943,-28.07,-31.447,3.57,
39784640,0.931,-1.372,1.707,-10.867,5.407,13.02,
39784650,1.293,-1.697,1.668,54.67,20.965,-30.24,
39784660,-0.056,-0.966,1.242,89.232,-57.067,-130.672,
39784670,-0.607,-0.141,1.242,16.607,-128.642,-141.12,
39784680,0.006,-0.503,1.617,-63.682,-105.805,-47.547,
39784690,-0.078,-1.312,1.912,-85.89,-57.75,37.905,
39784700,-0.176,-1.169,1.892,-46.935,-53.83,65.572,
39784710,-0.004,-0.705,1.639,-27.475,-68.477,69.51,
39784720,0.077,-0.764,1.571,-54.302,-64.767,61.932,
39784730,-0.077,-0.985,1.554,-69.195,-55.51,33.617,
39784740,-0.038,-1.059,1.641,-56.577,-46.305,-0.017,
39784750,0.037,-1.198,1.661,-37.45,-32.287,-24.045,
39784760,0.047,-1.34,1.562,-11.427,-14.227,-44.52,
39784770,-0.103,-1.241,1.346,17.675,-4.077,-65.065,
39784780,-0.189,-1.136,1.189,24.36,-1.522,-74.865,
39784790,-0.102,-1.252,1.126,15.785,7.98,-63.735,
39784800,-0.018,-1.358,1.076,10.832,18.882,-43.067,
39784810,0.09,-1.409,1.037,7.49,28.997,-18.567,
39784820,0.266,-1.479,1.044,-0.437,33.25,4.445,
39784830,0.396,-1.637,1.125,-10.605,31.29,17.692,
39784830,0.426,-1.753,1.154,-12.827,19.967,19.827,
39784850,0.388,-1.795,1.101,-9.66,0.577,14.367,
39784850,0.312,-1.71,0.94,-5.827,-23.275,2.362,
39784870,0.16,-1.573,0.698,-3.15,-42.752,-3.885,
39784870,0.051,-1.408,0.46,-2.677,-53.305,-2.012,
39784890,-0.056,-1.234,0.272,-9.397,-56.525,11.095,
39784890,-0.078,-1.104,0.152,-23.87,-58.432,27.387,
39784910,-0.091,-1.025,0.09,-34.107,-61.337,37.152,
39784910,-0.158,-0.889,0.018,-38.412,-66.272,43.4,
39784920,-0.22,-0.718,-0.068,-42.035,-71.557,49.875,
39784930,-0.272,-0.565,-0.147,-49.42,-77.07,58.52,
39784940,-0.149,-0.426,-0.242,-59.377,-78.522,70.98,
39784950,0.182,-0.37,-0.204,-71.067,-67.165,82.81,
39784960,0.271,-0.476,-0.097,-81.532,-59.342,72.887,
39784970,0.25,-0.492,-0.01,-75.232,-62.317,38.185,
39784980,0.144,-0.366,-0.027,-59.587,-69.195,3.43,
39784990,0.023,-0.235,-0.086,-49,-74.532,-20.667,
39785000,-0.08,-0.121,-0.124,-41.615,-78.767,-31.762,
39785010,-0.144,-0.039,-0.136,-37.642,-81.935,-31.167,
39785020,-0.144,-0.003,-0.132,-35.472,-80.92,-22.155,
39785030,-0.15,0.013,-0.107,-34.3,-74.777,-7.612,
39785040,-0.12,0.016,-0.102,-34.405,-70.56,7.717,
39785050,0.022,0.015,-0.076,-36.907,-64.942,21.787,
39785060,0.066,-0.02,-0.035,-42.787,-58.782,31.972,
39785070,-0.002,-0.111,0.079,-47.04,-53.077,35.087,
39785080,-0.058,-0.188,0.205,-46.077,-57.277,37.555,
39785090,-0.018,-0.181,0.203,-36.417,-64.767,41.72,
39785100,0.04,-0.129,0.158,-27.86,-72.24,41.09,
39785110,0.069,-0.167,0.16,-31.972,-73.657,37.52,
39785120,0.061,-0.296,0.181,-37.8,-68.53,33.407,
39785130,0.048,-0.375,0.201,-38.762,-58.17,27.23,
39785140,0.032,-0.38,0.226,-37.502,-42.77,23.205,
39785150,-0.094,-0.498,0.242,-43.417,-29.977,18.655,
39785160,-0.08,-0.563,0.291,-53.55,-21.367,5.53,
39785170,-0.105,-0.597,0.37,-59.325,-11.13,-1.47,
39785180,-0.03,-0.587,0.545,-65.17,4.69,-9.31,
39785190,-0.101,-0.662,0.66,-63.945,19.67,-14.385,
39785200,-0.225,-0.685,0.78,-56.035,30.45,-17.675,
39785210,-0.342,-0.659,0.9,-50.155,33.442,-13.23,
39785220,-0.275,-0.825,1.143,-43.417,30.975,-5.337,
39785230,-0.321,-0.675,1.255,-54.915,34.632,19.88,
39785240,-0.384,-1.353,1.49,-35.945,31.517,48.02,
39785250,-0.378,-1.298,1.601,-14.542,10.185,27.282,
39785260,-0.651,-1.244,1.591,4.13,-9.73,46.917,
39785260,-0.54,-1.313,1.454,20.527,-30.537,57.645,
39785280,-0.24,-1.144,1.369,40.74,-32.812,58.8,
39785280,-0.179,-1.195,1.132,68.792,-13.772,67.637,
39785300,-0.198,-1.389,0.82,92.54,4.322,65.782,
39785300,-0.069,-1.381,0.576,114.082,13.265,58.1,
39785320,-0.021,-1.471,0.474,115.692,18.987,55.842,
39785320,0.016,-1.781,0.416,98.805,26.215,61.862,
39785330,0.149,-1.998,0.43,92.12,32.725,67.515,
39785340,0.177,-1.998,0.506,91.332,31.517,67.287,
39785350,0.139,-1.998,0.625,84.892,20.72,61.495,
39785360,0.134,-1.998,0.705,75.092,4.095,54.127,
39785370,0.198,-1.981,0.67,65.852,-8.697,46.777,
39785380,0.252,-1.928,0.558,64.015,-12.39,41.86,
39785390,0.379,-1.7,0.361,64.015,-11.252,38.202,
39785400,0.745,-1.42,0.175,56,-3.517,32.532,
39785410,1.176,-1.247,0.333,34.51,16.94,40.635,
39785420,0.914,-1.427,0.758,4.165,25.672,65.065,
39785430,0.417,-1.828,0.612,-0.997,-12.845,72.677,
39785440,0.645,-1.305,0.219,39.322,-61.145,62.3,
39785450,0.556,-0.634,-0.02,46.97,-76.877,47.337,
39785460,0.017,-0.758,-0.072,12.967,-77.07,34.737,
39785470,-0.202,-0.925,-0.083,2.467,-82.057,25.077,
39785480,-0.288,-0.663,-0.098,10.622,-84.49,24.587,
39785490,-0.34,-0.559,-0.099,0.227,-75.757,32.427,
39785500,-0.363,-0.693,-0.051,-17.167,-65.065,39.025,
39785510,-0.409,-0.714,-0.057,-22.802,-59.115,37.66,
39785520,-0.374,-0.637,-0.112,-25.077,-54.687,37.205,
39785530,-0.324,-0.597,-0.119,-32.69,-48.807,38.815,
39785540,-0.341,-0.555,-0.038,-43.487,-46.165,37.345,
39785550,-0.33,-0.469,0.093,-50.347,-44.257,35.437,
39785560,-0.315,-0.342,0.187,-51.362,-43.837,32.042,
39785570,-0.362,-0.21,0.286,-50.68,-40.547,31.097,
39785580,-0.266,-0.113,0.296,-51.345,-37.065,31.377,
39785580,-0.023,-0.08,0.404,-49.297,-25.672,41.352,
39785600,0.127,-0.203,0.545,-55.02,-12.162,50.697,
39785600,0.318,-0.286,0.724,-59.15,-5.932,49.63,
39785620,0.515,-0.281,0.917,-59.447,-4.83,46.427,
39785620,0.527,-0.26,1.068,-57.102,-11.917,32.672,
39785640,0.444,-0.287,1.046,-46.165,-26.372,9.117,
39785640,0.42,-0.3,0.869,-28.122,-37.485,-13.79,
39785660,0.37,-0.313,0.665,-14.577,-39.445,-34.09,
39785660,0.281,-0.406,0.568,-13.387,-35.087,-52.885,
39785670,0.246,-0.692,0.53,-16.03,-29.382,-71.68,
39785680,0.178,-0.793,0.502,-12.827,-27.597,-101.867,
39785690,-0.01,-0.571,0.266,-37.432,-17.727,-123.182,
39785700,-0.226,-1.107,0.234,-43.085,-6.387,-118.422,
39785710,-0.157,-1.065,0.013,-84.21,6.125,-144.76,
39785720,-0.286,-0.99,-0.07,-69.65,17.605,-138.792,
39785730,-0.319,-1.004,-0.006,-72.485,27.317,-122.762,
39785740,-0.417,-1.121,0.39,-92.557,32.882,-110.6,
39785750,-0.352,-1.372,0.728,-83.982,37.03,-86.87,
39785760,-0.261,-1.405,1.043,-48.002,47.25,-56.612,
39785770,-0.434,-1.725,0.925,-7.035,46.917,-17.675,
39785780,-0.376,-1.985,0.622,12.39,44.887,34.177,
39785790,0.177,-1.78,0.434,11.55,45.342,58.677,
39785800,0.591,-1.785,0.423,-10.01,60.777,53.76,
39785810,0.624,-1.957,0.54,-33.302,88.62,33.407,
39785820,0.413,-1.886,0.664,-46.41,105.682,1.575,
39785830,0.264,-1.748,0.847,-65.625,108.167,-29.645,
39785840,0.249,-1.781,1.032,-86.397,103.04,-53.48,
39785850,0.256,-1.747,1.065,-91.822,94.797,-81.935,
39785860,0.182,-1.454,0.954,-85.312,87.185,-106.977,
39785870,0.177,-1.222,0.918,-85.785,87.062,-126.84,
39785880,0.03,-0.999,0.952,-92.855,89.495,-138.547,
39785890,-0.127,-0.857,1.033,-99.295,88.83,-131.985,
39785900,-0.126,-0.794,1.057,-98.787,77.717,-116.445,
39785910,-0.004,-0.733,1.045,-90.107,66.5,-93.572,
39785920,0.053,-0.686,1.043,-77.157,56.07,-70.612,
39785930,0.092,-0.679,1.022,-61.617,44.66,-51.642,
39785940,0.168,-0.73,0.942,-40.565,32.882,-37.94,
39785950,0.197,-0.756,0.783,-15.54,22.61,-32.322,
39785960,0.14,-0.822,0.549,10.675,13.632,-30.467,
39785970,0.083,-0.874,0.315,31.832,6.807,-34.982,
39785980,-0.046,-0.989,0.106,48.597,2.922,-39.025,
39785990,-0.147,-1.002,-0.098,63.63,2.8,-35.927,
39786000,-0.148,-0.966,-0.241,68.075,7.735,-26.565,
39786010,-0.12,-1.02,-0.303,63.332,18.917,-12.267,
39786010,-0.019,-1.145,-0.293,58.782,32.935,-3.482,
39786030,0.078,-1.26,-0.248,57.96,47.11,-2.52,
39786030,0.139,-1.313,-0.222,58.345,56.717,-12.967,
39786040,0.149,-1.301,-0.218,57.155,61.442,-31.01,
39786050,0.05,-1.212,-0.213,52.5,61.337,-50.155,
39786060,-0.147,-1.099,-0.153,41.387,57.872,-60.497,
39786070,-0.266,-1.057,-0.055,22.242,56.455,-49.595,
39786080,-0.25,-1.007,0.054,2.712,52.78,-28.035,
39786090,-0.248,-0.96,0.156,-11.847,46.095,-8.89,
39786100,-0.344,-0.894,0.191,-21.105,35.997,9.152,
39786110,-0.413,-0.744,0.152,-24.395,23.135,29.365,
39786120,-0.429,-0.572,0.117,-28.437,9.257,54.232,
39786130,-0.427,-0.477,0.07,-39.217,-3.552,82.39,
39786140,-0.286,-0.403,0.039,-48.492,-10.71,108.482,
39786150,-0.071,-0.339,0.049,-54.88,-6.387,127.732,
39786160,0.132,-0.386,0.143,-58.03,8.365,137.27,
39786170,0.202,-0.491,0.242,-54.565,18.865,125.492,
39786180,0.224,-0.462,0.274,-39.76,15.312,91.052,
39786190,0.195,-0.33,0.24,-22.907,11.655,56.175,
39786200,0.083,-0.244,0.153,-12.652,11.585,28.822,
39786210,-0.09,-0.181,0.101,-7.245,11.2,9.45,
39786220,-0.151,-0.142,0.069,-4.637,7.157,-0.717,
39786230,-0.069,-0.11,0.09,-3.465,10.132,-0.997,
39786240,-0.098,-0.107,0.129,-5.897,18.55,2.432,
39786250,-0.135,-0.079,0.21,-10.272,29.557,6.142,
39786260,-0.081,-0.12,0.346,-17.412,39.515,10.255,
39786270,0.047,-0.171,0.49,-23.642,47.495,10.395,
39786280,0.223,-0.293,0.655,-21.577,54.967,3.832,
39786290,0.392,-0.564,0.74,-14.717,62.825,-24.447,
39786300,0.344,-0.334,0.783,-5.11,68.687,-63.105,
39786310,-0.112,-0.769,0.704,2.397,68.915,-99.452,
39786320,-0.482,-0.779,0.522,34.842,48.72,-144.462,
39786330,-0.966,-0.751,0.091,46.147,6.195,-165.357,
39786330,-0.601,-0.708,-0.177,55.545,-15.68,-131.775,
39786350,-0.2,-0.864,0.046,55.457,18.025,-71.575,
39786350,-0.575,-1.367,0.197,35.525,70.84,8.942,
39786370,-0.355,-1.732,0.608,15.54,107.555,82.022,
39786370,0.333,-1.979,1.154,-3.85,122.622,119.262,
39786390,0.999,-1.998,1.467,-20.422,136.657,117.67,
39786390,1.306,-1.998,1.597,3.5,144.252,71.505,
39786410,1.12,-1.998,1.511,19.337,151.025,17.307,
39786410,0.933,-1.998,1.341,18.445,154.682,-27.247,
39786420,0.909,-1.998,1.163,16.642,152.81,-39.55,
39786430,1.129,-1.998,1.107,7,150.867,-30.625,
39786440,1.418,-1.998,1.134,-15.907,144.952,-21,
39786450,1.633,-1.998,1.104,-35,131.845,-25.76,
39786460,1.628,-1.933,0.941,-35.997,111.037,-47.897,
39786470,1.355,-1.579,0.719,-30.327,85.627,-72.817,
39786480,0.998,-1.366,0.541,-28.262,56.157,-89.722,
39786490,0.683,-1.208,0.353,-21.49,25.13,-98.717,
39786500,0.407,-0.908,0.157,-8.347,-2.835,-94.342,
39786510,0.205,-0.594,-0.011,-1.61,-21.035,-79.117,
39786520,0.005,-0.424,-0.124,-1.54,-34.545,-58.45,
39786530,-0.103,-0.301,-0.255,-0.84,-46.602,-32.952,
39786540,0.017,-0.106,-0.355,2.082,-52.92,-2.782,
39786550,0.194,0.01,-0.398,0.367,-53.97,23.887,
39786560,0.35,0.025,-0.369,-4.725,-56.122,41.37,
39786570,0.472,-0.018,-0.3,-6.055,-65.502,45.867,
39786580,0.566,-0.057,-0.196,-4.987,-81.41,24.675,
39786590,0.47,-0.068,-0.076,-2.677,-92.645,-19.705,
39786600,0.084,-0.036,-0.021,3.745,-96.88,-67.34,
39786610,-0.36,0.074,0.009,15.137,-98.857,-92.417,
39786620,-0.549,0.215,0.102,24.43,-100.415,-89.25,
39786630,-0.488,0.238,0.127,28.857,-97.3,-68.145,
39786640,-0.43,0.169,0.199,39.97,-91.28,-33.6,
39786650,-0.252,0.095,0.267,50.697,-86.152,-7.472,
39786660,-0.033,0.037,0.386,55.282,-80.64,8.872,
39786670,0.206,-0.104,0.535,51.887,-71.837,32.235,
39786680,0.478,-0.303,0.774,41.352,-64.242,65.625,
39786690,0.522,-0.607,1.006,25.83,-71.907,99.085,
39786700,0.597,-0.826,0.985,24.01,-101.01,113.522,
39786710,0.871,-0.664,0.973,38.657,-128.712,98.7,
39786710,0.712,-0.526,0.956,43.61,-146.825,61.162,
39786730,0.305,-0.822,0.917,50.925,-162.925,12.652,
39786730,0.03,-0.242,0.625,47.792,-168.035,-34.09,
39786750,-0.431,-0.414,0.401,47.897,-159.407,-33.355,
39786750,-0.419,-0.441,0.217,32.025,-151.217,-75.302,
39786760,-0.699,-0.416,0.14,45.167,-135.327,-76.755,
39786770,-0.776,-0.424,0.127,50.575,-112.367,-66.727,
39786780,-0.859,-0.471,0.138,49.787,-89.092,-61.075,
39786790,-1.007,-0.577,0.107,54.582,-61.005,-41.16,
39786800,-0.998,-0.677,0.102,62.527,-32.497,-9.345,
39786810,-0.839,-0.856,0.176,63.682,-10.027,23.467,
39786820,-0.512,-0.882,0.505,61.862,12.267,50.365,
39786830,-0.514,-0.95,1.122,63.437,32.322,70.437,
39786840,-0.764,-1.736,1.485,58.677,45.552,107.905,
39786850,-0.713,-1.998,1.55,66.255,46.427,151.235,
39786860,-0.146,-1.991,1.309,90.265,32.042,170.292,
39786870,0.315,-1.807,1.266,87.745,41.702,155.715,
39786880,0.031,-1.916,1.03,69.457,63.595,124.25,
39786890,-0.038,-1.998,0.89,67.235,94.955,123.025,
39786900,0.334,-1.998,0.839,59.622,120.522,149.975,
39786910,0.653,-1.998,0.819,39.532,137.445,181.37,
39786920,1.009,-1.998,0.853,16.152,141.662,193.27,
39786930,1.391,-1.998,0.851,10.342,135.52,162.995,
39786940,1.339,-1.998,0.734,21.91,126.297,90.79,
39786950,0.816,-1.998,0.562,30.59,114.31,13.772,
39786960,0.564,-1.91,0.391,21.192,96.302,-49.367,
39786970,0.549,-1.737,0.364,6.685,89.267,-74.76,
39786980,0.496,-1.631,0.377,-15.452,90.475,-85.557,
39786990,0.383,-1.539,0.447,-38.85,89.127,-90.352,
39787000,0.31,-1.365,0.515,-57.592,76.492,-97.755,
39787010,0.3,-1.213,0.592,-78.365,63.14,-100.747,
39787020,0.302,-1.113,0.71,-96.18,53.847,-97.86,
39787030,0.23,-1.067,0.803,-109.462,46.497,-94.377,
39787040,0.206,-0.965,0.81,-114.117,36.505,-90.02,
39787050,0.263,-0.791,0.802,-115.29,28.297,-83.44,
39787060,0.257,-0.741,0.804,-118.352,19.162,-78.33,
39787070,0.274,-0.762,0.807,-115.062,9.152,-74.235,
39787080,0.299,-0.71,0.792,-104.772,-0.245,-69.825,
39787080,0.234,-0.688,0.714,-95.497,-9.152,-66.412,
39787100,0.166,-0.684,0.596,-83.772,-19.197,-66.132,
39787100,0.104,-0.637,0.465,-68.127,-28.087,-69.265,
39787120,-0.035,-0.603,0.332,-52.85,-34.142,-70.927,
39787120,-0.16,-0.546,0.179,-40.04,-38.482,-68.285,
39787140,-0.2,-0.489,0.051,-29.05,-39.06,-59.57,
39787140,-0.187,-0.457,-0.044,-21.367,-36.137,-47.967,
39787160,-0.138,-0.443,-0.05,-16.345,-31.342,-38.167,
39787160,-0.152,-0.486,-0.008,-11.69,-29.277,-31.85,
39787170,-0.211,-0.552,0.009,-2.94,-33.897,-31.027,
39787180,-0.294,-0.555,-0.022,9.782,-40.6,-30.555,
39787190,-0.391,-0.508,-0.063,19.372,-44.38,-20.055,
39787200,-0.401,-0.492,-0.077,20.125,-47.285,-0.7,
39787210,-0.287,-0.543,-0.047,15.855,-47.355,20.352,
39787220,-0.175,-0.628,0.001,13.195,-46.882,33.897,
39787230,-0.107,-0.699,0.04,15.47,-50.75,32.987,
39787240,-0.035,-0.729,0.047,19.285,-56.07,24.745,
39787250,-0.017,-0.695,0.039,20.335,-60.305,12.302,
39787260,-0.068,-0.647,0.039,19.95,-64.96,-2.152,
39787270,-0.158,-0.668,0.018,17.622,-67.812,-11.305,
39787280,-0.197,-0.367,-0.036,15.19,-71.47,-14.91,
39787290,-0.248,-0.721,0.032,8.855,-70.472,-1.995,
39787300,-0.201,-0.465,-0.029,-14.892,-72.817,-16.03,
39787310,-0.321,-0.498,-0.028,-14.752,-68.565,-3.36,
39787320,-0.246,-0.486,0.008,0.665,-67.672,3.64,
39787330,-0.226,-0.397,0.007,-0.332,-66.167,6.72,
39787340,-0.26,-0.434,0.034,-7.542,-60.55,16.992,
39787350,-0.221,-0.476,0.072,-14,-54.285,24.902,
39787360,-0.132,-0.46,0.14,-20.335,-47.775,27.317,
39787370,-0.052,-0.467,0.212,-26.232,-40.005,23.555,
39787380,-0.008,-0.46,0.292,-33.32,-31.552,14.105,
39787390,0.03,-0.401,0.394,-39.55,-22.505,1.242,
39787400,0.066,-0.37,0.605,-44.415,-9.485,-10.762,
39787410,-0.006,-0.497,0.807,-40.862,7.157,-19.302,
39787420,-0.055,-0.52,0.896,-20.457,23.03,-26.705,
39787420,-0.07,-0.418,0.832,8.085,40.022,-30.485,
39787440,-0.129,-0.462,0.807,34.912,52.22,-36.032,
39787440,-0.158,-0.552,0.808,62.667,60.427,-44.852,
39787460,-0.047,-0.577,0.94,92.312,77.35,-43.75,
39787460,-0.149,-0.828,1.074,106.68,98.052,-31.64,
39787480,-0.008,-1.089,1.244,103.67,119.367,-24.902,
39787480,0.192,-1.3,1.466,98.122,140.087,-24.692,
39787500,0.274,-1.204,1.535,100.73,154.297,-33.862,
39787500,0.041,-1.52,1.479,91.052,161.525,-25.112,
39787510,0.39,-1.524,1.424,92.382,156.152,-49.437,
39787520,0.395,-1.466,1.403,75.827,163.695,-48.177,
39787530,0.43,-1.534,1.536,64.277,175.787,-26.337,
39787540,0.584,-1.612,1.667,52.71,173.162,-20.72,
39787550,0.658,-1.665,1.67,51.835,165.76,-17.622,
39787560,0.727,-1.69,1.595,55.282,157.692,-18.76,
39787570,0.72,-1.68,1.497,56.805,146.545,-27.405,
39787580,0.68,-1.634,1.363,54.355,131.547,-35.857,
39787590,0.674,-1.544,1.238,52.29,116.515,-41.3,
39787600,0.659,-1.421,1.121,49.542,105.035,-41.475,
39787610,0.613,-1.345,1.002,47.897,97.475,-35.332,
39787620,0.585,-1.251,0.892,47.197,87.85,-28.122,
39787630,0.56,-1.234,0.755,45.465,77.262,-18.252,
39787640,0.533,-1.201,0.587,47.512,65.135,-10.062,
39787650,0.472,-1.126,0.354,51.555,53.62,-1.365,
39787660,0.475,-1,0.169,54.267,42.402,6.702,
39787670,0.492,-0.893,0.058,52.202,32.585,12.845,
39787680,0.412,-0.834,-0.018,49.665,21.28,15.137,
39787690,0.336,-0.745,-0.045,52.237,8.732,16.502,
39787700,0.34,-0.63,-0.054,53.217,0.735,23.87,
39787710,0.361,-0.592,-0.054,49.052,-2.817,35.63,
39787720,0.391,-0.612,-0.059,45.85,-9.03,41.02,
39787730,0.415,-0.662,-0.075,45.57,-16.485,40.547,
39787740,0.416,-0.679,-0.099,44.8,-26.652,35.997,
39787750,0.416,-0.666,-0.111,43.855,-37.572,27.667,
39787760,0.359,-0.649,-0.139,41.877,-48.212,18.025,
39787770,0.262,-0.599,-0.168,39.165,-58.065,9.905,
39787780,0.158,-0.548,-0.176,34.265,-69.09,6.107,
39787790,0.089,-0.5,-0.209,28.595,-81.62,5.932,
39787800,0.067,-0.406,-0.197,24.167,-88.725,8.4,
39787810,-0.097,-0.33,-0.166,18.025,-91.63,13.79,
39787820,-0.2,-0.244,-0.103,12.495,-94.5,23.292,
39787830,-0.225,-0.159,-0.009,5.302,-94.657,37.292,
39787830,-0.315,-0.092,0.128,-2.537,-92.68,51.992,
39787850,-0.48,0.009,0.235,-6.93,-90.842,70.052,
39787850,-0.498,0.171,0.249,-9.94,-88.655,98.297,
39787870,-0.454,0.309,0.302,-23.082,-84.227,134.085,
39787870,-0.327,0.275,0.374,-45.64,-83.912,161.91,
39787890,-0.045,0.243,0.543,-62.755,-82.39,175.997,
39787890,0.372,0.165,0.897,-69.755,-66.045,171.412,
39787910,0.464,-0.126,1.25,-64.085,-44.66,141.452,
39787910,0.295,-0.217,1.384,-36.732,-37.817,92.732,
39787920,0.168,-0.123,1.386,-8.767,-42.665,43.925,
39787930,0.068,-0.43,1.362,5.53,-44.24,4.042,
39787940,-0.093,0.008,1.299,15.19,-35.087,-23.45,
39787950,-0.497,-0.513,1.176,8.4,-14.262,-5.092,
39787960,-0.254,-0.648,1.103,27.335,-8.417,-30.992,
39787970,-0.443,-0.678,0.99,46.252,10.57,-9.03,
39787980,-0.361,-0.921,1.045,50.225,32.357,22.96,
39787990,-0.284,-1.245,1.188,48.3,40.25,40.442,
39788000,-0.028,-1.517,1.34,50.96,46.077,55.23,
39788010,0.135,-1.731,1.502,53.637,51.345,49.367,
39788020,0.096,-1.795,1.641,60.305,49.28,22.505,
39788030,0.03,-1.813,1.679,60.795,49.385,-5.687,
39788040,-0.093,-1.838,1.597,65.31,47.915,-28.315,
39788050,-0.221,-1.763,1.502,75.582,49.822,-36.102,
39788060,-0.275,-1.708,1.466,74.532,55.475,-28.07,
39788070,-0.186,-1.794,1.382,61.53,62.02,-9.695,
39788080,0.054,-1.921,1.23,55.265,66.885,7.507,
39788090,0.243,-1.844,1.117,50.312,72.835,13.002,
39788100,0.282,-1.879,1.076,40.495,73.78,5.652,
39788110,0.248,-1.854,1.023,30.327,66.64,-8.277,
39788120,0.236,-1.803,0.93,24.92,57.015,-10.85,
39788130,0.271,-1.683,0.797,19.162,47.687,-13.212,
39788140,0.264,-1.579,0.659,8.662,39.06,-12.565,
39788150,0.241,-1.457,0.529,-1.907,30.38,-11.812,
39788160,0.196,-1.298,0.421,-10.395,21.647,-9.992,
39788170,0.158,-1.141,0.356,-19.705,14.84,-7.21,
39788170,0.118,-1.026,0.328,-30.87,9.607,-3.045,
39788190,0.094,-0.915,0.31,-39.987,4.935,-0.385,
39788190,0.131,-0.795,0.287,-46.305,1.522,0,
39788210,0.209,-0.66,0.299,-51.992,0.875,-2.782,
39788210,0.251,-0.546,0.346,-56.665,0.98,-10.395,
39788230,0.208,-0.422,0.361,-56.455,-1.435,-20.895,
39788230,0.192,-0.261,0.342,-52.342,-8.015,-32.795,
39788250,0.173,-0.114,0.32,-49.227,-13.037,-40.985,
39788250,0.078,-0.028,0.286,-46.515,-16.817,-43.872,
39788260,0.004,0.065,0.265,-43.435,-22.102,-43.697,
39788270,-0.062,0.145,0.25,-40.39,-26.442,-39.48,
39788280,-0.128,0.223,0.233,-36.365,-28.612,-32.83,
39788290,-0.192,0.309,0.212,-30.8,-29.225,-25.952,
39788300,-0.266,0.361,0.189,-24.885,-29.365,-18.06,
39788310,-0.282,0.391,0.169,-19.215,-26.32,-6.16,
39788320,-0.308,0.415,0.199,-13.72,-20.37,7.192,
39788330,-0.343,0.368,0.229,-8.907,-15.102,19.775,
39788340,-0.31,0.317,0.263,-3.132,-11.917,34.125,
39788350,-0.264,0.258,0.324,3.325,-8.89,41.685,
39788360,-0.282,0.126,0.367,9.572,-4.445,47.495,
39788370,-0.208,-0.032,0.392,14.087,0.752,54.88,
39788380,-0.023,-0.335,0.378,14.962,5.285,56.717,
39788390,0.103,-0.521,0.551,31.762,9.852,40.04,
39788400,0.011,-0.409,0.485,3.78,17.605,26.11,
39788410,-0.113,-1.125,0.541,-8.54,17.92,18.445,
39788420,-0.014,-0.782,0.653,1.697,8.68,-37.94,
39788430,-0.218,-0.92,0.739,-4.322,22.96,-30.38,
39788440,-0.182,-1.083,0.758,-2.852,31.447,-30.1,
39788450,-0.234,-1.005,0.686,5.95,33.372,-34.387,
39788460,-0.278,-1.044,0.594,4.305,41.86,-24.517,
39788470,-0.395,-1.177,0.51,2.8,49.402,-17.465,
39788480,-0.439,-1.196,0.506,6.002,55.982,-8.89,
39788490,-0.334,-1.259,0.707,1.277,75.477,20.545,
39788500,-0.153,-1.414,0.876,-15.785,85.802,42.35,
39788510,0.255,-1.6,1,-26.512,95.515,37.677,
39788520,0.247,-1.639,1.125,-28.665,105.63,14.7,
39788530,0.029,-1.67,1.161,-30.257,95.077,-21,
39788540,0.039,-1.691,1.074,-27.772,72.677,-56.35,
39788550,0.092,-1.649,0.987,-25.235,65.747,-77.07,
39788560,-0.1,-1.586,0.912,-31.885,70.77,-86.467,
39788570,-0.233,-1.502,0.859,-46.287,71.522,-84.56,
39788580,-0.138,-1.441,0.809,-62.422,69.107,-75.425,
39788580,0.037,-1.366,0.79,-74.585,72.047,-65.712,
39788600,0.122,-1.322,0.798,-81.48,76.055,-69.282,
39788600,0.183,-1.252,0.798,-81.252,76.702,-85.015,
39788620,0.23,-1.119,0.682,-72.712,74.935,-100.94,
39788620,0.248,-0.97,0.53,-67.445,70.997,-115.447,
39788640,0.258,-0.831,0.362,-67.235,64.435,-125.562,
39788640,0.292,-0.678,0.228,-69.282,55.772,-130.182,
39788660,0.293,-0.488,0.195,-77.56,47.635,-133.63,
39788660,0.259,-0.312,0.105,-87.027,34.457,-134.68,
39788670,0.314,-0.098,0.085,-96.145,23.8,-136.29,
39788680,0.307,0.019,0.054,-101.342,25.935,-133.875,
39788690,0.368,0.157,0.289,-97.492,45.622,-127.715,
39788700,0.435,0.119,0.472,-80.622,93.45,-107.345,
39788710,0.288,0.213,0.328,-33.722,137.515,-81.095,
39788720,0.278,0.514,0.407,11.042,172.077,-60.427,
39788730,0.382,0.46,0.563,33.425,199.045,-44.817,
39788740,0.303,0.232,0.758,58.45,217.717,-38.185,
39788750,0.151,0.134,0.873,98.612,226.747,-43.75,
39788760,-0.131,0.166,0.947,132.002,220.885,-49.77,
39788770,-0.377,0.063,0.96,148.05,198.835,-44.817,
39788780,-0.443,-0.107,0.919,153.055,168.892,-30.975,
39788790,-0.525,-0.248,0.823,152.32,135.782,-16.117,
39788800,-0.512,-0.333,0.7,148.487,106.225,-1.592,
39788810,-0.429,-0.423,0.554,140.507,86.607,15.697,
39788820,-0.32,-0.495,0.452,129.937,77.052,31.36,
39788830,-0.308,-0.45,0.443,118.912,70.227,39.62,
39788840,-0.217,-0.432,0.497,106.925,62.195,47.355,
39788850,0.038,-0.466,0.588,99.26,57.382,54.232,
39788860,0.138,-0.632,0.734,97.72,57.417,50.767,
39788870,-0.028,-0.827,0.802,103.442,52.955,40.897,
39788880,-0.188,-0.825,0.797,113.417,29.452,29.067,
39788890,-0.213,-0.785,0.75,115.08,1.837,20.475,
39788900,-0.212,-0.852,0.694,105.84,-9.555,20.597,
39788910,-0.335,-0.916,0.656,93.17,-6.947,24.465,
39788920,-0.488,-0.925,0.637,81.882,-1.295,27.842,
39788920,-0.714,-0.839,0.583,69.51,-0.035,36.172,
39788940,-0.783,-0.667,0.534,51.957,1.242,50.89,
39788940,-1.031,-0.452,0.63,29.487,14.875,70.577,
39788960,-1.487,-0.53,0.711,10.447,39.445,92.96,
39788960,-1.633,-0.398,0.681,42.455,45.29,106.487,
39788980,-1.634,0.089,0.493,54.425,40.705,171.587,
39788980,-0.97,-0.205,0.575,9.082,48.44,252.7,
39789000,-0.837,-0.353,0.656,-49.315,65.012,302.505,
39789000,-0.68,-1.072,0.988,-43.242,80.762,303.992,
39789010,-0.601,-0.904,1.246,34.212,77.455,240.415,
39789020,-0.54,-0.605,1.324,99.487,77.245,194.547,
39789030,-0.47,-1.361,1.729,132.177,68.67,132.037,
39789040,0.324,-1.968,1.972,179.235,-22.417,83.702,
39789050,0.606,-1.998,1.863,323.015,-66.167,-37.362,
39789060,-1.998,-1.997,-0.126,420.49,-116.41,-146.632,
39789070,-1.825,-0.544,-0.444,397.407,-103.775,-151.217,
39789080,-1.802,0.589,0.645,250.652,-154.437,-77.175,
39789090,-0.469,0.464,1.319,142.1,-203.822,1.26,
39789100,1,1.735,1.64,123.935,-217.367,45.692,
39789110,1.853,1.171,1.438,109.777,-181.387,33.477,
39789120,-0.258,-0.892,1.651,15.977,-85.627,4.987,
39789130,-1.283,-0.19,0.811,4.375,-27.142,6.282,
39789140,-0.124,0.612,0.799,40.53,-42.56,-13.702,
39789150,0.657,-0.533,1.358,-39.427,-25.235,-13.177,
39789160,0.29,-0.604,1.114,-13.877,18.69,20.002,
39789170,0.519,-0.02,1.233,41.842,59.552,7.997,
39789180,0.367,-0.452,1.106,32.165,100.397,-1.347,
39789190,0.57,-0.487,1.196,33.18,132.65,-19.39,
39789200,-0.897,-0.348,0.649,56.717,98.035,-65.975,
39789210,-1.11,0.167,0.607,87.027,46.707,-94.115,
39789220,-1.465,0.348,0.362,62.44,8.102,-78.225,
39789230,-1.265,0.179,0.532,15.837,-16.467,-30.66,
39789240,-0.415,-0.058,0.905,-31.202,-48.737,10.255,
39789250,-0.36,-0.327,0.996,-45.832,-73.29,15.732,
39789260,-0.616,-0.238,0.846,-16.957,-95.847,0.717,
39789270,-0.367,-0.139,0.857,-6.405,-114.695,-11.585,
39789280,-0.235,-0.058,0.834,-15.487,-121.117,-10.762,
39789290,-0.036,-0.005,0.847,-33.057,-112.525,16.905,
39789300,0.174,-0.216,0.978,-53.567,-100.922,22.242,
39789310,0.434,-0.208,1.058,-42.175,-85.557,11.777,
39789320,0.385,-0.142,1.01,-30.327,-60.69,0.157,
39789330,0.037,-0.107,0.951,-24.71,-39.847,-9.502,
39789330,-0.088,-0.196,1.015,-24.272,-29.89,-16.87,
39789350,-0.185,-0.256,1.009,-19.687,-16.292,-12.285,
39789350,-0.197,-0.177,0.979,-10.097,-6.195,-10.43,
39789360,-0.265,-0.276,0.978,-7.752,-3.99,-12.162,
39789370,-0.219,-0.198,0.964,-2.905,-8.61,-12.127,
39789380,-0.143,-0.154,0.961,-2.205,-10.815,-9.1,
39789390,-0.102,-0.204,0.969,-6.265,-8.715,-5.372,
39789400,-0.062,-0.156,0.976,-4.305,-5.722,-6.055,
39789410,-0.078,-0.13,0.983,-4.637,-0.717,-6.982,
39789420,-0.117,-0.188,0.987,-6.737,3.255,-7.717,
39789430,-0.124,-0.262,0.982,-5.215,5.302,-6.79,
39789440,-0.074,-0.218,0.987,-1.487,6.912,-6.23,
39789450,-0.118,-0.139,0.993,1.382,10.027,-8.19,
39789460,-0.185,-0.183,0.988,1.977,9.642,-9.712,
39789470,-0.21,-0.242,0.978,3.115,6.23,-9.59,
39789480,-0.14,-0.235,0.981,6.265,1.417,-10.5,
39789490,-0.168,-0.211,0.977,9.38,-0.91,-13.072,
39789500,-0.098,-0.253,0.98,10.71,-3.377,-13.177,
39789510,-0.059,-0.18,0.982,9.397,-1.977,-12.022,
39789520,-0.05,-0.179,0.987,5.757,0.507,-11.497,
39789530,-0.036,-0.224,0.987,2.52,4.672,-11.042,
39789540,-0.039,-0.176,0.988,2.1,8.977,-12.757,
39789550,-0.069,-0.175,0.984,-1.435,13.965,-13.877,
39789560,-0.128,-0.173,0.986,-6.737,16.905,-13.405,
39789570,-0.204,-0.152,0.989,-12.617,18.112,-15.277,
39789580,-0.28,-0.141,1.013,-22.102,15.365,-18.042,
39789590,-0.397,-0.165,1.063,-37.397,10.36,-22.557,
39789600,-0.615,-0.25,1.105,-59.01,-2.677,-36.61,
39789610,-0.567,-0.452,1.1,-89.11,-19.635,-65.082,
39789620,-0.21,-0.061,1.217,-144.812,-13.65,-102.462,
39789630,-0.91,-0.311,1.227,-218.627,-3.325,-145.04,
39789640,-0.205,-0.528,1.037,-200.165,-17.92,-174.037,
39789650,-0.198,-0.725,0.9,-191.747,9.065,-186.55,
39789660,-0.368,-0.859,0.622,-167.125,51.852,-211.015,
39789670,-0.375,-0.93,0.837,-130.217,89.495,-245.035,
39789670,-0.511,-1.127,0.825,-111.422,93.782,-261.555,
39789690,-0.718,-1.386,0.634,-64.557,104.107,-230.475,
39789690,-1.165,-1.112,0.377,-34.632,69.16,-188.947,
39789710,-1.126,-1.036,-0.016,-8.33,22.732,-135.607,
39789710,-1.755,-0.639,0.104,-30.922,-5.267,-70.017,
39789730,-1.985,-0.205,-0.045,-65.31,-24.307,55.895,
39789730,-0.587,-0.268,-0.075,-37.572,-33.617,246.767,
39789750,-0.085,-0.11,-0.075,-17.605,-46.392,439.897,
39789750,0.716,-1.041,-0.247,-46.025,-41.685,565.932,
39789760,1.902,-1.214,-0.346,-58.607,-42.717,535.307,
39789770,1.998,-0.796,1.016,-32.987,-16.1,414.137,
39789780,1.998,0.438,1.958,27.912,-76.825,190.907,
39789790,-1.245,1.579,0.265,271.582,-82.565,28.227,
39789800,-1.098,-1.762,1.765,359.012,-66.01,96.932,
39789810,0.278,-1.203,1.733,342.457,-168.42,301.07,
39789820,-1.652,1.153,1.667,293.002,-149.117,193.585,
39789830,0.248,1.506,1.251,154.752,-152.967,40.932,
39789840,1.09,0.618,1.147,33.67,-109.025,-46.97,
39789850,1.077,0.015,1.081,-21.262,-36.452,-52.587,
39789860,0.618,-0.404,1.047,-60.97,19.04,-17.202,
39789870,-0.33,-0.484,0.922,-58.975,44.992,7.77,
39789880,-0.624,-0.469,0.881,-44.292,35.227,5.075,
39789890,-0.624,-0.38,0.86,-12.46,13.335,-15.662,
39789900,-0.228,-0.49,0.886,5.53,-9.94,-28.962,
39789910,-0.021,-0.296,0.943,24.762,-19.25,-21.892,
39789920,-0.067,-0.186,0.993,27.51,-18.69,-7.367,
39789930,-0.146,-0.04,1.018,19.88,-15.12,-2.642,
39789940,-0.107,-0.05,1.027,4.357,-13.37,-5.495,
39789950,-0.028,-0.076,1.034,-11.375,-9.747,-7.525,
39789960,-0.052,-0.148,1.023,-28.717,-5.635,-4.742,
39789970,-0.086,-0.178,1.022,-40.792,-3.342,-1.067,
39789980,-0.129,-0.204,1.031,-52.675,-3.36,1.137,
39789990,-0.139,-0.205,1.05,-62.842,-4.375,-1.155,
39790000,-0.092,-0.225,1.085,-75.215,-6.247,-5.845,
39790010,-0.027,-0.146,1.135,-93.187,-4.637,-11.357,
39790020,-0.01,-0.135,1.154,-119.402,0.717,-13.23,
39790030,-0.051,-0.115,1.127,-149.117,7.875,-12.722,
39790030,-0.163,-0.163,1.092,-176.907,12.845,-13.545,
39790050,-0.26,-0.157,1.07,-201.705,15.05,-22.505,
39790050,-0.463,-0.218,1.091,-222.862,10.885,-39.34,
39790070,-0.625,-0.314,1.173,-246.4,-5.267,-60.462,
39790070,-0.72,-0.492,1.215,-246.645,-46.497,-92.382,
39790080,-0.595,-0.585,0.661,-213.185,-102.83,-109.987,
39790090,-0.304,-1.198,0.658,-215.967,-102.27,-123.672,
39790100,0.139,-1.13,0.808,-198.345,-49.63,-130.165,
39790110,-0.63,-0.87,0.692,-137.147,30.572,-115.5,
39790120,-1.084,-1.233,0.899,-114.082,88.2,-112.787,
39790130,-1.674,0.023,1.082,-77.7,81.55,-111.807,
39790140,-1.998,1.361,0.662,-58.345,71.05,-12.372,
39790150,-1.174,1.587,0.446,24.185,75.495,127.942,
39790160,-0.539,1.381,0.944,56.21,19.477,305.742,
39790170,0.149,0.14,0.568,93.642,-1.015,377.37,
39790180,0.601,0.944,-0.676,178.587,-29.365,325.99,
39790190,0.481,0.914,-0.458,133.192,-31.762,288.19,
39790200,-0.047,-0.917,-0.176,20.562,-59.5,245.717,
39790210,1.925,-1.998,0.11,133.157,-130.427,9.975,
39790220,-1.908,-1.565,-0.748,389.112,25.025,108.92,
39790230,-0.09,1.974,1.397,150.815,53.235,-25.147,
39790240,1.389,0.51,1.739,204.347,-8.435,99.47,
39790250,-1.241,-1.657,1.31,290.132,7.262,125.125,
39790260,-1.121,0.473,1.388,389.847,-54.512,68.74,
39790270,-1.637,0.155,1.545,228.69,-92.855,56.84,
39790280,0.168,0.614,1.339,170.73,-126.892,-24.797,
39790290,1.128,0.547,1.104,84.087,-90.23,-50.155,
39790300,0.625,0.158,1.045,10.85,-14.385,-28.28,
39790310,-0.076,-0.172,0.998,-24.71,29.347,-13.667,
39790320,-0.2,-0.318,0.969,-30.345,33.18,-18.777,
39790330,-0.265,-0.346,0.941,-24.377,28.455,-16.66,
39790340,-0.402,-0.313,0.928,-21.35,18.655,-9.345,
39790350,-0.269,-0.261,0.959,-11.935,6.16,-5.215,
39790360,-0.147,-0.148,1.001,-16.45,-0.717,-4.795,
39790370,-0.155,-0.144,1.021,-29.977,-0.28,-1.907,
39790380,-0.189,-0.102,1.082,-44.205,0.227,1.435,
39790390,-0.175,-0.008,1.183,-69.877,0.595,-1.557,
39790400,-0.099,-0.066,1.24,-107.887,-1.032,-5.705,
39790410,-0.05,-0.036,1.271,-154.21,-1.855,-7.227,
39790420,-0.124,-0.067,1.276,-200.637,1.26,-8.82,
39790420,-0.221,0,1.175,-235.48,-2.24,-10.342,
39790440,-0.224,-0.066,1.085,-263.27,-7.437,-9.607,
39790440,-0.211,-0.311,1.055,-286.825,-13.23,-17.535,
39790460,-0.37,-0.622,1.14,-293.475,-34.177,-35.245,
39790460,-0.457,-0.208,1.297,-264.565,-76.702,-46.042,
39790480,-0.389,-0.412,1.501,-288.592,-81.13,-43.61,
39790480,-0.255,-0.744,1.622,-269.01,-65.047,-27.807,
39790500,-0.4,-0.517,1.649,-198.432,-65.117,-25.025,
39790500,-0.344,-0.091,1.565,-158.777,-55.947,-27.737,
39790510,-0.937,1.053,1.403,-112.682,-15.995,-7.157,
39790520,1.126,1.95,1.963,-17.185,49.472,-17.71,
39790530,-0.815,1.695,1.302,120.26,65.397,-21.665,
39790540,-0.664,1.903,0.859,250.67,55.632,-48.877,
39790550,-0.836,1.579,0.129,281.942,69.58,13.965,
39790560,-0.917,0.92,-0.499,297.15,51.59,76.002,
39790570,-0.578,0.162,-0.571,260.365,55.352,144.077,
39790580,-0.012,-0.322,-0.522,190.925,65.432,232.33,
39790590,0.548,-0.92,-0.643,137.76,67.952,288.557,
39790600,1.361,-1.313,-0.816,95.217,53.812,274.085,
39790610,1.986,-1.545,0.505,-43.925,97.527,192.15,
39790620,-1.28,-1.998,-1.953,59.202,73.482,159.88,
39790630,-0.579,0.726,0.349,509.285,-113.855,242.06,
39790640,-0.532,1.997,1.826,278.932,-156.292,279.912,
39790650,-1.997,-0.674,1.164,152.337,-162.522,151.812,
39790660,0.922,1.008,1.547,160.475,-190.627,-37.415,
39790670,0.94,0.256,1.052,71.575,-114.38,-103.46,
39790680,1.097,-0.067,1.075,12.11,-30.432,-47.635,
39790690,-0.263,-0.305,0.95,-17.43,24.272,-12.04,
39790700,-0.035,-0.054,1.023,-27.562,33.477,-9.135,
39790710,-0.372,-0.211,0.986,-36.12,38.22,-11.252,
39790720,-0.516,-0.439,0.882,-29.015,24.92,-14.805,
39790730,-0.361,-0.406,0.911,-12.11,3.5,-15.312,
39790740,-0.182,-0.184,0.965,2.1,-9.992,-9.17,
39790750,-0.207,-0.181,0.974,-2.222,-13.772,0.682,
39790760,-0.251,-0.133,0.988,-5.845,-16.677,3.045,
39790760,-0.149,-0.091,1.02,-14.402,-18.532,1.33,
39790780,-0.146,-0.087,1.049,-29.33,-17.797,1.732,
39790780,-0.15,-0.071,1.078,-48.195,-16.922,3.045,
39790800,-0.16,-0.103,1.101,-70.927,-18.34,3.482,
39790800,-0.111,-0.104,1.111,-91.192,-20.265,2.205,
39790820,-0.237,-0.177,1.134,-106.155,-22.4,-1.802,
39790820,-0.146,-0.163,1.142,-127.627,-29.207,-2.94,
39790830,-0.3,-0.132,1.163,-144.69,-35.787,-7.052,
39790840,-0.423,-0.251,1.259,-162.592,-51.625,-5.495,
39790850,-0.812,-0.438,1.385,-181.772,-88.217,-6.37,
39790860,-1.074,-0.714,1.148,-184.695,-149.712,-14.735,
39790870,-0.801,-1.139,0.667,-173.757,-167.877,-39.392,
39790880,-0.18,-1.236,0.738,-100.17,-98.91,-49.577,
39790890,-1.615,-1.317,0.967,-39.06,-92.872,-64.487,
39790900,-1.376,-1.925,-0.169,-32.707,-95.55,-42.892,
39790910,-1.998,-1.998,-0.903,22.102,-27.02,184.082,
39790920,-1.998,-1.288,-0.499,-11.97,-28.245,348.88,
39790930,-0.068,-1.886,-0.359,9.485,-19.932,547.977,
39790940,1.768,-1.886,-0.505,51.222,61.775,572.705,
39790950,1.998,-0.566,-0.339,46.935,215.285,531.142,
39790960,1.998,0.052,0.406,-57.522,268.87,321.195,
39790970,1.497,0.029,0.144,-133.07,196.087,25.2,
39790980,0.615,0.675,-0.309,-107.205,109.69,-79.45,
39790990,-0.357,1.156,0.215,-95.55,23.94,-111.457,
39791000,1.679,-0.833,1.332,-72.222,-170.73,-232.75,
39791010,-0.797,0.954,-0.016,405.475,-39.13,-82.652,
39791020,-0.566,-1.468,1.413,311.727,-64.207,-37.957,
39791030,0.814,0.559,1.978,316.452,-98.21,153.702,
39791040,-1.939,0.678,1.375,254.222,-119.122,109.742,
39791050,0.224,0.887,1.355,147.735,-129.552,6.405,
39791060,0.855,0.762,1.254,61.67,-79.52,-80.92,
39791070,0.745,0.012,1.114,-15.365,-22.4,-85.855,
39791080,0.168,-0.767,0.949,-53.62,17.71,-52.867,
39791090,-0.145,-0.623,0.836,-38.535,24.43,-14.98,
39791100,-0.362,-0.302,0.894,-3.465,15.907,9.572,
39791110,-0.577,-0.263,0.906,0.945,2.555,7.227,
39791120,-0.291,-0.271,0.962,2.8,-14.175,-6.3,
39791130,-0.154,-0.223,0.972,8.82,-20.51,-6.685,
39791140,-0.057,-0.133,1.004,1.89,-20.212,0.105,
39791150,-0.071,-0.116,1.032,-11.917,-13.982,5.582,
39791160,0,-0.06,1.076,-28.822,-6.352,6.107,
39791170,0.149,-0.008,1.181,-59.587,5.635,6.405,
39791170,-0.029,-0.052,1.163,-98.997,25.147,6.352,
39791190,0.063,-0.267,1.271,-135.345,35.962,5.425,
39791190,-0.05,-0.076,1.237,-168.21,49.315,5.915,
39791210,0.016,-0.121,1.137,-195.72,63.892,3.745,
39791210,-0.052,-0.236,1.046,-206.85,79.327,-1.312,
39791230,0.039,-0.269,1.094,-222.46,95.252,-7.647,
39791230,0.224,-0.388,1.33,-231.63,130.042,-10.307,
39791250,0.496,-0.771,1.365,-226.327,192.815,-9.502,
39791250,0.161,-1.127,0.981,-183.645,242.007,-5.407,
39791260,-0.307,-1.414,1.48,-114.695,269.202,-26.39,
39791270,1.134,-1.998,1.363,-28.98,235.672,-106.872,
39791280,1.998,-1.996,1.257,126.63,98.945,-360.412,
39791290,0.274,-1.302,-0.816,232.172,41.51,-520.467,
39791300,-1.996,-1.517,-1.029,189.857,64.925,-562.73,
39791310,-1.998,-1.208,-0.57,129.43,-19.11,-482.335,
39791320,-1.22,-0.436,-0.515,132.667,-33.95,-306.46,
39791330,-0.852,-0.021,-0.715,102.865,-60.34,-161.385,
39791340,-0.586,-0.054,-0.678,7.157,-94.202,-99.347,
39791350,-0.164,-0.247,-0.437,-56.07,-120.592,-48.09,
39791360,-0.545,0.464,-0.636,-51.782,-153.055,-26.145,
39791370,-0.905,1.587,-0.947,-44.047,-152.6,-2.555,
39791380,-0.799,1.938,-0.404,-80.395,-126.122,59.885,
39791390,-0.907,-0.709,1.968,-111.002,34.86,190.207,
39791400,-1.879,-1.614,1.696,298.235,124.757,390.617,
39791410,0.904,-1.998,0.122,485.38,16.572,472.167,
39791420,-1.894,0.64,1.347,428.26,-5.285,268.205,
39791430,-1.845,0.498,1.592,413.052,-73.692,142.485,
39791440,-1.854,-0.811,1.996,314.44,-147.14,1.172,
39791450,1.542,1.945,1.399,283.255,-201.127,-101.85,
39791460,1.326,0.858,1.024,54.25,-89.302,-56.49,
39791470,0.247,-0.096,1.038,-33.11,11.007,-2.52,
39791480,-0.19,-0.2,1.016,-46.06,33.547,-11.095,
39791490,-0.182,-0.221,0.992,-50.802,31.115,-28.612,
39791500,-0.537,-0.477,0.917,-44.835,25.025,-38.622,
39791510,-0.274,-0.443,0.885,-24.062,9.362,-53.672,
39791510,-0.098,-0.394,0.931,-12.46,-0.77,-57.365,
39791530,0.206,-0.243,0.975,1.032,-9.502,-32.252,
39791530,0.078,-0.061,1.01,0.42,-5.372,1.172,
39791550,-0.164,-0.073,1.044,-16.432,3.132,17.027,
39791550,-0.24,-0.088,1.078,-32.445,2.292,13.807,
39791570,-0.122,-0.03,1.038,-55.072,3.132,1.645,
39791570,-0.51,-0.115,1.177,-105.472,16.502,-25.165,
39791580,-0.201,-0.208,1.201,-126.822,5.67,-46.707,
39791590,-0.066,-0.032,1.138,-159.775,3.062,-61.547,
39791600,-0.031,-0.203,1.052,-194.6,8.33,-63,
39791610,-0.021,-0.238,0.984,-216.212,17.15,-60.83,
39791620,0.01,-0.278,0.952,-223.3,29.96,-60.55,
39791630,0.036,-0.34,0.956,-224.245,42.927,-61.74,
39791640,-0.055,-0.48,0.763,-212.012,60.025,-59.027,
39791650,-0.388,-0.529,1.009,-192.64,49.175,-60.042,
39791660,-0.24,-0.683,0.912,-190.05,27.282,-62.79,
39791670,-0.256,-0.865,0.878,-174.195,15.4,-66.71,
39791680,-0.171,-0.975,0.744,-150.64,24.71,-64.522,
39791690,-0.205,-1.523,0.534,-103.495,49.647,-36.172,
39791700,0.245,-1.491,0.919,-66.92,62.212,-57.767,
39791710,-0.177,-1.574,0.185,-11.742,65.38,-64.61,
39791720,0.048,-1.713,0.142,44.117,17.78,-54.127,
39791730,0.49,-1.61,0.089,76.072,-9.152,-48.282,
39791740,-0.569,-1.242,-0.114,58.292,-26.635,-82.215,
39791750,-1.045,-1.174,-0.117,47.477,-1.645,-58.1,
39791760,-0.927,-1.061,-0.133,55.492,-9.292,-8.435,
39791770,-0.499,-0.669,-0.302,52.64,-13.317,19.337,
39791780,-0.207,-0.114,-0.567,21.717,5.372,34.755,
39791790,0.117,0.292,-0.792,-13.65,35.822,25.165,
39791800,0.584,0.82,-1.156,-40.477,82.95,-9.625,
39791810,0.616,1.769,-1.585,-66.447,125.055,-82.46,
39791820,1.428,1.051,1.714,-127.452,205.625,-199.937,
39791830,-1.018,-1.409,1.287,184.502,420.927,-86.38,
39791840,-1.717,-1.908,-0.369,560.63,85.05,-60.34,
39791850,-0.55,-0.753,1.453,464.73,-5.302,-41.965,
39791860,0.3,1.753,1.733,449.592,-68.162,22.382,
39791870,-1.585,-0.728,1.835,374.185,-103.337,55.947,
39791880,-0.646,1.135,1.566,262.937,-137.795,32.76,
39791890,0.802,1.438,1.145,114.625,-110.617,-24.307,
39791900,0.871,0.424,1.127,-5.442,-35.227,-42.21,
39791910,0.39,-0.191,1.061,-64.242,21.892,-30.642,
39791920,0.037,-0.418,0.975,-78.767,42.28,-13.247,
39791920,-0.3,-0.454,0.907,-68.285,43.837,-0.472,
39791940,-0.436,-0.53,0.854,-55.387,32.725,7.822,
39791940,-0.452,-0.452,0.84,-31.447,15.61,4.112,
39791960,-0.343,-0.426,0.889,-5.862,-1.995,-3.57,
39791960,-0.084,-0.225,0.97,5.425,-11.812,-2.38,
39791980,-0.026,-0.1,1.027,-2.38,-9.94,8.33,
39791980,-0.126,-0.088,1.045,-22.505,-4.077,21.035,
39792000,-0.195,0.047,1.123,-44.152,-1.4,24.92,
39792000,-0.062,-0.025,1.165,-70.857,-4.2,27.807,
39792010,0.049,-0.042,1.13,-99.015,-3.797,39.952,
39792020,-0.025,-0.086,1.16,-128.065,-0.857,55.405,
39792030,-0.052,-0.076,1.182,-156.17,-5.04,72.275,
39792040,-0.089,-0.138,1.107,-176.47,-18.077,88.515,
39792050,-0.058,-0.249,1.049,-198.257,-30.012,100.712,
39792060,-0.142,-0.299,1.097,-215.285,-41.405,110.372,
39792070,0.055,-0.3,0.971,-228.007,-56,120.68,
39792080,0.024,-0.439,0.884,-228.62,-42.49,132.527,
39792090,0.169,-0.482,1.016,-225.82,-20.755,138.425,
39792100,-0.016,-0.565,0.887,-201.477,-2.012,146.58,
39792110,-0.094,-0.671,0.827,-178.727,3.43,156.012,
39792120,-0.044,-0.755,1.124,-156.52,-10.92,166.582,
39792130,0.009,-0.81,0.989,-132.3,-51.747,168.752,
39792140,0.51,-1.344,0.808,-76.212,-105,189.332,
39792150,1.737,-1.991,1.157,-44.065,-96.11,184.432,
39792160,0.659,-1.134,0.319,6.72,-88.812,100.397,
39792170,-0.683,-0.378,0.15,40.46,-120.067,11.76,
39792180,-0.603,-0.519,0.32,20.51,-142.292,-36.085,
39792190,-1.064,-0.239,-0.205,50.102,-162.61,-39.392,
39792200,-0.694,0.447,-0.832,77.157,-148.96,-39.427,
39792210,-0.571,0.764,-1.31,55.702,-95.112,-39.987,
39792220,-0.657,0.943,-1.069,1.4,-27.44,-45.045,
39792230,-0.994,0.296,0.605,-47.565,43.382,-31.535,
39792240,-1.165,-1.978,1.806,3.78,198.117,36.015,
39792250,-0.562,-1.998,-1.259,382.41,18.882,126.175,
39792260,0.356,-1.599,1.528,329.892,38.36,118.335,
39792260,-1.089,1.362,1.195,316.89,8.085,69.86,
39792280,-1.008,0.45,1.519,348.005,-28.577,70.647,
39792280,-0.608,-0.874,1.599,294.857,-74.795,59.937,
39792300,-0.938,0.789,1.511,273.192,-99.225,-14.402,
39792300,0.875,0.692,1.379,145.25,-102.462,-38.202,
39792320,0.68,0.525,1.127,41.387,-49.385,-41.65,
39792320,0.32,-0.158,1.047,-29.155,-1.015,-21.385,
39792330,-0.005,-0.356,0.959,-45.885,20.037,-8.715,
39792340,-0.258,-0.335,0.929,-39.567,23.695,-4.515,
39792350,-0.331,-0.363,0.918,-29.872,16.817,-6.93,
39792360,-0.249,-0.327,0.914,-16.712,6.632,-11.41,
39792370,-0.149,-0.3,0.939,-7.297,-1.487,-11.357,
39792380,-0.125,-0.233,0.974,-4.532,-5.425,-4.34,
39792390,-0.135,-0.162,1.005,-8.452,-6.562,1.96,
39792400,-0.16,-0.149,1.038,-19.285,-6.86,2.712,
39792410,-0.102,-0.022,1.127,-35.297,-6.282,-2.222,
39792420,-0.271,-0.086,1.128,-66.342,-4.077,-12.127,
39792430,-0.221,-0.163,1.2,-99.75,-5.897,-25.025,
39792440,-0.218,-0.074,1.194,-132.58,-13.16,-39.41,
39792450,-0.262,-0.162,1.151,-164.097,-19.582,-49.42,
39792460,-0.25,-0.255,1.04,-185.71,-24.272,-59.307,
39792470,-0.246,-0.39,1.024,-206.395,-20.37,-76.37,
39792480,-0.194,-0.399,0.934,-220.727,-13.79,-97.142,
39792490,-0.066,-0.345,0.904,-221.865,7.385,-113.96,
39792500,-0.322,-0.513,0.935,-222.39,31.15,-128.625,
39792510,-0.431,-0.917,0.88,-217.717,26.267,-158.847,
39792520,-0.105,-0.592,0.705,-179.06,31.412,-168.595,
39792530,0.083,-0.843,1.039,-174.002,87.675,-154.927,
39792540,0.083,-1.326,1.07,-147,137.585,-157.587,
39792550,0.419,-1.353,0.732,-93.695,178.692,-185.972,
39792560,-0.679,-1.339,0.88,-41.457,242.69,-151.777,
39792570,-0.871,-1.151,0.688,18.55,228.182,-125.685,
39792580,-1.03,-0.861,0.386,68.285,164.517,-118.527,
39792590,-0.923,-0.383,0.015,79.817,123.217,-105.245,
39792600,-0.744,-0.105,-0.144,77.455,138.845,-48.72,
39792610,-0.569,-0.011,-0.722,77.822,162.015,17.902,
39792620,-0.181,0.457,-1.281,76.457,181.335,55.107,
39792630,0.316,0.818,-1.435,22.592,210.542,57.05,
39792640,0.667,1.32,-1.151,-48.09,252.017,37.957,
39792650,0.816,1.778,-0.676,-87.185,301.227,13.037,
39792660,-0.525,-0.781,0.796,-61.6,294.42,-33.792,
39792670,0.475,-1.998,1.167,288.732,-123.917,-113.82,
39792670,-1.677,-1.989,-1.11,524.107,-298.655,-39.34,
39792680,1.157,1.272,1.587,397.022,-174.947,-2.59,
39792690,0.136,1.146,1.704,462.245,-156.765,55.335,
39792700,-1.599,-1.088,1.872,411.687,-162.977,70.017,
39792710,-0.958,1.026,1.799,342.842,-197.435,24.622,
39792720,1.495,1.724,1.253,156.45,-167.107,-19.705,
39792730,1.108,0.465,1.098,11.567,-69.002,-37.065,
39792740,0.502,-0.018,1.087,-56.822,8.977,-13.72,
39792750,-0.094,-0.447,1.009,-81.935,38.132,-2.45,
39792760,-0.367,-0.426,0.937,-69.685,36.89,-5.88,
39792770,-0.3,-0.431,0.916,-57.715,25.742,-9.362,
39792780,-0.353,-0.395,0.882,-47.32,14.28,-11.585,
39792790,-0.188,-0.396,0.911,-29.627,1.645,-12.39,
39792800,-0.049,-0.329,0.928,-22.855,-4.97,-2.187,
39792810,-0.099,-0.2,1.002,-23.87,-4.34,10.99,
39792820,-0.125,-0.067,1.089,-35.315,-2.835,17.692,
39792830,-0.15,-0.047,1.133,-60.025,-1.715,20.317,
39792840,-0.209,-0.047,1.161,-89.915,-3.692,19.267,
39792850,-0.144,-0.121,1.158,-122.657,-9.415,18.06,
39792860,-0.124,-0.127,1.14,-151.655,-14.385,17.762,
39792870,-0.064,-0.165,1.099,-178.255,-15.33,21.84,
39792880,-0.08,-0.213,1.049,-203.892,-12.827,24.342,
39792890,-0.046,-0.22,0.943,-227.395,-5.67,24.517,
39792900,-0.101,-0.313,0.958,-240.52,2.887,23.87,
39792910,-0.123,-0.45,0.892,-250.355,6.79,20.387,
39792920,-0.19,-0.407,1.035,-240.94,-0.647,12.687,
39792930,-0.24,-0.303,1.027,-246.05,-8.032,12.267,
39792940,-0.267,-0.471,1.168,-277.602,-8.627,12.722,
39792950,-0.204,-0.582,1.154,-286.405,-13.912,16.73,
39792960,-0.125,-0.819,1.225,-283.027,-26.74,24.5,
39792970,-0.246,-1.334,1.472,-253.487,-19.197,35.157,
39792980,0.058,-1.042,1.419,-173.67,-25.935,49.752,
39792990,-0.017,-1.051,1.831,-102.515,-28.105,84.77,
39793000,0.563,-0.401,1.567,-2.117,14.997,105.665,
39793010,0.679,0.551,0.314,135.835,6.492,100.712,
39793010,0.824,0.229,0.606,166.197,10.482,66.885,
39793030,0.846,-0.02,0.406,160.895,19.46,6.37,
39793030,0.577,0.2,-0.277,173.197,33.215,-59.027,
39793050,0.012,0.204,-0.756,167.212,41.335,-96.915,
39793050,-0.358,-0.031,-0.685,128.625,43.452,-107.065,
39793070,-0.503,-0.2,-0.818,88.357,52.832,-84.42,
39793070,-0.417,-0.082,-0.93,60.305,61.215,-49.087,
39793080,-0.169,0.042,-0.848,34.86,69.86,-4.935,
39793090,0.33,0.135,-0.723,20.615,76.247,27.965,
39793100,0.403,-0.314,-0.491,10.937,76.177,34.177,
39793110,-0.542,-1.978,0.661,59.01,161.56,27.685,
39793120,-1.947,-1.538,-0.603,396.847,-97.177,252.945,
39793130,1.292,1.997,1.809,296.222,-159.705,163.537,
39793140,-1.647,0.741,1.32,314.16,-135.047,173.985,
39793150,-0.96,-1.351,1.378,384.475,-175.07,132.055,
39793160,-1.295,0.393,1.511,370.352,-190.487,31.955,
39793170,-0.062,0.08,1.584,265.055,-201.355,-28.42,
39793180,1.741,1.357,1.264,152.092,-154.035,-27.317,
39793190,0.917,0.248,1.103,15.54,-51.765,-13.3,
39793200,0.373,-0.188,1.022,-29.575,7.735,-13.09,
39793210,-0.048,-0.308,1.001,-43.855,33.197,-16.817,
39793220,-0.25,-0.26,0.977,-45.272,37.555,-19.337,
39793230,-0.227,-0.311,0.956,-50.505,33.075,-17.99,
39793240,-0.35,-0.355,0.893,-41.86,27.177,-22.19,
39793250,-0.089,-0.305,0.973,-29.907,18.357,-21.787,
39793260,-0.129,-0.214,1.005,-31.132,13.807,-8.977,
39793270,-0.122,-0.129,1.062,-47.547,14.315,-4.392,
39793280,-0.13,-0.086,1.122,-67.165,16.187,-4.777,
39793290,-0.144,-0.1,1.127,-96.477,19.74,-7.157,
39793300,-0.237,-0.139,1.165,-130.182,22.207,-13.755,
39793310,-0.149,-0.142,1.126,-157.115,18.375,-20.125,
39793320,-0.119,-0.277,1.091,-185.692,18.602,-22.207,
39793330,-0.153,-0.213,1.023,-208.635,21.805,-21.35,
39793340,-0.218,-0.261,0.892,-228.305,25.13,-20.895,
39793350,-0.204,-0.475,0.884,-238.542,30.03,-28.665,
39793350,-0.277,-0.427,0.86,-220.972,30.59,-41.422,
39793370,-0.21,-0.388,0.886,-214.357,27.37,-51.887,
39793370,-0.146,-0.514,0.994,-230.982,30.24,-61.512,
39793390,0.136,-0.644,1.251,-243.635,53.182,-57.12,
39793390,-0.007,-1.105,1.433,-252.07,110.197,-46.305,
39793410,-0.386,-1.186,1.314,-216.125,164.99,-31.115,
39793410,-0.412,-1.269,0.589,-167.877,192.447,-9.292,
39793420,-0.143,-1.71,0.497,-101.517,221.497,-0.28,
39793430,-0.08,-1.451,0.881,-25.882,178.675,-62.352,
39793440,-0.423,-1.142,0.985,93.835,105.735,-107.782,
39793450,-0.374,-0.594,0.827,175.542,79.222,-88.515,
39793460,-0.813,-0.231,0.125,242.165,13.335,-84.945,
39793470,-0.791,0.04,0.218,232.54,-8.365,-90.317,
39793480,-0.834,-0.041,-0.162,241.447,4.095,-51.66,
39793490,-0.658,0.228,-1.428,269.867,-3.255,-14.63,
39793500,-0.156,0.782,-1.997,269.097,6.475,22.312,
39793510,-0.024,0.505,-1.508,112.105,39.34,20.947,
39793520,-0.579,-0.764,-0.553,-63.402,77.122,78.382,
39793530,-0.432,-1.348,-0.561,-76.65,67.952,159.162,
39793540,0.925,-0.577,-0.695,-25.2,24.132,179.742,
39793550,1.561,-0.272,-0.628,-62.93,21.822,194.81,
39793560,0.455,-1.465,0.928,-120.82,-6.895,162.085,
39793570,0.357,-1.988,0.349,91.875,-233.397,52.64,
39793580,-1.998,1.206,-0.73,539.542,-170.782,75.46,
39793590,0.912,-0.178,1.941,365.19,-256.935,97.475,
39793600,-1.031,-0.42,1.639,294.42,-221.305,95.9,
39793610,-0.69,0.208,1.515,333.392,-251.125,-33.005,
39793620,1.942,1.68,1.316,159.512,-204.137,-51.852,
39793630,0.919,0.461,1.076,19.635,-40.582,-40.442,
39793640,0.319,-0.094,1.029,-42.21,42.595,-18.41,
39793650,-0.374,-0.448,0.983,-63.087,69.807,-13.912,
39793660,-0.484,-0.341,0.962,-55.895,56.927,-19.915,
39793670,-0.821,-0.46,0.87,-43.89,37.275,-30.327,
39793680,-0.174,-0.417,0.922,-20.842,9.327,-42.752,
39793690,0.028,-0.332,0.928,-8.785,-1.295,-31.622,
39793700,-0.05,-0.301,0.959,-7.315,-1.575,-7,
39793710,-0.132,-0.089,1.021,-12.11,2.257,6.142,
39793720,-0.133,-0.008,1.096,-29.662,7.735,5.687,
39793730,-0.322,-0.056,1.055,-54.862,17.045,-5.355,
39793740,-0.136,-0.168,1.054,-77.192,20.965,-17.622,
39793750,-0.069,-0.099,1.088,-97.912,28.927,-20.177,
39793760,0.084,0.053,1.24,-128.537,38.167,-16.485,
39793760,0.019,-0.128,1.209,-163.31,39.637,0.665,
39793780,-0.096,-0.095,1.087,-187.355,34.86,21.735,
39793780,-0.532,-0.413,0.892,-197.697,19.81,39.2,
39793800,-0.574,-0.585,0.834,-207.305,-3.36,33.162,
39793800,-0.749,-0.445,0.772,-204.137,-9.415,7.665,
39793820,-1.112,-0.73,0.703,-187.145,-14.962,-47.53,
39793820,-0.368,-0.909,0.783,-157.587,-24.29,-86.677,
39793830,0.38,-0.612,1.2,-172.2,10.395,-85.96,
39793840,0.393,-0.556,1.108,-168.857,49.787,-76.142,
39793850,0.055,-0.747,0.854,-149.87,91.997,-54.477,
39793860,-0.339,-1.024,0.543,-119.227,121.66,-22.33,
39793870,0.367,-1.872,0.398,-80.202,183.085,3.675,
39793880,-1.59,-1.94,-0.448,-32.777,276.115,84.455,
39793890,-1.693,-0.735,-0.22,68.897,130.69,74.252,
39793900,0.827,-0.545,0.443,18.672,71.452,130.165,
39793910,1.274,-1.678,0.798,14.402,12.285,231.21,
39793920,1.013,-1.636,0.715,45.745,-35.595,162.347,
39793930,0.844,-0.747,0.102,59.972,-80.342,79.31,
39793940,1.12,-0.153,-0.498,47.53,-103.005,32.725,
39793950,1.024,0.19,-0.256,-10.377,-116.742,-25.655,
39793960,0.566,0.632,0.111,-71.522,-133.945,-78.785,
39793970,0.446,1.226,-0.204,-87.797,-114.747,-92.225,
39793980,0.433,1.916,-0.857,-49.525,-91.332,-81.707,
39793990,-0.685,0.588,1.026,-51.467,-62.527,-59.185,
39794000,-1.998,-1.725,1.208,186.462,-46.445,72.52,
39794010,-0.259,-1.998,-0.144,522.812,-87.5,255.587,
39794020,0.187,-0.295,1.583,333.76,-128.572,190.085,
39794030,-1.821,1.477,1.35,445.427,-111.965,-7.892,
39794040,-1.315,-1.091,1.797,370.44,-175.42,-15.89,
39794050,0.764,0.813,1.807,303.66,-214.095,-73.902,
39794060,1.449,1.317,1.209,145.757,-144.9,-60.567,
39794070,0.682,0.244,1.048,17.412,-50.207,-19.897,
39794080,0.299,-0.187,0.999,-25.41,-0.402,-3.972,
39794080,-0.04,-0.243,0.987,-35.052,22.032,4.112,
39794100,-0.216,-0.22,1.002,-42.297,26.67,0.28,
39794100,-0.172,-0.278,0.981,-49.332,24.552,-2.31,
39794120,-0.062,-0.234,0.991,-52.412,21.84,3.902,
39794120,-0.086,-0.177,1,-62.107,24.325,11.882,
39794140,-0.263,-0.294,0.971,-74.41,28.35,17.605,
39794140,-0.084,-0.204,1.019,-80.045,28.63,18.042,
39794160,-0.119,-0.068,1.149,-101.71,35.262,13.685,
39794160,-0.035,-0.056,1.178,-132.125,40.145,12.757,
39794170,0.083,-0.077,1.178,-169.627,49.332,17.675,
39794180,0.096,-0.089,1.155,-202.177,61.67,25.287,
39794190,0.111,-0.18,1.152,-227.815,75.932,32.2,
39794200,0.124,-0.179,1.126,-248.587,92.067,33.11,
39794210,0.089,-0.303,1.047,-259.105,109.357,38.92,
39794220,0.255,-0.57,1.12,-263.76,136.85,52.92,
39794230,0.2,-0.364,1.339,-255.675,191.275,75.022,
39794240,0.105,-0.509,1.754,-276.237,249.392,89.687,
39794250,-0.214,-0.752,1.993,-291.725,256.165,104.335,
39794260,0.292,-0.43,1.388,-291.952,160.265,120.522,
39794270,1.071,-0.589,1.678,-242.69,79.135,116.095,
39794280,1.04,-1.194,1.998,-179.917,-8.277,60.2,
39794290,1.998,-1.177,1.998,26.845,-38.762,-21.437,
39794300,1.438,-0.082,1.457,206.78,-92.715,-169.715,
39794310,-0.309,0.389,0.809,247.94,-112.192,-320.005,
39794320,-0.742,0.706,0.359,243.827,-127.155,-318.5,
39794330,-0.673,0.928,-0.36,255.64,-140.472,-263.48,
39794340,-0.168,1.501,-0.671,258.877,-131.757,-188.265,
39794350,0.15,1.298,-0.791,171.36,-101.097,-127.68,
39794360,0.118,1.023,-0.544,83.965,-69.475,-84.91,
39794370,-0.319,0.859,0.133,46.795,-64.26,-58.012,
39794380,-0.509,0.346,0.424,54.512,-72.047,-15.26,
39794390,-0.368,-1.584,0.283,154.157,7.332,85.295,
39794400,-0.342,-1.998,-1.997,407.452,-50.995,467.04,
39794410,1.316,0.559,0.978,307.93,-270.847,568.75,
39794420,-1.998,1.987,1.265,110.372,-47.407,455.7,
39794430,-1.738,-1.464,1.396,372.277,-125.667,145.775,
39794440,-1.708,-0.581,1.727,307.247,-156.73,-65.8,
39794450,1.601,1.468,1.428,264.565,-199.605,-166.582,
39794460,1.504,1.057,1.067,63.472,-83.702,-42.647,
39794470,-0.119,-0.13,1.083,-48.527,17.307,50.33,
39794480,-0.716,-0.465,0.945,-59.867,17.85,43.12,
39794490,-0.313,-0.514,0.924,-32.76,-9.03,3.43,
39794500,-0.125,-0.308,0.945,-7.77,-22.085,-15.575,
39794510,0.106,-0.116,0.996,-2.065,-22.767,-13.44,
39794510,0.113,-0.068,0.974,-13.212,-14.157,1.557,
39794530,-0.085,-0.263,0.992,-20.912,-6.037,17.797,
39794530,-0.152,-0.18,0.998,-21.542,-5.18,22.067,
39794550,-0.089,-0.097,1.044,-33.46,-4.83,15.347,
39794550,-0.076,-0.094,1.072,-47.635,-3.587,12.512,
39794570,-0.05,-0.096,1.104,-71.452,-2.432,13.65,
39794570,-0.068,-0.049,1.144,-98.91,-1.802,15.662,
39794580,-0.069,-0.161,1.152,-127.382,-2.397,20.387,
39794590,-0.079,-0.214,1.137,-151.812,-4.165,24.15,
39794600,-0.084,-0.201,1.089,-175.857,-2.747,25.06,
39794610,-0.105,-0.254,1.009,-199.062,1.172,21.945,
39794620,-0.132,-0.304,0.948,-210.927,7.962,17.062,
39794630,-0.157,-0.356,0.933,-216.422,18.13,4.795,
39794640,-0.154,-0.469,0.969,-214.742,27.335,-8.75,
39794650,-0.2,-0.739,1.015,-212.852,30.275,-20.51,
39794660,-0.206,-0.717,1.045,-172.427,28.437,-21.665,
39794670,-0.142,-0.891,0.876,-153.65,27.65,-12.88,
39794680,-0.145,-1.611,-0.155,-106.155,-5.67,7,
39794690,0.152,-1.998,-0.074,-104.65,0.455,71.942,
39794700,-1.929,-1.998,-0.928,-78.19,-50.155,149.362,
39794710,-0.536,-1.553,-0.643,-70.98,-69.002,211.872,
39794720,0.574,-1.856,-0.018,-145.04,-55.177,338.012,
39794730,1.53,-1.998,0.642,-198.957,-30.362,320.687,
39794740,1.252,-1.778,0.855,-201.39,-2.03,214.987,
39794750,0.718,-1.065,1.067,-201.495,20.422,89.88,
39794760,0.328,-1.022,1.314,-208.407,38.22,-16.642,
39794770,0.084,-0.956,1.408,-199.395,46.812,-94.045,
39794780,-0.104,-0.924,1.512,-189.525,62.37,-150.045,
39794790,-0.465,-0.921,1.541,-178.885,74.007,-171.902,
39794800,-0.774,-0.936,1.598,-191.292,65.432,-181.58,
39794810,-0.82,-0.781,1.755,-212.432,42.927,-182.735,
39794820,-0.818,-0.759,1.996,-242.567,31.045,-170.1,
39794830,-0.928,-0.873,1.998,-260.032,17.745,-145.495,
39794830,-0.809,-0.75,1.998,-249.865,-3.045,-119.91,
39794850,-0.665,-0.627,1.997,-225.05,-32.095,-92.452,
39794850,-0.407,-0.516,1.797,-194.67,-57.89,-69.125,
39794870,-0.286,-0.489,1.529,-161.997,-71.697,-40.53,
39794870,-0.225,-0.754,1.26,-150.167,-73.937,-17.255,
39794890,-0.132,-0.797,1.003,-137.27,-71.505,-12.967,
39794890,-0.003,-0.719,0.844,-108.517,-65.275,-16.502,
39794910,0.041,-0.696,0.731,-94.622,-54.74,-23.8,
39794910,-0.044,-0.64,0.567,-76.772,-52.92,-38.01,
39794920,-0.157,-0.499,0.339,-51.24,-60.987,-45.535,
39794930,-0.196,-0.375,0.123,-39.532,-68.11,-31.657,
39794940,-0.11,-0.424,0.032,-29.312,-64.54,-11.9,
39794950,-0.083,-0.444,-0.021,-12.547,-53.655,6.615,
39794960,-0.165,-0.369,-0.055,5.197,-43.715,19.617,
39794970,-0.263,-0.321,-0.109,21.105,-42.297,27.51,
39794980,-0.269,-0.288,-0.162,31.78,-47.302,35.542,
39794990,-0.2,-0.263,-0.259,36.82,-53.007,41.842,
39795000,-0.054,-0.163,-0.278,37.345,-47.145,48.615,
39795010,0.062,-0.096,-0.197,31.815,-30.642,56.455,
39795020,0.076,-0.124,-0.027,24.43,-15.435,60.987,
39795030,0.095,-0.168,0.187,22.242,-11.777,56.98,
39795040,0.207,-0.228,0.366,32.305,-13.895,46.777,
39795050,0.177,-0.284,0.435,55.492,-9.432,36.837,
39795060,-0.069,-0.279,0.3,86.94,-11.76,26.775,
39795070,-0.135,-0.219,0.118,106.627,-16.712,27.527,
39795080,-0.033,-0.202,-0.022,102.847,-20.51,38.535,
39795090,0.071,-0.252,-0.055,88.83,-20.195,44.187,
39795100,0.065,-0.261,-0.025,77.21,-18.34,42.42,
39795110,0.019,-0.236,0,69.755,-18.97,36.96,
39795120,-0.013,-0.227,0.047,63.98,-25.795,30.432,
39795130,-0.04,-0.233,0.204,57.207,-30.905,24.36,
39795140,-0.131,-0.378,0.339,57.61,-34.387,23.432,
39795150,-0.099,-0.505,0.356,71.837,-32.322,30.275,
39795160,-0.012,-0.51,0.307,91.455,-33.617,33.145,
39795170,0.058,-0.525,0.194,103.11,-37.642,23.345,
39795180,-0.043,-0.535,0.088,106.102,-42.717,8.26,
39795190,-0.058,-0.6,0.003,95.305,-48.09,-6.475,
39795200,-0.068,-0.668,-0.054,79.012,-56.122,-15.505,
39795210,-0.013,-0.713,-0.011,57.96,-57.102,-21.787,
39795220,0.004,-0.823,0.092,32.707,-51.87,-23.327,
39795230,0.075,-0.987,0.398,4.41,-37.642,-23.8,
39795240,-0.063,-1.348,0.804,-21.402,-20.422,-25.515,
39795250,-0.278,-1.682,1.03,-27.632,-14.175,-26.372,
39795260,-0.182,-1.735,1.051,-23.152,-15.61,-22.172,
39795260,0.072,-1.892,0.991,-28.77,-6.562,-14.262,
39795280,0.121,-1.998,1.005,-42.735,-3.675,-11.777,
39795280,0.093,-1.998,1.058,-58.152,-4.9,-16.922,
39795300,0.101,-1.998,1.048,-66.78,-9.152,-25.497,
39795300,0.172,-1.998,0.992,-70.962,-12.565,-24.29,
39795320,0.21,-1.998,0.963,-80.745,-15.015,-27.405,
39795320,0.072,-1.998,0.917,-87.815,-18.917,-42.595,
39795330,-0.025,-1.998,0.793,-86.887,-21.227,-54.285,
39795340,0.037,-1.881,0.714,-85.26,-13.072,-58.1,
39795350,0.042,-1.732,0.675,-85.295,2.992,-58.695,
39795360,-0.006,-1.54,0.733,-81.725,16.45,-59.692,
39795370,-0.113,-1.36,0.72,-78.05,20.825,-61.915,
39795380,-0.064,-1.203,0.825,-72.957,31.605,-61.617,
39795390,-0.251,-1.044,0.932,-68.442,42.822,-58.625,
39795400,-0.437,-0.89,0.883,-55.615,41.562,-52.29,
39795410,-0.341,-0.697,0.73,-38.692,38.605,-33.512,
39795420,-0.189,-0.591,0.613,-26.162,44.852,-11.112,
39795430,-0.123,-0.529,0.614,-17.64,56.577,4.987,
39795440,-0.016,-0.487,0.633,-10.85,60.375,12.652,
39795450,0.17,-0.47,0.627,-1.505,59.482,11.06,
39795460,0.287,-0.463,0.593,9.957,57.05,-3.885,
39795470,0.302,-0.416,0.549,23.485,54.005,-26.565,
39795480,0.266,-0.336,0.476,36.085,47.145,-48.93,
39795490,0.244,-0.256,0.354,47.635,38.622,-66.815,
39795500,0.282,-0.147,0.271,56.192,32.375,-80.43,
39795510,0.192,-0.073,0.189,60.567,27.912,-90.51,
39795520,0.078,0.023,0.107,64.54,17.43,-98.647,
39795530,0.026,0.154,0.047,67.76,7.315,-101.15,
39795540,-0.036,0.277,0.026,66.255,1.995,-96.53,
39795550,-0.148,0.344,0.019,63.665,2.292,-83.335,
39795560,-0.165,0.423,0.051,60.27,5.407,-65.677,
39795570,-0.183,0.444,0.093,55.072,12.6,-43.505,
39795580,-0.218,0.413,0.145,51.135,18.252,-22.137,
39795580,-0.216,0.374,0.233,52.972,20.387,-3.832,
39795600,-0.207,0.318,0.305,61.075,19.162,11.917,
39795600,-0.093,0.261,0.35,74.252,18.322,27.545,
39795620,0.049,0.158,0.36,84.84,18.602,38.22,
39795620,0.205,0.035,0.366,92.942,23.152,40.95,
39795640,0.334,-0.097,0.424,97.51,31.132,35.98,
39795640,0.342,-0.337,0.497,98.892,35.612,21.402,
39795660,0.125,-0.632,0.584,113.995,27.877,-11.917,
39795660,-0.203,-0.354,0.611,118.37,17.08,-34.002,
39795670,-0.175,-0.635,0.569,110.075,20.51,-14.507,
39795680,-0.232,-0.717,0.534,118.457,22.33,6.65,
39795690,-0.252,-0.47,0.571,111.51,25.252,43.505,
39795700,-0.061,-0.577,0.713,76.107,32.777,78.662,
39795710,0.118,-1,0.82,51.292,36.295,103.915,
39795720,0.316,-1.116,0.902,65.24,30.45,88.795,
39795730,0.256,-0.946,0.857,68.862,25.865,72.8,
39795740,0.099,-0.872,0.796,62.335,11.357,55.335,
39795750,-0.182,-0.856,0.94,56.245,-9.467,39.76,
39795760,-0.492,-0.953,1.222,50.732,-19.967,42.455,
39795770,-0.713,-0.986,1.234,64.802,-17.412,73.325,
39795780,-0.713,-0.75,1.026,95.217,-15.75,109.27,
39795790,-0.555,-0.709,1.073,99.487,-7.227,140.962,
39795800,-0.538,-0.951,1.198,85.68,5.215,170.782,
39795810,-0.456,-1.283,1.199,104.877,15.067,173.915,
39795820,-0.651,-0.608,1.237,135.047,22.435,149.117,
39795830,-1.128,-0.625,1.149,120.68,40.477,211.05,
39795840,-1.33,-1.021,1.179,101.01,40.74,233.432,
39795850,-1.558,-0.981,1.278,98.927,24.745,242.305,
39795860,-1.866,-0.944,1.336,73.185,-30.502,244.142,
39795870,-1.394,-1.119,1.475,32.2,-101.062,255.062,
39795880,-0.806,-1.509,1.558,9.695,-129.517,257.512,
39795890,-0.435,-1.749,1.27,33.162,-126.42,246.33,
39795900,0.049,-1.427,0.974,65.24,-107.082,201.215,
39795910,0.198,-1.122,0.751,65.327,-81.235,144.83,
39795920,0.096,-1.119,0.516,46.812,-57.137,91.7,
39795930,0.067,-1.063,0.336,35.525,-36.155,44.905,
39795940,0.163,-0.921,0.262,30.397,-12.442,16.012,
39795950,0.384,-0.955,0.289,24.412,35.297,8.47,
39795960,0.317,-1.017,0.144,25.865,78.68,11.235,
39795970,0.245,-0.849,-0.123,30.502,81.27,1.627,
39795980,0.478,-0.58,-0.359,14.595,60.602,-19.005,
39795990,0.479,-0.483,-0.54,-33.32,39.2,-37.625,
39796000,0.202,-0.539,-0.672,-87.045,16.047,-45.605,
39796000,0.012,-0.364,-0.755,-131.635,-3.43,-58.257,
39796010,-0.313,-0.035,-0.933,-161.927,-21.192,-60.637,
39796020,-0.245,-0.302,-1.241,-199.85,-20.3,-59.272,
39796030,-0.641,-0.881,0.59,-218.347,-2.73,-164.797,
39796040,1.334,-1.998,0.583,233.327,176.382,-39.445,
39796050,-0.735,-0.606,-0.626,517.16,-119.56,58.887,
39796060,-0.471,-0.462,1.773,289.31,67.69,-133.07,
39796070,0.262,1.787,1.186,408.59,-15.977,-34.982,
39796080,-0.421,-1.249,1.677,398.352,-37.52,15.592,
39796090,-0.738,0.319,1.762,327.967,-78.942,50.33,
39796100,-0.461,0.854,1.373,221.2,-95.515,11.497,
39796110,0.446,0.938,1.175,79.87,-61.372,-24.867,
39796120,0.649,0.252,1.071,5.302,-15.365,-50.067,
39796130,0.389,-0.423,0.996,-40.232,24.377,-36.032,
39796140,0.002,-0.349,0.947,-46.865,46.27,-10.027,
39796150,-0.319,-0.342,0.939,-48.965,50.54,6.667,
39796160,-0.466,-0.281,0.949,-44.467,41.562,5.057,
39796170,-0.324,-0.242,0.973,-40.057,29.435,-3.552,
39796180,-0.269,-0.188,0.977,-41.912,21.332,-8.4,
39796190,-0.204,-0.278,1.014,-47.425,15.312,-11.882,
39796200,-0.199,-0.113,1.068,-53.095,11.147,-9.065,
39796210,-0.161,-0.18,1.137,-82.722,9.782,-4.41,
39796220,-0.19,-0.165,1.164,-112.91,7.98,-12.127,
39796230,-0.208,-0.125,1.152,-145.25,6.825,-20.405,
39796240,-0.22,-0.215,1.11,-180.267,5.565,-23.572,
39796250,-0.23,-0.262,1.046,-203.157,8.662,-30.415,
39796260,-0.216,-0.309,0.954,-219.415,13.125,-41.58,
39796270,-0.151,-0.311,0.981,-231.892,21.017,-54.18,
39796280,-0.142,-0.526,0.904,-245.525,30.625,-64.365,
39796290,-0.054,-0.687,1.147,-229.285,59.972,-79.8,
39796300,-0.267,-0.791,0.955,-223.51,111.895,-83.807,
39796310,-0.504,-1.331,0.723,-207.83,157.71,-77.507,
39796320,-0.187,-1.581,0.63,-145.197,185.99,-104.142,
39796330,-0.281,-1.453,0.272,-88.987,175.542,-149.1,
39796330,-0.601,-1.55,0.28,-34.807,184.607,-158.48,
39796350,-0.91,-1.164,-0.368,34.09,121.94,-140.77,
39796350,-0.363,-1.132,-0.101,60.76,60.567,-139.597,
39796370,-1.313,-0.922,-0.345,13.265,14.105,-145.145,
39796370,-1.113,-0.551,-0.495,25.462,19.757,-112.035,
39796390,-1.074,-0.232,-0.404,34.772,12.495,-8.33,
39796390,-0.434,-0.092,-0.475,17.167,10.167,82.25,
39796410,0.221,0.43,-1.079,14.035,14.63,145.477,
39796410,0.888,1.161,-1.213,-3.92,46.76,185.482,
39796420,0.933,1.367,-0.947,-74.252,102.13,209.895,
39796430,1.154,-1.11,1.71,-71.575,66.972,129.937,
39796440,1.173,-1.852,0.862,333.375,-102.882,100.922,
39796450,-1.998,-1.998,-0.971,490.385,-163.45,79.012,
39796460,0.895,0.118,1.777,412.457,-212.485,146.807,
39796470,-1.126,0.603,1.639,430.605,-204.785,197.032,
39796480,-0.961,-0.093,1.459,390.46,-215.6,74.812,
39796490,-0.978,0.452,1.595,304.395,-208.425,-19.495,
39796500,1.674,1.265,1.385,185.972,-177.31,-72.397,
39796510,1.384,0.352,1.134,31.692,-69.825,-56.875,
39796520,0.61,-0.154,1.041,-35.07,13.23,-21.35,
39796530,0.009,-0.294,0.982,-51.275,51.17,-9.03,
39796540,-0.234,-0.282,0.97,-44.852,60.637,-13.037,
39796550,-0.45,-0.332,0.932,-45.762,59.08,-15.855,
39796560,-0.329,-0.341,0.92,-37.45,47.232,-20.177,
39796570,-0.186,-0.323,0.94,-36.05,37.975,-18.585,
39796580,-0.165,-0.256,0.985,-43.155,32.97,-4.287,
39796590,-0.216,-0.124,1.051,-58.537,33.845,8.575,
39796600,-0.277,-0.089,1.102,-84.997,37.152,7.367,
39796610,-0.17,-0.132,1.104,-116.847,41.947,-1.995,
39796620,-0.322,-0.164,1.171,-153.265,50.68,-19.46,
39796630,-0.129,-0.168,1.115,-179.445,50.102,-30.065,
39796640,-0.195,-0.328,1.045,-201.057,50.452,-30.362,
39796650,-0.146,-0.275,1.001,-216.597,55.142,-31.132,
39796660,-0.041,-0.201,0.996,-220.99,66.027,-28.56,
39796670,0.029,-0.521,0.96,-227.535,84.56,-21.455,
39796670,0.028,-0.571,1.11,-203.402,100.747,-16.835,
39796690,0.3,-0.563,1.269,-192.01,135.31,-1.487,
39796690,-0.065,-0.714,0.846,-180.792,166.057,29.995,
39796710,-0.526,-0.922,1.036,-158.34,176.172,58.555,
39796710,-0.391,-1.264,1.155,-110.057,153.09,24.395,
39796730,-0.392,-1.147,0.758,-14.98,87.115,14.437,
39796730,1.207,-1.149,1.493,78.785,-16.135,-27.825,
39796750,1.827,-0.416,0.325,130.2,-67.777,-134.802,
39796750,-0.661,-0.419,0.061,187.565,14.472,-250.32,
39796760,-1.971,-0.257,-0.034,196.087,11.462,-269.377,
39796770,-1.107,0.073,-0.771,225.715,-13.177,-180.407,
39796780,-0.117,0.425,-1.918,257.425,-19.792,-56.717,
39796790,0.668,0.325,-1.316,127.102,21.647,-23.432,
39796800,0.243,-0.826,-0.693,-7.612,50.155,-15.312,
39796810,0.092,-1.443,0.51,10.99,67.217,7.56,
39796820,-1.998,-1.998,-0.152,129.57,-46.392,46.655,
39796830,-0.643,0.356,1.278,479.78,-172.165,157.902,
39796840,1.17,1.157,1.921,306.582,-205.327,203.35,
39796850,-1.916,-1.105,1.208,256.217,-185.237,100.817,
39796860,-0.914,0.12,1.399,288.102,-214.462,-22.225,
39796870,1.383,1.222,1.316,179.655,-199.377,-61.302,
39796880,1.4,0.517,1.072,55.387,-93.8,-48.037,
39796890,0.73,-0.098,1.037,-17.517,3.15,-12.442,
39796900,-0.088,-0.222,0.993,-35.962,45.027,-3.202,
39796910,-0.284,-0.297,0.965,-33.705,51.362,-13.142,
39796920,-0.456,-0.344,0.929,-26.635,43.54,-24.15,
39796930,-0.392,-0.322,0.926,-15.61,29.592,-31.745,
39796940,-0.215,-0.331,0.942,-6.93,15.907,-31.745,
39796950,-0.145,-0.234,0.95,-2.922,9.275,-17.797,
39796960,-0.144,-0.209,0.97,-7.402,6.545,-5.11,
39796970,-0.145,-0.106,0.995,-14.227,7.98,3.447,
39796980,-0.198,-0.026,1.023,-27.65,11.497,6.702,
39796990,-0.268,-0.03,1.038,-46.287,15.82,2.642,
39797000,-0.275,-0.154,1.038,-65.362,15.347,-2.345,
39797010,-0.227,-0.277,1.046,-82.302,11.042,-4.2,
39797020,-0.186,-0.222,1.101,-102.112,7.017,-2.695,
39797030,-0.092,-0.165,1.141,-130.725,6.702,0.717,
39797040,-0.139,-0.243,1.14,-160.492,7,2.345,
39797050,-0.059,-0.299,1.066,-179.602,3.622,9.135,
39797060,0.015,-0.25,1.02,-194.39,12.04,11.27,
39797070,0.005,-0.267,1.049,-203.245,30.222,12.722,
39797080,-0.021,-0.457,1.111,-211.365,49.875,10.832,
39797080,-0.111,-0.561,1.242,-204.89,65.1,10.587,
39797100,0.079,-0.751,1.191,-194.425,93.782,15.61,
39797100,-0.293,-0.953,1.154,-167.265,115.08,43.487,
39797120,-0.353,-1.674,0.975,-122.92,92.312,47.18,
39797120,0.112,-1.998,-0.112,-40.075,-2.257,61.022,
39797140,1.636,-1.962,-0.332,5.302,-94.902,87.937,
39797140,0.863,-1.55,-0.513,-17.535,-103.81,52.237,
39797160,-0.42,-1.845,-0.004,-68.302,-95.515,7.402,
39797160,-0.263,-1.635,0.242,-109.672,-99.942,6.37,
39797170,0.053,-1.028,0.381,-96.18,-105.455,16.852,
39797180,0.076,-0.678,0.398,-112.945,-89.407,12.092,
39797190,0.197,-0.579,0.583,-146.947,-56.35,3.517,
39797200,0.167,-0.667,0.893,-160.947,-24.692,-10.325,
39797210,-0.215,-0.742,1.14,-159.722,-15.452,-36.417,
39797220,-0.355,-0.693,1.278,-154.385,-25.742,-63.105,
39797230,-0.256,-0.721,1.429,-171.01,-30.992,-78.942,
39797240,-0.55,-0.721,1.384,-186.655,-44.205,-81.235,
39797250,-0.599,-0.585,1.531,-198.747,-59.92,-86.117,
39797260,-0.565,-0.687,1.755,-224.717,-63.087,-77.91,
39797270,-0.599,-0.727,1.967,-240.747,-57.925,-63.542,
39797280,-0.67,-0.642,1.998,-240.292,-60.602,-54.687,
39797290,-0.673,-0.563,1.969,-228.69,-76.352,-47.18,
39797300,-0.548,-0.385,1.857,-204.382,-97.86,-31.325,
39797310,-0.366,-0.262,1.67,-182.577,-104.895,-5.967,
39797320,-0.31,-0.16,1.515,-162.172,-105.612,20.107,
39797330,-0.194,-0.149,1.388,-138.39,-103.285,40.285,
39797340,0.035,-0.27,1.252,-110.635,-96.39,51.73,
39797350,0.263,-0.343,1.105,-76.002,-77.962,50.207,
39797360,0.31,-0.338,1,-40.617,-57.61,29.925,
39797370,0.209,-0.374,0.91,-8.855,-46.865,0.175,
39797380,0.184,-0.383,0.81,22.645,-45.29,-24.99,
39797390,0.195,-0.324,0.706,52.22,-43.312,-45.255,
39797400,0.082,-0.247,0.62,78.61,-38.57,-58.765,
39797410,-0.043,-0.223,0.561,100.502,-31.78,-64.96,
39797420,-0.207,-0.178,0.531,116.532,-26.897,-64.26,
39797420,-0.483,-0.254,0.529,128.94,-26.285,-53.165,
39797440,-0.586,-0.433,0.478,139.107,-24.727,-28.07,
39797440,-0.449,-0.549,0.381,148.487,-16.415,11.06,
39797460,-0.21,-0.609,0.248,149.555,-6.352,46.707,
39797460,-0.014,-0.661,0.112,140.717,-1.435,64.19,
39797480,0.105,-0.735,-0.045,127.05,-2.31,66.062,
39797480,0.119,-0.709,-0.101,116.095,-8.225,56.892,
39797500,-0.209,-0.704,-0.201,98.472,-24.99,44.24,
39797500,-0.25,-0.885,-0.261,83.107,-39.112,46.987,
39797510,-0.192,-0.923,-0.227,64.89,-47.32,60.462,
39797520,-0.243,-0.93,-0.212,40.967,-55.002,73.237,
39797530,-0.232,-0.997,-0.227,30.712,-58.502,78.732,
39797540,-0.183,-0.961,-0.257,27.825,-57.942,76.685,
39797550,-0.281,-0.946,-0.288,21.157,-56.245,66.412,
39797560,-0.382,-0.936,-0.304,12.355,-56.857,51.275,
39797570,-0.406,-0.934,-0.276,1.627,-52.99,38.29,
39797580,-0.499,-0.953,-0.241,-10.675,-43.137,31.937,
39797590,-0.514,-0.998,-0.188,-22.522,-28.245,26.687,
39797600,-0.413,-1.034,-0.133,-34.492,-8.05,21.84,
39797610,-0.303,-1.02,-0.087,-46.672,15.207,10.692,
39797620,-0.198,-0.903,-0.093,-58.275,35.805,-11.795,
39797630,0.033,-0.47,-0.119,-73.307,56.577,-40.862,
39797640,0.543,0.171,0.099,-102.83,85.715,-68.967,
39797650,1.2,0.056,0.734,-150.027,145.04,-56.455,
39797660,0.895,-0.646,1.763,-198.1,185.605,3.552,
39797670,0.709,-1.012,1.993,-167.807,108.64,30.73,
39797680,1.434,-0.519,1.704,-95.847,-3.115,13.212,
39797690,1.863,-0.187,1.655,-62.055,-50.382,-36.155,
39797700,1.124,-0.539,1.948,-56.175,-37.345,-79.012,
39797710,-0.032,-0.78,1.998,-36.4,-52.832,-79.17,
39797720,-0.597,-1.013,1.998,-8.365,-128.065,-52.71,
39797730,-0.47,-1.503,1.998,19.372,-188.02,-15.925,
39797740,-0.11,-1.818,1.694,53.48,-188.457,-6.405,
39797750,-0.915,-1.362,1.145,110.635,-153.825,10.412,
39797760,-0.972,-1.229,0.836,118.002,-109.34,64.522,
39797770,-0.817,-1.891,0.794,110.11,-85.61,24.71,
39797780,-0.521,-1.789,0.729,67.13,-50.715,-22.47,
39797790,-0.583,-1.972,0.823,75.127,2.17,-5.215,
39797800,-0.617,-1.974,0.775,75.687,29.627,-0.892,
39797810,-0.643,-1.827,0.603,68.355,30.502,-10.43,
39797820,-0.531,-1.712,0.432,56.332,32.375,-6.807,
39797830,-0.525,-1.674,0.228,31.43,41.44,0.175,
39797830,-0.549,-1.49,0.068,20.265,44.835,0.805,
39797850,-0.48,-1.222,-0.034,8.295,47.74,2.712,
39797850,-0.376,-1.066,-0.124,-15.032,53.217,10.99,
39797870,-0.291,-1.014,-0.178,-33.285,55.72,16.1,
39797870,-0.205,-0.907,-0.224,-43.19,51.817,11.2,
39797890,-0.104,-0.778,-0.21,-49.542,49.91,1.365,
39797890,-0.138,-0.68,-0.19,-56.175,52.447,-7.56,
39797910,-0.233,-0.496,-0.176,-61.39,50.977,-17.587,
39797910,-0.193,-0.175,-0.115,-71.12,47.985,-25.497,
39797920,0.003,0.036,0.09,-91.21,56.332,-20.37,
39797930,0.112,-0.143,0.43,-115.727,78.102,4.707,
39797940,0.186,-0.318,0.668,-120.802,85.785,35.105,
39797950,0.439,-0.223,0.688,-100.922,71.225,52.342,
39797960,0.691,-0.035,0.551,-75.565,51.31,41.93,
39797970,0.779,-0.201,0.512,-15.802,34.895,10.325,
39797980,0.635,-0.148,0.407,-55.387,37.257,-15.925,
39797990,0.393,-0.247,0.29,-65.205,36.085,-44.292,
39798000,0.251,-0.287,0.312,-49.892,31.412,-77.56,
39798010,0.01,-0.358,0.341,-55.72,27.072,-93.38,
39798020,0.012,-0.461,0.423,-61.04,25.847,-95.042,
39798030,0.205,-0.641,0.577,-64.05,32.725,-90.825,
39798040,0.129,-0.917,0.648,-69.93,36.54,-103.39,
39798050,-0.112,-1.062,0.742,-71.61,44.625,-124.32,
39798060,-0.371,-1.023,0.772,-80.36,50.347,-130.095,
39798070,-0.234,-1.106,0.802,-93.205,64.872,-121.065,
39798080,0.335,-1.213,1.018,-65.8,95.707,-112.56,
39798090,0.419,-1.085,1.108,-100.17,158.83,-54.792,
39798100,0.404,-1.353,1.339,-142.677,225.452,-21.07,
39798110,0.235,-1.685,1.533,-137.217,269.22,-17.027,
39798120,-0.086,-1.647,1.568,-117.355,289.59,-12.11,
39798130,-0.289,-1.514,1.682,-88.095,280.385,-8.015,
39798140,-0.289,-1.634,1.723,-58.45,242.235,-11.462,
39798150,-0.195,-1.872,1.671,-27.545,196.682,-18.585,
39798160,-0.034,-1.714,1.385,8.82,151.165,-42.157,
39798170,0.074,-1.682,1.043,44.1,121.765,-50.575,
39798170,0.348,-1.568,0.784,48.982,102.462,-89.967,
39798190,0.199,-1.341,0.618,51.292,97.562,-111.475,
39798190,0.049,-1.154,0.607,50.61,98.875,-111.282,
39798210,-0.137,-1.058,0.6,46.935,91.525,-99.925,
39798210,-0.208,-0.898,0.529,52.202,72.537,-80.5,
39798230,-0.144,-0.715,0.381,55.79,51.695,-57.995,
39798230,-0.037,-0.595,0.217,58.327,36.487,-24.237,
39798250,0.134,-0.634,0.087,52.185,29.767,4.252,
39798250,0.206,-0.669,-0.049,44.905,23.66,19.722,
39798260,0.299,-0.614,-0.143,43.942,12.81,21.612,
39798270,0.375,-0.589,-0.199,40.547,-0.77,14.49,
39798280,0.36,-0.607,-0.24,35.7,-16.922,0.717,
39798290,0.295,-0.53,-0.283,37.24,-32.095,-17.132,
39798300,0.233,-0.447,-0.343,42.227,-46.952,-34.597,
39798310,0.213,-0.387,-0.428,45.605,-58.555,-44.835,
39798320,0.254,-0.312,-0.474,47.092,-64.435,-49.472,
39798330,0.24,-0.259,-0.487,44.38,-62.02,-49.805,
39798340,0.164,-0.23,-0.492,38.255,-58.835,-48.86,
39798350,0.146,-0.182,-0.441,30.765,-56.367,-47.092,
39798360,0.135,-0.156,-0.368,21.262,-54.075,-42.717,
39798370,0.114,-0.189,-0.262,10.605,-49.14,-35.962,
39798380,0.132,-0.204,-0.129,2.66,-43.172,-28.192,
39798390,0.084,-0.251,0.028,-3.797,-39.707,-21.542,
39798400,0.04,-0.337,0.171,-8.89,-43.172,-17.412,
39798410,0.041,-0.406,0.3,-10.097,-48.965,-14.455,
39798420,0.016,-0.474,0.388,-9.765,-53.305,-9.905,
39798430,0.009,-0.499,0.5,-12.845,-55.685,-0.875,
39798440,-0.013,-0.597,0.582,-28.822,-57.487,16.555,
39798450,0.203,-0.887,0.811,-18.795,-59.377,16.17,
39798460,0.181,-0.683,0.904,-40.407,-56.822,28,
39798470,0.152,-0.877,1.061,-67.777,-53.357,37.537,
39798480,0.086,-1.047,1.253,-71.225,-60.357,32.112,
39798490,-0.107,-1.049,1.33,-67.445,-73.237,23.152,
39798500,-0.278,-1.079,1.276,-58.572,-89.337,19.652,
39798510,-0.318,-1.037,1.127,-48.177,-101.815,14.175,
39798520,-0.645,-1.136,1.014,9.747,-114.047,33.46,
39798530,-0.61,-0.852,0.843,34.825,-121.222,93.275,
39798540,-0.446,-1.063,0.632,-31.167,-110.792,145.53,
39798550,-0.25,-1.515,0.68,-48.02,-90.807,177.222,
39798560,-0.177,-1.683,0.746,-16.922,-70.07,173.652,
39798570,-0.195,-1.689,0.741,20.772,-51.485,156.87,
39798580,-0.106,-1.623,0.749,33.04,-36.382,124.285,
39798580,-0.166,-1.445,0.532,38.132,-28.192,84.7,
39798600,-0.225,-1.823,0.527,38.902,-8.505,91.63,
39798600,0.082,-1.938,0.569,42.035,2.555,38.57,
39798620,-0.219,-1.764,0.524,63.122,18.077,40.967,
39798620,-0.264,-1.607,0.446,61.495,29.96,57.347,
39798640,-0.166,-1.52,0.357,53.76,27.72,69.475,
39798640,0.027,-1.245,0.296,43.505,27.615,81.865,
39798650,0.25,-1.027,0.302,30.047,33.407,88.655,
39798660,0.359,-0.946,0.297,17.36,35.962,96.372,
39798670,0.525,-0.913,0.232,9.292,29.96,97.335,
39798680,0.671,-0.819,0.137,6.247,17.36,89.425,
39798690,0.734,-0.618,0.019,5.635,3.412,69.597,
39798700,0.711,-0.35,-0.047,3.71,-10.447,37.905,
39798710,0.635,-0.147,-0.008,-3.85,-17.237,3.885,
39798720,0.409,-0.187,0.027,-5.845,-15.382,-23.065,
39798730,0.303,-0.041,-0.036,16.327,-4.532,-41.335,
39798740,0.234,0.383,-0.186,35.647,23.397,-37.957,
39798750,0.081,0.483,-0.282,53.637,68.25,-18.427,
39798760,-0.117,0.561,-0.296,56.857,116.83,12.95,
39798770,-0.233,0.698,-0.273,54.792,147.735,56.56,
39798780,-0.11,0.658,-0.212,48.965,162.505,94.045,
39798790,0.107,0.486,-0.111,36.96,171.377,124.722,
39798800,0.344,0.314,0.056,24.937,178.71,136.552,
39798810,0.452,0.121,0.258,20.457,185.185,128.275,
39798820,0.323,-0.39,0.548,29.085,185.307,104.667,
39798830,0.15,-0.426,0.768,65.73,168.052,54.32,
39798840,-0.272,-0.464,0.895,78.645,141.26,42.42,
39798850,-0.126,-1.072,0.949,91.752,101.22,21.822,
39798860,-0.181,-0.993,0.884,124.897,59.535,-6.51,
39798870,-0.355,-0.809,0.887,143.307,36.942,-28.612,
39798880,-0.651,-0.903,0.814,143.465,17.762,-38.64,
39798890,-0.736,-0.802,0.732,137.2,-6.492,-38.57,
39798900,-0.698,-0.784,0.784,130.252,-15.75,-32.427,
39798910,-0.911,-0.865,0.808,123.69,-11.62,-18.865,
39798920,-1.176,-0.834,0.823,124.495,-20.195,-4.585,
39798920,-1.393,-0.758,0.873,122.237,-40.337,11.48,
39798940,-1.618,-0.754,0.979,113.4,-58.45,36.242,
39798940,-1.78,-0.929,1.053,116.707,-66.517,65.152,
39798960,-1.593,-1.133,1.189,163.397,-60.847,68.53,
39798960,-1.897,-0.608,1.094,180.11,-39.672,118.37,
39798980,-1.563,-0.954,1.036,134.365,-16.87,168.402,
39798980,-1.403,-1.257,0.836,110.407,2.397,199.01,
39799000,-1.044,-1.363,0.641,111.142,24.01,193.532,
39799000,-0.738,-1.318,0.582,110.582,42.49,144.235,
39799010,-0.72,-1.373,0.704,85.767,55.51,98.962,
39799020,-0.661,-1.692,0.912,45.92,56.087,51.852,
39799030,-0.364,-1.899,1.011,30.747,56.542,1.925,
39799040,0.003,-1.881,0.976,40.862,72.345,-41.527,
39799050,0.096,-1.699,0.895,56.787,101.552,-68.215,
39799060,-0.022,-1.46,0.784,63.577,122.062,-83.982,
39799070,-0.117,-1.243,0.716,58.03,123.585,-92.137,
39799080,-0.187,-1.006,0.603,47.565,103.722,-94.307,
39799090,-0.377,-0.694,0.316,33.687,64.89,-73.745,
39799100,-0.394,-0.397,0.121,-1.032,11.06,-41.86,
39799110,-0.403,-0.278,0.167,-51.135,-43.715,-2.852,
39799120,-0.625,-0.255,0.473,-108.08,-76.072,52.64,
39799130,-0.867,-0.31,0.464,-151.112,-101.57,147.77,
39799140,-0.527,-0.541,0.327,-146.037,-142.45,261.94,
39799150,-0.053,-0.73,0.167,-114.345,-175,328.58,
39799160,0.421,-1.1,0.261,-94.57,-195.755,322.822,
39799170,1.265,-0.95,-0.078,-79.94,-251.177,240.94,
39799180,1.998,-0.421,0.082,-63.227,-261.467,150.272,
39799190,1.998,-0.304,0.106,-76.16,-201.285,47.11,
39799200,1.646,0.269,-0.005,-60.602,-155.47,-83.615,
39799210,-0.196,-0.677,1.225,4.795,-112.122,-172.97,
39799220,-1.903,-1.998,-0.973,327.145,-73.762,-48.702,
39799230,0.757,-0.808,1.324,429.905,-198.73,66.5,
39799240,0.495,1.625,1.657,339.605,-173.425,54.897,
39799250,-1.389,-0.312,1.215,403.095,-166.862,-19.67,
39799260,-0.331,0.02,1.626,345.082,-202.825,-13.58,
39799270,0.428,0.482,1.575,273.367,-194.95,-30.275,
39799280,1.179,1.217,1.213,131.18,-125.23,-26.862,
39799290,0.761,0.329,1.117,9.257,-35.665,-13.702,
39799300,0.159,-0.131,1.03,-38.202,20.265,-10.097,
39799310,-0.072,-0.371,1.001,-56.175,39.707,-16.047,
39799320,-0.179,-0.267,0.967,-52.08,44.152,-14.052,
39799320,-0.221,-0.224,0.965,-57.627,44.205,-8.4,
39799330,-0.436,-0.615,0.849,-49.262,39.655,-9.012,
39799340,-0.228,-0.302,0.917,-35.332,23.485,-5.145,
39799350,-0.158,-0.276,0.966,-35.21,16.625,0.63,
39799360,-0.131,-0.189,1.012,-42.612,15.575,7.63,
39799370,-0.172,-0.15,1.062,-57.767,18.2,11.55,
39799380,-0.175,-0.095,1.113,-80.517,20.912,10.71,
39799390,-0.218,-0.132,1.138,-113.365,25.48,7.84,
39799400,-0.127,-0.174,1.136,-142.082,23.345,4.865,
39799410,-0.144,-0.257,1.115,-164.115,21.997,3.255,
39799420,-0.111,-0.288,1.078,-184.222,23.887,0.175,
39799430,-0.146,-0.241,1.061,-199.43,32.427,-4.917,
39799440,-0.214,-0.339,1.013,-212.45,42.385,-5.285,
39799450,-0.254,-0.638,1.117,-204.277,49.665,-9.59,
39799460,-0.156,-0.596,1.069,-172.567,43.767,-9.065,
39799470,-0.128,-0.769,0.919,-158.707,57.575,-6.93,
39799480,-0.481,-0.868,0.813,-135.8,77.175,2.625,
39799490,-0.724,-1.492,0.925,-109.76,74.935,2.17,
39799500,-0.268,-1.477,0.878,-36.925,39.672,-25.567,
39799510,1.082,-1.446,0.413,7.157,8.312,-35.437,
39799520,1.418,-1.214,-0.202,47.04,13.177,-73.955,
39799530,-1.018,-0.46,0.091,27.615,28.787,-165.252,
39799540,-1.548,-0.41,0.184,12.897,46.462,-155.802,
39799550,-0.806,0.187,0.177,40.95,16.835,-56.262,
39799560,-0.18,0.374,-0.222,66.937,6.282,35.892,
39799570,0.38,0.801,-0.809,53.007,14.962,54.827,
39799580,0.644,1.303,-0.456,16.887,32.9,31.867,
39799590,0.435,1.196,-0.433,-20.667,34.422,10.692,
39799600,0.278,-0.151,0.401,-9.345,14.577,-19.687,
39799610,-1.908,-1.998,0.944,127.907,1.82,7.455,
39799620,-1.687,-1.76,-0.01,429.275,-71.54,146.072,
39799630,0.741,1.588,1.167,310.992,-136.272,75.862,
39799640,-0.844,0.909,1.481,354.392,-110.617,54.512,
39799650,-1.274,-0.801,1.5,347.62,-130.637,29.942,
39799660,-0.997,0.412,1.579,298.2,-170.38,-15.015,
39799670,0.898,0.631,1.476,199.01,-178.132,-57.242,
39799670,1.202,0.773,1.111,77.14,-104.632,-46.497,
39799690,0.727,0.073,1.046,-0.315,-23.257,-16.45,
39799690,-0.029,-0.238,0.991,-30.607,20.947,-4.427,
39799710,-0.133,-0.386,0.955,-33.67,29.942,-6.457,
39799710,-0.186,-0.339,0.938,-28.98,28.367,-3.5,
39799730,-0.259,-0.311,0.959,-26.495,23.642,0.542,
39799730,-0.217,-0.268,0.944,-22.662,18.445,0.07,
39799750,-0.053,-0.157,0.994,-23.205,14.227,4.952,
39799750,-0.039,-0.106,1.034,-38.535,18.62,12.687,
39799760,-0.086,-0.101,1.064,-55.895,25.777,16.835,
39799770,-0.133,-0.176,1.101,-76.58,30.922,18.287,
39799780,-0.138,-0.072,1.163,-101.395,33.88,16.187,
39799790,-0.188,-0.093,1.151,-135.502,36.312,13.282,
39799800,-0.148,-0.222,1.105,-165.812,36.61,12.092,
39799810,-0.083,-0.261,1.015,-180.425,35.245,10.762,
39799820,-0.073,-0.276,0.962,-186.795,39.2,9.362,
39799830,-0.029,-0.351,0.938,-192.517,52.062,8.295,
39799840,-0.037,-0.434,0.98,-185.85,71.242,5.705,
39799850,-0.071,-0.522,0.976,-172.917,93.047,8.872,
39799860,-0.01,-0.693,0.922,-160.247,108.727,21.21,
39799870,-0.156,-0.872,0.877,-133.647,127.96,52.535,
39799880,-0.325,-1.406,0.996,-110.967,139.422,82.512,
39799890,-0.538,-1.593,0.86,-63.367,94.167,96.652,
39799900,-0.886,-1.806,0.067,0.245,-5.757,124.495,
39799910,1.303,-1.998,-0.074,19.232,-147.227,101.517,
39799920,1.67,-1.998,0.143,-16.17,-156.222,40.127,
39799930,-0.95,-1.875,-0.212,-11.2,-94.552,-8.925,
39799940,-0.862,-0.985,-0.048,-45.71,-123.847,-35.84,
39799950,-0.441,-0.313,-0.021,-87.832,-151.952,12.915,
39799960,-0.339,0.914,-0.193,-59.937,-155.137,55.457,
39799970,0.382,1.949,-0.677,-37.467,-105.682,84.56,
39799980,0.791,1.997,-0.958,-41.86,-61.897,86.152,
39799990,0.076,1.748,0.388,-57.452,-30.782,58.817,
39800000,-1.588,-1.345,0.714,97.02,23.31,58.747,
39800010,0.167,-1.81,0.09,502.04,-189.157,225.942,
39800010,0.464,-0.572,1.628,357.56,-103.477,229.635,
39800030,-1.863,1.639,1.471,469.087,-121.695,56.402,
39800030,-1.519,-0.753,1.922,351.032,-187.617,13.422,
39800050,1.757,1.901,1.296,195.475,-198.38,-14.927,
39800050,0.733,0.356,1.099,8.767,-75.687,-21,
39800070,0.559,-0.347,1.014,-38.605,-4.672,-15.137,
39800070,-0.06,-0.756,0.928,-34.317,19.985,-19.215,
39800080,-0.116,-0.295,0.942,-8.802,19.6,-22.102,
39800090,-0.172,-0.343,0.945,-9.117,18.882,-9.135,
39800100,-0.3,-0.316,0.94,-3.78,12.792,-0.892,
39800110,-0.281,-0.249,0.965,1.19,3.307,3.29,
39800120,-0.075,-0.138,0.987,3.272,-3.5,0.175,
39800130,0.026,-0.023,1.011,-4.48,0.105,0.262,
39800140,0.011,-0.079,1.021,-20.632,9.24,4.847,
39800150,-0.048,-0.103,1.037,-38.15,19.162,4.287,
39800160,-0.042,-0.118,1.08,-57.68,25.847,2.1,
39800170,-0.064,-0.069,1.145,-82.635,32.69,-0.49,
39800180,-0.262,-0.071,1.101,-113.995,36.715,-7.385,
39800190,-0.121,-0.536,1.047,-135.467,34.457,-16.87,
39800200,-0.302,-0.3,1.074,-152.687,41.44,-31.272,
39800210,-0.133,-0.221,0.955,-156.152,37.047,-41.632,
39800220,-0.043,-0.302,0.962,-157.062,45.745,-45.377,
39800230,-0.017,-0.421,0.948,-155.68,63.35,-42.42,
39800240,-0.154,-0.515,0.914,-144.392,73.22,-43.382,
39800250,-0.206,-0.59,0.898,-123.357,76.195,-43.452,
39800260,-0.258,-0.705,0.81,-97.597,72.45,-32.427,
39800270,-0.381,-0.702,0.752,-64.225,67.06,-18.235,
39800280,-0.342,-0.5,0.688,-31.115,55.93,-5.74,
39800290,-0.307,-0.413,0.629,-11.427,37.415,11.445,
