#Format version: 1.0
time[ms],accX[g],accY[g],accZ[g],Value 1,Value 2,Value 3,
41345910,-0.137,-0.055,0.963,-4.515,51.572,-4.935,
41345910,-0.215,-0.077,0.982,-6.125,47.127,-4.882,
41345920,-0.267,-0.094,1.004,-6.51,38.797,-5.232,
41345930,-0.236,-0.105,1.017,-5.46,27.93,-5.25,
41345940,-0.243,-0.086,1.024,-4.427,17.587,-4.48,
41345950,-0.236,-0.127,1.021,-4.812,7.84,-4.55,
41345960,-0.222,-0.125,1.013,-3.185,-1.295,-3.797,
41345970,-0.212,-0.112,0.992,-1.715,-9.205,-2.905,
41345980,-0.16,-0.087,0.964,-1.225,-15.925,-2.292,
41345990,-0.117,-0.069,0.949,-2.03,-20.142,-1.505,
41346000,-0.112,-0.055,0.945,-4.042,-23.362,-1.12,
41346010,-0.029,-0.071,0.943,-6.667,-25.462,-0.49,
41346020,0.024,-0.058,0.963,-8.277,-23.87,1.102,
41346030,-0.021,-0.111,0.981,-10.43,-19.565,0.875,
41346040,-0.001,-0.133,0.991,-9.327,-15.19,1.47,
41346050,0.026,-0.135,0.997,-6.79,-9.835,2.397,
41346060,-0.024,-0.138,0.998,-4.497,-3.885,1.96,
41346070,-0.028,-0.137,0.994,-2.222,0.07,1.96,
41346080,-0.025,-0.119,0.994,-0.402,3.185,1.907,
41346090,-0.086,-0.109,0.994,0.052,5.232,1.19,
41346100,-0.119,-0.108,0.991,-0.21,4.235,0.945,
41346110,-0.11,-0.102,0.991,-0.892,1.802,0.49,
41346120,-0.126,-0.1,0.992,-2.03,-0.7,-0.262,
41346130,-0.097,-0.11,0.988,-3.22,-3.5,-0.682,
41346140,-0.079,-0.113,0.986,-3.815,-4.795,-1.032,
41346150,-0.113,-0.108,0.988,-4.235,-5.215,-1.12,
41346160,-0.141,-0.112,0.99,-4.707,-7.35,-1.242,
41346170,-0.14,-0.117,0.992,-5.32,-10.902,-1.435,
41346180,-0.102,-0.126,0.989,-5.635,-14.542,-1.697,
41346190,-0.052,-0.139,0.985,-5.302,-15.837,-1.872,
41346200,-0.042,-0.141,0.985,-3.885,-14.787,-1.802,
41346210,-0.031,-0.14,0.984,-2.187,-12.95,-1.505,
41346220,-0.024,-0.136,0.984,-0.612,-10.605,-1.26,
41346230,-0.035,-0.134,0.984,0.805,-8.155,-0.927,
41346240,-0.027,-0.134,0.98,2.38,-5.897,-0.105,
41346250,-0.014,-0.128,0.981,3.832,-3.062,0.63,
41346260,-0.046,-0.119,0.982,4.69,-0.175,0.77,
41346260,-0.058,-0.128,0.978,5.197,1.505,0.752,
41346280,-0.034,-0.136,0.981,6.265,2.992,1.015,
41346280,-0.06,-0.12,0.982,7.507,4.847,1.12,
41346300,-0.064,-0.126,0.979,8.05,5.6,0.927,
41346300,-0.057,-0.099,0.973,8.715,6.055,0.77,
41346320,-0.06,-0.093,0.971,8.015,6.282,0.262,
41346320,-0.044,-0.098,0.965,6.86,6.667,-0.192,
41346330,-0.049,-0.073,0.963,6.177,7.612,-0.262,
41346340,-0.087,-0.087,0.968,4.182,7.945,-0.525,
41346350,-0.084,-0.1,0.976,2.957,7.07,-0.507,
41346360,-0.1,-0.096,0.982,2.397,6.055,-0.612,
41346370,-0.13,-0.102,0.986,1.4,3.937,-0.805,
41346380,-0.117,-0.104,0.983,0.717,0.752,-0.927,
41346390,-0.109,-0.109,0.984,0.087,-1.855,-1.172,
41346400,-0.119,-0.109,0.984,-0.245,-4.13,-1.435,
41346410,-0.107,-0.107,0.978,-0.472,-6.527,-1.662,
41346420,-0.091,-0.109,0.981,-0.682,-8.05,-1.662,
41346430,-0.089,-0.108,0.98,-0.717,-8.942,-1.522,
41346440,-0.086,-0.105,0.979,-0.875,-9.625,-1.347,
41346450,-0.076,-0.109,0.983,-1.137,-10.202,-1.12,
41346460,-0.062,-0.115,0.986,-1.172,-10.237,-0.892,
41346470,-0.071,-0.115,0.987,-0.962,-9.852,-0.665,
41346480,-0.071,-0.122,0.991,-0.612,-9.695,-0.542,
41346490,-0.086,-0.126,1.01,0.157,-9.992,-0.472,
41346500,-0.095,-0.151,1.02,1.627,-11.252,-0.21,
41346510,-0.056,-0.136,1.013,4.042,-12.39,0.84,
41346520,-0.06,-0.145,1.016,5.95,-11.707,0.7,
41346530,-0.081,-0.131,1.016,8.242,-11.357,0.49,
41346540,-0.126,-0.149,1.016,10.622,-12.915,-0.332,
41346550,-0.057,-0.112,1.007,14.21,-15.855,0.682,
41346560,-0.066,-0.121,1.011,14.717,-17.832,-0.787,
41346570,-0.087,-0.118,1.004,16.187,-19.687,-1.4,
41346580,-0.08,-0.098,0.986,17.57,-21.787,-1.155,
41346580,-0.048,-0.088,0.976,17.482,-23.397,-1.207,
41346600,-0.03,-0.091,0.98,16.537,-23.397,-1.4,
41346600,-0.018,-0.068,0.952,16.415,-22.557,-0.98,
41346620,0.003,-0.081,0.971,14.682,-20.667,-0.945,
41346620,0.03,-0.044,0.856,13.65,-17.412,-1.627,
41346640,0.003,-0.007,0.933,9.59,-12.407,-0.262,
41346640,0.059,-0.1,0.919,4.375,-8.032,-1.872,
41346660,0.098,-0.019,0.877,5.565,-1.067,-1.102,
41346660,0.089,-0.03,0.899,1.242,7.525,-1.89,
41346670,0.071,-0.065,0.898,-2.292,15.085,-3.307,
41346680,0.103,0.004,0.809,-3.797,22.925,-3.972,
41346690,0.09,0.027,0.901,-9.782,32.882,-2.642,
41346700,0.05,-0.074,0.882,-15.837,42.122,-2.31,
41346710,-0.036,0.04,0.908,-16.817,48.737,2.205,
41346720,-0.092,-0.122,1.006,-24.202,49.035,3.587,
41346730,-0.223,-0.123,1.036,-22.312,41.93,3.237,
41346740,-0.271,-0.107,1.033,-19.547,30.17,2.345,
41346750,-0.307,-0.102,1.048,-18.777,15.995,1.82,
41346760,-0.353,-0.092,1.037,-19.407,1.33,3.08,
41346770,-0.332,-0.108,1.04,-20.422,-14.945,5.355,
41346780,-0.256,-0.128,1.041,-20.457,-29.26,7.805,
41346790,-0.168,-0.11,1.02,-20.86,-38.867,9.012,
41346800,-0.079,-0.114,1.015,-22.785,-43.242,10.552,
41346810,-0.031,-0.139,1.014,-24.762,-43.225,10.92,
41346820,-0.041,-0.136,1.003,-24.57,-41.58,11.007,
41346830,0.03,-0.168,0.996,-23.835,-39.515,10.43,
41346840,0.024,-0.153,0.998,-21.595,-34.755,8.977,
41346850,0.049,-0.146,1.011,-20.545,-29.575,7.98,
41346860,0.087,-0.164,1.014,-21.56,-25.252,8.015,
41346870,0.004,-0.151,1.004,-22.925,-19.442,8.312,
41346880,-0.027,-0.12,1.024,-24.132,-15.802,6.86,
41346890,-0.058,-0.102,1.053,-28.805,-15.242,3.85,
41346900,-0.041,-0.101,1.073,-37.1,-17.185,0.805,
41346910,-0.024,-0.033,1.118,-46.987,-18.112,-1.435,
41346920,0.004,-0.105,1.146,-59.325,-17.762,-1.925,
41346930,0.006,-0.045,1.224,-70.245,-13.667,-1.82,
41346940,-0.044,-0.01,1.312,-88.095,-6.422,-3.71,
41346950,-0.033,0.044,1.417,-113.767,1.575,-9.275,
41346960,0.282,0.15,1.407,-139.457,18.007,-14.49,
41346970,-0.26,-0.111,1.39,-169.172,36.47,-15.925,
41346980,0.083,-0.241,1.537,-209.93,12.512,-8.067,
41346990,0.119,-0.363,1.588,-242.375,-13.457,19.792,
41347000,0.156,-0.625,1.451,-273.752,-47.355,53.322,
41347010,0.223,-0.794,1.028,-294.245,-86.73,113.435,
41347010,-0.777,-1.427,1.442,-293.685,-140.525,150.815,
41347030,-1.978,-1.998,1.906,-200.2,-249.357,206.85,
41347030,0.383,-1.982,0.832,-59.202,-285.582,343.367,
41347050,-0.101,-1.588,-0.092,42.647,-229.407,384.825,
41347050,1.805,-1.133,-0.645,31.027,-146.16,346.972,
41347070,1.992,-0.726,-0.018,-5.162,-75.6,197.697,
41347070,1.659,-0.463,0.176,-28.087,-3.097,6.3,
41347080,0.565,0.382,0.177,-20.195,44.537,-130.235,
41347090,-0.236,0.664,0.432,-35.437,58.117,-192.43,
41347100,-0.751,0.762,0.635,-36.802,57.067,-197.085,
41347110,-0.835,0.962,0.618,-17.937,57.47,-156.327,
41347120,-0.734,1.065,0.59,-1.452,59.745,-99.907,
41347130,-0.369,0.875,0.56,7.245,52.447,-50.505,
41347140,0.107,0.723,0.422,22.907,40.687,-14.595,
41347150,0.326,0.599,0.207,34.72,28.84,-3.482,
41347160,0.404,0.35,0.005,30.257,9.082,-15.312,
41347170,0.341,0.076,-0.148,15.295,-14.77,-37.152,
41347180,0.128,-0.246,-0.205,1.697,-30.94,-56.857,
41347190,-0.261,-0.471,-0.382,-3.85,-46.48,-73.43,
41347200,-0.677,-0.536,-0.609,-11.917,-71.715,-85.785,
41347210,-0.877,-0.754,-0.671,-36.05,-99.61,-96.267,
41347220,-0.863,-1.14,-0.599,-61.67,-113.942,-98.122,
41347230,-0.637,-1.293,-0.414,-77.245,-99.067,-90.037,
41347240,-0.504,-1.75,-0.076,-70.892,-41.982,-77.892,
41347250,0.052,-1.771,0.034,-31.342,38.22,-69.545,
41347260,1.074,-1.804,1.499,71.96,137.76,-97.037,
41347270,0.536,0.006,-0.4,426.79,185.062,-204.855,
41347280,-0.726,0.597,1.432,407.137,196,-96.635,
41347290,1.366,-0.01,1.591,352.415,134.312,-85.225,
41347300,0.101,1.329,1.801,339.43,134.19,-20.965,
41347310,0.464,0.611,1.604,255.447,127.295,20.107,
41347320,0.035,-0.018,1.561,198.922,137.077,56.42,
41347330,-0.268,0.061,1.57,147.297,130.252,50.96,
41347330,-1.109,0.71,1.688,81.62,97.317,26.67,
41347350,-0.785,0.222,1.374,-9.17,34.545,0.332,
41347350,-0.198,-0.129,1.192,-61.495,-3.447,-21.682,
41347370,-0.038,-0.016,1.268,-81.077,-9.082,-33.547,
41347370,-0.009,-0.069,1.174,-104.44,-6.562,-32.27,
41347390,-0.05,-0.104,0.894,-118.317,-2.117,-23.782,
41347390,-0.069,-0.338,0.729,-111.632,-4.147,-14.997,
41347410,-0.047,-0.467,0.807,-90.807,-11.97,-6.685,
41347410,-0.048,-0.325,0.937,-76.142,-19.337,-1.54,
41347420,-0.128,-0.364,0.864,-79.38,-21.892,2.887,
41347430,-0.164,-0.44,0.639,-69.457,-27.422,5.792,
41347440,-0.073,-0.617,0.621,-45.99,-34.37,4.865,
41347450,0.035,-0.581,0.627,-20.44,-36.102,8.767,
41347460,0.236,-0.543,0.596,6.265,-31.482,15.347,
41347470,0.384,-0.512,0.708,34.632,-21.665,24.447,
41347480,0.31,-0.402,0.869,53.795,-10.517,35.927,
41347490,0.263,-0.313,0.939,60.287,-4.602,49.77,
41347500,0.154,-0.217,0.893,61.285,-1.207,64.33,
41347510,-0.006,-0.301,0.898,64.68,1.61,72.065,
41347520,-0.21,-0.263,1.002,67.13,4.042,70.07,
41347530,-0.344,-0.108,1.16,59.885,4.165,57.067,
41347540,-0.404,-0.004,1.252,39.655,0.735,35.665,
41347550,-0.217,-0.064,1.248,12.547,-6.667,13.405,
41347560,-0.055,-0.008,1.264,-13.562,-13.72,4.445,
41347570,0.011,-0.026,1.283,-41.142,-15.557,0.315,
41347580,0.042,-0.069,1.264,-69.615,-14.77,-1.365,
41347590,0.04,-0.072,1.221,-95.427,-11.62,1.347,
41347600,0.026,-0.143,1.258,-118.702,-9.817,4.882,
41347610,-0.001,-0.125,1.379,-148.505,-11.445,11.777,
41347620,-0.003,-0.103,1.489,-188.055,-22.19,20.142,
41347630,0.002,-0.103,1.522,-230.125,-43.085,34.247,
41347640,0.054,-0.084,1.611,-277.165,-73.937,51.957,
41347650,-0.116,-0.307,1.6,-344.015,-107.887,64.05,
41347660,-0.29,-1.627,1.799,-373.94,-177.117,89.862,
41347670,-0.768,-1.963,1.805,-339.447,-300.895,100.345,
41347680,-0.78,-1.884,0.75,-253.89,-427.455,118.65,
41347690,-1.238,-1.998,0.375,-200.077,-434.385,135.73,
41347700,-1.717,-1.998,0.45,-179.865,-449.33,129.727,
41347710,0.79,-1.973,-0.228,-30.555,-396.97,185.92,
41347720,1.555,-0.692,-0.172,48.37,-193.147,194.617,
41347730,0.672,0.122,-0.128,10.657,26.232,70.14,
41347740,-0.405,0.359,0.035,-63.542,116.095,-45.132,
41347750,-0.467,0.65,0.603,-110.582,90.457,-90.615,
41347760,-0.041,0.789,1.056,-115.535,62.247,-102.585,
41347760,0.172,0.863,1.178,-85.435,81.865,-97.492,
41347780,0.134,1.024,1.077,-35.402,125.51,-79.415,
41347780,0.066,1.203,0.841,12.39,148.872,-60.41,
41347790,0.186,1.104,0.588,42.035,142.887,-44.87,
41347800,0.421,0.854,0.367,58.782,122.5,-35.735,
41347810,0.763,0.618,0.22,72.397,107.047,-29.645,
41347820,1.001,0.381,0.035,84.542,103.512,-30.397,
41347830,1.037,0.184,-0.147,91.7,99.137,-37.345,
41347840,1.015,0.022,-0.279,89.582,81.742,-47.145,
41347850,0.941,-0.168,-0.385,76.72,48.877,-58.852,
41347860,0.812,-0.347,-0.475,61.005,6.93,-67.952,
41347870,0.664,-0.491,-0.582,45.167,-33.11,-72.205,
41347880,0.428,-0.604,-0.645,25.637,-66.937,-74.217,
41347890,0.192,-0.639,-0.598,5.075,-94.272,-72.31,
41347900,0.091,-0.734,-0.468,-12.092,-108.29,-65.817,
41347910,-0.177,-0.827,-0.414,-16.257,-110.18,-54.705,
41347920,-0.448,-0.633,-0.443,-17.255,-105.105,-34.247,
41347930,-0.557,-0.62,-0.439,-15.697,-94.762,-16.082,
41347940,-0.54,-1.061,-0.411,-21.49,-85.05,-0.542,
41347950,1.515,-1.774,1.311,-25.27,53.042,40.232,
41347960,1.357,-1.998,0.353,60.287,349.545,-113.575,
41347970,-1.99,0.904,-0.75,527.117,269.5,-64.487,
41347980,0.838,1.695,1.645,472.657,184.677,29.89,
41347990,1.375,-0.69,0.809,379.732,160.44,-14.262,
41348000,0.052,-0.346,1.054,439.985,202.177,40.757,
41348010,0.618,0.324,1.664,418.25,190.47,58.747,
41348020,0.5,0.277,1.776,340.007,193.025,71.592,
41348030,-0.758,0.281,1.996,277.27,221.777,63.087,
41348040,-1.766,1.49,1.716,172.672,158.41,44.66,
41348050,-1.495,0.8,1.267,33.897,44.765,21.84,
41348060,-0.383,-0.16,1.004,-39.305,-36.487,-5.442,
41348070,0.292,-0.419,0.853,-48.055,-52.115,-20.44,
41348080,0.683,-0.546,0.74,-27.86,-30.31,-18.392,
41348080,0.404,-0.453,0.855,7.717,6.51,-6.212,
41348100,-0.034,-0.111,1.004,30.397,28.77,5.162,
41348100,-0.388,-0.012,1.037,27.247,26.862,5.18,
41348120,-0.268,0.022,1.045,13.947,9.065,-0.77,
41348120,-0.098,-0.075,1.026,-0.437,-4.515,-4.655,
41348140,-0.116,-0.082,1.034,-9.66,-10.5,-3.43,
41348140,-0.128,-0.17,0.971,-16.257,-16.152,-1.925,
41348160,-0.037,-0.219,0.938,-14.682,-19.215,-1.977,
41348160,-0.003,-0.152,0.991,-9.275,-18.2,-1.085,
41348170,-0.021,-0.099,1.025,-10.15,-17.972,1.05,
41348180,0.014,-0.141,0.986,-15.61,-18.952,2.66,
41348190,0.034,-0.2,0.957,-16.87,-16.975,3.692,
41348200,-0.026,-0.176,0.98,-14.98,-14.122,3.885,
41348210,-0.042,-0.136,0.995,-15.645,-14.437,4.497,
41348220,-0.028,-0.175,0.959,-16.94,-15.89,6.125,
41348230,0.088,-0.171,0.955,-14.945,-16.187,10.185,
41348240,0.106,-0.201,0.94,-12.162,-11.952,16.065,
41348250,0.066,-0.221,0.91,-7.332,-6.125,20.142,
41348260,0.045,-0.242,0.918,0.21,-0.927,21.962,
41348270,0.019,-0.193,0.972,6.772,3.657,21.105,
41348280,0.002,-0.176,0.966,8.12,5.722,19.162,
41348290,0.014,-0.168,0.982,9.345,6.895,18.2,
41348300,0,-0.183,0.981,8.715,8.61,16.467,
41348310,-0.066,-0.19,0.981,8.032,9.695,13.107,
41348320,-0.173,-0.108,1.042,5.74,7.735,8.12,
41348330,-0.184,-0.089,1.034,-3.622,-0.227,1.732,
41348340,-0.033,-0.141,1.023,-12.81,-7.752,-4.777,
41348350,0.022,-0.079,1.061,-19.95,-9.135,-8.75,
41348360,0.015,-0.113,1.066,-29.312,-7.927,-11.795,
41348370,0.018,-0.082,1.117,-38.745,-5.355,-13.702,
41348380,-0.051,0.026,1.28,-53.602,-3.132,-16.327,
41348390,0.016,0.091,1.448,-81.322,0.227,-21.577,
41348400,0.029,0.142,1.608,-120.855,9.555,-27.405,
41348410,0.08,0.211,1.769,-168.14,25.147,-29.032,
41348420,-0.061,0.017,1.788,-231.7,38.377,-31.815,
41348430,-0.018,0.07,1.801,-286.282,14.245,-26.39,
41348440,0.356,0.148,1.468,-361.585,-19.512,-24.657,
41348440,-0.58,-0.462,1.837,-408.24,-70.857,-4.62,
41348460,-1.638,-1.812,1.998,-412.195,-222.792,-29.207,
41348460,0.296,-1.998,1.358,-281.907,-391.23,-12.757,
41348480,1.93,-1.998,1.339,-82.46,-327.985,103.792,
41348480,0.704,-1.282,0.18,59.517,-140.822,113.4,
41348500,-0.522,0.025,-0.928,82.075,0.262,70.682,
41348500,-1.428,-0.262,-0.723,-21.28,-26.757,-0.245,
41348510,-0.895,-0.71,-0.009,-90.142,-92.137,-21.157,
41348520,-0.321,-0.338,0.234,-87.01,-104.125,-8.347,
41348530,0.115,0.172,0.213,-69.597,-64.977,-16.362,
41348540,0.133,0.504,0.251,-72.607,-10.202,-46.585,
41348550,0.051,0.692,0.331,-79.1,27.72,-88.55,
41348560,-0.061,0.741,0.415,-78.382,60.882,-121.537,
41348570,-0.384,0.683,0.513,-68.005,88.375,-137.252,
41348580,-0.598,0.622,0.522,-40.915,107.187,-122.342,
41348590,-0.649,0.629,0.472,-0.14,120.54,-83.51,
41348600,-0.803,0.644,0.322,36.89,117.687,-37.572,
41348610,-0.72,0.597,0.12,58.975,93.555,6.335,
41348620,-0.349,0.402,-0.023,63.332,61.005,36.89,
41348630,0.058,0.168,-0.053,54.88,38.64,49.857,
41348640,0.268,-0.097,-0.036,41.527,29.575,42.437,
41348650,0.385,-0.316,-0.127,33.442,27.125,20.282,
41348660,0.443,-0.387,-0.295,29.627,35.332,-4.217,
41348670,0.422,-0.505,-0.447,10.885,49.962,-28.665,
41348680,0.222,-0.678,-0.601,-12.267,63.472,-47.81,
41348690,0.284,-0.7,-0.675,-35.21,71.015,-56.735,
41348700,0.139,-0.724,-0.7,-56.21,68.18,-81.217,
41348710,0.666,-0.753,-0.817,-82.95,75.162,-139.667,
41348720,1.551,-1.83,0.788,-102.095,137.865,-197.61,
41348730,-0.842,-1.998,1.998,64.627,260.75,-239.732,
41348740,1.066,-0.841,-1.323,463.942,225.085,-317.922,
41348750,-1.044,1.997,0.987,552.545,245.507,-56.21,
41348760,0.483,0.3,1.099,472.64,117.792,-188.44,
41348770,1.07,0.239,1.303,535.465,77.525,-69.177,
41348780,1.998,-1.314,1.749,542.167,237.877,23.677,
41348790,-1.242,1.605,1.226,385.875,345.73,19.145,
41348800,-1.998,1.242,0.857,57.645,142.362,35.227,
41348810,-0.562,0.125,1.453,-140,-96.46,43.872,
41348820,-0.311,-1.095,0.816,-171.815,-141.697,-15.435,
41348830,1.322,-1.359,0.339,-114.59,-107.572,-39.515,
41348830,0.933,-0.887,0.71,-15.995,-35.805,-23.485,
41348850,0.449,-0.342,0.965,35.927,15.75,16.73,
41348850,-0.265,0.024,1.1,49.787,42.647,35.805,
41348870,-0.451,-0.198,0.954,39.795,37.03,22.12,
41348870,-0.19,-0.325,0.965,44.502,24.08,4.515,
41348890,0.048,0.089,1.084,49.385,20.37,1.05,
41348890,-0.036,0.05,1.04,33.215,21.805,4.97,
41348910,-0.148,0.043,1.034,19.32,20.755,9.327,
41348910,-0.317,0.068,1.019,5.425,13.072,13.09,
41348920,-0.216,-0.083,0.988,-8.557,-1.26,11.462,
41348930,-0.145,-0.177,0.878,-10.657,-8.732,7.297,
41348940,-0.126,-0.328,0.87,2.45,-7,1.33,
41348950,-0.092,-0.111,0.986,20.177,-4.62,-3.85,
41348960,-0.059,-0.035,1.005,20.58,-4.987,-4.865,
41348970,-0.06,-0.108,0.985,16.257,-4.235,-2.905,
41348980,-0.047,-0.122,0.986,16.887,-2.432,-0.752,
41348990,-0.072,-0.052,1.011,17.85,0.14,1.4,
41349000,-0.157,-0.04,1.001,14.525,0.892,3.395,
41349010,-0.182,-0.026,0.99,8.925,-3.727,4.27,
41349020,-0.129,0.009,0.987,1.855,-10.342,5.092,
41349030,-0.121,0.032,0.986,-6.02,-15.242,7.49,
41349040,-0.064,-0.013,0.991,-13.685,-19.337,10.762,
41349050,0.07,-0.041,1.005,-19.18,-20.562,12.285,
41349060,0.116,-0.033,1.025,-23.852,-15.82,13.195,
41349070,0.098,-0.002,1.067,-30.817,-8.645,14.087,
41349080,0.144,0.064,1.155,-42.542,-1.54,14.822,
41349090,-0.064,0.464,1.194,-63.84,3.885,18.707,
41349100,1.118,0.254,1.722,-111.335,2.905,39.567,
41349110,0.568,0.085,1.852,-169.557,71.662,35.682,
41349120,0.087,0.002,1.575,-251.65,117.67,61.092,
41349130,-0.466,-0.162,1.719,-336,113.592,99.207,
41349140,0.176,-0.919,0.738,-344.697,-37.817,2.467,
41349150,0.706,0.169,1.92,-295.75,-22.802,102.76,
41349160,-1.789,-1.917,1.829,-347.077,-35.612,73.115,
41349170,0.903,-1.998,0.993,-221.795,-204.4,13.877,
41349170,0.374,-1.997,0.556,-86.66,-141.382,100.415,
41349190,-0.439,-0.936,-0.108,-14.507,-37.275,111.615,
41349190,-0.617,-0.196,-0.106,-40.127,28.35,84.717,
41349210,-0.099,-0.554,0.454,-103.127,27.212,29.732,
41349210,0.256,-0.184,0.546,-87.29,41.615,17.937,
41349230,0.316,0.391,0.538,-63.91,49.77,-4.007,
41349230,0.427,0.72,0.577,-56.77,48.282,-46.672,
41349250,0.383,0.881,0.638,-37.45,42.997,-86.922,
41349250,0.2,0.895,0.583,-9.205,29.575,-117.687,
41349260,0.064,1.009,0.436,27.965,10.255,-133.192,
41349270,-0.139,1.108,0.255,62.23,-14.577,-135.152,
41349280,-0.278,1.015,-0.016,84.647,-44.852,-129.815,
41349290,-0.356,0.882,-0.15,91.805,-78.417,-114.467,
41349300,-0.313,0.634,-0.293,75.215,-108.08,-94.832,
41349310,-0.278,0.384,-0.376,50.312,-129.272,-70.297,
41349320,-0.212,0.202,-0.434,21.192,-145.635,-45.535,
41349330,-0.138,-0.13,-0.352,-15.872,-157.447,-33.67,
41349340,-0.153,-0.612,-0.238,-39.48,-177.257,-36.05,
41349350,-0.097,-0.885,-0.18,-40.32,-197.75,-42.437,
41349360,0.095,-0.989,-0.271,-33.372,-203.507,-55.247,
41349370,0.185,-1.016,-0.402,-31.552,-185.307,-71.312,
41349380,-0.064,-1.028,-0.571,-61.075,-146.387,-80.15,
41349390,-0.418,-1.089,-0.641,-79.38,-120.522,-88.672,
41349400,-0.726,-1.118,-0.553,-109.69,-114.66,-87.342,
41349410,-0.736,-1.372,-0.386,-132.545,-117.617,-87.08,
41349420,0.873,-1.956,1.372,-111.667,-66.115,-68.477,
41349430,1.998,-1.978,1.998,18.392,271.127,-20.615,
41349440,0.268,-1.777,0.026,314.247,471.485,-140.437,
41349450,-1.039,1.804,0.353,543.427,290.377,-85.19,
41349460,1.657,0.328,0.86,410.795,237.562,-9.397,
41349470,1.082,-0.098,1.086,409.675,210.717,30.327,
41349480,0.979,0.79,1.837,387.31,216.107,81.532,
41349490,-0.967,0.36,1.998,281.33,280.752,74.865,
41349500,-1.865,1.974,1.783,145.547,181.615,66.815,
41349510,-0.514,0.728,1.686,-36.75,25.462,52.447,
41349520,-0.778,0.18,1.494,-136.762,-38.08,28.297,
41349530,0.104,-0.509,0.689,-165.567,-49.35,0.735,
41349540,-0.081,-0.299,0.104,-121.17,-32.427,-10.832,
41349550,-0.28,-0.97,0.085,-55.387,-36.802,-2.38,
41349560,0.231,-1.476,0.483,21.07,-38.377,0.157,
41349570,0.646,-0.528,0.591,83.58,-9.467,-1.452,
41349580,0.983,-0.655,1.147,125.86,36.61,3.412,
41349580,0.018,0.948,1.735,127.89,70.875,11.025,
41349600,-0.546,0.272,1.223,50.767,59.027,22.26,
41349600,-0.988,0.406,1.24,7.14,24.605,26.267,
41349620,-0.764,-0.251,1.012,-33.232,-23.432,3.937,
41349620,0.189,-0.331,0.868,-38.482,-52.5,-15.435,
41349640,0.499,-0.328,0.889,-23.45,-38.972,-13.142,
41349640,0.395,-0.254,0.923,-7.245,-12.075,-1.067,
41349660,0.038,-0.209,0.964,4.13,8.435,10.657,
41349660,-0.308,-0.124,1.018,7.612,12.005,12.53,
41349670,-0.234,-0.163,1.007,1.977,0.7,5.915,
41349680,-0.041,-0.137,1.012,-3.36,-8.837,-0.77,
41349690,0.05,-0.134,1.01,-8.75,-10.92,-1.47,
41349700,-0.048,-0.131,1.012,-12.687,-10.29,1.575,
41349710,-0.114,-0.082,1.053,-17.71,-14.052,3.78,
41349720,-0.144,-0.098,1.075,-28.052,-22.207,4.725,
41349730,-0.202,-0.067,1.11,-40.67,-32.112,3.552,
41349740,-0.147,-0.054,1.138,-56.157,-43.75,2.572,
41349750,-0.136,-0.014,1.215,-75.705,-53.462,1.172,
41349760,-0.157,0.036,1.362,-103.215,-63.105,-1.277,
41349770,-0.178,0.072,1.461,-140.612,-75.512,-4.672,
41349780,-0.487,-0.178,1.436,-182.21,-92.575,-8.575,
41349790,0.043,-0.01,1.371,-211.715,-131.005,-11.725,
41349800,-0.295,0.033,1.336,-243.67,-153.51,-7.63,
41349810,-0.796,-0.227,1.663,-277.445,-200.585,-18.62,
41349820,-1.347,-1.127,1.995,-279.317,-314.667,-37.59,
41349830,-0.752,-1.758,1.989,-194.46,-471.065,-52.01,
41349840,0.902,-1.641,1.259,-94.797,-453.827,30.887,
41349850,0.403,-1.998,1.946,-25.497,-200.725,167.422,
41349860,-1.859,-1.981,0.685,161.875,-29.295,347.725,
41349870,0.738,-1.098,-0.604,266.77,44.94,501.952,
41349880,1.755,-0.801,-0.571,162.12,60.042,455.805,
41349890,1.996,-1.092,-0.049,72.835,84.507,316.33,
41349900,1.995,-0.723,-0.187,54.67,118.842,164.832,
41349910,1.412,-0.011,-0.261,48.72,144.637,10.185,
41349920,0.585,-0.004,-0.447,5.582,149.59,-126.752,
41349920,0.155,0,-0.514,-30.397,140.07,-199.027,
41349940,-0.275,0.143,-0.337,-57.837,124.915,-214.322,
41349940,-0.588,0.133,-0.058,-81.147,103.267,-217.577,
41349960,-0.744,0.092,0.132,-87.43,88.847,-206.937,
41349960,-0.864,0.204,0.208,-73.167,90.37,-180.46,
41349980,-0.958,0.249,0.155,-56.682,100.327,-143.885,
41349980,-0.991,0.247,0.115,-46.095,100.852,-101.92,
41350000,-0.592,0.292,0.07,-40.25,92.54,-63.017,
41350000,-0.293,0.506,0.072,-36.802,85.837,-34.895,
41350010,0.041,0.554,0.118,-45.377,82.967,-31.885,
41350020,0.33,0.32,0.259,-58.1,97.772,-36.925,
41350030,0.303,0.152,0.285,-54.425,120.242,-40.25,
41350040,0.262,0.289,-0.056,-38.237,152.39,-31.43,
41350050,0.028,0.288,-0.539,-37.03,176.925,-12.092,
41350060,-0.517,0.412,-0.667,-43.487,156.275,19.547,
41350070,0.574,0.07,0.298,-71.032,111.23,28.612,
41350080,1.897,-1.998,1.998,-28.752,99.872,-121.747,
41350090,-0.488,-1.649,0.15,394.397,6.177,-400.505,
41350100,-1.998,1.955,-0.24,545.195,149.607,-26.127,
41350110,1.688,1.389,1.227,450.52,-105.56,-54.635,
41350120,0.156,0.335,1.072,482.842,-66.465,-56.752,
41350130,1.957,-0.377,1.982,409.465,-23.607,21.892,
41350140,0.364,1.793,1.998,341.32,160.72,74.252,
41350150,-1.998,1.985,1.736,122.797,153.107,64.12,
41350160,-0.575,0.952,1.796,-89.302,-16.555,51.222,
41350170,-0.094,0.204,1.445,-205.1,-83.65,22.557,
41350180,0.403,-0.56,0.646,-227.78,-51.222,9.852,
41350190,-0.065,-1.099,0.277,-190.785,-27.23,27.177,
41350200,-0.162,-1.037,0.379,-115.062,-25.462,21.682,
41350210,-0.091,-0.728,0.402,-54.775,-21.63,15.19,
41350220,-0.035,-0.613,0.431,-2.17,-23.012,9.765,
41350230,0.074,-0.538,0.714,45.797,-23.31,12.81,
41350240,0.187,-0.191,0.986,69.755,-14.525,21.577,
41350250,0.068,-0.047,1.119,68.092,-2.485,28.035,
41350260,-0.167,-0.122,1.097,54.092,5.127,31.167,
41350270,-0.354,-0.073,1.148,42.035,2.187,25.27,
41350280,-0.307,-0.004,1.198,24.657,-9.152,11.602,
41350290,-0.121,-0.119,1.121,2.607,-21.035,-1.47,
41350300,0.09,-0.091,1.075,-11.375,-24.097,-5.442,
41350310,0.043,-0.181,1.041,-20.562,-19.32,-6.562,
41350320,-0.046,-0.192,1.036,-25.55,-14.665,-4.532,
41350330,-0.058,-0.175,1.073,-31.377,-13.3,-7.927,
41350330,0.012,-0.122,1.148,-40.862,-11.515,-10.85,
41350350,0.02,-0.011,1.306,-58.73,-6.072,-12.285,
41350350,-0.144,0.111,1.442,-91.472,-1.277,-9.747,
41350370,-0.206,0.077,1.663,-144.97,-7.77,-4.497,
41350370,-0.579,-0.228,1.276,-194.46,-30.957,-10.762,
41350390,0.152,0.772,1.761,-226.607,-66.99,-15.365,
41350390,-0.268,0.346,1.678,-332.342,-66.692,9.852,
41350410,-0.198,0.091,1.775,-407.225,-87.885,3.062,
41350410,-1.021,-1.234,1.65,-480.97,-99.575,2.975,
41350420,-1.273,-1.998,1.992,-496.632,-163.607,-9.205,
41350430,1.193,-1.361,1.794,-361.865,-294.35,5.915,
41350440,0.214,-1.639,0.859,-277.34,-282.782,39.987,
41350450,-0.552,-1.998,1.481,-223.142,-220.535,79.327,
41350460,1.569,-1.662,0.989,-43.155,-173.442,175.787,
41350470,1.998,-0.272,0.65,25.567,27.23,151.112,
41350480,1.407,0.707,0.673,36.802,194.705,13.79,
41350490,0.124,1.603,0.454,45.745,233.625,-90.65,
41350500,-0.232,1.77,0.458,37.992,170.66,-137.55,
41350510,-0.193,1.399,0.504,43.557,110.845,-138.967,
41350520,-0.316,0.982,0.51,58.117,104.422,-100.502,
41350530,-0.646,0.368,0.382,81.025,127.207,-40.372,
41350540,-0.873,0.029,0.203,126.28,119.735,26.215,
41350550,-0.561,0.011,-0.038,161.542,77.647,80.762,
41350560,0.102,-0.112,-0.292,161.857,41.72,106.12,
41350570,0.821,-0.464,-0.462,140.735,31.587,92.697,
41350580,1.11,-0.679,-0.609,112.28,45.08,50.225,
41350590,0.934,-0.838,-0.798,89.792,59.08,-8.767,
41350600,0.574,-0.866,-0.978,74.62,45.185,-59.78,
41350610,0.375,-0.904,-1.043,55.265,4.497,-87.955,
41350620,0.282,-1.019,-1.126,35.91,-40.932,-98.437,
41350630,0.096,-1.029,-1.189,18.357,-81.375,-96.232,
41350640,-0.073,-1.056,-1.233,-5.145,-118.002,-85.522,
41350650,-0.208,-1.052,-1.227,-34.037,-147.717,-68.792,
41350660,-0.335,-1.084,-1.185,-65.397,-162.662,-46.392,
41350670,-0.552,-1.139,-1.093,-91.455,-169.312,-18.13,
41350670,-0.675,-1.081,-0.941,-108.15,-180.635,13.037,
41350690,-0.649,-0.648,-0.689,-118.107,-195.632,43.977,
41350690,-0.505,-0.013,-0.347,-127.662,-203.56,69.107,
41350710,-0.393,-0.689,-0.448,-143.482,-210.35,73.832,
41350710,1.133,-0.448,0.745,-30.765,-174.58,99.732,
41350730,1.976,-1.924,1.615,93.432,226.24,-6.09,
41350730,-1.119,-0.321,-1.354,490.612,260.715,-166.932,
41350750,0.351,1.997,1.271,573.37,193.462,127.172,
41350750,1.998,0.428,0.129,573.37,239.995,91.98,
41350760,1.405,-0.852,1.355,573.37,442.452,150.307,
41350770,-1.963,1.536,0.166,436.012,411.74,143.552,
41350780,1.167,-0.456,1.31,-40.04,-31.185,144.375,
41350790,-1.595,-0.281,1.567,-247.012,-125.632,-16.502,
41350800,1.81,-1.186,0.989,-257.11,-160.895,-39.83,
41350810,-0.039,-0.331,0.315,-196.35,-66.762,-41.667,
41350820,0.759,-0.976,0.128,-121.485,-32.847,-15.557,
41350830,0.472,-1.054,0.434,-38.552,-11.025,13.352,
41350840,0.054,-0.372,0.644,19.635,4.112,51.555,
41350850,-0.195,-0.382,0.783,48.475,8.907,61.127,
41350860,-0.387,-0.266,0.908,70.542,13.877,55.737,
41350870,-0.359,0.096,1.328,73.22,12.477,30.957,
41350880,-0.02,0.227,1.324,40.862,-0.717,13.667,
41350890,-0.177,0.005,1.165,4.655,-9.467,8.785,
41350900,-0.265,0.052,1.238,-19.092,-19.827,5.827,
41350910,-0.25,-0.231,0.996,-44.957,-32.252,-7.122,
41350920,0.182,-0.317,0.877,-45.745,-35.857,-17.027,
41350930,0.427,-0.311,0.856,-31.43,-22.47,-14.805,
41350940,0.239,-0.276,0.908,-16.502,-2.187,-4.462,
41350950,-0.028,-0.236,0.949,-7.595,10.342,2.38,
41350960,-0.045,-0.264,0.959,-4.41,13.475,0.717,
41350970,-0.093,-0.145,1.066,-4.147,14,-1.172,
41350980,-0.098,-0.063,1.139,-15.365,12.11,-5.862,
41350990,-0.059,-0.083,1.172,-33.197,9.852,-9.817,
41351000,0.01,-0.009,1.229,-54.897,9.87,-8.942,
41351010,-0.002,0.004,1.306,-81.83,9.397,-2.205,
41351020,0.091,-0.053,1.451,-115.43,-7.21,9.712,
41351030,0.004,0.044,1.552,-161.455,-33.39,36.89,
41351040,0.006,-0.025,1.731,-221.672,-81.357,72.817,
41351050,-0.32,-0.163,1.881,-288.837,-157.272,108.605,
41351060,-0.438,-0.347,1.682,-389.497,-265.317,135.607,
41351070,-0.413,-1.773,1.998,-449.137,-409.255,191.607,
41351070,-1.063,-1.998,0.869,-402.815,-545.877,197.137,
41351080,-1.554,-1.998,-0.755,-218.75,-568.312,284.007,
41351090,-1.486,-1.998,-1.439,-125.65,-474.04,339.272,
41351100,1.402,-1.897,-0.475,50.277,-211.907,422.922,
41351110,1.872,-0.662,-0.229,100.695,60.375,435.82,
41351120,1.998,-0.135,0.23,-4.812,215.477,261.397,
41351130,1.927,0.109,0.257,-88.672,270.987,50.715,
41351140,1.435,0.323,0.653,-136.552,267.067,-132.16,
41351150,0.615,0.62,0.808,-145.092,252.577,-256.025,
41351160,-0.24,0.839,0.781,-136.517,235.707,-314.037,
41351170,-0.593,0.874,0.948,-110.162,216.352,-322.962,
41351180,-1.109,1.044,0.863,-73.447,206.972,-286.3,
41351190,-1.835,1.229,0.674,-42.892,178.832,-227.587,
41351200,-1.987,1.189,0.588,-12.285,129.272,-139.02,
41351210,-1.636,1.088,0.534,25.637,78.015,-36.067,
41351220,-0.988,0.808,0.536,54.74,47.985,54.932,
41351230,-0.408,0.477,0.52,84.105,39.62,111.37,
41351240,-0.095,0.267,0.424,113.155,35.175,130.865,
41351250,0.122,0.046,0.225,139.755,25.515,134.347,
41351260,0.884,-0.088,-0.014,156.117,25.812,118.475,
41351270,1.131,-0.119,-0.176,154.14,40.6,69.492,
41351280,0.93,-0.3,-0.412,128.607,46.357,-4.34,
41351290,0.848,-0.355,-0.514,93.835,37.642,-71.33,
41351300,0.661,-0.397,-0.519,50.487,23.275,-123.235,
41351310,0.482,-0.46,-0.392,9.362,12.53,-163.012,
41351320,0.243,-0.588,-0.218,-18.742,8.977,-186.497,
41351330,-0.063,-0.457,-0.249,-34.37,8.487,-194.95,
41351340,-0.211,-0.525,-0.374,-44.537,5.267,-192.517,
41351350,-0.693,-0.261,-0.755,-43.277,2.135,-156.082,
41351360,-1.421,-1.814,1.903,-11.76,25.392,-87.36,
41351370,-0.821,-1.998,0.665,168.157,-99.872,-169.19,
41351380,1.612,0.523,-0.334,538.807,129.832,-70.385,
41351390,-0.558,1.997,0.858,554.767,114.87,79.87,
41351400,0.189,-1.17,1.824,447.562,98.157,-62.247,
41351410,1.84,0.52,1.35,522.707,149.047,121.327,
41351420,0.181,-0.724,1.998,483.717,299.32,114.135,
41351420,-1.934,1.997,0.952,289.45,239.155,88.497,
41351440,-0.809,0.657,1.511,-38.15,2.835,58.572,
41351440,-1.212,0.641,1.624,-163.677,-109.305,19.565,
41351460,0.979,-0.803,1.155,-247.257,-145.565,-24.465,
41351460,0.061,-0.549,0.28,-202.405,-78.645,-39.532,
41351480,0.481,-1.431,0.235,-122.885,-44.747,-43.365,
41351480,0.532,-0.852,0.406,-39.217,-21.42,-29.137,
41351500,0.566,-0.492,0.25,32.13,2.747,5.932,
41351500,0.254,-0.83,0.353,106.645,27.16,39.427,
41351510,0.199,-0.809,1.018,173.617,59.605,54.565,
41351520,-0.244,0.624,1.869,192.185,88.882,40.127,
41351530,-0.965,1.179,1.343,96.6,61.25,24.202,
41351540,-0.607,-0.033,1.053,7.665,7.087,12.95,
41351550,-0.369,-0.097,1.008,-9.677,-25.007,3.657,
41351560,0.166,-0.185,0.978,-16.887,-38.36,-0.857,
41351570,0.005,-0.165,0.988,-13.44,-30.327,3.342,
41351580,0.236,-0.243,0.974,-10.832,-22.995,4.865,
41351590,-0.034,-0.04,1.007,-6.65,-10.797,7.752,
41351600,-0.115,-0.124,1.006,-11.83,-8.767,8.47,
41351610,-0.068,-0.123,1.011,-17.045,-11.357,3.517,
41351620,0.047,-0.035,1.07,-21.717,-11.305,0.227,
41351630,0.07,0.055,1.171,-33.18,-8.12,1.802,
41351640,0.017,0.135,1.34,-57.295,-6.195,4.41,
41351650,0.058,0.257,1.525,-100.782,-6.23,9.082,
41351660,0.196,0.247,1.673,-173.075,-4.917,22.417,
41351670,-0.031,0.48,1.612,-247.292,8.155,44.485,
41351680,-1.144,-0.607,0.86,-317.975,-35.945,57.382,
41351690,1.38,0.406,1.446,-278.46,-181.055,8.05,
41351700,-0.179,0.256,1.561,-378.42,-126.945,123.62,
41351710,0.26,-0.961,1.883,-481.355,-154.437,85.96,
41351720,-1.078,-1.998,1.739,-447.51,-263.06,64.295,
41351730,0.741,-1.998,0.253,-235.427,-344.47,54.617,
41351740,0.689,-1.998,0.519,-55.335,-250.232,183.26,
41351750,1.42,-1.378,-0.425,41.685,-70.945,245.892,
41351760,1.202,-0.112,-0.314,19.792,47.32,187.372,
41351760,0.828,-0.008,-0.067,-52.92,61.6,50.662,
41351780,0.725,-0.113,0.485,-110.845,44.275,-65.257,
41351780,0.746,0.199,0.662,-115.762,47.337,-146.825,
41351800,0.279,0.642,0.751,-104.195,73.727,-203.787,
41351800,-0.219,1.006,0.746,-93.03,94.85,-234.92,
41351820,-0.34,1.098,0.732,-78.137,107.257,-239.085,
41351820,-0.35,1.105,0.777,-55.895,121.502,-230.79,
41351830,-0.519,0.975,0.734,-27.317,131.39,-215.915,
41351840,-0.744,0.783,0.65,6.982,124.477,-189.647,
41351850,-1.01,0.61,0.458,42.542,95.952,-146.055,
41351860,-1.013,0.431,0.195,78.19,55.072,-89.232,
41351870,-0.881,0.286,-0.092,103.512,15.592,-27.597,
41351880,-0.732,0.144,-0.313,112.857,-16.03,32.532,
41351890,-0.575,-0.08,-0.523,110.932,-43.032,79.817,
41351900,-0.363,-0.222,-0.583,102.13,-70.175,106.102,
41351910,-0.257,-0.34,-0.601,80.045,-94.185,112.035,
41351920,-0.184,-0.598,-0.596,50.715,-113.68,93.957,
41351930,-0.053,-0.9,-0.666,22.767,-124.495,58.065,
41351940,-0.01,-1.03,-0.694,2.117,-118.72,14.805,
41351950,-0.1,-1.211,-0.702,-20.685,-93.415,-29.767,
41351960,-0.307,-1.325,-0.817,-41.352,-57.575,-63.297,
41351970,-0.63,-1.093,-0.808,-60.287,-27.055,-81.025,
41351980,-0.638,-1.326,-0.617,-67.567,-9.257,-85.942,
41351990,1.698,-1.943,1.989,-50.54,146.37,-90.055,
41352000,0.295,-1.458,-1.302,303.975,325.902,-342.947,
41352010,-1.32,1.997,0.896,544.04,163.992,-91.262,
41352020,1.944,0.273,0.898,429.642,185.902,-80.71,
41352030,1.998,0.594,1.205,504.07,264.915,-29.785,
41352040,-0.029,0.058,1.985,455.052,435.312,91.367,
41352050,-1.998,1.986,1.748,268.187,318.587,119.227,
41352060,-1.606,0.8,1.821,-54.355,26.477,99.715,
41352070,-1.288,0.713,1.905,-225.33,-125.282,44.642,
41352080,1.069,-0.734,0.968,-303.852,-149.695,-2.415,
41352090,-0.138,-1.189,0.125,-279.037,-86.152,-27.86,
41352100,0.53,-1.216,-0.033,-179.34,-60.917,-33.057,
41352110,0.701,-1.062,0.167,-83.352,-37.835,-27.247,
41352120,0.648,-0.801,-0.055,-1.4,-9.17,5.775,
41352130,0.284,-1.17,0.017,93.327,18.042,32.55,
41352140,0.305,-0.343,0.956,180.845,43.54,42.962,
41352150,-0.221,0.598,1.841,176.4,71.137,46.83,
41352160,-0.516,0.503,1.555,90.457,56.525,39.777,
41352170,-0.517,-0.059,1.242,26.687,23.485,28.385,
41352170,-0.752,0.075,1.272,-4.06,-7.262,16.415,
41352190,-0.281,0.113,1.276,-42.892,-42.07,-10.115,
41352190,0.331,-0.115,1.108,-73.657,-58.31,-18.427,
41352210,0.275,-0.317,0.88,-83.65,-45.745,-10.167,
41352210,0.153,-0.308,0.89,-74.445,-30.03,-3.43,
41352230,0.005,-0.315,1.022,-68.057,-19.845,-0.665,
41352230,0.041,-0.124,1.143,-69.247,-17.937,-1.592,
41352250,-0.225,-0.204,1.26,-86.572,-20.86,-0.98,
41352250,0,-0.03,1.331,-104.772,-32.532,-2.572,
41352260,-0.139,-0.043,1.399,-141.347,-38.01,2.905,
41352270,-0.094,-0.095,1.454,-179.252,-58.52,8.995,
41352280,-0.079,-0.039,1.506,-216.562,-88.865,22.312,
41352290,-0.175,-0.004,1.499,-254.485,-135.327,41.352,
41352300,-0.475,-0.357,1.536,-300.72,-205.677,69.737,
41352310,-1.094,-1.165,1.945,-338.607,-328.247,82.162,
41352320,-1.667,-1.971,1.788,-336.087,-513.467,82.565,
41352330,-0.397,-1.998,1.095,-208.565,-573.37,108.482,
41352340,-0.634,-1.998,0.961,-0.122,-571.9,204.435,
41352350,-0.5,-1.88,0.408,155.225,-486.535,257.827,
41352360,1.934,-1.841,-0.199,188.055,-173.337,325.15,
41352370,1.921,-0.404,0.319,197.82,144.217,325.167,
41352380,1.817,-0.322,0.369,155.872,321.09,223.895,
41352390,1.312,-0.385,-0.082,93.572,384.895,121.677,
41352400,0.686,0.048,-0.067,77.227,352.747,29.102,
41352410,0.348,0.486,-0.095,57.802,283.867,-56.122,
41352420,0.365,0.931,-0.123,44.572,218.995,-120.522,
41352430,0.363,1.163,-0.076,30.082,179.287,-169.085,
41352440,0.235,1.099,-0.005,21.717,156.625,-208.495,
41352450,0.018,0.877,0.022,26.127,138.11,-230.09,
41352460,-0.085,0.654,-0.091,40.512,121.66,-224.875,
41352470,-0.101,0.541,-0.249,54.46,108.85,-202.825,
41352480,-0.255,0.354,-0.328,53.515,96.215,-174.422,
41352490,-0.437,0.075,-0.366,45.815,68.075,-141.05,
41352500,-0.407,-0.188,-0.342,44.187,24.132,-99.575,
41352510,-0.207,-0.371,-0.323,37.485,-20.125,-51.502,
41352510,0.048,-0.71,-0.334,35.157,-56,-13.335,
41352530,0.215,-0.866,-0.385,38.29,-83.23,14.647,
41352530,0.202,-0.985,-0.523,32.147,-100.485,36.697,
41352550,0.131,-0.946,-0.724,29.907,-120.067,35.752,
41352550,-0.104,-0.871,-0.949,8.102,-144.497,25.34,
41352570,-0.361,-0.839,-1.035,-28.77,-174.562,2.24,
41352570,-0.521,-0.784,-0.942,-78.68,-200.83,-28.962,
41352580,-0.49,-1.306,-0.866,-133.21,-208.18,-69.965,
41352590,1.228,-1.998,1.791,-109.252,-105.647,-91.647,
41352600,0.921,-1.998,0.216,205.485,415.992,-135.432,
41352610,-1.998,1.479,0.829,559.3,191.135,-229.722,
41352620,1.317,1.115,1.454,523.372,151.025,-132.072,
41352630,1.998,-0.851,0.853,442.102,287.035,-72.747,
41352640,0.457,1.634,1.903,413.577,462.035,23.292,
41352650,-1.833,1.887,1.266,178.937,289.765,68.372,
41352660,0.115,-0.836,1.563,-134.592,-7.56,78.96,
41352670,-1.332,0.058,1.368,-149.73,-85.802,17.955,
41352680,1.182,-0.696,0.785,-173.792,-104.772,-4.147,
41352690,0.43,-0.545,0.531,-122.08,-46.882,-3.36,
41352700,0.595,-0.964,0.515,-70.7,-8.68,18.987,
41352710,-0.003,-0.645,0.587,-12.372,9.73,36.505,
41352720,-0.312,-0.405,0.884,28.98,15.435,35.07,
41352730,-0.407,-0.138,0.992,41.247,8.907,18.655,
41352740,0.007,-0.139,1.046,40.67,-1.575,5.32,
41352750,0.212,-0.226,0.921,37.467,-0.857,4.585,
41352760,0.208,-0.079,1.071,41.23,10.132,12.722,
41352770,-0.241,0.223,1.282,29.662,12.582,18.55,
41352780,-0.248,0.037,1.153,-6.965,-3.062,15.75,
41352790,0.052,-0.335,0.891,-25.515,-13.265,9.467,
41352800,0.222,-0.353,0.847,-12.705,-6.737,6.352,
41352810,0.35,-0.32,0.839,5.425,8.802,11.935,
41352820,0.251,-0.364,0.858,23.415,28.297,22.645,
41352830,0.111,-0.302,0.937,39.567,43.907,33.005,
41352840,-0.179,-0.071,1.066,45.29,50.225,39.095,
41352850,-0.436,0.123,1.143,31.517,39.41,37.992,
41352860,-0.516,0.147,1.151,3.43,14.735,28.28,
41352870,-0.332,0.159,1.24,-28.227,-12.897,15.837,
41352880,-0.003,0.214,1.457,-68.775,-34.877,11.182,
41352890,0.112,0.205,1.647,-124.267,-48.492,18.935,
41352900,0.293,0.326,1.864,-195.072,-58.03,40.39,
41352910,-0.654,-0.068,1.466,-283.15,-69.755,78.382,
41352920,0.042,-0.075,1.467,-325.937,-182.28,85.557,
41352920,-0.631,0.146,1.821,-394.432,-210.857,164.692,
41352940,-1.667,-1.572,1.993,-483.49,-322.962,168.717,
41352940,-0.043,-1.998,1.686,-389.865,-524.072,67.025,
41352960,-0.223,-1.998,1.995,-120.995,-412.16,219.695,
41352960,0.264,-1.776,0.254,184.835,-85.277,529.165,
41352980,1.643,0.614,-0.598,254.625,108.675,571.602,
41352980,1.873,1.844,0.377,68.005,178.885,489.842,
41353000,1.998,0.615,0.434,-6.37,195.37,209.282,
41353000,1.998,-0.013,0.579,-7.192,136.99,-86.082,
41353010,1.685,0.398,0.177,9.642,133.507,-194.267,
41353020,0.836,0.794,0.081,32.847,115.15,-279.282,
41353030,0.298,0.784,0.121,9.677,97.335,-320.915,
41353040,-0.071,0.285,0.043,9.012,71.505,-347.97,
41353050,-0.516,-0.071,-0.037,23.782,32.672,-313.495,
41353060,-0.944,0.086,-0.18,46.69,-15.47,-271.127,
41353070,-0.821,0.18,-0.309,43.435,-61.792,-236.075,
41353080,-0.522,0.052,-0.281,24.92,-78.137,-185.57,
41353090,-0.34,-0.108,-0.138,13.597,-68.18,-129.08,
41353100,-0.12,-0.299,0.024,14.175,-43.627,-75.267,
41353110,0.053,-0.489,0.05,29.942,-17.78,-32.007,
41353120,0.154,-0.394,-0.071,50.68,2.975,-0.875,
41353130,0.196,-0.556,-0.1,62.475,13.125,11.672,
41353140,0.085,-0.484,-0.299,41.44,1.785,14.21,
41353150,0.129,-0.597,-0.342,22.89,-30.905,-7.385,
41353160,0.184,-0.631,-0.401,-2.957,-74.025,-40.127,
41353170,0.236,-0.409,-0.381,-27.702,-112.017,-81.48,
41353180,0.109,-0.204,-0.396,-56.14,-128.817,-121.782,
41353190,-0.151,-0.159,-0.443,-85.33,-132.177,-155.662,
41353200,-0.617,-0.068,-0.483,-114.485,-142.012,-169.977,
41353210,-1.189,-0.26,-0.4,-152.547,-176.137,-175.875,
41353220,-1.48,-0.582,-0.46,-160.492,-238.087,-159.022,
41353230,-1.274,-0.782,-0.376,-155.347,-301.192,-105.087,
41353240,0.561,-1.134,0.887,-98.21,-279.3,9.362,
41353250,1.904,-1.998,0.37,106.89,309.382,64.19,
41353260,-1.959,0.564,-0.222,527.817,411.827,0.385,
41353260,-1.853,1.453,1.433,426.895,412.107,-25.602,
41353280,1.481,-1.836,1.832,347.375,382.34,186.655,
41353280,-1.405,1.489,1.932,408.73,309.872,264.617,
41353300,-1.998,0.846,1.998,230.632,216.247,189.297,
41353300,-1.958,1.565,1.983,58.59,60.655,93.467,
41353320,-1.319,0.238,1.632,-96.04,-54.302,-21.927,
41353320,0.026,-0.163,0.898,-172.655,-110.827,-79.817,
41353330,0.517,-0.61,0.524,-156.695,-104.352,-76.562,
41353340,0.76,-0.57,0.633,-105.612,-77.367,-40.022,
41353350,0.46,-0.392,0.789,-76.177,-48.702,-7.455,
41353360,0.111,-0.465,0.784,-57.697,-29.54,14.7,
41353370,-0.075,-0.458,0.85,-42.227,-21.455,15.207,
41353380,0.061,-0.337,0.964,-31.972,-19.53,5.162,
41353390,0.178,-0.235,1.041,-31.097,-16.835,2.677,
41353400,-0.029,-0.11,1.194,-41.072,-14.91,6.037,
41353410,-0.026,-0.202,1.126,-63,-21.98,4.567,
41353420,0.01,-0.232,1.075,-77.49,-23.642,0.472,
41353430,0.095,-0.248,1.098,-89.705,-21.665,-3.482,
41353440,0.108,-0.203,1.126,-101.622,-23.607,1.085,
41353450,0.004,-0.15,1.276,-118.387,-32.725,10.202,
41353460,-0.104,-0.108,1.428,-149.187,-54.547,17.097,
41353470,-0.1,0.034,1.426,-189.42,-84.14,22.295,
41353480,-0.081,0.06,1.413,-237.667,-115.797,28.157,
41353490,-0.371,-0.125,1.553,-287.07,-153.527,35.402,
41353500,-0.925,-0.534,1.731,-330.75,-216.177,37.012,
41353510,-1.012,-1.243,1.946,-353.272,-310.45,26.845,
41353520,-0.851,-1.959,1.763,-332.412,-435.067,-6.387,
41353530,-0.03,-1.947,1.126,-250.565,-510.982,-17.167,
41353540,0.461,-1.289,1.186,-128.362,-474.18,36.837,
41353550,1.247,-1.819,0.502,-69.387,-323.715,59.657,
41353560,0.482,-1.306,0.714,-30.292,-117.722,53.13,
41353570,1.268,-1.514,0.184,-28.997,96.495,42.227,
41353580,1.031,-0.43,0.344,-18.217,246.785,-12.705,
41353590,0.838,-0.001,0.232,-26.915,342.002,-98.665,
41353600,0.31,0.473,0.101,-36.47,385.805,-164.062,
41353610,-0.273,0.597,0.178,-46.812,382.742,-195.3,
41353620,-0.527,0.757,0.288,-30.677,337.96,-202.562,
41353630,-0.742,1.289,0.458,-3.22,280.297,-178.587,
41353640,-0.897,1.17,0.511,-1.68,222.6,-147.945,
41353650,-0.69,0.874,0.475,10.01,183.382,-98.805,
41353660,-0.372,0.671,0.395,48.09,180.425,-34.405,
41353670,-0.371,0.48,0.169,95.427,193.48,22.96,
41353670,-0.35,0.331,-0.097,136.972,189.14,68.372,
41353690,-0.139,0.024,-0.486,161.647,155.417,95.76,
41353690,0.423,-0.402,-0.914,166.775,113.102,115.412,
41353700,1.041,-0.492,-1.258,151.427,87.902,128.38,
41353710,1.28,-0.639,-1.543,101.762,70.525,113.102,
41353720,1.261,-1.113,-1.613,27.125,33.985,63.962,
41353730,1.182,-1.578,-1.567,-34.737,-20.072,2.695,
41353740,1.065,-1.828,-1.564,-65.572,-67.095,-50.207,
41353750,0.692,-1.835,-1.539,-88.2,-92.557,-83.107,
41353760,1.284,-1.601,0.261,-92.417,-58.012,-87.727,
41353770,-0.708,-1.998,1.195,86.607,75.845,-143.657,
41353780,1.952,0.009,-1.154,519.802,219.66,-100.467,
41353790,-0.916,1.997,1.428,537.88,180.407,183.872,
41353800,1.417,-1.281,1.658,476.052,89.827,-62.02,
41353810,1.784,0.179,1.913,552.055,192.622,126.315,
41353820,-0.54,0.579,1.998,472.937,314.37,93.94,
41353830,-1.888,1.962,1.068,193.13,182.7,73.01,
41353840,-1.442,0.283,1.639,-111.965,-46.48,45.972,
41353850,-0.154,-0.385,1.342,-202.44,-137.935,10.92,
41353860,0.562,-0.36,1.175,-217.367,-127.697,-24.972,
41353870,0.272,-0.291,0.86,-200.025,-77.787,-22.592,
41353880,0.574,-0.871,0.596,-181.527,-45.902,-26.617,
41353890,0.565,-0.557,0.508,-133.962,-22.33,-4.777,
41353900,0.271,-0.587,0.116,-86.012,-9.975,34.44,
41353910,-0.304,-1.064,0.003,-6.3,-10.482,49.892,
41353920,-0.152,-1.306,-0.027,99.697,-16.555,43.767,
41353930,0.295,-0.339,0.61,192.64,0.455,46.13,
41353940,0.228,0.006,1.435,206.78,39.812,38.377,
41353950,0.036,0.649,1.92,168.577,63.437,30.555,
41353960,-0.675,0.535,1.409,81.042,52.29,20.632,
41353970,-0.595,0.088,1.196,18.567,16.082,11.077,
41353980,-0.629,0.251,1.254,-17.36,-18.042,-2.17,
41353990,-0.086,-0.05,1.12,-58.222,-48.072,-18.392,
41354000,0.097,-0.344,0.881,-69.702,-51.17,-25.655,
41354010,0.291,-0.352,0.745,-52.552,-38.5,-21.927,
41354010,0.259,-0.399,0.791,-27.072,-20.895,-9.135,
41354030,0.033,-0.268,0.908,-6.842,-5.862,2.1,
41354030,-0.063,-0.231,0.963,0.927,-0.612,4.795,
41354050,-0.154,-0.154,0.998,1.837,-1.75,2.712,
41354050,-0.09,-0.178,1.007,-1.75,-6.632,0.035,
41354070,-0.033,-0.145,1.019,-5.722,-10.045,-0.752,
41354070,-0.026,-0.095,1.064,-10.71,-11.567,2.047,
41354080,-0.114,-0.032,1.171,-21.42,-14.612,3.237,
41354090,-0.19,0.067,1.305,-42.21,-22.82,2.695,
41354100,-0.165,0.106,1.409,-76.335,-33.915,-1.487,
41354110,-0.121,0.058,1.474,-119.787,-39.497,-7.297,
41354120,-0.102,0.062,1.462,-163.397,-39.252,-14.682,
41354130,-0.094,0.059,1.499,-205.292,-50.977,-14.472,
41354140,-0.084,0.075,1.489,-244.79,-64.295,-9.222,
41354150,-0.116,0.055,1.459,-284.025,-81.445,-4.777,
41354160,0.024,-0.034,1.48,-318.885,-90.335,-7.962,
41354170,0.272,-0.372,1.692,-348.915,-77.35,-10.412,
41354180,0.244,-0.993,1.979,-355.302,-54.302,-15.522,
41354190,0.53,-1.841,1.9,-317.152,-10.587,-36.207,
41354200,0.318,-1.671,1.577,-230.912,60.252,-10.92,
41354210,0.11,-1.66,1.483,-147.612,97.37,15.207,
41354220,-0.478,-1.756,1.638,-46.83,62.23,4.97,
41354230,0.463,-0.486,0.629,77.945,39.585,36.225,
41354240,0.524,0.192,0.219,105,59.167,39.812,
41354250,-0.12,0.206,0.125,69.212,62.037,-3.395,
41354260,-0.515,0.055,0.231,37.345,33.915,-24.937,
41354270,-0.655,-0.135,0.257,30.922,-6.055,-24.045,
41354280,-0.794,-0.223,0.135,47.302,-43.225,-10.552,
41354290,-0.643,-0.099,-0.042,77.997,-59.867,17.15,
41354300,-0.165,0.152,-0.237,118.965,-45.377,46.777,
41354310,-0.049,0.321,-0.457,146.107,-11.847,60.97,
41354320,-0.17,0.383,-0.706,155.575,16.905,57.172,
41354330,-0.067,0.296,-0.949,155.557,28,39.095,
41354340,0.1,0.157,-1.093,147.63,24.92,10.027,
41354350,0.273,-0.055,-1.199,130.672,14.227,-28.087,
41354350,0.335,-0.307,-1.284,101.325,1.942,-77.717,
41354370,0.195,-0.55,-1.114,49.63,-16.992,-144.48,
41354370,-0.034,-1.009,-0.911,-14.087,-48.737,-220.237,
41354390,-0.206,-1.334,-0.754,-56.542,-85.347,-275.1,
41354390,-0.293,-1.316,-0.586,-85.435,-113.977,-292.46,
41354410,-0.371,-1.22,-0.48,-115.377,-124.915,-272.422,
41354410,-0.513,-0.988,-0.359,-131.95,-122.64,-216.195,
41354420,-0.517,-0.566,-0.203,-133.857,-115.937,-137.952,
41354430,0.082,-0.925,0.344,-142.397,-102.707,-59.657,
41354440,1.998,-1.859,1.123,42.577,206.675,-62.125,
41354450,-0.737,0.414,-0.131,476.157,441.84,-248.937,
41354460,-0.464,1.207,1.786,467.232,285.547,69.002,
41354470,1.932,-0.141,1.328,455.28,234.22,121.257,
41354480,-0.63,0.134,1.998,412.51,345.117,187.81,
41354490,-1.659,1.997,1.808,199.237,183.855,171.22,
41354500,-1.829,0.35,1.662,-104.107,-44.835,89.145,
41354510,-0.387,-0.158,1.263,-198.31,-145.53,-8.067,
41354520,0.768,-0.612,0.81,-205.52,-144.812,-55.912,
41354530,0.926,-0.685,0.491,-165.392,-98.105,-41.702,
41354540,0.652,-0.711,0.446,-111.09,-57.925,4.532,
41354550,0.361,-0.664,0.468,-49.857,-34.44,42.525,
41354560,-0.054,-0.661,0.579,-0.017,-18.147,58.817,
41354570,-0.168,-0.592,0.792,37.537,-5.232,48.405,
41354580,-0.211,-0.181,1.074,55.037,2.59,29.82,
41354590,-0.228,-0.006,1.227,42.455,-2.485,12.687,
41354600,0.064,0.002,1.215,16.327,-13.09,4.217,
41354610,0.129,0.015,1.19,-7.56,-17.36,5.74,
41354620,0.022,-0.109,1.101,-30.45,-18.532,13.702,
41354630,-0.104,-0.147,1.029,-44.1,-24.027,20.16,
41354640,0.07,-0.24,1.063,-52.622,-34.44,24.045,
41354650,-0.066,-0.046,1.254,-62.72,-38.132,21.892,
41354660,-0.012,-0.014,1.336,-90.58,-51.642,23.327,
41354670,0.025,-0.065,1.366,-122.57,-69.212,28.857,
41354680,0.09,-0.073,1.442,-157.36,-88.375,37.012,
41354690,-0.113,0.105,1.451,-194.74,-115.255,53.9,
41354700,-0.07,-0.067,1.357,-232.4,-152.932,66.78,
41354710,-0.207,0.003,1.356,-257.075,-197.242,83.615,
41354720,-0.381,-0.617,1.407,-292.88,-257.635,114.8,
41354730,-0.143,-1.648,1.446,-309.54,-339.412,121.572,
41354740,0.608,-1.887,1.62,-303.17,-420.84,114.24,
41354750,1.345,-1.998,1.437,-241.412,-400.19,120.837,
41354760,0.706,-1.998,0.851,-77.682,-275.887,187.792,
41354760,0.682,-1.649,1.188,48.16,-58.922,192.045,
41354780,0.798,-1.154,0.553,98.7,214.935,132.632,
41354780,0.364,-1.877,-0.147,94.902,369.005,137.567,
41354800,-0.677,-1.175,0.26,200.795,340.112,227.727,
41354800,-0.223,-0.408,-0.484,237.002,204.435,252.175,
41354820,1.412,-0.124,-0.473,205.467,129.85,238.7,
41354820,1.51,0.137,-0.374,158.987,127.26,188.685,
41354830,1.015,0.302,-0.375,97.247,125.23,97.912,
41354840,1.091,0.129,-0.314,42.962,109.445,-6.632,
41354850,0.524,0.293,-0.406,14.717,81.602,-116.077,
41354860,-0.079,0.491,-0.3,-5.442,51.485,-213.395,
41354870,0.289,0.077,-0.177,-30.397,58.94,-293.545,
41354880,0.024,-0.217,-0.144,-25.987,102.567,-342.895,
41354890,-0.791,-0.347,-0.221,-8.4,144.322,-367.71,
41354900,-1.571,-0.36,-0.33,12.285,136.307,-363.86,
41354910,-1.687,-0.35,-0.454,33.775,79.047,-330.855,
41354920,-1.471,-0.121,-0.632,45.255,13.545,-270.97,
41354930,-0.93,-0.046,-0.768,26.285,-20.982,-202.072,
41354940,-0.408,-0.113,-0.813,-13.16,-14.857,-140.595,
41354950,-0.339,-0.201,-0.73,-53.637,10.482,-93.607,
41354960,-0.467,-0.437,-0.646,-91.14,19.46,-70.21,
41354970,-0.448,-0.632,-0.539,-112.14,-1.347,-62.545,
41354980,-0.298,-0.673,-0.463,-122.045,-34.93,-59.202,
41354990,0.033,-1.083,-0.607,-143.745,-61.127,-63.367,
41355000,0.906,-1.565,0.478,-85.575,-57.032,-35.91,
41355010,1.73,-1.998,1.502,203.245,47.32,-52.657,
41355020,1.534,0.673,-1.478,534.065,259.122,-205.607,
41355030,-1.427,0.925,1.701,512.54,222.757,45.5,
41355040,1.896,-1.484,1.566,503.212,140.49,-40.6,
41355050,1.278,-0.044,1.934,558.39,339.307,95.042,
41355060,-1.998,1.997,-0.511,342.737,335.002,68.652,
41355070,1.09,-0.468,1.819,-104.825,-16.782,109.252,
41355080,-1.463,0.338,1.458,-241.535,-78.925,83.037,
41355080,0.234,-1.149,0.625,-227.08,-104.142,20.335,
41355100,-0.164,-1.121,0.637,-149.765,-73.097,-6.3,
41355100,0.329,-1.008,0.185,-93.905,-51.485,-21.105,
41355120,0.558,-0.875,0.295,-14.647,-36.032,5.67,
41355120,-0.025,-0.533,0.636,57.242,-13.632,43.242,
41355140,-0.074,-0.443,1.008,97.912,2.625,50.54,
41355140,-0.08,0.033,1.363,111.422,11.042,42.805,
41355160,-0.188,0.643,1.374,75.67,3.132,28.35,
41355160,-0.15,0.026,1.099,15.347,-11.042,19.25,
41355170,-0.237,0.038,1.103,-5.985,-19.67,15.715,
41355180,-0.071,-0.155,1.004,-22.767,-28.385,7.525,
41355190,0.116,-0.33,0.911,-23.502,-26.617,-0.035,
41355200,0.372,-0.205,0.983,-11.06,-13.475,-1.312,
41355210,0.118,-0.064,1.044,-6.597,4.602,7.122,
41355220,-0.061,-0.085,1.043,-14.105,9.887,16.187,
41355230,-0.051,-0.089,1.059,-25.165,6.895,17.78,
41355240,0.009,-0.031,1.193,-39.252,3.587,18.847,
41355250,0.21,0.039,1.359,-70.35,-0.087,28.157,
41355260,-0.056,0.198,1.453,-111.457,2.695,39.287,
41355270,-0.465,-0.37,1.21,-162.382,-29.417,42.262,
41355280,0.663,0.391,1.565,-173.967,-73.675,43.452,
41355290,-0.297,0.232,1.277,-249.305,-49.927,86.975,
41355300,-0.289,-0.178,1.309,-293.107,-80.115,85.242,
41355310,-0.058,-0.234,1.22,-306.705,-102.13,88.55,
41355320,0.162,-0.428,1.321,-325.01,-112.49,85.47,
41355330,0.452,-1.226,1.878,-341.162,-112.35,69.282,
41355340,0.286,-1.998,1.797,-274.505,-126.56,41.107,
41355350,1.33,-1.998,0.476,-109.41,-157.622,2.275,
41355360,-0.032,-1.998,-0.08,31.657,-53.427,85.837,
41355370,-0.445,-1.844,-0.763,78.697,-26.355,99.75,
41355380,1.07,-0.64,-1.251,84.56,-26.932,97.125,
41355390,0.831,-1.101,-0.444,-20.265,18.917,-2.957,
41355400,0.432,-1.654,0.041,-72.047,73.955,-109.97,
41355410,0.183,-1.066,-0.08,-51.467,137.672,-155.19,
41355420,-0.416,-0.735,-0.078,-52.552,169.207,-188.86,
41355430,-0.673,-0.694,0.184,-68.075,164.377,-191.52,
41355440,-0.572,-0.461,0.422,-69.072,136.745,-168.63,
41355450,-0.396,-0.133,0.532,-63.84,114.292,-136.71,
41355460,-0.398,0.121,0.628,-57.715,96.075,-103.985,
41355470,-0.438,0.42,0.638,-44.397,68.897,-75.057,
41355480,-0.401,0.905,0.533,-23.38,35.052,-49.84,
41355490,-0.49,1.254,0.387,-6.492,1.067,-29.995,
41355500,-0.524,1.283,0.331,2.31,-28.892,-16.467,
41355510,-0.499,1.13,0.225,12.005,-45.832,-2.257,
41355510,-0.44,0.965,0.134,22.225,-43.172,15.19,
41355530,-0.527,0.719,0.054,25.777,-28.805,33.162,
41355530,-0.677,0.478,0.031,28.21,-22.522,50.155,
41355550,-0.551,0.26,-0.025,30.292,-29.155,64.925,
41355550,-0.214,0.167,-0.123,30.1,-29.54,74.637,
41355570,0.169,-0.08,-0.225,21.175,-17.307,70.98,
41355570,0.008,0.463,-0.186,24.36,-8.802,56.525,
41355580,0.125,1.111,-0.256,53.095,-7.052,44.1,
41355590,-0.871,-1.748,1.998,-13.317,-40.617,-44.362,
41355600,1.223,-1.104,-0.652,370.037,-129.815,-289.537,
41355610,-1.371,1.997,-0.296,549.342,110.145,172.725,
41355620,1.095,0.285,0.59,391.16,-43.365,-35.385,
41355630,0.939,-0.536,1.998,452.882,56.945,-31.237,
41355640,1.202,1.278,1.998,420.717,144.62,91.857,
41355650,-1.304,1.72,1.971,182.945,176.435,88.27,
41355660,-1.383,1.211,1.868,-25.182,74.392,129.762,
41355670,-0.879,0.314,1.492,-163.45,-22.067,106.382,
41355680,-0.473,-0.587,0.865,-203.612,-43.942,31.762,
41355690,-0.113,-0.898,0.299,-171.08,-46.602,0.07,
41355700,-0.217,-1.074,0.345,-103.32,-47.722,-1.242,
41355710,0.411,-0.581,0.466,-30.59,-55.842,12.092,
41355720,0.201,-0.716,0.46,7.385,-37.572,33.46,
41355730,0.02,-0.516,0.669,54.11,-30.922,50.855,
41355740,-0.03,-0.318,0.91,86.17,-20.3,59.5,
41355750,0.109,-0.201,1.097,95.077,-6.807,50.312,
41355760,0.121,0.027,1.242,83.265,5.74,42.665,
41355770,-0.029,0.122,1.295,55.387,10.71,43.382,
41355780,-0.217,-0.006,1.175,22.33,4.427,43.435,
41355790,-0.278,-0.11,1.035,-0.052,-4.882,29.085,
41355800,0.048,-0.218,0.939,-8.242,-7.997,8.295,
41355810,0.182,-0.216,0.966,-5.565,-1.435,1.225,
41355820,0.087,-0.103,1.102,-5.197,9.03,3.062,
41355830,-0.01,0.016,1.234,-20.982,11.812,5.285,
41355830,-0.084,0.041,1.332,-52.762,10.5,4.2,
41355850,-0.153,-0.033,1.41,-87.167,4.742,-7.91,
41355850,0.006,0.132,1.495,-127.645,1.82,-17.71,
41355870,-0.062,0.129,1.514,-179.007,3.01,-23.642,
41355870,-0.065,0.165,1.612,-234.675,-6.457,-17.185,
41355890,-0.124,0.037,1.648,-292.092,-23.012,-12.407,
41355890,0.022,-0.102,1.63,-344.697,-39.2,-8.662,
41355910,0.087,-0.353,1.501,-392.07,-58.117,0.945,
41355910,-0.232,-1.499,1.917,-428.627,-103.862,-7.63,
41355920,-0.336,-1.998,1.49,-361.077,-213.867,-42.91,
41355930,1.091,-1.998,0.433,-205.012,-221.48,-21.612,
41355940,0.576,-1.998,-0.033,-101.097,-109.97,8.277,
41355950,-0.485,-1.214,-0.164,-24.167,-34.895,4.55,
41355960,-0.402,-0.129,-0.467,-32.375,-8.592,-17.395,
41355970,-0.128,-0.62,0.241,-112.577,23.345,-39.777,
41355980,0.183,-0.865,0.673,-126.21,56.105,-35.595,
41355990,0.294,-0.132,0.678,-75.775,98.14,-3.15,
41356000,0.359,0.477,0.58,-45.29,119.035,10.692,
41356010,0.282,0.801,0.553,-30.625,113.05,14.49,
41356020,0.239,1.1,0.593,-12.145,85.96,19.407,
41356030,0.376,1.237,0.681,8.207,50.75,14.42,
41356040,0.461,1.201,0.633,39.427,27.79,2.625,
41356050,0.422,1.224,0.479,82.67,19.442,-12.565,
41356060,0.311,1.174,0.296,116.515,18.462,-28.875,
41356070,0.13,0.996,0.109,137.515,15.12,-43.19,
41356080,0.019,0.762,-0.073,148.487,6.562,-50.032,
41356090,-0.044,0.54,-0.187,148.802,-5.267,-48.912,
41356100,-0.184,0.283,-0.237,137.585,-20.125,-43.505,
41356110,-0.256,0.019,-0.243,121.922,-41.055,-35.735,
41356120,-0.222,-0.201,-0.248,105.507,-59.237,-22.557,
41356130,-0.152,-0.47,-0.302,91.385,-67.865,-6.615,
41356140,-0.263,-0.695,-0.254,76.965,-75.145,7.122,
41356150,-0.374,-1,-0.324,64.61,-88.812,14.28,
41356160,-0.397,-1.24,-0.375,62.615,-103.582,18.637,
41356170,-0.369,-0.922,-0.91,38.71,-108.062,13.545,
41356180,-0.869,-0.901,-0.953,40.705,-99.995,37.765,
41356190,-0.49,-1.104,-0.506,15.68,-106.102,52.535,
41356200,1.859,-1.998,0.892,38.045,91.35,-34.86,
41356210,0.364,0.337,-0.114,517.772,207.655,-42.752,
41356220,-0.301,1.997,1.422,518.052,152.845,52.955,
41356230,1.751,-0.546,1.36,416.027,212.1,-5.897,
41356240,-0.086,0.202,1.727,392.507,342.965,76.72,
41356250,-0.897,1.633,1.054,152.775,148.382,125.93,
41356260,-0.73,-0.892,1.474,-162.732,-46.48,90.44,
41356260,-0.296,-0.578,0.79,-149.695,-105.175,56.14,
41356280,0.244,-1.466,0.653,-118.44,-91.21,14.175,
41356280,0.041,-0.161,0.893,-52.762,-66.412,-9.24,
41356300,0.942,-0.503,0.897,-39.742,-48.755,-7.402,
41356300,0.145,0.165,1.044,-19.022,-14.175,27.597,
41356320,-0.157,-0.241,1.008,-27.702,-11.742,44.817,
41356320,-0.039,-0.391,0.855,-29.872,-16.117,47.057,
41356330,-0.108,-0.24,1.027,-19.372,-13.002,35.105,
41356340,0.015,-0.058,1.095,-22.837,-14.962,25.777,
41356350,0.064,-0.108,1.1,-36.26,-18.13,24.867,
41356360,0.039,-0.146,1.072,-50.05,-19.022,27.492,
41356370,0.189,-0.261,1.003,-59.815,-16.152,22.47,
41356380,0.012,-0.221,1.078,-63.857,-8.942,21.647,
41356390,0.144,-0.201,1.07,-64.645,-16.257,11.9,
41356400,-0.014,-0.069,1.152,-75.53,-0.787,5.617,
41356410,-0.022,-0.144,1.22,-95.182,15.225,-10.377,
41356420,-0.038,-0.027,1.302,-115.692,29.487,-23.537,
41356430,0.004,-0.009,1.399,-147.787,38.342,-35.07,
41356440,0.022,0,1.469,-186.83,41.545,-36.785,
41356450,0.049,-0.005,1.447,-231.752,35.017,-30.257,
41356460,-0.002,-0.075,1.455,-275.957,12.18,-15.977,
41356470,-0.005,-0.231,1.412,-314.317,-27.492,1.627,
41356480,0.147,-0.39,1.443,-352.817,-66.815,24.867,
41356490,-0.158,-0.855,1.684,-366.59,-131.757,43.715,
41356500,-0.574,-1.631,1.893,-335.23,-245.962,49.665,
41356510,0.592,-1.444,0.953,-266.192,-316.487,47.337,
41356520,0.172,-1.58,1.223,-179.287,-281.05,93.625,
41356530,0.953,-1.988,1.055,-98.612,-266.91,16.835,
41356540,1.713,-0.919,0.153,37.59,-135.152,-12.967,
41356550,0.464,-0.769,0.417,44.222,49.437,-85.382,
41356560,-1.195,-0.934,0.088,56.787,119.14,-125.492,
41356570,-0.869,-0.295,-0.107,88.847,121.625,-79.17,
41356580,-0.635,-0.233,0.112,79.222,120.26,-36.26,
41356580,-0.541,-0.052,0.161,83.177,118.16,-7.595,
41356600,-0.287,0.187,0.233,101.167,122.902,23.572,
41356600,-0.1,0.289,0.199,113.855,119.455,29.347,
41356620,0.088,0.447,0.157,133.315,111.632,20.492,
41356620,0.123,0.479,0.068,149.467,99.732,-0.595,
41356640,0.091,0.452,-0.235,161.892,81.252,-30.135,
41356640,0.021,0.573,-0.464,162.032,61.477,-57.54,
41356660,-0.154,0.46,-0.58,131.232,45.412,-80.08,
41356660,-0.48,0.211,-0.444,88.812,25.462,-91.577,
41356670,-0.78,-0.125,-0.177,55.317,-1.732,-88.287,
41356680,-0.817,-0.511,-0.027,44.292,-23.607,-64.522,
41356690,-0.608,-0.565,-0.077,56.945,-21.577,-20.055,
41356700,-0.727,-0.491,-0.242,64.557,0.927,30.94,
41356710,-0.802,-0.62,-0.105,52.955,1.942,64.627,
41356720,-0.274,-0.826,-0.116,52.115,-22.12,72.117,
41356730,0.335,-0.419,-0.244,63.262,-27.387,65.1,
41356740,0.323,-0.178,-0.386,41.405,-20.597,31.535,
41356750,0.141,-0.461,-0.381,16.257,-27.86,-8.19,
41356760,-0.315,-0.084,0.067,12.32,-66.15,-50.645,
41356770,1.976,-1.998,0.641,104.335,-36.172,-213.99,
41356780,-1.084,0.671,0.368,537.617,266.262,-141.242,
41356790,0.759,1.988,1.835,456.767,96.862,-71.575,
41356800,1.974,-1.167,1.861,326.637,167.142,0.647,
41356810,-1.069,1.785,1.662,276.132,248.43,91.805,
41356820,-0.964,0.658,1.587,-21.035,77.087,115.237,
41356830,-0.968,0.081,1.321,-152.11,-50.89,90.562,
41356840,-0.046,-0.772,1.197,-175.542,-78.942,11.637,
41356850,0.153,-0.366,0.773,-155.872,-65.957,-5.862,
41356860,0.304,-0.645,0.873,-135.992,-41.37,-22.522,
41356870,0.268,-0.292,0.57,-113.872,-26.495,0.875,
41356880,0.18,-0.744,0.334,-73.605,-19.792,20.02,
41356890,-0.138,-0.872,0.484,-16.327,-15.89,34.79,
41356900,-0.159,-0.463,0.723,32.48,-12.25,34.405,
41356910,-0.15,-0.137,1.071,54.53,-6.072,23.345,
41356920,-0.014,0.013,1.216,46.427,-3.832,12.39,
41356930,0.052,-0.025,1.162,24.185,-3.692,8.925,
41356940,-0.118,0.019,1.259,4.637,-4.742,12.25,
41356950,-0.3,0.009,1.238,-23.642,-14.507,10.762,
41356960,-0.227,-0.198,1.048,-50.207,-27.965,-1.452,
41356970,0.046,-0.316,0.926,-55.982,-33.495,-12.11,
41356980,0.169,-0.299,0.886,-47.687,-29.715,-11.935,
41356980,0.178,-0.293,0.864,-38.552,-19.81,-3.622,
41357000,0.077,-0.383,0.866,-29.732,-12.337,2.292,
41357000,0.071,-0.318,0.908,-19.74,-6.772,6.895,
41357010,0.041,-0.283,0.991,-14.787,-3.85,8.33,
41357020,-0.062,-0.159,1.075,-17.272,-2.327,7.07,
41357030,-0.044,-0.136,1.215,-30.712,-1.05,0.682,
41357040,-0.012,-0.051,1.374,-55.055,2.222,-8.767,
41357050,0.059,0.058,1.511,-89.915,8.627,-15.61,
41357060,0.066,0.028,1.625,-136.045,12.25,-17.815,
41357070,0.117,0.101,1.68,-187.075,8.82,-10.185,
41357080,0.097,0.055,1.657,-240.992,-6.702,1.925,
41357090,0.065,-0.027,1.582,-294.402,-44.327,15.592,
41357100,-0.086,-0.724,1.836,-358.505,-106.645,31.57,
41357110,-1.407,-1.911,1.982,-349.842,-250.372,34.562,
41357120,-0.112,-1.998,0.658,-235.9,-390.932,53.55,
41357130,0.155,-1.998,-0.432,-68.075,-322.175,168.227,
41357140,-1.113,-1.998,-0.42,17.902,-199.92,211.382,
41357150,0.259,-1.308,-1.102,44.625,-21,199.325,
41357160,0.144,-0.997,-0.503,-18.147,106.767,111.58,
41357170,0.299,-1.532,0.119,-95.812,164.36,3.132,
41357180,0.712,-1.33,0.418,-98.227,208.197,-61.862,
41357190,0.493,-0.812,0.559,-86.747,241.85,-128.31,
41357200,0.201,-0.527,0.639,-109.252,258.072,-193.795,
41357210,-0.219,-0.002,0.678,-111.142,244.825,-239.085,
41357220,-0.572,0.659,0.602,-107.66,204.26,-269.535,
41357230,-0.94,1.145,0.439,-104.947,149.187,-283.675,
41357240,-1.134,1.865,0.529,-88.322,96.39,-275.397,
41357250,-1.635,1.997,0.706,-73.85,48.982,-235.235,
41357260,-1.724,1.997,0.904,-61.215,17.045,-168.735,
41357270,-1.405,1.913,0.908,-2.502,13.51,-69.982,
41357280,-0.961,1.774,0.654,84.525,37.222,32.357,
41357290,-0.588,1.503,0.436,155.802,72.17,112.875,
41357300,-0.306,1.005,0.256,194.355,91.84,155.4,
41357310,-0.008,0.394,0.153,215.127,89.95,165.095,
41357320,0.512,-0.434,0.09,243.075,74.917,153.772,
41357330,0.382,0.198,-0.234,222.442,68.67,150.815,
41357330,0.687,-0.324,-0.215,205.415,64.785,100.922,
41357350,0.527,-0.69,-0.274,161.752,46.987,72.835,
41357350,0.623,-0.953,-0.247,127.207,8.487,41.632,
41357370,0.736,-1.107,-0.246,91.682,-37.345,-3.395,
41357370,-0.738,-1.684,1.439,49.21,-112.682,-94.272,
41357390,1.326,-1.455,0.725,388.587,-232.942,-352.432,
41357390,-1.797,1.997,0.251,557.217,98.367,101.465,
41357410,1.476,0.831,1.154,408.03,-61.74,-90.16,
41357410,1.998,-1.328,1.967,371.087,64.47,-43.05,
41357420,-0.882,1.935,1.449,330.417,232.347,40.302,
41357430,-1.723,0.9,1.545,3.92,137.025,111.86,
41357440,-1.563,1.058,1.691,-167.352,-29.277,116.97,
41357450,0.056,-0.632,1.223,-232.592,-95.707,46.637,
41357460,0.153,-0.933,0.692,-212.905,-56.245,-6.23,
41357470,0.15,-0.697,0.731,-175.56,-29.54,-18.252,
41357480,0.22,-0.497,0.585,-144.48,-17.552,-4.707,
41357490,-0.217,-0.993,0.051,-100.187,-17.85,6.65,
41357500,-0.141,-1.036,-0.025,-13.667,-31.237,16.765,
41357510,-0.102,-0.923,0.374,67.602,-36.05,19.88,
41357520,0.111,-0.15,0.987,121.205,-31.29,32.637,
41357530,0.167,0.203,1.547,118.177,-13.352,35.577,
41357540,0.012,0.388,1.547,70.14,1.89,33.302,
41357550,-0.126,0.099,1.247,16.73,-0.157,29.05,
41357560,-0.317,0.156,1.389,-16.03,-11.06,27.055,
41357570,-0.428,-0.087,1.137,-56.035,-27.177,7.507,
41357580,-0.01,-0.424,0.815,-67.847,-35.227,-15.54,
41357590,0.385,-0.421,0.744,-47.722,-26.425,-22.767,
41357600,0.382,-0.353,0.827,-24.92,-5.46,-13.37,
41357610,0.205,-0.24,0.942,-10.465,14.087,-0.682,
41357620,-0.109,-0.215,1.055,-9.38,24.92,5.11,
41357630,-0.232,-0.101,1.191,-19.722,17.57,5.792,
41357640,-0.239,-0.017,1.28,-40.372,6.65,-0.927,
41357650,-0.28,-0.02,1.381,-73.01,-0.822,-9.835,
41357660,-0.318,0.05,1.498,-111.772,-13.125,-15.995,
41357670,-0.256,0.068,1.562,-159.967,-28.875,-17.57,
41357670,-0.174,0.071,1.514,-213.01,-44.747,-12.687,
41357690,-0.027,-0.038,1.396,-262.797,-60.025,-2.817,
41357690,0.024,-0.081,1.293,-297.57,-63.28,5.512,
41357710,0.073,-0.463,1.396,-325.272,-70.472,7.997,
41357710,0.068,-0.945,1.349,-327.547,-83.387,1.347,
41357730,-0.148,-1.542,1.304,-297.342,-121.467,-1.05,
41357730,-0.09,-1.49,1.514,-252.595,-135.817,23.467,
41357750,0.309,-1.525,0.931,-176.207,-147.192,52.482,
41357750,0.12,-1.941,0.253,-111.895,-116.48,61.425,
41357760,-0.229,-1.96,0.801,-74.707,-69.002,105.14,
41357770,0.792,-1.461,0.958,-16.922,24.535,141.75,
41357780,1.105,-0.082,0.813,65.555,86.572,137.97,
41357790,0.88,0.563,0.647,70.105,140.297,97.37,
41357800,0.627,0.661,0.749,52.395,151.182,31.132,
41357810,0.336,0.685,0.737,68.74,129.447,-29.61,
41357820,0.187,0.827,0.606,107.432,107.345,-65.642,
41357830,-0.064,0.828,0.468,133.14,91.717,-78.785,
41357840,-0.355,0.687,0.298,157.395,64.522,-78.785,
41357850,-0.448,0.539,0.123,183.89,29.645,-62.79,
41357860,-0.437,0.319,-0.191,204.347,-8.82,-41.352,
41357870,-0.386,0.158,-0.553,214.9,-43.487,-20.685,
41357880,-0.493,0.18,-0.695,197.137,-71.715,7.105,
41357890,-0.481,-0.092,-0.74,147.437,-93.38,34.965,
41357900,-0.316,-0.486,-0.615,103.722,-104.79,54.792,
41357910,-0.097,-0.882,-0.401,76.352,-100.8,67.445,
41357920,0.114,-1.173,-0.426,73.167,-88.235,62.16,
41357930,0.308,-1.109,-0.621,78.295,-65.957,42.7,
41357940,0.211,-0.95,-0.779,62.615,-48.615,8.592,
41357950,0.094,-1.023,-0.806,24.78,-51.555,-38.325,
41357960,0.027,-1.057,-0.751,-7.962,-71.872,-85.522,
41357970,-0.135,-0.903,-0.699,-29.032,-93.87,-118.352,
41357980,-0.303,-0.795,-0.802,-52.097,-110.512,-138.687,
41357990,1.337,-1.336,1.559,-42.35,-3.902,-88.655,
41358000,-1.517,-0.679,-1.014,399.63,322.822,-58.73,
41358010,1.728,1.293,1.383,556.587,234.08,51.852,
41358020,0.183,-0.255,0.078,311.22,470.26,-37.117,
41358030,-1.145,1.713,0.145,203.735,84.105,86.695,
41358040,1.998,-1.852,1.506,-286.352,-153.335,100.8,
41358050,-0.702,-0.291,1.049,-91.735,-70.227,56.507,
41358060,0.516,-1.622,0.811,-64.837,-60.83,4.9,
41358070,0.727,-0.345,0.888,-5.827,-28.332,5.32,
41358080,0.218,0.008,1.118,17.937,18.375,18.287,
41358080,-0.421,0.232,1.096,2.607,22.54,36.592,
41358100,-0.568,-0.316,0.938,-22.627,2.992,39.917,
41358100,-0.621,-0.077,0.998,-15.715,-14.315,19.46,
41358120,-0.029,-0.009,1.039,-17.15,-32.077,6.842,
41358120,0.203,-0.082,0.988,-25.025,-34.055,6.58,
41358140,0.158,-0.219,0.942,-24.29,-24.797,18.13,
41358140,-0.076,-0.22,0.961,-16.467,-13.982,26.372,
41358160,-0.15,-0.19,0.999,-11.655,-12.215,17.08,
41358160,-0.008,-0.269,0.955,-10.465,-13.842,6.125,
41358170,0.042,-0.157,0.988,-4.55,-10.535,2.327,
41358180,0.034,-0.062,1.029,-4.935,-7.315,3.027,
41358190,-0.082,-0.132,1.004,-11.445,-7.262,4.707,
41358200,-0.027,-0.151,0.981,-13.877,-8.382,2.362,
41358210,-0.037,-0.148,0.995,-14.192,-7.927,0.647,
41358220,-0.163,-0.11,1.025,-16.555,-9.292,-0.717,
41358230,-0.175,-0.107,1.029,-23.17,-15.732,-4.06,
41358240,-0.203,-0.122,1.043,-30.677,-23.905,-8.12,
41358250,-0.164,-0.083,1.127,-40.057,-33.635,-13.212,
41358260,-0.148,-0.018,1.242,-56.84,-44.082,-19.565,
41358270,-0.13,0.009,1.349,-82.827,-54.477,-27.597,
41358280,-0.106,0.033,1.459,-119.35,-62.247,-37.677,
41358290,0.016,0.08,1.516,-165.69,-65.695,-48.317,
41358300,-0.019,0.154,1.527,-216.107,-63.892,-52.955,
41358310,-0.17,0.048,1.506,-263.812,-77.56,-50.417,
41358320,-0.246,-0.205,1.504,-299.495,-109.707,-44.817,
41358330,-0.403,-0.512,1.8,-325.325,-179.042,-32.515,
41358340,-0.918,-1.666,1.81,-324.152,-289.187,-13.825,
41358350,-0.393,-1.998,0.435,-242.48,-401.415,-12.092,
41358360,1.991,-1.998,0.09,-60.287,-302.575,71.102,
41358370,0.166,-1.223,-1.086,59.01,10.99,145.81,
41358380,-1.35,-1.354,-0.987,-44.922,122.237,105.735,
41358390,0.597,-1.853,-0.012,-113.312,47.302,45.202,
41358400,1.643,-1.147,0.361,-121.572,68.46,7.595,
41358410,1.237,-0.612,0.492,-129.885,168.087,-53.97,
41358420,0.31,-0.342,0.62,-124.337,226.73,-126.612,
41358420,-0.201,0.113,0.72,-112.822,214.83,-171.85,
41358440,-0.328,0.545,0.756,-94.325,173.827,-187.232,
41358440,-0.469,0.944,0.749,-65.1,139.265,-174.212,
41358460,-0.601,1.293,0.842,-30.59,120.837,-143.5,
41358460,-0.793,1.377,0.862,8.995,104.247,-106.085,
41358480,-0.823,1.358,0.708,59.92,81.235,-58.642,
41358480,-0.648,1.332,0.492,108.622,62.702,-4.007,
41358500,-0.463,1.155,0.27,145.495,53.445,38.99,
41358500,-0.233,0.795,0.121,174.09,51.817,67.97,
41358510,-0.149,0.907,-0.059,176.697,56.822,86.222,
41358520,-0.089,0.314,-0.031,168.122,62.142,90.142,
41358530,-0.057,0.033,-0.058,165.165,51.677,91.245,
41358540,0.209,-0.09,-0.133,165.182,39.147,85.19,
41358550,0.402,-0.291,-0.336,147.385,37.152,72.152,
41358560,0.417,-0.324,-0.385,118.335,39.235,54.145,
41358570,0.218,-0.486,-0.325,73.325,28.507,31.08,
41358580,0.253,-0.899,-0.292,39.812,-6.422,-1.75,
41358590,0.066,-0.589,-0.109,25.2,-48.632,-18.882,
41358600,0.016,-1.998,1.153,126.682,-128.765,-116.9,
41358610,-0.291,0.245,-0.565,538.475,174.335,-26.757,
41358620,1.153,1.06,1.887,498.242,97.492,29.627,
41358630,0.489,1.083,1.012,393.102,278.6,-2.975,
41358640,-1.893,1.715,-0.055,126.77,151.707,62.842,
41358650,0.808,-1.586,1.681,-194.197,-89.897,78.505,
41358660,-1.18,-0.128,1.082,-127.172,-121.502,36.505,
41358670,1.581,-0.85,0.928,-134.05,-123.795,11.585,
41358680,0.174,-0.289,0.781,-77.35,-54.757,24.5,
41358690,0.475,-0.473,0.805,-49.665,-19.827,42.525,
41358700,-0.061,-0.516,0.668,-26.092,-1.05,60.427,
41358710,-0.292,-0.382,0.941,4.952,8.82,63.297,
41358720,-0.413,0.052,1.146,15.575,3.797,42.7,
41358730,-0.34,0.078,1.164,-2.117,-14.315,23.1,
41358740,-0.128,-0.018,1.105,-24.587,-30.957,7.717,
41358750,0.113,-0.016,1.113,-39.077,-37.275,1.942,
41358760,0.103,-0.044,1.101,-51.642,-34.93,7.122,
41358770,0.116,-0.257,1.023,-64.995,-32.567,12.442,
41358780,0.085,-0.211,0.955,-65.905,-23.415,8.75,
41358790,0.16,-0.338,0.883,-61.337,-11.182,2.327,
41358800,0.152,-0.342,0.885,-48.72,1.925,0.682,
41358810,0.016,-0.296,0.932,-37.152,12.635,-0.227,
41358820,0.077,-0.301,0.913,-29.4,22.05,-4.41,
41358830,-0.018,-0.301,0.927,-21.857,29.977,-6.265,
41358830,-0.063,-0.198,1.021,-17.43,34.142,-5.495,
41358850,-0.165,-0.121,1.109,-21.805,33.565,-7.14,
41358850,-0.16,-0.074,1.193,-35.35,28.63,-11.235,
41358870,-0.136,-0.032,1.298,-57.365,24.92,-13.09,
41358870,-0.134,0.007,1.423,-87.64,20.23,-14.157,
41358890,-0.156,-0.007,1.445,-125.755,10.71,-9.677,
41358890,-0.199,-0.066,1.478,-166.6,-7.157,-0.507,
41358910,-0.317,-0.062,1.478,-209.51,-40.845,11.217,
41358910,-0.172,-0.073,1.497,-257.915,-81.287,24.92,
41358920,-0.175,-0.224,1.541,-303.082,-106.225,34.107,
41358930,-0.788,-0.81,1.847,-332.29,-147.7,17.832,
41358940,-0.966,-1.9,1.789,-305.9,-253.767,-7.77,
41358950,0.254,-1.681,1.222,-203.455,-328.807,-2.432,
41358960,0.545,-1.79,0.965,-121.292,-275.712,50.977,
41358970,0.627,-1.998,0.202,-36.207,-165.62,58.485,
41358980,1.706,-1.502,0.08,45.657,-6.965,96.915,
41358990,0.897,-0.612,-0.577,60.917,92.365,19.25,
41359000,0.202,-0.477,-0.349,5.215,104.79,-66.272,
41359010,0.274,-0.733,0.344,-42.262,84.175,-114.152,
41359020,0.249,-0.53,0.583,-19.53,89.897,-139.457,
41359030,-0.038,-0.065,0.552,10.552,133.455,-135.625,
41359040,-0.663,0.179,0.507,34.72,156.362,-123.305,
41359050,-0.9,0.485,0.52,58.485,147.787,-93.887,
41359060,-0.965,0.728,0.484,79.485,124.005,-50.802,
41359070,-0.991,0.851,0.351,99.522,97.125,-4.252,
41359080,-0.923,0.986,0.169,122.08,72.257,40.197,
41359090,-0.749,0.958,-0.071,135.467,52.955,76.737,
41359100,-0.541,0.855,-0.214,139.755,41.44,101.482,
41359110,-0.28,0.625,-0.496,136.622,38.622,109.707,
41359120,0.017,0.584,-0.69,125.877,47.845,105.105,
41359130,0.005,0.482,-0.607,83.265,61.582,90.86,
41359140,0.048,-0.188,-0.301,22.68,67.322,61.197,
41359150,0.292,-0.832,-0.046,-6.772,64.085,23.537,
41359160,0.37,-1.055,-0.02,-2.642,58.555,-16.397,
41359170,0.421,-1.173,-0.194,-3.675,56.647,-59.22,
41359170,0.344,-1.299,-0.352,-21.857,56.35,-98.77,
41359190,0.163,-1.44,-0.397,-49.14,54.022,-127.102,
41359190,-0.048,-1.544,-0.405,-72.345,48.965,-137.34,
41359210,0.238,-1.137,-0.035,-87.22,39.987,-126.56,
41359210,-1.567,-1.802,1.998,6.562,-159.845,-122.132,
41359230,1.688,0.284,-0.203,509.18,-244.142,-153.457,
41359230,-0.538,1.852,0.303,550.672,70.245,119.525,
41359250,1.806,-1.221,1.715,492.975,39.2,-23.642,
41359250,0.33,0.825,1.382,468.982,260.54,68.565,
41359260,-1.066,1.278,0.384,130.06,160.3,110.285,
41359270,0.244,-0.495,1.741,-238.717,-34.737,151.007,
41359280,-0.716,-0.023,0.975,-219.747,-100.012,91.577,
41359290,0.323,-1.453,0.535,-195.387,-85.645,53.462,
41359300,-0.308,-0.703,0.641,-115.657,-59.027,40.005,
41359310,0.158,-0.841,0.581,-74.987,-54.32,15.977,
41359320,-0.153,-0.257,0.743,-35.14,-47.302,26.39,
41359330,0.078,-0.17,0.961,-12.11,-48.93,29.872,
41359340,-0.035,-0.297,0.95,-11.025,-37.852,27.247,
41359350,0.121,-0.322,0.876,-4.55,-29.96,23.73,
41359360,0.102,-0.177,1.01,6.632,-19.985,22.942,
41359370,0.035,-0.081,1.136,5.722,-12.372,24.045,
41359380,-0.104,-0.026,1.229,-10.675,-14.682,27.982,
41359390,-0.092,-0.148,1.169,-34.16,-25.795,23.187,
41359400,0.104,-0.128,1.055,-48.842,-32.305,17.342,
41359410,0.117,-0.256,0.996,-56.682,-26.757,17.342,
41359420,-0.044,-0.24,0.951,-56.91,-21.665,21.105,
41359430,-0.102,-0.277,0.975,-56.28,-17.57,17.552,
41359440,-0.125,-0.246,0.926,-55.265,-12.862,9.03,
41359450,-0.015,-0.295,0.921,-53.27,-7.857,-1.137,
41359460,0.046,-0.279,0.982,-51.012,-2.52,-6.02,
41359470,0.047,-0.18,1.069,-53.445,2.082,-6.545,
41359480,0.031,-0.154,1.091,-63.717,6.44,-5.39,
41359490,0.035,-0.2,1.128,-76.58,12.215,-5.67,
41359500,0.057,-0.191,1.189,-91.787,18.445,-5.862,
41359510,0.09,-0.173,1.233,-110.425,22.242,-1.75,
41359520,0.127,-0.148,1.279,-134.085,23.94,6.177,
41359530,0.128,-0.236,1.334,-164.342,22.47,17.01,
41359540,0.251,-0.296,1.507,-196.997,15.4,32.567,
41359550,0.448,-0.237,1.7,-225.015,19.565,55.107,
41359560,0.453,-0.852,1.829,-246.697,48.072,73.342,
41359570,0.092,-1.731,1.897,-214.427,65.747,65.065,
41359580,-0.803,-1.998,1.687,-135.905,-20.615,50.697,
41359580,-1.511,-1.998,1.998,-32.497,-77.577,114.695,
41359600,-0.13,-1.515,0.256,165.567,-38.832,280,
41359600,1.636,-0.093,-0.494,211.137,29.645,389.48,
41359610,1.347,-0.594,0.089,99.05,-14.472,250.355,
41359620,1.448,-1.5,0.469,34.562,-13.37,122.92,
41359630,0.963,-0.79,0.275,86.03,1.855,54.39,
41359640,0.463,-0.222,-0.035,115.815,-3.01,-21.087,
41359650,0.252,-0.184,-0.208,112.542,-13.107,-80.412,
41359660,0.026,-0.069,-0.167,106.155,-20.825,-109.112,
41359670,-0.036,0.042,-0.058,91.98,-22.225,-126.892,
41359680,-0.09,0.071,0.062,72.94,-16.467,-137.322,
41359690,-0.195,0.073,0.179,60.882,-13.44,-144.462,
41359700,-0.296,0.145,0.144,63.297,-16.975,-146.352,
41359710,-0.414,0.33,0.019,73.307,-25.585,-140.665,
41359720,-0.484,0.485,-0.13,72.24,-33.652,-130.392,
41359730,-0.509,0.514,-0.172,59.01,-34.492,-114.555,
41359740,-0.564,0.442,-0.084,42.262,-29.47,-98.175,
41359750,-0.615,0.343,-0.026,36.382,-24.64,-84.21,
41359760,-0.578,0.423,-0.108,46.165,-19.512,-72.082,
41359770,-0.564,0.576,-0.25,54.67,-13.982,-65.887,
41359780,-0.578,0.653,-0.342,52.552,-6.877,-64.61,
41359790,-0.705,0.756,-0.36,48.055,-3.045,-63.962,
41359800,-0.775,0.889,-0.362,47.652,-2.625,-60.427,
41359810,-0.777,1.168,-0.432,59.71,2.817,-54.197,
41359820,-0.863,1.43,-0.468,76.317,13.177,-51.555,
41359830,-1.055,-0.109,-0.129,70.49,-17.727,-52.045,
41359840,0.749,-1.998,1.276,238.7,-18.707,-88.865,
41359850,0.867,0.839,-0.324,547.435,293.475,129.867,
41359860,-1.998,1.1,-0.085,302.365,152.057,-51.957,
41359870,0.714,-1.994,1.88,-444.622,-182.157,-19.845,
41359880,1.141,0.084,0.891,-175.945,-169.155,56.175,
41359890,-0.972,-1.844,0.384,-116.445,-85.172,-102.217,
41359900,1.872,-0.257,0.614,-11.252,-75.04,-60.987,
41359910,0.861,-0.287,0.96,32.497,5.495,-13.615,
41359920,0.304,0.187,1.173,56,46.567,57.592,
41359920,-0.99,0.059,1.03,32.322,55.387,66.395,
41359940,-0.783,-0.369,0.957,18.06,24.797,42.175,
41359940,-0.609,0.457,1.224,17.36,-9.117,10.237,
41359960,0.225,-0.066,1.03,-24.255,-39.987,-2.205,
41359960,0.467,-0.389,0.885,-29.382,-29.872,2.047,
41359980,-0.018,-0.103,1,-11.305,-6.265,10.482,
41359980,-0.06,-0.226,0.963,-8.347,-4.41,10.237,
41360000,-0.067,-0.178,0.999,-7.56,-3.885,4.882,
41360000,-0.215,-0.131,1.022,-9.047,-6.212,1.067,
41360010,-0.214,-0.054,1.041,-13.825,-16.537,-1.977,
41360020,-0.016,-0.128,1.004,-22.172,-26.267,-4.182,
41360030,0.011,-0.189,0.975,-26.512,-28.052,-4.567,
41360040,0.04,-0.229,0.978,-26.39,-26.67,-5.162,
41360050,0.007,-0.11,0.991,-23.73,-24.482,-2.555,
41360060,-0.088,-0.123,1.051,-27.72,-25.742,-2.24,
41360070,-0.091,-0.081,1.094,-37.17,-31.447,-5.005,
41360080,-0.043,-0.1,1.174,-50.54,-37.922,-9.8,
41360090,-0.02,-0.01,1.227,-67.462,-43.802,-13.86,
41360100,0.06,0.022,1.365,-94.447,-46.725,-17.675,
41360110,0.048,0.082,1.5,-130.147,-45.202,-20.737,
41360120,0.087,0.143,1.417,-169.645,-43.067,-21.7,
41360130,-0.087,0.029,1.352,-207.34,-39.445,-7.192,
41360140,-0.158,-0.31,1.27,-236.425,-58.397,1.452,
41360150,-0.323,-0.399,1.243,-237.632,-95.602,8.155,
41360160,-0.689,-0.578,1.488,-241.465,-154.525,11.532,
41360170,-0.926,-1.274,1.89,-235.917,-246.487,2.87,
41360180,-0.296,-1.652,1.069,-166.757,-349.422,-10.132,
41360190,0.385,-1.427,0.45,-74.27,-345.87,18.042,
41360200,0.479,-1.608,0.563,-34.142,-258.86,52.237,
41360210,0.422,-1.922,0.387,2.467,-111.615,50.12,
41360220,-0.008,-1.666,0.457,42.7,-10.237,69.405,
41360230,-0.078,-0.892,0.462,80.325,44.852,80.307,
41360240,0.474,-1.133,0.48,66.675,58.52,58.415,
41360250,0.419,-0.708,0.79,86.205,86.17,42.227,
41360260,-1.558,0.383,0.505,87.815,65.187,-13.667,
41360260,1.924,-0.247,0.553,94.587,150.92,-99.575,
41360280,-0.278,-0.267,0.124,85.855,270.62,-66.395,
41360280,-1.544,-0.022,-0.165,94.955,219.677,-60.375,
41360300,-1.18,0.162,-0.198,76.965,91.332,-12.18,
41360300,-0.722,-0.09,-0.045,44.082,-6.247,36.54,
41360320,0.092,-0.583,0.035,27.177,0.332,89.512,
41360320,-0.011,-0.332,-0.316,32.48,71.855,136.675,
41360330,-0.462,0.371,-0.801,35.682,126.805,160.492,
41360340,-0.365,0.831,-1.244,23.975,135.782,168.665,
41360350,0.033,1.26,-1.627,22.067,126.682,171.29,
41360360,0.157,1.901,-1.721,27.317,111.107,160.86,
41360370,0.318,1.983,-1.469,16.362,72.712,113.505,
41360380,0.432,1.503,-1.007,2.677,21.105,44.625,
41360390,0.217,0.901,-0.497,15.137,-41.23,-15.032,
41360400,-1.015,-1.116,1.39,41.877,-206.325,-112.402,
41360410,0.645,-0.878,-0.406,439.74,24.885,-284.952,
41360420,1.423,1.997,1.998,512.715,220.78,-55.72,
41360430,-1.028,1.997,-0.086,216.947,274.925,-41.615,
41360440,0.058,0.785,1.329,-28.735,25.305,146.02,
41360450,0.668,-0.357,1.57,-211.68,-66.937,173.267,
41360460,-0.113,-0.991,0.959,-185.062,-62.457,112.77,
41360470,-0.26,-1.299,0.527,-155.732,-34.265,92.155,
41360480,-0.484,-0.689,0.33,-76.422,-12.547,56.857,
41360490,-0.475,-0.678,0.632,-11.13,-15.242,33.495,
41360500,-0.431,-0.284,0.763,33.022,-21.507,11.235,
41360510,0.321,-0.443,0.987,55.562,-28.56,0.875,
41360520,0.578,0.01,1.22,70.105,-6.51,2.24,
41360530,0.105,0.24,1.211,55.195,18.672,9.712,
41360540,-0.239,0.083,1.094,25.042,21.437,14.997,
41360550,-0.462,0.068,1.089,4.217,7.35,12.495,
41360560,-0.351,-0.071,1.045,-16.8,-13.755,0.175,
41360570,0.073,-0.178,0.993,-27.79,-27.352,-12.355,
41360580,0.427,-0.21,0.937,-24.815,-19.005,-12.845,
41360590,0.263,-0.217,0.96,-15.19,3.955,-5.915,
41360600,-0.049,-0.109,1.023,-9.66,19.792,-0.595,
41360610,-0.18,-0.041,1.079,-14.472,20.457,-2.1,
41360620,-0.099,-0.107,1.07,-26.722,16.38,-8.907,
41360630,-0.04,-0.071,1.116,-36.12,15.995,-11.34,
41360640,-0.116,0.006,1.155,-51.922,17.097,-10.237,
41360650,0.188,-0.059,1.329,-89.477,5.215,3.657,
41360660,0.161,0.07,1.348,-133.507,8.312,28.245,
41360670,-0.116,0.023,1.421,-185.57,10.745,55.545,
41360670,-0.062,-0.766,0.618,-210.332,-60.882,41.02,
41360690,0.524,0.71,1.575,-194.092,-94.587,71.925,
41360690,0.04,-0.311,1.416,-300.037,-29.312,115.307,
41360710,0.167,-0.546,1.71,-313.425,-11.357,96.862,
41360710,0.324,-0.745,1.754,-302.137,35.665,108.675,
41360730,-0.158,-1.754,1.109,-255.99,61.25,56.087,
41360730,-0.727,-1.998,1.28,-187.617,49,5.407,
41360750,-1.66,-1.998,1.133,-79.292,56.07,88.445,
41360750,1.47,-1.807,0.54,21.402,86.817,219.03,
41360760,1.704,-0.492,-0.213,24.272,156.38,191.94,
41360770,0.734,-0.355,0.257,-46.777,134.767,1.522,
41360780,1.185,-1.167,0.706,-92.505,102.655,-183.75,
41360790,0.636,-0.63,0.539,-45.867,131.477,-257.267,
41360800,-0.517,-0.023,0.265,-12.932,147.42,-282.065,
41360810,-0.903,0.28,0.129,-9.012,109.602,-280.42,
41360820,-0.984,0.977,0.157,-6.352,57.557,-239.662,
41360830,-1.159,1.492,0.314,-8.715,22.19,-177.747,
41360840,-1.11,1.519,0.443,10.71,-11.235,-111.02,
41360850,-0.483,1.413,0.372,63.962,-36.137,-49.752,
41360860,0.019,1.515,0.098,128.17,-40.215,-8.47,
41360870,0.177,1.614,-0.16,170.747,-35.7,2.205,
41360880,0.164,1.399,-0.237,178.955,-38.85,-12.862,
41360890,0.151,0.812,-0.187,169.225,-43.96,-35.21,
41360900,0.16,0.245,-0.181,167.597,-44.205,-49.192,
41360910,0.157,-0.091,-0.3,170.467,-37.117,-54.967,
41360920,0.066,-0.331,-0.418,162.347,-28.875,-56.63,
41360930,-0.053,-0.558,-0.484,140.385,-33.372,-59.22,
41360940,-0.075,-0.685,-0.489,110.285,-51.397,-61.53,
41360950,-0.075,-0.736,-0.46,75.162,-73.272,-62.195,
41360960,-0.062,-0.801,-0.393,39.882,-91.402,-62.965,
41360970,-0.305,-1.479,1.043,14.402,-136.325,-58.975,
41360980,0.34,-1.595,-0.596,387.17,32.585,76.422,
41360990,1.91,1.997,1.998,557.55,190.872,190.977,
41361000,-1.26,1.997,-0.298,305.515,326.147,7.035,
41361010,-1.138,1.202,0.648,-9.135,6.702,15.645,
41361010,1.659,-1.45,1.66,-215.6,-172.777,58.87,
41361030,-0.184,-0.57,0.848,-131.775,-129.517,37.905,
41361030,0.127,-1.377,0.525,-107.31,-93.642,-3.062,
41361050,0.764,-0.675,0.604,-17.972,-55.58,-6.597,
41361050,0.755,-0.186,1.099,27.982,-11.83,-2.782,
41361070,-0.112,0.19,1.144,30.45,18.235,22.662,
41361070,-0.472,-0.282,0.942,7.665,12.127,27.3,
41361080,-0.396,-0.102,1.052,10.15,-3.482,14.525,
41361090,-0.144,0.128,1.039,4.532,-18.655,8.155,
41361100,0.185,-0.186,0.951,-8.995,-27.09,2.87,
41361110,0.029,-0.22,0.954,-7.332,-17.92,7.105,
41361120,-0.118,-0.082,1.019,-4.357,-13.702,11.427,
41361130,-0.203,-0.127,1.028,-6.877,-19.32,4.917,
41361140,0.039,-0.139,0.994,-12.53,-25.585,-4.13,
41361150,0.137,-0.228,0.951,-13.685,-22.417,-8.19,
41361160,0.171,-0.169,0.963,-8.557,-13.527,-7.875,
41361170,0.028,-0.169,0.972,-6.212,-4.637,-8.137,
41361180,-0.021,-0.144,0.983,-6.387,-1.225,-11.672,
41361190,0.049,-0.181,0.947,-7.577,0.665,-15.802,
41361200,0.075,-0.223,0.928,-3.955,5.985,-18.48,
41361210,0.075,-0.174,0.979,2.747,13.265,-19.845,
41361220,-0.006,-0.067,1.059,2.555,18.515,-20.79,
41361230,-0.141,0.022,1.147,-9.52,17.045,-23.1,
41361240,-0.233,-0.002,1.248,-30.677,8.715,-31.377,
41361250,-0.325,-0.07,1.439,-58.782,-5.04,-49.087,
41361260,-0.296,0.181,1.585,-94.465,-22.155,-67.077,
41361270,-0.136,0.246,1.545,-148.925,-26.442,-71.417,
41361280,-0.17,-0.014,1.435,-220.01,-12.845,-70.297,
41361290,-0.633,0.013,1.391,-259.052,-41.527,-56.612,
41361300,-0.602,-0.06,1.487,-271.32,-91.087,-38.465,
41361310,-0.886,-0.742,1.553,-277.812,-114.59,-39.69,
41361320,-0.771,-1.669,1.497,-258.86,-148.452,-55.195,
41361330,-0.122,-1.998,0.234,-175.14,-105.63,-37.275,
41361340,-1.922,-1.998,0.96,-72.345,61.792,50.75,
41361350,-1.287,-0.836,-0.854,104.492,125.807,251.79,
41361360,0.826,-0.267,-0.209,23.537,90.142,277.252,
41361370,1.778,-1.563,0.909,-88.007,72.782,163.852,
41361380,1.782,-1.487,1.198,-65.45,124.88,114.152,
41361390,1.652,-0.292,0.84,-22.05,165.48,89.985,
41361400,1.32,0.257,0.712,-7.612,139.965,-14.122,
41361410,1.109,0.193,0.726,-15.242,92.995,-146.16,
41361420,0.578,0.406,0.669,-13.457,59.132,-217.997,
41361420,-0.059,1.016,0.498,10.482,32.55,-231.525,
41361440,-0.912,1.442,0.28,30.555,-6.177,-218.417,
41361440,-1.306,1.351,0.064,45.202,-48.387,-180.617,
41361460,-1.216,1.068,-0.115,57.61,-70.472,-97.492,
41361460,-0.849,0.824,-0.236,67.62,-55.737,5.967,
41361480,-0.646,0.55,-0.33,76.877,-26.057,84.665,
41361480,-0.486,0.233,-0.482,90.23,-5.932,133.035,
41361500,-0.213,0.141,-0.76,107.135,-0.052,153.16,
41361500,-0.181,-0.029,-0.923,107.572,-4.935,148.837,
41361510,-0.387,0.151,-0.981,81.2,-19.932,138.705,
41361520,-0.147,-0.281,-1.081,63.35,-29.417,127.89,
41361530,-0.66,-0.576,0.403,68.022,-54.075,108.867,
41361540,0.234,-1.998,1.822,270.427,-355.53,-130.34,
41361550,0.346,0.528,0.685,567.087,51.555,-75.722,
41361560,0.615,1.997,1.459,445.497,223.3,-37.887,
41361570,-1.491,1.226,1.078,114.397,159.162,37.205,
41361580,0.598,0.892,1.408,-110.302,-28.717,165.795,
41361590,-1.719,-1.305,1.155,-162.802,-59.167,74.497,
41361600,0.315,-0.705,0.809,-136.797,-96.88,7.525,
41361610,0.064,-0.79,0.514,-94.955,-78.172,-31.482,
41361620,1.139,-0.524,0.67,-40.197,-50.732,-14.245,
41361630,0.593,-0.232,0.91,4.252,0.21,17.885,
41361640,-0.063,-0.198,0.939,22.312,31.272,39.392,
41361650,-0.552,-0.129,1.129,27.912,28.297,32.83,
41361660,-0.24,-0.041,1.031,4.602,9.327,13.842,
41361670,-0.031,-0.132,0.996,-2.082,-1.68,0.07,
41361680,0.046,-0.124,0.991,-3.377,-1.732,-0.77,
41361690,-0.112,-0.061,1.035,-4.707,0.262,1.575,
41361700,-0.241,-0.181,0.975,-8.82,-5.145,0.84,
41361710,0.006,-0.262,0.907,-9.082,-12.355,-4.567,
41361720,0.121,-0.167,0.969,-1.575,-9.345,-4.095,
41361730,-0.011,-0.137,1.007,1.54,-2.975,-1.225,
41361740,-0.085,-0.083,1.018,-1.575,-2.747,-0.35,
41361750,-0.064,-0.096,1.015,-8.417,-6.51,-3.867,
41361760,0.059,-0.168,0.962,-13.44,-8.172,-6.142,
41361760,0.062,-0.194,0.96,-11.165,-3.902,-4.567,
41361780,-0.056,-0.091,1.022,-7.945,-0.332,-1.12,
41361780,-0.062,-0.071,1.079,-12.477,-1.907,1.015,
41361800,-0.159,0.044,1.199,-24.622,-6.79,1.172,
41361800,-0.12,0.173,1.322,-50.33,-15.96,0.017,
41361820,-0.016,0.154,1.4,-90.37,-22.417,-0.63,
41361820,-0.048,0.106,1.401,-139.037,-20.842,2.625,
41361830,0.067,0.073,1.5,-193.795,-21.017,12.95,
41361840,-0.097,0.06,1.523,-229.232,-18.987,21.647,
41361850,-0.238,-0.583,0.95,-247.607,-70.35,-0.98,
41361860,0.2,0.361,1.41,-254.695,-92.47,24.587,
41361870,0.099,-0.26,1.59,-338.257,-96.582,60.322,
41361880,-0.555,-1.611,1.99,-366.222,-149.852,54.425,
41361890,0.124,-1.998,1.557,-258.545,-228.672,69.317,
41361900,-0.643,-1.998,0.365,-78.207,-192.675,133.875,
41361910,-1.998,-1.998,0.504,57.54,-131.915,255.675,
41361920,1.061,-1.694,-0.609,119.437,-40.547,375.795,
41361930,1.719,-0.584,-0.509,63.49,55.002,356.982,
41361940,1.858,-1.217,0.228,-44.537,81.182,164.202,
41361950,1.916,-1.303,0.349,-59.465,124.705,1.085,
41361960,1.103,-0.48,0.402,-25.357,153.842,-139.58,
41361970,0.385,-0.543,0.402,-33.722,157.202,-265.982,
41361980,-0.414,-0.366,0.312,-8.365,145.442,-314.965,
41361990,-1.01,0.084,0.187,19.582,121.345,-309.155,
41362000,-1.222,0.273,0.01,22.032,93.345,-277.567,
41362010,-1.305,0.447,-0.179,18.532,65.257,-216.37,
41362020,-1.12,0.632,-0.263,12.652,39.112,-139.702,
41362030,-0.682,0.471,-0.255,-7.315,24.412,-71.732,
41362040,-0.297,0.282,-0.179,-18.497,24.692,-26.757,
41362050,-0.107,0.231,-0.062,-21.157,31.115,-6.667,
41362060,0.006,0.093,0.067,-21.332,33.95,-6.387,
41362070,0.107,-0.055,0.047,-8.995,26.53,-19.32,
41362080,0.176,0.059,-0.093,12.46,14.892,-35.227,
41362090,0.147,0.197,-0.266,16.625,7.91,-49.367,
41362100,0.002,0.253,-0.365,0.77,2.782,-56.892,
41362110,-0.209,0.343,-0.42,-17.22,-6.615,-51.852,
41362120,-0.414,0.508,-0.401,-30.642,-24.097,-36.12,
41362130,-0.418,0.722,-0.497,-35.297,-40.565,-12.057,
41362140,0.455,-0.53,0.184,-29.067,-32.34,21.14,
41362150,-1.358,-1.897,1.633,107.1,-211.312,-100.257,
41362160,1.826,-0.781,-1.368,527.047,-40.88,-349.877,
41362170,-1.83,1.997,0.88,510.422,192.885,98.367,
41362170,1.371,0.545,1.028,426.02,63.14,-64.942,
41362190,1.243,0.014,1.998,406.962,137.497,21.42,
41362190,-0.199,1.933,1.998,264.267,196.122,95.585,
41362210,-1.85,1.84,1.945,32.935,135.712,106.89,
41362210,-1.333,0.245,1.466,-111.667,14.437,85.155,
41362220,-0.564,-0.53,0.851,-176.505,-36.347,1.522,
41362230,-0.019,-0.82,0.489,-159.442,-44.415,-36.487,
41362240,0.147,-0.583,0.552,-110.6,-41.457,-32.007,
41362250,0.251,-0.543,0.697,-70.507,-35.647,-18.55,
41362260,0.169,-0.574,0.718,-41.72,-24.622,-6.93,
41362270,0.067,-0.409,0.8,-14.647,-15.872,0.017,
41362280,0.068,-0.263,1.072,3.692,-11.357,7.385,
41362290,0.146,-0.17,1.048,-4.795,-6.685,6.44,
41362300,0.095,-0.191,1.059,-11.305,-1.347,11.707,
41362310,0.01,-0.235,1.189,-12.512,-9.625,13.912,
41362320,-0.187,0.209,1.217,-26.425,-13.09,15.802,
41362330,-0.173,-0.202,1.147,-62.16,-7.875,2.45,
41362340,-0.174,-0.135,1.083,-77.122,-7.822,-5.792,
41362350,-0.113,-0.151,1.103,-92.977,-9.572,-12.18,
41362360,-0.111,-0.149,1.157,-109.655,-12.215,-13.685,
41362370,-0.04,-0.122,1.222,-131.932,-15.522,-10.902,
41362380,0.089,-0.262,1.261,-161.157,-17.99,-2.467,
41362390,0.087,0.038,1.231,-186.742,-17.692,18.445,
41362400,0.147,-0.136,1.203,-217.227,-21.455,25.322,
41362410,0.159,-0.317,1.31,-255.482,-34.825,42.525,
41362420,0.146,-0.199,1.297,-283.482,-45.867,70.595,
41362430,0.027,-0.601,1.443,-316.802,-57.75,89.582,
41362440,-0.142,-1.379,1.796,-346.027,-84.192,86.537,
41362450,-0.091,-1.704,1.701,-311.535,-97.212,75.25,
41362460,-0.137,-1.996,1.562,-252.805,-169.855,57.19,
41362470,0.898,-1.889,0.915,-148.505,-177.695,89.582,
41362480,0.377,-1.998,0.767,-97.072,-106.96,141.102,
41362490,0.583,-1.9,0.97,-26.81,-59.815,149.012,
41362500,1.865,-0.777,0.678,19.075,-7.472,172.847,
41362510,1.458,0.448,0.295,12.635,33.635,121.677,
41362510,0.952,0.787,0.302,-32.672,25.13,-7.84,
41362530,0.599,1.062,0.558,-59.517,0.472,-108.185,
41362530,0.288,1.655,0.644,-49.35,-11.655,-155.732,
41362550,-0.184,1.997,0.685,-28.612,-17.797,-178.71,
41362550,-0.425,1.997,0.845,1.68,-12.302,-185.237,
41362570,-0.794,1.997,0.992,44.712,0.98,-164.762,
41362570,-0.909,1.895,1.191,90.86,19.792,-136.815,
41362580,-0.966,1.178,1.195,142.712,49.21,-92.855,
41362590,-0.899,0.103,0.941,234.727,75.862,-53.97,
41362600,-1.143,0.56,0.469,308.21,85.295,-7.21,
41362610,-0.747,-0.376,-0.154,319.987,90.44,41.492,
41362620,-0.745,-0.971,-0.647,292.617,75.215,60.865,
41362630,-0.775,-1.298,-0.871,263.952,28.997,65.222,
41362640,-0.415,-1.874,-0.881,195.387,-37.922,52.43,
41362650,-0.192,-1.996,-0.653,123.935,-81.182,48.317,
41362660,0.232,-1.998,-0.624,85.12,-79.712,25.602,
41362670,0.118,-1.986,-1.01,91.717,-32.725,4.217,
41362680,-0.437,-1.661,-1.394,65.625,15.26,-25.287,
41362690,-0.739,-1.592,-1.462,9.572,27.23,-64.26,
41362700,-0.575,-1.779,0.051,-29.645,5.687,-94.78,
41362710,1.707,-1.998,-0.295,134.312,118.16,-265.3,
41362720,-1.395,0.947,1.106,560.63,217.087,-172.06,
41362730,1.561,1.351,1.711,524.457,184.625,-76.422,
41362740,0.14,0.112,0.293,264.652,333.567,-48.352,
41362750,-0.647,0.973,0.238,135.712,58.765,53.952,
41362760,1.875,-1.957,1.205,-238.455,-119.805,110.67,
41362770,-1.522,-0.214,1.099,-48.125,-41.982,5.18,
41362780,1.602,-0.949,0.701,-56.245,-58.677,21.665,
41362790,0.087,-0.126,0.997,0.525,1.067,11.182,
41362800,-0.109,-0.188,0.996,1.155,19.285,32.392,
41362810,-0.444,0.02,1.026,5.897,18.567,33.145,
41362820,-0.737,-0.102,1.037,0.227,-1.977,22.557,
41362830,-0.112,-0.103,1.02,-7.262,-27.457,7,
41362840,0.198,0.032,1.04,-11.69,-33.005,4.13,
41362850,0.223,0.158,1.064,-21.717,-28.035,11.655,
41362860,0.091,-0.007,1.045,-32.375,-22.067,30.065,
41362870,-0.183,0.039,1.12,-40.6,-21.07,38.01,
41362870,0.044,-0.245,0.989,-51.555,-26.337,30.432,
41362890,0.075,-0.243,1.003,-49.822,-21.472,17.92,
41362890,0.084,-0.146,1.005,-49.665,-14.682,13.317,
41362910,-0.001,-0.1,1.053,-54.372,-9.66,8.75,
41362910,-0.012,-0.087,1.08,-63.805,-7.717,4.322,
41362920,0.068,-0.079,1.125,-76.86,-5.215,0.787,
41362930,0.028,-0.059,1.197,-93.975,-2.31,2.975,
41362940,0.153,-0.053,1.292,-120.26,-5.495,13.09,
41362950,-0.253,-0.152,1.333,-151.55,-4.217,25.305,
41362960,0.144,-0.113,1.299,-176.89,-36.855,29.172,
41362970,-0.071,-0.03,1.412,-215.932,-56.052,68.25,
41362980,-0.047,-0.239,1.564,-250.897,-84.402,84.42,
41362990,-0.065,-0.495,1.601,-274.102,-97.387,90.142,
41363000,-0.499,-1.047,1.983,-305.742,-114.992,91.245,
41363010,-0.609,-1.998,1.946,-325.255,-247.607,33.652,
41363020,0.889,-1.998,1.987,-113.82,-239.732,24.692,
41363030,-1.287,-1.801,-0.422,227.552,-57.47,222.582,
41363040,-0.121,0.217,-1.529,313.285,21.717,294.857,
41363050,0.199,-0.914,-0.581,82.757,4.112,203.402,
41363060,0.842,-1.998,0.398,-22.592,-8.312,50.68,
41363070,0.926,-1.894,0.182,42.857,72.502,20.545,
41363080,0.128,-0.995,-0.145,100.31,123.655,-16.38,
41363090,-0.195,-0.764,-0.253,78.557,115.622,-78.33,
41363100,-0.377,-0.717,-0.238,33.512,83.457,-96.932,
41363110,-0.527,-0.423,0,-7,46.497,-80.902,
41363120,-0.425,-0.34,0.348,-61.862,21.525,-56.105,
41363130,0.134,-0.191,0.455,-91.262,30.31,-30.642,
41363140,0.527,0.797,0.156,-65.432,81.655,-5.705,
41363150,0.116,1.956,-0.083,-29.662,114.852,-9.712,
41363160,-0.077,1.997,-0.102,-31.535,98.052,-49.84,
41363170,0.087,1.971,-0.079,-15.155,47.862,-86.03,
41363180,0.432,1.746,-0.186,29.557,21.122,-91.157,
41363190,0.371,1.215,-0.498,69.177,32.235,-89.81,
41363200,0.077,0.64,-0.875,97.86,40.477,-84.91,
41363210,-0.216,0.192,-0.916,89.302,19.022,-58.922,
41363220,-0.255,-0.425,-0.638,49.087,-26.792,-26.687,
41363230,-0.046,-0.912,-0.332,22.102,-68.67,3.36,
41363240,0.105,-1.109,-0.277,10.045,-84.07,30.94,
41363250,-0.088,-1.022,-0.327,-5.372,-83.807,58.24,
41363260,-0.18,-0.958,-0.389,-32.515,-93.52,72.327,
41363260,-0.24,-0.942,1.791,-17.325,-168.647,70.525,
41363280,1.542,-0.435,-1.408,415.135,83.737,-6.965,
41363280,0.28,1.018,1.998,524.247,165.55,146.475,
41363300,-0.409,0.114,0.921,339.71,323.54,5.512,
41363300,-1.161,1.181,0.153,171.727,101.395,108.657,
41363320,-0.61,0.141,1.59,-252.7,-80.78,108.955,
41363320,-0.323,-0.922,1.354,-218.89,-129.762,39.025,
41363330,0.44,-0.699,0.712,-183.207,-106.995,20.895,
41363340,-0.005,-1.073,0.52,-124.547,-70.787,-25.445,
41363350,0.873,-1.028,0.411,-70.84,-48.877,-21.297,
41363360,0.317,-0.401,0.566,0.035,-20.632,24.255,
41363370,-0.092,-0.549,0.84,42.56,-3.01,45.675,
41363380,-0.154,-0.028,1.091,61.425,4.217,47.617,
41363390,-0.022,0.185,1.253,51.152,4.532,34.09,
41363400,-0.14,0.048,1.125,23.03,0.98,25.165,
41363410,-0.016,0.005,1.087,4.725,-4.935,21.735,
41363420,-0.074,0.066,1.171,-10.097,-7.752,18.795,
41363430,0.043,0.074,1.155,-33.495,-12.355,12.267,
41363440,-0.009,-0.057,1.083,-53.2,-13.23,10.867,
41363450,0.024,-0.044,1.108,-63.035,-10.185,8.365,
41363460,-0.011,0.027,1.163,-83.16,-5.81,-0.682,
41363470,-0.051,0.013,1.221,-108.605,-0.63,-3.412,
41363480,0.002,-0.037,1.228,-138.145,2.992,-8.032,
41363490,0.038,-0.059,1.209,-163.135,7.577,-5.932,
41363500,-0.74,-0.652,1.008,-184.135,-3.22,-4.515,
41363510,1.094,0.285,1.18,-152.477,-56.437,-39.917,
41363520,-0.046,0.39,1.229,-217.192,-9.677,31.307,
41363530,0.15,-0.323,1.414,-276.027,-13.177,20.492,
41363540,0.131,-0.31,1.407,-284.882,-22.225,37.94,
41363550,0.25,-0.488,1.464,-322.665,-36.837,42.577,
41363560,-0.016,-1.252,1.643,-332.64,-80.71,40.6,
41363570,-0.058,-1.892,1.426,-302.522,-148.172,34.527,
41363580,-0.103,-1.215,1.076,-257.425,-185.237,53.182,
41363580,-0.02,-1.558,-0.19,-218.452,-174.755,71.12,
41363600,0.109,-1.812,0.367,-221.777,-105.735,52.325,
41363600,-0.047,-1.333,1.359,-250.04,-107.975,14.07,
41363620,0.519,-1.172,1.411,-206.272,-89.95,-53.987,
41363620,0.623,-0.737,1.587,-140.735,-24.64,-107.135,
41363640,0.566,-0.18,1.773,-91.595,34.667,-146.86,
41363640,0.191,0.459,1.752,-35.945,73.71,-181.877,
41363660,-0.268,1.399,1.415,33.652,85.4,-195.072,
41363660,-0.73,1.993,1.159,73.552,72.38,-188.667,
41363670,-1.012,1.997,0.935,92.155,39.462,-168.332,
41363680,-0.714,1.79,0.623,133.682,23.257,-122.867,
41363690,-0.421,1.353,0.268,195.177,44.327,-62.405,
41363700,-0.305,0.88,-0.073,252.227,89.565,-5.53,
41363710,-0.335,0.351,-0.415,293.492,128.992,41.912,
41363720,-0.296,-0.198,-0.964,325.342,145.215,73.937,
41363730,-0.136,-0.718,-1.459,338.065,140,96.127,
41363740,-0.229,-0.977,-1.666,300.02,110.792,122.867,
41363750,-0.482,-1.467,-1.586,208.25,35.472,132.982,
41363760,0.018,-1.966,-1.494,106.505,-62.212,118.002,
41363770,0.855,-1.998,-1.24,53.69,-119.332,86.66,
41363780,0.859,-1.998,-1.093,19.18,-117.792,48.86,
41363790,0.375,-1.953,-0.985,-11.55,-103.355,1.137,
41363800,0.001,-1.721,-0.91,-39.165,-105.21,-39.007,
41363810,0.518,-1.585,-0.302,-68.25,-111.912,-62.23,
41363820,1.157,-1.998,0.763,1.977,208.67,-49.752,
41363830,-1.233,0.712,-0.253,520.327,297.29,-63.997,
41363840,1.957,1.678,1.471,528.99,252.385,175.91,
41363850,-0.052,-1.337,0.307,358.89,457.38,-45.885,
41363860,-1.363,1.925,-1.728,236.915,151.2,159.04,
41363870,1.937,-1.795,1.79,-179.182,-123.357,97.387,
41363880,-1.357,-0.721,1.057,-188.142,-66.22,-20.685,
41363890,1.035,-0.451,0.924,-29.627,-85.575,5.075,
41363900,0.849,-0.923,0.797,-36.137,-27.632,-8.347,
41363910,0.302,-0.277,1.028,30.572,25.357,15.487,
41363920,-0.566,0.356,1.066,34.772,38.99,40.757,
41363930,-0.853,0.128,0.985,2.642,14.21,42.945,
41363940,-0.552,-0.145,1.023,-12.39,-21.21,28.175,
41363950,0.007,0.059,1.037,-14.21,-42.595,14.227,
41363960,0.364,-0.021,1.025,-24.535,-44.52,14.507,
41363970,0.307,0.119,1.059,-27.317,-30.1,28.385,
41363980,0.076,-0.078,1.011,-39.322,-17.657,45.377,
41363990,-0.102,-0.363,0.894,-36.837,-8.645,44.8,
41364000,-0.099,-0.343,0.944,-19.705,-1.47,28.315,
41364010,-0.172,-0.118,1.007,-10.237,0.927,17.465,
41364010,-0.137,0.018,1.077,-13.825,-3.657,7.665,
41364030,-0.021,-0.004,1.077,-26.337,-9.065,0.21,
41364030,0.113,-0.097,1.06,-38.167,-9.642,-1.75,
41364050,0.104,-0.068,1.096,-46.952,-5.6,2.205,
41364050,0.025,-0.02,1.124,-57.26,0.472,6.947,
41364070,-0.086,0.022,1.19,-74.375,5.162,8.19,
41364070,-0.102,-0.058,1.237,-100.747,7.735,6.037,
41364080,-0.13,0.096,1.211,-128.31,8.522,7.7,
41364090,-0.027,-0.017,1.239,-158.585,3.202,4.252,
41364100,-0.689,-0.542,1.127,-188.545,-8.785,9.152,
41364110,0.63,0.04,1.186,-173.302,-62.65,-22.015,
41364120,0.021,0.211,1.56,-214.917,-34.79,34.615,
41364130,0.118,-0.263,1.755,-255.5,-23.642,38.78,
41364140,0.19,-0.731,1.801,-265.545,-18.602,41.93,
41364150,-0.071,-1.947,1.984,-264.67,-59.745,8.312,
41364160,1.649,-1.998,1.998,-128.975,-83.562,-60.235,
41364170,1.649,-1.847,0.525,92.172,34.23,22.505,
41364180,0.61,-0.076,-0.613,151.007,141.75,90.702,
41364190,-0.166,-0.548,-0.353,-0.087,72.362,9.835,
41364200,0.234,-1.483,0.225,-105,-42.612,-42.472,
41364210,0.812,-0.918,0.532,-99.872,-89.285,-31.832,
41364220,0.894,-0.155,0.554,-87.447,-69.51,-32.917,
41364230,0.361,0.214,0.406,-85.19,-33.092,-34.702,
41364240,-0.061,0.763,0.201,-54.232,-25.322,-39.62,
41364250,-0.338,1.267,0.155,-32.742,-41.842,-38.185,
41364260,-0.482,1.245,0.236,-32.707,-65.66,-39.305,
41364270,-0.491,0.807,0.295,-27.982,-81.567,-36.032,
41364280,-0.394,0.528,0.189,6.23,-78.417,-18.69,
41364290,-0.351,0.465,-0.072,44.187,-57.47,-0.35,
41364300,-0.429,0.324,-0.279,58.065,-35.857,5.967,
41364310,-0.455,0.079,-0.393,53.672,-28.367,-2.397,
41364320,-0.371,-0.099,-0.497,45.972,-30.135,-20.457,
41364330,-0.468,-0.142,-0.532,31.29,-33.757,-41.44,
41364330,-0.689,-0.179,-0.551,8.505,-42.227,-59.885,
41364350,-0.898,-0.088,-0.599,-6.492,-56.227,-64.19,
41364350,-1.011,0.006,-0.581,-16.082,-72.047,-54.162,
41364370,-0.949,-0.04,-0.531,-27.055,-76.86,-38.29,
41364370,-0.906,-0.065,-0.544,-31.885,-65.187,-23.992,
41364390,-0.838,-0.854,-0.408,-26.88,-51.397,-11.935,
41364390,0.142,0.369,0.444,11.48,-50.75,0.367,
41364410,1.998,-1.998,-0.684,254.572,227.622,-213.43,
41364410,-1.244,1.209,0.98,560.245,242.952,-102.532,
41364420,-0.068,1.968,1.195,448.385,207.34,13.842,
41364430,1.842,-1.422,1.865,287.857,286.405,39.9,
41364440,-1.685,1.637,1.518,261.485,296.327,96.565,
41364450,-0.688,0.941,1.617,3.57,68.46,128.327,
41364460,-1.575,-0.332,1.282,-167.65,-46.742,99.732,
41364470,0.24,-0.539,0.892,-146.107,-87.377,37.012,
41364480,0.083,-0.702,0.66,-120.137,-65.922,-3.342,
41364490,0.239,-0.742,0.533,-76.895,-46.445,-10.062,
41364500,0.409,-0.764,0.658,-30.485,-27.09,-3.99,
41364510,0.209,-0.348,0.841,8.715,-4.532,6.632,
41364520,0.085,-0.079,1.032,28.385,7.892,13.107,
41364530,-0.003,-0.076,1.065,23.555,12.46,15.54,
41364540,0.025,-0.2,0.972,11.585,13.37,14.84,
41364550,0.002,-0.045,1.096,10.045,11.62,20.667,
41364560,-0.167,0.048,1.179,-3.08,4.41,27.737,
41364570,-0.143,0.044,1.114,-22.977,-6.527,23.975,
41364580,-0.078,-0.189,1.005,-35.402,-17.237,19.495,
41364590,0.142,-0.07,1.034,-34.737,-25.235,20.055,
41364600,-0.005,-0.023,1.125,-43.137,-23.292,26.197,
41364610,-0.152,0.011,1.209,-59.972,-26.127,29.347,
41364620,-0.226,-0.007,1.248,-86.327,-28.98,20.615,
41364630,-0.217,-0.019,1.254,-114.695,-31.15,6.93,
41364640,-0.121,-0.051,1.254,-143.972,-33.967,-3.727,
41364650,-0.045,-0.062,1.285,-173.897,-37.677,-4.812,
41364660,-0.029,-0.078,1.312,-206.325,-49.262,4.515,
41364670,0.008,-0.054,1.316,-239.26,-70.945,21.455,
41364680,0.085,-0.061,1.301,-269.08,-90.562,40.337,
41364690,-0.163,-0.229,1.235,-297.92,-110.792,53.41,
41364700,-0.444,-0.798,1.615,-334.18,-158.62,54.862,
41364710,-0.524,-1.684,1.874,-358.54,-259.437,26.775,
41364720,0.36,-1.998,1.405,-277.62,-351.067,-1.557,
41364730,0.701,-1.998,0.138,-153.107,-279.475,31.237,
41364740,0.346,-1.998,-0.569,-97.842,-167.317,59.885,
41364750,1.082,-1.987,0.178,-118.3,-54.845,55.177,
41364760,1.372,-1.369,0.215,-120.855,58.065,26.057,
41364760,0.998,-0.378,0.073,-97.667,116.76,-56.122,
41364780,0.229,-0.019,0.381,-141.995,127.4,-140.28,
41364780,-0.18,-0.094,0.766,-179.497,102.97,-203.315,
41364800,-0.206,0.201,0.917,-153.265,107.362,-210.857,
41364800,-0.496,0.75,0.942,-110.495,146.79,-189.315,
41364820,-1.203,1.011,0.99,-74.655,182.052,-147.262,
41364820,-1.678,1.227,0.998,-29.925,186.27,-72.73,
41364830,-1.318,1.544,0.849,38.937,167.3,16.292,
41364840,-0.607,1.65,0.758,114.747,156.327,91.455,
41364850,0.016,1.557,0.644,173.005,172.602,126.122,
41364860,0.25,1.399,0.393,230.755,197.47,132.93,
41364870,0.262,1.056,0.027,275.38,206.92,122.762,
41364880,0.318,0.689,-0.349,291.532,183.33,101.377,
41364890,0.555,0.257,-0.549,274.995,139.125,72.677,
41364900,0.83,-0.3,-0.49,234.675,93.712,38.885,
41364910,0.877,-0.882,-0.346,193.637,53.707,1.33,
41364920,0.973,-1.274,-0.516,168.052,24.517,-36.067,
41364930,0.681,-1.2,-0.668,145.075,0.385,-58.432,
41364940,0.319,-1.387,-0.674,87.08,-31.902,-73.342,
41364950,0.15,-1.651,-0.589,43.12,-71.417,-73.797,
41364960,-0.504,-1.883,1.434,45.57,-119.052,-63.455,
41364970,1.049,-1.395,-0.626,429.502,-41.09,-160.265,
41364980,-0.641,1.997,0.944,569.135,116.497,273.105,
41364990,1.742,0.701,1.279,445.025,141.505,120.627,
41365000,-0.684,-0.708,0.914,287.752,264.985,-4.48,
41365010,-1.913,1.599,-0.345,179.165,82.232,140.927,
41365020,0.264,-1.296,1.811,-226.537,-101.587,41.177,
41365030,-0.993,0.428,1.415,-185.815,-137.392,33.197,
41365040,1.375,-1.179,0.617,-210.577,-127.207,-2.205,
41365050,0.224,-1.233,0.348,-112.892,-61.39,-27.422,
41365060,0.487,-1.035,0.474,-49.98,-27.072,-2.292,
41365070,0.044,-0.487,0.574,8.82,-3.307,28.315,
41365080,-0.149,-0.51,0.78,49.332,8.242,34.842,
41365080,-0.054,-0.113,1.225,74.305,12.337,34.23,
41365100,0.066,0.34,1.306,62.3,14.402,22.767,
41365100,-0.169,0.165,1.138,28.385,15.05,15.102,
41365120,-0.304,0.012,1.081,5.722,8.172,13.51,
41365120,-0.424,0.101,1.125,-10.482,-5.81,6.825,
41365140,-0.243,-0.046,1.06,-32.795,-23.432,-6.807,
41365140,0.1,-0.18,0.998,-42.665,-30.222,-18.182,
41365160,0.178,-0.218,0.995,-38.727,-21.77,-21.542,
41365160,0.015,-0.085,1.077,-35.7,-11.095,-18.217,
41365170,-0.165,0,1.2,-44.082,-8.4,-18.812,
41365180,-0.177,0.08,1.282,-64.487,-13.93,-24.955,
41365190,-0.136,0.043,1.312,-99.82,-19.355,-26.897,
41365200,0.003,0.018,1.336,-142.1,-22.435,-20.142,
41365210,-0.297,0.041,1.319,-181.475,-28.367,-3.517,
41365220,-0.315,-0.145,1.202,-210.682,-62.702,-5.092,
41365230,-0.276,0.122,1.275,-232.172,-77.017,14.262,
41365240,-0.261,-0.05,1.26,-259.962,-89.792,24.115,
41365250,-0.122,-0.252,1.236,-274.277,-99.715,17.412,
41365260,0.061,-0.358,1.227,-310.082,-112.595,-0.735,
41365270,0.083,-0.777,1.428,-281.627,-132.667,4.27,
41365280,-0.017,-1.35,1.364,-249.235,-157.902,2.73,
41365290,-0.701,-1.971,1.251,-206.465,-163.87,7.157,
41365300,-0.443,-1.872,1.109,-120.75,-150.885,64.977,
41365310,-0.634,-1.277,0.722,9.765,-139.772,136.867,
41365320,0.776,-1.084,0.803,53.917,-43.347,202.807,
41365330,0.463,-0.367,0.143,114.03,24.955,191.992,
41365340,1.045,0.18,0.267,125.755,67.007,148.172,
41365350,0.909,0.173,0.328,94.115,80.657,55.142,
41365360,0.88,0.327,0.243,93.24,89.565,-29.732,
41365370,0.477,0.578,0.198,104.02,98.56,-93.922,
41365380,0.114,0.736,0.097,111.615,96.355,-142.957,
41365390,-0.09,0.831,0.073,113.715,87.797,-166.407,
41365400,-0.278,0.648,0.188,107.1,76.807,-175.717,
41365410,-0.393,0.231,0.227,107.59,64.557,-177.59,
41365420,-0.445,-0.105,0.041,134.242,54.635,-172.497,
41365430,-0.523,-0.169,-0.286,171.115,53.952,-157.482,
41365440,-0.687,-0.146,-0.536,179.41,51.327,-137.83,
41365450,-0.802,-0.284,-0.65,148.277,42.227,-114.817,
41365460,-0.695,-0.502,-0.607,113.487,31.867,-91.682,
41365470,-0.542,-0.527,-0.527,88.13,26.565,-66.57,
41365480,-0.571,-0.428,-0.431,70.962,23.677,-35.315,
41365490,-0.663,-0.495,-0.409,60.095,9.047,4.515,
41365500,-0.712,-0.596,-0.568,69.895,-22.032,47.39,
41365500,-0.003,-1.472,1.213,143.097,-226.292,17.08,
41365510,0.708,-1.07,0.268,392.77,162.995,-80.797,
41365520,0.546,1.989,-0.294,452.375,387.327,9.66,
41365530,-1.567,1.128,0.102,274.452,52.377,-27.265,
41365540,1.998,-1.998,1.713,-329.14,-173.425,159.862,
41365550,-0.666,-0.706,1.095,-130.69,-36.89,96.162,
41365560,0.461,-1.157,0.899,-20.562,-63.945,-4.707,
41365570,0.907,-0.548,0.698,-30.24,-36.767,-1.505,
41365580,0.501,0.068,1.073,44.17,15.015,10.92,
41365590,-0.139,0.088,1.013,24.272,36.207,27.335,
41365600,-0.819,-0.221,1.012,19.057,31.202,26.652,
41365610,-0.143,0.015,1.071,21.647,3.325,7.472,
41365620,-0.056,0.285,1.076,6.44,-10.762,4.13,
41365630,0.154,-0.141,1.005,-15.33,-15.697,6.65,
41365640,-0.051,-0.081,1.021,-14.84,-10.902,9.327,
41365650,-0.075,0.059,1.043,-17.71,-11.707,12.005,
41365660,-0.028,-0.097,1.035,-27.65,-16.082,11.06,
41365670,0.015,-0.136,1.002,-30.835,-15.96,6.37,
41365680,-0.014,-0.064,1.046,-30.957,-12.915,1.592,
41365690,-0.024,0.008,1.085,-36.662,-13.247,-1.19,
41365700,-0.006,-0.07,1.076,-47.302,-14.332,-5.267,
41365710,-0.027,-0.03,1.117,-53.62,-14.245,-9.555,
41365720,0.052,0.005,1.17,-67.34,-13.492,-13.317,
41365730,0.013,0.049,1.239,-88.952,-8.96,-16.152,
41365740,-0.041,0.036,1.275,-118.58,-0.63,-21.14,
41365750,-0.135,-0.037,1.237,-147.315,6.545,-26.88,
41365760,-0.085,-0.075,1.245,-167.667,1.732,-35.052,
41365770,-0.108,0.05,1.314,-190.592,1.417,-30.117,
41365780,-0.1,-0.099,1.356,-220.64,-6.755,-23.222,
41365790,-0.046,-0.243,1.541,-240.152,-17.36,-14.577,
41365800,-0.024,-0.55,1.453,-250.162,-13.912,-3.325,
41365810,0.208,-0.81,1.299,-258.44,-3.605,-3.22,
41365820,0.176,-1.08,1.75,-283.237,-16.012,-28.227,
41365830,-0.404,-1.998,1.96,-230.702,6.72,-45.255,
41365830,-1.541,-1.998,1.396,-24.01,48.405,-17.5,
41365850,0.067,-0.427,-0.881,253.645,52.115,59.325,
41365850,0.07,0.726,-0.364,199.43,69.912,51.047,
41365870,0.212,-0.605,0.166,5.39,70.682,-44.467,
41365870,0.394,-1.359,0.507,-22.225,93.537,-93.677,
41365890,0.106,-0.732,0.481,61.407,111.842,-119.42,
41365890,-0.174,-0.164,0.258,93.607,117.372,-139.212,
41365910,-0.298,0.034,0.01,84.84,114.415,-136.622,
41365910,-0.529,0.335,-0.069,82.32,100.292,-114.205,
41365920,-0.704,0.534,-0.027,63.262,71.662,-85.785,
41365930,-0.488,0.465,0.039,37.275,47.25,-57.4,
41365940,-0.172,0.365,0.028,31.815,43.067,-32.375,
41365950,-0.104,0.447,-0.005,43.575,53.69,-14.35,
41365960,-0.078,0.448,-0.081,46.917,54.915,-6.947,
41365970,0.114,0.302,-0.238,41.335,46.532,-5.215,
41365980,0.272,0.208,-0.372,37.642,36.417,-5.25,
41365990,0.299,0.122,-0.438,24.325,24.762,-10.29,
41366000,0.327,-0.027,-0.493,1.732,8.907,-18.672,
41366010,0.409,-0.03,-0.619,-11.707,-5.915,-20.702,
41366020,0.407,0.219,-0.773,-15.627,-18.777,-10.15,
41366030,0.218,0.526,-0.782,-24.29,-40.425,15.697,
41366040,0.327,0.772,0.062,-38.237,-78.365,54.39,
41366050,-1.06,-1.827,1.998,104.37,-319.62,19.32,
41366060,1.978,-0.752,0.072,531.51,-42.402,-21.192,
41366070,0.673,1.99,1.998,551.897,223.947,246.365,
41366080,-1.712,1.994,-0.158,297.85,278.075,91.665,
41366090,0.341,1.383,0.203,4.217,6.195,134.242,
41366100,-0.079,-1.346,1.59,-212.73,-77.175,80.272,
41366110,-0.086,0.042,1.097,-98.122,-81.182,77.77,
41366120,0.146,-1.303,0.858,-117.285,-71.085,85.085,
41366130,-0.641,-0.677,0.645,-41.317,-47.985,72.187,
41366140,-0.309,-0.24,1.011,4.532,-37.887,40.845,
41366150,-0.457,0.315,1.139,7.105,-48.86,27.93,
41366160,0.146,-0.061,1.037,-23.66,-65.817,9.502,
41366170,0.381,-0.31,0.937,-24.762,-56.367,5.862,
41366170,0.383,-0.134,0.955,-7.175,-30.835,13.212,
41366190,0.136,0.072,1.081,3.71,-12.057,22.732,
41366190,-0.066,0.1,1.119,-7.297,-9.012,33.407,
41366210,-0.141,0.008,1.035,-32.602,-15.872,42.332,
41366210,0.147,-0.213,0.995,-45.202,-21.63,36.977,
41366230,0.16,-0.219,0.983,-42.262,-12.425,29.68,
41366230,0.034,-0.073,1.083,-42.612,-3.587,28.07,
41366250,-0.101,-0.019,1.155,-56.595,-2.117,25.655,
41366250,-0.137,-0.121,1.197,-72.8,-13.895,14.805,
41366260,0.13,0.016,1.24,-89.285,-21.087,2.642,
41366270,0.04,0.045,1.266,-117.162,-5.985,-4.165,
41366280,-0.032,-0.036,1.262,-147.367,5.18,-8.26,
41366290,-0.09,-0.045,1.283,-175.035,7.332,-4.585,
41366300,-0.084,-0.058,1.284,-202.23,3.307,1.4,
41366310,-0.072,-0.089,1.318,-230.807,-6.527,10.027,
41366320,-0.083,-0.109,1.287,-250.04,-15.032,23.94,
41366330,-0.002,-0.38,1.254,-268.642,-23.817,26.757,
41366340,0.138,-0.534,1.391,-278.845,-27.79,25.9,
41366350,-0.148,-0.875,1.663,-256.217,-27.685,54.005,
41366360,-0.339,-1.735,1.554,-230.142,-65.257,42.542,
41366370,0.013,-1.998,1.053,-152.897,-99.312,31.745,
41366380,-1.226,-1.998,1.087,-44.047,-61.652,78.75,
41366390,-1.561,-1.485,-0.273,94.797,-76.527,162.872,
41366400,0.28,-0.642,-0.503,121.572,-51.835,267.19,
41366410,0.6,-0.785,-0.279,18.217,-46.62,245.052,
41366420,0.984,-1.15,0.04,-41.545,-30.695,179.777,
41366430,1.386,-1.037,0.116,-37.415,6.79,135.327,
41366440,1.246,-0.583,0.168,-6.562,36.767,71.645,
41366450,0.96,-0.433,0.186,0.997,50.872,-7.84,
41366460,0.698,-0.376,0.275,4.217,50.242,-83.195,
41366470,0.415,-0.358,0.345,8.802,41.02,-143.692,
41366480,0.137,-0.303,0.356,18.532,31.885,-183.207,
41366490,-0.056,-0.223,0.22,28.122,24.605,-205.992,
41366500,-0.283,-0.079,0.036,33.915,18.935,-218.767,
41366510,-0.566,0.108,-0.107,29.505,8.645,-220.447,
41366520,-0.859,0.325,-0.091,6.772,-10.955,-206.955,
41366530,-1.003,0.483,-0.058,-21.21,-38.15,-179.27,
41366540,-0.962,0.662,-0.09,-30.117,-55.79,-134.225,
41366550,-0.877,0.928,-0.196,-18.9,-55.16,-82.442,
41366560,-0.817,1.19,-0.375,-2.625,-37.782,-31.815,
41366570,-0.844,1.352,-0.591,18.48,-17.36,12.145,
41366580,-0.815,1.486,-0.813,39.952,-9.082,38.447,
41366580,-0.416,0.102,-0.765,58.415,-10.447,50.54,
41366600,-1.095,0.988,0.628,86.677,-43.54,49.717,
41366600,1.056,-1.998,-0.323,253.067,-141.19,-283.745,
41366620,-1.38,1.315,-0.292,567.105,212.975,-45.692,
41366620,-0.034,1.799,1.028,453.302,54.652,-5.442,
41366640,1.809,-1.794,1.98,245.087,72.187,3.64,
41366640,-0.431,1.855,1.998,292.652,151.025,133.122,
41366660,-1.568,1.21,1.943,67.637,122.29,98.962,
41366660,-1.316,0.889,1.655,-70.455,17.29,72.625,
41366670,-0.535,-0.097,1.139,-146.335,-45.92,19.88,
41366680,-0.04,-0.649,0.769,-160.335,-63.84,-18.672,
41366690,0.115,-0.694,0.575,-130.375,-58.327,-21.49,
41366700,0.257,-0.675,0.514,-84.647,-48.79,-11.567,
41366710,0.34,-0.665,0.632,-38.062,-34.965,-1.855,
41366720,0.534,-0.483,0.697,-1.872,-15.242,9.38,
41366730,0.342,-0.32,0.889,26.022,3.972,27.072,
41366740,0.13,-0.165,1.061,35.315,14.087,43.137,
41366750,-0.093,-0.075,1.048,25.515,16.065,43.242,
41366760,-0.173,-0.234,0.978,18.13,13.247,37.1,
41366770,-0.32,-0.1,1.108,13.65,10.64,24.325,
41366780,-0.222,-0.046,1.149,-1.067,6.125,7.437,
41366790,-0.133,-0.085,1.128,-19.67,-0.892,-8.172,
41366800,0.003,-0.086,1.139,-35.455,-5.845,-15.785,
41366810,-0.009,-0.107,1.114,-50.19,-6.107,-17.237,
41366820,-0.016,-0.131,1.147,-63.962,-5.792,-16.257,
41366830,-0.013,-0.121,1.225,-82.18,-4.952,-17.045,
41366840,0.081,-0.056,1.304,-106.627,-3.36,-18.007,
41366850,0.286,0.001,1.431,-140.927,-2.362,-12.915,
41366860,0.254,0.027,1.566,-184.537,-9.905,6.072,
41366870,0.362,-0.16,1.65,-224.612,-15.067,25.795,
41366880,0.653,-0.736,1.454,-261.94,4.97,49.245,
41366890,0.888,-0.688,1.48,-287.28,7.035,64.662,
41366900,-0.774,-1.728,1.835,-255.832,-45.745,100.397,
41366910,-0.208,-1.998,1.907,-181.212,-181.405,90.58,
41366920,1.854,-1.769,0.012,21.017,-176.277,137.34,
41366920,0.072,0.196,-0.313,119.07,-42.455,213.062,
41366940,-0.418,-0.05,0.269,-18.13,-53.147,107.397,
41366940,0.614,-1.051,0.619,-101.832,-59.465,35.105,
41366960,0.455,-0.198,0.709,-34.457,-6.247,14.14,
41366960,-0.03,0.699,0.585,16.467,39.112,-14.595,
41366980,-0.113,0.794,0.42,14.98,46.917,-46.235,
41366980,-0.156,0.813,0.332,28.49,36.102,-62.195,
41367000,-0.237,0.956,0.217,53.76,21.577,-62.177,
41367000,-0.341,1.066,0.082,77.157,6.142,-57.242,
41367010,-0.406,0.994,-0.084,96.232,-7.455,-51.73,
41367020,-0.501,0.866,-0.167,112.227,-14.175,-40.495,
41367030,-0.478,0.684,-0.184,120.12,-15.33,-28.612,
41367040,-0.436,0.454,-0.176,123.602,-10.57,-19.092,
41367050,-0.296,0.213,-0.197,126.262,-2.415,-18.987,
41367060,-0.198,-0.043,-0.274,124.897,7.367,-29.067,
41367070,-0.246,-0.241,-0.367,119.507,10.447,-46.917,
41367080,-0.292,-0.403,-0.427,102.165,0.14,-67.532,
41367090,-0.303,-0.594,-0.482,73.465,-17.535,-84.542,
41367100,-0.328,-0.809,-0.567,42.105,-36.522,-90.247,
41367110,-0.428,-1.25,-0.844,13.65,-51.59,-80.675,
41367120,1.028,-1.562,1.639,-4.48,-68.967,-51.695,
41367130,1.615,-1.383,-0.861,387.1,218.26,-91.91,
41367140,1.604,1.997,1.998,512.505,213.36,57.137,
41367150,-0.733,1.997,0.779,279.387,298.725,-24.202,
41367160,-1.525,1.898,0.728,101.465,98.84,45.92,
41367170,1.212,-1.241,1.541,-153.212,-78.802,98.315,
41367180,-1.105,-0.023,1.233,-120.365,-74.865,34.912,
41367190,0.524,-0.966,0.993,-132.405,-86.152,0.14,
41367200,0.44,-0.291,0.839,-89.635,-60.252,-14.262,
41367210,0.538,-0.394,0.852,-66.465,-29.015,-7.227,
41367220,0.349,-0.235,0.853,-43.347,-5.25,32.252,
41367230,-0.321,-0.377,0.828,-28.962,8.61,40.162,
41367240,-0.306,-0.596,0.786,-15.925,5.757,38.412,
41367250,-0.238,-0.266,0.931,9.572,-0.035,27.16,
41367260,0.073,-0.006,1.091,18.62,-6.195,20.002,
41367270,0.097,-0.032,1.035,8.645,-5.897,24.185,
41367280,-0.028,-0.206,0.983,2.17,-4.427,30.345,
41367290,-0.076,-0.168,0.96,3.937,-4.515,30.17,
41367300,0.108,-0.254,0.915,9.485,-2.625,25.497,
41367310,0.11,-0.163,0.985,19.39,4.9,26.827,
41367320,0.006,-0.118,1.026,20.3,10.395,29.732,
41367330,-0.158,-0.038,1.049,14.56,9.677,28.542,
41367330,-0.199,-0.069,1.033,5.267,2.537,20.475,
41367350,-0.155,-0.088,1.024,-1.89,-5.897,10.71,
41367350,-0.056,-0.056,1.057,-8.26,-12.81,4.305,
41367370,-0.049,0.015,1.111,-18.042,-17.972,3.08,
41367370,-0.042,0.047,1.169,-35.07,-25.917,7.35,
41367390,0.126,0.022,1.26,-63.805,-38.465,18.48,
41367390,-0.068,0.067,1.391,-92.33,-50.82,28.455,
41367410,0.111,0.032,1.373,-128.135,-81.585,32.76,
41367410,-0.034,0.13,1.391,-169.295,-94.675,45.342,
41367420,-0.355,-0.082,1.364,-203.507,-112.682,50.592,
41367430,-0.506,-0.057,1.331,-221.742,-146.877,53.795,
41367440,-0.64,-0.294,1.641,-239.19,-196.892,55.37,
41367450,-1.151,-0.944,1.855,-245.787,-299.232,45.202,
41367460,-0.878,-1.896,1.277,-177.205,-416.517,22.82,
41367470,0.628,-1.998,1.726,-5.582,-397.827,64.82,
41367480,1.685,-1.858,0.574,133.367,-121.345,194.04,
41367490,-1.712,-0.985,-0.304,149.012,140.752,293.265,
41367500,-0.693,-0.923,-0.298,116.917,100.765,212.87,
41367510,0.998,-1.32,0.145,6.317,49.612,126.122,
41367520,1.33,-1.299,0.335,-26.932,101.395,48.877,
41367530,0.427,-0.791,0.205,-13.3,168.245,-33.11,
41367540,-0.053,-0.512,0.138,-19.477,180.862,-118.405,
41367550,-0.295,-0.447,0.134,-43.015,154.402,-177.887,
41367560,-0.464,-0.328,0.144,-57.942,123.095,-204.872,
41367570,-0.697,-0.121,0.167,-70.28,103.337,-204.33,
41367580,-0.996,-0.02,0.29,-85.732,86.152,-184.87,
41367590,-1.019,-0.063,0.433,-94.255,71.05,-149.467,
41367600,-0.807,-0.108,0.541,-87.675,68.46,-103.915,
41367610,-0.621,-0.032,0.489,-72.1,79.222,-61.547,
41367620,-0.514,0.197,0.302,-57.872,94.78,-28.14,
41367630,-0.523,0.403,0.137,-56.367,98.56,-3.15,
41367640,-0.501,0.595,-0.061,-61.442,86.765,15.645,
41367650,-0.419,1.001,-0.437,-53.042,73.832,40.897,
41367660,-0.273,1.457,-0.779,-29.417,77.77,77.997,
41367670,-0.169,1.763,-1.065,-5.232,95.865,110.372,
41367670,-0.19,1.975,-1.294,24.587,117.827,139.212,
41367690,-0.137,1.997,-1.396,47.075,121.66,159.792,
41367690,-0.739,-0.732,1.763,-3.342,-33.6,67.06,
41367710,0.964,-1.608,0.456,379.242,-239.365,-413.875,
41367710,-1.467,1.995,-0.114,563.622,157.92,-121.31,
41367730,1.998,0.901,1.775,362.53,-46.795,6.072,
41367730,1.646,0.219,1.998,333.637,86.695,44.24,
41367750,-1.485,1.971,1.947,160.755,183.54,179.462,
41367750,-1.21,0.781,1.806,-119.98,59.605,249.217,
41367760,-0.672,-0.094,1.237,-177.1,-59.15,195.947,
41367770,-1.067,-1.08,0.489,-175.28,-58.642,86.345,
41367780,-1.024,-0.923,0.172,-136.15,-41.387,9.712,
41367790,-0.445,-0.718,0.413,-67.287,-55.702,-34.405,
41367800,0.223,-0.55,0.677,-16.607,-61.005,-53.042,
41367810,0.562,-0.363,0.848,16.1,-48.335,-37.59,
41367820,0.749,-0.172,1.054,34.492,-33.355,-6.545,
41367830,0.553,-0.065,1.056,36.732,-7.472,21.892,
41367840,0.132,-0.171,1.028,34.457,14.437,40.652,
41367850,-0.25,0.063,1.157,25.252,19.127,50.172,
41367860,-0.365,0.051,1.227,3.85,8.715,38.22,
41367870,-0.263,-0.007,1.203,-27.317,-2.52,14.402,
41367880,-0.086,-0.027,1.186,-53.637,-7.927,-4.585,
41367890,0.112,-0.031,1.198,-75.827,-7.455,-14.262,
41367900,0.049,-0.011,1.218,-97.755,-5.25,-10.587,
41367910,-0.026,-0.079,1.196,-121.152,-8.05,-3.36,
41367920,0.032,-0.104,1.157,-143.552,-13.16,2.24,
41367930,0.067,-0.06,1.17,-168.035,-13.212,10.185,
41367940,0.041,-0.126,1.14,-195.352,-12.477,16.922,
41367950,0.205,-0.241,1.134,-221.217,-12.32,23.642,
41367960,0.358,-0.206,1.179,-236.18,-6.527,39.987,
41367970,0.459,-0.26,1.202,-248.395,2.065,56.63,
41367980,0.339,-0.309,1.186,-265.947,8.697,72.73,
41367990,0.335,-0.615,1.362,-288.837,5.862,83.562,
41368000,0.174,-1.036,1.658,-310.327,-24.517,71.435,
41368010,0.054,-1.724,1.909,-241.675,-79.082,63.577,
41368020,0.791,-1.655,1.293,-163.117,-110.092,38.045,
41368030,1.332,-1.463,1.782,-96.302,-90.247,45.64,
41368040,1.981,-1.415,0.465,-6.335,-21.297,3.972,
41368050,0.883,-0.539,0.546,41.3,57.82,-45.727,
41368060,-0.065,-0.304,0.576,12.407,11.182,-130.165,
41368070,-0.187,-0.019,0.623,-4.41,-42.297,-148.155,
41368080,-0.808,0.481,0.836,2.782,-80.71,-129.867,
41368080,-0.872,0.763,0.78,27.317,-102.585,-100.747,
41368100,-0.825,1.11,0.751,68.075,-98.98,-65.292,
41368100,-0.741,1.277,0.685,106.977,-87.71,-50.102,
41368120,-0.539,1.142,0.56,136.71,-69.562,-58.432,
41368120,-0.296,0.888,0.315,160.457,-36.382,-78.925,
41368130,-0.175,0.658,-0.041,178.937,12.74,-107.187,
41368140,-0.419,0.318,-0.25,172.865,66.587,-125.982,
41368150,-0.855,-0.174,-0.347,150.535,87.185,-128.047,
41368160,-0.872,-0.514,-0.445,137.9,68.425,-107.292,
41368170,-0.514,-0.704,-0.542,128.327,49.42,-71.995,
41368180,-0.314,-0.988,-0.619,105.682,44.012,-46.585,
41368190,-0.364,-1.338,-0.687,80.85,34.527,-38.325,
41368200,-0.421,-1.526,-0.751,64.312,4.41,-40.67,
41368210,-0.376,-1.611,-0.832,49.017,-28.98,-41.247,
41368220,-0.494,-1.667,-0.928,28.157,-50.942,-31.71,
41368230,-0.744,-1.705,-0.882,9.31,-75.215,-10.43,
41368240,-0.238,-1.715,0.194,-21.07,-89.337,22.68,
41368250,1.995,-1.981,0.903,-12.372,193.742,-12.022,
41368260,-0.684,0.251,0.082,475.177,270.445,-146.72,
41368270,-0.074,1.997,0.746,520.1,160.142,41.667,
41368280,1.231,-0.267,1.998,348.425,364.962,82.197,
41368290,-1.892,0.915,0.58,247.292,257.617,38.01,
41368300,1.169,-0.035,1.306,7.455,-51.765,178.062,
41368310,-1.067,-0.314,1.491,-284.987,-75.372,62.16,
41368320,1.033,-1.009,0.853,-171.885,-90.3,90.23,
41368330,-0.188,-1.094,0.501,-128.8,-43.277,78.505,
41368340,0.018,-1.438,0.307,-78.96,-17.727,28.91,
41368350,-0.279,-0.7,0.455,6.16,5.057,18.217,
41368360,-0.019,-0.464,0.867,54.127,9.73,17.185,
41368370,0.245,0.139,1.195,69.125,10.815,16.695,
41368380,0.294,0.266,1.251,51.135,19.932,16.8,
41368390,-0.458,0.174,1.186,24.115,22.085,16.66,
41368400,-0.335,0.105,1.105,-1.662,0.122,10.43,
41368410,-0.149,-0.022,1.131,-18.987,-19.092,1.785,
41368420,0.123,-0.008,1.145,-31.745,-27.807,-4.182,
41368420,0.308,-0.166,1.006,-45.15,-22.942,-5.6,
41368440,0.054,-0.218,0.93,-41.422,-11.235,-2.887,
41368440,0.174,-0.208,1.012,-42.752,-1.067,5.302,
41368460,0.02,-0.001,1.112,-45.36,4.865,9.59,
41368460,0.022,-0.051,1.172,-61.95,7.07,4.865,
41368480,-0.107,-0.094,1.198,-79.135,5.04,-0.175,
41368480,0.185,-0.006,1.226,-96.127,2.66,-2.1,
41368500,0.04,-0.069,1.203,-122.937,15.452,4.217,
41368500,0.042,-0.139,1.227,-144.375,20.282,11.235,
41368510,0.041,-0.139,1.242,-173.6,21.472,27.002,
41368520,0.022,-0.131,1.321,-205.467,12.757,51.047,
41368530,0.026,-0.195,1.352,-221.27,13.317,72.31,
41368540,0.271,-0.457,1.535,-228.112,26.652,84.77,
41368550,-0.01,-0.744,1.374,-232.96,53.252,99.697,
41368560,-0.651,-1.234,1.525,-227.552,20.545,77.332,
41368570,-1.179,-1.993,1.698,-148.872,-64.452,70.052,
41368580,-0.837,-1.998,1.24,-5.18,-83.982,183.522,
41368590,1.746,-1.569,-0.161,136.5,8.05,355.757,
41368600,0.8,-0.351,-0.708,142.59,-7.682,322.35,
41368610,0.838,-0.765,-0.091,28.175,-57.785,186.235,
41368620,1.188,-1.414,0.072,-48.457,-79.887,61.302,
41368630,0.791,-0.928,-0.003,-17.552,-59.605,-12.495,
41368640,0.288,-0.427,-0.024,11.742,-32.357,-65.257,
41368650,0.01,-0.314,0.017,-4.637,-27.177,-116.13,
41368660,-0.161,-0.326,0.115,-23.432,-39.62,-148.907,
41368670,-0.143,-0.165,0.15,-30.73,-49.822,-158.252,
41368680,-0.192,0.075,0.176,-40.547,-50.557,-156.415,
41368690,-0.345,0.185,0.197,-58.17,-52.57,-149.24,
