#Format version: 1.0
time[ms],accX[g],accY[g],accZ[g],Value 1,Value 2,Value 3,
50653260,-0.775,0.157,0.482,-11.147,17.587,7.525,
50653260,-0.785,0.154,0.506,-6.912,20.685,7.875,
50653280,-0.816,0.153,0.515,-3.15,21.07,8.067,
50653280,-0.843,0.162,0.525,-1.312,17.552,7.63,
50653300,-0.835,0.175,0.518,-1.575,13.615,6.527,
50653300,-0.814,0.185,0.532,-2.152,11.952,3.99,
50653320,-0.813,0.166,0.538,-3.762,12.477,1.872,
50653320,-0.836,0.181,0.541,-7.56,11.935,-1.575,
50653330,-0.851,0.172,0.526,-13.702,7.437,-5.18,
50653340,-0.828,0.147,0.502,-19.075,1.365,-8.47,
50653350,-0.788,0.13,0.499,-21.612,-0.245,-10.78,
50653360,-0.763,0.122,0.507,-22.19,1.12,-12.547,
50653370,-0.767,0.105,0.524,-20.685,5.547,-11.865,
50653380,-0.799,0.095,0.532,-18.62,10.132,-9.1,
50653390,-0.845,0.087,0.52,-17.902,12.95,-5.862,
50653400,-0.772,0.087,0.529,-17.097,17.535,-4.672,
50653410,-0.823,0.074,0.541,-12.477,27.177,-1.032,
50653420,-0.895,0.08,0.548,-9.747,33.74,1.522,
50653430,-0.954,0.099,0.571,-9.38,34.93,2.292,
50653440,-0.968,0.099,0.573,-8.925,32.672,3.01,
50653450,-1.038,0.124,0.603,-7.332,25.462,0.717,
50653460,-1.004,0.137,0.541,-16.502,11.427,-3.92,
50653470,-0.957,0.02,0.486,-11.585,-1.015,1.347,
50653480,-0.881,0.089,0.504,-2.765,-5.722,0.84,
50653490,-0.894,0.129,0.488,-4.217,-4.672,0.122,
50653500,-0.911,0.099,0.488,0.927,-2.835,-0.91,
50653510,-0.877,0.098,0.491,4.742,-1.75,-1.067,
50653520,-0.868,0.12,0.478,6.632,0.682,-0.035,
50653530,-0.907,0.122,0.48,9.1,3.92,2.205,
50653540,-0.925,0.115,0.481,11.287,3.797,3.64,
50653550,-0.887,0.121,0.475,15.015,2.817,3.517,
50653560,-0.858,0.14,0.485,17.867,5.722,3.377,
50653570,-0.87,0.15,0.491,17.937,10.412,4.847,
50653580,-0.886,0.143,0.483,17.692,13.632,7.087,
50653590,-0.861,0.155,0.487,18.672,16.992,7.017,
50653600,-0.865,0.16,0.476,18.007,20.895,7.682,
50653610,-0.882,0.157,0.479,17.202,23.852,6.195,
50653620,-0.976,0.157,0.487,14.927,20.352,7.017,
50653630,-0.929,0.145,0.464,12.232,11.462,3.832,
50653640,-0.874,0.15,0.475,14.315,6.545,0.647,
50653650,-0.885,0.15,0.459,13.055,2.467,0.787,
50653660,-0.881,0.144,0.448,12.722,-0.892,0.752,
50653670,-0.87,0.138,0.431,12.232,-2.8,1.785,
50653670,-0.847,0.14,0.42,12.39,-2.012,1.872,
50653690,-0.842,0.151,0.433,12.757,0.927,2.887,
50653690,-0.892,0.172,0.432,11.305,2.625,3.867,
50653710,-0.896,0.156,0.418,7.525,1.75,3.36,
50653710,-0.881,0.148,0.418,5.495,2.66,1.61,
50653730,-0.916,0.134,0.419,3.517,4.252,1.697,
50653730,-0.915,0.144,0.434,2.537,5.442,-0.07,
50653750,-0.949,0.158,0.452,2.135,3.99,-0.052,
50653750,-0.954,0.137,0.45,-1.645,0.052,-0.367,
50653760,-0.906,0.126,0.455,-1.505,-3.062,-2.31,
50653770,-0.906,0.13,0.459,0.35,-3.447,-1.522,
50653780,-0.903,0.138,0.457,-0.122,-3.622,-1.155,
50653790,-0.881,0.133,0.461,1.05,-2.94,0.227,
50653800,-0.875,0.132,0.461,2.765,-2.205,3.307,
50653810,-0.9,0.114,0.458,4.392,-1.452,7.56,
50653820,-0.906,0.103,0.458,8.662,-1.645,9.852,
50653830,-0.868,0.132,0.492,16.362,-1.137,8.61,
50653840,-0.889,0.161,0.523,18.48,0.245,10.92,
50653850,-0.913,0.171,0.511,15.627,-0.437,10.885,
50653860,-0.88,0.177,0.498,12.057,0.245,10.517,
50653870,-0.924,0.183,0.494,9.835,3.15,10.22,
50653880,-0.97,0.176,0.491,9.765,1.19,7.77,
50653890,-0.94,0.19,0.485,10.482,-5.145,3.22,
50653900,-0.925,0.199,0.477,9.345,-11.742,2.24,
50653910,-0.925,0.196,0.462,6.37,-18.217,2.205,
50653920,-0.904,0.193,0.448,3.937,-24.22,1.487,
50653930,-0.865,0.184,0.432,3.675,-27.457,0.875,
50653940,-0.855,0.196,0.437,4.672,-26.74,0.945,
50653950,-0.867,0.194,0.419,3.832,-25.935,1.89,
50653960,-0.857,0.179,0.421,5.565,-24.92,3.587,
50653970,-0.853,0.18,0.433,7.822,-22.995,6.247,
50653980,-0.849,0.195,0.454,8.435,-19.407,8.977,
50653990,-0.856,0.199,0.468,7.332,-14.175,10.132,
50654000,-0.904,0.199,0.475,4.235,-9.03,7.7,
50654010,-0.902,0.203,0.483,-1.12,-6.79,2.537,
50654010,-0.923,0.192,0.49,-4.252,-4.497,-0.49,
50654030,-0.968,0.186,0.491,-7.857,-7.507,-3.272,
50654030,-0.961,0.182,0.476,-11.112,-15.365,-6.125,
50654050,-0.941,0.166,0.464,-11.707,-25.252,-6.055,
50654050,-0.907,0.159,0.459,-10.482,-33.967,-4.357,
50654070,-0.849,0.147,0.457,-8.015,-40.635,-1.575,
50654070,-0.822,0.139,0.489,-2.922,-38.43,4.077,
50654080,-0.898,0.18,0.523,1.75,-35.682,7.98,
50654090,-0.838,0.206,0.512,-1.925,-36.54,3.937,
50654100,-0.771,0.169,0.495,-5.267,-32.515,0.63,
50654110,-0.774,0.15,0.502,-4.2,-23.467,1.4,
50654120,-0.792,0.174,0.509,-3.867,-15.855,1.645,
50654130,-0.81,0.184,0.509,-5.337,-10.377,0.7,
50654140,-0.794,0.181,0.501,-7.07,-5.845,-0.525,
50654150,-0.805,0.175,0.497,-8.715,-1.295,-0.787,
50654160,-0.822,0.148,0.488,-9.082,1.505,-0.822,
50654170,-0.838,0.155,0.51,-5.407,3.955,0.07,
50654180,-0.868,0.173,0.508,-3.5,2.73,1.225,
50654190,-0.863,0.168,0.504,-3.01,-0.542,1.225,
50654200,-0.852,0.167,0.512,-1.925,-4.182,1.61,
50654210,-0.874,0.152,0.504,-1.102,-8.872,3.692,
50654220,-0.853,0.163,0.517,1.837,-12.092,5.46,
50654230,-0.854,0.176,0.523,2.222,-14.402,6.405,
50654240,-0.858,0.161,0.52,2.992,-15.645,5.915,
50654250,-0.823,0.186,0.526,4.515,-14.997,2.642,
50654260,-0.816,0.182,0.53,3.132,-12.722,0.14,
50654270,-0.857,0.147,0.521,3.955,-11.077,2.485,
50654280,-0.818,0.145,0.517,7.087,-10.22,4.567,
50654290,-0.768,0.163,0.507,9.152,-6.615,7.052,
50654300,-0.764,0.173,0.508,9.607,1.802,8.837,
50654310,-0.836,0.167,0.517,10.185,9.31,8.732,
50654320,-0.851,0.166,0.507,9.905,12.057,7.49,
50654330,-0.855,0.169,0.493,9.292,12.267,7.385,
50654340,-0.843,0.162,0.485,8.312,11.585,6.265,
50654350,-0.834,0.162,0.478,9.66,10.815,5.337,
50654360,-0.842,0.183,0.476,11.27,9.152,6.107,
50654370,-0.825,0.208,0.477,11.007,6.772,7.175,
50654380,-0.851,0.217,0.495,9.747,4.357,7.98,
50654390,-0.861,0.205,0.485,7.297,-2.082,5.95,
50654400,-0.777,0.204,0.465,8.067,-5.74,4.585,
50654410,-0.773,0.227,0.478,10.727,-3.115,7.087,
50654420,-0.83,0.243,0.485,8.942,0.087,7.227,
50654420,-0.855,0.243,0.502,4.41,-0.472,2.642,
50654440,-0.805,0.207,0.507,1.207,-2.555,-1.277,
50654440,-0.766,0.198,0.512,2.345,-2.397,-1.365,
50654460,-0.787,0.201,0.517,4.182,0.017,0.577,
50654460,-0.761,0.2,0.508,5.46,4.392,1.032,
50654480,-0.776,0.203,0.499,6.667,12.197,2.152,
50654480,-0.818,0.205,0.482,7.7,19.057,2.782,
50654500,-0.843,0.2,0.472,9.152,24.097,2.765,
50654500,-0.869,0.205,0.473,10.43,24.272,3.325,
50654510,-0.881,0.224,0.478,10.535,22.435,4.585,
50654520,-0.87,0.258,0.497,9.8,19.005,5.075,
50654530,-0.942,0.242,0.464,4.55,15.312,13.177,
50654540,-0.935,0.225,0.475,7.997,8.942,14.367,
50654550,-0.888,0.27,0.479,5.162,5.88,7.717,
50654560,-0.888,0.264,0.471,-1.207,5.495,5.232,
50654570,-0.912,0.25,0.467,-4.585,6.072,5.897,
50654580,-0.932,0.249,0.475,-5.722,4.392,7.63,
50654590,-0.923,0.267,0.471,-6.422,1.96,6.037,
50654600,-0.899,0.239,0.46,-8.05,0.77,3.885,
50654610,-0.895,0.201,0.455,-6.3,0.84,2.852,
50654620,-0.864,0.178,0.456,-0.91,1.067,4.462,
50654630,-0.853,0.198,0.487,6.44,8.452,8.295,
50654640,-0.938,0.241,0.516,10.71,12.915,9.625,
50654650,-0.967,0.24,0.507,10.465,9.03,7.472,
50654660,-0.94,0.226,0.513,10.692,2.065,4.06,
50654670,-0.903,0.23,0.495,9.31,-6.3,1.365,
50654680,-0.838,0.243,0.487,6.807,-9.922,0.962,
50654690,-0.82,0.241,0.48,6.702,-8.137,2.625,
50654700,-0.844,0.225,0.462,3.762,-3.99,3.395,
50654710,-0.89,0.211,0.471,3.745,-2.397,3.307,
50654720,-0.884,0.208,0.469,6.615,-6.317,3.272,
50654730,-0.88,0.218,0.48,8.085,-10.08,4.025,
50654740,-0.869,0.23,0.479,7.595,-13.86,3.99,
50654750,-0.86,0.229,0.475,7.245,-16.922,4.06,
50654760,-0.848,0.216,0.477,6.86,-18.077,4.585,
50654760,-0.825,0.223,0.477,7.42,-17.08,6.492,
50654780,-0.831,0.238,0.48,7.63,-13.685,10.08,
50654780,-0.832,0.235,0.473,7.14,-9.52,11.865,
50654800,-0.829,0.249,0.481,7.595,-3.78,11.567,
50654800,-0.843,0.261,0.476,5.442,0.962,10.85,
50654820,-0.864,0.264,0.472,2.082,4.392,9.887,
50654820,-0.861,0.257,0.463,-0.42,4.76,9.292,
50654830,-0.85,0.249,0.453,-1.417,4.917,10.15,
50654840,-0.853,0.246,0.447,-0.735,4.585,11.69,
50654850,-0.85,0.245,0.446,1.155,4.462,12.495,
50654860,-0.843,0.256,0.457,3.43,3.885,13.405,
50654870,-0.893,0.263,0.46,3.202,3.727,14.735,
50654880,-0.868,0.276,0.458,2.642,1.4,14.122,
50654890,-0.858,0.268,0.459,2.695,1.47,14.227,
50654900,-0.869,0.268,0.462,2.1,1.207,12.25,
50654910,-0.854,0.274,0.463,1.662,-0.507,8.417,
50654920,-0.828,0.278,0.465,1.575,-1.522,5.95,
50654930,-0.823,0.279,0.469,0.787,-0.962,4.55,
50654940,-0.822,0.279,0.475,-1.172,-0.875,2.17,
50654950,-0.835,0.276,0.472,-3.36,-0.717,0.245,
50654960,-0.821,0.276,0.468,-4.322,-0.245,-0.77,
50654970,-0.822,0.268,0.467,-4.515,1.19,-0.49,
50654980,-0.841,0.261,0.468,-4.655,2.135,-0.472,
50654990,-0.862,0.261,0.464,-4.445,1.82,0.42,
50655000,-0.877,0.264,0.468,-4.445,0.385,2.187,
50655010,-0.894,0.265,0.465,-4.812,-1.82,2.695,
50655020,-0.899,0.258,0.465,-4.48,-3.867,1.242,
50655030,-0.879,0.257,0.462,-4.427,-5.46,-1.435,
50655040,-0.877,0.252,0.462,-2.765,-6.037,-1.452,
50655050,-0.881,0.251,0.466,-1.207,-6.282,1.505,
50655060,-0.883,0.252,0.463,-0.945,-7.175,3.465,
50655070,-0.886,0.257,0.464,-1.032,-8.382,3.307,
50655080,-0.879,0.263,0.463,-1.697,-10.447,2.31,
50655090,-0.854,0.26,0.457,-2.1,-12.285,2.117,
50655100,-0.831,0.257,0.455,-1.277,-12.232,2.52,
50655110,-0.823,0.267,0.459,-0.35,-10.675,2.485,
50655120,-0.825,0.277,0.466,-0.455,-8.277,2.257,
50655130,-0.838,0.272,0.468,-1.522,-6.755,1.89,
50655140,-0.843,0.27,0.464,-2.467,-5.915,1.102,
50655150,-0.843,0.27,0.462,-2.66,-5.827,0.42,
50655160,-0.848,0.269,0.467,-2.607,-5.635,0.035,
50655170,-0.865,0.265,0.472,-1.942,-6.58,-0.192,
50655170,-0.875,0.266,0.473,-1.015,-8.995,0.122,
50655190,-0.872,0.272,0.475,-0.297,-11.812,1.242,
50655190,-0.87,0.272,0.474,-0.157,-13.912,2.205,
50655210,-0.861,0.269,0.47,-0.262,-15.942,2.397,
50655210,-0.866,0.273,0.475,-0.21,-17.745,2.922,
50655230,-0.837,0.277,0.47,-0.927,-19.565,4.147,
50655230,-0.859,0.268,0.474,-0.892,-18.76,6.177,
50655250,-0.845,0.27,0.479,-0.875,-19.04,5.74,
50655250,-0.835,0.272,0.481,-0.787,-18.392,5.53,
50655260,-0.829,0.272,0.486,-0.875,-18.007,5.582,
50655270,-0.831,0.269,0.492,-0.857,-18.077,6.3,
50655280,-0.826,0.273,0.499,-0.262,-18.585,6.947,
50655290,-0.817,0.278,0.504,-0.157,-18.357,6.842,
50655300,-0.804,0.275,0.51,-0.332,-17.115,5.862,
50655310,-0.803,0.276,0.517,-0.385,-14.84,4.777,
50655320,-0.817,0.275,0.523,-0.42,-13.212,4.077,
50655330,-0.829,0.279,0.521,-0.542,-12.95,3.412,
50655340,-0.823,0.287,0.521,-1.067,-14.577,2.555,
50655350,-0.814,0.274,0.514,-1.68,-15.557,1.942,
50655360,-0.808,0.27,0.513,-1.47,-15.067,1.032,
50655370,-0.824,0.273,0.519,-0.507,-14.84,0.455,
50655380,-0.847,0.283,0.523,-0.175,-16.922,-0.07,
50655390,-0.85,0.277,0.52,-0.49,-20.807,1.015,
50655400,-0.854,0.266,0.521,-0.35,-25.742,2.712,
50655410,-0.791,0.252,0.503,1.137,-26.722,3.342,
50655420,-0.905,0.294,0.549,3.115,-24.465,1.89,
50655430,-0.812,0.308,0.483,-1.487,-37.887,-4.707,
50655440,-0.609,0.218,0.484,-2.415,-32.357,-0.07,
50655450,-0.751,0.237,0.521,3.902,-13.125,7.35,
50655460,-0.82,0.301,0.551,7.035,-0.892,3.92,
50655470,-0.851,0.307,0.581,4.847,3.36,-1.05,
50655480,-0.833,0.265,0.564,-0.087,0.682,-1.872,
50655490,-0.777,0.259,0.545,1.015,-2.327,0.385,
50655500,-0.772,0.276,0.539,3.43,-1.54,2.73,
50655510,-0.787,0.273,0.536,3.727,0.857,2.922,
50655510,-0.775,0.263,0.532,4.69,3.027,2.66,
50655530,-0.774,0.278,0.532,5.127,5.635,3.447,
50655530,-0.797,0.283,0.527,2.8,8.225,3.202,
50655550,-0.801,0.274,0.523,1.347,9.222,1.435,
50655550,-0.795,0.274,0.522,1.417,9.467,0.402,
50655570,-0.802,0.284,0.519,1.487,9.292,0.577,
50655570,-0.822,0.288,0.517,0.892,8.417,0.577,
50655580,-0.831,0.285,0.513,-0.052,5.74,-0.262,
50655590,-0.823,0.281,0.515,-1.137,2.642,-0.805,
50655600,-0.814,0.29,0.522,-1.277,0.245,-0.822,
50655610,-0.81,0.301,0.529,-2.73,-0.42,-1.19,
50655620,-0.81,0.299,0.535,-6.072,-0.315,-2.38,
50655630,-0.817,0.298,0.538,-6.807,2.555,-2.66,
50655640,-0.812,0.308,0.545,-6.825,5.092,-2.45,
50655650,-0.806,0.303,0.541,-8.102,9.082,-2.257,
50655660,-0.847,0.28,0.523,-8.715,11.585,-2.572,
50655670,-0.89,0.26,0.515,-8.54,8.89,-3.57,
50655680,-0.883,0.261,0.53,-6.16,-0.332,-2.222,
50655690,-0.852,0.269,0.536,-2.537,-10.692,3.5,
50655700,-0.796,0.292,0.534,-0.297,-16.73,8.767,
50655710,-0.754,0.306,0.534,-1.82,-15.75,9.852,
50655720,-0.755,0.291,0.523,-5.722,-10.08,7.945,
50655730,-0.737,0.278,0.505,-10.29,-2.835,5.215,
50655740,-0.736,0.265,0.48,-13.615,4.112,4.147,
50655750,-0.762,0.233,0.47,-15.347,9.222,4.34,
50655760,-0.794,0.211,0.482,-12.967,11.2,5.547,
50655770,-0.818,0.236,0.52,-9.467,10.377,6.755,
50655780,-0.797,0.266,0.546,-8.592,8.802,5.46,
50655790,-0.765,0.278,0.577,-8.802,11.095,3.307,
50655800,-0.765,0.283,0.593,-9.59,17.517,1.907,
50655810,-0.789,0.292,0.582,-11.007,24.447,-0.052,
50655820,-0.791,0.305,0.564,-11.585,30.24,-2.432,
50655830,-0.836,0.295,0.539,-11.725,31.955,-4.13,
50655840,-0.893,0.286,0.521,-10.64,28.105,-5.757,
50655850,-0.915,0.302,0.503,-8.067,18.777,-5.477,
50655860,-0.905,0.313,0.484,-6.002,8.312,-3.867,
50655870,-0.896,0.311,0.468,-3.937,-2.957,-2.52,
50655880,-0.808,0.309,0.456,-2.012,-11.585,-0.595,
50655890,-0.768,0.305,0.465,0.385,-8.015,4.935,
50655900,-0.877,0.296,0.455,-0.682,1.225,7.682,
50655910,-0.958,0.279,0.453,-5.495,1.102,5.862,
50655920,-0.918,0.268,0.465,-6.947,-6.947,9.677,
50655920,-0.885,0.25,0.449,-9.73,-15.592,17.045,
50655940,-0.885,0.202,0.423,-11.917,-23.485,18.567,
50655940,-0.816,0.193,0.427,-7.945,-28.84,16.782,
50655950,-0.766,0.215,0.457,-4.55,-26.53,16.38,
50655960,-0.776,0.226,0.496,-4.847,-20.072,13.825,
50655970,-0.74,0.24,0.529,-4.865,-11.515,7.28,
50655980,-0.706,0.235,0.537,-4.725,-1.365,0.63,
50655990,-0.753,0.228,0.542,-4.742,7.56,-3.342,
50656000,-0.758,0.257,0.543,-4.077,9.485,-5.617,
50656010,-0.775,0.291,0.541,-3.377,9.782,-4.2,
50656020,-0.85,0.274,0.51,-5.18,8.452,-2.415,
50656030,-0.898,0.266,0.501,-4.462,4.497,-1.05,
50656040,-0.9,0.273,0.494,-4.462,-0.997,1.12,
50656050,-0.888,0.245,0.477,-5.757,-5.635,2.905,
50656060,-0.91,0.235,0.471,-5.985,-12.425,4.602,
50656070,-0.893,0.253,0.477,-5.617,-20.3,8.207,
50656080,-0.851,0.261,0.478,-4.2,-26.075,11.672,
50656090,-0.797,0.29,0.498,-2.415,-26.74,11.812,
50656100,-0.767,0.318,0.527,-2.397,-21.542,8.277,
50656110,-0.77,0.323,0.55,-2.835,-13.982,4.795,
50656120,-0.776,0.319,0.559,-2.205,-8.277,2.625,
50656130,-0.737,0.337,0.564,-0.28,-3.097,0.98,
50656140,-0.759,0.322,0.552,-1.137,1.68,-0.63,
50656150,-0.8,0.285,0.532,-2.257,3.045,-1.645,
50656160,-0.831,0.266,0.529,-0.945,0.577,1.032,
50656170,-0.858,0.254,0.524,-0.892,-4.13,5.145,
50656180,-0.852,0.226,0.51,-1.522,-8.452,6.982,
50656190,-0.819,0.211,0.5,-0.525,-9.625,6.387,
50656200,-0.812,0.226,0.48,1.26,-8.365,4.952,
50656210,-0.838,0.246,0.469,1.82,-9.135,4.2,
50656220,-0.862,0.256,0.469,1.435,-12.442,5.057,
50656230,-0.897,0.274,0.502,1.855,-16.975,7.542,
50656240,-0.918,0.303,0.535,1.207,-22.96,8.4,
50656250,-0.887,0.315,0.57,0.525,-28.735,7.665,
50656260,-0.847,0.32,0.58,0.402,-31.552,7.192,
50656260,-0.79,0.322,0.585,0.245,-32.095,5.862,
50656280,-0.744,0.307,0.569,-0.577,-31.01,4.41,
50656280,-0.705,0.293,0.56,-0.315,-28.385,4.392,
50656300,-0.683,0.28,0.554,0.105,-23.537,4.532,
50656300,-0.681,0.257,0.545,0.577,-16.467,2.922,
50656320,-0.707,0.246,0.537,1.855,-9.677,1.382,
50656320,-0.756,0.25,0.526,2.712,-6.965,2.397,
50656330,-0.785,0.252,0.517,3.272,-6.632,4.462,
50656340,-0.822,0.264,0.514,4.655,-8.137,5.302,
50656350,-0.844,0.292,0.531,5.215,-11.042,6.125,
50656360,-0.875,0.309,0.555,4.865,-15.172,7.63,
50656370,-0.885,0.31,0.574,4.392,-19.915,7.857,
50656380,-0.86,0.317,0.581,3.972,-25.497,7.507,
50656390,-0.817,0.322,0.584,3.22,-28.525,7.017,
50656400,-0.782,0.308,0.594,2.187,-29.032,5.267,
50656410,-0.739,0.313,0.605,3.045,-27.632,3.342,
50656420,-0.708,0.324,0.606,4.077,-25.077,2.765,
50656430,-0.693,0.315,0.593,4.025,-21.91,2.87,
50656440,-0.689,0.299,0.579,4.707,-20.282,4.095,
50656450,-0.67,0.305,0.575,6.317,-17.867,5.25,
50656460,-0.691,0.315,0.586,6.772,-13.265,4.602,
50656470,-0.747,0.329,0.601,5.46,-8.977,3.71,
50656480,-0.789,0.318,0.611,2.922,-8.172,3.237,
50656490,-0.786,0.319,0.617,1.697,-9.1,2.817,
50656500,-0.825,0.328,0.601,0.787,-10.85,1.89,
50656510,-0.884,0.309,0.57,-2.135,-16.73,1.575,
50656520,-0.864,0.302,0.55,-2.625,-26.425,4.27,
50656530,-0.835,0.311,0.547,-1.82,-35.42,7.332,
50656540,-0.768,0.328,0.546,-2.1,-40.582,7.577,
50656550,-0.754,0.319,0.559,-3.22,-41.055,7.91,
50656560,-0.731,0.298,0.585,-4.235,-40.88,8.155,
50656570,-0.691,0.274,0.61,-2.975,-39.9,8.417,
50656580,-0.647,0.274,0.627,-1.557,-35.962,7.402,
50656590,-0.612,0.279,0.63,-0.332,-29.75,5.74,
50656600,-0.609,0.285,0.639,0.402,-22.05,3.99,
50656610,-0.627,0.298,0.653,0.157,-15.382,3.062,
50656620,-0.65,0.299,0.642,0.367,-9.047,2.555,
50656630,-0.64,0.309,0.64,1.592,-2.065,1.102,
50656640,-0.649,0.325,0.646,2.03,6.895,-0.98,
50656640,-0.667,0.329,0.647,1.452,14.857,-4.007,
50656660,-0.696,0.329,0.64,-0.332,18.585,-6.405,
50656660,-0.732,0.325,0.63,-2.73,17.57,-5.477,
50656670,-0.742,0.316,0.622,-4.007,15.417,-3.587,
50656680,-0.77,0.317,0.617,-3.552,13.58,-3.675,
50656690,-0.786,0.333,0.616,-3.99,10.885,-4.672,
50656700,-0.773,0.323,0.607,-4.847,6.177,-3.272,
50656710,-0.719,0.308,0.596,-5.267,2.922,-0.84,
50656720,-0.676,0.293,0.59,-5.302,3.062,-0.595,
50656730,-0.668,0.294,0.603,-5.95,5.932,-1.68,
50656740,-0.691,0.291,0.63,-7.087,8.907,-2.03,
50656750,-0.73,0.299,0.643,-7.665,10.867,-2.17,
50656760,-0.766,0.316,0.646,-7.805,11.025,-2.695,
50656770,-0.78,0.318,0.625,-7.7,10.57,-3.657,
50656780,-0.789,0.317,0.607,-6.79,9.782,-4.322,
50656790,-0.794,0.319,0.591,-6.212,9.275,-4.602,
50656800,-0.802,0.313,0.593,-6.72,7.962,-5.162,
50656810,-0.807,0.306,0.607,-7.7,5.827,-5.32,
50656820,-0.816,0.301,0.618,-8.627,2.31,-5.162,
50656830,-0.792,0.296,0.613,-8.855,-0.157,-6.177,
50656840,-0.785,0.297,0.608,-8.802,-2.485,-7.157,
50656850,-0.772,0.291,0.611,-9.257,-5.565,-6.352,
50656860,-0.758,0.292,0.608,-8.662,-8.82,-4.165,
50656870,-0.713,0.286,0.596,-8.155,-10.622,-3.85,
50656880,-0.662,0.28,0.6,-7.875,-8.277,-5.057,
50656890,-0.629,0.288,0.63,-7.927,-1.505,-6.615,
50656900,-0.587,0.295,0.665,-8.697,10.5,-9.975,
50656910,-0.563,0.286,0.677,-9.765,28.052,-15.61,
50656920,-0.551,0.268,0.659,-10.237,48.177,-21.437,
50656930,-0.607,0.244,0.624,-10.307,65.362,-25.112,
50656940,-0.691,0.25,0.621,-11.27,71.627,-24.885,
50656950,-0.976,0.149,0.461,-16.187,59.972,0.437,
50656960,-0.956,0.189,0.505,-0.875,35.297,6.125,
50656970,-0.938,0.241,0.523,4.655,15.347,4.34,
50656980,-0.922,0.231,0.565,6.965,6.685,10.132,
50656990,-0.925,0.243,0.595,9.835,7.21,14.577,
50657000,-0.973,0.32,0.549,15.645,8.907,9.222,
50657010,-0.887,0.27,0.471,12.075,-6.667,-1.557,
50657010,-0.687,0.157,0.322,10.657,-16.52,-0.98,
50657030,-0.52,0.254,0.407,19.582,-11.235,2.1,
50657030,-0.397,0.328,0.474,18.06,32.2,9.152,
50657050,-0.918,0.347,0.555,16.257,73.36,12.81,
50657050,-1.094,0.338,0.603,10.64,66.22,-2.222,
50657070,-1.113,0.313,0.668,2.765,37.38,-6.422,
50657070,-1.057,0.309,0.69,-2.712,6.002,-9.8,
50657080,-0.84,0.349,0.688,-3.062,-13.702,-17.745,
50657090,-0.719,0.277,0.637,-8.54,-19.232,-19.18,
50657100,-0.697,0.173,0.574,-7.647,-16.24,-14.227,
50657110,-0.671,0.167,0.55,4.515,-8.33,-3.832,
50657120,-0.674,0.208,0.537,15.015,1.855,5.932,
50657130,-0.692,0.226,0.521,20.597,14.157,9.432,
50657140,-0.744,0.197,0.502,26.95,23.432,11.567,
50657150,-0.743,0.222,0.51,35.157,31.902,15.995,
50657160,-0.716,0.261,0.511,40.88,40.197,16.397,
50657170,-0.729,0.272,0.517,44.38,51.345,17.482,
50657180,-0.779,0.281,0.53,46.025,61.162,20.037,
50657190,-0.828,0.262,0.524,46.322,66.412,25.34,
50657200,-0.812,0.288,0.516,46.69,69.195,27.65,
50657210,-0.84,0.305,0.508,46.515,70.997,28.56,
50657220,-0.875,0.295,0.465,44.397,69.632,28.7,
50657230,-0.914,0.281,0.452,47.145,64.732,29.12,
50657240,-0.908,0.283,0.425,49.472,56.997,30.817,
50657250,-0.872,0.311,0.429,53.427,49.385,28.192,
50657260,-0.848,0.335,0.419,55.842,44.362,28.087,
50657270,-0.849,0.339,0.423,56.805,41.422,31.115,
50657280,-0.835,0.356,0.393,53.042,40.425,35.017,
50657290,-0.823,0.362,0.364,53.095,41.492,35.612,
50657300,-0.831,0.383,0.358,55.877,44.975,34.44,
50657310,-0.85,0.413,0.346,55.142,46.795,32.76,
50657320,-0.874,0.422,0.321,53.007,45.867,32.602,
50657330,-0.886,0.428,0.301,51.345,42.227,31.902,
50657330,-0.899,0.441,0.287,49.297,37.625,30.117,
50657350,-0.898,0.458,0.267,47.11,31.097,26.88,
50657350,-0.914,0.454,0.257,46.025,23.012,23.975,
50657370,-0.908,0.464,0.24,42.962,13.055,22.33,
50657370,-0.892,0.472,0.244,40.582,4.62,20.685,
50657390,-0.879,0.493,0.255,37.852,-1.295,18.077,
50657390,-0.889,0.498,0.267,33.792,-4.935,15.4,
50657410,-0.888,0.486,0.25,28.84,-8.61,12.18,
50657410,-0.847,0.494,0.257,26.967,-10.675,7.105,
50657420,-0.847,0.462,0.23,26.827,-11.812,8.645,
50657430,-0.825,0.469,0.264,33.04,-11.637,11.287,
50657440,-0.824,0.492,0.249,31.202,-10.885,11.935,
50657450,-0.827,0.487,0.268,33.005,-8.487,10.85,
50657460,-0.857,0.481,0.278,33.512,-7.577,9.922,
50657470,-0.875,0.48,0.284,34.685,-8.4,9.73,
50657480,-0.892,0.483,0.292,36.75,-11.392,8.382,
50657490,-0.888,0.496,0.301,36.522,-15.54,4.252,
50657500,-0.891,0.481,0.308,36.155,-20.422,2.625,
50657510,-0.899,0.472,0.306,34.842,-25.742,2.432,
50657520,-0.896,0.47,0.301,35.385,-32.9,-1.295,
50657530,-0.876,0.477,0.305,37.205,-39.9,-4.69,
50657540,-0.864,0.479,0.292,36.435,-46.112,-6.23,
50657550,-0.838,0.48,0.273,34.947,-51.485,-8.207,
50657560,-0.825,0.485,0.262,33.722,-55.632,-10.272,
50657570,-0.836,0.483,0.248,32.322,-60.112,-11.777,
50657580,-0.835,0.522,0.237,31.727,-64.452,-14.35,
50657590,-0.804,0.57,0.238,30.1,-67.55,-15.47,
50657600,-0.775,0.592,0.239,26.267,-67.27,-14.367,
50657610,-0.757,0.608,0.251,21.262,-62.597,-14.157,
50657620,-0.751,0.592,0.271,15.575,-53.707,-16.1,
50657630,-0.718,0.548,0.262,7.665,-41.965,-20.457,
50657640,-0.702,0.47,0.238,1.242,-28.997,-18.83,
50657650,-0.696,0.461,0.235,-1.137,-15.732,-14.28,
50657660,-0.73,0.456,0.214,-2.59,-2.607,-7.35,
50657670,-0.779,0.465,0.206,-0.997,8.277,-2.957,
50657680,-0.834,0.489,0.211,-0.21,15.47,-2.187,
50657690,-0.868,0.504,0.217,1.365,18.567,-1.872,
50657700,-0.881,0.511,0.244,4.235,19.302,-0.665,
50657710,-0.881,0.523,0.262,3.797,18.532,-0.035,
50657720,-0.834,0.513,0.259,2.782,20.16,-1.155,
50657730,-0.782,0.502,0.265,4.305,27.142,-1.452,
50657740,-0.763,0.496,0.276,4.042,39.41,0.157,
50657750,-0.783,0.488,0.287,3.272,50.977,1.225,
50657760,-0.828,0.474,0.296,1.767,58.432,3.132,
50657760,-0.887,0.436,0.292,3.955,57.61,6.545,
50657780,-0.911,0.443,0.304,7.805,50.767,6.702,
50657780,-0.916,0.449,0.301,8.767,39.515,6.702,
50657800,-0.901,0.451,0.296,8.75,26.897,5.722,
50657800,-0.881,0.449,0.284,7.875,14.402,4.637,
50657820,-0.858,0.448,0.269,6.317,4.427,4.165,
50657820,-0.837,0.46,0.263,4.515,-2.66,3.675,
50657830,-0.83,0.472,0.256,2.502,-5.95,2.8,
50657840,-0.837,0.48,0.257,0.542,-7.367,1.4,
50657850,-0.849,0.488,0.262,-2.117,-7.455,0.21,
50657860,-0.861,0.496,0.266,-4.952,-7.192,-0.595,
50657870,-0.872,0.499,0.268,-7.542,-7.192,-1.225,
50657880,-0.87,0.497,0.272,-9.065,-8.12,-1.855,
50657890,-0.853,0.493,0.276,-9.45,-8.435,-1.4,
50657900,-0.843,0.492,0.279,-8.487,-7.717,-0.105,
50657910,-0.853,0.483,0.275,-6.79,-6.632,1.225,
50657920,-0.849,0.474,0.273,-3.885,-5.757,2.187,
50657930,-0.83,0.473,0.271,0.07,-4.357,2.957,
50657940,-0.813,0.475,0.275,3.867,-1.872,3.447,
50657950,-0.811,0.478,0.289,6.685,0.997,3.64,
50657960,-0.824,0.484,0.293,8.312,2.327,4.025,
50657970,-0.826,0.491,0.289,9.117,2.1,4.707,
50657980,-0.828,0.487,0.283,8.715,1.05,5.267,
50657990,-0.832,0.479,0.275,8.347,-0.525,4.445,
50658000,-0.84,0.478,0.276,8.295,-1.75,4.182,
50658010,-0.833,0.48,0.271,7.28,-3.412,3.36,
50658020,-0.819,0.48,0.255,6.422,-3.465,2.327,
50658030,-0.809,0.474,0.251,6.475,-0.77,1.855,
50658040,-0.815,0.481,0.243,5.32,4.375,2.537,
50658050,-0.82,0.486,0.235,4.83,8.855,1.767,
50658060,-0.84,0.487,0.234,5.67,12.215,1.662,
50658070,-0.855,0.494,0.231,6.387,13.44,1.907,
50658080,-0.878,0.5,0.238,6.58,13.282,4.077,
50658080,-0.876,0.519,0.222,4.445,10.92,4.672,
50658100,-0.858,0.517,0.216,5.162,9.117,3.57,
50658100,-0.848,0.51,0.212,6.125,8.662,3.675,
50658120,-0.842,0.509,0.202,5.46,9.782,3.745,
50658120,-0.849,0.506,0.198,5.215,11.147,3.92,
50658140,-0.862,0.506,0.196,5.425,12.512,3.972,
50658140,-0.87,0.512,0.195,5.88,12.267,3.29,
50658160,-0.874,0.513,0.194,6.072,11.252,2.572,
50658160,-0.864,0.511,0.189,5.582,9.397,1.347,
50658170,-0.859,0.508,0.192,4.567,8.05,1.207,
50658180,-0.869,0.505,0.188,1.96,6.23,2.94,
50658190,-0.865,0.507,0.182,0.07,4.655,2.782,
50658200,-0.86,0.507,0.189,-0.07,3.657,1.96,
50658210,-0.864,0.503,0.192,-1.4,3.062,1.732,
50658220,-0.858,0.502,0.188,-3.395,1.977,1.015,
50658230,-0.856,0.497,0.186,-4.357,1.4,0.857,
50658240,-0.856,0.498,0.188,-4.602,0.892,0.77,
50658250,-0.858,0.503,0.194,-5.145,0.367,0.525,
50658260,-0.861,0.505,0.2,-5.932,-0.717,0.017,
50658270,-0.863,0.506,0.206,-6.755,-2.275,-0.682,
50658280,-0.863,0.507,0.212,-7.875,-4.585,-1.26,
50658290,-0.858,0.505,0.216,-9.047,-6.947,-1.82,
50658300,-0.848,0.502,0.217,-10.167,-8.732,-2.415,
50658310,-0.846,0.498,0.215,-11.27,-9.66,-2.782,
50658320,-0.847,0.492,0.216,-12.127,-10.01,-3.36,
50658330,-0.85,0.49,0.216,-12.46,-10.377,-3.71,
50658340,-0.851,0.491,0.22,-12.32,-10.342,-3.57,
50658350,-0.853,0.496,0.224,-11.742,-10.29,-3.22,
50658360,-0.851,0.498,0.23,-11.567,-9.87,-3.01,
50658370,-0.847,0.497,0.23,-11.427,-9.345,-3.027,
50658380,-0.841,0.49,0.232,-11.252,-8.155,-2.957,
50658390,-0.841,0.485,0.231,-11.252,-7.297,-2.922,
50658400,-0.843,0.479,0.232,-11.462,-6.212,-2.747,
50658410,-0.848,0.476,0.234,-11.322,-5.897,-2.835,
50658420,-0.853,0.476,0.238,-11.27,-5.827,-2.922,
50658430,-0.852,0.48,0.242,-11.147,-6.562,-3.237,
50658440,-0.856,0.481,0.237,-11.725,-7.227,-3.465,
50658450,-0.851,0.48,0.24,-12.302,-8.19,-3.99,
50658460,-0.857,0.481,0.24,-13.142,-8.697,-4.095,
50658470,-0.856,0.482,0.243,-13.982,-9.327,-4.41,
50658480,-0.86,0.481,0.24,-14.927,-9.852,-4.62,
50658490,-0.858,0.477,0.251,-15.575,-10.78,-4.847,
50658500,-0.864,0.467,0.245,-15.242,-11.725,-4.48,
50658510,-0.861,0.46,0.251,-13.72,-12.635,-3.78,
50658510,-0.846,0.46,0.258,-12.057,-12.687,-3.045,
50658530,-0.844,0.46,0.254,-10.587,-12.04,-2.397,
50658530,-0.844,0.464,0.266,-9.065,-10.115,-2.31,
50658550,-0.846,0.462,0.267,-7.84,-8.995,-2.362,
50658550,-0.834,0.462,0.272,-6.51,-7.49,-2.257,
50658570,-0.83,0.467,0.276,-5.495,-6.58,-1.662,
50658570,-0.836,0.471,0.28,-5.162,-5.495,-0.857,
50658580,-0.842,0.476,0.282,-5.425,-5.005,-0.402,
50658590,-0.848,0.478,0.283,-6.37,-4.725,-0.367,
50658600,-0.848,0.474,0.28,-7.612,-4.83,-0.577,
50658610,-0.845,0.468,0.274,-8.61,-5.075,-0.525,
50658620,-0.84,0.462,0.266,-8.977,-5.145,-0.087,
50658630,-0.839,0.46,0.264,-8.487,-3.937,0.35,
50658640,-0.85,0.462,0.271,-7.367,-2.415,0.91,
50658650,-0.853,0.464,0.273,-6.632,-1.627,1.365,
50658660,-0.838,0.467,0.278,-6.72,-0.997,1.487,
50658670,-0.845,0.465,0.271,-6.86,0.297,2.03,
50658680,-0.852,0.468,0.27,-5.81,2.1,2.152,
50658690,-0.865,0.469,0.266,-4.742,2.31,2.397,
50658700,-0.864,0.465,0.26,-3.99,1.207,2.467,
50658710,-0.85,0.46,0.25,-2.765,0.017,2.135,
50658720,-0.843,0.458,0.246,-1.47,-0.052,2.152,
50658730,-0.852,0.47,0.248,-0.56,-0.035,2.117,
50658740,-0.868,0.481,0.254,-0.455,-0.105,1.347,
50658750,-0.874,0.482,0.256,-1.295,-1.295,-0.192,
50658760,-0.866,0.476,0.253,-2.327,-2.397,-1.452,
50658770,-0.854,0.469,0.253,-2.485,-3.412,-2.012,
50658780,-0.844,0.466,0.258,-2.642,-3.08,-1.697,
50658790,-0.852,0.471,0.266,-3.377,-2.502,-1.155,
50658800,-0.867,0.476,0.277,-4.55,-2.03,-0.91,
50658810,-0.873,0.474,0.285,-5.967,-3.062,-1.312,
50658820,-0.858,0.464,0.285,-7.402,-4.06,-1.487,
50658830,-0.833,0.455,0.279,-7.98,-5.162,-0.98,
50658830,-0.826,0.452,0.283,-8.015,-4.917,0.35,
50658850,-0.84,0.452,0.285,-7.927,-3.92,1.172,
50658850,-0.849,0.457,0.293,-7.525,-2.17,1.032,
50658870,-0.856,0.455,0.295,-7.35,-1.715,0.525,
50658870,-0.852,0.447,0.284,-6.79,-1.68,0.437,
50658890,-0.843,0.44,0.275,-5.127,-1.75,1.12,
50658890,-0.842,0.442,0.272,-2.852,-0.49,2.327,
50658910,-0.848,0.454,0.273,-0.857,0.962,3.08,
50658910,-0.86,0.465,0.274,0.192,2.082,3.237,
50658920,-0.861,0.467,0.27,0.297,2.152,2.695,
50658930,-0.853,0.465,0.261,0.017,1.837,2.397,
50658940,-0.852,0.464,0.255,-0.087,1.417,2.555,
50658950,-0.854,0.47,0.253,-0.052,1.732,2.642,
50658960,-0.856,0.474,0.254,-0.42,2.467,2.362,
50658970,-0.865,0.472,0.247,-1.102,3.43,1.925,
50658980,-0.87,0.467,0.242,-1.627,4.2,1.417,
50658990,-0.863,0.468,0.239,-1.872,4.917,1.26,
50659000,-0.861,0.476,0.235,-2.45,5.407,1.785,
50659010,-0.87,0.481,0.235,-3.342,5.88,2.31,
50659020,-0.873,0.488,0.232,-4.34,6.44,2.275,
50659030,-0.872,0.494,0.238,-5.932,6.632,1.995,
50659040,-0.869,0.497,0.228,-8.627,6.387,1.61,
50659050,-0.883,0.479,0.24,-10.237,6.16,3.92,
50659060,-0.868,0.49,0.226,-13.685,5.897,4.357,
50659070,-0.861,0.486,0.233,-13.02,5.215,1.732,
50659080,-0.872,0.476,0.244,-13.422,4.41,1.015,
50659090,-0.874,0.469,0.243,-14.77,1.4,-0.49,
50659100,-0.878,0.465,0.26,-14.63,-2.502,-1.347,
50659110,-0.878,0.462,0.261,-16.397,-7.332,-2.205,
50659120,-0.869,0.454,0.271,-17.167,-11.392,-3.307,
50659130,-0.851,0.452,0.277,-17.972,-13.965,-4.41,
50659140,-0.838,0.448,0.277,-18.76,-14.35,-5.407,
50659150,-0.839,0.44,0.289,-17.815,-14,-5.18,
50659160,-0.837,0.447,0.301,-18.515,-13.037,-5.127,
50659170,-0.846,0.434,0.299,-20.387,-12.635,-4.532,
50659180,-0.843,0.424,0.297,-20.545,-12.022,-4.48,
50659190,-0.846,0.417,0.302,-18.567,-11.69,-3.815,
50659200,-0.853,0.416,0.297,-15.96,-10.097,-2.17,
50659210,-0.847,0.424,0.301,-14.14,-8.767,-1.872,
50659220,-0.85,0.426,0.286,-12.652,-7.28,-1.54,
50659230,-0.853,0.421,0.277,-9.817,-6.002,-1.155,
50659240,-0.862,0.431,0.27,-7.07,-5.11,-0.735,
50659250,-0.876,0.442,0.27,-4.742,-5.425,-0.35,
50659260,-0.886,0.45,0.271,-3.57,-6.317,-0.192,
50659260,-0.882,0.454,0.264,-3.57,-7.822,-0.122,
50659280,-0.871,0.457,0.256,-4.077,-8.435,0.175,
50659280,-0.866,0.461,0.25,-5.407,-8.715,0.35,
50659300,-0.865,0.466,0.244,-7.245,-8.382,-0.052,
50659300,-0.868,0.466,0.24,-9.45,-8.4,-1.015,
50659320,-0.864,0.471,0.245,-11.707,-8.522,-2.082,
50659320,-0.863,0.476,0.245,-14.472,-9.205,-2.782,
50659330,-0.876,0.478,0.257,-18.9,-10.955,-3.867,
50659340,-0.876,0.481,0.263,-24.832,-13.86,-6.265,
50659350,-0.86,0.475,0.262,-31.202,-16.205,-9.065,
50659360,-0.858,0.466,0.275,-36.855,-17.29,-11.602,
50659370,-0.889,0.438,0.282,-41.667,-18.672,-12.565,
50659380,-0.888,0.427,0.286,-45.5,-21.21,-16.852,
50659390,-0.877,0.421,0.31,-45.955,-23.695,-20.667,
50659400,-0.843,0.427,0.339,-45.762,-25.13,-24.185,
50659410,-0.843,0.414,0.353,-47.355,-25.602,-22.925,
50659420,-0.799,0.417,0.376,-47.687,-24.832,-25.252,
50659430,-0.789,0.416,0.393,-48.632,-22.137,-28.49,
50659440,-0.796,0.404,0.396,-51.012,-19.652,-33.162,
50659450,-0.811,0.376,0.404,-51.642,-19.075,-37.607,
50659460,-0.805,0.375,0.418,-52.972,-19.565,-41.562,
50659470,-0.804,0.349,0.394,-53.812,-21.945,-42.63,
50659480,-0.795,0.345,0.402,-54.215,-25.952,-39.602,
50659490,-0.791,0.276,0.406,-41.632,-30.135,-35.612,
50659500,-0.784,0.339,0.467,-32.76,-29.312,-35.77,
50659510,-0.775,0.396,0.496,-38.92,-27.597,-38.115,
50659520,-0.811,0.376,0.497,-48.16,-23.31,-38.517,
50659530,-0.852,0.346,0.492,-53.042,-20.492,-40.827,
50659540,-0.859,0.346,0.479,-58.065,-20.632,-44.852,
50659550,-0.844,0.316,0.465,-62.51,-24.29,-46.445,
50659560,-0.84,0.267,0.45,-64.032,-28.875,-44.275,
50659570,-0.831,0.221,0.438,-59.622,-33.53,-39.445,
50659580,-0.8,0.229,0.461,-54.6,-32.812,-36.435,
50659580,-0.827,0.214,0.472,-50.365,-27.317,-30.59,
50659600,-0.836,0.206,0.483,-46.217,-19.075,-27.44,
50659600,-0.883,0.187,0.467,-43.19,-12.442,-25.812,
50659620,-0.923,0.151,0.455,-36.54,-8.487,-21.315,
50659620,-0.889,0.178,0.455,-29.382,-6.58,-21.49,
50659640,-0.878,0.174,0.456,-22.19,-3.447,-19.617,
50659640,-0.899,0.148,0.455,-15.382,-0.297,-14.857,
50659660,-0.88,0.156,0.466,-7.91,1.995,-11.357,
50659660,-0.857,0.177,0.503,-1.715,4.602,-8.225,
50659670,-0.845,0.185,0.511,1.435,8.47,-3.342,
50659680,-0.855,0.196,0.511,1.155,13.247,-1.207,
50659690,-0.872,0.2,0.49,-1.4,16.922,-1.032,
50659700,-0.872,0.19,0.475,-2.502,18.06,-1.05,
50659710,-0.872,0.18,0.461,-2.555,16.94,-0.472,
50659720,-0.889,0.186,0.457,-2.52,14.542,-0.192,
50659730,-0.92,0.188,0.457,-2.205,9.397,-0.927,
50659740,-0.95,0.164,0.468,-0.542,1.575,-2.222,
50659750,-0.946,0.157,0.453,3.15,-8.942,-4.252,
50659760,-0.896,0.156,0.457,6.58,-17.447,-5.897,
50659770,-0.862,0.141,0.473,9.87,-21.192,-6.282,
50659780,-0.815,0.14,0.5,14.227,-17.255,-3.167,
50659790,-0.853,0.153,0.518,16.817,-7.84,1.102,
50659800,-0.89,0.185,0.529,16.135,-2.222,2.065,
50659810,-0.873,0.187,0.509,13.475,-0.297,3.167,
50659820,-0.864,0.19,0.496,10.097,0.105,4.795,
50659830,-0.846,0.185,0.471,6.702,-0.367,6.737,
50659840,-0.861,0.176,0.47,4.252,0.14,9.38,
50659850,-0.875,0.184,0.466,2.975,-2.485,10.132,
50659860,-0.854,0.203,0.473,2.222,-5.512,9.59,
50659870,-0.809,0.212,0.476,0.612,-6.562,8.575,
50659880,-0.828,0.218,0.482,-1.295,-4.812,8.347,
50659890,-0.833,0.218,0.479,-1.977,-3.552,7.507,
50659900,-0.844,0.225,0.478,-3.08,-0.98,7.455,
50659910,-0.863,0.221,0.465,-5.302,1.225,7.087,
50659920,-0.889,0.214,0.461,-5.705,2.205,6.825,
50659930,-0.902,0.218,0.463,-4.06,0.525,6.422,
50659940,-0.901,0.223,0.469,-2.012,-1.645,6.02,
50659950,-0.886,0.224,0.452,-0.21,-2.695,5.495,
50659960,-0.898,0.22,0.443,0.735,-2.152,5.005,
50659970,-0.906,0.226,0.429,1.767,-3.675,3.92,
50659980,-0.883,0.231,0.425,4.182,-4.305,2.922,
50659990,-0.869,0.24,0.436,4.707,-4.147,1.697,
50660000,-0.873,0.233,0.435,2.975,-3.447,0.332,
50660010,-0.857,0.22,0.442,2.87,-2.205,-0.63,
50660010,-0.87,0.226,0.457,4.2,-0.42,-0.07,
50660030,-0.887,0.229,0.46,3.08,-1.225,-0.122,
50660030,-0.876,0.217,0.465,1.907,-2.87,-1.19,
50660040,-0.855,0.207,0.47,2.257,-3.377,-1.26,
50660050,-0.858,0.213,0.481,2.747,-2.485,-0.315,
50660060,-0.862,0.215,0.482,3.202,-1.907,0.297,
50660070,-0.855,0.211,0.479,3.395,-1.82,0.717,
50660080,-0.862,0.209,0.468,3.447,-2.205,1.382,
50660090,-0.852,0.207,0.452,4.165,-2.467,2.03,
50660100,-0.868,0.215,0.446,5.232,-3.395,2.397,
50660110,-0.873,0.229,0.441,5.302,-7.91,1.995,
50660120,-0.89,0.242,0.437,5.285,-11.672,1.627,
50660130,-0.949,0.271,0.464,3.99,-18.812,-0.455,
50660140,-0.903,0.253,0.456,-0.227,-28.997,-4.62,
50660150,-0.759,0.23,0.453,-1.61,-26.67,-6.055,
50660160,-0.813,0.24,0.465,-0.857,-12.617,-1.942,
50660170,-0.875,0.248,0.48,-2.327,-1.015,-0.052,
50660180,-0.914,0.22,0.494,-1.26,5.512,-0.227,
50660190,-0.926,0.204,0.494,0.875,4.672,-1.19,
50660200,-0.876,0.201,0.484,3.622,1.347,-1.732,
50660210,-0.876,0.209,0.473,4.742,-2.502,-1.802,
50660220,-0.86,0.208,0.465,5.827,-7.787,-1.925,
50660230,-0.785,0.219,0.462,8.522,-9.415,-0.962,
50660240,-0.777,0.235,0.457,7.945,-4.707,0.647,
50660250,-0.824,0.242,0.454,5.215,1.68,1.33,
50660260,-0.875,0.247,0.449,4.217,5.967,1.662,
50660270,-0.863,0.251,0.446,3.43,6.895,0.752,
50660280,-0.864,0.244,0.453,1.732,8.54,-0.07,
50660290,-0.94,0.236,0.461,-0.7,6.422,-1.312,
50660300,-0.906,0.237,0.451,-1.837,-0.07,-3.43,
50660310,-0.829,0.224,0.455,-0.857,-2.047,-3.99,
50660320,-0.86,0.218,0.457,-0.455,0.087,-2.957,
50660330,-0.885,0.215,0.464,1.662,0.175,-1.785,
50660330,-0.886,0.222,0.47,4.707,-3.132,-1.102,
50660350,-0.848,0.232,0.468,6.86,-5.915,-0.577,
50660350,-0.843,0.24,0.467,7.07,-5.32,0.28,
50660370,-0.872,0.237,0.462,6.125,-3.937,0.63,
50660370,-0.877,0.233,0.454,5.757,-3.832,0.157,
50660390,-0.873,0.228,0.459,5.512,-4.55,-0.455,
50660390,-0.884,0.228,0.463,5.32,-5.967,-1.102,
50660410,-0.869,0.233,0.468,5.04,-8.05,-1.732,
50660410,-0.855,0.237,0.485,3.902,-8.522,-1.82,
50660420,-0.857,0.23,0.483,1.96,-7.315,-1.592,
50660430,-0.859,0.223,0.484,0.472,-5.617,-1.015,
50660440,-0.863,0.223,0.486,-0.437,-5.267,-0.07,
50660450,-0.861,0.224,0.484,-1.05,-5.075,0.56,
50660460,-0.853,0.218,0.48,-1.907,-4.41,0.595,
50660470,-0.844,0.217,0.477,-2.117,-3.745,1.05,
50660480,-0.838,0.226,0.478,-1.575,-2.66,2.187,
50660490,-0.839,0.235,0.476,-1.767,-0.735,3.15,
50660500,-0.875,0.222,0.459,-2.677,0.612,3.797,
50660510,-0.877,0.225,0.452,-2.24,0.192,3.605,
50660520,-0.892,0.231,0.453,-2.012,-0.945,3.342,
50660530,-0.882,0.242,0.449,-2.45,-2.17,1.855,
50660540,-0.88,0.222,0.447,-3.342,-1.977,0.857,
50660550,-0.873,0.202,0.453,-3.955,-1.365,-0.21,
50660560,-0.886,0.213,0.473,-1.767,-1.47,0.42,
50660570,-0.857,0.214,0.477,-1.522,-3.167,0.385,
50660580,-0.837,0.198,0.466,-2.17,-2.87,0.385,
50660590,-0.848,0.201,0.459,-0.892,-1.715,1.802,
50660600,-0.863,0.223,0.469,0.525,-0.63,2.992,
50660610,-0.868,0.236,0.465,0.07,-0.315,2.66,
50660620,-0.874,0.225,0.455,-1.435,-0.28,1.767,
50660630,-0.881,0.217,0.45,-1.085,-1.977,1.172,
50660640,-0.877,0.231,0.461,1.382,-4.042,1.312,
50660650,-0.859,0.245,0.475,2.292,-5.25,0.752,
50660660,-0.854,0.237,0.474,1.47,-3.447,0.175,
50660670,-0.882,0.231,0.465,0.525,-3.027,0,
50660680,-0.884,0.24,0.469,0.49,-4.865,-0.28,
50660690,-0.858,0.242,0.476,0.577,-7.192,-0.472,
50660700,-0.848,0.236,0.477,-0.612,-6.667,-0.612,
50660710,-0.861,0.235,0.473,-1.715,-5.74,-0.035,
50660710,-0.858,0.238,0.474,-2.205,-5.092,0.385,
50660730,-0.859,0.23,0.471,-2.817,-4.55,0.402,
50660730,-0.867,0.221,0.465,-2.695,-3.675,0.542,
50660750,-0.865,0.226,0.463,-1.592,-2.922,0.91,
50660750,-0.87,0.236,0.465,-1.522,-2.292,0.84,
50660760,-0.877,0.233,0.462,-2.24,-2.712,0.262,
50660770,-0.878,0.225,0.462,-2.52,-3.832,-0.245,
50660780,-0.872,0.224,0.465,-1.89,-5.337,-0.385,
50660790,-0.859,0.231,0.464,-1.802,-5.897,-0.682,
50660800,-0.852,0.233,0.467,-2.485,-5.617,-0.84,
50660810,-0.849,0.226,0.468,-3.132,-4.97,-0.647,
50660820,-0.854,0.221,0.475,-3.08,-4.41,-0.087,
50660830,-0.86,0.223,0.477,-2.73,-4.217,0.437,
50660840,-0.858,0.229,0.477,-2.52,-3.832,0.507,
50660850,-0.854,0.23,0.476,-2.45,-3.255,0.525,
50660860,-0.85,0.233,0.473,-2.52,-2.362,0.647,
50660870,-0.856,0.233,0.469,-2.537,-1.522,0.875,
50660880,-0.868,0.228,0.467,-2.607,-1.382,0.857,
50660890,-0.865,0.225,0.467,-2.362,-2.065,0.77,
50660900,-0.858,0.226,0.464,-2.292,-2.187,0.892,
50660910,-0.854,0.226,0.465,-2.73,-2.1,0.962,
50660920,-0.864,0.214,0.465,-3.062,-1.417,1.05,
50660930,-0.866,0.206,0.468,-2.642,-1.855,0.875,
50660940,-0.869,0.204,0.466,-1.435,-2.17,1.05,
50660950,-0.862,0.206,0.465,0.14,-2.1,1.172,
50660960,-0.856,0.216,0.468,1.015,-0.735,1.172,
50660970,-0.875,0.221,0.457,0.875,-1.33,1.085,
50660980,-0.868,0.231,0.464,1.19,-2.31,0.752,
50660990,-0.87,0.235,0.469,1.12,-3.01,0.437,
50661000,-0.878,0.235,0.455,0.49,-3.01,-0.245,
50661010,-0.905,0.228,0.465,1.032,-5.32,-1.435,
50661020,-0.847,0.255,0.489,3.517,-6.79,-2.03,
50661030,-0.847,0.251,0.49,2.275,-5.53,-1.4,
50661040,-0.863,0.231,0.477,-1.102,-4.497,-1.75,
50661050,-0.86,0.222,0.489,-0.157,-5.057,0.052,
50661060,-0.843,0.232,0.495,-0.735,-4.62,1.435,
50661070,-0.847,0.224,0.493,-2.275,-3.92,1.802,
50661080,-0.842,0.213,0.482,-2.38,-3.08,2.205,
50661080,-0.835,0.216,0.48,-1.435,-2.975,2.537,
50661100,-0.852,0.232,0.475,-1.05,-2.712,3.027,
50661100,-0.824,0.227,0.462,-2.1,-2.817,2.887,
50661120,-0.858,0.214,0.454,-2.642,0.315,3.57,
50661120,-0.924,0.234,0.449,-2.135,0.052,3.972,
50661140,-0.895,0.247,0.461,-0.927,-3.097,1.995,
50661140,-0.86,0.247,0.468,-0.822,-4.13,0.367,
50661160,-0.854,0.238,0.456,-1.715,-1.89,0.07,
50661160,-0.867,0.22,0.464,-2.24,-0.717,0.49,
50661170,-0.859,0.211,0.466,-1.855,-1.435,0.822,
50661180,-0.846,0.233,0.48,-1.015,-2.607,1.417,
50661190,-0.845,0.224,0.488,-2.38,-2.59,1.575,
50661200,-0.844,0.211,0.481,-3.692,-1.277,2.187,
50661210,-0.848,0.221,0.483,-3.325,-0.84,4.112,
50661220,-0.844,0.227,0.481,-3.08,-0.35,4.392,
50661230,-0.851,0.215,0.474,-3.99,0.577,3.902,
50661240,-0.864,0.211,0.472,-3.902,1.277,3.395,
50661250,-0.887,0.219,0.479,-2.642,0.437,3.272,
50661260,-0.873,0.233,0.469,-1.855,-0.892,2.747,
50661270,-0.869,0.234,0.457,-1.662,-1.382,2.292,
50661280,-0.87,0.235,0.454,-1.662,-1.015,1.732,
50661290,-0.874,0.238,0.458,-1.19,-1.19,1.172,
50661300,-0.868,0.242,0.464,-1.137,-1.277,0.647,
50661310,-0.869,0.233,0.463,-1.802,-1.417,-0.087,
50661320,-0.866,0.223,0.469,-1.942,-1.662,-0.28,
50661330,-0.855,0.23,0.478,-0.962,-2.52,0.21,
50661340,-0.861,0.235,0.479,-0.647,-2.135,0.822,
50661350,-0.856,0.236,0.48,-1.155,-2.572,0.542,
50661360,-0.848,0.231,0.479,-1.19,-1.697,0.91,
50661370,-0.855,0.231,0.476,-1.522,-0.507,1.312,
50661380,-0.86,0.229,0.467,-2.327,0.367,1.347,
50661390,-0.856,0.223,0.463,-2.135,0.052,1.155,
50661400,-0.855,0.225,0.464,-1.662,0.402,1.295,
50661410,-0.855,0.232,0.462,-1.365,0.7,1.575,
50661420,-0.859,0.23,0.466,-1.592,1.592,1.96,
50661420,-0.869,0.216,0.465,-2.187,2.45,2.03,
50661440,-0.889,0.224,0.446,-2.065,1.662,1.662,
50661440,-0.895,0.253,0.443,-1.662,-2.31,0.84,
50661460,-0.835,0.208,0.473,-2.467,-3.552,-0.577,
50661460,-0.849,0.196,0.485,-1.032,0.28,-0.682,
50661480,-0.906,0.229,0.475,-1.33,-0.63,1.172,
50661480,-0.858,0.24,0.485,-0.385,-3.167,0.227,
50661500,-0.858,0.226,0.472,-2.275,-2.572,-0.507,
50661500,-0.879,0.219,0.458,-2.712,-2.31,-0.367,
50661510,-0.861,0.235,0.47,-0.437,-2.817,0.175,
50661520,-0.856,0.236,0.488,-0.612,-2.187,-0.122,
50661530,-0.874,0.213,0.478,-2.065,-1.592,-0.595,
50661540,-0.859,0.216,0.474,-0.612,-2.327,-0.245,
50661550,-0.843,0.232,0.475,0.962,-1.82,0.7,
50661560,-0.851,0.232,0.46,-0.367,-1.172,0.962,
50661570,-0.856,0.227,0.459,-1.295,-1.172,1.19,
50661580,-0.86,0.232,0.467,-1.347,-1.225,1.435,
50661590,-0.869,0.233,0.468,-1.907,-1.365,1.592,
50661600,-0.876,0.231,0.465,-2.52,-1.732,1.645,
50661610,-0.887,0.232,0.462,-2.66,-2.31,1.382,
50661620,-0.88,0.229,0.461,-2.275,-2.87,0.822,
50661630,-0.867,0.227,0.464,-2.1,-3.43,0.472,
50661640,-0.862,0.23,0.465,-2.17,-3.972,0.56,
50661650,-0.859,0.23,0.473,-2.467,-4.55,0.735,
50661660,-0.856,0.228,0.473,-3.325,-4.742,0.822,
50661670,-0.857,0.231,0.479,-3.832,-4.742,1.207,
50661680,-0.863,0.227,0.482,-4.235,-4.795,2.117,
50661690,-0.861,0.224,0.483,-4.287,-5.127,3.08,
50661700,-0.867,0.221,0.48,-3.815,-5.057,4.095,
50661710,-0.869,0.222,0.478,-3.22,-6.597,4.69,
50661720,-0.87,0.223,0.467,-3.132,-8.837,4.777,
50661730,-0.862,0.216,0.469,-2.87,-10.202,5.39,
50661740,-0.878,0.217,0.476,-2.747,-10.64,6.16,
50661750,-0.892,0.217,0.475,-2.782,-12.687,6.755,
50661760,-0.884,0.219,0.48,-2.135,-15.75,6.632,
50661770,-0.869,0.214,0.48,-1.19,-18.182,7.192,
50661780,-0.869,0.217,0.484,0.455,-19.162,9.257,
50661790,-0.885,0.227,0.485,1.855,-21.84,10.745,
50661800,-0.883,0.23,0.49,2.765,-25.9,11.742,
50661810,-0.883,0.229,0.489,2.59,-30.292,13.93,
50661820,-0.883,0.241,0.483,2.87,-33.495,15.575,
50661830,-0.866,0.263,0.49,2.957,-36.505,16.1,
50661830,-0.852,0.265,0.489,0.332,-38.132,16.572,
50661850,-0.861,0.247,0.496,-0.017,-39.585,17.815,
50661850,-0.853,0.248,0.515,2.117,-39.987,18.357,
50661870,-0.844,0.255,0.539,3.062,-40.705,18.112,
50661870,-0.835,0.256,0.549,3.062,-42.175,18.462,
50661890,-0.833,0.255,0.55,2.012,-44.73,19.67,
50661890,-0.84,0.244,0.548,1.137,-48.107,20.86,
50661910,-0.831,0.251,0.551,1.277,-52.115,21.612,
50661910,-0.821,0.268,0.561,1.382,-54.582,22.452,
50661920,-0.833,0.276,0.572,-0.087,-57.435,22.295,
50661930,-0.822,0.288,0.591,-2.205,-61.337,23.187,
50661940,-0.811,0.294,0.608,-4.357,-66.185,25.69,
50661950,-0.771,0.296,0.632,-6.02,-70.245,27.335,
50661960,-0.756,0.28,0.626,-7.56,-73.78,28.437,
50661970,-0.754,0.266,0.609,-7.052,-76.86,29.347,
50661980,-0.711,0.281,0.609,-4.427,-78.032,29.067,
50661990,-0.694,0.294,0.601,-3.412,-76.37,28,
50662000,-0.745,0.284,0.598,-4.637,-75.81,26.11,
50662010,-0.767,0.282,0.608,-4.182,-78.837,24.622,
50662020,-0.801,0.287,0.651,-3.482,-84.927,25.497,
50662030,-0.771,0.286,0.649,-3.325,-94.71,27.142,
50662040,-0.71,0.311,0.653,-4.69,-98.612,31.22,
50662050,-0.738,0.316,0.678,-6.65,-98.927,32.55,
50662060,-0.668,0.328,0.694,-8.295,-100.205,31.605,
50662070,-0.662,0.328,0.702,-11.095,-99.872,32.952,
50662080,-0.649,0.307,0.693,-13.825,-99.365,31.797,
50662090,-0.639,0.303,0.712,-13.072,-101.5,30.87,
50662100,-0.672,0.345,0.724,-15.557,-108.272,29.785,
50662110,-0.619,0.325,0.72,-20.125,-117.81,30.082,
50662120,-0.521,0.303,0.731,-19.775,-119.14,32.532,
50662130,-0.596,0.366,0.736,-19.827,-114.73,32.182,
50662140,-0.431,0.3,0.721,-26.635,-110.95,27.702,
50662150,-0.472,0.193,0.732,-23.87,-96.04,32.532,
50662160,-0.534,0.279,0.825,-11.532,-85.137,33.512,
50662170,-0.508,0.325,0.843,-8.172,-86.52,30.87,
50662170,-0.414,0.279,0.785,-10.885,-88.655,27.247,
50662190,-0.314,0.256,0.737,-6.492,-84.875,25.742,
50662190,-0.321,0.292,0.751,3.78,-73.955,28.63,
50662210,-0.328,0.352,0.764,7.087,-64.61,27.055,
50662210,-0.303,0.328,0.788,8.05,-56.21,22.68,
50662230,-0.343,0.336,0.827,11.637,-48.3,21.945,
50662230,-0.392,0.379,0.869,14.07,-41.335,21.052,
50662250,-0.407,0.385,0.891,12.46,-35.052,15.4,
50662250,-0.409,0.379,0.892,8.662,-31.15,8.715,
50662260,-0.349,0.386,0.876,3.885,-29.662,5.005,
50662270,-0.327,0.358,0.84,0.56,-25.427,5.862,
50662280,-0.304,0.355,0.826,0.035,-18.9,5.25,
50662290,-0.248,0.332,0.814,-1.487,-9.1,1.435,
50662300,-0.24,0.323,0.821,-2.677,3.867,-4.375,
50662310,-0.309,0.317,0.856,-4.287,14.227,-7.227,
50662320,-0.379,0.305,0.869,-9.275,18.182,-8.942,
50662330,-0.46,0.298,0.868,-12.022,15.925,-8.382,
50662340,-0.511,0.31,0.868,-13.3,9.8,-6.492,
50662350,-0.55,0.329,0.866,-13.72,1.645,-5.32,
50662360,-0.551,0.322,0.856,-13.895,-8.12,-4.83,
50662370,-0.548,0.316,0.846,-11.375,-18.532,-1.732,
50662380,-0.584,0.351,0.838,-8.295,-28.665,2.38,
50662390,-0.502,0.362,0.843,-9.432,-42.822,2.625,
50662400,-0.422,0.321,0.831,-8.312,-48.335,4.62,
50662410,-0.421,0.33,0.85,-7.49,-51.607,6.422,
50662420,-0.363,0.31,0.843,-5.967,-53.672,7.56,
50662430,-0.324,0.32,0.849,-4.48,-53.865,7.665,
50662440,-0.263,0.313,0.848,-4.357,-50.487,7.525,
50662450,-0.264,0.306,0.845,-2.887,-44.1,7.927,
50662460,-0.259,0.322,0.867,-1.977,-37.66,7.087,
50662470,-0.235,0.315,0.873,-3.062,-30.905,4.007,
50662480,-0.253,0.324,0.885,-3.01,-22.225,1.487,
50662490,-0.286,0.332,0.887,-4.007,-16.712,1.05,
50662500,-0.295,0.33,0.883,-3.902,-13.177,2.677,
50662510,-0.301,0.337,0.893,-2.695,-10.692,2.695,
50662520,-0.309,0.342,0.888,-3.482,-8.697,1.137,
50662530,-0.342,0.341,0.884,-4.567,-7.98,1.242,
50662540,-0.36,0.337,0.883,-5.232,-9.065,2.222,
50662550,-0.354,0.334,0.892,-5.39,-11.567,2.065,
50662560,-0.328,0.329,0.894,-5.53,-12.302,1.277,
50662570,-0.325,0.324,0.887,-6.16,-12.197,0.787,
50662580,-0.315,0.323,0.885,-7.297,-12.635,0.14,
50662580,-0.303,0.308,0.883,-7.49,-13.527,2.1,
50662600,-0.337,0.291,0.871,-7.105,-14.227,6.335,
50662600,-0.304,0.292,0.882,-4.445,-16.52,6.457,
50662620,-0.213,0.325,0.88,-6.02,-14.017,0.665,
50662620,-0.256,0.285,0.891,-5.302,-7.7,-0.42,
50662640,-0.266,0.296,0.882,-5.407,-4.2,-0.28,
50662640,-0.268,0.31,0.89,-3.08,-1.347,-0.525,
50662660,-0.283,0.312,0.896,-3.605,2.38,-1.12,
50662660,-0.307,0.313,0.894,-4.847,3.272,-2.52,
50662670,-0.339,0.315,0.89,-4.935,1.015,-2.17,
50662680,-0.358,0.314,0.889,-4.865,-3.237,-0.262,
50662690,-0.369,0.313,0.887,-4.655,-7.227,0.962,
50662700,-0.356,0.316,0.895,-3.78,-10.08,0.98,
50662710,-0.338,0.326,0.91,-2.642,-10.937,0.105,
50662720,-0.353,0.33,0.907,-3.78,-12.46,-1.207,
50662730,-0.297,0.305,0.893,-5.355,-14.682,-1.785,
50662740,-0.292,0.307,0.89,-3.412,-14.192,0.227,
50662750,-0.275,0.323,0.89,-3.272,-13.475,0.892,
50662760,-0.239,0.3,0.878,-4.13,-10.657,0.367,
50662770,-0.281,0.319,0.88,-3.64,-7.087,-0.472,
50662780,-0.133,0.3,0.887,-3.85,-2.327,-3.64,
50662790,-0.173,0.282,0.867,-2.87,10.64,-2.205,
50662800,-0.366,0.336,0.876,-3.885,18.9,0.577,
50662810,-0.303,0.304,0.909,-7.385,14.595,-1.452,
50662820,-0.263,0.283,0.919,-4.672,12.687,0.157,
50662830,-0.349,0.319,0.923,-5.127,11.882,1.382,
50662840,-0.362,0.313,0.914,-6.44,8.4,-0.91,
50662850,-0.383,0.306,0.926,-5.092,2.712,-0.595,
50662860,-0.388,0.303,0.91,-5.25,-4.182,0.997,
50662870,-0.335,0.307,0.892,-4.795,-8.61,0.56,
50662880,-0.305,0.308,0.89,-4.27,-7.577,0.35,
50662890,-0.286,0.297,0.885,-5.897,-5.355,-0.542,
50662900,-0.26,0.28,0.869,-6.527,-1.295,-1.925,
50662910,-0.246,0.277,0.865,-5.582,4.865,-2.905,
50662920,-0.259,0.279,0.863,-5.337,11.41,-4.077,
50662920,-0.257,0.274,0.869,-4.935,17.027,-5.827,
50662940,-0.291,0.293,0.886,-4.357,21.052,-6.387,
50662940,-0.333,0.297,0.889,-5.757,20.37,-6.685,
50662960,-0.337,0.29,0.896,-7.472,18.462,-6.86,
50662960,-0.346,0.284,0.909,-7.192,17.395,-6.107,
50662980,-0.348,0.287,0.921,-5.565,17.657,-5.495,
50662980,-0.375,0.311,0.917,-3.535,16.415,-4.515,
50663000,-0.347,0.311,0.885,-3.727,14.91,-4.165,
50663000,-0.296,0.29,0.88,-2.625,17.097,-3.867,
50663010,-0.304,0.302,0.883,-1.295,22.925,-3.727,
50663020,-0.308,0.312,0.879,-2.572,28.63,-5.827,
50663030,-0.314,0.309,0.862,-5.687,32.83,-9.537,
50663040,-0.297,0.293,0.845,-9.38,35.892,-12.337,
50663050,-0.273,0.277,0.836,-12.652,40.897,-14.175,
50663060,-0.232,0.267,0.848,-15.75,48.685,-16.537,
50663070,-0.2,0.241,0.872,-17.937,62.142,-17.885,
50663080,-0.271,0.263,0.905,-16.257,77.875,-18.69,
50663090,-0.393,0.3,0.921,-18.095,85.942,-20.072,
50663100,-0.432,0.269,0.923,-21.437,85.89,-21.157,
50663110,-0.495,0.255,0.886,-21.017,82.425,-20.002,
50663120,-0.62,0.268,0.862,-17.255,73.675,-15.732,
50663130,-0.697,0.274,0.863,-15.435,57.382,-12.705,
50663140,-0.699,0.261,0.856,-14.927,39.252,-10.832,
50663150,-0.665,0.254,0.847,-12.932,25.672,-8.26,
50663160,-0.623,0.257,0.846,-10.657,17.657,-6.177,
50663170,-0.541,0.239,0.83,-9.782,13.51,-6.37,
50663180,-0.443,0.222,0.816,-8.855,16.905,-6.737,
50663190,-0.364,0.215,0.806,-6.282,28.28,-7.35,
50663200,-0.326,0.212,0.804,-4.462,44.695,-8.837,
50663210,-0.342,0.201,0.782,-2.38,60.532,-12.81,
50663220,-0.388,0.198,0.759,-1.242,73.062,-16.257,
50663230,-0.458,0.192,0.739,-0.332,78.347,-17.99,
50663240,-0.519,0.202,0.734,0.507,77.262,-17.99,
50663250,-0.597,0.203,0.752,-0.122,71.032,-16.397,
50663260,-0.641,0.204,0.755,-1.452,64.4,-15.592,
50663270,-0.662,0.203,0.795,-0.822,57.855,-14.507,
50663280,-0.68,0.205,0.816,-1.627,53.007,-13.09,
50663290,-0.697,0.21,0.858,-1.995,48.65,-11.515,
50663300,-0.738,0.258,0.862,-3.535,45.115,-9.502,
50663310,-0.74,0.284,0.842,-12.267,34.387,-12.425,
50663320,-0.596,0.175,0.755,-22.032,29.575,-16.135,
50663330,-0.561,0.137,0.777,-21.315,33.53,-15.312,
50663330,-0.582,0.125,0.809,-18.952,40.232,-11.235,
50663350,-0.498,0.109,0.852,-5.81,51.87,-8.4,
50663350,-0.525,0.117,0.872,6.23,66.377,-3.762,
50663370,-0.612,0.121,0.877,12.39,79.082,-0.612,
50663370,-0.679,0.122,0.876,18.025,85.872,0.385,
50663390,-0.687,0.128,0.877,24.797,86.24,0.787,
50663390,-0.702,0.128,0.861,30.572,83.72,2.73,
50663410,-0.706,0.15,0.837,35.752,78.522,2.852,
50663410,-0.712,0.146,0.802,41.335,72.747,1.89,
50663420,-0.727,0.15,0.776,48.09,66.517,5.267,
50663430,-0.724,0.18,0.764,53.287,59.447,8.225,
50663440,-0.722,0.212,0.741,54.197,52.78,7.017,
50663450,-0.729,0.228,0.727,56.315,46.865,5.005,
50663460,-0.73,0.219,0.695,56.262,40.88,3.307,
50663470,-0.725,0.246,0.68,56.787,36.417,0.332,
50663480,-0.746,0.269,0.659,56.525,30.765,-1.102,
50663490,-0.756,0.272,0.642,56.525,24.99,-2.52,
50663500,-0.762,0.291,0.617,54.477,18.637,-7.035,
50663510,-0.788,0.283,0.599,53.48,10.64,-11.935,
50663520,-0.814,0.29,0.582,50.68,0.507,-17.675,
50663530,-0.821,0.284,0.579,47.635,-11.217,-22.47,
50663540,-0.786,0.369,0.563,41.772,-21.787,-26.057,
50663550,-0.841,0.273,0.55,39.602,-31.482,-12.372,
50663560,-0.758,0.334,0.536,28.717,-38.71,-14.437,
50663570,-0.739,0.344,0.516,24.395,-43.855,-23.835,
50663580,-0.745,0.322,0.507,24.465,-45.745,-26.687,
50663590,-0.742,0.295,0.503,24.307,-47.355,-24.43,
50663600,-0.722,0.314,0.521,24.57,-47.285,-22.697,
50663610,-0.712,0.326,0.547,22.627,-45.43,-23.082,
50663620,-0.715,0.39,0.592,12.652,-41.597,-19.985,
50663630,-0.714,0.349,0.537,-7.017,-40.267,-23.502,
50663640,-0.73,0.287,0.542,-5.197,-37.275,-26.967,
50663650,-0.733,0.291,0.549,-5.67,-35.945,-27.265,
50663660,-0.724,0.311,0.552,-10.71,-35.945,-26.53,
50663670,-0.714,0.31,0.546,-14.542,-36.855,-27.265,
50663670,-0.704,0.297,0.544,-16.607,-36.837,-28.35,
50663690,-0.703,0.286,0.545,-17.517,-37.082,-29.872,
50663690,-0.698,0.251,0.518,-13.667,-36.452,-33.512,
50663710,-0.685,0.274,0.582,-2.432,-34.842,-33.617,
50663710,-0.705,0.292,0.587,-6.352,-33.53,-28.122,
50663730,-0.692,0.297,0.604,-9.695,-31.99,-27.877,
50663730,-0.699,0.273,0.614,-13.335,-30.065,-24.587,
50663750,-0.687,0.293,0.62,-19.495,-28.98,-25.707,
50663750,-0.654,0.296,0.618,-27.632,-25.147,-36.33,
50663760,-0.658,0.24,0.614,-30.66,-20.352,-39.375,
50663770,-0.629,0.229,0.587,-29.925,-16.012,-36.68,
50663780,-0.699,0.123,0.599,-19.95,-14.717,-21,
50663790,-0.723,0.213,0.648,-6.79,-18.585,-5.617,
50663800,-0.685,0.332,0.685,-9.992,-22.785,-10.115,
50663810,-0.705,0.298,0.682,-19.355,-24.605,-14.665,
50663820,-0.681,0.262,0.675,-29.68,-25.147,-30.065,
50663830,-0.655,0.213,0.657,-38.272,-23.817,-42.805,
50663840,-0.672,0.164,0.637,-37.24,-22.312,-36.26,
50663850,-0.69,0.144,0.643,-29.68,-22.592,-26.022,
50663860,-0.697,0.202,0.674,-24.92,-25.165,-21.997,
50663870,-0.703,0.208,0.679,-25.375,-28.017,-18.707,
50663880,-0.677,0.196,0.687,-27.23,-29.172,-16.852,
50663890,-0.675,0.161,0.68,-27.58,-28.437,-14.28,
50663900,-0.667,0.152,0.706,-23.467,-26.11,-13.457,
50663910,-0.664,0.164,0.732,-21.455,-23.345,-13.23,
50663920,-0.664,0.157,0.747,-22.715,-20.3,-11.655,
50663930,-0.665,0.142,0.755,-23.747,-17.762,-10.692,
50663940,-0.655,0.146,0.774,-22.4,-15.557,-12.39,
50663950,-0.661,0.14,0.781,-21.332,-14.315,-13.23,
50663960,-0.673,0.127,0.785,-20.615,-14.105,-13.177,
50663970,-0.674,0.109,0.779,-19.67,-15.82,-13.3,
50663980,-0.662,0.103,0.79,-15.452,-17.29,-12.81,
50663990,-0.638,0.118,0.796,-10.92,-17.745,-12.145,
50664000,-0.623,0.134,0.8,-8.312,-16.695,-11.41,
50664010,-0.625,0.13,0.791,-7.857,-13.982,-11.112,
50664020,-0.62,0.124,0.782,-8.12,-9.047,-11.847,
50664030,-0.626,0.119,0.779,-8.295,-4.007,-11.987,
50664040,-0.646,0.11,0.768,-8.785,0.402,-11.445,
50664050,-0.663,0.103,0.762,-9.502,3.115,-11.497,
50664060,-0.668,0.1,0.756,-10.92,4.9,-11.725,
50664070,-0.736,0.063,0.738,-10.097,2.765,-6.195,
50664080,-0.718,0.099,0.754,-8.435,-1.75,-10.237,
50664080,-0.722,0.117,0.761,-11.007,-7.98,-13.072,
50664100,-0.729,0.078,0.76,-14.262,-15.312,-13.807,
50664100,-0.732,0.022,0.765,-12.705,-23.642,-11.742,
50664110,-0.705,0.022,0.78,-5.565,-30.537,-11.252,
50664120,-0.678,0.063,0.807,0.367,-35.35,-11.147,
50664130,-0.622,0.08,0.797,-1.19,-35.507,-11.322,
50664140,-0.587,0.061,0.795,-1.207,-31.115,-9.905,
50664150,-0.593,0.054,0.78,-1.155,-23.275,-6.44,
50664160,-0.616,0.054,0.783,0.735,-16.94,-5.67,
50664170,-0.623,0.065,0.797,2.765,-14.175,-6.02,
50664180,-0.628,0.075,0.798,2.012,-15.855,-6.142,
50664190,-0.585,0.085,0.794,0.122,-16.677,-6.282,
50664200,-0.553,0.073,0.813,-0.56,-12.512,-5.495,
50664210,-0.607,0.038,0.81,-3.412,-6.982,-2.8,
50664220,-0.625,0.017,0.814,-5.88,-1.837,-0.595,
50664230,-0.638,-0.004,0.822,-1.61,1.085,1.277,
50664240,-0.672,0.006,0.822,3.692,2.135,4.27,
50664250,-0.679,0.008,0.821,6.3,0.14,4.112,
50664260,-0.615,-0.031,0.768,9.817,-2.38,6.317,
50664270,-0.549,-0.062,0.74,19.74,-1.225,17.57,
50664280,-0.432,-0.061,0.693,29.592,10.657,31.255,
50664290,-0.39,-0.07,0.686,47.635,36.89,48.212,
50664300,-0.393,-0.043,0.707,66.115,77.437,64.137,
50664310,-0.445,0.037,0.719,78.907,125.125,76.527,
50664320,-0.572,0.109,0.715,85.715,170.747,84.455,
50664330,-0.732,0.178,0.702,86.292,206.745,88.655,
50664340,-0.832,0.245,0.692,79.502,229.565,88.602,
50664350,-0.916,0.284,0.64,67.865,237.825,87.167,
50664360,-0.987,0.307,0.567,54.862,235.357,84.997,
50664370,-1.037,0.319,0.507,43.312,224.192,82.792,
50664380,-1.074,0.325,0.447,34.702,204.575,83.597,
50664390,-1.026,0.365,0.434,28.227,180.302,83.615,
50664400,-0.983,0.435,0.408,18.83,156.38,80.797,
50664410,-1.016,0.46,0.398,4.585,130.795,79.905,
50664420,-1.028,0.43,0.379,-7.385,101.867,79.537,
50664420,-0.938,0.438,0.401,-14.682,75.127,76.667,
50664440,-0.881,0.455,0.415,-24.832,54.897,72.362,
50664440,-0.864,0.45,0.429,-36.172,41.335,60.812,
50664460,-0.843,0.417,0.434,-46.375,31.955,48.545,
50664460,-0.831,0.359,0.421,-51.117,21.997,38.92,
50664480,-0.797,0.371,0.442,-51.887,13.212,25.9,
50664480,-0.811,0.335,0.446,-52.727,5.127,16.957,
50664500,-0.777,0.32,0.467,-46.655,-2.135,7.542,
50664500,-0.757,0.325,0.509,-38.307,-7.857,2.66,
50664510,-0.762,0.318,0.527,-35.7,-12.67,1.61,
50664520,-0.764,0.328,0.536,-35.262,-17.43,-2.537,
50664530,-0.78,0.285,0.529,-32.62,-20.142,-3.01,
50664540,-0.788,0.254,0.538,-30.012,-22.697,-2.292,
50664550,-0.782,0.257,0.536,-26.88,-23.73,-1.627,
50664560,-0.768,0.262,0.556,-21.997,-22.977,-2.695,
50664570,-0.801,0.248,0.561,-18.655,-21.245,-0.612,
50664580,-0.81,0.243,0.552,-17.71,-21.7,0.105,
50664590,-0.796,0.242,0.551,-14.787,-22.032,0.28,
50664600,-0.795,0.244,0.542,-13.387,-20.86,1.19,
50664610,-0.791,0.249,0.527,-13.23,-18.69,1.487,
50664620,-0.769,0.258,0.516,-13.3,-15.33,0.437,
50664630,-0.765,0.252,0.507,-13.142,-9.572,1.522,
50664640,-0.774,0.252,0.487,-13.807,-3.5,2.485,
50664650,-0.796,0.255,0.477,-13.86,1.26,2.467,
50664660,-0.818,0.257,0.467,-13.545,4.48,2.607,
50664670,-0.843,0.25,0.46,-12.687,5.81,3.202,
50664680,-0.858,0.246,0.453,-10.762,5.232,3.36,
50664690,-0.864,0.255,0.454,-7.857,3.412,3.447,
50664700,-0.874,0.273,0.459,-5.582,0.945,3.902,
50664710,-0.877,0.288,0.466,-3.762,-3.307,4.83,
50664720,-0.881,0.289,0.464,-3.78,-7.752,6.002,
50664730,-0.854,0.311,0.454,-3.57,-12.005,4.287,
50664740,-0.822,0.335,0.459,-4.095,-14.42,-0.21,
50664750,-0.843,0.313,0.453,-5.53,-16.415,1.785,
50664760,-0.841,0.289,0.45,-5.915,-20.93,3.902,
50664770,-0.823,0.305,0.455,-5.32,-26.425,5.215,
50664780,-0.829,0.3,0.459,-6.597,-31.832,5.11,
50664790,-0.8,0.287,0.454,-7.052,-38.535,1.33,
50664800,-0.765,0.28,0.463,-4.2,-43.487,-0.507,
50664800,-0.729,0.278,0.468,0.385,-44.52,2.73,
50664820,-0.714,0.291,0.492,6.265,-41.615,6.405,
50664820,-0.721,0.288,0.519,10.255,-37.66,7.472,
50664830,-0.713,0.297,0.549,11.585,-33.232,3.955,
50664840,-0.711,0.304,0.57,12.127,-29.767,-0.945,
50664850,-0.729,0.305,0.599,12.635,-27.51,0.752,
50664860,-0.751,0.308,0.613,11.76,-28.49,5.092,
50664870,-0.765,0.327,0.626,10.675,-28.857,7.84,
50664880,-0.778,0.35,0.639,7.647,-29.592,7.332,
50664890,-0.786,0.353,0.631,0.017,-30.03,4.795,
50664900,-0.811,0.317,0.635,-7.192,-28.997,1.207,
50664910,-0.82,0.312,0.593,-14.105,-31.867,-8.12,
50664920,-0.698,0.304,0.573,-18.06,-32.602,-14.56,
50664930,-0.678,0.274,0.563,-15.277,-24.395,-11.305,
50664940,-0.703,0.271,0.585,-11.882,-14.437,-8.277,
50664950,-0.716,0.251,0.591,-10.43,-5.757,-8.155,
50664960,-0.712,0.224,0.606,-7.77,2.17,-7.332,
50664970,-0.771,0.252,0.634,-3.307,10.57,-3.167,
50664980,-0.839,0.272,0.636,-3.027,12.512,-0.612,
50664990,-0.84,0.282,0.624,-5.005,9.782,-0.717,
50665000,-0.83,0.276,0.608,-7.122,5.617,-1.382,
50665010,-0.827,0.259,0.573,-8.855,0.962,-1.82,
50665020,-0.809,0.241,0.563,-6.667,-3.675,-1.925,
50665030,-0.765,0.25,0.587,-4.182,-4.725,-1.33,
50665040,-0.791,0.262,0.593,-2.782,-2.065,-0.07,
50665050,-0.814,0.283,0.605,-3.92,-1.872,-1.522,
50665060,-0.827,0.293,0.594,-8.312,-4.55,-3.395,
50665070,-0.82,0.285,0.59,-10.78,-9.555,-3.412,
50665080,-0.808,0.292,0.611,-12.705,-15.19,-1.977,
50665090,-0.83,0.308,0.624,-18.602,-21.42,-0.56,
50665100,-0.836,0.292,0.599,-27.317,-28.21,-1.627,
50665110,-0.753,0.279,0.529,-31.412,-30.152,-3.15,
50665120,-0.711,0.281,0.515,-29.942,-25.147,-1.487,
50665130,-0.752,0.26,0.517,-27.79,-20.982,3.675,
50665140,-0.752,0.246,0.538,-22.26,-18.882,9.012,
50665150,-0.768,0.272,0.557,-17.29,-19.53,13.125,
50665160,-0.733,0.273,0.545,-16.362,-20.86,13.912,
50665170,-0.69,0.263,0.562,-12.6,-15.435,10.745,
50665170,-0.703,0.275,0.597,-8.802,-8.33,5.337,
50665190,-0.692,0.295,0.632,-7.35,-3.517,1.26,
50665190,-0.724,0.283,0.662,-7.367,-1.05,1.032,
50665210,-0.755,0.287,0.692,-8.89,-2.975,0.087,
50665210,-0.735,0.305,0.723,-11.602,-7.14,-1.96,
50665230,-0.738,0.3,0.734,-15.592,-10.36,-2.765,
50665230,-0.724,0.297,0.743,-20.247,-9.45,-3.237,
50665250,-0.745,0.284,0.735,-25.76,-6.685,-3.132,
50665250,-0.777,0.267,0.728,-30.38,-4.165,-3.062,
50665260,-0.804,0.265,0.715,-33.302,-6.09,-2.065,
50665270,-0.821,0.272,0.719,-36.557,-12.67,0.332,
50665280,-0.828,0.26,0.691,-41.825,-23.642,3.85,
50665290,-0.813,0.23,0.648,-46.27,-35.35,4.672,
50665300,-0.742,0.223,0.617,-46.9,-42.997,3.097,
50665310,-0.71,0.217,0.587,-46.48,-42.717,1.382,
50665320,-0.725,0.221,0.591,-45.517,-40.757,-1.4,
50665330,-0.725,0.228,0.598,-44.415,-43.505,-3.062,
50665340,-0.676,0.222,0.592,-43.487,-48.72,-1.907,
50665350,-0.636,0.202,0.589,-40.372,-51.625,1.295,
50665360,-0.623,0.174,0.59,-35.14,-51.205,4.27,
50665370,-0.62,0.151,0.597,-26.32,-48.615,7,
50665380,-0.623,0.158,0.61,-13.457,-44.432,11.375,
50665390,-0.636,0.181,0.632,-1.067,-40.617,14.735,
50665400,-0.663,0.203,0.632,7.84,-39.567,16.905,
50665410,-0.653,0.216,0.636,14.63,-37.24,19.687,
50665420,-0.662,0.229,0.647,19.775,-32.97,22.295,
50665430,-0.672,0.235,0.654,21.192,-26.757,23.607,
50665440,-0.683,0.238,0.678,21.315,-19.197,24.027,
50665450,-0.718,0.246,0.744,19.46,-13.107,22.977,
50665460,-0.72,0.277,0.785,13.912,-12.127,21.402,
50665470,-0.717,0.243,0.8,3.482,-14.07,21.035,
50665480,-0.736,0.188,0.785,-5.197,-18.2,16.852,
50665490,-0.647,0.191,0.788,-5.565,-22.767,11.06,
50665500,-0.552,0.213,0.778,-6.457,-20.107,8.137,
50665510,-0.593,0.217,0.775,-10.22,-13.562,4.655,
50665510,-0.62,0.22,0.759,-15.207,-12.127,2.082,
50665530,-0.637,0.191,0.735,-19.372,-15.417,3.955,
50665530,-0.645,0.171,0.716,-19.18,-19.6,6.842,
50665550,-0.656,0.206,0.717,-15.82,-24.447,7.91,
50665550,-0.669,0.237,0.698,-14.385,-28.595,6.895,
50665570,-0.649,0.236,0.69,-12.39,-30.555,5.057,
50665570,-0.652,0.248,0.698,-9.835,-30.992,4.445,
50665580,-0.633,0.267,0.71,-8.47,-32.515,4.917,
50665590,-0.56,0.28,0.708,-8.207,-30.765,5.582,
50665600,-0.547,0.276,0.735,-8.61,-23.31,6.177,
50665610,-0.571,0.251,0.723,-8.907,-14.735,8.295,
50665620,-0.568,0.255,0.743,-8.225,-7.07,9.485,
50665630,-0.567,0.252,0.767,-7.857,-0.192,8.645,
50665640,-0.598,0.293,0.759,-10.937,4.445,6.615,
50665650,-0.664,0.307,0.769,-17.517,4.165,2.905,
50665660,-0.64,0.254,0.76,-24.045,-0.98,-1.61,
50665670,-0.657,0.236,0.765,-23.345,-7.402,-0.857,
50665680,-0.714,0.234,0.776,-23.257,-15.365,2.992,
50665690,-0.737,0.205,0.767,-22.627,-27.055,6.177,
50665700,-0.673,0.204,0.764,-17.325,-39.847,9.87,
50665710,-0.597,0.197,0.766,-12.057,-46.725,15.645,
50665720,-0.551,0.188,0.781,-4.69,-46.532,19.652,
50665730,-0.528,0.225,0.796,-0.262,-42.98,20.352,
50665740,-0.532,0.232,0.801,-1.627,-36.925,20.44,
50665750,-0.545,0.203,0.805,-2.275,-31.255,19.407,
50665760,-0.545,0.204,0.806,-0.892,-27.282,16.432,
50665770,-0.53,0.213,0.802,1.662,-23.66,15.995,
50665780,-0.508,0.209,0.789,2.555,-18.147,16.52,
50665790,-0.52,0.205,0.779,3.01,-10.902,16.415,
50665800,-0.549,0.196,0.767,2.555,-5.635,15.155,
50665810,-0.555,0.188,0.74,2.59,-5.32,15.277,
50665820,-0.555,0.185,0.729,4.497,-6.825,17.185,
50665830,-0.555,0.196,0.733,6.632,-9.362,18.462,
50665840,-0.543,0.201,0.736,7.122,-11.935,18.287,
50665850,-0.514,0.204,0.758,7.122,-13.247,18.147,
50665860,-0.536,0.22,0.783,6.09,-12.757,18.427,
50665870,-0.579,0.235,0.791,2.73,-14.525,16.782,
50665880,-0.618,0.274,0.785,-1.89,-19.057,14.157,
50665890,-0.613,0.325,0.711,-10.78,-27.825,11.795,
50665900,-0.472,0.203,0.674,-14.805,-30.66,11.042,
50665910,-0.537,0.169,0.71,-4.182,-24.045,14.77,
50665920,-0.616,0.224,0.757,8.12,-25.375,21.962,
50665920,-0.604,0.183,0.788,18.532,-34.16,30.852,
50665940,-0.532,0.208,0.865,32.865,-42.21,40.775,
50665940,-0.454,0.349,0.969,38.832,-38.71,47.705,
50665960,-0.488,0.394,1.011,26.285,-24.972,38.447,
50665960,-0.528,0.311,0.968,7.595,-15.47,20.562,
50665980,-0.556,0.281,0.939,2.187,-15.347,14.175,
50665980,-0.581,0.331,0.929,1.697,-22.032,16.642,
50666000,-0.598,0.333,0.884,-3.85,-29.977,16.082,
50666000,-0.605,0.301,0.828,-7.087,-38.675,13.72,
50666010,-0.606,0.298,0.79,-4.182,-48.247,17.08,
50666020,-0.592,0.311,0.78,-0.857,-59.675,22.05,
50666030,-0.529,0.317,0.76,-0.315,-70.402,24.535,
50666040,-0.467,0.292,0.74,-1.102,-77.577,26.845,
50666050,-0.379,0.293,0.769,-0.525,-78.61,28.245,
50666060,-0.332,0.345,0.802,-4.322,-74.515,27.93,
50666070,-0.364,0.353,0.799,-15.505,-69.475,24.202,
50666080,-0.258,0.293,0.811,-27.037,-68.67,17.43,
50666090,-0.11,0.171,0.788,-30.275,-59.71,17.78,
50666100,-0.132,0.141,0.866,-15.365,-34.055,21.437,
50666110,-0.302,0.205,0.959,-0.7,-12.652,23.537,
50666120,-0.437,0.259,0.99,6.3,-6.667,23.257,
50666130,-0.47,0.298,0.955,8.68,-13.212,21.595,
50666140,-0.417,0.306,0.888,8.207,-19.215,18.707,
50666150,-0.41,0.318,0.844,8.085,-18.042,17.482,
50666160,-0.411,0.333,0.841,6.93,-14.14,16.152,
50666170,-0.367,0.316,0.855,2.817,-10.762,14.91,
50666180,-0.271,0.276,0.864,-0.192,-4.06,13.492,
50666190,-0.177,0.236,0.873,0.087,9.467,11.357,
50666200,-0.154,0.233,0.891,1.4,27.93,5.705,
50666210,-0.18,0.219,0.883,-0.367,44.012,-1.61,
50666220,-0.203,0.199,0.857,0.542,57.487,-6.352,
50666230,-0.364,0.249,0.871,4.9,65.275,-6.702,
50666240,-0.582,0.318,0.863,3.167,54.6,-4.252,
50666250,-0.562,0.299,0.814,0.035,31.535,1.05,
50666260,-0.543,0.307,0.816,6.51,17.22,7.297,
50666260,-0.562,0.331,0.843,12.547,9.275,10.307,
50666280,-0.55,0.357,0.868,16.555,3.762,10.5,
50666280,-0.542,0.374,0.88,18.41,-1.487,10.08,
50666300,-0.503,0.36,0.877,17.692,-6.632,9.607,
50666300,-0.431,0.361,0.889,16.782,-10.22,9.292,
50666320,-0.351,0.392,0.887,15.505,-8.225,9.135,
50666320,-0.363,0.373,0.871,8.89,-2.765,6.86,
50666330,-0.385,0.33,0.85,2.17,0.56,3.185,
50666340,-0.398,0.334,0.838,-0.367,-1.452,1.89,
50666350,-0.362,0.331,0.84,-3.552,-3.955,3.097,
50666360,-0.355,0.334,0.829,-5.617,-2.502,3.325,
50666370,-0.378,0.385,0.828,-10.412,1.837,-0.542,
50666380,-0.391,0.264,0.804,-15.4,7.805,-2.817,
50666390,-0.423,0.371,0.837,-9.17,10.885,-6.597,
50666400,-0.354,0.243,0.813,-13.72,12.53,-6.247,
50666410,-0.444,0.257,0.854,-3.85,19.25,-1.592,
50666420,-0.553,0.341,0.889,1.662,15.295,2.765,
50666430,-0.467,0.293,0.864,-3.727,6.317,0.682,
50666440,-0.429,0.279,0.861,-0.35,3.465,-1.522,
50666450,-0.447,0.318,0.863,2.292,4.095,-2.432,
50666460,-0.485,0.296,0.841,0.752,2.747,-2.187,
50666470,-0.477,0.306,0.819,2.45,-1.96,-0.035,
50666480,-0.451,0.328,0.828,4.445,-5.565,2.87,
50666490,-0.423,0.31,0.803,4.497,-5.74,2.415,
50666500,-0.399,0.354,0.805,4.917,-0.875,1.295,
50666510,-0.439,0.306,0.8,1.487,3.762,2.047,
50666520,-0.461,0.302,0.818,2.817,4.497,3.447,
50666530,-0.463,0.342,0.851,5.495,1.977,6.37,
50666540,-0.457,0.344,0.871,3.885,-0.665,7.997,
50666550,-0.424,0.319,0.868,2.572,-2.66,7.105,
50666560,-0.385,0.325,0.875,4.322,-1.715,6.387,
50666570,-0.371,0.335,0.879,5.197,1.347,6.142,
50666580,-0.376,0.325,0.869,4.515,4.9,5.582,
50666590,-0.375,0.329,0.859,4.795,6.86,5.582,
50666600,-0.356,0.334,0.851,6.002,9.975,5.67,
50666610,-0.366,0.332,0.849,7.367,14,3.937,
50666620,-0.403,0.346,0.85,8.452,16.852,1.19,
50666630,-0.414,0.336,0.829,9.152,16.275,0.21,
50666640,-0.482,0.402,0.804,12.022,14.455,1.907,
50666650,-0.55,0.408,0.808,6.107,8.312,1.312,
50666660,-0.487,0.293,0.766,3.57,4.445,0.56,
50666670,-0.454,0.375,0.86,13.72,3.027,-0.805,
50666670,-0.463,0.399,0.854,7.752,3.202,0.175,
50666690,-0.448,0.34,0.851,3.815,4.97,-1.365,
50666690,-0.471,0.347,0.853,4.375,5.897,-0.735,
50666710,-0.434,0.342,0.824,0.805,4.9,-1.767,
50666710,-0.4,0.328,0.809,-0.385,7.857,-3.92,
50666730,-0.394,0.348,0.798,-3.097,13.615,-6.79,
50666730,-0.435,0.34,0.781,-7.56,19.74,-9.082,
50666750,-0.511,0.343,0.79,-10.115,20.562,-8.802,
50666750,-0.544,0.34,0.815,-12.88,15.802,-8.067,
50666760,-0.584,0.332,0.843,-14.752,8.435,-8.05,
50666770,-0.617,0.33,0.849,-15.207,-1.697,-6.772,
50666780,-0.589,0.335,0.845,-13.44,-14.227,-2.66,
50666790,-0.508,0.33,0.853,-11.077,-22.82,1.137,
50666800,-0.427,0.325,0.856,-9.835,-23.905,0.98,
50666810,-0.409,0.303,0.84,-9.747,-20.282,-0.105,
50666820,-0.392,0.294,0.804,-8.715,-18.025,0.56,
50666830,-0.325,0.302,0.777,-5.18,-14.577,2.572,
50666840,-0.31,0.304,0.752,-2.94,-7.262,3.132,
50666850,-0.31,0.305,0.753,-1.085,1.925,1.085,
50666860,-0.367,0.308,0.786,1.82,9.66,0.192,
50666870,-0.427,0.287,0.783,2.695,11.952,2.31,
50666880,-0.464,0.286,0.76,5.565,10.255,5.722,
50666890,-0.463,0.319,0.773,9.922,7.787,9.152,
50666900,-0.492,0.342,0.774,10.832,6.562,10.762,
50666910,-0.487,0.353,0.808,9.992,5.425,10.482,
50666920,-0.484,0.362,0.865,9.292,6.282,9.992,
50666930,-0.517,0.368,0.901,6.23,6.702,9.117,
50666940,-0.532,0.381,0.915,2.415,4.655,7.21,
50666950,-0.528,0.379,0.896,-0.84,0.507,6.002,
50666960,-0.529,0.387,0.867,-2.782,-3.465,6.037,
50666970,-0.518,0.388,0.844,-4.69,-7.91,6.177,
50666980,-0.496,0.361,0.826,-7.612,-12.005,5.005,
50666990,-0.45,0.35,0.815,-9.047,-14.49,4.322,
50667000,-0.438,0.334,0.811,-10.132,-14.017,3.465,
50667010,-0.422,0.296,0.779,-11.585,-14.42,2.607,
50667010,-0.387,0.292,0.772,-8.785,-12.652,2.957,
50667030,-0.401,0.286,0.767,-6.247,-9.467,3.115,
50667030,-0.411,0.284,0.76,-4.637,-7.717,2.695,
50667050,-0.407,0.3,0.768,-1.155,-7.105,4.13,
50667050,-0.43,0.308,0.786,2.537,-5.705,6.23,
50667070,-0.453,0.316,0.802,4.13,-6.615,7.21,
50667070,-0.451,0.328,0.814,6.212,-9.187,9.082,
50667080,-0.449,0.344,0.831,9.012,-11.497,11.427,
50667090,-0.46,0.353,0.837,9.45,-13.405,11.305,
50667100,-0.431,0.357,0.832,8.242,-15.365,10.552,
50667110,-0.406,0.345,0.848,7.14,-13.247,10.08,
50667120,-0.45,0.35,0.853,6.002,-10.447,8.085,
50667130,-0.463,0.351,0.843,3.412,-10.797,5.11,
50667140,-0.467,0.336,0.832,2.345,-12.915,4.287,
50667150,-0.486,0.331,0.822,2.45,-16.205,5.565,
50667160,-0.484,0.331,0.817,2.467,-21.892,7.402,
50667170,-0.43,0.32,0.818,3.43,-26.337,9.082,
50667180,-0.391,0.323,0.824,5.46,-25.637,8.4,
50667190,-0.413,0.342,0.826,4.917,-23.485,5.39,
50667200,-0.399,0.344,0.818,3.5,-23.38,2.922,
50667210,-0.354,0.345,0.844,4.637,-20.37,2.03,
50667220,-0.376,0.373,0.869,4.567,-13.51,-0.455,
50667230,-0.361,0.355,0.887,1.627,-7.297,-4.445,
50667240,-0.366,0.342,0.914,1.312,-1.557,-5.005,
50667250,-0.359,0.344,0.931,0.752,1.872,-5.46,
50667260,-0.321,0.325,0.943,-1.75,6.72,-8.522,
50667270,-0.403,0.323,0.951,-5.057,10.482,-10.692,
50667280,-0.434,0.324,0.922,-7.822,8.015,-10.867,
50667290,-0.454,0.332,0.908,-7.84,2.1,-10.22,
50667300,-0.416,0.363,0.858,-7.91,-1.82,-10.78,
50667310,-0.402,0.351,0.797,-7.735,2.17,-12.092,
50667320,-0.431,0.32,0.75,-5.687,10.027,-11.865,
50667330,-0.503,0.334,0.691,-4.007,11.952,-8.785,
50667340,-0.424,0.328,0.705,4.182,8.347,-3.727,
50667350,-0.37,0.354,0.721,7.157,8.61,-1.732,
50667360,-0.385,0.331,0.748,7.717,14.98,-2.31,
50667370,-0.364,0.368,0.803,9.94,20.947,-4.427,
50667380,-0.344,0.363,0.856,12.005,28.507,-3.972,
50667390,-0.464,0.416,0.902,9.31,34.3,-4.567,
50667400,-0.566,0.413,0.924,1.347,28.56,-5.057,
50667410,-0.553,0.411,0.92,-2.485,14.805,-2.135,
50667420,-0.547,0.428,0.896,-3.045,3.5,1.732,
50667420,-0.507,0.43,0.847,-5.495,-4.795,1.645,
50667440,-0.468,0.394,0.81,-7.7,-7.665,0.787,
50667440,-0.484,0.375,0.793,-7.21,-10.062,1.872,
50667460,-0.431,0.366,0.797,-5.495,-12.722,3.22,
50667460,-0.347,0.354,0.818,-4.777,-10.097,2.17,
50667480,-0.31,0.329,0.831,-7.525,0,0.56,
50667480,-0.323,0.307,0.834,-10.465,12.635,-0.682,
50667500,-0.35,0.304,0.838,-12.162,23.502,-1.995,
50667500,-0.367,0.311,0.829,-15.732,29.995,-5.11,
50667510,-0.373,0.284,0.814,-20.562,35.752,-7.472,
50667520,-0.424,0.278,0.812,-21.157,41.177,-7.297,
50667530,-0.445,0.298,0.818,-18.795,46.987,-5.215,
50667540,-0.588,0.349,0.84,-16.24,53.707,-4.27,
50667550,-0.617,0.359,0.848,-19.145,45.115,-7.647,
50667560,-0.531,0.304,0.793,-21.682,35.56,-5.547,
50667570,-0.587,0.315,0.771,-16.8,32.567,-1.54,
50667580,-0.565,0.347,0.77,-14.035,28.297,-1.522,
50667590,-0.567,0.345,0.764,-14.052,23.677,-1.557,
50667600,-0.569,0.329,0.761,-14.77,17.132,-2.082,
50667610,-0.502,0.322,0.764,-12.95,9.887,-2.275,
50667620,-0.502,0.323,0.764,-11.007,5.95,-0.122,
50667630,-0.536,0.315,0.755,-10.29,2.327,-0.752,
50667640,-0.532,0.314,0.746,-7.787,-2.397,-1.995,
50667650,-0.525,0.326,0.74,-2.73,-6.877,-1.085,
50667660,-0.514,0.335,0.756,-0.91,-10.412,0.857,
50667670,-0.489,0.325,0.772,-0.175,-11.34,3.587,
50667680,-0.521,0.335,0.806,0.77,-9.66,5.285,
50667690,-0.522,0.341,0.83,-1.19,-9.922,3.78,
50667700,-0.533,0.322,0.833,-3.832,-11.042,2.555,
50667710,-0.552,0.317,0.826,-5.005,-15.662,2.695,
50667720,-0.513,0.302,0.818,-4.935,-21.21,3.762,
50667730,-0.48,0.278,0.808,-3.167,-22.75,5.687,
50667740,-0.488,0.275,0.802,-1.067,-20.44,6.09,
50667750,-0.477,0.266,0.791,0.717,-17.185,5.88,
50667760,-0.532,0.278,0.771,3.29,-14.332,6.44,
50667760,-0.541,0.27,0.758,4.235,-15.767,8.26,
50667780,-0.544,0.269,0.746,6.002,-16.765,10.447,
50667780,-0.511,0.285,0.76,8.102,-17.605,9.222,
50667800,-0.486,0.283,0.767,8.225,-15.907,6.72,
50667800,-0.47,0.276,0.767,8.697,-12.862,4.602,
50667820,-0.427,0.282,0.792,10.797,-8.05,3.57,
50667820,-0.409,0.296,0.814,10.57,-2.765,4.27,
50667830,-0.407,0.283,0.824,9.012,2.957,6.317,
50667840,-0.415,0.302,0.836,11.532,9.38,8.032,
50667850,-0.458,0.331,0.816,12.792,16.17,7.927,
50667860,-0.455,0.295,0.857,12.355,19.53,6.405,
50667870,-0.503,0.373,0.835,12.407,19.407,5.845,
50667880,-0.486,0.362,0.786,7.175,17.08,1.137,
50667890,-0.479,0.369,0.781,8.172,17.482,0.56,
50667900,-0.485,0.395,0.8,8.452,20.247,0.805,
50667910,-0.506,0.393,0.796,5.25,22.347,-1.575,
50667920,-0.496,0.377,0.796,2.8,22.085,-4.235,
50667930,-0.52,0.371,0.793,1.627,20.177,-1.995,
50667940,-0.529,0.356,0.786,0.507,17.08,1.382,
50667950,-0.506,0.33,0.785,0.367,15.452,1.575,
50667960,-0.483,0.305,0.777,0.962,16.45,0.122,
50667970,-0.465,0.294,0.775,3.43,19.775,-1.19,
50667980,-0.453,0.301,0.772,5.285,24.85,-2.187,
50667990,-0.491,0.315,0.783,5.442,30.415,-3.587,
50668000,-0.538,0.329,0.786,3.885,32.305,-5.477,
50668010,-0.547,0.333,0.781,2.135,31.132,-6.282,
50668020,-0.589,0.345,0.769,0.542,29.067,-5.67,
50668030,-0.611,0.361,0.757,-1.627,24.395,-6.492,
50668040,-0.576,0.36,0.766,-3.395,20.527,-9.222,
50668050,-0.583,0.355,0.76,-5.442,18.007,-11.672,
50668060,-0.591,0.362,0.764,-7.07,15.89,-12.442,
50668070,-0.592,0.353,0.766,-7.612,14.735,-13.457,
50668080,-0.647,0.353,0.767,-8.347,13.947,-13.142,
50668090,-0.701,0.34,0.775,-10.08,8.855,-14.472,
50668100,-0.731,0.304,0.762,-10.167,-0.245,-12.862,
50668110,-0.718,0.323,0.758,-6.44,-11.865,-7.98,
50668120,-0.663,0.352,0.771,-3.43,-19.547,-5.372,
50668130,-0.629,0.338,0.763,-5.215,-22.907,-6.282,
50668140,-0.571,0.321,0.771,-6.545,-22.68,-6.86,
50668150,-0.502,0.334,0.811,-7.122,-21.402,-5.25,
50668160,-0.435,0.349,0.821,-11.025,-17.57,-3.675,
50668170,-0.402,0.316,0.802,-16.415,-10.15,-5.11,
50668170,-0.357,0.31,0.803,-17.622,1.592,-7.315,
50668190,-0.413,0.316,0.781,-17.622,12.6,-8.802,
50668190,-0.462,0.32,0.74,-17.325,19.792,-8.75,
50668200,-0.535,0.329,0.736,-13.72,23.992,-7.595,
50668210,-0.653,0.346,0.742,-11.287,22.102,-6.44,
50668220,-0.704,0.336,0.744,-10.132,11.637,-4.742,
50668230,-0.684,0.301,0.741,-6.02,0.717,-1.995,
50668240,-0.647,0.346,0.698,-1.907,-7.98,-1.312,
50668250,-0.558,0.327,0.723,-1.785,-5.32,-1.942,
50668260,-0.645,0.298,0.765,-2.852,1.872,-4.095,
50668270,-0.7,0.298,0.809,-5.862,0.56,-6.125,
50668280,-0.685,0.25,0.814,-8.645,-8.767,-4.585,
50668290,-0.654,0.249,0.798,-9.275,-21.332,-1.225,
50668300,-0.537,0.231,0.736,-10.675,-30.765,-0.105,
50668310,-0.444,0.198,0.708,-8.645,-28.315,0.017,
50668320,-0.423,0.23,0.726,-4.41,-19.495,0.227,
50668330,-0.421,0.244,0.743,-3.29,-10.815,-0.157,
50668340,-0.408,0.255,0.784,-3.167,-1.242,-1.155,
50668350,-0.454,0.282,0.825,-3.307,9.397,-3.535,
50668360,-0.547,0.312,0.82,-5.985,16.397,-7.297,
50668370,-0.613,0.339,0.801,-7.227,16.065,-8.627,
50668380,-0.666,0.357,0.807,-6.37,11.27,-7.595,
50668390,-0.753,0.358,0.797,-7.472,1.592,-7.595,
50668400,-0.759,0.353,0.781,-8.505,-11.357,-7.84,
50668410,-0.716,0.33,0.784,-8.225,-22.137,-6.335,
50668420,-0.664,0.308,0.778,-9.922,-28.595,-6.247,
50668430,-0.607,0.291,0.776,-10.622,-30.537,-6.51,
50668440,-0.579,0.247,0.748,-11.375,-29.697,-7,
50668450,-0.49,0.196,0.726,-8.907,-27.545,-6.317,
50668460,-0.419,0.2,0.732,-4.497,-22.19,-5.285,
50668470,-0.374,0.174,0.751,-3.815,-13.562,-5.845,
50668480,-0.403,0.16,0.772,-3.167,-5.652,-5.197,
50668490,-0.402,0.197,0.778,-0.437,-0.752,-4.445,
50668500,-0.397,0.217,0.763,-0.857,4.812,-5.127,
50668510,-0.443,0.209,0.767,1.032,9.765,-4.882,
50668510,-0.495,0.236,0.77,2.94,10.605,-3.045,
50668530,-0.519,0.25,0.789,5.005,8.277,-1.347,
50668530,-0.53,0.272,0.806,6.982,8.172,-0.087,
50668550,-0.584,0.273,0.805,7.017,8.207,-0.437,
50668550,-0.572,0.266,0.79,7.455,6.65,-1.697,
50668570,-0.525,0.263,0.777,10.255,6.615,-0.647,
50668570,-0.454,0.268,0.735,11.795,9.66,0.332,
50668580,-0.464,0.261,0.709,11.865,13.825,0.542,
50668590,-0.543,0.261,0.713,11.497,13.422,4.13,
50668600,-0.599,0.272,0.738,14.892,8.785,11.812,
50668610,-0.619,0.281,0.751,18.602,3.657,17.92,
50668620,-0.633,0.291,0.745,21.507,-1.54,20.177,
50668630,-0.512,0.336,0.709,23.327,-3.342,18.9,
50668640,-0.521,0.315,0.695,21.787,2.432,16.975,
50668650,-0.495,0.33,0.717,21.315,9.345,14.245,
50668660,-0.517,0.338,0.81,20.23,16.835,13.265,
50668670,-0.533,0.276,0.863,15.05,22.242,11.025,
50668680,-0.635,0.259,0.874,11.147,26.565,9.572,
50668690,-0.693,0.384,0.905,8.68,23.205,7.927,
50668700,-0.74,0.397,0.896,4.357,17.045,7.945,
50668710,-0.756,0.365,0.841,-4.567,7.56,4.112,
50668720,-0.723,0.359,0.779,-3.78,-3.167,3.5,
50668730,-0.708,0.363,0.746,-2.31,-14.262,5.495,
50668740,-0.619,0.33,0.725,-3.325,-23.327,7.822,
50668750,-0.554,0.316,0.725,-1.277,-25.76,8.715,
50668760,-0.48,0.322,0.724,-1.155,-22.19,8.417,
50668770,-0.473,0.299,0.721,-1.067,-14.437,8.435,
50668780,-0.474,0.302,0.738,-1.295,-5.127,6.335,
50668790,-0.486,0.305,0.749,-1.925,4.34,2.87,
50668800,-0.529,0.288,0.764,-2.52,12.687,1.4,
50668810,-0.596,0.299,0.767,-2.24,14.77,1.312,
50668820,-0.623,0.302,0.756,-2.187,11.112,2.117,
50668830,-0.626,0.307,0.74,-0.892,6.125,3.43,
50668840,-0.615,0.316,0.732,0.7,3.132,3.342,
50668850,-0.598,0.324,0.726,0.665,1.295,1.347,
50668860,-0.583,0.323,0.736,0.332,1.487,0.437,
50668870,-0.503,0.305,0.752,1.05,3.955,0.42,
50668880,-0.634,0.31,0.751,-0.612,8.05,3.745,
50668890,-0.602,0.357,0.76,-2.38,5.267,1.732,
50668890,-0.64,0.318,0.759,-7.665,-8.417,-0.612,
50668910,-0.264,0.189,0.672,-12.425,-12.88,-0.63,
50668910,-0.392,0.258,0.714,5.547,17.85,3.972,
50668920,-0.707,0.381,0.776,7.805,35.28,-0.647,
50668930,-0.714,0.31,0.732,0.56,25.375,-3.64,
50668940,-0.673,0.31,0.693,8.33,12.04,1.942,
50668950,-0.673,0.371,0.708,16.362,4.987,6.387,
50668960,-0.648,0.411,0.696,17.657,0.962,5.67,
50668970,-0.628,0.376,0.687,15.54,-0.297,4.462,
50668980,-0.605,0.346,0.695,13.352,-2.817,3.447,
50668990,-0.599,0.343,0.698,11.27,-7.56,4.007,
50669000,-0.546,0.318,0.731,10.377,-8.19,3.902,
50669010,-0.595,0.347,0.791,11.392,-4.497,2.362,
50669020,-0.647,0.355,0.802,6.475,-4.9,1.767,
50669030,-0.616,0.326,0.776,4.707,-7.7,3.867,
50669040,-0.562,0.348,0.768,7.42,-7.577,5.267,
50669050,-0.521,0.361,0.767,6.16,-3.622,3.185,
50669060,-0.524,0.338,0.749,2.397,0.367,1.382,
50669070,-0.5,0.336,0.74,1.172,3.762,1.435,
50669080,-0.515,0.338,0.734,0.542,8.995,0.542,
50669090,-0.542,0.345,0.723,-0.91,12.985,-1.102,
50669100,-0.582,0.351,0.747,-1.54,14.77,-0.822,
50669110,-0.628,0.357,0.75,-3.01,13.755,-0.192,
50669120,-0.677,0.362,0.754,-4.445,11.252,0.175,
50669130,-0.703,0.363,0.746,-4.987,6.282,0.735,
50669140,-0.706,0.361,0.725,-3.955,0.402,3.062,
50669150,-0.702,0.355,0.71,-2.73,-6.352,5.197,
50669160,-0.646,0.33,0.692,-1.347,-11.62,6.16,
50669170,-0.586,0.312,0.691,1.855,-13.335,7.367,
50669180,-0.544,0.326,0.686,4.2,-12.512,8.505,
50669190,-0.497,0.321,0.682,4.567,-7.542,8.347,
50669200,-0.509,0.33,0.694,5.74,2.712,7.175,
50669210,-0.557,0.36,0.731,6.09,11.165,4.357,
50669220,-0.603,0.365,0.768,4.672,14.507,1.417,
50669230,-0.633,0.378,0.777,3.587,10.097,1.295,
50669240,-0.645,0.366,0.787,2.397,3.5,3.185,
50669250,-0.669,0.38,0.787,1.995,-2.765,3.85,
50669260,-0.679,0.381,0.767,-0.385,-8.907,4.025,
50669260,-0.691,0.353,0.751,-3.395,-15.575,5.95,
50669280,-0.665,0.37,0.742,-4.025,-23.17,9.03,
50669280,-0.616,0.379,0.733,-6.72,-28.787,10.377,
50669300,-0.57,0.355,0.724,-10.29,-29.505,9.187,
50669300,-0.504,0.334,0.717,-11.69,-25.882,5.74,
50669320,-0.468,0.328,0.726,-11.48,-17.062,2.24,
50669320,-0.475,0.33,0.735,-11.795,-6.352,-1.33,
50669330,-0.502,0.327,0.723,-12.11,2.362,-4.41,
50669340,-0.552,0.298,0.699,-11.655,7.017,-6.352,
50669350,-0.603,0.328,0.646,-9.695,5.74,-4.235,
50669360,-0.593,0.299,0.675,-8.172,4.567,-0.857,
50669370,-0.626,0.371,0.688,-6.685,3.377,-0.63,
50669380,-0.667,0.337,0.72,-12.582,-2.66,-2.73,
50669390,-0.458,0.241,0.782,-4.322,-0.052,0.35,
50669400,-0.668,0.419,0.798,2.45,2.152,5.162,
50669410,-0.564,0.335,0.733,-7.84,0.385,-0.927,
50669420,-0.603,0.321,0.739,-3.045,-0.175,1.015,
50669430,-0.577,0.363,0.739,0.752,-3.045,5.582,
50669440,-0.49,0.32,0.707,0.735,-3.99,5.18,
50669450,-0.46,0.31,0.702,2.625,0.735,4.62,
50669460,-0.488,0.307,0.702,2.73,6.615,3.867,
50669470,-0.512,0.307,0.721,3.64,10.762,3.325,
50669480,-0.573,0.32,0.753,4.13,14.192,3.36,
50669490,-0.644,0.342,0.757,3.5,13.457,1.26,
50669500,-0.646,0.336,0.722,2.292,7.945,0.507,
50669510,-0.637,0.321,0.719,2.782,3.15,2.87,
50669520,-0.66,0.33,0.724,2.782,0.315,4.742,
50669530,-0.656,0.319,0.709,2.012,-3.727,4.707,
50669540,-0.657,0.33,0.706,2.45,-7.017,5.74,
50669550,-0.642,0.348,0.735,3.797,-8.592,5.215,
50669560,-0.658,0.356,0.733,2.887,-9.257,3.465,
50669570,-0.624,0.343,0.736,2.922,-10.797,3.08,
50669580,-0.58,0.337,0.74,5.512,-9.38,3.447,
50669580,-0.604,0.331,0.721,5.495,-8.767,2.607,
50669600,-0.556,0.297,0.712,5.722,-11.2,4.182,
50669600,-0.487,0.282,0.709,9.257,-11.987,8.172,
50669620,-0.485,0.321,0.712,10.43,-6.457,8.557,
50669620,-0.488,0.345,0.717,11.147,-0.7,3.885,
50669640,-0.53,0.332,0.701,9.257,0.752,3.01,
50669640,-0.484,0.289,0.707,8.767,-3.062,4.69,
50669660,-0.566,0.477,0.823,16.677,3.325,4.55,
50669660,-0.745,0.486,0.847,8.12,5.337,-2.362,
50669670,-0.746,0.421,0.8,1.207,-6.772,-1.89,
50669680,-0.7,0.413,0.775,4.725,-23.222,5.985,
50669690,-0.607,0.376,0.679,2.572,-36.242,11.27,
50669700,-0.42,0.377,0.665,3.622,-34.755,11.007,
50669710,-0.457,0.389,0.707,5.705,-16.327,6.667,
50669720,-0.495,0.382,0.711,2.607,-0.49,-1.242,
50669730,-0.54,0.368,0.74,3.185,10.482,-4.427,
50669740,-0.614,0.356,0.746,2.257,15.347,-4.882,
50669750,-0.657,0.345,0.743,1.365,12.512,-5.46,
50669760,-0.669,0.348,0.728,2.695,5.005,-3.64,
50669770,-0.631,0.343,0.72,3.552,-3.5,-1.365,
50669780,-0.601,0.32,0.71,4.095,-10.272,-0.07,
50669790,-0.579,0.311,0.701,5.285,-16.642,1.155,
50669800,-0.543,0.329,0.72,7.647,-21.087,3.395,
50669810,-0.576,0.374,0.736,8.995,-23.52,5.687,
50669820,-0.579,0.389,0.742,6.37,-25.935,6.352,
50669830,-0.584,0.396,0.755,3.937,-27.79,7.035,
50669840,-0.561,0.39,0.77,1.435,-28.91,5.53,
50669850,-0.549,0.396,0.786,-1.137,-29.995,3.15,
50669860,-0.547,0.4,0.804,-4.882,-31.01,0.402,
50669870,-0.525,0.387,0.821,-9.345,-33.022,-2.607,
50669880,-0.469,0.368,0.82,-11.777,-31.85,-5.565,
50669890,-0.37,0.352,0.795,-10.535,-23.222,-9.03,
50669900,-0.304,0.343,0.768,-8.295,-2.73,-14.77,
50669910,-0.366,0.331,0.745,-7.665,20.877,-21.98,
50669920,-0.429,0.298,0.743,-8.592,38.22,-24.85,
50669930,-0.52,0.294,0.741,-7.017,48.002,-21.822,
50669940,-0.649,0.29,0.762,-5.967,50.015,-16.957,
50669950,-0.6,0.273,0.757,-6.387,44.117,-14.77,
50669960,-0.593,0.228,0.769,-0.052,45.955,-10.972,
50669970,-0.593,0.292,0.786,9.957,57.82,-17.097,
50669980,-0.738,0.423,0.67,13.685,66.465,-30.1,
50669990,-0.699,0.284,0.617,-6.72,54.25,-27.86,
50670000,-0.558,0.335,0.624,3.115,65.415,-10.307,
50670010,-0.757,0.415,0.73,24.115,87.062,-5.32,
50670010,-0.879,0.376,0.776,13.825,84.647,-17.92,
50670030,-0.73,0.256,0.73,9.607,63.332,-22.172,
50670030,-0.557,0.263,0.711,14.945,51.852,-15.365,
50670050,-0.555,0.27,0.693,16.117,56,-11.97,
50670050,-0.59,0.257,0.664,17.447,64.662,-16.17,
50670070,-0.636,0.204,0.635,25.777,70.122,-17.622,
50670070,-0.653,0.205,0.639,37.922,69.982,-13.317,
50670080,-0.668,0.237,0.647,46.987,67.287,-9.432,
50670090,-0.724,0.256,0.665,52.517,63.84,-9.1,
50670100,-0.777,0.287,0.689,56.455,56.35,-10.902,
50670110,-0.833,0.31,0.677,57.19,44.117,-10.657,
50670120,-0.845,0.302,0.677,59.657,30.345,-9.24,
50670130,-0.817,0.342,0.674,59.115,17.99,-11.795,
50670140,-0.819,0.338,0.649,57.837,8.785,-12.127,
50670150,-0.8,0.377,0.648,56.525,2.45,-12.915,
50670160,-0.815,0.362,0.643,54.337,-2.502,-12.88,
50670170,-0.82,0.39,0.656,52.64,-7.315,-14.56,
50670180,-0.841,0.438,0.674,47.757,-13.125,-17.815,
50670190,-0.864,0.425,0.648,40.302,-20.545,-19.092,
50670200,-0.869,0.417,0.641,38.517,-28.28,-14.052,
50670210,-0.818,0.456,0.596,29.767,-35.595,-16.94,
50670220,-0.83,0.443,0.555,23.8,-41.195,-19.127,
50670230,-0.838,0.43,0.53,19.635,-49.14,-20.597,
50670240,-0.816,0.423,0.517,15.995,-58.555,-22.347,
50670250,-0.788,0.42,0.519,13.737,-66.657,-21.822,
50670260,-0.763,0.425,0.521,11.707,-71.067,-19.915,
50670270,-0.739,0.455,0.542,8.452,-74.34,-19.81,
50670280,-0.721,0.479,0.545,-0.49,-74.427,-20.65,
50670290,-0.704,0.496,0.556,-10.15,-72.782,-24.22,
50670300,-0.721,0.51,0.545,-22.837,-71.417,-29.75,
50670310,-0.74,0.493,0.52,-37.52,-75.39,-37.222,
50670320,-0.739,0.459,0.491,-49.332,-84.857,-43.347,
50670330,-0.721,0.383,0.465,-53.69,-97.142,-42.857,
50670330,-0.668,0.35,0.45,-48.895,-107.975,-38.167,
50670350,-0.604,0.342,0.466,-37.782,-113.732,-31.08,
50670350,-0.54,0.368,0.504,-26.547,-111.282,-24.552,
50670370,-0.495,0.39,0.544,-16.94,-102.287,-21.385,
50670370,-0.454,0.401,0.58,-10.745,-87.885,-20.265,
50670390,-0.427,0.395,0.602,-6.72,-70.402,-20.877,
50670390,-0.438,0.393,0.619,-2.397,-51.327,-22.785,
50670410,-0.455,0.407,0.639,1.68,-33.267,-25.672,
50670410,-0.471,0.418,0.649,3.412,-18.2,-28.35,
50670420,-0.496,0.417,0.646,2.94,-9.397,-30.222,
50670430,-0.513,0.404,0.642,1.645,-6.632,-30.8,
50670440,-0.514,0.388,0.632,1.732,-8.12,-29.242,
50670450,-0.505,0.368,0.619,4.27,-11.392,-24.342,
50670460,-0.492,0.358,0.616,8.33,-14.455,-16.362,
50670470,-0.489,0.354,0.61,12.915,-16.782,-7.122,
50670480,-0.5,0.353,0.605,17.29,-17.937,0.647,
50670490,-0.507,0.364,0.623,21,-17.027,5.18,
50670500,-0.521,0.38,0.645,23.17,-14.892,7.367,
50670510,-0.538,0.376,0.67,23.187,-11.987,9.555,
50670520,-0.559,0.387,0.698,20.825,-9.345,11.357,
50670530,-0.564,0.406,0.723,16.082,-7.752,7.175,
50670540,-0.579,0.401,0.742,10.22,-7.14,3.412,
50670550,-0.594,0.378,0.748,4.34,-8.137,0.945,
50670560,-0.599,0.364,0.758,-0.14,-9.782,-0.49,
50670570,-0.623,0.343,0.748,-3.097,-13.335,0.385,
50670580,-0.631,0.329,0.757,-3.482,-17.29,1.312,
50670590,-0.62,0.321,0.769,-2.432,-20.737,2.065,
50670600,-0.604,0.318,0.771,-1.277,-21.665,3.447,
50670610,-0.597,0.323,0.793,0.717,-20.37,5.075,
50670620,-0.633,0.328,0.839,0.385,-17.552,5.652,
50670630,-0.667,0.34,0.894,-2.607,-15.015,1.907,
50670640,-0.709,0.331,0.938,-6.947,-13.72,-1.417,
50670650,-0.755,0.308,0.951,-11.672,-15.697,-2.555,
50670660,-0.742,0.305,0.949,-13.072,-18.865,-5.582,
50670670,-0.674,0.31,0.95,-12.25,-22.347,-9.642,
50670680,-0.655,0.306,0.893,-19.302,-23.607,-6.842,
50670690,-0.608,0.24,0.835,-17.08,-24.657,0.647,
50670700,-0.543,0.25,0.806,-5.145,-20.65,4.235,
50670710,-0.52,0.271,0.784,3.867,-12.25,11.882,
50670720,-0.522,0.285,0.779,12.757,-2.362,19.04,
50670730,-0.508,0.353,0.784,17.43,7.612,18.672,
50670740,-0.528,0.365,0.754,13.667,17.465,19.11,
50670750,-0.515,0.352,0.716,11.97,27.562,19.705,
50670760,-0.498,0.369,0.691,14.052,39.025,19.775,
50670760,-0.498,0.409,0.676,14.857,52.15,20.562,
50670780,-0.517,0.459,0.671,11.515,64.925,20.597,
50670780,-0.56,0.484,0.675,3.237,75.32,17.587,
50670800,-0.615,0.481,0.668,-8.085,82.705,11.725,
50670800,-0.67,0.456,0.661,-18.55,85.207,4.637,
50670820,-0.708,0.415,0.654,-25.322,83.702,-2.625,
50670820,-0.732,0.404,0.66,-29.015,80.027,-11.095,
50670830,-0.736,0.42,0.677,-33.32,75.915,-21.962,
50670840,-0.703,0.44,0.687,-40.565,73.937,-36.102,
50670850,-0.666,0.43,0.667,-49.367,73.307,-52.325,
50670860,-0.624,0.401,0.658,-58.992,72.24,-69.16,
50670870,-0.623,0.373,0.647,-65.905,67.357,-80.727,
50670880,-0.659,0.32,0.63,-71.225,55.422,-81.725,
50670890,-0.68,0.275,0.609,-75.582,36.487,-75.635,
50670900,-0.688,0.222,0.57,-73.885,15.435,-67.287,
50670910,-0.703,0.178,0.556,-64.225,-2.257,-53.777,
50670920,-0.712,0.161,0.56,-52.85,-14.63,-39.567,
50670930,-0.699,0.157,0.556,-41.615,-21.297,-28.63,
50670940,-0.689,0.123,0.606,-29.785,-19.967,-19.95,
50670950,-0.67,0.124,0.621,-24.395,-12.67,-14.735,
50670960,-0.666,0.132,0.657,-20.212,-1.277,-18.847,
50670970,-0.695,0.134,0.694,-20.545,12.32,-21.245,
50670980,-0.703,0.124,0.706,-24.15,23.625,-23.782,
50670990,-0.678,0.141,0.697,-26.565,32.532,-26.46,
50671000,-0.719,0.15,0.683,-30.502,41.055,-22.767,
50671010,-0.805,0.13,0.666,-36.225,41.93,-16.415,
50671020,-0.788,0.101,0.65,-39.777,35.052,-16.1,
50671030,-0.78,0.1,0.666,-38.885,24.045,-12.547,
50671040,-0.782,-0.005,0.612,-29.855,10.447,-0.822,
50671050,-0.697,0.073,0.651,-10.955,3.867,2.222,
50671060,-0.684,0.093,0.634,-9.625,3.605,4.725,
50671070,-0.772,0.057,0.662,-2.205,5.792,4.217,
50671080,-0.775,-0.017,0.698,6.002,1.907,-0.822,
50671080,-0.727,0.003,0.746,21.28,-1.505,-4.27,
50671100,-0.729,0.08,0.807,31.955,-8.645,-4.952,
50671100,-0.686,0.168,0.825,27.842,-16.467,-9.695,
50671120,-0.662,0.181,0.798,18.83,-20.09,-11.83,
50671120,-0.627,0.145,0.76,7.84,-18.305,-10.71,
50671140,-0.631,0.092,0.713,1.015,-10.395,-6.632,
50671140,-0.65,0.08,0.702,1.872,-0.77,-2.607,
50671160,-0.619,0.104,0.727,5.302,10.08,1.102,
50671160,-0.652,0.104,0.732,5.512,25.287,4.27,
50671170,-0.717,0.102,0.706,3.167,33.057,4.27,
50671180,-0.726,0.1,0.668,1.137,34.527,3.78,
50671190,-0.754,0.115,0.648,3.325,32.777,3.832,
50671200,-0.768,0.125,0.632,3.395,29.295,7.455,
50671210,-0.765,0.127,0.605,0.122,26.967,7.577,
50671220,-0.801,0.121,0.59,-0.07,26.005,5.845,
50671230,-0.824,0.125,0.6,0.332,23.502,6.02,
50671240,-0.843,0.152,0.616,-0.157,17.832,5.775,
50671250,-0.833,0.161,0.629,-2.047,10.815,5.232,
50671260,-0.811,0.146,0.624,-4.252,6.037,5.232,
50671270,-0.793,0.145,0.626,-4.042,4.707,5.092,
50671280,-0.788,0.146,0.624,-2.537,6.475,4.952,
50671290,-0.793,0.155,0.629,-0.892,7.735,4.445,
50671300,-0.784,0.162,0.632,0.892,8.907,3.937,
50671310,-0.784,0.174,0.63,2.012,8.312,4.217,
50671320,-0.762,0.186,0.629,1.925,7.35,4.287,
50671330,-0.758,0.182,0.637,1.82,6.37,4.007,
50671340,-0.76,0.171,0.642,1.575,6.002,4.007,
50671350,-0.776,0.164,0.645,1.732,5.005,4.357,
50671360,-0.787,0.17,0.638,1.505,3.902,4.427,
50671370,-0.808,0.171,0.626,0.507,2.782,3.92,
50671380,-0.828,0.164,0.617,0.437,2.065,2.275,
50671390,-0.796,0.158,0.617,0.21,0.315,-0.77,
50671400,-0.78,0.174,0.62,-0.682,0.63,-2.555,
50671410,-0.794,0.152,0.595,-4.06,1.015,1.75,
50671420,-0.787,0.15,0.604,-3.57,1.802,1.505,
50671430,-0.83,0.15,0.626,-1.942,1.68,2.047,
50671440,-0.795,0.144,0.631,-1.802,-0.507,0.962,
50671450,-0.751,0.15,0.636,-2.502,-0.997,0.577,
50671460,-0.745,0.144,0.645,-2.537,2.537,2.292,
50671470,-0.726,0.15,0.66,-2.642,7.717,4.392,
50671480,-0.741,0.163,0.684,-2.852,13.265,6.702,
50671490,-0.75,0.159,0.701,-5.145,17.587,7.227,
50671500,-0.731,0.133,0.724,-6.877,24.08,7,
50671510,-0.77,0.092,0.747,-7.122,31.465,7.56,
50671510,-0.81,0.066,0.766,-5.95,37.625,9.59,
50671530,-0.822,0.059,0.79,-3.99,41.282,11.742,
50671530,-0.875,0.031,0.82,-1.942,42.595,12.005,
50671550,-0.827,0.013,0.804,2.362,38.797,7.892,
50671550,-0.726,-0.025,0.823,14.21,40.285,7.455,
50671570,-0.711,-0.029,0.816,28.21,49.63,8.33,
50671570,-0.714,0.023,0.812,38.605,61.25,4.147,
50671580,-0.687,0.097,0.805,43.977,74.83,-4.76,
50671590,-0.708,0.15,0.773,45.377,88.585,-14.157,
50671600,-0.735,0.225,0.745,37.975,102.935,-27.23,
50671610,-0.786,0.218,0.673,22.347,110.827,-42.262,
50671620,-0.81,0.182,0.548,9.852,106.767,-53.217,
50671630,-0.824,0.119,0.397,8.627,94.412,-50.645,
50671640,-0.791,0.133,0.289,15.82,79.397,-38.867,
50671650,-0.776,0.174,0.262,24.447,69.387,-15.61,
50671660,-0.831,0.174,0.155,18.27,66.622,15.645,
50671670,-0.851,0.176,0.141,28.437,72.502,18.725,
50671680,-0.964,0.218,0.182,38.377,80.745,20.195,
50671690,-1.05,0.249,0.217,39.357,83.247,17.517,
50671700,-1.11,0.303,0.241,33.495,78.977,11.147,
50671710,-1.182,0.295,0.248,21.805,66.727,3.465,
50671720,-1.189,0.279,0.209,9.905,48.387,-0.367,
50671730,-1.143,0.29,0.211,2.152,31.045,-10.815,
50671740,-1.166,0.297,0.198,-7.332,13.142,-16.607,
50671750,-1.172,0.288,0.195,-14.332,-7.297,-25.182,
50671760,-1.158,0.273,0.19,-19.46,-28.577,-34.597,
50671770,-1.155,0.23,0.179,-20.702,-52.64,-42.7,
50671780,-1.116,0.199,0.188,-17.132,-76.072,-51.24,
50671790,-1.02,0.189,0.227,-13.545,-95.357,-57.242,
50671800,-0.967,0.179,0.26,-13.44,-109.025,-57.417,
50671810,-0.935,0.167,0.292,-13.37,-117.635,-58.187,
50671820,-0.905,0.139,0.315,-12.092,-123.252,-59.15,
50671830,-0.865,0.108,0.348,-7.297,-127.365,-57.627,
50671830,-0.796,0.135,0.39,-4.97,-127.155,-53.917,
50671850,-0.727,0.148,0.401,-7.315,-121.572,-47.705,
50671850,-0.667,0.116,0.417,-8.82,-109.812,-41.475,
50671870,-0.665,0.077,0.431,-9.275,-94.955,-31.447,
50671870,-0.681,0.052,0.45,-7.402,-78.96,-20.912,
50671890,-0.696,0.062,0.474,-5.11,-62.982,-12.95,
50671890,-0.734,0.067,0.498,-5.985,-48.107,-6.352,
50671910,-0.771,0.056,0.499,-9.992,-36.032,-3.395,
50671910,-0.794,0.051,0.496,-13.44,-26.775,-4.042,
50671920,-0.825,0.051,0.496,-14.402,-21.875,-3.99,
50671930,-0.852,0.051,0.494,-13.492,-22.977,-0.892,
50671940,-0.853,0.061,0.487,-11.637,-28.28,3.342,
50671950,-0.833,0.069,0.471,-9.555,-35.717,7.455,
50671960,-0.793,0.077,0.462,-7.542,-41.265,11.935,
50671970,-0.76,0.088,0.444,-6.02,-43.907,17.815,
50671980,-0.734,0.102,0.435,-5.442,-41.422,23.1,
50671990,-0.725,0.123,0.446,-5.39,-35.56,26.425,
50672000,-0.74,0.146,0.469,-7.017,-30.485,28.945,
50672010,-0.751,0.159,0.467,-11.76,-28.035,32.672,
50672020,-0.73,0.178,0.464,-16.73,-22.382,36.942,
50672030,-0.751,0.189,0.477,-22.645,-16.397,39.445,
50672040,-0.812,0.171,0.485,-31.605,-11.62,39.182,
50672050,-0.868,0.137,0.508,-37.047,-10.482,35.14,
50672060,-0.905,0.102,0.526,-36.977,-13.737,29.12,
50672070,-0.92,0.08,0.55,-31.762,-21.892,22.697,
50672080,-0.928,0.106,0.611,-24.115,-34.702,16.712,
50672090,-0.946,0.075,0.62,-17.027,-52.71,14.735,
50672100,-0.885,0.091,0.68,-2.852,-72.03,10.43,
50672110,-0.807,0.133,0.683,-1.382,-90.44,7.56,
50672120,-0.71,0.116,0.668,-0.875,-100.782,9.222,
50672130,-0.626,0.095,0.658,3.71,-102.917,15.977,
50672140,-0.584,0.083,0.664,9.52,-98.647,27.3,
50672150,-0.564,0.066,0.689,16.135,-87.972,31.36,
50672160,-0.634,0.008,0.727,24.745,-75.967,41.265,
50672170,-0.689,-0.044,0.76,34.65,-67.76,56.77,
50672180,-0.69,-0.017,0.855,44.73,-57.26,62.772,
50672190,-0.653,0.001,0.98,48.09,-41.545,58.625,
50672200,-0.7,0.057,1.002,44.03,-15.61,48.09,
50672210,-0.851,0.095,1.077,35.35,2.187,34.685,
50672220,-0.828,0.042,1.009,21.192,6.597,21.472,
50672230,-0.764,-0.068,0.907,21.157,8.925,24.08,
50672240,-0.689,-0.03,0.827,33.267,14.332,30.415,
50672250,-0.649,0.04,0.773,48.387,23.397,37.065,
50672260,-0.656,0.077,0.737,60.357,36.242,45.64,
50672260,-0.657,0.113,0.712,70.105,49.245,52.36,
50672280,-0.668,0.175,0.718,75.932,62.685,56.07,
50672280,-0.7,0.247,0.706,74.532,73.64,56.175,
50672290,-0.713,0.294,0.693,68.862,82.74,55.422,
50672300,-0.711,0.321,0.671,60.917,90.527,54.67,
50672310,-0.738,0.318,0.641,52.78,97.072,54.25,
50672320,-0.812,0.314,0.617,46.322,97.615,51.345,
50672330,-0.874,0.32,0.597,41.317,88.865,45.43,
50672340,-0.871,0.335,0.568,38.027,72.992,38.937,
50672350,-0.831,0.343,0.52,35.192,54.18,35.927,
50672360,-0.776,0.326,0.463,33.6,38.272,38.185,
50672370,-0.733,0.319,0.445,36.487,27.352,42.665,
50672380,-0.691,0.331,0.445,41.265,23.835,48.44,
50672390,-0.691,0.36,0.441,46.41,28.91,54.687,
50672400,-0.706,0.409,0.473,48.58,37.59,55.947,
50672410,-0.668,0.448,0.462,43.785,48.545,53.147,
50672420,-0.796,0.447,0.484,31.867,61.302,47.775,
50672430,-0.852,0.489,0.506,19.11,56.787,31.01,
50672440,-0.752,0.485,0.517,10.045,47.25,19.897,
50672450,-0.766,0.473,0.478,-1.365,39.007,20.79,
50672460,-0.812,0.461,0.464,-9.607,31.167,17.115,
50672470,-0.791,0.456,0.461,-15.54,21.192,7.91,
50672480,-0.77,0.429,0.441,-20.107,8.592,2.782,
50672490,-0.73,0.405,0.426,-21.962,-4.83,5.652,
50672500,-0.697,0.384,0.423,-19.967,-11.655,12.967,
50672510,-0.708,0.403,0.458,-15.89,-13.86,18.182,
50672520,-0.711,0.457,0.527,-15.207,-13.965,16.03,
50672530,-0.805,0.459,0.536,-20.72,-15.907,12.022,
50672540,-0.749,0.473,0.53,-30.485,-21.49,3.902,
50672550,-0.687,0.413,0.527,-36.225,-22.837,-3.482,
50672560,-0.731,0.352,0.527,-33.32,-20.877,-3.08,
50672570,-0.797,0.37,0.516,-30.397,-21.91,0.14,
50672580,-0.763,0.365,0.541,-23.537,-25.672,2.31,
50672580,-0.698,0.366,0.572,-14.122,-28.157,4.865,
50672600,-0.708,0.403,0.581,-10.237,-26.285,7.857,
50672600,-0.757,0.427,0.61,-12.95,-22.837,6.79,
50672620,-0.799,0.397,0.604,-20.685,-24.027,-1.19,
50672620,-0.654,0.348,0.594,-26.705,-26.145,-14.49,
50672640,-0.596,0.288,0.587,-21.087,-17.482,-15.855,
50672640,-0.628,0.3,0.6,-7.945,-5.11,-10.115,
50672660,-0.66,0.324,0.619,2.642,3.482,-3.325,
50672660,-0.777,0.341,0.639,10.22,8.802,3.902,
50672670,-0.847,0.39,0.628,14.017,1.435,3.377,
50672680,-0.841,0.395,0.594,8.732,-13.125,-0.56,
50672690,-0.81,0.368,0.564,4.322,-26.355,-2.467,
50672700,-0.824,0.388,0.557,3.412,-36.592,-2.852,
50672710,-0.845,0.408,0.549,3.132,-47.915,-5.635,
50672720,-0.758,0.415,0.555,3.43,-57.032,-11.987,
50672730,-0.682,0.444,0.557,-1.12,-60.777,-20.545,
50672740,-0.519,0.379,0.538,-13.055,-58.87,-28.805,
50672750,-0.157,0.244,0.508,-14.49,-28.297,-24.272,
50672760,-0.435,0.325,0.547,2.642,33.075,-5.635,
50672770,-0.843,0.466,0.61,6.387,64.697,-2.782,
50672780,-0.952,0.424,0.597,-6.387,59.027,-8.575,
50672790,-0.924,0.321,0.561,-12.757,36.977,-5.862,
50672800,-0.862,0.323,0.535,-12.652,15.592,-1.155,
50672810,-0.779,0.365,0.536,-9.17,4.112,0.595,
50672820,-0.79,0.362,0.547,-6.317,2.8,4.165,
50672830,-0.832,0.351,0.551,-6.072,2.467,8.61,
50672840,-0.866,0.37,0.542,-6.685,-0.822,12.232,
50672850,-0.924,0.398,0.538,-11.917,-8.505,13.842,
50672860,-0.933,0.39,0.543,-18.27,-21.07,14.227,
50672870,-1.01,0.354,0.585,-20.86,-40.355,16.887,
50672880,-0.976,0.313,0.605,-20.895,-69.65,21.612,
50672890,-0.811,0.358,0.676,-10.482,-92.435,28.77,
50672900,-0.788,0.423,0.712,-10.132,-105.665,34.562,
50672910,-0.749,0.419,0.695,-16.345,-112.752,34.02,
50672920,-0.664,0.405,0.69,-18.34,-111.58,32.865,
50672930,-0.602,0.4,0.689,-21.455,-103.267,30.922,
50672940,-0.556,0.397,0.691,-25.55,-91.577,25.55,
50672950,-0.516,0.38,0.675,-30.24,-80.29,17.745,
50672960,-0.513,0.368,0.673,-31.902,-69.895,11.34,
50672960,-0.519,0.366,0.661,-33.547,-62.632,7.035,
50672980,-0.556,0.36,0.652,-33.425,-58.292,6.492,
50672980,-0.599,0.354,0.642,-32.445,-57.137,7.752,
50673000,-0.607,0.355,0.653,-28.962,-56.875,9.415,
50673000,-0.605,0.355,0.671,-25.147,-55.37,10.237,
50673010,-0.616,0.353,0.688,-23.537,-52.482,10.5,
50673020,-0.665,0.342,0.699,-22.627,-51.642,11.322,
50673030,-0.697,0.337,0.719,-20.702,-55.545,12.547,
50673040,-0.693,0.334,0.734,-19.495,-62.475,13.492,
50673050,-0.677,0.321,0.732,-18.515,-70.612,14.805,
50673060,-0.657,0.322,0.73,-16.765,-77.857,17.062,
50673070,-0.64,0.331,0.74,-16.415,-84.735,18.515,
50673080,-0.624,0.33,0.752,-17.342,-91.105,20.212,
50673090,-0.592,0.338,0.772,-18.637,-96.477,21.332,
50673100,-0.573,0.35,0.796,-20.475,-97.982,21.927,
50673110,-0.557,0.361,0.819,-24.71,-97.422,19.967,
50673120,-0.528,0.353,0.831,-27.335,-94.622,17.622,
50673130,-0.513,0.36,0.864,-28.385,-90.597,15.767,
50673140,-0.653,0.497,0.893,-34.51,-90.125,10.045,
50673150,-0.603,0.297,0.793,-57.802,-118.597,-7.192,
50673160,0.201,0.16,0.741,-53.147,-115.92,-16.345,
50673170,-0.084,0.309,0.891,-24.605,-69.352,0.017,
50673180,-0.509,0.426,0.928,-31.255,-46.427,6.3,
50673190,-0.494,0.334,0.862,-41.86,-59.15,0.385,
50673200,-0.343,0.268,0.832,-36.242,-75.932,1.47,
50673210,-0.196,0.322,0.818,-29.242,-80.412,5.915,
50673220,-0.235,0.355,0.82,-27.195,-73.01,8.732,
50673230,-0.245,0.309,0.803,-30.327,-64.68,8.575,
50673240,-0.201,0.282,0.807,-29.715,-54.565,8.19,
50673250,-0.183,0.28,0.848,-26.687,-42.227,6.492,
50673260,-0.166,0.264,0.871,-26.022,-28.052,3.552,
50673270,-0.147,0.228,0.876,-25.672,-14.122,1.032,
50673280,-0.183,0.193,0.894,-22.925,-1.68,0.595,
50673290,-0.276,0.19,0.921,-21.665,3.36,1.645,
50673300,-0.345,0.18,0.917,-22.907,-1.47,0.752,
50673310,-0.363,0.172,0.921,-21.07,-11.917,0.787,
50673320,-0.373,0.156,0.906,-20.352,-23.905,1.417,
50673330,-0.247,0.151,0.87,-16.975,-31.22,1.137,
50673330,-0.213,0.193,0.863,-11.2,-23.695,2.87,
50673350,-0.323,0.222,0.861,-10.622,-11.322,4.2,
50673350,-0.403,0.213,0.865,-11.55,-7.157,2.712,
50673370,-0.421,0.201,0.854,-9.852,-11.62,2.572,
50673370,-0.397,0.215,0.839,-5.74,-18.9,4.165,
50673390,-0.354,0.239,0.838,-2.537,-23.38,5.617,
50673390,-0.33,0.251,0.85,-1.575,-23.31,5.565,
50673410,-0.327,0.248,0.867,-1.33,-21.437,4.55,
50673410,-0.325,0.256,0.905,-0.595,-21.385,3.622,
50673420,-0.314,0.268,0.915,-0.507,-23.012,4.2,
50673430,-0.308,0.268,0.926,-0.647,-25.637,4.882,
50673440,-0.307,0.266,0.934,-1.4,-29.312,4.97,
50673450,-0.286,0.262,0.948,-2.362,-33.967,5.075,
50673460,-0.294,0.272,0.979,-2.677,-37.152,5.18,
50673470,-0.3,0.272,1.003,-5.022,-43.925,3.22,
50673480,-0.186,0.251,0.996,-7.017,-46.427,1.26,
50673490,-0.155,0.265,1.028,-5.6,-38.447,0.052,
50673500,-0.174,0.282,1.055,-9.887,-27.86,-1.732,
50673510,-0.19,0.248,1.06,-15.96,-17.832,-3.307,
50673520,-0.224,0.227,1.078,-17.99,-10.727,-4.777,
50673530,-0.199,0.207,1.071,-19.915,-7.262,-7.017,
50673540,-0.159,0.162,1.049,-21.805,-2.275,-11.427,
50673550,-0.101,0.102,1.024,-20.282,4.777,-18.427,
50673560,-0.067,0.096,1.037,-14.052,13.02,-25.672,
50673570,-0.129,0.076,1.04,-10.395,18.217,-31.937,
50673580,-0.224,0.005,0.967,-6.86,15.207,-42.35,
50673590,-0.117,-0.026,0.92,6.912,12.11,-51.677,
50673600,-0.031,-0.005,0.868,27.23,20.702,-50.592,
50673610,-0.033,0.037,0.824,46.725,41.755,-44.24,
50673620,-0.097,0.102,0.796,59.29,64.942,-44.677,
50673630,-0.045,0.13,0.719,67.55,87.115,-56.945,
50673640,0.141,0.082,0.949,94.99,124.565,-73.482,
50673650,0.041,0.209,1.064,105.98,187.635,-65.677,
50673660,-0.289,0.211,1.044,112.035,253.627,-44.31,
50673670,-0.693,0.316,0.967,138.372,283.902,-28.962,
50673670,-0.896,0.315,0.908,154.49,269.885,-11.095,
50673690,-0.918,0.351,0.824,169.68,232.557,10.815,
50673690,-0.869,0.418,0.73,186.287,184.362,28.787,
50673710,-0.766,0.495,0.661,200.532,139.265,45.745,
50673710,-0.702,0.554,0.568,201.862,102.655,56.595,
50673730,-0.662,0.608,0.488,196,75.74,57.4,
50673730,-0.612,0.631,0.403,184.887,57.382,52.937,
50673750,-0.594,0.608,0.306,173.092,41.545,50.82,
50673750,-0.595,0.599,0.229,160.125,23.607,49.875,
50673760,-0.585,0.595,0.155,145.337,1.172,46.76,
50673770,-0.549,0.557,0.103,130.672,-24.465,42.647,
50673780,-0.522,0.512,0.057,114.835,-49.367,42.122,
50673790,-0.507,0.458,0.023,94.482,-71.102,42.717,
50673800,-0.454,0.456,0.044,72.327,-87.832,37.24,
50673810,-0.362,0.512,0.171,47.88,-94.622,25.27,
50673820,-0.308,0.56,0.292,20.86,-88.462,12.25,
50673830,-0.276,0.618,0.435,-5.25,-72.905,-1.732,
50673840,-0.298,0.631,0.55,-31.395,-52.045,-14.91,
50673850,-0.359,0.597,0.637,-52.675,-33.18,-26.88,
50673860,-0.415,0.533,0.681,-63.962,-21.07,-36.47,
50673870,-0.435,0.507,0.703,-64.137,-15.802,-42.665,
50673880,-0.429,0.502,0.716,-56.98,-13.877,-44.555,
50673890,-0.407,0.49,0.715,-46.235,-13.387,-44.1,
50673900,-0.372,0.497,0.725,-33.232,-11.2,-41.755,
50673910,-0.393,0.502,0.744,-19.267,-8.662,-35.472,
50673920,-0.416,0.528,0.755,-8.067,-5.407,-30.905,
50673930,-0.444,0.537,0.751,2.59,-2.537,-27.352,
50673940,-0.477,0.576,0.754,11.55,0.35,-25.445,
50673950,-0.502,0.617,0.745,16.415,1.697,-24.412,
50673960,-0.549,0.563,0.697,17.885,2.082,-22.505,
50673970,-0.602,0.583,0.694,24.535,-0.805,-16.065,
50673980,-0.602,0.629,0.696,24.412,-6.562,-17.955,
50673990,-0.622,0.629,0.705,24.325,-13.422,-18.2,
50674000,-0.611,0.642,0.726,22.61,-20.212,-14.84,
50674010,-0.634,0.655,0.759,20.86,-27.09,-8.12,
50674020,-0.679,0.722,0.875,20.107,-31.5,-5.565,
50674030,-0.752,0.784,0.971,10.237,-33.425,-9.747,
50674040,-0.841,0.77,1.011,0.192,-35.157,-16.8,
50674050,-0.851,0.734,0.996,-4.427,-36.225,-25.007,
50674060,-0.727,0.649,0.913,-2.222,-33.197,-29.522,
50674070,-0.549,0.525,0.807,9.257,-23.24,-24.727,
50674080,-0.461,0.441,0.726,29.155,-6.51,-10.185,
50674080,-0.478,0.439,0.695,51.992,11.48,6.457,
50674100,-0.51,0.487,0.685,70.787,25.182,17.342,
50674100,-0.495,0.533,0.665,81.112,33.74,21.735,
50674120,-0.464,0.557,0.632,83.212,39.917,21.525,
50674120,-0.433,0.574,0.599,80.062,44.677,17.5,
50674140,-0.408,0.593,0.558,72.922,47.337,11.882,
50674140,-0.407,0.587,0.532,64.435,48.51,6.527,
50674160,-0.42,0.588,0.512,52.377,47.827,1.785,
50674160,-0.434,0.586,0.494,39.287,45.395,-4.077,
50674170,-0.46,0.584,0.487,26.687,41.982,-10.43,
50674180,-0.494,0.578,0.476,13.667,37.345,-16.677,
50674190,-0.534,0.571,0.468,2.38,30.73,-22.662,
50674200,-0.561,0.577,0.474,-7.157,23.257,-28.245,
50674210,-0.593,0.587,0.488,-15.82,15.05,-32.882,
50674220,-0.631,0.591,0.508,-23.8,7.945,-35.997,
50674230,-0.676,0.606,0.528,-30.397,0.84,-37.625,
50674240,-0.713,0.629,0.554,-34.825,-3.92,-38.71,
50674250,-0.747,0.628,0.564,-37.485,-6.65,-37.1,
50674260,-0.751,0.627,0.565,-36.89,-7.577,-34.072,
50674270,-0.752,0.603,0.554,-33.232,-8.05,-27.632,
50674280,-0.74,0.596,0.55,-25.48,-8.4,-18.637,
50674290,-0.715,0.589,0.538,-17.325,-9.31,-9.432,
50674300,-0.691,0.575,0.532,-7.91,-9.905,0.122,
50674310,-0.655,0.592,0.534,0.28,-10.85,6.177,
50674320,-0.614,0.602,0.538,5.145,-10.745,8.907,
50674330,-0.579,0.6,0.541,5.985,-10.955,10.185,
50674340,-0.556,0.602,0.544,3.64,-10.657,9.905,
50674350,-0.55,0.606,0.55,-0.717,-10.587,7.35,
50674360,-0.551,0.598,0.554,-6.265,-10.902,3.99,
50674370,-0.554,0.589,0.562,-11.742,-12.722,0.542,
50674380,-0.561,0.587,0.574,-16.677,-15.032,-2.03,
50674390,-0.566,0.588,0.588,-20.877,-17.465,-4.707,
50674400,-0.569,0.579,0.597,-24.745,-18.585,-7.052,
50674410,-0.574,0.562,0.604,-27.44,-19.425,-8.522,
50674420,-0.582,0.545,0.609,-28.105,-19.25,-8.557,
50674420,-0.588,0.53,0.614,-26.705,-18.55,-7.385,
50674440,-0.59,0.515,0.612,-23.922,-17.272,-5.617,
50674440,-0.588,0.505,0.612,-20.037,-16.117,-4.025,
50674460,-0.581,0.507,0.618,-15.907,-14.42,-2.257,
50674460,-0.571,0.512,0.623,-12.057,-12.005,-0.332,
50674480,-0.56,0.518,0.625,-8.82,-8.522,1.155,
50674480,-0.551,0.52,0.62,-6.58,-4.427,1.837,
50674500,-0.551,0.517,0.614,-5.092,-0.787,2.135,
50674500,-0.557,0.518,0.612,-3.745,1.855,2.38,
50674510,-0.566,0.528,0.614,-2.555,3.29,2.607,
50674520,-0.568,0.539,0.614,-2.1,4.095,2.59,
50674530,-0.565,0.543,0.61,-2.345,4.375,2.065,
50674540,-0.566,0.543,0.603,-3.045,4.76,1.382,
50674550,-0.573,0.547,0.598,-3.517,5.092,0.647,
50674560,-0.578,0.553,0.597,-3.955,5.617,-0.07,
50674570,-0.582,0.557,0.595,-4.515,5.512,-0.927,
50674580,-0.582,0.559,0.592,-5.232,5.74,-1.82,
50674590,-0.586,0.561,0.594,-5.985,5.355,-2.555,
50674600,-0.592,0.558,0.593,-7.157,4.952,-2.887,
50674610,-0.594,0.554,0.591,-8.102,4.27,-3.185,
50674620,-0.599,0.549,0.592,-8.89,3.99,-3.167,
50674630,-0.605,0.543,0.592,-9.432,2.94,-3.255,
50674640,-0.611,0.538,0.597,-9.485,2.135,-3.185,
50674650,-0.615,0.535,0.599,-9.24,0.63,-2.835,
50674660,-0.612,0.531,0.6,-8.68,-0.717,-2.467,
50674670,-0.603,0.527,0.601,-8.05,-2.082,-2.012,
50674680,-0.6,0.52,0.602,-7.56,-2.467,-1.137,
50674690,-0.604,0.515,0.6,-6.947,-3.08,-0.42,
50674700,-0.606,0.513,0.603,-6.265,-3.272,0.07,
50674710,-0.602,0.511,0.606,-5.74,-4.095,0.385,
50674720,-0.6,0.513,0.613,-5.757,-4.445,0.857,
50674730,-0.598,0.512,0.614,-6.107,-5.092,0.735,
50674740,-0.588,0.503,0.613,-6.492,-5.442,0.262,
50674750,-0.583,0.494,0.611,-7.07,-6.317,0.14,
50674760,-0.583,0.494,0.62,-7.297,-6.912,0.385,
50674770,-0.593,0.499,0.632,-7.63,-7.98,0.437,
50674780,-0.594,0.5,0.629,-8.067,-8.417,0.14,
50674790,-0.585,0.499,0.626,-7.805,-8.907,-0.105,
50674800,-0.581,0.494,0.619,-7.315,-8.47,0.21,
50674810,-0.579,0.501,0.623,-6.037,-7.665,0.437,
50674820,-0.578,0.51,0.625,-5.04,-6.422,0.857,
50674830,-0.578,0.515,0.63,-4.357,-5.355,1.085,
50674830,-0.586,0.518,0.627,-4.095,-4.445,1.225,
50674850,-0.583,0.518,0.625,-3.517,-4.41,1.12,
50674850,-0.575,0.52,0.619,-2.782,-4.777,1.61,
50674870,-0.565,0.528,0.621,-2.03,-4.445,2.275,
50674870,-0.563,0.537,0.622,-1.89,-3.29,2.275,
50674890,-0.56,0.543,0.619,-2.537,-1.592,1.645,
50674890,-0.561,0.542,0.614,-3.517,0.105,0.927,
50674910,-0.562,0.542,0.612,-4.882,1.925,0.437,
50674910,-0.572,0.546,0.613,-6.58,3.29,-0.035,
50674920,-0.582,0.548,0.613,-8.365,4.375,-0.525,
50674930,-0.589,0.547,0.613,-10.08,4.532,-0.84,
50674940,-0.596,0.54,0.61,-12.04,4.287,-0.84,
50674950,-0.611,0.53,0.604,-13.335,2.887,-1.295,
50674960,-0.617,0.524,0.604,-13.79,1.382,-1.977,
50674970,-0.621,0.515,0.603,-13.965,-0.84,-2.31,
50674980,-0.621,0.515,0.611,-13.685,-2.642,-2.66,
50674990,-0.611,0.517,0.618,-13.632,-4.322,-2.975,
50675000,-0.601,0.514,0.619,-14.402,-5.022,-2.905,
50675010,-0.589,0.514,0.624,-15.557,-5.32,-3.237,
50675020,-0.578,0.517,0.626,-17.815,-4.427,-3.552,
50675030,-0.578,0.514,0.625,-21.227,-3.692,-3.937,
50675040,-0.592,0.501,0.623,-25.025,-3.552,-4.865,
50675050,-0.624,0.484,0.627,-27.667,-6.072,-6.475,
50675060,-0.658,0.464,0.635,-28.735,-11.147,-7.525,
50675070,-0.666,0.449,0.641,-27.02,-18.41,-7.297,
50675080,-0.645,0.445,0.646,-22.592,-24.745,-5.582,
50675090,-0.61,0.447,0.652,-17.097,-28.682,-2.782,
50675100,-0.578,0.449,0.66,-11.515,-28.367,0.175,
50675110,-0.548,0.452,0.665,-6.965,-25.287,2.152,
50675120,-0.522,0.456,0.666,-4.06,-18.812,2.782,
50675130,-0.521,0.459,0.664,-2.87,-11.847,2.362,
50675140,-0.526,0.455,0.669,-2.747,-5.53,1.452,
50675150,-0.541,0.457,0.673,-2.922,-1.715,0.35,
50675160,-0.557,0.46,0.679,-3.71,-0.385,-0.997,
50675170,-0.566,0.461,0.684,-4.812,-1.61,-2.38,
50675170,-0.566,0.458,0.683,-6.142,-4.007,-2.922,
50675190,-0.565,0.461,0.685,-7.525,-6.72,-2.817,
50675190,-0.563,0.465,0.684,-9.082,-8.382,-2.362,
50675210,-0.564,0.464,0.676,-10.5,-9.117,-1.837,
50675210,-0.563,0.457,0.67,-11.497,-8.627,-1.47,
50675230,-0.575,0.449,0.665,-11.672,-7.91,-1.277,
50675230,-0.588,0.453,0.664,-10.937,-7,-1.26,
50675250,-0.588,0.454,0.664,-9.38,-6.072,-1.242,
50675250,-0.587,0.455,0.665,-7.455,-5.442,-1.172,
50675260,-0.587,0.456,0.669,-5.635,-5.005,-1.05,
50675270,-0.584,0.457,0.673,-3.972,-4.952,-0.385,
50675280,-0.577,0.461,0.672,-2.607,-4.655,0.647,
50675290,-0.573,0.465,0.67,-1.767,-4.217,1.505,
50675300,-0.571,0.467,0.67,-1.47,-3.185,1.942,
50675310,-0.574,0.467,0.672,-1.557,-2.73,2.135,
50675320,-0.573,0.473,0.672,-1.592,-2.275,2.572,
50675330,-0.567,0.48,0.669,-1.47,-2.187,2.975,
50675340,-0.558,0.482,0.669,-1.505,-1.697,3.115,
50675350,-0.561,0.481,0.666,-1.54,-1.505,3.202,
50675360,-0.578,0.48,0.663,-1.347,-1.312,3.15,
50675370,-0.584,0.489,0.666,-0.56,-1.995,2.222,
50675380,-0.575,0.495,0.666,-0.017,-2.537,1.365,
50675390,-0.562,0.493,0.664,0.035,-2.852,0.7,
50675400,-0.557,0.491,0.662,-0.315,-2.257,0.21,
50675410,-0.564,0.492,0.662,-1.12,-1.662,-0.367,
50675420,-0.569,0.49,0.665,-2.537,-0.84,-1.155,
50675430,-0.571,0.485,0.666,-4.235,-0.787,-2.152,
50675440,-0.579,0.477,0.668,-5.652,-0.77,-2.817,
50675450,-0.587,0.473,0.671,-6.282,-1.487,-3.167,
50675460,-0.589,0.467,0.674,-6.737,-2.345,-3.255,
50675470,-0.59,0.454,0.673,-6.982,-3.937,-3.517,
50675480,-0.59,0.441,0.673,-6.982,-5.005,-3.78,
50675490,-0.587,0.436,0.674,-6.667,-6.282,-3.972,
50675500,-0.586,0.431,0.677,-6.492,-6.912,-3.815,
50675510,-0.582,0.427,0.676,-6.247,-7.245,-3.832,
50675520,-0.58,0.42,0.678,-5.792,-7.192,-3.71,
50675530,-0.583,0.416,0.681,-5.39,-7.542,-3.325,
50675540,-0.583,0.416,0.681,-5.04,-7.63,-2.537,
50675550,-0.58,0.417,0.682,-4.532,-7.84,-1.925,
50675560,-0.577,0.416,0.684,-4.06,-7.822,-1.54,
50675570,-0.573,0.419,0.686,-3.885,-7.875,-1.347,
50675580,-0.575,0.42,0.688,-3.762,-7.91,-0.805,
50675580,-0.572,0.425,0.69,-3.447,-8.19,-0.455,
50675600,-0.571,0.429,0.692,-3.377,-8.487,-0.192,
50675600,-0.571,0.434,0.692,-3.342,-8.802,-0.105,
50675620,-0.568,0.438,0.691,-3.22,-9.292,-0.14,
50675620,-0.563,0.445,0.69,-3.202,-9.555,-0.35,
50675640,-0.557,0.45,0.69,-3.29,-9.782,-0.647,
50675640,-0.556,0.454,0.691,-3.71,-9.782,-0.98,
50675660,-0.556,0.457,0.692,-4.217,-9.73,-1.225,
50675660,-0.552,0.461,0.691,-4.742,-9.432,-1.277,
50675670,-0.551,0.461,0.69,-5.25,-9.345,-1.417,
50675680,-0.551,0.461,0.692,-5.652,-8.75,-1.82,
50675690,-0.554,0.458,0.693,-6.16,-8.382,-2.222,
50675700,-0.551,0.455,0.693,-6.702,-7.927,-2.765,
50675710,-0.556,0.451,0.695,-7.35,-7.752,-2.922,
50675720,-0.56,0.449,0.69,-7.857,-7.227,-3.01,
50675730,-0.562,0.451,0.695,-7.84,-7.052,-2.957,
50675740,-0.563,0.45,0.692,-7.402,-6.51,-2.625,
50675750,-0.571,0.452,0.694,-6.667,-6.002,-2.257,
50675760,-0.569,0.455,0.693,-5.635,-5.232,-2.24,
50675770,-0.56,0.455,0.696,-4.637,-5.022,-2.257,
50675780,-0.559,0.452,0.695,-4.322,-4.095,-1.977,
50675790,-0.558,0.449,0.699,-3.99,-3.955,-1.995,
50675800,-0.561,0.444,0.701,-4.182,-3.99,-1.855,
50675810,-0.565,0.437,0.707,-4.182,-4.917,-1.872,
50675820,-0.563,0.434,0.709,-4.515,-5.705,-2.082,
50675830,-0.556,0.428,0.71,-5.267,-7.105,-2.432,
50675840,-0.554,0.421,0.711,-6.125,-7.822,-2.467,
50675850,-0.553,0.418,0.712,-6.772,-8.347,-2.572,
50675860,-0.552,0.414,0.715,-7.402,-8.225,-2.625,
50675870,-0.557,0.409,0.715,-7.735,-8.207,-2.327,
50675880,-0.555,0.405,0.712,-7.612,-7.297,-1.82,
50675890,-0.553,0.401,0.713,-7.14,-6.667,-1.487,
50675900,-0.561,0.397,0.713,-6.527,-5.705,-0.892,
50675910,-0.568,0.397,0.714,-5.32,-5.145,-0.28,
50675920,-0.568,0.4,0.717,-4.007,-5.057,0.122,
50675920,-0.563,0.404,0.718,-2.887,-5.302,0.735,
50675940,-0.563,0.407,0.717,-1.855,-5.355,1.452,
50675940,-0.557,0.414,0.717,-1.172,-5.565,1.942,
50675960,-0.548,0.419,0.715,-0.945,-5.687,2.362,
50675960,-0.545,0.424,0.714,-1.172,-5.582,2.467,
50675980,-0.543,0.427,0.714,-1.662,-5.197,1.907,
50675980,-0.543,0.429,0.714,-2.572,-4.97,1.137,
50676000,-0.543,0.431,0.715,-3.377,-4.865,0.507,
50676000,-0.543,0.433,0.715,-4.042,-4.76,0.122,
50676010,-0.542,0.434,0.716,-4.62,-4.795,-0.105,
50676020,-0.546,0.434,0.718,-5.005,-4.567,0.087,
50676030,-0.547,0.435,0.715,-5.092,-4.392,0.28,
50676040,-0.543,0.437,0.714,-5.18,-3.745,0.42,
50676050,-0.545,0.437,0.713,-5.425,-2.975,0.42,
50676060,-0.548,0.435,0.711,-5.67,-1.942,0.052,
50676070,-0.553,0.429,0.711,-5.827,-1.417,-0.56,
50676080,-0.558,0.423,0.714,-5.81,-1.137,-0.787,
50676090,-0.562,0.42,0.717,-5.46,-1.837,-0.595,
50676100,-0.566,0.416,0.718,-5.127,-2.45,-0.315,
50676110,-0.563,0.411,0.719,-4.637,-3.36,-0.157,
50676120,-0.556,0.405,0.72,-4.375,-3.675,0.175,
50676130,-0.552,0.402,0.721,-4.2,-3.92,0.455,
50676140,-0.553,0.401,0.722,-3.972,-3.22,0.752,
50676150,-0.553,0.402,0.724,-3.64,-2.817,0.962,
50676160,-0.553,0.399,0.724,-3.447,-2.397,1.295,
50676170,-0.551,0.4,0.725,-3.15,-2.415,1.61,
50676180,-0.552,0.401,0.726,-2.94,-1.907,2.047,
50676190,-0.552,0.404,0.724,-2.922,-2.012,2.31,
50676200,-0.549,0.406,0.725,-2.975,-1.627,2.572,
50676210,-0.545,0.407,0.722,-2.782,-1.452,2.87,
50676220,-0.547,0.41,0.722,-2.66,-0.84,3.202,
50676230,-0.551,0.413,0.722,-2.38,-0.665,3.43,
50676240,-0.552,0.415,0.721,-2.222,-0.367,3.657,
50676250,-0.554,0.415,0.72,-2.047,-0.595,3.587,
50676260,-0.556,0.416,0.718,-1.732,-0.56,3.412,
50676270,-0.556,0.415,0.716,-1.347,-0.84,3.15,
50676280,-0.554,0.417,0.717,-0.962,-0.927,2.817,
50676290,-0.551,0.419,0.717,-0.91,-1.207,2.607,
50676300,-0.551,0.419,0.717,-1.015,-1.015,2.642,
50676310,-0.55,0.42,0.719,-1.277,-0.84,2.572,
50676320,-0.553,0.418,0.719,-1.715,-0.612,2.607,
50676330,-0.553,0.416,0.718,-2.117,-0.525,2.432,
50676330,-0.552,0.415,0.72,-2.485,-0.525,2.275,
50676350,-0.552,0.413,0.72,-2.975,-0.595,2.117,
50676350,-0.553,0.409,0.722,-3.36,-0.735,2.1,
50676370,-0.556,0.407,0.726,-3.622,-1.015,2.45,
50676370,-0.559,0.405,0.727,-3.727,-1.592,3.08,
50676380,-0.557,0.403,0.722,-3.675,-2.012,3.762,
50676390,-0.551,0.401,0.72,-3.342,-2.222,4.252,
50676400,-0.548,0.403,0.722,-2.992,-1.61,4.655,
50676410,-0.552,0.401,0.718,-2.922,-1.102,4.882,
50676420,-0.552,0.404,0.722,-2.835,-0.612,4.882,
50676430,-0.557,0.405,0.72,-2.887,-0.84,4.987,
50676440,-0.559,0.407,0.724,-2.817,-1.102,4.882,
50676450,-0.558,0.409,0.722,-2.625,-1.942,4.357,
50676460,-0.556,0.413,0.722,-2.38,-2.205,4.13,
50676470,-0.545,0.415,0.719,-1.942,-2.817,3.937,
50676480,-0.543,0.416,0.722,-1.715,-2.607,4.13,
50676490,-0.541,0.42,0.721,-1.242,-1.872,4.042,
50676500,-0.544,0.421,0.719,-0.752,-0.84,3.99,
50676510,-0.543,0.419,0.716,-0.332,-0.28,3.71,
50676520,-0.544,0.423,0.711,0.157,0.892,3.535,
50676530,-0.551,0.428,0.714,0.455,1.592,3.325,
50676540,-0.548,0.43,0.715,0.455,2.152,2.695,
50676550,-0.555,0.434,0.72,0.105,1.925,2.275,
50676560,-0.567,0.435,0.716,-0.875,1.995,2.292,
50676570,-0.557,0.427,0.711,-1.19,0.7,1.715,
50676580,-0.548,0.417,0.705,-1.89,0.07,1.907,
50676590,-0.554,0.419,0.706,-1.715,0.28,2.362,
50676600,-0.561,0.429,0.717,-1.907,0.997,2.187,
50676610,-0.565,0.424,0.721,-3.027,0.56,1.54,
50676620,-0.574,0.417,0.722,-3.57,0.035,1.225,
50676630,-0.574,0.41,0.718,-3.307,-1.557,1.47,
50676640,-0.563,0.4,0.712,-2.397,-3.202,2.345,
50676650,-0.553,0.4,0.713,-0.805,-3.955,3.307,
50676660,-0.546,0.413,0.723,0.787,-3.01,3.85,
50676670,-0.539,0.415,0.722,1.19,-1.347,3.797,
50676670,-0.538,0.413,0.717,1.347,1.155,3.605,
50676690,-0.54,0.417,0.712,1.855,3.692,3.692,
50676690,-0.535,0.422,0.708,2.467,5.967,3.92,
50676710,-0.535,0.424,0.705,2.747,8.312,4.182,
50676710,-0.535,0.432,0.706,3.08,11.112,3.885,
50676730,-0.539,0.439,0.709,2.8,13.65,3.255,
50676730,-0.549,0.438,0.707,1.785,15.54,2.887,
50676750,-0.56,0.432,0.699,1.137,16.87,2.73,
50676750,-0.561,0.429,0.692,1.417,17.762,2.572,
50676760,-0.556,0.43,0.69,2.082,19.582,2.432,
50676770,-0.558,0.429,0.681,3.062,22.855,1.925,
50676780,-0.556,0.427,0.674,4.2,28.402,0.735,
50676790,-0.556,0.427,0.664,5.827,35.962,-0.315,
50676800,-0.569,0.425,0.655,7.577,45.167,-0.752,
50676810,-0.595,0.419,0.65,9.432,54.18,-1.102,
50676820,-0.608,0.418,0.653,11.322,63.122,-0.7,
50676830,-0.615,0.416,0.654,13.037,71.347,1.872,
50676840,-0.617,0.416,0.657,14.157,81.077,5.932,
50676850,-0.601,0.436,0.664,13.737,91.385,10.395,
50676860,-0.55,0.442,0.65,11.637,106.207,16.642,
50676870,-0.478,0.451,0.644,8.715,131.197,22.715,
50676880,-0.385,0.493,0.638,3.237,168.402,24.85,
50676890,-0.26,0.568,0.636,-12.95,216.055,24.412,
50676900,-0.345,0.633,0.553,-41.055,272.65,21.035,
50676910,-0.585,0.617,0.371,-74.392,324.187,6.107,
50676920,-0.81,0.515,0.256,-102.97,351.05,-19.757,
50676930,-0.93,0.348,0.13,-117.355,347.007,-44.31,
50676940,-1.052,0.224,0.127,-109.077,314.79,-53.847,
50676950,-1.18,0.224,0.224,-86.45,259.56,-44.397,
50676960,-1.182,0.334,0.402,-63.227,193.06,-27.422,
50676970,-1.131,0.393,0.418,-58.537,132.632,-8.697,
50676980,-1.169,0.325,0.406,-54.25,80.342,3.097,
50676990,-1.152,0.35,0.355,-46.427,37.66,-3.272,
50677000,-1.123,0.331,0.376,-32.865,4.83,-12.88,
50677010,-0.968,0.36,0.338,-26.845,-22.26,-23.047,
50677020,-0.836,0.363,0.327,-26.495,-35.437,-26.565,
50677030,-0.804,0.326,0.306,-29.522,-31.832,-24.132,
50677040,-0.811,0.328,0.321,-23.712,-22.68,-26.285,
50677050,-0.857,0.325,0.31,-19.18,-17.36,-25.41,
50677050,-0.912,0.307,0.301,-14.77,-17.167,-20.895,
50677070,-0.93,0.309,0.295,-9.45,-20.335,-19.18,
50677070,-0.944,0.314,0.288,-1.942,-23.52,-18.935,
50677080,-0.961,0.318,0.283,4.322,-27.282,-20.632,
50677090,-0.948,0.336,0.291,9.415,-31.727,-24.692,
50677100,-0.92,0.341,0.301,13.807,-37.38,-27.597,
50677110,-0.869,0.346,0.324,16.642,-41.422,-29.347,
50677120,-0.802,0.361,0.361,16.17,-42.735,-29.785,
50677130,-0.768,0.358,0.365,12.6,-40.442,-27.02,
50677140,-0.761,0.349,0.372,7.455,-33.11,-22.855,
50677150,-0.802,0.334,0.374,0.997,-22.995,-19.81,
50677160,-0.89,0.316,0.373,-4.917,-14.315,-19.582,
50677170,-0.965,0.292,0.368,-8.452,-11.235,-21.525,
50677180,-0.99,0.277,0.36,-8.96,-13.947,-24.255,
50677190,-0.964,0.266,0.36,-7.192,-20.352,-26.022,
50677200,-0.929,0.244,0.356,-3.237,-26.337,-26.162,
50677210,-0.888,0.253,0.371,0.927,-30.065,-26.215,
