#Format version: 1.0
time[ms],accX[g],accY[g],accZ[g],Value 1,Value 2,Value 3,
37048270,-0.094,-0.095,0.983,0.42,-9.17,-0.7,
37048280,-0.093,-0.093,0.984,-0.122,-10.15,-0.717,
37048290,-0.087,-0.096,0.984,-0.542,-11.76,-0.875,
37048300,-0.082,-0.096,0.984,-1.032,-12.442,-0.787,
37048310,-0.075,-0.098,0.983,-1.26,-13.667,-0.927,
37048320,-0.062,-0.098,0.981,-1.54,-13.755,-0.892,
37048330,-0.054,-0.103,0.98,-1.54,-14,-1.032,
37048330,-0.034,-0.106,0.977,-1.452,-13.072,-0.875,
37048350,-0.013,-0.107,0.973,-0.822,-11.935,-0.752,
37048350,-0.021,-0.104,0.974,-0.017,-9.03,-0.21,
37048370,-0.027,-0.101,0.975,0.717,-7.262,0.157,
37048370,-0.034,-0.097,0.976,1.242,-5.092,0.805,
37048390,-0.045,-0.094,0.977,1.662,-4.2,1.137,
37048390,-0.04,-0.098,0.976,1.767,-3.027,1.557,
37048410,-0.037,-0.096,0.975,2.135,-2.45,1.767,
37048410,-0.042,-0.096,0.974,2.397,-1.137,2.065,
37048420,-0.047,-0.097,0.974,2.782,-0.77,2.03,
37048430,-0.059,-0.099,0.976,2.905,-0.175,1.872,
37048440,-0.067,-0.101,0.978,3.045,-0.542,1.505,
37048450,-0.078,-0.099,0.98,2.957,-0.77,1.225,
37048460,-0.079,-0.101,0.98,2.887,-1.732,0.84,
37048470,-0.077,-0.098,0.982,2.677,-2.24,0.717,
37048480,-0.076,-0.099,0.983,2.502,-3.01,0.682,
37048490,-0.078,-0.101,0.983,2.292,-3.43,0.857,
37048500,-0.083,-0.097,0.982,2.187,-4.13,0.857,
37048510,-0.081,-0.093,0.984,1.767,-4.987,0.857,
37048520,-0.084,-0.094,0.983,1.155,-6.09,0.735,
37048530,-0.075,-0.094,0.982,0.525,-7.175,0.805,
37048540,-0.072,-0.096,0.982,0.052,-7.91,0.84,
37048550,-0.069,-0.099,0.98,-0.14,-8.487,0.875,
37048560,-0.062,-0.101,0.98,-0.175,-8.627,0.84,
37048570,-0.051,-0.102,0.979,-0.07,-8.557,0.822,
37048580,-0.048,-0.102,0.979,0.14,-7.682,1.12,
37048590,-0.048,-0.102,0.979,0.507,-7.087,1.382,
37048600,-0.055,-0.102,0.981,0.77,-6.125,1.732,
37048610,-0.066,-0.101,0.981,0.84,-5.985,1.82,
37048620,-0.072,-0.1,0.983,0.595,-5.897,1.767,
37048630,-0.073,-0.1,0.983,0.402,-6.685,1.557,
37048640,-0.078,-0.1,0.984,-0.07,-6.947,1.312,
37048650,-0.075,-0.099,0.984,-0.49,-8.155,1.015,
37048660,-0.067,-0.1,0.983,-1.05,-8.627,0.682,
37048670,-0.059,-0.099,0.983,-1.4,-9.38,0.472,
37048680,-0.053,-0.101,0.983,-1.802,-8.995,0.595,
37048690,-0.038,-0.104,0.982,-1.96,-8.907,0.805,
37048700,-0.037,-0.098,0.981,-2.1,-7.245,1.225,
37048710,-0.037,-0.104,0.979,-2.17,-6.125,1.575,
37048720,-0.041,-0.093,0.989,-2.31,-4.287,1.96,
37048730,-0.043,-0.094,0.992,-3.22,-2.782,1.837,
37048730,-0.055,-0.098,0.993,-4.27,-0.525,2.065,
37048750,-0.075,-0.096,0.99,-5.407,0.192,2.047,
37048750,-0.071,-0.109,0.983,-6.615,0.437,2.047,
37048760,-0.07,-0.115,0.979,-6.79,-0.192,1.96,
37048770,-0.067,-0.121,0.975,-6.632,-0.105,1.977,
37048780,-0.067,-0.127,0.971,-5.915,-0.752,1.592,
37048790,-0.063,-0.135,0.966,-4.69,-0.735,1.295,
37048800,-0.056,-0.132,0.965,-2.782,-0.98,0.822,
37048810,-0.061,-0.139,0.964,-0.875,-0.437,0.42,
37048820,-0.063,-0.133,0.965,1.277,-0.472,0.07,
37048830,-0.069,-0.137,0.969,3.115,-0.122,-0.28,
37048840,-0.068,-0.134,0.967,4.935,-0.175,-0.717,
37048850,-0.062,-0.127,0.971,6.475,0.175,-0.77,
37048860,-0.076,-0.126,0.973,7.735,0.385,-0.945,
37048870,-0.083,-0.124,0.973,8.645,0.385,-0.892,
37048880,-0.08,-0.122,0.972,9.52,-0.14,-1.277,
37048890,-0.061,-0.125,0.972,10.447,-0.245,-1.4,
37048900,-0.077,-0.127,0.972,11.585,0.367,-1.505,
37048910,-0.094,-0.117,0.975,12.757,0.367,-1.68,
37048920,-0.117,-0.111,0.975,13.44,-0.56,-2.152,
37048930,-0.121,-0.111,0.983,13.79,-2.59,-2.537,
37048940,-0.14,-0.095,0.991,13.562,-4.97,-2.887,
37048950,-0.138,-0.087,0.997,12.25,-8.575,-3.412,
37048960,-0.142,-0.078,1.002,10.08,-11.742,-3.727,
37048970,-0.148,-0.065,1.007,7.35,-15.802,-4.217,
37048980,-0.127,-0.077,1.006,3.78,-20.195,-4.795,
37048990,-0.096,-0.088,1.005,1.102,-23.87,-5.705,
37049000,-0.083,-0.091,1,-0.962,-25.357,-6.335,
37049010,-0.065,-0.101,0.996,-2.292,-26.617,-6.912,
37049020,-0.048,-0.111,0.993,-3.237,-26.11,-7.297,
37049030,-0.013,-0.11,0.988,-3.43,-25.48,-7.175,
37049040,0.002,-0.098,0.985,-3.465,-22.837,-5.722,
37049050,-0.002,-0.097,0.976,-2.975,-20.405,-4.672,
37049060,0.021,-0.093,0.964,-1.89,-16.345,-3.08,
37049070,0.009,-0.085,0.968,-0.192,-11.917,-1.19,
37049080,-0.007,-0.091,0.975,0.892,-7.332,0.612,
37049080,-0.008,-0.104,0.972,1.96,-4.27,1.925,
37049100,0,-0.094,0.974,2.87,-0.455,3.01,
37049100,-0.019,-0.127,0.997,3.132,2.712,3.22,
37049120,0.045,-0.189,1.011,3.972,7.962,3.71,
37049120,0.092,-0.253,1.012,7.21,17.832,4.515,
37049140,-0.015,-0.192,1.013,12.687,28.875,4.007,
37049140,0.041,-0.139,1.004,17.132,35.577,4.445,
37049160,-0.02,-0.016,0.959,19.985,43.872,7.122,
37049160,-0.055,0.053,0.945,16.275,44.8,7,
37049170,-0.134,0.028,0.924,7.822,41.3,6.212,
37049180,-0.205,0.123,0.808,1.942,33.425,6.16,
37049190,-0.331,0.18,0.922,-8.347,18.882,5.53,
37049200,-0.445,-0.137,0.966,-19.197,-0.857,0.507,
37049210,-0.215,-0.027,1.017,-20.265,-17.552,0.507,
37049220,-0.099,-0.055,1.061,-26.232,-26.022,1.82,
37049230,-0.069,-0.242,0.95,-29.032,-25.532,1.715,
37049240,-0.078,-0.306,0.863,-19.862,-21.945,3.272,
37049250,0.1,-0.342,0.924,-3.972,-17.185,5.267,
37049260,-0.079,-0.132,0.982,14.647,-7.525,13.002,
37049270,-0.235,-0.039,1.026,19.635,-8.312,15.19,
37049280,-0.137,0.068,1.027,13.422,-15.872,16.03,
37049290,-0.143,0.013,1.018,1.225,-21.717,12.617,
37049300,-0.039,-0.071,0.983,-6.65,-24.307,12.46,
37049310,-0.044,-0.145,0.983,-5.81,-21.787,12.757,
37049320,-0.082,-0.156,0.995,-2.152,-18.217,10.377,
37049330,0.022,-0.178,0.991,0.647,-15.347,6.527,
37049340,0.016,-0.181,0.984,4.27,-7.577,4.935,
37049350,-0.071,-0.13,0.998,7.77,-1.225,3.745,
37049360,-0.04,-0.101,1.016,7.595,1.89,2.345,
37049370,-0.115,-0.059,1.039,4.077,4.41,0.595,
37049380,-0.183,0.025,1.074,-5.617,4.9,-3.395,
37049390,-0.138,0.006,1.125,-21.227,2.852,-9.8,
37049400,-0.102,0.038,1.24,-42.437,5.477,-17.727,
37049410,-0.082,0.086,1.425,-73.867,10.605,-26.372,
37049420,0.061,0.03,1.527,-121.905,23.345,-34.79,
37049420,0.059,-0.101,1.468,-176.557,43.977,-32.812,
37049440,-0.211,0.002,1.407,-221.725,55.317,-13.37,
37049440,-0.259,-0.109,1.394,-269.255,30.537,-3.727,
37049460,-0.291,-0.217,1.41,-311.342,-0.875,0.315,
37049460,-0.354,-0.23,1.373,-347.917,-24.36,2.31,
37049480,-0.768,-0.776,1.21,-386.172,-51.922,-5.232,
37049480,-0.91,-1.801,0.665,-388.482,-106.907,-15.137,
37049500,-0.723,-1.521,0.599,-312.742,-98.087,3.395,
37049500,0.653,-1.998,-0.601,-143.937,14.945,-29.96,
37049510,0.102,-1.998,0.034,-90.667,131.162,-73.185,
37049520,0.437,-1.318,0.113,-30.905,195.002,-126.42,
37049530,0.262,-0.303,0.16,-3.185,229.267,-164.832,
37049540,-0.051,0.178,0.533,-12.355,209.79,-186.095,
37049550,-0.027,0.694,0.634,5.6,175.927,-167.562,
37049560,-0.054,1.019,0.458,26.74,134.662,-140.84,
37049570,-0.074,1.086,0.086,38.85,95.287,-105.192,
37049580,-0.098,0.97,-0.108,32.497,54.18,-67.655,
37049590,-0.05,0.498,-0.059,9.17,9.957,-37.485,
37049600,-0.045,0.083,-0.022,-5.6,-23.975,-11.69,
37049610,-0.02,-0.211,-0.113,-14.63,-44.607,9.94,
37049620,0.119,-0.385,-0.252,-27.965,-50.26,24.815,
37049630,0.168,-0.428,-0.297,-47.372,-46.427,25.637,
37049640,0.155,-0.374,-0.194,-72.275,-49.455,11.532,
37049650,0.15,-0.281,-0.089,-91.857,-60.112,-6.335,
37049660,-0.502,-0.225,1.289,-101.78,-64.802,-6.667,
37049670,-1.858,-1.245,1.642,21.7,-109.725,25.55,
37049680,-0.162,-1.993,1.399,248.237,-74.9,37.485,
37049690,0.569,-0.541,0.232,416.535,45.605,29.137,
37049700,-1.529,1.822,0.947,416.902,2.187,-18.252,
37049710,0.469,-0.754,1.163,319.655,-20.965,-29.032,
37049720,0.017,-0.312,0.993,359.205,-1.347,-30.537,
37049730,-0.063,0.054,1.225,355.04,2.1,-12.967,
37049740,0.415,-0.036,1.416,301.542,-6.72,15.347,
37049750,0.363,0.05,1.399,261.31,-5.845,50.295,
37049760,0.18,0.241,1.684,203.962,9.66,73.202,
37049770,-0.313,0.708,1.861,123.27,29.207,80.447,
37049780,-0.733,0.993,1.893,14.332,26.53,71.277,
37049790,-0.576,0.83,1.755,-102.305,6.422,43.12,
37049800,-0.622,0.266,1.205,-186.305,3.605,3.255,
37049810,-0.754,-0.435,0.501,-211.05,-1.732,-35.14,
37049820,-0.498,-0.802,0.163,-173.635,-17.272,-61.495,
37049830,-0.224,-1.079,0.158,-101.622,-28.367,-78.417,
37049830,0.278,-0.994,0.33,-30.87,-32.322,-69.737,
37049850,0.632,-0.854,0.489,34.44,-34.352,-34.842,
37049850,0.633,-0.555,0.776,88.34,-31.955,15.977,
37049870,0.349,-0.329,1.059,115.377,-22.417,61.792,
37049870,0.125,-0.106,1.241,107.415,-12.162,89.04,
37049890,-0.227,0.133,1.284,82.407,-0.595,95.217,
37049890,-0.49,0.245,1.401,47.407,6.72,79.135,
37049910,-0.553,0.293,1.453,-2.957,11.935,45.027,
37049910,-0.477,0.244,1.432,-59.99,18.532,5.74,
37049920,-0.283,0.121,1.422,-113.522,25.9,-23.327,
37049930,-0.107,0.034,1.389,-160.982,36.47,-37.502,
37049940,0.07,-0.029,1.327,-202.177,47.25,-37.502,
37049950,0.137,-0.128,1.291,-235.917,60.9,-27.16,
37049960,0.21,-0.134,1.312,-267.435,73.377,-8.54,
37049970,0.162,-0.133,1.325,-299.11,78.662,15.645,
37049980,-0.034,-0.454,1.327,-330.96,61.652,39.445,
37049990,-0.41,-0.937,1.596,-346.552,8.452,51.45,
37050000,-0.478,-1.27,1.726,-329.647,-69.965,58.537,
37050010,-0.499,-1.233,1.164,-243.565,-140.717,57.26,
37050020,-0.086,-0.516,0.339,-214.27,-174.055,65.835,
37050030,0.044,-0.598,0.3,-207.497,-151.322,100.765,
37050040,0.398,-0.955,0.857,-224.56,-118.23,100.87,
37050050,0.749,-0.781,0.696,-191.047,-82.635,77.595,
37050060,1.284,-0.833,0.824,-138.547,-26.355,53.41,
37050070,1.016,-0.423,0.867,-89.757,-4.847,-20.3,
37050080,0.487,-0.027,0.673,-4.182,-17.027,-63.42,
37050090,0.124,0.232,0.415,57.4,-58.87,-87.045,
37050100,-0.107,0.213,0.05,99.715,-107.222,-92.855,
37050110,-0.197,0.059,-0.286,134.89,-130.41,-93.065,
37050120,-0.338,-0.126,-0.668,163.677,-119.857,-99.575,
37050130,-0.485,-0.286,-1.056,177.275,-93.992,-106.365,
37050140,-0.67,-0.493,-1.375,156.975,-71.452,-105,
37050150,-0.833,-0.752,-1.485,102.9,-59.36,-91.735,
37050160,-1.074,-1.158,-1.432,49.98,-58.292,-65.66,
37050170,-0.816,-1.205,-1.484,-9.432,-64.697,-26.39,
37050170,-0.772,-1.742,-1.3,-41.615,-76.44,-32.777,
37050190,-0.64,-1.769,0.19,-38.36,-61.092,-39.06,
37050190,-1.664,-1.443,0.612,19.722,5.302,16.152,
37050210,-0.291,-0.6,0.653,74.182,-24.167,52.78,
37050210,1.971,-1.1,1.893,129.045,60.357,90.65,
37050230,-0.599,-0.431,-0.802,460.285,157.692,-95.06,
37050230,-1.841,1.365,1.19,507.255,128.817,-49.472,
37050250,1.449,-1.77,0.974,448.542,3.255,-9.135,
37050250,0.83,0.867,0.805,545.86,61.285,26.11,
37050260,0.942,0.368,1.931,487.13,119.647,55.755,
37050270,0.641,-0.197,1.998,407.575,193.69,73.552,
37050280,-1.946,1.827,1.465,223.142,200.165,71.68,
37050290,-0.749,0.479,1.457,8.505,34.842,44.852,
37050300,-1.532,0.802,1.348,-100.485,-41.615,-1.662,
37050310,-0.231,-0.349,0.946,-167.37,-77.542,-30.345,
37050320,-0.145,-1.317,0.447,-148.732,-79.047,-42.7,
37050330,0.22,-1.014,0.447,-94.395,-76.93,-47.687,
37050340,0.807,-0.673,0.597,-26.652,-63.857,-22.802,
37050350,0.642,-0.497,0.816,35.437,-30.765,22.347,
37050360,0.192,-0.17,1.115,68.11,1.662,53.497,
37050370,-0.379,0.209,1.195,59.832,17.832,57.015,
37050380,-0.483,0.178,1.146,29.4,7.892,37.765,
37050390,-0.335,0.063,1.112,-1.102,-8.977,10.902,
37050400,-0.04,-0.017,1.09,-24.71,-18.287,-5.372,
37050410,0.023,-0.1,1.083,-38.762,-15.715,-7.14,
37050420,-0.021,-0.049,1.139,-50.557,-8.627,-8.05,
37050430,-0.039,-0.023,1.238,-69.16,-4.602,-12.372,
37050440,0.076,0.093,1.34,-98.14,-1.767,-17.692,
37050450,-0.077,0.057,1.413,-137.322,5.722,-22.295,
37050460,-0.134,0.058,1.415,-187.845,8.4,-19.285,
37050470,-0.22,0.086,1.39,-241.797,-3.062,-11.095,
37050480,-0.237,0.139,1.355,-291.585,-25.83,-1.785,
37050490,-0.226,0.143,1.283,-336.227,-58.065,7.052,
37050500,-0.505,-0.012,1.254,-380.537,-94.325,19.46,
37050510,-0.911,-0.479,1.353,-417.287,-149.485,28.122,
37050520,-1.512,-0.582,1.755,-415.467,-226.607,28.875,
37050530,-1.288,-1.878,1.677,-363.265,-355.582,-13.702,
37050540,-0.428,-1.559,0.659,-313.95,-384.405,-43.627,
37050550,-0.391,-1.374,0.213,-214.497,-209.457,10.202,
37050560,-0.689,-1.304,0.073,-159.355,21.49,25.532,
37050570,-1.925,-0.655,0.659,-114.782,159.985,51.66,
37050580,-1.439,-0.902,1.128,-87.745,193.935,128.45,
37050580,-0.707,-0.364,1.167,16.275,166.11,198.677,
37050600,-0.125,0.126,1.017,93.485,141.365,239.645,
37050600,0.113,0.665,0.739,150.395,119.455,247.187,
37050620,0.492,1.116,0.475,176.032,96.162,234.325,
37050620,1.025,1.251,0.278,172.462,82.845,209.335,
37050640,1.344,1.223,0.036,160.772,77.77,155.977,
37050640,1.309,0.869,-0.069,142.152,61.705,67.865,
37050660,0.974,0.103,-0.144,122.255,42.157,-21.84,
37050660,0.666,-0.515,-0.317,116.62,32.13,-86.607,
37050670,0.3,-1.116,-0.655,114.905,28.84,-121.275,
37050680,0.041,-1.402,-1.13,113.767,31.657,-127.61,
37050690,-0.115,-1.539,-1.511,95.077,34.79,-124.547,
37050700,-0.223,-1.695,-1.677,47.512,30.45,-112.7,
37050710,-0.05,-1.815,-1.657,-7.647,24.342,-90.58,
37050720,0.315,-1.998,-0.212,-64.54,26.39,-95.62,
37050730,0.838,-1.998,1.998,-82.425,-23.362,-107.03,
37050740,0.62,-1.894,1.893,318.71,-160.16,-122.535,
37050750,0.378,0.948,1.288,522.987,-17.657,-55.195,
37050760,1.303,1.115,1.346,495.792,-2.73,13.3,
37050770,0.435,-1.216,1.056,446.39,-15.61,-2.345,
37050780,0.855,-0.233,1.16,495.582,4.62,73.867,
37050790,0.426,0.531,1.975,469.98,53.532,133.017,
37050800,-0.23,0.591,1.978,346.815,110.95,117.302,
37050810,-1.882,1.978,1.224,141.4,115.307,84.455,
37050820,-0.615,0.806,1.761,-60.847,3.797,28.28,
37050830,-0.236,0.477,1.889,-206.867,-48.527,-6.265,
37050840,0.306,0.392,0.952,-289.607,-51.887,-0.927,
37050850,-0.81,-0.726,0.103,-261.03,-33.197,-10.307,
37050860,-0.856,-1.77,-0.174,-187.512,-43.907,-41.405,
37050870,-0.266,-1.052,-0.041,-84.332,-37.292,-54.495,
37050880,0.226,-0.978,0.032,25.13,-49.227,-48.79,
37050890,0.692,-0.998,0.56,123.952,-64.277,-24.447,
37050900,0.932,-0.232,1.122,182.997,-46.497,34.02,
37050910,0.319,0.135,1.49,184.625,-4.112,77,
37050920,-0.39,0.32,1.36,140.227,30.03,86.922,
37050920,-0.821,0.472,1.297,91.437,32.952,62.475,
37050940,-0.986,0.466,1.265,33.862,9.205,16.45,
37050940,-0.549,0.326,1.23,-26.687,-24.99,-34.107,
37050960,0.052,-0.026,1.207,-66.57,-36.26,-65.415,
37050960,0.282,-0.154,1.198,-87.902,-15.995,-65.87,
37050980,0.21,-0.16,1.254,-104.79,14.945,-51.065,
37050980,0.097,-0.082,1.341,-131.74,34.16,-33.95,
37051000,-0.051,-0.077,1.384,-168.595,44.17,-18.847,
37051000,-0.16,-0.043,1.396,-209.282,32.97,-5.407,
37051010,-0.096,-0.093,1.385,-250.617,7.07,2.24,
37051020,-0.164,-0.153,1.428,-289.642,-20.055,15.242,
37051030,-0.373,-0.388,1.671,-339.482,-42.77,31.167,
37051040,-1.193,-1.581,1.998,-379.365,-91.752,32.217,
37051050,-1.283,-1.998,1.998,-310.957,-192.92,31.43,
37051060,-0.295,-1.998,1.283,-76.632,-188.947,87.675,
37051070,-1.606,-1.376,-0.517,233.047,-79.922,153.947,
37051080,-0.562,-0.836,-1.504,276.815,36.452,176.242,
37051090,-0.554,-1.27,-0.899,146.947,91.91,110.897,
37051100,-0.028,-1.665,-0.237,89.565,101.377,57.365,
37051110,0.414,-1.508,0.059,65.975,146.107,55.195,
37051120,0.365,-0.935,-0.036,53.69,172.585,41.247,
37051130,0.33,-0.61,-0.289,-6.562,165.2,4.76,
37051140,0.445,-0.539,-0.457,-55.895,133.945,-44.152,
37051150,0.49,-0.263,-0.402,-93.432,106.61,-101.115,
37051160,0.419,-0.301,-0.15,-132.965,95.882,-173.88,
37051170,0.19,-0.218,0.059,-140,91.822,-243.302,
37051180,-0.209,0.273,0.061,-111.492,80.937,-285.425,
37051190,-0.57,0.774,-0.066,-82.705,53.217,-301.175,
37051200,-0.651,1.031,-0.3,-76.09,25.725,-292.687,
37051210,-0.688,1.211,-0.527,-84.35,8.435,-263.655,
37051220,-0.633,1.527,-0.66,-103.127,-2.555,-216.405,
37051230,-0.449,1.499,-0.64,-134.33,-13.37,-165.935,
37051240,-0.253,1.13,-0.441,-167.755,-27.58,-134.33,
37051250,-0.036,0.888,-0.57,-192.587,-48.405,-120.277,
37051260,-0.422,0.204,1.339,-228.882,-25.987,-99.54,
37051270,-1.488,-1.645,1.782,-178.605,-141.802,-81.06,
37051280,1.096,-1.994,-1.318,430.255,-212.73,-217.682,
37051290,-0.239,1.631,-0.434,561.925,214.707,-56.857,
37051300,-0.173,0.64,0.514,447.65,-100.45,-54.232,
37051310,1.998,-1.944,1.379,489.352,-39.13,-105,
37051320,0.022,1.62,1.889,569.152,114.677,42.892,
37051330,1.646,0.417,1.998,463.855,138.355,108.272,
37051330,-1.577,1.812,1.756,284.865,208.582,129.78,
37051350,-1.848,1.593,1.284,53.077,89.512,114.257,
37051350,-1.149,0.399,1.351,-102.147,-51.992,26.617,
37051370,-0.149,-0.22,1.016,-166.46,-93.887,-22.015,
37051370,0.279,-0.793,0.613,-152.792,-83.37,-18.585,
37051390,0.198,-0.989,0.532,-101.377,-66.78,-6.352,
37051390,0.35,-0.83,0.574,-41.475,-45.867,5.81,
37051400,0.209,-0.629,0.651,15.435,-28.98,26.862,
37051410,0.026,-0.372,0.862,60.427,-17.447,41.615,
37051420,0.074,-0.085,1.113,77.227,-6.772,41.387,
37051430,-0.071,0.144,1.17,65.327,5.565,36.662,
37051440,-0.262,0.185,1.163,41.405,8.715,29.662,
37051450,-0.327,0.165,1.156,13.65,2.922,18.357,
37051460,-0.213,0.102,1.165,-15.015,-4.69,2.17,
37051470,0.003,0,1.192,-41.877,-5.757,-10.99,
37051480,0.171,0.047,1.271,-66.395,3.57,-15.627,
37051490,0.196,0.021,1.325,-93.012,25.077,-15.715,
37051500,0.244,-0.044,1.23,-124.092,48.527,-11.042,
37051510,0.017,-0.038,1.128,-150.92,68.11,-2.94,
37051520,-0.053,-0.206,1.026,-170.555,70.787,0.7,
37051530,-0.1,-0.39,1.053,-187.757,59.745,2.17,
37051540,-0.076,-0.439,1.172,-206.307,44.222,16.852,
37051550,-0.147,-0.368,1.494,-228.305,26.005,38.955,
37051560,0.023,-0.611,1.532,-250.915,29.855,63,
37051570,-0.368,-1.224,1.561,-250.967,29.715,90.265,
37051580,-1.829,-1.998,1.592,-213.43,-72.782,66.08,
37051590,-0.2,-1.998,0.911,-65.205,-160.685,34.667,
37051600,0.335,-1.498,-0.982,135.327,-10.132,121.275,
37051610,-0.229,-1.132,-0.248,71.417,68.267,62.02,
37051620,0.858,-1.998,0.302,-26.705,48.09,-29.347,
37051630,1.293,-1.144,0.14,8.995,72.467,-43.522,
37051640,1.188,0.038,-0.04,2.327,63.945,-94.552,
37051650,1.035,0.754,-0.061,-57.067,-9.835,-154.7,
37051660,1.052,1.301,-0.044,-96.827,-89.635,-173.565,
37051670,0.765,1.544,-0.102,-99.907,-139.072,-197.26,
37051670,-0.01,1.504,-0.386,-92.715,-164.64,-221.497,
37051690,-0.542,1.544,-0.764,-89.145,-189.402,-227.885,
37051690,-0.978,1.561,-0.757,-113.802,-219.012,-214.34,
37051710,-0.938,0.811,-0.495,-168.805,-274.33,-200.042,
37051710,-0.272,0.27,-0.476,-189.105,-285.197,-170.817,
37051730,-0.663,0.31,-0.387,-194.11,-245.892,-132.387,
37051730,0.2,-0.686,0.68,-221.095,-184.485,-86.677,
37051750,0.225,-1.998,0.588,-41.055,342.737,47.232,
37051750,-1.834,0.253,-0.652,528.22,253.032,-43.767,
37051760,1.539,1.714,1.87,374.78,221.06,-9.45,
37051770,0.921,-0.286,1.038,478.187,116.095,-25.585,
37051780,0.597,-0.335,1.509,518.227,95.567,-0.875,
37051790,1.273,0.002,1.928,475.037,179.462,59.622,
37051800,0.102,-0.441,1.998,366.327,265.282,44.852,
37051810,-1.998,1.997,0.837,198.712,251.23,51.135,
37051820,-0.542,-0.393,1.213,-36.365,-23.17,0.507,
37051830,-1.173,0.332,0.989,-59.797,-107.747,-29.837,
37051840,0.663,-0.78,0.968,-78.47,-129.027,-31.255,
37051850,0.498,-0.633,0.893,-51.327,-89.407,-27.125,
37051860,0.37,-0.196,0.928,-42.052,-51.922,-9.555,
37051870,0.38,-0.348,0.863,-29.382,-23.047,7.245,
37051880,0.245,-0.635,0.783,0.962,-3.062,15.417,
37051890,0.099,-0.271,0.936,31.622,13.387,11.007,
37051900,0.065,-0.031,1.016,38.885,21.717,6.107,
37051910,0.017,-0.019,1.03,34.265,26.302,6.982,
37051920,-0.224,-0.014,1.019,27.212,27.002,9.572,
37051930,-0.301,-0.048,1.008,19.057,18.06,4.62,
37051940,-0.27,-0.016,1.005,10.92,4.952,-3.132,
37051950,-0.115,-0.085,0.992,3.797,-5.6,-6.615,
37051960,-0.064,-0.114,0.985,0.77,-8.977,-6.982,
37051970,-0.038,-0.117,0.982,-0.227,-9.59,-6.055,
37051980,-0.007,-0.117,0.98,0.035,-7.997,-4.182,
37051990,-0.043,-0.117,0.979,0.945,-5.792,-1.54,
37052000,-0.031,-0.166,0.973,1.697,-3.92,0.63,
37052010,-0.05,-0.114,0.992,2.642,-2.607,1.47,
37052020,-0.049,-0.067,1.003,0.227,-0.997,1.505,
37052030,-0.022,-0.096,1.006,-3.167,0.455,1.767,
37052040,-0.059,-0.078,1.022,-7.157,3.5,1.995,
37052050,-0.08,-0.055,1.05,-13.79,5.11,1.627,
37052060,-0.097,-0.033,1.114,-25.077,6.86,0.56,
37052070,-0.07,0.051,1.223,-44.205,8.592,-0.157,
37052070,0.032,0.103,1.342,-72.852,17.15,0.052,
37052080,0.053,0.086,1.402,-110.04,32.987,-1.225,
37052090,0.014,0.049,1.392,-153.737,39.83,2.73,
37052100,0.229,-0.126,1.299,-194.897,36.977,25.83,
37052110,0.109,-0.226,1.231,-220.535,39.392,55.912,
37052120,-0.113,-0.154,1.148,-238.087,22.995,83.352,
37052130,0.052,-0.469,1.047,-254.17,1.4,100.607,
37052140,0.007,-0.776,0.936,-251.527,12.355,110.897,
37052150,-0.673,-0.942,0.875,-211.592,15.277,105.385,
37052160,-0.271,-1.478,0.736,-157.377,-29.907,95.585,
37052170,-0.259,-1.831,1.093,-97.037,-54.985,101.517,
37052180,1.514,-1.696,0.039,-6.195,-46.812,72.205,
37052190,0.85,-1.25,0.236,70.472,55.405,76.79,
37052200,0.059,-0.638,0.018,97.37,67.095,-2.45,
37052210,-0.135,-0.176,-0.393,95.707,40.145,-15.4,
37052220,-0.308,0.42,-0.527,55.02,-12.81,-21.227,
37052230,-0.331,0.723,-0.541,-17.132,-75.845,-29.592,
37052240,-0.121,0.956,-0.364,-85.505,-119.7,-18.287,
37052250,-0.048,1.137,-0.202,-120.732,-150.22,-4.812,
37052260,-0.001,1.326,-0.28,-121.625,-165.13,1.417,
37052270,0.617,1.379,0.375,-115.29,-158.602,11.847,
37052280,-1.996,-1.99,0.638,0.245,-178.885,-7.122,
37052290,1.455,-1.685,-0.295,486.815,-25.935,31.885,
37052300,-0.51,1.755,0.675,430.36,35.875,77.28,
37052310,-0.227,1.21,1.185,470.19,-19.285,47.372,
37052320,1.158,-1.066,1.982,407.47,-21.087,61.565,
37052330,1.301,0.683,1.995,361.62,103.372,33.18,
37052340,-1.861,1.997,1.211,187.67,167.107,58.537,
37052350,-1.272,0.731,1.092,10.237,26.127,26.775,
37052360,-0.657,-0.054,0.992,-52.955,-73.36,-7.84,
37052370,0.136,-0.403,0.976,-64.207,-87.325,-14.962,
37052380,0.089,-0.367,0.904,-54.355,-68.547,-13.807,
37052390,0.376,-0.527,0.921,-40.11,-49.717,-11.69,
37052400,0.302,-0.298,0.935,-17.412,-25.777,0.227,
37052410,-0.04,-0.162,0.952,-3.902,-8.557,9.66,
37052420,-0.094,-0.179,0.967,2.275,-5.495,5.652,
37052420,0.05,-0.139,0.975,4.357,-5.81,-0.542,
37052440,0.02,-0.085,0.994,6.825,-0.84,-0.105,
37052440,-0.137,-0.075,1.002,6.772,1.312,1.067,
37052460,-0.227,0.013,1.03,1.697,-2.205,-0.665,
37052460,-0.262,-0.09,1.001,-9.187,-11.637,-5.827,
37052480,-0.085,-0.132,0.989,-16.24,-19.617,-14,
37052480,-0.045,-0.087,1.004,-19.197,-21.752,-16.712,
37052500,-0.082,-0.098,1.009,-22.907,-20.667,-16.695,
37052500,-0.113,-0.088,1.007,-26.722,-21.84,-19.582,
37052510,-0.08,-0.078,1.013,-30.362,-23.222,-23.187,
37052520,-0.031,-0.12,0.994,-34.055,-23.992,-26.215,
37052530,0.087,-0.198,0.957,-33.845,-21.525,-26.547,
37052540,0.102,-0.227,0.966,-29.715,-15.085,-25.182,
37052550,0.079,-0.168,1.005,-27.44,-6.037,-24.762,
37052560,0.039,-0.108,1.047,-30.1,1.785,-25.637,
37052570,0.045,-0.055,1.082,-37.922,10.115,-28.892,
37052580,-0.2,-0.042,1.172,-50.645,21.332,-39.235,
37052590,-0.105,0.004,1.241,-74.812,29.837,-49.455,
37052600,-0.096,0.028,1.329,-105.927,40.267,-55.527,
37052610,-0.036,0.084,1.347,-144.235,44.257,-54.617,
37052620,-0.099,0.022,1.294,-185.692,42.7,-49.07,
37052630,-0.156,-0.049,1.219,-224.122,30.835,-36.75,
37052640,-0.178,-0.066,1.141,-257.285,8.995,-19.512,
37052650,-0.229,-0.12,1.107,-285.215,-14.91,-7.105,
37052660,-0.332,-0.6,1.157,-305.34,-42.91,1.382,
37052670,-0.617,0.165,1.347,-310.712,-75.722,0.735,
37052680,-0.642,-1.194,1.543,-269.675,-135.992,4.917,
37052690,-0.212,-1.422,1.438,-225.89,-165.497,-8.662,
37052700,0.32,-1.044,0.905,-135.94,-142.047,-13.282,
37052710,0.062,-0.831,0.874,-95.007,-105.017,-26.635,
37052720,-0.563,-0.585,1.311,-40.635,-55.265,-9.94,
37052730,-0.551,0.16,0.873,59.902,-6.422,31.92,
37052740,-0.961,1.371,0.5,138.32,30.17,86.205,
37052750,-1.402,1.841,0.163,186.97,40.687,155.242,
37052760,-1.019,1.859,-0.106,208.39,42.682,238.875,
37052760,-0.518,1.896,-0.366,239.207,46.882,304.027,
37052780,-0.219,1.756,-0.775,262.342,44.8,323.47,
37052780,0.069,1.601,-1.343,266.612,26.565,313.617,
37052800,0.235,1.662,-1.047,212.012,-7.63,291.742,
37052800,0.424,0.609,-0.222,109.147,-65.992,234.22,
37052820,-0.05,-0.8,1.282,76.527,-111.965,160.212,
37052820,0.51,-1.998,0.019,180.425,-317.73,-188.667,
37052830,-1.656,-1.286,0.056,540.102,48.055,-256.165,
37052840,1.925,1.926,1.887,396.882,14.14,-97.895,
37052850,-1.192,1.565,0.982,172.007,235.742,-19.862,
37052860,0.011,-0.209,1.065,23.835,56.892,51.695,
37052870,-1.21,-0.128,0.932,-26.477,-50.382,13.79,
37052880,0.583,-0.431,0.976,-25.97,-73.745,-9.572,
37052890,-0.118,-0.114,1.021,-18.865,-53.13,-9.712,
37052900,-0.044,-0.134,1.015,-21.98,-47.6,4.2,
37052910,0.058,-0.102,0.99,-25.06,-41.23,8.155,
37052920,0.046,-0.232,0.947,-22.382,-33.897,9.152,
37052930,0.209,-0.299,0.934,-12.477,-23.24,7.227,
37052940,0.141,-0.18,0.967,0.175,-8.802,9.135,
37052950,-0.059,0.029,1.02,5.11,1.645,14.612,
37052960,-0.235,-0.03,0.997,0.385,0.227,15.802,
37052970,-0.091,-0.037,1.008,-4.2,-6.282,11.042,
37052980,-0.075,-0.095,0.983,-8.452,-8.855,9.957,
37052990,-0.254,-0.133,0.969,-10.727,-10.15,7.945,
37053000,-0.164,-0.095,0.988,-10.237,-18.042,-0.28,
37053010,0,-0.032,1.012,-13.965,-22.627,-4.392,
37053020,-0.028,-0.106,0.987,-18.165,-21.385,-1.47,
37053030,-0.057,-0.115,0.987,-18.725,-19.705,-1.61,
37053040,0.024,-0.133,0.988,-19.267,-18.812,-5.005,
37053050,0.069,-0.137,0.989,-19.337,-14.402,-5.915,
37053060,0.023,-0.14,0.996,-19.442,-7.857,-4.952,
37053070,-0.024,-0.155,0.992,-20.702,-3.202,-6.212,
37053080,-0.05,-0.152,1.027,-23.187,0.227,-11.585,
37053090,0.048,-0.104,1.112,-29.645,3.377,-17.202,
37053100,0.063,-0.022,1.224,-46.147,12.057,-21.577,
37053110,0.097,-0.021,1.308,-74.217,26.25,-24.202,
37053120,0.007,-0.118,1.303,-114.642,42.192,-23.922,
37053130,-0.114,-0.042,1.344,-163.345,42.262,-16.082,
37053140,-0.357,0.252,1.272,-197.995,28.647,4.357,
37053150,-0.518,0.013,1.18,-232.207,0.315,10.587,
37053160,-0.596,-0.286,1.077,-256.742,-34.685,19.372,
37053170,-0.855,-0.526,1.089,-260.645,-61.25,26.582,
37053170,-1.368,-0.839,1.237,-240.012,-94.605,1.767,
37053190,-1.31,-1.529,0.542,-181.23,-158.917,-42.49,
37053190,0.556,-1.998,0.116,-130.077,-137.34,-122.202,
37053210,-1.743,-1.701,0.237,-47.005,17.185,-131.95,
37053210,-1.998,-0.408,0.289,-6.632,48.335,-126.087,
37053230,-1.838,-0.322,0.711,-36.925,49.542,-28.665,
37053230,-1.299,0.067,0.866,-14.945,84.332,72.817,
37053250,-0.777,1.074,0.648,34.65,118.877,151.97,
37053250,-0.149,1.924,0.407,57.96,134.487,215.145,
37053260,0.402,1.997,0.03,78.4,127.26,234.745,
37053270,0.82,1.997,-0.48,113.05,117.32,203.822,
37053280,0.82,1.997,-0.871,139.772,100.59,148.977,
37053290,0.634,1.971,-0.662,121.205,55.335,84.175,
37053300,-0.557,-0.124,1.525,58.345,-70.262,-7,
37053310,1.832,-1.998,-1.202,143.08,-335.72,-408.047,
37053320,-1.998,-0.095,1.208,533.995,53.025,-449.4,
37053330,1.782,1.992,1.51,433.072,-125.457,-140.35,
37053340,1.282,-0.906,1.997,307.212,43.225,-108.272,
37053350,-1.9,1.984,1.004,208.687,228.83,93.38,
37053360,-0.465,0.167,1.051,10.185,54.862,67.27,
37053370,-1.132,0.279,1.055,-25.987,-43.75,1.207,
37053380,0.258,-0.424,1.018,-48.807,-73.71,-7.245,
37053390,-0.025,-0.162,0.995,-41.65,-52.255,-6.09,
37053400,0.062,-0.056,1.047,-47.145,-41.405,1.592,
37053410,0.041,-0.088,1.003,-51.222,-30.012,11.252,
37053420,-0.075,-0.429,0.877,-45.797,-24.675,12.355,
37053430,0.003,-0.544,0.826,-28.385,-20.755,2.047,
37053440,0.186,-0.379,0.863,-4.882,-12.6,-1.645,
37053450,0.269,-0.157,0.955,16.52,1.697,9.152,
37053460,-0.11,-0.106,1.002,27.195,15.61,24.307,
37053470,-0.314,0.03,1.04,24.71,14.14,25.637,
37053480,-0.36,0.097,1.053,10.885,1.277,17.972,
37053490,-0.221,-0.038,1.004,-6.055,-14.017,9.537,
37053500,-0.134,-0.083,0.999,-14.157,-22.032,3.237,
37053510,0,-0.055,0.999,-18.305,-24.92,0.157,
37053510,0.076,-0.126,0.974,-19.32,-21.875,2.467,
37053530,0.028,-0.185,0.955,-14.84,-15.435,6.737,
37053530,-0.029,-0.176,0.957,-9.1,-10.15,6.772,
37053550,0.009,-0.163,0.966,-4.865,-7.77,2.922,
37053550,0.019,-0.14,0.976,-1.942,-3.202,0.892,
37053570,-0.004,-0.138,0.98,-0.472,0.822,0.84,
37053570,-0.054,-0.142,0.993,-0.542,4.27,-0.262,
37053580,-0.072,-0.078,1.034,-3.342,4.987,-3.902,
37053590,-0.057,-0.02,1.084,-12.022,6.002,-7.245,
37053600,-0.069,-0.01,1.128,-26.705,6.947,-9.415,
37053610,-0.078,0.019,1.199,-47.565,9.607,-11.27,
37053620,-0.163,0.081,1.284,-77,10.5,-13.667,
37053630,0.13,0.11,1.415,-119.752,-2.52,-11.445,
37053640,0.063,0.012,1.413,-164.342,6.142,-6.247,
37053650,-0.016,-0.072,1.322,-205.03,24.482,4.602,
37053660,-0.311,0.082,1.265,-237.23,38.36,5.215,
37053670,-0.325,-0.238,1.163,-268.94,44.135,-2.607,
37053680,-0.134,-0.648,1.162,-271.81,50.015,8.872,
37053690,-0.713,-0.836,1.216,-239.277,44.485,-0.472,
37053700,-0.641,-1.445,0.982,-180.46,-4.322,-28.647,
37053710,-0.619,-1.943,0.616,-93.625,3.272,-53.112,
37053720,-1.626,-1.998,0.376,-29.785,49.7,-75.25,
37053730,-1.767,-1.2,-0.174,55.335,64.54,-43.89,
37053740,-0.871,-0.761,-0.121,53.952,77.595,13.685,
37053750,-0.903,-0.265,0.053,35.7,80.535,34.09,
37053760,-0.369,0.53,-0.156,66.01,74.2,61.092,
37053770,0.066,1.18,-0.57,81.655,79.642,97.195,
37053780,0.286,1.682,-1.076,79.275,76.282,109.987,
37053790,0.487,1.91,-1.234,47.267,57.382,107.747,
37053800,0.545,1.637,-1.025,0.157,15.277,86.45,
37053810,0.775,0.965,-0.832,-15.732,-24.237,45.412,
37053820,-0.254,-0.305,1.181,-41.615,-73.675,-16.905,
37053830,0.534,-1.998,0.192,79.502,-396.06,-282.957,
37053840,-0.894,-0.331,1.358,543.567,-202.93,-357.297,
37053850,1.318,1.997,1.662,513.45,-134.032,-77.245,
37053860,1.998,-0.663,1.998,390.512,-33.407,-58.327,
37053870,-0.962,1.484,1.4,258.772,211.837,29.68,
37053880,-1.258,0.815,0.911,70.297,114.975,79.415,
37053890,-1.545,0.488,1.057,-54.652,-52.692,-6.072,
37053900,0.342,-0.683,0.95,-64.89,-107.205,-36.75,
37053910,0.462,-0.719,0.892,-46.357,-77.262,-39.305,
37053920,0.521,-0.347,0.921,-21.612,-39.777,-13.545,
37053920,0.173,-0.242,0.947,-6.685,-10.167,8.382,
37053940,-0.265,-0.172,0.98,5.197,3.237,14.857,
37053940,-0.071,-0.117,0.981,6.72,-2.38,4.707,
37053960,0.153,-0.153,0.98,7.612,-1.662,-0.245,
37053960,0.083,-0.004,1.011,9.905,8.347,7.507,
37053980,-0.261,0,0.999,5.687,14.122,16.59,
37053980,-0.255,-0.045,0.996,0.07,5.32,13.93,
37054000,-0.174,-0.069,0.996,-6.422,-3.36,8.697,
37054000,-0.142,-0.096,0.987,-11.445,-8.662,5.53,
37054010,-0.045,-0.125,0.976,-13.737,-10.43,4.13,
37054020,-0.02,-0.131,0.978,-12.617,-8.855,5.285,
37054030,-0.049,-0.07,1.001,-10.255,-5.6,7.472,
37054040,-0.062,-0.027,1.016,-12.005,-4.655,9.012,
37054050,-0.1,-0.095,1.007,-16.397,-4.042,8.96,
37054060,-0.095,-0.101,1.033,-20.772,-4.725,5.687,
37054070,-0.021,-0.04,1.082,-29.452,-3.15,1.802,
37054080,0.03,-0.018,1.146,-43.452,1.575,-1.085,
37054090,0.052,0.022,1.221,-63.297,10.937,-2.03,
37054100,-0.018,0.085,1.327,-93.117,13.072,0.192,
37054110,0.119,0.076,1.401,-135.362,8.452,11.34,
37054120,-0.054,0.018,1.409,-174.877,19.232,21.455,
37054130,-0.187,0.046,1.372,-217.63,23.765,33.705,
37054140,-0.419,0.154,1.303,-255.115,12.425,33.932,
37054150,-0.52,0.102,1.305,-296.257,-14.735,20.44,
37054160,-0.728,-0.127,1.566,-329.262,-40.337,2.642,
37054170,-1.093,-0.62,1.745,-319.497,-94.027,-17.185,
37054180,-0.231,-0.64,1.489,-208.197,-140.787,-49.77,
37054190,-0.207,-0.432,0.852,-175.472,-136.36,-79.152,
37054200,-0.354,-0.105,0.629,-134.697,-94.622,-76.422,
37054210,-0.405,-0.492,1.272,-107.695,-59.902,-67.287,
37054220,-0.09,-0.294,0.977,-10.552,0,-52.797,
37054230,-0.604,0.859,0.448,134.277,87.22,-37.38,
37054240,-1.89,1.341,0.009,190.89,116.2,10.797,
37054250,-0.682,0.91,-0.827,224.35,113.627,86.415,
37054260,-0.229,0.963,-1.545,260.102,121.065,144.445,
37054260,-0.227,0.526,-1.303,188.72,102.777,148.207,
37054280,0.729,-0.767,-0.922,87.202,40.932,112.612,
37054280,1.543,-1.623,-0.686,46.602,21.28,63.91,
37054300,0.767,-1.713,-0.849,31.71,17.08,-10.325,
37054300,0.439,-1.675,-0.506,12.757,-17.43,-97.002,
37054320,-1.041,-1.993,0.818,-29.242,-215.005,-232.557,
37054320,0.819,-0.898,0.33,454.632,-61.897,-286.737,
37054330,-0.121,1.997,0.995,536.462,-26.057,-13.282,
37054340,1.998,-0.349,1.998,402.902,11.707,-15.067,
37054350,-0.387,-0.094,1.419,293.825,292.075,3.342,
37054360,-1.114,1.18,-0.264,177.135,155.96,54.127,
37054370,0.163,-1.47,1.548,-158.2,-90.877,-10.202,
37054380,-0.587,-0.043,0.895,2.835,-83.072,-32.532,
37054390,0.497,-0.691,0.933,-28.367,-78.33,-25.182,
37054400,0.254,-0.439,0.994,-2.275,-44.397,-22.925,
37054410,-0.071,0.041,0.998,3.167,-24.605,-4.042,
37054420,-0.291,-0.006,0.992,-2.817,-22.4,-2.012,
37054430,0.054,-0.058,0.994,-7.927,-28.927,-6.895,
37054440,0.029,0.05,1.003,-9.677,-26.25,-4.742,
37054450,-0.005,-0.048,0.995,-12.425,-20.86,2.66,
37054460,-0.084,-0.11,0.982,-12.39,-17.85,6.93,
37054470,-0.09,-0.171,0.974,-11.235,-16.747,5.81,
37054480,-0.065,-0.115,0.977,-9.362,-16.1,2.467,
37054490,-0.042,-0.113,0.98,-7.875,-14.805,-1.05,
37054500,0.016,-0.11,0.975,-6.142,-13.247,-2.415,
37054510,0.022,-0.112,0.978,-3.465,-8.942,-0.857,
37054520,-0.025,-0.06,0.989,-1.47,-5.022,2.012,
37054530,-0.064,-0.083,0.983,-1.417,-3.272,3.622,
37054540,-0.103,-0.114,0.982,-0.542,-3.43,3.132,
37054550,-0.055,-0.063,0.996,-0.472,-4.34,1.837,
37054560,-0.022,-0.049,1.007,-2.835,-3.78,2.38,
37054570,-0.005,-0.051,1.009,-6.947,-1.382,4.13,
37054580,-0.013,-0.054,1.019,-11.935,2.467,5.372,
37054590,-0.009,-0.053,1.042,-17.22,6.142,5.477,
37054600,0.054,-0.038,1.088,-23.887,11.847,5.582,
37054610,0.096,0.01,1.149,-34.335,21.962,7.175,
37054620,0.161,0.056,1.239,-49.612,38.395,10.202,
37054630,0.221,0.01,1.313,-72.887,60.707,15.19,
37054640,0.202,-0.027,1.386,-113.452,60.987,31.797,
37054650,0.253,-0.064,1.32,-164.01,58.38,72.1,
37054660,-0.001,-0.171,1.246,-206.517,40.53,113.347,
37054670,-0.046,-0.075,1.286,-248.342,6.492,149.957,
37054670,0.1,-0.061,1.232,-269.43,-6.545,168.227,
37054690,0.601,-0.934,1.025,-283.045,21.857,185.92,
37054690,-0.039,-1.032,1.02,-263.9,51.905,204.61,
37054710,-1.288,-1.574,1.441,-230.702,-13.545,178.885,
37054710,0.569,-1.998,0.693,-180.372,-161.997,101.622,
37054720,1.998,-1.996,0.54,-84.035,-110.967,93.345,
37054730,0.894,-0.858,-0.179,65.45,22.26,14.77,
37054740,-0.334,-0.212,0.245,53.515,18.567,-116.235,
37054750,-0.142,-0.571,0.404,10.867,-20.422,-155.435,
37054760,-0.515,0.442,-0.233,83.947,-23.275,-151.287,
37054770,-0.74,1.282,-0.937,101.902,-36.155,-129.097,
37054780,-0.566,1.388,-1.014,35.682,-61.442,-110.547,
37054790,-0.621,0.629,-0.49,-47.215,-76.632,-104.09,
37054800,-0.339,0.014,-0.448,-54.932,-78.435,-84.087,
37054810,0.045,0.129,-0.724,-22.732,-53.952,-61.075,
37054820,-0.249,0.09,-0.846,-32.042,-45.535,-73.045,
37054830,0.068,-0.418,1.51,-52.937,7.822,-61.897,
37054840,-1.365,-1.938,-0.575,291.742,-43.26,-35.542,
37054850,1.48,1.525,0.713,505.662,10.325,73.255,
37054860,-0.827,0.765,1.504,442.347,-11.112,57.732,
37054870,1.71,-0.819,1.998,440.265,48.807,31.657,
37054880,-0.137,0.531,1.579,299.687,213.99,20.107,
37054890,-1.398,1.044,0.306,125.492,147.157,52.99,
37054900,-0.767,-0.494,1.266,-84.962,-69.317,-6.177,
37054910,-0.091,-0.36,0.997,-46.585,-102.707,-17.272,
37054920,-0.02,-0.353,0.936,-60.182,-88.375,-13.492,
37054930,0.218,-0.602,0.906,-45.22,-69.737,-12.32,
37054940,0.381,-0.377,0.937,-27.737,-46.55,-6.912,
37054950,0.209,-0.147,0.978,-7.77,-27.072,5.232,
37054960,-0.014,-0.118,0.985,-2.117,-13.755,10.85,
37054970,0.001,-0.078,1.014,-2.187,-9.887,9.625,
37054980,0.053,0.076,1.021,-8.435,-6.352,10.517,
37054990,-0.13,0.039,1.01,-17.867,-3.132,15.382,
37055000,-0.245,-0.211,0.948,-18.567,-7.105,14.227,
37055010,-0.189,-0.185,0.954,-15.417,-15.592,3.465,
37055010,-0.024,-0.129,0.974,-13.072,-21.332,-5.145,
37055030,0.137,-0.146,0.963,-10.587,-19.932,-6.177,
37055030,0.125,-0.175,0.947,-5.792,-10.762,-1.452,
37055050,-0.004,-0.135,0.959,0.28,-2.957,2.817,
37055050,-0.04,-0.072,0.989,3.29,0.245,3.762,
37055070,-0.058,-0.056,0.998,2.485,0.157,3.727,
37055070,-0.051,-0.145,0.968,0.63,0.157,3.832,
37055080,-0.032,-0.162,0.972,2.747,0.175,3.01,
37055090,0.04,-0.132,0.983,4.55,2.922,2.66,
37055100,0.016,-0.125,0.989,5.81,7.052,4.725,
37055110,-0.054,-0.088,1.015,5.372,11.62,6.65,
37055120,-0.105,-0.03,1.038,0.14,12.232,5.67,
37055130,-0.104,-0.032,1.046,-9.31,11.34,3.22,
37055140,-0.086,-0.045,1.09,-19.757,10.517,1.015,
37055150,-0.108,0.035,1.175,-35.07,12.775,-0.84,
37055160,-0.042,0.083,1.264,-60.707,16.537,-4.112,
37055170,0.021,0.048,1.306,-96.775,27.16,-5.565,
37055180,-0.014,-0.039,1.296,-138.967,25.742,1.365,
37055190,-0.051,-0.025,1.169,-178.57,21.63,20.457,
37055200,-0.349,-0.002,1.078,-203.595,6.86,31.167,
37055210,-0.314,-0.114,1.074,-230.055,-20.895,37.31,
37055220,-0.177,-0.166,0.989,-244.877,-40.162,38.185,
37055230,-0.253,-0.129,0.932,-251.247,-36.032,33.11,
37055240,-0.22,-0.684,0.891,-254.59,-26.46,24.465,
37055250,-0.035,-0.446,1.127,-219.117,-2.485,25.217,
37055260,-0.095,-0.985,1.079,-189.997,2.712,-0.472,
37055270,-0.143,-0.862,0.936,-133.35,2.59,0.945,
37055280,-0.054,-0.971,0.953,-78.96,4.9,-6.16,
37055290,0.285,-1.07,0.531,-56.927,20.895,-24.325,
37055300,-0.555,-0.914,0.807,-13.527,70.245,10.867,
37055310,-0.903,-0.219,0.636,58.222,85.19,40.407,
37055320,0.648,0.105,0.66,87.237,87.062,98.017,
37055330,1.182,0.616,0.205,122.465,95.742,86.45,
37055340,0.975,1.021,-0.032,161.7,83.772,19.092,
37055350,0.941,1.135,-0.198,157.797,49,-61.862,
37055360,0.603,1.104,-0.325,159.757,8.312,-112.577,
37055370,0.525,0.962,-0.414,159.355,-19.022,-145.197,
37055380,0.27,0.424,-0.487,158.655,-20.702,-174.195,
37055390,0.185,-0.211,0.348,159.512,-10.465,-176.925,
37055390,-1.955,-1.98,0.52,181.982,-221.725,-248.5,
37055410,0.525,-1.998,0.048,497.525,-249.532,-250.967,
37055410,1.463,1.18,1.655,522.935,6.772,24.832,
37055420,1.214,1.504,1.4,384.492,261.432,-83.475,
37055430,-1.835,1.807,-0.268,189.28,238.752,30.677,
37055440,-0.093,-1.563,1.505,-107.362,-70.892,-0.752,
37055450,-1.288,0.255,0.85,-20.877,-113.907,4.182,
37055460,0.679,-0.277,1.078,-62.685,-137.795,-2.117,
37055470,0.147,-0.396,0.99,-46.847,-106.05,6.86,
37055480,0.357,-0.256,0.985,-44.94,-81.095,11.462,
37055490,0.128,-0.122,0.974,-36.207,-59.342,7.91,
37055500,0.172,-0.289,0.931,-31.762,-46.917,7.665,
37055510,0.26,-0.256,0.947,-16.642,-31.465,3.08,
37055520,0.233,0,0.98,-7.577,-16.222,4.252,
37055530,0.058,-0.1,0.977,-5.442,-2.887,13.667,
37055540,-0.097,-0.169,0.973,-1.82,2.222,15.295,
37055550,-0.16,-0.04,1.01,-0.56,1.575,7.927,
37055560,-0.08,-0.126,0.985,-3.5,-4.602,1.12,
37055570,-0.019,-0.124,0.974,-4.182,-6.86,-2.782,
37055580,-0.032,-0.109,0.981,-3.587,-6.492,-3.902,
37055590,0.004,-0.095,0.981,-3.815,-5.687,-4.462,
37055600,0.032,-0.109,0.981,-3.447,-3.745,-3.185,
37055610,0.002,-0.145,0.968,-2.887,-0.35,-0.98,
37055620,0.017,-0.15,0.963,-0.805,2.205,-1.872,
37055630,0.074,-0.151,0.967,2.66,6.195,-3.185,
37055640,0.068,-0.137,0.981,7.192,12.355,-2.187,
37055650,0.03,-0.106,0.994,9.765,18.375,-0.945,
37055660,-0.014,-0.072,1.014,9.87,23.24,-0.735,
37055670,-0.045,-0.051,1.04,7.385,26.617,-1.295,
37055680,-0.05,-0.049,1.068,0.402,30.31,-2.432,
37055690,-0.055,-0.077,1.115,-10.57,36.732,-4.27,
37055700,-0.008,0.109,1.27,-29.102,50.347,-8.89,
37055710,0.18,0.027,1.334,-56.245,72.205,-10.447,
37055720,0.292,-0.121,1.328,-94.132,102.9,-7.28,
37055730,0.397,-0.105,1.336,-132.51,117.232,23.012,
37055740,0.337,-0.135,1.364,-172.427,114.747,69.597,
37055750,-0.057,-0.059,1.463,-210.297,81.987,112.945,
37055760,1.064,-0.788,1.532,-243.985,42.455,143.167,
37055760,0.677,-0.818,1.183,-230.055,72.642,190.767,
37055780,-0.771,-0.26,1.224,-192.43,54.775,242.322,
37055780,0.545,-1.437,0.772,-226.87,-121.17,190.662,
37055800,1.91,-1.998,0.795,-148.942,-122.062,168.367,
37055800,1.998,-1.966,1.655,-74.462,-39.427,36.067,
37055820,1.873,-1.266,1.318,-18.147,-31.552,-143.535,
37055820,0.207,0.325,1.015,38.605,-73.92,-280.455,
37055830,-1.561,1.376,0.66,57.732,-148.085,-276.412,
37055840,-1.748,1.996,0.161,66.185,-206.465,-167.58,
37055850,-1.204,1.973,-0.09,52.675,-202.282,-46.2,
37055860,-0.603,1.514,-0.39,49,-162.417,1.942,
37055870,-0.524,1.448,-0.736,81.375,-123.357,-13.545,
37055880,-0.749,1.413,-0.762,76.86,-116.935,-58.555,
37055890,-0.936,0.741,-0.787,39.48,-123.637,-103.232,
37055900,-1.572,0.413,-0.581,12.18,-137.777,-135.257,
37055910,-1.997,0.134,-0.646,-0.91,-181.72,-150.097,
37055920,-0.1,-1.051,0.826,-32.882,-92.155,-95.322,
37055930,-1.193,-1.998,-0.044,115.202,313.022,47.372,
37055940,1.478,0.536,0.838,546.63,211.907,-71.802,
37055950,0.206,1.946,1.935,413.91,297.535,-74.637,
37055960,-1.613,1.223,1.293,82.215,253.365,65.415,
37055970,0.825,-0.306,1.006,-7.735,-19.285,49.385,
37055980,-1.453,0.044,1.095,-50.172,-78.487,-9.992,
37055990,1.14,-0.399,0.97,-66.762,-99.872,-3.36,
37056000,-0.376,-0.106,0.996,-60.917,-61.6,-2.012,
37056010,0.45,-0.65,0.894,-51.887,-54.372,8.645,
37056020,0.259,-0.206,0.892,-28.665,-34.23,6.457,
37056030,0.245,-0.381,0.899,-14.385,-16.87,11.462,
37056040,0.067,-0.231,0.914,4.252,-0.927,14.052,
37056050,0.032,-0.113,0.989,12.932,5.635,10.202,
37056060,0.012,-0.06,0.991,13.072,9.712,10.57,
37056070,-0.1,-0.091,1.011,10.115,11.287,11.445,
37056080,-0.185,-0.066,0.998,3.622,8.05,7.857,
37056080,-0.12,-0.164,0.976,-2.31,0.367,-0.157,
37056100,-0.082,-0.128,0.979,-3.78,-3.745,-5.215,
37056100,0.021,-0.109,0.976,-5.25,-5.967,-6.825,
37056120,0.079,-0.16,0.95,-4.27,-2.94,-5.022,
37056120,0.058,-0.161,0.96,1.05,2.747,-1.4,
37056140,-0.047,-0.08,1,4.41,7.805,1.61,
37056140,-0.105,-0.108,0.993,1.977,6.877,2.45,
37056160,-0.086,-0.147,0.979,-0.77,4.252,1.557,
37056160,-0.089,-0.122,0.98,-1.872,1.4,0.84,
37056170,-0.072,-0.117,0.995,-3.587,-0.49,0.052,
37056180,-0.068,-0.098,1.004,-6.492,-2.59,-0.962,
37056190,-0.042,-0.104,0.998,-10.272,-3.377,-1.557,
37056200,-0.025,-0.126,0.976,-11.987,-3.972,-1.802,
37056210,-0.029,-0.167,0.957,-11.305,-3.22,-1.855,
37056220,-0.028,-0.181,0.947,-7.822,-2.905,-2.082,
37056230,-0.036,-0.167,0.953,-3.657,-1.732,-2.257,
37056240,-0.031,-0.158,0.962,-0.612,-1.347,-2.012,
37056250,-0.049,-0.159,0.967,0.857,-0.315,-0.962,
37056260,-0.037,-0.145,0.964,1.575,-0.367,0.157,
37056270,-0.027,-0.157,0.959,2.45,0.507,1.645,
37056280,-0.031,-0.155,0.956,4.445,1.225,2.607,
37056290,-0.016,-0.156,0.954,6.772,2.677,3.605,
37056300,-0.031,-0.156,0.956,9.73,3.885,4.13,
37056310,-0.032,-0.159,0.958,12.407,5.285,4.357,
37056320,-0.02,-0.152,0.955,15.487,6.387,4.392,
37056330,0,-0.164,0.952,19.25,8.47,4.515,
37056340,0.014,-0.157,0.959,24.325,11.672,5.88,
37056350,-0.039,-0.125,0.981,28.56,15.575,8.365,
37056360,-0.089,-0.11,0.994,29.207,16.957,9.52,
37056370,-0.146,-0.079,0.996,26.495,15.4,8.575,
37056380,-0.182,-0.06,0.995,20.982,10.727,6.352,
37056390,-0.199,-0.05,0.996,13.93,3.797,3.412,
37056400,-0.155,-0.048,0.991,6.912,-3.447,1.19,
37056410,-0.138,-0.07,0.992,0.612,-9.275,-0.7,
37056420,-0.081,-0.085,0.984,-3.92,-13.02,-2.135,
37056430,-0.037,-0.098,0.976,-6.125,-14.332,-3.01,
37056440,-0.026,-0.089,0.972,-6.125,-12.705,-2.31,
37056450,-0.021,-0.118,0.962,-5.337,-10.727,-0.892,
37056460,-0.076,-0.105,0.957,-2.782,-8.33,0.91,
37056470,-0.13,-0.108,0.968,-0.945,-9.625,1.487,
37056480,-0.157,-0.078,0.989,-1.54,-13.3,0.07,
37056490,-0.182,-0.031,1.008,-6.09,-20.16,-1.732,
37056500,-0.213,-0.031,1.017,-14.35,-29.05,-3.15,
37056510,-0.203,-0.024,1.045,-24.22,-40.775,-5.25,
37056510,-0.174,-0.01,1.092,-36.942,-51.537,-7.385,
37056530,-0.102,-0.021,1.153,-53.725,-60.83,-8.26,
37056530,-0.061,-0.014,1.172,-75.425,-66.027,-4.515,
37056550,0.002,-0.045,1.16,-100.922,-68.687,0.227,
37056550,-0.126,0.052,1.23,-130.025,-77.77,5.215,
37056570,-0.11,0.08,1.198,-157.377,-85.487,5.302,
37056570,-0.112,-0.136,1.166,-182.49,-88.445,-8.155,
37056580,-0.135,-0.168,1.142,-200.55,-89.67,-22.487,
37056590,-0.126,-0.136,1.163,-219.922,-93.502,-32.357,
37056600,-0.157,-0.037,1.219,-243.372,-104.807,-39.305,
37056610,-0.178,-0.321,1.16,-266.927,-122.132,-38.85,
37056620,-0.303,0.368,1.041,-259.805,-146.247,-37.222,
37056630,-0.202,-0.449,1.091,-285.775,-181.44,-43.102,
37056640,-0.378,-0.276,1.08,-277.655,-218.032,-47.302,
37056650,-0.417,-0.476,0.938,-268.047,-266.14,-52.15,
37056660,-0.294,-0.995,1.012,-236.81,-311.885,-66.955,
37056670,-0.115,-0.965,0.828,-173.565,-309.592,-74.147,
37056680,0.398,-0.788,0.883,-115.22,-233.152,-61.407,
37056690,1.336,-1.236,1.161,-98.665,-70.945,-52.535,
37056700,-0.921,-0.245,1.062,15.487,66.675,-48.755,
37056710,-1.944,0.407,0.844,143.43,98.402,-6.265,
37056720,-1.419,0.033,0.782,177.695,89.005,106.592,
37056730,-0.078,-0.429,0.432,215.162,101.08,182.577,
37056740,0.327,-0.392,0.398,253.015,165.042,220.342,
37056750,0.113,-0.361,0.397,266.332,220.675,228.305,
37056760,-0.256,-0.266,0.415,253.575,226.275,218.085,
37056770,-0.368,-0.317,0.425,209.422,179.532,197.68,
37056780,-0.134,-0.526,0.569,159.285,115.395,179.672,
37056790,0.302,-0.886,0.619,116.217,72.327,166.512,
37056800,0.606,-1.229,0.6,101.115,61.862,146.755,
37056810,0.844,-1.552,0.411,100.082,70.805,106.312,
37056820,1.028,-1.929,0.088,97.72,94.202,47.81,
37056830,0.791,-1.998,-0.247,86.362,99.872,-32.655,
37056830,0.463,-1.998,-0.485,47.337,72.415,-135.38,
37056850,-0.054,-1.998,-0.748,-4.76,13.702,-237.982,
37056850,-0.602,-1.551,-0.238,-41.982,-53.235,-311.587,
37056870,1.388,-0.938,1.998,-74.865,15.295,-362.302,
37056870,1.057,0.085,0.388,185.115,159.355,-393.382,
37056890,-0.404,1.997,1.067,418.652,69.247,-379.82,
37056890,1.758,0.086,1.018,304.57,6.16,-196.997,
37056910,1.985,-1.627,1.465,292.932,82.582,-101.325,
37056910,0.579,0.797,1.996,378.157,234.36,-13.055,
37056920,-1.439,1.195,1.598,238.017,266.682,45.972,
37056930,-0.801,1.327,0.952,94.29,114.17,14.14,
37056940,-0.782,-0.052,1.059,-10.027,-6.177,-9.905,
37056950,-0.342,0.061,1.021,-16.94,-42.507,-13.405,
37056960,-0.355,-0.009,1.003,-33.932,-62.037,-11.182,
37056970,0.119,-0.246,0.964,-41.107,-64.12,-7.42,
37056980,0.193,-0.377,0.938,-36.19,-54.057,-4.987,
37056990,0.299,-0.284,0.929,-20.125,-35.507,-2.187,
37057000,0.238,-0.233,0.945,-4.06,-14.665,5.915,
37057010,-0.021,-0.063,0.986,7.507,0.437,13.685,
37057020,-0.137,-0.036,0.997,7.647,1.925,9.957,
37057030,0.048,-0.091,0.983,3.92,-0.017,2.94,
37057040,-0.045,-0.029,0.998,2.292,3.955,4.917,
37057050,-0.234,-0.028,0.997,-1.75,3.815,6.335,
37057060,-0.141,-0.033,1.009,-7,-3.342,0.49,
37057070,-0.075,0.008,1.02,-13.51,-7.542,-1.592,
37057080,-0.014,-0.048,1.022,-22.032,-7.35,0.21,
37057090,-0.051,0,1.042,-27.807,-5.442,3.465,
37057100,-0.043,0.05,1.089,-36.4,-4.865,8.4,
37057110,-0.036,-0.001,1.136,-50.627,-3.15,12.81,
37057120,-0.078,0.056,1.178,-69.772,1.242,12.897,
37057130,-0.122,0.04,1.248,-94.22,4.55,9.747,
37057140,0.052,0.088,1.229,-121.205,-0.927,10.115,
37057150,0.036,-0.109,1.292,-151.48,-2.572,11.322,
37057160,-0.209,-0.138,1.267,-177.537,-11.917,18.777,
37057170,-0.261,-0.211,1.142,-194.932,-26.197,27.527,
37057180,-0.052,-0.485,1.087,-204.82,-18.182,41.3,
37057190,-0.164,-0.698,1.083,-193.812,-2.66,58.327,
37057200,-0.138,-0.641,0.997,-160.492,-2.257,66.517,
37057210,0.043,-0.769,1.045,-126.507,-10.99,77.91,
37057220,0.279,-1.467,1.105,-86.187,-12.25,87.132,
37057230,0.668,-1.971,0.362,-17.255,24.937,77.7,
37057240,-0.133,-0.976,0.111,67.025,82.74,87.027,
37057250,0.889,-0.734,0.185,49.105,78.645,82.302,
37057260,0.822,-0.662,0.038,55.23,63.052,37.572,
37057260,0.259,0.065,-0.212,94.815,63.105,6.195,
37057280,0.141,0.367,-0.771,99.067,48.125,-4.147,
37057280,0.311,0.858,-1.408,95.76,29.277,-0.315,
37057300,0.15,1.243,-1.24,42.385,-7.297,-10.622,
37057300,0.919,1.184,-0.66,-35.735,-62.755,-48.492,
37057320,-1.106,-0.951,1.943,-54.442,-106.785,-33.81,
37057320,-0.907,-1.712,-0.452,387.065,-225.47,-94.937,
37057330,1.996,-0.261,1.538,433.685,-132.72,116.795,
37057340,1.228,0.644,1.998,400.627,0.227,41.317,
37057350,-0.657,1.028,1.055,249.13,204.347,30.485,
37057360,-0.572,0.637,0.464,76.947,73.465,57.242,
37057370,-1.338,-0.205,1.274,-98.297,-87.29,7.665,
37057380,0.224,-0.214,0.998,-51.73,-130.287,13.842,
37057390,0.185,-0.778,0.948,-75.582,-103.285,10.272,
37057400,0.058,-0.317,0.929,-52.762,-74.322,-1.872,
37057410,0.386,-0.259,0.931,-44.45,-60.9,-6.615,
37057420,0.471,-0.445,0.871,-23.047,-33.985,3.115,
37057430,0.3,-0.266,0.927,5.092,-6.93,12.04,
37057440,0.068,-0.094,0.991,20.072,11.76,17.937,
37057450,-0.044,-0.029,1.011,22.067,19.057,17.447,
37057460,-0.126,-0.016,0.996,17.447,19.285,15.295,
37057470,-0.155,-0.074,0.991,11.742,15.225,10.447,
37057480,-0.211,0.05,1.026,7.14,9.905,3.815,
37057490,-0.183,-0.058,0.994,-2.31,1.487,-1.907,
37057500,-0.027,-0.133,0.972,-6.142,-2.835,-6.142,
37057510,-0.009,-0.098,0.988,-4.025,-0.507,-4.917,
37057520,-0.053,-0.075,1,-4.217,3.675,-2.24,
37057530,-0.122,-0.018,1.023,-7.682,4.812,-1.75,
37057540,-0.143,-0.026,1.035,-15.697,3.465,-3.64,
37057550,-0.117,-0.04,1.043,-25.182,0.525,-6.65,
37057560,-0.094,-0.032,1.074,-34.79,0.14,-8.732,
37057570,-0.101,0.016,1.118,-47.005,1.82,-9.59,
37057580,-0.084,0.02,1.17,-66.5,5.582,-9.87,
37057580,-0.092,0.007,1.209,-91.787,9.975,-10.587,
37057600,-0.086,0.053,1.217,-121.292,10.675,-6.86,
37057600,-0.052,-0.036,1.204,-149.992,6.755,1.295,
37057620,-0.088,-0.003,1.157,-174.825,2.87,11.935,
37057620,-0.164,0.041,1.144,-198.87,-6.685,21.245,
37057640,-0.193,0.03,1.184,-228.375,-18.637,28.892,
37057640,-0.321,-0.061,1.272,-255.482,-34.247,37.887,
37057660,-0.539,-0.374,1.494,-273.84,-62.457,42.122,
37057660,-0.354,-0.965,1.476,-257.022,-105.857,42.472,
37057670,0.229,-0.556,1.452,-195.212,-114.817,61.74,
37057680,0.351,-0.864,1.149,-154.455,-96.372,56.962,
37057690,-0.237,-0.68,1.35,-124.652,-42.945,95.217,
37057700,-1.438,-0.03,1.296,-35.857,-25.305,178.307,
37057710,-0.672,0.901,0.914,39.655,-8.837,291.357,
37057720,1.313,1.486,0.168,58.222,14.927,396.532,
37057730,1.861,1.997,-0.057,117.95,0.017,360.92,
37057740,1.404,1.997,-0.157,136.22,-42.647,215.687,
37057750,1.111,1.948,-0.89,175.437,-71.05,56.28,
37057760,0.017,1.953,-1.259,222.39,-71.12,-33.11,
37057770,-0.287,1.067,-1.169,160.912,-92.417,-111.072,
37057780,-0.374,0.02,-0.676,109.375,-87.027,-150.955,
37057790,-1.22,-1.591,1.094,79.03,-94.605,-166.285,
37057800,0.159,-1.998,-1.29,297.972,25.322,-331.817,
37057810,0.059,0.464,1.426,525.14,65.135,-87.482,
37057820,1.296,1.277,1.666,350.28,132.387,18.48,
37057830,-1.998,1.775,0.622,116.252,211.995,18.777,
37057840,0.689,-0.674,1.18,-30.852,-30.817,42.997,
37057850,-0.912,-0.322,0.945,-26.74,-76.16,-12.18,
37057860,0.444,-0.498,0.981,-28.927,-77.647,-5.53,
37057870,-0.409,0.032,0.969,-13.002,-55.685,-5.547,
37057880,0.027,-0.108,1.014,-26.81,-59.237,-3.745,
37057890,0.159,-0.18,0.968,-31.202,-52.342,1.872,
37057900,0.147,-0.29,0.93,-24.272,-38.237,7.717,
37057910,0.158,-0.144,0.966,-9.082,-23.537,7.612,
37057920,0.116,-0.111,0.973,-1.382,-10.972,9.257,
37057930,0.044,-0.091,0.981,3.325,-1.942,10.64,
37057940,-0.101,-0.063,0.985,5.302,3.867,12.197,
37057950,-0.116,-0.038,0.988,4.13,2.432,10.535,
37057960,-0.122,-0.068,0.983,2.38,-0.087,7.647,
37057970,-0.126,-0.081,0.983,2.03,-3.325,3.745,
37057980,-0.093,-0.06,0.987,1.067,-5.32,0.367,
37057990,-0.039,-0.067,0.984,-0.577,-6.562,-0.98,
37058000,-0.031,-0.082,0.986,-1.732,-4.305,-0.035,
37058010,-0.056,-0.083,0.99,-2.292,-1.907,1.627,
37058010,-0.086,-0.065,0.995,-4.637,-0.105,1.907,
37058030,-0.064,-0.087,0.991,-8.155,-0.21,1.435,
37058030,-0.063,-0.085,1.004,-11.2,1.785,1.295,
37058040,-0.052,-0.092,1.001,-13.265,2.975,1.785,
37058050,-0.052,-0.087,1.028,-15.785,5.04,2.065,
37058060,-0.029,-0.051,1.052,-20.65,7.42,3.535,
37058070,-0.05,-0.036,1.105,-29.645,10.01,4.882,
37058080,-0.054,-0.014,1.146,-44.572,10.902,6.125,
37058090,-0.111,-0.015,1.187,-68.075,9.485,10.167,
37058100,-0.054,-0.123,1.232,-105.21,-13.335,21.682,
37058110,-0.208,-0.022,1.282,-142.642,-20.422,38.745,
37058120,-0.474,-0.241,1.197,-160.807,-37.817,53.707,
37058130,-0.263,-0.632,1.095,-174.3,-68.162,80.78,
37058140,-0.471,-0.717,1.246,-166.512,-91.297,113.417,
37058150,-0.941,-0.947,1.143,-141.557,-141.19,130.917,
37058160,-1.146,-1.765,0.779,-87.71,-218.645,140.875,
37058170,-1.36,-1.998,0.476,-9.152,-203.647,180.197,
37058180,-0.715,-1.985,0.052,95.567,-44.362,257.127,
37058190,-0.304,-1.615,-0.535,123.917,-1.347,245.385,
37058200,0.374,-1.912,-0.051,63.42,25.235,135.117,
37058210,-0.057,-1.995,0,14.525,81.27,22.207,
37058220,-0.591,-1.561,-0.506,22.452,115.867,-81.672,
37058230,-0.595,-0.581,-0.844,-19.425,135.327,-150.78,
37058240,-0.656,0.273,-0.905,-106.12,142.31,-197.435,
37058250,-0.406,0.981,-0.704,-159.267,130.62,-254.047,
37058260,-0.484,1.93,1.539,-168.402,108.5,-285.04,
37058270,0.885,1.997,1.227,154.787,-5.11,-322.577,
37058280,1.063,1.301,0.408,543.602,-121.712,-266.035,
37058290,1.998,-1.991,1.998,358.907,-101.272,-247.047,
37058300,0.193,1.808,1.628,370.335,210.735,-77.595,
37058310,-1.454,1.519,0.52,145.897,215.46,42.542,
37058320,-0.98,0.325,1.075,-40.127,-1.96,36.557,
37058330,-0.468,-0.132,1.105,-43.487,-82.81,2.467,
37058330,0.062,-0.287,1.034,-62.632,-85.47,22.855,
37058350,-0.069,-0.274,0.967,-58.24,-66.832,13.247,
37058350,-0.188,-0.295,0.955,-54.81,-60.83,-0.875,
37058370,0.15,-0.304,0.926,-45.307,-58.17,-16.467,
37058370,0.374,-0.383,0.875,-32.305,-45.185,-14.542,
37058390,0.25,-0.253,0.926,-11.865,-24.395,-5.197,
37058390,0.215,-0.136,0.933,1.575,-7.542,3.622,
37058410,0.073,-0.151,0.969,12.792,5.25,9.712,
37058410,-0.2,-0.046,1.018,17.745,10.535,11.042,
37058420,-0.209,0.063,1.038,11.217,4.62,5.792,
37058430,-0.151,-0.053,1.008,0.525,-3.22,1.4,
37058440,-0.134,-0.133,0.98,-5.46,-8.557,-2.677,
37058450,-0.061,-0.057,0.985,-6.912,-11.952,-7.455,
37058460,0.023,-0.115,0.968,-7.455,-12.985,-10.447,
37058470,0.021,-0.159,0.956,-3.885,-10.08,-10.045,
37058480,0.025,-0.131,0.963,1.102,-6.352,-7.525,
37058490,-0.019,-0.143,0.957,5.267,-3.22,-4.882,
37058500,0.004,-0.162,0.958,9.94,-0.962,-3.832,
37058510,0.025,-0.106,0.982,13.632,1.942,-2.485,
37058520,0.003,-0.089,0.987,13.965,5.635,-0.192,
37058530,-0.009,-0.099,0.991,13.282,8.295,1.767,
37058540,-0.063,-0.029,1.018,11.095,10.377,3.132,
37058550,-0.122,0.006,1.035,4.532,9.677,2.87,
37058560,-0.099,-0.01,1.047,-5.075,7.665,1.085,
37058570,-0.063,0.023,1.091,-16.66,6.335,-0.577,
37058580,-0.075,0.051,1.142,-32.672,8.102,-1.277,
37058590,-0.087,0.039,1.192,-52.937,11.007,-3.307,
37058600,-0.066,0.069,1.215,-78.032,16.467,-6.772,
37058610,-0.09,0.027,1.199,-104.947,22.4,-10.692,
37058620,-0.259,-0.002,1.158,-130.567,19.932,-11.375,
37058630,0.003,-0.063,1.093,-154.402,5.075,-2.87,
37058640,-0.089,-0.09,1.027,-165.585,5.512,5.075,
37058650,-0.199,-0.129,1.024,-174.475,-3.57,9.222,
37058660,-0.273,-0.198,1.058,-185.587,-16.782,13.475,
37058670,-0.318,-0.258,1.23,-194.46,-34.212,17.85,
37058680,-0.281,-0.591,1.324,-187.652,-54.407,13.615,
37058690,-0.084,-0.922,1.107,-153.055,-65.87,9.45,
37058700,-0.179,-0.57,0.863,-98.805,-45.885,-0.77,
37058710,-0.19,-0.748,0.587,-64.995,-24.867,-27.737,
37058710,0.273,-0.661,0.362,-22.645,-7.822,-55.352,
37058730,-0.22,-0.009,0.113,30.03,26.39,-49.017,
37058730,-0.49,0.169,0.087,53.322,30.52,-46.847,
37058750,0.134,0.107,-0.139,69.965,28.822,-50.312,
37058750,-0.079,0.753,-0.269,115.29,51.222,-54.67,
37058760,-0.166,0.967,-0.571,150.762,65.135,-57.942,
37058770,0.016,0.824,-0.999,169.137,60.585,-59.255,
37058780,0.315,-0.747,1.277,142.677,-34.055,-111.825,
37058790,0.953,-1.998,-0.249,266.927,-66.342,-270.62,
37058800,-0.263,1.253,1.234,543.83,22.505,-87.71,
37058810,1.985,0.787,1.998,386.33,79.082,-16.082,
37058820,-1.687,1.538,0.907,199.727,222.74,17.675,
37058830,-0.624,-0.05,1.027,32.532,52.815,31.675,
37058840,-1.017,0.491,0.943,-27.09,-53.707,6.79,
37058850,-0.043,-0.703,1.045,-41.755,-94.447,-18.602,
37058860,0.171,0.027,0.998,-30.66,-76.807,5.722,
37058870,0.09,-0.372,0.969,-32.165,-60.48,3.097,
37058880,0.271,-0.267,0.953,-23.012,-45.202,3.325,
37058890,0.058,-0.179,0.966,-10.902,-26.075,4.025,
37058900,-0.031,-0.077,0.983,-4.445,-18.427,4.34,
37058910,0.083,-0.165,0.968,-2.747,-15.802,-0.455,
37058920,0.117,-0.083,0.984,1.925,-7.787,-0.945,
37058930,-0.036,0.016,1,4.305,-0.367,4.672,
37058940,-0.132,-0.083,0.981,2.45,-0.017,7.28,
37058950,-0.119,-0.041,0.999,2.345,-3.465,4.462,
37058960,-0.141,-0.004,1.001,-1.085,-7.087,3.097,
37058970,-0.077,-0.177,0.964,-5.46,-11.602,-1.277,
37058980,-0.021,-0.082,0.982,-3.132,-11.165,-5.197,
37058990,0.053,-0.089,0.979,-2.642,-9.1,-3.902,
37059000,-0.067,-0.076,0.98,-1.417,-4.41,0.892,
37059010,-0.079,-0.086,0.982,-0.595,-4.585,2.03,
37059020,-0.102,-0.058,0.984,-0.507,-5.442,0.577,
37059030,-0.009,-0.121,0.972,-0.385,-7.192,-1.662,
37059040,0.021,-0.098,0.982,0.997,-4.41,-1.627,
37059050,-0.003,-0.067,0.994,0.875,-1.085,0.665,
37059060,-0.073,-0.035,1.007,-1.47,1.61,2.502,
37059070,-0.057,-0.023,1.037,-6.352,1.715,2.765,
37059080,-0.025,0.027,1.089,-14.822,3.115,3.675,
37059080,0.04,0.059,1.173,-30.292,6.65,5.407,
37059100,0.151,0.029,1.277,-52.972,17.85,7.7,
37059100,0.151,0.037,1.316,-82.705,39.235,9.38,
37059120,0.09,-0.159,1.327,-127.575,41.632,15.785,
37059120,0.218,-0.163,1.302,-180.197,36.435,46.76,
37059140,-0.134,-0.093,1.269,-209.177,23.712,86.152,
37059140,-0.317,-0.168,1.245,-245.577,-9.222,114.135,
37059160,-0.126,-0.263,1.172,-257.74,-17.99,141.47,
37059160,-0.292,-0.538,0.768,-239.627,-10.762,168.857,
37059170,-0.738,-1.516,0.473,-209.877,-45.5,139.912,
37059180,-1.237,-1.965,0.773,-148.855,-67.725,102.427,
37059190,0.68,-1.998,-0.069,-63.77,-40.932,46.532,
37059200,-0.913,-1.827,0.032,15.995,69.422,29.242,
37059210,0.057,-1.218,-0.105,50.137,101.867,-10.675,
37059220,0.275,-1.02,0.117,12.967,79.905,-66.097,
37059230,0.326,-0.751,0.222,17.85,76.352,-119.91,
37059240,0.058,-0.088,-0.05,47.687,72.765,-157.342,
37059250,-0.08,0.304,-0.425,60.427,52.29,-189.017,
37059260,-0.135,0.502,-0.958,48.772,34.912,-201.6,
37059270,-0.327,1.01,-1.235,33.057,15.995,-204.19,
37059280,0.262,1.413,-0.964,-23.065,-5.722,-194.215,
37059290,-1.418,0.663,1.502,-30.327,-67.06,-93.047,
37059300,0.688,0.02,-0.41,434.157,-172.795,-72.905,
37059310,1.11,-1.369,1.375,451.955,-98.315,30.695,
37059320,0.536,-0.288,1.998,481.25,-16.607,-17.622,
37059330,0.937,0.338,1.922,405.475,161.07,43.19,
37059340,-1.885,1.965,-0.207,204.137,231.857,28.157,
37059350,-0.249,-0.255,1.324,-55.86,-21.192,14.35,
37059360,-1.175,0.37,1.058,-64.907,-100.187,-21,
37059370,0.321,-0.658,1.036,-90.912,-115.115,-9.975,
37059380,-0.289,-0.743,0.834,-65.24,-87.815,-19.512,
37059390,0.39,-0.472,0.913,-46.882,-78.277,-25.41,
37059400,0.588,-0.222,0.964,-21.437,-51.415,-14.717,
37059410,0.143,-0.107,0.977,-7.56,-23.817,5.582,
37059420,-0.085,-0.146,0.988,0.245,-11.217,11.392,
37059420,0.01,-0.054,0.993,1.977,-9.712,3.64,
37059440,-0.036,-0.035,1.007,0.087,-6.405,2.765,
37059440,-0.14,-0.035,1.008,-4.2,-6.107,4.007,
37059460,-0.226,0.044,1.033,-10.5,-10.01,0.962,
37059460,-0.261,-0.009,1.02,-20.107,-18.445,-5.092,
37059480,-0.064,-0.163,0.97,-25.987,-26.162,-14.21,
37059480,0.076,-0.199,0.951,-22.522,-26.11,-18.34,
37059500,0.169,-0.189,0.941,-15.4,-18.147,-16.572,
37059500,0.083,-0.22,0.933,-6.545,-8.085,-11.672,
37059510,-0.004,-0.183,0.949,1.785,-0.647,-8.697,
37059520,-0.004,-0.156,0.956,8.207,2.555,-7.91,
37059530,-0.003,-0.148,0.966,13.685,5.302,-6.247,
37059540,0,-0.137,0.968,17.815,8.12,-4.13,
37059550,-0.027,-0.123,0.972,21.017,10.937,-0.997,
37059560,-0.016,-0.118,0.992,22.977,12.757,1.295,
37059570,-0.09,-0.012,1.036,21.455,14.542,2.432,
37059580,-0.143,0.048,1.071,12.092,13.86,4.165,
37059590,-0.201,0.148,1.137,-4.042,10.692,5.687,
37059600,-0.148,0.141,1.236,-28.385,7.472,5.512,
37059610,-0.064,0.101,1.368,-60.672,11.515,1.767,
37059620,0.158,0.106,1.451,-102.812,31.202,-3.22,
37059630,0.072,0.015,1.416,-151.97,57.47,0.21,
37059640,0.022,0.032,1.346,-203.087,56.21,28.7,
37059650,-0.235,0.097,1.287,-244.72,34.737,58.59,
37059660,-0.306,-0.256,1.246,-271.232,19.722,88.812,
37059670,-0.08,-0.631,0.877,-265.58,2.485,131.337,
37059680,-0.196,-0.789,1.15,-245.35,-0.91,145.827,
37059690,-0.532,-1.201,1.068,-181.352,-21.035,126.262,
37059700,-0.23,-1.956,0.341,-112.087,-44.152,81.515,
37059710,-1.338,-1.567,0.724,-27.492,17.5,100.94,
37059720,0.134,-0.505,0.323,38.78,60.34,145.547,
37059730,1.435,-0.533,0.578,11.812,73.517,113.295,
37059740,1.107,-0.079,0.451,53.112,51.082,-18.777,
37059750,0.552,0.464,0.185,92.732,32.322,-119.892,
37059760,0.15,0.867,-0.212,117.932,-9.362,-179.567,
37059770,-0.149,1.077,-0.832,121.467,-46.865,-221.357,
37059780,-0.325,1.161,-1.407,114.187,-56.525,-221.497,
37059790,-0.724,1.101,-1.271,57.82,-64.12,-204.347,
37059800,-0.651,0.272,-0.79,-21.437,-79.222,-175.542,
37059810,-0.467,-0.557,0.817,-45.377,-67.847,-130.602,
37059820,-0.881,-1.998,0.08,92.26,-193.077,-179.497,
37059830,1.541,-0.61,0.707,534.835,-59.255,-99.75,
37059830,1.623,1.997,1.814,494.34,14.315,-14.752,
37059850,0.883,0.073,1.862,304.255,152.11,1.907,
37059850,-1.92,1.997,0.15,179.637,228.445,48.597,
37059870,0.55,-0.6,1.167,-45.605,-30.24,33.6,
37059870,-1.618,0.453,1.006,-44.257,-95.725,-19.477,
37059890,0.855,-0.798,1.093,-64.312,-125.44,0.07,
37059890,-0.21,-0.092,0.978,-42.507,-90.177,-9.047,
37059910,0.565,-0.343,0.971,-48.877,-71.89,-2.275,
37059910,0.357,-0.292,0.936,-30.31,-40.53,3.955,
37059920,0.183,-0.305,0.933,-16.712,-17.587,10.622,
37059930,0.023,-0.097,0.975,-4.13,-4.445,9.135,
37059940,0.031,-0.101,0.988,-1.925,0.105,3.307,
37059950,0.1,-0.083,0.987,-2.187,4.392,2.135,
37059960,-0.009,-0.135,0.97,-2.555,11.322,7.157,
37059970,-0.271,-0.044,1.013,-1.347,12.302,7.56,
37059980,-0.298,-0.077,1.01,-4.742,2.24,0.612,
37059990,-0.089,-0.099,0.997,-10.692,-8.4,-9.327,
37060000,0.061,-0.094,0.995,-13.23,-9.957,-12.302,
37060010,0.067,-0.092,1.001,-15.242,-5.162,-8.732,
37060020,-0.023,-0.065,1.023,-17.832,0.84,-5.407,
37060030,-0.084,-0.053,1.029,-22.47,2.765,-6.422,
37060040,-0.069,-0.116,0.999,-27.475,3.412,-9.87,
37060050,0.001,-0.162,0.984,-28.525,4.602,-12.635,
37060060,0.036,-0.137,1.006,-28.192,9.695,-12.005,
37060070,0.008,-0.104,1.041,-31.29,16.415,-9.45,
37060080,-0.033,-0.094,1.084,-38.937,24.272,-8.295,
37060090,-0.032,-0.021,1.158,-51.135,32.235,-10.325,
37060100,-0.009,0.008,1.218,-71.155,42.682,-13.23,
37060110,0.001,0.011,1.251,-97.912,50.522,-14.21,
37060120,-0.007,-0.004,1.233,-128.31,56.77,-10.937,
37060130,-0.001,-0.077,1.206,-158.725,54.302,-0.892,
37060140,-0.053,-0.099,1.221,-186.865,42.332,20.16,
37060150,-0.237,-0.078,1.251,-214.392,10.535,48.02,
37060160,-0.35,-0.188,1.328,-242.235,-29.627,76.44,
37060170,-0.601,-0.538,1.457,-244.492,-63.577,97.772,
37060170,-0.019,-1.322,1.585,-213.64,-92.907,113.47,
37060190,-0.149,-1.189,1.219,-129.307,-101.5,137.375,
37060190,-0.163,-1.134,1.299,-46.41,-112.157,149.065,
37060210,0.084,-0.975,0.57,21.14,-59.272,205.607,
37060210,0.021,-0.564,0.652,69.247,-11.27,238.612,
37060230,0.352,-0.173,0.098,97.265,-22.872,213.29,
37060230,0.3,0.245,0.084,97.93,-19.04,184.905,
37060250,0.102,0.482,-0.076,108.325,-22.82,132.667,
37060250,-0.201,0.753,-0.316,121.712,-22.785,95.322,
37060260,-0.419,0.94,-0.711,128.1,-37.257,71.277,
37060270,-0.325,1.112,-1.323,124.075,-53.077,57.907,
37060280,-0.239,1.453,-1.514,91.472,-58.852,47.372,
37060290,-0.064,1.54,-1.178,15.067,-68.46,27.685,
37060300,0.455,1.314,-0.651,-32.27,-42.052,0,
37060310,-0.592,1.058,1.022,-22.68,-37.082,-59.535,
37060320,-0.217,-1.939,0.031,72.17,-247.992,-302.12,
37060330,-1.086,0.193,1.576,530.232,8.54,-234.342,
37060340,1.998,1.051,1.971,399.297,10.132,-74.952,
37060350,-1.743,1.832,0.786,145.057,243.005,4.97,
37060360,0.341,-0.091,1.201,-4.76,31.605,67.76,
37060370,-1.117,0.293,0.991,-43.207,-76.685,2.607,
37060380,0.448,-0.557,0.991,-67.34,-103.442,21.035,
37060390,-0.268,-0.385,0.965,-46.112,-79.712,1.452,
37060400,0.238,-0.228,0.98,-47.652,-74.532,-11.375,
37060410,0.476,-0.181,0.959,-42.367,-56.507,-12.617,
37060420,0.36,-0.324,0.897,-31.64,-30.8,2.012,
37060430,0.156,-0.312,0.919,-11.025,-8.295,12.022,
37060440,0.068,-0.135,0.984,4.27,4.637,12.04,
37060450,-0.044,0.024,1.026,8.155,10.15,13.457,
37060460,-0.117,-0.183,0.961,4.217,11.025,14.472,
37060470,-0.104,-0.052,1.022,6.685,8.242,7.98,
37060480,-0.138,0.004,1.033,0.892,5.67,3.57,
37060490,-0.027,-0.204,0.958,-7.892,3.395,-1.557,
37060500,-0.027,-0.11,0.988,-4.217,5.407,-4.287,
37060510,0.034,-0.074,1.024,-4.865,7.77,-4.882,
37060520,-0.01,-0.091,1.049,-9.187,14.7,-3.29,
37060530,-0.101,0.001,1.067,-16.17,19.915,-4.602,
37060540,-0.067,-0.063,1.091,-27.895,23.415,-9.87,
37060550,0.056,-0.013,1.14,-41.335,31.115,-15.05,
37060560,0.112,-0.031,1.176,-58.432,46.812,-13.545,
37060570,0.025,-0.065,1.191,-80.132,60.095,-6.247,
37060580,-0.039,-0.015,1.227,-107.817,63.507,7.542,
37060580,-0.035,0.025,1.24,-136.675,61.355,23.572,
37060600,-0.025,-0.032,1.245,-169.54,60.06,31.675,
37060600,0.046,0.016,1.269,-200.445,57.662,39.165,
37060620,0.062,-0.042,1.304,-230.562,59.43,46.882,
37060620,0.025,0.016,1.265,-253.977,61.985,52.797,
37060640,0.294,-0.255,1.405,-273.927,60.83,57.557,
37060640,-0.251,-0.383,1.642,-277.252,50.365,62.982,
37060660,-0.586,-0.67,1.801,-250.372,-4.585,76.457,
37060660,0.214,-1.013,1.611,-195.51,-72.642,63.07,
37060670,1.559,0.736,1.052,-136.01,-103.792,76.737,
37060680,0.102,1.14,1.057,-48.965,-85.557,83.317,
37060690,1.855,0.406,1.649,21.052,-118.195,26.915,
37060700,0.622,0.877,0.426,145.04,-120.907,-108.167,
37060710,-0.735,1.704,-0.046,295.592,-111.685,-233.362,
37060720,-1.89,1.142,-0.416,255.482,-99.417,-179.882,
37060730,-1.211,0.726,-1.125,268.415,-88.795,-106.067,
37060740,-0.855,0.681,-1.435,253.61,-35.647,-42.437,
37060750,-0.66,0.177,-1.101,184.852,13.02,-36.61,
37060760,-0.685,-0.75,-0.516,111.125,37.59,-28.49,
37060770,-0.709,-1.471,-0.369,78.942,-3.99,-41.037,
37060780,-1.244,-1.926,0.832,83.965,-77.612,-85.487,
37060790,0.789,-1.998,-0.495,197.382,-123.55,-208.897,
37060800,0.988,1.676,1.971,502.04,96.635,-46.62,
37060810,0.863,1.599,1.229,236.005,94.045,-7.525,
37060820,-1.757,1.469,0.909,36.942,117.827,26.512,
37060830,0.595,0.082,1.158,-42.717,-42.927,63.84,
37060840,-0.81,-0.315,1.08,-55.492,-78.505,25.445,
37060850,0.628,-0.673,0.907,-58.94,-76.807,34.51,
37060860,-0.274,-0.356,1.008,-39.357,-45.465,7.98,
37060870,-0.101,0.06,1.034,-42.385,-44.17,0.437,
37060880,0.256,-0.232,0.934,-49.245,-39.935,-5.145,
37060890,0.289,-0.479,0.841,-31.237,-27.737,-4.672,
37060900,0.172,-0.172,0.946,-3.482,-9.87,-0.91,
37060910,0.16,-0.033,1.012,6.825,2.73,3.955,
37060920,-0.119,-0.038,1.006,6.422,11.532,11.06,
37060920,-0.217,-0.157,0.965,3.185,8.872,8.61,
37060940,-0.11,-0.07,0.993,3.15,2.485,-0.437,
37060940,-0.098,-0.091,0.99,-0.28,-1.662,-4.725,
37060960,-0.04,-0.111,0.974,-3.045,-3.395,-6.807,
37060960,-0.024,-0.125,0.973,-2.975,-3.377,-7.175,
37060980,0,-0.091,0.988,-2.345,-1.137,-6.44,
37060980,-0.04,-0.072,0.998,-2.677,1.26,-4.637,
37061000,-0.076,-0.115,0.982,-3.937,2.327,-4.445,
37061000,-0.046,-0.125,0.978,-3.972,2.24,-5.967,
37061010,-0.006,-0.121,0.977,-3.062,3.5,-5.582,
37061020,-0.01,-0.12,0.978,-1.207,5.915,-3.342,
37061030,-0.018,-0.123,0.989,1.032,8.785,-0.805,
37061040,-0.043,-0.094,1.004,1.837,11.742,0.962,
37061050,-0.05,-0.084,1.022,-0.245,14.105,1.767,
37061060,-0.062,-0.077,1.045,-4.602,17.237,2.502,
37061070,-0.075,-0.027,1.097,-12.845,20.527,2.047,
37061080,0.002,0.01,1.179,-28.595,26.162,1.872,
37061090,0.105,0.011,1.255,-53.095,36.242,4.69,
37061100,0.181,-0.008,1.297,-87.92,41.632,20.002,
37061110,0.052,-0.124,1.274,-125.702,38.01,46.69,
37061120,0.04,-0.361,1.166,-151.235,35.07,70.507,
37061130,0.096,-0.427,1.197,-157.57,27.807,103.355,
37061140,0.194,-0.381,1.059,-155.977,9.45,143.36,
37061150,0.04,-0.736,0.999,-155.032,-11.655,174.807,
37061160,-0.382,-1.215,1.406,-152.372,-48.195,199.692,
37061170,-0.153,-1.858,1.791,-86.8,-102.48,219.73,
37061180,-0.141,-1.939,0.926,-4.865,-164.535,194.95,
37061190,1.702,-0.737,-0.329,93.082,-140.157,161.77,
37061200,-0.072,-0.423,0.073,67.935,-96.267,122.395,
37061210,-0.069,-1.043,0.167,8.977,-111.86,8.12,
37061220,0.207,-0.724,-0.171,29.4,-81.76,-31.377,
37061230,-0.364,0.091,-0.438,48.387,-47.337,-90.055,
37061240,-0.64,0.201,-0.442,3.762,-34.51,-138.25,
37061250,-0.49,0.074,-0.818,-23.765,-25.532,-163.66,
37061260,-0.805,0.586,-0.883,-21.91,-2.817,-172.585,
37061270,-1.009,0.669,-0.946,-57.662,0.752,-178.92,
37061280,-0.161,1.168,-0.298,-79.415,15.995,-177.992,
37061290,-1.055,-0.131,0.969,-29.96,101.99,-136.587,
37061300,0.874,-1.002,0.906,446.932,-108.307,-136.85,
37061310,1.996,-1.384,1.998,393.137,77.315,-28.84,
37061320,-1.663,1.948,0.97,281.575,277.322,9.695,
37061330,-0.164,0.179,1.069,49.42,104.737,57.435,
37061330,-1.451,0.598,1.088,-44.467,-31.692,10.325,
37061350,0.588,-0.497,1.015,-47.11,-81.147,24.535,
37061350,-0.606,-0.405,0.971,-43.68,-60.182,19.547,
37061360,-0.065,-0.473,0.955,-37.817,-65.747,5.18,
37061370,0.447,-0.028,0.99,-31.36,-62.895,-12.11,
37061380,0.37,-0.171,0.992,-29.907,-38.692,-1.382,
37061390,0.182,-0.052,0.947,-26.39,-16.03,9.975,
37061400,0.095,-0.316,0.892,-19.39,-3.237,12.25,
37061410,0.173,-0.304,0.941,-0.192,4.847,7.402,
37061420,0.051,-0.085,0.983,10.01,14.07,6.632,
37061430,-0.092,-0.104,0.984,10.342,18.445,6.195,
37061440,-0.225,-0.018,1.015,9.73,15.662,2.485,
37061450,-0.183,-0.078,0.999,3.972,6.755,-3.85,
37061460,-0.023,-0.101,0.993,-0.227,1.277,-8.505,
37061470,-0.023,-0.066,1.003,-2.152,1.942,-8.96,
37061480,-0.065,-0.073,1.002,-5.6,3.727,-8.26,
37061490,-0.062,-0.063,1.013,-9.257,3.955,-8.277,
37061500,-0.081,-0.071,1.013,-14.192,4.217,-9.065,
37061510,-0.05,-0.087,1.013,-19.005,3.5,-10.85,
37061520,-0.03,-0.092,1.01,-22.4,5.04,-11.357,
37061530,-0.012,-0.122,1.002,-24.01,7.402,-11.445,
37061540,0,-0.093,1.046,-26.075,11.882,-10.885,
37061550,-0.002,-0.045,1.09,-32.532,17.447,-9.397,
37061560,-0.022,-0.028,1.155,-45.325,25.935,-8.68,
37061570,-0.025,0.001,1.232,-65.415,35.105,-8.54,
37061580,-0.046,0.065,1.306,-93.957,43.715,-5.565,
37061590,-0.029,0.047,1.312,-130.182,45.412,1.312,
37061600,-0.055,0.022,1.284,-169.995,40.915,11.48,
37061610,-0.052,0.057,1.208,-205.082,27.405,24.745,
37061620,-0.164,0.092,1.189,-237.317,13.037,33.932,
37061630,-0.268,-0.158,1.088,-268.712,-12.372,40.46,
37061640,-0.077,-0.493,1.43,-299.04,-32.777,51.957,
37061650,-0.186,-0.932,1.488,-280.07,-46.865,60.812,
37061660,-0.266,-0.524,1.341,-198.957,-74.725,62.807,
37061670,-0.138,-0.82,1.104,-150.57,-100.922,34.79,
37061670,0.353,-0.012,0.868,-127.26,-94.447,43.382,
37061690,-0.028,-0.068,0.957,-63.682,-66.605,80.395,
37061690,-0.106,0.24,1.183,-19.95,-63.63,88.392,
37061710,0.6,0.62,0.859,65.887,-44.66,118.667,
37061710,0.871,1.207,0.675,128.432,-27.02,87.762,
37061730,0.042,1.443,0.365,173.232,-38.412,5.25,
37061730,-0.01,1.206,0.118,209.3,-38.307,-27.125,
37061750,-0.259,1.113,-0.32,249.252,-34.965,-49.262,
37061750,-0.25,0.578,-0.87,256.305,-26.145,-80.36,
37061760,-0.469,0.039,-1.068,222.18,-21.91,-110.285,
37061770,-0.421,-0.369,-1.032,176.977,-35.997,-145.635,
37061780,-0.665,-0.764,-0.738,118.895,-56.525,-160.3,
37061790,-1.259,-1.303,-0.376,85.715,-100.642,-176.47,
37061800,1.642,-1.94,0.743,46.322,-13.93,-237.807,
37061810,0.042,-0.175,0.934,431.777,159.372,-245.49,
37061820,0.78,1.997,1.154,417.795,245.122,-54.022,
37061830,-1.991,1.171,0.836,70.35,225.067,30.59,
37061840,0.61,-0.508,1.137,-49.122,-9.467,50.505,
37061850,-1.448,-0.237,0.991,-19.477,-60.13,10.762,
37061860,0.721,-0.351,1.011,-46.9,-87.937,6.37,
37061870,-0.297,-0.089,1.019,-28.245,-64.382,7.28,
37061880,0.051,-0.031,1.014,-38.955,-62.667,12.74,
37061890,0.392,-0.259,0.934,-37.94,-53.27,8.925,
37061900,0.301,-0.406,0.903,-24.727,-29.767,9.712,
37061910,0.203,-0.21,0.946,-5.25,-7.98,9.66,
37061920,0.042,-0.085,0.991,6.772,6.58,11.375,
37061930,-0.067,-0.045,1.002,6.737,11.357,12.302,
37061940,-0.163,-0.069,0.995,3.482,10.482,10.027,
37061950,-0.131,-0.055,0.994,0.7,5.46,4.532,
37061960,-0.144,-0.104,0.984,-3.097,1.662,-0.875,
37061970,-0.04,-0.091,0.989,-4.725,-2.082,-5.95,
37061980,0.008,-0.082,0.993,-6.562,-0.507,-6.527,
37061990,0.02,-0.095,0.984,-9.03,3.097,-6.422,
37062000,-0.027,-0.073,1.014,-10.832,8.575,-6.72,
37062010,-0.02,-0.079,1.016,-12.705,10.5,-8.155,
37062020,-0.062,-0.109,1.012,-16.94,13.527,-9.852,
37062030,-0.066,-0.161,1.019,-20.93,15.452,-12.425,
37062030,-0.161,-0.011,1.075,-26.845,18.497,-17.237,
37062050,-0.049,-0.037,1.135,-37.73,19.092,-21.21,
37062050,0.012,0.047,1.219,-55.79,28.717,-24.08,
37062070,0.009,0.046,1.259,-78.96,46.217,-23.94,
37062070,-0.023,0.055,1.274,-108.762,57.47,-17.762,
37062080,-0.093,0.028,1.25,-141.47,57.085,-5.81,
37062090,-0.185,0.066,1.232,-172.672,46.235,8.19,
37062100,-0.043,0.027,1.237,-203.455,28.227,22.155,
37062110,-0.145,-0.069,1.268,-227.92,4.76,34.615,
37062120,-0.091,-0.421,1.227,-244.982,-14.98,42.84,
37062130,-0.112,-0.682,1.18,-236.6,-27.23,59.36,
37062140,-0.009,-0.66,1.299,-199.465,-41.982,74.427,
37062150,0.388,-0.936,1.111,-148.75,-61.652,79.1,
37062160,0.395,-1.125,1.145,-97.055,-89.022,55.877,
37062170,1.268,-0.6,0.668,-22.575,-77.647,48.02,
37062180,0.995,0.306,0.742,49.875,-39.357,-8.68,
37062190,-0.606,0.842,0.387,70.052,-50.592,-83.265,
37062200,-0.663,1.32,0.396,98.77,-77.332,-81.672,
37062210,-0.838,1.645,0.128,130.375,-73.587,-32.235,
37062220,-0.832,1.814,-0.403,173.635,-66.412,12.512,
37062230,-0.61,1.579,-0.718,184.59,-49.805,61.827,
37062240,-0.316,0.904,-0.803,152.197,-31.045,88.812,
37062250,0.015,0.326,-0.625,112.717,-26.775,79.345,
37062260,0.07,-0.188,-0.572,83.037,-32.445,35.822,
37062270,-0.82,-1.503,1.446,53.777,-86.52,-79.712,
37062280,0.029,-1.791,0.007,341.04,-36.4,-230.912,
37062290,1.017,1.996,1.964,497.245,108.045,-26.11,
37062300,0.727,1.031,1.632,198.187,129.692,-15.26,
37062310,-1.37,1.306,0.798,76.667,149.362,42.035,
37062320,-0.029,-0.461,1.135,-35.14,-27.912,32.2,
37062330,-0.008,-0.343,0.937,-22.435,-62.527,-9.485,
37062340,0.169,-0.425,0.952,-27.65,-53.27,-4.69,
37062350,-0.131,-0.098,1,-10.797,-30.87,-0.227,
37062360,-0.121,0.075,1.027,-15.82,-31.99,3.395,
37062370,0.066,-0.136,0.986,-21.997,-33.652,6.247,
37062380,0.17,-0.219,0.94,-17.937,-26.075,6.44,
37062390,0.202,-0.196,0.949,-4.672,-13.825,7.735,
37062400,0.081,-0.126,0.981,5.635,0.367,12.25,
37062410,-0.056,-0.042,0.992,8.645,6.93,15.12,
37062420,-0.128,-0.079,0.985,7.402,7.42,15.802,
37062420,-0.213,-0.036,0.994,6.597,3.115,12.617,
37062440,-0.162,-0.078,0.983,1.977,-4.375,6.142,
37062440,-0.077,-0.024,0.994,-1.715,-10.36,0.875,
37062460,-0.05,-0.038,0.996,-5.372,-11.672,0.735,
37062460,-0.001,-0.065,0.991,-7.805,-11.427,1.557,
37062480,-0.024,-0.054,0.999,-9.117,-8.645,1.942,
37062480,-0.051,-0.061,0.996,-12.005,-6.895,0.91,
37062500,-0.014,-0.103,0.998,-15.505,-4.742,-1.977,
37062500,-0.007,-0.104,1.01,-16.607,-2.222,-4.795,
37062510,-0.065,-0.028,1.047,-19.582,0.56,-6.615,
37062520,-0.074,-0.016,1.089,-28.682,1.645,-9.152,
37062530,-0.125,0.01,1.138,-42.525,1.295,-12.582,
37062540,-0.087,0.005,1.198,-63.717,0.98,-17.027,
37062550,-0.125,0.114,1.251,-93.45,4.742,-23.012,
37062560,-0.196,0.116,1.302,-130.357,7.577,-29.277,
37062570,-0.354,0.114,1.313,-170.782,-2.117,-28.56,
37062580,-0.647,0.11,1.302,-203.175,-32.375,-25.042,
37062590,-0.897,0.005,1.338,-223.352,-80.36,-24.045,
37062600,-1.066,-0.307,1.431,-226.59,-138.722,-33.792,
37062610,-0.66,-0.542,1.246,-197.767,-186.847,-46.742,
37062620,-0.179,-0.787,1.301,-163.677,-186.935,-62.055,
37062630,0.069,-0.872,0.899,-119.087,-111.02,-85.207,
37062640,-1.339,-0.025,0.584,-40.215,-39.13,-100.415,
37062650,0.189,-0.537,0.501,-38.15,-53.725,-124.635,
37062660,-0.198,-0.156,0.64,3.885,31.972,-111.335,
37062670,-1.751,0.264,0.31,117.127,90.947,-120.137,
37062680,-1.385,0.805,-0.295,181.93,125.79,-40.757,
37062690,-0.746,0.854,-0.74,219.765,143.955,47.67,
37062700,-0.34,0.64,-1.056,224.437,159.18,91.49,
37062710,-0.024,0.461,-1.11,200.112,155.365,113.382,
37062720,0.348,0.107,-1.172,147.49,123.847,123.952,
37062730,0.004,-0.656,0.627,47.495,-18.672,57.662,
37062740,0.714,-1.905,-0.065,13.037,-112.91,-299.267,
37062750,0.727,1.949,1.954,490.367,121.625,-302.837,
37062760,-0.718,1.97,0.884,170.642,185.675,56.735,
37062760,-0.044,-1.046,1.222,-34.737,71.732,64.732,
37062780,-1.077,0.499,0.951,-0.227,2.695,28,
37062780,0.495,-0.691,1.009,-23.905,-38.412,0.927,
37062800,-0.447,-0.124,0.994,1.4,-23.24,5.092,
37062800,-0.318,-0.046,1.016,-4.655,-27.86,5.04,
37062820,0.067,-0.037,0.992,-9.94,-39.427,1.277,
37062820,0.188,-0.242,0.961,-10.22,-32.637,1.697,
37062830,0.112,-0.193,0.969,-2.135,-15.645,8.627,
37062840,0.006,-0.056,0.985,2.555,-4.725,7.787,
37062850,0.048,-0.117,0.978,2.152,0.525,6.597,
37062860,-0.011,-0.081,0.984,3.5,6.615,7.84,
37062870,-0.134,-0.065,0.99,3.29,9.52,9.117,
37062880,-0.153,-0.043,0.993,2.065,6.702,7.385,
37062890,-0.129,-0.079,0.986,-0.437,2.467,4.515,
37062900,-0.104,-0.078,0.987,-1.645,-0.542,1.855,
37062910,-0.073,-0.056,0.987,-2.45,-1.575,1.015,
37062920,-0.045,-0.084,0.98,-3.097,-1.435,0,
37062930,-0.06,-0.078,0.98,-1.785,-0.122,-0.245,
37062940,-0.094,-0.083,0.978,-0.98,0.787,0.262,
37062950,-0.094,-0.101,0.977,-0.42,0.052,0.402,
37062960,-0.102,-0.105,0.977,0.437,-0.665,0.332,
37062970,-0.088,-0.104,0.976,1.365,-1.89,0.105,
37062980,-0.067,-0.102,0.979,2.555,-2.012,-0.017,
37062990,-0.046,-0.101,0.978,4.287,-1.627,-0.42,
37063000,-0.044,-0.092,0.988,5.792,0.157,-1.015,
37063010,-0.06,-0.05,0.993,6.16,0.927,-1.82,
37063020,-0.082,-0.051,0.989,4.532,0.822,-2.712,
37063030,-0.132,-0.06,0.992,2.397,-1.575,-3.762,
37063040,-0.151,-0.046,0.983,0.577,-4.777,-3.027,
37063050,-0.166,-0.034,0.975,-0.91,-9.835,-1.645,
37063060,-0.131,-0.039,0.968,-1.977,-14.577,-0.28,
37063070,-0.082,-0.06,0.962,-2.082,-18.917,0.437,
37063080,-0.072,-0.065,0.963,-1.907,-20.282,1.085,
37063090,-0.089,-0.066,0.971,-1.855,-21.822,0.367,
37063100,-0.105,-0.056,0.977,-2.065,-23.555,-0.577,
37063110,-0.093,-0.051,0.977,-3.027,-26.967,-2.1,
37063120,-0.066,-0.055,0.978,-4.445,-29.382,-3.027,
37063130,-0.02,-0.073,0.965,-5.565,-31.045,-3.22,
37063140,0.052,-0.075,0.939,-5.407,-28.98,-2.52,
37063150,0.083,-0.065,0.937,-4.672,-23.817,-1.697,
37063160,0.058,-0.066,0.94,-4.305,-16.87,-1.417,
37063170,0.055,-0.093,0.947,-3.692,-11.375,-2.117,
37063170,0.015,-0.084,0.961,-2.03,-5.81,-2.537,
37063190,-0.018,-0.098,0.981,-1.015,-2.747,-3.447,
37063190,-0.055,-0.094,0.988,0.28,-0.98,-3.885,
37063210,-0.052,-0.095,0.981,0.63,-1.4,-4.112,
37063210,-0.044,-0.049,0.971,0.595,-1.452,-3.517,
37063230,-0.075,-0.064,0.982,-1.522,-2.975,-3.832,
37063230,-0.074,-0.052,0.983,-3.43,-5.355,-4.322,
37063250,-0.066,-0.04,0.995,-6.02,-8.33,-4.777,
37063250,-0.074,-0.049,1.016,-10.237,-11.235,-5.74,
37063260,-0.086,-0.027,1.025,-15.942,-15.89,-6.09,
37063270,-0.09,-0.023,1.038,-23.677,-21.052,-5.985,
37063280,-0.113,0,1.075,-33.495,-26.337,-6.44,
37063290,-0.139,0.027,1.132,-47.46,-33.162,-6.562,
37063300,-0.203,0.029,1.19,-64.89,-42.612,-6.912,
37063310,-0.103,0.002,1.234,-85.085,-53.637,-6.282,
37063320,0.05,-0.024,1.254,-111.825,-52.692,0.542,
37063330,-0.133,0.126,1.233,-138.897,-53.095,1.032,
37063340,-0.2,0.003,1.182,-169.085,-56.542,-0.262,
37063350,-0.12,-0.157,1.164,-193.252,-75.74,-3.377,
37063360,-0.124,-0.223,1.056,-202.755,-79.642,-6.667,
37063370,-0.205,-0.243,1.04,-199.517,-83.947,-13.037,
37063380,-0.296,-0.433,1.08,-197.295,-99.452,-25.06,
37063390,-0.228,-0.502,1.027,-184.152,-128.905,-42.035,
37063400,-0.071,-0.678,0.974,-159.565,-150.692,-53.987,
37063410,0.163,-0.337,0.889,-124.495,-155.767,-64.907,
37063420,0.162,-0.556,0.831,-106.032,-142.24,-84.7,
37063430,0.26,-0.529,0.837,-88.55,-94.255,-77.56,
37063440,0.293,-0.399,0.772,-51.152,-36.33,-70.875,
37063450,-0.079,-0.27,0.601,-3.395,7.07,-63.997,
37063460,-0.184,-0.302,0.642,34.282,29.417,-44.275,
37063470,-0.105,-0.34,0.576,70.14,58.24,-5.46,
37063480,-0.385,-0.167,0.632,110.32,102.777,52.605,
37063490,-0.247,-0.358,0.447,137.06,117.355,89.372,
37063500,-0.138,-0.34,0.416,148.61,115.027,118.422,
37063510,0.1,-0.488,0.38,142.1,108.517,133.787,
37063510,0.161,-0.573,0.328,134.4,95.025,130.252,
37063530,0.196,-0.62,0.271,118.982,79.852,116.62,
37063530,0.186,-0.681,0.241,89.915,65.642,97.177,
37063550,0.132,-0.77,0.211,59.885,50.767,72.607,
37063550,0.033,-0.809,0.229,31.325,36.137,51.415,
37063570,-0.071,-0.874,0.302,1.277,21.612,36.435,
37063570,-0.304,-0.935,0.417,-23.747,6.492,26.337,
37063580,0.728,-0.743,1.916,-41.23,-23.432,3.78,
37063590,1.995,-1.662,0.673,46.637,-5.477,-38.955,
37063600,0.558,1.376,0.084,315.647,1.96,-111.44,
37063610,-0.974,1.493,1.287,197.19,44.152,-102.567,
37063620,0.471,-0.899,1.182,143.01,-4.725,-72.397,
37063630,1.655,-0.628,1.441,226.45,39.375,-21.892,
37063640,0.017,0.189,1.658,202.02,95.147,-22.032,
37063650,-1.03,1.014,1.346,126.28,102.707,-10.237,
37063660,-0.494,0.664,1.033,59.937,58.52,9.59,
37063670,0.712,-0.711,0.998,18.042,37.747,10.815,
37063680,-0.049,-0.143,1.018,39.515,63.245,-6.387,
37063690,-0.154,-0.107,1.021,38.132,70.49,-12.232,
37063700,-0.311,-0.019,1.001,33.95,69.3,-6.282,
37063710,-0.753,0.064,0.978,29.557,55.72,-5.092,
37063720,-0.522,0.106,0.965,17.815,25.2,-1.907,
37063730,-0.419,0.034,0.97,6.615,0.49,-0.735,
37063740,-0.304,0.035,0.974,-1.715,-16.572,0.805,
37063750,-0.252,-0.015,0.98,-8.925,-29.592,0.227,
37063760,-0.134,-0.076,0.988,-12.267,-36.347,0.56,
37063770,0.005,-0.104,0.986,-11.217,-36.575,2.135,
37063780,0.041,-0.113,0.986,-8.05,-30.117,3.255,
37063790,-0.038,-0.099,0.986,-4.48,-23.397,2.765,
37063800,-0.06,-0.072,0.986,-2.03,-19.197,2.52,
37063810,-0.076,-0.065,0.99,-1.05,-17.937,1.61,
37063820,-0.071,-0.073,0.992,-1.312,-17.062,0.245,
37063830,-0.052,-0.075,0.989,-1.347,-16.94,-1.382,
37063840,-0.064,-0.072,0.988,-1.4,-15.54,-2.432,
37063850,-0.081,-0.068,0.983,-1.05,-15.435,-3.01,
37063860,-0.085,-0.069,0.978,-1.102,-14.875,-2.502,
37063870,-0.08,-0.06,0.97,-0.997,-15.4,-1.82,
37063880,-0.095,-0.063,0.963,-1.207,-15.715,-1.19,
37063890,-0.07,-0.102,0.954,-2.222,-17.43,-1.785,
37063900,-0.014,-0.088,0.95,-1.627,-17.185,-2.94,
37063910,-0.091,-0.003,0.938,-0.84,-17.727,-4.06,
37063920,-0.119,-0.015,0.953,-4.007,-21.14,-5.267,
37063920,-0.076,-0.032,0.956,-5.022,-25.445,-5.337,
37063940,0.009,-0.037,0.947,-4.935,-25.742,-3.937,
37063940,0.022,-0.03,0.948,-4.077,-22.942,-3.062,
37063960,-0.035,-0.041,0.963,-3.29,-18.532,-1.872,
37063960,-0.118,-0.033,0.973,-2.345,-16.905,-0.402,
37063980,-0.079,-0.066,0.982,-2.31,-18.305,1.347,
37063980,-0.001,-0.116,0.969,-1.592,-18.69,1.82,
37064000,0.054,-0.099,0.949,1.172,-15.225,3.097,
37064000,0.114,-0.121,0.94,3.36,-9.625,3.902,
37064010,0.038,-0.11,0.954,6.09,-2.397,3.465,
37064020,-0.043,-0.019,0.949,8.12,-0.035,2.222,
37064030,0.016,0.016,0.934,7.647,-1.942,4.62,
37064040,0.046,0.142,0.984,4.742,-2.537,9.905,
37064050,-0.012,0.233,1.123,-8.837,-4.83,18.707,
37064060,-0.029,0.279,1.24,-37.642,-8.172,28.927,
37064070,0.127,0.264,1.33,-78.767,-3.78,36.61,
37064080,0.149,0.184,1.389,-124.897,7.7,37.747,
37064090,0.042,0.046,1.48,-164.307,5.757,56.192,
37064100,1.134,-0.651,1.173,-203.91,-2.73,81.445,
37064110,0.532,-0.653,1.094,-217.682,34.807,126.175,
37064120,-0.211,-0.302,1.027,-197.75,8.61,181.405,
37064130,0.579,-0.645,0.884,-216.195,-18.55,219.502,
37064140,0.743,-1.16,0.923,-215.372,-28.455,241.062,
37064150,1.401,-0.686,1.458,-222.775,-56.122,220.937,
37064160,0.671,-0.361,0.945,-163.607,-73.815,211.015,
37064170,0.283,-0.419,0.797,-122.255,-63.245,215.407,
37064180,0.024,-0.793,1.132,-112.035,-53.41,227.447,
37064190,-0.536,-1.322,0.828,-68.565,-102.672,200.13,
37064200,1.342,-1.258,0.943,-54.285,-149.222,142.065,
37064210,0.606,-1.133,1.012,-23.082,-185.43,56.385,
37064220,-0.782,-0.648,0.507,64.225,-206.465,-48.09,
37064230,-0.791,-0.329,0.235,70.262,-195.842,-33.477,
37064240,-0.731,-0.464,0.179,46.83,-156.765,-8.75,
37064250,-0.546,-0.49,-0.006,49.402,-105.7,-1.785,
37064260,-0.438,-0.227,0.02,51.765,-38.657,10.71,
37064260,-0.368,-0.354,0.157,23.03,19.547,10.15,
37064280,-0.292,-0.525,0.315,-0.052,50.767,-21.752,
37064280,-0.359,-0.585,0.346,-4.392,51.905,-68.442,
37064300,-0.357,-0.606,0.227,-5.862,38.29,-113.96,
37064300,-0.309,-0.622,-0.056,-13.72,29.225,-157.552,
37064320,-0.522,-0.518,-0.347,-30.152,27.965,-190.172,
37064320,-0.797,-0.308,-0.54,-57.155,14.735,-211.995,
37064330,-0.941,-0.106,-0.598,-98.297,-7.805,-214.655,
37064340,-0.328,0.167,-0.717,-142.24,-19.127,-199.447,
37064350,0.369,0.923,1.901,-151.672,272.685,-90.895,
37064360,-1.981,0.036,-0.569,219.24,143.342,-104.055,
37064370,1.231,1.879,-0.215,528.972,-53.305,-47.617,
37064380,1.402,-1.124,1.484,257.04,104.055,49.315,
37064390,-0.969,-0.604,1.975,421.977,151.025,-59.867,
37064400,1.184,1.429,1.998,392.91,178.08,38.465,
37064410,-1.992,1.875,1.329,173.547,190.785,30.082,
37064420,-0.959,0.601,1.064,36.942,49.367,22.61,
37064430,-0.881,0.147,0.98,-30.765,-41.895,-17.202,
37064440,0.145,-0.512,0.973,-42.42,-64.785,-10.955,
37064450,-0.242,-0.149,0.968,-32.917,-51.677,0.035,
37064460,0.114,-0.276,0.961,-33.53,-51.87,-1.277,
37064470,0.268,-0.234,0.944,-22.767,-41.107,1.452,
37064480,0.099,-0.21,0.956,-9.677,-24.132,8.855,
37064490,0.007,-0.109,0.973,-2.17,-15.627,9.362,
37064500,0.046,-0.176,0.957,-0.997,-10.517,6.265,
37064510,0.071,-0.152,0.969,3.29,-4.917,3.727,
37064520,-0.006,-0.078,0.984,7.612,1.61,6.352,
37064530,-0.137,-0.076,0.986,8.33,3.395,8.452,
37064540,-0.196,0.022,1.013,6.807,0.175,6.562,
37064550,-0.155,-0.075,0.98,0.052,-7.402,2.502,
37064560,0.008,-0.141,0.967,-2.047,-10.657,-0.892,
37064570,0.005,-0.096,0.983,-0.385,-8.015,-0.21,
37064580,-0.036,-0.072,0.989,-0.962,-4.322,1.662,
37064590,-0.041,-0.084,0.99,-1.715,-3.045,1.872,
37064600,-0.051,-0.059,1.003,-2.887,-1.505,1.277,
37064610,-0.011,-0.074,1.006,-6.37,-0.735,0.962,
37064620,0.027,-0.088,1.016,-10.71,2.922,2.205,
37064630,0.031,-0.074,1.04,-15.575,7.735,4.287,
37064640,0.047,-0.039,1.08,-23.852,14.175,6.352,
37064650,0.052,-0.021,1.125,-35.822,20.912,6.895,
37064660,0.059,0.007,1.203,-52.57,28.472,8.522,
37064670,-0.231,0.027,1.244,-78.032,28.052,15.715,
37064670,0.048,-0.119,1.302,-115.22,-5.565,33.862,
37064680,-0.031,-0.289,1.185,-135.555,-3.535,48.107,
37064690,0.27,-0.428,1.198,-130.48,20.457,60.812,
37064700,-0.032,-0.574,1.244,-114.135,42.035,91.63,
37064710,-0.739,-0.727,1.324,-76.93,-1.207,99.96,
37064720,0.613,-1.865,1.319,-64.155,-141.242,90.142,
37064730,1.806,-1.998,0.801,-17.57,-131.862,61.722,
37064740,1.603,-1.239,-0.223,92.837,-40.232,42.787,
37064750,-0.552,-0.655,0.021,73.36,-45.307,18.497,
37064760,-0.243,-1.097,-0.049,-1.347,-111.615,-18.97,
37064770,-0.035,-0.754,-0.635,-4.2,-102.917,29.89,
37064780,-0.282,0.396,-1.216,24.552,-74.76,71.995,
37064790,-0.53,0.816,-0.996,-34.877,-60.742,126.962,
37064800,0.004,0.152,-0.77,-105.647,-70.245,146.93,
37064810,1.354,1.051,0.856,-82.04,-1.347,126.35,
37064820,-0.903,1.997,0.684,131.88,251.195,123.76,
37064830,-0.808,0.738,1.333,492.012,63.542,33.705,
37064840,0.822,-1.157,1.904,232.75,132.877,23.222,
37064850,-1.344,1.538,-0.635,270.55,234.727,43.33,
37064860,-0.467,-1.322,1.514,-99.137,3.675,8.12,
37064870,-0.826,0.689,0.835,-19.267,-78.557,-34.002,
37064880,-0.01,-0.524,1.108,-65.082,-115.762,-14.297,
37064890,-0.207,-0.376,0.922,-42.017,-103.057,-13.317,
37064900,0.654,-0.445,0.979,-41.947,-89.932,-12.302,
37064910,0.211,-0.161,0.958,-20.562,-52.85,-1.697,
37064920,0.151,-0.27,0.97,-13.65,-32.182,8.522,
37064930,0.08,-0.09,0.979,-3.71,-19.722,9.257,
37064940,0.228,-0.143,0.976,-1.12,-9.887,9.345,
37064950,0.054,-0.063,0.993,3.552,3.85,12.95,
37064960,-0.04,-0.122,0.978,3.517,11.62,15.05,
37064970,-0.214,0.006,1.011,3.01,11.235,10.325,
37064980,-0.173,0,1.003,-4.165,4.445,4.287,
37064990,-0.01,-0.141,0.988,-11.795,-0.805,-2.485,
37065000,0.013,-0.034,1.007,-13.142,2.835,-4.2,
37065010,-0.008,-0.005,1.068,-18.777,9.17,-1.487,
37065010,-0.081,0.055,1.119,-27.475,14.122,5.04,
37065030,-0.193,0.223,1.226,-48.527,14.717,11.83,
37065030,-0.262,0.201,1.27,-82.302,9.415,17.535,
37065050,-0.073,0.134,1.357,-128.415,-19.985,26.215,
37065050,-0.025,0.164,1.252,-168.437,-42.805,48.177,
37065070,-0.332,-0.098,1.18,-204.4,-63.35,60.41,
37065070,-0.378,-0.125,1.166,-236.495,-87.045,70.735,
37065080,-0.436,0.053,1.177,-254.66,-110.477,74.55,
37065090,-0.708,-0.168,1.378,-270.095,-150.517,71.365,
37065100,-1.068,-0.583,1.5,-254.345,-217.77,61.722,
37065110,-0.755,-0.176,1.266,-192.675,-295.697,35.822,
37065120,-0.203,-0.842,1.222,-187.6,-329.227,46.095,
37065130,-0.18,-0.637,1.55,-115.045,-228.06,80.815,
37065140,-0.944,-0.894,0.89,23.8,-75.442,125.335,
37065150,-1.993,0.231,0.48,127.295,60.27,204.505,
37065160,-0.694,-0.026,0.057,185.36,110.145,262.552,
37065170,-0.196,-0.193,-0.173,137.935,119.437,232.277,
37065180,-0.354,0.269,-0.913,192.657,123.462,141.697,
37065190,-0.423,1.138,-1.864,230.055,159.11,90.912,
37065200,-0.54,1.919,-1.997,233.292,170.695,43.942,
37065210,-0.713,1.835,-1.997,162.015,119.595,-15.277,
37065220,-1.023,0.232,0.163,69.93,13.352,-95.34,
37065230,1.005,-1.998,-0.45,54.565,-189.385,-449.522,
37065240,-0.11,1.459,1.998,519.75,155.767,-473.042,
37065250,-0.077,1.997,1.07,256.34,88.655,-121.012,
37065260,-1.181,0.063,1.205,10.622,152.145,109.147,
37065270,-0.418,-0.202,0.889,-28.525,-1.785,120.68,
37065280,-0.358,-0.402,1.023,-27.352,-58.415,4.55,
37065290,0.525,-0.145,1.017,-21.017,-69.912,-11.935,
37065300,0.032,-0.067,0.982,-14.612,-37.765,13.842,
37065310,-0.15,-0.152,0.969,-15.505,-30.765,18.427,
37065320,0.108,-0.348,0.941,-14.035,-29.89,3.727,
37065330,0.209,-0.18,0.961,-3.045,-16.117,0.175,
37065340,-0.011,0.004,0.993,3.237,-3.867,-1.19,
37065350,0.064,-0.135,0.975,0.892,-0.822,-2.817,
37065350,-0.036,-0.102,0.972,3.045,6.02,-1.68,
37065370,-0.056,-0.085,0.984,4.305,7.21,-3.185,
37065370,-0.121,-0.076,0.984,4.252,7.192,-5.372,
37065390,-0.044,-0.107,0.975,3.307,4.952,-7.56,
37065390,-0.04,-0.063,0.983,3.5,5.81,-8.155,
37065410,-0.064,-0.035,0.996,1.995,6.877,-7.07,
37065410,-0.08,-0.01,1.005,-2.31,7.717,-5.092,
37065420,-0.075,-0.058,1.002,-8.155,7.262,-4.497,
37065430,-0.1,-0.067,1.007,-13.545,7.927,-4.077,
37065440,-0.145,-0.032,1.031,-19.407,7.14,-4.742,
37065450,-0.133,-0.038,1.054,-27.212,4.445,-6.982,
37065460,-0.068,-0.043,1.087,-37.887,3.237,-10.272,
37065470,-0.024,-0.016,1.132,-49.962,6.055,-11.707,
37065480,-0.015,0.014,1.203,-67.987,12.337,-13.632,
37065490,-0.038,0.074,1.237,-93.835,18.06,-12.407,
37065500,-0.116,0.015,1.23,-128.38,6.527,-6.947,
37065510,-0.192,-0.008,1.214,-159.635,-8.067,3.412,
37065520,-0.257,-0.107,1.127,-183.137,-10.797,7.28,
37065530,-0.105,-0.204,1.028,-193.445,-4.462,19.355,
37065540,-0.085,-0.297,0.961,-191.45,6.86,36.977,
37065550,-0.156,-0.416,0.86,-182.49,14.42,42.052,
37065560,-0.283,-0.598,1.01,-162.312,16.695,40.53,
37065570,-0.5,-0.961,1.221,-123.322,2.607,29.295,
37065580,-0.241,-1.028,1.331,-38.447,-40.635,0.07,
37065590,-0.228,-1.172,1.033,35.42,-44.467,-17.325,
37065600,-0.918,-0.591,-0.189,147.07,-5.285,-41.562,
37065610,-0.837,0.229,-0.49,162.89,-9.607,-53.41,
37065620,-0.691,-0.424,-0.219,89.022,-12.74,-76.02,
37065630,-1.009,-0.586,-0.467,98.56,5.18,-96.845,
37065640,-1.082,0.026,-1.229,139.545,31.255,-83.195,
37065650,-0.709,0.732,-1.829,126.787,59.237,-57.837,
37065660,-0.818,0.832,-1.039,39.935,83.317,-51.38,
37065670,-0.61,0.075,1.122,-77.857,-184.695,-137.27,
37065680,1.362,-1.071,0.56,324.362,-211.925,-247.135,
37065690,0.218,-1.282,1.998,466.742,55.002,-285.827,
37065700,-0.713,1.997,0.836,267.452,204.452,-20.982,
37065710,-0.143,-1.088,1.302,25.97,103.897,71.54,
37065720,-1.229,1.369,0.833,-1.575,8.68,35.875,
37065730,0.407,-0.928,1.094,-38.325,-70.647,-7.35,
37065740,-0.258,-0.013,0.983,-19.827,-58.677,3.01,
37065750,0.007,-0.203,0.982,-22.435,-49.63,10.57,
37065760,0.139,-0.122,0.963,-18.41,-43.575,5.337,
37065760,0.168,-0.235,0.965,-15.732,-32.217,4.952,
37065780,0.11,-0.189,0.965,-8.19,-18.077,9.957,
37065780,0.029,-0.157,0.966,-2.782,-8.715,7.805,
37065800,0.084,-0.101,0.986,0.472,-2.117,4.777,
37065800,-0.019,-0.008,0.993,0.647,3.185,6.142,
37065820,-0.048,-0.074,0.988,-2.222,4.497,5.267,
37065820,-0.065,-0.009,1.001,-3.832,4.375,2.8,
37065830,-0.088,-0.087,0.991,-8.767,3.762,0.192,
37065840,-0.07,-0.034,1.01,-12.232,2.957,-4.252,
37065850,-0.028,-0.004,1.029,-19.652,3.605,-7.122,
37065860,-0.126,0.031,1.096,-31.675,6.527,-7.962,
37065870,-0.25,0.116,1.163,-47.6,3.062,-8.837,
37065880,-0.373,0.254,1.327,-78.137,-6.755,-12.617,
37065890,-0.336,0.409,1.43,-127.102,-20.44,-16.8,
37065900,-0.333,0.138,1.286,-183.732,-31.85,-22.942,
37065910,-0.272,-0.101,1.14,-223.667,-52.92,-32.305,
37065920,-0.295,-0.158,0.988,-232.995,-60.48,-39.83,
37065930,-0.036,-0.213,1.032,-239.207,-62.195,-54.985,
37065940,-0.346,-0.17,1.035,-234.57,-55.685,-68.775,
37065950,-0.633,-0.498,1.116,-225.61,-92.242,-70.035,
37065960,-0.55,-0.343,1.246,-196.402,-143.832,-92.82,
37065970,-0.807,-0.799,1.365,-210.507,-207.742,-117.022,
37065980,0.153,-0.942,1.259,-148.802,-181.23,-127.47,
37065990,-0.244,-1.263,0.882,-97.09,-39.357,-134.277,
37066000,-1.723,-0.624,0.756,-0.07,61.18,-182.14,
37066010,-1.951,-0.362,0.314,62.825,46.637,-187.565,
37066020,-1.847,-0.054,-0.381,104.02,56.035,-137.602,
37066030,-1.612,0.937,-0.846,151.2,110.18,-67.165,
37066040,-1.225,1.396,-1.132,198.957,183.925,-10.167,
37066050,-0.249,1.505,-1.522,256.567,262.552,3.832,
37066060,0.171,1.305,-1.549,292.285,319.41,-22.33,
37066070,-0.209,-0.109,0.707,184.065,158.13,-172.777,
37066080,0.546,-1.482,-0.101,118.335,35.98,-517.247,
37066080,1.093,1.997,1.626,504.7,202.912,-412.107,
37066100,-1.619,1.67,0.199,200.515,268.992,26.932,
37066100,0.263,-1.806,1.392,-86.607,60.602,115.832,
37066120,-1.249,-0.075,0.99,-5.74,-31.272,10.867,
37066120,1.06,-0.403,1.038,-18.322,-85.365,-32.9,
37066140,-0.178,0.046,0.988,0.927,-36.767,-2.257,
37066140,-0.23,-0.219,0.992,0.21,-20.65,20.825,
37066160,-0.048,-0.19,0.976,0.087,-31.395,2.17,
37066160,0.202,-0.121,0.977,-0.175,-26.425,-3.185,
37066170,-0.048,-0.027,0.984,3.797,-13.755,1.575,
37066180,0.185,-0.162,0.971,2.59,-9.205,-1.767,
37066190,0.015,-0.077,0.978,5.757,2.135,-1.067,
37066200,-0.093,-0.037,0.99,5.215,6.93,-0.28,
37066210,-0.124,-0.026,0.99,3.36,5.547,-4.445,
37066220,-0.052,-0.075,0.987,-0.262,2.887,-8.662,
37066230,-0.101,-0.004,0.999,-2.712,3.5,-10.01,
37066240,-0.102,0.003,1.009,-8.015,2.712,-10.115,
37066250,-0.104,0.026,1.036,-15.487,1.767,-9.852,
37066260,-0.068,0.104,1.101,-28.91,1.907,-8.312,
37066270,-0.106,0.081,1.174,-52.762,3.71,-8.522,
37066280,-0.204,0.06,1.282,-79.345,4.777,-12.407,
37066290,-0.232,-0.087,1.256,-109.27,4.97,-20.492,
37066300,-0.241,0.026,1.2,-141.12,8.102,-32.865,
37066310,-0.249,0.053,1.116,-161.507,1.382,-36.557,
37066320,-0.27,0.014,1.106,-184.205,-7.262,-36.435,
37066330,-0.321,-0.112,1.089,-195.86,-14.98,-41.265,
37066340,-0.229,-0.547,1.097,-193.41,-18.567,-33.617,
37066350,-0.562,-0.921,1.228,-164.01,-27.65,-32.025,
37066360,-0.982,-1.418,1.114,-118.352,-60.2,-64.592,
37066370,-0.308,-1.886,0.638,-57.592,-60.952,-118.247,
37066380,-0.08,-1.998,0.42,22.452,28.21,-179.69,
37066390,-1.782,-1.485,-0.669,144.83,81.882,-224.857,
37066400,-1.998,-0.32,-0.745,155.085,65.59,-211.4,
37066410,-1.998,-0.753,-0.291,40.74,47.18,-110.915,
37066420,-1.556,-1.141,-0.23,13.982,54.022,-16.117,
37066430,-0.75,-0.464,-0.704,66.412,99.435,58.607,
37066440,-0.079,0.803,-1.69,99.137,153.615,123.987,
37066450,0.232,1.71,-1.187,48.457,159.337,133.647,
37066460,0.29,1.44,1.374,-90.667,-177.625,-38.535,
37066470,0.019,1.199,0.815,379.19,-199.22,-340.392,
37066480,1.766,-1.3,1.951,395.377,27.737,-364.367,
37066490,-1.716,1.889,-0.244,318.78,300.65,-26.687,
37066500,-0.056,-1.045,1.36,-46.34,47.53,63.682,
37066510,-1.35,-0.026,1.096,-76.562,-55.93,2.187,
37066510,0.433,-0.793,1.048,-33.845,-92.75,1.837,
37066530,-0.076,-0.038,0.976,-18.865,-67.76,-7.98,
37066530,0.152,-0.207,0.997,-17.57,-51.922,6.405,
37066550,0.332,-0.302,0.957,-10.29,-38.587,-1.207,
37066550,0.29,-0.252,0.975,-0.105,-12.67,4.76,
37066570,-0.01,0.038,0.995,10.885,4.917,-1.365,
37066570,0.122,-0.081,0.996,7.507,10.675,-3.99,
37066580,-0.025,-0.055,0.992,10.01,20.142,-4.025,
37066590,-0.243,0.003,1.001,7.28,22.225,-8.802,
37066600,-0.22,0.099,1.03,0.087,17.167,-13.737,
37066610,-0.245,0.07,1.048,-13.335,12.232,-15.907,
37066620,-0.226,0.022,1.069,-29.802,8.295,-19.145,
37066630,-0.253,-0.039,1.128,-45.517,4.48,-26.127,
37066640,-0.345,0.22,1.255,-67.427,3.307,-37.065,
37066650,0.082,0.169,1.281,-96.512,7.035,-43.172,
37066660,-0.389,0.18,1.242,-125.177,40.46,-66.517,
37066670,-0.365,0.116,1.197,-159.25,49.175,-80.832,
37066680,-0.287,0.139,1.172,-183.785,50.802,-94.377,
37066690,-0.277,0.015,1.173,-204.05,48.632,-111.825,
37066700,-0.178,-0.118,1.177,-224.857,52.447,-129.78,
37066710,-0.207,-0.086,1.233,-238.892,67.357,-142.135,
37066720,-0.179,0.046,1.314,-252.647,80.36,-149.38,
37066730,-0.117,-0.043,1.461,-266.28,78.067,-157.482,
37066740,-0.497,0.263,1.723,-271.127,70.367,-155.26,
37066750,-0.773,-0.382,1.998,-270.497,26.635,-145.81,
37066760,-1.041,-0.515,1.973,-235.795,-56.682,-121.467,
37066770,0.407,0.112,1.418,-140.647,-78.96,-77.91,
37066780,1.149,1.688,0.653,-3.08,-19.442,-33.46,
37066790,-0.704,1.997,-0.119,190.872,12.705,-28.665,
37066800,-0.968,1.997,-1.562,360.22,23.73,-1.96,
37066810,-0.03,1.997,-1.949,335.072,21.262,65.31,
37066820,0.819,1.997,-1.965,368.322,23.94,60.235,
37066830,0.199,1.044,-1.095,316.68,10.692,6.072,
37066830,-1.308,-1.565,0.664,237.947,-145.162,-124.005,
37066850,0.432,-1.998,0.786,294.612,-201.145,-436.817,
37066850,1.53,0.338,1.929,486.71,152.88,-268.94,
37066870,-1.799,1.973,-0.486,260.137,255.885,-10.22,
37066870,-1.546,-1.691,1.602,-97.212,-17.517,57.627,
37066890,0.322,0.899,0.767,-36.522,-116.007,60.34,
37066890,0.458,-0.955,1.061,-77.07,-124.46,-15.05,
37066910,0.515,-0.041,0.981,-40.74,-76.247,11.62,
37066910,0.015,-0.302,0.976,-28,-46.375,28.945,
37066920,0.113,-0.249,0.954,-22.435,-39.322,16.345,
37066930,0.393,-0.327,0.93,-8.96,-23.432,8.155,
37066940,0.042,-0.01,0.987,5.792,-3.5,6.44,
37066950,0.042,-0.019,1,7.7,4.007,7.612,
37066960,-0.052,-0.097,0.987,6.825,6.895,6.282,
37066970,-0.112,-0.041,1.002,4.252,6.912,2.695,
37066980,-0.114,-0.046,1.006,-0.682,4.742,-0.875,
37066990,-0.057,-0.067,0.995,-7.332,2.642,-3.85,
37067000,-0.025,-0.055,1.005,-13.177,3.727,-5.232,
37067010,0.067,-0.055,1.017,-18.882,7.227,-6.125,
37067020,0.033,-0.071,1.047,-23.135,14.77,-6.09,
37067030,-0.048,-0.172,1.069,-27.93,22.54,-8.75,
37067040,0.004,0.084,1.105,-35.332,32.392,-16.887,
37067050,0.163,-0.096,1.132,-43.382,44.1,-16.87,
37067060,0.169,-0.071,1.217,-55.545,69.475,-15.015,
37067070,0.238,0.007,1.264,-74.34,88.585,4.182,
37067080,0.271,-0.08,1.305,-105.682,103.862,29.33,
37067090,0.277,-0.049,1.334,-132.072,112.122,56.315,
37067100,-0.03,-0.144,1.324,-157.202,107.642,84.752,
37067110,-0.026,-0.415,1.32,-174.825,81.882,96.162,
37067120,0.128,-0.474,1.509,-177.45,60.795,107.73,
37067130,0.681,-0.848,1.601,-170.992,35.437,120.295,
37067140,-0.005,-0.201,1.486,-116.83,24.762,123.69,
37067150,-0.031,-0.937,1.566,-99.015,-19.6,101.675,
37067160,1.998,-0.7,1.09,-70.63,-38.57,65.625,
37067170,1.949,-0.102,1.513,-31.902,-18.865,-15.61,
37067180,1.003,1.418,-0.194,112.892,-46.97,-221.602,
37067190,-0.541,1.997,-1.292,201.495,-135.572,-300.58,
37067200,-1.553,1.997,-1.93,197.575,-230.65,-266.367,
37067210,-1.37,1.997,-1.574,126.682,-255.185,-171.167,
37067220,-0.5,1.694,-0.846,67.865,-211.89,-112.437,
37067230,-0.137,-0.12,-0.456,129.99,-135.275,-156.677,
37067240,0.12,-1.646,1.701,181.615,0.997,-284.637,
37067250,0.573,-1.473,1.596,259.647,288.365,-195.65,
37067260,-1.307,1.997,-0.576,538.387,461.632,66.797,
37067260,-0.514,-0.021,0.274,166.372,11.55,-218.505,
37067280,-0.776,-1.71,1.781,-357.717,-115.71,66.535,
37067280,-0.382,1.185,0.602,1.015,-119.087,2.205,
37067300,0.919,-1.211,1.219,-77.91,-118.79,-34.93,
37067300,0.103,-0.05,0.976,-21.227,-68.302,-11.287,
37067320,0.245,-0.286,0.987,-20.912,-45.08,-6.667,
37067320,0.243,-0.122,0.983,-7.595,-24.535,-7.595,
37067330,0.255,-0.206,0.979,4.777,-6.16,-8.505,
37067340,0.02,0.007,1.004,10.202,10.395,-7.857,
37067350,-0.038,-0.033,1.009,6.02,17.045,-6.44,
37067360,-0.207,-0.021,1.021,-0.14,18.707,-12.442,
37067370,-0.241,0.063,1.061,-11.532,14.997,-20.457,
37067380,-0.287,0.077,1.117,-29.925,9.835,-29.172,
37067390,-0.351,0.053,1.216,-50.75,5.372,-44.59,
37067400,-0.156,0.374,1.255,-69.282,15.837,-65.327,
37067410,-0.154,-0.006,1.288,-92.312,47.74,-93.642,
37067420,-0.103,0.099,1.212,-123.725,72.345,-97.002,
37067430,-0.291,0.094,1.129,-156.03,56.297,-84.035,
37067440,-0.144,-0.009,1.086,-191.52,15.627,-58.677,
37067450,-0.2,-0.051,1.05,-202.422,-21.105,-30.012,
37067460,-0.076,-0.182,0.907,-181.405,-46.48,-5.792,
37067470,-0.145,-0.445,0.73,-135.012,-68.267,13.457,
37067480,-0.084,-0.545,0.495,-80.465,-91.63,30.152,
37067490,0.047,-0.559,0.413,-40.53,-97.107,33.285,
37067500,0.056,-0.722,0.112,9.905,-77.385,26.39,
37067510,0.078,-0.665,0.001,51.047,-58.817,21.017,
37067520,0.312,-1.114,-0.11,68.022,-37.047,16.66,
37067530,0.349,-1.398,0.538,59.395,-17.412,2.572,
37067540,0.631,-0.554,0.782,106.767,4.06,10.85,
37067550,0.788,0.012,0.956,148.837,17.08,34.195,
37067560,0.504,0.034,1.069,192.465,37.922,59.01,
37067570,0.223,-0.324,1.234,228.427,68.81,90.142,
37067580,-0.78,-0.097,1.54,253.137,106.697,86.17,
37067580,-0.812,0.533,1.619,231.35,97.562,56.77,
37067600,-0.61,0.881,1.275,136.29,78.942,20.912,
37067600,-0.742,0.718,0.935,52.01,39.34,2.73,
37067620,-0.689,0.126,0.954,1.522,-18.462,-10.185,
37067620,-0.422,0.081,0.959,-14.455,-58.17,-19.005,
37067640,-0.172,-0.027,0.994,-25.812,-77.035,-24.797,
37067640,-0.018,-0.053,1.008,-27.405,-78.802,-28.525,
37067660,0.03,-0.045,1.012,-28.157,-70.962,-33.11,
37067660,0.163,-0.089,1.003,-29.452,-59.272,-35.735,
37067670,0.261,-0.149,0.989,-28.892,-41.912,-33.005,
37067680,0.264,-0.142,0.983,-26.232,-21.105,-24.797,
37067690,0.153,-0.138,0.981,-23.292,-2.852,-15.575,
37067700,0.019,-0.133,0.986,-19.932,9.31,-9.957,
37067710,-0.13,-0.118,0.983,-17.185,13.93,-8.155,
37067720,-0.228,-0.093,0.975,-16.012,11.322,-8.872,
37067730,-0.224,-0.068,0.963,-16.415,2.765,-9.607,
37067740,-0.18,-0.095,0.972,-17.762,-6.002,-9.397,
37067750,-0.143,-0.072,0.98,-18.077,-12.915,-8.435,
37067760,-0.144,-0.082,0.978,-19.757,-17.342,-8.575,
37067770,-0.136,-0.123,0.961,-20.195,-21.735,-9.712,
37067780,-0.073,-0.148,0.95,-18.147,-24.342,-11.55,
37067790,-0.054,-0.16,0.942,-13.527,-22.207,-15.435,
37067800,0.06,-0.154,0.95,-9.257,-19.705,-17.85,
37067810,0.135,-0.165,0.945,-4.69,-15.05,-15.417,
37067820,0.17,-0.179,0.939,0.035,-7.997,-7.822,
37067830,0.104,-0.177,0.94,5.88,-0.91,2.467,
37067840,-0.025,-0.145,0.957,11.497,5.792,10.657,
37067850,-0.129,-0.098,0.992,13.965,6.842,13.037,
37067860,-0.143,-0.044,1.024,11.865,4.585,10.815,
37067870,-0.093,-0.024,1.054,5.477,0.927,6.702,
37067880,-0.091,-0.001,1.082,-4.27,0.07,5.407,
37067890,-0.084,0.026,1.133,-17.64,0.262,5.355,
37067900,-0.013,0.055,1.171,-35.42,4.182,5.565,
37067910,0.005,0.027,1.161,-56.805,10.29,7.49,
37067920,-0.014,-0.066,1.119,-76.912,17.01,12.267,
37067930,-0.03,-0.079,1.076,-93.922,17.027,22.032,
37067940,-0.112,-0.097,1.017,-107.975,12.617,32.182,
37067950,-0.154,-0.225,1.008,-121.45,-1.155,37.852,
37067960,-0.002,-0.201,1.017,-132.93,-7.962,45.815,
37067970,-0.071,-0.11,0.991,-134.417,-8.277,49.035,
37067980,-0.084,-0.188,0.984,-142.117,-9.135,49.805,
37067990,-0.091,-0.29,0.998,-150.797,-8.592,53.305,
37068000,-0.024,-0.222,0.992,-154.332,-4.235,57.96,
37068000,-0.078,-0.299,0.864,-154.805,1.575,63.035,
37068010,0.046,-0.604,0.927,-162.697,1.26,66.535,
37068020,-0.075,-0.434,0.901,-145.407,7.472,77.945,
37068030,-0.102,-0.683,0.92,-146.947,5.46,91.035,
37068040,0.095,-0.563,1.022,-156.712,-3.605,103.53,
37068050,0.147,-0.408,0.982,-142.537,-9.117,112.77,
37068060,0.059,-0.468,0.987,-132.562,-9.117,116.007,
37068070,-0.095,-0.594,1.063,-126.77,-11.007,117.652,
37068080,0.355,-0.54,0.708,-121.24,-17.885,106.907,
37068090,0.023,-0.261,0.788,-110.425,-3.01,120.277,
37068100,-0.016,-0.211,0.784,-109.357,7.052,119.752,
37068110,0.076,-0.309,0.66,-105.297,3.657,122.92,
37068120,0.152,-0.342,0.575,-98.962,2.607,118.335,
37068130,0.156,-0.501,0.591,-100.415,6.58,113.802,
37068140,-0.02,-0.572,0.48,-91.122,10.22,108.062,
37068150,-0.174,-0.452,0.325,-72.73,15.26,109.76,
37068160,-0.178,-0.353,0.094,-57.4,25.462,118.72,
37068170,-0.348,-0.545,0.188,-53.322,39.182,122.132,
37068180,-0.701,-1.014,0.386,-44.205,42.98,116.725,
37068190,-1.29,-1.272,0.662,-20.667,24.972,120.68,
37068200,-1.131,-1.204,0.739,-2.31,-16.642,135.047,
37068210,-0.354,-0.899,0.517,13.702,-52.395,146.002,
37068220,-0.329,-0.466,0.417,28.822,-81.007,127.19,
37068230,-0.686,-0.282,0.685,33.267,-111.755,108.745,
37068240,-0.44,-0.338,0.834,41.93,-121.957,112.63,
37068250,-0.289,-0.43,0.874,54.232,-112.525,116.112,
37068260,-0.417,-0.387,0.879,62.475,-108.465,103.372,
37068270,-0.359,-0.378,0.958,59.115,-107.992,91.857,
37068280,-0.29,-0.363,0.972,57.872,-97.755,83.947,
37068290,-0.328,-0.349,0.938,58.677,-86.852,74.287,
37068300,-0.338,-0.342,0.927,54.005,-81.532,64.977,
37068310,-0.322,-0.349,0.927,48.09,-79.362,58.012,
37068320,-0.356,-0.354,0.928,42.35,-79.432,52.412,
37068330,-0.415,-0.304,0.944,33.897,-88.427,47.757,
37068330,-0.43,-0.363,1.044,18.952,-107.467,45.797,
37068350,-0.396,-0.498,1.118,8.557,-133.787,42.735,
37068350,-0.346,-0.688,1.06,3.552,-167.492,30.24,
37068370,-0.032,-0.507,1.05,1.96,-198.975,18.025,
37068370,0.023,-0.152,0.944,20.055,-205.73,29.33,
37068390,0.064,-0.011,0.883,37.975,-184.94,56.787,
37068390,0.016,0.043,0.872,54.022,-163.152,86.082,
37068410,-0.156,0.221,0.986,70.735,-156.607,112.245,
37068410,-0.395,0.4,1.156,91.507,-154.647,147.157,
37068420,-0.052,0.343,1.15,118.737,-125.282,182.437,
37068430,-0.335,0.266,1.195,130.882,-79.117,201.057,
37068440,-0.798,0.555,1.003,186.322,-45.815,236.582,
37068450,0.001,0.366,1.111,164.255,3.92,276.237,
37068460,0.144,0.121,0.921,164.57,24.605,278.6,
37068470,0.119,0.383,0.756,164.482,14.63,264.617,
37068480,0.271,0.388,0.633,119.332,-14.822,236.04,
37068490,0.123,0.466,0.537,81.13,-36.365,199.062,
37068500,-0.1,0.58,0.576,46.497,-32.987,167.86,
37068510,-0.724,0.556,0.767,16.1,-32.9,143.36,
37068520,-0.705,0.362,0.503,14.07,-46.707,132.842,
37068530,-1.266,-0.683,1.186,13.422,-76.177,128.975,
37068540,1.261,-1.998,0.773,23.345,-114.257,19.95,
37068550,-1.645,-1.998,0.647,156.835,-36.067,-65.502,
37068560,-0.596,0.091,1.133,157.01,-13.51,-50.575,
37068570,1.478,1.779,1.392,162.837,-32.567,17.745,
37068580,0.761,-0.307,1.699,109.69,4.865,-0.472,
37068590,-0.689,1.251,1.054,72.852,55.09,16.975,
37068600,-0.29,-0.193,1.01,17.325,23.975,33.6,
37068610,-0.837,0.223,0.967,1.75,-4.2,9.607,
37068620,-0.063,-0.063,0.983,-14.017,-36.505,-3.22,
37068630,-0.036,-0.151,0.98,-15.435,-41.667,-12.582,
37068640,0.08,-0.166,0.98,-10.15,-33.582,-5.932,
37068650,-0.048,-0.094,0.983,-1.925,-24.237,-0.35,
37068660,-0.04,-0.099,0.979,1.417,-19.285,2.695,
37068670,-0.025,-0.104,0.981,3.272,-15.907,3.115,
37068670,-0.041,-0.045,0.986,4.76,-11.322,4.357,
37068690,-0.062,-0.038,0.986,4.147,-9.187,4.077,
37068690,-0.05,-0.044,0.985,2.94,-7.7,3.342,
37068710,-0.052,-0.057,0.982,2.695,-6.247,2.607,
37068710,-0.049,-0.071,0.981,2.887,-4.042,2.117,
37068730,-0.056,-0.079,0.978,3.622,-1.75,1.522,
37068730,-0.056,-0.072,0.979,4.27,0.7,0.997,
37068750,-0.054,-0.063,0.981,4.83,3.097,0.805,
37068750,-0.072,-0.061,0.979,5.197,5.39,1.032,
37068760,-0.088,-0.056,0.979,5.355,6.562,0.647,
37068770,-0.064,-0.049,0.976,5.46,7.052,0.56,
37068780,-0.077,-0.046,0.976,4.917,8.032,0.472,
37068790,-0.063,-0.057,0.978,4.042,8.365,0,
37068800,-0.079,-0.052,0.971,3.412,9.327,0.437,
37068810,-0.111,-0.057,0.972,2.73,9.537,0.7,
37068820,-0.194,-0.011,0.967,2.397,7.717,0.56,
37068830,-0.198,-0.009,0.971,0.28,1.382,-0.402,
37068840,-0.202,0,0.971,-1.89,-5.565,-1.365,
37068850,-0.2,-0.008,0.971,-4.532,-13.195,-2.362,
37068860,-0.171,-0.01,0.972,-7.472,-19.635,-2.73,
37068870,-0.153,-0.033,0.973,-10.167,-25.847,-3.657,
37068880,-0.114,-0.031,0.975,-12.407,-30.275,-4.935,
37068890,-0.04,-0.04,0.976,-13.947,-33.04,-5.932,
37068900,0.007,-0.069,0.975,-14.612,-31.115,-5.495,
37068910,-0.015,-0.089,0.975,-13.685,-27.037,-4.69,
37068920,0,-0.042,0.982,-12.687,-22.575,-2.957,
37068930,0.014,0,1.006,-14.455,-19.512,-0.682,
37068940,0,0.021,1.044,-20.667,-15.645,1.575,
37068950,-0.038,0.059,1.087,-31.307,-12.705,2.765,
37068960,-0.084,0.056,1.155,-48.16,-10.657,2.45,
37068970,-0.141,0.066,1.217,-72.467,-10.202,0.542,
37068980,-0.265,0.086,1.253,-104.562,-17.342,0.437,
37068990,0.183,0.002,1.388,-154.735,-30.205,7.297,
37069000,-0.067,0.115,1.311,-190.33,-18.97,16.397,
37069010,-0.156,0.072,1.282,-232.82,-25.147,29.312,
37069020,-0.143,0.036,1.251,-268.485,-39.672,42.875,
37069030,-0.029,-0.1,1.26,-298.777,-57.662,50.435,
37069040,-0.036,-0.18,1.454,-325.867,-67.9,56.455,
37069050,-0.306,-0.526,1.68,-327.11,-96.915,50.487,
37069060,-0.407,-1.445,1.66,-301.262,-161.892,32.812,
37069070,0.355,-1.492,1.204,-173.6,-199.92,-27.702,
37069080,0.422,-1.192,0.696,-109.445,-137.007,-29.4,
37069080,0.136,-1.301,0.345,-51.555,-86.817,-33.25,
37069100,-0.519,-1.144,0.301,-11.497,-64.382,-53.882,
37069100,-0.854,-1.034,-0.184,24.92,-63.665,-37.957,
37069120,-1.016,-0.891,-0.465,44.012,-84.945,0.105,
37069120,-0.846,-1.016,-0.255,25.41,-93.992,38.71,
37069140,-0.433,-1.217,-0.155,15.925,-78.802,74.707,
37069140,-0.378,-1.066,-0.128,33.092,-43.82,95.62,
37069160,-0.484,-0.906,-0.115,33.337,-14.892,104.317,
37069160,-0.493,-0.833,-0.113,16.292,-0.805,108.885,
37069170,-0.279,-0.762,-0.151,-0.455,15.26,115.675,
37069180,-0.207,-0.508,-0.127,-15.645,40.25,114.572,
37069190,-0.264,-0.316,0,-38.605,67.935,106.662,
37069200,-0.26,-0.248,0.128,-59.43,91.822,97.702,
37069210,-0.26,-0.076,0.25,-62.597,115.237,94.57,
37069220,-0.315,0.091,0.288,-58.187,137.147,92.802,
37069230,-0.363,0.234,0.31,-52.92,150.447,87.185,
37069240,-0.344,0.359,0.207,-42.402,158.917,83.3,
37069250,-0.167,0.704,0.006,-17.692,161.105,86.957,
37069260,0.149,1.156,0.193,1.697,164.71,90.335,
37069270,1.582,0.085,1.976,-95.445,95.812,46.917,
37069280,1.998,-1.998,1.496,187.477,-238.262,-205.677,
37069290,0.189,-1.921,-0.238,553.367,-92.487,-400.435,
37069300,-0.978,-0.431,0.539,562.52,21.07,-191.415,
37069310,1.597,1.188,1.303,480.69,-87.447,-78.995,
37069320,0.653,0.222,1.522,513.065,-69.09,-13.387,
37069330,1.857,0.196,1.998,409.937,-11.812,70.56,
37069340,-0.973,1.323,1.872,319.147,134.312,75.022,
37069350,-1.749,1.753,1.085,130.182,109.602,59.15,
37069360,-1.365,0.835,1.101,-8.26,-18.55,0.507,
37069370,-0.302,0.22,1.083,-67.935,-93.187,-19.617,
37069380,0.095,-0.533,0.951,-92.89,-95.305,-21.28,
37069390,0.169,-0.585,0.869,-78.627,-80.202,-19.95,
37069400,0.662,-0.39,0.865,-55.842,-62.212,-14.367,
37069410,0.385,-0.393,0.864,-27.545,-30.905,5.88,
37069420,0.107,-0.257,0.922,-1.942,-7.945,18.935,
37069420,0.098,-0.176,0.966,13.895,2.537,18.532,
37069440,0.072,-0.024,1.027,19.512,11.077,16.117,
37069440,0.002,0.029,1.043,13.457,17.71,16.747,
37069460,-0.031,0.043,1.076,2.695,21.21,15.645,
37069460,-0.061,0.141,1.156,-14.07,23.625,13.265,
37069480,-0.124,0.102,1.165,-39.34,25.725,7.63,
37069480,0.107,0.126,1.307,-70.157,21.227,2.047,
37069500,0.161,0.199,1.355,-102.987,27.282,4.917,
37069500,0.184,0.031,1.306,-139.65,46.305,7.56,
37069510,-0.007,0.067,1.242,-172.952,65.66,15.33,
37069520,-0.116,0.106,1.205,-207.952,68.46,22.767,
37069530,-0.133,0.02,1.18,-237.912,57.592,24.43,
37069540,-0.197,-0.093,1.213,-253.225,56.595,24.552,
37069550,-0.096,-0.574,1.228,-257.495,70.91,27.055,
37069560,-0.33,-0.668,1.222,-237.037,90.632,31.762,
37069570,-0.719,-0.133,1.382,-184.73,61.512,41.772,
37069580,0.151,-0.436,1.081,-124.25,11.935,25.655,
37069590,-0.143,-0.068,1.212,-87.325,-18.917,31.447,
37069600,-0.931,1.346,0.853,14.822,-46.602,68.197,
37069610,-0.664,1.951,-0.498,173.022,-71.137,170.8,
37069620,1.392,0.418,0.053,129.605,-20.632,244.58,
37069630,1.648,-0.286,-0.684,206.552,-72.555,113.312,
37069640,0.857,-0.43,-1.418,263.742,-70.892,-33.845,
37069650,-0.498,-0.843,-1.429,216.737,-104.352,-176.12,
37069660,-0.861,-1.637,-0.941,120.47,-130.41,-230.772,
37069670,-1.905,-1.998,0.759,82.74,-175.927,-263.27,
37069680,0.994,-1.692,0.843,377.457,-185.622,-254.03,
37069690,1.956,1.961,1.775,482.65,-8.207,-29.907,
37069700,1.166,-0.023,1.97,291.777,112.21,-66.132,
37069710,-1.912,1.748,0.601,102.9,158.83,41.982,
37069720,0.041,-0.552,1.217,-36.05,-21.437,39.882,
37069730,-1.073,0.549,0.978,-34.125,-82.495,1.592,
37069740,0.97,-0.69,0.979,-57.4,-101.307,19.145,
37069750,-0.163,-0.371,0.971,-28.437,-61.495,12.407,
37069760,0.219,-0.172,0.965,-27.037,-50.33,9.59,
37069770,0.36,-0.288,0.928,-19.88,-31.36,11.812,
37069780,0.126,-0.392,0.918,-5.967,-10.482,13.405,
37069790,0.071,-0.035,0.996,8.592,1.4,7.857,
37069800,0.049,-0.059,0.995,9.432,7.315,5.495,
37069810,0.019,-0.08,0.998,7.332,12.6,4.742,
37069820,-0.042,-0.003,1.008,5.88,15.925,5.285,
37069830,-0.15,-0.003,1.014,0.63,14.437,3.482,
37069830,-0.106,-0.016,1.017,-6.597,10.92,-1.365,
37069850,-0.033,-0.028,1.02,-13.79,9.275,-5.355,
37069850,0.023,-0.056,1.038,-19.827,11.917,-6.72,
37069870,0.07,-0.039,1.062,-24.5,18.497,-6.09,
37069870,0.061,-0.013,1.103,-31.447,28.227,-3.465,
37069890,-0.008,-0.006,1.126,-43.277,38.57,-0.14,
37069890,0.083,-0.012,1.171,-63.35,40.127,8.295,
37069910,-0.005,-0.042,1.131,-85.75,40.635,24.99,
37069910,-0.107,-0.111,1.09,-108.15,36.312,42.245,
37069920,-0.184,-0.117,1.036,-125.685,24.762,60.917,
37069930,-0.212,-0.146,1.013,-140.455,11.305,71.33,
37069940,-0.214,-0.136,0.975,-146.37,-1.575,74.602,
37069950,-0.122,-0.235,0.947,-148.872,-13.317,70.77,
37069960,-0.166,-0.219,0.942,-148.592,-17.29,68.302,
37069970,-0.021,-0.346,0.869,-145.897,-29.067,71.085,
37069980,-0.015,-0.358,0.86,-145.81,-31.29,78.575,
37069990,-0.038,-0.478,0.801,-130.55,-34.16,92.347,
37070000,-0.052,-0.359,0.685,-97.37,-38.027,91.14,
37070010,-0.198,-0.556,0.593,-93.607,-44.38,93.415,
37070020,-0.206,-0.55,0.583,-68.145,-54.722,87.062,
37070030,-0.286,-0.402,0.563,-44.065,-62.72,81.427,
37070040,-0.211,-0.401,0.595,-24.307,-68.757,71.995,
37070050,-0.331,-0.364,0.737,-4.585,-68.005,59.167,
37070060,-0.278,-0.36,0.809,14.402,-61.337,42.245,
37070070,-0.262,-0.246,1.003,20.09,-54.407,24.132,
37070080,-0.203,-0.182,1.152,17.272,-42.787,3.115,
37070090,-0.211,-0.111,1.269,-0.035,-33.722,-18.672,
37070100,-0.155,-0.058,1.341,-29.575,-29.645,-34.16,
37070110,-0.126,-0.004,1.344,-68.267,-30.502,-43.33,
37070120,-0.054,0.01,1.427,-116.812,-33.757,-41.457,
37070130,-0.039,0.066,1.446,-170.975,-37.222,-30.747,
37070140,-0.12,-0.071,1.314,-222.932,-37.782,-20.3,
37070150,-0.078,-0.25,1.172,-263.707,-36.75,-19.547,
37070160,0.017,-0.607,1.222,-280.892,-37.012,-15.015,
37070170,-0.343,-1.167,1.307,-265.685,-51.66,-11.322,
37070170,0.442,-0.822,1.392,-225.75,-90.3,-31.482,
37070190,-0.011,-0.841,1.132,-167.86,-115.185,-9.537,
37070190,0.402,-0.709,0.81,-120.505,-83.702,8.522,
37070210,0.082,-0.574,0.534,-81.55,-32.077,46.672,
37070210,-0.173,-0.788,0.568,-46.935,-28.962,68.88,
37070230,-1.262,-0.536,0.756,18.06,-83.002,121.8,
37070230,0.593,-0.786,0.075,102.27,-70.105,215.775,
37070250,0.314,-0.984,0.329,82.145,16.012,291.497,
37070250,0.46,-1.097,0.125,121.555,56.892,279.982,
37070260,0.529,-1.001,-0.063,141.592,48.667,243.127,
37070270,0.632,-0.947,0.035,127.505,18.497,171.01,
37070280,0.665,-0.83,-0.048,105.035,-25.112,76.51,
37070290,0.453,-0.714,-0.024,79.257,-55.632,-8.995,
37070300,0.242,-0.581,0.02,55.405,-69.597,-74.025,
37070310,-0.337,-0.349,0.153,32.917,-81.69,-99.977,
37070320,-0.592,-0.21,0.306,4.025,-98.735,-107.257,
37070330,-0.791,-0.2,0.495,-7.84,-112.612,-112.507,
37070340,-0.7,-0.093,0.609,5.355,-79.747,-92.995,
37070350,-0.998,0.142,0.56,43.61,-13.055,-63.42,
37070360,-1.476,0.523,0.445,90.282,42.892,-43.47,
37070370,-1.362,0.873,0.227,123.27,81.497,-30.345,
37070380,-0.835,1.107,0.078,123.48,132.947,-28.42,
37070390,-0.514,0.915,0.115,130.41,198.835,-69.212,
37070400,0.302,-0.131,0.922,130.952,289.275,-108.027,
37070410,-1.108,-1.998,0.895,89.092,-24.097,-320.617,
37070420,1.709,-1.499,-0.851,462.7,-177.922,-539.7,
37070430,-1.003,1.968,0.459,430.885,185.5,-274.032,
37070440,1.788,1.707,1.189,389.305,45.64,-240.345,
37070450,0.955,0.027,1.488,399.42,9.887,-165.515,
37070460,1.866,0.002,1.995,390.512,54.775,-30.467,
37070470,-0.473,0.598,1.881,275.887,179.462,51.555,
37070480,-1.853,1.824,1.026,125.212,162.61,50.557,
37070490,-0.816,0.384,1.051,0.227,3.64,-0.175,
37070500,-0.294,0.233,1.058,-33.197,-62.3,-9.502,
37070510,-0.249,-0.241,0.986,-48.947,-77.892,2.625,
37070520,0.022,-0.589,0.911,-45.272,-69.527,0,
37070530,0.325,-0.293,0.928,-30.502,-57.715,-6.51,
37070540,0.355,-0.299,0.929,-14.542,-36.347,0.805,
37070550,0.174,-0.193,0.956,1.435,-14.262,9.87,
37070560,0.067,-0.101,0.978,10.692,-0.157,11.357,
37070570,0.06,-0.039,0.997,13.825,7.577,9.87,
37070580,-0.06,0.02,1.007,11.725,13.037,9.975,
37070580,0.008,-0.055,0.998,6.562,14.052,8.925,
37070600,-0.034,0.017,1.019,3.237,17.745,8.925,
37070600,-0.064,-0.011,1.013,-4.287,20.562,9.327,
37070620,-0.052,-0.046,1.025,-10.29,22.61,8.697,
37070620,0.07,-0.031,1.059,-14.927,27.247,12.18,
37070640,0.073,0.05,1.1,-21.805,37.345,20.3,
37070640,0.088,0,1.139,-35.28,46.935,30.31,
37070650,0.111,0.012,1.261,-60.077,32.287,45.01,
37070660,0.077,0,1.289,-95.13,19.565,66.097,
37070670,-0.176,-0.145,1.189,-121.502,17.902,74.707,
37070680,-0.407,-0.256,1.028,-141.417,12.232,79.695,
37070690,-0.276,-0.262,1.004,-147.77,5.792,75.565,
37070700,-0.181,-0.099,1.027,-148.995,17.255,74.532,
37070710,0.004,-0.065,0.971,-134.697,41.195,69.44,
37070720,-0.052,-0.408,0.957,-123.602,59.36,46.83,
37070730,-0.424,-0.852,0.768,-100.135,58.87,17.832,
37070740,-0.012,-1.502,1.327,-82.932,41.107,-4.865,
37070750,-0.103,-1.998,0.001,-56.052,-2.695,-60.41,
37070760,1.783,-1.299,0.082,-30.012,6.51,-154.7,
37070770,0.063,0.136,-0.771,5.845,-4.952,-247.747,
37070780,-0.776,1.7,-1.353,82.635,-30.257,-294.595,
37070790,-0.909,1.977,-0.161,48.877,-30.467,-192.377,
37070800,-1.913,-0.618,1.133,77.542,-106.96,-89.687,
37070810,1.799,-1.998,0.356,361.165,-121.03,-24.64,
37070820,-0.172,-0.665,1.72,462.157,-50.505,3.815,
37070830,1.796,1.486,1.994,440.247,95.707,-1.925,
37070840,-1.922,1.987,0.088,221.48,216.597,16.87,
37070850,-0.543,-0.428,1.187,-25.935,-0.927,12.25,
37070860,-1.491,0.604,0.873,-42.735,-97.93,6.65,
37070870,0.579,-0.708,1.066,-67.375,-137.182,13.527,
37070880,0.057,-0.318,0.974,-40.337,-106.435,11.707,
37070890,0.559,-0.344,0.967,-38.885,-81.287,10.22,
37070900,0.195,-0.25,0.962,-23.152,-49.7,12.775,
37070910,0.183,-0.299,0.953,-10.815,-31.307,12.53,
37070920,0.142,-0.121,0.981,2.957,-18.287,7.945,
37070920,0.183,-0.032,0.988,6.982,-6.615,6.545,
37070940,0.093,-0.089,0.988,8.26,4.795,5.845,
37070940,0.016,-0.107,0.986,9.747,12.74,6.702,
37070960,-0.107,-0.017,0.995,10.64,16.905,5.757,
37070960,-0.175,-0.026,0.995,7.997,14.717,3.587,
37070980,-0.132,-0.061,0.988,5.092,9.38,-0.052,
37070980,-0.058,-0.074,0.994,3.902,6.527,-2.1,
37071000,-0.051,-0.053,1.001,2.415,7.28,0.28,
37071000,-0.095,-0.038,1.012,-0.927,8.837,3.517,
37071010,-0.121,-0.009,1.022,-5.897,8.207,6.282,
37071020,-0.082,-0.058,1.035,-13.142,6.545,8.557,
37071030,-0.117,-0.054,1.061,-20.562,4.62,11.812,
37071040,-0.217,-0.106,1.05,-30.817,-1.452,15.907,
37071050,-0.2,-0.201,1.063,-38.535,-12.687,20.282,
37071060,-0.222,-0.258,1.05,-41.195,-22.855,28.157,
37071070,-0.09,-0.387,0.991,-38.115,-28.525,37.572,
37071080,0.119,-0.412,0.904,-20.212,-19.232,50.977,
37071090,0.032,-0.335,0.867,6.317,-11.725,60.707,
37071100,-0.561,-0.513,0.901,30.152,-19.092,64.96,
37071110,-1.095,0.131,0.668,64.785,-42.91,83.37,
37071120,1.448,0.527,0.402,89.985,-21.017,110.32,
37071130,1.353,0.945,0.746,78.452,6.632,60.742,
37071140,0.263,-0.423,1.284,2.485,35.105,-13.002,
37071150,-0.944,-0.162,1.111,12.337,49.227,-10.132,
37071160,-0.23,0.433,0.9,27.545,25.987,11.742,
37071170,-0.049,-0.29,1.061,-11.13,5.495,-5.302,
37071180,-0.233,-0.035,1.027,1.015,1.697,-14.14,
37071190,-0.123,-0.047,1.011,4.462,-4.34,-11.252,
37071200,-0.056,-0.12,1.018,3.36,-5.967,-9.957,
37071210,-0.04,-0.057,0.993,6.825,-4.847,-7.77,
37071220,-0.092,-0.061,0.995,7.052,-3.272,-6.125,
37071230,-0.061,-0.069,1,5.845,-3.535,-6.37,
37071240,-0.041,-0.077,0.998,3.745,-1.33,-6.352,
37071250,-0.05,-0.096,1,2.782,1.96,-5.32,
37071260,-0.089,-0.092,0.994,3.937,5.442,-4.112,
37071270,-0.109,-0.079,0.988,5.705,6.265,-3.762,
37071280,-0.105,-0.055,0.981,6.947,6.02,-3.727,
37071290,-0.094,-0.025,0.98,7.087,4.882,-3.727,
37071300,-0.12,-0.02,0.978,6.422,4.13,-3.727,
37071300,-0.185,-0.001,0.975,5.407,1.557,-3.062,
37071320,-0.2,-0.001,0.979,2.852,-4.025,-2.607,
37071320,-0.147,-0.028,0.981,0.017,-10.272,-2.432,
37071330,-0.125,-0.04,0.986,-2.205,-13.72,-2.572,
