#Format version: 1.0
time[ms],accX[g],accY[g],accZ[g],Value 1,Value 2,Value 3,
48242590,-0.73,0.211,0.662,-5.355,-5.162,2.66,
48242600,-0.727,0.218,0.671,-5.25,-4.865,2.73,
48242610,-0.729,0.216,0.658,-5.757,-3.797,3.325,
48242620,-0.73,0.211,0.648,-6.002,-3.22,3.692,
48242630,-0.731,0.214,0.647,-6.685,-1.872,3.307,
48242640,-0.621,0.267,0.651,-8.47,-1.295,-7.437,
48242650,-0.756,0.182,0.671,-10.902,4.182,-3.727,
48242660,-0.824,0.114,0.654,-8.837,2.572,5.985,
48242670,-0.748,0.178,0.649,-3.237,-0.402,3.517,
48242670,-0.7,0.228,0.651,-1.785,-0.892,1.732,
48242690,-0.69,0.236,0.64,-4.847,0.332,1.61,
48242690,-0.687,0.216,0.654,-8.942,2.047,-3.29,
48242710,-0.773,0.146,0.647,-10.255,3.885,0,
48242710,-0.809,0.132,0.626,-6.527,1.505,3.447,
48242730,-0.793,0.177,0.611,-2.922,-2.257,2.152,
48242730,-0.774,0.207,0.602,-2.135,-5.985,-0.822,
48242750,-0.784,0.196,0.609,-3.675,-9.31,-2.66,
48242750,-0.781,0.182,0.622,-4.83,-13.177,-4.987,
48242760,-0.761,0.186,0.633,-3.797,-16.59,-7.367,
48242770,-0.75,0.191,0.644,-3.272,-18.847,-8.837,
48242780,-0.749,0.193,0.651,-4.025,-20.282,-9.765,
48242790,-0.745,0.19,0.652,-4.06,-21.122,-10.657,
48242800,-0.735,0.188,0.66,-3.727,-21.805,-11.375,
48242810,-0.716,0.188,0.663,-4.13,-21.56,-11.515,
48242820,-0.697,0.183,0.671,-4.112,-20.632,-10.937,
48242830,-0.695,0.173,0.662,-3.92,-18.935,-9.537,
48242840,-0.713,0.154,0.651,-2.73,-18.427,-8.295,
48242850,-0.744,0.157,0.675,-3.08,-19.127,-8.225,
48242860,-0.738,0.185,0.7,-5.617,-21.105,-9.625,
48242870,-0.711,0.196,0.69,-6.79,-22.75,-9.975,
48242880,-0.696,0.175,0.681,-7.052,-23.765,-8.837,
48242890,-0.695,0.16,0.68,-8.75,-23.345,-7.665,
48242900,-0.688,0.164,0.696,-9.975,-22.767,-6.965,
48242910,-0.672,0.168,0.723,-9.327,-20.527,-4.97,
48242920,-0.723,0.144,0.724,-7.56,-17.71,5.215,
48242930,-0.651,0.193,0.721,-5.407,-16.975,7.63,
48242940,-0.591,0.236,0.714,-3.92,-12.267,3.675,
48242950,-0.621,0.204,0.711,-5.25,-4.375,3.797,
48242960,-0.68,0.161,0.703,-6.965,1.82,6.545,
48242970,-0.706,0.146,0.683,-5.302,5.005,8.102,
48242980,-0.699,0.161,0.672,-1.75,5.04,7.227,
48242990,-0.701,0.169,0.664,-0.962,5.127,6.895,
48243000,-0.734,0.148,0.649,-0.997,3.92,6.265,
48243010,-0.76,0.149,0.655,0.332,1.47,3.99,
48243020,-0.76,0.164,0.658,1.417,-2.747,0.857,
48243030,-0.781,0.156,0.654,1.347,-6.142,-2.292,
48243040,-0.801,0.143,0.633,-0.14,-10.657,-6.562,
48243050,-0.805,0.129,0.622,-0.192,-18.112,-11.812,
48243060,-0.747,0.192,0.731,-2.45,-26.285,-16.73,
48243070,-0.686,0.222,0.79,-6.335,-28.402,-15.225,
48243080,-0.694,0.176,0.743,-5.39,-25.97,-3.745,
48243080,-0.641,0.168,0.703,-3.395,-24.36,-3.85,
48243100,-0.635,0.163,0.707,-4.62,-20.125,-4.427,
48243100,-0.653,0.157,0.74,-7.56,-17.99,-0.822,
48243120,-0.62,0.168,0.76,-9.537,-16.975,0.735,
48243120,-0.591,0.169,0.741,-8.225,-13.86,2.537,
48243140,-0.586,0.173,0.742,-5.81,-8.942,4.742,
48243140,-0.589,0.195,0.756,-5.442,-3.482,5.81,
48243160,-0.62,0.209,0.757,-5.372,2.397,8.295,
48243160,-0.659,0.209,0.769,-4.742,7.525,12.32,
48243170,-0.643,0.207,0.768,-4.725,16.012,14.105,
48243180,-0.686,0.143,0.675,-1.96,24.36,15.82,
48243190,-0.79,0.075,0.57,1.837,21.682,15.697,
48243200,-0.818,0.117,0.602,-0.577,9.8,9.87,
48243210,-0.778,0.177,0.648,-4.462,-0.945,2.87,
48243220,-0.767,0.141,0.651,-2.17,-8.75,-1.207,
48243230,-0.771,0.096,0.637,-1.47,-13.527,-5.46,
48243240,-0.768,0.093,0.659,-3.797,-19.215,-10.587,
48243250,-0.757,0.102,0.653,-5.547,-23.677,-15.277,
48243260,-0.762,0.116,0.623,-3.062,-30.205,-19.757,
48243270,-0.714,0.19,0.684,-1.137,-35.682,-23.625,
48243280,-0.633,0.27,0.843,-3.71,-34.912,-24.307,
48243290,-0.614,0.232,0.888,-7.612,-28.612,-12.197,
48243300,-0.581,0.14,0.743,-4.532,-23.52,-1.82,
48243310,-0.578,0.118,0.69,0.927,-17.115,-1.977,
48243320,-0.602,0.156,0.743,-2.03,-13.51,-2.24,
48243330,-0.613,0.194,0.813,-7.42,-13.807,0.7,
48243340,-0.592,0.194,0.821,-8.977,-14.56,3.745,
48243350,-0.569,0.173,0.798,-9.012,-9.957,6.23,
48243360,-0.564,0.167,0.805,-9.59,-1.785,9.31,
48243370,-0.594,0.161,0.78,-9.45,11.147,13.842,
48243380,-0.711,0.111,0.692,-4.952,18.252,16.1,
48243390,-0.781,0.123,0.667,-4.182,14.455,13.842,
48243400,-0.759,0.188,0.695,-8.487,6.702,7.927,
48243410,-0.693,0.197,0.724,-9.275,0.805,4.357,
48243420,-0.652,0.154,0.706,-8.137,-0.332,4.095,
48243420,-0.665,0.101,0.677,-6.142,2.012,4.27,
48243440,-0.708,0.096,0.674,-3.447,1.802,3.01,
48243440,-0.754,0.126,0.693,-1.487,-1.295,-0.017,
48243460,-0.779,0.133,0.688,-0.997,-5.705,-4.567,
48243460,-0.753,0.114,0.661,-1.015,-10.552,-9.835,
48243480,-0.708,0.093,0.633,-0.682,-15.522,-14.175,
48243480,-0.69,0.089,0.663,0.122,-21.84,-16.607,
48243500,-0.641,0.14,0.755,-1.015,-24.78,-18.217,
48243500,-0.603,0.176,0.816,-0.402,-23.677,-17.36,
48243510,-0.561,0.172,0.812,1.102,-18.445,-13.405,
48243520,-0.571,0.124,0.743,2.712,-10.902,-7.997,
48243530,-0.633,0.093,0.729,3.517,-6.37,-3.675,
48243540,-0.66,0.122,0.744,1.19,-5.547,-2.607,
48243550,-0.661,0.149,0.76,1.54,-5.705,-2.537,
48243560,-0.641,0.159,0.78,1.12,-7.122,-1.382,
48243570,-0.635,0.135,0.768,-2.695,-7.647,0.717,
48243580,-0.62,0.125,0.761,-5.897,-8.837,2.66,
48243590,-0.611,0.129,0.773,-5.46,-8.067,5.547,
48243600,-0.654,0.148,0.767,-3.325,-6.265,14.14,
48243610,-0.57,0.225,0.824,-3.185,-3.395,13.23,
48243620,-0.534,0.222,0.803,-4.235,7.332,12.057,
48243630,-0.667,0.122,0.714,-2.625,18.34,17.255,
48243640,-0.775,0.072,0.64,-2.52,17.955,17.08,
48243650,-0.784,0.123,0.658,-3.902,9.012,10.745,
48243660,-0.706,0.198,0.733,-4.655,-0.612,4.742,
48243670,-0.642,0.186,0.749,-4.882,-5.092,3.255,
48243680,-0.631,0.135,0.727,-4.025,-4.06,4.252,
48243690,-0.691,0.094,0.7,-1.715,-1.4,4.55,
48243700,-0.768,0.095,0.673,0.595,-2.485,1.645,
48243710,-0.807,0.112,0.665,1.155,-7.7,-4.077,
48243720,-0.783,0.109,0.668,-0.84,-15.207,-11.357,
48243730,-0.731,0.076,0.628,-1.82,-21.717,-17.255,
48243740,-0.676,0.061,0.681,0.7,-30.24,-20.597,
48243750,-0.572,0.137,0.844,0.262,-30.537,-17.692,
48243760,-0.571,0.171,0.86,3.167,-25.812,-1.732,
48243770,-0.534,0.16,0.789,9.257,-20.562,3.692,
48243780,-0.585,0.147,0.719,7.332,-13.457,4.182,
48243790,-0.642,0.141,0.747,1.47,-9.905,0.805,
48243800,-0.628,0.162,0.803,-0.98,-9.66,-3.797,
48243810,-0.633,0.155,0.777,1.61,-8.277,-3.99,
48243820,-0.692,0.131,0.76,3.202,-8.067,0.77,
48243830,-0.654,0.154,0.763,-0.07,-8.925,0.927,
48243830,-0.621,0.16,0.771,0.087,-9.292,-0.122,
48243850,-0.604,0.164,0.798,-0.56,-9.292,2.747,
48243850,-0.563,0.161,0.772,-2.222,-8.085,3.692,
48243870,-0.545,0.154,0.77,-0.105,-3.797,2.712,
48243870,-0.567,0.151,0.776,1.067,2.17,4.165,
48243890,-0.594,0.151,0.767,1.995,5.687,7.927,
48243890,-0.605,0.158,0.8,4.095,8.47,10.342,
48243910,-0.606,0.164,0.792,3.43,13.09,12.232,
48243910,-0.658,0.13,0.72,4.602,19.11,13.877,
48243920,-0.728,0.1,0.679,6.702,19.53,13.037,
48243930,-0.739,0.115,0.684,4.637,14.315,8.942,
48243940,-0.688,0.162,0.727,3.255,7.577,4.025,
48243950,-0.633,0.179,0.756,4.795,3.972,2.275,
48243960,-0.631,0.159,0.745,6.457,4.532,3.097,
48243970,-0.677,0.136,0.716,7.84,6.352,3.675,
48243980,-0.726,0.132,0.697,8.732,5.267,2.047,
48243990,-0.754,0.146,0.675,8.33,1.557,-1.662,
48244000,-0.756,0.144,0.649,8.26,-4.602,-6.597,
48244010,-0.749,0.132,0.683,7.892,-13.44,-11.515,
48244020,-0.658,0.147,0.755,4.672,-20.842,-15.82,
48244030,-0.555,0.155,0.793,5.04,-21.682,-16.38,
48244040,-0.524,0.142,0.807,8.872,-18.55,-11.725,
48244050,-0.564,0.136,0.791,8.767,-10.745,-6.177,
48244060,-0.625,0.161,0.796,7.157,-5.337,-2.922,
48244070,-0.648,0.184,0.768,5.215,-1.995,-1.102,
48244080,-0.68,0.192,0.759,3.657,-1.977,-0.437,
48244090,-0.72,0.184,0.737,-0.577,-3.465,-0.98,
48244100,-0.751,0.177,0.726,-4.13,-9.257,-3.342,
48244110,-0.732,0.184,0.731,-5.425,-16.222,-7.105,
48244120,-0.656,0.188,0.754,-5.845,-20.615,-9.852,
48244130,-0.619,0.146,0.784,-5.25,-19.162,-6.615,
48244140,-0.601,0.14,0.768,-3.762,-16.38,1.925,
48244150,-0.521,0.196,0.776,-2.1,-10.535,-0.962,
48244160,-0.514,0.2,0.778,-1.4,-0.367,-1.435,
48244170,-0.591,0.17,0.764,-2.292,8.12,4.637,
48244170,-0.648,0.146,0.772,-3.027,11.182,7.437,
48244190,-0.678,0.151,0.778,-2.625,10.762,6.737,
48244190,-0.703,0.163,0.78,-3.535,7.42,4.357,
48244210,-0.717,0.154,0.745,-6.3,2.362,1.312,
48244210,-0.683,0.157,0.744,-7.245,-2.695,-1.627,
48244230,-0.616,0.163,0.791,-8.557,-6.265,-3.605,
48244230,-0.589,0.152,0.796,-10.377,-5.827,-2.31,
48244250,-0.596,0.136,0.757,-8.522,-3.517,0,
48244250,-0.608,0.137,0.737,-6.072,-0.805,2.275,
48244260,-0.612,0.147,0.74,-6.58,0.262,3.675,
48244270,-0.623,0.154,0.741,-7.63,1.067,4.427,
48244280,-0.544,0.172,0.731,-8.085,2.835,-4.655,
48244290,-0.665,0.123,0.678,-7.98,7.052,-3.832,
48244300,-0.788,0.084,0.658,-5.897,2.345,0.91,
48244310,-0.862,0.098,0.765,-7.98,-4.497,-2.292,
48244320,-0.764,0.133,0.746,-9.835,-11.917,-6.86,
48244330,-0.565,0.147,0.714,-3.815,-18.357,-11.445,
48244340,-0.541,0.112,0.732,-4.182,-15.977,-7.595,
48244350,-0.592,0.072,0.744,-8.137,-8.505,-2.625,
48244360,-0.606,0.078,0.755,-1.767,-3.395,-1.47,
48244370,-0.581,0.115,0.74,4.97,0.21,-1.085,
48244380,-0.599,0.121,0.715,4.725,3.342,1.54,
48244390,-0.66,0.098,0.7,3.885,6.527,3.78,
48244400,-0.709,0.1,0.689,6.527,6.667,2.59,
48244410,-0.708,0.127,0.698,8.137,5.32,-0.805,
48244420,-0.648,0.139,0.759,6.422,3.71,-3.185,
48244430,-0.538,0.125,0.772,5.337,6.3,-2.695,
48244440,-0.506,0.101,0.774,10.22,10.692,2.152,
48244450,-0.583,0.103,0.784,12.215,17.237,8.715,
48244460,-0.653,0.138,0.763,10.745,19.197,11.497,
48244470,-0.692,0.173,0.794,10.185,15.19,12.057,
48244480,-0.652,0.202,0.824,3.832,11.025,11.777,
48244490,-0.639,0.187,0.782,-0.577,11.34,13.055,
48244500,-0.743,0.168,0.752,-0.525,10.552,13.825,
48244510,-0.802,0.213,0.761,-4.27,7.962,9.642,
48244520,-0.771,0.276,0.801,-8.522,0.192,3.78,
48244530,-0.713,0.27,0.758,-11.69,-7.507,0.875,
48244540,-0.647,0.228,0.768,-13.492,-10.78,0.77,
48244550,-0.61,0.186,0.769,-15.662,-9.887,2.572,
48244560,-0.636,0.158,0.73,-14.735,-8.277,5.005,
48244570,-0.729,0.147,0.618,-11.515,-9.747,5.6,
48244580,-0.843,0.163,0.585,-11.55,-20.055,0.035,
48244580,-0.813,0.207,0.691,-21.437,-31.237,-23.257,
48244600,-0.832,0.105,0.784,-29.4,-35.927,-27.3,
48244600,-0.671,0.043,0.774,-25.13,-41.58,-21.07,
48244620,-0.437,0.059,0.768,-17.5,-38.535,-21.525,
48244620,-0.388,0.072,0.763,-11.97,-25.252,-13.65,
48244630,-0.491,0.056,0.769,-10.22,-10.062,-3.307,
48244640,-0.581,0.038,0.75,-8.172,-0.052,2.555,
48244650,-0.623,0.04,0.717,-2.94,4.602,3.675,
48244660,-0.681,0.055,0.682,-0.717,6.212,3.062,
48244670,-0.744,0.076,0.683,-2.03,5.355,0.56,
48244680,-0.728,0.103,0.69,-1.68,0.56,-4.375,
48244690,-0.644,0.109,0.774,-1.155,-4.305,-7.787,
48244700,-0.483,0.104,0.796,-3.255,-1.505,-7.175,
48244710,-0.424,0.097,0.781,3.657,6.317,-0.875,
48244720,-0.561,0.097,0.796,9.17,16.047,9.205,
48244730,-0.665,0.148,0.795,7.227,23.292,12.915,
48244740,-0.683,0.176,0.81,8.277,22.75,12.442,
48244750,-0.646,0.15,0.749,7.875,21.647,12.162,
48244760,-0.661,0.118,0.705,6.86,20.037,12.88,
48244770,-0.748,0.116,0.696,5.285,17.15,12.757,
48244780,-0.81,0.147,0.703,3.57,9.397,8.347,
48244790,-0.807,0.178,0.723,2.065,-1.155,1.96,
48244800,-0.747,0.18,0.741,-0.84,-11.847,-3.937,
48244810,-0.668,0.154,0.779,-4.707,-17.955,-6.825,
48244820,-0.606,0.119,0.771,-6.527,-19.127,-6.842,
48244830,-0.605,0.097,0.728,-4.112,-17.657,-4.917,
48244840,-0.669,0.104,0.645,-1.015,-20.247,-3.43,
48244850,-0.749,0.169,0.707,-1.417,-26.722,-4.095,
48244860,-0.784,0.201,0.827,-9.397,-30.975,-7.21,
48244870,-0.667,0.158,0.848,-14.892,-30.555,-11.69,
48244880,-0.532,0.073,0.766,-11.165,-27.825,-12.81,
48244890,-0.459,0.064,0.746,-6.387,-20.125,-9.047,
48244900,-0.514,0.087,0.77,-5.722,-10.395,-1.732,
48244910,-0.621,0.093,0.765,-4.235,-2.922,3.57,
48244920,-0.671,0.093,0.746,-1.452,-2.257,3.885,
48244920,-0.668,0.086,0.742,-2.747,-2.835,2.432,
48244940,-0.64,0.073,0.732,-5.11,-2.24,0.875,
48244940,-0.633,0.066,0.723,-2.852,-1.19,-0.07,
48244960,-0.665,0.084,0.73,-0.455,-0.28,-0.997,
48244960,-0.684,0.113,0.741,-0.49,0.262,-2.835,
48244980,-0.66,0.122,0.734,-0.192,0.07,-4.987,
48244980,-0.62,0.114,0.74,1.417,0.717,-5.687,
48245000,-0.572,0.103,0.827,1.155,4.497,-4.165,
48245000,-0.467,0.085,0.796,2.03,13.125,-0.892,
48245010,-0.472,0.09,0.786,9.87,20.037,6.09,
48245020,-0.617,0.102,0.758,10.815,26.582,14.035,
48245030,-0.742,0.123,0.699,9.275,27.562,15.207,
48245040,-0.796,0.144,0.706,10.902,18.83,11.27,
48245050,-0.774,0.144,0.708,7,8.172,5.862,
48245060,-0.739,0.124,0.7,3.045,-2.73,0.892,
48245070,-0.735,0.118,0.744,1.242,-10.885,-2.87,
48245080,-0.703,0.146,0.793,-1.995,-15.172,-6.79,
48245090,-0.64,0.167,0.838,-3.657,-16.73,-8.662,
48245100,-0.557,0.165,0.818,-4.182,-15.767,-7.385,
48245110,-0.522,0.144,0.787,-3.062,-10.412,-2.432,
48245120,-0.566,0.125,0.755,-1.942,-4.795,3.657,
48245130,-0.649,0.112,0.739,-0.542,-1.05,7.542,
48245140,-0.734,0.108,0.65,0.98,-3.342,7.087,
48245150,-0.808,0.137,0.662,1.855,-10.535,3.045,
48245160,-0.891,0.131,0.742,-6.247,-20.142,-3.237,
48245170,-0.724,0.128,0.782,-13.877,-26.355,-13.457,
48245180,-0.503,0.091,0.802,-10.045,-29.295,-17.447,
48245190,-0.402,0.055,0.787,-5.582,-20.002,-11.567,
48245200,-0.444,0.054,0.768,-1.715,-5.687,-2.362,
48245210,-0.579,0.077,0.766,3.202,5.95,5.022,
48245220,-0.67,0.106,0.748,5.32,9.747,6.947,
48245230,-0.698,0.111,0.713,5.582,9.485,5.687,
48245240,-0.716,0.096,0.673,5.407,8.155,3.167,
48245250,-0.735,0.085,0.672,6.125,5.897,-0.525,
48245260,-0.71,0.091,0.756,5.932,3.272,-5.127,
48245270,-0.587,0.089,0.782,5.355,4.62,-7.945,
48245280,-0.466,0.072,0.753,10.115,8.767,-5.215,
48245290,-0.491,0.068,0.779,13.09,18.655,2.572,
48245300,-0.583,0.107,0.8,10.937,25.655,8.942,
48245310,-0.612,0.138,0.796,11.777,28.157,12.495,
48245320,-0.579,0.157,0.808,13.58,27.912,15.365,
48245320,-0.599,0.157,0.805,12.162,31.115,19.582,
48245330,-0.668,0.143,0.738,10.867,35.122,22.47,
48245340,-0.759,0.163,0.702,12.32,33.39,22.085,
48245350,-0.798,0.205,0.701,10.412,28.385,18.48,
48245360,-0.793,0.217,0.674,7.157,20.387,14.105,
48245370,-0.779,0.196,0.657,5.32,10.972,10.64,
48245380,-0.758,0.179,0.682,2.852,3.01,7.227,
48245390,-0.728,0.17,0.723,1.067,-1.715,4.252,
48245400,-0.687,0.159,0.751,1.19,-3.675,2.24,
48245410,-0.662,0.141,0.747,1.12,-2.187,1.732,
48245420,-0.656,0.126,0.717,1.085,-0.122,2.24,
48245430,-0.671,0.122,0.712,1.155,2.31,2.852,
48245440,-0.692,0.127,0.707,0.35,3.22,2.852,
48245450,-0.704,0.131,0.702,-0.367,3.132,2.275,
48245460,-0.705,0.138,0.703,-0.892,1.977,1.05,
48245470,-0.701,0.148,0.711,-1.47,0.98,-0.105,
48245480,-0.694,0.159,0.719,-2.17,-0.665,-0.857,
48245490,-0.684,0.17,0.725,-2.66,-1.015,-1.067,
48245500,-0.656,0.181,0.748,-2.765,-0.577,-0.525,
48245510,-0.629,0.192,0.786,-3.692,2.747,1.645,
48245520,-0.612,0.191,0.806,-5.005,9.135,5.162,
48245530,-0.642,0.163,0.78,-5.18,14.56,9.222,
48245540,-0.688,0.151,0.732,-6.755,16.712,11.112,
48245550,-0.715,0.143,0.668,-6.772,16.52,11.112,
48245560,-0.734,0.155,0.621,-4.655,12.705,9.31,
48245570,-0.629,0.198,0.6,-4.882,9.03,-5.302,
48245580,-0.766,0.097,0.64,-5.635,8.277,-7.892,
48245590,-0.765,0.1,0.666,-5.512,5.495,-2.817,
48245600,-0.687,0.142,0.71,-1.925,0.7,-1.785,
48245610,-0.642,0.157,0.71,0.805,3.115,0.595,
48245620,-0.706,0.101,0.661,1.102,6.142,4.55,
48245630,-0.751,0.082,0.655,0.507,4.62,5.145,
48245640,-0.742,0.102,0.635,1.977,1.662,4.34,
48245650,-0.731,0.121,0.651,4.952,-2.327,3.167,
48245660,-0.737,0.126,0.664,2.572,-4.007,1.26,
48245670,-0.744,0.103,0.669,1.417,-5.775,-0.525,
48245670,-0.712,0.106,0.674,2.52,-6.807,-3.027,
48245690,-0.672,0.129,0.68,3.832,-6.58,-4.235,
48245690,-0.651,0.153,0.727,5.057,-7.77,-3.045,
48245710,-0.601,0.204,0.789,3.08,-3.885,-0.35,
48245710,-0.644,0.194,0.758,5.495,2.187,4.235,
48245730,-0.754,0.176,0.731,7.28,6.265,7.822,
48245730,-0.787,0.2,0.713,2.712,5.407,5.862,
48245750,-0.758,0.21,0.711,-0.245,0.105,2.905,
48245750,-0.713,0.198,0.72,-2.187,-3.185,1.54,
48245760,-0.694,0.175,0.71,-3.587,-3.622,1.435,
48245770,-0.69,0.171,0.713,-3.062,-3.01,2.275,
48245780,-0.698,0.185,0.731,-3.622,-3.115,3.115,
48245790,-0.705,0.183,0.725,-5.39,-2.765,4.042,
48245800,-0.688,0.175,0.724,-5.845,-3.29,4.62,
48245810,-0.668,0.161,0.698,-6.58,-3.045,5.81,
48245820,-0.669,0.142,0.688,-6.16,-0.665,7.49,
48245830,-0.702,0.119,0.66,-4.935,2.292,8.575,
48245840,-0.751,0.109,0.653,-4.865,0.21,8.26,
48245850,-0.754,0.135,0.669,-7.595,-2.38,5.652,
48245860,-0.735,0.145,0.688,-8.137,-5.372,2.94,
48245870,-0.691,0.156,0.668,-8.225,-6.562,-0.945,
48245880,-0.678,0.138,0.676,-8.61,-6.387,-7.157,
48245890,-0.768,0.088,0.684,-9.765,-4.707,-0.017,
48245900,-0.703,0.13,0.705,-8.207,-7.472,-0.315,
48245910,-0.655,0.173,0.72,-5.11,-5.862,-1.435,
48245920,-0.674,0.152,0.686,-3.605,-3.832,0.805,
48245930,-0.727,0.127,0.674,-4.06,-3.185,2.135,
48245940,-0.71,0.138,0.677,-4.165,-4.865,0.892,
48245950,-0.68,0.131,0.66,-0.805,-5.565,0.227,
48245960,-0.708,0.104,0.668,0.927,-6.755,0.787,
48245970,-0.716,0.115,0.698,-1.417,-7.752,0.122,
48245980,-0.679,0.156,0.745,-1.4,-8.295,-0.927,
48245990,-0.643,0.184,0.735,0.717,-5.18,0.122,
48246000,-0.698,0.167,0.7,2.73,-2.1,2.765,
48246010,-0.76,0.153,0.683,1.592,-0.84,2.94,
48246010,-0.763,0.145,0.691,0.437,-3.342,0.105,
48246030,-0.725,0.123,0.674,1.015,-5.617,-2.992,
48246030,-0.693,0.106,0.696,2.222,-8.82,-4.445,
48246050,-0.618,0.155,0.765,-0.455,-8.89,-4.112,
48246050,-0.591,0.172,0.733,0.227,-4.602,-0.595,
48246070,-0.706,0.144,0.688,4.427,1.155,4.322,
48246070,-0.799,0.165,0.682,2.1,0.875,3.605,
48246080,-0.772,0.202,0.712,-1.102,-4.707,-0.367,
48246090,-0.708,0.197,0.731,-2.222,-9.222,-2.8,
48246100,-0.689,0.161,0.724,-3.517,-10.185,-2.712,
48246110,-0.682,0.143,0.716,-5.162,-9.31,-2.152,
48246120,-0.662,0.148,0.717,-5.232,-8.365,-1.54,
48246130,-0.674,0.148,0.729,-4.69,-7.105,-0.052,
48246140,-0.688,0.153,0.724,-6.212,-5.95,0.997,
48246150,-0.701,0.15,0.713,-7.035,-5.372,1.47,
48246160,-0.716,0.148,0.705,-7.315,-6.3,1.015,
48246170,-0.717,0.151,0.701,-7.927,-7.49,0.052,
48246180,-0.716,0.153,0.672,-7.84,-8.977,-1.085,
48246190,-0.755,0.135,0.668,-6.51,-11.865,-2.187,
48246200,-0.749,0.148,0.698,-9.502,-15.575,-4.795,
48246210,-0.671,0.153,0.703,-10.237,-18.375,-7.297,
48246220,-0.659,0.118,0.723,-7.577,-19.547,-6.247,
48246230,-0.644,0.118,0.709,-7.647,-16.082,-5.162,
48246240,-0.667,0.135,0.711,-4.287,-14.122,-3.797,
48246250,-0.707,0.172,0.735,-2.712,-13.212,-3.097,
48246260,-0.685,0.178,0.749,-4.707,-13.912,-3.36,
48246270,-0.627,0.124,0.752,-6.755,-12.705,-2.432,
48246280,-0.589,0.062,0.733,-7.402,-8.697,-0.14,
48246290,-0.609,0.035,0.72,-4.497,-1.89,2.292,
48246300,-0.585,0.101,0.682,-1.715,2.992,-3.43,
48246310,-0.676,0.103,0.709,-1.452,8.82,-10.027,
48246320,-0.818,0.05,0.681,-2.572,7.997,0.612,
48246330,-0.753,0.104,0.665,0.227,0.962,0.612,
48246340,-0.69,0.143,0.674,2.922,-3.43,-3.832,
48246350,-0.646,0.136,0.729,1.277,-4.602,-3.237,
48246360,-0.575,0.103,0.759,-2.467,-1.522,-0.735,
48246370,-0.535,0.065,0.73,2.712,4.147,4.025,
48246380,-0.625,0.072,0.716,9.292,10.85,9.327,
48246390,-0.727,0.127,0.699,9.205,14.7,11.112,
48246400,-0.775,0.163,0.694,8.522,11.392,9.45,
48246410,-0.753,0.164,0.687,6.685,6.072,6.457,
48246420,-0.727,0.146,0.704,3.342,1.54,4.182,
48246420,-0.701,0.139,0.713,1.627,-0.77,2.8,
48246440,-0.7,0.15,0.73,2.922,-2.135,1.942,
48246440,-0.696,0.173,0.74,3.062,-2.975,1.54,
48246460,-0.671,0.177,0.733,2.327,-3.395,1.802,
48246460,-0.662,0.155,0.729,1.662,-2.887,3.482,
48246480,-0.677,0.127,0.72,0.297,-1.68,5.092,
48246480,-0.699,0.118,0.717,-0.105,-1.715,5.495,
48246500,-0.699,0.133,0.722,-0.577,-2.782,4.847,
48246500,-0.682,0.138,0.733,-2.59,-4.97,4.55,
48246510,-0.693,0.131,0.701,-5.477,-6.597,4.83,
48246520,-0.761,0.136,0.688,-5.302,-9.59,4.095,
48246530,-0.811,0.167,0.73,-7.507,-11.602,0.455,
48246540,-0.739,0.183,0.698,-8.89,-14.507,-4.935,
48246550,-0.691,0.133,0.695,-6.142,-17.657,-7.052,
48246560,-0.631,0.105,0.718,-7.647,-16.275,-7.227,
48246570,-0.541,0.109,0.737,-5.32,-9.082,-5.46,
48246580,-0.553,0.079,0.726,2.765,-0.7,-0.017,
48246590,-0.631,0.084,0.71,5.547,8.61,4.865,
48246600,-0.711,0.101,0.669,7.052,12.092,6.335,
48246610,-0.758,0.113,0.643,10.097,10.71,4.62,
48246620,-0.761,0.126,0.645,9.572,5.005,1.032,
48246630,-0.722,0.123,0.639,8.435,-0.455,-2.117,
48246640,-0.659,0.11,0.718,10.202,-3.535,-3.307,
48246650,-0.535,0.113,0.779,9.292,1.032,-1.522,
48246660,-0.494,0.108,0.741,13.755,7.752,4.777,
48246670,-0.66,0.113,0.751,17.535,15.802,12.862,
48246680,-0.806,0.173,0.71,13.177,19.722,13.195,
48246690,-0.83,0.215,0.702,12.407,12.88,8.942,
48246700,-0.76,0.227,0.706,9.205,3.377,4.742,
48246710,-0.721,0.188,0.691,4.27,-0.892,2.432,
48246720,-0.736,0.156,0.708,2.31,-2.957,1.505,
48246730,-0.718,0.177,0.726,2.8,-3.937,-0.472,
48246740,-0.738,0.161,0.739,5.215,-5.372,1.47,
48246750,-0.682,0.19,0.719,6.02,-7.227,5.11,
48246760,-0.578,0.237,0.722,4.725,-6.317,0.297,
48246760,-0.645,0.178,0.712,0.857,-1.33,3.395,
48246780,-0.733,0.128,0.707,-0.682,-0.175,6.422,
48246780,-0.751,0.148,0.699,0.28,-1.522,4.2,
48246800,-0.733,0.165,0.696,0.507,-4.987,1.61,
48246800,-0.685,0.162,0.708,-3.325,-7.822,0.402,
48246820,-0.629,0.152,0.725,-6.02,-7.717,1.26,
48246820,-0.615,0.154,0.733,-4.217,-4.742,4.305,
48246830,-0.645,0.182,0.744,-3.325,0.262,7.717,
48246840,-0.689,0.198,0.73,-4.077,3.955,9.87,
48246850,-0.743,0.192,0.706,-4.252,6.3,10.027,
48246860,-0.794,0.162,0.645,-4.095,5.46,7.42,
48246870,-0.851,0.124,0.644,-5.897,-1.855,3.325,
48246880,-0.75,0.166,0.686,-10.43,-9.887,-3.587,
48246890,-0.632,0.159,0.694,-8.487,-14.052,-6.3,
48246900,-0.617,0.122,0.709,-6.317,-12.477,-3.272,
48246910,-0.65,0.118,0.706,-6.072,-6.3,-1.015,
48246920,-0.698,0.115,0.682,-0.437,-3.867,-0.122,
48246930,-0.709,0.127,0.657,3.412,-3.797,-1.12,
48246940,-0.718,0.143,0.657,3.412,-5.88,-2.625,
48246950,-0.763,0.121,0.647,3.972,-7.875,-4.287,
48246960,-0.793,0.109,0.655,4.515,-11.917,-8.155,
48246970,-0.754,0.125,0.683,3.955,-16.38,-13.422,
48246980,-0.67,0.139,0.707,3.92,-21.682,-16.012,
48246990,-0.569,0.159,0.774,4.217,-21.14,-14.052,
48247000,-0.61,0.128,0.76,8.435,-13.387,-3.972,
48247010,-0.656,0.161,0.768,12.635,-9.59,2.712,
48247020,-0.646,0.246,0.758,8.54,-5.267,-3.132,
48247030,-0.668,0.228,0.74,4.55,-1.54,-3.832,
48247040,-0.712,0.17,0.717,2.782,-2.485,-2.047,
48247050,-0.717,0.155,0.718,0.682,-2.992,-2.712,
48247060,-0.717,0.162,0.717,1.26,-4.515,-4.917,
48247070,-0.715,0.165,0.716,1.82,-6.685,-6.177,
48247080,-0.69,0.157,0.709,0.945,-9.572,-6.825,
48247090,-0.675,0.141,0.714,0.945,-10.36,-4.042,
48247100,-0.626,0.151,0.716,0.612,-10.465,-4.357,
48247110,-0.62,0.161,0.752,-1.82,-7.805,-3.727,
48247120,-0.623,0.156,0.752,-5.967,-5.18,-1.015,
48247130,-0.631,0.141,0.735,-6.912,-3.762,2.257,
48247140,-0.619,0.152,0.738,-7.105,-2.135,4.847,
48247150,-0.621,0.165,0.742,-7.367,1.015,7.437,
48247160,-0.641,0.165,0.726,-6.615,4.48,10.22,
48247170,-0.661,0.174,0.706,-4.655,7.385,11.882,
48247170,-0.685,0.183,0.703,-3.902,8.452,12.897,
48247190,-0.709,0.192,0.735,-5.617,9.765,12.652,
48247190,-0.746,0.169,0.691,-5.705,14.717,10.85,
48247210,-0.876,0.115,0.654,-3.325,9.1,7.28,
48247210,-0.774,0.166,0.688,-8.05,-2.345,-6.527,
48247230,-0.666,0.161,0.739,-10.097,-8.645,-7.385,
48247230,-0.548,0.11,0.713,-5.722,-8.505,-1.61,
48247250,-0.592,0.067,0.683,-1.155,-0.717,3.08,
48247250,-0.666,0.092,0.669,1.417,5.197,5.845,
48247260,-0.707,0.137,0.68,5.215,5.25,5.355,
48247270,-0.732,0.157,0.669,5.95,3.482,3.605,
48247280,-0.727,0.148,0.657,3.675,0.927,-2.975,
48247290,-0.796,0.096,0.67,2.292,-2.222,-2.537,
48247300,-0.738,0.112,0.685,2.922,-8.452,-4.48,
48247310,-0.646,0.151,0.704,5.215,-9.59,-7.805,
48247320,-0.62,0.144,0.704,6.072,-6.965,-5.53,
48247330,-0.663,0.125,0.719,4.9,-4.777,-2.485,
48247340,-0.658,0.164,0.782,2.922,-2.887,-1.435,
48247350,-0.624,0.208,0.785,4.655,1.855,-0.7,
48247360,-0.666,0.206,0.756,6.072,5.145,3.447,
48247370,-0.745,0.19,0.731,1.47,6.282,5.197,
48247380,-0.741,0.209,0.742,-3.64,3.167,3.237,
48247390,-0.697,0.204,0.732,-4.095,-1.557,2.187,
48247400,-0.667,0.191,0.759,-5.722,-4.34,2.992,
48247410,-0.642,0.18,0.75,-9.905,-4.165,4.602,
48247420,-0.661,0.163,0.737,-9.24,-4.357,7.297,
48247430,-0.684,0.173,0.744,-9.012,-1.487,8.557,
48247440,-0.694,0.202,0.731,-10.78,2.432,8.19,
48247450,-0.777,0.174,0.675,-10.517,2.887,8.137,
48247460,-0.833,0.15,0.649,-11.497,-3.71,4.76,
48247470,-0.728,0.17,0.669,-14.63,-13.335,-1.12,
48247480,-0.616,0.141,0.71,-15.4,-17.447,-2.537,
48247490,-0.606,0.093,0.692,-13.702,-13.142,0.122,
48247500,-0.687,0.071,0.695,-10.185,-9.922,2.432,
48247510,-0.69,0.125,0.691,-8.89,-8.785,1.54,
48247510,-0.696,0.145,0.689,-6.37,-10.307,0.455,
48247530,-0.71,0.148,0.664,-8.242,-12.985,-1.015,
48247530,-0.701,0.143,0.695,-12.652,-14.787,-8.977,
48247550,-0.77,0.082,0.714,-13.912,-15.68,-5.425,
48247550,-0.66,0.108,0.745,-10.412,-19.74,-6.142,
48247570,-0.558,0.133,0.76,-7.56,-15.4,-6.737,
48247570,-0.54,0.108,0.734,-4.795,-6.405,-2.1,
48247580,-0.594,0.097,0.719,-1.225,1.89,3.342,
48247590,-0.673,0.12,0.712,2.1,7.787,6.142,
48247600,-0.733,0.15,0.701,3.832,8.435,5.897,
48247610,-0.755,0.147,0.685,2.047,4.445,4.007,
48247620,-0.731,0.115,0.679,-0.997,-0.665,0.91,
48247630,-0.669,0.089,0.703,-0.857,-2.887,-1.68,
48247640,-0.582,0.093,0.735,1.487,-1.33,-2.012,
48247650,-0.533,0.114,0.739,4.567,4.69,1.75,
48247660,-0.61,0.116,0.735,6.737,10.587,8.277,
48247670,-0.717,0.141,0.734,5.372,15.085,11.322,
48247680,-0.744,0.187,0.733,4.865,13.842,9.922,
48247690,-0.72,0.199,0.73,5.18,10.045,7.945,
48247700,-0.712,0.17,0.706,2.94,6.755,7.105,
48247710,-0.72,0.159,0.709,1.785,4.532,6.142,
48247720,-0.736,0.171,0.72,2.24,0.945,4.48,
48247730,-0.725,0.187,0.734,1.697,-1.977,2.572,
48247740,-0.683,0.184,0.731,-0.227,-4.392,1.715,
48247750,-0.656,0.155,0.725,-1.785,-4.392,2.607,
48247760,-0.658,0.138,0.73,-2.485,-3.167,3.937,
48247770,-0.676,0.145,0.732,-2.31,-1.015,4.882,
48247780,-0.683,0.157,0.721,-1.382,-0.49,5.18,
48247790,-0.683,0.155,0.701,-1.487,-0.192,5.495,
48247800,-0.648,0.183,0.659,-3.342,-0.122,0.735,
48247810,-0.709,0.14,0.671,-4.497,2.765,-9.362,
48247820,-0.865,0.07,0.7,-7.262,1.977,-4.147,
48247830,-0.738,0.123,0.707,-5.25,-3.622,-2.257,
48247840,-0.562,0.139,0.688,0.997,-4.235,-4.76,
48247850,-0.569,0.069,0.67,1.82,4.795,0.28,
48247860,-0.656,0.035,0.666,1.82,13.02,4.585,
48247870,-0.731,0.069,0.655,8.26,15.312,3.99,
48247880,-0.778,0.13,0.664,12.67,12.022,0.77,
48247890,-0.762,0.189,0.716,8.487,7.472,-3.062,
48247900,-0.689,0.189,0.723,4.917,5.635,-4.9,
48247910,-0.632,0.141,0.708,8.452,7.21,-3.57,
48247920,-0.629,0.105,0.663,12.355,11.847,-0.682,
48247920,-0.678,0.091,0.618,16.432,15.785,1.96,
48247940,-0.708,0.1,0.617,20.895,19.355,2.59,
48247940,-0.74,0.108,0.595,24.465,23.415,1.61,
48247960,-0.811,0.082,0.605,29.137,25.182,4.27,
48247960,-0.869,0.103,0.621,30.677,17.815,9.625,
48247980,-0.841,0.185,0.637,29.26,4.48,3.85,
48247980,-0.85,0.235,0.669,24.797,-8.295,-1.102,
48248000,-0.839,0.264,0.702,17.657,-19.705,-6.125,
48248000,-0.798,0.282,0.72,12.53,-26.512,-9.852,
48248010,-0.751,0.264,0.749,8.68,-28.42,-9.292,
48248020,-0.682,0.25,0.789,3.185,-30.852,-7.455,
48248030,-0.587,0.241,0.798,-0.752,-27.247,-4.2,
48248040,-0.52,0.215,0.784,0.612,-16.24,0.262,
48248050,-0.494,0.194,0.746,2.222,1.067,3.867,
48248060,-0.573,0.179,0.741,1.312,15.4,8.4,
48248070,-0.668,0.191,0.732,-1.592,21.087,10.797,
48248080,-0.694,0.218,0.729,-2.047,18.112,1.995,
48248090,-0.753,0.228,0.761,-5.407,12.215,-4.515,
48248100,-0.826,0.208,0.768,-13.352,0.262,-2.59,
48248110,-0.767,0.21,0.747,-16.8,-13.3,-5.827,
48248120,-0.679,0.226,0.766,-17.85,-20.685,-7.402,
48248130,-0.604,0.222,0.764,-20.93,-19.81,-4.602,
48248140,-0.567,0.203,0.738,-21.402,-12.495,-0.227,
48248150,-0.561,0.189,0.713,-19.075,-1.33,3.36,
48248160,-0.597,0.181,0.693,-18.217,9.24,4.637,
48248170,-0.672,0.159,0.664,-18.287,15.82,6.457,
48248180,-0.778,0.127,0.63,-16.537,14.507,8.697,
48248190,-0.785,0.151,0.626,-14.647,7.525,2.17,
48248200,-0.807,0.166,0.63,-14.892,-0.087,-5.145,
48248210,-0.862,0.128,0.607,-17.727,-8.19,-8.26,
48248220,-0.883,0.084,0.596,-18.27,-17.815,-11.165,
48248230,-0.87,0.075,0.604,-16.45,-27.86,-12.6,
48248240,-0.796,0.102,0.623,-14.962,-35.42,-15.61,
48248250,-0.704,0.121,0.65,-14,-39.48,-21.122,
48248260,-0.656,0.116,0.699,-13.93,-39.41,-21.63,
48248260,-0.627,0.1,0.709,-13.755,-35.875,-20.02,
48248280,-0.616,0.086,0.711,-10.255,-29.277,-17.587,
48248280,-0.607,0.096,0.73,-6.667,-22.242,-14.98,
48248300,-0.613,0.115,0.738,-4.707,-17.167,-11.847,
48248300,-0.657,0.124,0.74,-3.815,-15.137,-8.68,
48248320,-0.711,0.119,0.729,-5.197,-15.207,-7.455,
48248320,-0.728,0.112,0.724,-6.912,-17.605,-8.75,
48248330,-0.714,0.106,0.722,-8.05,-20.562,-10.657,
48248340,-0.687,0.103,0.713,-8.575,-23.24,-12.11,
48248350,-0.637,0.111,0.726,-8.26,-22.907,-12.197,
48248360,-0.647,0.073,0.763,-7.577,-19.372,-6.02,
48248370,-0.639,0.075,0.763,-7.7,-16.852,1.96,
48248380,-0.554,0.124,0.738,-4.007,-14.892,-1.557,
48248390,-0.508,0.151,0.73,0.035,-7.07,-0.735,
48248400,-0.527,0.152,0.749,0.21,0.332,4.375,
48248410,-0.589,0.154,0.808,-0.7,7.56,12.04,
48248420,-0.586,0.164,0.852,-0.227,17.955,17.027,
48248430,-0.655,0.088,0.775,1.977,29.785,20.86,
48248440,-0.717,0.074,0.713,2.345,31.43,20.93,
48248450,-0.729,0.129,0.714,0.857,28.262,17.727,
48248460,-0.733,0.157,0.702,1.575,22.645,15.312,
48248470,-0.758,0.129,0.656,2.047,16.065,13.702,
48248480,-0.767,0.119,0.633,-0.35,8.19,8.75,
48248490,-0.686,0.155,0.695,-4.305,2.642,-5.285,
48248500,-0.785,0.061,0.716,-6.93,3.115,-4.025,
48248510,-0.843,0.01,0.682,-5.617,-1.662,-0.122,
48248520,-0.798,0.059,0.637,-2.852,-10.955,-8.33,
48248530,-0.805,0.11,0.576,-0.472,-23.537,-15.785,
48248540,-0.718,0.236,0.725,-5.145,-36.47,-20.352,
48248550,-0.643,0.23,0.843,-15.365,-37.52,-19.39,
48248560,-0.611,0.091,0.812,-17.115,-31.22,-15.26,
48248570,-0.57,0.012,0.756,-12.442,-23.152,-11.952,
48248580,-0.538,0.044,0.751,-8.732,-14.507,-8.697,
48248590,-0.535,0.11,0.775,-6.527,-7.017,-3.535,
48248600,-0.587,0.131,0.768,-5.88,-2.065,2.8,
48248610,-0.668,0.128,0.765,-6.755,0.647,7.577,
48248620,-0.728,0.135,0.754,-8.487,0,8.487,
48248630,-0.724,0.16,0.772,-9.45,-2.677,6.842,
48248640,-0.665,0.174,0.807,-11.742,-2.222,5.67,
48248650,-0.661,0.092,0.744,-13.492,2.467,6.755,
48248660,-0.679,0.036,0.694,-12.67,4.48,7.14,
48248670,-0.644,0.107,0.743,-11.532,4.147,5.337,
48248670,-0.625,0.149,0.762,-9.292,5.897,6.387,
48248690,-0.671,0.094,0.704,-7.402,5.775,9.415,
48248690,-0.705,0.075,0.688,-9.38,4.392,9.537,
48248700,-0.712,0.072,0.677,-8.802,1.47,7.035,
48248710,-0.72,0.072,0.693,-5.005,-1.417,4.742,
48248720,-0.746,0.059,0.698,-5.582,-3.605,1.855,
48248730,-0.775,0.021,0.69,-8.19,-6.685,-2.362,
48248740,-0.745,0.007,0.662,-8.627,-12.915,-8.382,
48248750,-0.679,0.005,0.64,-6.93,-17.255,-13.037,
48248760,-0.676,-0.016,0.584,-5.337,-22.785,-14.822,
48248770,-0.626,0.103,0.767,-5.652,-30.695,-15.4,
48248780,-0.494,0.251,0.96,-10.885,-25.935,-12.075,
48248790,-0.57,0.1,0.86,-8.382,-8.767,-2.695,
48248800,-0.644,0.009,0.741,-2.765,0.945,2.345,
48248810,-0.633,0.105,0.732,-1.207,3.535,1.872,
48248820,-0.614,0.184,0.772,0.717,2.275,3.832,
48248830,-0.626,0.166,0.79,-0.962,3.552,8.295,
48248840,-0.651,0.113,0.784,-3.937,5.005,11.672,
48248850,-0.66,0.103,0.762,-2.922,6.545,12.845,
48248860,-0.65,0.129,0.758,0.035,7.7,13.387,
48248870,-0.646,0.166,0.806,-1.575,11.112,15.085,
48248880,-0.727,0.075,0.727,-5.232,14.49,16.397,
48248890,-0.781,0.005,0.67,-5.477,11.567,13.562,
48248900,-0.72,0.058,0.658,-4.987,3.377,7.087,
48248910,-0.654,0.089,0.681,-2.695,-1.33,4.305,
48248920,-0.66,0.049,0.672,-2.747,-1.96,4.987,
48248930,-0.703,0.012,0.695,-3.902,-2.117,4.2,
48248940,-0.709,0.022,0.727,-3.43,-3.727,1.295,
48248950,-0.721,0.003,0.699,-0.892,-5.302,-2.065,
48248960,-0.743,-0.016,0.619,0.98,-8.4,-6.265,
48248970,-0.805,-0.029,0.518,3.885,-17.78,-12.512,
48248980,-0.784,0.122,0.661,3.867,-34.65,-20.23,
48248990,-0.75,0.225,0.86,-4.97,-43.697,-24.692,
48249000,-0.666,0.201,0.949,-14.052,-42.927,-25.637,
48249010,-0.541,0.092,0.89,-15.96,-35.175,-22.837,
48249010,-0.495,0.005,0.808,-10.64,-21.175,-17.132,
48249030,-0.508,0.029,0.748,-5.792,-12.652,-11.13,
48249030,-0.544,0.129,0.769,-3.307,-7.682,-4.917,
48249050,-0.557,0.195,0.821,-2.765,-3.08,0.682,
48249050,-0.566,0.165,0.838,-3.045,2.047,7.332,
48249070,-0.542,0.104,0.867,-5.18,9.485,13.72,
48249070,-0.564,0.012,0.786,-5.705,18.007,19.215,
48249080,-0.645,0.016,0.734,-3.202,21.105,22.365,
48249090,-0.757,0.055,0.691,-2.73,21.805,21.367,
48249100,-0.775,0.09,0.669,-1.837,16.082,16.24,
48249110,-0.733,0.084,0.67,-1.452,8.697,10.92,
48249120,-0.693,0.038,0.657,-3.412,1.925,7.717,
48249130,-0.643,0.048,0.706,-3.762,-0.42,6.3,
48249140,-0.663,0.026,0.702,0.402,1.12,5.862,
48249150,-0.719,0.019,0.729,4.06,0.525,4.305,
48249160,-0.726,0.072,0.75,2.292,-1.802,0.087,
48249170,-0.72,0.058,0.709,3.78,-3.062,-3.552,
48249180,-0.701,0.041,0.669,5.32,-5.075,-6.912,
48249190,-0.684,0.046,0.687,4.427,-6.597,-9.485,
48249200,-0.712,0.031,0.674,4.27,-13.492,-11.305,
48249210,-0.66,0.112,0.764,3.587,-22.015,-13.16,
48249220,-0.583,0.163,0.837,1.907,-22.207,-12.635,
48249230,-0.615,0.081,0.825,3.167,-16.205,-8.137,
48249240,-0.663,0.029,0.787,1.207,-13.335,-5.827,
48249250,-0.659,0.074,0.767,-0.35,-11.585,-6.982,
48249260,-0.64,0.129,0.797,1.942,-10.272,-7.017,
48249270,-0.629,0.127,0.79,0,-7.892,-5.022,
48249280,-0.616,0.093,0.779,-4.357,-6.65,-2.922,
48249290,-0.581,0.081,0.791,-6.492,-5.25,-0.612,
48249300,-0.557,0.097,0.804,-4.672,-2.485,2.94,
48249310,-0.568,0.124,0.806,-2.485,2.397,7.805,
48249320,-0.612,0.141,0.815,-1.925,7.262,12.32,
48249330,-0.614,0.169,0.865,-3.185,14.857,15.365,
48249340,-0.66,0.095,0.771,-3.902,22.487,18.007,
48249350,-0.711,0.016,0.67,-2.345,22.435,18.585,
48249360,-0.691,0.054,0.67,-2.957,19.74,14.927,
48249370,-0.709,0.038,0.628,-0.542,17.027,12.057,
48249370,-0.725,0.028,0.65,3.255,10.937,9.292,
48249390,-0.7,0.062,0.671,3.395,5.845,5.232,
48249390,-0.743,0,0.669,6.982,2.607,2.257,
48249410,-0.751,0.005,0.699,7.052,-0.14,-2.555,
48249410,-0.727,0,0.679,6.125,-1.977,-8.155,
48249420,-0.759,-0.048,0.575,8.995,-7.087,-13.597,
48249430,-0.773,0.037,0.65,11.357,-22.435,-20.685,
48249440,-0.617,0.281,0.904,3.325,-34.352,-25.2,
48249450,-0.496,0.297,0.985,-1.785,-24.43,-19.075,
48249460,-0.599,0.043,0.81,2.87,-7.507,-7.052,
48249470,-0.71,-0.055,0.693,1.977,-0.21,-4.392,
48249480,-0.641,0.062,0.767,-1.872,-3.605,-8.942,
48249490,-0.541,0.159,0.812,0.472,-5.862,-7.56,
48249500,-0.548,0.159,0.809,2.467,-2.975,0.052,
48249510,-0.599,0.133,0.808,-2.362,1.452,6.335,
48249520,-0.605,0.134,0.835,-5.32,3.552,10.902,
48249530,-0.555,0.163,0.868,-4.217,11.462,15.277,
48249540,-0.654,0.079,0.783,-3.237,21.542,20.65,
48249550,-0.766,0.038,0.717,-5.11,23.922,21.052,
48249560,-0.753,0.094,0.696,-6.265,19.285,14.892,
48249570,-0.707,0.117,0.686,-3.5,14.175,11.077,
48249580,-0.723,0.075,0.656,-4.007,8.627,9.747,
48249590,-0.741,0.046,0.654,-8.242,3.307,7.105,
48249600,-0.715,0.043,0.659,-7.42,-1.767,3.045,
48249610,-0.694,0.035,0.671,-1.277,-4.007,0.122,
48249620,-0.692,0.033,0.695,0.455,-5.04,-1.995,
48249630,-0.707,0.008,0.709,-1.435,-6.177,-3.972,
48249640,-0.697,-0.014,0.673,-1.19,-8.627,-7.017,
48249650,-0.717,-0.049,0.571,2.905,-14.052,-10.307,
48249660,-0.699,0.041,0.638,5.162,-27.877,-14.21,
48249670,-0.615,0.19,0.796,-0.612,-37.38,-15.12,
48249680,-0.618,0.16,0.893,-4.217,-34.72,-10.15,
48249690,-0.658,0.043,0.86,-6.755,-23.975,-6.405,
48249700,-0.653,0.001,0.782,-4.34,-13.982,-7.437,
48249710,-0.593,0.075,0.732,2.205,-9.362,-8.312,
48249720,-0.573,0.166,0.723,5.915,-8.68,-4.725,
48249730,-0.613,0.207,0.79,2.712,-7.297,0.35,
48249740,-0.659,0.153,0.826,-2.695,-5.81,4.182,
48249750,-0.604,0.11,0.872,-2.765,-4.357,6.195,
48249760,-0.501,0.107,0.904,-1.82,3.587,9.38,
48249760,-0.515,0.043,0.789,-0.28,15.54,16.45,
48249780,-0.62,0.043,0.737,1.732,24.955,21.91,
48249780,-0.735,0.086,0.704,1.662,28.472,22.12,
48249800,-0.801,0.093,0.655,2.905,22.487,18.742,
48249800,-0.785,0.109,0.687,0.472,11.655,12.687,
48249820,-0.721,0.108,0.71,-4.865,4.9,7.28,
48249820,-0.694,0.058,0.696,-3.167,1.697,4.83,
48249830,-0.716,0.014,0.664,0.525,-0.822,2.712,
48249840,-0.716,0.056,0.721,0.507,-4.917,-1.085,
48249850,-0.696,0.066,0.745,-0.612,-6.562,-4.2,
48249860,-0.675,0.03,0.706,0.455,-7.017,-6.16,
48249870,-0.674,0.006,0.674,0.472,-8.102,-7.437,
48249880,-0.731,-0.008,0.587,-0.157,-18.217,-9.24,
48249890,-0.697,0.127,0.729,-0.542,-29.855,-12.582,
48249900,-0.624,0.22,0.893,-4.795,-29.925,-13.422,
48249910,-0.625,0.13,0.895,-6.335,-20.79,-9.432,
48249920,-0.632,0.035,0.798,-5.477,-12.04,-7.21,
48249930,-0.603,0.046,0.738,-3.08,-6.895,-7,
48249940,-0.575,0.12,0.735,-0.717,-5.722,-4.62,
48249950,-0.614,0.147,0.759,-0.682,-3.815,-0.49,
48249960,-0.68,0.118,0.774,-3.517,-3.447,2.17,
48249970,-0.69,0.091,0.774,-4.41,-3.71,1.837,
48249980,-0.659,0.108,0.794,-3.115,-3.377,0.332,
48249990,-0.612,0.144,0.86,-4.305,1.592,0.735,
48250000,-0.577,0.085,0.809,-5.757,9.012,3.692,
48250010,-0.565,0.029,0.719,-3.43,12.145,7.962,
48250020,-0.57,0.058,0.739,-3.01,14.14,11.515,
48250030,-0.609,0.075,0.725,-3.412,17.85,15.137,
48250040,-0.687,0.052,0.696,-0.717,17.815,17.552,
48250050,-0.749,0.049,0.688,-0.42,13.615,16.012,
48250060,-0.782,0.054,0.691,-1.645,3.797,11.2,
48250070,-0.738,0.072,0.734,-2.625,-5.845,5.81,
48250080,-0.662,0.046,0.74,-4.147,-9.8,2.187,
48250080,-0.637,0.001,0.724,-4.077,-8.697,1.347,
48250100,-0.685,-0.017,0.637,-2.152,-8.68,0.647,
48250100,-0.765,0.035,0.545,3.85,-16.677,-2.38,
48250120,-0.771,0.201,0.711,3.57,-26.075,-7.385,
48250120,-0.756,0.207,0.838,-4.392,-28.595,-10.657,
48250140,-0.677,0.092,0.856,-6.842,-27.685,-13.107,
48250140,-0.585,0.006,0.808,-5.407,-22.522,-14.017,
48250160,-0.531,0,0.747,-2.537,-15.12,-12.145,
48250160,-0.511,0.06,0.752,0.577,-8.522,-7.42,
48250170,-0.56,0.094,0.762,1.837,-1.977,-1.452,
48250180,-0.621,0.101,0.774,1.172,1.26,3.062,
48250190,-0.656,0.096,0.771,0.472,1.487,5.425,
48250200,-0.639,0.124,0.848,0.087,1.382,5.985,
48250210,-0.576,0.139,0.916,-3.675,6.405,7.682,
48250220,-0.539,0.075,0.834,-3.535,16.397,11.847,
48250230,-0.547,0.078,0.783,-0.262,25.427,16.782,
48250240,-0.628,0.106,0.729,0.332,29.61,21.525,
48250250,-0.737,0.108,0.7,1.435,27.37,22.942,
48250260,-0.785,0.089,0.656,0.682,14.98,19.442,
48250270,-0.745,0.082,0.662,-2.467,7.525,14.77,
48250280,-0.738,0.057,0.655,-3.01,-0.367,10.43,
48250290,-0.764,0.031,0.655,-0.42,-5.057,6.142,
48250300,-0.764,0.041,0.709,-0.35,-10.465,0.297,
48250310,-0.73,0.043,0.739,-3.85,-14.91,-5.425,
48250320,-0.672,0.02,0.715,-5.442,-17.727,-9.362,
48250330,-0.7,-0.029,0.55,-2.432,-22.61,-11.55,
48250340,-0.723,0.131,0.693,2.607,-34.685,-14.805,
48250350,-0.635,0.318,0.967,-5.057,-34.562,-16.607,
48250360,-0.597,0.171,0.947,-9.397,-22.172,-12.775,
48250370,-0.594,-0.032,0.749,-4.55,-16.1,-8.662,
48250380,-0.55,-0.003,0.748,-3.78,-12.022,-7.455,
48250390,-0.539,0.083,0.781,-4.445,-6.177,-4.322,
48250400,-0.581,0.109,0.789,-1.365,-1.47,1.05,
48250410,-0.642,0.083,0.776,-2.45,1.347,4.287,
48250420,-0.65,0.084,0.772,-5.092,1.802,4.742,
48250430,-0.624,0.116,0.785,-3.115,2.642,5.04,
48250440,-0.596,0.147,0.876,-3.412,6.842,7.052,
48250450,-0.583,0.103,0.854,-6.93,15.61,10.325,
48250460,-0.572,0.053,0.763,-3.272,21.787,13.755,
48250470,-0.582,0.069,0.725,0.595,24.535,17.15,
48250480,-0.639,0.093,0.688,0.455,25.165,20.492,
48250490,-0.733,0.066,0.668,0.805,22.067,21.892,
48250500,-0.792,0.041,0.644,-0.787,15.312,18.48,
48250510,-0.756,0.06,0.659,-0.437,6.51,11.777,
48250510,-0.704,0.065,0.643,2.222,-0.402,6.772,
48250530,-0.7,0.016,0.639,5.005,-5.442,4.305,
48250530,-0.674,0.018,0.694,2.835,-9.642,1.907,
48250550,-0.636,0.005,0.722,1.312,-14.315,0.927,
48250550,-0.634,-0.017,0.726,2.065,-15.697,1.435,
48250570,-0.74,-0.01,0.626,3.692,-19.985,-0.087,
48250570,-0.77,0.237,0.827,5.075,-30.012,-4.9,
48250580,-0.775,0.371,0.946,-2.485,-31.605,-8.365,
48250590,-0.734,0.226,0.908,-8.942,-26.81,-10.272,
48250600,-0.646,0.014,0.788,-13.842,-24.185,-11.865,
48250610,-0.527,0,0.76,-13.807,-19.81,-12.582,
48250620,-0.473,0.082,0.777,-7.927,-13.86,-8.54,
48250630,-0.534,0.142,0.813,-4.83,-4.445,-1.05,
48250640,-0.63,0.132,0.815,-7.77,3.237,3.692,
48250650,-0.617,0.115,0.849,-9.327,7.962,5.932,
48250660,-0.522,0.067,0.85,-9.66,15.242,8.172,
48250670,-0.496,0.026,0.754,-6.965,25.147,13.527,
48250680,-0.619,0.03,0.705,-1.942,28.787,19.022,
48250690,-0.786,0.065,0.676,-2.485,23.642,19.197,
48250700,-0.762,0.126,0.694,-2.152,13.475,14.14,
48250710,-0.684,0.099,0.688,-3.815,5.617,10.325,
48250720,-0.657,0.016,0.635,-6.212,1.557,9.817,
48250730,-0.666,0.027,0.667,-3.762,1.33,9.24,
48250740,-0.699,0.097,0.759,0.14,-0.98,7.717,
48250750,-0.704,0.114,0.808,-0.612,-3.132,5.915,
48250760,-0.681,0.07,0.778,-3.57,-4.235,3.78,
48250770,-0.685,0.03,0.762,-3.622,-6.23,2.222,
48250780,-0.659,0.054,0.69,-3.15,-12.005,0.42,
48250790,-0.7,0.034,0.567,-2.187,-13.895,-0.56,
48250800,-0.764,0.11,0.64,0.577,-22.015,-3.027,
48250810,-0.78,0.21,0.843,-5.302,-28.437,-7.91,
48250820,-0.684,0.131,0.925,-12.145,-24.237,-12.005,
48250830,-0.55,-0.005,0.817,-10.587,-18.515,-13.265,
48250830,-0.471,-0.003,0.75,-4.83,-10.832,-10.272,
48250850,-0.48,0.08,0.75,-1.82,-1.032,-3.01,
48250850,-0.613,0.12,0.758,-0.822,5.95,4.795,
48250870,-0.725,0.107,0.768,-1.487,6.457,6.895,
48250870,-0.718,0.097,0.759,-3.01,1.942,4.007,
48250890,-0.629,0.112,0.796,-3.5,-0.052,1.592,
48250890,-0.551,0.091,0.836,-6.405,5.617,3.377,
48250910,-0.525,0.044,0.795,-5.302,13.615,8.365,
48250910,-0.567,0.071,0.78,-1.032,19.022,13.475,
48250920,-0.625,0.11,0.767,0.735,23.257,17.535,
48250930,-0.709,0.102,0.745,0.052,19.635,19.092,
48250940,-0.724,0.056,0.621,-1.137,8.54,16.975,
48250950,-0.649,0.073,0.664,0.402,5.407,15.277,
48250960,-0.681,0.058,0.635,-0.332,0.577,15.295,
48250970,-0.728,0.064,0.698,0.227,-5.495,14.525,
48250980,-0.75,0.091,0.793,-1.75,-10.692,10.605,
48250990,-0.715,0.073,0.8,-3.412,-10.675,6.037,
48251000,-0.69,0.024,0.753,-2.432,-11.112,2.712,
48251010,-0.742,0.006,0.512,0.367,-19.215,-0.612,
48251020,-0.761,0.191,0.74,3.815,-28.612,-5.617,
48251030,-0.745,0.267,0.947,-9.835,-30.327,-9.082,
48251040,-0.633,0.112,0.896,-16.38,-24.885,-11.357,
48251050,-0.523,-0.041,0.762,-9.45,-18.095,-11.165,
48251060,-0.482,-0.006,0.733,-5.162,-9.712,-7.49,
48251070,-0.547,0.077,0.741,-3.377,0.385,-0.927,
48251080,-0.692,0.094,0.748,-0.875,4.567,3.307,
48251090,-0.765,0.1,0.749,-2.992,1.277,1.382,
48251100,-0.71,0.104,0.765,-6.422,-4.532,-3.587,
48251110,-0.569,0.101,0.825,-9.327,-5.88,-5.425,
48251120,-0.432,0.078,0.811,-8.785,1.487,-1.172,
48251130,-0.49,0.033,0.805,-2.327,12.32,8.155,
48251140,-0.596,0.061,0.772,0.945,21.087,15.295,
48251150,-0.696,0.118,0.797,1.715,17.762,17.167,
48251160,-0.735,0.109,0.756,-2.345,7.91,15.592,
48251170,-0.669,0.057,0.69,-5.897,3.22,12.897,
48251180,-0.645,0.069,0.726,-8.032,1.557,11.707,
48251190,-0.696,0.06,0.703,-7.997,0.192,11.585,
48251200,-0.631,0.131,0.686,-6.37,-3.5,0.542,
48251210,-0.646,0.126,0.741,-7.735,-0.927,-11.742,
48251220,-0.797,0.046,0.821,-12.827,-0.455,-1.732,
48251230,-0.765,0.055,0.801,-12.145,-9.415,4.165,
48251240,-0.645,0.082,0.742,-6.457,-15.645,-0.332,
48251250,-0.605,0.072,0.725,-6.685,-15.19,-0.665,
48251260,-0.662,0.016,0.56,-8.96,-14.105,1.382,
48251260,-0.767,0.059,0.643,-1.61,-19.827,-0.455,
48251280,-0.793,0.151,0.81,-4.567,-26.215,-6.335,
48251280,-0.724,0.085,0.811,-9.957,-26.18,-12.355,
48251300,-0.537,0.004,0.775,-8.12,-25.742,-15.277,
48251300,-0.436,-0.031,0.749,-4.742,-18.322,-11.287,
48251320,-0.432,-0.012,0.748,-1.05,-7,-3.08,
48251320,-0.499,0.026,0.772,4.497,3.657,5.355,
48251330,-0.609,0.05,0.765,7.927,10.535,11.165,
48251340,-0.689,0.082,0.751,8.312,11.725,12.582,
48251350,-0.724,0.115,0.756,7,9.73,10.815,
48251360,-0.711,0.134,0.803,3.64,6.615,7.63,
48251370,-0.66,0.096,0.805,0.157,5.635,5.04,
48251380,-0.593,0.085,0.795,0.122,4.462,4.34,
48251390,-0.582,0.084,0.776,1.96,6.755,6.492,
48251400,-0.572,0.139,0.811,2.415,9.677,9.87,
48251410,-0.61,0.132,0.79,2.24,13.195,14.017,
48251420,-0.65,0.123,0.776,1.977,13.09,16.607,
48251430,-0.687,0.118,0.759,0.052,10.885,17.097,
48251440,-0.72,0.106,0.73,-1.505,4.935,15.417,
48251450,-0.653,0.143,0.713,-3.185,-1.137,3.587,
48251460,-0.72,0.099,0.765,-4.917,-3.43,-3.535,
48251470,-0.784,0.043,0.759,-7.892,-7.997,0.14,
48251480,-0.721,0.05,0.753,-6.667,-14.227,-2.012,
48251490,-0.711,0.035,0.689,-4.532,-18.41,-1.767,
48251500,-0.763,0.027,0.58,-3.517,-31.062,-5.95,
48251510,-0.735,0.181,0.76,-6.685,-43.627,-11.602,
48251520,-0.638,0.203,0.94,-13.58,-41.457,-14.297,
48251530,-0.523,0.038,0.908,-16.572,-29.75,-12.6,
48251540,-0.479,-0.099,0.761,-13.387,-17.832,-8.05,
48251550,-0.439,-0.038,0.735,-7.735,-8.977,-3.115,
48251560,-0.485,0.043,0.759,-4.305,0.367,4.357,
48251570,-0.613,0.056,0.748,-4.13,7.77,11.165,
48251580,-0.696,0.06,0.74,-4.637,9.117,12.092,
48251580,-0.699,0.087,0.812,-6.3,7.927,9.187,
48251600,-0.611,0.097,0.835,-10.027,8.172,6.195,
48251600,-0.546,0.057,0.855,-9.205,9.712,7.052,
48251620,-0.546,0.036,0.802,-8.557,12.372,10.395,
48251620,-0.601,0.058,0.791,-8.225,17.045,13.23,
48251640,-0.684,0.076,0.734,-6.282,16.31,14.122,
48251640,-0.717,0.109,0.691,-4.375,8.75,10.955,
48251660,-0.675,0.154,0.716,-7.122,3.36,3.815,
48251660,-0.688,0.089,0.699,-8.855,1.365,4.305,
48251670,-0.723,0.059,0.73,-10.15,-1.102,5.022,
48251680,-0.695,0.079,0.762,-8.137,-6.16,1.365,
48251690,-0.655,0.105,0.792,-4.812,-9.415,-0.927,
48251700,-0.615,0.085,0.765,-5.407,-10.745,0.105,
48251710,-0.608,0.04,0.735,-6.16,-10.325,2.835,
48251720,-0.633,0.019,0.733,-5.057,-10.85,4.602,
48251730,-0.673,0.001,0.682,-3.5,-12.442,4.602,
48251740,-0.759,-0.017,0.589,0.332,-19.967,1.575,
48251750,-0.786,0.101,0.746,-0.997,-31.482,-5.407,
48251760,-0.734,0.117,0.837,-8.592,-34.965,-12.005,
48251770,-0.613,0.028,0.824,-9.957,-34.982,-15.68,
48251780,-0.544,-0.051,0.772,-8.54,-29.82,-15.435,
48251790,-0.508,-0.035,0.758,-6.65,-22.067,-12.915,
48251800,-0.519,0.012,0.797,-4.007,-15.137,-8.767,
48251810,-0.54,0.025,0.81,-3.885,-7.472,-4.41,
48251820,-0.571,0.014,0.797,-4.165,-1.767,-1.487,
48251830,-0.653,0.002,0.793,-3.412,3.15,5.95,
48251840,-0.655,0.07,0.773,-0.84,3.5,9.94,
48251850,-0.602,0.166,0.854,2.275,4.97,4.987,
48251860,-0.521,0.166,0.893,-1.855,9.957,3.85,
48251870,-0.435,0.091,0.829,-3.027,18.077,6.405,
48251880,-0.553,0,0.872,0.927,22.662,11.025,
48251890,-0.604,0.024,0.649,0.07,18.602,12.302,
48251900,-0.584,0.122,0.724,8.715,21.822,15.767,
48251910,-0.698,0.083,0.677,8.96,20.615,17.29,
48251920,-0.78,0.074,0.723,3.167,13.492,14.98,
48251930,-0.752,0.101,0.744,1.89,2.275,9.275,
48251940,-0.67,0.097,0.791,5.04,-6.86,4.2,
48251950,-0.601,0.076,0.827,0.49,-8.102,2.887,
48251960,-0.601,0.039,0.814,-1.96,-5.232,4.06,
48251970,-0.64,0.042,0.786,2.152,-1.47,4.602,
48251980,-0.689,0.08,0.779,3.482,-0.42,3.272,
48251990,-0.69,0.1,0.755,0.052,-3.062,0.787,
48252000,-0.68,0.061,0.722,-2.747,-6.947,-1.417,
48252010,-0.733,0.042,0.689,-3.587,-12.845,-4.042,
48252010,-0.742,0.117,0.827,-6.055,-19.04,-9.012,
48252030,-0.662,0.095,0.857,-10.885,-18.847,-13.737,
48252030,-0.543,0.037,0.807,-9.467,-17.815,-15.067,
48252050,-0.522,0.012,0.775,-7.052,-11.917,-11.952,
48252050,-0.551,0.034,0.751,-6.16,-3.867,-7.927,
48252070,-0.592,0.042,0.72,-2.432,2.012,-4.9,
48252070,-0.584,0.032,0.717,0.682,8.19,-3.395,
48252080,-0.568,0.027,0.753,1.925,14.612,-1.82,
48252090,-0.59,0.017,0.751,4.777,20.615,0.63,
48252100,-0.604,0.033,0.755,9.082,27.16,1.907,
48252110,-0.62,0.05,0.751,11.252,34.247,3.132,
48252120,-0.61,0.058,0.734,13.177,35.822,3.99,
48252130,-0.528,0.087,0.714,15.365,38.115,6.895,
48252140,-0.527,0.072,0.716,18.777,43.995,13.597,
48252150,-0.625,0.056,0.765,18.165,52.867,20.44,
48252160,-0.698,0.09,0.818,14.997,60.637,22.225,
48252170,-0.749,0.126,0.837,15.715,63.07,20.475,
48252180,-0.782,0.155,0.856,15.802,57.4,17.29,
48252190,-0.792,0.174,0.792,9.415,45.517,13.615,
48252200,-0.753,0.183,0.696,2.905,33.075,6.055,
48252210,-0.695,0.172,0.679,0.105,25.9,-9.607,
48252220,-0.786,0.11,0.674,-3.675,24.062,-11.06,
48252230,-0.845,0.102,0.648,-7.455,18.795,-10.482,
48252240,-0.835,0.115,0.684,-5.81,13.072,-11.795,
48252250,-0.833,0.127,0.695,-6.002,2.52,-16.66,
48252260,-0.832,0.114,0.699,-11.235,-7.98,-21.07,
48252270,-0.841,0.073,0.671,-16.117,-17.78,-21.752,
48252280,-0.788,0.051,0.677,-18.462,-25.025,-24.762,
48252290,-0.735,0.053,0.696,-20.002,-26.985,-26.81,
48252300,-0.697,0.053,0.72,-20.772,-26.18,-26.582,
48252310,-0.669,0.044,0.727,-20.405,-23.187,-24.517,
48252320,-0.641,0.037,0.74,-19.67,-20.107,-23.012,
48252330,-0.616,0.041,0.749,-19.04,-17.045,-20.877,
48252330,-0.591,0.049,0.762,-18.2,-11.725,-15.627,
48252350,-0.616,0.036,0.777,-18.917,-3.867,-9.467,
48252350,-0.692,0.019,0.766,-19.372,0.717,-4.305,
48252370,-0.699,0.046,0.735,-17.15,3.605,-2.8,
48252370,-0.743,0.049,0.727,-16.922,4.882,-3.43,
48252390,-0.77,0.066,0.723,-20.212,1.907,-3.587,
48252390,-0.775,0.053,0.671,-22.417,-3.92,-4.077,
48252410,-0.767,0.05,0.637,-24.132,-10.99,-4.392,
48252410,-0.743,0.056,0.628,-25.392,-16.45,-3.535,
48252420,-0.707,0.062,0.624,-25.182,-19.81,-2.257,
48252430,-0.692,0.051,0.631,-25.06,-20.335,0.402,
48252440,-0.712,0.036,0.665,-24.5,-19.792,3.71,
48252450,-0.71,0.028,0.662,-24.36,-19.617,6.457,
48252460,-0.686,0.036,0.672,-22.592,-19.18,6.737,
48252470,-0.686,0.028,0.679,-20.282,-17.727,9.572,
48252480,-0.691,0.021,0.683,-19.512,-17.185,10.78,
48252490,-0.685,0.03,0.689,-19.547,-15.995,12.46,
48252500,-0.673,0.031,0.698,-19.302,-16.607,13.615,
48252510,-0.674,0.018,0.715,-18.935,-16.8,14.682,
48252520,-0.682,0.01,0.724,-19.197,-18.112,15.137,
48252530,-0.684,0.015,0.725,-19.985,-20.16,14.315,
48252540,-0.662,0.022,0.734,-18.83,-23.362,12.39,
48252550,-0.646,0.02,0.742,-17.745,-25.567,10.955,
48252560,-0.648,0.026,0.748,-18.252,-28.805,9.415,
48252570,-0.656,0.029,0.764,-19.39,-31.255,8.155,
48252580,-0.639,0.036,0.775,-19.827,-33.757,6.475,
48252590,-0.593,0.054,0.803,-19.407,-34.37,6.247,
48252600,-0.548,0.059,0.822,-18.252,-32.917,7.997,
48252610,-0.526,0.066,0.82,-16.292,-28.245,11.182,
48252620,-0.539,0.055,0.819,-14.122,-23.275,14.98,
48252630,-0.557,0.047,0.807,-12.11,-18.41,18.375,
48252640,-0.558,0.035,0.8,-9.345,-15.907,20.79,
48252650,-0.558,0.023,0.791,-7.455,-13.667,22.61,
48252660,-0.442,0.046,0.784,-6.685,-11.427,10.447,
48252670,-0.515,-0.017,0.781,0.385,-2.205,5.162,
48252680,-0.631,-0.04,0.781,2.257,4.042,9.712,
48252690,-0.704,-0.022,0.777,1.557,2.485,13.807,
48252700,-0.69,-0.011,0.789,1.855,-3.15,11.655,
48252710,-0.643,-0.02,0.777,1.12,-6.51,9.537,
48252720,-0.609,-0.029,0.768,0.192,-5.95,8.575,
48252730,-0.609,-0.051,0.771,-0.35,-1.207,6.002,
48252740,-0.669,-0.069,0.752,-0.175,5.11,8.26,
48252750,-0.693,-0.059,0.751,-1.452,7.35,7,
48252760,-0.729,-0.072,0.741,-2.555,8.015,7.402,
48252760,-0.746,-0.071,0.747,-4.532,5.285,7,
48252770,-0.74,-0.065,0.737,-7.56,1.627,8.295,
48252780,-0.712,-0.057,0.723,-11.007,-2.17,7.437,
48252790,-0.665,-0.05,0.725,-13.142,-4.515,4.147,
48252800,-0.633,-0.053,0.728,-13.282,-3.902,3.185,
48252810,-0.63,-0.045,0.758,-14.087,-1.452,5.215,
48252820,-0.612,-0.02,0.762,-16.065,0.752,10.027,
48252830,-0.609,-0.035,0.724,-16.222,4.27,16.975,
48252840,-0.571,-0.051,0.676,-14.98,9.975,21.367,
48252850,-0.548,-0.076,0.651,-12.215,17.657,24.972,
48252860,-0.596,-0.09,0.666,-11.847,23.432,26.425,
48252870,-0.636,-0.074,0.695,-14,23.817,25.2,
48252880,-0.652,-0.057,0.718,-15.347,17.482,22.855,
48252890,-0.647,-0.07,0.75,-15.015,7.07,21.262,
48252900,-0.617,-0.05,0.819,-17.587,-3.937,20.597,
48252910,-0.626,-0.06,0.868,-20.317,-10.272,20.51,
48252920,-0.679,-0.078,0.941,-22.12,-10.762,18.305,
48252930,-0.737,-0.099,0.96,-22.347,-9.59,13.02,
48252940,-0.715,-0.085,0.929,-16.887,-9.537,7.315,
48252950,-0.638,-0.062,0.861,-6.615,-9.345,4.112,
48252960,-0.582,-0.032,0.792,0.98,-8.89,4.55,
48252970,-0.572,-0.013,0.727,1.347,-8.102,7.07,
48252980,-0.56,0.007,0.699,-0.105,-8.015,10.115,
48252990,-0.573,-0.002,0.679,-0.402,-6.177,12.652,
48253000,-0.62,0.001,0.706,-2.922,-3.482,13.142,
48253010,-0.702,-0.016,0.769,-8.662,-3.762,10.377,
48253020,-0.755,-0.039,0.8,-8.61,-7.525,5.145,
48253030,-0.78,-0.065,0.811,-5.215,-13.335,-0.682,
48253040,-0.731,-0.044,0.767,-0.665,-20.685,-6.545,
48253050,-0.599,-0.008,0.752,5.127,-19.285,-9.992,
48253060,-0.479,0.02,0.785,7.42,-11.917,-7.822,
48253070,-0.458,-0.003,0.799,5.197,0.052,-0.035,
48253080,-0.532,-0.07,0.772,3.762,10.675,8.627,
48253080,-0.595,-0.091,0.759,5.232,15.225,14.315,
48253100,-0.608,-0.078,0.751,8.225,14.91,17.482,
48253100,-0.613,-0.066,0.746,10.5,14.122,20.055,
48253120,-0.644,-0.062,0.744,10.517,13.842,21.805,
48253120,-0.692,-0.059,0.741,8.33,11.865,22.05,
48253140,-0.713,-0.046,0.739,6.72,7.49,20.632,
48253140,-0.711,-0.034,0.736,7.192,2.695,18.795,
48253160,-0.695,-0.017,0.733,7.892,0.245,16.52,
48253160,-0.665,0.008,0.759,7.717,-0.35,14.805,
48253170,-0.654,0.023,0.774,6.895,-0.017,13.93,
48253180,-0.654,0.029,0.768,7.087,0.017,13.51,
48253190,-0.655,0.042,0.763,7.945,-0.385,13.527,
48253200,-0.678,0.054,0.751,7.157,-2.275,12.985,
48253210,-0.716,0.059,0.747,4.55,-5.145,10.99,
48253220,-0.757,0.055,0.745,1.61,-10.815,6.842,
48253230,-0.781,0.046,0.744,-0.612,-18.952,1.032,
48253240,-0.758,0.04,0.752,-1.68,-27.195,-5.705,
48253250,-0.7,0.036,0.763,-2.047,-31.99,-11.025,
48253260,-0.621,0.041,0.767,-1.295,-33.897,-13.527,
48253270,-0.535,0.059,0.793,-0.717,-30.292,-12.18,
48253280,-0.519,0.041,0.794,-1.137,-23.852,-8.102,
48253290,-0.558,0.018,0.791,-2.205,-16.537,-3.412,
48253300,-0.574,0.023,0.803,-1.89,-10.955,0.07,
48253310,-0.576,0.024,0.808,0.315,-5.32,2.905,
48253320,-0.593,0.023,0.801,1.837,-0.892,5.302,
48253330,-0.622,0.028,0.781,1.4,1.75,7.105,
48253340,-0.66,0.028,0.77,0.087,1.4,7.262,
48253350,-0.671,0.031,0.764,-1.505,-0.28,5.792,
48253360,-0.655,0.035,0.772,-1.907,-2.94,3.762,
48253370,-0.628,0.045,0.794,-2.047,-3.5,2.485,
48253380,-0.614,0.066,0.826,-2.677,-1.942,2.31,
48253390,-0.654,0.054,0.827,-4.095,-2.222,2.012,
48253400,-0.634,0.043,0.834,-5.092,-0.752,1.417,
48253410,-0.61,0.055,0.814,-6.107,1.995,0.962,
48253420,-0.607,0.046,0.777,-5.11,3.605,1.557,
48253430,-0.619,0.05,0.768,-4.462,3.36,2.905,
48253440,-0.649,0.043,0.727,-6.212,1.365,3.097,
48253440,-0.675,0.007,0.698,-6.387,-1.137,1.82,
48253460,-0.677,0,0.688,-4.847,-4.777,-0.122,
48253460,-0.695,-0.01,0.713,-2.87,-9.135,-2.397,
48253480,-0.698,-0.033,0.752,-4.095,-12.915,-5.355,
48253480,-0.674,-0.058,0.767,-6.825,-15.347,-8.277,
48253500,-0.678,-0.109,0.689,-5.057,-20.3,-10.272,
48253500,-0.611,0.003,0.739,0.665,-27.23,-10.255,
48253510,-0.538,0.117,0.857,3.412,-26.512,-8.505,
48253520,-0.553,0.076,0.873,-1.715,-20.51,-6.002,
48253530,-0.606,-0.005,0.835,-10.325,-13.982,-3.92,
48253540,-0.635,-0.042,0.799,-10.727,-8.925,-3.272,
48253550,-0.617,-0.024,0.776,-3.465,-7.91,-2.607,
48253560,-0.582,0.033,0.782,1.487,-8.54,-1.627,
48253570,-0.577,0.066,0.792,-0.91,-6.947,-1.067,
48253580,-0.591,0.059,0.793,-5.215,-4.637,-0.875,
48253590,-0.599,0.05,0.81,-6.02,-2.257,-0.367,
48253600,-0.566,0.08,0.87,-4.392,0.035,0.577,
48253610,-0.538,0.05,0.865,-4.235,5.757,2.292,
48253620,-0.527,0.024,0.83,-4.882,11.182,5.67,
48253630,-0.592,0.005,0.783,-4.62,14.507,9.415,
48253640,-0.672,-0.001,0.765,-4.637,11.76,10.605,
48253650,-0.673,0.036,0.748,-5.04,6.475,8.522,
48253660,-0.667,0.012,0.718,-3.885,1.697,5.6,
48253670,-0.684,-0.034,0.679,-3.465,-2.59,3.097,
48253680,-0.694,-0.041,0.706,-2.957,-9.205,0.052,
48253690,-0.591,0.019,0.735,-1.067,-12.425,-1.662,
48253700,-0.619,-0.063,0.756,1.837,-4.917,-1.557,
48253710,-0.74,-0.134,0.73,-1.067,-4.427,-2.135,
48253720,-0.763,-0.141,0.637,-0.175,-15.12,-6.422,
48253730,-0.671,-0.003,0.712,8.032,-29.102,-10.447,
48253740,-0.565,0.102,0.828,11.287,-33.652,-12.145,
48253750,-0.503,0.099,0.933,3.675,-26.827,-10.552,
48253760,-0.553,-0.009,0.908,-7.525,-15.312,-7.227,
48253770,-0.639,-0.085,0.831,-7.472,-4.83,-5.477,
48253780,-0.619,-0.035,0.782,2.257,-4.9,-4.742,
48253790,-0.547,0.067,0.789,9.817,-6.702,-3.22,
48253800,-0.525,0.131,0.828,6.475,-4.305,-0.735,
48253810,-0.567,0.152,0.901,-3.692,2.24,7.122,
48253820,-0.586,0.096,0.909,-12.022,6.842,15.47,
48253830,-0.545,0.026,0.888,-12.285,10.885,20.457,
48253830,-0.544,0.032,0.846,-9.135,14.14,22.522,
48253850,-0.604,0.039,0.799,-7.07,17.097,22.995,
48253850,-0.658,0.047,0.757,-7.105,15.61,21.245,
48253870,-0.656,0.032,0.707,-7.332,10.465,16.187,
48253870,-0.587,0.051,0.704,-7.297,5.197,9.555,
48253890,-0.561,0.032,0.684,-5.477,4.585,5.372,
48253890,-0.585,-0.006,0.681,-2.117,5.057,4.06,
48253910,-0.596,0.016,0.758,-0.542,4.917,4.567,
48253910,-0.604,-0.017,0.792,-0.805,4.76,5.915,
48253920,-0.657,-0.092,0.804,-2.957,6.86,6.107,
48253930,-0.71,-0.138,0.718,-4.375,4.042,5.005,
48253940,-0.694,-0.106,0.68,4.2,-2.87,4.217,
48253950,-0.661,0.023,0.744,12.337,-9.135,3.85,
48253960,-0.64,0.076,0.807,9.275,-8.96,1.417,
48253970,-0.632,0.034,0.864,-1.995,-8.312,-0.805,
48253980,-0.621,-0.024,0.839,-8.872,-6.562,-2.432,
48253990,-0.58,-0.054,0.805,-2.292,-3.727,-0.927,
48254000,-0.547,-0.009,0.792,7,-0.577,3.097,
48254010,-0.578,0.047,0.778,7.84,3.36,6.737,
48254020,-0.622,0.058,0.776,2.415,4.287,7.927,
48254030,-0.653,0.036,0.763,-2.082,4.06,7.262,
48254040,-0.655,0.028,0.754,-0.647,1.662,5.95,
48254050,-0.643,0.055,0.808,2.397,-0.42,4.795,
48254060,-0.614,0.06,0.826,0.28,-1.855,3.395,
48254070,-0.57,0.047,0.845,-4.007,0.227,3.517,
48254080,-0.584,0.04,0.86,-6.37,4.217,5.32,
48254090,-0.613,0.033,0.852,-6.177,9.765,7.157,
48254100,-0.649,0.012,0.782,-4.48,11.287,7.28,
48254110,-0.661,0.023,0.742,-3.85,9.047,6.51,
48254120,-0.659,0.039,0.711,-5.285,5.372,4.795,
48254130,-0.674,0.023,0.688,-6.037,0.927,2.712,
48254140,-0.654,0.023,0.701,-5.565,-2.747,0.7,
48254150,-0.632,-0.001,0.737,-3.92,-4.182,-0.455,
48254160,-0.622,-0.033,0.751,-3.36,-4.935,-0.087,
48254170,-0.638,-0.064,0.738,-2.695,-3.815,0.857,
48254170,-0.686,-0.094,0.71,-0.192,-5.442,1.382,
48254190,-0.737,-0.132,0.6,3.272,-14.437,-0.157,
48254190,-0.645,0.055,0.769,5.932,-28.07,-2.695,
48254210,-0.499,0.201,0.895,4.392,-26.897,-2.94,
48254210,-0.59,0.049,0.917,-0.052,-14.717,-0.735,
48254230,-0.685,-0.013,0.86,-10.36,-4.935,-0.157,
48254230,-0.647,0.01,0.812,-6.405,-4.235,-1.907,
48254250,-0.555,0.061,0.781,5.775,-5.95,-1.05,
48254250,-0.544,0.132,0.803,7.192,-2.572,0.612,
48254260,-0.604,0.146,0.823,-2.397,1.382,1.382,
48254270,-0.627,0.127,0.869,-9.345,3.255,0.402,
48254280,-0.591,0.094,0.899,-9.415,6.72,-0.437,
48254290,-0.579,0.026,0.866,-7.892,11.287,0.455,
48254300,-0.6,0.027,0.796,-8.26,12.582,2.677,
48254310,-0.652,0.02,0.731,-6.807,11.445,3.605,
48254320,-0.678,-0.011,0.68,-4.847,5.005,2.432,
48254330,-0.643,0.002,0.637,-4.602,-5.215,0.402,
48254340,-0.559,0,0.633,-0.595,-5.232,1.33,
48254350,-0.591,-0.053,0.685,2.152,-1.015,3.062,
48254360,-0.635,-0.097,0.752,-3.237,0.612,5.32,
48254370,-0.668,-0.143,0.772,-6.317,0.542,5.6,
48254380,-0.686,-0.178,0.745,-1.015,-1.977,6.125,
48254390,-0.682,-0.18,0.631,8.137,-7.035,6.79,
48254400,-0.635,-0.04,0.703,16.345,-17.342,7.332,
48254410,-0.558,0.146,0.839,13.457,-18.042,8.33,
48254420,-0.618,0.056,0.855,5.95,-11.147,8.295,
48254430,-0.698,-0.018,0.849,-3.185,-5.057,7.805,
48254440,-0.711,-0.006,0.818,-1.785,-3.867,4.97,
48254450,-0.657,0.024,0.777,8.767,-6.912,2.695,
48254460,-0.589,0.117,0.792,13.422,-8.067,1.085,
48254470,-0.581,0.167,0.811,7.997,-4.952,0.402,
48254480,-0.595,0.179,0.877,0.157,-2.17,-0.14,
48254490,-0.58,0.143,0.905,-5.18,2.87,-0.472,
48254500,-0.561,0.052,0.864,-4.567,9.537,0.542,
48254510,-0.563,0.066,0.839,-1.995,16.362,3.5,
48254520,-0.621,0.046,0.73,0.945,18.322,5.775,
48254530,-0.658,0.05,0.691,3.097,14.682,6.212,
48254540,-0.663,0.04,0.661,1.557,9.52,4.287,
48254550,-0.693,-0.028,0.639,-1.627,2.607,2.152,
48254560,-0.68,-0.037,0.68,-3.64,-3.535,0.017,
48254570,-0.649,-0.049,0.747,-1.785,-6.737,-1.102,
48254580,-0.649,-0.081,0.798,-0.14,-9.135,-0.945,
48254580,-0.639,-0.083,0.788,-1.452,-11.742,-0.332,
48254600,-0.61,-0.067,0.761,0.77,-13.667,1.032,
48254600,-0.628,-0.084,0.628,6.842,-18.672,2.695,
48254620,-0.567,0.087,0.741,12.355,-26.95,4.9,
48254620,-0.484,0.243,0.861,11.27,-23.922,7.21,
48254640,-0.589,0.155,0.969,3.535,-10.22,10.132,
48254640,-0.779,0.021,0.895,-10.605,3.675,8.365,
48254660,-0.824,-0.03,0.789,-8.137,0.77,1.767,
48254660,-0.653,0.053,0.751,6.3,-10.272,-4.847,
48254670,-0.526,0.158,0.796,10.535,-12.092,-6.247,
48254680,-0.523,0.164,0.811,-0.087,-7.035,-4.83,
48254690,-0.571,0.107,0.805,-9.642,-0.437,-3.202,
48254700,-0.566,0.086,0.872,-8.837,4.182,-1.102,
48254710,-0.536,0.085,0.943,-7.087,12.565,1.802,
48254720,-0.563,0.026,0.916,-10.867,19.495,4.83,
48254730,-0.618,0.022,0.863,-16.38,21.682,7.472,
48254740,-0.697,0.003,0.757,-16.24,17.045,7.42,
48254750,-0.741,0.013,0.729,-13.125,6.317,4.777,
48254760,-0.687,0.094,0.701,-14.91,-8.067,-0.315,
48254770,-0.596,0.088,0.663,-14.752,-12.372,-2.065,
48254780,-0.57,0.04,0.65,-14.612,-12.32,-2.187,
48254790,-0.588,0.022,0.667,-16.047,-9.45,0.28,
48254800,-0.612,0.017,0.744,-14.017,-7.857,2.24,
48254810,-0.653,-0.035,0.782,-11.707,-5.477,2.362,
48254820,-0.685,-0.1,0.723,-9.817,-7.245,0.962,
48254830,-0.689,-0.161,0.542,-2.537,-12.827,0.035,
48254840,-0.654,-0.079,0.573,10.167,-22.89,0.262,
48254850,-0.602,0.091,0.785,10.552,-26.792,0.98,
48254860,-0.628,0.093,0.972,-2.625,-21.367,-0.647,
48254870,-0.699,-0.048,0.971,-17.447,-15.312,-3.622,
48254880,-0.697,-0.169,0.853,-16.205,-11.812,-6.562,
48254890,-0.576,-0.13,0.762,1.085,-14.962,-5.827,
48254900,-0.471,0.009,0.755,14.052,-15.102,-1.032,
48254910,-0.488,0.064,0.762,9.082,-8.995,4.427,
48254920,-0.58,0.029,0.764,-3.972,-2.467,7.577,
48254920,-0.647,-0.018,0.779,-7.98,-0.682,8.872,
48254940,-0.645,0.02,0.82,-1.015,-1.54,8.662,
48254940,-0.617,0.121,0.92,4.585,0.175,7.595,
48254960,-0.581,0.112,0.878,1.977,4.515,5.67,
48254960,-0.54,0.072,0.834,-1.925,8.732,5.6,
48254980,-0.557,0.05,0.795,-2.94,12.985,7.787,
48254980,-0.584,0.062,0.784,-0.28,14.507,10.15,
48255000,-0.618,0.103,0.776,1.172,14.437,11.13,
48255000,-0.673,0.06,0.724,0.367,11.147,9.467,
48255010,-0.686,0.07,0.738,-3.307,5.845,6.72,
48255020,-0.671,0.049,0.743,-5.442,0.525,2.835,
48255030,-0.634,0.004,0.738,-3.972,-4.077,0.315,
48255040,-0.586,-0.001,0.784,-2.257,-5.477,-0.017,
48255050,-0.587,-0.04,0.789,-2.922,-4.34,1.75,
48255060,-0.613,-0.08,0.76,-3.307,-3.167,3.675,
48255070,-0.64,-0.099,0.706,-0.735,-3.92,5.285,
48255080,-0.69,-0.143,0.54,6.317,-11.847,5.845,
48255090,-0.653,0.021,0.69,12.565,-24.255,5.512,
48255100,-0.608,0.118,0.863,8.207,-27.44,3.657,
48255110,-0.66,0.041,0.939,-1.382,-22.26,1.435,
48255120,-0.687,-0.027,0.916,-7.402,-16.012,-1.26,
48255130,-0.68,-0.063,0.823,-0.945,-10.71,-3.78,
48255140,-0.588,-0.007,0.767,9.975,-11.917,-4.567,
48255150,-0.511,0.075,0.781,11.235,-10.867,-2.642,
48255160,-0.518,0.098,0.794,2.607,-5.88,-0.385,
48255170,-0.576,0.066,0.809,-4.287,0.56,1.872,
48255180,-0.61,0.074,0.87,-3.815,4.55,2.87,
48255190,-0.589,0.114,0.914,-1.557,10.045,2.59,
48255200,-0.538,0.086,0.869,-0.665,15.47,2.52,
48255210,-0.548,0.084,0.852,-3.29,19.722,4.952,
48255220,-0.601,0.068,0.784,-6.37,21.017,6.65,
48255230,-0.612,0.112,0.822,-6.597,20.72,7.28,
48255240,-0.62,0.085,0.766,-5.985,18.672,6.037,
48255250,-0.633,0.056,0.743,-6.51,16.03,5.74,
48255260,-0.642,0.061,0.739,-8.977,12.757,4.497,
48255270,-0.66,0.072,0.76,-10.132,10.08,3.657,
48255280,-0.696,0.035,0.728,-8.557,6.002,1.05,
48255290,-0.717,0.006,0.712,-6.615,-3.08,-1.995,
48255300,-0.599,0.046,0.72,-4.602,-11.55,-4.147,
48255310,-0.544,-0.006,0.738,-1.96,-9.292,-3.605,
48255320,-0.561,-0.085,0.725,-4.077,-8.365,0.262,
48255330,-0.593,-0.132,0.66,-5.197,-8.102,4.322,
48255330,-0.621,-0.141,0.589,3.867,-13.335,7.577,
48255350,-0.635,-0.013,0.706,12.757,-18.497,10.815,
48255350,-0.64,0.059,0.841,10.99,-19.127,10.29,
48255370,-0.656,0.039,0.986,-0.577,-14.56,8.295,
48255370,-0.724,-0.084,0.9,-10.465,-6.702,5.022,
48255390,-0.735,-0.136,0.762,-3.15,-7.892,2.73,
48255390,-0.612,-0.009,0.729,11.147,-14.805,1.855,
48255410,-0.512,0.096,0.773,13.545,-15.452,3.08,
48255410,-0.522,0.082,0.791,1.4,-9.555,5.32,
48255420,-0.58,0.015,0.793,-8.54,-3.027,7.577,
48255430,-0.619,-0.021,0.78,-4.672,0.752,9.677,
48255440,-0.605,0.052,0.837,5.372,3.115,11.27,
48255450,-0.578,0.115,0.886,5.95,7.875,11.532,
48255460,-0.55,0.076,0.871,-0.175,13.702,11.62,
48255470,-0.569,0.062,0.848,-5.6,17.045,13.737,
48255480,-0.596,0.053,0.812,-4.112,17.885,15.732,
48255490,-0.643,0.075,0.801,-1.435,16.362,16.607,
48255500,-0.634,0.111,0.751,-1.785,13.842,14.577,
48255510,-0.665,0.126,0.792,-3.937,13.212,12.775,
48255520,-0.701,0.091,0.755,-9.1,9.555,7.945,
48255530,-0.68,0.064,0.735,-9.485,7.332,4.69,
48255540,-0.664,0.05,0.712,-5.635,4.007,2.222,
48255550,-0.654,0.057,0.713,-2.975,2.205,0.647,
48255560,-0.641,0.059,0.728,-3.115,0.77,-0.577,
48255570,-0.622,0.033,0.748,-3.815,0.332,-1.242,
48255580,-0.594,-0.01,0.744,-3.01,0.122,-0.63,
48255590,-0.553,-0.048,0.719,0.542,2.73,2.012,
48255600,-0.505,-0.047,0.735,6.142,8.417,7.157,
48255610,-0.507,-0.042,0.747,9.677,16.59,13.825,
48255620,-0.549,-0.029,0.793,10.517,26.722,20.142,
48255630,-0.614,-0.038,0.818,9.992,35.472,24.15,
48255640,-0.7,-0.059,0.812,10.29,38.972,25.97,
48255650,-0.744,-0.06,0.792,13.09,36.925,26.057,
48255660,-0.765,-0.009,0.888,16.677,32.655,23.8,
48255670,-0.762,-0.049,0.757,14.857,26.442,16.397,
48255670,-0.777,-0.065,0.811,12.582,21.822,12.32,
48255690,-0.711,-0.087,0.783,8.75,17.78,4.9,
48255690,-0.631,-0.103,0.78,9.677,24.307,1.662,
48255710,-0.625,-0.131,0.759,14.507,32.34,4.007,
48255710,-0.702,-0.145,0.725,17.552,38.447,5.267,
48255730,-0.791,-0.132,0.704,18.69,41.702,1.032,
48255730,-0.851,-0.137,0.692,21.14,40.355,-8.61,
48255750,-0.845,-0.149,0.675,26.477,36.417,-20.212,
48255750,-0.796,-0.147,0.69,32.637,33.372,-31.447,
48255760,-0.753,-0.139,0.695,38.937,33.057,-40.862,
48255770,-0.729,-0.137,0.647,45.482,35.612,-48.3,
48255780,-0.726,-0.142,0.611,54.757,41.142,-54.915,
48255790,-0.74,-0.137,0.564,63.157,46.497,-62.492,
48255800,-0.756,-0.106,0.533,71.067,50.557,-65.712,
48255810,-0.86,-0.056,0.473,68.932,52.202,-51.012,
48255820,-0.93,0,0.487,62.072,44.642,-39.497,
48255830,-0.912,0.066,0.492,52.885,30.73,-37.992,
48255840,-0.813,0.112,0.503,48.685,17.115,-42.822,
48255850,-0.739,0.113,0.555,44.415,9.922,-37.957,
48255860,-0.683,0.086,0.56,41.37,6.16,-30.362,
48255870,-0.656,0.054,0.545,42.175,5.722,-23.24,
48255880,-0.666,0.032,0.511,48.667,8.137,-18.637,
48255890,-0.723,0.052,0.483,57.977,10.115,-17.08,
48255900,-0.796,0.079,0.475,70.07,8.19,-17.972,
48255910,-0.84,0.122,0.498,80.832,1.295,-21.21,
48255920,-0.84,0.172,0.566,87.08,-9.922,-25.34,
48255930,-0.793,0.224,0.615,89.005,-21.91,-26.477,
48255940,-0.729,0.256,0.625,90.457,-35.927,-25.427,
48255950,-0.668,0.277,0.635,94.045,-45.657,-24.972,
48255960,-0.59,0.317,0.651,98.857,-50.33,-24.062,
48255970,-0.557,0.354,0.669,103.442,-52.097,-20.195,
48255980,-0.534,0.373,0.646,104.282,-50.33,-17.57,
48255990,-0.528,0.365,0.7,101.955,-41.125,-14.945,
48256000,-0.489,0.368,0.655,92.172,-35.42,-16.38,
48256010,-0.505,0.344,0.679,85.032,-23.135,-15.4,
48256020,-0.568,0.329,0.667,81.077,-11.182,-14.682,
48256030,-0.638,0.351,0.661,78.452,-0.91,-14.437,
48256040,-0.715,0.37,0.659,77.245,2.852,-11.707,
48256050,-0.787,0.377,0.673,81.427,1.61,-8.102,
48256060,-0.797,0.417,0.67,80.132,-4.9,-8.172,
48256070,-0.782,0.454,0.671,74.935,-10.71,-7.052,
48256080,-0.783,0.461,0.643,67.952,-13.282,-3.045,
48256080,-0.781,0.448,0.6,62.825,-10.605,-0.297,
48256100,-0.749,0.438,0.578,60.042,-5.67,0.07,
48256100,-0.699,0.446,0.532,56,1.942,1.382,
48256120,-0.705,0.432,0.504,51.975,14.367,5.162,
48256120,-0.766,0.42,0.5,46.672,28.682,5.932,
48256140,-0.897,0.393,0.539,38.062,38.202,5.232,
48256140,-1.006,0.362,0.593,28.385,31.552,2.537,
48256150,-1.057,0.317,0.593,21.682,15.68,0.735,
48256160,-1.073,0.295,0.594,18.777,-2.135,1.19,
48256170,-1.051,0.296,0.606,17.36,-19.232,0.367,
48256180,-0.992,0.303,0.623,16.432,-35.63,-1.225,
48256190,-0.868,0.328,0.651,12.6,-47.495,-3.5,
48256200,-0.731,0.352,0.675,8.732,-53.305,-2.485,
48256210,-0.633,0.364,0.673,5.005,-51.66,2.205,
48256220,-0.599,0.367,0.663,-0.542,-44.432,7.175,
48256230,-0.609,0.362,0.636,-7.017,-35.122,9.555,
48256240,-0.636,0.349,0.622,-10.797,-28.332,9.73,
48256250,-0.644,0.343,0.557,-11.795,-21.192,9.082,
48256260,-0.656,0.344,0.567,-6.755,-12.792,10.342,
48256270,-0.699,0.332,0.623,-2.59,-8.54,10.762,
48256280,-0.669,0.346,0.678,-2.117,-7.105,7.647,
48256290,-0.601,0.35,0.757,-4.112,-6.212,7.612,
48256300,-0.552,0.312,0.79,-7.245,-5.705,12.81,
48256310,-0.565,0.251,0.78,-7.822,0.682,19.582,
48256320,-0.618,0.204,0.733,-5.197,10.167,22.907,
48256330,-0.678,0.195,0.695,-3.062,18.165,22.382,
48256340,-0.694,0.211,0.673,-3.412,22.68,20.702,
48256350,-0.703,0.219,0.636,-3.972,24.78,20.65,
48256360,-0.714,0.22,0.615,-3.587,25.357,19.6,
48256370,-0.717,0.216,0.573,-3.167,25.532,16.625,
48256380,-0.758,0.184,0.527,-2.397,24.43,14.455,
48256390,-0.848,0.164,0.515,2.012,23.432,10.202,
48256400,-0.935,0.191,0.508,8.26,16.712,3.255,
48256410,-0.931,0.289,0.544,14.84,4.007,-1.33,
48256420,-0.906,0.353,0.604,15.837,-10.815,-1.26,
48256420,-0.861,0.408,0.632,9.03,-25.182,-5.722,
48256440,-0.753,0.445,0.61,1.155,-33.95,-9.485,
48256440,-0.658,0.432,0.627,-1.907,-36.452,-8.382,
48256460,-0.607,0.379,0.67,-2.642,-30.59,-5.617,
48256460,-0.61,0.336,0.658,-3.85,-19.757,-3.552,
48256480,-0.652,0.309,0.624,-4.2,-11.917,-1.172,
48256480,-0.728,0.292,0.613,-2.887,-9.257,1.592,
48256500,-0.768,0.292,0.594,-1.54,-11.567,-0.612,
48256500,-0.807,0.285,0.597,-2.24,-15.96,-2.52,
48256510,-0.803,0.268,0.596,-3.902,-20.755,-5.407,
48256520,-0.752,0.263,0.597,-2.94,-25.287,-9.205,
48256530,-0.708,0.259,0.63,-0.91,-27.475,-9.87,
48256540,-0.691,0.254,0.674,0.262,-28.035,-8.085,
48256550,-0.674,0.267,0.677,-0.227,-28.735,-7.245,
48256560,-0.668,0.269,0.644,0.035,-28.035,-6.615,
48256570,-0.666,0.263,0.64,0.122,-24.902,-5.705,
48256580,-0.656,0.258,0.661,-0.332,-20.93,-5.775,
48256590,-0.643,0.264,0.67,-0.612,-16.082,-5.687,
48256600,-0.652,0.279,0.669,1.347,-12.67,-3.78,
48256610,-0.694,0.295,0.672,4.287,-11.41,-1.085,
48256620,-0.735,0.321,0.641,5.267,-13.982,-0.577,
48256630,-0.758,0.34,0.623,3.99,-18.795,-1.347,
48256640,-0.772,0.337,0.622,1.592,-24.692,-2.712,
48256650,-0.76,0.334,0.627,-0.717,-30.467,-5.775,
48256660,-0.736,0.326,0.656,-2.782,-36.347,-8.225,
48256670,-0.674,0.309,0.684,-3.01,-38.797,-10.972,
48256680,-0.574,0.293,0.77,-2.24,-32.445,-10.815,
48256690,-0.547,0.293,0.718,-1.26,-23.607,-6.037,
48256700,-0.499,0.31,0.714,2.835,-17.605,-0.63,
48256710,-0.53,0.307,0.704,2.572,-6.877,5.197,
48256720,-0.602,0.303,0.688,1.172,2.765,5.792,
48256730,-0.694,0.298,0.673,0.472,7.49,3.045,
48256740,-0.797,0.28,0.638,-1.365,3.622,-0.035,
48256750,-0.83,0.287,0.645,-5.005,-6.387,-2.8,
48256760,-0.76,0.291,0.663,-1.837,-14.63,-7.822,
48256770,-0.71,0.295,0.667,3.15,-18.69,-10.062,
48256780,-0.657,0.286,0.661,2.922,-19.46,-8.592,
48256790,-0.629,0.283,0.673,0.98,-18.725,-7.787,
48256800,-0.594,0.291,0.728,-1.312,-16.117,-6.457,
48256810,-0.585,0.289,0.735,-2.275,-13.055,-3.08,
48256820,-0.604,0.28,0.717,-2.677,-10.342,-0.385,
48256820,-0.618,0.287,0.707,-3.99,-7.997,-0.07,
48256830,-0.64,0.287,0.727,-3.167,-6.51,0.507,
48256840,-0.65,0.292,0.721,-3.027,-6.352,0.892,
48256850,-0.642,0.295,0.694,-3.097,-6.982,0.612,
48256860,-0.648,0.294,0.685,-2.432,-6.93,1.312,
48256870,-0.657,0.297,0.697,-2.922,-6.912,1.522,
48256880,-0.666,0.291,0.695,-4.025,-8.47,1.347,
48256890,-0.669,0.28,0.701,-4.742,-10.29,1.435,
48256900,-0.653,0.27,0.71,-4.917,-11.165,1.067,
48256910,-0.635,0.27,0.703,-4.55,-11.095,1.12,
48256920,-0.627,0.288,0.727,-3.832,-9.117,2.345,
48256930,-0.584,0.331,0.655,-3.675,-1.242,2.537,
48256940,-0.694,0.305,0.668,-1.89,4.025,4.48,
48256950,-0.779,0.272,0.733,-8.907,1.067,4.322,
48256960,-0.648,0.261,0.736,-11.672,-7.752,-2.73,
48256970,-0.564,0.268,0.681,-9.59,-9.03,-1.61,
48256980,-0.609,0.248,0.668,-2.73,-5.652,3.307,
48256990,-0.654,0.28,0.689,1.05,-3.08,3.307,
48257000,-0.665,0.329,0.707,-1.68,-2.31,0.402,
48257010,-0.706,0.326,0.681,-5.215,-1.54,0.7,
48257020,-0.734,0.283,0.656,-5.057,-3.517,-0.157,
48257030,-0.741,0.244,0.644,-4.007,-7.42,-3.57,
48257040,-0.72,0.236,0.661,-3.745,-10.43,-7.63,
48257050,-0.681,0.244,0.657,-2.275,-11.882,-10.937,
48257060,-0.663,0.246,0.668,1.155,-12.145,-9.625,
48257070,-0.683,0.234,0.673,4.112,-16.24,-7.332,
48257080,-0.602,0.277,0.766,2.292,-21.437,-6.195,
48257090,-0.455,0.327,0.763,3.815,-15.802,-6.282,
48257100,-0.484,0.332,0.712,6.982,-3.132,-1.4,
48257110,-0.644,0.29,0.693,8.522,6.72,3.325,
48257120,-0.718,0.283,0.761,4.812,5.425,1.102,
48257130,-0.667,0.301,0.821,-0.805,-0.997,-2.94,
48257140,-0.555,0.326,0.753,0.052,-3.447,-2.415,
48257150,-0.548,0.327,0.749,6.597,2.642,2.66,
48257160,-0.605,0.333,0.741,1.907,7.997,5.355,
48257170,-0.666,0.304,0.72,-8.505,6.86,4.97,
48257170,-0.687,0.26,0.72,-15.645,3.377,5.985,
48257190,-0.671,0.231,0.733,-14.105,-0.63,6.422,
48257190,-0.641,0.248,0.734,-7.63,-3.482,5.477,
48257210,-0.646,0.278,0.72,-6.982,-5.705,6.282,
48257210,-0.616,0.302,0.705,-12.67,-4.55,6.335,
48257230,-0.577,0.3,0.632,-15.96,5.582,7.017,
48257230,-0.741,0.246,0.672,-16.59,8.837,9.73,
48257250,-0.747,0.222,0.682,-19.827,5.11,5.862,
48257250,-0.683,0.23,0.71,-16.117,-0.665,0.262,
48257260,-0.649,0.247,0.713,-14.245,-5.827,1.277,
48257270,-0.628,0.25,0.682,-9.362,-7.262,1.155,
48257280,-0.622,0.275,0.702,-6.807,-6.667,0.927,
48257290,-0.613,0.296,0.691,-7.297,-4.41,0.997,
48257300,-0.639,0.306,0.68,-6.947,-1.47,1.995,
48257310,-0.674,0.295,0.66,-5.6,0.875,2.31,
48257320,-0.715,0.28,0.658,-4.147,0.175,-0.175,
48257330,-0.755,0.256,0.672,-4.252,-2.607,-1.942,
48257340,-0.752,0.237,0.677,-3.99,-9.257,-4.952,
48257350,-0.731,0.219,0.699,-2.45,-16.485,-8.19,
48257360,-0.664,0.228,0.721,-0.787,-24.43,-11.287,
48257370,-0.552,0.281,0.778,0.42,-24.202,-13.177,
48257380,-0.517,0.289,0.745,0.735,-14.087,-10.01,
48257390,-0.628,0.245,0.703,0.175,-6.23,-3.202,
48257400,-0.663,0.216,0.736,-3.202,-6.65,-1.925,
48257410,-0.581,0.216,0.744,-5.775,-7.77,-4.497,
48257420,-0.544,0.196,0.713,-3.115,-6.457,-1.505,
48257430,-0.547,0.181,0.692,2.135,-1.907,3.027,
48257440,-0.593,0.2,0.716,3.78,0.962,5.197,
48257450,-0.634,0.238,0.722,0.997,2.327,5.635,
48257460,-0.665,0.274,0.744,0.472,2.275,5.705,
48257470,-0.682,0.296,0.76,1.347,0.805,5.74,
48257480,-0.673,0.306,0.75,0.84,-1.925,5.95,
48257490,-0.567,0.325,0.783,-1.872,1.89,5.652,
48257500,-0.542,0.294,0.673,-2.502,16.17,6.422,
48257510,-0.761,0.227,0.625,-1.312,18.445,10.937,
48257510,-0.804,0.254,0.693,-5.25,7.087,7.612,
48257530,-0.717,0.316,0.708,-7.507,-3.815,-2.625,
48257530,-0.638,0.321,0.773,-7.892,-11.392,-1.872,
48257550,-0.543,0.279,0.724,-4.917,-10.92,-1.085,
48257550,-0.555,0.257,0.698,-2.502,-4.462,2.362,
48257570,-0.624,0.258,0.684,-2.467,1.61,5.005,
48257570,-0.722,0.269,0.677,-2.782,4.182,4.375,
48257580,-0.77,0.273,0.676,-2.73,1.207,0.822,
48257590,-0.757,0.254,0.678,-1.68,-4.9,-3.395,
48257600,-0.718,0.225,0.678,-1.487,-9.94,-5.18,
48257610,-0.699,0.205,0.658,-0.682,-14.77,-9.17,
48257620,-0.683,0.222,0.746,-0.14,-23.52,-11.235,
48257630,-0.489,0.285,0.793,-0.07,-21.752,-14.227,
48257640,-0.485,0.274,0.734,5.25,-8.207,-8.802,
48257650,-0.654,0.22,0.686,6.492,1.347,-0.402,
48257660,-0.723,0.206,0.696,2.31,2.117,-2.31,
48257670,-0.671,0.234,0.735,-3.045,-1.487,-7.35,
48257680,-0.636,0.243,0.748,-2.152,-3.832,-6.177,
48257690,-0.635,0.234,0.743,1.68,-5.442,-3.325,
48257700,-0.626,0.238,0.739,1.907,-6.825,-2.992,
48257710,-0.596,0.264,0.769,-1.102,-5.775,-4.042,
48257720,-0.572,0.278,0.733,-3.465,-6.107,-3.482,
48257730,-0.599,0.275,0.745,-1.715,-2.397,-0.087,
48257740,-0.617,0.287,0.767,-2.24,1.925,1.47,
48257750,-0.615,0.306,0.689,-4.095,6.387,1.12,
48257760,-0.705,0.287,0.737,-5.95,8.19,4.55,
48257770,-0.678,0.269,0.736,-10.325,6.562,3.185,
48257780,-0.583,0.277,0.725,-9.362,4.2,0.665,
48257790,-0.559,0.255,0.716,-6.072,7.35,4.707,
48257800,-0.615,0.23,0.692,-3.955,8.977,7.612,
48257810,-0.623,0.243,0.712,-5.705,7.35,7.105,
48257820,-0.625,0.244,0.681,-5.512,5.215,5.022,
48257830,-0.66,0.232,0.698,-3.92,3.78,7.91,
48257840,-0.657,0.234,0.675,-1.015,4.445,6.23,
48257850,-0.716,0.241,0.674,1.33,6.632,4.567,
48257860,-0.788,0.223,0.673,0.647,5.127,3.535,
48257870,-0.814,0.21,0.665,0.385,-1.96,-1.312,
48257880,-0.766,0.203,0.723,-0.227,-17.622,-6.317,
48257890,-0.5,0.273,0.801,-0.262,-22.295,-11.9,
48257900,-0.414,0.309,0.765,2.94,-10.15,-8.015,
48257910,-0.607,0.264,0.677,4.76,5.862,4.567,
48257920,-0.741,0.249,0.71,2.572,10.797,6.422,
48257920,-0.73,0.262,0.698,-2.275,5.46,0.98,
48257940,-0.714,0.249,0.705,-1.61,-2.1,-0.56,
48257940,-0.681,0.228,0.715,-0.192,-6.79,-1.33,
48257960,-0.653,0.227,0.71,-0.997,-10.272,-3.885,
48257960,-0.636,0.218,0.749,-5.005,-14.105,-3.237,
48257980,-0.578,0.211,0.757,-6.947,-16.17,-3.325,
48257980,-0.559,0.198,0.743,-5.232,-14.927,-0.402,
48258000,-0.575,0.203,0.743,-2.625,-10.832,3.36,
48258000,-0.604,0.243,0.726,-2.257,-6.125,5.67,
48258010,-0.58,0.328,0.673,-1.855,1.47,4.112,
48258020,-0.755,0.325,0.749,-2.992,7.192,7.892,
48258030,-0.764,0.282,0.792,-13.037,3.99,6.457,
48258040,-0.564,0.267,0.744,-14.612,-1.33,-0.245,
48258050,-0.498,0.226,0.725,-8.33,3.937,5.425,
48258060,-0.569,0.202,0.681,-1.61,13.282,10.587,
48258070,-0.677,0.246,0.71,-1.732,16.432,10.99,
48258080,-0.7,0.287,0.67,-4.375,10.185,7.245,
48258090,-0.688,0.295,0.647,-2.047,6.912,6.055,
48258100,-0.726,0.261,0.615,1.925,7.84,6.09,
48258110,-0.802,0.246,0.644,1.907,5.792,1.697,
48258120,-0.859,0.229,0.665,-1.995,-1.207,-3.202,
48258130,-0.828,0.196,0.688,-2.87,-13.16,-8.715,
48258140,-0.604,0.203,0.724,1.977,-24.5,-15.225,
48258150,-0.382,0.266,0.795,9.257,-23.45,-15.137,
48258160,-0.391,0.289,0.794,8.33,-7.892,-3.727,
48258170,-0.598,0.248,0.701,3.657,11.707,6.72,
48258180,-0.787,0.214,0.705,0.577,17.325,8.172,
48258190,-0.832,0.21,0.701,-1.19,7.63,2.222,
48258200,-0.797,0.215,0.702,-1.855,-6.947,-3.115,
48258210,-0.684,0.216,0.711,-2.52,-16.187,-7.49,
48258220,-0.563,0.221,0.746,-3.447,-18.952,-9.1,
48258230,-0.526,0.208,0.758,-4.882,-17.57,-3.132,
48258240,-0.519,0.225,0.745,-4.06,-13.562,1.435,
48258250,-0.545,0.262,0.762,-1.592,-6.142,3.185,
48258260,-0.575,0.294,0.749,-2.327,1.785,6.072,
48258260,-0.604,0.305,0.715,-3.605,10.797,8.855,
48258280,-0.708,0.265,0.73,-6.807,13.895,12.6,
48258280,-0.693,0.235,0.741,-12.162,13.475,11.445,
48258300,-0.629,0.227,0.725,-12.215,14.245,8.032,
48258300,-0.686,0.186,0.664,-7.56,12.267,9.607,
48258320,-0.67,0.215,0.686,-2.52,8.102,8.575,
48258320,-0.607,0.276,0.705,0.437,9.502,4.882,
48258330,-0.725,0.262,0.6,2.327,8.47,7.227,
48258340,-0.888,0.23,0.567,4.375,-0.682,6.755,
48258350,-0.818,0.29,0.661,3.062,-12.967,-3.64,
48258360,-0.689,0.325,0.714,1.085,-19.215,-10.937,
48258370,-0.635,0.283,0.727,1.487,-19.792,-8.557,
48258380,-0.638,0.203,0.696,3.202,-17.15,-4.69,
48258390,-0.609,0.193,0.697,3.885,-13.825,-5.915,
48258400,-0.567,0.218,0.719,6.107,-9.765,-6.282,
48258410,-0.543,0.242,0.716,8.907,-5.407,-2.59,
48258420,-0.546,0.248,0.719,11.655,-0.192,1.715,
48258430,-0.568,0.257,0.717,11.55,4.952,4.55,
48258440,-0.631,0.258,0.725,8.592,6.72,7.49,
48258450,-0.709,0.251,0.722,5.092,6.335,9.187,
48258460,-0.752,0.249,0.728,4.497,3.36,6.527,
48258470,-0.743,0.254,0.757,4.777,-2.485,2.765,
48258480,-0.64,0.285,0.731,4.987,-6.317,-0.665,
48258490,-0.633,0.287,0.698,6.65,-5.355,-0.157,
48258500,-0.698,0.261,0.719,3.097,-4.9,2.765,
48258510,-0.695,0.248,0.735,-2.03,-7.385,-0.332,
48258520,-0.643,0.241,0.759,-5.565,-12.18,-1.68,
48258530,-0.588,0.221,0.754,-3.955,-14.035,0.49,
48258540,-0.556,0.218,0.754,-0.665,-13.317,3.622,
48258550,-0.56,0.239,0.751,-0.7,-10.027,6.632,
48258560,-0.604,0.284,0.653,-2.467,-7.91,9.572,
48258570,-0.698,0.308,0.699,-2.59,-7.752,11.147,
48258580,-0.763,0.293,0.749,-8.505,-7.525,7.927,
48258590,-0.678,0.3,0.693,-10.57,-8.75,2.642,
48258600,-0.612,0.261,0.694,-5.582,-9.957,3.657,
48258610,-0.576,0.228,0.712,-2.345,-4.165,7.962,
48258620,-0.571,0.254,0.696,-1.015,-0.647,9.03,
48258630,-0.629,0.249,0.673,-1.82,0.385,9.135,
48258640,-0.636,0.244,0.679,-1.89,-0.91,7.21,
48258650,-0.62,0.259,0.722,-0.472,-3.29,5.11,
48258660,-0.683,0.276,0.744,-2.572,-3.867,6.982,
48258670,-0.763,0.258,0.698,-1.89,-4.445,5.81,
48258670,-0.829,0.246,0.672,-1.26,-8.732,1.977,
48258690,-0.765,0.262,0.693,-1.767,-17.29,-5.355,
48258690,-0.65,0.268,0.728,-2.45,-22.277,-8.837,
48258710,-0.569,0.25,0.725,-1.802,-20.037,-6.212,
48258710,-0.526,0.252,0.73,1.855,-11.48,-4.812,
48258730,-0.572,0.252,0.709,4.182,-3.307,-2.887,
48258730,-0.566,0.269,0.811,1.435,-2.03,0,
48258750,-0.432,0.316,0.804,0.962,4.41,1.435,
48258750,-0.516,0.291,0.739,6.58,12.687,5.88,
48258760,-0.656,0.271,0.718,5.53,18.375,10.92,
48258770,-0.748,0.271,0.651,2.555,21.297,6.282,
48258780,-0.865,0.252,0.658,-2.362,14.28,5.582,
48258790,-0.821,0.231,0.673,-4.515,-1.225,0.122,
48258800,-0.698,0.232,0.693,-2.012,-13.107,-6.475,
48258810,-0.646,0.214,0.765,-2.59,-18.497,-6.177,
48258820,-0.581,0.209,0.768,-6.352,-21.455,-4.917,
48258830,-0.51,0.237,0.782,-5.81,-20.107,-5.057,
48258840,-0.49,0.268,0.814,-3.99,-15.33,-1.172,
48258850,-0.522,0.293,0.806,-5.302,-8.225,4.042,
48258860,-0.582,0.314,0.771,-9.362,-3.78,7.017,
48258870,-0.664,0.331,0.634,-11.707,-0.052,8.137,
48258880,-0.778,0.349,0.699,-10.902,0.612,6.947,
48258890,-0.845,0.308,0.739,-18.147,-0.752,2.66,
48258900,-0.721,0.287,0.726,-21.315,-9.415,-4.76,
48258910,-0.542,0.252,0.744,-16.222,-13.685,-6.002,
48258920,-0.513,0.189,0.714,-9.835,-7.945,-1.907,
48258930,-0.539,0.19,0.728,-8.032,-3.325,1.96,
48258940,-0.501,0.242,0.685,-7.157,-1.102,1.925,
48258950,-0.594,0.221,0.663,-2.747,1.82,5.862,
48258960,-0.692,0.178,0.665,-3.255,2.03,7.857,
48258970,-0.691,0.172,0.661,-3.08,0.682,3.237,
48258980,-0.709,0.179,0.714,-0.77,-4.077,2.765,
48258990,-0.691,0.206,0.726,3.552,-6.947,-0.017,
48259000,-0.672,0.246,0.714,7.052,-7.752,-3.36,
48259010,-0.677,0.258,0.719,6.72,-9.24,-2.31,
48259010,-0.641,0.277,0.703,5.32,-10.99,-3.832,
48259030,-0.668,0.268,0.729,5.722,-14.822,-5.88,
48259030,-0.55,0.312,0.829,3.237,-14.997,-6.72,
48259050,-0.467,0.326,0.793,5.355,-5.81,-6.807,
48259050,-0.535,0.307,0.76,8.662,6.51,0.402,
48259070,-0.623,0.274,0.695,10.01,14.525,4.27,
48259070,-0.706,0.28,0.708,6.597,13.51,0.857,
48259080,-0.69,0.279,0.725,0.857,7.787,-0.507,
48259090,-0.711,0.244,0.751,-0.612,2.082,-0.49,
48259100,-0.675,0.222,0.753,-1.54,-0.122,-1.33,
48259110,-0.62,0.225,0.683,2.922,0.14,-4.322,
48259120,-0.66,0.23,0.714,3.185,0.227,-2.362,
48259130,-0.651,0.231,0.721,-0.647,-0.612,-4.812,
48259140,-0.628,0.224,0.721,-4.007,-2.73,-6.055,
48259150,-0.607,0.191,0.727,-2.695,-3.605,-5.302,
48259160,-0.607,0.179,0.702,1.137,-2.38,-4.55,
48259170,-0.626,0.196,0.688,3.92,-0.262,-4.585,
48259180,-0.654,0.233,0.733,3.692,-0.7,-4.69,
48259190,-0.662,0.25,0.76,0.28,-5.565,-4.62,
48259200,-0.639,0.263,0.722,-1.82,-12.057,-4.48,
48259210,-0.589,0.304,0.754,-0.122,-13.772,-2.52,
48259220,-0.616,0.301,0.802,-3.832,-7.752,3.377,
48259230,-0.586,0.287,0.755,-8.207,3.675,6.072,
48259240,-0.535,0.292,0.718,-4.882,13.877,6.072,
48259250,-0.627,0.26,0.737,-0.595,20.615,8.277,
48259260,-0.739,0.243,0.7,-3.167,13.93,6.072,
48259270,-0.759,0.262,0.713,-6.982,-0.752,0.437,
48259280,-0.685,0.274,0.736,-9.957,-14.087,-3.36,
48259290,-0.631,0.242,0.715,-8.575,-18.952,-3.552,
48259300,-0.618,0.213,0.707,-6.965,-18.987,-1.522,
48259310,-0.611,0.212,0.714,-6.02,-16.205,-1.032,
48259320,-0.622,0.229,0.735,-6.195,-14.437,-0.577,
48259330,-0.613,0.232,0.737,-5.757,-14.612,-0.035,
48259340,-0.587,0.228,0.746,-4.13,-15.435,0.63,
48259350,-0.563,0.222,0.743,-2.835,-13.702,2.537,
48259360,-0.572,0.232,0.738,-2.572,-11.515,3.867,
48259370,-0.6,0.242,0.724,-2.485,-8.155,4.2,
48259380,-0.615,0.254,0.727,-1.242,-4.795,3.57,
48259390,-0.62,0.25,0.722,-0.07,-1.522,3.325,
48259400,-0.606,0.234,0.719,0.857,1.732,3.412,
48259410,-0.584,0.221,0.746,1.61,7.122,3.657,
48259420,-0.592,0.219,0.742,2.327,12.39,4.217,
48259420,-0.644,0.225,0.701,4.445,15.19,5.162,
48259440,-0.695,0.237,0.702,6.825,14.472,5.005,
48259440,-0.71,0.224,0.755,5.337,7.437,3.657,
48259460,-0.566,0.245,0.714,3.832,1.82,0.28,
48259460,-0.506,0.262,0.729,9.87,1.942,1.907,
48259480,-0.599,0.241,0.747,10.92,7.962,10.045,
48259480,-0.663,0.259,0.739,9.222,11.34,9.065,
48259500,-0.696,0.285,0.744,6.86,11.27,7,
48259500,-0.723,0.269,0.719,6.335,6.475,6.335,
48259510,-0.723,0.251,0.702,7.402,2.03,3.902,
48259520,-0.686,0.266,0.695,7.035,-2.485,0.35,
48259530,-0.671,0.297,0.698,5.897,-5.425,-1.68,
48259540,-0.701,0.298,0.723,3.062,-7.14,-0.63,
48259550,-0.658,0.282,0.728,0.612,-9.695,-2.065,
48259560,-0.587,0.264,0.767,-1.067,-11.427,-3.99,
48259570,-0.556,0.237,0.761,-2.345,-8.925,-2.555,
48259580,-0.568,0.238,0.754,-1.54,-5.442,-0.367,
48259590,-0.595,0.255,0.76,-0.892,-2.572,1.96,
48259600,-0.633,0.28,0.742,-2.117,-3.115,3.517,
48259610,-0.671,0.307,0.691,-3.867,-4.62,3.552,
48259620,-0.72,0.32,0.703,-5.6,-7.297,3.045,
48259630,-0.738,0.302,0.746,-10.535,-9.1,1.05,
48259640,-0.656,0.281,0.765,-14.105,-12.127,-2.747,
48259650,-0.566,0.262,0.781,-13.72,-11.41,-1.715,
48259660,-0.508,0.256,0.773,-10.657,-7.665,3.342,
48259670,-0.5,0.265,0.751,-9.222,-0.595,9.117,
48259680,-0.539,0.273,0.722,-8.557,7.63,11.515,
48259690,-0.656,0.243,0.729,-9.905,12.512,11.515,
48259700,-0.666,0.239,0.723,-11.69,10.955,6.93,
48259710,-0.686,0.226,0.695,-10.097,7.315,5.845,
48259720,-0.731,0.2,0.671,-7.402,2.45,6.317,
48259730,-0.723,0.215,0.641,-3.587,-1.4,1.435,
48259740,-0.698,0.236,0.654,-0.945,-4.987,-2.082,
48259750,-0.648,0.247,0.715,-1.557,-7.927,-3.517,
48259760,-0.6,0.246,0.735,-2.94,-7.647,-5.197,
48259760,-0.58,0.228,0.726,-2.485,-3.587,-3.57,
48259780,-0.58,0.224,0.71,1.33,1.732,-1.785,
48259780,-0.683,0.217,0.689,5.25,0.962,-0.787,
48259800,-0.609,0.292,0.91,0.28,-7.175,-1.487,
48259800,-0.367,0.35,0.823,-4.917,-3.657,-3.482,
48259820,-0.563,0.253,0.674,1.102,11.357,9.31,
48259820,-0.765,0.199,0.671,3.955,20.352,12.652,
48259830,-0.756,0.259,0.691,0.77,16.345,0.052,
48259840,-0.72,0.281,0.706,-4.812,6.422,0.192,
48259850,-0.695,0.245,0.722,-4.812,0.455,3.185,
48259860,-0.659,0.227,0.698,-0.052,0.017,-0.017,
48259870,-0.658,0.239,0.702,0.227,-0.875,-0.945,
48259880,-0.632,0.257,0.7,-2.1,-1.89,-1.522,
48259890,-0.628,0.269,0.714,-2.712,-0.875,-1.365,
48259900,-0.644,0.252,0.706,-1.785,-0.507,-0.315,
48259910,-0.651,0.238,0.71,-0.752,-0.63,0,
48259920,-0.625,0.238,0.713,-0.56,-1.907,-0.805,
48259930,-0.609,0.232,0.721,-0.35,-2.222,-0.105,
48259940,-0.622,0.222,0.728,-0.175,-2.152,1.732,
48259950,-0.631,0.225,0.745,0.437,-2.73,2.345,
48259960,-0.641,0.236,0.748,0,-5.897,3.272,
48259970,-0.638,0.263,0.694,-0.91,-4.847,3.43,
48259980,-0.752,0.255,0.626,0.84,-3.377,2.887,
48259990,-0.888,0.225,0.72,-4.55,-9.135,0.892,
48260000,-0.709,0.258,0.714,-10.465,-20.072,-10.657,
48260010,-0.573,0.248,0.759,-7.42,-25.725,-10.552,
48260020,-0.515,0.213,0.771,-3.342,-22.102,-2.012,
48260030,-0.512,0.245,0.725,1.715,-13.72,-1.785,
48260040,-0.567,0.296,0.77,-0.35,-6.352,-1.995,
48260050,-0.648,0.289,0.759,-5.495,-2.8,0.227,
48260060,-0.67,0.261,0.739,-8.417,-4.48,0.175,
48260070,-0.639,0.235,0.721,-6.317,-6.195,0.157,
48260080,-0.6,0.243,0.715,-2.677,-5.845,-0.49,
48260090,-0.59,0.265,0.705,-0.507,-1.89,0.42,
48260100,-0.618,0.283,0.716,0.192,2.397,1.592,
48260110,-0.653,0.292,0.741,-1.522,4.427,2.152,
48260120,-0.653,0.289,0.746,-4.025,4.48,0.752,
48260130,-0.657,0.266,0.734,-4.69,4.987,1.207,
48260140,-0.628,0.26,0.723,-2.905,6.195,0.717,
48260150,-0.601,0.266,0.737,-0.805,8.75,0.332,
48260160,-0.613,0.245,0.833,-3.202,10.972,1.995,
48260170,-0.521,0.231,0.768,-7.875,12.95,3.622,
48260170,-0.505,0.221,0.692,-0.682,17.622,6.335,
48260190,-0.618,0.225,0.689,4.427,26.652,11.427,
48260190,-0.693,0.27,0.722,3.465,31.342,7.98,
48260200,-0.723,0.294,0.743,-3.675,28.77,7.035,
48260210,-0.705,0.254,0.699,-8.085,22.732,8.68,
48260220,-0.651,0.221,0.701,-6.02,21.07,7.665,
48260230,-0.566,0.227,0.758,-4.27,23.082,5.39,
48260240,-0.523,0.246,0.787,-5.477,26.145,5.932,
48260250,-0.527,0.256,0.799,-5.932,33.845,9.012,
48260260,-0.54,0.263,0.788,-4.62,45.08,11.2,
48260270,-0.551,0.272,0.77,-3.097,57.487,11.515,
48260280,-0.588,0.271,0.75,-3.517,67.445,12.127,
48260290,-0.656,0.29,0.706,-2.782,75.897,11.165,
48260300,-0.784,0.316,0.625,0.595,73.167,13.685,
48260310,-0.883,0.334,0.558,1.802,57.837,11.357,
48260320,-0.93,0.358,0.551,0.332,35.017,6.93,
48260330,-0.967,0.343,0.545,-6.702,16.87,0.98,
48260340,-0.953,0.328,0.554,-15.277,-4.2,-5.915,
48260350,-0.921,0.3,0.569,-20.755,-22.19,-5.915,
48260360,-0.901,0.269,0.594,-21.56,-38.342,-4.445,
48260370,-0.819,0.281,0.599,-22.54,-49.997,-5.722,
48260380,-0.705,0.285,0.584,-24.902,-52.622,-5.11,
48260390,-0.574,0.276,0.619,-23.922,-46.392,-1.75,
48260400,-0.455,0.246,0.606,-20.387,-29.592,2.835,
48260410,-0.449,0.233,0.638,-15.645,-7.525,9.59,
48260420,-0.545,0.235,0.639,-15.26,11.847,14.682,
48260430,-0.671,0.264,0.675,-15.557,24.255,16.887,
48260440,-0.761,0.279,0.691,-16.117,22.627,17.832,
48260450,-0.763,0.282,0.698,-15.68,14.175,14.297,
48260460,-0.72,0.278,0.63,-16.502,7.192,11.602,
48260470,-0.707,0.294,0.663,-16.765,2.24,12.53,
48260480,-0.729,0.257,0.618,-22.61,-3.43,14.525,
48260490,-0.697,0.238,0.645,-25.042,-2.87,10.22,
48260500,-0.69,0.216,0.659,-26.757,-0.945,6.965,
48260510,-0.677,0.172,0.677,-26.932,2.38,8.627,
48260510,-0.664,0.171,0.689,-25.357,9.345,9.415,
48260530,-0.698,0.159,0.707,-22.61,19.757,12.022,
48260530,-0.751,0.159,0.692,-21.7,22.225,10.552,
48260550,-0.805,0.149,0.68,-22.365,19.6,7.525,
48260550,-0.818,0.147,0.691,-24.167,12.18,4.357,
48260570,-0.798,0.109,0.666,-24.57,0.332,0.612,
48260570,-0.736,0.095,0.676,-24.15,-7.56,-5.25,
48260580,-0.735,0.074,0.688,-24.78,-13.685,-7.7,
48260590,-0.743,0.074,0.683,-24.675,-20.51,-6.195,
48260600,-0.721,0.082,0.664,-24.517,-24.062,-2.747,
48260610,-0.659,0.087,0.679,-19.757,-24.377,-2.03,
48260620,-0.648,0.1,0.696,-15.242,-23.397,-1.015,
48260630,-0.713,0.116,0.709,-13.317,-18.795,0.577,
48260640,-0.863,0.139,0.705,-13.72,-22.942,-0.91,
48260650,-0.953,0.161,0.625,-14.892,-43.575,-6.597,
48260660,-0.892,0.171,0.64,-14.472,-60.515,-13.545,
48260670,-0.756,0.167,0.643,-14.805,-67.13,-19.407,
48260680,-0.666,0.133,0.651,-12.6,-67.532,-16.765,
48260690,-0.528,0.147,0.719,-11.567,-60.252,-10.307,
48260700,-0.453,0.171,0.749,-7.56,-47.372,-7.42,
48260710,-0.47,0.214,0.746,-4.2,-33.302,-6.265,
48260720,-0.581,0.202,0.717,-3.622,-22.557,-3.167,
48260730,-0.683,0.18,0.724,-6.58,-15.855,-1.977,
48260740,-0.708,0.171,0.721,-9.555,-15.067,-3.395,
48260750,-0.664,0.163,0.73,-7.752,-16.485,-3.36,
48260760,-0.621,0.154,0.75,-4.392,-17.57,-0.28,
48260770,-0.598,0.158,0.777,-3.57,-14.997,3.885,
48260780,-0.571,0.181,0.776,-5.687,-10.342,7.98,
48260790,-0.553,0.202,0.789,-7.297,-3.657,12.127,
48260800,-0.546,0.195,0.821,-7.052,2.712,14.77,
48260810,-0.528,0.184,0.788,-6.93,9.835,14.472,
48260820,-0.531,0.173,0.74,-2.765,15.382,14.14,
48260830,-0.591,0.161,0.733,2.012,20.772,14.665,
48260840,-0.649,0.165,0.663,3.587,22.907,14.157,
48260850,-0.679,0.183,0.656,5.652,22.417,13.667,
48260860,-0.728,0.178,0.683,5.652,20.335,12.985,
48260870,-0.734,0.18,0.698,5.092,15.155,11.235,
48260870,-0.702,0.186,0.734,4.847,10.85,10.22,
48260890,-0.669,0.181,0.733,5.652,8.767,9.415,
48260890,-0.644,0.18,0.697,7.332,8.575,8.925,
48260910,-0.628,0.197,0.679,9.905,7.42,8.75,
48260910,-0.648,0.211,0.686,10.237,6.335,9.345,
48260920,-0.683,0.208,0.696,7.507,5.232,9.065,
48260930,-0.696,0.195,0.702,4.497,3.902,7.175,
48260940,-0.698,0.182,0.742,3.307,0.455,6.37,
48260950,-0.693,0.18,0.768,2.467,0.157,5.985,
48260960,-0.721,0.198,0.739,1.995,-2.467,5.302,
48260970,-0.746,0.217,0.725,1.872,-5.477,3.85,
48260980,-0.72,0.236,0.726,0.385,-10.535,0.84,
48260990,-0.7,0.231,0.702,-2.975,-15.032,-1.295,
48261000,-0.759,0.215,0.635,-4.27,-22.12,-4.235,
48261010,-0.884,0.216,0.713,-6.947,-34.86,-8.417,
48261020,-0.882,0.221,0.76,-15.435,-47.635,-16.415,
48261030,-0.704,0.205,0.79,-17.185,-55.667,-23.03,
48261040,-0.54,0.14,0.779,-11.48,-56.122,-19.022,
48261050,-0.401,0.138,0.757,-4.34,-47.215,-13.072,
48261060,-0.395,0.183,0.801,-2.257,-31.395,-7.822,
48261070,-0.444,0.214,0.8,-4.62,-13.422,-4.445,
48261080,-0.521,0.188,0.774,-7.017,1.05,0.227,
48261090,-0.587,0.138,0.72,-6.702,9.45,4.637,
48261100,-0.661,0.128,0.712,-3.867,11.13,4.742,
48261110,-0.775,0.129,0.726,-2.45,7.052,4.795,
48261120,-0.783,0.147,0.72,-1.837,-2.24,1.75,
48261130,-0.638,0.162,0.783,0.577,-7.84,-2.712,
48261140,-0.415,0.15,0.808,3.342,-1.085,-1.487,
48261150,-0.304,0.12,0.751,9.502,17.062,8.575,
48261160,-0.338,0.122,0.722,17.867,37.31,18.025,
48261170,-0.53,0.128,0.7,21.21,54.25,26.705,
48261180,-0.598,0.171,0.694,19.897,63.385,27.562,
48261190,-0.687,0.163,0.72,19.95,64.522,30.712,
48261200,-0.767,0.178,0.741,16.187,61.18,32.305,
48261210,-0.762,0.225,0.697,15.242,57.557,29.137,
48261220,-0.886,0.236,0.661,17.36,48.37,26.197,
48261230,-0.961,0.295,0.643,16.8,31.342,19.232,
48261240,-0.977,0.357,0.63,14.017,8.82,10.062,
48261250,-0.866,0.375,0.65,10.412,-12.18,0.385,
48261260,-0.72,0.374,0.74,3.902,-23.52,-7.752,
48261260,-0.584,0.335,0.764,-5.407,-23.695,-10.482,
48261280,-0.5,0.264,0.747,-9.992,-15.33,-8.627,
48261280,-0.541,0.206,0.735,-8.05,-4.987,-5.022,
48261300,-0.641,0.198,0.697,-7.28,3.5,-0.752,
48261300,-0.718,0.211,0.696,-7.525,6.072,-3.167,
48261320,-0.784,0.178,0.669,-8.68,3.605,-4.41,
48261320,-0.804,0.151,0.522,-6.965,-7.35,-7.822,
48261330,-0.862,0.19,0.657,-2.992,-23.975,-12.145,
48261340,-0.874,0.2,0.701,-9.94,-37.502,-16.87,
48261350,-0.68,0.201,0.675,-11.497,-45.902,-19.582,
48261360,-0.584,0.127,0.737,-5.967,-50.172,-16.152,
48261370,-0.551,0.119,0.743,-4.672,-43.837,-12.67,
48261380,-0.554,0.181,0.767,-5.057,-34.597,-6.912,
48261390,-0.579,0.213,0.802,-3.902,-25.165,-4.357,
48261400,-0.529,0.223,0.764,-2.66,-15.032,-3.745,
48261410,-0.506,0.203,0.735,-0.857,-4.742,-0.332,
48261420,-0.569,0.19,0.737,-1.96,3.99,4.48,
48261430,-0.657,0.195,0.731,-5.04,11.007,6.912,
48261440,-0.705,0.213,0.704,-3.377,11.567,6.457,
48261450,-0.724,0.219,0.701,0.7,7.175,5.6,
48261460,-0.727,0.225,0.718,0.385,0.647,3.115,
48261470,-0.725,0.232,0.72,-3.745,-4.707,0.035,
48261480,-0.698,0.22,0.714,-4.865,-9.66,-2.8,
48261490,-0.621,0.2,0.724,-1.925,-11.252,-3.815,
48261500,-0.539,0.168,0.788,-0.577,-5.355,-1.627,
48261510,-0.485,0.12,0.678,2.24,6.37,2.572,
48261520,-0.58,0.102,0.71,8.715,12.215,9.555,
48261530,-0.689,0.137,0.704,8.61,16.625,12.337,
48261540,-0.738,0.19,0.689,9.87,15.61,11.147,
48261550,-0.797,0.194,0.69,12.075,7.542,9.817,
48261560,-0.768,0.217,0.712,10.29,-1.96,5.617,
48261570,-0.692,0.228,0.722,6.527,-6.965,3.57,
48261580,-0.636,0.224,0.718,4.62,-8.505,5.582,
48261580,-0.679,0.242,0.704,6.055,-8.627,2.817,
48261600,-0.715,0.273,0.726,5.95,-11.077,0.28,
48261600,-0.691,0.295,0.747,2.607,-13.632,-1.05,
48261620,-0.61,0.29,0.769,-1.4,-13.335,-2.695,
48261620,-0.544,0.274,0.777,-3.517,-8.575,-3.727,
48261640,-0.52,0.258,0.76,-4.69,1.015,-2.45,
48261640,-0.555,0.233,0.737,-6.055,10.447,0.682,
48261660,-0.625,0.212,0.718,-7.98,17.045,2.205,
48261660,-0.693,0.201,0.706,-9.275,18.97,2.012,
48261670,-0.762,0.185,0.629,-8.365,15.872,1.505,
48261680,-0.826,0.18,0.611,-5.022,3.622,-1.242,
48261690,-0.877,0.184,0.668,-6.107,-12.967,-6.23,
48261700,-0.837,0.192,0.69,-9.992,-27.912,-11.497,
48261710,-0.721,0.179,0.727,-9.537,-38.237,-15.155,
48261720,-0.602,0.159,0.721,-5.95,-41.877,-16.432,
48261730,-0.568,0.151,0.772,-2.835,-37.782,-11.427,
48261740,-0.529,0.172,0.788,-4.112,-29.365,-6.772,
48261750,-0.485,0.193,0.765,-1.942,-16.992,-3.745,
48261760,-0.523,0.177,0.722,1.837,-7.262,-0.332,
48261770,-0.626,0.167,0.729,1.417,-1.277,2.257,
48261780,-0.681,0.184,0.704,-1.557,0.7,2.275,
48261790,-0.689,0.192,0.715,1.54,-1.295,1.225,
48261800,-0.691,0.184,0.73,5.862,-5.985,1.855,
48261810,-0.678,0.2,0.733,6.457,-8.767,1.295,
48261820,-0.649,0.216,0.731,5.617,-10.08,0.245,
48261830,-0.619,0.213,0.728,6.457,-10.412,0.14,
48261840,-0.581,0.208,0.759,7.717,-9.485,0.525,
48261850,-0.521,0.193,0.808,6.685,-1.435,3.167,
48261860,-0.425,0.197,0.746,9.117,11.952,7.367,
48261870,-0.48,0.193,0.744,14.927,24.045,14,
48261880,-0.627,0.209,0.729,13.335,32.602,18.27,
48261890,-0.726,0.254,0.723,8.855,36.032,15.767,
48261900,-0.807,0.235,0.694,5.267,29.872,13.982,
48261910,-0.823,0.208,0.674,4.847,19.057,9.975,
48261920,-0.779,0.222,0.69,6.072,7.42,5.827,
48261930,-0.73,0.258,0.698,5.757,-1.05,2.905,
48261940,-0.703,0.272,0.711,3.902,-6.912,-0.245,
48261950,-0.658,0.251,0.718,0.595,-9.922,-1.732,
48261960,-0.596,0.237,0.727,-1.802,-9.572,-2.012,
48261970,-0.576,0.223,0.743,-2.31,-5.442,-1.295,
48261980,-0.628,0.212,0.723,-2.485,-0.437,1.575,
48261990,-0.676,0.22,0.71,-2.537,1.172,2.257,
48262000,-0.704,0.236,0.728,-3.08,0.07,1.067,
48262010,-0.732,0.245,0.693,-5.337,-3.395,-0.017,
48262010,-0.786,0.247,0.657,-6.44,-11.655,-3.132,
48262030,-0.848,0.242,0.69,-11.34,-24.517,-7.91,
48262030,-0.762,0.243,0.71,-16.275,-34.912,-14.612,
48262050,-0.65,0.207,0.747,-16.59,-43.015,-16.94,
48262050,-0.563,0.162,0.761,-12.687,-42.192,-13.422,
48262070,-0.493,0.167,0.772,-8.907,-34.79,-8.995,
48262070,-0.458,0.184,0.77,-6.51,-21.507,-6.16,
48262080,-0.486,0.169,0.742,-4.06,-8.592,-2.275,
48262090,-0.584,0.149,0.752,-3.955,0.927,2.135,
48262100,-0.642,0.178,0.719,-3.517,6.632,3.097,
48262110,-0.768,0.176,0.707,-1.855,4.602,3.57,
48262120,-0.81,0.185,0.706,-1.68,-4.952,0.28,
48262130,-0.728,0.193,0.714,-1.925,-15.417,-5.11,
48262140,-0.594,0.161,0.79,-0.875,-19.057,-4.882,
48262150,-0.424,0.155,0.737,3.64,-11.48,0.455,
48262160,-0.435,0.177,0.778,11.147,0.14,7.175,
48262170,-0.507,0.224,0.746,10.447,14.647,10.587,
48262180,-0.632,0.236,0.712,8.085,23.275,9.625,
48262190,-0.736,0.208,0.716,5.092,22.242,11.095,
48262200,-0.744,0.206,0.708,4.655,15.855,9.047,
48262210,-0.72,0.217,0.705,8.277,9.03,6.352,
48262220,-0.715,0.224,0.719,10.115,1.575,4.83,
48262230,-0.662,0.247,0.735,8.067,-2.782,2.66,
48262240,-0.604,0.242,0.734,5.162,-3.745,2.467,
48262250,-0.642,0.243,0.71,3.78,-3.255,2.31,
48262260,-0.665,0.268,0.731,3.447,-3.5,0.227,
48262270,-0.648,0.26,0.751,2.135,-3.64,-0.367,
48262280,-0.619,0.229,0.76,-0.21,-2.975,-0.367,
48262290,-0.603,0.215,0.754,-1.907,0.437,-0.385,
48262300,-0.613,0.222,0.749,-2.1,3.92,0.647,
48262310,-0.665,0.226,0.724,-3.342,5.985,1.487,
48262320,-0.743,0.228,0.659,-4.882,2.502,-0.56,
48262330,-0.805,0.231,0.694,-8.767,-8.207,-4.025,
48262330,-0.771,0.228,0.737,-14.542,-17.99,-7.822,
48262350,-0.656,0.212,0.735,-15.697,-24.185,-10.85,
48262350,-0.581,0.179,0.791,-11.742,-24.622,-10.045,
48262370,-0.555,0.177,0.744,-9.992,-17.71,-7.157,
48262370,-0.551,0.2,0.726,-6.3,-11.112,-3.832,
48262390,-0.581,0.196,0.77,-7.787,-7.035,-1.05,
48262390,-0.594,0.193,0.723,-9.695,-0.805,-0.595,
48262410,-0.619,0.168,0.706,-7.367,1.925,1.085,
48262410,-0.643,0.139,0.728,-4.882,2.537,3.64,
48262420,-0.616,0.163,0.725,-3.307,3.92,3.027,
48262430,-0.62,0.175,0.713,1.015,4.445,3.412,
48262440,-0.68,0.177,0.719,3.815,2.607,4.655,
48262450,-0.704,0.206,0.719,2.677,0.507,3.36,
48262460,-0.674,0.215,0.718,2.38,-3.202,1.207,
48262470,-0.573,0.179,0.779,3.867,-1.96,1.522,
48262480,-0.445,0.152,0.724,8.295,7.227,4.287,
48262490,-0.467,0.159,0.735,15.872,18.322,10.902,
48262500,-0.608,0.199,0.741,16.59,27.072,15.522,
48262510,-0.68,0.297,0.782,10.535,32.497,14.332,
48262520,-0.718,0.288,0.707,6.842,34.072,12.932,
48262530,-0.838,0.219,0.661,6.965,25.445,11.462,
48262540,-0.787,0.24,0.687,2.905,13.615,5.722,
48262550,-0.731,0.265,0.7,1.365,5.652,2.432,
48262560,-0.68,0.254,0.723,0.577,-0.385,1.767,
48262570,-0.601,0.245,0.753,0.875,-0.42,0.455,
48262580,-0.551,0.238,0.757,-1.067,5.215,1.575,
48262590,-0.561,0.24,0.739,-2.152,14.542,2.502,
48262600,-0.661,0.237,0.718,-3.587,20.772,4.147,
48262610,-0.767,0.233,0.647,-7,21.14,2.73,
48262620,-0.869,0.208,0.638,-8.522,10.535,-2.887,
48262630,-0.848,0.203,0.667,-12.022,-4.427,-8.4,
48262640,-0.743,0.208,0.665,-10.22,-16.38,-12.757,
48262650,-0.742,0.186,0.673,-6.562,-26.022,-11.76,
48262660,-0.762,0.189,0.707,-11.27,-33.705,-10.29,
48262670,-0.678,0.226,0.731,-14.682,-36.942,-14.28,
48262680,-0.622,0.205,0.731,-12.162,-36.96,-14.315,
48262690,-0.598,0.169,0.734,-8.592,-34.23,-11.287,
48262700,-0.585,0.165,0.732,-9.38,-29.225,-7.77,
48262710,-0.578,0.185,0.753,-9.537,-23.047,-6.422,
48262720,-0.604,0.191,0.756,-8.067,-17.867,-4.655,
48262730,-0.637,0.194,0.735,-6.265,-14.507,-3.692,
48262740,-0.671,0.188,0.745,-7.07,-13.667,-2.922,
48262750,-0.637,0.187,0.733,-9.222,-12.95,-3.045,
48262760,-0.589,0.183,0.741,-8.4,-11.427,-2.135,
48262760,-0.564,0.177,0.735,-7.07,-8.645,-0.017,
48262780,-0.581,0.183,0.744,-6.982,-3.29,2.292,
48262780,-0.609,0.184,0.75,-8.137,1.277,3.447,
48262800,-0.648,0.175,0.751,-8.12,4.445,4.2,
48262800,-0.648,0.172,0.725,-5.057,5.442,4.112,
48262820,-0.657,0.185,0.715,-0.542,5.652,4.287,
48262820,-0.696,0.2,0.709,0.577,3.622,3.447,
48262830,-0.724,0.206,0.709,-1.505,0.07,1.242,
48262840,-0.709,0.191,0.71,-2.135,-5.617,-1.662,
48262850,-0.642,0.173,0.709,-0.017,-9.835,-3.447,
48262860,-0.517,0.168,0.842,1.295,-6.23,-1.855,
48262870,-0.389,0.15,0.722,2.432,9.117,2.555,
48262880,-0.486,0.149,0.746,10.972,21.63,11.585,
48262890,-0.695,0.17,0.728,8.295,30.31,17.395,
48262900,-0.794,0.232,0.678,2.817,30.292,14.035,
48262910,-0.817,0.228,0.716,2.642,19.355,8.697,
48262920,-0.791,0.202,0.687,2.502,7.455,4.375,
48262930,-0.752,0.221,0.71,1.155,-2.24,0.752,
48262940,-0.69,0.242,0.729,-0.927,-9.117,-2.887,
48262950,-0.652,0.229,0.754,-2.117,-11.882,-4.532,
48262960,-0.595,0.206,0.762,-3.762,-9.922,-4.112,
48262970,-0.543,0.189,0.745,-3.412,-2.345,-1.802,
48262980,-0.583,0.175,0.736,-2.117,5.215,2.415,
48262990,-0.658,0.189,0.725,-2.887,11.165,4.445,
48263000,-0.681,0.218,0.723,-4.077,12.967,2.852,
48263010,-0.724,0.214,0.685,-4.812,10.867,1.382,
48263020,-0.803,0.225,0.683,-6.265,1.75,-1.575,
48263030,-0.839,0.274,0.772,-12.25,-8.697,-6.842,
48263040,-0.719,0.31,0.826,-18.41,-12.635,-11.742,
48263050,-0.558,0.258,0.842,-18.917,-8.032,-12.18,
48263060,-0.533,0.18,0.794,-15.802,2.205,-8.505,
48263070,-0.773,0.142,0.907,-19.022,-7.822,-8.715,
48263080,-0.673,0.219,0.748,-19.827,-32.672,-14.542,
48263080,-0.665,0.232,0.761,-11.655,-24.64,-9.975,
48263100,-0.521,0.282,0.726,-5.46,-13.02,-9.817,
48263100,-0.515,0.262,0.707,-7.7,7.945,-9.467,
48263120,-0.583,0.226,0.702,-10.08,28.472,-12.355,
48263120,-0.704,0.188,0.713,-8.68,41.02,-15.505,
48263140,-0.798,0.191,0.674,-4.532,42.63,-15.33,
48263140,-0.801,0.21,0.642,0.472,34.79,-15.75,
48263160,-0.738,0.26,0.643,5.162,26.53,-19.092,
48263160,-0.719,0.259,0.628,3.237,22.382,-18.48,
48263170,-0.705,0.252,0.633,-2.87,19.267,-21.472,
48263180,-0.74,0.224,0.669,-9.24,15.277,-20.58,
48263190,-0.74,0.188,0.646,-14.367,7.962,-20.597,
48263200,-0.743,0.157,0.614,-14.332,0.035,-20.02,
48263210,-0.766,0.117,0.612,-11.707,-5.967,-16.922,
48263220,-0.756,0.105,0.564,-8.715,-12.092,-18.567,
48263230,-0.754,0.095,0.551,-6.737,-18.305,-18.34,
48263240,-0.697,0.116,0.569,-4.655,-26.11,-18.217,
48263250,-0.592,0.159,0.602,0.14,-31.325,-17.99,
48263260,-0.504,0.193,0.642,4.742,-32.672,-13.842,
48263270,-0.439,0.206,0.691,6.177,-28.735,-7.542,
48263280,-0.417,0.195,0.71,4.497,-22.277,-0.612,
48263290,-0.454,0.172,0.744,0.875,-12.775,7.595,
48263300,-0.536,0.13,0.766,-3.762,-2.555,14.262,
48263310,-0.609,0.089,0.817,-6.895,5.932,16.135,
48263320,-0.628,0.055,0.86,-7.192,11.2,13.02,
48263330,-0.669,0.019,0.89,-6.667,18.445,11.55,
48263340,-0.691,-0.018,0.888,-5.005,27.265,9.082,
48263350,-0.726,-0.049,0.838,-1.33,34.562,5.057,
48263360,-0.748,-0.039,0.772,0.332,36.015,3.377,
48263370,-0.736,-0.029,0.72,4.305,31.64,4.62,
48263380,-0.736,-0.001,0.671,5.845,27.807,7.017,
48263390,-0.71,0.061,0.662,3.885,20.457,4.34,
48263400,-0.738,0.07,0.665,2.152,15.855,4.077,
48263410,-0.744,0.081,0.677,-3.955,9.817,2.555,
48263420,-0.766,0.075,0.691,-11.357,6.492,2.292,
48263430,-0.768,0.076,0.713,-15.19,4.602,1.995,
48263440,-0.848,0.074,0.752,-16.012,3.5,6.877,
48263450,-0.852,0.113,0.769,-15.382,-2.45,7.857,
48263460,-0.817,0.155,0.824,-14.665,-11.777,4.777,
48263470,-0.742,0.18,0.812,-17.342,-25.9,3.202,
48263480,-0.64,0.208,0.765,-21.192,-33.757,4.725,
48263490,-0.523,0.22,0.743,-23.082,-33.757,9.642,
48263500,-0.416,0.204,0.68,-22.155,-24.692,15.627,
48263510,-0.465,0.153,0.655,-18.882,-3.675,21.07,
48263510,-0.592,0.133,0.623,-16.975,16.012,21.437,
48263530,-0.727,0.145,0.641,-14.21,26.232,14.157,
48263530,-0.819,0.17,0.653,-10.92,25.76,6.807,
48263550,-0.888,0.165,0.646,-8.137,17.815,1.4,
48263550,-0.902,0.162,0.652,-6.632,6.79,-4.97,
48263570,-0.907,0.144,0.626,-11.182,-5.827,-9.327,
48263570,-0.863,0.186,0.611,-18.34,-16.957,-9.275,
48263580,-0.92,0.072,0.638,-25.182,-27.895,4.357,
48263590,-0.752,0.073,0.593,-26.11,-41.125,-0.262,
48263600,-0.627,0.085,0.63,-19.81,-42.647,-6.44,
48263610,-0.563,0.08,0.664,-14.192,-35.157,-5.512,
48263620,-0.581,0.066,0.675,-13.93,-24.675,-0.175,
48263630,-0.61,0.061,0.702,-15.627,-14.927,2.537,
48263640,-0.652,0.054,0.733,-13.772,-8.592,3.745,
48263650,-0.71,0.04,0.729,-11.392,-7,6.965,
48263660,-0.711,0.056,0.733,-9.345,-8.995,6.072,
48263670,-0.731,0.058,0.73,-9.555,-9.537,2.555,
48263680,-0.823,0.047,0.673,-10.85,-18.515,-1.277,
48263690,-0.836,0.052,0.728,-13.422,-26.075,-0.175,
48263700,-0.82,0.033,0.699,-16.957,-31.5,-6.142,
48263710,-0.777,0.027,0.7,-17.71,-39.34,-11.095,
48263720,-0.705,0.016,0.711,-16.292,-45.587,-13.002,
48263730,-0.634,0.029,0.719,-12.582,-47.46,-13.457,
48263740,-0.59,0.052,0.733,-9.957,-45.832,-11.13,
48263750,-0.556,0.066,0.767,-9.45,-39.497,-7.28,
48263760,-0.548,0.066,0.767,-10.01,-30.345,0.525,
48263770,-0.501,0.107,0.764,-10.78,-21.56,1.452,
48263780,-0.541,0.097,0.789,-6.912,-11.287,2.205,
48263790,-0.615,0.099,0.785,-6.317,-2.572,4.41,
48263800,-0.678,0.118,0.779,-7.612,0.665,4.83,
48263810,-0.694,0.124,0.771,-8.382,0.28,3.692,
48263820,-0.627,0.126,0.828,-8.505,0.997,2.555,
48263830,-0.532,0.075,0.829,-10.027,9.275,3.64,
48263830,-0.5,0.03,0.781,-8.855,18.725,7.28,
48263850,-0.563,0.043,0.766,-5.635,24.587,12.88,
48263850,-0.672,0.058,0.747,-4.34,27.79,15.435,
48263870,-0.751,0.066,0.724,-5.74,24.885,13.44,
48263870,-0.755,0.049,0.689,-5.25,17.657,8.225,
48263890,-0.756,0.017,0.654,-3.797,12.022,8.207,
48263890,-0.687,0.045,0.672,-2.555,7.385,5.512,
48263910,-0.676,0.062,0.686,-1.242,5.25,4.322,
48263910,-0.713,0.066,0.685,-0.945,2.292,3.36,
48263920,-0.693,0.087,0.716,-0.735,-1.872,1.505,
48263930,-0.632,0.097,0.758,-0.577,-4.707,0.735,
48263940,-0.587,0.084,0.767,-0.577,-4.34,2.082,
48263950,-0.607,0.07,0.759,-0.28,-0.735,5.005,
48263960,-0.668,0.079,0.76,-0.35,1.662,7.035,
48263970,-0.711,0.098,0.756,-0.875,1.452,6.702,
48263980,-0.727,0.085,0.731,-1.382,-2.607,5.18,
48263990,-0.736,0.046,0.642,-1.855,-7.472,2.922,
48264000,-0.791,0.049,0.576,1.96,-15.697,-1.102,
48264010,-0.906,0.1,0.761,0.28,-30.222,-6.3,
48264020,-0.852,0.133,0.844,-11.655,-38.692,-16.082,
48264030,-0.618,0.102,0.815,-13.387,-42.997,-22.557,
48264040,-0.457,0.002,0.771,-4.515,-41.3,-17.867,
48264050,-0.432,-0.013,0.789,1.697,-29.592,-8.855,
48264060,-0.501,0.042,0.745,-0.367,-15.995,0.087,
48264070,-0.558,0.083,0.759,-1.242,-7.122,0.997,
48264080,-0.625,0.025,0.75,0.612,-1.12,3.29,
48264090,-0.643,0,0.742,0.507,2.765,4.76,
48264100,-0.647,0.014,0.742,1.085,3.867,5.232,
48264110,-0.683,0.046,0.754,4.112,5.967,6.037,
48264120,-0.707,0.093,0.752,6.16,4.672,6.807,
48264130,-0.65,0.127,0.846,5.407,2.712,5.53,
48264140,-0.523,0.112,0.836,1.61,6.86,5.775,
48264150,-0.413,0.087,0.731,5.88,15.61,10.29,
48264160,-0.505,0.049,0.714,12.53,24.745,17.185,
48264170,-0.666,0.077,0.709,10.587,32.62,21.297,
48264180,-0.78,0.124,0.744,4.987,30.642,19.32,
48264190,-0.809,0.124,0.728,3.727,22.382,14.875,
48264200,-0.794,0.099,0.702,6.055,11.515,10.762,
48264210,-0.744,0.112,0.71,6.195,1.715,6.3,
48264220,-0.695,0.149,0.766,2.817,-4.882,1.995,
48264230,-0.67,0.158,0.795,-1.382,-6.912,-0.297,
48264240,-0.649,0.144,0.775,-2.047,-6.072,-0.875,
48264250,-0.638,0.127,0.756,-0.42,-5.582,-0.087,
48264250,-0.646,0.127,0.762,-1.942,-5.232,0.577,
48264260,-0.667,0.12,0.769,-6.02,-5.215,0.402,
48264270,-0.692,0.087,0.743,-8.732,-6.107,-0.682,
48264280,-0.72,0.048,0.648,-7.315,-10.045,-4.147,
48264290,-0.843,0.032,0.61,-3.64,-20.16,-5.302,
48264300,-0.95,0.08,0.741,-9.047,-37.135,-12.845,
48264310,-0.87,0.122,0.787,-18.025,-49.367,-23.905,
48264320,-0.665,0.066,0.827,-16.992,-57.102,-29.645,
48264330,-0.504,-0.043,0.819,-9.905,-53.41,-26.25,
48264340,-0.413,-0.049,0.757,-4.847,-41.615,-15.365,
48264350,-0.386,0.006,0.772,-1.032,-24.535,-7.35,
48264360,-0.505,0.005,0.728,0.052,-7.735,-1.4,
48264370,-0.596,0.023,0.722,-1.855,2.38,-2.257,
48264380,-0.665,0.015,0.697,-0.717,4.935,-1.977,
48264390,-0.706,0.011,0.791,1.207,2.065,-1.207,
48264400,-0.589,0.064,0.842,0.332,1.242,-0.892,
48264410,-0.509,0.092,0.831,2.817,4.567,4.025,
48264420,-0.53,0.066,0.799,4.795,10.71,10.097,
48264430,-0.551,0.088,0.785,3.045,17.167,11.742,
48264440,-0.533,0.108,0.765,1.242,20.177,11.637,
48264450,-0.521,0.127,0.773,4.025,24.465,13.16,
48264460,-0.598,0.13,0.766,5.67,27.247,16.345,
48264470,-0.693,0.119,0.683,2.03,24.115,17.08,
48264480,-0.671,0.2,0.739,3.045,23.012,17.71,
48264490,-0.76,0.143,0.675,4.357,14.927,16.642,
48264500,-0.801,0.156,0.718,3.115,7.227,9.555,
48264510,-0.778,0.173,0.782,0.437,-1.82,1.925,
48264520,-0.713,0.141,0.78,-0.28,-8.802,1.085,
48264530,-0.609,0.088,0.769,0.787,-12.827,-0.717,
48264540,-0.57,0.053,0.764,0.997,-10.535,-1.4,
48264550,-0.632,0.02,0.685,0,-6.825,0.49,
48264560,-0.772,0.001,0.622,1.575,-10.657,0.822,
48264570,-0.883,0.054,0.738,0.332,-23.397,-3.185,
48264580,-0.824,0.106,0.818,-6.58,-32.305,-11.095,
48264580,-0.636,0.073,0.839,-8.645,-33.775,-15.995,
48264600,-0.527,-0.038,0.758,-5.617,-28.98,-13.86,
48264600,-0.456,-0.021,0.761,-2.135,-21.84,-7.875,
48264620,-0.49,0.034,0.791,-2.625,-10.745,1.645,
48264620,-0.546,0.098,0.793,-5.53,-0.542,4.305,
48264640,-0.644,0.087,0.759,-4.322,6.02,4.235,
48264640,-0.719,0.085,0.747,-3.22,6.422,3.972,
48264660,-0.718,0.128,0.762,-4.095,3.43,2.415,
48264660,-0.633,0.157,0.857,-6.177,0.665,0.647,
48264670,-0.471,0.118,0.801,-6.125,6.037,0.98,
48264680,-0.44,0.066,0.725,1.347,12.215,6.195,
48264690,-0.535,0.061,0.721,4.112,19.215,13.457,
48264700,-0.64,0.097,0.71,1.19,23.327,16.205,
48264710,-0.723,0.101,0.726,0.77,21.612,15.137,
48264720,-0.692,0.089,0.729,3.517,15.89,11.55,
48264730,-0.693,0.059,0.709,7.682,11.252,11.567,
48264740,-0.682,0.089,0.744,8.365,7.437,9.905,
48264750,-0.669,0.127,0.79,6.125,6.002,8.295,
48264760,-0.672,0.123,0.795,3.92,4.9,7.63,
48264770,-0.665,0.114,0.77,4.357,5.232,6.527,
48264780,-0.658,0.117,0.756,5.74,4.025,5.565,
48264790,-0.669,0.114,0.757,4.025,3.64,5.39,
48264800,-0.696,0.092,0.728,0.542,2.152,4.567,
48264810,-0.732,0.053,0.699,-1.19,-1.732,3.57,
48264820,-0.797,0.007,0.589,-0.297,-11.025,0.56,
48264830,-0.883,0.062,0.711,1.19,-26.565,-5.862,
48264840,-0.877,0.131,0.813,-6.247,-37.03,-13.912,
48264850,-0.701,0.137,0.8,-9.24,-41.492,-21.367,
48264860,-0.504,0.074,0.796,-3.832,-41.615,-19.897,
48264870,-0.416,0.017,0.773,-0.892,-32.182,-10.132,
48264880,-0.424,0.068,0.755,-4.69,-19.652,-1.487,
48264890,-0.52,0.115,0.788,-6.58,-6.912,-0.665,
48264900,-0.674,0.094,0.786,-5.285,-0.787,2.012,
48264910,-0.698,0.086,0.755,-4.445,-1.715,2.1,
48264920,-0.672,0.09,0.737,-2.782,-4.672,0.14,
48264930,-0.664,0.091,0.748,-2.747,-7.14,-1.312,
48264940,-0.673,0.088,0.754,-4.672,-9.782,-3.01,
48264940,-0.668,0.085,0.751,-4.97,-12.95,-4.637,
48264960,-0.668,0.075,0.751,-2.45,-15.68,-4.707,
48264960,-0.658,0.093,0.739,-0.717,-18.34,-5.232,
48264980,-0.666,0.119,0.745,0.122,-20.667,-7.28,
48264980,-0.685,0.127,0.75,-0.507,-23.012,-8.855,
48265000,-0.673,0.121,0.746,-1.26,-25.497,-11.007,
48265000,-0.654,0.107,0.797,-2.345,-27.405,-11.515,
48265010,-0.612,0.096,0.818,-4.34,-27.09,-9.835,
48265020,-0.57,0.086,0.808,-3.99,-26.88,-6.597,
48265030,-0.548,0.074,0.83,-3.727,-25.41,-1.417,
48265040,-0.543,0.051,0.814,-5.127,-22.872,2.415,
48265050,-0.53,0.032,0.815,-6.772,-18.13,3.92,
48265060,-0.513,0.008,0.803,-7.962,-13.685,5.005,
48265070,-0.5,-0.007,0.8,-7.07,-8.75,5.687,
48265080,-0.501,-0.017,0.783,-3.885,-2.17,5.845,
48265090,-0.53,0.005,0.752,1.347,4.095,5.775,
48265100,-0.595,0.041,0.743,5.005,7.507,6.825,
48265110,-0.683,0.07,0.747,4.077,9.187,6.667,
48265120,-0.721,0.086,0.779,0.805,7.192,3.587,
48265130,-0.686,0.073,0.897,-1.82,2.73,-0.402,
48265140,-0.554,0.048,0.824,-2.135,-0.402,-0.7,
48265150,-0.426,0.085,0.792,5.18,-0.665,3.132,
48265160,-0.464,0.116,0.834,8.26,7.857,8.4,
48265170,-0.548,0.142,0.809,2.712,18.2,9.362,
48265180,-0.624,0.114,0.768,-1.505,19.95,10.412,
48265190,-0.658,0.074,0.774,-1.557,17.552,9.695,
48265200,-0.687,0.064,0.76,-1.067,13.72,7.945,
48265210,-0.71,0.083,0.761,-0.367,9.292,6.457,
48265220,-0.722,0.101,0.75,-0.105,2.555,3.902,
48265230,-0.695,0.112,0.756,-0.35,-5.162,-0.455,
48265240,-0.64,0.107,0.805,-2.205,-10.745,-3.517,
48265250,-0.578,0.085,0.807,-4.655,-11.445,-4.987,
48265260,-0.56,0.06,0.8,-3.5,-10.832,-3.43,
48265270,-0.591,0.057,0.78,-1.47,-10.237,-1.102,
48265280,-0.639,0.089,0.656,-0.07,-11.585,-0.805,
48265290,-0.779,0.112,0.715,1.47,-17.255,-2.205,
48265300,-0.892,0.114,0.811,-8.872,-27.037,-10.815,
48265310,-0.835,0.093,0.78,-17.465,-38.535,-20.825,
48265320,-0.615,0.063,0.818,-13.457,-50.417,-24.937,
48265330,-0.455,0.011,0.872,-6.265,-46.725,-16.992,
48265330,-0.343,0.042,0.83,-5.425,-35.175,-10.062,
48265350,-0.33,0.069,0.831,-2.327,-20.51,-1.662,
48265350,-0.376,0.058,0.832,-0.682,-4.2,5.407,
48265370,-0.441,0.04,0.787,-1.19,8.277,7.525,
48265370,-0.534,0.035,0.762,-4.252,16.73,7.98,
48265390,-0.681,0.006,0.762,-4.182,18.742,9.397,
48265390,-0.767,0.019,0.748,0.63,15.977,6.912,
48265410,-0.77,0.056,0.747,4.007,9.362,2.24,
48265410,-0.669,0.095,0.801,4.935,3.22,-3.972,
48265420,-0.542,0.067,0.86,0.087,1.995,-5.687,
48265430,-0.44,0.009,0.732,0.087,6.65,-0.717,
48265440,-0.418,0.041,0.794,6.632,10.202,4.55,
48265450,-0.51,0.086,0.828,8.505,20.807,8.662,
48265460,-0.611,0.108,0.814,6.772,25.252,11.427,
48265470,-0.658,0.077,0.801,5.845,21.962,11.812,
48265480,-0.634,0.063,0.769,5.81,17.5,9.117,
48265490,-0.668,0.064,0.758,5.985,14.7,8.575,
48265500,-0.744,0.087,0.749,5.075,10.027,6.422,
48265510,-0.798,0.117,0.77,2.24,2.1,1.242,
48265520,-0.772,0.138,0.795,-1.487,-9.24,-6.002,
48265530,-0.675,0.124,0.822,-5.005,-18.83,-11.427,
48265540,-0.556,0.096,0.842,-7.245,-24.5,-12.04,
48265550,-0.47,0.081,0.825,-7.227,-23.24,-5.897,
48265560,-0.407,0.119,0.816,-6.807,-17.535,-5.512,
48265570,-0.511,0.118,0.681,-2.537,-7.49,-0.962,
48265580,-0.742,0.122,0.747,-3.255,-6.632,1.732,
48265590,-0.873,0.117,0.808,-14.787,-12.705,-6.912,
48265600,-0.837,0.055,0.782,-20.79,-23.45,-12.915,
48265610,-0.636,0,0.8,-15.925,-33.582,-19.32,
48265620,-0.5,-0.026,0.788,-5.687,-32.847,-16.555,
48265630,-0.446,0.017,0.798,-1.575,-25.865,-6.702,
48265640,-0.448,0.054,0.774,-3.727,-18.882,-1.102,
48265650,-0.467,0.038,0.79,-4.2,-12.127,3.447,
48265660,-0.488,-0.003,0.832,-5.967,-6.37,7.787,
48265670,-0.49,-0.034,0.788,-4.357,-1.452,8.645,
48265670,-0.53,-0.028,0.766,2.572,2.432,7.752,
48265690,-0.627,0.016,0.781,8.487,4.077,7.997,
48265690,-0.692,0.076,0.801,7.315,2.117,5.985,
48265710,-0.682,0.098,0.798,3.745,-1.627,2.572,
48265710,-0.649,0.081,0.781,3.517,-4.41,1.312,
48265730,-0.594,0.091,0.769,4.725,-5.162,0.735,
48265730,-0.562,0.122,0.791,6.265,-0.542,-0.787,
48265750,-0.561,0.102,0.906,4.445,6.247,-0.315,
48265750,-0.465,0.07,0.823,1.715,14.14,0.56,
48265760,-0.448,0.082,0.857,7.35,13.195,7.105,
48265770,-0.521,0.079,0.83,6.632,14.962,13.772,
48265780,-0.582,0.095,0.797,3.675,19.775,12.582,
48265790,-0.621,0.081,0.779,1.102,20.177,11.305,
48265800,-0.655,0.067,0.797,0.28,16.712,9.765,
48265810,-0.679,0.06,0.781,-1.155,14.42,7.77,
48265820,-0.697,0.073,0.776,-0.017,8.75,5.845,
48265830,-0.691,0.087,0.752,0.262,0.577,3.552,
48265840,-0.651,0.11,0.778,0.192,-7.175,-0.175,
48265850,-0.584,0.104,0.843,-4.445,-11.025,-1.347,
48265860,-0.507,0.074,0.805,-7.595,-11.445,-1.067,
48265870,-0.518,0.043,0.793,-3.797,-9.712,2.905,
48265880,-0.562,0.072,0.776,-1.4,-10.062,3.85,
48265890,-0.668,0.106,0.678,-0.035,-10.815,3.797,
48265900,-0.86,0.123,0.796,-3.762,-16.59,3.395,
48265910,-0.859,0.11,0.796,-14.945,-25.112,-7.507,
48265920,-0.714,0.064,0.772,-15.505,-35.91,-15.435,
48265930,-0.529,0.016,0.821,-9.695,-39.795,-17.325,
48265940,-0.436,-0.009,0.832,-5.285,-32.725,-13.755,
48265950,-0.428,0.015,0.843,-6.492,-22.33,-6.195,
48265960,-0.424,0.045,0.802,-4.13,-11.865,-4.392,
48265970,-0.466,0.033,0.817,2.03,-2.275,-0.437,
48265980,-0.524,0.016,0.787,3.08,4.83,3.727,
48265990,-0.614,0.014,0.747,1.872,8.68,5.25,
48266000,-0.694,0.028,0.756,2.467,6.685,4.305,
48266010,-0.713,0.047,0.783,2.782,1.837,1.417,
48266020,-0.642,0.073,0.789,3.342,-1.557,-3.167,
48266030,-0.599,0.058,0.834,5.845,-0.507,-1.89,
48266040,-0.539,0.035,0.88,4.007,0.7,-2.03,
48266050,-0.399,0.074,0.787,5.705,4.392,-2.065,
48266060,-0.423,0.097,0.841,11.445,8.242,4.69,
48266070,-0.511,0.103,0.811,9.66,16.835,9.817,
48266080,-0.621,0.088,0.807,5.652,22.452,11.2,
48266080,-0.629,0.079,0.779,2.712,19.827,9.677,
48266100,-0.619,0.063,0.796,5.022,15.732,9.695,
48266100,-0.627,0.061,0.81,3.937,13.387,9.677,
48266120,-0.62,0.09,0.8,2.695,12.862,7.455,
48266120,-0.63,0.092,0.798,2.712,10.937,7.28,
48266140,-0.625,0.099,0.801,2.012,9.31,5.915,
48266140,-0.619,0.112,0.778,0.087,7.42,4.515,
48266160,-0.633,0.129,0.779,-0.472,5.95,3.657,
48266160,-0.651,0.151,0.791,-1.697,3.167,1.522,
48266170,-0.637,0.152,0.811,-2.747,1.61,-2.047,
48266180,-0.602,0.118,0.805,-3.85,-0.577,-2.66,
48266190,-0.549,0.077,0.793,-4.585,-1.505,-2.607,
48266200,-0.549,0.056,0.826,-5.32,-1.312,-1.907,
48266210,-0.601,0.044,0.748,-7.21,-0.297,0.297,
48266220,-0.713,0.049,0.617,-2.922,-3.885,2.765,
48266230,-0.884,0.114,0.784,-4.095,-14.787,-1.067,
48266240,-0.853,0.119,0.787,-15.347,-25.147,-13.685,
48266250,-0.663,0.072,0.782,-15.802,-34.982,-20.737,
48266260,-0.492,0.014,0.833,-11.217,-37.187,-18.585,
48266270,-0.415,-0.003,0.815,-7.805,-25.76,-14.735,
48266280,-0.446,0.029,0.827,-4.865,-13.37,-9.152,
48266290,-0.523,0.035,0.797,-3.325,-4.725,-3.902,
48266300,-0.578,0.025,0.789,-3.132,-1.015,-1.295,
48266310,-0.596,0.003,0.752,-3.622,0.84,-0.297,
48266320,-0.609,-0.007,0.737,-1.277,1.207,-0.175,
48266330,-0.64,0.006,0.752,1.592,0.98,-0.157,
48266340,-0.65,0.038,0.777,2.905,-0.612,-1.68,
48266350,-0.615,0.067,0.793,3.185,-2.082,-3.482,
48266360,-0.569,0.085,0.797,3.552,-2.135,-3.43,
48266370,-0.578,0.082,0.802,4.865,2.047,-0.035,
48266380,-0.545,0.097,0.883,2.327,6.317,1.452,
48266390,-0.454,0.058,0.785,-0.175,13.632,0.175,
48266400,-0.464,0.031,0.782,7.822,17.867,5.425,
48266410,-0.588,0.03,0.812,8.19,19.267,12.022,
48266420,-0.642,0.085,0.787,3.272,19.442,11.445,
48266420,-0.654,0.094,0.797,3.727,14.805,10.675,
48266440,-0.626,0.076,0.792,5.285,11.952,9.467,
48266440,-0.625,0.081,0.773,4.2,10.115,8.452,
48266460,-0.652,0.097,0.771,2.24,7.997,8.137,
48266460,-0.676,0.114,0.779,1.715,4.602,6.072,
48266480,-0.69,0.112,0.769,1.662,-0.595,3.535,
48266480,-0.67,0.098,0.802,0.367,-6.037,0.927,
48266500,-0.618,0.071,0.805,-2.625,-9.1,-1.26,
48266500,-0.569,0.051,0.799,-2.852,-10.062,-1.47,
48266510,-0.566,0.048,0.806,-0.927,-8.697,0.192,
48266520,-0.596,0.07,0.71,0.21,-8.47,1.172,
48266530,-0.712,0.124,0.722,2.45,-11.13,0.42,
48266540,-0.866,0.138,0.809,-4.567,-16.222,-4.602,
48266550,-0.845,0.109,0.774,-13.422,-24.762,-14.175,
48266560,-0.666,0.056,0.787,-13.09,-36.19,-20.842,
48266570,-0.491,0.003,0.816,-7.77,-36.575,-22.277,
48266580,-0.429,-0.003,0.794,-3.622,-26.967,-18.532,
48266590,-0.484,-0.001,0.773,-0.595,-15.33,-11.322,
48266600,-0.514,0.005,0.755,0.647,-6.405,-10.36,
48266610,-0.538,-0.017,0.739,5.862,3.167,-8.487,
48266620,-0.542,-0.038,0.731,10.325,12.46,-6.422,
48266630,-0.539,-0.037,0.708,14.682,26.932,-4.987,
48266640,-0.616,-0.021,0.768,17.342,35.14,-5.04,
48266650,-0.672,-0.008,0.823,16.31,39.042,-8.12,
48266660,-0.658,-0.03,0.784,16.047,40.127,-10.85,
48266670,-0.6,-0.087,0.686,22.067,45.307,-9.747,
