#Format version: 1.0
time[ms],accX[g],accY[g],accZ[g],Value 1,Value 2,Value 3,
54402940,-0.728,0.502,0.697,-10.902,-11.62,-18.41,
54402940,-0.662,0.535,0.654,-3.395,-24.657,-12.18,
54402960,-0.46,0.507,0.623,1.907,-25.2,-10.045,
54402960,-0.425,0.529,0.584,0.63,-14.542,-8.82,
54402980,-0.454,0.647,0.598,-9.117,1.067,-19.582,
54402980,-0.429,0.653,0.599,-27.877,13.562,-29.312,
54403000,-0.43,0.589,0.583,-49.647,25.602,-35.157,
54403000,-0.525,0.536,0.554,-70,33.932,-40.74,
54403010,-0.615,0.521,0.545,-86.922,30.065,-49.892,
54403020,-0.716,0.452,0.537,-96.792,13.335,-53.375,
54403030,-0.805,0.376,0.517,-94.01,-12.95,-48.597,
54403040,-0.801,0.333,0.49,-81.025,-39.077,-37.625,
54403050,-0.855,0.392,0.539,-63.665,-65.345,-28.962,
54403060,-0.724,0.479,0.515,-48.51,-88.34,-31.552,
54403070,-0.659,0.477,0.503,-39.27,-103.967,-30.117,
54403080,-0.657,0.473,0.513,-32.987,-107.572,-26.057,
54403090,-0.635,0.513,0.575,-32.287,-103.25,-24.622,
54403100,-0.635,0.578,0.61,-43.207,-91.875,-28.752,
54403110,-0.63,0.55,0.604,-62.737,-76.16,-34.125,
54403120,-0.687,0.499,0.626,-84.542,-60.357,-37.1,
54403130,-0.739,0.5,0.657,-105.49,-49.262,-39.882,
54403140,-0.737,0.485,0.681,-124.477,-44.502,-41.177,
54403150,-0.793,0.416,0.72,-138.845,-48.737,-38.412,
54403160,-0.804,0.304,0.761,-144.025,-60.795,-31.202,
54403170,-0.75,0.225,0.823,-139.58,-75.477,-25.41,
54403180,-0.719,0.183,0.92,-130.34,-88.287,-27.142,
54403190,-0.773,-0.004,1.193,-105.437,-108.255,-34.247,
54403200,-0.738,0.033,1.215,-59.535,-136.71,-34.632,
54403210,-0.564,0.189,1.237,-35.385,-159.81,-24.167,
54403220,-0.401,0.288,1.183,-30.94,-175.63,-27.282,
54403230,-0.146,0.33,1.154,-41.685,-182.84,-38.342,
54403240,0.461,0.156,1.127,-65.397,-140.717,-47.005,
54403250,0.133,0.142,1.165,-76.755,-73.255,-63.525,
54403260,-0.055,0.299,1.14,-82.232,-43.102,-70.402,
54403270,-0.115,0.261,1.079,-107.117,-28,-45.937,
54403280,-0.342,0.041,1.061,-128.835,-22.435,-17.78,
54403290,-0.162,0.064,1.042,-125.492,-30.52,-17.185,
54403300,-0.181,0.031,0.997,-118.667,-34.545,-10.22,
54403310,-0.155,0.016,0.922,-117.53,-36.732,-8.96,
54403320,-0.111,-0.031,0.866,-111.755,-35.402,-4.007,
54403330,0.011,-0.086,0.8,-103.232,-25.077,5.6,
54403330,0.143,-0.146,0.77,-84.665,-0.192,12.075,
54403350,0.186,-0.169,0.8,-60.287,38.482,13.667,
54403350,0.158,-0.188,0.828,-30.205,83.702,15.365,
54403370,0.098,-0.171,0.818,-0.542,129.552,21.682,
54403370,0.03,-0.187,0.819,34.492,171.395,32.952,
54403390,-0.048,-0.136,0.795,70.997,207.795,44.187,
54403390,-0.141,-0.075,0.765,100.642,237.387,51.397,
54403410,-0.285,-0.012,0.735,121.1,259.402,54.547,
54403410,-0.422,0.09,0.722,129.062,267.697,57.855,
54403420,-0.476,0.096,0.662,125.055,271.25,61.565,
54403430,-0.539,0.138,0.622,121.222,268.817,61.285,
54403440,-0.575,0.208,0.571,116.305,263.672,65.292,
54403450,-0.598,0.271,0.506,104.755,256.935,75.705,
54403460,-0.603,0.259,0.433,91.647,254.082,85.487,
54403470,-0.631,0.301,0.381,78.417,256.025,93.222,
54403480,-0.677,0.317,0.334,57.732,259.997,96.372,
54403490,-0.737,0.265,0.293,43.365,261.94,98.63,
54403500,-0.83,0.264,0.294,38.202,257.372,99.592,
54403510,-0.903,0.287,0.307,35.507,241.552,97.597,
54403520,-0.959,0.283,0.32,35.717,218.277,93.327,
54403530,-1.006,0.274,0.374,38.517,189.315,89.145,
54403540,-1.001,0.246,0.41,41.772,156.712,80.325,
54403550,-0.553,0.093,0.451,50.417,140.087,66.132,
54403560,-1.61,0.633,0.474,46.357,107.502,54.792,
54403570,-0.989,0.411,0.408,4.655,45.395,41.982,
54403580,-0.729,0.188,0.339,-7.21,27.86,41.545,
54403590,-0.896,0.314,0.347,-12.442,20.965,31.902,
54403600,-0.685,0.296,0.291,-19.81,25.707,23.03,
54403610,-0.684,0.201,0.253,-21.927,41.142,24.395,
54403620,-0.72,0.221,0.236,-18.795,61.302,28.962,
54403630,-0.773,0.259,0.234,-16.852,83.842,32.357,
54403640,-0.908,0.272,0.247,-17.395,100.712,31.727,
54403650,-1,0.26,0.221,-17.832,107.065,28.14,
54403660,-1.064,0.301,0.235,-17.657,107.257,20.737,
54403670,-1.174,0.367,0.255,-17.867,99.137,14.017,
54403670,-1.166,0.343,0.215,-26.302,81.095,7.84,
54403690,-1.094,0.356,0.216,-32.655,68.775,2.73,
54403690,-1.065,0.33,0.207,-37.187,60.952,4.76,
54403710,-1.18,0.417,0.188,-41.807,50.767,10.622,
54403710,-1.158,0.402,0.215,-47.25,31.43,5.442,
54403730,-1.033,0.303,0.189,-37.852,18.427,-0.7,
54403730,-1.007,0.31,0.212,-20.772,9.677,2.432,
54403750,-0.981,0.354,0.227,-10.727,4.462,6.387,
54403750,-0.958,0.346,0.216,-2.607,2.31,9.782,
54403760,-0.932,0.339,0.206,7.927,1.54,14.927,
54403770,-0.915,0.334,0.25,17.972,-3.482,16.975,
54403780,-0.813,0.361,0.23,20.825,0.035,17.622,
54403790,-0.871,0.454,0.262,19.442,12.302,16.03,
54403800,-0.984,0.401,0.241,10.955,11.812,21.927,
54403810,-0.912,0.375,0.215,4.672,6.79,28.962,
54403820,-0.922,0.414,0.213,0.14,5.915,28.315,
54403830,-0.922,0.38,0.202,-5.092,5.022,27.772,
54403840,-0.814,0.407,0.255,-6.912,5.635,27.615,
54403850,-0.809,0.39,0.138,-16.432,17.15,28.945,
54403860,-0.775,0.44,0.249,-26.635,38.622,22.242,
54403870,-0.939,0.456,0.194,-34.037,44.8,7.7,
54403880,-0.981,0.439,0.174,-38.902,34.982,12.687,
54403890,-0.908,0.425,0.168,-41.02,26.145,19.88,
54403900,-0.879,0.442,0.183,-41.965,20.317,13.352,
54403910,-0.929,0.51,0.234,-42.332,15.837,5.845,
54403920,-1.133,0.597,0.289,-44.415,4.41,7.087,
54403930,-1.31,0.457,0.309,-40.372,-13.597,12.075,
54403940,-1.073,0.392,0.326,-19.722,-16.642,14.175,
54403950,-0.823,0.451,0.325,-2.397,3.272,12.74,
54403960,-0.751,0.407,0.246,-3.325,26.127,11.83,
54403970,-0.732,0.37,0.237,-11.305,37.345,16.607,
54403980,-0.759,0.362,0.254,-14.332,45.395,20.282,
54403990,-0.921,0.355,0.214,-10.272,40.792,18.69,
54404000,-0.936,0.398,0.164,-8.365,31.412,16.397,
54404010,-1.041,0.485,0.161,-5.11,24.902,11.322,
54404020,-1.123,0.487,0.142,-6.772,16.87,7.052,
54404030,-1.061,0.455,0.123,-11.165,8.015,7.332,
54404040,-0.982,0.463,0.122,-14.017,-0.157,6.335,
54404050,-0.894,0.429,0.127,-19.442,-5.477,5.372,
54404060,-0.886,0.409,0.157,-23.922,-8.382,5.687,
54404070,-0.918,0.414,0.194,-28.227,-12.215,5.565,
54404080,-0.958,0.396,0.214,-30.835,-18.707,3.902,
54404080,-0.951,0.386,0.2,-28.42,-24.955,1.75,
54404100,-0.915,0.396,0.194,-22.54,-29.977,-0.122,
54404100,-0.892,0.417,0.2,-15.837,-31.797,-2.45,
54404110,-0.879,0.422,0.207,-12.74,-32.305,-3.552,
54404120,-0.893,0.426,0.215,-11.62,-32.112,-5.04,
54404130,-0.89,0.422,0.221,-11.97,-32.742,-6.632,
54404140,-0.89,0.414,0.24,-13.107,-33.495,-7.63,
54404150,-0.895,0.412,0.247,-14.875,-32.725,-6.685,
54404160,-0.895,0.403,0.257,-16.117,-30.835,-5.967,
54404170,-0.867,0.389,0.267,-15.767,-28.577,-5.932,
54404180,-0.852,0.379,0.271,-13.982,-25.287,-6.352,
54404190,-0.848,0.362,0.28,-11.217,-21.42,-6.51,
54404200,-0.869,0.365,0.278,-6.597,-16.572,-5.635,
54404210,-0.884,0.377,0.274,-2.607,-12.967,-4.41,
54404220,-0.885,0.368,0.266,-0.315,-10.692,-4.007,
54404230,-0.885,0.379,0.261,3.237,-9.555,-3.727,
54404240,-0.88,0.382,0.263,4.725,-9.537,-2.94,
54404250,-0.866,0.391,0.273,5.057,-9.065,-1.89,
54404260,-0.882,0.396,0.274,3.71,-7.525,-0.437,
54404270,-0.879,0.403,0.278,1.942,-6.335,-0.07,
54404280,-0.875,0.404,0.275,1.47,-4.375,-0.577,
54404290,-0.897,0.409,0.266,1.102,-3.395,-1.382,
54404300,-0.916,0.415,0.258,-0.157,-4.13,-2.24,
54404310,-0.921,0.416,0.257,-2.45,-6.02,-3.412,
54404320,-0.911,0.4,0.255,-5.127,-8.207,-4.217,
54404330,-0.9,0.388,0.259,-6.177,-9.835,-4.392,
54404340,-0.88,0.378,0.268,-6.3,-10.447,-3.762,
54404350,-0.888,0.382,0.275,-5.88,-10.255,-3.167,
54404360,-0.893,0.389,0.28,-6.44,-9.992,-2.677,
54404370,-0.878,0.389,0.285,-7.35,-9.275,-2.642,
54404380,-0.868,0.382,0.288,-7.192,-7.875,-2.432,
54404390,-0.852,0.377,0.299,-7,-5.565,-1.4,
54404400,-0.855,0.376,0.3,-6.65,-2.502,-0.105,
54404410,-0.856,0.388,0.299,-7.262,0.77,1.015,
54404420,-0.872,0.399,0.293,-10.412,3.395,1.015,
54404420,-0.889,0.389,0.285,-14.017,5.46,0.945,
54404440,-0.889,0.378,0.278,-13.667,5.74,1.277,
54404440,-0.886,0.37,0.266,-9.887,5.932,1.732,
54404460,-0.901,0.378,0.254,-5.18,4.182,1.557,
54404460,-0.908,0.382,0.254,-0.997,1.295,1.067,
54404480,-0.906,0.37,0.264,2.73,-1.26,-0.682,
54404480,-0.887,0.349,0.266,7.297,-1.47,-2.205,
54404500,-0.881,0.358,0.262,11.007,-1.575,-2.17,
54404500,-0.893,0.368,0.236,11.83,-1.207,-1.19,
54404510,-0.925,0.421,0.227,11.375,-5.88,-0.805,
54404520,-0.906,0.421,0.287,6.86,-12.18,-1.557,
54404530,-0.941,0.383,0.291,5.232,-10.955,-2.555,
54404540,-0.9,0.392,0.288,5.477,-9.327,-2.625,
54404550,-0.869,0.407,0.272,2.695,-9.87,-3.587,
54404560,-0.827,0.363,0.314,-1.4,-9.572,-3.447,
54404570,-0.859,0.343,0.293,0.332,-2.677,-1.015,
54404580,-0.882,0.4,0.293,2.1,1.452,1.732,
54404590,-0.901,0.416,0.279,-3.482,2.1,1.312,
54404600,-0.913,0.402,0.262,-6.702,1.907,0.455,
54404610,-0.915,0.439,0.267,-8.505,0.157,-0.192,
54404620,-0.888,0.427,0.298,-14.472,-0.542,-2.52,
54404630,-0.838,0.363,0.308,-18.567,3.832,-3.325,
54404640,-0.837,0.335,0.294,-18.567,9.922,-1.207,
54404650,-0.835,0.335,0.281,-16.572,11.777,1.225,
54404660,-0.853,0.358,0.283,-12.95,13.51,3.027,
54404670,-0.915,0.371,0.254,-9.327,15.505,3.395,
54404680,-0.949,0.396,0.237,-6.947,13.405,2.747,
54404690,-0.965,0.4,0.234,-7.42,8.365,1.47,
54404700,-0.941,0.369,0.235,-7.21,2.31,-0.315,
54404710,-0.919,0.364,0.25,-3.412,-2.677,-1.47,
54404720,-0.906,0.346,0.261,0.577,-5.582,-2.555,
54404730,-0.896,0.316,0.262,5.145,-6.422,-2.852,
54404740,-0.896,0.326,0.257,10.815,-6.037,-1.662,
54404750,-0.924,0.347,0.249,14.07,-5.757,-0.507,
54404760,-0.978,0.387,0.177,15.347,-10.64,0.087,
54404770,-0.933,0.439,0.235,14.07,-24.675,-0.787,
54404780,-0.947,0.429,0.289,10.902,-27.37,-3.64,
54404790,-0.919,0.4,0.303,5.932,-23.975,-4.952,
54404800,-0.837,0.353,0.31,1.242,-20.475,-4.34,
54404800,-0.823,0.349,0.292,1.592,-15.785,-2.012,
54404820,-0.825,0.391,0.317,1.872,-13.037,0.35,
54404820,-0.864,0.415,0.312,-1.12,-6.597,0.105,
54404830,-0.899,0.407,0.272,-5.11,-2.345,-0.507,
54404840,-0.886,0.429,0.272,-8.61,-2.922,-0.997,
54404850,-0.891,0.402,0.29,-12.495,-4.287,-1.855,
54404860,-0.847,0.36,0.335,-13.912,-2.467,-1.522,
54404870,-0.818,0.335,0.31,-12.162,4.287,-0.7,
54404880,-0.81,0.345,0.314,-11.025,9.852,0.857,
54404890,-0.842,0.338,0.287,-11.025,14.682,3.202,
54404900,-0.894,0.348,0.275,-8.82,17.885,5.285,
54404910,-0.948,0.379,0.244,-7.28,16.73,5.582,
54404920,-0.977,0.4,0.239,-7.507,11.182,4.497,
54404930,-0.969,0.392,0.246,-7.542,4.952,1.96,
54404940,-0.946,0.359,0.246,-5.355,-0.385,-0.735,
54404950,-0.884,0.352,0.269,-0.28,-4.935,-2.52,
54404960,-0.88,0.333,0.279,3.675,-4.392,-3.027,
54404970,-0.877,0.322,0.282,6.405,-2.975,-2.047,
54404980,-0.878,0.336,0.28,9.415,-1.067,-0.157,
54404990,-0.902,0.353,0.24,11.322,0.577,0.875,
54405000,-0.97,0.457,0.187,12.232,-3.272,0.857,
54405010,-1.004,0.424,0.251,4.532,-15.89,-1.54,
54405020,-0.955,0.374,0.252,5.18,-18.48,-4.777,
54405030,-0.879,0.399,0.305,6.632,-20.23,-6.597,
54405040,-0.863,0.338,0.284,2.31,-17.605,-7.735,
54405050,-0.841,0.341,0.299,4.252,-16.59,-4.392,
54405060,-0.833,0.377,0.333,3.237,-12.617,-1.155,
54405070,-0.884,0.371,0.296,0.105,-4.69,-0.35,
54405080,-0.879,0.409,0.277,-1.855,-1.82,0.892,
54405090,-0.883,0.427,0.278,-6.615,-2.31,0.227,
54405100,-0.895,0.393,0.297,-10.657,-2.94,-1.137,
54405110,-0.848,0.357,0.325,-10.902,-0.595,-0.875,
54405120,-0.821,0.344,0.315,-8.452,5.915,-0.262,
54405130,-0.836,0.348,0.302,-8.312,11.06,1.505,
54405140,-0.858,0.342,0.296,-9.047,15.225,3.692,
54405150,-0.882,0.356,0.273,-7.787,18.725,4.812,
54405160,-0.93,0.376,0.257,-8.47,18.287,4.637,
54405170,-0.957,0.384,0.246,-9.082,15.557,3.342,
54405170,-0.978,0.383,0.228,-8.26,10.342,1.19,
54405190,-0.94,0.376,0.25,-7.262,3.43,-0.875,
54405190,-0.923,0.343,0.259,-3.255,-0.962,-3.062,
54405210,-0.872,0.313,0.263,1.96,-2.975,-2.887,
54405210,-0.886,0.309,0.266,5.547,-1.592,-1.662,
54405230,-0.901,0.312,0.256,8.487,-0.122,0.157,
54405230,-0.921,0.34,0.212,12.88,-1.067,2.187,
54405250,-0.993,0.445,0.201,13.02,-6.422,2.362,
54405250,-1.006,0.379,0.247,5.32,-17.762,0.542,
54405260,-0.946,0.366,0.25,8.82,-20.37,-1.365,
54405270,-0.913,0.411,0.272,9.38,-23.695,-3.08,
54405280,-0.848,0.369,0.304,3.902,-24.167,-4.707,
54405290,-0.851,0.333,0.301,4.357,-19.687,-3.29,
54405300,-0.829,0.369,0.302,5.827,-14.63,-0.595,
54405310,-0.852,0.397,0.308,3.412,-9.852,0.052,
54405320,-0.903,0.397,0.281,-1.54,-4.812,0.42,
54405330,-0.898,0.415,0.28,-5.792,-4.48,1.452,
54405340,-0.892,0.407,0.295,-11.252,-5.565,1.137,
54405350,-0.879,0.338,0.316,-14.665,-5.81,1.347,
54405360,-0.785,0.311,0.333,-11.112,-0.122,4.585,
54405370,-0.771,0.324,0.317,-8.365,8.645,7.647,
54405380,-0.811,0.345,0.297,-8.872,16.275,10.395,
54405390,-0.858,0.376,0.286,-8.137,21.332,12.95,
54405400,-0.911,0.406,0.271,-9.222,23.17,13.65,
54405410,-0.94,0.421,0.258,-10.955,21.42,12.075,
54405420,-0.936,0.405,0.252,-11.987,18.27,8.732,
54405430,-0.915,0.397,0.253,-10.08,15.837,5.355,
54405440,-0.935,0.365,0.244,-8.365,13.545,1.995,
54405450,-0.895,0.335,0.252,-4.41,10.255,-0.157,
54405460,-0.906,0.321,0.254,2.38,9.24,-0.997,
54405470,-0.933,0.333,0.22,7.455,9.152,-0.437,
54405480,-1.011,0.383,0.21,8.872,5.127,0.21,
54405490,-1.014,0.383,0.204,5.897,-2.572,0.017,
54405500,-0.98,0.388,0.216,6.615,-9.73,-1.295,
54405510,-0.948,0.384,0.225,6.02,-15.802,-4.007,
54405510,-0.901,0.38,0.257,4.987,-20.877,-5.162,
54405530,-0.892,0.364,0.274,3.5,-20.562,-4.882,
54405530,-0.895,0.364,0.265,2.625,-18.847,-3.832,
54405550,-0.88,0.379,0.279,2.03,-18.27,-2.8,
54405550,-0.883,0.368,0.286,0.77,-16.38,-3.395,
54405570,-0.879,0.366,0.281,1.05,-13.142,-2.572,
54405570,-0.869,0.381,0.28,1.137,-10.955,-1.697,
54405580,-0.874,0.389,0.284,-1.015,-8.505,-1.715,
54405590,-0.881,0.389,0.275,-3.972,-6.86,-1.837,
54405600,-0.874,0.401,0.275,-6.107,-6.055,-1.907,
54405610,-0.886,0.4,0.278,-9.17,-6.16,-2.782,
54405620,-0.876,0.367,0.305,-12.075,-4.9,-3.01,
54405630,-0.829,0.327,0.307,-10.465,-0.437,-2.485,
54405640,-0.84,0.331,0.305,-6.265,5.862,-0.612,
54405650,-0.86,0.337,0.277,-5.372,9.905,1.68,
54405660,-0.909,0.355,0.261,-4.935,11.217,3.85,
54405670,-0.93,0.372,0.257,-5.845,10.01,4.97,
54405680,-0.938,0.378,0.245,-6.597,8.015,4.392,
54405690,-0.93,0.389,0.255,-7.245,4.515,3.307,
54405700,-0.946,0.373,0.249,-9.1,1.155,1.89,
54405710,-0.911,0.352,0.261,-8.015,-2.607,1.102,
54405720,-0.876,0.36,0.277,-4.497,-3.395,0.56,
54405730,-0.871,0.333,0.274,-2.012,-1.872,-0.367,
54405740,-0.882,0.329,0.281,2.257,0.49,0.42,
54405750,-0.911,0.342,0.277,5.53,2.135,1.382,
54405760,-0.925,0.393,0.228,6.982,3.587,1.435,
54405770,-1.031,0.43,0.234,1.33,-0.84,-0.227,
54405780,-0.927,0.305,0.242,-2.415,-7.35,-2.24,
54405790,-0.904,0.37,0.238,9.835,-8.732,-2.222,
54405800,-0.935,0.399,0.247,6.79,-13.667,-3.482,
54405810,-0.937,0.327,0.241,7.28,-17.43,-5.04,
54405820,-0.933,0.361,0.262,13.142,-20.755,-4.777,
54405830,-0.93,0.347,0.257,13.667,-23.362,-5.53,
54405840,-0.918,0.344,0.265,16.677,-26.355,-4.48,
54405850,-0.865,0.384,0.296,16.66,-26.722,-2.957,
54405860,-0.888,0.387,0.305,11.427,-23.397,-2.38,
54405870,-0.854,0.391,0.314,5.932,-18.567,-1.767,
54405880,-0.867,0.378,0.302,-0.227,-12.915,-0.892,
54405890,-0.845,0.382,0.298,-4.602,-9.31,0.14,
54405900,-0.846,0.388,0.304,-6.755,-6.562,0.472,
54405910,-0.855,0.368,0.327,-8.925,-3.185,-0.245,
54405920,-0.808,0.328,0.329,-6.16,1.96,-0.262,
54405920,-0.822,0.366,0.319,-1.382,8.942,0.77,
54405940,-0.861,0.367,0.294,-5.547,13.142,2.187,
54405940,-0.885,0.373,0.284,-7.507,15.19,3.447,
54405960,-0.905,0.371,0.288,-8.89,15.925,4.165,
54405960,-0.922,0.361,0.251,-8.242,17.202,2.73,
54405980,-0.925,0.381,0.252,-7.875,13.177,2.1,
54405980,-0.938,0.363,0.246,-8.942,8.872,1.05,
54406000,-0.928,0.355,0.26,-6.737,5.215,0.437,
54406000,-0.93,0.328,0.254,-5.897,3.15,0.157,
54406010,-0.871,0.315,0.268,-2.327,0.682,0.857,
54406020,-0.884,0.311,0.272,3.272,1.907,1.75,
54406030,-0.909,0.311,0.259,7.595,2.59,3.272,
54406040,-0.929,0.36,0.219,12.32,1.435,4.392,
54406050,-1.003,0.391,0.211,11.515,-4.9,3.85,
54406060,-0.993,0.366,0.2,11.287,-13.58,2.782,
54406070,-1.009,0.412,0.216,15.435,-23.572,0.665,
54406080,-0.931,0.411,0.272,12.512,-32.585,-2.712,
54406090,-0.901,0.367,0.296,10.465,-32.882,-5.25,
54406100,-0.875,0.361,0.308,9.03,-30.03,-5.04,
54406110,-0.826,0.35,0.316,6.895,-26.337,-4.445,
54406120,-0.836,0.355,0.301,7.805,-19.932,-3.587,
54406130,-0.871,0.37,0.294,8.085,-15.872,-2.38,
54406140,-0.85,0.381,0.306,7.157,-14.07,-1.89,
54406150,-0.893,0.397,0.308,6.072,-9.712,-2.502,
54406160,-0.921,0.377,0.295,1.645,-7.77,-2.24,
54406170,-0.874,0.384,0.3,0.157,-7.367,-1.785,
54406180,-0.859,0.375,0.301,-1.96,-5.95,-2.292,
54406190,-0.852,0.36,0.301,-3.797,-3.885,-1.68,
54406200,-0.86,0.366,0.305,-4.007,-2.065,0.525,
54406210,-0.86,0.358,0.312,-5.74,-0.507,1.995,
54406220,-0.853,0.347,0.315,-5.635,1.452,3.237,
54406230,-0.864,0.364,0.313,-5.267,5.057,5.11,
54406240,-0.887,0.369,0.304,-7.385,7.927,6.212,
54406250,-0.868,0.372,0.302,-9.747,10.885,6.3,
54406260,-0.927,0.364,0.27,-11.585,12.74,4.865,
54406260,-0.899,0.323,0.262,-10.115,10.587,4.077,
54406280,-0.886,0.366,0.272,-1.645,8.645,3.937,
54406280,-0.955,0.378,0.265,-0.14,6.58,2.572,
54406300,-0.934,0.347,0.26,1.522,2.992,1.242,
54406300,-0.943,0.371,0.262,6.37,0.577,0.122,
54406320,-0.941,0.362,0.249,5.687,-2.922,-1.697,
54406320,-0.947,0.354,0.242,7.227,-6.772,-2.957,
54406330,-0.952,0.364,0.235,8.89,-12.127,-4.042,
54406340,-0.948,0.371,0.247,9.992,-19.145,-5.442,
54406350,-0.887,0.388,0.288,11.077,-24.342,-7.21,
54406360,-0.896,0.365,0.302,10.272,-24.36,-8.89,
54406370,-0.845,0.363,0.319,11.042,-21.245,-8.995,
54406380,-0.885,0.368,0.312,8.785,-15.662,-7.402,
54406390,-0.875,0.368,0.3,4.217,-12.547,-4.707,
54406400,-0.867,0.354,0.303,1.645,-10.115,-2.87,
54406410,-0.86,0.351,0.302,1.837,-8.067,-1.54,
54406420,-0.866,0.372,0.305,2.45,-5.862,0.245,
54406430,-0.885,0.384,0.301,1.067,-4.515,0.927,
54406440,-0.896,0.366,0.299,-2.59,-4.445,1.942,
54406450,-0.871,0.344,0.303,-4.585,-5.932,4.042,
54406460,-0.84,0.344,0.318,-6.387,-5.67,8.312,
54406470,-0.844,0.362,0.321,-8.592,-1.837,11.217,
54406480,-0.877,0.403,0.315,-13.475,3.36,12.18,
54406490,-0.899,0.342,0.314,-20.265,5.11,10.99,
54406500,-0.811,0.373,0.321,-14.962,10.15,10.342,
54406510,-0.926,0.393,0.302,-13.667,14.315,7.77,
54406520,-0.861,0.304,0.275,-11.042,14.175,5.81,
54406530,-0.908,0.394,0.273,2.817,13.475,5.32,
54406540,-0.963,0.381,0.248,1.61,9.555,3.202,
54406550,-0.949,0.356,0.255,5.547,4.742,0.595,
54406560,-0.943,0.372,0.258,9.275,1.242,-1.61,
54406570,-0.958,0.359,0.239,9.677,-2.03,-4.83,
54406580,-0.972,0.361,0.245,12.932,-8.19,-7.175,
54406590,-0.923,0.354,0.272,15.977,-15.75,-9.24,
54406600,-0.83,0.398,0.304,20.405,-16.537,-11.672,
54406610,-0.955,0.369,0.29,14.91,-12.81,-12.092,
54406620,-0.842,0.359,0.299,9.765,-11.865,-7.98,
54406630,-0.937,0.352,0.285,6.212,-10.272,-6.055,
54406640,-0.835,0.319,0.286,6.86,-11.725,-4.812,
54406650,-0.889,0.41,0.303,11.2,-9.205,-3.342,
54406660,-0.906,0.378,0.291,3.202,-8.645,-2.1,
54406670,-0.872,0.386,0.292,1.067,-7.787,-1.347,
54406670,-0.883,0.372,0.294,-2.747,-8.61,-0.052,
54406690,-0.843,0.339,0.302,-4.952,-9.59,1.627,
54406690,-0.839,0.354,0.321,-2.257,-8.89,3.867,
54406710,-0.826,0.366,0.325,-3.395,-5.442,6.002,
54406710,-0.848,0.416,0.321,-6.615,2.24,7.332,
54406730,-0.939,0.388,0.283,-17.202,7.63,6.737,
54406730,-0.897,0.315,0.278,-20.86,5.81,6.195,
54406750,-0.824,0.336,0.29,-11.935,6.317,5.565,
54406750,-0.903,0.377,0.288,-7.682,7.7,4.55,
54406760,-0.888,0.36,0.282,-8.295,7.437,4.287,
54406770,-0.944,0.379,0.285,-5.18,6.842,3.412,
54406780,-0.918,0.361,0.281,-3.692,6.072,1.102,
54406790,-0.923,0.363,0.279,1.82,5.25,-1.995,
54406800,-0.937,0.363,0.264,4.217,3.675,-4.305,
54406810,-0.96,0.358,0.248,4.917,-0.437,-5.547,
54406820,-0.957,0.357,0.246,5.512,-5.827,-4.742,
54406830,-0.947,0.349,0.25,3.972,-12.442,-3.92,
54406840,-0.866,0.298,0.276,5.652,-18.777,-3.447,
54406850,-0.813,0.367,0.321,13.457,-17.447,-3.027,
54406860,-0.912,0.358,0.31,12.11,-13.405,-1.872,
54406870,-0.834,0.358,0.308,12.355,-9.922,-0.402,
54406880,-0.926,0.376,0.299,12.967,-7.577,0.507,
54406890,-0.838,0.403,0.302,10.307,-5.25,0,
54406900,-0.94,0.402,0.288,5.53,-3.237,-0.91,
54406910,-0.892,0.365,0.288,-0.56,-3.762,-0.525,
54406920,-0.883,0.37,0.289,0,-4.077,-0.21,
54406930,-0.904,0.37,0.287,-2.257,-4.97,0.49,
54406940,-0.886,0.348,0.291,-4.165,-6.702,1.732,
54406950,-0.872,0.365,0.302,-4.532,-7.542,4.34,
54406960,-0.85,0.387,0.316,-9.257,-6.405,6.737,
54406970,-0.906,0.414,0.307,-15.995,-1.435,6.807,
54406980,-0.908,0.347,0.3,-23.66,0.245,5.477,
54406990,-0.871,0.379,0.298,-22.225,3.027,4.742,
54407000,-0.89,0.342,0.301,-22.207,3.36,3.692,
54407010,-0.854,0.32,0.283,-15.557,4.462,3.255,
54407010,-0.871,0.323,0.288,-4.69,3.937,3.482,
54407030,-0.907,0.367,0.282,2.625,4.41,2.817,
54407030,-0.951,0.364,0.27,5.705,2.362,1.575,
54407050,-0.96,0.369,0.255,7.892,-1.015,-0.455,
54407050,-0.952,0.365,0.259,9.45,-6.335,-2.24,
54407070,-0.932,0.357,0.265,8.4,-11.865,-2.537,
54407070,-0.896,0.353,0.285,8.207,-16.537,-2.467,
54407080,-0.84,0.351,0.313,8.452,-17.132,-1.505,
54407090,-0.857,0.349,0.313,9.275,-14.052,-0.437,
54407100,-0.857,0.348,0.313,10.832,-10.815,1.085,
54407110,-0.823,0.362,0.321,12.95,-7.91,2.52,
54407120,-0.93,0.404,0.306,12.197,-3.447,2.572,
54407130,-0.884,0.346,0.293,9.012,-4.042,2.642,
54407140,-0.863,0.431,0.31,11.602,-1.872,1.242,
54407150,-0.948,0.416,0.292,2.835,-1.295,-0.052,
54407160,-0.893,0.372,0.292,-2.73,-2.38,-1.172,
54407170,-0.872,0.377,0.303,-0.612,-2.502,-1.925,
54407180,-0.874,0.372,0.299,-2.047,-1.295,-2.8,
54407190,-0.893,0.364,0.296,-1.54,-0.7,-2.03,
54407200,-0.892,0.37,0.292,-2.782,-0.385,-1.295,
54407210,-0.895,0.355,0.29,-3.815,-1.26,-0.84,
54407220,-0.876,0.352,0.301,-4.795,-2.31,0.455,
54407230,-0.879,0.369,0.306,-7.192,-2.152,2.362,
54407240,-0.895,0.38,0.301,-12.477,-1.172,4.34,
54407250,-0.893,0.401,0.295,-18.532,0.105,4.935,
54407260,-0.947,0.365,0.281,-24.08,-0.525,3.99,
54407270,-0.853,0.338,0.281,-21.332,-1.907,3.272,
54407280,-0.901,0.336,0.305,-14.07,-2.485,1.977,
54407290,-0.822,0.346,0.301,-7.7,-1.12,2.642,
54407300,-0.91,0.373,0.303,-2.992,0.175,2.607,
54407310,-0.885,0.341,0.294,-3.167,0.577,2.135,
54407320,-0.892,0.375,0.299,3.552,1.785,0.857,
54407330,-0.919,0.386,0.289,3.15,2.362,-1.207,
54407340,-0.918,0.37,0.284,2.642,1.155,-2.957,
54407350,-0.914,0.354,0.29,3.482,-1.05,-3.08,
54407360,-0.849,0.335,0.299,5.617,-2.45,-2.765,
54407370,-0.855,0.357,0.31,10.71,0.017,-2.45,
54407380,-0.897,0.356,0.297,10.937,2.222,-1.68,
54407390,-0.869,0.354,0.297,11.497,2.94,-0.227,
54407400,-0.926,0.394,0.288,11.55,3.605,-0.297,
54407410,-0.917,0.388,0.275,6.72,2.45,-0.21,
54407420,-0.926,0.393,0.273,3.36,0.84,-0.21,
54407420,-0.921,0.364,0.277,-1.155,-1.47,-0.245,
54407440,-0.87,0.345,0.297,-1.137,-2.52,-0.507,
54407440,-0.863,0.34,0.303,1.032,-1.137,0.472,
54407460,-0.856,0.35,0.306,2.38,1.347,1.977,
54407460,-0.876,0.371,0.288,2.345,4.55,2.537,
54407480,-0.917,0.372,0.289,0.017,5.32,2.117,
54407480,-0.903,0.369,0.267,0.227,6.212,1.417,
54407490,-0.921,0.388,0.268,0.105,4.077,0.647,
54407500,-0.923,0.376,0.257,-2.66,1.96,-0.087,
54407510,-0.919,0.381,0.27,-3.745,-1.522,-0.56,
54407520,-0.902,0.365,0.281,-5.652,-3.115,-1.172,
54407530,-0.867,0.342,0.287,-4.34,-2.73,-1.225,
54407540,-0.879,0.364,0.288,-3.447,-1.207,-0.262,
54407550,-0.879,0.355,0.281,-4.06,-0.735,0.28,
54407560,-0.89,0.36,0.282,-2.887,-0.367,0.752,
54407570,-0.897,0.36,0.281,-2.887,-0.63,1.05,
54407580,-0.893,0.353,0.286,-1.802,-0.42,1.12,
54407590,-0.889,0.351,0.291,-0.63,0.035,1.242,
54407600,-0.885,0.349,0.293,0.017,1.137,1.47,
54407610,-0.877,0.345,0.288,1.12,2.047,1.732,
54407620,-0.879,0.353,0.287,1.89,3.097,2.502,
54407630,-0.889,0.382,0.214,2.24,4.252,3.517,
54407640,-0.955,0.454,0.261,-3.115,0.35,3.062,
54407650,-0.973,0.359,0.253,-10.01,-4.515,0.84,
54407660,-0.911,0.365,0.277,-2.537,-5.757,0.21,
54407670,-0.9,0.392,0.285,-3.062,-6.317,-2.135,
54407680,-0.886,0.338,0.291,-5.197,-6.282,-3.185,
54407690,-0.858,0.337,0.296,-2.03,-4.095,-1.662,
54407700,-0.874,0.353,0.279,0.052,-1.05,-0.542,
54407710,-0.904,0.362,0.264,1.242,0.105,-0.332,
54407720,-0.919,0.359,0.265,2.047,-0.682,-0.507,
54407730,-0.931,0.368,0.264,3.937,-1.592,-0.98,
54407740,-0.935,0.384,0.263,3.92,-4.585,-1.89,
54407750,-0.94,0.386,0.253,0.91,-8.33,-2.17,
54407760,-0.925,0.379,0.254,-2.24,-12.547,-1.627,
54407760,-0.897,0.373,0.274,-4.725,-14.945,-1.417,
54407780,-0.873,0.33,0.314,-6.422,-15.032,-1.312,
54407780,-0.818,0.302,0.335,-2.905,-9.852,0.262,
54407800,-0.826,0.349,0.323,1.382,-2.922,2.152,
54407800,-0.888,0.392,0.288,-2.257,2.467,3.045,
54407820,-0.933,0.383,0.271,-8.627,1.942,3.342,
54407820,-0.927,0.379,0.272,-10.692,0.77,2.222,
54407830,-0.916,0.365,0.278,-9.275,0.017,0.787,
54407840,-0.903,0.361,0.28,-6.755,-0.682,-0.157,
54407850,-0.889,0.36,0.287,-5.53,-2.485,-0.805,
54407860,-0.887,0.344,0.281,-5.39,-3.167,-0.63,
54407870,-0.893,0.34,0.28,-3.115,-3.885,0.21,
54407880,-0.886,0.345,0.292,-1.662,-3.937,0.647,
54407890,-0.875,0.336,0.296,-1.277,-3.535,1.015,
54407900,-0.875,0.339,0.295,-0.105,-2.152,2.415,
54407910,-0.882,0.353,0.305,0.665,-0.997,3.815,
54407920,-0.884,0.36,0.283,1.172,0.822,3.57,
54407930,-0.887,0.421,0.241,1.732,2.17,2.712,
54407940,-0.977,0.408,0.257,-6.405,-1.487,0.805,
54407950,-0.942,0.353,0.265,-7.647,-5.005,-1.155,
54407960,-0.889,0.364,0.289,-4.952,-7.052,-1.522,
54407970,-0.893,0.359,0.289,-6.842,-6.912,-2.38,
54407980,-0.893,0.331,0.294,-6.86,-7.157,-1.872,
54407990,-0.889,0.366,0.298,-5.88,-6.632,-0.787,
54408000,-0.889,0.346,0.31,-7.875,-5.057,-0.595,
54408010,-0.852,0.348,0.293,-6.037,-0.875,-0.315,
54408020,-0.869,0.367,0.299,-5.46,0.682,0.612,
54408030,-0.875,0.34,0.287,-6.247,1.627,0.297,
54408040,-0.904,0.337,0.274,-2.205,0.927,1.365,
54408050,-0.911,0.365,0.252,0.122,-1.61,2.065,
54408060,-0.948,0.376,0.247,0.262,-6.737,0.98,
54408070,-0.961,0.375,0.251,-2.345,-12.88,0.07,
54408080,-0.94,0.376,0.274,-4.812,-18.147,-0.805,
54408090,-0.912,0.367,0.306,-7.332,-20.597,-1.295,
54408100,-0.864,0.319,0.333,-8.382,-19.355,-0.665,
54408110,-0.807,0.291,0.362,-3.657,-12.722,1.417,
54408120,-0.785,0.284,0.336,3.15,-3.937,4.462,
54408130,-0.835,0.331,0.307,9.257,3.465,8.277,
54408140,-0.911,0.35,0.274,9.397,4.637,10.762,
54408150,-0.97,0.373,0.244,9.45,1.347,11.69,
54408160,-1.003,0.39,0.243,8.382,-6.405,10.972,
54408160,-0.967,0.417,0.269,8.242,-15.067,6.982,
54408170,-0.94,0.404,0.298,2.222,-20.93,4.497,
54408180,-0.868,0.366,0.305,-1.557,-22.102,3.045,
54408190,-0.79,0.339,0.361,0.682,-19.32,2.905,
54408200,-0.833,0.363,0.351,1.785,-10.745,3.797,
54408210,-0.815,0.371,0.346,2.572,-3.902,4.322,
54408220,-0.872,0.387,0.325,1.522,1.697,3.815,
54408230,-0.907,0.388,0.303,0.49,3.762,3.36,
54408240,-0.923,0.394,0.294,-1.137,2.905,2.257,
54408250,-0.902,0.366,0.289,-2.87,0.087,0.787,
54408260,-0.883,0.343,0.301,-1.277,-1.785,0.14,
54408270,-0.88,0.333,0.308,1.802,-2.047,0.682,
54408280,-0.876,0.338,0.315,4.725,-1.452,1.872,
54408290,-0.881,0.341,0.315,6.422,-0.822,3.185,
54408300,-0.896,0.346,0.275,8.295,0.017,4.252,
54408310,-0.931,0.469,0.229,9.047,-2.345,4.532,
54408320,-1.076,0.424,0.274,-3.657,-13.457,0.77,
54408330,-0.918,0.322,0.272,-2.782,-17.727,-1.645,
54408340,-0.896,0.409,0.315,3.115,-20.107,-1.382,
54408350,-0.857,0.356,0.323,-3.937,-20.86,-3.237,
54408360,-0.833,0.333,0.34,-0.437,-17.885,-2.642,
54408370,-0.811,0.359,0.351,1.785,-12.897,-0.017,
54408380,-0.821,0.372,0.331,2.555,-5.53,-0.595,
54408390,-0.849,0.379,0.317,3.22,-0.997,-1.172,
54408400,-0.882,0.388,0.31,4.217,0.402,-1.365,
54408410,-0.912,0.39,0.326,2.31,0.157,-1.277,
54408420,-0.88,0.364,0.307,1.68,0.507,-2.135,
54408430,-0.864,0.374,0.308,2.1,-0.227,-1.522,
54408440,-0.873,0.379,0.312,-0.245,-0.49,-0.787,
54408450,-0.87,0.377,0.312,-1.977,-0.035,0.175,
54408460,-0.868,0.389,0.31,-4.69,0.402,0.98,
54408470,-0.886,0.385,0.305,-7.717,0.507,0.962,
54408480,-0.892,0.375,0.319,-9.345,-0.49,1.26,
54408490,-0.869,0.322,0.353,-9.397,1.312,1.977,
54408500,-0.793,0.319,0.333,-2.397,8.295,3.22,
54408510,-0.857,0.374,0.319,0.175,12.722,4.672,
54408510,-0.914,0.376,0.289,-4.235,13.825,4.83,
54408530,-0.946,0.386,0.278,-4.882,11.987,4.9,
54408530,-0.945,0.391,0.271,-6.422,8.085,3.482,
54408550,-0.934,0.381,0.274,-6.72,3.762,0.875,
54408550,-0.923,0.377,0.282,-6.23,-0.735,-0.787,
54408570,-0.894,0.366,0.301,-6.177,-3.657,-1.4,
54408570,-0.877,0.34,0.303,-5.075,-4.515,-1.872,
54408580,-0.847,0.325,0.313,-1.785,-3.465,-1.487,
54408590,-0.856,0.324,0.311,3.045,-0.98,-0.105,
54408600,-0.879,0.342,0.311,7.28,1.662,1.557,
54408610,-0.892,0.361,0.308,9.572,2.695,1.47,
54408620,-0.904,0.364,0.269,10.955,3.517,0.945,
54408630,-0.926,0.449,0.228,10.867,-0.035,0.297,
54408640,-1.019,0.419,0.274,0.805,-10.535,-1.96,
54408650,-0.907,0.344,0.286,1.505,-13.247,-3.605,
54408660,-0.878,0.401,0.328,3.99,-13.09,-4.27,
54408670,-0.837,0.341,0.325,-1.837,-10.605,-5.652,
54408680,-0.833,0.321,0.335,1.837,-6.282,-3.605,
54408690,-0.836,0.364,0.327,3.465,-1.592,-0.297,
54408700,-0.88,0.388,0.307,2.747,2.572,0.367,
54408710,-0.898,0.391,0.28,0.805,3.937,-0.105,
54408720,-0.926,0.408,0.271,-0.875,1.977,-0.682,
54408730,-0.927,0.408,0.283,-4.34,-2.485,-2.397,
54408740,-0.908,0.383,0.292,-8.085,-6.37,-4.305,
54408750,-0.887,0.379,0.295,-10.587,-8.207,-4.637,
54408760,-0.881,0.371,0.293,-13.79,-9.257,-4.06,
54408770,-0.87,0.36,0.31,-16.187,-9.905,-2.957,
54408780,-0.868,0.309,0.347,-17.78,-8.085,-2.117,
54408790,-0.819,0.283,0.323,-12.232,-1.505,-0.787,
54408800,-0.885,0.341,0.317,-7.525,1.12,2.257,
54408810,-0.923,0.345,0.287,-9.695,1.242,4.69,
54408820,-0.934,0.346,0.269,-7,-1.872,6.72,
54408830,-0.927,0.418,0.24,-5.11,-6.842,6.737,
54408830,-0.904,0.346,0.304,-7.735,-16.345,2.502,
54408850,-0.942,0.35,0.323,-5.092,-14.245,2.712,
54408850,-0.857,0.378,0.351,-0.875,-13.265,3.377,
54408870,-0.809,0.332,0.361,-4.025,-10.605,1.26,
54408870,-0.799,0.288,0.364,2.31,-3.92,1.505,
54408890,-0.814,0.338,0.349,10.5,4.567,5.075,
54408890,-0.851,0.369,0.322,11.392,10.062,6.562,
54408910,-0.906,0.371,0.247,10.762,11.917,6.107,
54408910,-0.939,0.45,0.255,8.925,7.28,5.337,
54408920,-1.042,0.404,0.264,0.56,-2.555,2.555,
54408930,-0.942,0.381,0.288,2.835,-8.802,0.227,
54408940,-0.914,0.397,0.317,0.927,-12.932,-2.52,
54408950,-0.856,0.318,0.311,-1.872,-12.477,-3.92,
54408960,-0.841,0.318,0.328,3.255,-10.85,-1.82,
54408970,-0.83,0.346,0.336,5.39,-7.35,0.192,
54408980,-0.872,0.348,0.332,5.705,-2.205,1.225,
54408990,-0.889,0.371,0.305,5.582,1.61,2.572,
54409000,-0.9,0.402,0.306,3.657,1.172,3.115,
54409010,-0.906,0.392,0.303,-0.35,-1.172,1.855,
54409020,-0.905,0.393,0.302,-1.172,-2.887,0.735,
54409030,-0.887,0.407,0.302,-3.412,-4.76,-0.28,
54409040,-0.882,0.393,0.293,-8.05,-6.055,-1.575,
54409050,-0.873,0.391,0.296,-11.497,-7.192,-1.872,
54409060,-0.864,0.392,0.335,-14.315,-7.122,-2.712,
54409070,-0.85,0.339,0.368,-16.73,-3.517,-3.657,
54409080,-0.839,0.309,0.34,-13.86,4.095,-3.185,
54409090,-0.872,0.338,0.321,-11.41,7,-0.822,
54409100,-0.898,0.349,0.284,-10.832,7.105,0.805,
54409110,-0.917,0.351,0.286,-8.662,4.987,1.347,
54409120,-0.919,0.36,0.275,-7.122,2.397,1.242,
54409130,-0.931,0.367,0.293,-7.175,-1.767,1.155,
54409140,-0.918,0.345,0.311,-7.192,-4.9,0.525,
54409150,-0.888,0.326,0.322,-4.06,-6.142,0.647,
54409160,-0.85,0.325,0.338,-0.42,-5.95,0.962,
54409170,-0.826,0.312,0.335,4.76,-1.907,1.662,
54409180,-0.834,0.331,0.323,10.43,2.975,3.29,
54409190,-0.87,0.356,0.309,12.687,6.3,4.427,
54409200,-0.901,0.407,0.262,12.827,7.087,4.567,
54409210,-0.984,0.406,0.297,6.562,1.907,3.57,
54409220,-0.932,0.351,0.27,6.737,-2.012,1.505,
54409230,-0.906,0.408,0.29,12.407,-6.09,0,
54409240,-0.909,0.408,0.309,6.79,-8.82,-2.835,
54409250,-0.906,0.359,0.325,3.447,-8.015,-3.99,
54409260,-0.855,0.356,0.319,2.38,-5.547,-3.587,
54409260,-0.855,0.336,0.327,0.315,-3.412,-3.22,
54409280,-0.845,0.319,0.319,2.012,-0.28,-1.452,
54409280,-0.888,0.37,0.309,5.092,2.642,0.717,
54409300,-0.909,0.38,0.296,2.642,2.537,1.225,
54409300,-0.917,0.378,0.283,0.857,1.435,0.997,
54409320,-0.916,0.388,0.28,-0.752,-1.732,0.437,
54409320,-0.924,0.391,0.28,-3.22,-5.075,-0.455,
54409330,-0.918,0.4,0.287,-6.72,-9.572,-1.225,
54409340,-0.889,0.393,0.307,-11.41,-12.057,-1.697,
54409350,-0.863,0.333,0.351,-13.982,-10.972,-2.415,
54409360,-0.812,0.292,0.337,-10.01,-4.69,-1.61,
54409370,-0.818,0.343,0.337,-6.055,0.385,0.595,
54409380,-0.873,0.356,0.315,-9.117,3.85,2.59,
54409390,-0.92,0.351,0.298,-9.922,5.127,3.937,
54409400,-0.92,0.383,0.299,-9.765,4.777,3.762,
54409410,-0.927,0.379,0.283,-11.567,2.31,1.697,
54409420,-0.929,0.363,0.285,-11.06,-0.647,0.017,
54409430,-0.9,0.35,0.303,-8.907,-4.602,-0.525,
54409440,-0.863,0.334,0.315,-5.127,-6.02,-0.752,
54409450,-0.843,0.329,0.327,-1.872,-5.04,-0.315,
54409460,-0.847,0.321,0.333,1.382,-0.735,0.875,
54409470,-0.865,0.328,0.318,4.97,3.377,2.642,
54409480,-0.875,0.377,0.304,7.052,5.565,3.657,
54409490,-0.932,0.373,0.286,4.112,4.497,3.552,
54409500,-0.928,0.383,0.282,4.812,1.417,2.782,
54409510,-0.918,0.39,0.283,4.865,-2.082,0.77,
54409520,-0.939,0.385,0.292,2.485,-4.392,-1.277,
54409530,-0.932,0.38,0.305,-0.752,-6.422,-2.852,
54409540,-0.903,0.364,0.311,-3.377,-7.07,-4.427,
54409550,-0.875,0.356,0.324,-4.585,-6.422,-5.722,
54409560,-0.86,0.324,0.317,-4.41,-4.532,-6.02,
54409570,-0.877,0.345,0.292,0.56,-1.032,-4.882,
54409580,-0.925,0.382,0.282,-0.035,-2.712,-4.147,
54409580,-0.913,0.359,0.305,-3.552,-5.792,-4.69,
54409600,-0.92,0.343,0.301,-2.502,-5.775,-5.687,
54409600,-0.891,0.358,0.309,-2.66,-6.177,-5.617,
54409620,-0.879,0.364,0.311,-5.6,-6.475,-5.46,
54409620,-0.871,0.358,0.304,-7.962,-5.285,-4.742,
54409640,-0.873,0.377,0.31,-9.047,-4.007,-4.007,
54409640,-0.854,0.373,0.296,-11.06,-2.345,-3.867,
54409660,-0.864,0.355,0.33,-12.04,-0.052,-3.552,
54409660,-0.848,0.304,0.365,-9.835,3.552,-2.152,
54409670,-0.879,0.315,0.336,-5.46,4.34,-1.68,
54409680,-0.868,0.325,0.317,-4.392,4.585,-0.105,
54409690,-0.903,0.334,0.299,-2.66,4.725,0.857,
54409700,-0.918,0.348,0.289,-1.855,4.13,1.26,
54409710,-0.936,0.357,0.29,-3.097,1.4,0.455,
54409720,-0.929,0.35,0.289,-4.882,-1.05,-0.56,
54409730,-0.916,0.331,0.305,-6.02,-4.445,-0.402,
54409740,-0.882,0.306,0.324,-4.042,-5.915,0.385,
54409750,-0.853,0.305,0.339,-0.087,-4.515,1.137,
54409760,-0.832,0.362,0.302,1.487,0.577,2.677,
54409770,-0.955,0.379,0.294,-5.005,2.205,3.657,
54409780,-0.895,0.316,0.296,-9.03,0.56,3.535,
54409790,-0.877,0.361,0.322,-2.187,1.137,3.517,
54409800,-0.87,0.374,0.32,-5.04,2.695,2.31,
54409810,-0.881,0.348,0.326,-6.912,3.867,1.89,
54409820,-0.831,0.351,0.334,-7.35,5.932,2.712,
54409830,-0.856,0.355,0.323,-8.26,9.905,2.922,
54409840,-0.86,0.301,0.317,-7.927,12.722,2.695,
54409850,-0.86,0.309,0.303,0.175,15.82,3.027,
54409860,-0.918,0.344,0.287,4.007,16.87,3.395,
54409870,-0.954,0.339,0.266,3.342,15.347,3.237,
54409880,-0.973,0.343,0.249,4.672,11.62,3.08,
54409890,-0.977,0.35,0.24,4.795,6.02,2.765,
54409900,-0.976,0.333,0.245,4.567,-0.962,2.24,
54409910,-0.898,0.321,0.271,6.86,-6.772,2.24,
54409920,-0.885,0.341,0.293,10.535,-8.33,1.925,
54409930,-0.902,0.345,0.292,10.71,-7.735,2.082,
54409940,-0.908,0.35,0.301,10.657,-7.192,2.835,
54409950,-0.879,0.349,0.299,10.832,-5.267,3.062,
54409960,-0.931,0.351,0.288,11.585,-3.815,2.222,
54409970,-0.881,0.365,0.282,12.6,-4.357,1.767,
54409980,-0.937,0.416,0.278,10.535,-4.182,0.875,
54409990,-0.965,0.385,0.268,1.277,-6.545,-0.105,
54410000,-0.916,0.36,0.279,-1.05,-9.607,-1.75,
54410010,-0.888,0.336,0.294,-0.262,-11.707,-2.485,
54410010,-0.866,0.324,0.313,0.962,-12.442,-0.91,
54410030,-0.861,0.339,0.334,0.297,-11.935,2.345,
54410030,-0.822,0.377,0.292,-4.077,-9.012,5.722,
54410050,-0.932,0.457,0.283,-16.957,-4.34,8.505,
54410050,-0.999,0.317,0.269,-33.827,-8.225,9.887,
54410070,-0.837,0.276,0.289,-21.875,-8.732,12.092,
54410070,-0.88,0.379,0.33,-11.147,-8.137,10.167,
54410080,-0.817,0.315,0.333,-10.85,-4.445,7.647,
54410090,-0.83,0.359,0.342,-2.87,1.417,8.225,
54410100,-0.833,0.372,0.326,-3.027,8.067,7.297,
54410110,-0.887,0.36,0.291,-0.192,13.405,4.69,
54410120,-0.941,0.395,0.269,3.15,15.172,1.767,
54410130,-0.983,0.386,0.254,2.765,12.075,-2.817,
54410140,-0.989,0.326,0.258,4.952,5.127,-6.72,
54410150,-0.865,0.318,0.27,13.3,-0.262,-7.437,
54410160,-0.916,0.379,0.284,17.465,-2.205,-8.277,
54410170,-0.92,0.343,0.269,10.937,-4.287,-6.51,
54410180,-0.938,0.346,0.286,8.592,-6.51,-3.167,
54410190,-0.867,0.351,0.3,6.877,-7.157,-1.942,
54410200,-0.917,0.367,0.298,4.777,-4.9,-2.1,
54410210,-0.888,0.345,0.298,0.262,-5.04,-1.137,
54410220,-0.864,0.34,0.307,1.522,-3.815,-0.227,
54410230,-0.868,0.356,0.286,3.045,-0.927,0.682,
54410240,-0.884,0.36,0.288,2.047,-0.227,1.557,
54410250,-0.884,0.35,0.293,2.082,0.542,1.89,
54410260,-0.882,0.348,0.294,3.605,1.295,2.275,
54410270,-0.896,0.363,0.296,3.587,2.292,2.992,
54410280,-0.877,0.357,0.301,1.505,2.905,3.482,
54410290,-0.863,0.351,0.29,1.155,5.302,4.147,
54410300,-0.867,0.366,0.29,-1.26,7.752,4.9,
54410310,-0.885,0.363,0.294,-5.32,10.22,4.812,
54410320,-0.907,0.362,0.283,-7.49,12.057,4.777,
54410330,-0.917,0.37,0.266,-8.452,12.792,4.9,
54410330,-0.936,0.376,0.252,-8.26,10.762,3.832,
54410350,-0.927,0.383,0.264,-8.05,7.42,2.73,
54410350,-0.917,0.361,0.258,-7.35,5.967,1.225,
54410370,-0.902,0.346,0.26,-5.792,4.585,0.472,
54410370,-0.893,0.342,0.265,-4.2,2.397,0.28,
54410390,-0.892,0.335,0.273,-1.365,1.96,0.035,
54410390,-0.903,0.329,0.273,2.012,2.607,-0.192,
54410410,-0.909,0.33,0.276,4.935,3.71,0,
54410410,-0.904,0.335,0.272,7.612,4.515,0.35,
54410420,-0.912,0.34,0.264,9.887,5.11,0.542,
54410430,-0.939,0.381,0.185,12.092,2.677,0.455,
54410440,-0.994,0.438,0.225,8.295,-6.125,-0.35,
54410450,-0.972,0.375,0.242,2.905,-13.16,-1.96,
54410460,-0.933,0.375,0.269,4.217,-15.05,-2.695,
54410470,-0.891,0.376,0.291,1.277,-15.54,-4.147,
54410480,-0.873,0.33,0.294,-1.435,-12.757,-4.532,
54410490,-0.86,0.336,0.299,-0.122,-8.732,-2.152,
54410500,-0.883,0.363,0.285,-0.192,-4.077,-0.577,
54410510,-0.894,0.378,0.267,-2.345,-1.872,-0.385,
54410520,-0.915,0.396,0.255,-5.582,-2.03,-0.105,
54410530,-0.922,0.392,0.256,-9.205,-4.97,0.035,
54410540,-0.918,0.391,0.277,-12.967,-8.365,-0.63,
54410550,-0.887,0.364,0.303,-16.31,-8.697,-1.732,
54410560,-0.867,0.336,0.307,-16.485,-3.517,-1.697,
54410570,-0.865,0.328,0.285,-15.96,1.172,-0.367,
54410580,-0.893,0.328,0.271,-17.097,2.152,2.24,
54410590,-0.894,0.336,0.275,-17.762,1.417,5.022,
54410600,-0.909,0.347,0.258,-18.76,0.735,7.122,
54410610,-0.924,0.344,0.253,-17.727,-1.575,6.702,
54410620,-0.908,0.34,0.273,-14.192,-4.462,5.232,
54410630,-0.928,0.339,0.265,-8.435,-4.865,3.745,
54410640,-0.92,0.344,0.277,-3.657,-6.702,2.432,
54410650,-0.883,0.327,0.288,0.577,-7.542,0.507,
54410660,-0.864,0.308,0.294,6.632,-5.862,-0.14,
54410670,-0.876,0.326,0.293,11.007,-2.467,1.54,
54410680,-0.886,0.343,0.291,12.005,0.297,2.625,
54410690,-0.906,0.343,0.263,11.41,2.467,3.465,
54410700,-0.961,0.426,0.2,11.55,-1.26,3.815,
54410710,-0.993,0.429,0.286,2.852,-13.37,1.522,
54410720,-0.949,0.343,0.259,1.277,-14.14,-2.152,
54410730,-0.895,0.39,0.296,3.027,-16.1,-2.327,
54410740,-0.873,0.341,0.289,-2.957,-15.417,-3.745,
54410750,-0.887,0.322,0.292,-1.627,-14.07,-2.922,
54410760,-0.852,0.354,0.325,-0.437,-12.512,-0.612,
54410760,-0.881,0.337,0.309,-0.297,-6.422,-0.385,
54410780,-0.874,0.356,0.294,0.052,-2.765,0.892,
54410780,-0.894,0.381,0.289,-0.927,-1.382,1.68,
54410800,-0.918,0.382,0.281,-2.957,-2.362,1.12,
54410800,-0.919,0.389,0.279,-5.022,-4.34,-0.192,
54410820,-0.918,0.388,0.278,-7.84,-6.72,-1.767,
54410820,-0.916,0.379,0.288,-10.937,-8.487,-2.502,
54410830,-0.876,0.344,0.329,-13.457,-8.575,-2.905,
54410840,-0.826,0.289,0.33,-11.847,-2.345,-2.817,
54410850,-0.835,0.307,0.319,-7.175,4.217,-0.577,
54410860,-0.88,0.327,0.296,-7.315,7.437,2.397,
54410870,-0.928,0.344,0.279,-7.98,8.61,4.812,
54410880,-0.945,0.359,0.258,-8.225,7.787,5.197,
54410890,-0.96,0.371,0.254,-8.68,3.237,3.675,
54410900,-0.933,0.37,0.277,-8.592,-1.785,1.557,
54410910,-0.903,0.358,0.286,-8.015,-4.602,-0.49,
54410920,-0.89,0.334,0.293,-7.035,-6.737,-1.085,
54410930,-0.86,0.318,0.305,-2.905,-6.317,-1.26,
54410940,-0.85,0.312,0.308,2.467,-2.555,-0.927,
54410950,-0.862,0.312,0.304,6.755,1.575,0.315,
54410960,-0.885,0.322,0.294,9.712,3.867,1.645,
54410970,-0.918,0.34,0.248,11.707,4.042,2.485,
54410980,-0.973,0.406,0.223,12.092,-2.17,2.152,
54410990,-0.995,0.406,0.267,6.545,-12.95,0.227,
54411000,-0.976,0.377,0.265,5.582,-16.187,-2.782,
54411010,-0.915,0.399,0.309,2.327,-19.617,-5.46,
54411020,-0.883,0.321,0.309,-4.06,-18.795,-7.42,
54411030,-0.846,0.302,0.329,-2.747,-16.082,-4.865,
54411040,-0.827,0.325,0.335,-1.872,-11.392,-1.207,
54411050,-0.867,0.34,0.314,-0.63,-4.69,0.665,
54411060,-0.874,0.376,0.3,-1.417,-1.277,1.995,
54411070,-0.894,0.4,0.296,-5.162,-0.402,2.187,
54411080,-0.905,0.398,0.304,-10.342,-1.82,0.822,
54411080,-0.912,0.384,0.305,-13.895,-2.31,-0.787,
54411100,-0.89,0.371,0.331,-16.205,-2.012,-1.505,
54411100,-0.85,0.307,0.334,-17.045,2.625,-2.222,
54411120,-0.849,0.296,0.313,-11.34,9.117,-1.172,
54411120,-0.846,0.307,0.302,-9.677,11.445,2.205,
54411140,-0.92,0.307,0.267,-11.462,12.46,4.357,
54411140,-0.954,0.317,0.259,-9.222,10.587,5.95,
54411160,-0.97,0.354,0.26,-7.822,5.67,5.985,
54411160,-0.967,0.356,0.261,-7.612,0.63,4.077,
54411170,-0.925,0.348,0.277,-7.455,-4.917,2.362,
54411180,-0.901,0.35,0.292,-6.387,-7.682,1.207,
54411190,-0.885,0.319,0.279,-5.722,-9.572,0.297,
54411200,-0.862,0.317,0.285,-3.062,-10.745,1.015,
54411210,-0.882,0.315,0.295,0.07,-10.325,1.662,
54411220,-0.903,0.312,0.307,2.59,-9.065,2.135,
54411230,-0.89,0.322,0.321,6.597,-7.682,2.52,
54411240,-0.871,0.332,0.322,10.132,-4.725,2.432,
54411250,-0.873,0.336,0.315,13.055,-2.397,2.782,
54411260,-0.891,0.354,0.25,16.397,-0.157,3.43,
54411270,-0.954,0.505,0.225,16.432,-7.192,2.537,
54411280,-1.001,0.44,0.317,0.735,-21.21,-1.907,
54411290,-0.89,0.297,0.306,0.49,-17.482,-5.827,
54411300,-0.861,0.354,0.342,6.755,-15.487,-6.562,
54411310,-0.832,0.302,0.345,2.187,-11.917,-6.055,
54411320,-0.844,0.29,0.364,5.74,-5.022,-2.047,
54411330,-0.842,0.33,0.328,6.37,4.2,2.852,
54411340,-0.882,0.348,0.289,4.69,9.59,3.447,
54411350,-0.918,0.37,0.277,3.167,9.887,3.447,
54411360,-0.964,0.378,0.267,1.47,7,3.132,
54411370,-0.985,0.387,0.277,-0.087,1.155,1.645,
54411380,-0.945,0.368,0.28,-2.73,-5.25,-0.927,
54411390,-0.908,0.353,0.281,-3.552,-8.68,-2.397,
54411400,-0.881,0.332,0.314,-4.865,-9.922,-2.432,
54411410,-0.837,0.289,0.312,-4.27,-6.965,-1.645,
54411420,-0.85,0.318,0.328,-0.07,-3.045,0.717,
54411430,-0.9,0.357,0.318,-0.822,1.102,2.852,
54411440,-0.924,0.365,0.312,-3.57,2.24,3.412,
54411450,-0.903,0.368,0.308,-5.687,2.835,2.555,
54411460,-0.879,0.364,0.311,-6.632,3.727,1.767,
54411470,-0.872,0.353,0.297,-7.402,5.705,1.54,
54411480,-0.863,0.351,0.306,-7.665,6.265,1.592,
54411490,-0.886,0.339,0.296,-8.365,8.032,2.065,
54411500,-0.91,0.345,0.289,-7.525,7.735,2.73,
54411510,-0.909,0.356,0.288,-7.122,6.912,2.625,
54411510,-0.915,0.35,0.285,-6.86,5.495,1.522,
54411520,-0.906,0.348,0.28,-6.37,4.427,1.05,
54411530,-0.902,0.34,0.272,-5.39,2.537,0.542,
54411540,-0.906,0.332,0.277,-3.657,-0.017,0,
54411550,-0.908,0.322,0.285,-1.067,-1.575,-0.332,
54411560,-0.913,0.317,0.285,1.557,-1.627,0.017,
54411570,-0.904,0.314,0.292,4.025,-2.17,0.63,
54411580,-0.899,0.316,0.294,7.245,-1.487,1.05,
54411590,-0.902,0.321,0.29,10.272,-1.102,1.522,
54411600,-0.894,0.332,0.294,12.827,-0.227,1.942,
54411610,-0.916,0.347,0.223,14.332,0.087,2.047,
54411620,-0.961,0.458,0.23,13.405,-8.942,1.382,
54411630,-0.977,0.403,0.289,4.305,-19.162,-1.487,
54411640,-0.935,0.347,0.295,3.08,-18.462,-3.43,
54411650,-0.884,0.385,0.314,1.855,-18.655,-4.847,
54411660,-0.862,0.334,0.327,-2.992,-16.59,-6.422,
54411670,-0.851,0.307,0.328,-1.575,-11.637,-4.48,
54411680,-0.853,0.34,0.329,0.857,-5.915,-1.82,
54411690,-0.861,0.356,0.318,-0.525,-0.402,-0.997,
54411700,-0.877,0.364,0.295,-2.625,3.36,-0.367,
54411710,-0.896,0.392,0.296,-4.182,4.095,0.175,
54411720,-0.92,0.402,0.298,-8.557,2.695,-1.312,
54411730,-0.916,0.393,0.299,-12.635,1.05,-3.99,
54411740,-0.889,0.371,0.316,-16.012,0.91,-5.6,
54411750,-0.852,0.31,0.341,-17.78,4.69,-5.775,
54411760,-0.836,0.268,0.324,-14.787,11.235,-3.605,
54411770,-0.855,0.283,0.285,-11.602,14.035,1.4,
54411780,-0.872,0.294,0.284,-10.587,15.96,4.97,
54411790,-0.956,0.32,0.263,-10.342,17.622,5.897,
54411800,-0.967,0.327,0.246,-8.995,15.102,6.107,
54411810,-0.988,0.355,0.238,-6.947,10.22,5.197,
54411820,-0.983,0.354,0.246,-6.58,3.062,2.957,
54411830,-0.959,0.348,0.257,-6.002,-3.412,0.717,
54411830,-0.916,0.342,0.274,-5.722,-8.592,-1.102,
54411850,-0.886,0.314,0.276,-4.357,-9.642,-1.907,
54411850,-0.877,0.315,0.287,-0.892,-10.062,-1.382,
54411870,-0.902,0.319,0.302,1.82,-8.522,-0.91,
54411870,-0.909,0.308,0.305,4.882,-6.317,-1.155,
54411890,-0.889,0.316,0.31,9.047,-3.57,-1.172,
54411890,-0.886,0.317,0.3,11.515,-1.295,-1.277,
54411910,-0.883,0.308,0.28,13.527,0.315,-0.245,
54411910,-0.939,0.368,0.158,16.275,-2.275,1.417,
54411920,-1.014,0.45,0.263,11.147,-16.765,-0.262,
54411930,-0.992,0.359,0.291,3.832,-21.28,-4.917,
54411940,-0.951,0.385,0.329,2.957,-20.037,-7.752,
54411950,-0.855,0.36,0.353,-4.025,-16.782,-10.955,
54411960,-0.834,0.288,0.333,-7.245,-9.94,-10.657,
54411970,-0.823,0.309,0.336,-4.952,-2.782,-6.352,
54411980,-0.866,0.334,0.301,-6.387,3.902,-4.13,
54411990,-0.915,0.351,0.268,-9.187,5.95,-2.87,
54412000,-0.95,0.384,0.265,-12.705,3.797,-2.625,
54412010,-0.962,0.384,0.278,-16.415,-1.312,-4.235,
54412020,-0.915,0.35,0.32,-18.865,-5.565,-6.23,
54412030,-0.857,0.285,0.332,-17.71,-3.5,-7,
54412040,-0.833,0.257,0.306,-12.74,2.327,-4.62,
54412050,-0.829,0.267,0.299,-10.237,5.722,-0.787,
54412060,-0.858,0.268,0.285,-8.557,8.522,3.045,
54412070,-0.918,0.286,0.277,-4.567,10.325,6.3,
54412080,-0.963,0.327,0.275,-1.977,9.38,7.28,
54412090,-0.989,0.347,0.272,-2.87,6.055,5.827,
54412100,-0.967,0.345,0.272,-4.27,1.925,3.482,
54412110,-0.947,0.351,0.262,-4.62,-2.03,1.137,
54412120,-0.899,0.347,0.281,-5.215,-6.352,-0.49,
54412130,-0.87,0.317,0.285,-4.34,-7.665,-0.892,
54412140,-0.869,0.317,0.297,-1.995,-7.367,-0.227,
54412150,-0.891,0.321,0.309,-1.312,-6.02,0.56,
54412160,-0.916,0.32,0.314,-0.665,-4.795,0.77,
54412170,-0.916,0.321,0.308,-0.017,-3.237,0.997,
54412180,-0.899,0.323,0.3,0.682,-2.03,0.63,
54412190,-0.884,0.306,0.294,1.137,-0.612,0.49,
54412190,-0.871,0.291,0.291,3.692,1.155,1.452,
54412210,-0.872,0.289,0.295,7.892,3.465,3.027,
54412210,-0.884,0.289,0.298,11.952,5.04,3.972,
54412230,-0.899,0.309,0.305,15.907,7.262,4.41,
54412230,-0.961,0.36,0.227,17.482,8.242,4.13,
54412250,-0.943,0.468,0.287,14.35,0.052,0.647,
54412250,-0.969,0.428,0.321,3.307,-0.595,-4.97,
54412260,-0.991,0.347,0.281,-5.757,3.797,-7.507,
54412270,-0.856,0.359,0.307,-8.645,1.925,-7.472,
54412280,-0.866,0.3,0.305,-14.175,2.065,-8.295,
54412290,-0.863,0.254,0.293,-11.777,4.252,-4.83,
54412300,-0.865,0.315,0.303,-5.425,7.122,-0.472,
54412310,-0.888,0.324,0.274,-7.542,9.59,0.087,
54412320,-0.898,0.313,0.247,-8.067,10.99,0.7,
54412330,-0.945,0.343,0.251,-6.65,10.832,1.137,
54412340,-0.975,0.348,0.256,-8.785,7.98,-0.507,
54412350,-0.958,0.335,0.259,-10.325,3.412,-1.977,
54412360,-0.929,0.321,0.28,-9.712,1.505,-2.31,
54412370,-0.914,0.283,0.269,-8.277,2.8,-2.38,
54412380,-0.892,0.278,0.264,-5.915,3.745,-0.665,
54412390,-0.903,0.285,0.263,-5.442,4.357,1.575,
54412400,-0.933,0.285,0.257,-4.322,5.425,2.817,
54412410,-0.953,0.311,0.26,-3.132,5.285,3.657,
54412420,-0.954,0.317,0.243,-2.852,3.902,3.447,
54412430,-0.947,0.337,0.254,-1.75,0.472,2.905,
54412440,-0.952,0.336,0.249,-2.66,-2.117,1.487,
54412450,-0.939,0.328,0.254,-3.517,-5.25,0.105,
54412460,-0.913,0.322,0.261,-3.482,-7.542,-0.945,
54412470,-0.899,0.32,0.278,-2.712,-7.7,-1.277,
54412480,-0.899,0.318,0.289,-2.362,-6.317,-1.172,
54412490,-0.89,0.304,0.292,-1.977,-3.395,-0.84,
54412500,-0.886,0.298,0.302,-0.21,-0.315,0.017,
54412510,-0.922,0.306,0.314,2.03,0.717,1.242,
54412520,-0.873,0.29,0.29,4.532,0.577,2.66,
54412530,-0.886,0.295,0.264,6.632,3.272,3.797,
54412540,-0.885,0.329,0.127,10.115,3.29,4.41,
54412550,-1.006,0.407,0.227,7.682,-5.232,1.942,
54412560,-1.036,0.319,0.245,3.885,-11.48,-1.767,
54412570,-1.001,0.364,0.286,6.247,-13.93,-2.222,
54412580,-0.912,0.321,0.293,-2.257,-13.702,-4.637,
54412580,-0.852,0.247,0.296,-4.165,-10.692,-3.92,
54412600,-0.833,0.284,0.3,-0.122,-6.247,0.245,
54412600,-0.889,0.315,0.279,1.4,-0.717,2.87,
54412620,-0.936,0.34,0.249,-0.017,1.242,3.937,
54412620,-0.972,0.356,0.236,-2.415,-0.892,3.535,
54412640,-0.993,0.368,0.256,-5.145,-6.317,1.452,
54412640,-0.962,0.354,0.279,-8.942,-10.657,-1.33,
54412660,-0.911,0.336,0.293,-11.06,-12.495,-2.66,
54412660,-0.855,0.308,0.329,-11.217,-9.345,-2.835,
54412670,-0.825,0.274,0.317,-9.327,-1.522,-1.855,
54412680,-0.837,0.285,0.296,-7.455,6.632,1.242,
54412690,-0.881,0.303,0.289,-9.152,11.812,4.235,
54412700,-0.927,0.299,0.286,-10.465,14.455,6.247,
54412710,-0.931,0.302,0.242,-8.05,14.822,7.052,
54412720,-0.943,0.34,0.237,-6.457,12.302,6.527,
54412730,-0.95,0.329,0.247,-6.947,8.452,4.672,
54412740,-0.959,0.311,0.24,-4.48,6.037,3.08,
54412750,-0.937,0.325,0.244,-3.062,2.065,1.557,
54412760,-0.927,0.302,0.256,-2.607,-0.945,0.017,
54412770,-0.917,0.276,0.259,-0.087,-1.242,0.472,
54412780,-0.924,0.286,0.266,2.765,-0.787,2.1,
54412790,-0.92,0.291,0.261,4.462,-0.175,3.22,
54412800,-0.923,0.301,0.258,6.16,-0.035,3.85,
54412810,-0.933,0.307,0.263,7.42,-0.77,4.375,
54412820,-0.951,0.348,0.149,9.73,-6.597,3.78,
54412830,-0.953,0.394,0.257,8.855,-18.427,0.91,
54412840,-0.991,0.309,0.23,8.802,-19.845,-2.485,
54412850,-0.953,0.374,0.299,10.955,-22.645,-2.712,
54412860,-0.928,0.342,0.299,2.537,-21.28,-5.127,
54412870,-0.867,0.276,0.318,-0.91,-16.94,-5.145,
54412880,-0.856,0.278,0.297,1.785,-10.202,-2.38,
54412890,-0.866,0.311,0.294,4.567,-6.195,0.472,
54412900,-0.903,0.325,0.279,3.377,-2.45,2.205,
54412910,-0.94,0.331,0.255,2.677,0.157,2.835,
54412920,-0.946,0.363,0.258,1.907,-2.38,2.625,
54412920,-0.958,0.366,0.259,-2.467,-6.86,0.472,
54412940,-0.947,0.352,0.254,-5.145,-11.847,-0.927,
54412940,-0.932,0.339,0.25,-6.195,-16.205,-0.437,
54412960,-0.907,0.329,0.268,-6.37,-19.915,-0.157,
54412960,-0.884,0.276,0.322,-5.267,-19.967,0.63,
54412980,-0.836,0.232,0.313,2.047,-12.915,2.835,
54412980,-0.865,0.323,0.327,5.74,-6.282,4.462,
54413000,-0.916,0.327,0.319,-3.692,-1.732,3.185,
54413000,-0.906,0.309,0.291,-4.952,3.237,3.972,
54413010,-0.915,0.356,0.3,-4.777,5.547,4.672,
54413020,-0.919,0.336,0.271,-7.472,6.685,3.447,
54413030,-0.931,0.354,0.269,-8.452,4.812,2.695,
54413040,-0.944,0.368,0.275,-11.042,2.292,1.942,
54413050,-0.923,0.307,0.286,-12.722,-2.625,-0.595,
54413060,-0.927,0.309,0.289,-10.867,-0.945,-0.857,
54413070,-0.864,0.334,0.292,-6.247,-0.717,0.77,
54413080,-0.911,0.367,0.288,-8.837,-0.315,-1.085,
54413090,-0.935,0.256,0.298,-10.937,-3.535,-1.942,
54413100,-0.896,0.311,0.28,-2.782,-5.827,0.91,
54413110,-0.912,0.328,0.294,-0.122,-4.742,0.21,
54413120,-0.932,0.263,0.285,-1.26,-5.285,-0.665,
54413130,-0.887,0.27,0.289,4.182,-6.282,1.277,
54413140,-0.896,0.28,0.287,6.387,-4.235,1.96,
54413150,-0.907,0.274,0.287,9.065,-2.607,2.782,
54413160,-0.99,0.251,0.339,10.447,-5.74,1.522,
54413170,-0.788,0.342,0.121,14.787,-7.472,1.627,
54413180,-0.923,0.493,0.242,16.607,-2.152,1.995,
54413190,-1.106,0.381,0.239,0.507,-7.892,-4.602,
54413200,-1.016,0.336,0.275,1.365,-14.262,-6.965,
54413210,-0.953,0.385,0.299,0.98,-17.5,-11.532,
54413220,-0.903,0.307,0.282,-5.897,-20.02,-14.875,
54413230,-0.859,0.244,0.319,-4.217,-20.055,-12.057,
54413240,-0.843,0.255,0.292,0.735,-15.767,-7.752,
54413250,-0.844,0.291,0.332,2.695,-12.442,-3.85,
54413260,-0.885,0.257,0.304,0.21,-6.09,-1.05,
54413270,-0.873,0.298,0.304,4.427,-2.695,2.817,
54413280,-0.916,0.342,0.306,2.87,-0.927,4.287,
54413290,-0.931,0.342,0.303,0.35,0.77,3.045,
54413300,-0.907,0.361,0.302,-0.717,-1.015,2.117,
54413310,-0.909,0.36,0.299,-4.13,-1.96,0.577,
54413320,-0.914,0.346,0.299,-6.667,-3.15,-0.367,
54413330,-0.899,0.351,0.303,-8.225,-2.712,-1.33,
54413330,-0.893,0.345,0.305,-11.392,-1.33,-2.817,
54413350,-0.878,0.321,0.344,-14.105,2.38,-3.64,
54413350,-0.875,0.255,0.337,-14.315,9.292,-3.167,
54413370,-0.868,0.254,0.312,-10.745,13.79,-0.227,
54413370,-0.865,0.285,0.318,-10.815,15.277,2.922,
54413390,-0.906,0.262,0.282,-10.377,17.797,5.232,
54413390,-0.908,0.287,0.257,-4.987,17.01,7.525,
54413410,-0.937,0.339,0.256,-4.445,13.492,7.98,
54413410,-0.973,0.319,0.247,-6.037,9.17,6.3,
54413420,-0.966,0.318,0.263,-4.41,4.777,5.197,
54413430,-0.962,0.321,0.269,-3.272,0.735,3.99,
54413440,-0.946,0.326,0.279,-5.075,-1.207,3.027,
54413450,-0.921,0.321,0.28,-6.282,-1.102,2.205,
54413460,-0.897,0.308,0.291,-6.195,-0.402,1.68,
54413470,-0.902,0.286,0.278,-4.305,0.105,1.645,
54413480,-0.904,0.286,0.276,-0.49,-0.122,2.59,
54413490,-0.93,0.282,0.267,3.36,-0.367,3.832,
54413500,-0.94,0.277,0.264,6.107,-1.505,4.515,
54413510,-0.926,0.279,0.266,8.872,-2.677,4.777,
54413520,-0.917,0.283,0.267,11.725,-3.167,5.53,
54413530,-0.914,0.291,0.272,14.087,-3.482,6.65,
54413540,-0.913,0.296,0.279,16.1,-3.57,7.612,
54413550,-0.951,0.354,0.175,18.112,-6.23,7.805,
54413560,-0.985,0.425,0.271,15.417,-19.372,5.32,
54413570,-0.978,0.348,0.275,8.627,-22.365,1.96,
54413580,-0.926,0.367,0.334,7.21,-21.77,0.192,
54413590,-0.875,0.332,0.335,1.557,-15.627,-1.925,
54413600,-0.837,0.297,0.321,0.105,-9.047,-1.767,
54413610,-0.822,0.31,0.327,1.89,-3.955,0.892,
54413620,-0.864,0.31,0.303,3.727,2.135,2.87,
54413630,-0.892,0.336,0.289,5.075,6.772,4.672,
54413640,-0.913,0.338,0.275,3.937,8.54,4.62,
54413650,-0.937,0.331,0.272,3.832,7.77,3.78,
54413660,-0.952,0.349,0.277,3.762,5.652,2.222,
54413670,-0.955,0.356,0.268,2.03,4.077,0.14,
54413670,-0.949,0.358,0.252,-0.7,1.452,-0.735,
54413690,-0.96,0.364,0.245,-4.165,-2.117,-1.592,
54413690,-0.971,0.351,0.241,-8.015,-8.522,-1.925,
54413710,-0.918,0.326,0.304,-11.602,-14.682,0.455,
54413710,-0.88,0.258,0.32,-12.775,-15.225,3.867,
54413730,-0.797,0.264,0.322,-9.59,-9.467,7.402,
54413730,-0.844,0.307,0.337,-8.75,0.245,7.805,
54413750,-0.909,0.315,0.322,-8.05,6.737,9.257,
54413750,-0.853,0.328,0.287,-5.88,8.382,11.672,
54413760,-0.898,0.358,0.254,-6.02,11.865,9.8,
54413770,-0.94,0.359,0.254,-5.355,13.317,7,
54413780,-0.993,0.374,0.257,-4.445,10.78,3.955,
54413790,-0.972,0.349,0.258,-5.197,4.462,0.875,
54413800,-0.924,0.33,0.262,-5.162,-0.612,-0.98,
54413810,-0.909,0.315,0.269,-4.462,-2.887,-1.592,
54413820,-0.899,0.299,0.296,-2.8,-3.85,-0.787,
54413830,-0.868,0.285,0.259,-0.122,-3.36,0.35,
54413840,-0.912,0.302,0.274,3.185,2.31,0.735,
54413850,-1.006,0.308,0.275,4.637,-0.49,0.7,
54413860,-0.886,0.296,0.272,7.875,-4.9,2.065,
54413870,-0.887,0.317,0.251,9.922,-2.397,1.155,
54413880,-0.919,0.308,0.254,11.2,1.33,1.032,
54413890,-0.959,0.336,0.161,13.195,-1.26,1.732,
54413900,-1.013,0.454,0.25,8.89,-15.12,0.7,
54413910,-0.996,0.334,0.269,1.435,-21.647,-3.692,
54413920,-0.962,0.371,0.281,2.957,-20.702,-5.197,
54413930,-0.868,0.36,0.318,-3.867,-22.4,-7.91,
54413940,-0.835,0.248,0.325,-7.07,-18.69,-7.682,
54413950,-0.819,0.273,0.312,1.137,-11.182,-2.03,
54413960,-0.854,0.342,0.306,3.78,-6.212,1.54,
54413970,-0.901,0.331,0.293,0.752,-1.855,1.89,
54413980,-0.913,0.338,0.282,0.63,0.945,2.66,
54413990,-0.928,0.361,0.279,0,0.98,2.502,
54414000,-0.954,0.365,0.285,-2.957,-2.117,0.595,
54414010,-0.932,0.365,0.289,-5.757,-4.13,-0.892,
54414020,-0.903,0.366,0.287,-8.557,-4.375,-2.065,
54414030,-0.879,0.349,0.286,-11.655,-3.552,-3.325,
54414040,-0.86,0.33,0.344,-13.737,-1.032,-4.007,
54414050,-0.845,0.251,0.33,-12.95,7.717,-3.272,
54414060,-0.849,0.28,0.323,-7.332,15.172,0.507,
54414070,-0.897,0.297,0.282,-8.032,20.02,3.132,
54414080,-0.913,0.303,0.262,-6.597,21.42,5.005,
54414080,-0.949,0.33,0.241,-4.69,20.352,6.632,
54414100,-0.968,0.331,0.23,-4.427,16.642,5.897,
54414100,-0.959,0.327,0.236,-3.955,11.742,4.48,
54414120,-0.959,0.317,0.233,-1.872,5.792,3.377,
54414120,-0.947,0.322,0.243,1.102,-0.192,2.782,
54414140,-0.932,0.316,0.259,1.697,-4.917,2.135,
54414140,-0.913,0.304,0.262,2.66,-5.337,2.45,
54414160,-0.895,0.311,0.272,3.71,-4.567,3.5,
54414160,-0.895,0.306,0.287,3.762,-3.255,4.112,
54414170,-0.891,0.306,0.287,4.847,-0.84,4.9,
54414180,-0.891,0.31,0.283,7.577,2.45,6.195,
54414190,-0.898,0.317,0.272,10.15,4.637,6.982,
54414200,-0.924,0.327,0.23,11.83,6.16,7.437,
54414210,-0.968,0.421,0.172,11.672,0.087,7.017,
54414220,-1.003,0.437,0.27,3.692,-12.18,2.957,
54414230,-0.98,0.334,0.25,0.245,-12.582,-2.852,
54414240,-0.922,0.375,0.27,1.837,-14.665,-4.427,
54414250,-0.878,0.336,0.299,-2.537,-16.012,-6.475,
54414260,-0.871,0.273,0.304,-2.222,-12.162,-4.795,
54414270,-0.844,0.299,0.3,1.872,-6.352,-0.385,
54414280,-0.854,0.305,0.289,1.785,-0.21,1.802,
54414290,-0.88,0.292,0.261,1.645,4.795,4.095,
54414300,-0.9,0.338,0.264,3.412,6.072,7.472,
54414310,-0.928,0.371,0.269,1.767,5.442,8.365,
54414320,-0.932,0.384,0.27,-0.997,3.972,7.315,
54414330,-0.915,0.389,0.287,-3.482,3.587,5.372,
54414340,-0.87,0.318,0.304,-4.392,6.51,3.185,
54414350,-0.832,0.303,0.281,1.242,13.895,3.097,
54414360,-0.895,0.345,0.264,1.82,17.622,4.252,
54414370,-0.954,0.334,0.236,-0.682,19.022,5.04,
54414380,-0.979,0.348,0.219,-1.802,16.345,5.04,
54414390,-0.995,0.35,0.202,-3.832,11.76,3.605,
54414400,-0.98,0.353,0.209,-3.657,5.215,2.31,
54414410,-0.965,0.353,0.222,-3.657,-0.28,1.155,
54414420,-0.929,0.338,0.239,-3.447,-4.375,-0.105,
54414420,-0.909,0.327,0.25,-3.115,-5.652,-0.735,
54414440,-0.905,0.318,0.242,-1.627,-5.197,-0.35,
54414440,-0.91,0.329,0.239,0.14,-4.952,0.595,
54414460,-0.92,0.329,0.239,1.767,-6.3,0.7,
54414460,-0.927,0.334,0.244,3.517,-7,0.892,
54414480,-0.932,0.333,0.255,4.97,-7.787,0.7,
54414480,-0.91,0.325,0.259,6.282,-7.297,0.14,
54414500,-0.888,0.323,0.261,7.98,-5.827,-0.017,
54414500,-0.887,0.317,0.253,9.24,-3.605,1.172,
54414510,-0.894,0.314,0.249,11.445,-2.397,2.887,
54414520,-0.935,0.325,0.174,13.947,-2.537,4.182,
54414530,-0.992,0.451,0.211,13.352,-12.862,3.22,
54414540,-1.035,0.413,0.245,4.865,-20.562,-1.907,
54414550,-0.974,0.364,0.255,1.19,-21.997,-5.407,
54414560,-0.872,0.369,0.285,-1.172,-22.4,-7.122,
54414570,-0.852,0.325,0.279,-4.725,-20.125,-8.312,
54414580,-0.851,0.315,0.302,-3.605,-16.485,-5.635,
54414590,-0.872,0.324,0.285,-2.012,-10.062,-3.587,
54414600,-0.888,0.333,0.27,-1.575,-5.005,-2.572,
54414610,-0.919,0.332,0.254,-2.012,-2.747,-1.417,
54414620,-0.946,0.342,0.254,-1.295,-3.115,-0.262,
54414630,-0.946,0.359,0.265,-2.642,-5.442,-0.507,
54414640,-0.905,0.346,0.275,-5.215,-6.16,-1.715,
54414650,-0.866,0.332,0.281,-6.405,-4.375,-1.417,
54414660,-0.864,0.333,0.279,-7.017,-1.417,-0.175,
54414670,-0.873,0.336,0.297,-8.032,1.627,1.225,
54414680,-0.883,0.313,0.297,-8.4,6.79,2.415,
54414690,-0.888,0.325,0.286,-6.317,12.162,3.815,
54414700,-0.919,0.346,0.259,-7.07,14.087,4.182,
54414710,-0.943,0.352,0.245,-9.397,13.195,3.92,
54414720,-0.944,0.352,0.243,-9.957,11.287,3.552,
54414730,-0.93,0.332,0.236,-9.485,9.8,2.327,
54414740,-0.928,0.335,0.243,-8.277,7.052,1.242,
54414750,-0.928,0.332,0.251,-8.295,5.477,0.91,
54414760,-0.929,0.318,0.246,-6.737,4.812,0.682,
54414770,-0.933,0.336,0.24,-4.602,3.43,0.56,
54414780,-0.934,0.333,0.228,-3.272,0.525,-0.122,
54414790,-0.933,0.323,0.242,-0.822,-2.1,-0.455,
54414800,-0.92,0.316,0.258,1.452,-2.992,-0.665,
54414810,-0.897,0.303,0.261,3.727,-1.68,-0.822,
54414820,-0.893,0.301,0.258,6.825,-0.332,-0.297,
54414830,-0.907,0.304,0.243,10.57,1.19,1.207,
54414830,-0.954,0.382,0.153,13.09,-1.592,1.89,
54414850,-1.071,0.428,0.228,4.62,-14.647,-0.682,
54414850,-0.958,0.322,0.229,1.907,-18.41,-3.885,
54414870,-0.921,0.373,0.281,4.987,-19.46,-6.58,
54414870,-0.895,0.326,0.266,0.175,-18.27,-9.03,
54414880,-0.906,0.322,0.266,-0.035,-17.99,-7.735,
54414890,-0.876,0.313,0.293,-1.172,-16.852,-5.18,
54414900,-0.877,0.299,0.272,0.227,-11.06,-3.552,
54414910,-0.884,0.329,0.285,1.12,-7.28,-1.89,
54414920,-0.894,0.315,0.269,0.595,-3.272,-0.98,
54414930,-0.938,0.339,0.264,1.522,-2.572,0.262,
54414940,-0.937,0.333,0.261,0.122,-4.41,0.192,
54414950,-0.932,0.334,0.25,0.91,-5.687,-0.017,
54414960,-0.925,0.342,0.25,0.367,-7.175,0.122,
54414970,-0.911,0.324,0.258,-1.207,-8.855,-0.297,
54414980,-0.899,0.309,0.273,-1.295,-8.855,0.175,
54414990,-0.896,0.312,0.283,-0.227,-7.262,1.435,
54415000,-0.907,0.326,0.28,0,-4.917,2.87,
54415010,-0.919,0.351,0.27,-1.417,-3.342,3.5,
54415020,-0.922,0.37,0.264,-4.777,-3.307,3.325,
54415030,-0.918,0.368,0.263,-7.875,-3.797,2.537,
54415040,-0.906,0.36,0.271,-10.272,-4.777,1.417,
54415050,-0.904,0.35,0.275,-12.022,-5.057,0.157,
54415060,-0.883,0.338,0.316,-12.355,-3.902,-0.507,
54415070,-0.862,0.271,0.307,-11.217,2.94,-0.7,
54415080,-0.864,0.284,0.286,-5.022,9.957,1.172,
54415090,-0.906,0.322,0.271,-5.04,12.985,3.465,
54415100,-0.967,0.319,0.242,-6.702,13.545,4.567,
54415110,-0.968,0.334,0.238,-6.58,11.48,4.707,
54415120,-0.965,0.321,0.215,-5.565,7.105,2.765,
54415130,-0.975,0.348,0.232,-3.727,0.595,1.487,
54415140,-0.962,0.337,0.233,-4.707,-5.022,0.192,
54415150,-0.941,0.325,0.248,-3.727,-9.38,-1.365,
54415160,-0.905,0.321,0.268,-2.257,-12.25,-2.31,
54415170,-0.895,0.301,0.272,-0.175,-11.165,-2.327,
54415170,-0.894,0.299,0.279,3.185,-9.222,-1.4,
54415190,-0.894,0.302,0.279,6.317,-6.702,-0.595,
54415190,-0.9,0.308,0.279,9.275,-4.392,0.14,
54415210,-0.915,0.319,0.253,10.885,-2.537,0.927,
54415210,-0.945,0.343,0.215,11.252,-5.477,1.26,
54415230,-0.977,0.365,0.215,10.482,-13.492,0.542,
54415230,-0.994,0.37,0.228,10.062,-22.645,-1.627,
54415250,-0.973,0.364,0.282,8.067,-27.125,-4.2,
54415250,-0.942,0.338,0.3,2.975,-26.145,-6.475,
54415260,-0.863,0.304,0.312,-0.227,-22.96,-6.335,
54415270,-0.823,0.28,0.318,0.175,-18.077,-3.885,
54415280,-0.841,0.299,0.31,2.047,-11.83,-0.542,
54415290,-0.875,0.331,0.3,2.572,-7.28,2.415,
54415300,-0.892,0.347,0.281,0.84,-3.377,3.622,
54415310,-0.923,0.358,0.271,-0.822,-3.36,3.272,
54415320,-0.939,0.367,0.28,-2.87,-5.6,2.152,
54415330,-0.931,0.368,0.291,-6.317,-7.875,0.735,
54415340,-0.893,0.361,0.299,-9.502,-7.997,-0.367,
54415350,-0.865,0.354,0.315,-12.232,-5.635,-1.417,
54415360,-0.843,0.314,0.344,-14.84,-0.612,-1.697,
54415370,-0.817,0.265,0.324,-11.69,8.487,-0.665,
54415380,-0.855,0.285,0.307,-7.227,15.382,2.222,
54415390,-0.915,0.302,0.284,-7.07,19.057,4.322,
54415400,-0.977,0.324,0.27,-7.402,19.372,5.897,
54415410,-0.978,0.334,0.247,-7.472,18.252,5.582,
54415420,-0.981,0.344,0.236,-8.347,14.14,3.71,
54415430,-0.98,0.345,0.239,-10.692,8.015,1.942,
54415440,-0.953,0.324,0.251,-11.13,3.657,-0.402,
54415450,-0.941,0.32,0.256,-10.64,3.01,-2.222,
54415460,-0.926,0.324,0.273,-12.127,2.765,-3.78,
54415470,-0.893,0.3,0.272,-12.53,2.695,-3.517,
54415480,-0.872,0.304,0.281,-10.22,2.66,-1.645,
54415490,-0.877,0.309,0.286,-8.015,3.115,0,
54415500,-0.881,0.316,0.283,-4.69,3.15,1.277,
54415510,-0.898,0.329,0.272,-1.96,3.815,2.38,
54415520,-0.925,0.338,0.268,-1.295,3.622,2.117,
54415530,-0.931,0.328,0.273,-1.68,3.167,1.242,
54415540,-0.907,0.305,0.277,-0.647,2.922,0.717,
54415550,-0.896,0.297,0.278,1.557,3.955,1.085,
54415550,-0.893,0.292,0.276,4.655,4.882,1.732,
54415570,-0.9,0.287,0.265,7.91,6.02,3.062,
54415570,-0.922,0.296,0.241,10.99,6.457,4.672,
54415580,-0.954,0.346,0.147,13.737,3.255,5.145,
54415590,-1.037,0.413,0.223,8.137,-8.715,2.94,
54415600,-1.031,0.349,0.23,3.395,-15.68,-0.437,
54415610,-0.986,0.386,0.26,4.165,-20.51,-3.71,
54415620,-0.964,0.383,0.27,-2.38,-24.185,-8.487,
54415630,-0.914,0.324,0.292,-7.997,-25.76,-10.447,
54415640,-0.876,0.288,0.298,-8.855,-22.067,-9.012,
54415650,-0.856,0.289,0.291,-6.877,-17.412,-6.895,
54415660,-0.86,0.298,0.296,-5.967,-12.565,-5.46,
54415670,-0.903,0.288,0.289,-6.23,-8.225,-3.64,
54415680,-0.908,0.302,0.273,-4.55,-6.002,-1.277,
54415690,-0.922,0.329,0.276,-5.232,-7.525,-0.542,
54415700,-0.925,0.321,0.271,-7.717,-8.68,-0.595,
54415710,-0.921,0.335,0.281,-7.752,-9.117,-0.157,
54415720,-0.882,0.331,0.323,-10.15,-8.102,-0.525,
54415730,-0.831,0.267,0.339,-11.602,-2.257,-0.665,
54415740,-0.806,0.246,0.327,-7.21,5.827,2.135,
54415750,-0.826,0.283,0.319,-3.255,12.565,6.422,
54415760,-0.893,0.3,0.29,-1.05,17.867,8.995,
54415770,-0.93,0.324,0.271,1.26,20.02,10.465,
54415780,-0.97,0.354,0.236,2.082,18.025,9.607,
54415790,-0.997,0.365,0.235,-0.63,12.32,7.297,
54415800,-0.987,0.352,0.253,-4.515,6.3,4.55,
54415810,-0.957,0.323,0.261,-5.162,2.642,2.135,
54415820,-0.925,0.309,0.262,-4.602,0.525,0.962,
54415830,-0.905,0.297,0.258,-4.445,0.28,1.085,
54415840,-0.898,0.287,0.257,-3.465,0.752,2.38,
54415850,-0.926,0.294,0.255,-2.047,1.522,3.692,
54415860,-0.94,0.306,0.253,-0.682,0.28,4.077,
54415870,-0.951,0.32,0.254,0.472,-1.627,3.937,
54415880,-0.947,0.327,0.258,1.557,-3.972,3.325,
54415890,-0.942,0.336,0.265,1.172,-5.495,2.607,
54415900,-0.918,0.324,0.267,0.437,-6.37,1.557,
54415910,-0.908,0.319,0.27,0.91,-5.862,1.067,
54415920,-0.911,0.318,0.272,1.592,-5.302,1.102,
54415920,-0.918,0.315,0.272,1.767,-4.392,1.172,
54415940,-0.92,0.313,0.266,2.695,-4.042,1.452,
54415940,-0.925,0.32,0.259,4.077,-3.867,2.047,
54415960,-0.944,0.335,0.258,4.287,-5.302,1.767,
54415960,-0.942,0.335,0.26,3.062,-6.877,0.735,
54415980,-0.93,0.324,0.252,2.905,-8.592,-0.647,
54415980,-0.922,0.326,0.249,3.85,-10.867,-1.47,
54416000,-0.917,0.325,0.266,3.955,-14.105,-1.96,
54416000,-0.921,0.306,0.271,3.587,-15.33,-1.365,
54416010,-0.915,0.317,0.276,3.01,-15.942,0.157,
54416020,-0.909,0.339,0.289,0.245,-15.47,0.122,
54416030,-0.913,0.335,0.296,-3.937,-13.965,-1.032,
54416040,-0.894,0.332,0.307,-5.337,-10.535,-1.75,
54416050,-0.885,0.325,0.305,-5.075,-6.195,-2.1,
54416060,-0.882,0.329,0.299,-5.355,-2.38,-2.012,
54416070,-0.887,0.321,0.294,-4.287,-0.927,-0.525,
54416080,-0.891,0.328,0.288,-3.01,0.42,0.77,
54416090,-0.899,0.32,0.282,-2.642,1.102,0.647,
54416100,-0.903,0.316,0.282,-2.03,2.275,0.717,
54416110,-0.921,0.32,0.279,-2.59,3.342,0.945,
54416120,-0.927,0.315,0.276,-3.167,3.377,1.19,
54416130,-0.927,0.316,0.271,-3.5,2.922,1.487,
54416140,-0.926,0.319,0.27,-3.027,2.012,1.767,
54416150,-0.92,0.316,0.286,-2.31,1.872,1.785,
54416160,-0.905,0.298,0.284,-1.4,3.692,1.645,
54416170,-0.898,0.301,0.278,0.437,5.88,2.852,
54416180,-0.914,0.322,0.276,0.91,6.51,4.042,
54416190,-0.926,0.326,0.275,0.087,6.632,4.27,
54416200,-0.926,0.327,0.27,-0.455,6.72,4.147,
54416210,-0.921,0.332,0.262,-0.857,6.825,3.867,
54416220,-0.933,0.333,0.263,-1.995,5.915,3.29,
54416230,-0.936,0.327,0.256,-2.502,5.11,2.45,
54416240,-0.937,0.33,0.262,-2.327,3.36,1.592,
54416250,-0.93,0.314,0.261,-2.87,2.52,0.945,
54416260,-0.897,0.287,0.268,-1.645,0.962,0.262,
54416260,-0.889,0.319,0.248,3.395,3.097,2.835,
54416280,-0.988,0.355,0.249,1.627,0.997,2.17,
54416280,-0.943,0.322,0.24,-0.455,-1.26,1.26,
54416300,-0.953,0.34,0.248,1.312,-4.585,-0.42,
54416300,-0.935,0.328,0.255,-0.28,-6.737,-2.555,
54416320,-0.927,0.311,0.267,0.857,-8.032,-3.325,
54416320,-0.911,0.314,0.266,1.82,-7.035,-3.552,
54416330,-0.915,0.303,0.267,2.642,-6.65,-3.78,
54416340,-0.917,0.309,0.266,2.87,-5.95,-3.762,
54416350,-0.934,0.319,0.279,2.765,-6.492,-3.867,
54416360,-0.97,0.32,0.233,-0.927,-11.882,-6.16,
54416370,-0.884,0.424,0.223,-0.875,-11.725,-5.897,
54416380,-1.008,0.388,0.247,-8.82,-15.662,-9.922,
54416390,-0.936,0.299,0.276,-12.74,-17.097,-11.62,
54416400,-0.882,0.328,0.31,-8.767,-14.682,-12.197,
54416410,-0.857,0.289,0.305,-12.18,-10.99,-12.302,
54416420,-0.845,0.259,0.321,-10.535,-7.49,-8.907,
54416430,-0.852,0.253,0.312,-5.705,-3.202,-3.727,
54416440,-0.877,0.275,0.287,0.052,2.012,0.105,
54416450,-0.921,0.314,0.27,1.96,4.62,1.505,
54416460,-0.95,0.317,0.264,1.54,4.27,1.75,
54416470,-0.958,0.324,0.27,1.522,1.837,1.505,
54416480,-0.922,0.306,0.282,-0.192,-0.647,0.892,
54416490,-0.889,0.285,0.281,-0.857,-0.402,1.487,
54416500,-0.88,0.294,0.28,-0.157,1.505,3.377,
54416510,-0.892,0.308,0.277,-0.472,3.535,4.97,
54416520,-0.931,0.325,0.265,-1.697,4.76,5.967,
54416530,-0.964,0.339,0.267,-3.15,3.99,5.565,
54416540,-0.961,0.33,0.28,-4.217,2.012,3.517,
54416550,-0.918,0.304,0.295,-3.465,2.607,2.1,
54416560,-0.89,0.296,0.28,-1.662,5.162,2.31,
54416570,-0.89,0.303,0.265,-1.137,7.087,3.552,
54416580,-0.906,0.3,0.256,-2.345,7.245,4.637,
54416590,-0.926,0.299,0.258,-2.292,7.192,5.617,
54416600,-0.94,0.311,0.261,-1.102,7.805,5.39,
54416610,-0.958,0.329,0.254,-1.225,7.822,4.112,
54416620,-0.971,0.326,0.244,-2.747,5.285,2.817,
54416630,-0.955,0.317,0.237,-2.817,2.292,1.995,
54416640,-0.939,0.323,0.24,-2.467,-1.277,0.98,
54416650,-0.932,0.307,0.241,-2.835,-3.412,-0.192,
54416660,-0.92,0.296,0.242,-1.26,-5.215,-0.332,
54416670,-0.934,0.303,0.251,0.7,-6.597,0.122,
54416670,-0.949,0.3,0.257,1.802,-8.347,0.035,
54416690,-0.946,0.304,0.261,2.87,-9.38,-0.192,
54416690,-0.93,0.309,0.263,3.01,-10.342,-0.525,
54416710,-0.909,0.31,0.268,2.555,-10.237,-0.402,
54416710,-0.894,0.305,0.275,1.662,-9.73,0.542,
54416730,-0.905,0.309,0.283,1.155,-8.837,1.942,
54416730,-0.924,0.327,0.197,-0.472,-8.452,3.167,
54416750,-0.984,0.422,0.28,-8.12,-13.807,2.152,
54416750,-0.986,0.298,0.266,-16.362,-16.957,-0.77,
54416760,-0.885,0.317,0.304,-10.657,-14.332,-0.315,
54416770,-0.839,0.327,0.305,-12.372,-10.167,-2.502,
54416780,-0.875,0.271,0.307,-13.72,-6.212,-2.765,
54416790,-0.854,0.27,0.308,-6.282,-1.05,0.927,
54416800,-0.876,0.311,0.293,-0.157,4.707,3.08,
54416810,-0.92,0.312,0.266,0.927,7.612,3.255,
54416820,-0.942,0.31,0.255,2.467,7.595,3.395,
54416830,-0.953,0.313,0.258,3.657,5.6,3.272,
54416840,-0.95,0.312,0.262,3.465,2.782,2.572,
54416850,-0.927,0.31,0.262,2.87,0.857,2.152,
54416860,-0.921,0.312,0.255,1.75,-0.105,2.747,
54416870,-0.931,0.324,0.262,-0.227,-1.505,3.43,
54416880,-0.93,0.327,0.266,-2.887,-2.66,3.237,
54416890,-0.92,0.323,0.275,-4.182,-2.695,2.887,
54416900,-0.929,0.326,0.276,-4.935,-2.31,2.135,
54416910,-0.931,0.326,0.278,-5.792,-1.837,1.242,
54416920,-0.917,0.298,0.306,-6.807,-0.857,0.857,
54416930,-0.852,0.273,0.274,-2.555,4.515,2.012,
54416940,-0.904,0.339,0.269,-0.752,6.772,3.605,
54416950,-0.952,0.307,0.258,-6.422,6.387,3.99,
54416960,-0.934,0.302,0.254,-4.165,5.652,4.55,
54416970,-0.939,0.327,0.247,-3.22,4.567,3.745,
54416980,-0.955,0.322,0.245,-3.762,1.435,2.275,
54416990,-0.94,0.322,0.248,-3.64,-1.295,1.522,
54417000,-0.925,0.312,0.253,-2.485,-3.675,0.542,
54417010,-0.914,0.31,0.264,-1.61,-4.9,-0.105,
54417010,-0.92,0.304,0.264,-1.96,-5.075,0.035,
54417030,-0.924,0.302,0.26,-1.19,-4.322,0.822,
54417030,-0.938,0.314,0.265,-0.437,-5.145,1.172,
54417050,-0.929,0.307,0.271,-0.805,-5.53,0.84,
54417050,-0.913,0.305,0.273,0.35,-5.11,0.647,
54417070,-0.901,0.303,0.27,1.995,-4.375,1.207,
54417070,-0.913,0.302,0.294,3.955,-4.637,1.89,
54417080,-0.935,0.291,0.276,4.445,-6.632,2.205,
54417090,-0.867,0.342,0.171,5.67,-6.632,2.87,
54417100,-1.014,0.414,0.242,0.997,-9.047,2.135,
54417110,-1.01,0.298,0.242,-6.23,-15.4,-2.555,
54417120,-0.94,0.327,0.278,1.54,-16.432,-3.377,
54417130,-0.897,0.319,0.299,-1.977,-15.61,-5.197,
54417140,-0.864,0.262,0.287,-3.132,-11.795,-5.512,
54417150,-0.848,0.292,0.313,0.542,-7.822,-2.047,
54417160,-0.872,0.295,0.307,0.945,-1.872,0.175,
54417170,-0.888,0.315,0.284,2.642,2.852,2.765,
54417180,-0.905,0.343,0.266,2.38,4.567,4.585,
54417190,-0.946,0.346,0.26,0.892,2.66,4.655,
54417200,-0.948,0.34,0.263,-0.542,-0.892,3.71,
54417210,-0.927,0.338,0.272,-1.75,-3.325,2.187,
54417220,-0.92,0.338,0.275,-4.077,-3.325,1.015,
54417230,-0.882,0.319,0.283,-5.687,-2.625,0.805,
54417240,-0.866,0.286,0.317,-4.935,-0.157,1.382,
54417250,-0.832,0.233,0.305,0.945,6.125,4.095,
54417260,-0.866,0.281,0.277,9.135,11.585,9.1,
54417270,-0.956,0.319,0.248,8.102,12.827,11.27,
54417280,-1.008,0.31,0.225,7.455,9.415,12.267,
54417290,-0.989,0.321,0.203,9.187,3.307,12.74,
54417300,-1.034,0.279,0.204,8.61,-4.83,10.272,
54417310,-0.895,0.306,0.256,10.132,-14.63,6.982,
54417320,-0.934,0.323,0.268,17.972,-14.98,10.5,
54417330,-0.928,0.346,0.255,15.26,-16.292,9.485,
54417340,-0.915,0.352,0.258,12.81,-13.615,9.695,
54417350,-0.939,0.357,0.266,8.96,-13.457,8.575,
54417360,-0.89,0.332,0.273,6.23,-13.212,7.822,
54417370,-0.894,0.349,0.284,9.03,-11.445,7.35,
54417380,-0.895,0.358,0.282,7.77,-9.66,6.352,
54417390,-0.918,0.352,0.277,6.72,-8.347,5.355,
54417400,-0.919,0.362,0.276,6.23,-8.05,4.672,
54417410,-0.925,0.366,0.277,3.85,-7.542,2.887,
54417420,-0.921,0.346,0.296,1.295,-8.225,0.717,
54417420,-0.864,0.345,0.282,0.612,-9.485,-0.647,
54417440,-0.901,0.335,0.338,1.82,-5.862,0.945,
54417440,-0.867,0.325,0.261,-0.28,-7.122,-0.84,
54417460,-0.889,0.307,0.31,2.397,-4.672,1.925,
54417460,-0.864,0.338,0.258,4.427,-3.115,2.817,
54417480,-0.889,0.418,0.155,5.355,0.84,4.69,
54417480,-1.071,0.473,0.253,-5.127,-7.98,1.435,
54417500,-0.981,0.298,0.257,-11.917,-13.947,-3.377,
54417500,-0.888,0.36,0.295,-1.26,-14.122,-4.2,
54417510,-0.865,0.337,0.305,-8.347,-14.122,-5.302,
54417520,-0.858,0.265,0.303,-6.492,-10.447,-3.797,
54417530,-0.84,0.316,0.316,-1.225,-5.6,0.665,
54417540,-0.872,0.322,0.287,-0.35,0.717,1.715,
54417550,-0.912,0.336,0.273,1.365,3.745,2.607,
54417560,-0.942,0.346,0.258,1.627,4.095,3.15,
54417570,-0.951,0.36,0.271,2.222,0.875,2.712,
54417580,-0.924,0.366,0.285,0.227,-1.995,0.997,
54417590,-0.883,0.359,0.288,-1.4,-1.925,-0.49,
54417600,-0.873,0.361,0.283,-2.887,0.157,-0.682,
54417610,-0.88,0.351,0.289,-4.48,1.697,-0.787,
54417620,-0.874,0.325,0.295,-4.182,4.287,-0.385,
54417630,-0.875,0.319,0.303,-0.91,8.382,0.507,
54417640,-0.901,0.321,0.293,1.172,11.305,1.172,
54417650,-0.912,0.314,0.268,2.135,12.495,2.1,
54417660,-0.925,0.332,0.247,3.482,13.107,2.957,
54417670,-0.963,0.347,0.231,1.977,11.252,2.975,
54417680,-0.969,0.344,0.227,1.05,7.035,2.257,
54417690,-0.974,0.348,0.236,0.42,1.767,1.032,
54417700,-0.953,0.337,0.248,-0.192,-3.15,0.175,
54417710,-0.912,0.333,0.264,0.262,-6.002,-0.122,
54417720,-0.889,0.329,0.266,0.945,-7.07,0.14,
54417730,-0.89,0.338,0.271,2.17,-5.757,1.225,
54417740,-0.899,0.345,0.274,1.767,-3.937,2.135,
54417750,-0.902,0.344,0.268,1.312,-2.31,2.152,
54417760,-0.907,0.348,0.266,1.312,-1.907,2.012,
54417760,-0.921,0.355,0.266,0.98,-1.592,1.995,
54417780,-0.924,0.363,0.265,0.227,-2.03,1.435,
54417780,-0.923,0.361,0.254,-1.26,-2.415,0.455,
54417800,-0.933,0.35,0.244,-1.837,-4.357,-0.367,
54417800,-0.945,0.345,0.241,-2.572,-7.14,-0.437,
54417820,-0.961,0.335,0.238,-3.027,-11.217,-0.42,
54417820,-0.953,0.325,0.242,-2.152,-15.487,0.472,
54417830,-0.911,0.322,0.263,-0.822,-18.637,1.872,
54417840,-0.874,0.317,0.279,0.262,-18.077,3.132,
54417850,-0.836,0.323,0.283,1.557,-14,3.727,
54417860,-0.828,0.332,0.307,1.89,-5.582,4.217,
54417870,-0.882,0.366,0.292,2.24,0.91,4.235,
54417880,-0.909,0.381,0.296,1.242,3.85,3.99,
54417890,-0.924,0.377,0.283,-1.557,3.045,2.537,
54417900,-0.901,0.359,0.279,-2.572,2.38,1.592,
54417910,-0.9,0.349,0.276,-2.362,0.49,0.98,
54417920,-0.885,0.329,0.273,-1.645,-0.525,1.277,
54417930,-0.885,0.319,0.269,0.105,-0.472,2.24,
54417940,-0.895,0.322,0.266,1.487,0.35,3.762,
54417950,-0.924,0.342,0.267,1.837,0.525,4.847,
54417960,-0.938,0.35,0.266,1.225,-0.367,4.847,
54417970,-0.926,0.356,0.266,1.207,-1.767,4.06,
54417980,-0.927,0.36,0.263,1.015,-3.132,3.08,
54417990,-0.932,0.358,0.258,0.14,-4.69,2.205,
54418000,-0.931,0.358,0.254,-0.647,-7.052,1.557,
54418010,-0.932,0.355,0.262,-1.26,-9.625,0.507,
54418020,-0.917,0.342,0.27,-2.17,-11.392,-0.455,
54418030,-0.901,0.336,0.274,-1.487,-12.18,-0.28,
54418040,-0.891,0.337,0.279,0.437,-12.512,0.525,
54418050,-0.89,0.342,0.282,1.75,-11.322,1.382,
54418060,-0.889,0.345,0.282,2.712,-9.887,1.872,
54418070,-0.881,0.347,0.291,3.132,-7.892,2.275,
54418080,-0.891,0.353,0.278,2.887,-6.405,2.275,
54418090,-0.918,0.382,0.221,2.572,-4.725,2.17,
54418100,-0.977,0.457,0.287,-4.672,-10.15,-0.07,
54418110,-0.964,0.31,0.277,-12.04,-13.562,-3.57,
54418120,-0.856,0.34,0.293,-2.082,-12.04,-2.572,
54418130,-0.89,0.371,0.294,-6.457,-11.777,-2.817,
54418140,-0.885,0.295,0.284,-7.455,-10.762,-2.8,
54418150,-0.869,0.332,0.306,-2.607,-9.082,-0.227,
54418160,-0.874,0.33,0.299,-2.642,-6.58,0.42,
54418170,-0.882,0.331,0.293,-0.402,-3.517,1.242,
54418170,-0.896,0.355,0.296,-0.14,-2.17,2.082,
54418190,-0.925,0.346,0.297,-0.262,-0.945,2.1,
54418190,-0.924,0.353,0.283,0.385,-1.067,1.47,
54418210,-0.906,0.362,0.282,-0.14,-1.855,0.717,
54418210,-0.9,0.35,0.286,-1.225,-2.327,0.227,
54418230,-0.873,0.344,0.301,-1.54,-1.365,0.49,
54418230,-0.856,0.344,0.309,-1.802,0.98,0.892,
54418250,-0.877,0.341,0.298,-2.397,4.392,1.785,
54418250,-0.891,0.355,0.291,-2.31,6.002,2.677,
54418260,-0.904,0.373,0.279,-3.517,6.912,2.555,
54418270,-0.942,0.384,0.268,-5.827,5.67,1.365,
54418280,-0.952,0.391,0.26,-7.945,3.5,-0.63,
54418290,-0.961,0.38,0.276,-11.2,-0.315,-3.447,
54418300,-0.897,0.328,0.291,-12.442,-2.835,-5.74,
54418310,-0.86,0.324,0.306,-9.135,-1.452,-5.547,
54418320,-0.86,0.319,0.307,-8.767,1.715,-3.937,
54418330,-0.868,0.306,0.302,-7,5.74,-1.855,
54418340,-0.88,0.319,0.284,-4.357,9.52,0.472,
54418350,-0.911,0.333,0.275,-3.885,11.515,1.61,
54418360,-0.941,0.33,0.261,-3.78,10.867,1.697,
54418370,-0.945,0.341,0.254,-2.747,8.68,1.592,
54418380,-0.961,0.352,0.251,-3.307,5.11,1.12,
54418390,-0.954,0.343,0.245,-3.937,1.172,0.192,
54418400,-0.919,0.339,0.255,-3.185,-2.747,-0.595,
54418410,-0.893,0.33,0.267,-2.31,-5.162,-1.032,
54418420,-0.888,0.32,0.279,-0.437,-5.635,-0.682,
54418430,-0.908,0.326,0.28,0.962,-4.795,0.35,
54418440,-0.92,0.327,0.278,1.767,-4.62,1.032,
54418450,-0.92,0.33,0.277,2.992,-4.55,1.207,
54418460,-0.918,0.328,0.273,4.287,-4.952,1.155,
54418470,-0.912,0.327,0.274,5.845,-5.302,1.137,
54418480,-0.907,0.328,0.259,7.35,-6.177,1.365,
54418490,-0.915,0.374,0.233,7.752,-8.242,1.802,
54418500,-0.934,0.391,0.29,3.237,-13.02,0.437,
54418510,-0.92,0.342,0.285,1.452,-11.672,-1.242,
54418510,-0.893,0.378,0.313,1.627,-10.01,-1.907,
54418530,-0.884,0.344,0.289,-2.45,-6.772,-3.22,
54418530,-0.877,0.335,0.286,-1.015,-5.285,-3.377,
54418550,-0.879,0.356,0.295,-0.49,-3.657,-3.01,
54418550,-0.894,0.34,0.288,-1.662,-1.417,-3.307,
54418570,-0.878,0.333,0.291,-1.977,1.4,-2.87,
54418570,-0.884,0.328,0.287,-2.695,3.535,-2.31,
54418580,-0.904,0.327,0.284,-2.31,4.9,-1.295,
54418590,-0.922,0.342,0.277,-2.152,4.742,-0.577,
54418600,-0.939,0.353,0.26,-2.975,3.902,-0.647,
54418610,-0.94,0.357,0.251,-4.06,0.805,-1.155,
54418620,-0.938,0.355,0.255,-5.197,-2.38,-2.065,
54418630,-0.936,0.345,0.265,-5.95,-5.53,-3.062,
54418640,-0.92,0.333,0.275,-6.51,-7.402,-3.5,
54418650,-0.896,0.319,0.289,-6.492,-7.735,-3.482,
54418660,-0.875,0.309,0.297,-6.422,-5.53,-2.467,
54418670,-0.854,0.301,0.338,-6.317,-1.19,-0.28,
54418680,-0.844,0.254,0.309,-4.252,7.367,3.237,
54418690,-0.837,0.303,0.289,1.837,14.735,7.735,
54418700,-0.913,0.352,0.273,0.28,16.747,10.29,
54418710,-0.96,0.347,0.25,-1.207,15.837,10.412,
54418720,-0.971,0.371,0.233,-0.14,12.337,9.205,
54418730,-0.978,0.382,0.222,-1.12,5.95,5.425,
54418740,-0.967,0.37,0.236,-1.067,-1.732,1.68,
54418750,-0.929,0.337,0.263,-0.735,-6.562,-1.067,
54418760,-0.897,0.301,0.276,0.91,-7.402,-2.17,
54418770,-0.874,0.288,0.279,3.622,-5.845,-0.822,
54418780,-0.892,0.302,0.275,6.282,-3.29,1.61,
54418790,-0.915,0.319,0.264,7.262,-1.417,3.64,
54418800,-0.925,0.331,0.244,8.207,-2.24,4.655,
54418810,-0.93,0.368,0.212,9.362,-5.512,4.585,
54418820,-0.973,0.392,0.236,6.79,-12.88,2.66,
54418830,-0.958,0.357,0.257,5.512,-17.885,-0.087,
54418840,-0.935,0.372,0.29,6.247,-18.777,-2.275,
54418850,-0.907,0.351,0.29,2.24,-16.87,-3.972,
54418860,-0.879,0.313,0.293,0.875,-14.927,-3.815,
54418870,-0.863,0.32,0.29,2.975,-11.795,-2.03,
54418880,-0.875,0.345,0.292,3.955,-9.607,-0.595,
54418890,-0.889,0.345,0.288,2.957,-6.177,0.017,
54418900,-0.89,0.344,0.285,2.8,-3.64,0.577,
54418910,-0.893,0.352,0.289,1.802,-2.047,1.19,
54418920,-0.903,0.346,0.286,0.525,-1.452,1.295,
54418920,-0.911,0.356,0.284,0.297,-0.735,1.4,
54418930,-0.906,0.363,0.28,-1.102,-0.612,1.137,
54418940,-0.9,0.363,0.274,-3.185,0.122,0.472,
54418950,-0.899,0.364,0.274,-5.495,0.21,-0.192,
54418960,-0.908,0.361,0.272,-8.102,0.332,-0.682,
54418970,-0.918,0.355,0.269,-9.835,-0.42,-1.61,
54418980,-0.918,0.344,0.297,-10.57,-1.26,-2.24,
54418990,-0.904,0.272,0.28,-9.852,-0.122,-1.505,
54419000,-0.88,0.267,0.237,-3.36,1.05,1.575,
54419010,-0.907,0.328,0.253,-2.047,-3.027,5.337,
54419020,-0.942,0.316,0.256,-3.797,-5.792,6.72,
54419030,-0.921,0.328,0.272,0.367,-7.297,5.932,
54419040,-0.915,0.334,0.272,3.57,-8.61,4.427,
54419050,-0.908,0.318,0.284,7.28,-10.657,4.55,
54419060,-0.911,0.327,0.288,10.36,-10.57,6.177,
54419070,-0.921,0.34,0.262,11.9,-10.097,6.615,
54419080,-0.947,0.391,0.25,9.625,-11.48,5.582,
54419090,-0.978,0.367,0.258,2.537,-16.17,3.78,
54419100,-0.914,0.36,0.272,2.712,-18.34,3.185,
54419110,-0.91,0.356,0.297,1.977,-19.932,1.802,
54419120,-0.876,0.325,0.304,2.607,-19.792,1.295,
54419130,-0.876,0.346,0.324,6.492,-17.15,2.432,
54419140,-0.85,0.357,0.322,5.897,-12.355,2.31,
54419150,-0.863,0.356,0.311,4.637,-7,0.98,
54419160,-0.886,0.351,0.287,4.322,-3.027,0.367,
54419170,-0.923,0.357,0.277,5.565,-2.642,0.892,
54419180,-0.934,0.361,0.286,5.705,-5.197,0.927,
54419190,-0.933,0.356,0.291,4.34,-6.807,-0.28,
54419200,-0.907,0.344,0.289,3.535,-7.717,-0.945,
54419210,-0.886,0.341,0.291,3.045,-7.717,-0.7,
54419220,-0.878,0.344,0.298,2.257,-6.79,-0.49,
54419230,-0.884,0.343,0.297,1.137,-4.777,0.105,
54419240,-0.893,0.344,0.3,0.35,-3.552,0.682,
54419250,-0.889,0.337,0.297,0.28,-2.205,0.805,
54419260,-0.856,0.315,0.298,1.085,-0.21,1.82,
54419260,-0.847,0.301,0.308,2.695,3.605,4.707,
54419280,-0.84,0.283,0.308,5.967,7.63,8.137,
54419280,-0.87,0.292,0.291,12.145,13.282,11.27,
54419300,-0.934,0.317,0.273,18.532,17.097,12.145,
54419300,-1.032,0.209,0.34,23.59,17.99,8.96,
54419320,-0.949,0.269,0.257,30.957,14.49,-1.137,
54419320,-1.044,0.287,0.27,40.46,16.362,1.627,
54419330,-1.054,0.306,0.244,45.202,13.002,-2.642,
54419340,-1.05,0.322,0.214,47.495,4.27,-7,
54419350,-1.037,0.348,0.18,52.482,-8.225,-10.22,
54419360,-0.978,0.351,0.154,58.1,-19.53,-13.457,
54419370,-0.943,0.354,0.137,63.157,-27.422,-16.45,
54419380,-0.929,0.376,0.143,69.072,-32.427,-18.655,
54419390,-0.963,0.399,0.151,73.745,-37.012,-19.6,
54419400,-0.974,0.405,0.158,73.22,-43.417,-22.26,
54419410,-0.998,0.395,0.159,69.877,-52.15,-25.532,
54419420,-0.985,0.375,0.155,66.92,-61.092,-28.367,
54419430,-0.974,0.348,0.165,64.89,-69.335,-29.435,
54419440,-0.976,0.339,0.185,63,-75.057,-30.205,
54419450,-0.991,0.324,0.199,61.46,-79.31,-27.3,
54419460,-0.977,0.318,0.226,62.527,-82.11,-24.325,
54419470,-0.966,0.333,0.273,63.455,-81.882,-23.555,
54419480,-0.962,0.332,0.302,61.075,-79.642,-23.065,
54419490,-0.933,0.315,0.33,57.96,-76.37,-21.28,
54419500,-0.864,0.303,0.339,55.737,-70.367,-18.62,
54419510,-0.797,0.294,0.351,54.862,-59.062,-15.452,
54419520,-0.755,0.28,0.354,56.035,-43.54,-11.9,
54419530,-0.744,0.286,0.369,60.567,-24.237,-8.067,
54419540,-0.762,0.315,0.39,64.277,-4.585,-3.99,
54419550,-0.791,0.34,0.399,63.367,12.285,-0.875,
54419560,-0.807,0.364,0.385,59.412,23.992,1.172,
54419570,-0.837,0.375,0.373,56.245,30.17,4.287,
54419580,-0.84,0.381,0.35,53.952,30.59,7.245,
54419590,-0.841,0.391,0.332,53.27,27.37,9.03,
54419600,-0.8,0.407,0.285,52.342,21.035,8.225,
54419600,-0.831,0.449,0.293,53.2,13.002,4.812,
54419620,-0.786,0.442,0.299,50.505,1.172,0.21,
54419620,-0.744,0.442,0.265,46.48,-3.097,-4.077,
54419640,-0.818,0.469,0.226,41.475,-6.58,-10.062,
54419640,-0.705,0.464,0.207,27.142,-5.127,-18.585,
54419660,-0.846,0.505,0.223,19.705,-5.407,-22.96,
54419660,-0.922,0.473,0.226,21.805,-11.025,-22.277,
54419670,-0.833,0.498,0.23,13.615,-13.352,-25.252,
54419680,-0.825,0.51,0.243,-0.122,-12.722,-25.112,
54419690,-0.872,0.546,0.251,-10.99,-12.81,-21.77,
54419700,-0.847,0.523,0.234,-22.855,-12.355,-15.802,
54419710,-0.833,0.49,0.245,-29.925,-11.112,-11.707,
54419720,-0.818,0.49,0.246,-34.02,-8.347,-7.822,
54419730,-0.826,0.519,0.252,-38.097,-4.252,-3.78,
54419740,-0.85,0.534,0.276,-45.342,1.347,1.12,
54419750,-0.806,0.513,0.3,-51.292,5.302,3.902,
54419760,-0.817,0.479,0.317,-52.587,10.657,8.207,
54419770,-0.805,0.481,0.323,-52.08,16.887,12.075,
54419780,-0.805,0.443,0.326,-50.627,25.375,16.922,
54419790,-0.8,0.396,0.315,-50.82,36.312,21.07,
54419800,-0.823,0.376,0.309,-50.067,48.422,23.1,
54419810,-0.855,0.365,0.3,-47.915,57.75,22.33,
54419820,-0.89,0.364,0.294,-46.042,62.195,21.192,
54419830,-0.922,0.355,0.313,-47.6,60.882,18.987,
54419840,-0.962,0.32,0.318,-50.942,51.135,13.842,
54419850,-1.01,0.252,0.3,-52.36,34.002,6.842,
54419860,-0.995,0.208,0.273,-42.35,16.835,-2.537,
54419870,-0.945,0.148,0.228,-18.532,4.462,-8.645,
54419880,-0.978,0.203,0.244,-2.957,2.275,-3.482,
54419890,-0.998,0.282,0.215,4.935,15.54,3.202,
54419900,-1.093,0.319,0.2,6.335,25.917,10.517,
54419910,-1.066,0.346,0.184,1.05,24.447,18.69,
54419920,-0.994,0.331,0.18,1.155,16.222,28.577,
54419930,-0.943,0.371,0.172,0.35,7.07,33.407,
54419940,-0.91,0.407,0.18,-1.085,-2.362,27.16,
54419950,-0.934,0.41,0.183,-1.732,-10.552,18.252,
54419960,-0.974,0.411,0.188,-3.395,-19.18,15.557,
54419970,-0.978,0.413,0.209,-3.727,-27.177,16.03,
54419980,-0.927,0.415,0.237,-0.052,-32.375,13.125,
54419990,-0.864,0.43,0.275,3.867,-31.885,7.367,
54420000,-0.843,0.417,0.262,6.632,-28.192,0.49,
54420010,-0.838,0.375,0.28,6.877,-26.897,-3.762,
54420010,-0.789,0.404,0.316,7.035,-21.945,-2.205,
54420030,-0.844,0.383,0.31,7.455,-11.707,-2.345,
54420030,-0.879,0.377,0.296,6.422,-2.502,-7.175,
54420050,-0.907,0.356,0.281,8.312,2.607,-6.177,
54420050,-0.939,0.393,0.276,7.91,3.045,-3.045,
54420070,-0.914,0.396,0.254,5.792,1.085,-2.52,
54420070,-0.91,0.368,0.238,6.142,0.245,-1.732,
54420080,-0.921,0.389,0.214,7.14,-1.242,-0.787,
54420090,-0.916,0.399,0.222,6.527,-5.687,-1.207,
54420100,-0.943,0.389,0.219,6.125,-12.792,-2.747,
54420110,-0.959,0.4,0.234,7.472,-22.522,-4.287,
54420120,-0.927,0.4,0.241,7.647,-31.85,-2.992,
54420130,-0.904,0.378,0.257,7.507,-36.627,-0.227,
54420140,-0.884,0.38,0.253,8.365,-38.412,0.665,
54420150,-0.841,0.375,0.261,8.837,-35.805,1.47,
54420160,-0.815,0.379,0.275,7.157,-26.092,2.59,
54420170,-0.866,0.415,0.315,2.1,-12.215,0.367,
54420180,-0.883,0.389,0.302,-4.41,-3.692,-1.82,
54420190,-0.897,0.363,0.28,-7.892,0.35,0.682,
54420200,-0.856,0.361,0.267,-6.335,1.925,3.272,
54420210,-0.877,0.379,0.266,-0.42,1.032,2.082,
54420220,-0.912,0.411,0.25,1.907,-1.032,-0.385,
54420230,-0.939,0.414,0.252,0.472,-5.845,-1.312,
54420240,-0.934,0.401,0.268,-2.835,-9.572,-1.855,
54420250,-0.937,0.378,0.268,-4.987,-10.342,-1.155,
54420260,-0.893,0.36,0.275,-4.83,-11.375,0.805,
54420270,-0.861,0.361,0.292,-2.852,-11.112,2.607,
54420280,-0.862,0.376,0.296,-3.132,-8.627,3.097,
54420290,-0.874,0.376,0.286,-4.41,-5.512,2.887,
54420300,-0.88,0.388,0.28,-4.515,-3.85,1.872,
54420310,-0.904,0.398,0.274,-5.285,-3.675,0.892,
54420320,-0.926,0.395,0.269,-6.562,-5.862,1.05,
54420330,-0.919,0.396,0.276,-7.49,-8.557,2.117,
54420330,-0.898,0.402,0.281,-9.712,-10.762,3.43,
54420350,-0.869,0.396,0.307,-14.35,-10.552,4.34,
54420350,-0.841,0.362,0.327,-17.43,-6.37,5.092,
54420370,-0.829,0.357,0.319,-15.96,0.157,5.18,
54420370,-0.835,0.365,0.307,-12.162,4.812,4.55,
54420390,-0.851,0.391,0.295,-8.592,7.647,2.852,
54420390,-0.892,0.408,0.28,-7.087,8.557,1.015,
54420410,-0.912,0.41,0.265,-7.192,7.227,-0.21,
54420410,-0.96,0.453,0.295,-8.067,1.925,-0.577,
54420420,-0.873,0.362,0.276,-10.22,-3.535,0.822,
54420430,-0.9,0.371,0.271,-8.715,-5.372,1.505,
54420440,-0.831,0.346,0.294,-4.917,-4.69,-0.472,
54420450,-0.872,0.328,0.293,-2.625,0.7,-4.13,
54420460,-0.872,0.356,0.328,1.417,5.127,-6.965,
54420470,-0.873,0.303,0.244,4.987,4.357,-2.502,
54420480,-0.962,0.388,0.243,12.565,7.822,-0.63,
54420490,-0.92,0.453,0.246,12.285,-1.522,-6.492,
54420500,-0.945,0.384,0.243,5.32,-7.717,-8.575,
54420510,-0.976,0.364,0.258,6.755,-10.307,-6.002,
54420520,-0.928,0.402,0.287,7.857,-15.05,-4.707,
54420530,-0.83,0.369,0.302,2.292,-16.38,-4.742,
54420540,-0.865,0.337,0.299,-0.157,-11.9,-2.345,
54420550,-0.898,0.354,0.316,2.082,-8.96,1.54,
54420560,-0.855,0.387,0.314,1.487,-7.087,2.397,
54420570,-0.839,0.382,0.29,-1.19,-3.78,0.77,
54420580,-0.877,0.39,0.28,-1.75,-1.417,0.892,
54420590,-0.915,0.414,0.292,-2.537,-3.01,1.54,
54420600,-0.889,0.408,0.286,-6.212,-5.04,-0.157,
54420610,-0.872,0.384,0.291,-7.612,-5.355,-0.945,
54420620,-0.884,0.376,0.318,-7.98,-4.34,-0.07,
54420630,-0.855,0.364,0.321,-8.26,-1.242,0.297,
54420640,-0.824,0.346,0.305,-8.155,2.905,1.82,
54420650,-0.849,0.346,0.301,-7.28,7.157,4.13,
54420660,-0.901,0.396,0.309,-4.935,8.067,4.357,
54420670,-0.862,0.376,0.27,-3.325,3.08,7.14,
54420680,-0.911,0.378,0.282,-5.53,6.037,8.872,
54420690,-0.941,0.426,0.291,-4.655,5.88,3.517,
54420700,-0.91,0.362,0.235,-5.477,1.925,3.08,
54420710,-0.887,0.366,0.27,-5.88,1.172,4.375,
54420720,-0.897,0.381,0.28,-5.285,0.98,-0.402,
54420730,-0.877,0.321,0.289,-3.307,1.68,-2.45,
54420740,-0.884,0.34,0.305,1.347,2.625,-0.437,
54420750,-0.856,0.333,0.3,5.565,6.212,0.28,
54420760,-0.891,0.355,0.287,8.96,10.307,-0.735,
54420760,-0.894,0.363,0.276,12.11,12.18,-1.645,
54420780,-0.942,0.422,0.201,13.002,10.22,-1.732,
54420780,-0.992,0.484,0.237,7.56,0.49,-3.692,
54420800,-1.008,0.357,0.218,-0.875,-8.19,-4.532,
54420800,-0.914,0.362,0.262,4.917,-14.507,-2.94,
54420820,-0.899,0.372,0.275,5.635,-18.427,-2.117,
54420820,-0.901,0.369,0.285,7.542,-19.022,-3.062,
54420830,-0.861,0.369,0.309,5.302,-18.917,-1.33,
54420840,-0.863,0.364,0.304,2.555,-13.702,0.507,
54420850,-0.847,0.379,0.311,0.647,-8.47,0.297,
54420860,-0.874,0.377,0.292,-2.572,-3.815,0.21,
54420870,-0.888,0.392,0.28,-3.447,-2.887,0.35,
54420880,-0.923,0.414,0.275,-5.985,-4.865,1.487,
54420890,-0.929,0.416,0.268,-9.817,-8.032,1.942,
54420900,-0.909,0.399,0.262,-13.422,-11.025,2.275,
54420910,-0.891,0.389,0.279,-15.785,-14.227,2.397,
54420920,-0.856,0.349,0.323,-18.112,-12.932,3.08,
54420930,-0.866,0.348,0.308,-16.8,-7.787,6.282,
54420940,-0.827,0.327,0.319,-12.722,-6.58,12.985,
54420950,-0.849,0.343,0.324,-14.822,-2.87,10.832,
54420960,-0.857,0.355,0.305,-8.557,2.695,5.005,
54420970,-0.868,0.364,0.293,-4.427,5.11,4.025,
54420980,-0.887,0.382,0.285,-3.605,5.162,5.565,
54420990,-0.905,0.4,0.279,-2.94,3.762,4.602,
54421000,-0.91,0.388,0.284,-4.532,0.7,3.71,
54421010,-0.903,0.376,0.285,-3.675,-1.505,2.992,
54421020,-0.876,0.373,0.291,-1.68,-2.677,1.942,
54421030,-0.87,0.36,0.303,1.295,-1.26,0.402,
54421040,-0.857,0.349,0.308,5.005,1.347,-1.54,
54421050,-0.848,0.348,0.309,7.84,4.55,-2.59,
54421060,-0.849,0.354,0.296,10.78,7.822,-3.272,
54421070,-0.892,0.389,0.253,13.79,9.45,-4.742,
54421080,-0.975,0.424,0.215,16.415,3.657,-8.522,
54421080,-0.999,0.415,0.221,18.235,-7.77,-12.25,
54421100,-1.05,0.399,0.2,20.825,-19.932,-13.737,
54421100,-0.974,0.401,0.257,21.962,-34.335,-13.3,
54421120,-0.935,0.375,0.321,17.762,-42.56,-9.485,
54421120,-0.915,0.357,0.312,14.612,-45.937,-4.777,
54421140,-0.731,0.323,0.339,13.58,-40.302,1.907,
54421140,-0.834,0.369,0.324,12.022,-28.927,2.747,
54421160,-0.795,0.396,0.363,8.54,-22.75,-2.082,
54421160,-0.876,0.363,0.359,2.835,-12.372,-0.42,
54421170,-0.843,0.362,0.333,2.87,-5.267,1.12,
54421180,-0.856,0.396,0.32,0.017,-7.787,1.12,
54421190,-0.79,0.385,0.316,-1.505,-2.432,2.275,
54421200,-0.907,0.421,0.303,-1.89,1.96,0.892,
54421210,-0.884,0.411,0.305,-5.442,0.822,-2.117,
54421220,-0.897,0.401,0.313,-7.892,0.472,-0.84,
54421230,-0.855,0.379,0.342,-10.71,0.507,0.157,
54421240,-0.856,0.352,0.364,-11.917,4.62,3.307,
54421250,-0.877,0.375,0.303,-12.145,4.427,8.487,
54421260,-0.764,0.313,0.316,-12.32,8.75,12.652,
54421270,-0.896,0.396,0.316,-13.125,14.962,9.257,
54421280,-0.892,0.365,0.302,-12.775,16.572,4.847,
54421290,-0.912,0.335,0.272,-12.04,17.377,7.385,
54421300,-0.922,0.423,0.29,-9.24,13.58,6.492,
54421310,-0.986,0.412,0.311,-11.375,8.382,5.32,
54421320,-0.88,0.34,0.239,-9.152,0.892,8.295,
54421330,-0.865,0.387,0.278,-8.295,1.172,8.4,
54421340,-0.889,0.374,0.29,-7.997,0.892,1.347,
54421350,-0.884,0.344,0.33,-4.252,0.297,-1.067,
54421360,-0.901,0.375,0.31,0.385,-2.03,1.137,
54421370,-0.761,0.32,0.316,4.812,2.835,0.805,
54421380,-0.89,0.377,0.324,7.245,11.55,-3.71,
54421390,-0.912,0.369,0.325,8.82,12.04,-8.557,
54421400,-0.911,0.382,0.252,9.485,8.12,-5.617,
54421410,-0.903,0.401,0.178,11.13,5.617,-3.692,
54421420,-1.007,0.456,0.216,11.165,-1.085,-8.662,
54421430,-0.985,0.379,0.271,7.717,-11.9,-13.597,
54421440,-0.939,0.365,0.273,8.067,-15.487,-10.902,
54421450,-0.871,0.366,0.312,5.25,-16.73,-6.475,
54421460,-0.852,0.337,0.305,2.205,-14.962,-4.585,
54421470,-0.831,0.331,0.324,3.202,-11.06,-3.08,
54421480,-0.858,0.353,0.305,4.2,-5.967,-1.89,
54421490,-0.882,0.382,0.306,3.71,-2.835,-1.417,
54421500,-0.901,0.38,0.291,0.175,-1.12,-0.332,
54421510,-0.912,0.388,0.28,-1.172,-1.225,0.717,
54421510,-0.909,0.403,0.283,-3.92,-4.235,1.54,
54421530,-0.911,0.392,0.28,-7.49,-6.982,1.96,
54421530,-0.898,0.386,0.281,-8.855,-9.537,1.802,
54421550,-0.883,0.377,0.293,-9.835,-11.077,2.03,
54421550,-0.866,0.358,0.317,-10.325,-10.57,2.52,
54421570,-0.889,0.352,0.305,-9.765,-7.507,3.482,
54421570,-0.854,0.36,0.326,-9.17,-6.86,5.285,
54421580,-0.878,0.353,0.313,-10.01,-4.672,7.297,
54421590,-0.859,0.36,0.308,-9.082,-2.747,6.23,
54421600,-0.868,0.358,0.298,-8.54,-0.507,5.6,
54421610,-0.905,0.374,0.293,-8.68,-0.577,5.092,
54421620,-0.889,0.373,0.303,-7.14,-1.102,4.357,
54421630,-0.905,0.376,0.293,-5.022,-1.365,2.887,
54421640,-0.899,0.372,0.286,-3.22,-3.972,1.382,
54421650,-0.891,0.375,0.296,-1.382,-7.297,1.155,
54421660,-0.893,0.374,0.302,0.297,-7.577,-0.175,
54421670,-0.883,0.366,0.308,1.382,-6.947,-2.1,
54421680,-0.877,0.356,0.317,0.98,-5.967,-1.75,
54421690,-0.868,0.35,0.326,1.225,-3.867,-0.77,
54421700,-0.855,0.348,0.327,2.52,-0.315,-0.367,
54421710,-0.869,0.352,0.311,4.672,3.202,-0.087,
54421720,-0.894,0.369,0.281,6.685,3.99,-0.157,
54421730,-0.955,0.403,0.235,8.277,-1.295,-0.875,
54421740,-0.911,0.419,0.293,7.21,-11.62,-1.662,
54421750,-0.963,0.362,0.295,3.377,-13.58,-0.927,
54421760,-0.888,0.383,0.298,5.267,-15.47,-0.28,
54421770,-0.8,0.362,0.367,0.805,-15.627,2.73,
54421780,-0.839,0.335,0.342,-0.437,-6.93,2.572,
54421790,-0.813,0.368,0.337,2.31,-0.175,1.662,
54421800,-0.87,0.383,0.313,0.98,3.517,1.82,
54421810,-0.916,0.403,0.294,0.42,4.777,-0.21,
54421820,-0.936,0.395,0.281,-1.662,2.362,-0.105,
54421830,-0.924,0.392,0.288,-3.01,-1.417,0.262,
54421830,-0.897,0.379,0.295,-4.095,-5.022,-0.42,
54421850,-0.872,0.366,0.301,-3.867,-6.282,-1.015,
54421850,-0.878,0.367,0.303,-3.045,-6.965,-1.417,
54421870,-0.888,0.363,0.302,-2.905,-7.21,-1.61,
54421870,-0.898,0.366,0.299,-1.89,-8.032,-1.627,
54421890,-0.909,0.374,0.305,-1.627,-9.135,-0.857,
54421890,-0.906,0.366,0.311,-2.38,-11.2,0.14,
54421910,-0.888,0.36,0.312,-1.662,-11.795,0.192,
54421910,-0.87,0.363,0.311,-0.262,-11.795,-0.542,
54421920,-0.876,0.367,0.314,0.542,-11.27,-0.997,
54421930,-0.878,0.369,0.315,0.875,-10.99,-1.417,
54421940,-0.887,0.368,0.314,1.295,-10.675,-1.627,
54421950,-0.892,0.371,0.318,2.362,-11.27,-2.03,
54421960,-0.888,0.374,0.325,3.027,-10.99,-2.607,
54421970,-0.877,0.365,0.325,2.73,-10.5,-2.922,
54421980,-0.851,0.35,0.329,2.677,-9.012,-2.31,
54421990,-0.844,0.349,0.332,3.587,-6.737,-1.872,
54422000,-0.848,0.357,0.337,4.13,-3.815,-2.012,
54422010,-0.858,0.359,0.336,4.375,-1.05,-2.257,
54422020,-0.869,0.367,0.332,4.952,1.75,-2.24,
54422030,-0.878,0.374,0.323,5.022,3.15,-2.292,
54422040,-0.89,0.38,0.318,4.497,3.745,-2.45,
54422050,-0.906,0.384,0.321,2.73,2.782,-2.31,
54422060,-0.972,0.366,0.323,-1.032,-2.712,-1.802,
54422070,-0.831,0.382,0.339,-1.697,-6.912,0.122,
54422080,-0.822,0.358,0.273,-0.227,-4.567,3.745,
54422090,-0.884,0.385,0.304,-1.347,0.98,0.297,
54422100,-0.907,0.378,0.312,-2.152,0.157,-3.08,
54422110,-0.912,0.366,0.305,-3.272,-1.225,-0.84,
54422120,-0.889,0.379,0.307,-3.85,-3.377,0.157,
54422130,-0.879,0.363,0.307,-4.515,-4.9,-0.35,
54422140,-0.882,0.359,0.315,-4.042,-5.81,0.35,
54422150,-0.882,0.37,0.321,-5.022,-6.142,1.715,
54422160,-0.884,0.365,0.317,-6.877,-6.055,2.572,
54422170,-0.889,0.366,0.315,-7.735,-6.142,2.8,
54422180,-0.901,0.371,0.309,-7.805,-7.332,3.237,
54422190,-0.892,0.376,0.321,-8.802,-8.662,4.007,
54422200,-0.902,0.368,0.325,-9.87,-9.205,5.022,
54422210,-0.852,0.334,0.368,-10.43,-7.455,5.425,
54422220,-0.83,0.29,0.354,-7.735,-0.892,6.317,
54422230,-0.826,0.345,0.314,-1.995,3.622,5.845,
54422240,-0.874,0.382,0.329,-3.377,2.852,5.215,
54422250,-0.925,0.363,0.313,-5.285,3.097,5.897,
54422260,-0.916,0.369,0.307,-4.2,2.03,6.772,
54422260,-0.893,0.393,0.298,-4.112,-0.997,6.51,
54422280,-0.926,0.38,0.32,-5.88,-5.005,6.37,
54422280,-0.898,0.362,0.315,-4.235,-6.09,6.72,
54422290,-0.877,0.389,0.323,-2.292,-8.172,6.807,
54422300,-0.879,0.39,0.325,-4.287,-9.012,5.6,
54422310,-0.864,0.37,0.339,-4.357,-8.382,4.305,
54422320,-0.862,0.363,0.345,-3.762,-5.845,4.217,
54422330,-0.853,0.371,0.337,-2.415,-4.235,3.937,
54422340,-0.851,0.393,0.344,-3.342,-3.115,3.395,
54422350,-0.868,0.383,0.34,-5.442,-1.627,2.8,
54422360,-0.864,0.375,0.331,-5.005,0.227,2.012,
54422370,-0.866,0.382,0.313,-4.497,0.927,0.735,
54422380,-0.868,0.391,0.308,-4.882,0.175,-0.297,
54422390,-0.888,0.383,0.318,-5.757,-0.49,0.385,
54422400,-0.891,0.367,0.324,-5.337,-1.26,1.085,
54422410,-0.857,0.36,0.334,-4.917,-1.715,1.417,
54422420,-0.865,0.339,0.335,-4.462,-0.962,2.327,
54422430,-0.852,0.344,0.337,-2.817,-0.595,2.415,
54422440,-0.873,0.349,0.333,-1.295,0.437,2.257,
54422450,-0.877,0.353,0.331,0.07,1.12,2.362,
54422460,-0.878,0.353,0.33,1.767,1.47,3.482,
54422470,-0.877,0.363,0.325,3.745,1.715,4.007,
54422480,-0.882,0.387,0.318,5.337,1.452,3.605,
54422490,-0.896,0.397,0.314,4.06,0.175,2.887,
54422500,-0.907,0.387,0.314,2.03,-2.03,2.782,
54422510,-0.892,0.379,0.32,0.857,-4.147,3.185,
54422520,-0.871,0.374,0.328,0.892,-4.725,3.062,
54422530,-0.867,0.381,0.329,1.085,-4.2,2.292,
54422540,-0.884,0.386,0.33,0.35,-3.99,1.575,
54422550,-0.88,0.385,0.322,-0.472,-3.605,1.155,
54422560,-0.878,0.385,0.322,-1.19,-4.095,0.892,
54422570,-0.874,0.38,0.323,-1.767,-4.13,0.507,
54422580,-0.877,0.374,0.326,-2.187,-4.427,0.542,
54422580,-0.877,0.378,0.324,-2.257,-4.322,0.927,
54422600,-0.871,0.371,0.327,-2.782,-4.515,1.207,
54422600,-0.868,0.36,0.323,-2.065,-4.287,1.54,
54422620,-0.862,0.372,0.328,-0.385,-4.095,1.785,
54422620,-0.869,0.374,0.326,-0.262,-3.447,2.012,
54422640,-0.875,0.378,0.331,-0.157,-3.412,2.205,
54422640,-0.877,0.37,0.336,-0.28,-2.782,2.52,
54422660,-0.864,0.37,0.328,0.875,-2.047,2.87,
54422660,-0.862,0.389,0.323,0.647,-1.487,2.817,
54422670,-0.88,0.387,0.335,-1.12,-1.505,2.082,
54422680,-0.882,0.366,0.317,-1.172,-0.857,1.785,
54422690,-0.873,0.384,0.322,0.017,-2.362,1.452,
54422700,-0.882,0.383,0.316,0.087,-1.977,1.102,
54422710,-0.889,0.377,0.317,0.665,-3.377,0.542,
54422720,-0.892,0.381,0.315,0.787,-4.952,0.962,
54422730,-0.886,0.38,0.32,0.945,-6.44,1.61,
54422740,-0.873,0.373,0.321,0.857,-7.245,1.592,
54422750,-0.868,0.369,0.326,1.697,-7.49,1.557,
54422760,-0.867,0.373,0.331,2.187,-7.14,1.872,
54422770,-0.873,0.38,0.332,2.292,-7.017,1.907,
54422780,-0.865,0.375,0.328,2.362,-6.44,1.837,
54422790,-0.866,0.378,0.331,3.167,-6.335,1.697,
54422800,-0.868,0.38,0.333,3.57,-5.95,1.487,
54422810,-0.869,0.375,0.335,3.937,-5.862,1.61,
54422820,-0.868,0.379,0.336,4.62,-5.547,2.152,
54422830,-0.86,0.384,0.336,4.917,-5.145,2.555,
54422840,-0.855,0.384,0.338,4.865,-4.042,2.362,
54422850,-0.848,0.385,0.34,4.83,-2.555,1.575,
54422860,-0.855,0.384,0.341,4.55,-0.752,1.015,
54422870,-0.863,0.384,0.336,4.427,0.665,0.752,
54422880,-0.871,0.379,0.331,4.707,1.435,0.402,
54422890,-0.911,0.37,0.331,4.655,-0.192,-0.455,
54422900,-0.859,0.39,0.324,5.005,-2.047,-0.367,
54422910,-0.895,0.395,0.316,4.76,-1.75,1.312,
54422920,-0.886,0.39,0.315,2.957,-3.29,0.98,
54422930,-0.894,0.381,0.316,2.327,-4.777,1.697,
54422940,-0.886,0.378,0.315,2.642,-7.035,2.59,
54422950,-0.881,0.387,0.302,3.762,-8.61,2.8,
54422960,-0.878,0.457,0.272,3.255,-10.832,2.607,
54422960,-0.929,0.404,0.346,-5.897,-15.592,1.627,
54422980,-0.882,0.361,0.309,-5.372,-15.33,2.135,
54422980,-0.844,0.452,0.334,-4.042,-15.995,3.745,
54423000,-0.871,0.37,0.345,-12.967,-18.322,1.75,
54423000,-0.847,0.368,0.35,-7.472,-16.45,0.77,
54423010,-0.827,0.382,0.366,-5.967,-14.42,2.31,
54423020,-0.818,0.407,0.355,-5.11,-10.115,0.647,
54423030,-0.84,0.408,0.362,-8.47,-7.997,-1.82,
54423040,-0.847,0.388,0.368,-12.337,-5.635,-1.925,
54423050,-0.831,0.411,0.35,-13.072,-2.905,-0.98,
54423060,-0.862,0.427,0.373,-16.817,-1.382,-2.695,
54423070,-0.85,0.343,0.36,-18.287,1.47,-3.605,
54423080,-0.821,0.368,0.358,-10.657,5.197,-3.132,
54423090,-0.83,0.339,0.357,-8.33,7.472,-4.27,
54423100,-0.839,0.341,0.345,-2.17,11.042,-5.005,
54423110,-0.865,0.372,0.334,0.28,12.267,-2.45,
54423120,-0.881,0.376,0.332,-0.927,12.075,-1.645,
54423130,-0.881,0.377,0.331,-2.362,11.305,-1.855,
54423140,-0.876,0.38,0.328,-3.955,10.955,-0.665,
54423150,-0.881,0.392,0.331,-5.127,10.15,-0.367,
54423160,-0.884,0.39,0.327,-6.51,9.327,-1.277,
54423170,-0.877,0.382,0.332,-6.772,8.785,-2.152,
54423180,-0.855,0.343,0.369,-6.615,10.517,-2.747,
54423190,-0.817,0.308,0.363,-1.907,16.642,-2.292,
54423200,-0.798,0.353,0.313,6.125,21.927,-2.24,
54423210,-0.898,0.409,0.326,4.83,21.962,-4.042,
54423220,-0.946,0.386,0.289,0.717,21.507,-5.005,
54423230,-0.939,0.42,0.297,-0.297,17.377,-3.377,
54423240,-0.948,0.375,0.284,-6.545,13.037,-2.047,
54423250,-0.899,0.357,0.283,-4.55,9.187,-1.837,
54423260,-0.917,0.382,0.292,-4.165,4.13,-0.77,
54423270,-0.92,0.36,0.295,-4.76,0.665,-1.12,
54423280,-0.898,0.362,0.299,-3.535,-1.085,-1.487,
54423290,-0.881,0.362,0.302,-4.27,-1.89,-1.155,
54423300,-0.878,0.347,0.303,-4.042,-2.31,-1.19,
54423310,-0.866,0.34,0.321,-1.977,-2.432,-1.54,
54423320,-0.872,0.334,0.332,1.33,-0.07,-1.645,
54423330,-0.856,0.337,0.33,5.092,3.692,-1.505,
54423330,-0.852,0.346,0.319,7.332,7.07,-1.715,
54423350,-0.857,0.353,0.305,8.785,10.167,-2.152,
54423350,-0.891,0.364,0.267,10.342,11.777,-2.24,
54423370,-0.948,0.501,0.207,10.08,6.527,-4.672,
54423370,-1.059,0.418,0.271,-3.762,-8.452,-8.855,
54423390,-0.991,0.343,0.261,-3.22,-14.402,-7.052,
54423390,-0.893,0.405,0.296,1.4,-20.597,-2.695,
54423410,-0.853,0.389,0.318,-2.572,-23.257,-5.652,
54423410,-0.836,0.317,0.354,-4.27,-20.58,-7.507,
54423420,-0.817,0.325,0.33,-1.802,-13.23,-4.375,
54423430,-0.785,0.336,0.374,-0.28,-7.157,-3.5,
54423440,-0.819,0.321,0.341,-0.122,3.377,-4.742,
54423450,-0.859,0.353,0.326,3.57,10.675,-3.605,
54423460,-0.939,0.364,0.284,1.925,12.092,0.665,
54423470,-0.954,0.394,0.282,2.117,7.875,1.382,
54423480,-0.96,0.389,0.266,-1.26,3.045,0.262,
54423490,-0.944,0.375,0.268,-4.585,-3.587,0.472,
54423500,-0.915,0.381,0.284,-8.19,-9.695,0.7,
54423510,-0.897,0.366,0.295,-11.497,-13.09,1.435,
54423520,-0.87,0.333,0.353,-12.687,-12.757,4.06,
54423530,-0.833,0.265,0.343,-8.575,-5.337,4.427,
54423540,-0.802,0.315,0.331,1.732,1.89,4.217,
54423550,-0.847,0.361,0.31,2.765,4.795,5.285,
54423560,-0.931,0.357,0.299,1.907,5.985,6.107,
54423570,-0.925,0.385,0.291,2.537,5.407,6.247,
54423580,-0.924,0.396,0.299,-0.7,3.15,5.512,
54423590,-0.908,0.368,0.28,-2.712,1.102,4.077,
54423600,-0.912,0.38,0.304,-2.38,-2.38,4.147,
54423610,-0.913,0.363,0.299,-3.062,-4.112,3.885,
54423620,-0.872,0.373,0.3,-1.505,-4.83,2.257,
54423630,-0.863,0.359,0.296,-3.027,-5.565,0.875,
54423640,-0.865,0.333,0.309,-1.295,-4.935,-0.542,
54423650,-0.869,0.339,0.327,1.715,-2.782,-1.207,
54423660,-0.866,0.339,0.329,3.675,-0.087,-0.262,
54423670,-0.874,0.345,0.323,5.197,2.642,1.12,
54423670,-0.873,0.357,0.315,6.947,4.952,0.962,
54423690,-0.887,0.389,0.233,8.242,6.177,-0.315,
54423690,-0.968,0.51,0.232,3.01,-1.522,-3.832,
54423710,-1.065,0.385,0.227,-10.64,-14.822,-6.667,
54423710,-0.992,0.379,0.283,-7.227,-24.867,-4.795,
54423730,-0.886,0.399,0.325,-8.75,-30.555,-2.24,
54423730,-0.832,0.328,0.359,-10.867,-29.242,-3.272,
54423750,-0.782,0.339,0.359,-8.4,-22.82,-2.292,
54423750,-0.76,0.298,0.393,-8.242,-14.787,-0.752,
54423760,-0.789,0.308,0.357,-4.042,-0.612,-1.417,
54423770,-0.858,0.371,0.315,-1.312,7.35,-1.925,
54423780,-0.945,0.387,0.298,-4.567,7.227,-1.155,
54423790,-0.979,0.399,0.296,-7.717,2.082,-0.105,
54423800,-0.946,0.4,0.299,-12.04,-3.71,1.137,
54423810,-0.898,0.386,0.301,-15.295,-8.225,0.332,
54423820,-0.857,0.359,0.319,-17.552,-10.08,-1.487,
54423830,-0.809,0.281,0.373,-16.467,-6.475,-2.625,
54423840,-0.76,0.256,0.362,-8.487,4.2,-2.345,
54423850,-0.748,0.282,0.366,-2.065,13.65,-1.557,
54423860,-0.798,0.294,0.368,-0.647,24.062,2.712,
54423870,-0.824,0.32,0.362,3.972,34.317,8.75,
54423880,-0.831,0.39,0.351,5.337,44.345,8.137,
54423890,-0.846,0.394,0.318,0.98,50.435,6.492,
54423900,-0.825,0.368,0.332,-2.432,57.627,2.852,
54423910,-0.935,0.293,0.314,-1.225,68.022,4.497,
54423920,-1.01,0.313,0.26,10.727,77.21,7.472,
54423930,-1.012,0.31,0.193,30.292,79.572,8.61,
54423940,-0.945,0.34,0.277,45.36,66.482,9.817,
54423950,-0.961,0.438,0.139,53.532,37.957,2.415,
54423960,-1.073,0.479,0.142,49.122,15.137,2.59,
54423970,-1.009,0.491,0.107,29.05,1.575,2.082,
54423980,-1.065,0.437,0.129,8.487,-2.607,4.865,
54423990,-1.042,0.418,0.128,-10.115,-10.167,5.792,
54424000,-1.006,0.393,0.177,-12.967,-17.675,2.66,
54424010,-0.952,0.384,0.214,-12.46,-22.137,-0.665,
54424020,-0.921,0.36,0.219,-15.242,-23.905,-0.945,
54424030,-0.915,0.325,0.234,-16.572,-22.925,6.002,
54424040,-0.862,0.328,0.251,-17.832,-21.42,9.607,
54424050,-0.884,0.327,0.258,-12.722,-18.235,8.295,
54424060,-0.873,0.346,0.252,-9.327,-14.472,7.437,
54424070,-0.899,0.342,0.264,-7.525,-11.62,10.185,
54424080,-0.881,0.365,0.244,-8.592,-10.727,10.657,
54424080,-0.858,0.371,0.237,-10.832,-9.852,10.692,
54424100,-0.887,0.377,0.227,-13.002,-11.077,9.8,
54424100,-0.895,0.387,0.226,-14.402,-14.14,7.822,
54424120,-0.894,0.382,0.224,-14.927,-17.832,6.545,
54424120,-0.913,0.379,0.225,-15.557,-20.685,5.985,
54424140,-0.924,0.372,0.234,-15.085,-24.675,6.037,
54424140,-0.915,0.366,0.246,-14.472,-28.647,7.192,
54424160,-0.91,0.365,0.257,-14.227,-32.917,9.117,
54424160,-0.908,0.368,0.272,-13.072,-35.35,10.885,
54424170,-0.901,0.373,0.288,-11.182,-36.925,12.127,
54424180,-0.894,0.377,0.297,-10.535,-36.12,14.122,
54424190,-0.89,0.377,0.3,-10.482,-34.282,16.292,
54424200,-0.902,0.377,0.317,-9.817,-31.727,18.27,
54424210,-0.913,0.373,0.319,-7.157,-30.555,19.74,
54424220,-0.911,0.367,0.321,-2.362,-30.03,23.082,
54424230,-0.929,0.368,0.314,4.13,-31.29,29.785,
54424240,-0.957,0.383,0.306,10.797,-34.895,38.57,
54424250,-1.042,0.386,0.341,17.167,-44.905,51.747,
54424260,-1.006,0.376,0.357,24.797,-61.845,65.38,
54424270,-0.876,0.402,0.375,30.222,-75.39,73.22,
54424280,-0.79,0.418,0.375,32.217,-77.647,73.22,
54424290,-0.763,0.433,0.377,34.16,-69.667,65.852,
54424300,-0.778,0.448,0.404,35.052,-56.087,55.912,
54424310,-0.875,0.439,0.407,35.385,-48.93,49.822,
54424320,-1,0.468,0.468,34.492,-53.165,51.467,
54424330,-1.072,0.465,0.487,30.607,-73.64,55.562,
54424340,-1.109,0.455,0.471,29.067,-105.017,61.967,
54424350,-0.972,0.41,0.418,35.472,-135.66,76.3,
54424360,-0.625,0.407,0.421,39.882,-148.61,90.09,
54424370,-0.65,0.493,0.41,58.887,-139.912,87.972,
54424380,-0.56,0.517,0.417,82.11,-116.882,74.812,
54424390,-0.511,0.583,0.439,92.277,-80.517,67.147,
54424400,-0.583,0.635,0.447,95.917,-44.555,67.042,
54424410,-0.643,0.639,0.471,99.12,-17.167,68.565,
54424420,-0.775,0.633,0.429,95.847,-10.395,66.447,
54424420,-0.739,0.644,0.422,84.857,-18.007,63.735,
54424440,-0.698,0.572,0.401,80.062,-33.547,67.41,
54424440,-0.66,0.553,0.38,82.162,-54.425,68.985,
54424460,-0.623,0.592,0.375,81.217,-77.035,66.587,
54424460,-0.572,0.643,0.361,73.43,-97.545,60.585,
54424480,-0.49,0.686,0.34,61.565,-110.705,52.552,
54424480,-0.412,0.717,0.307,46.97,-110.6,43.242,
54424500,-0.371,0.74,0.273,31.062,-97.615,31.255,
54424500,-0.36,0.752,0.255,15.155,-75.88,17.5,
54424510,-0.405,0.764,0.248,-0.822,-52.185,2.87,
54424520,-0.548,0.74,0.258,-16.065,-35.14,-7.91,
54424530,-0.706,0.706,0.289,-27.142,-35.14,-8.12,
54424540,-0.784,0.723,0.325,-32.112,-50.102,2.415,
54424550,-0.769,0.749,0.358,-34.79,-72.852,16.432,
54424560,-0.662,0.74,0.372,-39.777,-92.977,27.335,
54424570,-0.518,0.711,0.383,-44.887,-102.795,31.78,
54424580,-0.402,0.682,0.409,-47.792,-98.175,30.362,
54424590,-0.372,0.67,0.441,-47.775,-84.7,25.147,
54424600,-0.398,0.663,0.489,-47.477,-69.492,17.92,
54424610,-0.445,0.649,0.539,-47.11,-59.99,11.55,
54424620,-0.491,0.647,0.581,-45.552,-58.275,8.417,
54424630,-0.505,0.648,0.61,-42.84,-63.542,8.575,
54424640,-0.453,0.649,0.632,-37.782,-68.39,9.975,
54424650,-0.401,0.656,0.649,-30.905,-67.987,10.972,
54424660,-0.371,0.658,0.654,-23.887,-60.917,11.252,
54424670,-0.355,0.65,0.648,-16.467,-49.682,10.22,
54424680,-0.367,0.643,0.641,-7.665,-35.752,7.455,
54424690,-0.387,0.631,0.647,0.962,-23.047,4.55,
54424700,-0.109,0.592,0.668,14.507,0.98,-2.222,
54424710,-0.337,0.633,0.618,39.392,41.02,-14.717,
54424720,-0.582,0.661,0.665,42,48.247,-22.05,
54424730,-0.538,0.659,0.641,39.847,45.745,-17.71,
54424740,-0.589,0.609,0.629,48.807,32.48,-2.975,
54424750,-0.521,0.645,0.588,60.112,30.852,6.737,
54424760,-0.562,0.703,0.539,63.525,25.305,8.242,
54424770,-0.458,0.679,0.484,58.975,23.712,4.69,
54424780,-0.442,0.684,0.451,57.26,27.125,2.45,
54424790,-0.513,0.713,0.412,53.41,28.997,-0.192,
54424800,-0.544,0.709,0.39,42.455,22.225,-2.275,
54424810,-0.523,0.703,0.377,28.507,13.667,-2.73,
54424820,-0.568,0.717,0.377,17.15,4.917,0.052,
54424830,-0.581,0.732,0.383,7.087,-3.027,4.042,
54424830,-0.544,0.731,0.392,-0.595,-6.58,7.245,
54424850,-0.52,0.73,0.404,-2.8,-3.727,7.805,
54424850,-0.501,0.736,0.422,-1.907,2.887,6.65,
54424870,-0.467,0.747,0.429,-0.98,11.935,6.107,
54424870,-0.445,0.764,0.432,-0.297,21,6.3,
54424890,-0.425,0.767,0.436,-1.4,29.785,5.775,
54424890,-0.398,0.754,0.45,-3.307,38.797,4.34,
54424910,-0.433,0.757,0.466,-2.415,47.862,2.205,
54424910,-0.486,0.758,0.482,-0.875,51.117,0.472,
54424920,-0.528,0.741,0.481,-1.242,48.825,0.7,
54424930,-0.541,0.721,0.472,-0.525,40.897,2.45,
54424940,-0.512,0.706,0.461,1.435,31.465,4.2,
54424950,-0.485,0.7,0.457,3.115,23.695,4.55,
54424960,-0.469,0.692,0.46,4.182,19.617,2.94,
54424970,-0.472,0.706,0.464,6.51,20.615,0.017,
54424980,-0.536,0.727,0.469,7.735,20.352,-1.977,
54424990,-0.53,0.72,0.474,6.247,20.125,-2.485,
54425000,-0.553,0.711,0.468,6.685,19.81,-0.997,
54425010,-0.548,0.712,0.459,8.102,18.322,0.665,
54425020,-0.535,0.706,0.448,7.91,17.062,1.925,
54425030,-0.545,0.709,0.432,9.03,16.152,2.502,
54425040,-0.56,0.722,0.424,9.94,13.037,3.255,
54425050,-0.556,0.721,0.413,8.067,9.432,4.55,
54425060,-0.582,0.738,0.407,6.842,3.097,5.67,
54425070,-0.476,0.722,0.393,5.18,1.242,4.917,
54425080,-0.506,0.73,0.388,6.825,5.022,3.272,
54425090,-0.498,0.744,0.384,7.175,8.68,0.84,
54425100,-0.504,0.764,0.38,5.81,12.372,0.017,
54425110,-0.575,0.746,0.376,2.31,11.62,0.262,
54425120,-0.534,0.729,0.381,-2.432,7.63,1.347,
54425130,-0.533,0.725,0.39,-2.397,5.512,2.415,
54425140,-0.553,0.725,0.396,-1.295,3.167,1.785,
54425150,-0.571,0.733,0.403,-4.445,-1.417,2.8,
54425160,-0.539,0.726,0.407,-5.88,-6.72,4.812,
54425170,-0.523,0.721,0.418,-5.582,-9.345,5.6,
54425170,-0.511,0.729,0.418,-5.407,-10.272,3.115,
54425190,-0.509,0.717,0.423,-7.49,-10.5,-0.332,
54425190,-0.513,0.715,0.434,-8.557,-9.362,-1.872,
54425210,-0.537,0.719,0.439,-7.227,-7.63,-1.54,
54425210,-0.542,0.725,0.441,-5.075,-7.262,-1.207,
54425230,-0.513,0.72,0.428,-3.64,-6.16,-1.645,
54425230,-0.496,0.712,0.418,-0.857,-3.57,-2.467,
54425250,-0.51,0.717,0.413,2.1,0.367,-3.675,
54425250,-0.523,0.72,0.41,3.955,3.062,-4.935,
54425260,-0.533,0.71,0.409,4.987,5.075,-6.632,
54425270,-0.538,0.688,0.403,6.265,5.372,-8.61,
54425280,-0.523,0.692,0.405,7.437,6.037,-10.605,
54425290,-0.507,0.689,0.398,7.892,7,-13.002,
54425300,-0.508,0.673,0.398,7.84,9.222,-15.89,
54425310,-0.493,0.677,0.404,9.012,12.582,-19.95,
54425320,-0.509,0.674,0.415,12.092,19.337,-25.532,
54425330,-0.569,0.664,0.425,15.155,21.752,-30.03,
54425340,-0.619,0.694,0.422,17.377,17.482,-32.322,
54425350,-0.594,0.692,0.422,16.677,9.047,-33.32,
54425360,-0.551,0.668,0.427,13.982,4.48,-33.512,
54425370,-0.524,0.674,0.423,13.247,4.76,-35.14,
54425380,-0.506,0.688,0.421,14.122,10.185,-37.852,
54425390,-0.486,0.686,0.406,14.297,19.232,-42.42,
54425400,-0.435,0.737,0.391,10.045,34.632,-52.57,
54425410,-0.503,0.65,0.36,8.557,52.692,-55.475,
54425420,-0.488,0.654,0.349,10.605,66.745,-64.557,
54425430,-0.554,0.689,0.33,9.222,76.807,-74.62,
54425440,-0.586,0.653,0.303,5.74,83.335,-81.497,
54425450,-0.645,0.625,0.303,2.275,84.245,-83.562,
54425460,-0.719,0.639,0.292,0.385,79.03,-81.987,
54425470,-0.712,0.662,0.275,-0.857,70.07,-81.672,
54425480,-0.765,0.668,0.26,-6.107,58.957,-83.387,
54425490,-0.804,0.654,0.246,-11.55,46.112,-77.84,
54425500,-0.78,0.668,0.247,-16.205,34.807,-71.995,
54425510,-0.726,0.644,0.222,-23.135,28.35,-70.717,
54425520,-0.704,0.628,0.223,-31.797,26.652,-74.865,
54425530,-0.729,0.632,0.221,-39.025,26.337,-78.557,
54425540,-0.74,0.628,0.231,-45.78,27.107,-78.312,
54425550,-0.772,0.615,0.229,-51.817,27.877,-77.087,
54425560,-0.799,0.611,0.238,-55.807,28.857,-75.162,
54425570,-0.856,0.61,0.256,-59.797,30.117,-69.422,
54425580,-0.891,0.598,0.279,-60.095,27.527,-63.84,
54425580,-0.911,0.563,0.298,-54.145,19.267,-58.782,
54425600,-0.86,0.564,0.265,-48.527,9.24,-52.132,
54425600,-0.754,0.54,0.273,-46.742,13.352,-41.597,
54425620,-0.646,0.464,0.274,-39.847,27.877,-35.612,
54425620,-0.756,0.513,0.307,-27.265,44.747,-35.962,
54425640,-0.882,0.567,0.293,-24.71,52.22,-37.275,
54425640,-0.841,0.53,0.276,-28.962,54.67,-35.157,
54425660,-0.796,0.473,0.273,-26.687,56.315,-31.552,
54425660,-0.885,0.518,0.286,-22.785,55.265,-27.93,
54425670,-0.908,0.545,0.27,-31.15,49.77,-26.635,
54425680,-0.862,0.47,0.249,-35.402,43.417,-18.165,
54425690,-0.836,0.429,0.253,-31.832,37.52,-15.47,
54425700,-0.827,0.436,0.24,-26.337,34.125,-17.955,
54425710,-0.837,0.428,0.24,-23.047,32.235,-21.28,
54425720,-0.9,0.442,0.257,-19.18,28.84,-23.922,
54425730,-0.993,0.465,0.254,-18.462,17.045,-24.465,
54425740,-0.84,0.476,0.239,-21.385,7.07,-26.862,
54425750,-0.742,0.322,0.222,-23.905,6.3,-22.54,
54425760,-0.847,0.396,0.278,-26.67,12.845,-15.732,
54425770,-1.125,0.569,0.311,-25.9,0.455,-21.945,
54425780,-0.882,0.388,0.26,-29.75,-14.07,-34.44,
54425790,-0.873,0.325,0.306,-24.01,-17.57,-35,
54425800,-0.893,0.335,0.303,-20.492,-4.515,-22.54,
54425810,-0.923,0.343,0.315,-3.937,5.425,-16.415,
54425820,-0.956,0.319,0.297,6.982,15.662,-9.695,
54425830,-0.964,0.326,0.243,6.842,26.547,-0.647,
54425840,-0.951,0.401,0.269,8.627,27.475,1.592,
54425850,-0.959,0.365,0.229,1.487,23.747,-1.715,
54425860,-0.925,0.317,0.21,-1.925,17.132,0.175,
54425870,-0.92,0.323,0.197,-2.222,11.917,-0.455,
54425880,-0.933,0.356,0.197,-4.917,9.905,-2.135,
54425890,-0.977,0.337,0.19,-8.33,9.065,-5.39,
54425900,-1.024,0.313,0.188,-7.367,5.81,-5.495,
54425910,-1.072,0.317,0.174,-3.255,-1.47,-0.28,
54425920,-1.098,0.363,0.164,2.73,-14,7.157,
54425920,-0.972,0.374,0.167,-1.295,-25.637,17.29,
54425940,-0.871,0.385,0.181,-4.06,-25.97,21.927,
54425940,-0.85,0.438,0.225,-6.807,-16.047,17.71,
54425960,-0.859,0.44,0.245,-17.115,-3.99,12.197,
54425960,-0.885,0.41,0.256,-19.635,6.422,7.805,
54425980,-0.912,0.426,0.26,-17.622,10.237,4.672,
54425980,-0.942,0.429,0.278,-15.89,6.895,2.24,
54426000,-0.97,0.436,0.294,-10.797,-4.235,1.925,
54426000,-0.935,0.455,0.296,-5.792,-17.08,3.255,
54426010,-0.875,0.444,0.284,-3.727,-26.687,3.92,
54426020,-0.835,0.436,0.291,-3.045,-29.907,2.152,
54426030,-0.805,0.448,0.291,-3.342,-27.737,-0.875,
54426040,-0.808,0.449,0.285,-8.61,-21.245,-4.392,
54426050,-0.811,0.418,0.264,-14.84,-14.997,-8.225,
54426060,-0.866,0.376,0.169,-14.227,-11.585,-7.192,
54426070,-0.891,0.378,0.317,-6.002,-12.88,-1.05,
54426080,-0.886,0.38,0.248,4.917,-12.162,5.862,
54426090,-0.798,0.415,0.28,12.722,-11.165,8.592,
54426100,-0.837,0.399,0.278,13.737,-7.14,6.422,
54426110,-0.781,0.368,0.296,16.66,-3.027,1.487,
54426120,-0.748,0.366,0.274,21.455,4.007,-1.12,
54426130,-0.945,0.38,0.296,24.622,5.617,-4.427,
54426140,-0.925,0.424,0.32,18.042,-7.56,-2.905,
54426150,-0.909,0.348,0.275,17.832,-17.517,3.85,
54426160,-1.041,0.369,0.285,19.862,-30.59,6.79,
54426170,-0.956,0.39,0.272,17.465,-48.685,7.262,
54426180,-0.832,0.379,0.244,14.105,-55.335,12.32,
54426190,-0.853,0.394,0.232,15.925,-49.315,13.702,
54426200,-0.851,0.447,0.247,12.285,-39.34,8.102,
54426210,-0.85,0.441,0.275,3.027,-24.132,5.687,
54426220,-0.966,0.438,0.306,-2.835,-13.247,4.97,
54426230,-0.927,0.41,0.314,-6.3,-11.567,5.075,
54426240,-0.869,0.38,0.305,-4.235,-12.372,8.172,
54426250,-0.829,0.409,0.311,0.997,-11.777,8.907,
54426260,-0.831,0.429,0.314,3.027,-10.027,6.23,
54426270,-0.847,0.437,0.315,2.17,-7.402,2.327,
54426280,-0.859,0.442,0.309,-0.77,-5.39,-0.91,
54426290,-0.877,0.43,0.3,-4.217,-3.972,-2.52,
54426300,-0.885,0.42,0.295,-5.355,-3.955,-2.66,
54426310,-0.876,0.419,0.297,-4.567,-4.69,-1.382,
54426320,-0.872,0.421,0.291,-3.657,-6.562,-0.402,
54426330,-0.864,0.417,0.287,-3.972,-8.102,-0.052,
54426330,-0.86,0.414,0.291,-4.935,-9.327,0.21,
54426340,-0.864,0.415,0.298,-5.705,-9.485,0.612,
54426350,-0.863,0.407,0.301,-5.985,-9.87,1.295,
54426360,-0.848,0.409,0.308,-4.34,-9.852,2.17,
54426370,-0.853,0.41,0.313,-2.73,-10.08,2.607,
54426380,-0.857,0.423,0.317,-1.89,-9.695,1.837,
54426390,-0.86,0.421,0.315,-1.312,-9.327,1.4,
54426400,-0.864,0.417,0.313,-1.33,-8.82,1.557,
54426410,-0.877,0.424,0.309,-0.735,-9.467,0.665,
54426420,-0.881,0.423,0.304,-0.297,-10.412,-0.297,
54426430,-0.888,0.427,0.304,-0.227,-12.39,-0.927,
54426440,-0.895,0.431,0.304,-1.242,-14.945,-0.857,
54426450,-0.891,0.432,0.297,-3.15,-18.305,-0.192,
54426460,-0.872,0.412,0.33,-4.34,-19.757,1.312,
54426470,-0.872,0.398,0.339,-4.217,-19.127,1.96,
54426480,-0.839,0.405,0.341,-1.627,-17.027,2.432,
54426490,-0.826,0.394,0.337,0.367,-15.347,2.432,
54426500,-0.841,0.41,0.335,2.957,-13.422,1.067,
54426510,-0.872,0.427,0.33,3.237,-13.002,0.682,
54426520,-0.888,0.429,0.324,1.225,-14.052,1.26,
54426530,-0.881,0.434,0.325,-1.277,-15.75,1.662,
54426540,-0.874,0.426,0.334,-4.515,-16.642,1.697,
54426550,-0.848,0.439,0.344,-6.422,-14.805,0.35,
54426560,-0.828,0.448,0.331,-10.92,-10.85,-1.365,
54426570,-0.805,0.437,0.367,-17.447,-4.34,-3.097,
54426580,-0.795,0.426,0.364,-22.102,2.87,-5.67,
54426590,-0.819,0.414,0.372,-26.53,10.797,-6.947,
54426600,-0.828,0.368,0.367,-27.282,15.697,-7.595,
54426610,-0.847,0.355,0.36,-23.187,16.852,-6.002,
54426620,-0.856,0.339,0.336,-16.502,14.315,-2.292,
54426630,-0.858,0.361,0.328,-6.405,9.94,-0.052,
54426640,-0.821,0.4,0.339,1.452,6.912,-0.49,
54426650,-0.831,0.424,0.334,2.8,7.367,-1.977,
54426660,-0.866,0.436,0.332,0.7,7.017,-5.057,
54426670,-0.877,0.416,0.337,-1.417,5.285,-6.195,
54426670,-0.885,0.417,0.334,-1.277,2.03,-5.075,
54426690,-0.869,0.394,0.348,1.207,-1.12,-5.967,
54426690,-0.748,0.38,0.34,7.227,-1.47,-9.327,
54426710,-0.774,0.428,0.355,10.307,5.67,-10.885,
54426710,-0.847,0.403,0.344,7.35,11.27,-13.667,
54426730,-0.879,0.377,0.329,6.212,14.07,-15.575,
54426730,-0.883,0.378,0.315,6.58,15.33,-13.545,
54426750,-0.924,0.387,0.291,6.527,15.225,-10.587,
54426750,-0.93,0.384,0.273,6.317,10.57,-8.365,
54426760,-0.947,0.388,0.27,5.635,4.462,-4.97,
54426770,-0.958,0.397,0.274,4.34,-2.87,-2.082,
54426780,-0.947,0.399,0.285,2.45,-9.59,-0.647,
54426790,-0.926,0.384,0.292,0.472,-16.17,0.77,
54426800,-0.886,0.381,0.303,0.332,-20.247,2.415,
54426810,-0.872,0.381,0.314,0.875,-21.822,3.342,
54426820,-0.874,0.384,0.323,1.435,-21.892,3.045,
54426830,-0.861,0.394,0.327,1.277,-21.542,3.325,
54426840,-0.846,0.438,0.302,-2.012,-20.3,5.337,
54426850,-0.922,0.453,0.32,-11.235,-21.49,6.65,
54426860,-0.904,0.4,0.32,-19.705,-24.937,6.492,
54426870,-0.889,0.376,0.32,-20.965,-26.6,8.96,
54426880,-0.871,0.376,0.315,-19.687,-29.102,12.145,
54426890,-0.901,0.389,0.335,-17.307,-33.005,13.72,
54426900,-0.927,0.351,0.351,-13.93,-39.917,15.557,
54426910,-0.821,0.338,0.365,-5.337,-44.24,18.287,
54426920,-0.749,0.412,0.359,2.222,-40.057,19.565,
54426930,-0.787,0.485,0.375,-0.297,-31.552,15.54,
54426940,-0.872,0.376,0.458,-7.175,-29.382,8.907,
54426950,-0.671,0.343,0.446,-1.26,-24.01,7.315,
54426960,-0.67,0.507,0.444,1.89,-9.957,10.22,
54426970,-0.813,0.463,0.446,-12.127,-3.552,7.752,
54426980,-0.761,0.33,0.437,-15.155,0.262,4.2,
54426990,-0.765,0.375,0.412,-6.16,8.592,5.985,
54427000,-0.814,0.43,0.388,-2.485,13.527,3.482,
54427010,-0.852,0.411,0.364,-1.225,14.245,-2.31,
54427010,-0.892,0.406,0.344,0.402,11.235,-3.832,
54427030,-0.89,0.419,0.343,0.735,6.825,-2.975,
54427030,-0.908,0.419,0.336,-0.472,1.207,-2.8,
54427050,-0.906,0.394,0.34,-2.8,-4.69,-2.765,
54427050,-0.89,0.383,0.352,-3.132,-10.167,-0.84,
54427070,-0.864,0.385,0.366,-2.625,-13.37,2.047,
54427070,-0.832,0.387,0.38,-1.557,-14.507,3.115,
54427080,-0.821,0.39,0.391,-0.892,-13.667,3.307,
54427090,-0.831,0.387,0.402,-0.087,-12.407,3.01,
54427100,-0.806,0.344,0.411,3.832,-11.025,2.047,
54427110,-0.765,0.364,0.409,13.16,-7.507,0.315,
54427120,-0.816,0.43,0.399,19.442,-3.902,-3.062,
54427130,-0.824,0.437,0.388,19.337,-2.152,-6.562,
54427140,-0.892,0.419,0.385,17.08,-2.205,-7,
