#Format version: 1.0
time[ms],accX[g],accY[g],accZ[g],Value 1,Value 2,Value 3,
41299180,-0.067,-0.034,0.98,28.857,-115.517,68.442,
41299190,-0.079,-0.073,0.943,43.557,-117.757,65.257,
41299200,-0.142,-0.136,0.916,55.002,-115.92,63.035,
41299210,-0.234,-0.16,0.91,69.702,-114.257,65.082,
41299220,-0.288,-0.192,0.937,82.985,-111.527,71.487,
41299230,-0.301,-0.255,0.924,93.1,-111.737,78.802,
41299240,-0.274,-0.296,0.88,102.777,-110.477,85.487,
41299250,-0.276,-0.345,0.867,110.897,-110.022,87.972,
41299260,-0.393,-0.428,0.792,113.907,-112.717,84.087,
41299260,-0.455,-0.438,0.778,116.777,-118.58,78.435,
41299280,-0.348,-0.42,0.804,112.945,-111.265,83.02,
41299280,-0.221,-0.492,0.908,102.287,-92.505,97.16,
41299300,-0.233,-0.675,1.025,93.17,-71.767,107.852,
41299300,-0.355,-0.829,1.078,96.915,-66.377,101.01,
41299310,-0.385,-0.842,1.055,111.982,-70.542,82.88,
41299320,-0.374,-0.757,1.028,125.072,-73.08,70.612,
41299330,-0.423,-0.767,0.958,127.242,-70.472,66.99,
41299340,-0.519,-0.828,0.863,124.04,-65.817,65.887,
41299350,-0.638,-0.886,0.764,122.465,-61.442,68.477,
41299360,-0.753,-0.865,0.673,122.08,-58.782,77.997,
41299370,-0.797,-0.847,0.565,115.185,-55.44,95.095,
41299380,-0.805,-0.853,0.5,102.042,-52.15,117.985,
41299390,-0.792,-0.882,0.501,84.21,-50.277,141.855,
41299400,-0.73,-0.948,0.542,66.43,-51.66,163.135,
41299410,-0.687,-0.99,0.499,55.282,-55.65,182.612,
41299420,-0.62,-0.947,0.47,49.7,-60.935,198.502,
41299430,-0.539,-0.887,0.442,39.952,-63.945,213.57,
41299440,-0.523,-0.89,0.368,23.45,-66.167,229.617,
41299450,-0.567,-0.93,0.276,4.427,-71.015,244.125,
41299460,-0.505,-0.93,0.08,-14.017,-77.245,257.005,
41299470,-0.204,-0.864,-0.062,-34.405,-77.822,265.195,
41299480,0.024,-0.829,-0.085,-66.85,-71.032,266.122,
41299490,-0.011,-1.084,-0.089,-112.175,-63.595,260.907,
41299500,1.407,-1.99,1.242,-190.137,-19.162,241.01,
41299510,1.945,-1.998,-0.998,-207.322,18.55,181.352,
41299520,0.129,-1.688,-1.109,92.19,59.115,133.472,
41299530,-1.906,0.228,1.518,172.095,96.897,106.645,
41299540,-1.893,0.376,1.367,59.797,19.25,114.695,
41299550,0.134,0.332,1.308,29.995,-22.365,102.865,
41299560,0.407,-0.258,1.083,5.477,-2.345,49.857,
41299570,-1.31,-1.019,0.613,16.502,-6.352,-11.83,
41299580,-0.519,-0.855,0.665,73.15,-33.792,-37.257,
41299580,-0.031,-0.675,0.825,100.467,-56.98,-36.312,
41299600,-0.269,-0.418,0.973,120.645,-64.645,-37.59,
41299600,-0.235,-0.521,1.01,112.542,-78.295,-29.837,
41299620,-0.159,-0.447,1.076,108.867,-87.062,-22.435,
41299620,-0.37,-0.419,1.142,100.415,-95.655,-21.017,
41299640,0.32,-0.261,1.005,82.162,-99.242,-27.527,
41299640,0.777,0.079,0.95,59.132,-62.037,-23.327,
41299660,0.156,-0.141,0.908,20.79,-15.907,-4.497,
41299660,0.099,-0.254,0.897,4.462,3.465,6.65,
41299670,0.015,-0.292,0.904,-1.347,14.875,11.55,
41299680,-0.137,-0.343,0.918,-5.005,18.55,12.775,
41299690,-0.141,-0.368,0.908,-6.86,16.817,11.182,
41299700,-0.162,-0.31,0.928,-5.372,13.615,7.752,
41299710,-0.154,-0.271,0.935,-9.415,11.882,3.535,
41299720,-0.13,-0.244,0.934,-16.905,11.532,-0.892,
41299730,-0.044,-0.211,0.967,-27.807,13.545,-5.022,
41299740,0.058,-0.186,1.021,-43.435,21,-8.417,
41299750,0.126,-0.209,1.064,-65.152,33.25,-8.837,
41299760,-0.025,-0.433,1.01,-84.647,46.672,-9.31,
41299770,-0.17,-0.628,0.88,-90.195,46.935,-9.327,
41299780,0.014,-0.408,0.958,-77.542,43.697,-9.94,
41299790,-0.164,-0.464,0.892,-77.35,41.632,-8.995,
41299800,-0.183,-0.456,0.835,-76.072,35.927,-8.627,
41299810,-0.194,-0.44,0.797,-68.862,26.775,-11.427,
41299820,-0.24,-0.583,0.713,-61.967,16.59,-10.5,
41299830,-0.24,-0.689,0.652,-41.545,4.637,-12.04,
41299840,-0.31,-0.674,0.629,-10.587,-6.335,-18.007,
41299850,-0.147,-0.659,0.699,19.057,-20.44,-22.19,
41299860,-0.085,-0.53,0.872,38.955,-28.577,-18.97,
41299870,-0.265,-0.447,0.925,42.962,-33.862,-15.33,
41299880,-0.105,-0.44,0.98,40.32,-36.032,-22.085,
41299890,0.103,-0.275,1.087,30.677,-32.777,-22.452,
41299900,0.133,-0.286,1.086,4.042,-21.945,-11.252,
41299910,0.003,-0.343,1.055,-21.297,-13.3,-0.752,
41299920,-0.123,-0.416,1.009,-40.477,-9.817,6.02,
41299930,-0.126,-0.444,0.988,-51.8,-12.075,5.687,
41299940,-0.088,-0.434,1.028,-60.48,-11.83,3.36,
41299950,-0.013,-0.367,1.112,-73.902,-12.11,3.85,
41299960,0.055,-0.376,1.138,-95.725,-9.992,9.03,
41299970,0.124,-0.41,1.142,-119.402,-7.437,17.902,
41299980,0.118,-0.457,1.096,-138.845,-5.862,30.327,
41299980,0.17,-0.515,1.019,-154.437,-5.46,41.667,
41300000,0.069,-0.587,1.015,-169.137,-0.595,47.862,
41300000,-0.078,-0.61,1.057,-177.8,0.595,38.307,
41300010,-0.169,-0.451,1.061,-185.412,-3.272,24.57,
41300020,-0.385,-0.661,1.176,-200.147,-18.725,19.722,
41300030,-0.345,-0.979,0.858,-203.892,-43.522,9.082,
41300040,0.082,-1.103,0.799,-199.727,-74.9,0.682,
41300050,0.135,-1.455,0.722,-204.732,-94.395,12.652,
41300060,-0.217,-1.785,0.285,-167.492,-90.982,32.287,
41300070,-0.291,-1.919,-0.61,-102.76,-135.922,44.73,
41300080,-0.115,-1.627,-0.282,-53.287,-188.685,70.315,
41300090,-0.14,-1.487,0.042,-62.632,-213.64,80.622,
41300100,-0.509,-1.473,-0.064,-52.71,-240.922,106.68,
41300110,-0.132,-1.055,-0.294,-4.777,-258.142,124.285,
41300120,0.274,-0.438,-0.174,25.427,-227.097,150.412,
41300130,0.357,-0.111,-0.112,10.237,-179.445,172.637,
41300140,0.268,0.033,-0.019,-11.637,-135.905,169.75,
41300150,0.109,0.486,0.083,-24.57,-96.827,160.352,
41300160,0.077,1.112,0.266,-47.145,-73.272,142.887,
41300170,0.232,1.435,0.438,-76.16,-55.457,118.912,
41300180,0.411,1.216,0.608,-87.762,-22.96,100.712,
41300190,0.356,1.13,0.693,-56.385,19.092,81.427,
41300200,0.241,0.95,0.282,14.595,49.437,47.407,
41300210,-0.942,1.224,0.367,170.24,23.537,38.727,
41300220,-1.068,-0.755,0.152,194.407,-129.465,57.662,
41300230,1.393,-1.998,0.215,11.27,-57.907,120.82,
41300240,1.552,0.625,-0.198,372.312,-27.265,37.555,
41300250,-1.771,1.995,1.978,464.502,101.307,117.547,
41300260,-1.514,-1.019,1.251,224.56,-32.34,59.727,
41300270,0.19,-1.392,0.971,275.817,-69.387,-11.952,
41300280,-1.222,1.588,1.984,390.827,-43.155,-89.757,
41300290,0.098,-0.352,1.525,196.525,-48.37,-146.51,
41300300,0.572,0.292,1.685,113.347,-11.777,-172.48,
41300310,0.766,0.323,1.642,24.412,21.367,-133.28,
41300320,0.743,-0.024,1.441,-68.407,37.835,-69.177,
41300330,0.528,-0.096,1.386,-122.867,48.125,-11.9,
41300330,0.272,-0.23,1.275,-173.302,58.082,24.57,
41300350,0.088,-0.308,1.239,-212.257,67.165,37.187,
41300350,-0.117,-0.375,1.122,-237.58,75.95,35.577,
41300370,-0.253,-0.279,0.965,-256.585,78.977,24.535,
41300370,-0.744,-0.277,0.938,-295.715,66.727,-2.8,
41300390,-0.451,-0.688,0.326,-347.147,34.702,-52.255,
41300390,0.025,-1.454,0.77,-390.6,43.995,-81.777,
41300410,0.341,-1.623,0.74,-382.9,41.562,-105.892,
41300410,1.901,-1.926,0.581,-388.482,74.235,-100.082,
41300420,-0.245,-1.614,0.809,-344.942,236.25,-71.4,
41300430,-1.412,-1.126,0.509,-265.965,281.015,-70.927,
41300440,-0.409,-0.761,0.957,-220.202,221.882,-62.02,
41300450,0.696,-1.428,1.139,-187.32,203.42,-59.552,
41300460,1.08,-1.493,0.745,-84.735,211.942,-142.607,
41300470,-0.723,-1.843,-0.007,69.125,168.175,-274.505,
41300480,-1.998,-0.873,-0.237,203.035,104.702,-316.12,
41300490,-1.998,0.32,-0.155,289.975,55.282,-294.822,
41300500,-1.998,0.729,-0.261,285.967,-6.475,-184.782,
41300510,-1.977,0.606,-0.525,207.445,-61.722,-21.455,
41300520,-1.551,0.265,-0.736,137.497,-84.49,143.675,
41300530,-0.972,-0.039,-0.682,115.745,-85.47,277.882,
41300540,-0.173,-0.425,-0.513,111.387,-74.217,339.027,
41300550,0.726,-0.467,-0.304,106.575,-55.65,321.247,
41300560,1.189,-0.109,-0.148,77.875,-39.112,290.272,
41300570,1.041,-0.08,0.108,15.19,-21.962,280.525,
41300580,0.948,-0.342,-0.01,-63.98,-27.475,250.565,
41300590,1.07,-0.608,-0.086,-69.825,-64.05,193.637,
41300600,1.102,-0.44,-0.023,-26.302,-112.717,125.65,
41300610,1.086,-0.601,-0.459,26.827,-157.132,42.245,
41300620,0.289,-1.751,0.511,99.225,-281.767,-32.515,
41300630,0.978,-1.998,0.093,-39.217,-182.7,24.5,
41300640,0.276,0.263,-0.915,445.55,-80.727,116.917,
41300650,-1.55,1.884,1.479,392.63,-120.54,116.077,
41300660,-1.503,-1.273,0.413,117.635,-126.28,38.832,
41300670,0.066,-1.799,-0.038,200.182,-142.082,-33.547,
41300670,-0.9,0.774,1.421,375.742,-78.522,-97.545,
41300690,-0.015,0.048,1.583,272.545,-55.842,-149.222,
41300690,0.568,-0.1,1.632,171.395,-37.957,-151.41,
41300710,0.927,0.679,1.947,114.817,-27.755,-100.467,
41300710,0.566,-0.137,1.575,-13.947,-22.557,-31.255,
41300730,0.2,-0.036,1.538,-87.097,-0.962,1.575,
41300730,0.288,-0.297,1.43,-153.877,24.5,5.11,
41300750,0.368,-0.283,1.425,-199.71,51.275,4.917,
41300750,0.441,-0.455,1.168,-246.697,77.052,14.367,
41300760,0.162,-0.322,1.259,-272.457,100.082,28.805,
41300770,-0.392,-0.012,1.244,-326.935,88.917,16.94,
41300780,-0.438,-0.411,1.32,-421.522,72.94,-11.41,
41300790,1.052,-1.903,0.769,-516.355,84.315,-17.325,
41300800,1.998,-1.998,0.604,-559.072,156.205,-11.375,
41300810,-0.4,-1.998,0.58,-429.607,374.99,-61.88,
41300820,1.818,-1.998,1.361,-343.122,434.507,-105.157,
41300830,1.133,-1.998,0.257,-212.625,378.857,-256.602,
41300840,-1.988,-1.956,0.009,166.11,244.265,-482.842,
41300850,-1.998,-0.482,0.33,376.95,102.042,-508.042,
41300860,-1.998,0.595,-0.214,395.377,-25.917,-402.132,
41300870,-1.998,0.848,-0.672,319.585,-93.677,-263.165,
41300880,-1.725,0.767,-0.647,217.402,-100.467,-126.63,
41300890,-1.305,0.346,-0.689,142.397,-68.792,-4.777,
41300900,-0.983,0.039,-0.935,126.087,-32.987,78.557,
41300910,-0.799,-0.055,-1.203,145.337,4.637,126.997,
41300920,-0.521,0.134,-1.192,152.232,47.705,147.805,
41300930,-0.616,0.133,-1.002,112.787,68.285,178.815,
41300940,-0.765,-0.103,-0.878,16.31,52.85,214.55,
41300950,-0.689,-0.587,-0.776,-70.525,21.717,258.125,
41300960,-0.467,-0.988,-0.673,-105.77,-5.127,299.967,
41300970,-0.322,-1.093,-0.599,-110.25,-42.385,320.722,
41300980,-0.145,-0.95,-0.511,-112.577,-81.777,333.06,
41300990,0.086,-0.823,-0.485,-131.687,-115.43,342.58,
41301000,0.502,-0.695,-0.544,-159.407,-134.032,340.427,
41301010,0.889,-0.442,-0.458,-189.927,-129.43,327.302,
41301020,1.031,-0.13,-0.246,-231.192,-108.587,299.355,
41301030,0.956,0.205,0.091,-274.592,-90.772,254.362,
41301040,0.786,0.22,0.513,-313.897,-110.88,185.272,
41301050,0.525,-0.609,-0.922,-334.565,-178.64,72.8,
41301060,-1.944,-1.998,1.962,110.197,-414.802,-115.64,
41301070,0.936,-1.998,1.486,388.552,-459.935,-197.487,
41301080,1.497,-1.552,-1.959,408.03,-53.707,115.29,
41301080,-1.64,1.94,1.121,563.885,-90.597,13.895,
41301100,-1.833,0.927,1.107,516.372,-47.512,-56.367,
41301100,0.719,-1.048,0.654,427.735,-114.625,-105.945,
41301120,-1.061,0.485,1.765,458.535,-86.887,-189.297,
41301120,0.453,1.34,1.998,358.015,-91.472,-196.63,
41301140,1.149,0.508,1.98,164.955,-78.662,-158.147,
41301140,0.924,0.625,1.925,32.06,-36.12,-88.655,
41301160,0.386,-0.118,1.453,-93.152,3.552,-32.007,
41301160,0.348,-0.337,1.23,-152.39,32.9,-17.885,
41301170,0.405,-0.347,1.257,-185.08,56.542,-14.122,
41301180,0.26,-0.351,1.219,-217.875,70.437,-0.945,
41301190,0.146,-0.546,1.024,-244.352,70.367,10.885,
41301200,0.038,-0.423,0.935,-244.475,80.692,17.22,
41301210,-0.692,-0.617,0.855,-278.337,65.73,-4.62,
41301220,-0.579,-1.141,1.037,-311.622,7.892,-53.987,
41301230,0.066,-1.717,0.162,-322.875,-0.507,-79.887,
41301240,1.643,-1.998,1.37,-334.722,28.542,-103.442,
41301250,1.982,-1.998,1.143,-369.897,94.587,-146.107,
41301260,1.998,-1.998,1.043,-223.965,377.037,-179.13,
41301270,1.75,-1.998,0.223,-34.44,527.52,-359.502,
41301280,-1.572,-1.997,-1.169,250.092,404.635,-550.62,
41301290,-1.998,-1.122,-1.381,370.772,197.067,-562.695,
41301300,-1.998,-0.098,-1.019,374.727,68.617,-465.675,
41301310,-1.996,0.171,-0.937,251.895,-7.087,-253.75,
41301320,-1.842,-0.109,-1.487,113.067,-19.005,-6.685,
41301330,-1.926,-0.174,-1.767,58.66,-16.257,155.487,
41301340,-1.75,-0.067,-1.322,46.97,-49.245,233.485,
41301350,-1.056,-0.174,-0.739,-11.112,-118.072,281.802,
41301360,-0.537,-0.659,-0.47,-80.675,-167.44,336.21,
41301370,-0.33,-0.867,-0.353,-100.292,-199.867,385.665,
41301380,-0.222,-0.668,-0.239,-97.352,-231.14,423.78,
41301390,0.343,-0.565,-0.409,-127.487,-256.007,450.677,
41301400,1.385,-0.859,-0.466,-174.667,-229.88,463.837,
41301410,1.939,-0.9,-0.235,-203.507,-173.617,428.067,
41301420,1.951,-0.52,0.194,-235.007,-101.85,332.692,
41301420,1.45,-0.262,0.538,-259.665,-51.345,191.782,
41301440,0.969,-0.195,0.705,-260.68,-17.08,40.582,
41301440,0.805,-0.025,0.639,-240.975,25.515,-81.375,
41301460,0.481,-0.089,-0.035,-180.74,94.902,-177.065,
41301460,-0.807,0.454,0.607,217.28,169.785,-189.805,
41301480,-1.998,-0.981,1.998,116.655,42.56,-203.752,
41301480,-0.309,-1.998,1.998,212.782,-76.86,-280.77,
41301500,1.998,-1.852,-1.256,304.797,78.592,-45.5,
41301500,1.562,1.281,0.865,330.207,173.32,-47.477,
41301510,-1.949,0.817,1.665,288.295,263.357,-131.757,
41301520,0.316,-0.181,1.123,270.27,46.532,-31.78,
41301530,1.109,-0.842,1.507,189.56,23.275,-4.375,
41301540,-1.053,0.732,1.954,196.315,1.855,3.605,
41301550,0.084,-0.5,1.449,53.83,-26.197,36.4,
41301560,-0.621,-0.44,1.201,0.647,-19.162,10.972,
41301570,-0.321,-0.684,0.815,-31.902,-8.732,-10.027,
41301580,-0.137,-0.87,0.53,-36.277,1.75,-31.272,
41301590,0.13,-0.733,0.588,-19.53,18.97,-42.157,
41301600,0.325,-0.628,0.78,-13.422,30.17,-36.977,
41301610,0.337,-0.56,0.901,-18.83,28.035,-18.095,
41301620,0.227,-0.454,0.989,-34.405,23.17,4.427,
41301630,0.113,-0.57,0.945,-54.915,22.172,21.77,
41301640,0.047,-0.601,0.918,-77.227,34.195,22.68,
41301650,-0.063,-0.572,0.903,-100.432,52.885,14.21,
41301660,-0.123,-0.507,0.974,-131.897,69.807,1.662,
41301670,-0.166,-0.502,1.007,-174.895,74.287,-10.955,
41301680,0.039,-0.507,1.005,-219.94,78.12,-14.122,
41301690,0.282,-0.945,1.098,-260.295,95.445,-0.385,
41301700,0.661,-1.42,1.195,-270.9,142.765,41.737,
41301710,0.697,-1.915,0.934,-273.63,241.29,114.94,
41301720,0.503,-1.977,0.934,-265.352,355.215,205.765,
41301730,0.317,-1.301,0.46,-206.115,387.87,186.987,
41301740,0.057,-1.537,-0.031,-99.75,330.715,117.967,
41301750,0.227,-1.946,0.116,-4.532,224.402,56.805,
41301760,-0.744,-1.538,0.612,113.172,105.07,-11.882,
41301770,-1.018,-1.14,0.479,196.332,-9.555,-66.097,
41301780,-0.76,-0.629,0.224,230.072,-113.067,-80.762,
41301790,-0.148,-0.088,-0.114,251.702,-184.485,-85.225,
41301800,0.251,0.15,-0.245,238.7,-212.887,-95.147,
41301810,0.443,0.163,-0.33,205.835,-204.837,-96.897,
41301820,0.503,0.12,-0.361,183.557,-173.285,-88.007,
41301830,0.445,0.179,-0.291,170.835,-139.755,-81.305,
41301830,0.272,0.268,-0.28,153.597,-114.415,-72.047,
41301850,0.087,0.336,-0.253,127.942,-105.052,-59.342,
41301850,-0.043,0.438,-0.221,94.36,-110.565,-47.11,
41301870,-0.121,0.571,-0.297,57.925,-128.24,-33.215,
41301870,-0.051,0.728,-0.363,12.46,-143.395,-17.43,
41301890,0.096,0.745,-0.445,-44.817,-140.192,4.637,
41301890,0.135,0.676,-0.447,-102.41,-127.417,23.765,
41301910,0.227,-1.152,-0.195,-158.69,-142.205,11.637,
41301910,-1.998,-1.998,1.998,-10.465,-203.805,115.517,
41301920,0.197,-1.047,-1.654,255.605,-177.8,266.77,
41301930,1.549,1.904,1.929,324.765,8.662,279.65,
41301940,-1.978,1.733,1.414,201.845,2.905,32.427,
41301950,-1.079,-1.461,0.986,94.78,-30.555,-70.035,
41301960,0.983,-1.778,0.532,61.005,31.64,-114.222,
41301970,-1.179,-0.02,1.048,132.16,72.012,-241.622,
41301980,0.815,-0.015,1.191,81.83,64.505,-199.167,
41301990,1.11,-0.673,1.117,49.332,44.957,-140.805,
41302000,0.902,0.325,1.429,52.797,20.772,-64.435,
41302010,0.587,-0.468,1.113,-10.867,-7.91,26.897,
41302020,-0.074,-0.432,1.109,-36.417,-14.962,65.38,
41302030,-0.33,-0.411,1.147,-56.472,-21.367,64.855,
41302040,-0.371,-0.581,1.094,-81.48,-24.202,54.88,
41302050,-0.36,-0.518,1.143,-104.72,-23.572,31.08,
41302060,-0.371,-0.453,1.178,-138.372,-23.1,7.542,
41302070,-0.312,-0.524,1.165,-177.117,-26.705,-9.87,
41302080,-0.292,-0.627,1.002,-206.535,-25.602,-26.127,
41302090,-0.286,-0.412,1.057,-230.615,-33.057,-48.51,
41302100,-0.291,-0.589,0.905,-267.172,-53.217,-70.98,
41302110,-0.027,-1.169,0.609,-301.42,-47.67,-80.885,
41302120,0.35,-1.867,1.142,-311.237,-8.522,-73.132,
41302130,0.852,-1.4,0.927,-284.515,68.162,-48.405,
41302140,0.338,-1.61,0.545,-276.325,180.057,4.375,
41302150,-0.106,-1.258,0.824,-233.712,225.452,35.91,
41302160,0.053,-1.126,0.656,-189.402,188.982,3.202,
41302170,-0.33,-1.298,0.39,-126.63,85.067,-56.175,
41302170,0.063,-1.335,0.426,-45.5,-0.035,-76.79,
41302190,0.583,-0.909,0.327,39.532,-19.145,-80.43,
41302190,0.045,-0.985,0.156,125.177,-39.532,-115.307,
41302210,-0.216,-0.584,0.062,179.357,-79.642,-160.492,
41302210,-0.062,-0.215,-0.15,192.045,-107.52,-176.54,
41302230,0.027,0.021,-0.344,185.552,-106.347,-162.592,
41302230,-0.058,0.201,-0.374,170.362,-92.785,-137.672,
41302250,-0.24,0.302,-0.387,142.257,-73.587,-105.472,
41302250,-0.447,0.309,-0.331,108.745,-56.28,-70.647,
41302260,-0.557,0.26,-0.152,79.485,-48.02,-35.507,
41302270,-0.555,0.193,-0.007,52.115,-36.592,9.362,
41302280,-0.46,0.138,0.114,34.475,-19.775,64.085,
41302290,-0.301,-0.04,0.164,27.125,2.992,115.727,
41302300,-0.096,0.145,-0.013,9.292,24.622,138.547,
41302310,-0.3,0.145,-0.029,39.042,46.707,175.437,
41302320,-0.359,0.287,-0.019,86.117,62.422,207.357,
41302330,-0.224,0.293,-0.12,71.295,28.63,189.91,
41302340,-0.357,-0.283,-0.844,52.92,-84.927,89.057,
41302350,1.985,-1.998,1.6,-21.805,-26.372,100.275,
41302360,-1.533,-1.512,-1.997,124.11,54.267,96.74,
41302370,0.622,1.997,0.706,540.487,-0.612,-121.922,
41302380,-1.387,0.391,1.187,242.305,236.897,52.587,
41302390,-1.117,-1.998,0.156,93.8,12.022,105.157,
41302400,1.324,-0.801,0.995,301.735,24.71,89.985,
41302410,-1.76,1.273,1.86,364.105,23.082,16.45,
41302420,-0.57,-0.172,1.675,181.51,-22.575,1.102,
41302430,-0.486,-0.492,1.551,125.982,-36.522,-25.725,
41302440,-0.194,0.295,1.737,85.557,-37.975,-66.482,
41302450,0.172,-0.323,1.481,-25.112,-41.055,-58.765,
41302460,0.119,-0.088,1.568,-77.962,-41.02,-45.342,
41302470,0.036,-0.236,1.462,-141.312,-54.512,-26.722,
41302480,0.076,-0.345,1.377,-188.195,-63.472,-14.035,
41302490,0.172,-0.406,1.2,-224.962,-58.957,-12.757,
41302500,0.119,-0.45,1.2,-255.202,-41.422,-12.25,
41302510,-0.277,-0.712,0.798,-297.815,-27.16,-31.395,
41302520,-0.188,-1.242,1.147,-332.727,-24.08,-64.505,
41302530,0.418,-1.117,1.043,-332.377,10.412,-68.845,
41302540,0.758,-1.438,1.177,-357.332,102.637,-38.395,
41302550,0.57,-1.781,0.618,-344.05,203.647,11.2,
41302560,-0.08,-1.43,0.529,-293.597,208.005,-6.405,
41302570,-0.642,-1.81,0.163,-205.502,127.54,-54.722,
41302580,-0.847,-1.326,0.18,-71.872,29.295,-69.772,
41302580,-0.854,-0.937,0.388,27.597,-47.897,-71.61,
41302600,-0.959,-0.948,0.17,66.43,-105.315,-29.697,
41302600,-0.754,-0.826,-0.228,118.072,-143.587,10.325,
41302620,-0.573,-0.583,-0.56,176.942,-152.792,49.455,
41302620,-0.415,-0.306,-0.915,216.982,-143.255,95.06,
41302630,-0.16,0.138,-1.127,221.13,-116.462,136.01,
41302640,-0.113,0.52,-1.196,182.77,-91.63,176.032,
41302650,-0.165,0.695,-1.043,100.642,-74.865,215.39,
41302660,-0.155,0.54,-0.632,-23.765,-51.31,257.81,
41302670,-0.164,-0.174,-0.229,-140.875,-18.042,301.612,
41302680,-0.267,-0.814,0.119,-184.03,7.595,322.542,
41302690,-0.598,-0.537,0.4,-155.4,13.93,317.03,
41302700,-0.564,0.579,0.632,-115.097,2.38,289.572,
41302710,0.078,1.224,0.678,-118.597,9.975,260.96,
41302720,0.696,1.133,0.638,-143.325,58.222,229.775,
41302730,0.726,0.994,0.477,-188.65,134.802,153.877,
41302740,-1.252,-0.39,-0.051,192.657,206.167,101.255,
41302750,-0.611,-1.998,1.44,238.997,-130.917,-323.382,
41302760,1.549,-1.935,-0.513,307.58,-432.635,-277.97,
41302770,0.805,1.586,0.179,539.7,-115.167,-201.092,
41302780,-0.418,0.089,0.781,412.265,173.477,-242.497,
41302790,0.246,-1.568,1.031,332.22,63.157,-203.542,
41302800,0.449,1.663,1.536,546.122,31.71,-156.152,
41302810,0.844,1.381,1.998,431.952,-12.197,-87.395,
41302820,0.188,-0.531,1.753,221.497,-36.032,-12.862,
41302830,-0.5,0.831,1.992,169.942,-13.965,-8.085,
41302840,0.218,0.413,1.826,19.197,5.757,-17.36,
41302850,0.245,-0.057,1.449,-103.337,38.167,-18.672,
41302860,0.413,-0.333,1.093,-167.632,62.79,-6.3,
41302870,0.37,-0.47,0.991,-197.645,80.622,10.307,
41302880,0.129,-0.514,0.941,-198.187,96.74,30.677,
41302890,0.102,-0.381,0.976,-210.98,108.85,29.715,
41302900,-0.119,-0.532,0.857,-236.18,120.015,25.672,
41302910,-0.316,-0.472,0.904,-240.59,124.74,13.755,
41302920,-0.072,-0.316,0.925,-251.842,135.835,2.012,
41302920,0.002,-0.562,0.679,-285.705,154.262,-10.027,
41302940,0.322,-1.113,0.672,-319.812,186.182,-8.137,
41302940,0.72,-1.708,0.326,-341.32,268.887,51.607,
41302960,1.116,-1.998,0.295,-342.93,451.657,110.53,
41302960,-0.145,-1.993,0.517,-264.46,509.267,79.485,
41302980,0.041,-1.998,0.857,-154.35,478.572,-11.41,
41302980,0.717,-1.998,0.865,-30.432,410.375,-93.852,
41303000,-0.174,-1.998,0.442,161.805,241.43,-230.965,
41303000,-1.486,-1.588,-0.056,332.22,91.595,-286.807,
41303010,-1.981,-0.688,-0.593,392.577,-56.455,-300.51,
41303020,-1.56,-0.082,-0.517,384.177,-195.877,-289.8,
41303030,-1.124,0.209,-0.56,320.145,-292.635,-246.242,
41303040,-0.732,0.229,-1.173,243.127,-323.872,-184.782,
41303050,-0.348,0.452,-1.629,204.977,-291.06,-101.115,
41303060,-0.153,0.883,-1.585,176.855,-231.507,-8.347,
41303070,-0.527,1.108,-1.006,88.445,-186.217,97.265,
41303080,-1.43,0.75,-0.254,-74.305,-203.192,198.765,
41303090,-1.386,-0.058,0.003,-211.032,-265.335,273.297,
41303100,-0.318,-0.538,-0.006,-246.435,-331.345,306.285,
41303110,1.046,-0.243,0.035,-221.2,-370.02,300.527,
41303120,1.891,-0.265,-0.092,-236.95,-350.192,279.125,
41303130,1.998,-1.438,0.068,-219.38,-273.665,188.44,
41303140,1.872,-0.666,1.992,101.185,-41.177,70.577,
41303150,-1.48,-1.718,1.998,155.925,22.155,29.085,
41303160,-1.837,-1.998,-0.49,154.665,77.315,185.92,
41303170,1.334,-0.732,-0.089,388.15,-16.52,191.817,
41303180,-1.021,0.342,1.073,335.755,11.27,121.345,
41303190,-1.97,0.861,1.246,367.885,-38.395,-2.257,
41303200,0.097,-0.883,1.167,254.502,-52.412,-106.75,
41303210,-0.538,-0.444,1.43,247.485,-0.822,-199.115,
41303220,0.608,0.72,1.99,225.382,12.267,-194.6,
41303230,1.03,0.198,1.858,99.54,1.225,-140.297,
41303240,0.874,0.312,1.734,11.445,-2.747,-56.262,
41303250,0.381,-0.241,1.303,-75.302,-12.372,20.23,
41303260,-0.073,-0.514,0.96,-115.08,-10.342,53.357,
41303270,-0.241,-0.736,0.73,-115.71,-8.015,50.627,
41303280,-0.166,-0.643,0.89,-105.402,-0.017,33.6,
41303280,-0.084,-0.496,1.015,-109.707,7.332,17.657,
41303300,0.052,-0.536,0.991,-128.66,15.82,8.417,
41303300,0.227,-0.61,0.922,-150.465,27.632,6.667,
41303320,0.381,-0.676,0.932,-172.497,61.915,14.245,
41303320,-0.015,-0.387,1.008,-196.507,106.12,17.115,
41303330,-0.331,-0.099,1.397,-242.2,98.91,2.257,
41303340,-0.015,-0.677,0.961,-313.425,101.08,-13.177,
41303350,0.395,-1.765,0.876,-361.742,143.955,14.227,
41303360,0.492,-1.988,1.109,-384.65,262.395,86.397,
41303370,1.403,-1.998,0.849,-390.6,299.6,82.075,
41303380,0.134,-1.942,0.729,-259.647,251.615,-19.337,
41303390,0.472,-1.998,0.676,-145.425,160.405,-84.21,
41303400,0.256,-1.998,-0.22,42.472,20.93,-180.075,
41303410,-1.201,-1.623,-0.886,286.667,-89.092,-283.605,
41303420,-1.631,0.079,-1.274,400.995,-176.645,-312.305,
41303430,-1.094,1.278,-1.493,364.472,-213.85,-263.287,
41303440,-0.872,1.533,-1.559,226.607,-188.265,-126.507,
41303450,-1.179,1.073,-0.95,58.485,-161.56,21.682,
41303460,-1.29,0.304,-0.351,-94.325,-177.8,124.722,
41303470,-0.888,-0.561,-0.077,-173.162,-223.072,180.022,
41303480,-0.059,-1.086,0.231,-163.8,-253.557,188.615,
41303490,0.643,-0.956,0.52,-114.957,-257.845,163.59,
41303500,0.954,-0.67,0.517,-72.45,-222.547,135.012,
41303510,1.032,-0.563,0.352,-49.752,-154.7,106.942,
41303520,1.02,-0.441,0.252,-26.022,-77.63,66.727,
41303530,0.752,-0.277,0.134,8.662,-13.597,10.255,
41303540,0.447,-0.155,0.024,26.302,34.545,-43.505,
41303550,0.296,0.093,-0.126,9.625,67.987,-84.437,
41303560,-0.266,-0.086,-0.221,32.182,97.457,-98.35,
41303570,-0.556,0.492,-0.187,67.847,107.625,-116.042,
41303580,-0.532,1.171,-0.308,25.935,86.467,-128.59,
41303590,-0.769,0.62,-1.135,-32.357,55.965,-112.752,
41303600,-1.957,-0.755,1.697,53.305,-17.867,-108.99,
41303610,0.292,-1.998,1.998,172.007,33.67,-35.665,
41303620,-0.855,-1.965,-1.38,332.745,77.472,207.357,
41303630,1.929,1.738,-0.093,562.03,14.332,20.51,
41303640,-1.354,0.809,1.981,404.722,270.882,69.842,
41303650,-0.903,-1.598,0.842,261.03,4.935,15.872,
41303660,0.453,0.309,1.902,329.42,40.162,51.712,
41303670,-1.502,0.884,1.998,244.16,12.53,-52.43,
41303670,0.13,-0.001,1.835,54.687,-3.08,-80.587,
41303690,-0.074,0.097,1.768,-52.605,11.585,-101.955,
41303690,0.206,-0.177,1.142,-126.787,10.745,-93.905,
41303710,0.423,-0.916,0.396,-157.78,-5.932,-64.365,
41303710,0.443,-0.843,0.316,-107.607,-2.712,-38.57,
41303730,0.504,-0.759,0.535,-70.42,4.217,-14.105,
41303730,0.415,-0.516,0.73,-49.472,7.105,15.067,
41303750,0.324,-0.568,0.754,-47.495,4.357,42.927,
41303750,0.181,-0.617,0.794,-47.635,8.26,60.952,
41303760,0.062,-0.692,0.818,-51.187,18.06,63.455,
41303770,0.019,-0.655,0.958,-65.292,37.922,58.677,
41303780,-0.05,-0.62,1.077,-94.657,59.885,51.502,
41303790,-0.222,-0.416,1.308,-130.13,79.222,34.3,
41303800,-0.542,-0.296,1.524,-173.32,65.45,5.617,
41303810,-0.469,-0.498,1.26,-236.88,31.237,-34.3,
41303820,-0.271,-1.713,1.277,-312.602,40.775,-13.457,
41303830,-0.263,-1.998,1.15,-338.03,86.152,24.937,
41303840,-0.128,-1.998,0.759,-299.547,124.075,51.975,
41303850,0.108,-1.995,-0.143,-264.285,204.75,17.115,
41303860,-0.93,-1.998,-0.542,-161.28,186.865,-51.03,
41303870,0.037,-1.503,-0.782,10.062,177.1,-84.262,
41303880,0.029,-0.699,-0.195,109.27,180.39,-94.692,
41303890,-0.154,-0.253,-0.093,119.752,156.765,-83.387,
41303900,-0.193,-0.115,-0.111,94.22,118.002,-56.035,
41303910,-0.16,-0.171,-0.133,63.752,69.335,-26.862,
41303920,-0.368,-0.28,-0.057,39.585,13.615,-18.34,
41303930,-0.476,-0.21,-0.054,30.117,-31.587,-27.72,
41303940,-0.404,-0.11,-0.058,21.525,-67.917,-43.802,
41303950,-0.243,-0.012,-0.022,4.217,-97.247,-56.507,
41303960,-0.031,0.088,0.088,-17.465,-104.877,-56.385,
41303970,0.092,0.116,0.246,-38.132,-90.352,-40.232,
41303980,0.078,0.088,0.422,-54.145,-68.915,-17.692,
41303990,-0.092,-0.06,0.617,-59.972,-65.065,-0.437,
41304000,-0.232,-0.191,0.719,-57.225,-85.522,10.955,
41304010,-0.167,-0.194,0.673,-43.12,-120.347,21.56,
41304010,-0.053,-0.174,0.453,-20.825,-158.532,32.9,
41304030,0.297,-0.117,0,10.43,-193.165,36.575,
41304030,1.051,0.448,-0.668,20.317,-194.25,16.835,
41304050,1.051,1.572,-0.609,108.22,-161.262,17.202,
41304050,0.715,1.997,-0.352,124.092,-137.917,-1.925,
41304070,-0.092,1.975,-0.93,20.247,-169.977,-105.945,
41304070,0.532,-0.802,1.131,-7.577,-299.775,-196.332,
41304080,-1.075,-1.998,-1.731,247.065,198.467,464.205,
41304090,1.35,1.434,0.853,544.285,0.227,162.05,
41304100,-0.817,1.271,0.269,499.065,180.25,0.595,
41304110,-1.509,-1.616,0.143,244.405,-42.017,102.69,
41304120,0.621,0.345,1.762,445.06,-29.015,18.952,
41304130,-1.425,1.572,1.998,383.565,-53.462,-120.557,
41304140,0.825,0.098,1.95,94.01,-42.927,-176.295,
41304150,0.594,0.558,1.994,-51.73,23.782,-175.297,
41304160,0.456,0.073,1.467,-177.835,48.317,-123.865,
41304170,0.637,-0.656,0.86,-243.722,48.247,-66.115,
41304180,0.533,-0.738,0.787,-227.185,50.347,-30.502,
41304190,0.294,-0.418,0.999,-214.865,51.8,-7.927,
41304200,0.124,-0.491,0.932,-246.522,41.58,-9.432,
41304210,-0.108,-0.572,0.787,-294.21,35.192,-38.745,
41304220,-0.468,-0.709,0.845,-342.3,32.62,-63.665,
41304230,0.205,-1.539,1.018,-377.877,57.942,-70.647,
41304240,1.087,-1.996,0.934,-394.45,159.057,-56.595,
41304250,1.815,-1.998,0.678,-424.812,310.87,-33.95,
41304260,1.509,-1.998,0.933,-452.34,454.877,-58.677,
41304270,1.921,-1.998,0.038,-325.71,553.227,-159.25,
41304280,1.445,-1.998,-0.153,-173.355,546.367,-268.712,
41304290,-1.706,-1.998,-0.688,93.275,432.232,-403.917,
41304300,-1.998,-1.504,-0.194,314.842,245.735,-475.23,
41304310,-1.998,-0.574,-0.277,395.027,25.637,-463.802,
41304320,-1.998,-0.092,-0.824,373.117,-134.417,-397.6,
41304330,-1.998,0.24,-1.161,315.385,-211.785,-297.272,
41304340,-1.863,0.719,-1.06,284.112,-196.892,-156.87,
41304350,-1.979,1.031,-0.634,243.775,-168.962,-2.572,
41304360,-1.756,0.71,-0.503,148.68,-172.462,105.91,
41304370,-1.41,0.71,-0.335,58.1,-185.657,171.867,
41304380,-0.497,0.805,-0.183,-24.482,-171.902,254.397,
41304390,0.073,0.442,-0.093,-100.992,-159.582,310.257,
41304400,0.267,0.122,-0.039,-143.972,-151.042,326.427,
41304410,0.443,-0.097,-0.043,-136.237,-138.355,339.78,
41304420,0.605,-0.191,-0.051,-81.2,-120.75,369.985,
41304420,0.682,-0.307,-0.008,-10.675,-94.29,411.407,
41304440,0.713,-0.689,0.02,23.152,-56.122,431.217,
41304440,0.893,-1.308,0.144,15.382,-37.502,382.287,
41304460,1.621,-1.533,0.327,-15.82,-65.782,237.457,
41304460,1.968,-1.497,0.321,-10.412,-86.52,78.802,
41304480,1.998,-1.243,0.131,11.462,-45.395,-57.557,
41304480,1.728,-0.602,-0.446,33.267,21.717,-169.225,
41304500,0.485,0.228,-1.115,61.757,53.357,-240.187,
41304500,0.039,0.899,-1.194,48.807,25.567,-296.362,
41304510,-1.587,0.274,-0.226,104.475,-129.027,-255.272,
41304520,-0.38,-1.998,1.998,-21.787,-176.89,-22.592,
41304530,1.128,-1.892,-0.657,376.25,-5.95,296.835,
41304540,1.996,1.806,0.093,506.537,9.17,348.022,
41304550,-1.233,1.065,1.749,378.49,259.77,124.075,
41304560,-1.853,0.535,1.096,426.58,-12.932,-76.562,
41304570,1.059,-0.963,1.473,240.345,38.15,61.757,
41304580,-1.659,0.613,1.995,233.415,13.632,-109.602,
41304590,-0.042,0.276,1.91,64.837,24.377,-174.632,
41304600,0.1,-0.216,1.592,-45.5,23.66,-177.992,
41304610,0.46,-0.411,1.026,-103.127,16.24,-148.26,
41304620,0.347,-0.908,0.814,-151.27,10.115,-116.76,
41304630,0.395,-0.46,1.006,-150.272,14.14,-104.877,
41304640,0.17,-0.355,1.243,-166.757,18.007,-97.527,
41304650,0.093,-0.421,1.183,-197.05,5.075,-101.097,
41304660,-0.053,-0.495,1.003,-226.502,-10.85,-113.715,
41304670,0.16,-0.699,0.756,-261.047,-30.835,-133.682,
41304680,0.701,-0.537,0.753,-286.44,-13.002,-127.995,
41304690,1.02,-1.138,1.125,-327.617,67.707,-84.14,
41304700,0.532,-1.964,0.592,-361.602,153.737,-61.442,
41304710,1.058,-1.526,0.84,-355.267,217.735,-71.715,
41304720,1.225,-1.791,1.027,-384.492,327.775,-53.27,
41304730,1.159,-1.998,0.331,-353.412,393.802,-91.927,
41304740,1.998,-1.995,0.356,-301.525,449.155,-172.427,
41304750,-0.533,-1.998,-0.233,-174.79,421.662,-305.427,
41304760,-1.998,-1.945,-0.219,45.815,315.35,-433.737,
41304760,-1.998,-0.849,0.086,233.362,196.297,-454.93,
41304780,-1.998,0.113,0.251,330.662,99.54,-348.53,
41304780,-1.998,0.225,-0.01,316.662,-4.952,-224.017,
41304800,-1.998,0.313,-0.285,277.287,-91.262,-118.422,
41304800,-1.842,0.357,-0.526,253.522,-118.772,-9.922,
41304820,-1.204,0.481,-0.571,226.992,-88.427,66.447,
41304820,-0.797,0.488,-0.322,182.192,-30.45,139.457,
41304830,-0.621,0.33,-0.114,115.605,20.037,194.162,
41304840,-0.376,0.167,-0.017,53.077,48.72,232.347,
41304850,-0.102,0.115,0.139,23.362,67.62,272.037,
41304860,-0.543,-0.056,0.282,19.792,46.34,336.735,
41304870,-0.076,0.044,0.143,9.922,26.512,412.422,
41304880,0.448,-0.343,-0.19,39.725,27.982,486.465,
41304890,0.784,-1.011,-0.402,59.552,59.027,529.025,
41304900,1.272,-1.315,-0.562,31.605,106.242,499.555,
41304910,1.405,-1.213,-0.468,0.35,115.92,409.045,
41304920,1.183,-1.204,-0.329,-37.555,67.112,306.582,
41304930,1.223,-1.449,-0.194,-93.835,-19.477,165.462,
41304940,0.917,-1.66,-0.766,-121.38,-112.507,-37.73,
41304950,-0.035,-1.998,1.701,78.295,-255.01,-324.485,
41304960,0.785,-1.998,0.294,269.692,-164.202,-177.24,
41304970,-1.448,-0.358,-1.954,442.785,-158.795,-37.642,
41304980,1.832,1.997,1.837,314.282,-95.375,-87.482,
41304990,-0.772,0.574,-0.023,74.742,-64.872,-36.68,
41305000,-0.401,-0.539,1.751,107.117,-91.962,-77.122,
41305010,0.535,-1.077,1.101,35.84,-64.96,-37.1,
41305020,0.163,-0.5,1.326,13.072,-50.47,-35.297,
41305030,-0.319,0.014,1.227,-0.105,-38.08,-63.192,
41305040,-0.044,-0.677,0.736,-53.812,-39.007,-49.42,
41305050,0.161,-1.012,0.484,-53.532,-25.847,-51.87,
41305060,0.056,-0.766,0.48,-21.507,-8.645,-65.275,
41305070,0.201,-0.764,0.596,-9.607,12.215,-67.497,
41305080,0.314,-0.62,0.807,-9.94,31.29,-63.175,
41305090,0.284,-0.343,1.083,-18.2,39.935,-54.285,
41305100,0.221,-0.31,1.174,-40.932,33.932,-29.977,
41305110,0.315,-0.433,1.116,-69.072,23.012,-8.662,
41305120,0.245,-0.461,1.124,-94.097,18.48,1.137,
41305130,0.164,-0.507,1.148,-130.392,15.575,5.005,
41305140,0.036,-0.681,1.098,-180.757,16.275,5.302,
41305150,0.144,-0.965,1.147,-227.237,22.89,-3.01,
41305160,0.121,-0.83,1.12,-242.952,42.542,-27.125,
41305170,-0.214,-0.74,1.269,-247.695,63.647,-26.092,
41305170,-0.268,-1.015,0.793,-264.687,50.75,-17.097,
41305190,0.5,-0.969,0.963,-265.965,55.072,-6.895,
41305190,0.173,-0.988,0.989,-250.967,81.287,7.437,
41305210,-0.127,-1.039,1.071,-230.755,68.267,-1.435,
41305210,-0.803,-1.072,1.134,-197.207,13.877,-11.952,
41305230,-1.022,-1.303,0.939,-150.885,-76.177,-22.627,
41305230,0.258,-1.209,0.401,-102.847,-135.012,-41.125,
41305250,-0.234,-0.919,0.443,5.565,-156.975,-76.965,
41305250,-1.262,-0.913,0.41,97.545,-144.76,-102.077,
41305260,-1.356,-0.481,0.392,167.86,-133.997,-88.69,
41305270,-1.165,-0.212,0.032,224.385,-146.09,-46.2,
41305280,-0.785,0.025,-0.236,258.23,-142.152,11.06,
41305290,-0.353,0.112,-0.489,268.695,-111.807,79.695,
41305300,0.005,0.005,-0.673,263.655,-69.685,142.152,
41305310,0.355,-0.138,-0.931,252.717,-18.567,186.707,
41305320,0.177,-0.193,-0.881,239.872,5.915,214.357,
41305330,0.041,-0.337,-0.841,192.902,-42.245,213.99,
41305340,0.518,-0.628,-0.874,97.107,-116.13,214.41,
41305350,1.256,-1.113,-0.983,-0.63,-156.87,220.605,
41305360,1.708,-1.607,-1.168,-45.867,-154.7,197.452,
41305370,1.466,-1.552,-1.255,-43.417,-137.515,139.72,
41305380,0.921,-1.096,-1.113,-49.857,-118.177,76.702,
41305390,1.031,-1.47,0.353,-111.195,-102.97,17.202,
41305400,0.799,-1.998,1.998,48.58,146.86,83.247,
41305410,-1.998,-1.064,-0.449,359.292,117.337,159.145,
41305420,0.865,1.833,-0.299,477.102,-154.962,20.912,
41305430,0.405,-1.281,1.273,180.057,103.827,112.087,
41305440,-1.659,-1.221,0.66,248.99,7.105,3.465,
41305450,-1.192,1.863,1.986,403.795,-1.715,-93.327,
41305460,-0.325,-0.664,1.583,154.665,-54.81,-102.06,
41305470,0.311,0.219,1.787,101.15,-33.127,-144.007,
41305480,0.502,0.564,1.77,6.65,4.357,-138.74,
41305490,0.473,-0.424,1.176,-105.07,26.687,-96.162,
41305500,0.353,-0.442,0.906,-119.595,34.877,-63.175,
41305510,0.316,-0.624,0.769,-119.017,29.995,-32.095,
41305510,0.394,-0.563,0.91,-110.635,32.165,-10.325,
41305530,0.396,-0.312,1.083,-114.292,37.94,9.73,
41305530,0.315,-0.311,1.1,-138.967,45.937,31.675,
41305550,0.231,-0.563,1.004,-167.247,53.287,45.657,
41305550,0.193,-0.621,0.893,-176.487,69.072,51.572,
41305570,0.032,-0.561,0.994,-200.095,87.727,43.172,
41305570,-0.271,-0.489,1.185,-238.542,101.955,25.567,
41305580,-0.121,-0.523,1.161,-274.627,114.24,6.895,
41305590,0.196,-0.829,1.055,-303.905,141.085,5.477,
41305600,0.299,-1.226,1.095,-330.522,191.327,48.037,
41305610,0.241,-1.779,0.839,-355.232,274.995,113.102,
41305620,0.97,-1.998,0.569,-350.157,278.81,86.712,
41305630,1.347,-1.985,0.813,-258.615,280.157,5.705,
41305640,0.763,-1.998,0.281,-139.685,287.297,-73.097,
41305650,-0.605,-1.998,0.061,57.19,182.56,-164.097,
41305660,-1.782,-1.998,0.106,203.56,52.71,-290.36,
41305670,-1.654,-1.718,-0.369,302.295,-74.76,-358.365,
41305680,-1.417,-1.232,-1.046,363.79,-147.507,-358.015,
41305690,-1.501,-0.505,-1.422,412.632,-166.95,-336.752,
41305700,-1.322,0.384,-1.766,438.777,-151.462,-311.255,
41305710,-1.021,0.864,-1.997,425.862,-106.977,-225.347,
41305720,-1.086,1.153,-1.972,361.147,-41.93,-79.38,
41305730,-1.678,1.473,-1.074,189.175,-13.842,60.69,
41305740,-1.781,1.108,-0.328,-85.89,-82.6,170.17,
41305750,-1.027,-0.112,-0.477,-286.002,-171.237,286.492,
41305760,-0.154,-1.174,-0.166,-319.795,-230.93,355.67,
41305770,0.726,-1.769,0.104,-258.72,-270.725,359.852,
41305780,1.722,-1.568,0.139,-165.095,-272.107,331.555,
41305790,1.998,-0.775,-0.029,-97.195,-230.037,285.075,
41305800,1.998,-0.08,-0.109,-98.087,-146.93,187.477,
41305810,1.946,0.308,-0.424,-134.54,-58.047,47.705,
41305820,1.062,0.559,-0.536,-22.697,2.327,-79.992,
41305830,-0.498,0.276,1.403,82.372,-39.042,-159.355,
41305840,-1.914,-1.709,1.998,138.127,127.382,43.785,
41305850,-1.665,-1.998,-1.42,328.807,21.91,261.66,
41305860,1.99,0.676,0.368,550.987,10.045,226.607,
41305870,-1.599,1.997,1.896,542.22,116.392,85.19,
41305880,-1.098,0.94,1.752,400.82,-34.597,-2.135,
41305890,-0.554,-1.292,1.74,227.307,-78.242,-34.86,
41305900,-0.313,1.653,1.998,258.335,-63.892,-159.302,
41305910,0.994,0.275,1.816,-7.735,-17.57,-167.177,
41305920,0.574,-0.159,1.412,-125.142,40.81,-140.262,
41305920,0.492,-0.408,0.945,-165.06,50.802,-85.75,
41305930,0.609,-0.713,0.805,-179.235,65.222,-63.087,
41305940,0.641,-0.271,1.115,-175.332,79.8,-34.86,
41305950,0.56,-0.253,1.103,-208.897,86.012,4.34,
41305960,0.396,-0.495,0.937,-236.967,88.025,24.99,
41305970,-0.062,-0.477,0.945,-244.072,91.63,36.452,
41305980,-0.198,-0.395,0.942,-293.335,86.87,17.395,
41305990,0.05,-0.743,0.853,-359.152,97.352,-0.385,
41306000,0.701,-1.393,1.012,-410.917,157.71,30.537,
41306010,1.14,-1.998,1.038,-423.447,254.345,118.055,
41306020,1.418,-1.998,0.727,-452.042,387.642,96.985,
41306030,1.998,-1.998,0.824,-415.992,469.087,2.537,
41306040,1.997,-1.998,0.139,-198.817,544.967,-87.71,
41306050,-0.729,-1.998,-0.364,47.617,409.272,-253.295,
41306060,-1.998,-1.918,-0.209,332.972,188.825,-424.637,
41306070,-1.998,-1.125,-0.315,468.265,-8.662,-496.387,
41306080,-1.998,-0.544,-1.079,447.632,-152.792,-478.135,
41306090,-1.629,0.197,-1.541,423.342,-184.45,-419.86,
41306100,-1.012,0.685,-1.962,416.535,-128.082,-312.252,
41306110,-0.844,0.974,-1.997,400.47,-17.29,-142.257,
41306120,-1.419,1.38,-1.929,339.395,84.21,25.147,
41306130,-1.938,1.498,-1.063,126.315,63.63,118.895,
41306140,-1.951,0.67,-0.612,-164.85,-58.712,211.802,
41306150,-1.426,-0.674,-0.595,-339.08,-163.065,306.32,
41306160,-0.817,-1.056,-0.296,-392.157,-242.847,341.197,
41306170,-0.8,-1.337,-0.276,-355.407,-312.427,384.93,
41306180,-0.479,-1.725,-0.435,-267.102,-347.847,401.047,
41306190,0.669,-1.427,-0.4,-175.455,-335.807,374.342,
41306200,1.905,-0.8,-0.332,-150.045,-283.832,335.72,
41306210,1.998,-0.739,-0.504,-182.227,-188.982,280.455,
41306220,1.998,-0.802,-0.44,-203.105,-29.417,165.2,
41306230,1.832,-1.063,-0.236,-183.592,116.9,17.692,
41306240,0.847,-1.804,-1.054,-80.412,185.342,-121.205,
41306250,-1.831,-1.419,1.996,138.967,49.752,-176.995,
41306260,-1.998,-1.913,1.872,235.427,-165.585,-265.79,
41306260,0.119,0.509,-0.585,441.385,-349.335,-142.625,
41306280,1.937,-1.998,-0.042,346.535,-22.54,165.882,
41306280,0.565,-0.395,0.126,432.495,279.265,36.015,
41306300,-1.982,1.996,1.568,492.187,202.86,-134.12,
41306300,0.149,0.42,1.738,397.302,51.625,3.867,
41306320,0.635,-1.36,1.361,229.967,23.187,4.532,
41306320,0.321,1.202,1.935,281.487,19.722,-41.125,
41306330,-0.868,0.222,1.857,84.507,-2.152,36.995,
41306340,-0.19,-0.639,1.33,-66.867,-32.235,45.237,
41306350,-0.562,-0.365,1.226,-77.91,-15.347,-12.127,
41306360,-0.129,-0.649,0.842,-111.16,-19.862,-35.875,
41306370,0.266,-0.686,0.704,-114.047,-22.032,-36.907,
41306380,0.21,-0.583,0.89,-114.66,-17.622,-26.88,
41306390,0.219,-0.46,0.941,-123.602,-17.815,-9.712,
41306400,0.273,-0.517,0.918,-146.177,-20.632,2.747,
41306410,-0.011,-0.498,0.904,-171.22,-18.34,8.137,
41306420,-0.106,-0.569,0.836,-207.532,-16.152,1.82,
41306430,-0.216,-0.639,1.012,-242.55,-7.455,-9.502,
41306440,0.02,-1.022,1.108,-286.93,4.375,-21.315,
41306450,0.432,-1.75,1.193,-332.885,38.062,-28.052,
41306460,0.119,-1.998,1.668,-317.345,87.815,12.687,
41306470,-0.041,-1.998,1.11,-274.015,133.612,61.162,
41306480,0.718,-1.998,0.607,-228.742,81.83,26.285,
41306490,1.998,-1.998,0.503,-110.67,82.442,-57.032,
41306500,1.011,-1.996,0.065,82.722,140.91,-185.692,
41306510,-1.713,-1.356,-0.354,222.687,31.307,-312.48,
41306520,-1.998,-0.502,-0.289,243.232,-71.68,-334.845,
41306530,-1.703,0.093,-0.377,210.385,-104.177,-246.837,
41306540,-1.375,0.355,-0.361,152.67,-128.292,-142.905,
41306550,-1.543,0.443,-0.382,102.217,-130.62,-63.14,
41306560,-1.779,0.667,-0.334,91.42,-113.802,19.04,
41306570,-1.41,0.998,-0.139,90.177,-92.785,116.935,
41306580,-0.567,1.122,0.44,46.97,-67.865,202.895,
41306590,-0.321,0.979,0.897,-16.992,-70.735,247.17,
41306600,-0.123,0.385,0.865,-37.292,-89.512,284.637,
41306600,0.443,-0.07,0.786,27.93,-87.202,282.292,
41306620,1.172,-0.039,0.68,129.202,-64.977,257.127,
41306620,1.514,0.187,0.395,205.45,-27.037,229.53,
41306640,1.454,0.252,0.085,235.952,18.725,186.602,
41306640,0.941,0.318,-0.299,225.627,22.172,110.932,
41306660,0.213,0.413,-0.507,203.35,-12.005,32.06,
41306660,-0.271,0.417,-0.628,159.95,-54.775,-10.22,
41306670,-0.202,0.317,-0.819,79.31,-70.752,-20.125,
41306680,-0.446,-0.113,-1.179,21.927,-57.645,10.185,
41306690,0.66,-1.83,0.677,-15.82,-47.355,71.907,
41306700,-0.864,-1.958,-1.24,-46.112,-128.712,315.945,
41306710,0.691,1.855,1.228,542.167,26.95,47.197,
41306720,-1.899,1.536,1.995,415.362,-28,19.005,
41306730,-0.15,-1.993,0.321,-90.352,-143.552,25.182,
41306740,-0.945,0.906,1.583,330.085,-74.007,-110.862,
41306750,1.806,1.693,1.83,160.107,-60.375,-114.957,
41306760,-0.666,-1.34,0.795,-136.727,-3.57,35.315,
41306770,-1.133,0.434,1.533,-75.792,22.47,-17.027,
41306780,-0.041,-0.716,0.943,-153.107,13.807,-67.567,
41306790,0.53,-0.436,1.061,-158.567,33.355,-98.735,
41306800,0.309,-0.601,0.941,-183.33,39.357,-65.467,
41306810,0.31,-0.4,0.985,-187.057,49.892,-45.64,
41306820,0.346,-0.489,0.928,-200.62,50.697,-27.09,
41306830,0.362,-0.51,0.906,-207.882,57.61,-6.125,
41306840,-0.123,-0.398,1.012,-211.26,54.617,0.367,
41306850,-0.122,-0.543,0.835,-250.88,46.077,-17.027,
41306860,-0.356,-0.66,0.943,-300.37,38.762,-43.855,
41306870,-0.7,-0.662,0.964,-308.017,21.892,-77.56,
41306880,-0.355,-1.273,0.859,-329.98,5.88,-103.792,
41306890,-0.449,-1.622,0.792,-315.875,21.507,-93.222,
41306900,0.221,-1.924,1.3,-285.512,8.715,-90.422,
41306910,-0.186,-1.872,1.232,-241.587,59.955,-80.08,
41306920,-1.347,-0.934,0.346,-125.545,77.577,-104.177,
41306930,-0.974,-0.827,0.591,-90.72,16.555,-136.99,
41306940,-0.569,-1.048,0.44,-96.967,-28.735,-142.712,
41306950,-0.573,-1.114,0.782,-26.687,-21.945,-126.122,
41306960,-1.689,-0.856,0.901,95.777,-10.605,-135.38,
41306970,-1.983,-0.351,0.532,185.867,-19.757,-135.065,
41306980,-1.489,0.34,-0.198,261.485,24.972,-57.12,
41306990,-0.983,1.051,-0.349,307.177,99.785,47.6,
41307000,-0.81,1.352,-0.351,263.375,148.172,112.157,
41307010,-0.604,0.992,-0.061,162.82,165.987,149.17,
41307010,-0.289,0.231,0.466,81.182,148.837,148.75,
41307030,0.324,-0.372,0.375,57.295,123.392,123.952,
41307030,0.937,-0.118,-0.119,77.035,128.45,98.28,
41307050,0.727,0.284,-0.302,92.89,135.257,66.605,
41307050,0.3,0.263,-0.251,70.56,116.095,20.93,
41307070,0.291,0.232,-0.343,32.322,90.142,-7.157,
41307070,0.138,0.472,-0.454,24.307,88.602,-1.767,
41307080,-1.064,-1.091,-0.403,24.517,35.735,-63.402,
41307090,1.966,-1.998,-0.03,-113.085,-105.892,-287.507,
41307100,-1.911,-0.705,0.54,334.355,68.81,-91.84,
41307110,-0.058,1.997,1.36,568.54,101.22,-245.227,
41307120,1.054,-0.587,0.886,204.435,-29.767,-11.217,
41307130,0.204,-1.09,0.479,125.702,-58.975,96.215,
41307140,-1.485,1.972,1.998,360.552,-15.785,3.237,
41307150,0.737,0.101,1.073,36.26,-47.407,32.655,
41307160,-1.12,-0.156,1.382,-59.587,4.69,37.625,
41307170,-0.391,0.205,1.516,-71.872,14.56,-59.675,
41307180,0.685,-0.608,1.02,-157.937,1.697,-52.342,
41307190,0.472,-0.495,1.019,-173.705,7.42,-19.337,
41307200,0.2,-0.373,1.036,-196.315,16.73,4.725,
41307210,0.186,-0.385,1.048,-217.035,28.21,16.887,
41307220,0.118,-0.488,0.894,-227.412,32.9,19.127,
41307230,0.045,-0.399,0.872,-233.187,33.915,24.15,
41307240,0.002,-0.583,0.956,-263.952,27.16,14.315,
41307250,0.036,-0.687,0.916,-289.887,24.395,5.967,
41307260,0.382,-1.024,0.875,-310.852,47.232,14.21,
41307270,0.165,-1.43,1.067,-331.1,125.86,66.727,
41307280,0.524,-1.99,0.661,-361.952,231.525,100.835,
41307290,0.37,-1.998,1.168,-317.94,220.92,46.462,
41307300,-0.619,-1.998,0.923,-218.96,102.602,-65.187,
41307310,0.513,-1.998,0.68,-74.707,18.497,-115.92,
41307320,0.147,-1.981,0.091,94.675,-38.377,-125.282,
41307330,-0.9,-1.314,-0.242,249.41,-82.232,-182.56,
41307330,-1.316,-0.367,-0.551,323.872,-130.165,-191.152,
41307350,-1.108,0.182,-0.903,312.445,-149.52,-119.402,
41307350,-0.753,0.548,-1.344,270.305,-124.127,3.71,
41307370,-0.496,0.821,-1.232,210.682,-82.372,112.542,
41307370,-0.642,0.773,-0.705,112.49,-81.41,177.327,
41307390,-0.873,0.28,-0.279,-3.727,-129.08,218.207,
41307390,-0.665,-0.374,0.01,-87.92,-186.655,257.46,
41307410,0.187,-0.911,0.033,-104.23,-219.152,278.18,
41307410,1.131,-0.948,-0.15,-55.125,-200.06,277.865,
41307420,1.527,-0.447,-0.337,4.987,-147.56,261.537,
41307430,1.336,0.113,-0.283,13.457,-98.612,217.105,
41307440,0.971,0.165,0.09,-50.015,-76.632,145.127,
41307450,0.64,-0.308,0.327,-126.192,-82.04,67.06,
41307460,0.5,-0.533,0.287,-137.585,-80.937,11.497,
41307470,0.296,-0.23,0.116,-104.58,-69.825,-24.167,
41307480,0.513,0.031,-0.946,-105.455,-55.125,-80.78,
41307490,-1.123,-0.528,1.425,113.872,-43.487,-6.44,
41307500,-1.914,-1.824,1.998,85.61,32.707,94.937,
41307510,-1.695,-1.998,-1.181,178.972,-1.47,165.865,
41307520,1.798,0.224,0.743,496.09,-106.277,139.317,
41307530,-1.717,1.738,1.622,471.747,-9.222,10.85,
41307540,-0.859,-0.175,1.439,359.38,-84.892,-94.027,
41307550,1.039,-0.5,1.525,267.26,-39.06,-183.75,
41307560,-0.407,1.147,1.162,248.307,-8.242,-91.35,
41307570,0.414,-0.38,1.437,2.362,-44.59,18.042,
41307580,-0.111,0.564,1.797,-49.752,-15.61,-36.872,
41307590,-0.187,-0.514,1.078,-161.805,5.162,-45.307,
41307600,0.043,-0.814,0.574,-183.382,5.932,-39.497,
41307610,0.031,-0.95,0.573,-143.64,19.827,-46.305,
41307620,0.198,-0.655,0.838,-118.912,28.997,-45.675,
41307630,0.41,-0.503,0.93,-119.28,36.732,-34.632,
41307640,0.439,-0.53,0.909,-129.08,41.58,-11.83,
41307650,0.345,-0.562,0.871,-139.825,46.62,6.282,
41307660,0.356,-0.554,0.843,-157.43,62.037,13.965,
41307670,0.084,-0.465,0.995,-182.332,82.6,13.457,
41307680,-0.298,-0.558,1.119,-213.745,84.7,-2.345,
41307690,-0.241,-0.866,1.375,-247.817,73.272,-19.74,
41307700,0.191,-1.499,1.206,-272.282,100.397,-4.182,
41307710,-0.429,-1.948,0.956,-261.765,163.012,42.455,
41307720,-0.178,-1.998,1.186,-227.412,140.752,43.995,
41307730,1.871,-1.998,0.679,-142.957,3.797,-89.88,
41307740,1.938,-1.902,0.106,85.487,17.517,-147.507,
41307750,0.014,-0.946,-0.458,251.895,-2.677,-231.017,
41307760,-1.615,-0.358,-0.828,241.867,-111.37,-298.182,
41307760,-1.569,0.151,-1.508,180.25,-172.602,-244.895,
41307780,-0.634,0.616,-1.223,122.15,-136.43,-121.502,
41307780,-0.205,0.352,-0.356,-17.605,-110.425,-11.725,
41307800,-0.811,-0.57,-0.003,-141.575,-126.245,57.942,
41307800,-1.024,-0.865,0.275,-138.267,-159.67,93.065,
41307820,-0.558,-0.448,0.349,-88.322,-204.89,118.947,
41307820,-0.087,-0.132,0.221,-78.155,-236.81,156.17,
41307830,0.086,-0.137,0.143,-95.532,-241.867,188.282,
41307840,0.069,-0.111,0.129,-107.94,-236.722,196.822,
41307850,0.18,0.135,0.207,-76.79,-216.177,198.607,
41307860,0.553,0.778,0.301,-42.857,-177.24,185.832,
41307870,0.833,1.399,0.39,-46.97,-126.682,158.077,
41307880,0.889,1.617,0.49,-77.682,-62.93,112.7,
41307890,0.311,1.41,-1.136,-95.62,-32.095,11.375,
41307900,-1.862,0.881,1.395,51.362,-328.72,-120.365,
41307910,1.791,-1.998,1.536,2.695,-29.277,204.155,
41307920,1.571,-1.183,-1.89,371.122,176.522,361.042,
41307930,0.344,1.997,1.402,376.04,125.562,175.7,
41307940,-1.998,-0.897,-0.188,295.347,190.697,188.912,
41307950,-1.923,-1.416,0.675,255.132,36.435,184.135,
41307960,-1.559,1.541,1.862,419.422,-50.137,73.622,
41307970,-1.702,-0.055,1.695,238.297,-91.315,-90.545,
41307980,0.104,-0.443,1.458,140.647,-56.437,-198.047,
41307990,0.422,0.246,1.719,79.012,14.07,-232.89,
41308000,0.747,0.057,1.504,-42.56,41.667,-201.145,
41308010,0.872,-0.566,1.099,-114.485,35.892,-131.967,
41308020,0.662,-0.114,1.008,-97.772,18.935,-55.44,
41308030,0.539,-0.352,0.775,-115.517,-0.455,-0.647,
41308040,0.253,-0.712,0.709,-131.897,1.417,33.915,
41308050,0.06,-0.72,0.767,-126.367,14.315,43.032,
41308060,-0.004,-0.664,0.753,-126.297,26.897,36.12,
41308070,-0.006,-0.745,0.667,-139.335,39.182,24.412,
41308080,-0.03,-0.805,0.606,-154.892,58.1,9.887,
41308080,-0.138,-0.776,0.669,-164.99,78.942,-0.367,
41308100,-0.07,-0.693,0.797,-180.722,97.405,-4.532,
41308100,0.107,-0.726,0.729,-202.982,108.132,-4.06,
41308120,0.521,-0.985,0.638,-219.607,143.5,26.967,
41308120,0.578,-1.228,0.53,-222.792,219.747,89.897,
41308140,0.403,-1.753,0.58,-221.812,297.745,136.027,
41308140,-0.022,-1.358,0.672,-191.502,342.475,134.89,
41308160,-0.684,-1.494,0.98,-163.38,328.615,110.757,
41308160,-0.381,-1.585,0.797,-100.117,246.015,72.45,
41308170,1.041,-1.759,0.851,2.502,189.227,33.145,
41308180,1.111,-1.998,0.654,146.685,138.18,-58.082,
41308190,0.352,-1.753,0.37,283.43,101.92,-125.335,
41308200,-0.18,-1.292,-0.016,357.245,62.212,-165.095,
41308210,-0.195,-0.891,-0.295,384.265,7.42,-189.49,
41308220,-0.171,-0.516,-0.685,375.112,-78.557,-228.06,
41308230,-0.458,-0.204,-1.197,345.275,-194.915,-277.9,
41308240,-0.526,0.208,-0.913,293.457,-284.725,-311.36,
41308250,-0.228,0.399,-0.94,197.155,-305.62,-309.347,
41308260,-0.111,0.368,-1.349,109.445,-252.367,-240.275,
41308270,-0.382,0.539,-1.277,62.475,-139.142,-123.952,
41308280,-1.171,0.6,-0.728,-6.772,-47.372,2.1,
41308290,-1.651,0.421,-0.414,-114.205,-22.015,109.375,
41308300,0.229,-1.038,0.716,-200.077,-27.702,186.305,
41308310,0.994,-1.988,1.834,-46.095,119.367,270.27,
41308320,-1.963,-1.727,1.998,278.547,53.917,278.425,
41308330,-1.052,-1.998,-0.229,177.345,-73.552,152.635,
41308340,0.488,-1.237,0.706,278.915,40.442,186.637,
41308350,-1.917,0.774,1.312,370.422,40.337,34.492,
41308360,-1.466,0.377,1.312,306.162,-21.402,-113.207,
41308370,-0.247,-1.018,1.186,162.785,10.115,-204.767,
41308380,-0.263,0.153,1.708,158.252,43.522,-284.935,
41308390,0.855,0.797,1.896,79.275,55.177,-255.99,
41308400,0.993,-0.008,1.556,-37.73,57.382,-172.777,
41308410,0.758,-0.088,1.35,-93.695,49.525,-89.057,
41308420,0.525,-0.16,1.188,-134.225,34.44,-18.427,
41308430,0.343,-0.468,1.006,-168.787,26.32,26.302,
41308440,0.109,-0.671,0.948,-175.087,37.782,39.112,
41308450,-0.044,-0.478,0.96,-174.195,53.882,38.482,
41308460,-0.024,-0.537,0.878,-196.21,73.517,28.735,
41308470,-0.095,-0.543,0.821,-216.527,96.267,18.602,
41308480,-0.282,-0.667,0.644,-241.745,123.217,4.795,
41308490,-0.394,-0.864,0.786,-263.497,114.187,-10.5,
41308500,0.021,-0.915,0.581,-274.365,116.935,-16.415,
41308510,0.426,-1.409,0.556,-300.702,155.225,21.647,
41308510,0.563,-1.979,0.478,-295.487,224,80.395,
41308530,0.457,-1.713,0.431,-227.727,278.25,81.55,
41308530,-0.405,-1.461,0.332,-160.037,288.925,47.687,
41308550,-0.525,-1.572,0.362,-78.05,230.09,0.962,
41308550,0.57,-1.749,0.435,-19.232,172.76,4.462,
41308570,0.128,-1.821,0.162,90.247,118.79,-1.575,
41308570,-0.267,-1.656,-0.002,190.382,59.482,-63.857,
41308580,-0.793,-1.233,-0.121,249.41,-41.51,-125.842,
41308590,-1.193,-0.732,-0.347,285.215,-149.082,-162.662,
41308600,-1.213,-0.282,-0.552,298.585,-247.817,-181.93,
41308610,-0.871,0.224,-0.536,274.907,-324.257,-176.435,
41308620,-0.741,0.415,-0.642,219.432,-367.78,-146.09,
41308630,-0.86,0.418,-0.755,159.582,-391.58,-92.89,
41308640,-0.564,0.602,-0.832,99.662,-390.88,-8.54,
41308650,-0.097,0.725,-0.881,23.135,-347.287,119.402,
41308660,0.256,0.844,-0.815,-79.537,-258.93,249.392,
41308670,-0.28,0.504,-0.699,-157.762,-200.602,354.865,
41308680,0.185,0.268,-0.438,-193.357,-211.26,359.852,
41308690,1.541,0.293,-0.299,-210.227,-245.42,269.657,
41308700,1.998,-1.812,1.944,-121.957,-103.722,142.012,
41308710,-0.453,-1.998,0.975,187.845,251.965,116.917,
41308720,-0.958,-1.376,-1.997,311.097,-152.442,76.055,
41308730,1.497,1.949,1.173,390.67,154,126.682,
41308740,-1.866,0.237,1.257,350.665,66.412,68.127,
41308750,-1.358,-1.058,0.967,272.615,-20.475,-60.917,
41308760,0.332,0.097,1.643,264.932,7.63,-62.877,
41308770,-0.815,0.247,1.944,194.355,7.21,-154.192,
41308780,0.476,0.351,1.897,68.092,21.787,-155.487,
41308790,0.481,0.014,1.724,-43.382,35.647,-125.895,
41308800,0.473,-0.124,1.42,-126.157,39.847,-86.222,
41308810,0.308,-0.48,1.109,-175.927,36.225,-46.637,
41308820,0.178,-0.68,0.933,-181.212,39.9,-26.442,
41308830,-0.047,-0.406,0.963,-181.755,39.077,-16.432,
41308830,-0.083,-0.624,0.788,-215.057,33.162,-30.625,
41308850,-0.29,-0.767,0.7,-237.195,28.21,-51.94,
41308850,-0.388,-0.74,0.757,-247.362,18.147,-76.825,
41308870,-0.27,-0.805,0.662,-253.75,10.027,-99.767,
41308870,0.105,-0.968,0.611,-259.472,25.707,-101.36,
41308890,0.165,-1.21,0.605,-261.94,57.732,-78.137,
41308890,0.08,-1.294,0.559,-241.675,108.902,-43.12,
41308910,0.01,-1.407,0.535,-214.427,142.747,-13.86,
41308910,-0.124,-1.141,0.425,-177.537,144.235,-18.55,
41308920,-0.341,-0.918,0.466,-122.832,107.327,-45.937,
41308930,-0.61,-0.977,0.486,-83.055,55.405,-47.897,
41308940,-0.603,-0.831,0.406,-37.222,-19.04,-71.89,
41308950,-0.604,-0.649,0.374,4.655,-86.082,-96.127,
41308960,-0.098,-0.791,0.538,46.655,-127.697,-87.465,
41308970,0.021,-0.885,0.72,92.767,-117.512,-59.167,
41308980,-0.695,-0.933,0.725,177.1,-134.68,-67.48,
41308990,-0.956,-0.593,0.516,254.94,-169.487,-91.787,
41309000,-0.791,-0.116,0.015,308.14,-183.54,-72.782,
41309010,-0.703,0.427,-0.518,332.587,-167.545,-8.96,
41309020,-0.78,1.071,-0.867,330.785,-139.3,69.72,
41309030,-0.798,1.682,-1.027,292.792,-114.362,151.497,
41309040,-0.668,1.901,-0.826,187.81,-114.975,232.82,
41309050,-0.156,1.359,-0.783,32.2,-121.222,310.677,
41309060,0.013,0.142,-0.078,-69.842,-132.002,314.86,
41309070,1.998,-1.998,0.986,-183.68,153.265,290.937,
41309080,-1.815,-1.767,-0.74,207.147,39.112,258.107,
41309090,1.123,1.977,0.593,530.722,87.255,-149.082,
41309100,-1.691,1.659,1.693,302.907,141.417,61.705,
41309110,-0.353,-1.882,0.284,-18.007,-52.762,133.507,
41309120,-0.022,-0.31,1.052,282.012,11.007,54.985,
41309130,-1.774,1.717,1.998,338.712,23.695,-25.602,
41309140,-0.212,-0.844,1.391,65.905,-30.502,-44.992,
41309150,0.24,0.414,1.839,36.82,-10.867,-102.83,
41309160,0.318,0.151,1.701,-85.592,16.59,-96.18,
41309170,0.421,-0.476,1.283,-181.457,19.722,-59.937,
41309180,0.131,-0.103,1.266,-199.272,14.927,-26.967,
41309190,0.17,-0.526,1.003,-237.615,3.482,-5.652,
41309200,0.046,-0.772,0.869,-240.887,0.56,-2.957,
41309210,-0.254,-0.371,1.038,-215.425,-3.132,-5.355,
41309220,-0.213,-0.512,0.731,-256.025,-17.272,-29.627,
41309230,-0.1,-1.063,0.763,-297.237,-21.945,-56.28,
41309240,0.005,-1.022,0.712,-299.477,-9.047,-74.287,
41309250,0.536,-0.903,0.756,-298.305,38.517,-70.892,
41309250,0.462,-1.718,0.766,-324.205,139.265,-9.975,
41309260,0.831,-1.963,0.898,-285.652,174.02,11.392,
41309270,0.036,-1.229,0.426,-233.537,251.685,-24.71,
41309280,0.088,-1.208,0.601,-177.432,239.977,-93.38,
41309290,0.513,-1.909,0.266,-146.527,200.095,-101.692,
41309300,0.449,-1.773,0.092,-6.055,170.257,-137.445,
41309310,-0.768,-1.346,-0.007,134.575,121.222,-229.407,
41309320,-1.377,-0.793,-0.13,212.94,77.28,-264.722,
41309330,-1.511,-0.336,-0.279,257.162,34.107,-225.995,
41309340,-1.192,0.002,-0.671,276.972,6.405,-150.535,
41309350,-0.849,0.417,-1.291,276.99,-4.655,-54.005,
41309360,-0.642,0.922,-1.41,248.027,8.207,31.185,
41309370,-0.679,1.135,-0.915,162.592,-0.262,94.167,
41309380,-1.032,0.851,-0.474,-1.89,-50.907,155.347,
41309390,-1.138,0.112,-0.087,-167.877,-106.82,232.347,
41309400,-0.804,-0.882,0.215,-241.972,-160.09,288.155,
41309410,-0.411,-1.182,0.231,-241.097,-212.362,281.96,
41309420,-0.489,-1.248,0.355,-138.897,-262.902,274.47,
41309430,-0.32,-0.925,0.334,-21.7,-305.795,266.332,
41309440,0.08,-0.657,-0.39,38.762,-328.79,241.29,
41309450,1.583,-0.33,0.676,64.907,-302.732,172.62,
41309460,1.998,-1.954,1.367,-40.705,-47.635,25.585,
41309470,-0.864,-1.998,-0.655,119.052,85.347,-117.915,
41309480,-1.794,0.5,-1.294,421.977,-31.815,-151.025,
41309490,0.445,1.611,1.897,333.147,238.455,-43.942,
41309500,0.749,-1.654,0.003,230.037,81.34,-2.87,
41309510,-0.374,-1.166,1.032,251.527,49.63,-46.235,
41309520,-0.316,1.058,1.957,326.882,44.835,-37.222,
41309530,0.176,0.063,1.866,201.985,6.825,-13.37,
41309540,-0.193,-0.337,1.626,103.95,-12.967,-3.22,
41309550,-0.305,0.089,1.767,50.96,-9.73,-4.637,
41309560,-0.103,-0.371,1.335,-46.025,-14.245,-12.302,
41309570,0.086,-0.446,1.04,-89.635,-9.922,-22.592,
41309580,0.238,-0.587,0.838,-111.335,1.382,-21.805,
41309580,0.332,-0.662,0.867,-111.352,13.947,-15.365,
41309600,0.34,-0.411,0.972,-107.502,24.342,1.032,
41309600,0.324,-0.553,0.918,-126.997,28.682,14.945,
41309620,0.13,-0.626,0.868,-140.49,39.095,21.157,
41309620,-0.046,-0.638,0.836,-161.035,45.675,5.827,
41309640,-0.326,-0.601,0.613,-195.79,48.772,-21.84,
41309640,-0.044,-0.993,0.632,-249.13,69.86,-36.085,
41309660,0.303,-1.145,0.634,-272.212,98.07,-60.375,
41309660,0.403,-0.864,0.503,-240.415,109.2,-81.69,
41309670,0.527,-1.121,0.479,-264.74,217.875,-43.242,
41309680,0.188,-1.495,0.52,-280.087,326.497,22.732,
41309690,0.387,-1.902,0.863,-280.945,324.117,16.695,
41309700,-0.286,-1.655,1.278,-231.735,251.317,-2.065,
41309710,0.255,-1.598,0.866,-118.37,197.977,-5.145,
41309720,0.949,-1.728,0.876,-38.605,124.932,-25.602,
41309730,0.033,-1.987,0.257,57.785,23.205,-152.565,
41309740,-0.331,-1.315,0.055,225.925,-36.225,-231.525,
41309750,-0.518,-0.63,-0.065,309.365,-65.712,-240.835,
41309760,-0.878,-0.379,-0.372,331.8,-71.802,-209.055,
41309770,-1.264,-0.204,-0.876,336.84,-95.69,-176.242,
41309780,-1.011,0.264,-1.245,336.087,-100.695,-136.045,
41309790,-0.643,0.685,-1.382,304.097,-73.902,-53.13,
41309800,-0.934,0.752,-0.786,220.08,-64.365,48.475,
41309810,-1.495,0.331,-0.302,83.58,-117.652,122.29,
41309820,-1.687,-0.25,-0.155,-21.42,-206.132,197.767,
41309830,-1.069,-0.663,-0.274,-69.65,-279.982,278.635,
41309840,-0.044,-0.706,-0.458,-76.055,-308.332,331.432,
41309850,0.529,-0.739,-0.823,-46.655,-296.152,364.717,
41309860,1.181,-0.521,-0.743,12.582,-221.9,367.972,
41309870,1.506,-0.358,-0.074,-37.835,-165.13,281.995,
41309880,1.998,-1.98,1.998,-121.677,-12.635,159.897,
41309890,-0.721,-1.998,0.464,197.032,161.682,52.377,
41309900,-1.991,-0.632,-1.804,430.85,-154.822,-103.425,
41309910,1.084,-0.2,1.753,260.137,111.282,29.295,
41309920,1.194,-1.291,-0.043,240.275,18.445,-1.522,
41309920,-1.813,-0.085,1.326,332.57,24.675,-118.737,
41309940,0.291,0.373,1.718,270.147,19.215,-111.492,
41309940,0.055,-0.141,1.701,182.805,2.485,-120.295,
41309960,0.4,0.512,1.872,124.425,-0.14,-105.385,
41309960,0.455,-0.038,1.511,13.37,-5.915,-54.81,
41309980,0.267,-0.155,1.279,-50.277,-2.555,-14.56,
41309980,0.037,-0.472,1.014,-91.42,-3.01,10.01,
41310000,-0.066,-0.585,0.903,-104.265,-2.992,13.632,
41310000,-0.069,-0.524,0.958,-106.12,-1.645,6.877,
41310010,-0.045,-0.494,1.006,-116.165,3.045,-0.805,
41310020,0.059,-0.525,0.996,-131.862,8.207,-8.225,
41310030,0.167,-0.674,0.951,-146.072,24.797,-12.162,
41310040,-0.026,-0.799,0.79,-151.777,52.902,-14.245,
41310050,-0.085,-0.512,0.785,-155.715,67.287,-29.925,
41310060,-0.184,-0.531,0.907,-193.865,83.125,-47.495,
41310070,-0.201,-0.752,0.784,-224.735,86.712,-71.33,
41310080,0.121,-0.946,0.67,-244.3,94.867,-97.44,
41310090,0.295,-1.066,0.816,-253.19,123.9,-105.07,
41310100,0.421,-1.021,0.672,-239.54,172.69,-90.177,
41310110,0.296,-1.033,0.624,-224.91,239.68,-49.437,
41310120,0.134,-1.202,0.549,-207.217,262.64,-26.547,
41310130,-0.369,-1.06,0.747,-183.715,237.492,-12.95,
41310140,0.119,-1.006,0.628,-141.365,178.22,-23.03,
41310150,0.949,-1.359,0.356,-99.645,137.567,-12.04,
41310160,1.853,-1.219,0.251,-36.505,154.42,8.207,
41310170,0.809,-1.175,0.238,71.977,158.077,-40.32,
41310180,-0.09,-0.908,0.359,143.272,124.67,-101.08,
41310190,-0.345,-0.715,0.275,185.937,73.307,-100.467,
41310200,-0.305,-0.537,0.048,214.812,21.35,-71.172,
41310210,-0.129,-0.385,-0.019,220.78,-22.295,-54.197,
41310220,0.028,-0.336,-0.158,208.985,-60.952,-57.627,
41310230,0.026,-0.294,-0.342,202.16,-81.427,-58.135,
41310240,0.06,-0.158,-0.496,195.265,-80.972,-45.272,
41310250,0.141,0.045,-0.643,171.027,-76.457,-32.497,
41310260,-0.029,0.201,-0.752,130.917,-76.632,-19.932,
41310270,-0.433,0.322,-0.932,74.112,-96.162,-7.805,
41310280,-0.734,0.562,-1.049,0.017,-147.665,0.35,
41310290,-0.249,0.498,-0.745,-101.885,-216.265,12.355,
41310300,1.542,-1.851,1.834,-124.337,-15.435,130.795,
41310310,-1.998,-1.88,-0.676,217.91,33.285,295.802,
41310320,0.966,0.581,-0.7,458.045,-280.297,95.165,
41310330,-0.487,-1.99,0.542,177.607,36.312,194.232,
41310330,-1.998,0.81,1.095,415.065,-11.585,10.937,
41310350,-1.034,0.716,1.899,417.812,-22.697,-136.395,
41310350,0.266,-0.592,1.822,236.092,-78.942,-144.777,
41310370,1.388,1.561,1.981,197.697,-64.085,-119.105,
41310370,0.709,0.476,1.51,-1.19,-30.502,-17.185,
41310390,-0.182,-0.439,1.157,-100.852,-12.652,36.015,
41310390,-0.056,-0.492,1.107,-117.442,-10.937,28.595,
41310410,-0.27,-0.565,1.154,-131.95,2.187,-2.835,
41310410,-0.105,-0.484,1.311,-151.602,9.852,-23.765,
41310420,-0.112,-0.314,1.343,-183.557,13.562,-35.665,
41310430,0.037,-0.402,1.125,-218.522,14.297,-37.607,
41310440,0.279,-0.549,1.029,-246.82,23.047,-24.36,
41310450,0.2,-0.672,0.906,-254.327,35.42,-19.53,
41310460,-0.06,-0.658,1.032,-254.152,35.962,-43.12,
41310470,-0.252,-1.009,1.063,-289.555,21.892,-66.64,
41310480,0.349,-0.872,0.843,-288.102,22.085,-58.117,
41310490,0.498,-0.766,0.948,-290.692,94.99,-11.585,
41310500,-0.052,-1.761,0.978,-310.415,112.56,14.49,
41310510,0.562,-1.998,0.912,-278.827,-8.032,-38.71,
41310520,0.752,-1.97,-0.197,-140.14,-95.357,-99.522,
41310530,0.409,-1.324,0.081,40.565,-114.065,-149.467,
41310540,-0.838,-0.939,0.087,119.612,-116.987,-195.65,
41310550,-1.715,-0.595,-0.159,148.872,-135.922,-196.682,
41310560,-1.666,-0.299,-0.343,173.32,-146.685,-144.34,
41310570,-1.275,-0.256,-0.459,179.637,-126.665,-49.315,
41310580,-0.961,-0.311,-0.531,165.007,-97.842,46.322,
41310590,-0.953,-0.258,-0.769,152.862,-70.665,118.825,
41310600,-0.983,-0.052,-0.825,160.125,-40.04,173.425,
41310610,-0.888,0.189,-0.506,139.877,-28.945,226.117,
41310620,-0.761,0.195,-0.222,59.5,-35.875,282.38,
41310630,-0.651,-0.224,-0.067,-33.67,-44.607,331.03,
41310640,-0.535,-0.72,0.003,-81.83,-46.077,357.035,
41310650,-0.382,-0.842,0.05,-69.195,-47.74,354.672,
41310660,-0.06,-0.524,0.027,-40.127,-36.067,333.76,
41310670,0.494,-0.189,0.045,-18.935,5.022,308.595,
41310670,0.865,-0.251,0.043,-28.262,71.05,241.01,
41310690,1.998,-1.97,1.561,-25.392,126.507,48.527,
41310690,1.959,-1.998,1.966,171.71,69.352,-282.467,
41310710,-1.621,-1.997,-1.785,356.58,-55.247,-419.597,
41310710,-0.265,1.401,0.436,505.382,119.017,-326.865,
41310730,0.907,1.544,1.133,417.217,156.205,-218.995,
41310730,0.562,-1.521,1.725,165.06,-5.582,-129.99,
41310750,1.225,0.228,1.477,212.52,-9.31,-58.135,
41310750,0.067,0.747,1.931,137.602,10.587,7.647,
41310760,-0.107,-0.235,1.563,-28.822,-3.167,63.437,
41310770,-0.501,-0.067,1.542,-74.515,-11.06,61.652,
41310780,-0.355,-0.503,1.077,-131.705,-21.525,40.6,
41310790,-0.231,-0.803,0.772,-136.99,-18.847,12.792,
41310800,0.056,-0.725,0.81,-117.617,-10.815,-13.317,
41310810,0.19,-0.53,0.923,-106.592,-0.875,-22.4,
41310820,0.325,-0.382,0.952,-109.97,7.752,-15.032,
41310830,0.283,-0.458,0.927,-125.317,16.625,2.537,
41310840,0.104,-0.653,0.884,-133.262,20.177,13.072,
41310850,-0.017,-0.67,0.868,-140.122,27.72,7.595,
41310860,-0.001,-0.668,0.449,-170.8,29.592,-14.84,
41310870,0.236,-1.294,0.477,-203.84,66.22,-20.09,
41310880,0.193,-1.588,0.882,-214.865,106.75,-40.425,
41310890,0.132,-0.919,0.92,-161.455,162.61,-70.052,
41310900,-0.255,-1.127,0.613,-159.057,211.627,-85.382,
41310910,0.077,-1.895,1.025,-178.482,201.95,-102.952,
41310920,0.315,-1.973,0.773,-145.337,159.53,-131.127,
41310930,1.189,-1.838,0.325,-13.982,167.3,-137.777,
41310940,0.189,-1.024,0.069,149.502,151.007,-131.722,
41310950,-1.094,-0.619,0.094,207.147,67.007,-187.722,
41310960,-1.908,-0.437,0.276,223.877,-46.672,-181.422,
41310970,-1.998,-0.53,-0.008,236.81,-192.255,-124.985,
41310980,-1.857,-0.174,-0.765,244.405,-277.515,-35.122,
41310990,-1.039,0.417,-0.766,251.79,-281.242,139.842,
41311000,-1.063,0.537,-0.805,192.57,-277.987,296.17,
41311010,-1.068,0.641,-0.943,109.742,-278.705,416.325,
41311020,-0.42,0.266,-0.889,17.552,-241.745,536.357,
41311030,0.237,-0.511,-0.747,-62.177,-201.67,573.125,
41311040,1.263,-0.955,-0.626,-88.287,-137.042,573.37,
41311050,1.993,-0.729,0.025,-92.05,-56.262,571.62,
41311060,1.981,-0.473,0.631,-158.165,-48.877,498.557,
41311070,1.277,-1.793,1.229,-259.892,-132.422,205.327,
41311080,0.785,-1.998,-0.499,55.93,-86.362,26.145,
41311080,-1.998,0.401,-0.671,547.19,5.53,128.8,
41311100,0.617,0.905,1.103,359.327,-212.677,16.73,
41311100,-0.219,-1.929,0.59,182.542,-219.87,-34.755,
41311120,-1.216,1.4,1.954,468.79,-174.125,-188.772,
41311120,1.828,0.226,1.448,223.825,-175.647,-187.005,
41311140,1.577,1.702,1.406,111.895,-69.177,-101.71,
41311140,0.655,-0.232,1.082,-39.392,7.332,17.64,
41311160,-0.498,-0.244,1.155,-79.17,39.62,33.705,
41311160,-0.142,-0.778,0.763,-94.167,31.36,8.505,
41311170,-0.413,-0.618,1.015,-71.977,48.562,-38.377,
41311180,-0.071,-0.442,1.129,-88.76,64.697,-70.665,
41311190,0.035,-0.199,1.202,-111.72,87.045,-88.83,
41311200,0.22,-0.394,1.084,-145.18,105.682,-85.802,
41311210,0.224,-0.438,1.023,-158.322,113.382,-69.737,
41311220,0.233,-0.483,0.941,-165.41,116.48,-50.802,
41311230,0.246,-0.436,0.948,-172.2,124.845,-37.887,
41311240,0.06,-0.317,0.92,-189.875,136.36,-31.202,
41311250,-0.202,-0.539,0.887,-217.962,140.49,-32.69,
41311260,-0.435,-0.647,0.93,-225.995,126.787,-40.285,
41311270,-0.145,-0.775,1.125,-243.845,113.452,-52.045,
41311280,-0.148,-1.143,1.463,-266.612,123.777,-55.632,
41311290,-0.209,-1.847,1.262,-244.492,130.41,-37.52,
41311300,0.641,-1.998,1.905,-200.252,104.055,-14.822,
41311310,1.537,-1.997,0.933,-61.18,58.345,-95.13,
41311320,-1.597,-0.905,0.012,177.8,-151.13,-240.992,
41311330,-1.971,0.712,0.346,261.152,-229.285,-347.97,
41311340,-1.881,1.05,-0.059,183.225,-219.065,-247.572,
41311350,-1.552,0.984,0.02,112.77,-181.387,-63.332,
41311360,-1.116,0.873,0.127,91.402,-131.022,107.607,
41311370,-0.908,0.72,0.14,85.96,-107.292,224.525,
41311380,-0.174,0.43,-0.008,87.167,-75.88,279.002,
41311390,0.817,0.176,-0.158,93.555,-26.372,286.23,
41311400,1.454,0.094,0.052,84.472,34.947,245.332,
41311410,1.205,-0.153,0.27,54.057,61.915,169.68,
41311420,0.804,-0.492,0.441,10.972,51.712,82.495,
41311420,0.816,-0.899,0.249,-18.987,25.707,0.175,
41311440,0.919,-0.955,-0.198,-14.122,12.845,-66.027,
41311440,0.679,-0.826,-0.517,73.185,28.7,-86.012,
41311460,1.36,-0.632,-0.788,98.192,84.227,-88.76,
41311460,-0.489,-1.996,0.822,-132.055,297.745,-9.852,
41311480,-1.38,-1.97,-1.601,128.572,-0.052,95.952,
41311480,-0.496,1.308,1.763,551.915,-89.985,12.985,
41311500,0.849,1.997,1.998,336.875,-103.145,9.152,
41311500,-0.672,0.436,1.469,105.682,-108.867,-58.537,
41311510,-0.609,-1.627,0.971,73.57,-107.187,-87.745,
41311520,0.709,0.472,1.51,107.31,-99.277,-84.91,
41311530,0.531,0.368,1.341,18.97,-52.675,-67.672,
41311540,0.164,-0.584,0.971,-55.842,-10.885,-56.787,
41311550,-0.003,-0.292,1.027,-59.412,13.23,-61.67,
41311560,-0.063,-0.516,0.904,-75.215,21.052,-65.17,
41311570,0.07,-0.655,0.75,-72.887,21,-61.565,
41311580,0.173,-0.619,0.742,-57.767,17.605,-49.682,
41311590,0.189,-0.5,0.829,-43.05,16.03,-34.475,
41311600,0.171,-0.515,0.832,-37.835,11.427,-14.98,
41311610,0.155,-0.46,0.905,-33.232,8.522,2.87,
41311620,0.105,-0.43,0.953,-38.307,11.077,14.945,
41311630,0.049,-0.449,0.965,-49.017,17.36,21.647,
41311640,-0.01,-0.456,0.998,-58.94,23.66,23.975,
41311650,-0.007,-0.462,1.019,-69.965,29.715,22.242,
41311660,-0.033,-0.464,1.041,-81.795,34.982,20.615,
41311670,0.037,-0.458,1.055,-93.695,38.937,20.09,
41311680,0.239,-0.464,1.125,-109.182,53.27,21.385,
41311690,0.435,-0.481,1.149,-124.39,90.002,25.025,
41311700,0.533,-0.498,1.428,-132.51,142.73,30.135,
41311710,0.429,-0.728,1.157,-147.245,198.485,56.122,
41311720,-0.513,-1.153,1.796,-133.402,205.415,97.195,
41311730,-0.519,-1.829,1.853,-41.02,190.137,121.432,
41311740,-1.995,-1.451,1.304,149.817,13.475,151.27,
41311750,-1.769,-0.288,0.502,217.875,-238.262,45.167,
41311760,0.332,0.657,-0.748,283.605,-216.422,97.86,
41311770,0.649,0.499,-1.018,232.19,-154.787,164.815,
41311780,-0.198,0.117,-0.285,92.207,-56.49,151.865,
41311790,-0.81,-0.461,-0.15,46.672,6.58,168.822,
41311800,0.027,-0.51,0.138,70.997,11.34,157.622,
41311810,1.02,-0.376,0.264,71.26,12.495,117.897,
41311820,1.087,-0.513,0.287,70.945,14.892,71.312,
41311830,0.805,-0.626,0.429,84.087,13.72,6.58,
41311830,0.603,-0.733,0.445,104.685,8.242,-53.707,
41311850,0.37,-0.767,0.241,130.287,-4.322,-94.36,
41311850,0.231,-0.665,-0.021,151.077,-12.39,-116.69,
41311870,0.111,-0.551,-0.295,152.127,-12.617,-120.592,
41311870,-0.075,-0.449,-0.428,134.96,-11.042,-113.365,
41311890,-0.186,-0.415,-0.383,103.565,-6.597,-96.302,
41311890,0.902,-0.264,0.187,78.557,51.537,-49.875,
41311900,-1.998,-0.952,1.998,-52.727,-213.377,-79.502,
41311910,0.341,-1.614,0.188,-283.447,-365.802,-348.005,
41311920,1.994,1.617,-1.633,228.847,-35.49,76.352,
41311930,0.375,1.997,1.341,341.81,-44.817,96.547,
41311940,-1.129,0.971,1.745,-152.845,-102.007,-64.085,
41311950,-0.182,-1.614,0.25,-288.697,-128.887,-5.232,
41311960,0.732,-1.969,0.335,-69.335,-112.91,20.842,
41311970,1.413,-0.176,1.071,110.407,-42.822,4.655,
41311980,0.711,1.16,0.982,80.22,7.315,-0.595,
41311990,-0.687,0.117,1.042,-49.542,7.035,-8.732,
41312000,-0.734,-1.085,0.857,-95.007,-16.905,-12.512,
41312010,0.381,-0.726,0.65,-14.262,-12.915,-7.437,
41312020,0.776,0.224,0.925,39.392,12.215,-3.955,
41312030,-0.369,0.128,0.987,-7.875,14.052,-9.502,
41312040,-0.954,-0.213,1.051,-48.895,-10.15,-16.187,
41312050,0.307,-0.462,0.991,-61.285,-28.245,-18.83,
41312060,0.286,-0.436,1.013,-45.325,-20.79,-19.477,
41312070,-0.281,-0.616,0.986,-44.87,-7.822,-19.425,
41312080,0.157,-0.475,0.923,-33.74,-6.405,-15.312,
41312090,0.296,-0.439,0.896,-28.595,2.415,-11.322,
41312100,0.085,-0.383,0.931,-26.407,16.327,-9.38,
41312110,0.156,-0.425,0.915,-26.967,22.645,-6.335,
41312120,0.156,-0.439,0.915,-26.757,29.907,-2.345,
41312130,0.069,-0.377,0.952,-25.147,35.122,0.98,
41312140,0.053,-0.352,0.975,-27.65,40.425,0.857,
41312150,0.033,-0.357,0.99,-34.125,44.17,-0.052,
41312160,0.058,-0.353,1.023,-42.612,50.68,0.787,
41312170,-0.062,-0.387,1.077,-53.742,57.872,1.435,
41312170,-0.199,-0.403,1.151,-67.602,65.205,-1.89,
41312190,-0.191,-0.493,1.09,-85.26,67.182,-9.415,
41312190,0.009,-0.579,1.151,-110.932,82.652,-13.037,
41312210,0.012,-0.581,1.2,-136.71,100.712,-18.83,
41312210,-0.002,-0.653,1.026,-141.452,98.84,-15.995,
41312230,-0.016,-0.683,0.962,-131.985,87.045,-9.782,
41312230,-0.012,-0.795,0.726,-128.152,79.275,9.59,
41312250,-0.021,-1.29,0.912,-122.01,74.865,36.907,
41312250,0.542,-1.99,1.604,-141.47,78.505,40.127,
41312260,0.155,-1.998,0.54,-121.047,-74.655,-23.432,
41312270,-0.209,-1.978,-0.144,57.96,-157.99,-73.167,
41312280,-0.489,-1.185,-0.598,197.347,-137.935,-27.23,
41312290,-0.326,-0.557,-1.059,187.302,-129.902,35,
41312300,0.004,-0.218,-1.231,106.435,-122.062,89.057,
41312310,0.331,-0.325,-0.956,14.157,-89.862,137.375,
41312320,0.392,-0.57,-0.542,-74.83,-56.822,163.117,
41312330,0.143,-0.776,-0.11,-136.395,-46.252,153.772,
41312340,0.068,-0.809,0.112,-156.205,-52.255,125.545,
41312350,0.339,-0.494,0.083,-155.067,-52.902,95.707,
41312360,0.549,0.097,0.029,-153.072,-40.775,66.517,
41312370,0.381,0.817,-0.226,-155.732,-27.177,37.817,
41312380,0.088,1.682,-0.507,-153.615,-27.685,3.972,
41312390,0.509,1.138,0.111,-161.927,-21.752,-79.555,
41312400,-0.94,-0.869,0.377,-5.74,262.972,64.347,
41312410,-1.386,0.488,0.243,476.665,-119.892,111.282,
41312420,-0.447,-1.875,0.516,262.92,-113.155,-7.437,
41312430,-0.727,0.746,1.69,425.075,-135.257,-38.43,
41312440,0.378,0.898,1.869,299.005,-128.082,-78.33,
41312450,1.643,0.681,1.409,33.705,-81.305,-48.405,
41312460,0.104,0.656,1.599,-51.135,1.312,-14.56,
41312470,-0.221,-0.772,0.824,-158.445,16.8,-4.742,
41312480,-0.064,-1.014,0.535,-115.237,19.127,-33.32,
41312490,0.027,-0.862,0.786,-80.92,24.71,-42.787,
41312500,0.107,-0.288,1.059,-66.412,36.645,-46.725,
41312510,0.305,-0.427,1.043,-93.835,48.842,-41.352,
41312520,0.332,-0.406,1.073,-109.427,64.802,-28.77,
41312530,0.285,-0.469,1.002,-122.832,73.36,-11.97,
41312540,0.264,-0.575,1.008,-133.63,86.642,4.602,
41312550,-0.042,-0.466,1.201,-142.747,99.277,9.695,
41312550,-0.279,-0.282,1.357,-168.735,103.057,0.577,
41312570,-0.505,-0.536,1.337,-202.597,90.195,-21.42,
41312570,-0.653,-1.059,1.215,-211.417,53.707,-40.757,
41312580,-0.541,-1.532,1.116,-195.772,18.83,-56.087,
41312590,1.307,-1.998,1.941,-188.177,68.18,-54.022,
41312600,1.998,-1.998,0.721,-86.065,83.492,-129.937,
41312610,1.161,-1.371,-1.06,135.52,-46.48,-373.275,
41312620,-1.644,-0.048,-0.611,273.472,17.377,-416.972,
41312630,-1.998,0.012,0.065,151.357,25.025,-318.097,
41312640,-1.989,-0.099,0.254,8.347,11.76,-133.805,
41312650,-0.879,-0.229,-0.005,2.957,-16.712,48.212,
41312660,-0.038,-0.087,0,21.945,-20.282,145.722,
41312670,-0.07,-0.144,0.068,41.3,-17.937,213.657,
41312680,0.321,-0.07,0.252,41.002,-22.26,184.537,
41312690,0.783,0.529,0.601,64.715,-43.68,139.475,
41312700,1.373,1.105,0.647,78.645,-44.187,143.01,
41312710,1.248,0.414,0.346,16.537,-22.452,136.167,
41312720,0.896,-0.379,-0.247,-23.555,-14.682,60.48,
41312730,0.543,-0.203,-0.455,34.702,0.787,-11.602,
41312740,0.31,0.392,-0.44,65.082,10.675,-56.735,
41312750,0.294,0.607,-0.657,12.145,2.292,-91.7,
41312760,0.243,0.55,-1.003,-64.54,6.545,-114.362,
41312770,0.361,-0.012,-0.168,-120.487,18.41,-136.062,
41312780,-0.064,-1.998,0.801,-195.842,261.45,-10.027,
41312790,-0.332,-1.693,-0.351,317.677,-74.147,172.865,
41312800,1.721,1.695,1.572,511.262,3.692,15.19,
41312810,-1.558,1.658,1.952,302.925,-9.17,94.307,
41312820,-0.094,-1.492,0.984,-14.7,-44.205,104.3,
41312830,-1.475,1.014,1.883,50.592,-6.002,19.372,
41312840,-0.661,-0.418,1.158,-68.495,-17.447,-75.442,
41312850,0.397,-0.345,0.836,-69.457,-20.685,-107.642,
41312860,0.536,-1.356,0.324,-71.067,-21.857,-80.307,
41312870,0.74,-0.416,0.864,-28.805,-11.007,-46.55,
41312880,0.3,-0.392,1.006,-42.35,10.272,-17.342,
41312890,0.12,-0.339,1.112,-62.825,23.45,1.522,
41312900,-0.143,-0.423,1.098,-86.502,33.407,4.06,
41312910,-0.134,-0.488,1.079,-108.57,38.902,-4.585,
41312920,0.056,-0.594,1.088,-128.537,55.72,-22.82,
41312920,0.011,-0.523,1.216,-150.027,80.64,-34.982,
41312940,0.106,-0.362,1.25,-189.49,106.05,-38.622,
41312940,0.154,-0.152,1.271,-234.43,125.685,-43.715,
41312960,-0.172,-0.117,1.073,-276.535,109.007,-60.025,
41312960,-0.434,-0.58,1.234,-327.302,67.97,-80.972,
41312980,-0.073,-1.449,1.476,-354.725,35.77,-71.172,
41312980,0.37,-1.946,1.886,-340.357,50.505,-21.052,
41313000,0.001,-1.998,1.998,-317.765,94.255,36.47,
41313000,1.798,-1.998,1.97,-240.572,38.027,10.902,
41313010,1.824,-1.897,0.373,99.925,97.195,-118.965,
41313020,-0.753,-0.421,-0.902,429.905,85.33,-250.442,
41313030,-1.814,0.434,-0.664,416.22,27.825,-348.092,
41313040,-0.943,0.425,-0.785,313.757,70.455,-291.095,
41313050,-0.311,0.435,-0.561,235.41,110.407,-156.327,
41313060,-0.548,0.311,-0.27,160.002,101.57,-87.71,
41313070,-1.085,-0.056,-0.275,116.497,78.277,-50.715,
41313080,-0.969,-0.222,-0.172,120.365,61.705,6.317,
41313090,-0.408,-0.16,-0.046,127.61,50.33,66.92,
41313100,-0.042,-0.135,-0.075,127.435,33.81,102.27,
41313110,0.013,-0.15,-0.106,130.69,17.43,119.507,
41313120,0.036,-0.125,-0.065,124.95,1.085,132.317,
41313130,0.1,-0.14,0.02,101.587,-27.265,138.932,
41313140,0.164,-0.24,0.058,68.425,-59.972,135.695,
41313150,0.135,-0.316,-0.034,44.117,-87.045,129.167,
41313160,0.11,-0.279,-0.044,39.427,-100.1,127.382,
41313170,0.15,-0.232,0.018,31.517,-101.185,130.305,
41313180,0.113,-0.253,0.026,10.762,-97.405,140.77,
41313190,0.026,-0.236,-0.094,-7.56,-102.13,150.22,
41313200,0.209,-0.089,-0.206,-17.78,-103.757,151.97,
41313210,0.519,0.096,-0.219,-36.47,-94.272,145.705,
41313220,0.57,0.217,-0.154,-62.422,-87.552,121.432,
41313230,0.391,0.472,-0.181,-62.37,-108.412,64.75,
41313240,1.458,0.378,0.124,-27.335,-67.252,0.035,
41313250,-1.13,-1.969,-0.258,-166.652,95.34,155.855,
41313260,-0.461,-0.61,0.681,450.292,-217.892,115.202,
41313260,-0.347,0.347,0.27,445.27,-219.24,-23.625,
41313280,1.003,1.997,0.673,378.035,-90.317,-127.75,
41313280,-0.73,0.034,1.341,-281.715,-113.085,-118.685,
41313300,1.396,-1.998,-0.528,-362.845,-95.707,16.485,
41313300,0.591,-1.017,0.648,41.23,-10.045,-28.157,
41313320,-0.391,0.466,1.242,70.997,2.275,-2.012,
41313320,-0.548,-0.275,1.092,-17.605,-17.885,9.082,
41313330,0.375,-0.511,0.818,-17.237,-27.247,-10.412,
41313340,0.212,-0.493,0.889,-12.687,-22.172,-4.777,
41313350,-0.075,-0.383,0.921,-4.095,-15.575,-4.655,
41313360,-0.133,-0.274,1.027,-0.822,-21.122,-4.69,
41313370,0.235,-0.396,0.896,-11.62,-25.515,-2.59,
41313380,0.202,-0.421,0.873,-15.295,-18.305,-2.66,
41313390,-0.003,-0.346,0.969,-13.842,-11.882,-0.98,
41313400,0.252,-0.34,0.918,-19.775,-9.782,-1.837,
41313410,0.153,-0.425,0.948,-29.907,-0.035,1.96,
41313420,0.155,-0.256,1.088,-37.275,7.98,0.525,
41313430,0.013,-0.361,1.212,-64.19,12.075,1.067,
41313440,0.045,-0.252,1.37,-97.51,9.012,-1.505,
41313450,0.164,-0.285,1.252,-143.815,12.53,-4.2,
41313460,0.117,-0.36,1.274,-181.037,22.277,2.222,
41313470,0.221,-0.163,1.196,-191.415,27.475,3.885,
41313480,0.088,-0.4,1.11,-226.905,35.42,11.742,
41313490,-0.03,-0.72,1.085,-249.305,25.515,0.087,
41313500,-0.04,-0.69,1.098,-238.105,0.402,-26.022,
41313510,-0.24,-0.681,0.93,-222.635,-30.45,-31.587,
41313520,-0.171,-0.811,1.046,-212.485,-47.285,-31.115,
41313530,-0.247,-0.978,1.309,-200.69,-41.475,-2.117,
41313540,-0.186,-1.512,1.276,-209.23,-53.655,22.4,
41313550,0.057,-1.964,1.385,-171.43,-105.192,4.97,
41313560,0.007,-1.923,1.112,-74.252,-156.782,-24.78,
41313570,-0.115,-1.536,0.443,61.932,-168.315,-15.417,
41313580,-0.288,-0.629,-0.17,186.707,-124.425,19.197,
41313590,-0.58,-0.004,-0.343,230.492,-110.022,36.19,
41313600,-0.692,0.051,-0.601,194.74,-96.687,77.63,
41313610,-0.529,0.028,-0.662,145.897,-73.29,135.03,
41313620,-0.363,-0.029,-0.436,105.542,-49.052,183.295,
41313630,-0.126,-0.239,-0.186,65.94,-37.905,214.34,
41313640,0.131,-0.501,-0.014,42.507,-30.187,228.375,
41313650,0.412,-0.66,0.045,48.58,-26.442,214.585,
41313660,0.742,-0.59,0.099,66.237,-12.6,173.075,
41313670,0.691,-0.457,0.176,80.36,11.567,128.537,
41313670,0.379,-0.386,0.114,79.047,36.347,88.27,
41313690,0.05,-0.31,-0.203,78.592,44.24,53.725,
41313690,-0.116,-0.059,-0.375,79.485,40.425,24.745,
41313710,-0.208,0.186,-0.343,55.72,22.89,1.487,
41313710,-0.146,0.263,-0.133,5.32,-0.595,-17.867,
41313730,-0.019,0.177,-0.044,-41.912,-15.05,-31.57,
41313730,0.089,0.473,-0.572,-33.775,-30.327,-57.207,
41313750,1.101,-0.704,1.588,-31.395,73.517,-132.737,
41313750,-1.1,-1.998,-1.19,129.552,162.732,37.642,
41313760,0.421,-0.607,1.314,548.03,-23.59,-62.895,
41313770,-1.624,1.997,1.994,531.755,-91.017,-130.147,
41313780,1.651,1.843,1.344,143.657,-101.447,-36.61,
41313790,0.504,-0.374,0.853,-134.242,-2.887,22.382,
41313800,-0.402,-0.706,1.098,-109.235,44.625,9.607,
41313810,-0.251,-1.193,0.619,-91.052,16.152,-13.912,
41313820,0.283,-0.803,0.736,-36.085,1.732,-26.862,
41313830,0.192,-0.289,0.945,-1.312,7.892,-22.067,
41313840,0.532,-0.264,0.953,-18.13,16.24,-4.427,
41313850,-0.163,-0.218,1.143,-33.232,32.042,8.505,
41313860,-0.078,-0.447,1.031,-62.247,31.167,8.102,
41313870,-0.193,-0.45,1.232,-83.58,32.847,-2.87,
41313880,-0.139,-0.247,1.452,-117.897,42.21,-32.462,
41313890,-0.068,-0.099,1.673,-183.662,43.12,-44.502,
41313900,-0.175,-0.025,1.497,-228.48,29.277,-47.407,
41313910,-0.125,-0.144,1.153,-278.6,10.64,-38.237,
41313920,-0.244,-0.664,1.106,-321.702,-2.135,-39.375,
41313930,-0.554,-0.993,1.299,-310.782,-46.655,-66.01,
41313940,-0.402,-0.574,0.982,-273.7,-86.607,-92.295,
41313950,-0.078,-0.427,0.811,-267.137,-83.125,-92.907,
41313960,0.001,-0.892,0.864,-279.86,-50.522,-77.175,
41313970,0.125,-1.317,1.079,-267.767,-27.93,-75.985,
41313980,0.475,-1.442,1.137,-242.917,28.14,-68.215,
41313990,-0.174,-1.119,1.285,-205.362,80.027,-40.442,
41314000,-0.478,-1.183,1.166,-147.595,30.712,-75.827,
41314010,-0.197,-1.108,1.22,-49.822,-31.762,-93.817,
41314010,0.385,-0.902,0.887,78.015,6.597,-37.275,
41314030,-0.482,-0.188,0.488,232.417,45.675,18.935,
41314030,-1.292,0.512,0.102,308.56,11.62,9.047,
41314050,-0.978,1.159,-0.254,291.9,-19.512,8.907,
41314050,-0.339,1.497,0.193,241.062,3.71,61.757,
41314070,-0.165,1.141,0.628,149.625,25.392,124.197,
41314070,-0.178,0.434,0.619,97.475,29.417,165.462,
41314080,0.047,0.129,0.572,128.835,35.087,173.145,
41314090,0.389,0.184,0.445,188.457,26.302,153.825,
41314100,0.675,0.376,0.327,215.635,27.947,114.94,
41314110,0.587,0.436,0.188,220.657,37.135,82.792,
41314120,0.352,0.399,0.139,216.702,41.195,52.692,
41314130,0.211,0.326,0.148,202.597,38.377,23.222,
41314140,0.116,0.243,0.089,185.99,28,-1.172,
41314150,0.09,0.213,0.015,172.322,25.917,-18.672,
41314160,0.084,0.231,-0.087,157.377,31.622,-28.297,
41314170,-0.72,-0.01,-0.494,152.232,25.165,-37.642,
41314180,0.394,-1.167,0.072,-190.015,-93.38,-57.242,
41314190,-1.829,-0.641,0.064,83.055,-148.347,-86.432,
41314200,1.682,1.997,1.644,527.292,-44.835,-230.527,
41314210,-0.801,0.456,1.495,-183.085,-4.427,31.762,
41314220,0.309,-1.998,-1.3,-441.63,-26.215,111.86,
41314230,-0.324,0.588,1.126,92.295,56.682,-55.335,
41314240,-0.422,-0.362,0.851,6.457,24.447,-45.412,
41314250,0.705,-1.192,0.585,-28.07,0.805,-15.365,
41314260,-0.102,0.584,1.353,41.23,27.09,-30.082,
41314270,0.145,-0.831,0.743,-41.16,17.64,-3.045,
41314280,-0.103,-0.361,0.969,-10.062,22.435,-0.227,
41314290,-0.125,-0.416,0.984,-16.922,16.73,-2.782,
41314300,-0.15,-0.208,1.161,-26.792,19.232,-10.045,
41314310,-0.161,-0.345,1.261,-62.335,19.337,-19.425,
41314320,-0.144,-0.245,1.386,-108.167,26.215,-34.825,
41314330,-0.126,-0.303,1.344,-159.425,21.175,-41.842,
41314340,-0.033,-0.247,1.265,-185.587,7.875,-30.59,
41314350,0.09,-0.269,1.193,-207.725,-0.49,-20.947,
41314360,-0.01,-0.281,1.057,-236.39,5.442,-6.545,
41314370,-0.097,-0.484,1.128,-255.272,-11.427,-10.902,
41314380,-0.233,-0.731,0.951,-252.315,-33.495,-21.927,
41314390,-0.096,-0.725,0.923,-225.487,-59.15,-26.862,
41314400,0.198,-0.688,0.793,-216.405,-63.227,-16.957,
41314410,0.173,-0.911,0.811,-218.12,-56.42,-6.44,
41314420,-0.108,-1.069,0.719,-206.867,-46.987,4.865,
41314420,-0.211,-1.021,0.706,-184.607,-50.242,12.46,
41314440,-0.208,-1.097,0.523,-163.275,-66.167,26.757,
41314440,-0.178,-1.08,0.356,-125.86,-100.1,24.99,
41314460,-0.089,-1.014,0.195,-60.147,-132.772,6.685,
41314460,-0.33,-1.105,-0.064,-12.582,-150.465,15.995,
41314480,-0.862,-0.966,-0.028,30.607,-175.21,15.627,
41314480,-0.494,-0.85,0.14,59.395,-197.592,13.125,
41314500,-0.31,-0.952,0.257,75.95,-187.337,47.617,
41314500,-0.294,-0.985,0.211,106.575,-171.552,67.725,
41314510,-0.304,-0.774,0.265,140.56,-147.035,87.99,
41314520,-0.21,-0.585,0.062,158.672,-108.132,124.075,
41314530,-0.241,-0.322,-0.167,181.982,-62.825,158.865,
41314540,-0.236,0.114,-0.376,196.507,-15.032,181.51,
41314550,-0.388,0.55,-0.27,173.127,12.355,186.725,
41314560,-0.571,0.732,0.029,112.717,-2.66,162.067,
41314570,-0.318,0.714,0.051,52.097,-19.845,126.822,
41314580,0.873,0.861,-0.033,32.305,24.43,118.807,
41314590,0.984,0.967,0.027,54.267,76.912,87.675,
41314600,0.026,0.897,-0.525,114.082,73.395,-37.135,
41314610,1.784,-1.776,1.786,51.817,159.145,-123.987,
41314620,-0.93,-1.998,-1.991,22.137,156.94,1.312,
41314630,1.136,1.325,0.949,508.567,110.372,-194.425,
41314640,-1.575,1.917,1.998,477.26,83.002,-51.362,
41314650,0.656,-1.897,0.521,-55.3,-80.832,73.937,
41314660,-0.48,1.445,1.722,212.327,-3.027,15.645,
41314670,-0.635,-0.151,1.353,-49.297,0.595,-5.302,
41314680,0.037,-0.535,1.207,-168.262,-13.772,-35.805,
41314690,0.283,-0.396,0.863,-142.992,-22.417,-37.432,
41314700,0.189,-1.405,0.259,-145.11,-29.417,-7.63,
41314710,0.221,-0.41,0.846,-71.417,-19.46,-3.43,
41314720,0.096,-0.519,0.901,-80.132,-16.747,12.6,
41314730,0.149,-0.397,1.042,-85.925,-9.537,15.75,
41314740,0.091,-0.374,1.131,-101.377,-4.252,23.152,
41314750,0.175,-0.391,1.142,-125.842,1.032,28.017,
41314760,0.148,-0.317,1.319,-149.66,12.355,26.81,
41314760,0.098,-0.392,1.365,-191.712,15.435,18.147,
41314780,0.06,-0.452,1.479,-237.16,14.42,0.14,
41314780,-0.26,-0.446,1.462,-284.567,-9.782,-24.885,
41314800,-0.575,-0.739,1.508,-322.297,-50.295,-42.63,
41314800,-0.462,-0.736,1.265,-317.782,-98.437,-46.777,
41314820,-0.257,-0.664,0.985,-307.457,-95.06,-22.102,
41314820,-0.006,-0.905,0.826,-302.032,-57.33,8.645,
41314830,0.127,-1.374,0.784,-301.035,-30.502,27.58,
41314840,-0.323,-1.187,0.847,-265.825,-15.032,10.5,
41314850,-0.983,-1.023,0.854,-216.615,-30.782,-2.17,
41314860,-0.613,-1.119,1.263,-167.947,-57.785,13.982,
41314870,-0.138,-0.794,0.885,-75.18,-32.777,56.682,
41314880,-0.437,-0.394,0.552,56.105,-21.402,77.542,
41314890,-0.207,0.086,0.632,130.777,1.225,89.845,
41314900,0.157,0.159,0.542,150.657,31.15,118.86,
41314910,0.271,0.151,0.455,151.235,48.597,118.93,
41314920,0.193,0.225,0.392,147,38.167,85.662,
41314930,0.377,0.364,0.376,134.137,12.267,46.375,
41314940,0.705,0.02,0.435,127.802,5.722,14.525,
41314950,0.828,-0.293,0.387,122.29,22.557,-27.877,
41314960,0.571,-0.445,0.299,140.525,46.13,-67.042,
41314970,0.259,-0.373,0.132,187.897,70.245,-91.035,
41314980,0.084,-0.233,-0.157,230.545,89.81,-101.762,
41314990,-0.005,-0.116,-0.432,252.735,102.952,-99.277,
41315000,-0.154,0.039,-0.712,243.092,115.062,-86.555,
41315010,-0.393,0.163,-0.853,206.307,123.375,-55.335,
41315020,-0.647,0.09,-0.73,141.61,121.852,-0.77,
41315030,-0.799,-0.225,-0.699,67.305,107.03,65.205,
41315040,-0.805,-0.35,-0.841,12.67,59.605,110.005,
41315050,-0.819,-1.06,-0.151,-51.765,-1.82,105.437,
41315060,0.461,-1.996,0.716,-225.557,-130.777,-154.175,
41315070,-0.38,-1.998,-1.647,52.99,-295.015,-75.11,
41315080,-0.142,0.798,0.998,525.56,40.757,-16.642,
41315090,-1.68,1.997,1.872,475.685,-13.737,-63.437,
41315100,0.392,-1.402,1.135,94.605,-114.31,-50.802,
41315110,0.997,0.823,1.595,174.282,-73.885,-67.2,
41315120,0.174,-0.023,1.211,20.177,-16.047,-29.837,
41315130,0.219,-0.523,1.032,-90.107,3.237,-18.515,
41315140,-0.211,-0.442,0.957,-75.057,16.03,-20.912,
41315150,-0.043,-1.164,0.503,-73.202,20.527,-40.985,
41315160,0.313,-0.381,1.022,-46.882,33.95,-53.357,
41315170,0.319,-0.202,1.234,-74.34,56.052,-50.47,
41315170,0.409,-0.201,1.266,-113.557,70.402,-33.075,
41315190,0.391,-0.338,1.175,-144.427,79.52,-10.955,
41315190,0.337,-0.436,1.105,-168.735,88.445,8.365,
41315200,0.202,-0.467,1.112,-190.837,104.93,17.622,
41315210,-0.02,-0.381,1.244,-222.827,130.847,17.972,
41315220,-0.424,-0.412,1.023,-259.805,141.435,5.81,
41315230,-0.095,-0.466,0.833,-289.765,141.435,-10.727,
41315240,0.535,-1.043,0.724,-355.46,199.22,-4.41,
41315250,0.557,-1.962,0.642,-386.575,290.85,12.512,
41315260,0.274,-1.998,1.127,-324.502,319.182,-13.37,
41315270,1.214,-1.998,1.439,-275.537,326.97,-66.15,
41315280,1.212,-1.998,0.801,-115.5,262.797,-191.73,
41315290,-0.486,-1.971,-0.169,170.17,181.615,-293.247,
41315300,-1.754,-0.969,-0.482,349.632,90.002,-305.812,
41315310,-1.93,-0.133,-0.772,378.612,-33.162,-295.995,
41315320,-1.299,0.209,-0.705,312.182,-135.065,-251.037,
41315330,-0.865,0.186,-0.848,231.822,-169.627,-164.097,
41315340,-0.695,-0.06,-0.977,187.425,-146.335,-77.385,
41315350,-0.712,-0.03,-1.087,163.835,-118.107,-14.542,
41315360,-0.872,0.172,-1.23,162.435,-103.897,38.377,
41315370,-0.892,0.362,-1.084,142.135,-114.572,84.735,
41315380,-0.656,0.366,-0.654,50.732,-156.695,139.51,
41315390,-0.308,-0.146,-0.243,-90.475,-199.29,213.797,
41315400,0.192,-1.179,-0.086,-177.415,-217.245,272.09,
41315410,0.771,-1.547,-0.005,-152.005,-226.905,279.23,
41315420,1.216,-0.926,0.058,-92.767,-224.035,261.485,
41315430,1.452,-0.348,-0.027,-83.895,-211.54,234.272,
41315440,1.455,-0.169,-0.155,-114.975,-183.487,185.692,
41315450,1.084,-0.138,-0.163,-153.23,-163.887,111.387,
41315460,0.481,-0.038,-0.103,-172.847,-163.852,41.772,
41315470,0.283,0.016,-0.574,-201.617,-175.595,-11.182,
41315480,1.53,-0.892,1.996,-39.567,-57.907,5.442,
41315490,0.598,-0.63,1.998,203.437,334.582,165.48,
41315500,-1.998,-1.998,0.167,330.26,82.057,142.117,
41315510,-0.019,-1.998,-0.792,353.797,-126.087,91.262,
41315510,0.801,-0.324,1.26,349.247,41.317,59.535,
41315530,-1.973,1.675,1.939,421.855,0.455,-42.28,
41315530,0.321,-1.221,1.432,202.895,-34.23,-103.897,
41315550,-0.575,0.52,1.847,185.29,3.045,-184.94,
41315550,1.111,0.705,1.884,80.797,23.362,-193.637,
41315570,0.267,0.059,1.611,-44.905,27.825,-119.297,
41315570,0.697,-0.244,1.162,-102.48,27.51,-57.557,
41315580,0.335,-0.5,1.038,-141.732,38.85,-33.267,
41315590,0.315,-0.269,1.145,-148.172,45.43,-10.657,
41315600,0.254,-0.531,1.032,-173.495,40.932,9.38,
41315610,0.096,-0.442,1.111,-172.287,39.322,22.575,
41315620,-0.183,-0.564,0.921,-186.882,25.497,20.44,
41315630,-0.254,-0.609,0.867,-202.93,3.92,3.85,
41315640,-0.221,-0.7,0.74,-222.775,-0.717,-14.875,
41315650,-0.228,-0.912,0.985,-258.37,13.545,-40.53,
41315660,-0.243,-1.202,1.082,-280.7,24.412,-69.072,
41315670,0.345,-1.248,0.879,-280.192,75.407,-64.26,
41315680,0.441,-1.556,0.798,-283.832,207.865,-11.725,
41315690,0.638,-1.998,0.517,-282.257,336.857,12.127,
41315700,0.213,-1.972,0.343,-207.515,378.735,-34.597,
41315710,1.058,-1.983,0.256,-99.12,363.702,-71.645,
41315720,-0.578,-1.707,0.433,40.652,257.915,-31.272,
41315730,-0.942,-1.113,0.143,160.667,40.057,0.84,
41315740,0.344,-1.236,-0.663,170.012,-27.93,22.802,
41315750,0.9,-1.068,-1.016,184.73,-61.407,-12.757,
41315760,0.412,-0.309,-1.134,250.565,-67.077,-48.177,
41315770,-0.287,0.246,-1.238,228.41,-68.46,-55.632,
41315780,-0.417,0.375,-0.895,98.962,-95.48,-61.687,
41315790,-0.454,0.086,-0.497,-27.212,-125.51,-44.152,
41315800,-0.532,-0.142,-0.161,-96.355,-134.872,-7.595,
41315810,-0.645,-0.147,0.137,-130.357,-146.3,32.357,
41315820,-0.622,-0.146,0.32,-149.31,-161.14,72.992,
41315830,-0.376,-0.142,0.379,-153.352,-171.535,110.915,
41315840,-0.096,-0.083,0.358,-148.802,-170.59,134.382,
41315850,0.047,0.101,0.303,-133.087,-163.38,138.267,
41315850,0.067,0.444,0.185,-113.33,-155.942,122.447,
41315870,0.197,0.785,0.087,-106.522,-161.315,86.782,
41315870,0.464,1.23,-0.264,-145.635,-157.255,37.187,
41315890,0.707,1.647,-1.076,4.672,-115.867,-32.375,
41315890,-1.814,0.919,0.788,133.717,-220.412,-186.165,
41315910,1.298,-1.998,1.919,17.062,-3.08,32.2,
41315910,-0.991,-1.258,-1.983,437.955,-62.422,134.155,
41315920,1.487,1.997,0.795,540.907,116.83,22.05,
41315930,-1.964,-1.133,1.385,346.587,325.867,69.072,
41315940,-0.739,-1.344,-0.375,403.637,22.995,27.387,
41315950,-0.388,1.609,1.998,545.23,65.152,18.182,
41315960,-1.464,0.952,1.994,386.82,-16.765,-58.012,
41315970,0.678,0.133,1.608,182.822,-32.375,-51.275,
41315980,-0.382,0.707,1.904,72.345,-26.425,12.092,
41315990,-0.506,-0.229,1.642,-74.777,-18.462,-31.465,
41316000,0.494,-0.198,1.389,-146.09,14.49,-73.377,
41316010,0.671,-0.205,1.296,-202.09,47.67,-61.617,
41316020,0.609,-0.191,1.189,-244.247,62.475,-27.037,
41316030,0.584,-0.455,1.011,-270.795,63.297,7.752,
41316040,0.445,-0.179,0.981,-271.67,53.427,42.91,
41316050,-0.089,-0.274,1.034,-319.27,25.427,50.837,
41316060,-0.247,-0.649,1.218,-374.745,1.295,44.257,
41316070,0.399,-1.67,0.993,-417.602,22.925,49.525,
41316080,0.906,-1.998,1.095,-420.297,137.637,104.16,
41316090,1,-1.998,0.368,-344.242,198.24,126.472,
41316100,0.963,-1.998,0.855,-354.865,227.605,8.627,
41316110,0.417,-1.998,-0.03,-201.25,186.987,-81.725,
41316120,1.056,-1.998,0.227,-30.117,152.687,-128.765,
41316130,-1.24,-1.988,-0.251,153.212,24.482,-229.46,
41316140,-1.998,-0.899,-0.583,294.77,-95.97,-282.712,
41316150,-1.823,0.189,-0.794,323.872,-203.927,-265.055,
41316160,-1.158,0.54,-1.011,254.047,-243.285,-179.952,
41316170,-0.861,0.423,-1.116,180.46,-210.665,-51.992,
41316180,-0.911,0.196,-0.843,128.362,-157.692,52.622,
41316190,-1.042,0.099,-0.601,89.705,-132.527,119.7,
41316200,-1.092,0.069,-0.41,59.692,-140.752,171.01,
41316210,-0.926,-0.028,-0.213,28.56,-167.475,212.222,
41316220,-0.641,-0.152,-0.055,-1.715,-196.297,242.112,
41316230,-0.265,-0.186,0.121,-15.33,-212.642,261.432,
41316240,0.227,-0.046,0.291,-12.215,-202.72,274.802,
41316250,0.552,-0.022,0.31,-5.565,-166.11,287.7,
41316260,0.817,0.048,0.141,3.92,-113.26,286.632,
41316260,0.968,0.453,0.065,19.005,-62.93,263.9,
41316280,0.962,0.887,0.046,19.127,-42.612,199.867,
41316280,1.043,0.959,0.263,-12.005,-42.542,100.45,
41316300,0.892,0.782,0.377,-42.84,-33.495,16.905,
41316300,0.297,0.592,0.373,-22.26,-4.532,-32.795,
41316320,0.143,1.32,-0.813,-48.177,20.527,-103.53,
41316320,-1.684,-0.632,-0.371,277.375,-19.67,-78.312,
41316330,-0.42,-1.998,0.552,166.267,-162.155,-16.222,
41316340,1.344,0.266,-0.433,304.64,-119.385,-13.002,
41316350,-1.086,1.997,1.998,546.892,193.882,0.122,
41316360,-1.14,-0.338,1.408,288.61,-67.935,-67.742,
41316370,1.182,-1.408,0.743,178.43,-60.112,-47.705,
41316380,-1.265,1.992,1.998,398.352,-16.275,-144.602,
41316390,1.215,-0.831,1.525,10.43,-34.3,-98.297,
41316400,0.13,0.595,1.853,-58.187,21.647,-95.252,
41316410,0.263,-0.453,1.278,-161.245,47.232,-72.957,
41316420,0.332,-0.414,1.067,-199.01,65.205,-66.377,
41316430,0.432,-0.405,0.996,-207.392,82.092,-49.98,
41316440,0.398,-0.539,0.925,-227.15,83.02,-29.4,
41316450,0.224,-0.41,0.922,-224.682,74.69,-6.755,
41316460,-0.095,-0.407,0.714,-238.437,55.335,-3.902,
41316470,-0.435,-0.624,0.629,-265.86,33.6,-22.242,
41316480,-0.469,-0.866,0.889,-302.155,24.272,-52.71,
41316490,-0.165,-1.172,0.649,-316.75,31.325,-75.845,
41316500,0.382,-1.618,0.629,-314.93,97.195,-64.47,
41316510,0.591,-1.998,0.756,-293.002,241.815,-24.675,
41316520,-0.177,-1.998,0.427,-269.237,343,-23.135,
41316530,-0.962,-1.948,0.263,-179.007,322.437,-65.642,
41316540,-0.638,-1.506,0.31,-82.915,291.865,-107.817,
41316550,-0.198,-1.948,0.102,-11.462,208.67,-123.497,
41316560,-0.64,-1.809,-0.131,111.335,101.972,-125.65,
41316570,-0.732,-1.149,-0.321,246.47,29.802,-164.657,
41316580,-0.877,-0.507,-0.582,293.125,-33.285,-145.53,
41316580,-0.508,-0.152,-0.991,290.115,-71.522,-83.195,
41316600,-0.159,0.148,-1.302,268.502,-75.372,-7.682,
41316600,-0.033,0.37,-1.349,225.505,-73.762,48.527,
41316620,-0.067,0.41,-1,139.055,-70.682,76.16,
41316620,-0.198,0.115,-0.28,23.52,-71.627,103.232,
41316640,-0.417,-0.449,0.163,-67.042,-75.565,141.102,
41316640,-0.471,-0.67,0.274,-89.337,-101.867,163.135,
41316660,-0.213,-0.315,0.011,-69.142,-136.885,173.705,
41316660,0.272,0.21,-0.162,-60.06,-149.572,186.882,
41316670,0.67,0.495,-0.109,-93.327,-129.447,190.347,
41316680,0.642,0.744,-0.02,-131.932,-98.77,171.92,
41316690,0.651,1.512,0.134,-141.225,-60.112,134.697,
41316700,1.142,1.562,-0.436,-170.905,-17.85,73.167,
41316710,0.029,-0.304,0.807,35.752,-29.767,-92.382,
41316720,-0.103,-1.998,-0.065,102.672,-43.697,-130.48,
41316730,0.921,0.22,-0.237,452.06,-53.462,-62.02,
41316740,-0.738,1.997,1.661,562.362,168.122,-26.53,
41316750,-1.502,-0.194,1.612,326.637,-50.435,-74.515,
41316760,1.271,-1.079,1.536,307.912,-64.05,-46.917,
41316770,-0.598,1.858,1.998,375.602,-55.475,-58.66,
41316780,0.432,0.241,1.506,70.997,-36.837,15.47,
41316790,0.629,0.722,1.799,-81.935,-24.237,60.077,
41316800,-1.164,-0.387,1.495,-191.38,-16.607,10.167,
41316810,0.378,-0.266,1.165,-230.65,-20.58,-30.24,
41316820,0.512,-0.475,0.876,-253.802,-6.037,-30.485,
41316830,0.34,-0.75,0.766,-260.89,4.462,-3.027,
41316840,0.613,-0.348,0.859,-233.275,10.605,23.712,
41316850,0.424,-0.336,0.772,-241.482,5.897,53.252,
41316860,0.179,-0.613,0.796,-264.232,8.33,67.445,
41316870,-0.084,-0.685,0.949,-277.2,12.337,64.19,
41316880,-0.11,-0.944,0.961,-296.975,5.757,54.617,
41316890,0.131,-1.49,1.102,-315.752,30.205,57.942,
41316900,0.618,-1.665,1.07,-314.37,95.9,74.707,
41316910,0.463,-1.73,0.777,-285.442,155.802,85.067,
41316920,0.598,-1.998,0.984,-249.025,133.962,35.28,
41316930,-1.073,-1.989,0.098,-154.822,34.177,-74.445,
41316940,0.699,-1.663,0.174,-7.822,-3.727,-90.195,
41316950,0.663,-1.497,0.301,94.552,-29.382,-121.415,
41316960,-0.537,-1.123,-0.331,174.002,-44.835,-196.262,
41316970,-1.3,-0.508,-0.631,233.642,-76.737,-210.717,
41316980,-1.178,0.014,-0.822,257.582,-71.89,-172.305,
41316990,-0.74,0.3,-1.088,258.947,-46.252,-101.027,
41317000,-0.6,0.473,-1.212,230.352,-22.487,-38.955,
41317010,-0.802,0.506,-0.876,174.842,-15.487,4.707,
41317010,-1.015,0.288,-0.366,85.452,-30.59,46.41,
41317030,-0.997,-0.176,-0.001,-7.525,-65.362,89.95,
41317030,-0.672,-0.53,0.127,-51.17,-104.3,125.352,
41317050,-0.25,-0.396,0.035,-45.85,-126.052,156.257,
41317050,0.006,-0.084,-0.046,-35.402,-124.652,189.7,
41317070,0.04,0.027,-0.079,-48.02,-114.275,208.967,
41317070,0.055,0.106,-0.001,-72.17,-99.4,203.875,
41317080,0.129,0.02,0.255,-93.642,-85.172,179.69,
41317090,0.307,-0.212,-1.108,-153.93,-55.877,118.317,
41317100,0.88,-0.4,1.219,184.677,-63.892,34.265,
41317110,1.517,-1.998,1.217,-9.292,113.82,8.977,
41317120,-1.921,-1.388,-1.997,243.407,-13.597,-5.74,
41317130,-0.496,1.997,1.519,556.832,77.227,-61.022,
41317140,-0.012,0.462,1.671,341.145,105.14,28.21,
41317150,-1.159,-1.965,0.638,223.72,-38.517,-58.065,
41317160,0.859,0.871,1.598,388.377,7.07,-88.532,
41317170,-0.908,0.107,0.784,213.517,15.487,65.502,
41317180,0.189,-0.656,1.026,6.072,-29.802,56.56,
41317190,-0.6,0.685,1.787,28.385,14.402,-43.452,
41317200,-0.146,-0.546,1.1,-102.375,10.622,-68.722,
41317210,0.449,-0.553,0.81,-123.532,29.067,-91.962,
41317220,0.261,-0.791,0.736,-133.752,56.227,-83.37,
41317230,0.523,-0.364,0.95,-124.897,66.237,-60.375,
41317240,0.579,-0.521,0.987,-139.51,69.02,-26.232,
41317250,0.596,-0.459,0.996,-141.137,74.812,10.255,
41317260,0.65,-0.556,0.999,-157.395,95.27,42.822,
41317270,0.073,-0.58,0.912,-178.132,114.975,67.322,
41317280,-0.612,-0.365,0.926,-196.507,103.355,65.047,
41317290,-0.761,-0.32,0.923,-228.532,75.18,44.835,
41317300,0.002,-0.85,0.921,-282.572,85.785,23.38,
41317310,0.189,-1.12,0.481,-313.075,124.495,9.152,
41317320,0.376,-1.676,0.616,-324.117,150.097,3.045,
41317330,1.292,-1.998,1.135,-372.417,113.225,-38.412,
41317330,-0.037,-1.966,0.082,-263.007,140.577,-32.287,
41317350,1.992,-1.811,1.087,-160.125,271.74,-21.07,
41317350,1.942,-1.998,1.226,-100.152,278.18,-174.072,
41317370,0.014,-1.971,0.381,123.427,214.76,-384.247,
41317370,-1.565,-1.088,0.377,244.16,114.52,-426.877,
41317390,-1.997,-0.377,0.21,272.23,-10.08,-405.055,
41317390,-1.998,-0.022,-0.175,271.092,-124.39,-375.602,
41317410,-1.854,0.277,-0.441,270.462,-187.687,-321.37,
41317410,-1.562,0.408,-0.62,251.86,-176.662,-208.687,
41317420,-1.522,0.614,-0.569,237.702,-130.182,-54.635,
41317430,-1.755,0.731,-0.47,216.615,-98.927,92.207,
41317440,-1.838,0.64,-0.269,167.072,-122.465,201.46,
41317450,-1.355,0.505,-0.192,99.207,-186.13,282.187,
41317460,-0.379,0.289,-0.341,44.117,-236.18,329.087,
41317470,0.652,0.128,-0.497,17.5,-236.775,335.265,
41317480,1.583,0.368,-0.487,-9.152,-187.95,311.045,
41317490,1.73,0.695,-0.314,-50.172,-132.457,251.562,
41317500,1.631,0.332,-0.792,-81.445,-101.99,105.822,
41317510,0.779,-1.729,1.182,18.042,-116.217,4.462,
41317520,-1.917,-1.998,-1.43,-9.292,123.76,357.332,
41317530,1.614,1.194,-0.089,507.185,-59.552,75.267,
41317540,-1.441,1.767,1.44,460.145,174.09,159.39,
41317550,-1.562,-1.577,0.297,161.63,-48.93,6.545,
41317560,0.456,-1.19,0.895,345.362,-11.287,-40.827,
41317570,-1.565,1.961,1.979,470.82,-22.137,-158.462,
41317580,1.134,-0.148,1.708,169.382,-73.307,-153.44,
41317590,1.1,0.493,1.777,70.315,-44.625,-115.902,
41317600,0.363,0.52,1.802,-32.62,-1.295,-49.857,
41317610,0.109,-0.279,1.477,-162.05,20.09,-14.945,
41317620,0.145,-0.111,1.406,-210.21,36.435,-17.797,
41317630,0.118,-0.329,1.213,-262.71,49.035,-21,
41317640,0.232,-0.653,1.051,-298.287,74.375,-24.36,
41317650,-0.214,-0.855,0.622,-305.515,92.96,-29.592,
41317660,-0.096,-0.435,0.731,-300.86,92.75,-58.117,
41317670,-0.012,-0.37,0.708,-330.592,91.437,-90.037,
41317680,0.115,-0.74,0.885,-372.82,101.08,-110.53,
41317690,0.324,-1.531,1.084,-367.657,113.522,-82.67,
41317700,0.84,-1.626,1.076,-349.125,183.68,-33.337,
41317710,0.681,-1.34,0.909,-313.652,246.68,6.265,
41317720,-0.304,-1.209,0.745,-274.19,237.072,18.34,
41317730,-0.199,-1.089,0.969,-229.932,125.002,-21.122,
41317740,0.251,-1.416,0.928,-186.007,45.902,-22.925,
41317750,0.202,-1.655,0.962,-93.572,-33.425,-74.147,
41317760,-0.554,-1.233,0.861,39.025,-107.327,-153.44,
41317760,-0.927,-0.736,0.647,136.43,-148.452,-178.482,
41317780,-1.012,-0.277,0.451,188.772,-164.412,-148.4,
41317780,-0.569,-0.055,0.155,220.482,-152.757,-92.242,
41317800,-0.212,0.019,-0.101,244.387,-107.992,-18.55,
41317800,-0.117,0.012,-0.398,270.532,-50.277,46.217,
41317820,-0.056,0.209,-0.918,297.78,9.922,92.382,
41317820,-0.092,0.746,-1.295,304.78,66.097,115.167,
41317830,-0.021,1.35,-1.064,215.075,84.84,110.04,
41317840,0.028,1.028,-0.644,51.747,50.837,117.932,
41317850,0.131,-0.02,-0.223,-96.372,16.135,121.222,
41317860,0.19,-0.844,0.061,-132.65,-9.45,102.147,
41317870,0.268,-0.629,-0.034,-89.915,-37.082,69.405,
41317880,0.387,0.168,-0.246,-62.825,-60.34,39.62,
41317890,0.877,-0.08,-0.414,-87.29,-62.16,10.062,
41317900,0.272,-0.13,-1.087,-37.222,-68.32,-77.525,
41317910,-0.69,-1.825,1.842,116.62,-142.52,0.21,
41317920,0.567,-1.989,-1.176,71.172,21.892,229.775,
41317930,1.973,1.621,0.817,545.51,-99.872,90.23,
41317940,-1.607,1.58,1.859,447.615,87.43,35.297,
41317950,-0.792,-1.352,0.892,276.15,-41.282,39.83,
41317960,-0.479,-1.418,1.123,409.692,-30.52,-31.552,
41317970,-0.898,1.841,1.998,467.6,-68.81,-161.157,
41317980,1.492,-0.06,1.794,180.74,-106.557,-127.365,
41317990,1.223,1.118,1.858,60.865,-51.117,-76.93,
41318000,-0.003,-0.248,1.439,-92.452,1.312,-12.267,
41318010,-0.114,-0.433,1.225,-159.022,26.302,-15.715,
41318020,0.264,-0.438,1.174,-191.747,48.86,-35.227,
41318030,0.321,-0.408,1.202,-217.28,64.312,-40.67,
41318040,0.491,-0.398,1.131,-247.17,84.28,-27.755,
41318050,0.184,-0.368,0.879,-254.835,99.207,-10.5,
41318060,0.291,-0.506,0.763,-263.025,98.07,-11.76,
41318070,0.147,-0.448,0.768,-267.172,93.73,-13.562,
41318080,0.173,-0.73,0.737,-292.547,88.777,-18.952,
41318080,0.259,-0.895,0.608,-297.78,119.245,-3.955,
41318100,0.066,-1.194,0.501,-290.727,171.622,37.625,
41318100,0.281,-1.882,0.393,-277.585,189.227,54.967,
41318120,0.712,-1.998,0.955,-236.635,162.26,11.287,
41318120,0.374,-1.861,1.223,-204.295,105.892,-45.57,
41318140,1.307,-1.534,1.007,-107.957,101.255,-72.1,
41318140,1.761,-1.808,0.775,-7.122,107.205,-103.862,
41318160,0.318,-1.72,0.376,113.627,83.265,-202.79,
41318160,-0.794,-0.863,0.084,206.132,25.55,-278.705,
41318170,-1.519,-0.316,0,251.79,-49.857,-293.335,
41318180,-1.916,-0.137,-0.241,263.165,-136.535,-267.925,
41318190,-1.477,0.186,-0.643,254.922,-178.762,-211.085,
41318200,-0.856,0.523,-0.924,245.245,-165.69,-105.507,
41318210,-0.76,0.7,-0.889,223.737,-137.987,34.422,
41318220,-0.949,0.7,-0.678,168,-117.355,167.44,
41318230,-0.956,0.519,-0.416,87.85,-134.785,272.055,
41318240,-0.527,0.195,-0.493,9.012,-197.82,333.13,
41318250,0.231,-0.169,-0.937,-42.21,-258.142,357.752,
41318260,1.548,-0.088,-1.247,-69.335,-257.075,358.522,
41318270,1.998,-0.408,-0.75,-118.212,-211.872,316.172,
41318280,1.998,-1.919,1.867,-154.227,-39.515,267.452,
41318290,-1.056,-1.998,1.206,114.625,223.947,247.87,
41318300,-1.811,-0.544,-1.997,450.922,-264.635,178.465,
41318310,1.599,1.702,1.558,394.73,-11.112,226.327,
41318320,-0.744,-1.308,0.761,207.165,-46.742,125.877,
41318330,-1.901,-0.69,0.75,294.437,-82.075,-84.805,
41318340,-0.276,0.12,1.546,291.935,-21.245,-197.05,
41318350,-0.195,-0.144,1.796,186.707,-20.09,-273.945,
41318360,1.186,0.98,1.978,123.252,-2.327,-251.037,
41318370,1.317,0.416,1.717,-2.642,13.737,-160.387,
41318380,0.878,0.06,1.453,-88.637,22.4,-64.925,
41318390,0.552,-0.198,1.24,-139.965,10.447,7.035,
41318400,0.263,-0.42,1.084,-171.237,6.72,43.102,
41318410,0.005,-0.446,1.085,-184.485,12.25,48.16,
41318420,-0.092,-0.501,1.086,-197.557,19.687,35.595,
41318430,0.01,-0.583,1.029,-211.417,34.265,21.052,
41318440,-0.23,-0.635,0.875,-220.115,42.21,5.057,
41318450,-0.243,-0.658,0.757,-228.025,33.617,-26.232,
41318460,-0.377,-0.792,0.804,-250.197,39.2,-47.407,
41318470,-0.516,-0.989,0.997,-259.682,23.922,-78.05,
41318480,0.27,-0.937,0.624,-272.965,18.707,-104.492,
41318490,0.441,-1.273,0.554,-296.397,83.93,-69.65,
41318500,0.883,-1.998,0.841,-317.8,154.385,-53.007,
41318500,0.433,-1.62,0.635,-268.345,176.697,-105.577,
41318510,-0.508,-1.002,0.531,-183.435,201.845,-145.757,
41318520,-0.521,-1.691,0.429,-153.545,142.327,-160.09,
41318530,0.684,-1.323,-0.046,-71.662,94.605,-158.777,
41318540,-0.092,-1.097,-0.042,46.655,61.407,-247.327,
41318550,-1.821,-0.599,0.294,114.695,30.52,-301.577,
41318560,-1.998,-0.103,0.309,142.38,-16.975,-262.937,
41318570,-1.95,0.36,0.157,145.565,-71.662,-150.237,
41318580,-1.247,0.607,0.174,135.8,-101.325,1.592,
41318590,-0.453,0.391,0.241,109.567,-115.395,143.22,
41318600,-0.091,0.025,0.308,123.34,-125.177,245.735,
41318610,0.203,-0.341,0.198,179.847,-119.665,320.722,
41318620,0.781,-0.414,0.194,210.612,-89.897,340.112,
41318630,1.17,-0.251,0.159,206.5,-58.275,341.442,
41318640,1.278,-0.073,-0.135,191.082,-24.202,350.822,
41318650,1.468,0.073,-0.54,158.462,20.86,342.072,
41318660,1.185,0.429,-0.804,96.897,3.29,269.412,
41318670,1.231,0.798,-0.284,-15.89,-107.887,103.617,
41318680,1.277,0.114,0.213,-146.44,-158.025,-10.342,
41318690,1.781,-1.206,0.149,-162.417,-133.402,-118.37,
41318700,-1.434,-1.998,-0.021,54.092,153.86,208.495,
41318710,0.111,-1.123,-1.8,338.415,-247.625,191.52,
41318720,0.586,1.997,1.892,538.142,99.715,81.182,
41318730,-1.998,1.238,1.517,306.862,-14.542,47.985,
41318740,-0.056,-1.955,0.913,76.597,-65.31,-1.627,
41318750,-0.249,-0.326,1.414,261.047,-38.64,-98.822,
41318760,-0.417,1.745,1.996,202.422,-28.367,-168.472,
41318770,0.715,-0.707,1.439,-59.762,-15.05,-143.447,
41318780,0.215,0.016,1.5,-77.875,15.802,-127.627,
41318790,0.35,-0.271,1.171,-139.667,24.517,-104.002,
41318800,0.418,-0.727,0.949,-178.692,48.3,-87.29,
41318810,0.436,-0.496,1.004,-174.58,82.775,-80.5,
41318820,0.094,-0.49,0.941,-187.88,100.065,-70.087,
41318830,0.141,-0.43,0.892,-207.41,93.03,-71.995,
41318830,0.342,-0.463,0.736,-240.432,90.177,-78.557,
41318850,0.008,-0.602,0.901,-266.595,88.9,-76.51,
41318850,0.036,-1.172,0.72,-279.947,90.282,-76.002,
41318870,0.212,-1,0.634,-245.472,93.135,-84.087,
41318870,0.253,-0.961,0.669,-233.24,118.895,-63.175,
41318890,0.087,-1.339,0.703,-228.532,148.977,-40.967,
41318890,-0.192,-1.476,0.547,-196.455,153.912,-46.987,
41318910,-0.088,-1.295,0.946,-166.495,104.125,-78.592,
41318910,-0.45,-1.024,1.039,-94.412,62.877,-101.85,
41318920,1.455,-1.336,0.89,-58.152,80.657,-80.22,
41318930,1.936,-1.714,0.724,13.16,136.167,-114.24,
41318940,0.022,-1.496,0.526,166.25,114.502,-245.385,
41318950,-1.852,-0.86,0.132,276.937,34.317,-339.797,
41318960,-1.998,-0.353,-0.14,321.422,-37.485,-345.135,
41318970,-1.871,0.257,-0.794,344.277,-67.585,-252.665,
41318980,-1.146,0.869,-1.361,338.887,-67.76,-93.345,
41318990,-1.323,1.109,-1.251,269.307,-50.225,90.685,
41319000,-1.976,0.953,-0.917,129.762,-100.992,242.13,
41319010,-1.918,0.433,-0.679,-25.13,-200.76,374.045,
41319020,-0.953,-0.576,-0.661,-120.557,-281.417,494.742,
41319030,0.184,-1.522,-1.099,-95.497,-324.047,557.69,
41319040,1.542,-1.782,0.428,-17.762,-301.49,532.455,
41319050,1.998,-1.998,1.998,-43.82,-96.617,393.872,
41319060,0.187,-1.998,0.128,118.982,37.607,36.242,
41319070,-1.998,-0.332,-1.913,356.037,-148.522,-13.772,
41319080,-0.161,1.997,1.755,360.237,133.665,173.53,
41319090,1.396,-0.368,0.18,165.2,-62.002,251.072,
41319100,-1.079,-1.988,0.709,84.35,-64.925,79.275,
41319110,-1.327,0.469,1.478,239.102,-6.002,-20.58,
41319120,-0.902,0.222,1.503,151.042,-4.27,-105.437,
41319130,-0.255,-0.676,1.243,42.822,4.147,-167.002,
41319140,0.027,-0.239,1.326,28.175,28.437,-195.037,
41319150,0.319,-0.287,1.173,-15.925,35.787,-186.567,
41319160,0.687,-0.266,1.115,-44.117,42.087,-157.71,
41319170,0.702,-0.289,1.07,-64.575,42.262,-112.367,
41319170,0.619,-0.305,1.024,-80.5,35.857,-57.645,
41319190,0.466,-0.32,1.044,-91.105,25.025,-9.66,
41319190,0.35,-0.411,1.006,-105.105,19.215,25.847,
41319210,0.276,-0.527,0.988,-117.547,21.262,43.802,
41319210,0.076,-0.644,0.838,-124.32,34.807,48.195,
41319230,0.034,-0.652,0.922,-126.49,38.377,39.532,
41319230,-0.111,-0.606,0.864,-140.472,46.83,30.345,
41319250,-0.216,-0.641,0.76,-165.777,55.632,11.112,
41319250,-0.346,-0.868,0.673,-200.217,68.005,-11.83,
41319260,-0.16,-1.167,0.749,-211.33,65.17,-36.662,
41319270,-0.125,-0.854,0.562,-182.367,72.957,-50.592,
41319280,0.078,-0.85,0.664,-172.077,116.2,-42.752,
41319290,-0.016,-1.345,0.622,-172.497,139.282,-33.162,
41319300,0.807,-1.641,0.712,-160.965,126.945,-53.812,
41319310,0.448,-1.483,0.643,-114.835,119.017,-68.092,
41319320,-0.332,-1.536,0.481,-43.785,96.967,-76.877,
41319330,0.698,-1.812,0.048,1.662,68.652,-44.03,
41319340,1.412,-1.466,0.345,81.532,61.442,-62.93,
41319350,0.057,-1.23,0.018,140.42,17.115,-146.527,
41319360,-0.876,-0.909,0.085,171.15,-25.515,-140.717,
41319370,-1.156,-0.66,-0.241,192.272,-69.23,-73.78,
41319380,-1.367,-0.564,-0.654,217.262,-119.42,-11.48,
41319390,-1.194,-0.278,-1.024,213.482,-161.752,34.72,
41319400,-0.703,0.18,-1.352,177.082,-171.395,82.617,
41319410,-0.255,0.57,-1.574,112.822,-145.337,146.825,
41319420,0.141,0.64,-1.531,-0.315,-90.842,218.155,
41319430,0.469,0.183,-1.169,-146.16,-33.005,263.217,
41319440,0.429,-0.523,-0.564,-250.46,6.475,268.1,
41319450,-0.362,-0.974,0.605,-267.435,-34.09,215.915,
41319460,1.881,-1.802,1.661,-175.56,-10.832,86.38,
41319470,-0.738,1.141,1.77,377.685,-144.007,-32.987,
41319480,-1.998,-0.389,-0.508,394.467,-145.39,-50.925,
41319490,1.062,-1.998,0.631,131.46,-7.017,74.305,
41319500,-0.272,0.834,0.773,430.99,13.055,-98.91,
41319510,-1.161,1.49,1.974,401.537,-3.342,-156.695,
41319520,0.942,-1.862,1.09,76.72,-51.66,-111.282,
41319530,0.08,1.412,1.938,192.64,-15.662,-150.902,
41319540,0.636,0.309,1.686,6.457,-14,-92.907,
41319550,0.445,-0.316,1.351,-94.255,-3.342,-42.875,
41319560,0.21,-0.112,1.155,-127.12,1.102,-14.42,
41319570,0.28,-0.585,0.88,-165.882,2.117,7.682,
41319580,0.201,-0.561,0.942,-162.907,14.437,12.547,
41319580,0.24,-0.451,1.007,-165.2,25.655,16.467,
41319600,0.225,-0.536,0.978,-178.115,39.672,24.657,
41319600,0.232,-0.799,0.777,-182.21,48.09,27.072,
41319620,0.272,-0.579,0.714,-165.882,48.055,23.31,
41319620,0.116,-0.682,0.828,-179.322,60.427,16.362,
41319640,-0.229,-0.888,0.961,-196,60.41,2.292,
41319640,-0.328,-1.118,0.881,-191.117,62.895,0.122,
41319660,0.044,-1.381,0.991,-184.45,97.23,19.022,
41319660,0.402,-1.916,0.773,-168.91,123.935,11.55,
41319670,1.217,-1.998,1.192,-113.907,104.02,-42.647,
41319680,1.998,-1.998,0.566,5.652,99.522,-94.132,
41319690,1.564,-1.512,-0.19,192.762,153.667,-172.532,
41319700,-0.615,-0.608,-0.175,257.232,65.222,-291.567,
41319710,-1.46,-0.388,-0.275,214.637,-11.76,-294.262,
41319720,-1.535,-0.158,-0.673,186.97,-61.775,-205.45,
41319730,-1.223,0.131,-0.698,155.172,-125.002,-138.722,
41319740,-0.71,0.137,-0.898,83.037,-152.565,-88.882,
41319750,-0.346,0.115,-0.968,36.925,-116.06,-4.865,
41319760,-0.383,0.164,-0.589,11.637,-58.87,82.862,
41319770,-0.752,0.085,-0.38,-33.477,-48.65,135.135,
41319780,-0.979,0.111,-0.325,-82.915,-75.635,163.537,
41319790,-1.103,0.32,-0.263,-129.902,-132.44,187.057,
41319800,-1.332,0.513,-0.534,-191.012,-219.87,212.607,
41319810,0.903,-0.879,1.308,-288.732,-235.76,208.11,
41319820,1.998,-1.781,1.998,-6.632,144.847,235.532,
41319830,-1.141,-1.998,0.007,281.96,78.225,209.282,
41319840,-1.756,-1.955,-1.996,267.452,-243.477,-32.952,
41319850,1.717,-0.454,1.5,270.375,236.915,136.115,
41319860,-0.962,0.219,0.018,360.885,70.595,32.76,
41319870,-1.39,-0.116,1.633,321.737,41.772,-61.25,
41319880,-0.209,-0.334,1.601,245.577,14.63,-99.627,
41319890,-0.351,0.459,1.935,203.28,-0.682,-162.347,
41319900,0.255,0.383,1.926,84.717,-5.04,-156.817,
41319910,0.308,0.143,1.802,-27.107,-2.117,-125.58,
41319920,0.268,0.114,1.67,-112.84,-3.692,-85.365,
41319920,0.278,-0.238,1.404,-186.672,-15.732,-46.55,
41319940,0.058,-0.497,1.039,-220.762,-3.115,-19.337,
41319940,-0.193,-0.502,1.046,-227.255,0,-20.86,
41319960,-0.09,-0.566,0.976,-245.927,-7.542,-37.765,
41319960,0.067,-0.721,0.966,-245.927,-9.485,-54.985,
41319980,0.348,-0.639,0.84,-244.44,1.452,-60.13,
41319980,0.503,-0.671,0.814,-253.312,21.507,-62.02,
41320000,0.272,-1.064,0.822,-260.015,41.492,-52.36,
41320000,0.226,-1.182,0.793,-244.492,51.257,-46.917,
41320010,0.438,-0.978,0.636,-224.262,68.845,-26.477,
41320020,0.124,-0.943,0.387,-209.02,121.555,14.857,
41320030,-0.005,-1.145,0.361,-164.08,121.275,-15.102,
41320040,-0.27,-1.165,0.487,-105.945,66.57,-60.917,
41320050,-0.568,-1.303,0.438,-48.055,11.532,-68.775,
41320060,-0.315,-1.347,0.582,11.322,-30.187,-56.857,
41320070,-0.036,-1.16,0.526,87.132,-38.15,-53.147,
41320080,-0.981,-1.094,0.141,171.605,-71.347,-53.532,
41320090,-1.239,-0.835,-0.065,244.72,-95.147,-32.357,
41320100,-1.082,-0.358,-0.853,299.722,-104.44,28.157,
41320110,-0.911,0.444,-1.311,322.787,-101.465,95.287,
41320120,-0.592,1.104,-1.107,262.92,-104.387,159.985,
41320130,-0.633,1.025,-0.614,107.537,-118.16,241.272,
41320140,-0.894,0.098,0.052,-70.507,-138.197,319.882,
41320150,-0.933,-1.068,0.181,-143.01,-181.142,368.62,
41320160,-0.5,-0.935,0.057,-93.012,-234.745,368.585,
41320170,0.449,-0.012,-0.281,-35.735,-260.277,363.842,
41320180,1.607,0.777,-0.578,-72.222,-217.157,369.722,
41320190,1.87,-0.06,-0.006,-39.427,-158.445,270.655,
41320200,1.998,-1.992,1.71,-42.997,-24.71,37.205,
41320210,-1.323,-1.941,-1.997,68.11,-60.742,-39.06,
41320220,-1.126,1.803,0.288,549.727,41.912,-64.032,
41320230,-0.258,1.448,1.52,386.575,150.955,82.6,
41320240,-0.432,-1.986,0.679,125.545,-28.56,48.982,
41320250,-0.793,-0.094,1.287,361.777,-11.55,-37.817,
41320260,-0.532,1.575,1.992,361.007,-19.897,-78.4,
41320270,0.294,-0.833,1.517,95.007,-50.032,-78.365,
41320280,0.366,0.739,1.962,65.24,-15.557,-91.647,
41320290,0.352,0.107,1.679,-73.447,6.877,-60.13,
41320300,0.233,-0.235,1.317,-165.077,22.015,-35.367,
41320310,0.132,-0.352,1.036,-199.465,24.36,-20.842,
41320320,0.136,-0.645,0.881,-216.685,26.775,-15.907,
41320330,0.145,-0.669,0.888,-208.215,28.262,-13.895,
41320330,0.068,-0.606,0.965,-199.29,30.922,-13.037,
41320350,0.152,-0.655,0.643,-214.112,34.86,-22.872,
41320350,-0.093,-0.731,0.687,-227.622,30.117,-41.107,
41320370,-0.063,-0.818,0.694,-244.125,22.697,-71.225,
41320370,-0.063,-0.644,0.614,-255.377,38.465,-83.405,
41320390,0.182,-1.276,0.732,-271.81,75.845,-75.74,
41320390,0.468,-1.586,0.77,-267.05,122.955,-68.757,
41320410,0.288,-1.411,1.012,-228.497,196.175,-39.777,
41320410,0.331,-1.865,1.021,-224.385,246.82,-31.272,
41320420,-0.088,-1.659,0.831,-174.877,194.197,-88.007,
41320430,-0.039,-1.824,0.596,-98.63,124.407,-135.642,
41320440,0.742,-1.836,0.201,-24.062,94.482,-138.582,
41320450,-0.526,-1.558,-0.067,112.035,28.735,-221.322,
41320460,-1.913,-0.667,-0.195,188.702,-29.907,-281.732,
41320470,-1.952,0.13,0.204,185.22,-79.59,-255.447,
41320480,-1.58,0.564,-0.095,153.3,-101.045,-147.28,
41320490,-1.372,0.992,-0.064,144.987,-85.067,-10.622,
41320500,-1.263,1.227,0.342,114.257,-64.435,112.525,
41320510,-0.923,0.998,0.498,53.515,-59.85,204.872,
41320520,-0.506,0.649,0.529,28.84,-54.495,260.172,
41320530,-0.14,0.551,0.653,47.127,-37.747,271.705,
41320540,0.202,0.498,0.572,70.035,-22.137,260.785,
41320550,0.568,0.32,0.107,87.92,4.042,246.785,
41320560,1.017,0.201,-0.422,124.705,47.6,232.365,
41320570,1.212,0.237,-0.663,139.317,70.402,191.397,
41320580,1.442,0.189,-0.836,82.32,51.59,91.367,
41320590,1.125,-0.942,-1.367,-25.515,31.832,-43.837,
41320600,0.251,-1.998,0.755,-57.575,-74.182,-166.197,
41320610,-0.735,-1.499,-1.997,133.42,-113.207,-23.59,
41320620,0.503,1.997,1.691,567.297,124.915,-18.865,
41320630,-1.936,1.9,1.873,419.405,8.312,18.27,
41320640,-0.002,-1.417,0.928,37.485,-69.44,-27.107,
41320650,0.142,-0.86,0.854,185.692,-67.217,-56.35,
41320660,-0.175,1.857,1.996,292.232,-51.817,-60.742,
41320670,0.416,-1.204,1.245,-44.257,-56.962,-30.345,
41320670,0.038,0.357,1.607,-50.26,-19.985,-36.277,
41320690,-0.008,-0.38,1.179,-136.622,-5.32,-30.135,
41320690,0.069,-0.632,0.97,-173.74,6.667,-39.165,
41320710,0.092,-0.451,1.04,-177.38,19.11,-48.23,
41320710,0.206,-0.598,1.028,-203.682,37.73,-52.377,
41320730,0.275,-0.614,1.003,-214.707,65.66,-52.727,
41320730,0.027,-0.484,0.765,-223.002,94.325,-53.007,
41320750,-0.02,-0.592,0.643,-252.56,87.727,-74.305,
41320750,0.123,-0.623,0.936,-279.79,82.88,-87.027,
41320760,0.001,-0.773,0.83,-279.86,80.447,-86.922,
41320770,0.153,-1.354,0.838,-273.805,89.985,-74.847,
41320780,0.193,-1.16,0.94,-242.865,105.91,-54.215,
41320790,-0.067,-1.166,1.027,-213.92,121.8,-41.37,
41320800,-0.59,-1.48,0.83,-188.107,116.112,-33.512,
41320810,-0.539,-1.351,0.925,-140.14,53.375,-57.837,
41320820,0.373,-1.364,1.054,-83.562,23.467,-71.855,
41320830,1.542,-1.774,0.513,-13.667,68.617,-61.775,
41320840,-0.255,-1.522,-0.285,151.76,54.565,-118.475,
41320850,-1.904,-0.466,-0.858,278.302,-10.99,-216.825,
41320860,-1.6,0.597,-1.178,311.465,-30.59,-189.927,
41320870,-1.015,1.102,-1.322,261.397,-7.297,-31.325,
41320880,-0.976,0.623,-0.887,122.01,-2.555,115.745,
41320890,-1.069,-0.343,-0.435,-17.955,-43.627,200.077,
41320900,-0.895,-1.01,-0.105,-58.555,-90.247,250.425,
41320910,-0.37,-0.894,0.041,-38.202,-130.2,282.082,
41320920,0.108,-0.082,0.019,-36.785,-162.61,298.217,
41320930,0.569,0.543,-0.146,-69.527,-156.94,307.965,
41320940,1.151,0.75,-0.166,-128.94,-102.655,297.64,
41320950,1.012,0.072,0.196,-63.962,-27.09,226.782,
41320960,1.491,-1.809,1.581,98.997,-133.542,-46.462,
41320970,-0.242,-1.998,-0.446,36.872,-173.495,-170.572,
41320980,0.005,-0.135,-0.058,443.31,33.652,-22.172,
41320990,-1.069,1.997,0.788,560.682,56.892,-41.545,
41321000,-0.826,-0.664,1.377,342.3,-46.252,-74.707,
41321010,-0.157,-0.944,1.199,371.875,-57.33,-97.79,
41321020,0.177,1.874,1.998,443.415,-56.7,-133.122,
41321030,0.848,0.001,1.831,170.975,-72.152,-76.58,
41321040,0.513,1.039,1.968,62.947,-31.167,-37.012,
41321050,0.214,0.107,1.754,-88.445,-1.085,2.8,
41321060,-0.036,-0.099,1.411,-193.655,16.695,9.292,
41321070,-0.094,-0.535,0.954,-237.02,25.025,2.975,
41321080,0.075,-0.67,0.71,-236.267,27.125,-10.972,
41321080,0.147,-0.686,0.729,-220.465,28.542,-12.337,
41321100,0.284,-0.748,0.692,-201.302,30.852,-3.255,
41321100,0.331,-0.562,0.674,-178.972,37.257,7.455,
41321120,0.241,-0.566,0.734,-179.97,47.897,13.335,
41321120,0.118,-0.704,0.834,-191.012,60.147,13.562,
41321140,0.252,-0.998,1.184,-204.12,87.587,13.3,
41321140,0.272,-1.195,1.03,-207.305,147.175,27.177,
41321150,0.221,-1.762,0.606,-187.075,208.162,47.04,
41321160,0.325,-1.998,0.517,-180.845,240.047,19.197,
41321170,0.148,-1.998,0.798,-125.86,167.282,-56.98,
41321180,1.837,-1.998,0.194,-9.24,54.81,-148.785,
41321190,0.459,-1.897,-0.844,181.807,43.137,-216.51,
41321200,-1.717,-1.003,-1.182,265.247,-65.852,-317.292,
41321210,-1.998,-0.453,-1.233,212.957,-120.645,-284.042,
41321220,-1.636,-0.101,-1.26,143.885,-100.24,-141.12,
41321230,-0.942,0.087,-0.937,71.26,-93.992,-17.395,
41321240,-1.087,0.223,-0.445,-21.192,-118.877,54.967,
41321250,-1.339,0.296,-0.137,-86.292,-128.292,129.307,
41321260,-0.844,0.371,0.199,-127.032,-110.442,197.277,
41321270,-0.241,0.414,0.339,-151.9,-97.282,243.197,
41321280,0.002,0.811,0.376,-149.45,-91.542,248.167,
41321290,0.227,1.306,0.276,-139.072,-87.85,232.05,
41321300,0.737,1.114,0.09,-163.572,-84.84,205.572,
41321310,1.151,0.175,-0.328,-141.61,-67.917,143.972,
41321320,1.998,-1.68,1.998,131.162,8.995,52.64,
41321330,0.153,-1.998,0.78,105.805,39.392,-61.932,
41321340,-1.032,-1.505,-1.651,375.795,-133.98,-16.537,
41321350,1.023,1.957,1.635,534.152,130.077,50.89,
41321360,-0.788,1.528,1.803,376.862,-2.747,46.602,
41321370,-0.769,-1.713,1.02,161.157,-65.502,10.85,
41321380,-0.147,-0.159,1.524,241.272,-38.272,-19.967,
41321390,0.245,0.967,1.136,203.455,-13.51,-28.577,
41321400,0.522,-1.107,1.29,-41.247,-42.91,14.42,
41321410,-1.058,0.237,1.482,-20.667,-16.327,-28.892,
41321420,0.359,-0.663,0.844,-92.102,-15.977,-53.812,
41321420,0.484,-0.665,0.774,-101.78,2.992,-53.725,
41321440,0.365,-0.547,0.883,-94.762,22.155,-34.177,
41321440,0.612,-0.483,1.02,-108.237,36.4,-11.2,
41321460,0.396,-0.43,1.107,-120.417,51.467,17.045,
41321460,0.262,-0.433,1.062,-144.917,65.887,37.87,
41321480,0.01,-0.507,0.957,-170.555,74.707,48.825,
41321480,-0.285,-0.374,1.044,-193.952,74.602,47.897,
41321500,-0.554,-0.239,1.19,-235.007,65.047,31.412,
41321500,-0.462,-0.48,1.006,-294.997,41.352,5.582,
41321510,-0.392,-0.832,0.94,-323.365,22.242,-5.932,
41321520,-0.173,-1.415,0.594,-337.19,13.492,-23.362,
41321530,-0.244,-1.609,0.87,-325.167,-2.257,-38.43,
41321540,-0.314,-1.69,1.16,-279.457,-44.852,-55.65,
41321550,-0.7,-0.872,0.758,-199.64,-25.725,-45.727,
41321560,-0.978,-0.985,1.112,-119.805,-26.372,-11.322,
