#Format version: 1.0
time[ms],accX[g],accY[g],accZ[g],Value 1,Value 2,Value 3,
47834620,-0.663,0.245,0.65,-3.01,-16.782,1.61,
47834630,-0.67,0.272,0.668,-2.205,-12.547,4.462,
47834640,-0.658,0.298,0.684,-2.73,-10.92,7.787,
47834650,-0.638,0.297,0.675,-6.352,-7.402,12.11,
47834660,-0.655,0.295,0.669,-7.577,-3.255,15.89,
47834670,-0.609,0.325,0.676,-7.315,2.52,17.412,
47834680,-0.627,0.346,0.686,-9.572,13.317,18.935,
47834690,-0.671,0.321,0.676,-14.822,23.695,19.652,
47834700,-0.639,0.316,0.656,-17.587,28.087,18.76,
47834710,-0.664,0.306,0.643,-18.97,33.827,17.605,
47834720,-0.719,0.286,0.639,-18.287,34.737,13.562,
47834730,-0.728,0.275,0.631,-14.507,29.645,11.025,
47834740,-0.769,0.28,0.609,-9.275,23.222,6.352,
47834750,-0.71,0.282,0.58,-2.887,15.575,1.172,
47834760,-0.792,0.317,0.633,1.645,6.685,-3.097,
47834770,-0.853,0.316,0.656,3.692,3.675,-6.965,
47834780,-0.757,0.297,0.565,3.395,-0.665,-9.87,
47834790,-0.747,0.239,0.542,6.107,-6.212,-10.062,
47834800,-0.836,0.223,0.602,13.79,-19.215,-14.49,
47834810,-0.741,0.27,0.63,23.31,-32.987,-21.14,
47834820,-0.656,0.299,0.625,27.44,-34.3,-24.062,
47834830,-0.71,0.304,0.639,25.847,-30.502,-21,
47834840,-0.778,0.326,0.684,20.457,-26.95,-15.172,
47834850,-0.733,0.322,0.659,11.865,-24.955,-10.85,
47834860,-0.634,0.298,0.625,3.255,-20.877,-5.18,
47834870,-0.677,0.271,0.647,-3.167,-14.787,-0.07,
47834880,-0.682,0.256,0.667,-5.635,-13.37,2.485,
47834890,-0.637,0.284,0.682,-5.757,-12.215,5.197,
47834900,-0.654,0.283,0.677,-6.265,-6.072,9.275,
47834910,-0.672,0.299,0.665,-5.267,-2.082,13.037,
47834910,-0.654,0.319,0.668,-4.445,0.105,13.615,
47834920,-0.619,0.366,0.679,-7.105,5.477,13.842,
47834930,-0.675,0.335,0.663,-15.102,17.867,16.03,
47834940,-0.676,0.287,0.635,-19.285,23.17,15.207,
47834950,-0.634,0.28,0.629,-17.29,25.935,14.595,
47834960,-0.656,0.265,0.63,-13.037,30.24,12.495,
47834970,-0.707,0.224,0.64,-7.7,29.767,9.152,
47834980,-0.712,0.234,0.649,2.24,28.087,6.195,
47834990,-0.667,0.247,0.609,11.585,27.142,2.187,
47835000,-0.675,0.298,0.635,19.337,30.957,1.33,
47835010,-0.781,0.303,0.665,20.51,34.877,1.277,
47835020,-0.817,0.24,0.637,22.172,28.84,-4.095,
47835030,-0.698,0.248,0.622,32.637,18.217,-11.34,
47835040,-0.677,0.278,0.641,43.54,14.507,-15.4,
47835050,-0.708,0.311,0.671,48.177,15.575,-20.16,
47835060,-0.738,0.297,0.657,51.992,15.732,-20.79,
47835070,-0.715,0.31,0.624,56.332,15.33,-22.4,
47835080,-0.738,0.341,0.591,60.165,13.912,-24.097,
47835090,-0.77,0.373,0.577,63.245,10.36,-25.55,
47835100,-0.772,0.411,0.563,64.837,1.697,-24.115,
47835110,-0.736,0.46,0.584,65.905,-7.542,-22.487,
47835120,-0.719,0.425,0.589,65.485,-10.675,-29.855,
47835130,-0.725,0.436,0.621,68.757,-10.552,-23.712,
47835140,-0.719,0.482,0.626,65.66,-9.117,-23.31,
47835150,-0.694,0.463,0.605,58.642,-5.46,-26.355,
47835160,-0.698,0.446,0.597,52.675,-0.35,-26.915,
47835170,-0.714,0.467,0.596,47.74,2.87,-27.265,
47835180,-0.676,0.475,0.585,38.447,3.71,-29.032,
47835190,-0.646,0.45,0.561,26.845,4.707,-29.487,
47835200,-0.62,0.444,0.544,14.035,9.135,-28.455,
47835210,-0.635,0.408,0.511,0.735,17.5,-26.092,
47835220,-0.648,0.396,0.489,-9.66,28.07,-20.37,
47835230,-0.75,0.366,0.496,-16.397,38.132,-13.072,
47835240,-0.817,0.367,0.509,-19.915,46.042,-7.98,
47835250,-0.836,0.36,0.497,-22.715,49.77,-2.572,
47835260,-0.863,0.367,0.481,-24.202,51.572,4.042,
47835260,-0.882,0.35,0.463,-25.655,50.155,7.717,
47835280,-0.889,0.35,0.45,-25.095,45.972,9.572,
47835280,-0.858,0.349,0.453,-24.22,39.34,9.152,
47835300,-0.867,0.377,0.448,-26.932,35,9.957,
47835300,-0.829,0.382,0.458,-33.722,30.24,8.225,
47835320,-0.812,0.388,0.448,-42.28,26.897,8.837,
47835320,-0.78,0.376,0.415,-53.252,29.207,13.317,
47835330,-0.779,0.339,0.398,-61.092,38.5,15.137,
47835340,-0.789,0.325,0.396,-67.235,49.245,14.577,
47835350,-0.834,0.3,0.386,-72.415,60.567,17.132,
47835360,-0.888,0.265,0.367,-75.722,66.307,19.827,
47835370,-0.946,0.21,0.332,-76.422,66.587,26.285,
47835380,-0.977,0.194,0.319,-73.465,65.047,30.975,
47835390,-0.975,0.174,0.304,-68.827,62.142,32.357,
47835400,-1.003,0.168,0.298,-63.245,57.487,32.27,
47835410,-1.022,0.176,0.295,-59.045,50.505,33.652,
47835420,-0.987,0.181,0.292,-57.837,41.877,34.125,
47835430,-0.964,0.174,0.293,-59.99,35.595,34.212,
47835440,-0.977,0.161,0.275,-63.507,29.575,34.877,
47835450,-0.997,0.1,0.257,-61.267,21.787,35.63,
47835460,-1.04,0.049,0.258,-49.367,7.437,40.74,
47835470,-1.002,0.074,0.317,-32.637,-9.467,49.577,
47835480,-0.982,0.167,0.393,-21.875,-22.995,52.762,
47835490,-0.935,0.228,0.459,-19.617,-35.14,52.745,
47835500,-0.833,0.269,0.496,-23.87,-44.45,54.582,
47835510,-0.82,0.3,0.546,-28.227,-49.105,56.822,
47835520,-0.795,0.31,0.582,-33.862,-53.112,60.287,
47835530,-0.798,0.319,0.599,-34.16,-57.277,53.725,
47835540,-0.759,0.308,0.625,-27.265,-58.852,46.777,
47835550,-0.704,0.308,0.642,-17.185,-58.835,42.857,
47835560,-0.724,0.365,0.673,-6.405,-56.507,37.345,
47835570,-0.751,0.387,0.668,-0.507,-55.405,32.13,
47835580,-0.694,0.382,0.627,3.5,-53.025,27.405,
47835590,-0.623,0.395,0.59,8.907,-44.485,24.85,
47835600,-0.615,0.422,0.57,14.175,-30.152,22.925,
47835600,-0.63,0.434,0.57,15.96,-15.837,20.072,
47835620,-0.658,0.453,0.578,14.28,-5.18,16.975,
47835620,-0.678,0.441,0.582,9.135,-1.032,12.04,
47835640,-0.704,0.398,0.572,3.832,-1.995,6.842,
47835640,-0.711,0.357,0.549,0.175,-7.21,2.047,
47835660,-0.708,0.339,0.537,0.157,-12.005,-0.84,
47835660,-0.692,0.32,0.534,0.367,-12.39,0.595,
47835670,-0.72,0.32,0.534,-0.07,-4.83,2.52,
47835680,-0.757,0.31,0.548,-2.59,5.285,4.27,
47835690,-0.792,0.292,0.548,-6.387,14.752,7.385,
47835700,-0.798,0.282,0.543,-8.382,20.597,10.395,
47835710,-0.791,0.285,0.541,-6.125,24.745,14.945,
47835720,-0.773,0.307,0.542,-2.187,28.157,19.53,
47835730,-0.783,0.314,0.539,2.012,30.852,21.455,
47835740,-0.797,0.336,0.529,6.667,30.695,19.845,
47835750,-0.815,0.361,0.526,12.022,28.63,15.505,
47835760,-0.843,0.374,0.512,16.03,22.75,11.042,
47835770,-0.863,0.392,0.495,18.392,15.032,6.387,
47835780,-0.864,0.406,0.47,18.217,5.827,1.627,
47835790,-0.859,0.411,0.45,17.482,-3.062,-2.415,
47835800,-0.86,0.413,0.45,17.412,-11.62,-6.632,
47835810,-0.873,0.398,0.442,18.305,-19.022,-11.025,
47835820,-0.876,0.398,0.434,21.315,-25.392,-18.06,
47835830,-0.815,0.424,0.451,25.217,-29.522,-25.515,
47835840,-0.748,0.426,0.463,26.407,-30.1,-29.837,
47835850,-0.676,0.425,0.486,25.777,-25.217,-30.607,
47835860,-0.62,0.434,0.508,22.522,-14.35,-27.02,
47835870,-0.681,0.409,0.504,15.4,-0.472,-19.495,
47835880,-0.736,0.402,0.508,10.342,11.287,-15.155,
47835890,-0.762,0.392,0.523,7.717,16.852,-14.472,
47835900,-0.805,0.395,0.545,5.915,15.347,-13.737,
47835910,-0.816,0.396,0.554,4.62,5.635,-11.69,
47835920,-0.789,0.4,0.557,4.427,-7.857,-10.482,
47835930,-0.721,0.402,0.54,4.76,-20.02,-8.522,
47835940,-0.664,0.411,0.508,3.745,-20.492,-10.29,
47835950,-0.681,0.403,0.51,1.522,-11.707,-13.335,
47835960,-0.748,0.384,0.514,-0.157,-2.1,-14.7,
47835970,-0.779,0.374,0.515,-0.087,2.1,-14.122,
47835980,-0.781,0.374,0.508,0.017,3.657,-12.022,
47835990,-0.785,0.361,0.497,-0.91,3.237,-10.605,
47836000,-0.785,0.353,0.499,-0.735,2.887,-9.03,
47836010,-0.753,0.37,0.51,-0.49,3.71,-8.155,
47836010,-0.763,0.359,0.494,-2.1,8.277,-6.562,
47836030,-0.813,0.322,0.477,-2.59,11.305,-3.132,
47836030,-0.854,0.32,0.487,0.665,11.13,1.295,
47836050,-0.848,0.335,0.486,4.025,7.192,3.622,
47836050,-0.836,0.34,0.475,5.827,3.447,3.885,
47836070,-0.839,0.35,0.459,6.965,-1.015,2.677,
47836070,-0.848,0.364,0.457,8.522,-6.037,1.172,
47836080,-0.847,0.391,0.458,9.572,-12.25,-0.63,
47836090,-0.826,0.404,0.454,7.945,-17.307,-2.205,
47836100,-0.804,0.41,0.449,4.97,-20.177,-2.502,
47836110,-0.798,0.424,0.461,1.557,-20.65,-2.03,
47836120,-0.783,0.43,0.476,-2.73,-21.087,-1.645,
47836130,-0.782,0.42,0.488,-8.242,-20.3,-1.225,
47836140,-0.784,0.399,0.495,-13.597,-20.002,-1.54,
47836150,-0.77,0.369,0.496,-16.572,-20.23,-1.802,
47836160,-0.749,0.364,0.512,-16.485,-19.775,-0.507,
47836170,-0.734,0.376,0.529,-16.45,-16.747,1.47,
47836180,-0.732,0.365,0.534,-17.552,-12.635,2.152,
47836190,-0.734,0.357,0.531,-17.552,-8.33,1.522,
47836200,-0.741,0.363,0.521,-16.082,-4.777,-0.07,
47836210,-0.771,0.368,0.517,-15.645,-2.87,-2.345,
47836220,-0.806,0.385,0.511,-16.975,-3.342,-5.775,
47836230,-0.839,0.392,0.493,-19.88,-7.192,-9.712,
47836240,-0.825,0.384,0.499,-22.977,-12.407,-12.652,
47836250,-0.808,0.376,0.516,-25.847,-16.187,-13.02,
47836260,-0.802,0.347,0.528,-28.507,-17.657,-11.287,
47836270,-0.783,0.298,0.54,-28.332,-17.622,-8.452,
47836280,-0.776,0.264,0.547,-24.36,-15.12,-4.13,
47836290,-0.779,0.259,0.546,-17.29,-14.56,-2.205,
47836300,-0.77,0.29,0.554,-11.077,-15.47,-2.275,
47836310,-0.794,0.319,0.532,-10.185,-17.692,-2.047,
47836320,-0.811,0.31,0.507,-10.517,-21.017,-2.432,
47836330,-0.808,0.335,0.525,-8.767,-24.745,-2.362,
47836330,-0.834,0.339,0.541,-9.782,-29.4,-0.98,
47836350,-0.818,0.315,0.546,-11.042,-36.05,-0.052,
47836350,-0.791,0.315,0.557,-9.625,-39.76,0.262,
47836370,-0.774,0.318,0.571,-8.207,-41.107,1.4,
47836370,-0.729,0.307,0.568,-6.825,-38.885,2.205,
47836390,-0.687,0.313,0.586,-4.375,-33.792,3.587,
47836390,-0.673,0.32,0.596,-3.762,-25.847,4.182,
47836410,-0.699,0.313,0.587,-3.622,-19.25,3.622,
47836410,-0.734,0.316,0.581,-2.432,-15.33,2.835,
47836420,-0.778,0.337,0.571,-1.225,-14.717,2.205,
47836430,-0.821,0.376,0.544,-2.905,-18.935,0.122,
47836440,-0.73,0.239,0.609,-6.492,-22.96,-1.942,
47836450,-0.796,0.204,0.647,5.337,-15.487,1.032,
47836460,-0.567,0.284,0.622,17.622,-13.79,-0.455,
47836470,-0.595,0.278,0.629,19.687,-6.177,-0.945,
47836480,-0.667,0.306,0.66,19.705,1.802,-1.382,
47836490,-0.72,0.295,0.649,21.332,3.587,-1.33,
47836500,-0.709,0.31,0.605,27.125,4.06,-1.925,
47836510,-0.721,0.373,0.571,29.855,5.197,-2.1,
47836520,-0.779,0.389,0.561,25.567,4.812,-2.73,
47836530,-0.828,0.386,0.554,20.072,-0.525,-2.502,
47836540,-0.771,0.41,0.532,15.925,-6.93,-1.557,
47836550,-0.76,0.406,0.522,9.555,-8.68,0.787,
47836560,-0.794,0.362,0.535,2.817,-11.707,2.8,
47836570,-0.756,0.338,0.558,0.647,-16.782,4.287,
47836580,-0.743,0.331,0.583,1.697,-19.197,5.547,
47836590,-0.714,0.329,0.599,2.52,-19.967,6.09,
47836600,-0.703,0.318,0.6,2.415,-19.635,7.07,
47836610,-0.7,0.349,0.615,1.767,-18.62,7.84,
47836620,-0.693,0.337,0.614,-1.697,-17.36,8.592,
47836630,-0.682,0.35,0.607,-3.85,-15.697,10.01,
47836640,-0.687,0.377,0.607,-6.65,-12.022,9.625,
47836650,-0.669,0.464,0.515,-10.517,-8.452,7.647,
47836660,-0.803,0.483,0.562,-21.56,-5.547,6.23,
47836670,-0.876,0.39,0.58,-27.947,-14.927,-2.397,
47836680,-0.734,0.402,0.615,-26.232,-20.86,-3.325,
47836690,-0.708,0.343,0.645,-25.847,-22.715,-3.097,
47836700,-0.584,0.305,0.661,-23.572,-17.535,-2.59,
47836710,-0.594,0.291,0.656,-21.665,-9.73,-1.277,
47836720,-0.652,0.278,0.659,-16.957,-1.907,-1.522,
47836730,-0.705,0.255,0.645,-10.797,1.785,-1.697,
47836740,-0.694,0.294,0.616,-4.602,4.095,-0.805,
47836750,-0.783,0.29,0.586,-3.237,3.762,0.105,
47836760,-0.816,0.298,0.575,-1.96,-1.12,-0.717,
47836760,-0.817,0.316,0.574,-0.525,-7.385,-1.12,
47836780,-0.785,0.318,0.577,-0.28,-12.425,-0.787,
47836780,-0.744,0.316,0.593,-0.525,-16.87,-1.225,
47836800,-0.693,0.311,0.604,-0.367,-16.782,-0.682,
47836800,-0.696,0.267,0.696,0.962,-13.545,0.035,
47836820,-0.663,0.201,0.683,8.207,-10.762,-1.697,
47836820,-0.524,0.294,0.659,19.075,-1.155,-1.295,
47836830,-0.653,0.292,0.648,20.422,10.342,-2.012,
47836840,-0.729,0.3,0.628,23.152,12.565,-2.327,
47836850,-0.729,0.356,0.588,26.775,11.252,-2.765,
47836860,-0.805,0.39,0.566,26.145,6.895,-2.257,
47836870,-0.803,0.412,0.566,22.067,0.962,-1.26,
47836880,-0.787,0.395,0.572,14.857,-6.737,-0.577,
47836890,-0.683,0.396,0.585,10.465,-11.2,0.28,
47836900,-0.672,0.392,0.585,6.16,-10.255,1.802,
47836910,-0.674,0.383,0.61,1.995,-7.647,2.187,
47836920,-0.666,0.361,0.615,-1.242,-5.932,1.452,
47836930,-0.67,0.353,0.618,-2.415,-3.71,1.557,
47836940,-0.693,0.342,0.623,-2.73,-1.872,2.45,
47836950,-0.725,0.34,0.611,-3.132,-1.995,4.095,
47836960,-0.743,0.338,0.605,-3.15,-4.515,5.197,
47836970,-0.73,0.348,0.606,-3.115,-8.347,6.02,
47836980,-0.721,0.341,0.614,-5.04,-11.235,6.93,
47836990,-0.692,0.33,0.63,-7.157,-12.845,8.225,
47837000,-0.601,0.438,0.505,-8.697,-10.657,11.007,
47837010,-0.747,0.496,0.592,-21.717,-2.747,15.61,
47837020,-0.859,0.384,0.613,-31.78,-8.225,13.772,
47837030,-0.73,0.38,0.608,-31.482,-12.442,17.99,
47837040,-0.79,0.298,0.623,-27.16,-16.607,18.13,
47837050,-0.681,0.324,0.656,-21.437,-23.712,13.877,
47837060,-0.624,0.33,0.647,-15.715,-21.927,9.047,
47837070,-0.609,0.323,0.66,-12.582,-14.752,8.61,
47837080,-0.645,0.284,0.671,-10.692,-8.697,5.32,
47837080,-0.63,0.265,0.663,-7.595,-4.532,3.01,
47837100,-0.681,0.262,0.64,-3.167,-0.472,0.525,
47837100,-0.743,0.304,0.623,2.642,0.21,-0.735,
47837120,-0.777,0.347,0.605,4.392,-1.295,-1.645,
47837120,-0.762,0.354,0.584,3.08,-6.545,-2.415,
47837140,-0.744,0.363,0.593,2.66,-10.85,-2.87,
47837140,-0.719,0.332,0.658,3.237,-13.702,-3.202,
47837160,-0.725,0.238,0.672,8.015,-14.402,-4.602,
47837160,-0.576,0.308,0.7,17.955,-9.747,-4.2,
47837170,-0.656,0.268,0.652,18.48,-5.145,-7.157,
47837180,-0.614,0.272,0.628,24.027,-1.89,-8.382,
47837190,-0.663,0.356,0.628,26.775,2.205,-6.632,
47837200,-0.76,0.32,0.617,24.325,-0.035,-4.917,
47837210,-0.722,0.362,0.596,25.655,-5.967,-3.57,
47837220,-0.697,0.407,0.576,23.905,-8.925,-2.45,
47837230,-0.773,0.401,0.633,18.007,-10.447,-0.385,
47837240,-0.697,0.385,0.659,14.752,-14.787,-0.017,
47837250,-0.62,0.4,0.631,12.915,-13.51,0.437,
47837260,-0.636,0.385,0.626,8.47,-9.012,0.752,
47837270,-0.636,0.383,0.63,5.04,-4.917,0.56,
47837280,-0.666,0.379,0.626,2.257,-1.102,0.437,
47837290,-0.682,0.383,0.63,0.42,0.857,0.087,
47837300,-0.699,0.379,0.634,-1.89,1.295,0.297,
47837310,-0.688,0.365,0.63,-3.062,1.4,0.612,
47837320,-0.665,0.359,0.626,-1.767,2.415,0.175,
47837330,-0.665,0.38,0.63,-1.312,3.885,0.035,
47837340,-0.683,0.364,0.624,-4.497,4.322,0.752,
47837350,-0.695,0.349,0.617,-5.845,2.73,1.575,
47837360,-0.709,0.362,0.625,-5.512,1.365,2.047,
47837370,-0.721,0.354,0.634,-6.317,-1.102,1.68,
47837380,-0.7,0.343,0.635,-6.475,-3.937,0.892,
47837390,-0.617,0.413,0.531,-6.632,-4.235,0.927,
47837400,-0.759,0.477,0.598,-16.31,2.222,4.305,
47837410,-0.801,0.368,0.635,-25.427,-6.982,1.575,
47837420,-0.674,0.368,0.63,-22.82,-10.692,1.05,
47837430,-0.608,0.341,0.628,-20.09,-9.17,-0.875,
47837440,-0.633,0.374,0.652,-21,-5.407,0.315,
47837450,-0.673,0.369,0.648,-25.287,-2.782,1.137,
47837460,-0.686,0.322,0.637,-27.405,-1.54,0.77,
47837470,-0.687,0.301,0.625,-23.73,-1.225,0.315,
47837480,-0.723,0.309,0.633,-20.597,-1.365,-0.035,
47837490,-0.758,0.254,0.652,-18.655,-6.527,-1.4,
47837500,-0.715,0.252,0.681,-11.497,-9.817,-1.61,
47837510,-0.656,0.266,0.655,-4.305,-10.552,-1.61,
47837510,-0.642,0.278,0.653,0.507,-7.805,-1.855,
47837530,-0.654,0.304,0.653,2.747,-4.865,-2.275,
47837530,-0.68,0.323,0.636,4.27,-1.61,-1.715,
47837550,-0.676,0.349,0.637,5.775,0.525,-1.347,
47837550,-0.651,0.363,0.635,4.725,4.322,-1.557,
47837570,-0.627,0.343,0.667,2.8,10.115,-3.395,
47837570,-0.666,0.208,0.734,4.707,15.68,-7.647,
47837580,-0.515,0.228,0.74,19.617,20.597,-14.157,
47837590,-0.537,0.279,0.726,31.027,30.222,-20.177,
47837600,-0.513,0.305,0.665,34.457,40.565,-25.095,
47837610,-0.719,0.327,0.633,36.645,50.645,-23.765,
47837620,-0.846,0.399,0.598,34.037,47.04,-22.4,
47837630,-0.807,0.421,0.544,24.342,34.597,-17.29,
47837640,-0.868,0.436,0.496,11.532,27.492,-7.525,
47837650,-0.879,0.432,0.479,0.035,21.21,-0.157,
47837660,-0.9,0.401,0.478,-8.085,12.897,5.442,
47837670,-0.885,0.362,0.524,-10.29,1.452,6.16,
47837680,-0.763,0.344,0.557,-7.962,-9.24,4.585,
47837690,-0.685,0.333,0.583,-7.245,-13.072,3.15,
47837700,-0.665,0.322,0.616,-7.822,-11.095,1.137,
47837710,-0.682,0.328,0.636,-7.262,-5.862,-0.017,
47837720,-0.697,0.345,0.63,-6.982,-0.052,-0.14,
47837730,-0.702,0.354,0.617,-8.12,3.675,-0.682,
47837740,-0.714,0.358,0.605,-10.097,6.335,-1.627,
47837750,-0.739,0.343,0.592,-11.34,6.545,-2.502,
47837760,-0.749,0.331,0.585,-11.27,5.215,-2.38,
47837770,-0.706,0.368,0.514,-11.602,3.045,-1.505,
47837780,-0.758,0.372,0.519,-19.232,5.04,1.592,
47837790,-0.895,0.289,0.573,-23.117,-4.9,-2.765,
47837800,-0.803,0.36,0.561,-19.092,-13.842,-1.802,
47837810,-0.797,0.344,0.576,-21.245,-21.157,-2.362,
47837820,-0.765,0.317,0.619,-22.347,-24.99,-3.202,
47837830,-0.705,0.277,0.635,-22.627,-25.515,-0.98,
47837830,-0.639,0.265,0.649,-17.43,-21.122,-0.542,
47837850,-0.649,0.243,0.664,-12.11,-15.417,-0.63,
47837850,-0.651,0.287,0.653,-7.052,-8.47,-2.03,
47837870,-0.683,0.28,0.622,-6.282,-3.727,-1.435,
47837870,-0.764,0.295,0.61,-5.057,-1.33,0,
47837890,-0.78,0.288,0.601,-3.92,-4.025,1.032,
47837890,-0.757,0.294,0.596,-1.522,-6.422,1.505,
47837910,-0.729,0.288,0.603,-0.49,-9.082,2.152,
47837910,-0.715,0.282,0.614,1.33,-9.047,2.66,
47837920,-0.718,0.294,0.619,3.92,-7.875,3.797,
47837930,-0.724,0.317,0.622,5.985,-6.457,4.305,
47837940,-0.726,0.336,0.617,6.23,-5.267,4.147,
47837950,-0.735,0.345,0.605,5.547,-3.202,3.342,
47837960,-0.706,0.302,0.678,4.935,-1.277,2.24,
47837970,-0.734,0.14,0.654,11.83,0.717,-0.647,
47837980,-0.572,0.247,0.633,28.857,6.545,2.1,
47837990,-0.719,0.266,0.642,34.09,10.447,1.732,
47838000,-0.742,0.293,0.625,36.487,9.012,0.717,
47838010,-0.721,0.364,0.589,36.137,7.14,-1.4,
47838020,-0.752,0.385,0.589,30.957,7.875,-1.207,
47838030,-0.727,0.427,0.573,22.785,7.437,-0.665,
47838040,-0.775,0.413,0.559,10.762,7.35,2.047,
47838050,-0.774,0.402,0.574,1.47,3.815,3.307,
47838060,-0.756,0.383,0.589,-4.637,-0.997,2.87,
47838070,-0.711,0.344,0.587,-7.437,-4.917,1.942,
47838080,-0.68,0.328,0.583,-6.947,-6.23,1.277,
47838090,-0.691,0.329,0.614,-4.725,-5.985,-0.105,
47838100,-0.713,0.329,0.619,-4.602,-3.5,-0.437,
47838110,-0.72,0.333,0.623,-6.457,-1.925,-0.49,
47838120,-0.75,0.327,0.603,-9.205,-1.75,-0.542,
47838130,-0.634,0.432,0.534,-17.465,-2.1,-0.84,
47838140,-0.787,0.314,0.529,-30.537,-0.805,-1.032,
47838150,-0.855,0.407,0.57,-28.315,-6.632,1.522,
47838160,-0.818,0.405,0.576,-30.205,-14.752,0,
47838170,-0.781,0.324,0.616,-30.765,-20.912,-2.24,
47838180,-0.72,0.328,0.628,-29.907,-22.015,1.365,
47838190,-0.675,0.259,0.645,-27.65,-21.682,0.402,
47838200,-0.61,0.289,0.653,-21.542,-16.327,1.697,
47838210,-0.66,0.236,0.656,-18.83,-10.045,1.592,
47838220,-0.63,0.287,0.635,-14.7,-3.045,0.7,
47838230,-0.713,0.305,0.625,-14.437,2.555,2.625,
47838240,-0.801,0.242,0.618,-14.035,1.855,3.202,
47838250,-0.766,0.319,0.603,-9.817,-2.117,4.462,
47838260,-0.802,0.257,0.61,-10.412,-6.877,3.85,
47838260,-0.714,0.306,0.611,-6.72,-11.882,3.15,
47838280,-0.733,0.288,0.621,-7.42,-12.407,4.27,
47838280,-0.716,0.268,0.646,-5.512,-13.667,1.487,
47838300,-0.674,0.269,0.658,-1.785,-12.145,0.857,
47838300,-0.651,0.284,0.651,2.677,-8.452,-0.98,
47838320,-0.667,0.303,0.647,4.847,-3.64,-0.735,
47838320,-0.706,0.309,0.637,5.162,-1.102,-1.592,
47838330,-0.725,0.31,0.624,6.212,-0.035,-2.31,
47838340,-0.735,0.314,0.618,8.96,0.35,-3.097,
47838350,-0.743,0.336,0.613,10.92,0.525,-4.427,
47838360,-0.753,0.347,0.609,9.24,-1.4,-6.387,
47838370,-0.753,0.323,0.629,6.23,-3.867,-8.172,
47838380,-0.733,0.271,0.64,5.302,-6.142,-9.38,
47838390,-0.686,0.256,0.643,8.382,-6.247,-9.38,
47838400,-0.651,0.261,0.645,10.675,-3.377,-8.4,
47838410,-0.665,0.26,0.644,11.13,0.56,-6.772,
47838420,-0.684,0.255,0.646,13.107,4.095,-5.11,
47838430,-0.7,0.255,0.65,16.362,5.775,-4.55,
47838440,-0.689,0.272,0.631,19.845,7.017,-4.97,
47838450,-0.713,0.34,0.611,20.387,8.61,-4.252,
47838460,-0.787,0.331,0.595,15.137,8.26,-2.625,
47838470,-0.778,0.353,0.581,11.847,3.937,-1.575,
47838480,-0.78,0.357,0.576,7.91,0.595,-1.155,
47838490,-0.762,0.338,0.573,4.095,-3.412,-1.085,
47838500,-0.744,0.335,0.581,1.417,-5.057,-2.52,
47838510,-0.756,0.346,0.606,-0.682,-7.017,-4.357,
47838520,-0.718,0.329,0.63,-2.677,-10.64,-2.87,
47838530,-0.687,0.318,0.645,-3.78,-13.492,-1.312,
47838540,-0.653,0.319,0.65,-6.142,-12.232,0.035,
47838550,-0.654,0.316,0.652,-10.185,-9.397,1.925,
47838560,-0.652,0.348,0.609,-14.682,-4.865,4.567,
47838570,-0.683,0.388,0.567,-21.98,-0.21,5.722,
47838580,-0.793,0.358,0.58,-28.437,0.402,4.707,
47838580,-0.796,0.327,0.615,-27.632,-3.78,4.375,
47838600,-0.743,0.317,0.652,-23.187,-5.635,4.847,
47838600,-0.641,0.278,0.662,-20.562,-5.932,5.652,
47838620,-0.602,0.279,0.658,-18.392,-0.245,8.907,
47838620,-0.619,0.278,0.676,-17.29,7.682,10.342,
47838640,-0.657,0.195,0.661,-14.14,13.93,10.902,
47838640,-0.655,0.264,0.625,-6.37,19.6,8.82,
47838660,-0.78,0.249,0.592,-4.375,21.997,5.285,
47838660,-0.829,0.259,0.607,-0.28,16.502,2.572,
47838670,-0.83,0.257,0.585,5.355,8.05,0.665,
47838680,-0.803,0.294,0.577,11.742,0.525,-1.785,
47838690,-0.797,0.294,0.576,12.775,-4.9,-4.042,
47838700,-0.784,0.293,0.589,11.812,-9.59,-4.095,
47838710,-0.756,0.3,0.598,11.462,-11.83,-3.132,
47838720,-0.734,0.309,0.615,11.322,-11.48,-3.08,
47838730,-0.704,0.323,0.626,9.17,-9.572,-2.607,
47838740,-0.702,0.317,0.663,5.705,-6.492,-1.505,
47838750,-0.719,0.184,0.665,6.475,-7,-1.96,
47838760,-0.563,0.349,0.649,16.065,-2.712,-0.77,
47838770,-0.728,0.296,0.613,11.322,5.81,0.63,
47838780,-0.756,0.308,0.594,9.835,6.23,2.205,
47838790,-0.783,0.329,0.574,9.59,3.447,1.837,
47838800,-0.792,0.32,0.579,8.925,-0.84,2.327,
47838810,-0.783,0.352,0.594,6.492,-5.985,3.115,
47838820,-0.767,0.333,0.598,1.137,-9.8,2.975,
47838830,-0.712,0.319,0.614,-1.172,-12.827,2.555,
47838840,-0.682,0.307,0.635,-1.242,-12.722,1.277,
47838850,-0.681,0.292,0.632,-0.612,-10.832,-0.07,
47838860,-0.699,0.296,0.628,0.577,-8.417,-0.35,
47838870,-0.718,0.304,0.624,0.455,-7.997,0.7,
47838880,-0.727,0.315,0.62,-2.397,-8.715,2.485,
47838890,-0.739,0.325,0.597,-7.017,-11.06,4.917,
47838900,-0.736,0.366,0.587,-12.477,-14.192,7.472,
47838910,-0.766,0.33,0.619,-17.937,-19.425,8.697,
47838920,-0.747,0.328,0.632,-17.64,-20.422,10.36,
47838930,-0.708,0.326,0.622,-16.695,-20.895,11.427,
47838940,-0.705,0.331,0.614,-16.887,-21.157,13.44,
47838950,-0.675,0.375,0.62,-18.672,-20.335,15.855,
47838960,-0.698,0.34,0.639,-24.115,-16.87,18.952,
47838970,-0.697,0.308,0.648,-27.072,-15.242,22.242,
47838980,-0.634,0.334,0.645,-27.405,-10.78,23.45,
47838990,-0.674,0.274,0.647,-28.787,-5.337,23.152,
47839000,-0.688,0.282,0.643,-25.917,-2.975,22.33,
47839010,-0.721,0.294,0.666,-24.22,-1.89,21.892,
47839010,-0.709,0.245,0.674,-22.627,-2.397,20.65,
47839020,-0.657,0.274,0.651,-18.27,-3.57,19.285,
47839030,-0.682,0.271,0.652,-14.385,-2.677,15.312,
47839040,-0.734,0.252,0.667,-10.36,-4.427,12.792,
47839050,-0.691,0.287,0.659,-3.902,-8.505,6.702,
47839060,-0.685,0.311,0.648,0.98,-8.89,2.275,
47839070,-0.744,0.313,0.643,2.835,-9.555,0.595,
47839080,-0.736,0.318,0.635,3.237,-13.142,0.367,
47839090,-0.716,0.287,0.636,3.622,-15.592,-0.857,
47839100,-0.687,0.265,0.643,7.052,-15.925,-0.665,
47839110,-0.647,0.269,0.665,11.69,-13.86,-0.315,
47839120,-0.632,0.268,0.679,14.315,-9.292,0.7,
47839130,-0.613,0.269,0.685,15.662,-2.782,1.382,
47839140,-0.64,0.26,0.685,17.622,4.812,1.137,
47839150,-0.67,0.235,0.729,20.842,11.515,-1.575,
47839160,-0.655,0.175,0.689,29.977,15.26,-7.175,
47839170,-0.586,0.301,0.668,41.912,24.85,-12.88,
47839180,-0.736,0.292,0.635,42.542,36.785,-19.722,
47839190,-0.781,0.217,0.532,42.525,44.397,-33.215,
47839200,-0.835,0.245,0.514,47.6,49.437,-45.255,
47839210,-0.901,0.212,0.504,54.477,53.742,-47.04,
47839220,-0.977,0.262,0.488,60.305,51.485,-51.012,
47839230,-0.965,0.28,0.479,58.887,43.032,-55.545,
47839240,-0.969,0.263,0.458,53.025,32.777,-59.885,
47839250,-0.974,0.239,0.432,47.635,20.055,-62.685,
47839260,-0.932,0.2,0.406,45.745,7.367,-64.4,
47839270,-0.871,0.184,0.419,48.895,-3.955,-63.14,
47839280,-0.848,0.216,0.49,56.245,-12.985,-59.325,
47839290,-0.695,0.328,0.559,64.33,-19.897,-55.09,
47839300,-0.588,0.408,0.625,66.185,-13.632,-49.385,
47839310,-0.496,0.445,0.629,58.73,3.447,-41.86,
47839320,-0.487,0.442,0.617,43.977,34.632,-30.975,
47839330,-0.574,0.441,0.609,27.475,65.73,-21.175,
47839330,-0.628,0.421,0.585,10.115,87.832,-11.952,
47839350,-0.751,0.421,0.573,0.77,93.38,-3.167,
47839350,-0.8,0.365,0.597,-4.83,79.275,4.585,
47839370,-0.829,0.391,0.603,-3.552,52.325,6.37,
47839370,-0.845,0.402,0.615,-1.295,22.872,6.597,
47839390,-0.798,0.429,0.589,1.33,-6.055,4.882,
47839390,-0.743,0.443,0.558,4.707,-26.547,7.56,
47839410,-0.679,0.488,0.516,6.072,-33.827,10.762,
47839410,-0.719,0.504,0.53,6.142,-27.597,12.81,
47839420,-0.763,0.517,0.553,0.805,-16.17,10.167,
47839430,-0.766,0.493,0.555,-8.207,-5.39,2.87,
47839440,-0.704,0.451,0.549,-15.802,1.207,-2.31,
47839450,-0.682,0.448,0.555,-20.597,5.705,-0.647,
47839460,-0.727,0.457,0.577,-25.06,7.63,3.552,
47839470,-0.749,0.409,0.571,-29.277,4.27,8.995,
47839480,-0.735,0.346,0.554,-30.957,0.245,12.337,
47839490,-0.716,0.33,0.529,-29.417,0.227,12.145,
47839500,-0.722,0.343,0.541,-29.207,6.457,11.585,
47839510,-0.755,0.359,0.554,-33.722,15.137,11.182,
47839520,-0.811,0.337,0.534,-40.407,21.297,11.077,
47839530,-0.833,0.304,0.508,-46.427,23.572,13.545,
47839540,-0.826,0.271,0.477,-49.507,26.162,16.887,
47839550,-0.827,0.236,0.478,-48.772,28.875,19.775,
47839560,-0.821,0.228,0.497,-43.155,31.395,23.712,
47839570,-0.714,0.269,0.527,-38.36,34.58,26.005,
47839580,-0.712,0.249,0.494,-37.362,42.28,26.46,
47839590,-0.818,0.255,0.511,-34.195,49.997,22.032,
47839600,-0.892,0.272,0.489,-31.132,53.06,18.515,
47839610,-0.961,0.263,0.456,-28.682,49.595,16.817,
47839620,-0.953,0.303,0.424,-26.705,42.35,17.01,
47839630,-0.942,0.269,0.373,-27.982,30.17,19.46,
47839640,-0.958,0.256,0.358,-30.415,18.025,19.215,
47839650,-0.969,0.253,0.372,-31.797,5.792,15.067,
47839660,-0.956,0.249,0.4,-32.55,-3.202,10.342,
47839670,-0.946,0.197,0.396,-31.99,-9.782,8.33,
47839680,-0.91,0.201,0.42,-27.422,-13.107,4.882,
47839690,-0.874,0.226,0.455,-19.792,-19.617,4.672,
47839690,-0.823,0.247,0.474,-14.717,-23.835,6.02,
47839710,-0.826,0.283,0.488,-13.877,-25.41,7.77,
47839710,-0.844,0.283,0.491,-14.595,-24.902,8.522,
47839730,-0.848,0.287,0.5,-11.83,-25.042,8.785,
47839730,-0.828,0.3,0.5,-8.295,-25.69,7.175,
47839750,-0.808,0.3,0.497,-4.182,-27.072,3.325,
47839750,-0.797,0.313,0.509,-1.295,-27.142,-0.14,
47839760,-0.805,0.327,0.516,-2.012,-26.74,-2.45,
47839770,-0.813,0.303,0.523,-6.037,-26.46,-3.552,
47839780,-0.805,0.285,0.524,-8.05,-26.127,-2.94,
47839790,-0.822,0.275,0.532,-7.647,-25.812,-2.135,
47839800,-0.825,0.274,0.517,-4.97,-27.545,-3.132,
47839810,-0.85,0.289,0.51,-1.837,-31.412,-4.742,
47839820,-0.84,0.295,0.514,0.192,-36.522,-6.037,
47839830,-0.811,0.287,0.53,0.297,-39.462,-6.055,
47839840,-0.767,0.276,0.553,0.472,-37.94,-5.197,
47839850,-0.722,0.261,0.566,1.785,-32.217,-4.497,
47839860,-0.711,0.269,0.578,4.235,-23.94,-4.62,
47839870,-0.734,0.274,0.575,5.11,-16.397,-4.655,
47839880,-0.759,0.274,0.566,4.795,-11.567,-4.27,
47839890,-0.776,0.283,0.554,3.482,-9.012,-1.855,
47839900,-0.785,0.29,0.55,1.102,-8.417,1.05,
47839910,-0.78,0.294,0.553,-3.5,-9.975,4.742,
47839920,-0.797,0.298,0.554,-9.607,-11.69,9.432,
47839930,-0.779,0.281,0.563,-14.035,-13.702,13.16,
47839940,-0.762,0.286,0.572,-15.19,-13.072,15.505,
47839950,-0.761,0.286,0.576,-14.787,-10.447,16.572,
47839960,-0.745,0.278,0.571,-14.297,-7.192,20.142,
47839970,-0.714,0.361,0.554,-13.79,-4.305,16.065,
47839980,-0.743,0.381,0.56,-17.902,3.062,11.637,
47839990,-0.768,0.255,0.579,-23.922,8.575,12.775,
47840000,-0.772,0.257,0.576,-19.705,9.52,10.78,
47840010,-0.718,0.259,0.568,-13.317,9.957,7.945,
47840020,-0.779,0.248,0.577,-6.317,11.532,4.777,
47840030,-0.794,0.262,0.554,0.14,9.187,0.735,
47840040,-0.809,0.303,0.544,6.842,6.842,-4.147,
47840050,-0.838,0.298,0.527,8.487,2.59,-6.072,
47840060,-0.867,0.307,0.515,7.857,-3.745,-7.385,
47840070,-0.854,0.281,0.513,7.682,-11.427,-8.242,
47840080,-0.86,0.27,0.519,11.497,-18.2,-9.45,
47840080,-0.825,0.256,0.539,17.57,-27.527,-12.6,
47840100,-0.747,0.318,0.579,22.032,-32.9,-15.172,
47840100,-0.748,0.367,0.604,15.627,-31.08,-12.547,
47840120,-0.809,0.348,0.576,-1.802,-27.93,-4.48,
47840120,-0.853,0.281,0.55,-17.727,-31.762,3.377,
47840140,-0.82,0.263,0.554,-23.695,-41.195,10.045,
47840140,-0.768,0.251,0.573,-25.725,-48.247,17.115,
47840160,-0.709,0.242,0.62,-23.502,-45.692,23.135,
47840160,-0.642,0.252,0.638,-20.772,-37.047,32.287,
47840170,-0.637,0.301,0.654,-19.477,-27.195,32.725,
47840180,-0.523,0.297,0.67,-17.5,-14.017,28.175,
47840190,-0.396,0.417,0.678,-19.022,11.777,28.56,
47840200,-0.646,0.41,0.656,-34.387,48.772,34.807,
47840210,-0.868,0.17,0.583,-47.705,57.155,30.852,
47840220,-0.772,0.184,0.563,-35.997,44.03,27.16,
47840230,-0.819,0.272,0.565,-21.35,32.83,21.98,
47840240,-0.876,0.262,0.551,-11.515,22.767,12.215,
47840250,-0.837,0.31,0.535,-2.152,10.482,3.552,
47840260,-0.801,0.356,0.563,2.572,1.487,-3.587,
47840270,-0.832,0.3,0.558,1.067,-4.252,-7.542,
47840280,-0.813,0.269,0.549,1.837,-10.01,-8.942,
47840290,-0.783,0.267,0.553,5.075,-14.192,-9.24,
47840300,-0.797,0.246,0.547,8.522,-15.977,-10.15,
47840310,-0.809,0.25,0.554,13.44,-18.865,-10.657,
47840320,-0.926,0.23,0.53,18.497,-29.732,-13.107,
47840330,-0.741,0.263,0.586,27.16,-50.312,-20.3,
47840340,-0.655,0.372,0.666,31.237,-49.857,-21.157,
47840350,-0.659,0.33,0.65,23.362,-35.857,-19.862,
47840360,-0.707,0.309,0.633,12.95,-23.467,-13.09,
47840370,-0.71,0.262,0.622,6.422,-22.872,-9.432,
47840380,-0.627,0.331,0.644,4.34,-17.85,-6.352,
47840390,-0.741,0.283,0.627,-1.907,-8.732,-2.1,
47840400,-0.709,0.271,0.617,-4.9,-6.632,-0.542,
47840410,-0.712,0.289,0.616,-6.807,-6.3,2.345,
47840420,-0.734,0.297,0.62,-9.695,-5.477,5.18,
47840420,-0.743,0.285,0.624,-14.122,-6.72,8.645,
47840440,-0.728,0.288,0.629,-17.027,-7.507,12.04,
47840440,-0.71,0.287,0.628,-18.602,-7.105,15.837,
47840460,-0.646,0.289,0.638,-18.27,-2.852,19.232,
47840460,-0.555,0.413,0.677,-22.715,11.427,26.915,
47840480,-0.759,0.343,0.614,-39.76,32.095,37.922,
47840480,-0.772,0.178,0.567,-45.482,34.352,37.712,
47840500,-0.691,0.216,0.575,-32.515,32.252,38.71,
47840500,-0.855,0.27,0.589,-22.33,30.24,32.27,
47840510,-0.815,0.241,0.59,-15.575,16.467,20.44,
47840520,-0.759,0.304,0.595,-6.282,7.017,14.665,
47840530,-0.789,0.313,0.581,-0.14,3.465,7.42,
47840540,-0.763,0.305,0.588,5.232,-0.787,-1.137,
47840550,-0.779,0.302,0.593,9.065,-2.747,-6.982,
47840560,-0.786,0.292,0.588,10.832,-5.722,-10.167,
47840570,-0.771,0.284,0.579,12.687,-8.645,-12.39,
47840580,-0.768,0.264,0.568,16.012,-10.71,-15.487,
47840590,-0.893,0.255,0.535,22.505,-18.812,-21.332,
47840600,-0.774,0.253,0.605,31.255,-39.2,-30.642,
47840610,-0.746,0.317,0.646,38.657,-45.15,-35.105,
47840620,-0.702,0.309,0.645,39.165,-43.155,-35.857,
47840630,-0.639,0.305,0.636,34.475,-40.075,-33.005,
47840640,-0.689,0.318,0.637,27.895,-31.902,-25.97,
47840650,-0.686,0.338,0.63,19.635,-23.87,-20.37,
47840660,-0.697,0.321,0.625,9.73,-16.992,-13.527,
47840670,-0.708,0.337,0.623,-0.805,-10.325,-5.232,
47840680,-0.734,0.284,0.616,-9.922,-7.297,0.857,
47840690,-0.677,0.269,0.628,-11.917,-8.277,3.482,
47840700,-0.678,0.297,0.662,-11.865,-5.355,7.28,
47840710,-0.676,0.3,0.651,-13.912,-2.327,9.695,
47840720,-0.659,0.305,0.638,-15.785,2.432,10.36,
47840730,-0.674,0.297,0.634,-16.082,7.385,9.905,
47840740,-0.691,0.314,0.634,-15.417,12.197,9.45,
47840750,-0.615,0.356,0.651,-18.725,19.302,9.24,
47840760,-0.801,0.256,0.612,-26.635,36.067,14.42,
47840770,-0.835,0.243,0.554,-28.245,32.882,18.112,
47840780,-0.843,0.209,0.562,-24.237,21.402,16.45,
47840790,-0.884,0.185,0.573,-13.615,6.02,9.8,
47840800,-0.694,0.298,0.612,-2.222,-5.425,4.497,
47840810,-0.815,0.297,0.612,-0.21,-5.775,0.787,
47840820,-0.779,0.26,0.604,-1.487,-9.03,-2.362,
47840830,-0.746,0.285,0.601,-0.577,-10.955,-1.627,
47840830,-0.753,0.276,0.604,0.42,-10.78,-1.47,
47840850,-0.726,0.263,0.615,1.085,-12.022,-1.505,
47840850,-0.716,0.263,0.616,2.905,-9.537,-0.647,
47840870,-0.743,0.256,0.606,5.827,-8.82,-1.277,
47840870,-0.72,0.265,0.611,9.1,-11.62,-2.835,
47840890,-0.702,0.291,0.615,9.905,-14.752,-2.835,
47840890,-0.702,0.293,0.639,8.4,-15.96,-2.1,
47840910,-0.678,0.294,0.648,7.875,-14.052,-3.08,
47840910,-0.658,0.298,0.651,9.135,-8.96,-4.217,
47840920,-0.681,0.298,0.65,10.342,-4.952,-5.005,
47840930,-0.704,0.318,0.642,10.57,-1.75,-6.982,
47840940,-0.744,0.316,0.62,8.312,-0.42,-9.205,
47840950,-0.735,0.288,0.605,5.617,-3.517,-10.115,
47840960,-0.737,0.309,0.628,3.92,-3.902,-8.452,
47840970,-0.775,0.279,0.617,0.77,-3.57,-6.212,
47840980,-0.746,0.259,0.611,-0.052,-6.282,-4.357,
47840990,-0.714,0.287,0.63,0.612,-7.63,-2.205,
47841000,-0.734,0.291,0.635,-1.19,-5.197,0.07,
47841010,-0.725,0.267,0.619,-4.2,-4.602,0.927,
47841020,-0.701,0.258,0.619,-4.637,-4.672,1.872,
47841030,-0.715,0.273,0.626,-3.237,-3.832,3.237,
47841040,-0.745,0.292,0.625,-2.712,-2.782,3.36,
47841050,-0.762,0.29,0.622,-3.465,-4.2,2.642,
47841060,-0.742,0.289,0.624,-4.217,-6.352,2.38,
47841070,-0.75,0.274,0.637,-4.462,-8.487,2.205,
47841080,-0.729,0.264,0.648,-7.087,-16.187,0.437,
47841090,-0.551,0.214,0.676,-8.155,-21.192,-0.717,
47841100,-0.614,0.212,0.589,-3.167,-5.565,1.575,
47841110,-0.881,0.366,0.583,4.13,5.757,3.115,
47841120,-0.908,0.331,0.59,1.75,-1.102,1.015,
47841130,-0.774,0.283,0.585,0.525,-13.545,-3.552,
47841140,-0.711,0.289,0.617,2.24,-18.095,-3.15,
47841150,-0.651,0.27,0.64,1.942,-17.57,-2.52,
47841160,-0.626,0.262,0.659,1.207,-11.34,-1.96,
47841170,-0.658,0.27,0.677,2.537,-4.55,-3.395,
47841170,-0.697,0.257,0.655,4.742,2.135,-4.725,
47841190,-0.77,0.242,0.642,8.925,2.852,-6.667,
47841190,-0.765,0.236,0.626,15.277,-5.022,-10.01,
47841210,-0.632,0.323,0.625,19.95,-9.52,-12.162,
47841210,-0.676,0.398,0.659,12.46,-0.7,-9.082,
47841230,-0.805,0.32,0.616,-3.57,6.702,-3.867,
47841230,-0.716,0.263,0.604,-10.71,3.867,-0.805,
47841250,-0.709,0.267,0.64,-8.977,1.365,2.362,
47841250,-0.691,0.271,0.65,-6.597,2.66,2.782,
47841260,-0.682,0.283,0.642,-5.337,5.74,2.992,
47841270,-0.694,0.29,0.636,-5.705,9.03,3.255,
47841280,-0.726,0.291,0.632,-7.175,10.535,3.745,
47841290,-0.729,0.289,0.625,-9.835,11.235,5.425,
47841300,-0.725,0.272,0.611,-12.53,11.795,8.505,
47841310,-0.718,0.266,0.619,-13.212,13.317,11.655,
47841320,-0.687,0.292,0.626,-14.297,16.205,15.54,
47841330,-0.68,0.329,0.625,-19.617,25.48,21.437,
47841340,-0.789,0.292,0.599,-28.192,34.177,26.827,
47841350,-0.809,0.206,0.588,-30.835,31.36,26.565,
47841360,-0.804,0.198,0.581,-22.732,23.152,21.647,
47841370,-0.679,0.276,0.616,-11.13,14.332,14.087,
47841380,-0.77,0.323,0.628,-7.752,15.697,12.232,
47841390,-0.779,0.277,0.595,-10.08,12.512,7.945,
47841400,-0.775,0.285,0.588,-6.877,8.75,5.477,
47841410,-0.777,0.295,0.582,-3.185,3.955,2.17,
47841420,-0.78,0.289,0.588,-1.085,0.157,1.032,
47841430,-0.804,0.276,0.583,-0.28,-4.97,-0.192,
47841440,-0.822,0.261,0.579,1.645,-12.197,-1.785,
47841450,-0.824,0.257,0.574,5.705,-21.525,-4.41,
47841460,-0.845,0.255,0.593,11.287,-30.415,-7.402,
47841470,-0.854,0.215,0.595,18.41,-45.482,-13.737,
47841480,-0.694,0.272,0.645,27.65,-58.695,-21.42,
47841490,-0.671,0.317,0.648,30.887,-60.2,-24.64,
47841500,-0.568,0.343,0.655,23.992,-51.59,-22.96,
47841510,-0.668,0.34,0.643,9.082,-29.4,-10.832,
47841520,-0.776,0.202,0.597,-4.322,-21.682,-4.112,
47841530,-0.608,0.241,0.632,-2.975,-23.922,-1.155,
47841540,-0.674,0.283,0.682,-1.767,-15.505,4.2,
47841550,-0.678,0.271,0.682,-5.232,-10.885,8.242,
47841560,-0.654,0.298,0.684,-9.362,-6.562,12.25,
47841570,-0.671,0.295,0.673,-13.562,-1.995,14.84,
47841580,-0.651,0.292,0.648,-15.26,2.502,16.782,
47841580,-0.627,0.311,0.65,-15.662,7.315,18.305,
47841600,-0.627,0.312,0.657,-18.602,13.912,20.895,
47841600,-0.571,0.318,0.655,-21.14,22.05,24.762,
47841620,-0.549,0.461,0.666,-28.542,42.717,32.882,
47841620,-0.927,0.302,0.621,-46.76,60.305,42.402,
47841640,-0.92,0.136,0.562,-50.75,46.235,40.652,
47841640,-0.705,0.185,0.578,-33.617,28.385,37.467,
47841660,-0.733,0.299,0.611,-19.74,24.762,30.782,
47841660,-0.787,0.264,0.608,-18.252,21.892,20.895,
47841670,-0.781,0.252,0.604,-13.877,15.977,14.507,
47841680,-0.791,0.272,0.594,-6.702,9.415,10.01,
47841690,-0.804,0.297,0.597,-0.122,1.872,4.322,
47841700,-0.796,0.307,0.583,3.29,-4.217,0.262,
47841710,-0.774,0.282,0.591,3.85,-10.027,-2.327,
47841720,-0.77,0.25,0.589,4.515,-14.77,-3.167,
47841730,-0.77,0.232,0.571,8.662,-19.162,-4.515,
47841740,-0.821,0.254,0.588,15.855,-27.125,-8.82,
47841750,-0.814,0.257,0.604,24.045,-40.845,-18.305,
47841760,-0.783,0.297,0.657,32.602,-53.077,-27.457,
47841770,-0.71,0.345,0.675,35.542,-58.222,-33.845,
47841780,-0.702,0.326,0.665,31.08,-58.205,-34.352,
47841790,-0.614,0.347,0.651,21.525,-57.015,-29.47,
47841800,-0.584,0.346,0.662,6.895,-40.46,-14.262,
47841810,-0.732,0.263,0.673,-5.88,-24.342,-1.715,
47841820,-0.609,0.21,0.671,-9.415,-20.37,1.4,
47841830,-0.562,0.251,0.702,-5.757,-13.125,6.737,
47841840,-0.592,0.285,0.717,-4.83,-2.24,11.007,
47841850,-0.59,0.286,0.699,-7.577,6.685,15.61,
47841860,-0.651,0.311,0.667,-11.025,14.192,19.425,
47841870,-0.574,0.335,0.654,-13.702,19.075,21.577,
47841880,-0.59,0.419,0.662,-22.365,40.232,28.962,
47841890,-0.843,0.283,0.608,-35.455,54.407,35.122,
47841900,-0.753,0.231,0.596,-39.917,42.105,39.007,
47841910,-0.639,0.263,0.633,-33.127,34.685,41.965,
47841920,-0.672,0.326,0.649,-29.015,41.912,41.142,
47841920,-0.8,0.256,0.612,-30.082,44.45,31.815,
47841940,-0.809,0.227,0.602,-23.187,35.21,20.825,
47841940,-0.813,0.254,0.599,-12.617,20.282,13.527,
47841960,-0.735,0.308,0.587,-3.01,6.352,4.865,
47841960,-0.784,0.36,0.63,1.102,1.4,-1.942,
47841980,-0.809,0.313,0.623,-0.595,-1.855,-9.222,
47841980,-0.732,0.28,0.605,0.7,-6.265,-11.427,
47842000,-0.729,0.261,0.602,2.887,-8.61,-11.165,
47842000,-0.724,0.235,0.602,5.127,-10.57,-10.22,
47842010,-0.74,0.24,0.604,8.067,-12.302,-9.047,
47842020,-0.806,0.259,0.612,10.097,-16.1,-7.962,
47842030,-0.859,0.207,0.602,12.512,-30.782,-11.917,
47842040,-0.616,0.315,0.636,19.39,-42.98,-18.567,
47842050,-0.703,0.325,0.665,22.242,-31.5,-19.477,
47842060,-0.758,0.273,0.635,20.282,-27.44,-23.1,
47842070,-0.651,0.287,0.632,21.7,-29.592,-23.03,
47842080,-0.691,0.299,0.646,23.887,-24.885,-23.047,
47842090,-0.643,0.31,0.656,23.537,-20.02,-22.435,
47842100,-0.773,0.277,0.64,20.58,-15.365,-17.307,
47842110,-0.715,0.282,0.627,20.93,-22.172,-18.655,
47842120,-0.628,0.361,0.679,19.6,-20.247,-15.207,
47842130,-0.692,0.374,0.663,6.282,-12.53,-6.597,
47842140,-0.727,0.299,0.661,-8.137,-5.477,1.995,
47842150,-0.618,0.242,0.666,-14.087,-4.847,4.777,
47842160,-0.556,0.249,0.681,-13.16,1.907,10.815,
47842170,-0.623,0.273,0.684,-13.667,10.85,14.945,
47842180,-0.633,0.294,0.681,-16.537,20.947,17.447,
47842190,-0.622,0.336,0.665,-20.51,34.212,20.965,
47842200,-0.703,0.331,0.639,-28.28,47.53,27.3,
47842210,-0.864,0.213,0.584,-32.9,46.637,26.495,
47842220,-0.762,0.208,0.584,-23.135,33.057,19.775,
47842230,-0.696,0.297,0.606,-9.87,25.217,15.82,
47842240,-0.764,0.331,0.6,-6.125,25.41,13.51,
47842250,-0.857,0.279,0.588,-6.475,22.19,9.905,
47842260,-0.86,0.25,0.552,-3.08,9.327,3.395,
47842270,-0.797,0.292,0.557,6.632,-5.74,-1.75,
47842280,-0.802,0.291,0.587,12.705,-13.3,-5.232,
47842290,-0.781,0.26,0.6,14.857,-19.442,-8.26,
47842300,-0.759,0.249,0.601,18.322,-24.202,-9.38,
47842310,-0.745,0.258,0.619,25.095,-27.755,-11.97,
47842320,-0.871,0.193,0.593,33.757,-34.982,-18.497,
47842330,-0.723,0.237,0.624,50.54,-58.59,-34.16,
47842330,-0.587,0.396,0.725,60.165,-58.38,-39.34,
47842350,-0.702,0.332,0.669,52.745,-51.275,-40.74,
47842350,-0.629,0.326,0.647,44.135,-43.75,-33.11,
47842370,-0.681,0.352,0.656,35.035,-35.665,-24.99,
47842370,-0.643,0.33,0.648,25.865,-28.227,-18.97,
47842390,-0.688,0.3,0.643,19.075,-20.51,-13.632,
47842390,-0.679,0.316,0.649,16.502,-18.515,-13.317,
47842410,-0.68,0.342,0.655,9.765,-15.19,-9.52,
47842410,-0.716,0.312,0.636,1.487,-9.572,-2.975,
47842420,-0.731,0.293,0.639,-3.587,-8.61,2.432,
47842430,-0.662,0.298,0.658,-6.807,-11.112,5.6,
47842440,-0.664,0.293,0.655,-11.112,-10.675,9.24,
47842450,-0.629,0.284,0.666,-13.3,-9.152,11.287,
47842460,-0.628,0.313,0.681,-14.98,-5.722,14.945,
47842470,-0.621,0.307,0.679,-18.025,-1.19,18.935,
47842480,-0.559,0.327,0.64,-20.195,5.95,22.522,
47842490,-0.607,0.44,0.651,-27.842,23.66,29.715,
47842500,-0.78,0.371,0.63,-43.855,35.892,35.997,
47842510,-0.813,0.245,0.6,-51.03,31.447,36.96,
47842520,-0.781,0.24,0.601,-43.277,21.245,33.757,
47842530,-0.699,0.293,0.633,-31.937,12.967,27.02,
47842540,-0.752,0.324,0.65,-29.242,13.265,24.937,
47842550,-0.802,0.235,0.646,-29.207,8.067,19.477,
47842560,-0.665,0.211,0.66,-19.25,-1.05,13.177,
47842570,-0.675,0.254,0.655,-9.135,-3.955,8.767,
47842580,-0.667,0.239,0.642,1.102,-6.107,0.945,
47842590,-0.697,0.322,0.657,11.112,-4.707,-3.307,
47842600,-0.768,0.319,0.643,12.022,-4.655,-8.592,
47842610,-0.788,0.289,0.621,12.635,-9.432,-11.06,
47842620,-0.767,0.284,0.614,16.485,-15.032,-13.597,
47842630,-0.826,0.213,0.642,23.345,-21.717,-17.937,
47842640,-0.751,0.139,0.654,39.06,-40.897,-30.415,
47842650,-0.412,0.346,0.728,58.082,-45.955,-38.447,
47842660,-0.637,0.356,0.716,54.267,-24.675,-35.192,
47842670,-0.731,0.254,0.646,43.907,-21.315,-34.265,
47842670,-0.63,0.345,0.644,40.355,-24.797,-29.61,
47842690,-0.737,0.361,0.627,31.552,-21.437,-23.572,
47842690,-0.675,0.38,0.613,20.667,-16.8,-16.642,
47842710,-0.798,0.375,0.627,8.277,-14.21,-6.807,
47842710,-0.706,0.345,0.638,-3.01,-18.042,-1.085,
47842730,-0.693,0.316,0.661,-11.2,-19.53,4.707,
47842730,-0.604,0.287,0.684,-15.225,-20.737,9.047,
47842750,-0.581,0.294,0.699,-17.08,-16.922,13.597,
47842750,-0.559,0.292,0.697,-18.287,-9.31,15.172,
47842760,-0.549,0.31,0.704,-18.777,-0.07,17.535,
47842770,-0.58,0.334,0.684,-21.612,10.062,22.365,
47842780,-0.477,0.49,0.632,-29.4,26.792,29.102,
47842790,-0.742,0.437,0.641,-52.622,52.15,42.402,
47842800,-0.917,0.223,0.609,-65.257,52.062,44.345,
47842810,-0.767,0.229,0.599,-55.982,36.68,42.805,
47842820,-0.755,0.256,0.648,-42.21,25.777,34.3,
47842830,-0.755,0.188,0.677,-30.222,15.277,22.277,
47842840,-0.656,0.253,0.694,-16.24,6.615,14.105,
47842850,-0.616,0.24,0.681,-7.455,2.397,5.162,
47842860,-0.611,0.289,0.676,2.695,6.86,-2.047,
47842870,-0.719,0.306,0.646,7.472,11.865,-6.895,
47842880,-0.775,0.3,0.631,9.747,10.255,-11.62,
47842890,-0.808,0.296,0.619,11.62,3.412,-14.175,
47842900,-0.826,0.258,0.606,14.7,-5.18,-16.397,
47842910,-0.836,0.194,0.608,23.695,-19.092,-22.557,
47842920,-0.661,0.22,0.666,39.847,-35.805,-35.157,
47842930,-0.542,0.346,0.721,50.54,-33.407,-41.492,
47842940,-0.658,0.296,0.694,47.267,-23.502,-41.72,
47842950,-0.605,0.312,0.663,43.837,-21.56,-39.97,
47842960,-0.646,0.384,0.668,35.612,-13.002,-32.707,
47842970,-0.712,0.35,0.607,21.472,-6.93,-25.532,
47842980,-0.715,0.396,0.612,6.65,0.91,-14.245,
47842990,-0.895,0.293,0.602,-11.672,-1.137,-3.307,
47843000,-0.722,0.244,0.622,-17.797,-13.317,2.345,
47843010,-0.66,0.276,0.663,-17.115,-16.73,6.72,
47843020,-0.626,0.261,0.683,-17.727,-14.682,8.96,
47843030,-0.642,0.281,0.684,-18.357,-11.182,11.357,
47843040,-0.614,0.309,0.691,-17.342,-5.967,11.217,
47843050,-0.605,0.327,0.693,-16.887,1.085,11.725,
47843060,-0.529,0.42,0.662,-20.685,11.567,15.347,
47843070,-0.667,0.449,0.651,-37.257,30.345,27.177,
47843080,-0.831,0.252,0.628,-49.385,36.19,30.66,
47843080,-0.691,0.234,0.637,-42.297,30.327,29.242,
47843100,-0.709,0.234,0.647,-33.705,26.792,26.267,
47843100,-0.696,0.213,0.661,-26.39,23.555,20.282,
47843110,-0.771,0.166,0.646,-18.532,18.462,16.537,
47843120,-0.654,0.231,0.649,-6.632,10.64,7.91,
47843130,-0.75,0.251,0.637,1.522,10.447,3.447,
47843140,-0.774,0.297,0.641,6.807,7.507,-1.68,
47843150,-0.775,0.306,0.638,6.965,3.517,-3.43,
47843160,-0.736,0.281,0.631,6.212,-0.507,-5.355,
47843170,-0.704,0.28,0.638,8.54,-1.75,-7.192,
47843180,-0.699,0.279,0.639,11.725,-0.682,-10.237,
47843190,-0.737,0.252,0.632,14.472,0,-13.335,
47843200,-0.845,0.187,0.615,20.842,-6.667,-18.48,
47843210,-0.732,0.205,0.646,35.77,-21.192,-29.382,
47843220,-0.68,0.297,0.664,45.85,-27.09,-35.612,
47843230,-0.729,0.297,0.652,46.322,-27.09,-37.047,
47843240,-0.638,0.33,0.63,44.082,-27.317,-34.16,
47843250,-0.712,0.362,0.644,35.682,-19.862,-25.69,
47843260,-0.723,0.32,0.628,24.115,-18.847,-20.457,
47843270,-0.642,0.354,0.621,14.787,-14.315,-12.705,
47843280,-0.808,0.331,0.647,1.137,-8.557,-4.217,
47843290,-0.664,0.25,0.644,-6.685,-14.105,-0.56,
47843300,-0.627,0.296,0.669,-7.595,-12.547,4.235,
47843310,-0.642,0.284,0.676,-11.41,-8.697,7.927,
47843320,-0.659,0.284,0.673,-15.067,-4.095,10.412,
47843330,-0.666,0.279,0.661,-16.082,-0.507,11.252,
47843340,-0.672,0.29,0.661,-15.102,3.64,11.585,
47843350,-0.622,0.319,0.647,-16.187,7,13.72,
47843360,-0.589,0.445,0.643,-25.795,20.965,22.715,
47843370,-0.854,0.314,0.611,-44.852,34.422,34.422,
47843380,-0.776,0.187,0.599,-47.39,27.387,34.3,
47843390,-0.71,0.272,0.64,-36.575,21.105,33.302,
47843400,-0.748,0.237,0.656,-31.92,17.57,26.337,
47843410,-0.742,0.193,0.644,-23.765,12.092,20.457,
47843420,-0.717,0.23,0.64,-11.672,5.757,12.495,
47843420,-0.664,0.276,0.642,-0.192,0.56,4.34,
47843440,-0.744,0.305,0.64,6.265,0.945,-0.367,
47843440,-0.779,0.306,0.629,8.102,-1.435,-4.357,
47843460,-0.782,0.292,0.616,7.997,-6.212,-6.492,
47843460,-0.766,0.266,0.61,9.677,-12.145,-8.19,
47843480,-0.753,0.265,0.62,13.387,-17.36,-8.785,
47843480,-0.721,0.274,0.649,15.417,-21.28,-8.662,
47843500,-0.695,0.242,0.656,13.842,-23.975,-6.02,
47843500,-0.669,0.214,0.662,14.157,-26.442,-3.797,
47843510,-0.635,0.221,0.659,19.232,-27.037,-3.587,
47843520,-0.688,0.27,0.657,23.607,-24.692,-2.38,
47843530,-0.865,0.198,0.636,26.215,-31.587,-2.38,
47843540,-0.706,0.278,0.625,35.612,-46.077,-4.585,
47843550,-0.846,0.343,0.635,36.505,-50.47,-0.612,
47843560,-0.785,0.292,0.624,31.99,-60.952,-0.962,
47843570,-0.648,0.382,0.648,27.737,-61.635,4.322,
47843580,-0.681,0.352,0.674,16.957,-54.967,9.485,
47843590,-0.554,0.307,0.679,12.512,-52.097,10.325,
47843600,-0.534,0.357,0.708,11.41,-42.507,11.2,
47843610,-0.569,0.32,0.714,8.54,-32.812,9.572,
47843620,-0.572,0.332,0.721,9.1,-25.917,7.21,
47843630,-0.583,0.329,0.715,9.817,-20.562,-1.26,
47843640,-0.631,0.268,0.706,14,-18.042,-2.712,
47843650,-0.598,0.328,0.691,20.615,-18.987,-4.287,
47843660,-0.632,0.357,0.686,18.795,-16.152,-5.18,
47843670,-0.672,0.328,0.681,14.14,-15.487,-5.232,
47843680,-0.684,0.33,0.683,12.512,-17.692,-3.57,
47843690,-0.626,0.352,0.677,11.165,-20.825,-1.715,
47843700,-0.61,0.402,0.684,5.95,-17.272,2.432,
47843710,-0.659,0.386,0.697,-3.272,-14.07,6.247,
47843720,-0.651,0.35,0.699,-10.307,-15.33,9.275,
47843730,-0.619,0.343,0.709,-13.055,-17.605,12.32,
47843740,-0.593,0.343,0.715,-16.03,-17.535,15.365,
47843750,-0.555,0.337,0.722,-18.322,-15.19,14.035,
47843760,-0.536,0.32,0.727,-18.13,-9.852,14.472,
47843770,-0.517,0.331,0.74,-17.237,-3.727,15.697,
47843780,-0.517,0.331,0.731,-18.777,4.375,15.96,
47843780,-0.528,0.328,0.704,-19.862,13.072,16.082,
47843800,-0.45,0.492,0.663,-22.557,29.33,18.532,
47843800,-0.76,0.393,0.664,-38.465,44.45,25.06,
47843820,-0.83,0.274,0.671,-40.862,37.17,19.32,
47843820,-0.734,0.248,0.692,-30.135,18.532,15.89,
47843830,-0.588,0.306,0.702,-19.775,8.977,13.072,
47843840,-0.639,0.264,0.721,-16.992,7.962,10.272,
47843850,-0.564,0.227,0.725,-11.042,6.527,3.517,
47843860,-0.545,0.283,0.726,-2.45,11.742,1.207,
47843870,-0.606,0.287,0.709,0.892,16.73,-0.63,
47843880,-0.649,0.299,0.687,3.955,18.585,-3.36,
47843890,-0.724,0.323,0.667,6.317,16.572,-6.16,
47843900,-0.747,0.339,0.665,7.91,10.132,-9.345,
47843910,-0.753,0.331,0.662,8.592,2.835,-9.537,
47843920,-0.736,0.304,0.66,9.275,-4.515,-8.68,
47843930,-0.721,0.272,0.672,11.935,-11.742,-8.855,
47843940,-0.729,0.195,0.699,20.282,-20.387,-14.052,
47843950,-0.579,0.224,0.716,36.26,-28.262,-22.435,
47843960,-0.543,0.301,0.721,46.83,-26.845,-27.002,
47843970,-0.589,0.318,0.714,47.005,-20.947,-28.577,
47843980,-0.609,0.366,0.687,42.437,-14.052,-28.402,
47843990,-0.716,0.32,0.683,38.587,-14.63,-24.85,
47844000,-0.626,0.361,0.676,35.297,-20.912,-22.015,
47844010,-0.561,0.438,0.671,26.95,-15.33,-18.182,
47844020,-0.673,0.392,0.651,15.54,-7.735,-12.057,
47844030,-0.672,0.423,0.672,7,-5.39,-6.947,
47844040,-0.699,0.37,0.676,-1.785,-7.087,-1.172,
47844050,-0.623,0.331,0.689,-5.827,-11.042,1.872,
47844060,-0.601,0.322,0.698,-7.735,-11.077,5.477,
47844070,-0.584,0.322,0.702,-8.347,-9.257,8.19,
47844080,-0.571,0.341,0.708,-8.347,-4.427,9.065,
47844090,-0.564,0.345,0.714,-9.537,0.857,10.01,
47844100,-0.579,0.346,0.712,-12.74,6.072,12.862,
47844110,-0.59,0.336,0.698,-16.362,9.257,16.975,
47844120,-0.535,0.41,0.645,-20.352,16.135,21.227,
47844130,-0.658,0.503,0.649,-33.985,33.005,30.572,
47844140,-0.865,0.275,0.634,-50.26,30.537,35.77,
47844150,-0.653,0.337,0.617,-46.182,22.05,36.837,
47844160,-0.723,0.364,0.646,-46.445,21.647,39.55,
47844170,-0.753,0.278,0.687,-47.932,15.032,36.697,
47844170,-0.679,0.228,0.712,-41.072,4.077,30.782,
47844190,-0.559,0.257,0.751,-28.14,-0.315,23.94,
47844190,-0.516,0.266,0.736,-19.39,1.015,16.1,
47844210,-0.553,0.317,0.716,-14.227,10.097,13.16,
47844210,-0.707,0.236,0.709,-13.37,11.445,8.977,
47844230,-0.625,0.254,0.691,-2.31,5.932,2.03,
47844230,-0.679,0.348,0.686,6.387,6.597,-2.24,
47844250,-0.747,0.307,0.665,5.6,3.062,-4.567,
47844250,-0.745,0.321,0.665,5.827,-4.532,-5.197,
47844260,-0.704,0.312,0.664,6.772,-11.83,-6.737,
47844270,-0.693,0.283,0.666,9.94,-16.065,-9.625,
47844280,-0.674,0.303,0.681,14.752,-18.707,-14.315,
47844290,-0.712,0.267,0.709,19.495,-22.592,-19.442,
47844300,-0.615,0.207,0.71,30.887,-36.715,-29.522,
47844310,-0.369,0.38,0.768,44.467,-33.337,-35.665,
47844320,-0.621,0.328,0.71,40.53,-17.325,-32.147,
47844330,-0.595,0.339,0.682,35.245,-12.232,-31.605,
47844340,-0.682,0.364,0.678,31.5,-8.137,-28.682,
47844350,-0.733,0.315,0.653,27.772,-12.267,-23.817,
47844360,-0.623,0.403,0.675,23.257,-14.962,-19.757,
47844370,-0.657,0.397,0.672,12.495,-12.652,-14.245,
47844380,-0.643,0.396,0.676,0.49,-7.157,-6.457,
47844390,-0.689,0.352,0.684,-10.885,-5.32,-0.84,
47844400,-0.615,0.321,0.697,-16.275,-6.912,2.677,
47844410,-0.592,0.317,0.704,-18.13,-6.09,5.722,
47844420,-0.602,0.304,0.706,-19.215,-2.66,8.75,
47844430,-0.591,0.304,0.7,-17.552,-0.297,10.587,
47844440,-0.563,0.336,0.706,-15.33,3.885,11.917,
47844450,-0.564,0.363,0.713,-18.147,8.435,15.925,
47844460,-0.5,0.433,0.648,-24.325,15.855,21.455,
47844470,-0.57,0.541,0.662,-39.97,35.945,31.395,
47844480,-0.856,0.305,0.685,-59.08,41.002,33.757,
47844490,-0.765,0.167,0.686,-52.08,24.92,28.927,
47844500,-0.585,0.246,0.711,-33.25,15.067,21.175,
47844510,-0.607,0.235,0.72,-22.82,14.7,13.02,
47844510,-0.643,0.188,0.709,-15.172,12.915,7.437,
47844530,-0.577,0.246,0.71,-4.777,10.29,1.627,
47844530,-0.659,0.281,0.68,1.995,13.895,-1.942,
47844550,-0.75,0.289,0.658,4.83,12.932,-4.655,
47844550,-0.8,0.323,0.651,5.425,6.265,-4.655,
47844570,-0.788,0.31,0.647,2.992,-4.637,-3.36,
47844570,-0.716,0.292,0.653,2.555,-13.842,-2.485,
47844580,-0.683,0.29,0.677,3.885,-18.602,-3.167,
47844590,-0.65,0.28,0.687,4.76,-20.545,-4.567,
47844600,-0.636,0.292,0.694,7.14,-19.722,-6.667,
47844610,-0.663,0.291,0.7,10.045,-17.71,-8.33,
47844620,-0.717,0.22,0.711,15.172,-22.645,-12.005,
47844630,-0.492,0.267,0.734,28.385,-30.17,-19.775,
47844640,-0.418,0.415,0.746,33.95,-15.89,-20.107,
47844650,-0.737,0.272,0.702,24.08,-2.887,-15.855,
47844660,-0.601,0.291,0.698,26.407,-6.58,-17.605,
47844670,-0.645,0.329,0.687,29.732,-7,-16.887,
47844680,-0.622,0.346,0.678,28.91,-5.005,-16.467,
47844690,-0.669,0.377,0.655,23.677,-2.887,-13.37,
47844700,-0.701,0.403,0.654,13.807,0.315,-8.207,
47844710,-0.745,0.349,0.651,2.695,-2.555,-4.112,
47844720,-0.68,0.322,0.669,-1.732,-7.77,-1.977,
47844730,-0.641,0.322,0.693,-3.815,-10.325,0.052,
47844740,-0.623,0.305,0.694,-7.052,-10.552,2.555,
47844750,-0.607,0.318,0.698,-8.82,-9.572,3.972,
47844760,-0.607,0.32,0.699,-10.027,-6.475,4.742,
47844770,-0.615,0.324,0.704,-11.515,-4.165,5.705,
47844780,-0.625,0.32,0.703,-14.245,-2.432,7.122,
47844790,-0.619,0.31,0.701,-16.432,-1.522,8.96,
47844800,-0.603,0.323,0.669,-17.535,1.05,11.165,
47844810,-0.534,0.481,0.647,-22.61,11.287,16.712,
47844820,-0.807,0.381,0.658,-40.267,20.265,24.675,
47844830,-0.673,0.327,0.668,-45.675,16.887,26.722,
47844840,-0.672,0.311,0.692,-47.022,16.992,30.537,
47844850,-0.577,0.225,0.706,-45.43,15.907,28.49,
47844860,-0.549,0.234,0.751,-37.87,23.695,27.125,
47844870,-0.493,0.216,0.743,-31.185,29.785,23.257,
47844880,-0.49,0.301,0.727,-25.322,44.362,23.94,
47844890,-0.655,0.274,0.692,-28.087,56.087,24.29,
47844900,-0.814,0.176,0.629,-25.357,54.302,23.065,
47844910,-0.769,0.254,0.639,-11.935,36.89,15.82,
47844920,-0.753,0.319,0.639,-0.262,21.752,8.26,
47844920,-0.749,0.361,0.663,4.882,11.322,0.63,
47844940,-0.775,0.343,0.657,5.547,5.267,-4.847,
47844940,-0.711,0.321,0.671,5.792,-0.56,-10.045,
47844960,-0.685,0.284,0.667,5.897,-2.38,-10.85,
47844960,-0.702,0.229,0.659,8.767,-2.87,-11.567,
47844980,-0.677,0.189,0.661,18.007,-6.562,-17.167,
47844980,-0.571,0.292,0.697,30.8,-7.542,-23.502,
47845000,-0.732,0.3,0.693,32.147,-0.787,-24.43,
47845000,-0.732,0.265,0.651,29.802,-6.597,-27.37,
47845010,-0.664,0.384,0.655,27.562,-8.75,-24.22,
47845020,-0.762,0.34,0.62,17.622,-9.152,-21.105,
47845030,-0.668,0.376,0.636,11.095,-8.96,-17.64,
47845040,-0.75,0.371,0.648,0.192,-5.6,-9.852,
47845050,-0.705,0.273,0.647,-8.522,-8.627,-6.702,
47845060,-0.634,0.272,0.678,-8.277,-9.467,-5.565,
47845070,-0.604,0.282,0.692,-7.262,-5.932,-2.817,
47845080,-0.616,0.289,0.695,-7.507,0.28,-0.087,
47845090,-0.619,0.294,0.69,-8.207,6.615,1.277,
47845100,-0.639,0.296,0.675,-8.54,12.827,1.067,
47845110,-0.674,0.306,0.663,-8.242,16.502,0.752,
47845120,-0.663,0.35,0.661,-9.922,19.617,1.54,
47845130,-0.696,0.365,0.673,-17.622,25.392,6.23,
47845140,-0.7,0.286,0.631,-26.057,30.432,11.235,
47845150,-0.759,0.254,0.629,-27.895,32.69,14.787,
47845160,-0.635,0.228,0.626,-24.937,27.545,13.842,
47845170,-0.692,0.283,0.634,-22.12,33.232,18.48,
47845180,-0.791,0.204,0.61,-25.13,33.145,19.827,
47845190,-0.697,0.239,0.609,-20.51,26.425,20.212,
47845200,-0.785,0.25,0.618,-16.817,21.997,22.295,
47845210,-0.686,0.288,0.625,-15.837,13.335,23.047,
47845220,-0.744,0.31,0.633,-15.697,11.41,25.077,
47845230,-0.732,0.287,0.618,-17.22,5.967,25.48,
47845240,-0.745,0.309,0.617,-16.187,1.382,26.355,
47845250,-0.723,0.336,0.638,-16.24,-0.962,24.972,
47845260,-0.744,0.246,0.627,-15.96,-2.835,22.575,
47845260,-0.625,0.283,0.663,-7.945,-4.585,17.132,
47845280,-0.653,0.312,0.672,-3.465,0.455,14.28,
47845280,-0.67,0.273,0.663,-1.61,4.34,10.902,
47845300,-0.658,0.315,0.662,3.57,8.365,9.047,
47845300,-0.709,0.333,0.65,5.337,10.99,6.685,
47845320,-0.748,0.34,0.637,3.307,11.357,4.83,
47845320,-0.778,0.332,0.62,1.505,8.347,2.31,
47845330,-0.777,0.328,0.619,0.962,4.392,-0.77,
47845340,-0.765,0.325,0.628,0.507,0.437,-2.73,
47845350,-0.737,0.311,0.63,-1.225,-2.695,-4.025,
47845360,-0.726,0.293,0.62,-3.535,-4.76,-4.34,
47845370,-0.767,0.295,0.578,-4.55,-8.085,-4.777,
47845380,-0.674,0.345,0.64,-4.917,-17.132,-7.14,
47845390,-0.67,0.324,0.678,-8.767,-10.482,-5.547,
47845400,-0.681,0.259,0.633,-12.582,-1.592,-3.237,
47845410,-0.646,0.268,0.64,-13.545,1.487,0.175,
47845420,-0.718,0.255,0.641,-14.07,6.65,1.47,
47845430,-0.747,0.265,0.62,-13.527,8.365,2.975,
47845440,-0.764,0.294,0.615,-13.65,7.77,3.43,
47845450,-0.753,0.283,0.619,-15.155,4.602,4.357,
47845460,-0.715,0.28,0.628,-16.572,2.887,6.23,
47845470,-0.681,0.278,0.642,-16.187,4.427,6.737,
47845480,-0.664,0.31,0.651,-15.102,9.24,8.925,
47845490,-0.656,0.325,0.695,-17.972,14.28,11.41,
47845500,-0.577,0.317,0.693,-22.785,20.86,12.565,
47845510,-0.582,0.299,0.683,-26.11,39.707,18.2,
47845520,-0.672,0.245,0.632,-30.782,54.127,20.457,
47845530,-0.65,0.241,0.637,-27.895,54.845,18.76,
47845540,-0.722,0.337,0.662,-23.292,58.8,16.765,
47845550,-0.934,0.36,0.673,-25.672,55.422,15.487,
47845560,-0.81,0.262,0.558,-31.972,31.78,15.435,
47845570,-0.763,0.283,0.526,-29.855,24.097,11.742,
47845580,-0.817,0.278,0.52,-23.66,21.07,5.6,
47845590,-0.754,0.272,0.531,-16.467,13.457,4.69,
47845600,-0.746,0.258,0.541,-13.457,13.265,3.29,
47845610,-0.749,0.194,0.569,-8.05,19.495,-2.467,
47845620,-0.797,0.186,0.55,-2.887,27.37,-4.882,
47845630,-0.891,0.186,0.533,0.857,30.992,-9.345,
47845640,-1.035,0.205,0.428,6.422,19.372,-13.737,
47845650,-0.995,0.251,0.43,17.675,-12.39,-21.14,
47845660,-0.997,0.333,0.524,23.677,-36.417,-26.407,
47845670,-0.915,0.359,0.575,17.185,-49.385,-26.88,
47845670,-0.782,0.281,0.574,1.365,-54.792,-21.28,
47845690,-0.638,0.142,0.598,-8.242,-52.815,-14.017,
47845690,-0.582,0.109,0.64,-5.092,-42.455,-4.83,
47845710,-0.596,0.158,0.66,1.61,-29.312,3.377,
47845710,-0.654,0.213,0.655,4.427,-17.64,7.595,
47845730,-0.718,0.267,0.642,5.477,-8.977,9.345,
47845730,-0.727,0.33,0.617,3.465,-5.005,11.97,
47845750,-0.71,0.319,0.623,-1.767,-3.867,11.725,
47845750,-0.624,0.341,0.668,-4.917,1.732,12.495,
47845760,-0.7,0.352,0.689,-13.422,16.537,18.55,
47845770,-0.722,0.241,0.644,-22.837,23.817,19.302,
47845780,-0.671,0.265,0.64,-18.655,28.052,20.072,
47845790,-0.753,0.29,0.617,-16.835,31.185,18.882,
47845800,-0.798,0.271,0.571,-17.062,29.312,14.63,
47845810,-0.816,0.278,0.547,-13.055,22.82,9.625,
47845820,-0.806,0.281,0.552,-9.24,15.33,5.022,
47845830,-0.866,0.242,0.525,-4.147,8.155,-1.05,
47845840,-0.809,0.249,0.541,3.99,-1.19,-7.052,
47845850,-0.873,0.239,0.547,8.452,-7.962,-10.832,
47845860,-0.879,0.184,0.521,12.285,-15.172,-13.317,
47845870,-0.876,0.168,0.458,19.95,-23.135,-16.712,
47845880,-0.906,0.172,0.447,34.58,-40.81,-26.915,
47845890,-0.714,0.385,0.639,46.532,-61.74,-38.062,
47845900,-0.713,0.44,0.749,34.475,-57.102,-39.952,
47845910,-0.741,0.267,0.654,9.1,-39.707,-26.792,
47845920,-0.677,0.122,0.531,3.237,-24.097,-18.69,
47845930,-0.733,0.271,0.669,13.667,-20.825,-14.77,
47845940,-0.711,0.281,0.705,6.09,-22.435,-9.292,
47845950,-0.684,0.253,0.668,-3.43,-22.382,-3.727,
47845960,-0.612,0.22,0.644,-5.775,-16.327,0.7,
47845970,-0.606,0.269,0.649,-4.742,-7.805,3.692,
47845980,-0.616,0.276,0.674,-3.342,0.332,8.837,
47845990,-0.623,0.318,0.694,-6.422,8.19,12.425,
47846000,-0.572,0.385,0.728,-14.367,23.572,17.115,
47846010,-0.798,0.313,0.655,-29.767,43.592,24.535,
47846010,-0.805,0.197,0.569,-37.327,46.165,23.747,
47846030,-0.796,0.189,0.557,-29.33,38.22,19.897,
47846030,-0.809,0.243,0.559,-20.597,30.187,15.592,
47846050,-0.84,0.238,0.546,-16.59,21.507,11.2,
47846050,-0.842,0.231,0.533,-11.06,12.075,7.332,
47846070,-0.818,0.249,0.539,-3.185,1.12,1.102,
47846070,-0.796,0.287,0.591,2.712,-4.287,-3.797,
47846080,-0.809,0.259,0.61,2.345,-5.792,-7.017,
47846090,-0.731,0.203,0.575,2.94,-2.8,-10.517,
47846100,-0.788,0.222,0.59,7.595,-0.192,-13.842,
47846110,-0.769,0.221,0.578,9.047,-0.122,-15.89,
47846120,-0.821,0.206,0.569,9.117,-1.855,-16.012,
47846130,-0.779,0.191,0.564,10.307,-5.932,-16.187,
47846140,-0.86,0.179,0.53,12.95,-8.33,-16.572,
47846150,-0.813,0.212,0.498,19.442,-28.962,-20.72,
47846160,-0.583,0.384,0.651,24.885,-41.247,-17.815,
47846170,-0.815,0.34,0.705,10.43,-27.212,-6.282,
47846180,-0.75,0.178,0.611,-5.145,-22.207,-1.557,
47846190,-0.664,0.207,0.643,-1.907,-10.78,-3.832,
47846200,-0.746,0.239,0.642,0.49,-5.25,0.647,
47846210,-0.715,0.251,0.643,-0.472,-7.35,5.057,
47846220,-0.735,0.281,0.643,-3.885,-4.9,8.312,
47846230,-0.752,0.288,0.641,-8.4,-3.202,7.56,
47846240,-0.719,0.291,0.636,-11.917,-2.52,9.59,
47846250,-0.692,0.3,0.636,-15.225,-1.417,14.77,
47846260,-0.576,0.311,0.684,-17.202,4.567,19.022,
47846270,-0.654,0.328,0.726,-23.747,24.955,24.972,
47846280,-0.823,0.214,0.65,-33.897,40.32,25.287,
47846290,-0.727,0.144,0.546,-31.045,35.402,20.212,
47846300,-0.642,0.22,0.525,-17.78,29.382,16.642,
47846310,-0.832,0.252,0.57,-10.902,30.677,16.31,
47846320,-0.826,0.244,0.565,-9.275,24.797,12.67,
47846330,-0.833,0.239,0.559,-3.237,19.652,8.522,
47846340,-0.839,0.264,0.543,1.032,13.982,4.725,
47846350,-0.826,0.284,0.554,3.517,5.88,0.367,
47846360,-0.815,0.284,0.583,4.112,-0.017,-2.835,
47846370,-0.804,0.266,0.583,3.027,-3.185,-6.055,
47846380,-0.789,0.243,0.561,2.992,-3.972,-9.047,
47846390,-0.771,0.224,0.544,5.495,-5.285,-11.515,
47846400,-0.758,0.234,0.573,8.26,-6.282,-10.377,
47846410,-0.853,0.197,0.559,7.227,-9.012,-8.977,
47846420,-0.768,0.16,0.501,13.282,-25.322,-14.367,
47846420,-0.62,0.344,0.622,25.007,-32.392,-20.177,
47846440,-0.851,0.335,0.628,20.125,-26.547,-20.107,
47846440,-0.835,0.305,0.604,10.01,-30.31,-16.8,
47846460,-0.819,0.279,0.601,5.897,-30.747,-15.12,
47846460,-0.753,0.235,0.615,4.987,-27.195,-16.03,
47846480,-0.702,0.222,0.646,4.375,-21.612,-12.092,
47846480,-0.71,0.215,0.661,-0.297,-13.685,-6.072,
47846500,-0.722,0.177,0.639,-4.252,-6.86,-1.382,
47846500,-0.672,0.184,0.607,-4.847,-2.66,1.802,
47846510,-0.709,0.203,0.594,-3.237,1.995,5.512,
47846520,-0.771,0.237,0.6,-3.062,3.202,8.61,
47846530,-0.777,0.258,0.614,-4.147,2.275,9.94,
47846540,-0.77,0.272,0.623,-7.035,2.187,11.375,
47846550,-0.656,0.296,0.666,-11.147,5.722,13.877,
47846560,-0.738,0.299,0.684,-19.197,21.017,19.337,
47846570,-0.751,0.243,0.646,-29.032,29.82,22.085,
47846580,-0.7,0.211,0.609,-31.552,32.637,22.872,
47846590,-0.757,0.203,0.581,-30.03,32.27,21,
47846600,-0.674,0.22,0.579,-23.975,28.717,18.042,
47846610,-0.781,0.273,0.603,-19.127,31.272,18.007,
47846620,-0.844,0.268,0.584,-18.9,28.752,15.575,
47846630,-0.775,0.264,0.541,-15.487,20.737,11.165,
47846640,-0.793,0.288,0.553,-10.202,19.267,8.452,
47846650,-0.861,0.266,0.541,-8.242,16.87,4.9,
47846660,-0.84,0.238,0.499,-4.637,7.542,0.945,
47846670,-0.802,0.256,0.525,0.595,-2.467,-2.012,
47846680,-0.85,0.234,0.551,1.47,-6.475,-3.902,
47846690,-0.811,0.193,0.551,2.555,-10.465,-5.18,
47846700,-0.772,0.184,0.544,6.492,-10.867,-7.437,
47846710,-0.79,0.148,0.541,12.145,-10.15,-9.502,
47846720,-0.821,0.15,0.479,18.042,-10.657,-7.56,
47846730,-0.87,0.163,0.426,29.715,-20.947,-11.095,
47846740,-0.82,0.28,0.531,42.14,-35.472,-16.432,
47846750,-0.885,0.296,0.616,46.445,-35.49,-23.135,
47846760,-0.818,0.373,0.673,42.07,-35.472,-21.367,
47846760,-0.78,0.329,0.663,23.782,-33.897,-17.377,
47846780,-0.716,0.24,0.642,9.887,-31.99,-13.615,
47846780,-0.66,0.203,0.636,6.107,-26.512,-8.277,
47846800,-0.67,0.242,0.661,5.757,-18.725,-3.64,
47846800,-0.686,0.243,0.645,0.525,-11.83,0.875,
47846820,-0.739,0.245,0.615,-5.372,-5.302,4.987,
47846820,-0.755,0.246,0.587,-9.415,-4.025,8.925,
47846830,-0.778,0.233,0.593,-11.025,-4.795,11.672,
47846840,-0.757,0.26,0.617,-10.167,-6.177,13.597,
47846850,-0.691,0.296,0.646,-11.655,-3.64,14.875,
47846860,-0.692,0.324,0.689,-18.462,8.925,20.282,
47846870,-0.792,0.248,0.642,-29.172,21.087,24.43,
47846880,-0.694,0.197,0.593,-30.852,22.295,25.217,
47846890,-0.679,0.235,0.603,-24.535,25.725,22.732,
47846900,-0.788,0.255,0.595,-21.402,29.102,18.672,
47846910,-0.757,0.245,0.556,-18.585,23.065,15.015,
47846920,-0.803,0.29,0.548,-13.02,18.217,12.95,
47846930,-0.834,0.312,0.535,-11.532,11.83,9.135,
47846940,-0.891,0.283,0.52,-10.447,4.812,4.847,
47846950,-0.87,0.264,0.528,-6.457,-4.812,-1.435,
47846960,-0.827,0.267,0.554,0.105,-12.81,-8.085,
47846970,-0.786,0.276,0.603,3.535,-17.692,-13.422,
47846980,-0.766,0.243,0.617,2.082,-17.867,-16.222,
47846990,-0.707,0.194,0.601,3.255,-15.067,-16.94,
47847000,-0.719,0.199,0.591,8.207,-9.502,-16.835,
47847010,-0.718,0.203,0.565,13.142,-6.002,-17.097,
47847020,-0.851,0.18,0.499,17.745,-6.3,-16.152,
47847030,-0.843,0.255,0.51,22.54,-22.645,-16.992,
47847040,-0.771,0.321,0.611,23.73,-33.162,-16.082,
47847050,-0.838,0.254,0.641,19.022,-28.437,-18.27,
47847060,-0.792,0.236,0.625,14.455,-28.332,-16.94,
47847070,-0.69,0.222,0.626,11.112,-28,-15.172,
47847080,-0.731,0.186,0.616,9.852,-22.802,-13.16,
47847090,-0.7,0.214,0.634,9.852,-21.157,-10.027,
47847100,-0.722,0.218,0.641,8.54,-15.89,-7.402,
47847110,-0.735,0.221,0.629,4.97,-13.125,-3.692,
47847120,-0.723,0.212,0.617,1.732,-9.24,-0.595,
47847130,-0.746,0.219,0.616,0.892,-6.527,2.415,
47847140,-0.752,0.247,0.631,0,-5.967,3.797,
47847150,-0.755,0.26,0.638,-2.082,-5.967,4.515,
47847160,-0.758,0.278,0.624,-4.847,-5.477,5.792,
47847170,-0.753,0.273,0.625,-7.017,-5.915,7.612,
47847170,-0.726,0.283,0.626,-9.117,-5.145,7.21,
47847180,-0.692,0.272,0.642,-8.767,-2.485,6.982,
47847190,-0.621,0.298,0.714,-11.655,7.035,9.835,
47847200,-0.764,0.219,0.666,-18.9,22.785,14.7,
47847210,-0.699,0.181,0.609,-22.19,25.427,16.415,
47847220,-0.651,0.203,0.596,-21.035,24.045,20.16,
47847230,-0.774,0.185,0.601,-20.3,25.445,24.15,
47847240,-0.768,0.206,0.591,-20.002,21.787,26.932,
47847250,-0.784,0.21,0.587,-17.78,20.247,24.447,
47847260,-0.821,0.234,0.581,-12.425,19.495,19.18,
47847270,-0.866,0.244,0.522,-8.102,13.737,15.172,
47847280,-0.787,0.296,0.505,-0.84,4.305,9.537,
47847290,-0.827,0.308,0.545,6.65,-1.12,4.27,
47847300,-0.817,0.296,0.598,8.47,-5.442,-0.752,
47847310,-0.791,0.263,0.616,7.262,-6.947,-3.955,
47847320,-0.737,0.238,0.614,5.687,-6.142,-5.372,
47847330,-0.762,0.184,0.586,5.565,-4.077,-6.422,
47847340,-0.794,0.142,0.493,11.62,-13.107,-10.517,
47847350,-0.669,0.322,0.549,25.585,-27.545,-16.59,
47847360,-0.847,0.34,0.636,28.035,-23.975,-22.767,
47847370,-0.884,0.318,0.631,21.735,-27.055,-24.395,
47847380,-0.79,0.324,0.636,13.58,-28.717,-19.512,
47847390,-0.798,0.226,0.587,5.565,-27.86,-17.43,
47847400,-0.699,0.188,0.593,6.212,-30.625,-15.347,
47847410,-0.707,0.193,0.619,8.54,-28.77,-12.075,
47847420,-0.665,0.209,0.647,10.902,-23.852,-9.677,
47847430,-0.728,0.226,0.66,9.17,-14.385,-4.865,
47847440,-0.717,0.214,0.626,4.515,-8.645,-1.767,
47847450,-0.713,0.238,0.625,2.572,-4.602,0.91,
47847460,-0.748,0.234,0.618,-0.245,-1.75,3.22,
47847470,-0.735,0.249,0.624,-1.487,-2.625,4.882,
47847480,-0.745,0.266,0.637,-2.59,-2.082,6.475,
47847490,-0.728,0.283,0.644,-5.04,-1.785,7.665,
47847500,-0.691,0.298,0.687,-8.837,1.82,9.345,
47847510,-0.725,0.261,0.682,-14.892,10.482,10.062,
47847510,-0.662,0.22,0.639,-16.87,17.675,9.607,
47847530,-0.683,0.222,0.628,-15.295,24.657,10.692,
47847530,-0.745,0.217,0.599,-13.772,30.432,10.43,
47847550,-0.752,0.242,0.58,-12.477,30.135,11.305,
47847550,-0.766,0.265,0.587,-14.105,29.575,13.737,
47847570,-0.752,0.253,0.597,-17.412,30.642,15.487,
47847570,-0.827,0.234,0.604,-20.755,33.53,18.287,
47847580,-0.815,0.195,0.583,-24.57,31.622,14.7,
47847590,-0.747,0.189,0.562,-18.585,26.652,11.777,
47847600,-0.841,0.234,0.546,-9.59,21.49,10.325,
47847610,-0.804,0.244,0.506,-3.867,11.34,5.46,
47847620,-0.791,0.289,0.523,5.285,3.307,0.647,
47847630,-0.888,0.292,0.552,9.24,0.245,-1.61,
47847640,-0.858,0.254,0.556,7.367,-5.88,-4.917,
47847650,-0.803,0.208,0.554,7.052,-10.01,-8.54,
47847660,-0.82,0.189,0.53,10.552,-11.007,-11.987,
47847670,-0.817,0.212,0.482,18.97,-23.887,-18.095,
47847680,-0.677,0.328,0.599,29.82,-39.025,-22.995,
47847690,-0.836,0.312,0.664,30.957,-31.412,-24.027,
47847700,-0.8,0.321,0.639,23.817,-32.83,-23.485,
47847710,-0.727,0.285,0.631,16.17,-29.4,-20.405,
47847720,-0.752,0.212,0.591,11.252,-24.762,-20.44,
47847730,-0.742,0.216,0.632,14.63,-24.15,-19.652,
47847740,-0.701,0.231,0.6,14.735,-25.795,-18.252,
47847750,-0.706,0.21,0.627,15.977,-21.962,-17.64,
47847760,-0.731,0.237,0.628,15.33,-15.19,-12.145,
47847770,-0.75,0.262,0.616,11.112,-8.82,-6.195,
47847780,-0.778,0.246,0.617,3.447,-4.585,-1.995,
47847790,-0.772,0.22,0.606,-2.52,-2.59,1.82,
47847800,-0.73,0.206,0.596,-3.342,-2.73,3.535,
47847810,-0.717,0.233,0.608,-2.152,-2.397,5.372,
47847820,-0.749,0.26,0.628,-3.395,-0.647,7.507,
47847830,-0.744,0.274,0.629,-6.16,0.245,8.47,
47847840,-0.717,0.283,0.634,-8.855,2.607,8.96,
47847850,-0.606,0.306,0.701,-13.44,9.712,11.427,
47847860,-0.748,0.257,0.673,-22.942,27.877,17.955,
47847870,-0.67,0.204,0.609,-28.63,32.252,21.7,
47847870,-0.64,0.245,0.621,-26.46,39.655,25.305,
47847890,-0.789,0.292,0.619,-28.227,49.385,28.472,
47847890,-0.891,0.242,0.573,-33.285,50.26,28.087,
47847910,-0.891,0.205,0.526,-31.797,37.94,22.767,
47847910,-0.831,0.225,0.503,-25.06,27.86,17.465,
47847920,-0.864,0.24,0.495,-18.69,18.025,12.18,
47847930,-0.831,0.257,0.522,-11.602,9.695,8.452,
47847940,-0.858,0.234,0.526,-6.457,3.465,3.01,
47847950,-0.791,0.239,0.534,-0.542,-3.29,-2.555,
47847960,-0.814,0.246,0.57,3.85,-6.125,-5.11,
47847970,-0.813,0.226,0.572,3.15,-7.175,-6.002,
47847980,-0.783,0.201,0.565,4.41,-7.507,-7.14,
47847990,-0.768,0.19,0.547,7.56,-5.582,-7.472,
47848000,-0.791,0.204,0.544,11.987,-3.605,-8.172,
47848010,-0.81,0.23,0.555,14.91,-5.687,-7.892,
47848020,-0.913,0.231,0.54,12.005,-12.425,-6.895,
47848030,-0.838,0.242,0.502,10.465,-32.147,-9.572,
47848040,-0.784,0.285,0.569,16.222,-42.035,-13.02,
47848050,-0.941,0.26,0.57,18.707,-44.257,-18.672,
47848060,-0.826,0.292,0.585,21.875,-56.385,-25.725,
47848070,-0.773,0.269,0.585,25.165,-57.47,-30.135,
47848080,-0.767,0.258,0.558,30.922,-55.947,-35.035,
47848090,-0.632,0.291,0.593,37.957,-54.775,-35.56,
47848100,-0.661,0.278,0.652,37.485,-40.775,-32.025,
47848110,-0.659,0.269,0.689,30.117,-27.737,-26.337,
47848120,-0.65,0.261,0.709,18.375,-15.015,-17.692,
47848130,-0.729,0.219,0.708,2.555,-6.877,-8.872,
47848140,-0.704,0.144,0.665,-7.752,-7.07,-0.875,
47848150,-0.608,0.137,0.619,-7.052,-6.912,3.937,
47848160,-0.671,0.187,0.613,-2.922,-0.315,8.19,
47848170,-0.739,0.224,0.626,-1.942,3.587,10.92,
47848180,-0.731,0.275,0.64,-3.587,5.512,14.087,
47848190,-0.732,0.314,0.693,-11.217,13.895,18.532,
47848200,-0.745,0.284,0.671,-24.36,23.747,22.82,
47848210,-0.784,0.232,0.624,-35.42,27.457,30.205,
47848220,-0.721,0.161,0.591,-38.43,23.257,30.345,
47848230,-0.639,0.227,0.587,-33.232,23.887,30.537,
47848240,-0.796,0.211,0.587,-31.517,29.277,28.892,
47848250,-0.783,0.193,0.575,-27.492,24.622,25.095,
47848260,-0.78,0.256,0.576,-18.97,22.925,23.047,
47848260,-0.846,0.266,0.577,-15.872,21.56,18.62,
47848280,-0.833,0.24,0.558,-13.702,15.82,14.56,
47848280,-0.811,0.25,0.54,-6.895,8.12,9.975,
47848300,-0.802,0.285,0.557,0.175,3.307,4.76,
47848300,-0.811,0.297,0.576,3.097,-1.172,0.35,
47848320,-0.809,0.284,0.598,3.08,-3.657,-3.255,
47848320,-0.799,0.261,0.603,2.047,-5.145,-5.88,
47848330,-0.775,0.228,0.588,1.785,-5.582,-8.032,
47848340,-0.763,0.203,0.573,4.13,-6.072,-9.432,
47848350,-0.783,0.178,0.538,8.19,-5.915,-10.43,
47848360,-0.846,0.173,0.501,15.575,-13.072,-14.595,
47848370,-0.767,0.216,0.512,25.252,-26.967,-17.657,
47848380,-0.786,0.267,0.555,32.497,-31.955,-22.417,
47848390,-0.816,0.336,0.631,31.57,-36.592,-23.625,
47848400,-0.805,0.336,0.669,18.742,-37.345,-17.36,
47848410,-0.775,0.29,0.662,5.285,-34.737,-13.86,
47848420,-0.728,0.232,0.634,-1.732,-31.937,-9.94,
47848430,-0.663,0.213,0.63,-3.43,-25.13,-5.88,
47848440,-0.703,0.201,0.645,-2.765,-17.535,-1.19,
47848450,-0.716,0.199,0.657,-4.55,-15.645,2.362,
47848460,-0.664,0.178,0.646,-5.092,-13.527,5.32,
47848470,-0.652,0.207,0.651,-3.202,-7.035,8.067,
47848480,-0.69,0.239,0.654,-3.342,0.542,10.22,
47848490,-0.707,0.265,0.646,-4.55,6.37,11.672,
47848500,-0.654,0.314,0.665,-6.982,12.355,14.052,
47848510,-0.713,0.311,0.673,-13.545,27.072,20.09,
47848520,-0.832,0.257,0.621,-22.942,35.367,23.66,
47848530,-0.787,0.204,0.573,-27.58,30.397,25.13,
47848540,-0.737,0.213,0.571,-23.887,26.617,23.8,
47848550,-0.781,0.24,0.595,-19.425,25.69,22.207,
47848560,-0.826,0.204,0.582,-18.62,22.102,19.302,
47848570,-0.76,0.219,0.569,-14.857,13.142,15.61,
47848580,-0.775,0.247,0.589,-11.602,8.89,17.745,
47848580,-0.814,0.259,0.562,-12.827,4.217,11.497,
47848600,-0.793,0.2,0.556,-7.035,-2.852,3.99,
47848600,-0.781,0.282,0.599,-1.19,-6.947,3.587,
47848620,-0.811,0.257,0.602,-4.917,-7.875,-0.437,
47848620,-0.801,0.23,0.61,-6.93,-9.712,-3.552,
47848640,-0.779,0.225,0.602,-6.492,-12.075,-3.062,
47848640,-0.738,0.196,0.576,-7.822,-12.915,-3.01,
47848660,-0.739,0.171,0.565,-5.232,-11.795,-2.852,
47848660,-0.75,0.159,0.557,0.647,-11.585,-1.085,
47848670,-0.796,0.18,0.544,6.93,-11.952,0.402,
47848680,-0.855,0.228,0.521,13.247,-20.37,-2.065,
47848690,-0.791,0.288,0.566,20.44,-34.405,-6.002,
47848700,-0.786,0.31,0.645,24.552,-34.51,-9.765,
47848710,-0.823,0.332,0.68,19.25,-32.2,-10.972,
47848720,-0.767,0.29,0.67,9.572,-34.877,-9.642,
47848730,-0.631,0.252,0.662,4.462,-32.725,-9.94,
47848740,-0.646,0.227,0.674,3.482,-21.822,-6.72,
47848750,-0.682,0.241,0.674,1.382,-15.977,-2.082,
47848760,-0.607,0.249,0.654,-0.927,-12.197,-1.557,
47848770,-0.693,0.231,0.657,-1.557,-3.64,1.102,
47848780,-0.734,0.254,0.643,-3.745,0.07,6.597,
47848790,-0.729,0.256,0.627,-6.247,1.172,8.365,
47848800,-0.739,0.245,0.622,-6.212,2.082,7.542,
47848810,-0.749,0.252,0.621,-3.57,2.747,9.45,
47848820,-0.665,0.304,0.655,-3.342,4.392,12.075,
47848830,-0.714,0.297,0.702,-8.225,14.665,17.675,
47848840,-0.73,0.269,0.686,-18.2,26.04,21.017,
47848850,-0.734,0.219,0.644,-24.167,31.955,18.585,
47848860,-0.675,0.198,0.606,-20.912,30.66,18.252,
47848870,-0.665,0.261,0.605,-16.047,32.112,21.63,
47848880,-0.843,0.228,0.562,-18.497,30.87,18.287,
47848890,-0.779,0.232,0.557,-13.597,18.147,9.73,
47848900,-0.756,0.271,0.57,-3.727,13.02,6.825,
47848910,-0.874,0.297,0.597,-0.227,11.812,4.41,
47848920,-0.87,0.263,0.59,-3.745,4.112,-0.525,
47848930,-0.79,0.245,0.59,-4.375,-3.867,-5.057,
47848940,-0.783,0.214,0.595,-2.047,-6.125,-5.582,
47848950,-0.755,0.21,0.596,-1.225,-7.332,-6.09,
47848960,-0.728,0.221,0.607,-2.275,-6.737,-6.755,
47848970,-0.744,0.179,0.594,0.07,-5.932,-7.647,
47848980,-0.736,0.203,0.586,3.675,-3.22,-8.522,
47848990,-0.768,0.184,0.557,8.505,-3.01,-8.96,
47849000,-0.802,0.172,0.536,16.1,-3.955,-10.29,
47849010,-0.928,0.196,0.484,24.675,-8.242,-13.947,
47849010,-0.922,0.284,0.518,32.095,-30.187,-23.082,
47849030,-0.78,0.313,0.584,34.667,-49.28,-28.49,
47849030,-0.733,0.322,0.649,33.705,-40.792,-28.157,
47849050,-0.773,0.352,0.682,23.45,-30.677,-22.61,
47849050,-0.664,0.291,0.695,8.767,-26.215,-14.98,
47849070,-0.607,0.227,0.69,0.087,-17.307,-8.33,
47849070,-0.634,0.194,0.681,-1.435,-7.892,-3.885,
47849080,-0.611,0.221,0.677,0.665,-3.99,-1.592,
47849090,-0.642,0.26,0.657,0.805,1.312,1.207,
47849100,-0.714,0.276,0.631,-1.82,6.212,4.077,
47849110,-0.771,0.286,0.622,-5.67,7.7,6.195,
47849120,-0.787,0.285,0.623,-8.89,5.285,7.577,
47849130,-0.743,0.271,0.636,-10.902,2.555,9.397,
47849140,-0.693,0.263,0.677,-12.425,5.18,12.32,
47849150,-0.722,0.244,0.664,-14.91,15.12,14.997,
47849160,-0.702,0.245,0.649,-19.355,18.13,17.307,
47849170,-0.656,0.224,0.628,-21.91,22.207,20.737,
47849180,-0.742,0.209,0.604,-22.207,29.12,21.84,
47849190,-0.817,0.202,0.584,-21.122,26.775,18.97,
47849200,-0.757,0.231,0.571,-17.167,19.46,15.715,
47849210,-0.774,0.243,0.571,-12.337,18.305,13.475,
47849220,-0.826,0.267,0.581,-9.187,17.955,11.41,
47849230,-0.835,0.257,0.571,-9.397,13.807,8.05,
47849240,-0.794,0.256,0.564,-8.4,8.05,4.025,
47849250,-0.803,0.226,0.543,-5.985,3.78,1.085,
47849260,-0.767,0.235,0.557,-0.98,-1.4,-1.452,
47849270,-0.771,0.244,0.585,3.202,-3.412,-3.867,
47849280,-0.781,0.231,0.595,3.692,-3.535,-5.39,
47849290,-0.778,0.225,0.588,2.992,-4.83,-4.602,
47849300,-0.777,0.216,0.579,3.272,-5.46,-5.512,
47849310,-0.781,0.193,0.561,4.55,-6.247,-6.79,
47849320,-0.823,0.187,0.559,7.595,-6.807,-8.225,
47849330,-0.923,0.206,0.535,11.287,-14.437,-11.025,
47849330,-0.844,0.282,0.534,16.782,-40.652,-17.045,
47849350,-0.653,0.341,0.613,20.002,-48.615,-18.322,
47849350,-0.794,0.279,0.659,17.64,-35.542,-19.075,
47849370,-0.819,0.284,0.653,14.472,-33.285,-18.34,
47849370,-0.668,0.288,0.651,12.792,-34.195,-16.52,
47849390,-0.643,0.259,0.666,9.555,-25.515,-13.37,
47849390,-0.71,0.233,0.68,4.917,-15.907,-9.432,
47849410,-0.659,0.214,0.677,0.385,-10.692,-5.95,
47849410,-0.687,0.188,0.662,-2.135,-2.03,-1.907,
47849420,-0.702,0.189,0.622,-3.692,1.365,1.417,
47849430,-0.694,0.197,0.61,-3.815,3.027,5.267,
47849440,-0.737,0.225,0.618,-2.712,4.147,8.225,
47849450,-0.744,0.243,0.621,-2.66,5.005,10.832,
47849460,-0.681,0.272,0.64,-3.482,6.965,12.722,
47849470,-0.679,0.279,0.67,-6.527,18.585,15.662,
47849480,-0.694,0.254,0.688,-10.377,31.43,16.642,
47849490,-0.699,0.262,0.682,-14.787,41.02,17.692,
47849500,-0.731,0.246,0.648,-19.425,42.84,15.837,
47849510,-0.688,0.252,0.631,-20.247,41.825,16.677,
47849520,-0.767,0.242,0.603,-19.337,44.695,16.73,
47849530,-0.846,0.232,0.553,-16.852,43.295,15.015,
47849540,-0.776,0.271,0.528,-12.967,33.337,12.197,
47849550,-0.81,0.25,0.498,-8.54,28.087,10.027,
47849560,-0.858,0.243,0.506,-3.78,22.925,5.547,
47849570,-0.873,0.239,0.496,1.347,14.21,2.835,
47849580,-0.852,0.226,0.506,6.317,4.322,-1.732,
47849590,-0.866,0.204,0.524,10.272,0.455,-5.827,
47849600,-0.877,0.201,0.544,11.707,-4.007,-6.247,
47849610,-0.83,0.195,0.552,10.622,-9.782,-5.337,
47849620,-0.819,0.184,0.502,10.482,-12.722,-4.917,
47849630,-0.81,0.273,0.465,11.322,-21.98,-7.157,
47849640,-0.812,0.329,0.55,8.382,-38.535,-8.505,
47849650,-0.819,0.252,0.62,5.18,-36.907,-10.885,
47849660,-0.815,0.285,0.658,6.3,-30.065,-11.357,
47849670,-0.74,0.267,0.637,3.43,-26.897,-10.692,
47849680,-0.664,0.23,0.611,1.785,-23.03,-12.46,
47849690,-0.656,0.21,0.634,4.252,-18.025,-10.692,
47849700,-0.725,0.221,0.647,6.912,-9.782,-6.877,
47849710,-0.744,0.253,0.632,5.617,-7.21,-4.515,
47849720,-0.744,0.241,0.613,1.627,-2.712,-1.89,
47849730,-0.8,0.217,0.574,-1.015,0.122,0.542,
47849740,-0.759,0.236,0.574,-0.595,-2.187,2.205,
47849750,-0.781,0.249,0.598,-0.945,-3.395,3.29,
47849760,-0.772,0.25,0.601,-3.745,-3.587,4.532,
47849760,-0.764,0.252,0.611,-5.32,-2.555,5.39,
47849780,-0.742,0.256,0.612,-6.282,-1.33,7.542,
47849780,-0.675,0.273,0.65,-6.755,0.542,9.747,
47849800,-0.68,0.264,0.7,-9.835,11.707,12.932,
47849800,-0.735,0.224,0.679,-13.107,27.842,13.387,
47849820,-0.743,0.267,0.656,-17.622,29.855,15.172,
47849820,-0.727,0.188,0.565,-21.49,27.632,15.312,
47849830,-0.722,0.227,0.533,-16.992,25.83,15.837,
47849840,-0.811,0.248,0.524,-11.042,24.797,15.575,
47849850,-0.89,0.265,0.504,-7.98,19.932,12.46,
47849860,-0.884,0.267,0.481,-4.672,10.202,6.825,
47849870,-0.861,0.277,0.495,-2.222,0.052,2.292,
47849880,-0.849,0.241,0.545,-0.752,-6.982,-1.802,
47849890,-0.827,0.208,0.564,1.172,-10.552,-4.427,
47849900,-0.78,0.222,0.573,3.85,-13.615,-4.97,
47849910,-0.786,0.201,0.559,4.392,-14.21,-5.915,
47849920,-0.894,0.2,0.46,7.017,-23.222,-9.537,
47849930,-0.777,0.343,0.502,13.842,-48.58,-15.102,
47849940,-0.733,0.359,0.64,14.717,-51.607,-18.672,
47849950,-0.859,0.307,0.695,9.205,-34.772,-15.715,
47849960,-0.784,0.274,0.661,-0.437,-28.42,-10.885,
47849970,-0.626,0.181,0.65,-3.885,-23.73,-10.832,
47849980,-0.595,0.168,0.666,-2.887,-11.76,-6.685,
47849990,-0.652,0.181,0.671,-1.277,0.787,-0.682,
47850000,-0.661,0.194,0.647,-1.995,10.08,1.557,
47850010,-0.7,0.201,0.617,-0.7,18.637,2.852,
47850020,-0.718,0.233,0.587,0.052,24.745,5.18,
47850030,-0.757,0.232,0.571,1.382,29.05,4.445,
47850040,-0.761,0.203,0.652,3.517,33.46,3.867,
47850050,-0.71,0.158,0.636,5.355,42.367,3.762,
47850060,-0.672,0.224,0.607,10.605,53.462,2.555,
47850070,-0.778,0.212,0.588,8.557,56.227,2.975,
47850080,-0.741,0.153,0.541,7.157,60.322,5.547,
47850080,-0.741,0.144,0.512,14.98,67.935,7.017,
47850100,-0.709,0.148,0.502,26.022,78.05,6.3,
47850100,-0.655,0.06,0.508,39.112,96.88,6.93,
47850120,-0.687,0.129,0.558,56.297,124.005,16.38,
47850120,-0.789,0.23,0.562,68.897,143.867,21.822,
47850140,-0.788,0.233,0.507,72.992,154.647,24.64,
47850140,-0.878,0.181,0.437,77.56,160.055,27.93,
47850160,-0.894,0.233,0.391,82.915,159.897,36.085,
47850160,-0.962,0.264,0.357,88.182,154.857,37.467,
47850170,-1.057,0.308,0.378,94.815,142.292,31.902,
47850180,-1.141,0.328,0.363,99.417,116.672,23.572,
47850190,-1.171,0.312,0.384,107.8,82.775,23.432,
47850200,-1.068,0.367,0.375,112.472,45.395,19.407,
47850210,-1.017,0.351,0.347,120.347,18.112,15.977,
47850220,-1.008,0.368,0.31,127.715,2.31,16.31,
47850230,-0.96,0.405,0.268,135.607,-4.165,17.395,
47850240,-0.828,0.437,0.221,142.765,-0.91,8.085,
47850250,-0.921,0.401,0.199,153.002,16.835,7.945,
47850260,-0.932,0.478,0.178,155.032,28.822,8.155,
47850270,-0.929,0.519,0.169,149.327,36.4,0.07,
47850280,-0.965,0.525,0.155,137.235,36.837,-4.147,
47850290,-0.98,0.536,0.148,122.132,30.817,-4.2,
47850300,-0.932,0.586,0.144,100.817,19.302,-4.812,
47850310,-0.984,0.634,0.132,70.017,7.525,-7.682,
47850320,-1.002,0.523,0.122,33.495,-12.81,-11.707,
47850330,-0.887,0.433,0.089,10.062,-27.842,-18.322,
47850340,-0.996,0.409,0.06,-3.885,-39.97,-24.92,
47850350,-0.978,0.33,0.036,-9.712,-53.497,-29.855,
47850360,-0.92,0.287,0.038,-4.637,-63.192,-34.615,
47850370,-0.869,0.316,0.068,5.74,-63.717,-38.762,
47850380,-0.839,0.361,0.102,12.39,-54.53,-43.067,
47850390,-0.814,0.399,0.126,12.6,-38.972,-44.975,
47850400,-0.832,0.399,0.147,8.732,-19.582,-42.77,
47850410,-0.922,0.389,0.141,1.662,-3.395,-39.077,
47850420,-1.005,0.335,0.128,-3.57,2.257,-35.682,
47850430,-1.054,0.317,0.142,-3.675,-3.85,-29.417,
47850440,-1.108,0.355,0.149,-3.43,-17.815,-22.785,
47850450,-1.096,0.361,0.166,-6.51,-38.727,-16.975,
47850460,-1.004,0.363,0.169,-13.965,-58.117,-6.772,
47850470,-0.922,0.397,0.198,-19.477,-64.977,1.645,
47850480,-0.878,0.364,0.222,-26.337,-62.562,5.477,
47850490,-0.792,0.272,0.199,-28.49,-48.632,7.35,
47850500,-0.851,0.361,0.213,-23.975,-30.852,4.322,
47850510,-0.843,0.36,0.23,-23.975,-19.005,3.15,
47850510,-0.848,0.377,0.247,-26.705,-9.607,4.27,
47850530,-0.867,0.383,0.252,-29.312,-3.85,4.935,
47850530,-0.859,0.345,0.227,-31.815,-0.525,5.407,
47850550,-0.909,0.344,0.222,-32.077,0.542,7.035,
47850550,-0.886,0.317,0.224,-29.452,-0.805,7.472,
47850570,-0.896,0.31,0.233,-22.33,-3.552,6.58,
47850570,-0.92,0.333,0.24,-16.922,-8.662,7.98,
47850580,-0.871,0.333,0.247,-12.81,-13.265,8.802,
47850590,-0.876,0.356,0.263,-10.867,-13.422,8.96,
47850600,-0.909,0.368,0.265,-11.777,-12.32,9.52,
47850610,-0.861,0.338,0.271,-12.11,-8.872,6.177,
47850620,-0.899,0.341,0.278,-9.432,-6.387,2.222,
47850630,-0.917,0.36,0.299,-7.805,-7.262,-0.192,
47850640,-0.912,0.343,0.294,-7.665,-12.792,-1.417,
47850650,-0.899,0.343,0.298,-6.842,-17.307,-2.24,
47850660,-0.889,0.35,0.307,-6.895,-21.122,-2.852,
47850670,-0.881,0.33,0.303,-7.507,-22.645,-3.465,
47850680,-0.881,0.297,0.295,-6.562,-22.767,-3.465,
47850690,-0.869,0.282,0.306,-2.31,-21.63,-2.957,
47850700,-0.851,0.284,0.32,3.99,-20.142,-1.855,
47850710,-0.834,0.288,0.326,9.065,-15.697,-1.417,
47850720,-0.833,0.29,0.329,12.25,-8.89,-2.642,
47850730,-0.832,0.286,0.33,14.56,-0.577,-4.182,
47850740,-0.85,0.3,0.335,15.575,5.845,-4.847,
47850750,-0.86,0.303,0.326,14.175,10.5,-5.005,
47850760,-0.883,0.297,0.315,11.375,12.757,-5.88,
47850770,-0.893,0.301,0.308,7.822,12.04,-7.665,
47850780,-0.896,0.299,0.299,2.975,8.732,-9.45,
47850790,-0.913,0.299,0.3,-2.52,3.78,-11.585,
47850800,-0.921,0.303,0.3,-8.732,-3.115,-14.017,
47850810,-0.904,0.302,0.3,-15.277,-10.99,-16.24,
47850820,-0.881,0.291,0.286,-21.087,-16.782,-16.397,
47850830,-0.865,0.272,0.287,-24.377,-18.48,-15.942,
47850830,-0.858,0.27,0.287,-26.057,-17.5,-13.3,
47850850,-0.868,0.313,0.313,-24.325,-17.517,-9.275,
47850850,-0.843,0.294,0.309,-23.94,-16.345,-6.44,
47850870,-0.835,0.294,0.309,-22.925,-11.497,-5.005,
47850870,-0.843,0.314,0.311,-22.75,-5.162,-4.952,
47850890,-0.851,0.346,0.298,-25.462,0.682,-3.815,
47850890,-0.858,0.345,0.297,-25.69,8.54,-4.585,
47850910,-0.877,0.392,0.29,-25.357,12.495,-7.665,
47850910,-0.9,0.396,0.272,-25.76,13.125,-9.292,
47850920,-0.897,0.392,0.244,-25.462,11.2,-8.4,
47850930,-0.868,0.401,0.213,-23.152,9.59,-6.387,
47850940,-0.855,0.387,0.175,-19.372,8.347,-4.41,
47850950,-0.852,0.36,0.142,-14.017,8.96,0.245,
47850960,-0.852,0.351,0.119,-10.097,10.727,3.097,
47850970,-0.914,0.343,0.111,-10.36,14.35,2.135,
47850980,-0.989,0.342,0.115,-15.032,14.017,-2.677,
47850990,-1.055,0.318,0.114,-21.875,9.135,-7.21,
47851000,-1.063,0.288,0.106,-30.432,1.33,-13.09,
47851010,-1.05,0.252,0.095,-34.58,-3.657,-16.065,
47851020,-1.059,0.216,0.113,-31.552,-5.267,-13.212,
47851030,-1.063,0.228,0.167,-22.89,-6.667,-5.04,
47851040,-1.042,0.27,0.235,-12.67,-8.977,3.167,
47851050,-1.044,0.305,0.291,-8.662,-10.22,6.51,
47851060,-1.021,0.336,0.326,-10.482,-13.16,8.207,
47851070,-0.986,0.337,0.327,-16.03,-16.747,9.537,
47851080,-0.935,0.337,0.323,-19.967,-18.952,9.275,
47851090,-0.89,0.316,0.321,-21.857,-18.48,7.805,
47851100,-0.866,0.297,0.325,-22.33,-15.715,4.147,
47851110,-0.842,0.288,0.331,-20.212,-12.057,0.087,
47851120,-0.813,0.298,0.355,-19.197,-7.017,-1.715,
47851130,-0.824,0.331,0.384,-20.842,-1.75,-0.77,
47851140,-0.83,0.326,0.387,-28.105,1.785,-0.735,
47851150,-0.847,0.296,0.397,-35.175,4.322,-3.535,
47851160,-0.836,0.277,0.395,-41.65,4.252,-5.425,
47851170,-0.816,0.284,0.396,-47.6,1.155,-2.66,
47851180,-0.825,0.27,0.401,-51.187,-2.817,1.242,
47851190,-0.876,0.235,0.418,-51.187,-9.17,4.532,
47851200,-0.925,0.216,0.463,-44.415,-19.145,10.5,
47851210,-0.94,0.218,0.504,-34.44,-31.412,17.377,
47851220,-0.915,0.236,0.534,-27.177,-41.23,21.385,
47851230,-0.855,0.253,0.549,-23.747,-43.925,21.84,
47851240,-0.811,0.277,0.552,-23.24,-37.66,22.592,
47851250,-0.779,0.286,0.563,-24.027,-25.637,24.797,
47851260,-0.762,0.304,0.583,-24.885,-11.532,28.21,
47851260,-0.789,0.31,0.551,-27.65,-1.347,30.38,
47851270,-0.814,0.267,0.541,-28.472,8.855,27.457,
47851280,-0.887,0.229,0.517,-27.475,13.965,17.622,
47851290,-0.93,0.2,0.479,-21.647,13.352,3.482,
47851300,-0.941,0.198,0.437,-10.657,9.887,-8.33,
47851310,-0.975,0.218,0.399,0.927,8.295,-13.335,
47851320,-1.024,0.233,0.349,7.472,8.347,-13.09,
47851330,-0.993,0.28,0.296,7.7,13.86,-18.235,
47851340,-1.071,0.301,0.317,10.885,19.792,-26.215,
47851350,-1.163,0.312,0.314,4.217,18.497,-30.73,
47851360,-1.156,0.312,0.323,-6.842,6.842,-36.067,
47851370,-1.094,0.294,0.309,-19.057,-8.4,-43.172,
47851380,-1.088,0.223,0.297,-26.95,-23.957,-45.71,
47851390,-0.997,0.18,0.267,-31.447,-38.482,-45.622,
47851400,-0.956,0.136,0.275,-26.232,-48.737,-43.855,
47851410,-0.894,0.139,0.284,-18.34,-53.13,-40.057,
47851420,-0.838,0.134,0.309,-10.937,-53.515,-35.157,
47851430,-0.81,0.135,0.337,-2.38,-52.325,-29.557,
47851440,-0.765,0.157,0.353,3.412,-50.47,-27.685,
47851450,-0.712,0.159,0.411,13.877,-43.452,-33.495,
47851460,-0.757,0.19,0.46,13.527,-33.197,-23.345,
47851470,-0.755,0.209,0.464,3.08,-26.302,-7.455,
47851480,-0.764,0.192,0.466,2.52,-20.51,1.575,
47851490,-0.814,0.165,0.462,3.832,-14.63,10.99,
47851500,-0.798,0.15,0.45,6.72,-10.062,19.39,
47851510,-0.805,0.129,0.443,12.565,-4.112,23.537,
47851520,-0.729,0.131,0.422,22.295,2.8,14.63,
47851530,-0.774,0.145,0.441,32.13,12.95,16.082,
47851540,-0.806,0.149,0.439,28,17.325,25.287,
47851550,-0.853,0.167,0.431,26.005,15.137,37.065,
47851560,-0.896,0.187,0.435,23.187,7.35,40.127,
47851570,-0.95,0.177,0.441,20.16,-3.447,41.317,
47851580,-0.867,0.167,0.413,15.82,-14.542,30.415,
47851580,-0.91,0.167,0.467,15.295,-19.232,25.112,
47851600,-0.927,0.138,0.45,0.122,-20.492,30.537,
47851600,-0.953,0.118,0.425,-5.617,-18.182,36.75,
47851620,-1.033,0.099,0.43,-5.862,-10.692,36.277,
47851620,-1.095,0.097,0.431,-6.387,-3.71,31.36,
47851640,-1.144,0.096,0.426,-7.367,-1.312,24.36,
47851640,-1.119,0.124,0.415,-6.002,-7.595,15.172,
47851660,-1.038,0.169,0.408,-7.28,-16.1,10.307,
47851660,-0.966,0.206,0.379,-14.997,-25.322,7.56,
47851670,-0.883,0.176,0.352,-22.872,-30.24,9.292,
47851680,-0.851,0.165,0.358,-27.3,-30.467,14.595,
47851690,-0.855,0.149,0.369,-27.772,-31.342,20.667,
47851700,-0.836,0.162,0.389,-20.807,-34.247,20.93,
47851710,-0.806,0.213,0.43,-12.775,-34.702,24.78,
47851720,-0.805,0.254,0.467,-8.697,-32.06,28.682,
47851730,-0.82,0.29,0.508,-7.525,-25.007,34.072,
47851740,-0.818,0.282,0.503,-10.5,-17.5,36.785,
47851750,-0.796,0.254,0.49,-8.277,-8.4,38.062,
47851760,-0.776,0.264,0.491,-3.675,0.157,41.107,
47851770,-0.788,0.29,0.499,1.207,7.787,44.38,
47851780,-0.763,0.318,0.517,4.392,14.297,46.725,
47851790,-0.728,0.365,0.528,4.97,25.357,50.522,
47851800,-0.738,0.409,0.501,1.347,42.157,53.305,
47851810,-0.803,0.406,0.466,-6.37,61.845,50.207,
47851820,-0.847,0.395,0.45,-14.542,74.287,39.392,
47851830,-0.896,0.429,0.464,-24.185,73.605,27.09,
47851840,-0.968,0.35,0.416,-34.405,57.767,22.172,
47851850,-0.935,0.359,0.425,-33.617,35.647,15.295,
47851860,-0.888,0.324,0.403,-34.37,17.955,7.875,
47851870,-0.886,0.308,0.397,-28.63,8.855,2.327,
47851880,-0.913,0.298,0.389,-20.755,2.94,-0.612,
47851890,-0.946,0.301,0.38,-11.48,-3.01,-4.305,
47851900,-0.959,0.312,0.369,-4.392,-11.742,-8.837,
47851910,-0.962,0.313,0.358,-1.207,-23.222,-12.11,
47851920,-0.953,0.312,0.35,-1.015,-35.122,-14.385,
47851930,-0.924,0.308,0.351,-2.852,-45.412,-14.98,
47851940,-0.905,0.283,0.372,-5.652,-51.73,-14.21,
47851950,-0.892,0.266,0.412,-5.74,-55.685,-12.197,
47851960,-0.853,0.27,0.458,-3.325,-57.505,-8.82,
47851960,-0.795,0.296,0.48,-4.27,-56.175,-5.39,
47851980,-0.779,0.296,0.498,-3.377,-51.205,-5.827,
47851980,-0.759,0.289,0.509,-1.207,-45.29,-7.91,
47852000,-0.724,0.292,0.527,1.032,-37.782,-10.447,
47852000,-0.692,0.301,0.558,1.977,-27.475,-12.075,
47852010,-0.715,0.298,0.565,0.98,-14.49,-9.94,
47852020,-0.739,0.289,0.542,0.07,-3.692,-7.822,
47852030,-0.791,0.284,0.517,-0.63,4.217,-7.07,
47852040,-0.841,0.278,0.48,-0.682,6.195,-4.515,
47852050,-0.901,0.293,0.457,1.365,3.745,-4.165,
47852060,-0.92,0.309,0.437,1.61,-3.43,-5.495,
47852070,-0.926,0.327,0.426,0.175,-12.95,-8.225,
47852080,-0.932,0.326,0.42,-4.095,-25.042,-11.445,
47852090,-0.936,0.316,0.428,-7.98,-36.802,-14.472,
47852100,-0.915,0.308,0.448,-10.675,-48.387,-17.57,
47852110,-0.854,0.291,0.494,-12.67,-55.44,-19.057,
47852120,-0.816,0.26,0.521,-14.717,-58.205,-17.482,
47852130,-0.759,0.219,0.541,-13.755,-55.545,-14.542,
47852140,-0.702,0.171,0.596,-9.642,-45.045,-9.152,
47852150,-0.685,0.206,0.583,-1.277,-30.03,-4.025,
47852160,-0.703,0.273,0.574,2.187,-21.052,-4.322,
47852170,-0.785,0.26,0.558,-0.84,-15.155,-4.462,
47852180,-0.84,0.275,0.532,-2.66,-13.405,-2.03,
47852190,-0.863,0.28,0.516,-2.695,-16.17,-0.157,
47852200,-0.851,0.307,0.517,-5.372,-22.435,-0.997,
47852210,-0.823,0.241,0.557,-8.365,-24.447,-1.05,
47852220,-0.743,0.26,0.571,-6.09,-22.47,1.732,
47852230,-0.703,0.27,0.593,-7.84,-18.655,3.972,
47852240,-0.694,0.259,0.607,-11.13,-12.932,6.002,
47852250,-0.684,0.272,0.61,-14.595,-5.25,10.885,
47852260,-0.658,0.334,0.623,-19.39,7.332,15.785,
47852270,-0.813,0.279,0.587,-30.38,20.212,19.862,
47852280,-0.772,0.24,0.556,-34.615,20.982,23.975,
47852290,-0.771,0.29,0.54,-35.822,21.717,30.957,
47852300,-0.817,0.284,0.536,-38.465,23.975,30.642,
47852310,-0.852,0.233,0.519,-36.487,22.277,27.247,
47852320,-0.838,0.228,0.502,-31.377,18.007,23.747,
47852330,-0.789,0.257,0.505,-23.712,13.107,19.845,
47852330,-0.827,0.277,0.521,-19.04,13.055,17.325,
47852350,-0.808,0.246,0.525,-17.482,10.202,13.65,
47852350,-0.786,0.285,0.542,-12.285,10.255,12.547,
47852370,-0.851,0.252,0.543,-11.305,10.132,7.997,
47852370,-0.828,0.228,0.542,-8.33,6.597,2.047,
47852390,-0.836,0.268,0.53,-2.625,3.01,-1.697,
47852390,-0.847,0.293,0.528,-0.42,0.49,-5.897,
47852410,-0.896,0.256,0.505,-0.682,-3.675,-10.027,
47852410,-0.892,0.228,0.48,1.435,-9.922,-12.845,
47852420,-0.87,0.206,0.479,6.58,-17.412,-15.137,
47852430,-0.866,0.157,0.469,12.757,-25.515,-17.237,
47852440,-0.704,0.219,0.525,23.52,-36.277,-19.092,
47852450,-0.745,0.328,0.595,28.945,-33.04,-17.097,
47852460,-0.79,0.309,0.612,22.137,-27.982,-17.797,
47852470,-0.755,0.286,0.591,16.957,-23.467,-17.185,
47852480,-0.783,0.251,0.569,13.317,-19.162,-15.942,
47852490,-0.762,0.251,0.558,12.495,-17.395,-15.12,
47852500,-0.839,0.224,0.545,12.18,-17.395,-14.28,
47852510,-0.805,0.235,0.541,13.772,-22.19,-14.297,
47852520,-0.799,0.254,0.557,15.925,-23.205,-13.527,
47852530,-0.807,0.266,0.569,13.335,-20.912,-11.655,
47852540,-0.771,0.271,0.582,7.577,-20.247,-8.505,
47852550,-0.769,0.267,0.606,0.91,-16.992,-4.007,
47852560,-0.728,0.223,0.602,-4.76,-14.787,-0.77,
47852570,-0.662,0.237,0.614,-5.075,-9.415,2.257,
47852580,-0.678,0.273,0.63,-6.195,-0.42,6.107,
47852590,-0.721,0.279,0.621,-9.695,8.015,9.205,
47852600,-0.715,0.305,0.603,-12.39,14.525,11.217,
47852610,-0.72,0.365,0.614,-18.112,26.145,14.332,
47852620,-0.87,0.271,0.573,-29.592,35.105,15.627,
47852630,-0.781,0.205,0.534,-31.167,33.512,15.942,
47852640,-0.77,0.219,0.52,-26.88,32.217,17.237,
47852650,-0.806,0.216,0.516,-25.392,30.852,18.812,
47852660,-0.854,0.213,0.511,-22.487,26.127,19.792,
47852670,-0.866,0.205,0.508,-19.04,19.845,19.005,
47852670,-0.834,0.253,0.532,-13.492,15.54,16.835,
47852690,-0.857,0.251,0.537,-11.55,13.02,13.93,
47852690,-0.797,0.255,0.532,-10.587,9.572,11.567,
47852710,-0.809,0.236,0.53,-9.275,7.752,10.64,
47852710,-0.798,0.234,0.537,-7.087,6.65,9.817,
47852730,-0.817,0.255,0.536,-4.567,5.197,8.295,
47852730,-0.833,0.244,0.502,-2.782,2.485,5.285,
47852750,-0.867,0.287,0.51,1.435,-1.732,2.152,
47852750,-0.915,0.285,0.506,1.82,-6.492,-2.38,
47852760,-0.897,0.242,0.487,2.642,-12.617,-8.225,
47852770,-0.852,0.217,0.482,6.247,-18.34,-11.567,
47852780,-0.819,0.182,0.511,10.185,-21.455,-13.912,
47852790,-0.87,0.146,0.519,16.135,-26.985,-16.152,
47852800,-0.663,0.29,0.6,27.317,-33.88,-16.24,
47852810,-0.745,0.35,0.63,24.22,-25.882,-16.467,
47852820,-0.813,0.307,0.604,13.51,-20.265,-18.41,
47852830,-0.781,0.302,0.583,9.31,-17.692,-17.535,
47852840,-0.799,0.262,0.551,4.182,-13.247,-18.707,
47852850,-0.838,0.247,0.539,2.817,-12.232,-20.125,
47852860,-0.822,0.232,0.535,5.18,-18.917,-18.532,
47852870,-0.81,0.227,0.529,6.527,-25.55,-17.885,
47852880,-0.768,0.214,0.541,7.875,-26.722,-17.027,
47852890,-0.809,0.22,0.542,8.802,-23.24,-16.485,
47852900,-0.748,0.231,0.57,10.622,-23.047,-13.562,
47852910,-0.786,0.225,0.59,8.312,-18.497,-9.957,
47852920,-0.737,0.245,0.609,5.722,-19.267,-6.282,
47852930,-0.682,0.246,0.63,2.642,-15.225,-0.98,
47852940,-0.707,0.212,0.613,-1.802,-7.262,2.572,
47852950,-0.69,0.226,0.611,-0.542,0.105,6.142,
47852960,-0.733,0.258,0.598,-0.805,5.862,9.047,
47852970,-0.767,0.266,0.593,-3.29,8.907,11.147,
47852980,-0.767,0.299,0.599,-7.175,11.165,13.002,
47852990,-0.823,0.279,0.585,-14.98,16.66,15.277,
47853000,-0.786,0.229,0.558,-21.437,18.812,16.31,
47853010,-0.744,0.23,0.555,-23.24,20.895,19.722,
47853020,-0.746,0.241,0.561,-26.547,24.85,24.395,
47853030,-0.819,0.208,0.56,-28.735,29.75,28.385,
47853040,-0.878,0.183,0.544,-29.837,29.575,30.012,
47853050,-0.854,0.192,0.524,-27.632,23.625,29.19,
47853060,-0.844,0.242,0.547,-22.19,18.025,27.387,
47853070,-0.828,0.238,0.551,-21.612,15.155,23.555,
47853080,-0.796,0.263,0.563,-17.272,13.492,19.88,
47853080,-0.781,0.294,0.563,-14.42,11.795,16.065,
47853100,-0.777,0.296,0.551,-12.687,11.13,12.057,
47853100,-0.793,0.274,0.527,-9.275,8.82,8.015,
47853120,-0.8,0.288,0.497,-3.85,5.687,5.04,
47853120,-0.86,0.31,0.501,0.805,0.595,0.525,
47853140,-0.91,0.284,0.512,1.855,-5.792,-5.285,
47853140,-0.895,0.252,0.511,2.205,-12.442,-9.992,
47853160,-0.862,0.214,0.512,2.432,-16.782,-12.722,
47853160,-0.828,0.177,0.54,4.34,-19.827,-14.315,
47853170,-0.795,0.122,0.513,9.695,-25.497,-16.257,
47853180,-0.655,0.253,0.574,21.14,-28.945,-15.382,
47853190,-0.806,0.268,0.607,21.945,-23.677,-15.645,
47853200,-0.789,0.244,0.579,19.88,-25.637,-17.29,
47853210,-0.768,0.281,0.579,21.332,-24.955,-16.327,
47853220,-0.833,0.248,0.54,18.287,-24.815,-16.835,
47853230,-0.814,0.232,0.533,17.377,-28.665,-15.89,
47853240,-0.817,0.238,0.533,15.032,-30.87,-12.407,
47853250,-0.828,0.211,0.545,12.232,-32.567,-7.945,
47853260,-0.767,0.205,0.562,11.392,-34.982,-4.532,
47853270,-0.72,0.247,0.627,10.727,-29.54,0.997,
47853280,-0.772,0.231,0.624,6.02,-21.717,5.687,
47853290,-0.694,0.236,0.617,3.71,-18.62,5.88,
47853300,-0.683,0.256,0.613,4.55,-12.722,7.437,
47853310,-0.742,0.275,0.608,3.78,-6.16,9.485,
47853320,-0.771,0.291,0.604,1.067,-3.132,10.92,
47853330,-0.771,0.291,0.597,-2.765,-1.452,11.725,
47853340,-0.74,0.291,0.597,-6.93,0.595,12.687,
47853350,-0.726,0.347,0.624,-12.46,7.192,15.977,
47853360,-0.802,0.31,0.618,-23.642,17.255,20.002,
47853370,-0.759,0.208,0.574,-31.535,20.51,21.087,
47853380,-0.706,0.207,0.575,-26.967,23.222,24.692,
47853390,-0.747,0.276,0.581,-23.607,27.282,26.705,
47853400,-0.804,0.223,0.57,-24.237,28.84,25.357,
47853410,-0.786,0.224,0.575,-21.297,27.387,24.85,
47853420,-0.787,0.246,0.574,-17.622,25.27,22.435,
47853420,-0.762,0.261,0.569,-14.612,23.467,16.8,
47853440,-0.829,0.236,0.546,-11.287,21.84,16.082,
47853440,-0.78,0.274,0.53,-7.98,15.942,13.93,
47853460,-0.815,0.29,0.537,-2.712,13.79,12.18,
47853460,-0.851,0.283,0.51,-2.38,8.89,8.312,
47853480,-0.832,0.289,0.517,-0.262,1.155,4.2,
47853480,-0.833,0.293,0.545,0.507,-5.46,0.665,
47853500,-0.815,0.26,0.553,-0.717,-9.012,-1.627,
47853500,-0.804,0.241,0.548,-0.945,-12.32,-1.837,
47853510,-0.803,0.236,0.547,0.14,-14.052,-1.925,
47853520,-0.827,0.234,0.544,2.03,-15.627,-2.852,
47853530,-0.879,0.2,0.528,4.76,-17.78,-4.567,
47853540,-0.88,0.174,0.478,11.165,-29.295,-9.572,
47853550,-0.785,0.296,0.546,23.555,-41.982,-13.755,
47853560,-0.849,0.317,0.574,28.56,-47.18,-20.195,
47853570,-0.816,0.301,0.587,27.807,-53.06,-25.742,
47853580,-0.742,0.325,0.615,27.79,-54.285,-28.63,
47853590,-0.691,0.339,0.628,22.452,-49.28,-29.645,
47853600,-0.677,0.293,0.639,10.132,-37.852,-20.37,
47853610,-0.726,0.227,0.616,1.942,-25.76,-13.352,
47853620,-0.696,0.214,0.624,1.627,-19.46,-9.345,
47853630,-0.675,0.228,0.634,0.822,-11.497,-5.547,
47853640,-0.711,0.227,0.632,-1.137,-4.095,-0.682,
47853650,-0.735,0.242,0.631,-4.182,1.855,3.465,
47853660,-0.722,0.236,0.622,-6.842,5.425,6.072,
47853670,-0.696,0.253,0.63,-7.875,10.99,9.03,
47853680,-0.701,0.283,0.633,-9.555,17.762,11.427,
47853690,-0.686,0.318,0.616,-12.022,25.392,12.687,
47853700,-0.7,0.405,0.651,-18.585,39.182,16.87,
47853710,-0.872,0.249,0.595,-32.9,51.747,18.515,
47853720,-0.774,0.161,0.533,-31.937,48.737,18.095,
47853730,-0.754,0.231,0.544,-22.925,46.165,21.367,
47853740,-0.875,0.19,0.528,-25.007,42.105,24.115,
47853750,-0.83,0.189,0.507,-23.852,31.71,22.68,
47853760,-0.811,0.228,0.525,-14.77,24.85,24.675,
47853770,-0.833,0.267,0.541,-12.897,21.35,23.852,
47853780,-0.801,0.24,0.543,-11.497,18.62,19.95,
47853790,-0.728,0.313,0.583,-6.597,18.235,18.112,
47853800,-0.769,0.327,0.594,-7.21,23.03,16.362,
47853810,-0.76,0.288,0.573,-9.415,24.902,11.9,
47853820,-0.763,0.263,0.53,-7.017,23.835,11.165,
47853830,-0.795,0.277,0.503,-3.185,19.075,9.765,
47853830,-0.869,0.305,0.491,0.945,12.512,6.912,
47853850,-0.909,0.318,0.498,2.065,2.31,2.1,
47853850,-0.918,0.286,0.51,1.662,-7.157,-2.992,
47853870,-0.868,0.254,0.511,1.785,-15.592,-7.017,
47853870,-0.85,0.189,0.519,2.992,-20.965,-9.73,
47853890,-0.81,0.15,0.475,8.68,-31.325,-13.405,
47853890,-0.747,0.271,0.52,20.877,-39.97,-15.172,
47853910,-0.867,0.34,0.571,24.78,-41.982,-20.527,
47853910,-0.847,0.351,0.589,22.26,-43.19,-26.95,
47853920,-0.776,0.365,0.607,17.675,-41.807,-29.522,
47853930,-0.748,0.289,0.589,8.277,-33.932,-27.755,
47853940,-0.743,0.201,0.558,3.57,-28.647,-23.275,
47853950,-0.734,0.19,0.573,4.165,-26.285,-16.52,
47853960,-0.743,0.206,0.582,4.847,-23.187,-11.865,
47853970,-0.732,0.238,0.615,4.007,-17.587,-7.612,
47853980,-0.764,0.219,0.597,0.542,-10.097,-2.135,
47853990,-0.761,0.214,0.588,-1.505,-6.387,2.152,
47854000,-0.749,0.229,0.594,-1.557,-4.305,5.075,
47854010,-0.745,0.251,0.599,-1.487,-1.085,6.965,
47854020,-0.718,0.279,0.598,-2.555,2.59,7.84,
47854030,-0.697,0.325,0.614,-5.67,9.677,9.73,
47854040,-0.738,0.339,0.627,-13.947,21.962,13.93,
47854050,-0.806,0.292,0.596,-24.132,33.057,17.08,
47854060,-0.77,0.223,0.573,-27.947,37.117,17.15,
47854070,-0.76,0.2,0.56,-25.637,40.355,16.607,
47854080,-0.804,0.238,0.556,-23.502,40.95,15.242,
47854090,-0.815,0.24,0.56,-19.845,37.537,17.097,
47854100,-0.812,0.242,0.534,-18.865,32.69,17.675,
47854110,-0.771,0.265,0.533,-16.152,28.157,16.082,
47854120,-0.82,0.267,0.542,-12.215,26.355,14.49,
47854130,-0.8,0.285,0.519,-10.342,22.102,12.337,
47854140,-0.81,0.304,0.525,-6.877,17.465,10.517,
47854150,-0.863,0.273,0.495,-6.177,13.475,6.492,
47854160,-0.844,0.299,0.501,-2.94,6.457,1.907,
47854170,-0.882,0.287,0.502,-1.347,-0.35,-2.292,
47854170,-0.87,0.251,0.504,-0.437,-7.14,-5.862,
47854190,-0.863,0.233,0.513,1.487,-12.407,-7.84,
47854190,-0.848,0.218,0.51,2.94,-16.17,-9.625,
47854210,-0.831,0.209,0.533,5.792,-18.812,-10.885,
47854210,-0.899,0.094,0.504,8.592,-24.01,-13.37,
47854230,-0.701,0.212,0.506,21.262,-35.262,-16.625,
47854230,-0.839,0.269,0.541,30.94,-34.195,-19.915,
47854250,-0.9,0.267,0.529,30.45,-41.212,-26.495,
47854250,-0.856,0.336,0.554,33.67,-47.39,-31.675,
47854260,-0.818,0.386,0.595,29.417,-47.757,-36.942,
47854270,-0.799,0.329,0.595,19.512,-41.72,-38.15,
47854280,-0.754,0.268,0.568,11.042,-39.34,-35.402,
47854290,-0.694,0.232,0.565,6.527,-36.242,-29.855,
47854300,-0.697,0.208,0.588,6.58,-30.87,-24.01,
47854310,-0.744,0.192,0.601,7.455,-23.66,-19.11,
47854320,-0.735,0.219,0.603,8.435,-21.875,-16.712,
47854330,-0.727,0.217,0.622,7.962,-17.045,-14.402,
47854340,-0.769,0.208,0.605,4.76,-11.252,-8.155,
47854350,-0.741,0.221,0.603,2.485,-8.277,-4.375,
47854360,-0.769,0.214,0.596,-1.102,-2.975,0.035,
47854370,-0.766,0.188,0.575,-3.85,-1.26,2.957,
47854380,-0.72,0.212,0.593,-4.007,-0.962,5.88,
47854390,-0.739,0.238,0.609,-6.527,2.887,10.167,
47854400,-0.743,0.246,0.614,-9.485,6.212,13.212,
47854410,-0.701,0.258,0.612,-13.072,10.92,15.277,
47854420,-0.645,0.343,0.649,-17.237,25.06,20.702,
47854430,-0.862,0.267,0.607,-30.555,44.187,25.322,
47854440,-0.821,0.143,0.54,-38.78,44.362,22.102,
47854450,-0.678,0.214,0.566,-30.59,43.032,25.9,
47854460,-0.789,0.28,0.584,-29.715,47.845,30.73,
47854470,-0.854,0.226,0.574,-34.212,49.315,28.717,
47854480,-0.829,0.232,0.567,-30.782,46.375,27.737,
47854490,-0.849,0.241,0.544,-27.702,42.945,26.512,
47854500,-0.837,0.228,0.518,-25.97,34.982,22.557,
47854510,-0.826,0.249,0.51,-20.177,27.125,20.772,
47854520,-0.82,0.29,0.5,-15.032,21.437,16.257,
47854530,-0.845,0.29,0.507,-11.795,15.855,11.077,
47854540,-0.854,0.266,0.465,-9.94,8.312,5.6,
47854550,-0.842,0.297,0.475,-3.482,-0.997,1.452,
47854560,-0.897,0.281,0.506,0.245,-6.545,-3.097,
47854570,-0.894,0.259,0.527,1.067,-11.532,-7.105,
47854580,-0.856,0.22,0.524,0.49,-15.155,-10.29,
47854580,-0.825,0.154,0.516,0.472,-16.625,-12.967,
47854600,-0.87,0.074,0.475,5.932,-23.712,-16.292,
47854600,-0.694,0.207,0.48,19.04,-39.27,-17.185,
47854620,-0.774,0.287,0.537,26.372,-41.23,-18.095,
47854620,-0.878,0.3,0.572,24.062,-42.227,-21.962,
47854640,-0.902,0.341,0.589,23.502,-45.29,-23.992,
47854640,-0.863,0.329,0.598,18.462,-47.53,-26.617,
47854660,-0.793,0.271,0.59,13.16,-43.907,-27.44,
47854660,-0.766,0.206,0.556,11.585,-41.965,-26.792,
47854670,-0.703,0.183,0.56,14.227,-39.06,-24.202,
47854680,-0.698,0.2,0.564,15.977,-32.025,-23.94,
47854690,-0.787,0.192,0.609,15.82,-24.535,-21.927,
47854700,-0.788,0.183,0.602,7.525,-21.35,-12.915,
47854710,-0.783,0.175,0.627,2.87,-12.687,-6.457,
47854720,-0.796,0.127,0.589,-3.605,-8.557,-3.692,
47854730,-0.709,0.114,0.577,-2.87,-7.63,0.227,
47854740,-0.721,0.177,0.593,-0.367,-4.007,6.142,
47854750,-0.741,0.216,0.607,-2.31,0.577,10.255,
47854760,-0.752,0.247,0.627,-5.617,5.46,12.792,
47854770,-0.69,0.286,0.641,-9.362,13.142,14.472,
47854780,-0.716,0.296,0.68,-16.222,31.237,18.287,
47854790,-0.836,0.242,0.63,-29.085,49.017,19.687,
47854800,-0.787,0.204,0.575,-33.547,51.537,20.037,
47854810,-0.798,0.223,0.549,-32.165,52.902,21.717,
47854820,-0.896,0.181,0.509,-32.357,46.76,21.892,
47854830,-0.809,0.208,0.512,-26.652,34.772,20.912,
47854840,-0.809,0.259,0.533,-20.597,27.772,21,
47854850,-0.864,0.257,0.531,-19.285,22.837,18.2,
47854860,-0.864,0.283,0.538,-15.242,14.84,16.905,
47854870,-0.856,0.277,0.505,-12.845,7.052,10.867,
47854880,-0.841,0.275,0.498,-5.845,0.577,2.31,
47854890,-0.871,0.236,0.441,-1.382,-7.42,-3.745,
47854900,-0.794,0.288,0.475,5.88,-16.222,-7.927,
47854910,-0.81,0.264,0.539,8.172,-17.867,-9.432,
47854920,-0.803,0.217,0.571,6.142,-17.797,-9.537,
47854920,-0.757,0.172,0.573,4.182,-17.482,-8.75,
47854940,-0.738,0.153,0.584,3.395,-15.155,-7.175,
47854940,-0.808,0.105,0.599,4.427,-12.915,-5.67,
47854960,-0.831,0.071,0.549,6.982,-19.757,-7.017,
47854960,-0.686,0.187,0.518,18.042,-29.207,-6.527,
47854980,-0.819,0.211,0.504,23.747,-28.665,-9.047,
47854980,-0.901,0.246,0.529,26.985,-32.655,-12.232,
47855000,-0.932,0.329,0.581,30.607,-35.245,-14.91,
47855000,-0.925,0.34,0.605,23.012,-35.962,-19.337,
47855010,-0.832,0.286,0.611,12.267,-33.162,-22.33,
47855020,-0.763,0.214,0.607,1.557,-27.772,-21.157,
47855030,-0.713,0.155,0.602,-3.99,-21.087,-16.38,
47855040,-0.634,0.136,0.637,-5.407,-12.25,-9.555,
47855050,-0.682,0.12,0.61,-6.16,-0.017,-1.365,
47855060,-0.683,0.146,0.594,-5.74,6.23,4.672,
47855070,-0.756,0.183,0.603,-5.687,12.11,10.412,
47855080,-0.801,0.231,0.609,-9.8,13.212,14.507,
47855090,-0.741,0.271,0.642,-15.627,14.91,17.5,
47855100,-0.745,0.282,0.697,-23.677,29.4,22.785,
47855110,-0.815,0.242,0.658,-38.255,44.362,25.795,
47855120,-0.727,0.179,0.629,-45.762,49.21,25.97,
47855130,-0.744,0.179,0.621,-46.13,53.48,26.407,
47855140,-0.866,0.153,0.566,-49.91,52.692,24.885,
47855150,-0.798,0.142,0.523,-49,48.317,25.357,
47855160,-0.85,0.184,0.514,-42.735,40.687,25.532,
47855170,-0.829,0.184,0.467,-39.725,31.185,22.487,
47855180,-0.828,0.213,0.451,-31.307,23.38,21.682,
47855190,-0.84,0.231,0.437,-24.675,16.94,21.297,
47855200,-0.836,0.228,0.427,-16.24,9.52,19.687,
47855210,-0.807,0.252,0.414,-8.96,3.412,18.27,
47855220,-0.811,0.32,0.474,-0.385,1.505,17.762,
47855230,-0.912,0.349,0.548,3.132,3.587,15.89,
47855240,-0.905,0.347,0.592,-0.805,-0.175,9.292,
47855250,-0.808,0.282,0.583,-6.195,-4.27,3.01,
47855260,-0.769,0.223,0.558,-8.645,-3.78,1.277,
47855270,-0.781,0.188,0.531,-7.21,-2.66,2.012,
47855280,-0.817,0.17,0.507,-3.71,-2.327,3.15,
47855290,-0.865,0.135,0.479,0.455,-4.585,3.447,
47855300,-0.937,0.108,0.354,6.912,-13.282,0.227,
47855310,-0.833,0.214,0.391,18.287,-35.805,-2.852,
47855320,-0.937,0.273,0.527,27.282,-37.607,-5.985,
47855330,-0.953,0.303,0.611,24.08,-38.395,-11.445,
47855330,-0.826,0.299,0.608,16.8,-36.575,-13.405,
47855350,-0.78,0.22,0.593,5.985,-31.202,-12.547,
47855350,-0.736,0.148,0.574,1.697,-25.812,-10.08,
47855360,-0.712,0.161,0.576,3.517,-21.98,-6.142,
47855370,-0.758,0.179,0.571,3.99,-16.362,-1.995,
47855380,-0.811,0.196,0.553,3.587,-13.405,1.137,
47855390,-0.824,0.216,0.564,2.502,-11.952,3.237,
47855400,-0.841,0.209,0.569,0.402,-11.112,3.762,
47855410,-0.812,0.211,0.577,-1.155,-10.5,3.412,
47855420,-0.787,0.211,0.582,-3.062,-9.065,3.727,
47855430,-0.751,0.228,0.602,-3.972,-4.147,4.2,
47855440,-0.695,0.258,0.595,-5.6,4.112,4.2,
47855450,-0.75,0.322,0.623,-8.89,20.037,6.737,
47855460,-0.894,0.243,0.608,-17.587,33.985,8.067,
47855470,-0.842,0.211,0.591,-22.942,32.27,8.785,
47855480,-0.735,0.259,0.567,-23.1,28.752,9.677,
47855490,-0.77,0.26,0.564,-23.52,30.52,6.842,
47855500,-0.779,0.201,0.564,-24.937,29.995,8.172,
47855510,-0.794,0.201,0.518,-21.367,27.055,8.89,
47855520,-0.767,0.212,0.499,-16.45,19.915,8.522,
47855530,-0.804,0.187,0.49,-12.635,15.592,10.027,
47855540,-0.85,0.163,0.457,-6.807,7.7,8.557,
47855550,-0.786,0.216,0.488,1.68,-2.712,7.542,
47855560,-0.871,0.228,0.552,4.742,-3.57,6.93,
47855570,-0.904,0.238,0.557,2.747,-3.36,4.567,
47855580,-0.859,0.232,0.534,1.155,-4.83,1.19,
47855590,-0.843,0.2,0.511,-0.315,-6.387,-1.627,
47855600,-0.866,0.163,0.443,1.662,-10.255,-3.815,
47855610,-0.782,0.221,0.432,6.72,-25.305,-6.702,
47855620,-0.802,0.246,0.516,14.7,-31.587,-6.527,
47855630,-0.914,0.297,0.583,16.485,-30.502,-9.432,
47855640,-0.889,0.275,0.587,13.055,-31.657,-12.145,
47855650,-0.866,0.21,0.543,9.362,-31.185,-15.82,
47855660,-0.771,0.216,0.54,10.885,-34.44,-18.707,
47855670,-0.762,0.217,0.568,12.705,-32.532,-18.27,
47855670,-0.789,0.224,0.607,10.36,-27.16,-16.467,
47855690,-0.783,0.227,0.608,6.44,-22.767,-14.472,
47855690,-0.775,0.205,0.592,0.647,-17.535,-11.742,
47855710,-0.766,0.171,0.595,-4.392,-13.055,-8.225,
47855710,-0.768,0.143,0.584,-7.105,-8.837,-3.78,
47855730,-0.74,0.151,0.592,-7.035,-4.97,0.437,
47855730,-0.77,0.172,0.588,-6.842,0.927,4.112,
47855750,-0.786,0.211,0.594,-6.475,5.267,6.09,
47855750,-0.769,0.231,0.604,-6.825,10.5,5.897,
47855760,-0.756,0.237,0.661,-8.417,18.742,7.42,
47855770,-0.749,0.268,0.649,-12.477,32.847,10.43,
47855780,-0.849,0.262,0.594,-22.522,38.43,11.76,
47855790,-0.848,0.196,0.559,-29.75,37.45,11.042,
47855800,-0.824,0.204,0.524,-27.842,33.145,10.972,
47855810,-0.839,0.209,0.496,-26.757,29.872,10.447,
47855820,-0.838,0.204,0.493,-25.392,23.852,9.152,
47855830,-0.852,0.216,0.496,-21.542,19.302,8.522,
47855840,-0.831,0.223,0.504,-19.652,12.897,7.14,
47855850,-0.89,0.183,0.518,-18.147,8.137,9.66,
47855860,-0.766,0.207,0.478,-15.067,-0.682,3.867,
47855870,-0.81,0.193,0.515,-3.692,-2.572,0.175,
47855880,-0.823,0.19,0.508,-2.432,-8.435,-0.56,
47855890,-0.768,0.219,0.556,2.8,-12.232,-0.017,
47855900,-0.832,0.212,0.574,0.455,-10.727,0.14,
47855910,-0.826,0.192,0.565,-1.715,-11.13,0.105,
47855920,-0.804,0.18,0.544,-2.94,-12.372,-0.35,
47855930,-0.815,0.157,0.518,-2.852,-12.512,0.262,
47855940,-0.818,0.144,0.51,0.017,-12.967,1.172,
47855950,-0.891,0.106,0.475,3.675,-14.805,1.452,
47855960,-0.809,0.177,0.433,9.922,-30.8,-1.47,
47855970,-0.732,0.224,0.496,21,-35.595,-2.187,
47855980,-0.909,0.241,0.567,23.835,-30.975,-4.392,
47855990,-0.905,0.277,0.571,24.045,-36.015,-7.157,
47856000,-0.891,0.243,0.576,22.4,-37.327,-11.672,
47856010,-0.874,0.183,0.524,20.86,-39.567,-16.625,
47856020,-0.778,0.223,0.56,26.005,-45.045,-17.71,
47856030,-0.78,0.216,0.594,24.867,-42.997,-18.322,
47856030,-0.737,0.241,0.628,20.142,-41.597,-16.957,
47856050,-0.734,0.23,0.672,13.58,-33.95,-12.495,
47856050,-0.79,0.16,0.662,3.482,-22.785,-8.995,
47856070,-0.727,0.138,0.646,-1.575,-17.955,-5.722,
47856070,-0.728,0.126,0.621,-3.727,-11.427,-1.627,
47856080,-0.729,0.151,0.612,-4.27,-6.702,2.59,
47856090,-0.761,0.194,0.618,-4.882,-1.767,6.352,
47856100,-0.779,0.225,0.627,-9.17,2.817,6.615,
47856110,-0.741,0.251,0.63,-12.18,7.245,5.967,
47856120,-0.718,0.278,0.675,-16.292,18.987,8.977,
47856130,-0.809,0.243,0.671,-24.622,34.965,10.062,
47856140,-0.834,0.253,0.66,-30.31,40.092,11.27,
47856150,-0.82,0.258,0.602,-38.395,38.15,11.97,
47856160,-0.818,0.197,0.555,-40.512,35.455,10.465,
47856170,-0.754,0.198,0.515,-37.782,31.5,8.837,
47856180,-0.823,0.211,0.502,-31.307,28.787,10.255,
47856190,-0.877,0.163,0.471,-28.612,19.705,7.262,
47856200,-0.787,0.19,0.495,-20.177,9.117,8.732,
47856210,-0.807,0.182,0.47,-17.202,3.412,10.552,
47856220,-0.765,0.116,0.447,-7.542,-3.062,5.81,
47856230,-0.708,0.139,0.485,7.542,-5.372,3.937,
47856240,-0.791,0.14,0.565,14.752,-0.507,4.812,
47856250,-0.847,0.142,0.6,13.702,3.5,6.457,
47856260,-0.835,0.163,0.6,11.305,5.617,6.422,
47856270,-0.836,0.149,0.585,7.14,7.42,4.812,
47856280,-0.828,0.148,0.588,6.09,5.25,3.185,
47856290,-0.903,0.074,0.525,6.772,-2.1,0.332,
47856300,-0.651,0.227,0.521,16.59,-20.125,-2.975,
47856310,-0.772,0.275,0.557,25.917,-21.42,-2.572,
47856320,-0.938,0.252,0.509,23.957,-28.315,-7.752,
47856330,-0.796,0.328,0.543,31.272,-39.602,-11.9,
47856340,-0.889,0.333,0.585,30.012,-32.34,-16.52,
47856350,-0.955,0.36,0.635,21.087,-28.7,-19.355,
47856360,-0.904,0.255,0.599,7.682,-29.837,-22.032,
47856370,-0.725,0.179,0.576,1.557,-32.2,-24.447,
47856380,-0.698,0.118,0.578,1.12,-27.387,-20.895,
47856390,-0.702,0.104,0.596,2.8,-21.087,-14.332,
47856400,-0.736,0.107,0.617,3.465,-15.347,-8.435,
47856410,-0.764,0.114,0.634,1.522,-11.69,-4.585,
47856420,-0.771,0.116,0.629,-0.787,-7.84,-0.315,
47856420,-0.807,0.104,0.592,-3.062,-3.762,2.87,
47856440,-0.8,0.152,0.587,-3.465,-2.94,4.585,
47856440,-0.803,0.186,0.59,-3.202,-3.57,5.635,
47856460,-0.781,0.223,0.599,-3.115,-2.66,5.617,
47856460,-0.721,0.262,0.655,-5.53,3.587,6.58,
47856480,-0.801,0.214,0.662,-11.602,17.307,8.225,
47856480,-0.78,0.223,0.639,-17.955,24.062,9.17,
47856500,-0.752,0.211,0.614,-22.575,30.345,10.062,
47856500,-0.789,0.182,0.58,-26.04,33.582,11.602,
47856510,-0.802,0.185,0.574,-26.442,34.65,13.947,
47856520,-0.852,0.16,0.535,-27.632,32.462,13.002,
47856530,-0.799,0.15,0.509,-25.532,28.56,13.282,
47856540,-0.846,0.139,0.467,-19.285,24.22,13.072,
47856550,-0.809,0.111,0.447,-12.915,19.057,11.952,
47856560,-0.732,0.15,0.458,-0.525,13.405,12.705,
47856570,-0.758,0.178,0.475,11.392,10.85,13.545,
47856580,-0.77,0.221,0.533,18.935,5.897,14.297,
47856590,-0.823,0.226,0.552,21.035,0.472,14.98,
47856600,-0.833,0.206,0.545,21.84,-4.847,14.14,
47856610,-0.861,0.2,0.546,23.152,-5.39,13.055,
47856620,-0.871,0.172,0.532,24.447,-9.362,11.882,
47856630,-0.832,0.126,0.52,28.525,-13.142,9.782,
47856640,-0.914,0.077,0.477,33.967,-19.337,5.022,
47856650,-0.63,0.335,0.482,44.607,-45.675,-1.872,
47856660,-0.746,0.462,0.722,46.707,-39.707,0.945,
47856670,-0.999,0.452,0.779,26.985,-22.697,-4.252,
47856680,-0.871,0.337,0.657,10.395,-17.955,-8.47,
47856690,-0.746,0.241,0.55,1.12,-16.502,-12.652,
47856700,-0.748,0.141,0.521,2.432,-15.102,-11.077,
47856710,-0.721,0.2,0.55,9.135,-16.345,-6.79,
47856720,-0.771,0.219,0.592,9.59,-12.407,-2.59,
47856730,-0.808,0.21,0.598,3.255,-8.907,-0.402,
47856740,-0.811,0.193,0.577,-0.752,-6.107,1.767,
47856750,-0.789,0.21,0.573,-1.995,-5.162,2.975,
47856760,-0.782,0.237,0.599,-2.66,-4.427,4.375,
47856760,-0.784,0.237,0.601,-5.232,-2.87,5.512,
47856780,-0.762,0.263,0.608,-6.667,0.35,5.67,
47856780,-0.687,0.336,0.632,-9.45,6.352,4.935,
47856800,-0.799,0.301,0.657,-17.937,25.025,8.837,
47856800,-0.849,0.198,0.588,-31.08,34.737,8.26,
47856820,-0.792,0.178,0.546,-30.502,30.887,13.037,
47856820,-0.764,0.203,0.507,-28.227,25.952,14.42,
47856830,-0.774,0.162,0.513,-21.105,21.542,13.282,
47856840,-0.758,0.18,0.524,-13.807,19.18,13.72,
47856850,-0.762,0.187,0.485,-7.157,17.535,12.092,
47856860,-0.799,0.187,0.477,1.68,11.987,12.687,
47856870,-0.85,0.215,0.493,10.062,7.735,12.967,
47856880,-0.907,0.235,0.498,13.667,-1.155,9.31,
47856890,-0.929,0.228,0.525,15.645,-8.207,5.337,
47856900,-0.902,0.224,0.535,15.75,-13.002,1.137,
47856910,-0.848,0.187,0.514,15.627,-15.102,-1.977,
47856920,-0.837,0.149,0.491,18.322,-15.837,-3.675,
47856930,-0.811,0.166,0.542,23.572,-16.45,-4.252,
47856940,-0.872,0.154,0.502,28.402,-31.552,-9.327,
47856950,-0.602,0.361,0.553,35.77,-45.08,-9.45,
47856960,-0.829,0.419,0.691,30.817,-31.447,-7.822,
47856970,-0.883,0.355,0.664,12.197,-22.26,-7.857,
47856980,-0.812,0.268,0.601,3.22,-19.757,-8.977,
47856990,-0.727,0.198,0.549,-1.33,-17.692,-11.742,
47857000,-0.748,0.207,0.55,2.152,-14.822,-10.08,
47857010,-0.753,0.228,0.557,5.197,-13.702,-5.162,
47857020,-0.769,0.256,0.593,5.075,-11.147,-1.155,
47857030,-0.799,0.216,0.581,0.297,-5.407,-1.312,
47857040,-0.808,0.23,0.584,-1.26,-3.605,-1.697,
47857050,-0.759,0.244,0.594,-1.575,-2.45,-0.927,
47857060,-0.745,0.251,0.605,-3.307,0.052,0.787,
47857070,-0.744,0.275,0.604,-4.725,3.815,3.517,
47857080,-0.679,0.332,0.591,-6.492,7.542,5.285,
47857090,-0.793,0.317,0.605,-12.582,20.125,9.38,
47857100,-0.897,0.173,0.534,-21.892,23.852,6.72,
47857110,-0.79,0.208,0.527,-16.362,17.937,6.195,
47857120,-0.859,0.219,0.529,-14,15.54,4.865,
47857130,-0.827,0.177,0.531,-12.582,10.85,4.252,
47857140,-0.79,0.24,0.539,-7.91,7.385,6.282,
47857150,-0.821,0.21,0.528,-7.682,4.672,3.692,
47857160,-0.8,0.21,0.524,-3.78,1.925,1.785,
47857170,-0.801,0.242,0.531,-0.21,-1.172,2.03,
47857170,-0.81,0.234,0.547,3.92,-3.5,-0.017,
47857190,-0.809,0.247,0.548,6.352,-6.212,-1.137,
47857190,-0.814,0.242,0.561,7.472,-7.892,-2.38,
47857210,-0.816,0.236,0.565,6.825,-8.05,-4.217,
47857210,-0.809,0.211,0.561,6.317,-6.545,-5.827,
47857230,-0.812,0.198,0.549,7.77,-4.865,-7.402,
47857230,-0.829,0.178,0.551,9.642,-3.115,-8.505,
47857250,-0.935,0.073,0.49,12.04,-10.482,-12.565,
47857250,-0.685,0.237,0.498,26.792,-31.185,-15.82,
47857260,-0.738,0.402,0.61,34.02,-29.68,-14.192,
47857270,-0.938,0.335,0.623,14.98,-22.802,-14.682,
47857280,-0.822,0.293,0.606,3.92,-23.502,-14.332,
47857290,-0.786,0.221,0.568,-3.045,-17.727,-15.68,
47857300,-0.721,0.194,0.564,-3.64,-14.245,-14.157,
47857310,-0.754,0.216,0.592,-2.012,-7.192,-8.172,
47857320,-0.761,0.216,0.594,-5.057,-4.515,-6.335,
47857330,-0.743,0.226,0.594,-5.722,-2.275,-3.867,
47857340,-0.744,0.244,0.577,-6.702,-0.105,-1.522,
47857350,-0.709,0.274,0.579,-6.37,3.482,1.417,
47857360,-0.77,0.282,0.609,-8.032,13.527,6.002,
47857370,-0.829,0.22,0.589,-14.875,21.612,5.967,
47857380,-0.803,0.206,0.588,-15.995,23.66,7.542,
47857390,-0.795,0.21,0.566,-17.43,23.8,9.747,
47857400,-0.814,0.182,0.522,-19.775,20.352,11.007,
47857410,-0.773,0.186,0.51,-16.94,13.702,10.185,
47857420,-0.793,0.224,0.534,-9.625,10.412,12.46,
47857430,-0.851,0.218,0.533,-6.982,9.117,9.59,
47857440,-0.845,0.209,0.54,-3.902,4.462,7.087,
47857450,-0.839,0.218,0.513,-0.945,0.822,5.967,
47857460,-0.816,0.213,0.514,4.182,-5.67,0.682,
47857470,-0.807,0.264,0.555,8.435,-8.4,-0.052,
47857480,-0.861,0.241,0.571,6.79,-8.137,-1.96,
47857490,-0.836,0.216,0.557,6.09,-8.295,-5.075,
47857500,-0.805,0.189,0.527,7.315,-8.855,-7.665,
47857510,-0.789,0.154,0.512,10.307,-9.66,-8.365,
47857510,-0.796,0.137,0.512,16.66,-10.867,-7.157,
47857530,-0.905,0.125,0.452,24.01,-17.15,-7.857,
47857530,-0.742,0.289,0.516,36.032,-36.837,-11.112,
47857550,-0.823,0.37,0.622,41.282,-32.602,-9.275,
47857550,-0.917,0.347,0.623,27.212,-27.615,-15.015,
47857570,-0.802,0.283,0.601,17.99,-27.842,-18.602,
47857570,-0.769,0.26,0.572,14.297,-22.277,-20.685,
47857580,-0.781,0.202,0.545,13.072,-18.97,-20.247,
47857590,-0.727,0.225,0.572,16.292,-19.145,-16.59,
47857600,-0.764,0.237,0.59,14.997,-16.642,-12.32,
47857610,-0.765,0.262,0.606,10.832,-15.645,-9.222,
47857620,-0.745,0.255,0.622,5.215,-12.88,-6.02,
47857630,-0.764,0.213,0.609,-0.717,-8.207,-3.097,
47857640,-0.719,0.203,0.602,-1.715,-7.56,-0.367,
47857650,-0.713,0.234,0.604,0.052,-4.9,3.64,
47857660,-0.724,0.277,0.605,-0.647,-1.61,6.387,
47857670,-0.745,0.286,0.615,-2.52,3.71,7.805,
47857680,-0.706,0.332,0.632,-6.772,10.552,8.33,
47857690,-0.822,0.281,0.635,-16.87,23.03,9.852,
47857700,-0.818,0.188,0.572,-24.797,23.922,8.435,
47857710,-0.76,0.231,0.576,-18.357,24.115,9.677,
47857720,-0.862,0.231,0.537,-18.847,23.38,9.66,
47857730,-0.797,0.214,0.53,-18.375,16.415,8.085,
47857740,-0.811,0.219,0.538,-13.475,13.142,7.612,
47857750,-0.788,0.231,0.549,-11.795,11.672,6.335,
47857760,-0.823,0.212,0.542,-10.097,11.077,5.74,
47857770,-0.81,0.211,0.533,-7.997,8.312,5.005,
47857780,-0.823,0.207,0.521,-4.025,5.495,3.535,
47857790,-0.819,0.218,0.517,-0.665,1.575,2.065,
47857800,-0.829,0.224,0.526,2.327,-1.715,0.56,
47857810,-0.834,0.215,0.54,3.15,-4.41,-0.455,
47857820,-0.822,0.21,0.542,4.287,-6.422,-0.91,
47857830,-0.819,0.201,0.538,5.372,-7.56,-1.312,
47857840,-0.829,0.2,0.544,6.965,-8.925,-1.767,
47857850,-0.833,0.181,0.561,7.787,-11.13,-2.292,
47857860,-0.867,0.093,0.496,9.94,-21,-5.425,
47857870,-0.657,0.21,0.512,22.645,-33.705,-7.472,
47857880,-0.773,0.305,0.561,26.057,-32.27,-7.98,
47857890,-0.859,0.301,0.591,19.81,-32.812,-8.067,
47857900,-0.862,0.338,0.623,15.522,-33.285,-8.417,
47857910,-0.799,0.312,0.619,8.347,-28.962,-10.29,
47857920,-0.806,0.216,0.591,2.625,-21.647,-9.835,
47857920,-0.732,0.181,0.566,2.45,-21.735,-8.557,
47857940,-0.706,0.213,0.597,5.32,-17.657,-4.917,
47857940,-0.755,0.216,0.602,3.832,-10.902,-0.192,
47857960,-0.775,0.218,0.599,1.225,-6.527,2.87,
47857960,-0.769,0.215,0.587,0.42,-4.672,3.552,
47857980,-0.766,0.251,0.601,1.452,-2.712,3.64,
47857980,-0.773,0.27,0.602,1.067,-1.032,4.182,
47858000,-0.752,0.273,0.61,-0.91,0.7,4.76,
47858000,-0.725,0.262,0.68,-3.027,6.65,6.125,
47858010,-0.761,0.213,0.617,-6.755,21.437,8.12,
47858020,-0.746,0.223,0.582,-14.857,27.125,7.507,
47858030,-0.785,0.215,0.566,-15.085,30.117,11.48,
47858040,-0.857,0.218,0.553,-15.855,29.662,14.525,
47858050,-0.825,0.204,0.507,-18.847,21.735,14.052,
47858060,-0.814,0.233,0.535,-11.48,16.1,13.65,
47858070,-0.841,0.246,0.534,-10.762,12.337,14.157,
47858080,-0.816,0.215,0.524,-7.77,4.41,12.425,
47858090,-0.796,0.215,0.511,-1.452,-1.785,8.872,
47858100,-0.784,0.255,0.537,6.212,-7.997,4.62,
47858110,-0.81,0.294,0.584,9.135,-9.992,1.172,
47858120,-0.843,0.275,0.611,6.492,-9.66,-1.855,
47858130,-0.787,0.238,0.589,2.765,-10.272,-4.987,
47858140,-0.726,0.211,0.58,2.957,-8.05,-6.002,
47858150,-0.736,0.215,0.564,5.092,-3.64,-4.077,
47858160,-0.768,0.21,0.555,7.735,-1.067,-1.855,
47858170,-0.855,0.197,0.495,10.622,-0.805,-1.925,
47858180,-0.812,0.234,0.46,16.817,-13.667,-5.95,
47858190,-0.868,0.305,0.555,24.745,-19.285,-6.842,
47858200,-0.914,0.268,0.554,22.54,-21.787,-11.165,
47858210,-0.819,0.225,0.525,20.545,-28.052,-13.405,
47858220,-0.782,0.219,0.532,23.502,-29.54,-14.822,
47858230,-0.776,0.245,0.6,25.672,-28.385,-15.067,
47858240,-0.726,0.304,0.645,22.155,-26.057,-12.827,
47858250,-0.751,0.264,0.645,12.355,-17.5,-8.435,
47858260,-0.733,0.225,0.624,5.197,-10.605,-5.792,
47858260,-0.735,0.212,0.605,1.89,-6.475,-2.957,
47858280,-0.739,0.203,0.579,0.21,-3.062,0.14,
47858280,-0.769,0.209,0.566,0.56,1.33,1.75,
47858300,-0.827,0.244,0.564,0.682,3.762,1.557,
47858300,-0.794,0.251,0.574,-0.175,1.015,1.347,
47858320,-0.799,0.265,0.584,-2.642,-0.28,2.38,
47858320,-0.768,0.296,0.611,-4.847,-0.577,3.255,
47858330,-0.714,0.339,0.647,-8.435,1.907,4.27,
47858340,-0.725,0.322,0.672,-16.135,14.945,6.772,
47858350,-0.793,0.239,0.604,-25.252,26.18,3.99,
47858360,-0.757,0.213,0.555,-25.882,24.307,5.757,
47858370,-0.772,0.228,0.536,-22.715,23.047,8.505,
47858380,-0.785,0.229,0.544,-20.02,20.177,8.96,
