#Format version: 1.0
time[ms],accX[g],accY[g],accZ[g],Value 1,Value 2,Value 3,
42623250,-0.534,0.131,0.827,-10.535,29.872,25.585,
42623260,-0.583,0.132,0.823,-12.215,27.457,26.18,
42623270,-0.636,0.14,0.827,-12.827,20.58,26.232,
42623280,-0.667,0.145,0.812,-14.525,9.52,25.445,
42623290,-0.681,0.123,0.803,-17.867,-5.792,22.557,
42623300,-0.661,0.129,0.808,-16.52,-20.597,20.282,
42623310,-0.642,0.155,0.815,-20.597,-34.142,20.947,
42623320,-0.609,0.16,0.825,-27.947,-44.66,21.315,
42623330,-0.586,0.15,0.834,-35.822,-52.272,21.28,
42623340,-0.533,0.124,0.838,-43.347,-59.412,23.152,
42623350,-0.478,0.131,0.83,-47.705,-64.995,25.322,
42623360,-0.422,0.153,0.831,-50.347,-68.845,28.122,
42623370,-0.368,0.104,0.843,-50.61,-68.932,28.542,
42623380,-0.328,0.093,0.893,-47.985,-65.852,25.305,
42623390,-0.331,0.074,0.947,-46.515,-63.332,22.96,
42623400,-0.313,0.063,0.977,-48.282,-63.21,19.39,
42623410,-0.335,0.05,0.995,-51.555,-64.785,17.885,
42623420,-0.373,0.036,1.002,-55.352,-70.98,17.08,
42623430,-0.335,0.005,0.991,-58.625,-81.707,12.057,
42623440,-0.28,-0.006,0.978,-61.372,-88.865,5.827,
42623450,-0.25,-0.012,0.99,-62.072,-93.1,1.627,
42623460,-0.177,0.016,0.97,-68.092,-92.907,-4.06,
42623470,-0.16,-0.047,0.971,-74.585,-86.082,-6.387,
42623480,-0.177,-0.097,0.999,-76.457,-78.662,-10.517,
42623490,-0.2,-0.111,1.033,-77.787,-77.717,-15.89,
42623500,-0.194,-0.267,1.067,-71.365,-83.195,-16.765,
42623510,-0.085,-0.388,1.076,-51.502,-88.865,-14.56,
42623510,0.023,-0.474,1.11,-22.995,-83.79,-9.782,
42623530,0.043,-0.441,1.125,10.377,-63.752,-5.302,
42623530,-0.098,-0.404,1.136,39.077,-44.975,-2.362,
42623550,-0.178,-0.366,1.089,62.247,-37.397,-1.085,
42623550,-0.173,-0.295,1.071,81.567,-36.19,-3.15,
42623570,-0.133,-0.235,1.077,97.51,-40.267,-11.497,
42623570,-0.017,-0.087,1.019,98.21,-44.205,-18.427,
42623580,0.007,-0.224,0.984,82.005,-54.862,-21.035,
42623590,0.35,-0.149,0.965,88.375,-37.222,-29.295,
42623600,0.305,-0.029,0.97,89.407,-1.995,-30.065,
42623610,0.146,-0.062,0.987,83.457,29.942,-29.225,
42623620,0.035,-0.091,0.998,79.152,45.43,-27.23,
42623630,-0.033,-0.044,1.022,79.17,52.377,-27.282,
42623640,-0.092,-0.014,1.034,78.347,53.532,-28.665,
42623650,-0.158,-0.009,1.035,77.157,50.68,-32.095,
42623660,-0.208,0.017,1.026,76.825,44.607,-39.13,
42623670,-0.248,0.035,1.006,76.825,35.297,-47.32,
42623680,-0.239,0.036,0.968,77.7,24.15,-55.247,
42623690,-0.226,0.053,0.925,79.572,14.42,-61.25,
42623700,-0.237,0.084,0.904,81.62,7,-63.612,
42623710,-0.243,0.119,0.9,82.67,1.505,-62.685,
42623720,-0.235,0.16,0.893,80.727,-1.942,-59.797,
42623730,-0.228,0.203,0.883,75.39,-1.715,-55.44,
42623740,-0.222,0.243,0.87,66.062,2.327,-50.12,
42623750,-0.221,0.261,0.867,52.99,8.277,-44.012,
42623760,-0.253,0.265,0.869,38.605,13.755,-37.292,
42623770,-0.288,0.257,0.865,24.867,17.202,-30.905,
42623780,-0.309,0.233,0.854,13.405,18.13,-26.355,
42623790,-0.34,0.216,0.853,4.567,16.555,-23.66,
42623800,-0.37,0.205,0.839,-1.767,12.057,-22.732,
42623810,-0.368,0.184,0.815,-5.617,7.297,-22.627,
42623820,-0.375,0.165,0.801,-6.247,1.732,-20.51,
42623830,-0.354,0.178,0.799,-4.567,-4.34,-16.065,
42623830,-0.337,0.208,0.806,-4.025,-5.25,-9.94,
42623850,-0.384,0.236,0.84,-4.637,-2.222,-6.195,
42623850,-0.393,0.224,0.856,-4.095,-1.19,-4.83,
42623870,-0.412,0.22,0.877,-1.312,-1.47,-1.942,
42623870,-0.413,0.255,0.906,-0.42,-3.255,0.875,
42623890,-0.404,0.276,0.921,-3.342,-5.162,4.165,
42623890,-0.346,0.26,0.915,-8.295,-4.427,7.91,
42623910,-0.291,0.231,0.887,-11.55,-0.105,12.39,
42623910,-0.254,0.222,0.87,-13.405,8.907,16.52,
42623920,-0.247,0.215,0.844,-15.872,19.635,21.14,
42623930,-0.228,0.203,0.831,-16.502,31.395,25.375,
42623940,-0.271,0.206,0.847,-17.237,42.49,28.105,
42623950,-0.33,0.21,0.878,-20.247,49.437,29.837,
42623960,-0.383,0.197,0.893,-24.237,48.842,29.522,
42623970,-0.421,0.186,0.907,-28.245,41.58,28.122,
42623980,-0.433,0.165,0.918,-31.167,30.117,26.39,
42623990,-0.409,0.149,0.926,-30.887,17.167,25.06,
42624000,-0.374,0.118,0.935,-26.495,5.652,23.572,
42624010,-0.298,0.082,0.925,-18.375,-0.577,22.225,
42624020,-0.235,0.094,0.926,-8.995,3.99,19.127,
42624030,-0.236,0.124,0.958,-0.875,14.367,15.19,
42624040,-0.255,0.125,0.966,4.76,25.13,13.475,
42624050,-0.283,0.125,0.986,8.942,34.195,12.53,
42624060,-0.275,0.141,0.987,13.002,43.487,11.34,
42624070,-0.304,0.155,0.987,15.995,53.707,13.352,
42624080,-0.329,0.159,0.961,19.18,62.387,16.03,
42624090,-0.362,0.159,0.943,23.012,70.857,18.532,
42624100,-0.376,0.171,0.94,29.242,77.787,20.212,
42624110,-0.399,0.144,0.956,37.467,82.827,23.275,
42624120,-0.459,0.217,0.932,49.507,83.947,23.362,
42624130,-0.371,0.253,0.951,51.135,81.34,19.95,
42624140,-0.481,0.294,0.983,43.347,75.547,21.63,
42624150,-0.494,0.289,1.001,31.64,63.402,21.805,
42624160,-0.464,0.279,0.983,18.83,46.462,21.507,
42624170,-0.425,0.251,0.939,5.53,32.882,18.865,
42624180,-0.371,0.231,0.896,-6.405,24.657,13.632,
42624190,-0.36,0.195,0.862,-15.645,20.335,6.055,
42624200,-0.326,0.162,0.834,-21.087,18.042,-3.167,
42624210,-0.269,0.166,0.82,-23.17,19.512,-10.762,
42624220,-0.271,0.157,0.824,-25.27,25.602,-15.12,
42624230,-0.32,0.145,0.819,-27.16,32.952,-17.71,
42624240,-0.401,0.161,0.853,-30.117,37.345,-20.772,
42624250,-0.569,0.105,0.842,-33.897,27.65,-25.532,
42624260,-0.587,0.009,0.821,-32.077,7.7,-28.455,
42624260,-0.557,0.075,0.817,-22.155,-12.652,-31.027,
42624280,-0.562,0.099,0.816,-10.92,-29.382,-34.44,
42624280,-0.579,0.056,0.789,2.292,-46.742,-35.945,
42624300,-0.52,0.086,0.793,20.755,-63.157,-35.105,
42624300,-0.355,0.182,0.813,32.13,-65.905,-31.85,
42624320,-0.397,0.218,0.876,27.44,-54.67,-28.472,
42624320,-0.442,0.205,0.906,19.617,-45.01,-28.822,
42624330,-0.45,0.212,0.915,11.935,-39.795,-28.945,
42624340,-0.445,0.217,0.929,4.865,-35.735,-29.032,
42624350,-0.441,0.264,0.947,-1.365,-29.89,-31.185,
42624360,-0.427,0.222,0.924,-11.952,-25.322,-34.527,
42624370,-0.467,0.146,0.911,-15.907,-20.44,-36.172,
42624380,-0.501,0.2,0.913,-12.442,-20.37,-40.46,
42624390,-0.509,0.164,0.888,-12.18,-31.692,-44.1,
42624400,-0.426,0.133,0.879,-11.165,-46.865,-45.5,
42624410,-0.385,0.16,0.884,-8.89,-57.592,-44.642,
42624420,-0.361,0.171,0.877,-9.187,-64.032,-43.942,
42624430,-0.35,0.161,0.869,-11.672,-67.83,-43.557,
42624440,-0.301,0.144,0.855,-14.122,-69.37,-43.05,
42624450,-0.192,0.082,0.855,-14,-62.877,-38.867,
42624460,-0.145,0.092,0.887,-6.93,-41.667,-31.815,
42624470,-0.21,0.114,0.935,-0.735,-13.02,-26.407,
42624480,-0.331,0.105,0.966,1.4,9.012,-20.895,
42624490,-0.452,0.125,0.991,1.627,16.695,-17.692,
42624500,-0.479,0.13,0.981,-0.087,10.43,-16.555,
42624510,-0.489,0.113,0.96,-1.872,-1.102,-15.855,
42624520,-0.488,0.095,0.926,-0.927,-12.232,-18.112,
42624530,-0.462,0.089,0.901,4.025,-22.295,-23.082,
42624540,-0.401,0.085,0.901,13.247,-31.535,-24.5,
42624550,-0.354,0.139,0.932,21.035,-35.455,-25.445,
42624560,-0.313,0.161,0.975,22.032,-35.682,-21.945,
42624570,-0.251,0.155,1.005,20.055,-32.812,-17.937,
42624580,-0.175,0.175,1.026,17.045,-26.705,-14.682,
42624580,-0.156,0.173,1.028,11.077,-18.252,-10.132,
42624600,-0.159,0.189,1.027,5.215,-6.79,-8.522,
42624600,-0.147,0.205,1.017,-1.155,6.09,-7.472,
42624620,-0.255,0.188,1.002,-9.38,21.122,-5.04,
42624620,-0.306,0.155,0.971,-15.96,27.632,-5.022,
42624640,-0.319,0.131,0.938,-18.217,28.157,-4.48,
42624640,-0.369,0.105,0.921,-18.497,27.387,-2.922,
42624660,-0.408,0.073,0.912,-15.942,22.592,-2.135,
42624660,-0.42,0.053,0.914,-11.532,16.345,-1.96,
42624670,-0.448,0.03,0.928,-6.632,9.1,-2.66,
42624680,-0.469,-0.033,0.924,-1.592,-0.472,-3.517,
42624690,-0.411,0.011,0.922,4.935,-11.217,-3.272,
42624700,-0.391,0.063,0.916,8.697,-17.71,-2.257,
42624710,-0.414,0.033,0.895,10.797,-21.017,-2.362,
42624720,-0.375,0.072,0.898,12.722,-23.17,-2.922,
42624730,-0.36,0.085,0.905,13.755,-22.102,-2.555,
42624740,-0.35,0.079,0.92,15.54,-21.63,-2.222,
42624750,-0.311,0.115,0.926,17.867,-22.05,-1.89,
42624760,-0.308,0.115,0.95,17.92,-21.105,-1.697,
42624770,-0.282,0.124,0.937,16.992,-21.682,-1.505,
42624780,-0.293,0.117,0.944,14.472,-19.512,-0.735,
42624790,-0.275,0.11,0.953,13.825,-16.275,-0.595,
42624800,-0.284,0.125,0.949,13.597,-9.782,1.207,
42624810,-0.466,0.138,0.933,12.11,-7.42,1.995,
42624820,-0.38,0.108,0.925,12.232,-17.815,1.645,
42624830,-0.485,0.11,0.927,14.192,-25.497,6.702,
42624840,-0.515,0.161,0.904,16.135,-35.875,9.205,
42624850,-0.409,0.179,0.918,14.105,-43.732,12.005,
42624860,-0.446,0.084,0.953,13.212,-44.922,15.575,
42624870,-0.332,0.195,0.954,15.19,-49.28,16.065,
42624880,-0.319,0.145,0.932,11.06,-48.265,19.232,
42624890,-0.232,0.219,0.903,7.63,-47.18,19.425,
42624900,-0.225,0.153,0.881,1.662,-40.442,22.645,
42624910,-0.211,0.168,0.887,-0.297,-31.447,21.507,
42624920,-0.201,0.204,0.907,-4.62,-21.472,18.147,
42624930,-0.224,0.176,0.94,-10.465,-12.845,13.317,
42624940,-0.273,0.136,0.956,-13.72,-10.237,10.535,
42624950,-0.301,0.106,0.96,-11.462,-13.807,10.465,
42624960,-0.302,0.101,0.953,-8.68,-18.41,11.095,
42624970,-0.292,0.119,0.985,-8.872,-22.47,14.245,
42624980,-0.261,0.095,1.013,-11.69,-24.36,18.795,
42624990,-0.266,0.08,1.032,-13.597,-26.775,21.595,
42625000,-0.212,0.086,1.023,-14.962,-29.61,23.415,
42625010,-0.206,0.083,1.001,-16.625,-29.33,23.17,
42625010,-0.143,0.067,0.977,-18.112,-28.07,19.827,
42625030,-0.038,0.043,0.978,-19.425,-23.485,15.855,
42625030,0.23,-0.041,0.97,-17.36,-2.765,21.49,
42625050,-0.241,0.128,1.004,-11.497,29.662,22.26,
42625050,-0.314,0.203,1.014,-12.215,23.485,14.682,
42625070,-0.261,0.126,0.959,-19.145,4.48,6.072,
42625070,-0.091,0.093,0.908,-18.62,-1.75,3.937,
42625080,-0.27,0.149,0.907,-14.997,9.03,1.26,
42625090,-0.437,0.139,0.891,-13.667,4.847,-1.89,
42625100,-0.382,0.11,0.867,-5.267,-12.127,-5.565,
42625110,-0.363,0.126,0.875,6.597,-21.227,-5.25,
42625120,-0.437,0.14,0.869,17.99,-26.757,-2.45,
42625130,-0.436,0.123,0.885,30.152,-36.995,2.047,
42625140,-0.35,0.173,0.938,40.355,-46.217,6.142,
42625150,-0.322,0.207,0.96,41.58,-51.082,7.962,
42625160,-0.311,0.172,0.964,39.567,-56.35,8.225,
42625170,-0.277,0.177,0.955,42.7,-63.245,9.625,
42625180,-0.239,0.193,0.946,46.952,-70.98,12.442,
42625190,-0.108,0.195,0.954,48.597,-74.882,14.157,
42625200,-0.024,0.183,0.998,46.287,-70.77,16.187,
42625210,0.014,0.151,1.01,41.58,-62.44,20.352,
42625220,0.005,0.125,1.001,37.345,-55.195,23.065,
42625230,0.086,0.197,0.924,33.057,-45.447,22.995,
42625240,-0.114,0.125,0.866,25.06,-27.825,24.955,
42625250,-0.767,0.503,0.543,0.385,-36.942,19.652,
42625260,0.537,-0.56,0.994,7.752,-63.525,33.145,
42625270,0.135,0.374,1.245,51.467,-22.627,7.472,
42625280,-0.158,0.259,1.176,35.717,-22.697,23.03,
42625290,0.024,0.269,0.961,21.105,-36.347,10.132,
42625300,0.027,0.2,0.935,17.202,-33.862,10.202,
42625310,-0.005,0.306,0.94,22.54,-22.715,1.977,
42625320,-0.138,0.326,0.907,16.975,-23.187,0.787,
42625330,-0.043,0.222,0.936,11.882,-24.535,-0.105,
42625330,-0.165,0.279,1.027,10.797,-17.832,-1.26,
42625350,-0.189,0.276,1.071,6.667,-19.582,-1.155,
42625350,-0.125,0.293,1.09,3.132,-25.952,1.802,
42625370,-0.083,0.354,1.06,-1.592,-27.79,1.732,
42625370,-0.048,0.35,0.999,-12.092,-23.817,-0.997,
42625390,-0.051,0.299,0.963,-23.975,-17.902,-3.902,
42625390,-0.061,0.231,0.99,-30.712,-10.027,-6.247,
42625410,-0.155,0.247,1.065,-34.317,-8.295,-5.547,
42625410,-0.159,0.246,1.094,-39.795,-17.535,-4.637,
42625420,-0.036,0.256,1.07,-45.815,-27.755,-6.055,
42625430,0.012,0.232,0.995,-51.87,-30.117,-8.295,
42625440,0.033,0.17,0.893,-56.612,-28.945,-10.43,
42625450,0.027,0.098,0.829,-55.142,-26.915,-9.712,
42625460,0.015,0.069,0.848,-48.947,-25.305,-8.82,
42625470,0.004,0.063,0.917,-43.382,-20.615,-9.607,
42625480,-0.096,0.066,1.017,-40.04,-18.865,-9.73,
42625490,-0.12,0.077,1.067,-37.1,-25.147,-9.03,
42625500,-0.159,0.127,1.094,-34.702,-33.915,-8.032,
42625510,-0.149,0.16,1.091,-34.212,-44.45,-6.72,
42625520,-0.042,0.182,1.073,-35.21,-52.01,-4.62,
42625530,0.037,0.162,1.037,-36.4,-52.885,-1.365,
42625540,0.126,0.147,1.001,-36.242,-47.862,-0.367,
42625550,0.218,0.121,0.958,-35.77,-39.742,0.07,
42625560,0.303,0.106,0.933,-34.387,-28.262,1.155,
42625570,0.359,0.096,0.914,-32.83,-12.722,4.865,
42625580,0.382,0.105,0.912,-30.905,7.07,10.762,
42625590,0.395,0.105,1.003,-31.78,30.817,9.59,
42625600,0.353,0.152,1.129,-36.505,55.72,5.967,
42625610,0.274,0.159,1.231,-50.417,81.13,-4.007,
42625620,0.131,0.085,1.297,-65.957,100.012,-13.142,
42625630,0.06,0.038,1.358,-79.292,105.052,-18.112,
42625640,0.143,0.072,1.385,-92.417,102.077,-21.84,
42625650,0.269,0.026,1.315,-104.842,110.652,-16.835,
42625660,0.122,0.005,1.117,-117.46,134.802,-16.905,
42625670,-0.155,-0.104,1.001,-123.9,143.762,-15.417,
42625680,-0.273,-0.155,0.854,-108.657,134.505,-8.68,
42625690,-0.286,-0.148,0.76,-84.105,121.695,-8.452,
42625700,-0.387,-0.078,0.689,-54.617,110.302,-8.347,
42625710,-0.501,-0.157,0.606,-25.287,95.532,-4.06,
42625720,-0.624,-0.168,0.582,11.095,64.505,-3.99,
42625730,-0.578,-0.118,0.658,55.737,27.02,-13.842,
42625740,-0.459,-0.013,0.74,92.067,-4.007,-26.022,
42625750,-0.415,0.069,0.816,119.227,-27.86,-31.902,
42625760,-0.256,0.1,0.887,131.407,-38.85,-33.967,
42625760,-0.191,0.166,0.947,129.867,-34.58,-41.422,
42625770,-0.182,0.229,0.984,118.86,-24.395,-46.917,
42625780,-0.154,0.222,0.998,99.96,-17.027,-40.267,
42625790,-0.258,0.207,0.988,76.58,-13.125,-23.625,
42625800,-0.342,0.211,0.991,57.89,-16.94,-14.7,
42625810,-0.261,0.167,0.946,44.1,-26.145,-6.492,
42625820,-0.232,0.162,0.919,38.675,-31.552,3.5,
42625830,-0.236,0.195,0.924,37.362,-33.11,10.185,
42625840,-0.226,0.206,0.931,37.835,-34.772,13.982,
42625850,-0.181,0.216,0.933,39.655,-36.19,17.027,
42625860,-0.121,0.24,0.928,39.865,-33.74,18.777,
42625870,-0.081,0.298,0.912,37.502,-22.925,17.465,
42625880,-0.089,0.304,0.888,29.085,-8.225,17.43,
42625890,-0.113,0.274,0.886,20.072,7.105,14.052,
42625900,-0.176,0.245,0.896,10.5,22.172,6.597,
42625910,-0.349,0.318,0.937,-2.712,23.992,-1.05,
42625920,-0.349,0.26,0.934,-21.437,8.26,2.397,
42625930,-0.283,0.202,0.938,-35.525,2.187,8.33,
42625940,-0.293,0.211,0.959,-45.71,1.75,8.12,
42625950,-0.272,0.2,0.973,-55.982,-3.062,5.18,
42625960,-0.22,0.137,0.983,-67.97,-9.345,3.885,
42625970,-0.188,0.055,0.983,-79.415,-13.877,1.785,
42625980,-0.124,0.008,0.989,-87.867,-17.36,-3.605,
42625990,-0.059,-0.036,1.005,-94.237,-19.687,-11.305,
42626000,-0.011,-0.082,1.031,-100.205,-21.052,-20.475,
42626010,0.036,-0.114,1.055,-107.362,-24.255,-30.38,
42626020,0.097,-0.148,1.061,-115.307,-27.107,-38.587,
42626030,0.124,-0.25,1.048,-124.39,-28.612,-44.695,
42626040,0.124,-0.358,1.026,-125.632,-29.242,-56.07,
42626050,0.076,-0.444,1.002,-121.222,-32.48,-59.395,
42626060,0.047,-0.564,0.938,-109.147,-41.107,-50.015,
42626070,0.068,-0.632,0.882,-83.492,-49.42,-33.582,
42626080,0.153,-0.615,0.848,-55.107,-45.517,-19.967,
42626080,0.234,-0.551,0.841,-33.67,-21.437,-13.545,
42626100,0.182,-0.528,0.866,-20.527,14.892,-11.497,
42626100,0.06,-0.521,0.913,-11.095,46.725,-16.485,
42626120,-0.028,-0.484,0.943,-3.325,63.63,-22.627,
42626120,-0.091,-0.402,0.967,-0.84,67.655,-22.487,
42626140,-0.206,-0.333,1.016,-4.585,61.425,-20.387,
42626140,-0.245,-0.296,1.031,-9.73,46.655,-23.152,
42626160,-0.201,-0.28,0.981,-14.017,32.095,-28.262,
42626160,-0.149,-0.249,0.935,-15.032,24.465,-33.81,
42626170,-0.091,-0.135,0.893,-14.262,23.66,-41.842,
42626180,-0.182,-0.148,0.825,-18.777,25.62,-36.207,
42626190,-0.201,-0.171,0.779,-19.232,25.952,-29.855,
42626200,-0.18,-0.087,0.759,-19.495,29.067,-30.8,
42626210,-0.186,-0.015,0.729,-25.077,38.902,-32.13,
42626220,-0.23,-0.006,0.686,-33.862,53.707,-30.135,
42626230,-0.305,-0.016,0.663,-41.177,67.707,-28.91,
42626240,-0.411,-0.034,0.676,-44.327,74.375,-29.592,
42626250,-0.496,-0.059,0.698,-44.432,69.807,-31.307,
42626260,-0.556,-0.096,0.742,-40.897,53.602,-30.292,
42626270,-0.567,-0.14,0.769,-31.867,30.135,-28.402,
42626280,-0.532,-0.152,0.807,-20.3,8.347,-28.455,
42626290,-0.524,-0.175,0.873,-9.082,-10.605,-29.732,
42626300,-0.453,-0.225,0.915,3.062,-29.487,-28.665,
42626310,-0.326,-0.278,0.952,16.747,-42.105,-22.61,
42626320,-0.259,-0.296,1.008,35.84,-41.877,-12.775,
42626330,-0.189,-0.275,1.044,55.387,-32.287,-4.357,
42626340,-0.17,-0.252,1.091,69.527,-18.287,-0.297,
42626350,-0.183,-0.219,1.129,76.177,-6.615,3.097,
42626360,-0.147,-0.185,1.148,72.975,3.482,5.267,
42626370,-0.261,-0.157,1.161,62.352,10.08,8.872,
42626380,-0.225,-0.138,1.142,50.26,8.172,10.43,
42626390,-0.169,-0.184,1.094,38.272,7.385,14.857,
42626400,-0.079,-0.255,1.044,36.137,15.89,15.33,
42626410,-0.143,-0.228,1.043,44.187,32.55,15.47,
42626420,-0.256,-0.173,1.026,47.985,37.537,13.545,
42626430,-0.246,-0.17,0.98,47.162,30.905,18.585,
42626440,-0.289,-0.135,0.964,43.207,28.752,27.877,
42626440,-0.323,-0.181,0.921,41.072,26.897,31.867,
42626460,-0.266,-0.21,0.863,46.322,28.962,34.037,
42626460,-0.287,-0.145,0.853,52.867,35.525,33.425,
42626480,-0.321,-0.121,0.878,58.047,41.527,29.855,
42626480,-0.331,-0.183,0.881,69.527,40.582,25.322,
42626500,-0.302,-0.18,0.879,88.462,36.96,23.152,
42626500,-0.315,-0.123,0.917,108.395,33.092,22.61,
42626510,-0.357,-0.099,0.952,126.42,26.617,24.902,
42626520,-0.319,-0.073,0.974,142.45,19.775,25.707,
42626530,-0.307,-0.019,1.026,153.142,17.115,24.342,
42626540,-0.214,0.049,1.041,155.382,21.647,21.087,
42626550,-0.146,0.178,1.052,144.27,39.235,19.337,
42626560,-0.264,0.274,1.056,118.877,57.662,22.085,
42626570,-0.253,0.253,1.006,97.265,68.565,23.187,
42626580,-0.259,0.202,0.904,82.687,79.555,29.68,
42626590,-0.39,0.17,0.859,74.707,89.722,37.992,
42626600,-0.476,0.146,0.856,74.847,91.455,40.722,
42626610,-0.505,0.168,0.876,80.762,84.035,39.235,
42626620,-0.481,0.216,0.88,86.152,70.332,37.257,
42626630,-0.444,0.231,0.871,90.23,55.737,36.61,
42626640,-0.401,0.273,0.877,94.307,46.567,36.277,
42626650,-0.396,0.351,0.886,94.097,42.49,35.857,
42626660,-0.405,0.363,0.899,88.865,38.255,35.525,
42626670,-0.292,0.365,0.883,83.475,35.595,32.252,
42626680,-0.357,0.374,0.857,76.142,37.712,32.567,
42626690,-0.386,0.341,0.842,72.415,38.377,37.905,
42626700,-0.377,0.359,0.842,72.52,39.042,40.267,
42626710,-0.458,0.383,0.872,71.102,38.202,40.722,
42626720,-0.37,0.435,0.852,65.765,31.937,36.96,
42626730,-0.341,0.464,0.837,56.437,32.865,35.14,
42626740,-0.392,0.447,0.807,45.587,38.465,34.335,
42626750,-0.404,0.422,0.792,36.977,43.68,30.397,
42626760,-0.459,0.417,0.819,32.112,46.252,22.365,
42626770,-0.498,0.355,0.829,29.365,35.122,13.457,
42626780,-0.32,0.363,0.791,31.587,22.417,3.587,
42626790,-0.325,0.367,0.803,34.685,19.565,3.132,
42626800,-0.386,0.34,0.79,37.17,21.297,5.477,
42626810,-0.409,0.355,0.789,42.437,23.362,8.19,
42626820,-0.445,0.39,0.804,47.775,26.232,9.065,
42626830,-0.476,0.448,0.831,50.102,29.942,6.107,
42626830,-0.517,0.469,0.859,48.405,31.447,7.927,
42626850,-0.515,0.465,0.858,44.905,33.145,8.767,
42626850,-0.494,0.48,0.839,42.892,34.282,8.942,
42626870,-0.506,0.488,0.825,41.317,40.337,10.64,
42626870,-0.548,0.457,0.793,39.48,46.742,12.39,
42626890,-0.511,0.44,0.743,41.177,52.762,13.772,
42626890,-0.536,0.444,0.696,45.29,59.36,15.347,
42626910,-0.549,0.48,0.665,48.93,65.1,15.575,
42626910,-0.576,0.505,0.62,49.525,68.092,15.015,
42626920,-0.616,0.492,0.576,46.847,65.905,16.747,
42626930,-0.679,0.466,0.578,45.027,57.015,19.74,
42626940,-0.676,0.565,0.631,45.097,37.922,22.942,
42626950,-0.512,0.542,0.638,36.417,23.922,16.765,
42626960,-0.625,0.627,0.679,23.397,16.642,17.132,
42626970,-0.656,0.577,0.688,8.12,-1.977,19.127,
42626980,-0.598,0.476,0.663,-1.347,-22.802,22.207,
42626990,-0.564,0.465,0.65,-2.905,-40.022,25.41,
42627000,-0.482,0.451,0.637,-0.332,-50.977,28.77,
42627010,-0.419,0.482,0.658,4.9,-53.165,32.742,
42627020,-0.424,0.527,0.679,6.912,-44.94,36.925,
42627030,-0.475,0.549,0.704,3.832,-31.255,36.347,
42627040,-0.498,0.543,0.705,-1.592,-20.125,31.15,
42627050,-0.529,0.493,0.708,-7.192,-12.985,29.575,
42627060,-0.514,0.45,0.744,-5.46,-7.84,29.75,
42627070,-0.553,0.501,0.747,1.82,-4.112,31.832,
42627080,-0.624,0.492,0.739,6.632,-3.272,39.322,
42627090,-0.564,0.466,0.73,11.235,-7.875,47.705,
42627100,-0.549,0.436,0.724,18.882,-10.15,55.072,
42627110,-0.615,0.489,0.705,29.312,-11.952,56.91,
42627120,-0.417,0.519,0.694,34.037,-19.215,51.975,
42627130,-0.476,0.468,0.664,37.555,-15.102,56.752,
42627140,-0.465,0.493,0.638,45.255,-8.68,51.8,
42627150,-0.493,0.622,0.648,48.107,-8.61,45.78,
42627160,-0.381,0.676,0.63,42.192,-12.355,40.6,
42627170,-0.351,0.621,0.603,31.727,-6.615,32.06,
42627170,-0.371,0.593,0.599,24.517,-3.43,28.245,
42627190,-0.384,0.561,0.605,22.54,-3.552,23.642,
42627190,-0.398,0.553,0.62,23.047,-7.84,20.265,
42627210,-0.385,0.58,0.644,24.185,-12.512,18.13,
42627210,-0.406,0.603,0.667,22.995,-11.515,14.997,
42627230,-0.426,0.623,0.691,21.42,-6.37,10.465,
42627230,-0.475,0.696,0.702,18.322,-0.665,7.542,
42627250,-0.489,0.66,0.684,13.51,1.487,7.997,
42627250,-0.469,0.652,0.661,11.007,0.297,11.322,
42627260,-0.434,0.63,0.627,9.485,0.717,14.665,
42627270,-0.428,0.614,0.595,8.33,5.25,17.412,
42627280,-0.419,0.604,0.588,8.26,12.092,20.02,
42627290,-0.493,0.579,0.615,11.83,15.277,18.147,
42627300,-0.471,0.576,0.631,19.092,10.622,17.622,
42627310,-0.464,0.603,0.643,24.01,3.587,18.83,
42627320,-0.387,0.623,0.645,25.882,-2.292,18.795,
42627330,-0.384,0.639,0.644,25.725,-3.115,18.27,
42627340,-0.343,0.663,0.646,23.957,-1.172,16.362,
42627350,-0.361,0.655,0.653,21.035,1.732,15.347,
42627360,-0.399,0.658,0.655,18.217,0.105,14.91,
42627370,-0.372,0.654,0.656,15.75,-5.005,14.07,
42627380,-0.36,0.663,0.656,14.35,-9.31,15.33,
42627390,-0.365,0.645,0.648,13.737,-11.13,16.187,
42627400,-0.366,0.634,0.64,15.067,-10.43,16.975,
42627410,-0.381,0.64,0.64,16.905,-8.347,16.45,
42627420,-0.368,0.616,0.634,19.635,-5.337,15.26,
42627430,-0.383,0.632,0.639,24.465,-1.802,14.997,
42627440,-0.389,0.652,0.641,29.137,1.96,14.21,
42627450,-0.41,0.67,0.641,32.112,5.652,12.652,
42627460,-0.421,0.687,0.638,33.232,6.545,10.097,
42627470,-0.407,0.684,0.622,33.127,4.287,7.77,
42627480,-0.386,0.672,0.598,33.04,0.525,7.262,
42627490,-0.366,0.664,0.569,32.795,-3.657,7.595,
42627500,-0.348,0.667,0.552,32.48,-7.472,8.12,
42627510,-0.33,0.703,0.553,31.412,-10.36,7.805,
42627520,-0.324,0.744,0.559,27.912,-11.077,6.177,
42627530,-0.36,0.758,0.567,21.367,-9.695,4.462,
42627540,-0.376,0.751,0.582,13.947,-9.992,2.502,
42627550,-0.388,0.753,0.589,7.227,-12.425,1.295,
42627560,-0.403,0.736,0.584,1.067,-15.435,0.997,
42627570,-0.418,0.736,0.578,-3.447,-19.407,-0.192,
42627580,-0.348,0.728,0.578,-5.617,-21.35,-3.255,
42627580,-0.368,0.698,0.576,-5.897,-21.612,-2.467,
42627600,-0.372,0.713,0.584,-3.832,-24.535,-0.49,
42627600,-0.397,0.722,0.59,-3.517,-28.805,2.555,
42627620,-0.345,0.743,0.592,-4.987,-32.042,3.71,
42627620,-0.36,0.782,0.583,-9.975,-28.245,2.572,
42627640,-0.405,0.788,0.528,-18.917,-28.105,-0.822,
42627640,-0.178,0.651,0.586,-27.545,-25.025,-7.42,
42627660,-0.164,0.786,0.666,-27.755,3.482,-14.7,
42627660,-0.38,0.853,0.725,-39.62,22.452,-18.007,
42627670,-0.296,0.731,0.707,-50.26,33.495,-29.277,
42627680,-0.378,0.698,0.677,-57.032,34.37,-28.262,
42627690,-0.367,0.565,0.667,-54.827,22.855,-25.305,
42627700,-0.394,0.499,0.673,-39.497,13.44,-11.357,
42627710,-0.456,0.6,0.706,-20.492,8.015,2.502,
42627720,-0.574,0.663,0.714,-11.9,2.642,10.85,
42627730,-0.543,0.752,0.682,-12.565,-6.072,9.065,
42627740,-0.459,0.726,0.647,-21.997,-12.862,6.002,
42627750,-0.391,0.627,0.612,-27.16,-14.052,6.667,
42627760,-0.36,0.581,0.581,-23.45,-11.06,6.457,
42627770,-0.36,0.556,0.568,-17.605,-9.782,5.442,
42627780,-0.322,0.569,0.551,-10.5,-10.167,4.76,
42627790,-0.325,0.541,0.545,-4.567,-8.452,6.58,
42627800,-0.349,0.547,0.56,3.01,-5.932,8.015,
42627810,-0.351,0.611,0.576,9.607,-2.59,5.197,
42627820,-0.388,0.683,0.579,11.567,3.132,-1.802,
42627830,-0.435,0.709,0.591,7.98,4.655,-10.115,
42627840,-0.298,0.667,0.622,2.555,1.662,-11.27,
42627850,-0.246,0.63,0.68,-1.172,6.02,-7.402,
42627860,-0.26,0.592,0.723,-1.417,18.882,-8.347,
42627870,-0.29,0.597,0.735,1.977,32.847,-14.28,
42627880,-0.446,0.639,0.695,6.562,41.475,-18.83,
42627890,-0.55,0.691,0.643,9.1,37.502,-17.71,
42627900,-0.533,0.696,0.603,7.997,28.84,-13.107,
42627910,-0.465,0.695,0.592,8.19,26.407,-8.645,
42627920,-0.579,0.734,0.6,11.69,30.607,-5.267,
42627920,-0.558,0.672,0.618,10.307,25.007,-1.33,
42627940,-0.451,0.623,0.638,12.687,15.067,5.547,
42627940,-0.422,0.674,0.653,19.337,12.355,11.445,
42627960,-0.449,0.707,0.61,19.827,13.562,13.615,
42627960,-0.397,0.685,0.556,15.347,15.522,10.045,
42627980,-0.332,0.675,0.544,11.602,18.55,3.027,
42627980,-0.29,0.658,0.557,9.677,22.19,-2.03,
42628000,-0.248,0.673,0.577,8.137,26.617,-6.317,
42628000,-0.302,0.666,0.617,6.37,31.552,-10.832,
42628010,-0.313,0.669,0.649,4.375,32.567,-15.05,
42628020,-0.375,0.675,0.668,1.487,28.787,-15.312,
42628030,-0.405,0.694,0.685,-2.975,21.56,-13.877,
42628040,-0.458,0.657,0.677,-8.942,14.455,-11.655,
42628050,-0.527,0.611,0.649,-11.235,6.615,-6.545,
42628060,-0.558,0.646,0.645,-10.202,-1.155,-1.102,
42628070,-0.57,0.64,0.642,-10.08,-6.02,3.01,
42628080,-0.564,0.644,0.646,-9.082,-9.59,7.192,
42628090,-0.557,0.603,0.63,-7.052,-12.635,11.55,
42628100,-0.544,0.605,0.604,-2.345,-17.447,18.077,
42628110,-0.456,0.603,0.582,1.75,-22.19,23.59,
42628120,-0.398,0.608,0.549,3.605,-21.49,25.707,
42628130,-0.353,0.605,0.538,4.462,-18.725,25.077,
42628140,-0.33,0.629,0.558,5.215,-14.315,21.84,
42628150,-0.355,0.629,0.579,5.32,-10.185,17.115,
42628160,-0.384,0.634,0.604,6.842,-10.412,14.577,
42628170,-0.432,0.656,0.631,8.767,-13.807,13.317,
42628180,-0.474,0.643,0.643,10.675,-21.21,13.317,
42628190,-0.518,0.676,0.655,13.982,-30.485,14.542,
42628200,-0.503,0.714,0.636,15.89,-41.002,16.747,
42628210,-0.495,0.743,0.633,16.222,-44.065,20.352,
42628220,-0.496,0.756,0.628,13.755,-41.212,20.825,
42628230,-0.45,0.734,0.612,12.6,-36.855,20.125,
42628240,-0.387,0.754,0.62,13.947,-33.442,21.455,
42628250,-0.329,0.737,0.605,13.772,-31.027,25.13,
42628260,-0.271,0.723,0.524,13.947,-29.767,27.265,
42628270,-0.249,0.62,0.511,12.862,-20.282,34.37,
42628280,-0.186,0.73,0.537,14.42,-8.785,24.797,
42628290,-0.281,0.662,0.545,8.732,-3.027,20.037,
42628300,-0.276,0.694,0.585,4.952,-3.412,15.75,
42628310,-0.327,0.683,0.612,-0.315,-4.812,12.215,
42628320,-0.406,0.677,0.646,-3.587,-9.782,10.045,
42628330,-0.37,0.743,0.676,-5.18,-17.815,6.842,
42628330,-0.364,0.723,0.674,-9.817,-20.755,5.057,
42628350,-0.402,0.666,0.658,-11.025,-21.962,5.775,
42628350,-0.375,0.702,0.654,-6.685,-25.235,8.942,
42628370,-0.332,0.718,0.657,-4.602,-24.972,14.21,
42628370,-0.333,0.664,0.638,-4.602,-22.207,17.342,
42628390,-0.361,0.655,0.62,-1.435,-23.03,19.285,
42628390,-0.334,0.664,0.624,2.52,-26.18,21.245,
42628410,-0.33,0.666,0.631,5.337,-29.172,21.367,
42628410,-0.318,0.665,0.635,7.472,-32.76,19.302,
42628420,-0.298,0.669,0.638,8.575,-36.855,15.627,
42628430,-0.253,0.709,0.646,7.91,-41.055,10.727,
42628440,-0.217,0.711,0.647,3.255,-43.347,4.69,
42628450,-0.243,0.649,0.63,-2.45,-44.8,-1.137,
42628460,-0.299,0.627,0.623,-3.78,-50.032,-5.547,
42628470,-0.348,0.665,0.634,-4.34,-61.267,-10.972,
42628480,-0.317,0.702,0.641,-11.497,-77.332,-18.13,
42628490,-0.284,0.675,0.62,-25.305,-94.185,-22.487,
42628500,-0.206,0.506,0.578,-32.795,-109.077,-12.687,
42628510,-0.269,0.524,0.592,-25.235,-116.095,6.685,
42628520,-0.36,0.603,0.617,-17.552,-118.282,22.82,
42628530,-0.373,0.648,0.631,-15.417,-121.625,28.98,
42628540,-0.348,0.699,0.655,-15.575,-122.832,28.472,
42628550,-0.369,0.724,0.676,-14.98,-121.8,27.247,
42628560,-0.349,0.765,0.698,-12.635,-123.217,25.97,
42628570,-0.385,0.812,0.701,-11.025,-127.26,28,
42628580,-0.228,0.826,0.711,-11.97,-131.302,33.582,
42628590,-0.157,0.82,0.69,-15.242,-127.452,45.64,
42628600,-0.079,0.799,0.679,-19.18,-117.145,51.082,
42628610,-0.02,0.772,0.683,-22.155,-100.012,52.307,
42628620,-0.028,0.757,0.693,-22.68,-85.137,47.915,
42628630,0.042,0.791,0.687,-21.297,-77.227,39.182,
42628640,0.005,0.797,0.671,-21.962,-72.467,35.21,
42628650,0.097,0.785,0.675,-23.607,-74.585,32.025,
42628660,0.233,0.811,0.696,-27.002,-67.585,35.542,
42628670,0.107,0.793,0.709,-34.405,-53.077,38.185,
42628670,0.092,0.762,0.71,-41.195,-48.44,32.637,
42628690,0.137,0.761,0.718,-45.885,-49.122,28.525,
42628690,0.211,0.812,0.716,-52.727,-46.62,28.875,
42628710,0.247,0.811,0.726,-65.415,-36.487,31.92,
42628710,0.236,0.759,0.728,-77.14,-20.685,33.95,
42628730,0.246,0.728,0.737,-87.15,-1.102,32.042,
42628730,0.298,0.743,0.742,-94.745,21.752,27.877,
42628750,0.358,0.737,0.757,-102.55,50.855,26.95,
42628750,0.379,0.688,0.768,-110.652,87.675,29.4,
42628760,0.156,0.661,0.745,-121.747,123.865,29.155,
42628770,0.371,0.576,0.778,-129.675,131.6,30.1,
42628780,0.515,0.544,0.804,-123.445,164.955,27.72,
42628790,0.423,0.498,0.837,-110.32,209.527,14.822,
42628800,0.34,0.368,0.858,-90.212,242.112,0.297,
42628810,0.302,0.501,0.931,-64.312,262.342,-15.417,
42628820,0.224,0.533,1.023,-41.755,272.895,-29.557,
42628830,0.089,0.444,1.078,-19.722,267.645,-38.447,
42628840,0.025,0.44,1.12,7.735,250.407,-49.49,
42628850,-0.019,0.471,1.111,37.345,229.25,-68.092,
42628860,-0.101,0.512,1.067,60.182,202.002,-86.835,
42628870,-0.247,0.543,1.03,69.597,167.492,-100.45,
42628880,-0.392,0.577,0.958,70.455,126.14,-116.532,
42628890,-0.495,0.61,0.859,67.392,81.305,-136.832,
42628900,-0.633,0.648,0.729,57.767,38.465,-159.722,
42628910,-0.714,0.729,0.598,38.535,-0.735,-182.822,
42628920,-0.686,0.803,0.451,7.315,-31.955,-200.27,
42628930,-0.749,0.718,0.303,-27.58,-53.357,-192.5,
42628940,-0.756,0.593,0.216,-51.31,-79.87,-164.29,
42628950,-0.687,0.574,0.2,-68.74,-108.15,-128.957,
42628960,-0.807,0.557,0.211,-86.87,-118.142,-80.447,
42628970,-0.888,0.582,0.247,-106.662,-121.257,-45.902,
42628980,-0.784,0.593,0.271,-134.977,-126.245,-34.965,
42628990,-0.785,0.468,0.255,-169.312,-123.497,-21.122,
42629000,-0.765,0.247,0.232,-194.215,-115.885,-10.202,
42629010,-0.652,0.068,0.272,-201.18,-103.862,-16.38,
42629020,-0.624,-0.096,0.328,-189.245,-90.982,-22.697,
42629030,-0.651,-0.269,0.421,-157.307,-81.515,-14.507,
42629040,-0.643,-0.34,0.589,-110.897,-75.005,3.15,
42629050,-0.584,-0.241,0.793,-63.84,-69.685,19.04,
42629060,-0.432,-0.016,0.961,-32.322,-61.862,33.915,
42629070,-0.309,0.195,1.085,-25.655,-48.16,50.96,
42629080,-0.281,0.283,1.115,-41.02,-29.435,63,
42629080,-0.291,0.284,1.117,-66.902,-14.787,66.622,
42629100,-0.282,0.147,1.049,-94.185,-11.427,64.19,
42629100,-0.262,0.066,1.072,-107.047,-19.897,51.642,
42629120,-0.246,0.078,1.065,-115.5,-39.532,33.985,
42629120,-0.194,0.051,1.05,-125.352,-63.542,15.277,
42629140,-0.099,0.003,1.041,-133.647,-86.257,-0.717,
42629140,0.007,-0.025,1.046,-141.61,-102.97,-15.732,
42629160,0.111,-0.039,1.043,-153.352,-110.372,-27.387,
42629160,0.109,-0.213,0.964,-166.32,-109.987,-26.355,
42629170,0.159,-0.39,0.928,-163.45,-104.72,-29.487,
42629180,0.172,-0.403,0.935,-153.072,-94.797,-33.372,
42629190,0.079,-0.461,0.978,-141.26,-86.502,-24.92,
42629200,0.131,-0.476,0.994,-128.03,-86.94,-30.572,
42629210,0.166,-0.403,1.028,-116.445,-85.785,-47.162,
42629220,0.144,-0.359,1.048,-113.33,-86.625,-55.615,
42629230,0.167,-0.366,1.041,-115.71,-93.082,-63.98,
42629240,0.274,-0.406,1.045,-117.39,-96.862,-69.125,
42629250,0.31,-0.446,1.006,-113.312,-100.275,-64.242,
42629260,0.413,-0.457,0.934,-102.515,-92.575,-54.162,
42629270,0.421,-0.512,0.924,-82.81,-69.3,-41.562,
42629280,0.525,-0.431,0.883,-60.2,-37.87,-29.452,
42629290,0.516,-0.522,0.822,-38.692,10.027,5.32,
42629300,0.211,-0.627,0.864,-1.697,60.602,37.66,
42629310,0.074,-0.508,0.905,39.48,89.057,48.615,
42629320,0.001,-0.481,0.931,72.905,107.975,49.437,
42629330,-0.203,-0.479,0.955,102.462,118.86,46.235,
42629340,-0.126,-0.217,1.044,113.172,122.972,36.575,
42629350,-0.454,-0.228,1.028,77.857,113.4,47.022,
42629360,-0.362,-0.236,1.125,77.28,106.487,17.272,
42629370,-0.264,-0.261,1.146,70.542,81.06,0.752,
42629380,-0.354,-0.19,1.179,64.557,60.69,2.852,
42629390,-0.312,-0.168,1.151,58.135,46.725,12.705,
42629400,-0.303,-0.204,1.121,51.905,39.06,18.025,
42629410,-0.26,-0.221,1.064,48.282,37.625,20.352,
42629420,-0.245,-0.204,1.027,46.655,40.477,24.937,
42629420,-0.228,-0.234,0.992,45.605,42.542,30.205,
42629440,-0.255,-0.3,0.961,46.427,46.9,37.397,
42629440,-0.261,-0.349,0.946,52.955,52.885,36.68,
42629460,-0.178,-0.37,0.936,64.872,61.197,30.66,
42629460,-0.126,-0.366,0.967,77.542,73.657,29.33,
42629480,-0.151,-0.337,1.02,86.397,86.712,33.88,
42629480,-0.135,-0.3,1.037,90.492,98.087,41.44,
42629500,-0.097,-0.232,1.047,86.8,112.717,48.982,
42629500,-0.136,-0.184,1.018,72.957,130.357,58.1,
42629510,-0.216,-0.19,0.963,57.435,147.595,65.905,
42629520,-0.259,-0.18,0.874,49.875,160.615,66.762,
42629530,-0.273,-0.115,0.835,46.672,171.465,69.807,
42629540,-0.345,-0.122,0.734,45.885,179.935,78.855,
42629550,-0.359,-0.138,0.701,56.98,186.987,83.562,
42629560,-0.36,-0.035,0.674,70.98,201.302,84.472,
42629570,-0.379,0.08,0.646,79.66,222.477,78.662,
42629580,-0.448,0.168,0.599,78.557,242.812,66.342,
42629590,-0.571,0.199,0.53,68.512,255.29,56.402,
42629600,-0.73,0.237,0.566,56.35,254.467,50.155,
42629610,-0.889,0.3,0.628,51.38,236.11,35.805,
42629620,-1.109,0.364,0.706,46.882,188.965,21.385,
42629630,-1.178,0.309,0.724,41.055,115.885,14.385,
42629640,-1.017,0.344,0.647,35.017,40.6,6.387,
42629650,-0.72,0.355,0.567,26.442,-11.777,-0.507,
42629660,-0.476,0.267,0.51,22.487,-25.795,-0.507,
42629670,-0.391,0.201,0.51,29.452,-7.402,0.63,
42629680,-0.421,0.195,0.581,42.157,25.252,-1.645,
42629690,-0.557,0.229,0.678,55.79,51.222,-6.055,
42629700,-0.708,0.29,0.772,64.942,59.342,-12.337,
42629710,-0.795,0.291,0.815,62.877,49.717,-18.935,
42629720,-0.846,0.308,0.856,54.18,29.47,-24.062,
42629730,-0.761,0.289,0.853,41.93,6.527,-26.81,
42629740,-0.651,0.295,0.823,31.377,-6.877,-28.105,
42629750,-0.562,0.28,0.802,21.542,-7.367,-28.91,
42629760,-0.515,0.271,0.764,11.427,4.392,-28.77,
42629770,-0.444,0.239,0.716,4.585,25.602,-34.982,
42629780,-0.499,0.162,0.65,5.057,50.767,-35.245,
42629790,-0.535,0.135,0.608,14.367,73.097,-34.055,
42629800,-0.611,0.151,0.609,29.417,90.667,-30.73,
42629810,-0.656,0.212,0.632,42.472,100.642,-27.02,
42629820,-0.695,0.301,0.655,46.812,104.842,-24.395,
42629830,-0.771,0.312,0.654,42.122,102.987,-18.48,
42629830,-0.807,0.308,0.619,34.02,96.39,-18.48,
42629850,-0.768,0.234,0.554,26.477,91.035,-24.797,
42629850,-0.761,0.214,0.507,25.707,87.867,-27.807,
42629860,-1.031,0.573,0.767,24.535,86.8,-35.087,
42629870,-0.897,0.57,0.535,-48.545,32.27,-53.567,
42629880,-0.755,-0.139,0.398,-73.132,31.185,-31.045,
42629890,-0.571,0.083,0.314,-30.537,50.05,-16.275,
42629900,-0.917,0.185,0.439,-19.512,78.557,-23.747,
42629910,-0.875,0.141,0.422,-12.46,79.625,-17.447,
42629920,-0.982,0.218,0.431,-12.32,69.16,-7.91,
42629930,-0.971,0.103,0.386,-8.942,56.49,5.53,
42629940,-0.951,0.078,0.349,3.552,53.147,11.375,
42629950,-0.992,0.101,0.398,13.615,54.092,9.922,
42629960,-1.091,0.119,0.451,22.347,49.385,8.995,
42629970,-1.022,0.152,0.44,25.48,38.36,3.517,
42629980,-1.127,0.266,0.528,19.162,29.96,-3.622,
42629990,-1.155,0.225,0.478,10.237,5.687,-11.567,
42630000,-0.991,0.18,0.396,5.39,-13.79,-20.37,
42630010,-1.013,0.457,0.356,4.637,-19.407,-26.705,
42630020,-1.145,-0.19,0.298,-10.395,-45.832,-16.397,
42630030,-0.243,0.017,0.287,25.462,-21.122,-27.51,
42630040,-0.963,0.302,0.499,52.272,23.817,-31.657,
42630050,-0.684,0.065,0.344,56.63,41.317,-26.565,
42630060,-0.944,0.246,0.43,58.205,55.51,-39.812,
42630070,-1.04,0.25,0.475,52.99,46.55,-48.125,
42630080,-0.997,0.171,0.43,46.602,21.42,-54.407,
42630090,-0.918,0.253,0.45,41.685,-2.66,-61.53,
42630100,-0.803,0.274,0.429,32.287,-20.492,-59.185,
42630110,-0.798,0.258,0.399,20.93,-29.54,-48.947,
42630120,-0.694,0.196,0.335,10.237,-30.87,-37.345,
42630130,-0.63,0.198,0.357,3.587,-14.7,-33.127,
42630140,-0.691,0.196,0.377,-4.725,8.225,-34.667,
42630150,-0.692,0.147,0.323,-15.085,31.062,-44.152,
42630160,-0.858,0.101,0.356,-20.667,48.247,-51.992,
42630170,-0.968,0.059,0.323,-16.922,45.99,-45.78,
42630170,-0.794,0.076,0.362,-7.805,41.422,-38.727,
42630190,-0.983,0.153,0.441,-5.145,50.085,-22.207,
42630190,-1.136,0.146,0.461,-16.817,49.945,-18.515,
42630210,-0.972,0.043,0.456,-32.427,35.962,-16.012,
42630210,-0.966,-0.06,0.462,-30.975,40.547,-14.297,
42630230,-1.145,0.021,0.387,-19.18,48.125,-13.562,
42630230,-1.183,0.015,0.328,-14,31.097,-16.835,
42630250,-1.036,-0.032,0.289,-3.902,10.5,-11.865,
42630250,-0.964,0.033,0.314,9.555,6.79,-11.935,
42630260,-1.044,-0.059,0.387,18.69,8.032,-13.335,
42630270,-1.057,-0.005,0.425,33.495,2.17,-23.485,
42630280,-1.047,0.076,0.4,37.59,-7.42,-32.445,
42630290,-1.023,0.067,0.406,37.292,-16.607,-34.422,
42630300,-1.013,0.071,0.408,37.152,-25.445,-33.512,
42630310,-0.92,0.062,0.406,33.337,-28.77,-31.71,
42630320,-0.871,0.127,0.437,27.352,-27.195,-25.795,
42630330,-0.806,0.176,0.438,16.537,-17.64,-17.395,
42630340,-0.888,0.075,0.416,1.365,-1.47,-13.055,
42630350,-0.91,0.05,0.4,-7.682,9.117,-17.412,
42630360,-0.912,0.08,0.396,-13.58,13.282,-23.152,
42630370,-0.887,0.05,0.364,-19.39,16.45,-27.23,
42630380,-0.882,0.051,0.352,-21.945,22.172,-31.85,
42630390,-0.871,0.049,0.337,-22.33,31.447,-37.275,
42630400,-0.883,0.047,0.331,-24.5,42.052,-41.58,
42630410,-0.961,-0.001,0.318,-27.02,50.225,-44.502,
42630420,-1.004,-0.062,0.308,-25.147,50.592,-47.6,
42630430,-0.991,-0.084,0.29,-16.52,42.017,-51.345,
42630440,-0.915,-0.094,0.29,-4.095,34.72,-48.947,
42630450,-1.012,0.012,0.312,4.69,33.53,-43.96,
42630460,-1.072,0.049,0.329,1.697,26.442,-38.482,
42630470,-1.122,0.001,0.316,-5.355,13.387,-30.572,
42630480,-1.082,-0.026,0.299,-11.655,0.402,-26.337,
42630490,-1.062,-0.052,0.29,-17.307,-6.265,-25.882,
42630500,-1.049,-0.041,0.31,-22.627,-8.592,-27.195,
42630510,-1.091,-0.031,0.346,-32.06,-13.3,-26.46,
42630520,-1.075,-0.062,0.349,-41.65,-22.155,-25.655,
42630530,-1.036,-0.105,0.342,-44.782,-28.455,-25.357,
42630540,-1.044,-0.11,0.363,-44.852,-31.99,-25.637,
42630550,-0.993,-0.155,0.374,-44.695,-33.092,-27.51,
42630550,-0.932,-0.096,0.406,-41.79,-28.945,-26.32,
42630570,-0.976,-0.078,0.444,-44.065,-27.51,-31.57,
42630570,-0.988,-0.023,0.383,-48.265,-35,-29.4,
42630580,-0.8,-0.076,0.343,-54.932,-40.127,-33.232,
42630590,-0.856,-0.163,0.321,-52.815,-30.992,-34.632,
42630600,-0.819,-0.139,0.312,-42.525,-25.637,-31.447,
42630610,-0.852,-0.127,0.3,-35.962,-17.885,-30.817,
42630620,-0.879,-0.121,0.292,-33.127,-11.882,-27.965,
42630630,-0.906,-0.152,0.283,-32.182,-8.155,-27.37,
42630640,-0.955,-0.17,0.292,-30.292,-7.542,-28.717,
42630650,-0.952,-0.18,0.287,-28.98,-10.85,-30.047,
42630660,-0.93,-0.169,0.288,-28.227,-13.457,-31.5,
42630670,-0.874,-0.171,0.294,-26.18,-12.67,-29.102,
42630680,-0.91,-0.175,0.294,-24.08,-9.572,-23.117,
42630690,-0.897,-0.214,0.289,-24.255,-7.35,-14.752,
42630700,-0.888,-0.208,0.304,-23.485,-2.712,-13.16,
42630710,-0.87,-0.164,0.326,-24.797,2.327,-13.667,
42630720,-0.864,-0.164,0.338,-29.995,9.187,-11.707,
42630730,-0.883,-0.196,0.339,-35.805,15.627,-7.315,
42630740,-0.864,-0.201,0.338,-38.202,22.172,-4.077,
42630750,-0.841,-0.146,0.317,-41.282,30.992,0.595,
42630760,-1.304,0.011,0.36,-55.545,26.442,3.01,
42630770,-0.765,-0.305,0.137,-82.862,-4.69,-10.36,
42630780,-0.588,-0.433,0.237,-76.93,11.235,-1.365,
42630790,-0.739,-0.208,0.311,-52.605,52.78,-0.945,
42630800,-1.254,-0.304,0.397,-44.345,65.765,3.167,
42630810,-1.107,-0.469,0.279,-29.33,39.007,6.247,
42630820,-0.922,-0.402,0.276,-2.94,21.682,-5.617,
42630830,-0.801,-0.393,0.238,39.445,22.837,-2.24,
42630840,-0.936,-0.283,0.264,77.175,37.24,2.677,
42630850,-0.966,-0.175,0.318,95.007,41.335,7.367,
42630860,-0.913,-0.119,0.367,94.727,37.607,10.01,
42630870,-0.786,-0.228,0.299,81.777,41.3,17.92,
42630880,-0.979,-0.104,0.323,78.33,54.197,27.142,
42630890,-0.897,-0.095,0.238,69.51,55.177,36.277,
42630900,-0.835,-0.157,0.196,57.347,61.145,46.007,
42630910,-0.89,-0.201,0.191,50.522,71.032,60.55,
42630920,-0.998,-0.243,0.167,44.922,78.89,60.392,
42630920,-1.06,-0.265,0.153,38.815,76.09,47.285,
42630940,-1.008,-0.208,0.156,40.442,65.45,30.817,
42630940,-1.192,-0.145,0.193,41.142,50.61,23.922,
42630960,-1.218,-0.159,0.143,34.755,20.37,19.197,
42630960,-1.17,-0.178,0.135,27.3,-10.605,13.562,
42630980,-1.105,-0.146,0.167,20.615,-34.055,10.5,
42630980,-1.063,-0.117,0.194,14.227,-49.437,13.37,
42631000,-1.037,-0.123,0.228,4.497,-53.095,14.385,
42631000,-1.101,-0.069,0.238,-8.925,-53.76,8.82,
42631010,-1.052,-0.068,0.223,-29.067,-57.19,1.067,
42631020,-0.837,-0.226,0.208,-47.757,-48.615,-1.487,
42631030,-1.245,-0.071,0.23,-46.515,-36.12,-5.88,
42631040,-0.979,0.055,0.067,-59.955,-56.98,-16.695,
42631050,-0.751,-0.244,0.115,-75.652,-52.657,-4.007,
42631060,-0.983,-0.193,0.31,-59.587,-29.575,-9.73,
42631070,-1.129,-0.164,0.293,-46.83,-29.715,-15.785,
42631080,-1.153,-0.157,0.253,-37.135,-47.722,-26.915,
42631090,-1.12,-0.172,0.16,-27.002,-80.955,-32.62,
42631100,-0.528,-0.338,0.132,-1.4,-93.117,-26.635,
42631110,-0.556,-0.229,0.239,41.037,-53.812,-9.887,
42631120,-0.699,-0.178,0.322,75.372,-2.432,5.18,
42631130,-0.891,-0.059,0.423,89.302,33.18,15.295,
42631140,-1.063,0.009,0.523,81.025,50.61,17.675,
42631150,-1.173,-0.036,0.486,57.26,40.232,16.205,
42631160,-1.01,-0.176,0.392,33.897,26.67,11.462,
42631170,-0.985,-0.168,0.351,22.995,23.835,8.277,
42631180,-1.002,-0.125,0.358,20.51,23.432,13.492,
42631190,-0.94,-0.054,0.319,11.777,18.777,17.692,
42631200,-0.767,-0.068,0.243,0.052,21.7,23.485,
42631210,-0.808,-0.093,0.212,-9.1,40.04,28.63,
42631220,-0.787,-0.228,0.235,-13.072,57.452,27.755,
42631230,-1.187,-0.099,0.332,-0.962,67.76,22.715,
42631240,-1.076,-0.061,0.236,-0.472,48.79,11.147,
42631250,-1.029,-0.203,0.237,-2.502,34.737,11.41,
42631260,-1.098,-0.072,0.286,7.122,24.797,10.272,
42631260,-1.137,-0.095,0.276,10.99,10.517,12.792,
42631280,-1.095,-0.06,0.269,13.3,-9.222,15.33,
42631280,-1.015,-0.048,0.261,12.162,-24.762,17.832,
42631300,-0.974,-0.027,0.267,10.36,-32.672,22.295,
42631300,-0.945,-0.058,0.251,7.157,-33.757,28.49,
42631320,-0.965,-0.09,0.208,7.035,-31.5,34.405,
42631320,-0.956,-0.104,0.202,11.672,-29.312,39.217,
42631330,-1.004,-0.153,0.229,17.815,-24.167,41.545,
42631340,-1.136,-0.128,0.279,28.14,-27.877,38.01,
42631350,-1.087,-0.097,0.288,34.65,-45.377,34.912,
42631360,-0.989,-0.084,0.319,36.61,-60.917,35.21,
42631370,-0.903,-0.005,0.36,36.26,-66.57,37.257,
42631380,-0.876,0.012,0.361,29.995,-63.91,41.16,
42631390,-0.849,0.027,0.343,20.615,-57.522,43.785,
42631400,-0.857,0.087,0.323,7.42,-49.647,46.007,
42631410,-0.835,0.096,0.272,-11.375,-38.657,48.632,
42631420,-0.814,0.01,0.179,-27.597,-21.98,50.54,
42631430,-0.868,-0.059,0.14,-28.857,-2.887,54.617,
42631440,-1.039,-0.098,0.175,-18.952,6.3,57.627,
42631450,-1.069,-0.114,0.214,-4.952,3.08,50.592,
42631460,-1.074,-0.061,0.287,8.697,-5.302,43.365,
42631470,-1.047,-0.064,0.36,18.2,-13.107,34.615,
42631480,-0.964,0.003,0.406,26.897,-18.182,26.67,
42631490,-0.924,0.068,0.435,29.855,-18.9,26.81,
42631500,-0.888,0.046,0.41,28.262,-14.822,27.982,
42631510,-0.872,0.065,0.401,28.98,-8.295,31.535,
42631520,-0.887,0.103,0.4,28.35,-3.325,36.4,
42631530,-0.892,0.097,0.368,23.905,1.155,37.012,
42631540,-0.854,0.112,0.331,18.777,6.44,31.71,
42631550,-0.874,0.104,0.324,14.682,17.15,27.055,
42631560,-0.937,0.082,0.323,13.982,29.137,24.622,
42631570,-1.045,0.015,0.293,15.435,36.067,21.175,
42631580,-1.035,0.05,0.357,24.972,35.315,19.74,
42631590,-1.011,0.163,0.363,32.515,30.66,16.887,
42631600,-0.971,0.133,0.344,27.597,30.205,15.19,
42631610,-1.096,0.139,0.366,21.437,29.137,18.392,
42631620,-1.156,0.196,0.352,11.935,17.01,18.287,
42631630,-1.197,0.166,0.316,-2.17,-2.502,14.577,
42631640,-1.193,0.152,0.28,-15.872,-26.355,5.53,
42631650,-1.228,0.103,0.242,-23.922,-54.88,-6.037,
42631660,-0.928,0.125,0.199,-28.525,-79.94,-17.465,
42631670,-0.986,-0.041,0.255,-33.74,-74.375,-23.905,
42631670,-1.041,-0.023,0.369,-26.337,-56.77,-38.727,
42631690,-1.156,0.159,0.453,-17.745,-58.66,-52.78,
42631690,-1.259,0.269,0.392,-22.452,-78.732,-63.962,
42631710,-1.013,0.127,0.23,-41.387,-105.91,-72.257,
42631710,-0.642,-0.132,0.192,-44.66,-100.38,-66.01,
42631730,-0.688,-0.07,0.261,-22.137,-62.772,-55.912,
42631730,-0.662,-0.026,0.336,2.485,-27.125,-45.167,
42631750,-0.808,-0.014,0.404,16.835,2.03,-31.605,
42631750,-0.83,0.122,0.44,20.842,16.257,-27.405,
42631760,-0.847,0.117,0.454,11.725,22.96,-23.012,
42631770,-0.931,0.059,0.441,-0.665,24.132,-19.04,
42631780,-0.929,0.013,0.409,-8.75,21.175,-20.545,
42631790,-0.913,-0.022,0.393,-10.867,19.53,-22.207,
42631800,-0.908,-0.029,0.376,-8.925,19.565,-23.17,
42631810,-0.905,-0.038,0.362,-3.605,18.76,-21.07,
42631820,-0.91,-0.04,0.345,3.027,18.847,-15.61,
42631830,-0.905,-0.042,0.332,8.277,22.032,-11.497,
42631840,-0.968,-0.024,0.352,11.97,26.302,-6.72,
42631850,-1.097,-0.002,0.359,10.762,21.665,-2.117,
42631860,-1.066,-0.008,0.348,5.827,7.787,-0.297,
42631870,-1.004,-0.044,0.337,3.377,-4.287,2.432,
42631880,-0.935,-0.061,0.35,5.845,-8.365,4.445,
42631890,-0.896,-0.028,0.394,10.85,-6.667,5.495,
42631900,-0.855,0.013,0.418,14.105,-2.712,5.757,
42631910,-0.855,0.019,0.429,15.172,2.135,4.602,
42631920,-0.871,0.038,0.423,15.19,3.955,1.697,
42631930,-0.871,0.059,0.417,12.285,4.217,-1.085,
42631940,-0.891,0.059,0.411,8.015,2.765,-4.077,
42631950,-0.891,0.075,0.423,3.132,0.822,-5.635,
42631960,-0.898,0.067,0.419,-3.675,-0.14,-6.282,
42631970,-0.921,0.039,0.401,-9.677,-0.175,-5.915,
42631980,-0.948,0.027,0.378,-15.802,-1.732,-9.275,
42631990,-0.963,0.021,0.353,-20.352,-2.555,-8.575,
42632000,-0.999,-0.002,0.331,-24.832,-3.045,-8.452,
42632010,-0.992,-0.01,0.291,-28,-3.255,-9.502,
42632010,-0.981,-0.011,0.268,-30.765,-2.922,-9.432,
42632030,-1.017,-0.034,0.268,-31.482,-2.52,-5.092,
42632030,-1.024,-0.058,0.281,-28.157,-4.742,-2.695,
42632050,-0.991,-0.009,0.316,-24.517,-6.195,-3.657,
42632050,-0.975,0.002,0.346,-24.902,-5.775,-4.2,
42632070,-0.972,-0.019,0.379,-25.095,-5.232,-3.745,
42632070,-0.947,-0.028,0.412,-23.782,-1.872,-3.64,
42632080,-0.958,-0.007,0.442,-22.312,1.732,-3.552,
42632090,-0.969,0,0.452,-22.085,2.747,-2.957,
42632100,-0.968,-0.029,0.424,-22.015,1.26,-2.66,
42632110,-0.969,-0.043,0.385,-20.23,0.175,-2.642,
42632120,-0.97,-0.042,0.341,-17.867,-2.03,-2.992,
42632130,-0.925,-0.035,0.314,-16.135,-2.362,-3.937,
42632140,-0.939,-0.016,0.315,-15.452,-1.225,-3.867,
42632150,-0.976,-0.027,0.311,-17.045,-2.1,-2.432,
42632160,-0.988,-0.042,0.316,-19.162,-6.982,-0.682,
42632170,-0.984,-0.048,0.32,-20.527,-12.302,0.805,
42632180,-0.943,-0.048,0.329,-22.242,-15.82,0.105,
42632190,-0.966,-0.081,0.343,-22.995,-14.945,-0.787,
42632200,-0.99,-0.069,0.335,-19.477,-17.482,-3.902,
42632210,-0.988,-0.038,0.322,-11.9,-26.127,-4.235,
42632220,-0.915,-0.075,0.303,-3.71,-32.76,-1.382,
42632230,-0.889,-0.065,0.291,8.33,-32.532,0.612,
42632240,-0.805,-0.003,0.322,18.48,-30.415,2.082,
42632250,-0.823,-0.1,0.445,24.465,-19.337,6.44,
42632260,-0.73,-0.046,0.458,32.357,-3.08,8.627,
42632270,-0.971,0.094,0.534,24.5,12.425,15.102,
42632280,-1.032,0.025,0.517,7.175,14.42,16.327,
42632290,-1.114,-0.024,0.513,-8.855,3.78,19.53,
42632300,-1.044,-0.039,0.499,-18.06,-13.09,21.21,
42632310,-0.933,-0.065,0.455,-24.605,-20.562,18.147,
42632320,-0.961,-0.015,0.383,-32.042,-16.607,9.012,
42632330,-0.973,-0.006,0.336,-43.487,-13.825,1.26,
42632340,-0.851,-0.133,0.318,-49.507,-7.682,-2.415,
42632350,-0.859,-0.079,0.335,-43.54,5.932,-6.282,
42632360,-0.914,-0.05,0.376,-39.532,15.225,-6.44,
42632370,-0.947,-0.009,0.323,-31.955,13.072,0.122,
42632380,-0.778,-0.007,0.301,-30.537,24.64,3.097,
42632390,-0.888,-0.003,0.288,-30.187,41.335,-0.017,
42632400,-0.89,-0.017,0.272,-32.252,47.915,3.482,
42632410,-0.895,-0.078,0.251,-34.492,52.342,5.81,
42632420,-0.904,-0.046,0.257,-32.497,52.972,11.077,
42632420,-0.877,-0.045,0.261,-32.952,52.552,13.947,
42632440,-0.897,-0.05,0.262,-34.422,55.737,14.42,
42632440,-0.96,-0.048,0.293,-35.332,58.782,13.475,
42632460,-0.976,-0.071,0.319,-36.68,58.66,10.587,
42632460,-0.996,-0.086,0.335,-35.875,55.615,8.487,
42632480,-1.005,-0.076,0.33,-32.882,51.065,7.367,
42632480,-1.023,-0.06,0.326,-29.837,45.937,7.245,
42632500,-1.015,-0.076,0.289,-27.527,38.517,7.805,
42632500,-1.002,-0.091,0.239,-22.085,31.097,7.822,
42632510,-1.045,-0.095,0.214,-13.912,24.097,8.12,
42632520,-1.055,-0.099,0.228,-4.515,14.402,7.262,
42632530,-0.974,-0.024,0.225,2.905,6.072,7.28,
42632540,-0.99,-0.047,0.199,5.53,8.785,9.415,
42632550,-0.968,-0.022,0.188,8.452,11.095,9.8,
42632560,-0.865,0.021,0.244,8.067,14.682,12.337,
42632570,-0.87,-0.099,0.209,3.762,31.465,18.742,
42632580,-1.02,0,0.179,3.762,43.102,19.915,
42632590,-1.045,0.032,0.178,0.367,41.965,22.785,
42632600,-1.125,0.003,0.17,-7.402,37.887,22.05,
42632610,-1.087,0.069,0.165,-15.067,26.477,15.54,
42632620,-1.09,-0.075,0.173,-20.492,21.332,15.522,
42632630,-1.122,-0.142,0.242,-16.047,17.272,11.865,
42632640,-1.145,-0.101,0.265,-2.537,6.265,12.11,
42632650,-1.034,-0.036,0.233,6.02,-4.287,13.335,
42632660,-1.01,-0.032,0.23,11.112,-9.327,12.022,
42632670,-0.894,-0.025,0.249,15.96,-11.795,10.36,
42632680,-0.873,0.007,0.247,19.687,-5.967,8.942,
42632690,-0.941,0.054,0.242,18.252,1.47,9.415,
42632700,-0.946,0.023,0.23,14.35,3.92,7.49,
42632710,-0.916,0.02,0.231,14.227,6.702,7.017,
42632720,-0.919,0.054,0.202,12.88,13.265,7.437,
42632730,-0.992,0.044,0.212,8.225,21.892,8.435,
42632740,-1.061,0.023,0.244,4.357,23.1,10.955,
42632750,-1.057,0.013,0.265,2.537,17.867,13.79,
42632760,-1.045,0.008,0.249,-0.63,13.58,15.295,
42632760,-1.029,-0.015,0.224,-4.322,12.127,14.332,
42632780,-1.059,-0.032,0.198,-5.285,12.74,12.775,
42632780,-1.088,0.02,0.19,-7,5.127,11.025,
42632800,-1.034,-0.015,0.175,-10.115,-4.077,11.147,
42632800,-0.935,-0.01,0.148,-10.675,-3.587,8.452,
42632820,-0.999,0.031,0.143,-12.565,5.145,7.28,
42632820,-1.081,0.019,0.18,-18.27,11.742,5.512,
42632830,-1.17,0.03,0.205,-25.305,9.222,3.342,
42632840,-1.077,0.058,0.216,-36.522,-2.117,1.557,
42632850,-0.992,-0.003,0.196,-42.087,0.21,1.557,
42632860,-1.172,-0.123,0.227,-39.795,6.02,-0.455,
42632870,-1.282,-0.232,0.248,-20.072,-14.56,-3.92,
42632880,-0.825,0.109,0.171,8.68,-27.685,-3.64,
42632890,-1.145,-0.032,0.127,-1.015,-42.262,6.405,
42632900,-0.821,-0.01,0.111,5.04,-41.23,7.962,
42632910,-0.951,0.1,0.154,7.332,-34.335,14.857,
42632920,-0.895,0.079,0.156,2.485,-27.265,15.382,
42632930,-0.928,0.073,0.182,-3.062,-23.555,18.217,
42632940,-0.905,0.074,0.196,-8.662,-20.002,20.895,
42632950,-0.889,0.045,0.216,-13.772,-8.925,17.43,
42632960,-0.932,0.084,0.24,-19.897,4.112,10.867,
42632970,-0.977,0.066,0.24,-27.895,12.862,10.027,
42632980,-1.02,0,0.245,-29.54,18.375,13.247,
42632990,-1.023,-0.005,0.251,-24.675,21.577,16.922,
42633000,-1.042,-0.012,0.214,-18.707,25.41,17.762,
42633010,-1.061,-0.021,0.15,-10.08,24.22,17.99,
42633020,-1.021,0.009,0.109,2.345,16.432,22.75,
42633030,-0.951,0.05,0.077,9.94,10.815,26.792,
42633040,-0.925,0.061,0.072,13.807,12.162,24.745,
42633050,-0.828,0.09,0.14,17.08,17.167,21.945,
42633060,-0.912,0.064,0.186,17.202,26.075,18.007,
42633070,-0.97,0.029,0.229,18.48,28.035,12.67,
42633080,-1.037,0.027,0.265,22.575,23.1,7.122,
42633090,-1.007,0.034,0.279,25.987,14.7,0.612,
42633100,-0.997,0.056,0.268,29.067,11.567,-4.27,
42633110,-1.002,0.108,0.229,28.525,10.237,-6.58,
42633120,-1.015,0.117,0.161,25.34,11.252,-6.982,
42633130,-1.073,0.114,0.127,21.35,15.505,-7.315,
42633140,-1.114,0.13,0.125,16.485,17.692,-9.345,
42633150,-1.138,0.132,0.115,10.15,17.307,-9.52,
42633160,-1.127,0.125,0.125,2.555,16.555,-9.642,
42633170,-1.093,0.146,0.139,-6.16,13.02,-9.1,
42633170,-0.991,0.133,0.124,-16.485,10.237,-8.82,
42633190,-0.918,0.159,0.16,-24.832,14.787,-11.182,
42633190,-0.916,0.158,0.172,-33.11,20.142,-14.332,
42633210,-1.001,0.062,0.158,-35.857,23.152,-17.902,
42633210,-1.066,0.067,0.166,-28.175,19.355,-24.727,
42633230,-1.068,0.09,0.198,-20.877,7.997,-28.577,
42633230,-1.087,0.081,0.171,-18.567,-1.242,-25.69,
42633250,-1.091,0.153,0.174,-20.09,-12.022,-21.822,
42633250,-1.028,0.116,0.152,-26.442,-21.052,-21.682,
42633260,-0.991,0.091,0.121,-30.24,-23.345,-24.745,
42633270,-0.965,0.049,0.081,-33.057,-20.282,-31.797,
42633280,-0.923,0.039,0.064,-31.115,-17.115,-40.53,
42633290,-0.87,0.059,0.058,-24.377,-17.01,-42.42,
42633300,-0.839,0.049,0.055,-17.587,-15.697,-38.815,
42633310,-0.808,0.064,0.073,-13.37,-9.765,-35.647,
42633320,-0.889,0.044,0.115,-13.037,1.277,-31.797,
42633330,-0.955,0.045,0.148,-15.085,11.445,-26.617,
42633340,-1.093,0.024,0.167,-20.247,18.637,-19.285,
42633350,-1.215,-0.03,0.24,-26.285,21.472,-19.495,
42633360,-1.302,-0.032,0.262,-31.797,14.42,-25.9,
42633370,-1.329,-0.034,0.214,-35.805,-1.032,-34.51,
42633380,-1.319,0.015,0.222,-36.172,-18.812,-45.062,
42633390,-1.281,0.054,0.261,-37.835,-33.337,-54.302,
42633400,-1.296,0.055,0.309,-44.712,-40.285,-66.727,
42633410,-1.301,0.036,0.327,-52.727,-49.455,-80.307,
42633420,-1.205,0.02,0.345,-55.72,-63,-91.822,
42633430,-1.143,0.019,0.327,-53.567,-77.385,-102.462,
42633440,-1.033,0.036,0.292,-42.367,-96.67,-108.5,
42633450,-1.012,0.042,0.302,-29.977,-116.042,-109.182,
42633460,-0.874,0.027,0.267,-18.987,-133.42,-109.777,
42633470,-0.926,-0.037,0.301,-3.762,-134.907,-99.417,
42633480,-1.08,-0.028,0.333,17.902,-132.51,-86.957,
42633490,-1.127,-0.011,0.311,37.677,-131.81,-83.51,
42633500,-1.124,0.004,0.175,49.98,-133,-86.327,
42633510,-0.999,-0.068,0.073,63.017,-130.375,-80.972,
42633510,-0.961,-0.047,0.148,76.685,-121.397,-67.077,
42633530,-0.815,-0.196,0.183,89.81,-110.302,-60.812,
42633530,-0.866,-0.271,0.212,118.737,-96.862,-46.602,
42633550,-0.958,-0.289,0.215,159.53,-94.885,-34.842,
42633550,-1.006,-0.269,0.162,201.985,-109.147,-29.75,
42633570,-1.126,-0.232,0.133,232.522,-135.782,-10.815,
42633570,-1.195,-0.193,0.121,252.665,-175.49,10.395,
42633580,-1.187,-0.109,0.125,253.925,-231.157,27.177,
42633590,-1.221,-0.012,0.179,248.465,-296.555,45.202,
42633600,-1.175,0.1,0.275,228.865,-366.905,61.46,
42633610,-1.029,0.192,0.339,193.112,-435.435,74.025,
42633620,-0.695,0.255,0.302,144.987,-485.38,87.325,
42633630,-0.394,0.162,0.301,91.157,-497.962,104.037,
42633640,-0.202,0.085,0.375,42.07,-476.28,114.94,
42633650,-0.046,0.026,0.451,2.572,-431.235,117.792,
42633660,0.113,-0.039,0.53,-25.392,-366.625,111.51,
42633670,0.203,-0.062,0.658,-45.062,-284.112,94.815,
42633680,0.217,-0.046,0.744,-63.945,-196.595,73.115,
42633690,0.055,-0.091,0.831,-82.127,-121.625,55.142,
42633700,-0.145,-0.16,0.881,-97.072,-69.44,42.402,
42633710,-0.346,-0.174,0.915,-107.975,-51.31,37.292,
42633720,-0.429,-0.175,0.916,-117.407,-61.057,38.955,
42633730,-0.385,-0.232,0.869,-126.035,-80.01,41.545,
42633740,-0.285,-0.297,0.842,-131.337,-92.855,42.997,
42633750,-0.172,-0.404,0.818,-131.547,-94.745,43.995,
42633760,-0.116,-0.563,0.813,-119.525,-88.847,47.372,
42633770,-0.075,-0.615,0.884,-92.05,-76.667,49.087,
42633780,-0.05,-0.622,0.975,-58.94,-67.585,48.86,
42633790,-0.08,-0.601,1.045,-29.627,-63.875,51.66,
42633800,-0.35,-0.693,1.198,-5.005,-74.077,62.3,
42633810,-0.337,-0.94,1.276,32.62,-121.397,57.96,
42633820,0.072,-0.728,1.251,88.655,-163.625,28.77,
42633830,0.359,-0.458,1.249,124.88,-174.44,15.767,
42633840,0.528,-0.478,1.252,132.422,-150.342,10.115,
42633850,0.88,-0.289,1.185,130.515,-81.025,-18.165,
42633860,0.601,-0.227,1.235,113.96,8.207,-28.297,
42633870,0.369,-0.285,1.285,97.755,75.775,-35.857,
42633880,0.115,-0.264,1.365,96.792,109.48,-41.37,
42633890,0.093,-0.153,1.409,92.295,116.497,-41.562,
42633900,0.245,-0.033,1.39,78.312,128.59,-47.337,
42633910,0.213,-0.061,1.334,59.272,162.242,-50.907,
42633920,0.221,-0.145,1.229,36.225,209.125,-65.135,
42633920,0.092,-0.156,1.148,17.867,261.817,-80.255,
42633940,-0.058,-0.17,0.971,1.19,309.225,-86.117,
42633940,-0.347,-0.229,0.899,-14.07,347.462,-86.73,
42633950,-0.687,-0.247,0.864,-21.402,352.415,-81.69,
42633960,-0.92,-0.26,0.824,-19.022,322.42,-71.452,
42633970,-0.826,-0.217,0.755,-9.607,279.317,-58.24,
42633980,-0.83,-0.184,0.688,-1.295,239.015,-41.492,
42633990,-0.827,-0.106,0.667,7.052,205.275,-25.287,
42634000,-0.77,0.01,0.652,10.132,176.4,-10.517,
42634010,-0.691,0.029,0.582,6.825,152.477,2.467,
42634020,-0.643,0.107,0.581,2.52,140.227,10.832,
42634030,-0.693,0.099,0.571,-5.477,127.872,13.072,
42634040,-0.664,0.121,0.573,-12.442,113.155,10.745,
42634050,-0.611,0.149,0.564,-18.322,96.6,6.842,
42634060,-0.542,0.088,0.493,-22.627,84.84,9.677,
42634070,-0.416,0.013,0.404,-18.812,86.327,16.03,
42634080,-0.487,0.003,0.365,-8.137,99.977,21.017,
42634090,-0.707,0.017,0.406,0.437,111.212,22.872,
42634100,-0.765,0.033,0.498,8.312,106.155,21.402,
42634110,-0.838,0.041,0.537,15.977,89.162,18.217,
42634120,-0.86,0.097,0.578,14.49,70.122,16.835,
42634130,-0.892,0.067,0.599,3.535,48.65,4.532,
42634140,-0.869,0.106,0.478,-3.255,22.242,-14.665,
42634150,-0.196,-0.142,0.364,8.26,28.245,-24.097,
42634160,-0.789,-0.1,0.519,13.317,59.517,2.887,
42634170,-0.735,0.311,0.595,-5.39,64.365,-9.205,
42634180,-0.715,-0.152,0.54,-25.585,70.56,-9.712,
42634190,-0.773,-0.072,0.589,-21.98,78.207,-6.44,
42634200,-0.87,-0.124,0.741,-15.155,79.38,-7.105,
42634210,-0.879,-0.148,0.801,1.995,64.54,-4.077,
42634220,-0.678,-0.039,0.823,19.407,55.23,-0.525,
42634230,-0.615,-0.058,0.844,28.84,67.095,1.47,
42634240,-0.745,0.066,0.82,36.732,85.085,4.305,
42634250,-0.766,0.052,0.743,32.13,96.302,7.455,
42634260,-0.737,0.011,0.631,25.515,103.827,11.497,
42634260,-0.789,0.08,0.585,23.135,115.202,17.57,
42634280,-1,-0.033,0.566,10.692,118.23,21.84,
42634280,-0.94,-0.124,0.529,3.622,111.51,23.52,
42634300,-1.115,0.079,0.506,16.24,101.692,13.335,
42634300,-1.19,-0.045,0.419,7.035,72.852,3.535,
42634320,-1.09,0.008,0.421,-1.12,48.475,-5.897,
42634320,-0.957,0.121,0.397,-7.507,33.372,-6.527,
42634330,-0.862,0.101,0.337,-20.247,33.407,-1.802,
42634340,-0.866,0.131,0.342,-37.887,48.632,4.34,
42634350,-0.921,0.134,0.35,-61.495,64.19,8.172,
42634360,-0.972,0.015,0.384,-80.377,75.302,5.757,
42634370,-1.024,0,0.465,-84.087,75.022,1.785,
42634380,-1.11,0.05,0.5,-84.315,61.792,2.45,
42634390,-1.049,0.085,0.46,-93.835,43.19,5.372,
42634400,-1.031,0.019,0.399,-105.385,31.57,6.44,
42634410,-1.049,-0.068,0.367,-108.972,22.032,4.9,
42634420,-1.076,-0.067,0.357,-106.33,8.925,6.475,
42634430,-1.036,-0.033,0.356,-103.407,-5.32,8.872,
42634440,-1.007,-0.044,0.332,-102.182,-15.995,7.227,
42634450,-0.969,-0.031,0.303,-100.905,-20.72,3.202,
42634460,-0.996,-0.043,0.258,-98.21,-24.727,2.24,
42634470,-1.015,-0.089,0.192,-91.577,-29.977,0.087,
42634480,-1.051,-0.101,0.144,-78.452,-38.255,-1.697,
42634490,-1.064,-0.062,0.128,-61.005,-51.187,-4.725,
42634500,-1.101,-0.101,0.102,-43.925,-66.22,-6.037,
42634510,-1.125,-0.11,0.11,-23.905,-83.247,-7.437,
42634520,-1.042,-0.113,0.114,-2.45,-99.12,-9.957,
42634530,-1.055,-0.152,0.169,21.157,-108.622,-11.497,
42634540,-0.968,-0.041,0.22,46.06,-114.835,-15.12,
42634550,-0.839,0.018,0.295,59.727,-114.047,-18.865,
42634560,-0.694,0.057,0.389,57.89,-100.38,-17.36,
42634570,-0.55,-0.061,0.513,52.675,-66.955,-14.787,
42634580,-0.603,-0.07,0.587,55.667,-22.75,-17.307,
42634590,-0.74,0.031,0.608,57.82,9.345,-19.46,
42634600,-0.751,0.023,0.604,51.082,21.28,-17.657,
42634610,-0.753,-0.008,0.628,43.89,29.627,-4.707,
42634620,-0.71,-0.053,0.575,38.885,35.087,5.635,
42634630,-0.57,-0.045,0.511,38.447,50.68,15.68,
42634640,-0.535,-0.075,0.458,40.74,83.615,27.44,
42634640,-0.666,0,0.384,45.902,126.07,38.797,
42634660,-0.992,0.171,0.436,39.707,158.742,39.97,
42634660,-1.228,0.084,0.38,16.957,147.735,31.622,
42634670,-1.298,0.072,0.356,-1.557,114.415,30.17,
42634680,-1.317,0.072,0.31,-17.43,70.385,24.412,
42634690,-1.177,-0.007,0.256,-27.825,25.217,18.9,
42634700,-0.978,-0.077,0.201,-27.335,-6.86,7.787,
42634710,-0.79,-0.019,0.235,-16.747,-15.137,2.065,
42634720,-0.816,-0.018,0.305,-7.245,-6.282,4.725,
42634730,-0.673,-0.019,0.301,-3.01,12.845,8.207,
42634740,-0.944,-0.019,0.381,-2.572,35.017,12.897,
42634750,-1.031,0.005,0.409,-1.715,37.677,17.482,
42634760,-1.06,-0.02,0.437,-3.395,23.607,18.812,
42634770,-1.034,-0.059,0.426,-4.077,9.572,19.652,
42634780,-1.085,-0.035,0.412,-1.802,-1.102,20.142,
42634790,-1.061,-0.001,0.402,-0.262,-15.907,19.18,
42634800,-0.981,0.007,0.37,0.315,-29.295,19.652,
42634810,-0.893,0.038,0.342,0.297,-33.547,22.715,
42634820,-0.866,0.079,0.355,-2.345,-27.86,26.53,
42634830,-0.914,0.102,0.382,-10.64,-20.79,29.19,
42634840,-0.914,0.053,0.375,-21.752,-15.487,29.732,
42634850,-0.939,-0.001,0.37,-27.667,-7.857,25.515,
42634860,-0.959,-0.024,0.367,-25.935,-2.712,19.302,
42634870,-0.976,0.007,0.36,-19.46,-2.8,14.227,
42634880,-1.04,0.009,0.359,-12.162,-8.137,12.705,
42634890,-0.912,0.034,0.33,-3.71,-25.007,11.865,
42634900,-0.874,0.134,0.327,0.227,-26.74,16.327,
42634910,-0.866,0.104,0.285,-8.225,-18.112,17.727,
42634920,-0.938,0.058,0.276,-14.892,-8.907,18.795,
42634930,-0.976,0.048,0.28,-16.45,-5.827,20.982,
42634940,-0.989,0.048,0.29,-15.295,-6.3,23.8,
42634950,-1.014,0.046,0.314,-13.545,-8.312,24.132,
42634960,-1.024,0.009,0.333,-10.22,-12.74,21.315,
42634970,-0.997,0.055,0.363,-3.99,-20.072,20.93,
42634980,-0.919,0.111,0.384,-2.205,-24.307,23.59,
42634990,-0.867,0.111,0.395,-5.075,-19.757,29.067,
42635000,-0.904,0.078,0.393,-8.522,-12.915,33.757,
42635010,-0.879,0.085,0.403,-9.397,-9.082,38.552,
42635010,-0.986,0.107,0.42,-9.152,-11.147,41.615,
42635030,-0.98,0.06,0.418,-10.255,-38.167,40.757,
42635030,-0.502,0.147,0.391,-10.85,-50.767,43.12,
42635050,-0.547,0.174,0.378,-15.872,-22.347,52.57,
42635050,-0.704,0.17,0.376,-27.247,10.867,60.585,
42635070,-0.73,0.215,0.355,-39.987,28.752,72.817,
42635070,-0.756,0.178,0.313,-57.785,46.83,86.59,
42635080,-0.88,0.098,0.299,-68.32,59.622,97.72,
42635090,-0.919,0.061,0.29,-67.497,64.417,101.272,
42635100,-1.024,0.035,0.272,-59.115,63,99.137,
42635110,-1.087,0.046,0.273,-42.245,55.58,86.975,
42635120,-1.075,0.084,0.303,-22.767,45.85,75.232,
42635130,-1.045,0.125,0.298,-5.967,37.012,67.777,
42635140,-1.038,0.224,0.296,4.515,33.6,63.35,
42635150,-0.98,0.28,0.314,2.887,34.615,61.267,
42635160,-1.005,0.255,0.272,-4.742,39.83,61.285,
42635170,-1.07,0.221,0.255,-5.25,39.672,62.387,
42635180,-1.045,0.242,0.269,0.332,31.71,63.035,
42635190,-0.995,0.267,0.27,4.445,25.69,62.072,
42635200,-1.02,0.271,0.282,5.88,24.097,57.75,
42635210,-1.06,0.289,0.293,4.462,18.655,51.747,
42635220,-1.003,0.28,0.314,2.94,9.52,46.515,
42635230,-0.963,0.288,0.329,4.217,6.492,46.252,
42635240,-0.934,0.296,0.323,5.302,7.665,48.3,
42635250,-0.91,0.273,0.333,5.18,10.132,50.54,
42635260,-0.907,0.209,0.334,9.31,12.722,53.9,
42635270,-0.919,0.22,0.321,20.492,12.495,58.135,
42635280,-0.863,0.274,0.311,28.63,9.73,62.387,
42635290,-0.85,0.265,0.302,30.922,11.637,61.897,
42635300,-0.815,0.293,0.253,34.527,15.452,63.157,
42635310,-0.77,0.312,0.209,36.312,19.932,65.327,
42635320,-0.749,0.318,0.176,33.792,24.99,59.22,
42635330,-0.753,0.261,0.139,33.827,30.275,49.91,
42635330,-0.842,0.186,0.123,41.142,30.152,40.337,
42635350,-0.885,0.245,0.177,54.302,24.097,27.772,
42635350,-0.962,0.334,0.237,61.145,16.642,15.452,
42635370,-0.991,0.396,0.283,56.262,9.485,5.617,
42635370,-0.986,0.401,0.292,51.835,9.485,3.762,
42635390,-1.071,0.466,0.317,45.15,13.86,7.98,
42635390,-1.092,0.469,0.359,30.59,12.022,9.117,
42635410,-1.082,0.465,0.283,19.407,8.102,9.52,
42635410,-1.059,0.475,0.24,9.38,4.795,7.175,
42635420,-1.001,0.517,0.285,-1.75,10.815,6.037,
42635430,-1.143,0.485,0.289,-16.222,20.02,1.732,
42635440,-1.181,0.456,0.352,-22.697,15.347,-0.84,
42635450,-1.171,0.463,0.309,-21.28,3.272,1.067,
42635460,-1.199,0.449,0.274,-17.85,-10.342,4.515,
42635470,-1.166,0.444,0.287,-11.812,-25.2,8.82,
42635480,-1.133,0.461,0.273,-3.622,-42.035,12.67,
42635490,-1.029,0.495,0.258,-1.942,-52.027,14.42,
42635500,-0.945,0.426,0.221,-3.167,-57.645,14.192,
42635510,-0.761,0.437,0.23,-1.277,-58.677,15.207,
42635520,-0.68,0.423,0.257,-2.24,-51.135,16.677,
42635530,-0.597,0.395,0.294,-3.867,-37.187,16.712,
42635540,-0.642,0.353,0.311,-3.71,-21.297,16.537,
42635550,-0.67,0.315,0.33,0.665,-13.09,16.222,
42635560,-0.639,0.323,0.338,5.337,-5.687,15.365,
42635570,-0.736,0.274,0.29,8.26,3.342,12.53,
42635580,-0.878,0.265,0.271,15.347,5.442,10.307,
42635590,-0.898,0.311,0.249,23.555,-1.837,5.442,
42635600,-0.865,0.4,0.294,26.495,-8.662,-1.26,
42635610,-0.884,0.447,0.356,19.075,-8.837,-7.42,
42635620,-0.957,0.383,0.398,9.94,-13.492,-13.107,
42635630,-0.909,0.406,0.473,4.935,-24.22,-17.01,
42635640,-0.91,0.383,0.494,-1.89,-32.042,-22.61,
42635650,-0.898,0.349,0.488,-6.825,-37.1,-28.297,
42635660,-0.919,0.323,0.491,-6.755,-40.145,-30.87,
42635670,-0.835,0.334,0.464,-3.815,-40.145,-33.705,
42635680,-0.817,0.303,0.388,-2.187,-35.49,-36.82,
42635690,-0.813,0.278,0.331,3.115,-32.077,-39.55,
42635700,-0.819,0.28,0.348,12.46,-30.8,-42.332,
42635710,-0.912,0.277,0.417,23.135,-33.512,-46.882,
42635720,-1.008,0.297,0.53,33.04,-45.867,-53.392,
42635730,-0.979,0.356,0.644,38.867,-65.38,-63.402,
42635740,-1.179,0.392,0.722,40.39,-76.86,-76.177,
42635750,-1.368,0.407,0.701,41.51,-100.397,-92.925,
42635760,-1.297,0.332,0.601,45.622,-131.722,-105.56,
42635760,-1.138,0.343,0.518,58.03,-150.01,-114.59,
42635780,-1.026,0.368,0.454,66.325,-153.16,-111.492,
42635780,-0.902,0.359,0.413,65.397,-145.005,-92.907,
42635800,-0.825,0.337,0.391,62.142,-125.23,-72.66,
42635800,-0.759,0.309,0.408,57.242,-103.617,-54.635,
42635820,-0.752,0.137,0.449,57.067,-79.537,-37.45,
42635820,-0.395,0.178,0.503,79.922,-45.605,-38.045,
42635830,-0.629,0.123,0.669,85.365,-2.835,-33.705,
42635840,-0.777,0.151,0.787,99.96,34.265,-42.595,
42635850,-0.837,0.162,0.874,107.31,48.86,-54.005,
42635860,-0.935,0.119,0.884,116.602,54.407,-57.4,
42635870,-1.056,0.137,0.875,126.35,38.902,-67.427,
42635880,-1.085,0.181,0.813,130.2,3.902,-81.847,
42635890,-1.108,0.205,0.726,128.572,-39.9,-95.165,
42635900,-1.201,0.208,0.676,121.065,-91.175,-112.21,
42635910,-1.329,0.216,0.587,110.46,-153.492,-134.54,
42635920,-1.326,0.244,0.457,100.415,-220.57,-161.892,
42635930,-1.207,0.274,0.311,85.995,-283.78,-187.46,
42635940,-1.067,0.291,0.21,68.425,-335.387,-206.692,
42635950,-0.973,0.289,0.128,51.625,-374.045,-216.72,
42635960,-0.88,0.288,0.088,36.837,-402.412,-221.462,
42635970,-0.759,0.294,0.066,18.812,-414.802,-222.32,
42635980,-0.688,0.294,0.117,1.137,-415.747,-216.142,
42635990,-0.593,0.291,0.173,-19.232,-407.382,-201.6,
42636000,-0.498,0.293,0.245,-42.962,-389.637,-185.745,
42636010,-0.401,0.285,0.338,-72.152,-360.955,-171.762,
42636020,-0.381,0.223,0.412,-102.48,-324.38,-159.53,
42636030,-0.423,0.193,0.524,-126.77,-284.06,-149.975,
42636040,-0.368,0.189,0.584,-152.845,-245.297,-146.912,
42636050,-0.357,0.129,0.605,-179.042,-208.88,-145.53,
42636060,-0.427,0,0.591,-199.57,-175.07,-143.465,
42636070,-0.496,-0.173,0.573,-206.097,-149.03,-136.272,
42636080,-0.573,-0.218,0.58,-198.415,-136.202,-122.85,
42636080,-0.626,-0.244,0.565,-185.972,-133.962,-105.752,
42636100,-0.733,-0.324,0.582,-164.71,-139.282,-87.15,
42636100,-0.698,-0.368,0.601,-133.42,-151.725,-69.37,
42636120,-0.543,-0.365,0.614,-99.96,-161.63,-54.95,
42636120,-0.423,-0.386,0.653,-68.18,-159.232,-43.365,
42636140,-0.319,-0.373,0.73,-42.35,-144.83,-35.122,
42636140,-0.249,-0.368,0.837,-25.777,-122.325,-29.802,
42636160,-0.217,-0.421,0.905,-14.07,-99.085,-25.935,
42636160,-0.19,-0.436,0.977,-1.977,-80.535,-21.122,
42636170,-0.175,-0.407,1.01,8.925,-65.555,-17.552,
42636180,-0.105,-0.408,1.002,17.885,-54.127,-14.07,
42636190,0.018,-0.402,0.989,28.07,-37.047,-6.352,
42636200,0.092,-0.362,0.983,35.227,-8.977,1.05,
42636210,0.069,-0.336,0.981,37.905,27.527,7.087,
42636220,0.005,-0.325,0.974,39.725,62.02,12.285,
42636230,-0.082,-0.337,0.951,40.477,89.74,12.845,
42636240,-0.191,-0.362,0.922,44.345,108.605,4.742,
42636250,-0.3,-0.368,0.895,54.81,115.92,-11.725,
42636260,-0.362,-0.348,0.872,70.56,108.64,-32.55,
42636270,-0.401,-0.334,0.864,86.082,89.46,-48.807,
42636280,-0.391,-0.302,0.84,97.895,62.755,-59.395,
42636290,-0.371,-0.243,0.842,102.095,33.95,-60.847,
42636300,-0.368,-0.203,0.869,96.145,6.982,-53.62,
42636310,-0.374,-0.18,0.924,84.28,-17.412,-40.775,
42636320,-0.335,-0.164,0.953,64.872,-42.63,-29.33,
42636330,-0.292,-0.116,0.995,36.522,-64.872,-20.667,
42636340,-0.241,-0.077,1.003,2.205,-81.025,-11.655,
42636350,-0.165,-0.117,0.973,-35.665,-91.63,-6.615,
42636360,-0.18,-0.25,0.958,-68.932,-97.37,-5.617,
42636370,-0.243,-0.462,1.008,-81.06,-108.657,-9.275,
42636380,-0.2,-0.71,1.125,-58.905,-133.997,-14.542,
42636390,0.557,-0.721,1.297,-5.915,-135.152,-16.8,
42636400,0.678,-0.478,1.434,33.057,-73.937,-8.155,
42636410,0.301,-0.141,1.444,39.935,-11.427,-5.565,
42636420,0.064,-0.116,1.336,16.065,12.232,1.312,
42636430,-0.078,-0.288,1.246,-21.455,5.337,12.582,
42636440,-0.028,-0.253,1.163,-49.105,-21.332,2.397,
42636450,-0.003,-0.252,1.083,-55.947,-55.02,6.317,
42636460,0.063,-0.463,0.952,-53.147,-74.48,12.722,
42636470,0.086,-0.544,0.94,-33.11,-81.2,18.952,
42636480,0.206,-0.412,0.974,-9.187,-76.825,18.795,
42636490,0.323,-0.373,1.018,1.68,-55.545,19.845,
42636500,0.311,-0.488,1.048,5.372,-20.072,25.007,
42636510,0.269,-0.592,1.086,19.477,13.667,35.21,
42636510,0.305,-0.629,1.119,39.585,49.63,39.445,
42636530,0.267,-0.692,1.144,68.11,92.522,45.027,
42636530,0.212,-0.629,1.172,100.292,141.487,53.392,
42636550,0.119,-0.481,1.166,122.062,193.497,62.685,
42636550,0.01,-0.355,1.11,125.317,244.615,76.51,
42636570,-0.046,-0.239,0.985,119.315,296.17,94.937,
42636570,-0.109,-0.052,0.839,108.517,356.965,112.945,
42636580,-0.342,0.096,0.697,85.277,412.317,133.63,
42636590,-0.548,0.171,0.568,55.492,451.412,151.602,
42636600,-0.769,0.248,0.477,25.48,466.235,165.55,
42636610,-0.981,0.282,0.412,-1.12,449.662,178.237,
42636620,-1.136,0.241,0.374,-22.837,403.025,185.447,
42636630,-1.24,0.19,0.376,-32.445,332.395,186.13,
42636640,-1.222,0.145,0.381,-30.345,248.99,180.862,
42636650,-1.04,0.154,0.386,-25.55,166.67,169.47,
42636660,-0.916,0.17,0.405,-21.07,91.49,155.75,
42636670,-0.855,0.14,0.466,-16.047,26.11,139.842,
42636680,-0.665,0.189,0.513,-13.492,-26.057,113.137,
42636690,-0.525,0.242,0.561,-16.012,-65.292,87.937,
42636700,-0.378,0.225,0.565,-22.067,-91.507,71.102,
42636710,-0.301,0.187,0.587,-30.45,-102.637,63.595,
42636720,-0.248,0.125,0.604,-38.832,-100.782,62.317,
42636730,-0.207,0.102,0.679,-48.265,-82.6,60.112,
42636740,-0.213,0.106,0.719,-60.742,-55.44,54.127,
42636750,-0.27,0.045,0.752,-74.935,-24.465,45.832,
42636760,-0.396,-0.058,0.772,-84.122,-1.435,39.095,
42636770,-0.49,-0.152,0.829,-82.932,9.537,31.675,
42636780,-0.419,-0.345,0.94,-68.88,13.562,31.465,
42636790,-0.449,-0.414,1.14,-29.207,27.055,33.897,
42636800,-0.339,-0.208,1.234,7.28,32.847,11.235,
42636810,-0.359,-0.089,1.194,25.427,45.027,2.17,
42636820,-0.337,0.035,1.044,31.447,61.267,2.607,
42636830,-0.38,0.058,0.856,24.325,81.252,8.925,
42636830,-0.544,-0.049,0.673,21.105,100.345,21.262,
42636850,-0.686,-0.018,0.59,24.92,105.752,14.56,
42636850,-0.79,-0.023,0.549,27.545,92.697,14.192,
42636870,-0.776,-0.008,0.529,33.407,77.42,15.82,
42636870,-0.854,0.049,0.553,34.457,66.57,15.697,
42636890,-0.916,0.07,0.585,28.49,52.832,15.312,
42636890,-0.992,0.057,0.619,21.77,34.93,14.07,
42636910,-1.032,0.013,0.635,12.267,11.375,10.027,
42636910,-1.016,-0.022,0.666,6.895,-18.742,9.222,
42636920,-0.956,-0.054,0.673,8.977,-47.74,9.345,
42636930,-0.702,-0.076,0.723,16.345,-62.142,10.92,
42636940,-0.565,0.033,0.733,27.527,-51.992,13.772,
42636950,-0.526,0.063,0.758,26.145,-28.507,10.36,
42636960,-0.575,0.056,0.777,23.975,-0.245,13.685,
42636970,-0.64,0.068,0.76,17.552,24.097,14.42,
42636980,-0.77,0.029,0.717,9.87,40.827,19.792,
42636990,-0.903,-0.011,0.695,8.435,42,26.775,
42637000,-0.893,0.026,0.689,13.247,29.645,25.462,
42637010,-0.85,0.092,0.659,14.927,16.835,26.267,
42637020,-0.854,0.068,0.615,11.27,5.582,27.685,
42637030,-0.762,0.112,0.608,8.767,-0.647,25.392,
42637040,-0.773,0.099,0.671,4.97,-4.357,26.005,
42637050,-0.738,0.113,0.72,3.447,-12.53,24.605,
42637060,-0.716,0.126,0.687,0.035,-22.557,22.085,
42637070,-0.732,0.125,0.668,-4.025,-32.007,20.317,
42637080,-0.731,0.131,0.663,-8.47,-41.737,20.23,
42637090,-0.746,0.122,0.617,-17.692,-50.54,21.472,
42637100,-0.714,0.094,0.568,-26.197,-55.527,21.735,
42637110,-0.709,0.122,0.525,-36.82,-57.155,19.792,
42637120,-0.618,0.013,0.496,-41.125,-51.485,24.325,
42637130,-0.641,0.003,0.517,-29.365,-39.48,32.935,
42637140,-0.734,0.072,0.606,-14.962,-34.177,40.687,
42637150,-0.669,0.071,0.695,-3.57,-34.055,48.317,
42637160,-0.601,0.07,0.739,6.475,-35.63,60.007,
42637170,-0.582,0.123,0.78,9.45,-29.767,65.205,
42637180,-0.718,0.114,0.804,6.545,-25.34,61.687,
42637190,-0.872,0.098,0.778,5.495,-38.342,54.197,
42637200,-0.943,0.128,0.729,6.387,-72.555,47.302,
42637210,-1.005,0.162,0.647,5.932,-119.157,43.452,
42637220,-1.019,0.214,0.551,2.765,-168.84,39.112,
42637230,-0.897,0.293,0.444,-7.84,-211.435,30.817,
42637240,-0.705,0.323,0.349,-25.112,-240.152,24.36,
42637250,-0.479,0.327,0.307,-43.662,-246.505,17.43,
42637260,-0.405,0.196,0.375,-51.24,-238.35,11.182,
42637260,-0.23,0.033,0.579,-36.137,-224.332,12.6,
42637280,-0.048,-0.006,0.825,-6.125,-203.787,16.502,
42637280,0.167,0.04,1.035,28.227,-172.077,18.83,
42637300,0.29,-0.057,1.193,59.062,-127.47,17.71,
42637300,0.003,-0.122,1.285,99.977,-87.08,16.747,
42637320,-0.136,0.141,1.274,143.815,-71.102,10.272,
42637320,-0.401,0.237,1.218,167.072,-74.725,2.73,
42637330,-0.374,0.451,1.123,170.677,-88.62,-2.712,
42637340,-0.479,0.585,1.074,148.872,-98.717,-2.52,
42637350,-0.442,0.513,0.993,115.552,-105.665,-2.905,
42637360,-0.294,0.539,0.953,87.937,-105.665,-4.795,
42637370,-0.19,0.536,0.863,57.312,-100.59,-3.92,
42637380,-0.107,0.401,0.843,33.775,-83.23,-4.322,
42637390,-0.163,0.314,0.884,26.11,-68.792,-3.902,
42637400,-0.007,0.273,0.897,31.657,-57.26,-8.47,
42637410,-0.117,0.197,0.915,49.472,-43.61,-9.24,
42637420,-0.077,0.066,0.966,83.562,-34.212,-19.582,
42637430,-0.296,0.204,0.981,128.187,-30.66,-35.332,
42637440,-0.142,0.5,0.878,157.762,-36.032,-53.147,
42637450,-0.17,0.645,0.881,134.137,-21.21,-51.275,
42637460,-0.166,0.564,0.892,93.537,0.402,-37.047,
42637470,0.148,0.485,0.885,69.737,24.552,-39.742,
42637480,0.16,0.521,0.907,54.81,59.36,-34.86,
42637490,0.023,0.54,0.91,41.597,95.725,-28.455,
42637500,-0.276,0.425,0.886,29.382,116.042,-23.747,
42637510,-0.552,0.317,0.869,26.74,102.357,-18.9,
42637520,-0.587,0.295,0.85,33.757,61.267,-8.89,
42637530,-0.396,0.363,0.842,43.942,24.727,1.05,
42637540,-0.28,0.414,0.841,47.897,13.597,2.415,
42637550,-0.307,0.429,0.833,46.48,17.29,-3.167,
42637560,-0.377,0.45,0.854,45.167,18.077,-5.355,
42637570,-0.413,0.467,0.879,44.222,8.785,-7.035,
42637580,-0.385,0.52,0.899,44.887,-6.877,-8.75,
42637580,-0.359,0.542,0.901,42.49,-23.712,-8.207,
42637600,-0.293,0.55,0.895,38.132,-37.502,-5.442,
42637600,-0.253,0.514,0.887,35.14,-44.695,-1.277,
42637620,-0.307,0.516,0.875,37.1,-48.825,1.925,
42637620,-0.355,0.555,0.873,36.837,-56.14,7.297,
42637640,-0.306,0.46,0.824,36.487,-63.087,13.265,
42637640,-0.319,0.475,0.825,42.822,-66.377,13.352,
42637660,-0.341,0.515,0.824,48.037,-73.675,13.947,
42637660,-0.29,0.527,0.789,50.855,-86.327,15.26,
42637670,-0.199,0.571,0.791,51.922,-98.63,18.515,
42637680,-0.085,0.593,0.793,49.42,-104.475,21.315,
42637690,-0.011,0.623,0.789,45.027,-100.975,23.327,
42637700,-0.001,0.637,0.791,36.907,-91.612,24.885,
42637710,-0.042,0.607,0.788,28.192,-80.622,24.552,
42637720,-0.13,0.569,0.777,23.117,-76.037,25.2,
42637730,-0.136,0.539,0.768,21.91,-77.227,26.407,
42637740,-0.125,0.582,0.778,23.415,-76.475,25.305,
42637750,-0.136,0.597,0.78,21.787,-72.87,22.4,
42637760,-0.084,0.609,0.779,18.182,-65.187,16.852,
42637770,-0.021,0.636,0.775,13.247,-52.552,11.27,
42637780,-0.01,0.64,0.779,5.302,-36.277,5.81,
42637790,0.006,0.638,0.779,-2.555,-19.442,2.94,
42637800,0.033,0.643,0.781,-11.725,-1.347,0.577,
42637810,0.04,0.647,0.797,-20.492,18.427,-1.75,
42637820,0.148,0.761,0.82,-31.955,40.67,-3.185,
42637830,0.212,0.812,0.853,-52.5,70.857,-5.232,
42637840,0.211,0.803,0.891,-76.912,103.057,-6.545,
42637850,0.267,0.66,0.929,-98.437,132.335,-4.322,
42637860,0.031,0.746,0.888,-102.497,164.99,-9.782,
42637870,0.038,0.569,0.92,-120.067,164.377,-16.992,
42637880,-0.046,0.327,0.846,-124.985,162.662,-3.43,
42637890,-0.191,0.123,0.779,-109.497,154.157,8.295,
42637900,-0.342,0.12,0.764,-70.087,147.98,14.682,
42637910,-0.417,0.26,0.803,-26.477,139.562,13.23,
42637920,-0.288,0.286,0.852,5.967,131.617,14.402,
42637930,-0.33,0.517,0.815,26.32,138.827,14.892,
42637940,-0.552,0.638,0.851,21.857,135.625,8.47,
42637950,-0.738,0.584,0.839,4.9,106.54,3.482,
42637960,-0.71,0.554,0.791,-8.995,65.1,-3.15,
42637970,-0.557,0.51,0.725,-18.725,29.417,-9.922,
42637980,-0.434,0.457,0.648,-22.977,11.025,-18.392,
42637990,-0.469,0.35,0.613,-20.317,4.217,-21.402,
42638000,-0.512,0.262,0.588,-5.11,-4.235,-23.467,
42638010,-0.489,0.303,0.588,18.165,-15.54,-23.852,
42638010,-0.43,0.407,0.598,35.77,-25.252,-20.405,
42638030,-0.386,0.475,0.614,42.192,-28.472,-15.96,
42638030,-0.293,0.517,0.64,39.41,-22.995,-10.325,
42638050,-0.318,0.564,0.698,28.805,-9.782,-2.222,
42638050,-0.459,0.64,0.756,9.362,-0.35,4.042,
42638060,-0.528,0.57,0.769,-13.912,-2.712,7.805,
42638070,-0.564,0.48,0.762,-28.262,-13.79,7.752,
42638080,-0.597,0.44,0.799,-32.305,-35.962,6.422,
42638090,-0.478,0.441,0.816,-31.325,-64.242,8.032,
42638100,-0.254,0.398,0.841,-27.107,-84.787,14.542,
42638110,-0.113,0.406,0.841,-21.017,-89.74,26.635,
42638120,-0.186,0.464,0.846,-18.077,-79.135,34.51,
42638130,-0.274,0.434,0.851,-17.78,-72.625,35.822,
42638140,-0.286,0.402,0.856,-11.515,-71.925,34.58,
42638150,-0.247,0.409,0.862,0.787,-74.007,30.572,
42638160,-0.217,0.416,0.845,13.037,-75.775,25.777,
42638170,-0.235,0.416,0.81,22.312,-74.41,20.352,
42638180,-0.275,0.394,0.773,30.957,-71.785,16.24,
42638190,-0.317,0.441,0.767,38.972,-71.032,13.667,
42638200,-0.228,0.477,0.753,39.9,-72.275,15.19,
42638210,-0.238,0.484,0.753,37.345,-69.965,20.212,
42638220,-0.191,0.528,0.764,33.757,-68.46,21.647,
42638230,-0.019,0.551,0.777,24.902,-60.252,25.707,
42638240,-0.061,0.535,0.808,15.33,-45.342,30.45,
42638250,-0.134,0.539,0.846,8.347,-35.682,28.647,
42638260,-0.143,0.531,0.878,2.065,-34.597,24.29,
42638270,-0.223,0.517,0.886,-2.887,-39.987,23.38,
42638280,-0.354,0.563,0.9,-6.632,-54.337,21.927,
42638290,-0.431,0.523,0.867,-14.647,-86.047,21.63,
42638300,-0.252,0.489,0.814,-15.96,-118.317,25.445,
42638310,-0.063,0.414,0.753,-11.357,-132.037,27.632,
42638320,0.073,0.395,0.737,0.122,-127.032,29.33,
42638330,0.062,0.428,0.748,8.032,-115.447,32.375,
42638330,0.124,0.432,0.741,12.425,-104.562,33.127,
42638350,0.218,0.456,0.727,18.777,-80.99,29.225,
42638350,0.088,0.51,0.762,19.932,-56.227,20.265,
42638370,-0.024,0.527,0.806,14.77,-49.35,14.367,
42638370,-0.044,0.477,0.831,10.552,-57.277,13.02,
42638390,-0.03,0.419,0.816,17.045,-66.447,14.367,
42638390,0.154,0.459,0.847,28.735,-67.165,13.877,
42638410,0.204,0.461,0.849,39.2,-51.852,11.865,
42638410,0.089,0.508,0.864,48.352,-31.64,8.96,
42638420,0.037,0.55,0.853,53.182,-17.675,2.065,
42638430,-0.073,0.547,0.804,55.65,-10.71,-6.055,
42638440,-0.107,0.564,0.777,57.33,-11.13,-14.49,
42638450,-0.062,0.604,0.776,55.93,-13.125,-21.822,
42638460,0.072,0.634,0.787,49.997,-12.022,-27.072,
42638470,0.193,0.582,0.791,43.225,-7.245,-26.145,
42638480,0.264,0.562,0.783,42.577,0.297,-21.052,
42638490,0.545,0.527,0.802,46.06,22.435,-12.897,
42638500,-0.568,0.718,0.877,47.285,41.002,4.69,
42638510,0.541,0.663,0.865,39.27,4.375,-3.587,
42638520,0.125,0.619,0.868,32.952,7.91,1.96,
42638530,0.106,0.599,0.837,27.562,4.917,5.337,
42638540,0.114,0.612,0.809,27.562,-0.542,8.347,
42638550,0.033,0.605,0.797,26.617,-0.262,12.232,
42638560,0.093,0.724,0.788,24.115,1.312,6.807,
42638570,0.093,0.756,0.778,10.64,8.172,-0.49,
42638580,0.074,0.755,0.793,-8.137,14.262,-7.962,
42638590,0.046,0.732,0.808,-26.127,16.537,-11.847,
42638600,-0.042,0.598,0.79,-36.592,12.145,-9.432,
42638610,-0.018,0.531,0.764,-32.287,0.77,-2.817,
42638620,0.004,0.536,0.736,-21.735,-6.475,4.305,
42638630,0.015,0.539,0.717,-10.36,-5.215,6.195,
42638640,0.033,0.623,0.726,-0.805,1.26,1.452,
42638650,-0.002,0.675,0.751,0,9.17,-3.92,
42638660,-0.047,0.654,0.779,-2.852,12.932,-6.667,
42638670,-0.103,0.639,0.805,-3.395,6.772,-6.125,
42638680,-0.118,0.615,0.805,-1.487,-7.91,-3.325,
42638690,-0.174,0.598,0.802,0.927,-27.527,1.4,
42638700,-0.209,0.573,0.787,4.305,-54.46,8.085,
42638710,-0.246,0.592,0.779,9.082,-83.457,16.38,
42638720,-0.186,0.531,0.752,14.28,-122.325,26.547,
42638730,0.181,0.568,0.718,22.26,-142.73,25.742,
42638730,0.157,0.603,0.742,27.055,-142.747,36.365,
42638750,0.28,0.688,0.776,27.527,-141.277,43.61,
42638750,0.468,0.797,0.827,20.23,-132.965,46.935,
42638760,0.409,0.815,0.852,3.097,-111.125,44.275,
42638770,0.422,0.798,0.793,-18.445,-89.565,34.23,
42638780,0.3,0.703,0.779,-37.397,-66.902,22.155,
42638790,0.231,0.637,0.743,-47.915,-49.612,14.07,
42638800,0.157,0.539,0.705,-51.695,-36.802,6.772,
42638810,0.228,0.499,0.706,-48.055,-28.805,4.812,
42638820,0.188,0.603,0.665,-41.107,-19.495,6.93,
42638830,-0.285,0.847,0.691,-45.832,-11.777,-7.017,
42638840,0.781,0.487,0.76,-48.457,-29.172,-16.117,
42638850,0.488,0.635,0.884,-46.06,14.245,-17.15,
42638860,0.373,0.591,0.875,-48.335,42,-33.04,
42638870,-0.027,0.47,0.868,-51.152,19.092,-25.217,
42638880,0.153,0.371,0.814,-36.855,-32.462,-10.377,
42638890,0.466,0.417,0.796,-10.237,-61.967,6.02,
42638900,0.513,0.502,0.797,10.465,-55.737,8.12,
42638910,0.536,0.504,0.726,23.817,-37.275,-3.132,
42638920,0.291,0.611,0.699,26.39,-9.502,-2.887,
42638930,-0.369,0.554,0.804,5.18,14.962,-1.697,
42638940,-0.252,0.486,0.872,-2.94,6.09,-16.047,
42638950,-0.105,0.54,0.894,-1.907,-17.027,-23.187,
42638960,0.128,0.486,0.846,0.21,-35.857,-23.45,
42638970,0.395,0.446,0.777,8.102,-40.897,-17.692,
42638980,0.503,0.443,0.731,18.252,-34.947,-6.212,
42638990,0.598,0.436,0.677,26.232,-23.957,3.972,
42639000,0.657,0.493,0.655,29.89,-0.63,6.055,
42639010,0.654,0.523,0.639,25.952,36.067,-2.695,
42639020,0.474,0.481,0.623,15.855,75.092,-15.925,
42639030,0.097,0.414,0.614,4.252,96.652,-27.44,
42639040,-0.168,0.348,0.618,-2.012,83.212,-29.68,
42639050,-0.308,0.306,0.63,-0.752,47.232,-23.31,
42639060,0.545,0.088,0.445,8.242,17.237,-31.972,
42639070,-0.308,0.595,0.771,14.402,42.402,-27.177,
42639080,0.268,0.415,0.816,11.567,24.325,-31.412,
42639080,0.313,0.544,0.863,15.47,17.115,-19.32,
42639100,0.394,0.543,0.876,20.3,23.31,-15.312,
42639100,0.393,0.519,0.867,26.022,37.047,-16.135,
42639120,0.253,0.586,0.902,34.947,53.165,-20.755,
42639120,0.108,0.733,0.959,37.485,61.215,-25.497,
42639140,0.119,0.752,0.93,32.06,57.942,-27.527,
42639140,0.179,0.786,0.885,26.18,55.195,-30.817,
42639160,0.16,0.836,0.87,15.207,55.37,-34.037,
42639160,0.148,0.795,0.825,-3.01,51.922,-39.147,
42639170,0.164,0.625,0.729,-18.322,48.002,-46.025,
42639180,0.176,0.582,0.703,-22.155,48.387,-52.36,
42639190,0.201,0.663,0.755,-26.075,53.042,-57.54,
42639200,0.241,0.736,0.82,-39.9,58.345,-59.64,
42639210,0.319,0.799,0.891,-61.32,65.87,-58.555,
42639220,0.399,0.837,0.939,-84.35,80.237,-52.657,
42639230,0.467,0.817,1.003,-108.465,103.232,-44.712,
42639240,0.355,0.731,1.083,-127.645,127.225,-36.872,
42639250,0.332,0.716,1.156,-142.327,151.497,-29.68,
42639260,0.007,0.579,1.164,-154.717,172.952,-15.12,
42639270,0.323,0.306,1.236,-163.59,192.447,4.987,
42639280,0.101,0.4,1.154,-155.767,227.325,14.857,
42639290,-0.205,0.564,1.137,-151.322,241.5,-8.382,
42639300,-0.343,0.478,1.083,-160.265,219.117,-25.13,
42639310,-0.467,0.213,1.031,-165.987,172.112,-38.832,
42639320,-0.156,-0.019,1.059,-145.932,118.72,-66.465,
42639330,0.134,0.065,1.03,-96.442,97.475,-101.517,
42639340,0.123,0.132,0.973,-48.947,96.512,-114.485,
42639350,0.199,0.143,0.854,-6.527,107.66,-131.162,
42639360,0.157,0.169,0.738,26.617,115.972,-132.335,
42639370,-0.048,0.241,0.662,50.557,124.32,-131.285,
42639380,-0.377,0.297,0.606,64.732,118.107,-132.912,
42639390,-0.619,0.36,0.537,69.037,84.437,-137.147,
42639400,-0.771,0.421,0.455,62.457,29.715,-145.442,
42639410,-0.838,0.495,0.362,43.61,-34.982,-156.292,
42639420,-0.936,0.507,0.276,15.592,-105.385,-161.682,
42639420,-0.994,0.484,0.232,-12.88,-177.047,-160.597,
42639440,-0.926,0.472,0.221,-39.707,-242.462,-156.52,
42639440,-0.774,0.446,0.238,-63.122,-292.18,-145.442,
42639460,-0.576,0.462,0.298,-84.822,-320.845,-124.792,
42639460,-0.394,0.281,0.332,-99.645,-324.292,-96.092,
42639480,-0.289,0.132,0.455,-91.49,-307.37,-65.87,
42639480,-0.233,0.156,0.604,-83.195,-281.995,-37.012,
42639500,-0.193,0.347,0.718,-94.832,-255.377,-12.18,
42639500,-0.099,0.208,0.736,-119.56,-222.11,1.995,
42639510,-0.056,0.02,0.671,-128.415,-176.697,16.782,
42639520,-0.252,-0.343,0.82,-94.552,-127.732,41.457,
42639530,-0.196,0.051,0.994,-69.457,-98.857,39.497,
42639540,-0.118,0.189,1.018,-82.162,-79.94,34.755,
42639550,-0.021,0.055,1.007,-90.877,-47.862,28.7,
42639560,-0.124,-0.051,1.066,-85.312,-16.537,29.155,
42639570,-0.204,-0.03,1.12,-72.957,-2.082,30.852,
42639580,-0.167,0.001,1.147,-61.25,1.89,30.992,
42639590,-0.154,-0.015,1.15,-51.887,1.872,31.832,
42639600,-0.166,-0.002,1.156,-43.19,-2.94,35.595,
42639610,-0.125,0.029,1.167,-36.067,-10.57,40.477,
42639620,-0.078,0.036,1.159,-32.847,-15.067,41.142,
42639630,-0.044,0.024,1.138,-32.235,-14.455,36.592,
42639640,-0.014,0.027,1.132,-32.742,-10.517,29.855,
42639650,-0.004,0.032,1.137,-33.162,-9.03,25.497,
42639660,0.013,0.051,1.15,-34.562,-9.975,23.187,
42639670,0.048,0.064,1.146,-40.022,-11.34,23.152,
42639680,0.052,0.05,1.14,-48.002,-11.165,22.697,
42639690,0.048,0.036,1.126,-55.335,-10.605,17.85,
42639700,0.061,0.024,1.118,-61.25,-10.657,10.762,
42639710,0.045,-0.026,1.091,-64.435,-14.717,4.007,
42639720,0.078,-0.088,1.055,-63.21,-22.312,-0.612,
42639730,0.082,-0.129,1.035,-59.097,-30.03,-0.437,
42639740,0.09,-0.16,1.022,-53.847,-36.207,0.157,
42639750,0.127,-0.198,1.018,-47.53,-38.5,0.262,
42639760,0.171,-0.225,1.013,-43.417,-36.242,3.587,
42639770,0.2,-0.23,1.016,-40.512,-28.822,11.305,
42639780,0.288,-0.195,1.019,-42.367,-12.757,21.595,
42639790,0.35,-0.173,1,-51.852,15.75,39.042,
42639800,0.342,-0.139,0.997,-70.315,53.27,64.54,
42639810,0.17,-0.123,0.977,-98.052,91.367,92.155,
42639820,-0.007,-0.165,0.94,-129.15,121.38,111.422,
42639830,-0.136,-0.28,0.88,-156.03,138.722,125.667,
42639830,-0.3,-0.373,0.84,-172.62,142.59,132.825,
42639850,-0.416,-0.424,0.823,-178.797,135.415,128.467,
42639850,-0.375,-0.478,0.815,-179.515,120.575,112.21,
42639870,-0.458,-0.573,0.79,-175.56,99.96,102.392,
42639870,-0.55,-0.701,0.817,-155.47,66.307,105.717,
42639890,-0.401,-0.533,0.846,-130.742,26.827,84.227,
42639890,-0.403,-0.475,0.854,-124.512,-4.06,76.632,
42639910,-0.376,-0.646,0.78,-122.167,-29.487,83.3,
42639910,-0.185,-0.543,0.798,-106.925,-38.885,66.255,
42639920,-0.091,-0.498,0.808,-98.385,-32.777,61.53,
42639930,-0.077,-0.508,0.803,-94.185,-18.182,61.6,
42639940,-0.159,-0.517,0.807,-88.34,-1.452,61.022,
42639950,-0.206,-0.545,0.825,-83.177,9.485,55.58,
42639960,-0.293,-0.577,0.833,-76.125,12.355,48.177,
42639970,-0.343,-0.61,0.848,-60.375,3.29,38.412,
42639980,-0.279,-0.61,0.834,-36.575,-12.757,25.917,
42639990,-0.271,-0.587,0.82,-8.155,-26.075,10.815,
42640000,-0.232,-0.554,0.8,21.402,-36.662,-4.497,
42640010,-0.226,-0.557,0.762,50.33,-46.847,-15.697,
42640020,-0.216,-0.526,0.755,84.087,-55.317,-26.39,
42640030,-0.191,-0.462,0.763,119.455,-58.747,-40.11,
42640040,-0.107,-0.413,0.781,149.537,-57.715,-52.675,
42640050,-0.054,-0.378,0.802,167.02,-54.127,-58.502,
42640060,-0.041,-0.348,0.845,171.062,-49.14,-57.522,
42640070,-0.029,-0.312,0.911,166.512,-44.625,-53.27,
42640080,0.068,-0.299,0.959,151.13,-37.415,-45.342,
42640090,0.1,-0.293,0.955,129.622,-22.802,-30.065,
42640100,0.136,-0.223,1.028,111.842,-0.297,-18.707,
42640110,0.074,-0.266,1.05,91.805,19.215,-6.352,
42640120,0.021,-0.316,1.064,78.662,37.905,5.495,
42640130,-0.049,-0.303,1.071,70.577,54.18,10.272,
42640140,-0.113,-0.33,1.071,64.33,66.15,8.102,
42640150,-0.119,-0.33,1.073,62.23,73.552,5.145,
42640160,-0.107,-0.334,1.056,63.997,80.832,5.932,
42640170,-0.097,-0.328,1.03,69.177,92.225,8.295,
42640170,-0.134,-0.315,1.026,74.585,109.427,15.347,
42640190,-0.186,-0.278,1.005,79.66,130.235,24.255,
42640190,-0.275,-0.228,0.977,81.112,153.965,29.592,
42640210,-0.399,-0.229,0.962,80.622,171.167,33.39,
42640210,-0.507,-0.186,0.953,82.337,177.537,36.365,
42640230,-0.498,-0.139,0.939,82.722,176.032,40.18,
42640230,-0.5,-0.056,0.913,78.12,178.167,48.632,
42640250,-0.521,-0.025,0.878,66.447,184.03,58.817,
42640250,-0.574,0,0.828,53.445,193.812,66.237,
42640260,-0.657,0.007,0.79,44.117,199.71,71.855,
42640270,-0.658,-0.015,0.711,37.625,203,80.78,
42640280,-0.677,-0.013,0.67,38.062,208.25,88.217,
42640290,-0.684,0.043,0.616,39.725,216.685,90.125,
42640300,-0.715,0.118,0.553,32.34,230.597,90.545,
42640310,-0.862,0.079,0.553,22.242,238.945,96.18,
42640320,-0.989,0.039,0.545,18.217,232.085,93.59,
42640330,-1.078,0.025,0.57,20.317,210.665,84.875,
42640340,-1.15,0.059,0.611,23.677,178.885,78.26,
42640350,-1.186,0.075,0.613,23.835,135.992,71.89,
42640360,-1.129,0.044,0.626,26.67,88.34,63.682,
42640370,-1.035,0.061,0.627,30.415,44.835,61.477,
42640380,-0.937,0.044,0.651,31.885,9.8,61.355,
42640390,-0.82,0.095,0.689,32.725,-15.785,55.247,
42640400,-0.778,0.069,0.703,32.147,-33.635,52.71,
42640410,-0.692,0.107,0.734,31.972,-44.59,51.835,
42640420,-0.725,0.119,0.755,33.372,-52.01,52.937,
42640430,-0.625,0.124,0.788,34.405,-57.907,53.042,
42640440,-0.565,0.105,0.787,34.702,-61.39,55.125,
42640450,-0.533,0.08,0.783,35.63,-61.792,57.26,
42640460,-0.469,0.103,0.787,39.812,-58.065,59.167,
42640470,-0.42,0.14,0.807,40.547,-49.122,61.6,
42640480,-0.405,0.138,0.821,39.935,-35.192,59.99,
42640490,-0.42,0.119,0.84,40.057,-20.842,55.3,
42640500,-0.437,0.126,0.849,42.472,-8.96,50.26,
42640510,-0.482,0.106,0.865,46.252,-2.345,46.462,
42640520,-0.463,0.084,0.891,55.545,-0.14,44.642,
42640530,-0.482,0.146,0.91,66.36,0.402,41.422,
42640540,-0.459,0.28,0.917,67.62,1.225,37.957,
42640550,-0.566,0.289,0.885,53.567,-0.577,36.995,
42640560,-0.501,0.246,0.847,41.405,-1.995,37.59,
42640570,-0.543,0.268,0.805,32.725,-0.367,34.667,
42640580,-0.673,0.224,0.749,24.132,-6.65,35.577,
42640580,-0.676,0.187,0.696,22.19,-18.83,35.542,
42640600,-0.664,0.22,0.673,24.272,-31.605,32.165,
42640600,-0.604,0.238,0.661,24.955,-42.175,26.757,
42640620,-0.526,0.247,0.64,24.027,-46.305,20.317,
42640620,-0.55,0.299,0.644,21.647,-42.105,12.652,
42640640,-0.422,0.317,0.649,15.225,-36.785,5.04,
42640640,-0.459,0.292,0.608,4.952,-20.772,8.225,
42640660,-0.478,0.376,0.654,-3.867,2.695,3.395,
42640660,-0.537,0.382,0.644,-17.78,19.775,-4.952,
42640670,-0.618,0.384,0.657,-30.852,28.595,-9.17,
42640680,-0.625,0.377,0.658,-43.102,28.42,-11.235,
42640690,-0.571,0.352,0.639,-54.687,26.74,-11.55,
42640700,-0.594,0.311,0.669,-64.82,28.717,-10.92,
42640710,-0.605,0.287,0.69,-69.457,30.607,-9.415,
42640720,-0.595,0.263,0.677,-68.775,33.407,-6.422,
42640730,-0.629,0.144,0.714,-60.235,33.617,-4.935,
42640740,-0.688,-0.002,0.755,-38.255,29.47,-0.665,
42640750,-0.69,0.031,0.809,-6.702,27.562,-0.875,
42640760,-0.71,0.223,0.88,15.557,23.8,-5.582,
42640770,-0.646,0.258,0.883,17.08,12.827,-5.372,
42640780,-0.598,0.227,0.867,11.462,11.69,-0.63,
42640790,-0.639,0.259,0.859,5.897,16.975,-1.662,
42640800,-0.676,0.246,0.818,-2.1,17.552,-1.26,
42640810,-0.7,0.223,0.768,-7.91,16.502,1.05,
42640820,-0.754,0.17,0.707,-9.73,11.585,0.945,
42640830,-0.839,0.169,0.675,-2.03,-3.482,0.227,
42640840,-0.588,0.213,0.623,6.107,-20.457,0.875,
42640850,-0.881,0.262,0.662,10.447,-29.487,2.257,
42640860,-0.595,0.273,0.594,9.782,-47.862,-4.742,
42640870,-0.454,0.245,0.597,3.797,-49.665,-4.147,
42640880,-0.504,0.321,0.586,1.925,-29.032,-4.375,
42640890,-0.477,0.246,0.58,-3.692,-10.465,-7.63,
42640900,-0.564,0.221,0.565,-3.202,8.05,-1.312,
42640910,-0.553,0.348,0.551,-3.15,25.13,3.517,
42640920,-0.564,0.21,0.554,-11.865,43.295,15.522,
42640920,-0.704,0.039,0.534,-4.83,58.415,23.572,
42640940,-0.735,0.211,0.6,14.91,68.267,26.25,
42640940,-0.866,0.211,0.655,22.872,62.51,30.555,
42640960,-0.858,0.132,0.664,29.697,45.832,27.387,
42640960,-0.89,0.176,0.711,43.032,28.157,22.662,
42640980,-0.874,0.291,0.734,54.705,7.98,13.3,
42640980,-0.77,0.283,0.727,56.157,-11.025,2.117,
42641000,-0.699,0.237,0.692,55.93,-19.302,4.69,
42641000,-0.602,0.258,0.683,62.44,-11.935,5.757,
42641010,-0.702,0.293,0.698,64.662,-0.175,5.355,
42641020,-0.729,0.356,0.714,62.51,3.937,7.525,
42641030,-0.71,0.371,0.687,55.037,2.922,9.327,
42641040,-0.732,0.32,0.653,47.88,2.117,7.262,
42641050,-0.732,0.307,0.625,46.62,-0.297,5.337,
42641060,-0.726,0.326,0.624,49.227,-3.255,6.002,
42641070,-0.688,0.341,0.627,51.642,-3.097,9.047,
42641080,-0.665,0.359,0.635,53.007,1.925,9.537,
42641090,-0.652,0.386,0.653,53.025,10.202,7.227,
42641100,-0.668,0.432,0.683,50.662,16.397,3.57,
42641110,-0.601,0.375,0.636,45.36,17.675,4.882,
42641120,-0.503,0.425,0.674,45.237,30.205,6.912,
42641130,-0.775,0.491,0.735,43.12,53.742,6.352,
42641140,-0.856,0.406,0.72,33.302,47.722,5.162,
42641150,-0.855,0.436,0.714,28.787,29.855,6.475,
42641160,-0.796,0.478,0.683,22.295,14.157,4.112,
42641170,-0.786,0.455,0.601,12.267,2.922,2.747,
42641180,-0.816,0.417,0.62,2.38,-10.43,4.217,
42641190,-0.784,0.371,0.555,-5.232,-32.69,8.242,
42641200,-0.793,0.423,0.529,-12.355,-43.417,9.73,
42641210,-0.779,0.376,0.591,-12.407,-62.282,10.99,
42641220,-0.503,0.409,0.52,-6.877,-75.32,12.67,
42641230,-0.501,0.462,0.54,-14.175,-61.477,15.155,
42641240,-0.506,0.313,0.584,-20.65,-37.1,23.17,
42641250,-0.528,0.428,0.618,-15.225,-11.585,17.465,
42641260,-0.662,0.309,0.676,-14.612,3.377,12.6,
42641270,-0.558,0.277,0.638,-8.242,7.472,10.027,
42641280,-0.776,0.501,0.664,-4.165,11.13,7.42,
42641290,-0.851,0.341,0.627,-10.307,-6.09,7.297,
42641300,-0.8,0.326,0.613,-8.085,-36.19,3.255,
42641310,-0.681,0.354,0.595,-0.21,-64.032,5.127,
42641320,-0.524,0.376,0.576,3.885,-74.865,9.292,
42641330,-0.487,0.379,0.568,4.252,-65.765,12.565,
42641330,-0.528,0.414,0.572,2.992,-49.455,10.92,
42641350,-0.403,0.385,0.546,-1.802,-35.945,5.425,
42641350,-0.476,0.331,0.546,-3.675,-14.63,4.76,
42641370,-0.427,0.359,0.578,1.207,5.005,-4.917,
42641370,-0.467,0.335,0.59,3.92,17.465,-11.655,
42641390,-0.274,0.302,0.525,7.087,29.225,-13.65,
42641390,-0.411,0.361,0.535,8.715,58.24,-13.09,
42641410,-0.569,0.262,0.587,7.402,74.725,-13.16,
42641410,-0.565,0.24,0.596,16.625,75.355,-9.17,
42641420,-0.586,0.373,0.631,23.852,75.95,-4.322,
42641430,-0.624,0.338,0.633,22.837,78.172,1.085,
42641440,-0.634,0.343,0.646,22.715,83.842,6.23,
42641450,-0.831,0.302,0.633,24.307,84.735,9.082,
42641460,-0.845,0.285,0.594,35.647,82.302,13.09,
42641470,-0.993,0.352,0.621,44.87,68.565,16.362,
42641480,-1.139,0.335,0.609,52.342,36.505,30.24,
42641490,-0.851,0.633,0.477,57.96,2.87,38.29,
42641500,-0.887,0.595,0.506,46.742,-8.067,32.935,
42641510,-0.858,0.383,0.45,41.79,-13.335,36.435,
42641520,-0.755,0.573,0.491,48.912,-13.912,37.922,
42641530,-0.833,0.584,0.537,47.792,-12.057,37.852,
42641540,-0.803,0.558,0.553,43.47,-17.307,34.65,
42641550,-0.755,0.576,0.599,42.192,-23.117,33.022,
42641560,-0.756,0.582,0.643,40.845,-27.16,33.372,
42641570,-0.778,0.573,0.646,40.635,-33.635,32.847,
42641580,-0.826,0.585,0.606,39.637,-44.817,30.992,
42641590,-0.852,0.544,0.537,35.612,-61.88,30.677,
42641600,-0.803,0.538,0.483,31.36,-80.92,31.43,
42641610,-0.758,0.571,0.455,24.342,-94.92,31.08,
42641620,-0.659,0.534,0.429,13.895,-103.442,31.552,
42641630,-0.521,0.544,0.466,3.447,-99.592,31.727,
42641640,-0.531,0.518,0.512,-6.3,-85.592,29.33,
42641650,-0.516,0.454,0.569,-9.782,-73.08,26.372,
42641660,-0.496,0.462,0.64,-3.605,-60.637,23.065,
42641670,-0.536,0.473,0.68,6.037,-49.857,21.087,
42641670,-0.606,0.467,0.67,15.26,-47.88,19.547,
42641690,-0.747,0.477,0.612,24.692,-59.097,21.787,
42641690,-0.647,0.481,0.592,29.925,-82.775,24.85,
42641710,-0.665,0.636,0.57,25.567,-106.767,29.435,
42641710,-0.679,0.583,0.519,9.397,-127.435,38.885,
42641730,-0.613,0.635,0.499,-8.645,-146.597,42.472,
42641730,-0.491,0.567,0.513,-26.617,-162.085,43.907,
42641750,-0.335,0.575,0.597,-34.93,-167.947,38.482,
42641750,-0.187,0.566,0.675,-37.082,-162.592,36.435,
42641760,-0.117,0.517,0.75,-33.477,-145.967,30.257,
42641770,-0.167,0.46,0.819,-20.877,-130.725,22.855,
42641780,-0.186,0.543,0.865,-0.805,-122.92,16.835,
42641790,-0.256,0.648,0.879,12.18,-118.72,12.827,
42641800,-0.296,0.641,0.855,16.467,-118.002,11.042,
42641810,-0.328,0.657,0.833,20.737,-114.59,11.252,
42641820,-0.473,0.721,0.834,21.84,-110.197,10.08,
42641830,-0.238,0.929,0.698,5.635,-119.665,5.005,
42641840,0.388,0.648,0.416,-24.272,-112.367,-11.62,
42641850,0.648,0.046,0.297,-25.217,-16.887,-13.247,
42641860,-1.321,0.258,0.692,11.795,59.36,-11.62,
42641870,-0.004,1.345,-0.388,-16.607,-10.237,-7.542,
42641880,-0.369,-1.371,0.036,-75.075,-7.507,30.992,
42641890,0.258,0.15,1.172,58.17,72.905,-10.535,
42641900,0,1.601,1.25,95.48,149.835,-39.392,
42641910,-1.916,0.458,0.861,33.967,139.072,15.662,
42641920,-1.258,0.461,1.338,27.58,28.35,33.512,
42641930,0.327,0.573,1.311,96.722,-35.7,13.09,
42641940,0.139,0.979,1.447,117.985,-5.635,-1.942,
42641950,-0.662,0.817,1.247,124.267,-14.612,1.155,
42641960,-0.464,0.732,1.037,125.86,-71.767,4.917,
42641970,-0.099,0.803,0.853,134.925,-95.112,5.005,
42641980,-0.007,0.783,0.798,133.035,-60.322,-4.287,
42641990,-0.009,0.863,0.691,128.625,-2.817,-26.46,
42642000,-0.344,1.002,0.586,110.232,48.65,-52.412,
42642010,-0.297,1.062,0.49,66.832,70.997,-69.282,
42642020,-0.181,0.947,0.449,13.16,92.242,-62.317,
42642030,0.03,0.724,0.411,-26.827,135.502,-63.42,
42642040,-0.081,0.695,0.47,-50.575,187.075,-74.042,
42642050,-0.121,0.803,0.558,-70.665,217.402,-80.325,
42642060,-0.03,0.841,0.6,-100.205,233.73,-74.585,
42642070,0.038,0.618,0.645,-136.692,247.275,-62.405,
42642080,-0.432,0.508,0.619,-146.3,272.37,-56.105,
42642080,-0.724,0.306,0.636,-133.787,256.655,-82.39,
42642100,-0.805,0.134,0.591,-104.527,191.502,-82.39,
42642100,-0.765,0.173,0.539,-59.57,121.012,-57.05,
42642120,-0.757,0.275,0.47,-19.67,73.815,-36.522,
42642120,-0.714,0.34,0.395,7.175,46.095,-29.61,
42642140,-0.564,0.442,0.338,23.905,37.747,-34.02,
42642140,-0.446,0.549,0.311,27.492,51.292,-43.417,
42642150,-0.513,0.615,0.335,16.835,79.765,-53.62,
42642160,-0.638,0.6,0.378,-1.312,102.497,-62.212,
42642170,-0.703,0.593,0.401,-17.062,110.162,-73.447,
42642180,-0.725,0.622,0.43,-34.842,108.115,-82.162,
42642190,-0.692,0.638,0.449,-57.785,108.57,-86.45,
42642200,-0.723,0.541,0.433,-81.095,112.84,-89.95,
42642210,-0.765,0.281,0.392,-87.045,114.397,-90.755,
42642220,-0.841,0.136,0.384,-60.707,102.62,-80.307,
42642230,-0.926,0.183,0.396,-19.32,77.192,-66.272,
42642240,-0.857,0.31,0.418,17.517,50.207,-52.762,
42642250,-0.813,0.398,0.435,38.045,36.365,-47.355,
42642260,-0.782,0.486,0.454,43.487,36.33,-51.257,
42642270,-0.677,0.527,0.468,36.015,47.46,-54.092,
42642280,-0.813,0.519,0.465,19.95,63.577,-50.662,
42642290,-0.901,0.497,0.458,3.097,71.435,-49.157,
42642300,-0.97,0.467,0.445,-13.982,70.087,-48.58,
42642310,-1.013,0.519,0.454,-32.865,66.36,-49.875,
42642320,-0.898,0.582,0.444,-59.097,66.43,-55.072,
42642330,-0.851,0.461,0.406,-90.685,79.415,-53.847,
42642340,-0.996,0.283,0.389,-109.55,95.06,-54.145,
42642350,-1.078,0.213,0.38,-105.49,88.952,-52.85,
42642360,-1.089,0.126,0.301,-87.762,67.882,-47.39,
42642370,-0.975,0.165,0.304,-63.437,43.942,-35.875,
42642380,-0.968,0.242,0.319,-44.292,24.972,-18.41,
42642390,-0.999,0.264,0.348,-33.74,13.387,-7.682,
42642400,-0.958,0.273,0.342,-27.335,3.342,-4.952,
42642410,-0.867,0.166,0.313,-20.93,4.322,-7.035,
42642420,-1.088,0.266,0.404,-0.455,9.03,-17.535,
42642420,-0.632,0.273,0.304,16.1,1.4,-33.145,
42642440,-0.827,0.394,0.176,11.375,18.497,-21.77,
42642440,-1.106,0.386,0.242,0.455,43.067,-20.685,
42642460,-1.038,0.175,0.184,4.55,43.137,-18.025,
42642460,-1.11,0.264,0.203,20.702,31.57,-12.127,
42642480,-1.126,0.286,0.248,34.142,14.717,-9.152,
42642480,-1.128,0.271,0.218,43.312,-1.89,-7.542,
42642500,-1.201,0.367,0.237,40.827,-17.762,-10.5,
42642500,-1.214,0.257,0.218,36.575,-41.51,-18.55,
42642510,-1.112,0.198,0.19,46.322,-59.15,-29.102,
42642520,-1.07,0.228,0.208,58.922,-67.27,-40.67,
42642530,-0.995,0.208,0.23,68.11,-68.985,-49.07,
42642540,-0.891,0.218,0.233,76.282,-63.192,-53.83,
42642550,-0.85,0.257,0.272,81.217,-48.72,-53.322,
42642560,-0.827,0.245,0.289,83.107,-31.832,-49.35,
42642570,-0.852,0.242,0.325,84.822,-14.717,-43.137,
42642580,-0.887,0.253,0.373,83.387,-1.855,-35.052,
42642590,-0.962,0.27,0.419,76.615,2.257,-27.387,
42642600,-1.033,0.265,0.42,71.26,-2.642,-24.797,
42642610,-1.07,0.276,0.4,67.392,-16.292,-22.522,
42642620,-1.07,0.278,0.348,61.11,-35.752,-19.145,
42642630,-1.106,0.248,0.312,56.857,-57.942,-15.4,
42642640,-1.096,0.203,0.28,57.54,-84.455,-11.847,
42642650,-1.006,0.205,0.254,61.267,-108.15,-7.035,
42642660,-0.952,0.235,0.267,65.047,-124.512,0.017,
42642670,-0.887,0.264,0.265,65.922,-132.317,4.41,
42642680,-0.882,0.253,0.28,62.807,-129.885,10.325,
42642690,-0.8,0.307,0.346,60.69,-124.687,15.592,
42642700,-0.808,0.365,0.375,51.362,-118.667,21.927,
42642710,-0.807,0.409,0.4,37.835,-106.592,26.705,
42642720,-0.756,0.406,0.405,19.652,-87.902,30.555,
42642730,-0.879,0.393,0.444,2.292,-68.582,33.74,
42642740,-0.869,0.395,0.467,-6.58,-61.46,32.217,
42642750,-0.875,0.393,0.469,-12.04,-62.982,33.967,
42642760,-0.928,0.386,0.512,-14.787,-69.527,36.102,
42642770,-0.935,0.378,0.521,-12.862,-85.47,35.105,
42642780,-0.904,0.389,0.521,-8.067,-107.607,36.05,
42642790,-0.864,0.392,0.508,-2.992,-128.467,38.097,
42642800,-0.838,0.411,0.516,1.697,-144.55,35.595,
42642810,-0.739,0.418,0.516,3.395,-156.835,32.13,
42642820,-0.657,0.449,0.546,5.25,-160.177,34.282,
42642820,-0.596,0.495,0.556,3.78,-155.12,38.237,
42642830,-0.541,0.529,0.565,-3.15,-140.192,40.705,
42642840,-0.482,0.511,0.586,-13.51,-116.847,42.525,
42642850,-0.507,0.465,0.596,-21.07,-91.455,44.957,
42642860,-0.498,0.455,0.606,-23.327,-65.747,46.952,
42642870,-0.498,0.475,0.626,-25.462,-38.955,48.02,
42642880,-0.589,0.471,0.627,-31.92,-19.232,48.65,
42642890,-0.681,0.44,0.608,-39.655,-10.797,45.325,
42642900,-0.823,0.431,0.597,-50.767,-17.29,38.307,
42642910,-0.883,0.228,0.52,-58.8,-46.917,34.58,
42642920,-0.692,0.182,0.499,-41.965,-73.605,36.592,
42642930,-0.651,0.165,0.469,-13.982,-88.917,36.75,
42642940,-0.604,0.132,0.473,17.552,-93.66,34.125,
42642950,-0.537,0.169,0.487,50.05,-94.955,30.695,
42642960,-0.435,0.269,0.539,75.862,-88.182,25.9,
42642970,-0.395,0.391,0.609,88.672,-72.362,20.982,
42642980,-0.348,0.477,0.656,84.507,-49.63,17.762,
42642990,-0.35,0.514,0.683,69.807,-23.852,17.71,
42643000,-0.432,0.513,0.682,48.562,1.382,18.777,
42643010,-0.538,0.455,0.685,27.825,16.957,19.25,
42643020,-0.614,0.412,0.702,14.595,19.057,19.355,
42643030,-0.647,0.44,0.707,7.192,11.497,20.51,
42643040,-0.623,0.486,0.717,-1.872,0.927,21.525,
42643050,-0.544,0.457,0.707,-14.577,-6.142,21.63,
42643060,-0.471,0.433,0.712,-24.622,-5.95,22.067,
42643070,-0.46,0.364,0.725,-27.282,-0.455,23.642,
42643080,-0.404,0.419,0.761,-24.78,8.557,16.205,
42643090,-0.462,0.365,0.832,-21.7,18.48,9.187,
42643100,-0.389,0.487,0.884,-15.942,23.345,-0.525,
42643110,-0.426,0.528,0.905,-22.47,23.415,-7.857,
42643120,-0.406,0.499,0.878,-34.912,25.55,-7.962,
42643130,-0.36,0.458,0.85,-47.915,30.555,-4.427,
42643140,-0.403,0.404,0.832,-55.842,40.005,1.96,
42643150,-0.401,0.374,0.812,-60.672,47.547,9.327,
42643160,-0.455,0.377,0.779,-62.965,56.91,17.745,
42643170,-0.499,0.383,0.781,-65.52,64.295,25.777,
42643170,-0.479,0.356,0.773,-69.16,69.597,35.542,
42643190,-0.414,0.371,0.778,-71.417,76.545,45.412,
42643190,-0.412,0.464,0.736,-80.552,91.752,55.685,
42643210,-0.562,0.42,0.698,-98,107.327,68.635,
42643210,-0.495,0.334,0.691,-106.155,123.042,76.072,
42643230,-0.564,0.226,0.616,-111.072,140.367,78.785,
42643230,-0.644,0.21,0.57,-99.977,150.99,77.192,
42643250,-0.741,0.179,0.513,-74.095,156.922,79.957,
42643250,-0.976,0.232,0.482,-44.555,147.927,77.262,
42643260,-0.851,0.461,0.507,-23.625,113.995,64.732,
42643270,-0.813,0.363,0.487,-13.212,93.537,39.865,
42643280,-0.851,0.336,0.484,2.59,70.455,23.012,
42643290,-0.876,0.587,0.537,17.325,46.375,8.977,
42643300,-0.985,0.539,0.542,8.872,16.257,-0.087,
42643310,-0.986,0.471,0.552,3.692,-23.607,-11.182,
42643320,-0.899,0.465,0.567,3.535,-63.717,-20.737,
42643330,-0.551,0.447,0.587,3.99,-88.007,-21.7,
42643340,-0.679,0.362,0.633,2.222,-85.872,-13.405,
42643350,-0.321,0.427,0.697,11.025,-70.192,-4.76,
42643360,-0.495,0.467,0.743,15.295,-27.125,3.937,
42643370,-0.66,0.416,0.757,10.745,3.78,2.415,
42643380,-0.707,0.455,0.737,10.15,13.212,2.292,
42643390,-0.778,0.456,0.687,5.67,11.55,4.462,
42643400,-0.774,0.427,0.637,1.977,2.607,7.192,
42643410,-0.702,0.421,0.603,-0.175,-5.197,9.03,
42643420,-0.633,0.418,0.572,-1.382,-6.895,10.307,
42643430,-0.58,0.408,0.596,-3.01,-0.07,11.707,
42643440,-0.612,0.394,0.604,-4.025,9.887,9.432,
42643450,-0.646,0.402,0.617,-3.325,17.762,6.86,
42643460,-0.722,0.42,0.622,-2.345,18.97,1.837,
42643470,-0.723,0.447,0.641,-5.67,11.462,-3.832,
42643480,-0.666,0.38,0.601,-14.105,0.997,-6.965,
42643490,-0.705,0.369,0.625,-20.247,-6.142,-4.392,
42643500,-0.605,0.35,0.611,-21.91,-9.537,1.855,
42643510,-0.654,0.328,0.609,-22.47,-5.635,10.692,
42643510,-0.677,0.292,0.6,-20.037,-3.237,15.96,
42643530,-0.676,0.308,0.597,-11.515,-2.607,18.917,
42643530,-0.768,0.356,0.577,-3.71,-4.41,19.617,
42643550,-0.853,0.405,0.56,3.587,-18.375,5.81,
42643550,-0.485,0.298,0.538,-0.035,-37.03,5.215,
42643570,-0.481,0.384,0.618,8.12,-14.28,8.032,
42643570,-0.658,0.344,0.652,6.352,0.385,1.155,
42643580,-0.678,0.395,0.701,7.175,-3.622,-1.207,
42643590,-0.638,0.387,0.697,2.607,-12.425,-2.345,
42643600,-0.558,0.299,0.681,1.68,-13.807,-2.222,
42643610,-0.598,0.322,0.665,5.88,-5.407,-1.365,
42643620,-0.689,0.327,0.634,8.032,1.102,-1.47,
42643630,-0.707,0.325,0.609,9.8,0.525,-1.452,
42643640,-0.713,0.352,0.621,10.062,-3.552,-0.367,
42643650,-0.728,0.334,0.635,7.752,-8.505,0.227,
42643660,-0.716,0.333,0.662,4.9,-13.965,0.7,
42643670,-0.672,0.334,0.666,0.717,-17.517,2.695,
42643680,-0.646,0.361,0.674,-5.005,-16.642,4.182,
42643690,-0.598,0.365,0.652,-12.862,-10.692,6.895,
42643700,-0.605,0.4,0.652,-18.76,-1.295,7.752,
42643710,-0.684,0.402,0.63,-26.547,3.5,10.027,
42643720,-0.693,0.297,0.628,-30.222,-8.435,13.212,
42643730,-0.484,0.326,0.642,-17.727,-14.245,17.08,
42643740,-0.605,0.397,0.664,-13.79,-11.812,23.677,
42643750,-0.581,0.398,0.673,-14.21,-9.835,27.702,
42643760,-0.558,0.378,0.676,-14.122,-6.86,30.59,
42643770,-0.53,0.413,0.674,-11.637,0.542,33.092,
42643780,-0.592,0.405,0.665,-11.375,9.362,32.48,
42643790,-0.649,0.391,0.663,-11.06,12.442,28.245,
42643800,-0.697,0.375,0.67,-7.525,9.1,23.52,
42643810,-0.681,0.408,0.664,-2.31,2.852,17.482,
42643820,-0.656,0.357,0.683,1.067,-0.262,12.162,
42643830,-0.525,0.389,0.634,12.95,4.27,8.12,
42643840,-0.522,0.428,0.634,14.682,12.46,9.03,
42643850,-0.414,0.441,0.614,10.15,32.235,10.657,
42643860,-0.526,0.394,0.657,3.71,54.547,8.575,
42643870,-0.525,0.412,0.66,2.152,65.275,7.927,
42643880,-0.507,0.408,0.659,-1.347,72.66,6.177,
42643890,-0.483,0.394,0.647,-4.427,85.942,2.975,
42643900,-0.58,0.39,0.627,-6.982,105.14,-2.31,
42643910,-0.897,0.422,0.603,-8.032,116.357,-6.142,
42643920,-1.044,0.457,0.52,-8.137,97.597,-5.285,
42643920,-1.208,0.419,0.525,-9.432,63.14,-3.867,
42643940,-0.767,0.407,0.466,5.95,33.95,-2.222,
42643940,-0.772,0.442,0.548,16.397,38.08,1.82,
42643960,-0.884,0.526,0.616,15.522,48.877,4.375,
42643960,-1.002,0.502,0.677,2.975,41.825,8.54,
42643980,-0.887,0.438,0.685,-3.255,21.542,10.482,
42643980,-0.669,0.421,0.649,1.557,8.855,15.575,
42644000,-0.806,0.439,0.622,0.682,6.615,20.702,
42644000,-0.842,0.4,0.569,-3.185,-5.215,19.495,
42644010,-0.777,0.392,0.533,-3.797,-20.037,16.957,
42644020,-0.804,0.409,0.526,-4.252,-30.642,15.19,
42644030,-0.771,0.414,0.535,-6.125,-39.34,13.125,
42644040,-0.767,0.389,0.544,-8.785,-46.322,11.515,
42644050,-0.753,0.394,0.589,-8.662,-52.15,9.187,
42644060,-0.802,0.367,0.652,-7.035,-63.402,6.615,
42644070,-0.84,0.419,0.661,-4.532,-81.357,4.217,
42644080,-0.641,0.423,0.641,-5.635,-98.997,1.47,
42644090,-0.459,0.355,0.583,-5.862,-99.347,3.307,
42644100,-0.407,0.441,0.52,-4.637,-82.635,7.665,
42644110,-0.467,0.404,0.501,-4.147,-62.947,7.665,
42644120,-0.505,0.36,0.504,1.907,-55.177,5.827,
42644130,-0.444,0.402,0.493,8.645,-54.145,7.665,
42644140,-0.475,0.441,0.518,11.322,-49.035,7.595,
42644150,-0.488,0.444,0.576,9.87,-43.732,4.672,
42644160,-0.466,0.384,0.603,7.962,-39.287,2.152,
42644170,-0.479,0.389,0.647,10.01,-32.06,1.907,
42644180,-0.604,0.401,0.724,10.955,-28.175,2.642,
42644190,-0.637,0.432,0.766,11.235,-33.46,3.972,
42644200,-0.725,0.56,0.623,4.2,-46.41,6.825,
42644210,-0.489,0.383,0.651,-11.83,-51.555,5.39,
42644220,-0.624,0.346,0.637,-2.642,-43.627,4.602,
42644230,-0.663,0.555,0.652,5.232,-37.31,8.137,
42644240,-0.759,0.441,0.61,2.065,-38.185,8.89,
42644250,-0.723,0.428,0.605,7.822,-46.462,11.707,
42644260,-0.642,0.443,0.646,20.65,-52.692,15.907,
42644260,-0.6,0.492,0.706,32.287,-51.59,19.6,
42644280,-0.619,0.539,0.758,35.507,-49.857,19.39,
42644280,-0.587,0.517,0.762,32.865,-53.445,18.742,
42644300,-0.541,0.491,0.747,29.942,-58.275,20.772,
42644300,-0.545,0.533,0.725,25.34,-60.515,23.415,
42644320,-0.533,0.512,0.673,17.972,-62.23,22.085,
42644320,-0.515,0.452,0.618,14.245,-65.432,19.477,
42644330,-0.457,0.442,0.582,17.255,-69.072,18.672,
42644340,-0.349,0.44,0.566,22.032,-66.447,19.057,
42644350,-0.312,0.436,0.548,27.09,-51.38,17.097,
42644360,-0.341,0.432,0.579,33.88,-34.947,14.665,
42644370,-0.341,0.477,0.607,38.885,-22.19,9.362,
42644380,-0.45,0.497,0.648,37.275,-14.455,5.6,
42644390,-0.467,0.457,0.68,34.877,-17.395,0.052,
42644400,-0.488,0.488,0.732,33.775,-25.637,-4.077,
42644410,-0.526,0.516,0.786,31.43,-35.192,-7.315,
42644420,-0.516,0.505,0.824,30.327,-46.27,-9.45,
42644430,-0.563,0.532,0.847,32.165,-57.487,-10.132,
42644440,-0.541,0.56,0.827,34.177,-69.3,-12.022,
42644450,-0.41,0.581,0.81,36.505,-73.797,-12.95,
42644460,-0.304,0.578,0.792,35.997,-64.82,-10.517,
42644470,-0.346,0.552,0.804,36.487,-43.452,-9.73,
42644480,-0.442,0.563,0.814,41.335,-28.105,-13.86,
42644490,-0.557,0.487,0.836,47.25,-29.137,-18.375,
42644500,-0.563,0.673,0.709,54.95,-39.427,-19.477,
42644510,-0.349,0.663,0.806,47.285,-39.34,-26.652,
42644520,-0.505,0.627,0.818,36.067,-34.352,-20.09,
42644530,-0.451,0.659,0.803,27.755,-36.4,-20.755,
42644540,-0.468,0.585,0.752,19.67,-37.467,-17.71,
42644550,-0.428,0.567,0.73,18.567,-36.61,-15.697,
42644560,-0.432,0.581,0.744,22.785,-30.467,-20.807,
42644570,-0.422,0.562,0.742,25.83,-27.825,-27.72,
42644580,-0.251,0.514,0.753,32.357,-22.277,-28.42,
42644590,-0.454,0.692,0.751,34.107,-23.257,-24.587,
42644600,-0.204,0.58,0.763,21.822,-26.197,-21.087,
42644610,-0.257,0.615,0.782,15.715,-13.895,-18.515,
42644620,-0.339,0.545,0.711,5.617,-10.307,-11.532,
42644630,-0.364,0.541,0.645,1.487,-10.045,-6.107,
42644640,-0.406,0.479,0.604,1.382,-6.72,-5.022,
42644650,-0.444,0.473,0.63,7.14,-5.425,-4.9,
42644660,-0.513,0.482,0.642,14.455,-10.272,-1.54,
42644670,-0.477,0.528,0.671,20.825,-18.13,4.83,
42644670,-0.449,0.561,0.711,23.852,-19.88,6.247,
42644690,-0.462,0.594,0.762,23.73,-19.442,4.76,
42644690,-0.427,0.676,0.789,21.752,-23.047,2.992,
42644710,-0.383,0.676,0.825,10.272,-24.43,4.13,
42644710,-0.311,0.655,0.82,0.875,-24.01,4.672,
42644730,-0.201,0.736,0.841,-7.962,-17.01,0.14,
42644730,-0.107,0.684,0.815,-21.945,-2.59,-0.63,
42644750,-0.012,0.675,0.799,-33.635,19.092,-1.785,
42644750,-0.01,0.699,0.832,-46.515,49.245,-6.44,
42644760,-0.173,0.67,0.879,-65.642,75.372,-13.912,
42644770,-0.035,0.706,0.871,-89.407,88.462,-20.72,
42644780,-0.235,0.588,0.882,-99.12,100.677,-18.795,
42644790,-0.143,0.487,0.893,-103.635,104.3,-20.055,
42644800,0.466,0.193,0.882,-94.29,138.617,-12.18,
42644810,-0.182,0.661,0.997,-57.225,238.892,-23.817,
42644820,-1.348,0.715,1.176,-81.427,214.095,-62.37,
42644830,-1.297,0.4,1.122,-121.607,77.49,-74.777,
42644840,-0.3,0.198,1.072,-110.705,-23.555,-94.5,
42644850,0.093,0.105,1.076,-69.335,-34.72,-119.14,
42644860,0.01,0.121,1.13,-19.337,-6.422,-120.96,
42644870,-0.095,0.092,1.084,30.73,31.64,-117.512,
42644880,-0.227,0.186,1.004,81.025,65.047,-121.205,
42644890,-0.532,0.33,0.971,118.545,72.362,-126.7,
42644900,-0.712,0.434,0.923,136.535,47.127,-136.255,
42644910,-0.868,0.462,0.809,141.977,0.455,-145.827,
42644920,-1.034,0.467,0.674,142.87,-63.7,-158.2,
42644930,-1.136,0.546,0.542,139.755,-143.955,-174.37,
42644940,-1.113,0.593,0.37,129.08,-228.375,-195.02,
42644950,-1.06,0.598,0.214,112.63,-304.08,-215.442,
42644960,-0.988,0.594,0.114,91.98,-358.715,-234.92,
42644970,-0.946,0.595,0.093,65.73,-394.03,-250.67,
42644980,-0.841,0.62,0.127,31.307,-411.285,-262.482,
42644990,-0.724,0.612,0.212,-11.182,-412.3,-262.01,
42645000,-0.544,0.57,0.282,-56.857,-401.345,-251.545,
42645010,-0.417,0.466,0.369,-95.322,-378.682,-219.922,
42645010,-0.328,0.39,0.378,-131.705,-350.455,-176.05,
42645030,-0.28,0.033,0.407,-144.707,-309.33,-126.822,
42645030,-0.317,-0.043,0.547,-132.597,-268.31,-82.46,
42645050,-0.36,0.003,0.65,-128.31,-232.732,-44.38,
42645050,-0.253,0,0.711,-130.165,-193.655,-12.67,
42645070,-0.239,-0.14,0.757,-128.73,-151.655,17.43,
42645070,-0.248,-0.25,0.82,-115.36,-108.902,39.637,
42645080,-0.252,-0.235,0.899,-95.287,-71.697,51.485,
42645090,-0.259,-0.175,0.957,-73.885,-39.55,58.345,
42645100,-0.315,-0.099,1.082,-56.91,-19.442,63.98,
42645110,-0.338,-0.039,1.147,-51.765,-8.505,68.232,
42645120,-0.315,0.01,1.187,-58.257,-6.142,68.652,
42645130,-0.286,0.035,1.18,-71.19,-7.822,68.11,
42645140,-0.262,0.045,1.173,-84.49,-10.097,69.685,
42645150,-0.232,0.008,1.148,-97.107,-11.2,68.6,
42645160,-0.187,-0.04,1.087,-102.97,-10.027,61.985,
42645170,-0.167,-0.067,1.05,-99.925,-9.712,58.572,
42645180,-0.138,-0.065,1.029,-93.222,-11.987,57.33,
42645190,-0.108,-0.05,1.006,-87.185,-16.38,55.982,
42645200,-0.105,-0.051,0.99,-83.405,-21.682,54.617,
42645210,-0.12,-0.078,0.991,-82.092,-27.3,49.017,
42645220,-0.093,-0.087,0.979,-79.677,-32.112,35.805,
42645230,-0.082,-0.103,0.951,-75.25,-35.892,23.135,
42645240,-0.142,-0.133,0.946,-65.922,-45.92,16.012,
42645250,-0.152,-0.172,0.925,-51.485,-64.715,12.495,
42645260,-0.112,-0.197,0.903,-35.297,-85.942,9.765,
42645270,-0.05,-0.179,0.899,-22.295,-101.727,8.382,
42645280,0.054,-0.149,0.919,-16.782,-107.852,8.487,
42645290,0.184,-0.096,0.917,-18.2,-98.21,10.342,
42645300,0.242,-0.054,0.938,-28,-73.377,15.75,
42645310,0.24,-0.046,0.94,-48.3,-41.44,24.395,
42645320,0.126,-0.118,0.916,-72.765,-8.522,31.465,
42645330,-0.005,-0.233,0.89,-92.067,18.06,32.182,
42645340,-0.16,-0.323,0.87,-100.082,26.372,28.7,
42645350,-0.296,-0.396,0.843,-96.11,11.34,25.725,
42645360,-0.427,-0.466,0.851,-82.582,-23.817,21.455,
42645370,-0.434,-0.552,0.887,-58.03,-73.955,13.177,
42645380,-0.259,-0.61,0.912,-22.085,-130.97,-0.595,
42645390,0.169,-0.568,0.959,18.34,-166.302,-10.08,
42645400,0.477,-0.35,1.129,47.057,-157.29,-6.317,
42645410,0.612,-0.26,1.323,45.465,-116.865,3.57,
42645420,0.654,-0.412,1.372,29.015,-72.31,11.077,
42645420,0.466,-0.508,1.204,18.882,-45.762,10.325,
42645440,0.197,-0.386,0.991,18.462,-43.19,4.287,
42645440,0.193,-0.251,0.848,23.66,-53.62,1.225,
42645460,0.312,-0.195,0.768,30.257,-55.982,-0.175,
42645460,0.367,-0.143,0.767,33.582,-43.015,1.732,
42645480,0.075,-0.335,0.667,37.397,-26.267,10.237,
42645480,-0.223,-0.317,0.647,84.735,-45.64,-1.47,
42645500,0.422,-0.032,0.673,120.015,-84.472,-16.362,
42645500,0.18,0.072,0.75,94.08,-90.44,3.57,
42645510,0.295,-0.022,0.835,75.18,-82.88,-3.325,
42645520,0.511,-0.095,0.89,57.137,-67.69,-7.542,
42645530,0.524,-0.051,0.962,39.182,-43.452,-3.447,
42645540,0.51,-0.195,1.048,26.81,-12.337,10.447,
42645550,0.325,-0.275,1.104,25.69,16.17,22.05,
42645560,0.137,-0.304,1.13,34.72,22.277,25.252,
42645570,0.008,-0.345,1.122,52.447,5.705,31.5,
42645580,0.011,-0.311,1.1,74.935,-26.985,36.855,
42645590,0.156,-0.319,1.069,96.775,-56.157,34.002,
42645600,0.277,-0.322,1.019,116.987,-68.582,31.57,
42645610,0.354,-0.224,1.02,148.522,-63.542,18.987,
42645620,0.576,-0.136,1.047,177.712,-40.005,-0.507,
42645630,0.622,-0.015,1.103,194.67,2.887,-10.465,
42645640,0.618,0.156,1.159,189.682,56.157,-16.257,
42645650,0.589,0.286,1.165,162.12,116.077,-18.882,
42645660,0.342,0.282,1.143,118.545,174.807,-22.907,
42645670,0.27,0.191,1.118,80.657,220.237,-37.45,
42645680,0.19,0.138,1.061,63.122,258.737,-49.455,
42645690,0.008,0.056,1,56.385,284.882,-52.027,
42645700,-0.118,0.057,0.951,57.907,300.982,-53.655,
42645710,-0.185,0.082,0.904,62.02,313.232,-56.21,
42645720,-0.247,0.109,0.864,63.892,323.172,-59.307,
42645730,-0.278,0.129,0.804,64.26,332.815,-59.797,
42645740,-0.277,0.173,0.742,63.875,345.17,-55.352,
42645750,-0.344,0.21,0.688,59.745,361.06,-48.58,
42645760,-0.473,0.227,0.636,52.29,374.307,-38.535,
42645760,-0.543,0.269,0.615,41.877,377.212,-27.755,
42645780,-0.633,0.269,0.607,29.907,370.807,-14.63,
42645780,-0.7,0.283,0.599,18.672,356.247,-3.097,
42645800,-0.747,0.316,0.599,8.802,333.27,4.97,
42645800,-0.76,0.267,0.567,0.35,303.607,15.102,
42645820,-0.761,0.244,0.574,-0.647,273.21,24.57,
42645820,-0.859,0.246,0.609,4.392,237.352,36.435,
42645830,-0.782,0.303,0.627,10.447,198.117,46.025,
42645840,-0.743,0.307,0.617,12.18,166.495,49.717,
42645850,-0.714,0.276,0.598,13.23,142.747,46.252,
42645860,-0.67,0.296,0.574,16.922,124.425,39.847,
42645870,-0.656,0.307,0.578,21.122,110.67,34.44,
42645880,-0.616,0.317,0.579,24.972,103.46,30.135,
42645890,-0.571,0.333,0.587,28.63,104.912,24.377,
42645900,-0.567,0.34,0.575,30.835,112.735,19.022,
42645910,-0.629,0.348,0.578,31.377,122.062,12.775,
42645920,-0.689,0.35,0.574,29.61,127.487,5.32,
42645930,-0.719,0.355,0.566,26.302,128.345,-2.467,
42645940,-0.778,0.339,0.538,20.142,124.757,-9.45,
42645950,-0.77,0.352,0.535,16.117,118.335,-17.395,
42645960,-0.792,0.341,0.513,10.762,112.455,-24.885,
42645970,-0.836,0.303,0.498,6.93,105.105,-30.17,
42645980,-0.805,0.341,0.52,4.252,97.387,-37.87,
42645990,-0.737,0.345,0.496,-2.87,93.555,-46.55,
42646000,-0.683,0.308,0.483,-11.69,102.305,-54.495,
42646010,-0.736,0.228,0.446,-19.372,116.322,-57.032,
42646020,-0.765,0.175,0.408,-18.935,127.522,-50.96,
42646030,-0.826,0.144,0.379,-11.97,134.19,-40.512,
42646040,-0.957,0.159,0.372,-2.835,134.4,-25.357,
42646050,-1.014,0.212,0.377,3.482,125.212,-12.092,
42646060,-1.044,0.221,0.361,5.11,110.267,-2.992,
42646070,-1.064,0.219,0.327,3.815,95.707,0.437,
42646080,-1.093,0.209,0.308,2.03,81.34,-1.295,
42646090,-1.071,0.209,0.312,0.035,64.68,-6.51,
42646100,-1.123,0.243,0.323,-2.87,45.342,-9.03,
42646110,-1.099,0.271,0.326,-7.157,22.627,-9.975,
42646120,-1.064,0.261,0.316,-11.392,-2.275,-7.455,
42646130,-0.984,0.231,0.288,-12.25,-20.405,-3.377,
42646140,-0.923,0.215,0.273,-11.532,-26.53,2.73,
42646150,-0.926,0.204,0.264,-10.5,-23.922,5.337,
42646160,-0.957,0.184,0.276,-6.702,-20.807,7.105,
42646170,-0.998,0.201,0.31,1.33,-21.927,9.152,
42646170,-1.053,0.226,0.345,11.322,-30.275,12.127,
42646190,-1.12,0.294,0.385,21.087,-48.72,18.707,
42646190,-1.246,0.305,0.435,24.972,-80.29,30.642,
42646210,-1.187,0.253,0.413,28.175,-123.34,42.07,
42646210,-1.034,0.249,0.386,32.515,-157.972,53.76,
42646230,-0.927,0.258,0.381,35.612,-171.552,69.562,
42646230,-0.81,0.292,0.408,36.295,-165.462,77.63,
42646240,-0.751,0.316,0.428,34.65,-145.477,87.762,
42646250,-0.766,0.349,0.452,30.59,-116.9,91.437,
42646260,-0.776,0.324,0.445,23.397,-90.982,91.682,
42646270,-0.854,0.281,0.438,21.402,-72.87,93.555,
42646280,-0.967,0.207,0.426,26.81,-70.787,96.985,
42646290,-1.092,0.145,0.434,42.595,-88.112,100.397,
42646300,-1.127,0.186,0.435,66.36,-125.352,103.11,
42646310,-0.955,0.33,0.456,87.342,-166.53,107.17,
42646320,-0.878,0.412,0.482,96.722,-193.55,109.742,
42646330,-0.512,0.535,0.481,95.655,-200.637,107.502,
42646340,-0.566,0.628,0.434,75.145,-174.125,107.817,
42646350,-0.607,0.49,0.414,52.71,-142.24,103.652,
42646360,-0.635,0.457,0.418,43.417,-121.555,96.372,
42646370,-0.589,0.448,0.419,42.157,-112.7,88.007,
42646380,-0.565,0.479,0.473,42.892,-107.257,86.66,
42646390,-0.615,0.509,0.493,39.042,-109.077,87.22,
42646400,-0.58,0.412,0.521,43.487,-105.472,86.24,
42646410,-0.613,0.469,0.551,54.145,-107.59,90.037,
42646420,-0.591,0.556,0.579,58.555,-112.77,89.127,
42646430,-0.496,0.625,0.591,55.457,-113.225,82.232,
42646440,-0.411,0.676,0.598,46.13,-104.457,69.825,
42646450,-0.345,0.679,0.58,32.252,-88.34,53.532,
42646460,-0.338,0.669,0.579,19.442,-69.65,37.502,
42646470,-0.371,0.649,0.574,9.957,-56.542,26.652,
42646480,-0.397,0.633,0.584,1.645,-51.065,20.702,
42646490,-0.347,0.645,0.604,-2.957,-43.697,10.062,
42646500,-0.384,0.577,0.596,-4.987,-36.452,1.54,
42646510,-0.372,0.538,0.598,0.472,-36.75,2.625,
42646510,-0.433,0.524,0.619,12.775,-42.367,12.88,
42646530,-0.468,0.525,0.635,27.755,-51.432,24.097,
42646530,-0.453,0.621,0.667,40.11,-62.422,32.252,
42646550,-0.419,0.692,0.679,42.857,-69.825,34.125,
42646550,-0.401,0.723,0.685,37.292,-70.07,30.765,
42646570,-0.381,0.715,0.677,28.385,-67.952,25.567,
42646570,-0.391,0.682,0.671,20.807,-67.497,21.49,
