#Format version: 1.0
time[ms],accX[g],accY[g],accZ[g],Value 1,Value 2,Value 3,
43282000,0.108,-0.307,0.943,2.59,5.652,-0.42,
43282010,0.129,-0.28,0.95,2.8,6.23,-0.052,
43282020,0.053,-0.289,0.923,2.45,7.542,0.175,
43282030,0.099,-0.271,0.936,2.362,6.422,1.4,
43282040,0.079,-0.279,0.933,1.82,5.267,1.33,
43282050,0.073,-0.275,0.937,1.417,3.57,1.26,
43282060,0.081,-0.278,0.934,0.735,1.68,0.752,
43282070,0.101,-0.283,0.938,0.367,0.402,0.542,
43282080,0.124,-0.3,0.935,0.21,0.385,0.28,
43282080,0.131,-0.305,0.932,0.805,1.417,0.297,
43282100,0.125,-0.277,0.929,1.715,2.817,0.647,
43282100,0.104,-0.281,0.93,1.33,3.955,0.7,
43282120,0.096,-0.292,0.93,1.295,4.217,0.665,
43282120,0.094,-0.291,0.935,2.03,3.867,1.015,
43282140,0.087,-0.291,0.941,2.642,3.552,1.085,
43282140,0.082,-0.276,0.939,2.747,3.395,0.91,
43282160,0.078,-0.274,0.942,2.152,2.957,-0.157,
43282160,0.076,-0.303,0.945,1.347,2.607,-0.665,
43282170,0.069,-0.298,0.938,1.627,1.907,-0.647,
43282180,0.067,-0.278,0.942,2.415,0.7,-0.472,
43282190,0.058,-0.285,0.945,2.03,-0.42,-0.612,
43282200,0.06,-0.291,0.94,1.487,-1.627,-1.207,
43282210,0.08,-0.286,0.944,1.557,-2.852,-1.085,
43282220,0.089,-0.308,0.949,1.155,-2.782,-1.015,
43282230,0.074,-0.295,0.947,1.365,-2.747,-0.98,
43282240,0.081,-0.298,0.948,1.61,-2.975,-1.12,
43282250,0.081,-0.297,0.941,1.872,-3.255,-0.945,
43282260,0.073,-0.276,0.933,2.17,-4.217,-0.455,
43282270,0.067,-0.259,0.924,1.872,-6.23,-0.297,
43282280,0.06,-0.261,0.92,1.312,-9.117,-1.12,
43282290,0.045,-0.259,0.933,1.277,-13.177,-1.365,
43282300,0,-0.266,0.954,0.262,-17.045,-2.082,
43282310,0.044,-0.278,0.956,-1.575,-19.88,-2.625,
43282320,0.088,-0.29,0.951,-3.465,-20.825,-2.38,
43282330,0.143,-0.328,0.956,-4.585,-19.25,-1.942,
43282340,0.162,-0.293,0.946,-3.92,-15.61,-0.875,
43282350,0.115,-0.32,0.948,-4.672,-12.11,-0.752,
43282360,0.085,-0.293,0.944,-4.147,-11.13,-0.367,
43282370,0.053,-0.261,0.942,-4.847,-12.425,-0.402,
43282380,0.055,-0.245,0.949,-7.367,-15.54,-0.455,
43282390,0.085,-0.256,0.955,-10.885,-18.532,-0.315,
43282400,0.047,-0.247,0.959,-14.192,-21.175,-0.105,
43282410,0.1,-0.279,0.971,-17.85,-24.517,-0.63,
43282420,0.217,-0.302,0.947,-19.39,-24.255,-0.227,
43282420,0.148,-0.313,0.946,-20.527,-20.755,1.487,
43282440,0.084,-0.311,0.951,-21.087,-19.81,3.08,
43282440,0.058,-0.274,0.962,-22.365,-21.402,3.71,
43282460,0.054,-0.269,0.968,-26.11,-25.06,3.71,
43282460,0.119,-0.276,0.961,-30.082,-29.557,4.025,
43282480,0.164,-0.337,0.923,-32.952,-31.377,5.897,
43282480,0.211,-0.435,0.868,-31.972,-30.345,7.997,
43282500,0.241,-0.485,0.826,-24.43,-26.127,8.89,
43282500,0.278,-0.508,0.805,-12.32,-19.302,9.397,
43282510,0.315,-0.474,0.822,1.557,-10.202,9.782,
43282520,0.284,-0.454,0.884,11.06,-0.245,10.902,
43282530,0.178,-0.294,0.949,17.71,3.552,16.205,
43282540,0.094,-0.288,0.973,16.502,3.202,16.957,
43282550,0.09,-0.288,0.973,12.075,0.105,16.03,
43282560,0.126,-0.329,0.948,8.172,-2.957,15.032,
43282570,0.119,-0.27,0.962,5.932,-4.515,13.667,
43282580,0.144,-0.369,0.948,0.157,-3.902,10.675,
43282590,0.141,-0.273,0.975,-2.047,-5.547,10.675,
43282600,0.131,-0.327,0.962,-7.612,-6.125,8.802,
43282610,0.136,-0.331,0.972,-12.215,-7.245,6.79,
43282620,0.145,-0.29,0.993,-17.815,-7.892,5.057,
43282630,0.145,-0.292,1.029,-26.897,-8.505,3.062,
43282640,0.183,-0.276,1.07,-39.83,-9.905,1.995,
43282650,0.272,-0.278,1.131,-57.05,-9.887,2.17,
43282660,0.322,-0.225,1.22,-79.415,-6.422,4.567,
43282670,0.394,-0.224,1.316,-108.5,5.617,8.207,
43282680,0.547,-0.347,1.251,-139.895,16.327,16.24,
43282690,0.63,-0.438,1.255,-159.722,40.425,32.007,
43282700,0.546,-0.594,1.357,-173.792,53.357,56.7,
43282710,0.667,-0.911,1.275,-181.405,66.797,87.745,
43282720,0.09,-0.815,1.101,-173.985,53.322,118.247,
43282730,-0.044,-1.452,0.641,-151.112,13.405,99.242,
43282740,-0.186,-1.882,0.706,-143.15,-14.822,103.355,
43282750,-0.193,-1.998,0.48,-137.305,-15.207,90.965,
43282760,1.353,-1.998,-0.181,-59.43,-18.34,51.852,
43282770,1.042,-1.216,-0.202,13.23,-16.45,40.092,
43282780,0.096,-0.395,-0.216,-35.682,-13.02,-13.755,
43282790,0.135,-0.407,-0.143,-77.665,-23.87,-52.64,
43282800,0.117,0.052,0.093,-84.105,-33.127,-63.087,
43282810,-0.46,0.383,0.372,-89.915,-22.312,-47.495,
43282820,-0.62,0.381,0.223,-94.482,-18.042,-19.635,
43282830,-0.518,0.523,0.003,-57.452,-31.92,18.567,
43282830,-0.398,0.728,-0.068,-29.26,-56.367,38.797,
43282850,-0.092,0.596,-0.142,-32.602,-62.947,37.292,
43282850,-0.036,0.376,-0.213,-41.282,-50.102,18.742,
43282870,-0.32,0.285,-0.392,-49.367,-37.835,-23.87,
43282870,-0.767,0.301,-0.567,-66.517,-39.2,-76.825,
43282890,-0.803,0.247,-0.709,-85.767,-37.87,-120.89,
43282890,-1.58,-0.666,1.234,-111.23,-7.052,-132.177,
43282910,-1.201,-1.998,1.139,-26.005,79.572,-125.23,
43282910,1.488,-0.705,0.082,433.072,42.577,-164.517,
43282920,0.621,1.728,1.097,383.022,-28.927,-236.705,
43282930,1.816,-1.465,0.923,309.4,68.792,-159.617,
43282940,0.764,0.021,1.207,362.705,82.25,-90.947,
43282950,1.753,0.4,1.581,339.622,106.627,-12.757,
43282960,-0.238,-0.109,1.587,240.012,161.962,31.01,
43282970,-0.653,0.703,1.84,186.917,119.245,25.2,
43282980,-0.393,0.52,1.525,84.507,63.315,21.63,
43282990,-0.577,0.22,1.27,11.585,14.857,28.42,
43283000,-0.113,-0.212,1.09,-32.935,-19.845,22.662,
43283010,0.069,-0.396,0.946,-52.99,-34.807,19.39,
43283020,0.138,-0.5,0.864,-56.875,-36.802,16.292,
43283030,0.2,-0.55,0.842,-53.112,-32.672,11.55,
43283040,0.156,-0.445,0.872,-46.48,-27.44,8.365,
43283050,0.169,-0.448,0.886,-42.682,-23.135,3.937,
43283060,0.199,-0.432,0.92,-41.405,-19.005,-1.242,
43283070,0.265,-0.393,0.96,-43.75,-14.857,-4.777,
43283080,0.282,-0.367,1.006,-50.522,-9.887,-4.41,
43283090,0.153,-0.308,1.091,-62.685,-7.192,-0.507,
43283100,0.343,-0.266,1.165,-83.195,-10.167,5.162,
43283110,0.167,-0.264,1.222,-111.16,-5.74,9.485,
43283120,0.243,-0.237,1.252,-139.755,-4.06,14.507,
43283130,0.326,-0.294,1.219,-167.142,1.19,22.977,
43283140,0.446,-0.403,1.166,-191.205,7.035,36.277,
43283150,0.603,-0.527,1.172,-205.59,10.587,53.025,
43283160,0.637,-0.702,1.219,-214.777,17.64,71.295,
43283170,0.55,-1.1,1.262,-212.1,34.825,104.195,
43283170,0.119,-1.222,1.112,-184.835,39.917,134.662,
43283190,-0.187,-1.025,0.902,-143.15,16.52,128.047,
43283190,-0.356,-1.594,0.427,-118.177,-38.412,92.96,
43283210,0.347,-1.728,0.694,-107.502,-50.47,91.385,
43283210,0.403,-1.003,0.749,-41.93,-81.672,120.155,
43283230,1.079,-0.497,0.1,28.91,-108.395,82.285,
43283230,1.043,0.606,-0.065,56.787,-101.797,44.695,
43283250,0.325,0.768,0.112,6.125,-75.005,-2.52,
43283250,0.044,0.046,0.125,-50.242,-50.47,-45.167,
43283260,0.104,-0.137,-0.058,-33.81,-19.127,-68.022,
43283270,-0.544,0.066,-0.299,-4.48,15.645,-94.622,
43283280,-1.009,-0.271,-0.58,-28.175,47.932,-130.55,
43283290,-1.151,-0.722,-0.888,-51.222,63.105,-164.64,
43283300,-1.529,-0.582,-1.002,-57.47,60.602,-198.45,
43283310,-1.877,-0.566,-0.952,-90.667,57.96,-216.632,
43283320,-1.997,-0.718,-0.862,-123.602,59.885,-200.9,
43283330,-1.996,-0.48,-0.517,-118.527,56.227,-149.765,
43283340,-0.843,-1.279,1.984,-109.672,14.752,-138.687,
43283350,1.998,-1.682,-0.104,86.695,58.887,-223.667,
43283360,1.792,-1.323,0.559,373.047,76.685,-317.555,
43283370,-0.984,-1.624,0.87,209.527,221.882,-239.155,
43283380,1.575,1.12,0.505,390.425,76.982,-132.475,
43283390,1.995,-0.853,0.549,406.42,110.302,-30.695,
43283400,0.066,0.731,1.652,378.35,180.67,64.855,
43283410,0.213,0.019,1.505,286.737,174.055,37.432,
43283420,0.362,0.024,1.6,231.157,154.577,-5.005,
43283430,-0.915,0.674,1.855,164.552,114.677,41.632,
43283440,-1.267,0.922,1.635,55.44,40.495,42.56,
43283450,-0.36,0.008,1.32,-32.392,-23.187,20.842,
43283460,0.03,-0.279,1.098,-82.53,-54.285,16.572,
43283470,0.058,-0.377,0.97,-101.185,-67.13,14.787,
43283480,0.307,-0.616,0.84,-107.345,-69.212,10.08,
43283490,0.22,-0.653,0.774,-98.42,-66.762,10.29,
43283500,0.493,-0.604,0.746,-83.807,-68.232,13.405,
43283510,0.266,-0.527,0.877,-76.475,-58.905,12.775,
43283520,0.272,-0.311,1.013,-81.567,-52.15,6.125,
43283530,0.336,-0.268,1.121,-104.405,-41.65,-0.122,
43283540,0.304,-0.167,1.229,-134.452,-32.445,-3.517,
43283550,0.424,-0.16,1.269,-171.185,-27.125,-2.432,
43283560,0.438,-0.171,1.293,-210.315,-23.03,8.715,
43283570,0.38,-0.291,1.257,-246.61,-19.302,24.535,
43283580,0.213,-0.315,1.177,-277.497,-21.315,40.897,
43283580,0.029,-0.127,1.212,-308.542,-30.887,56.49,
43283600,-0.182,-0.486,1.481,-335.947,-51.625,58.17,
43283600,0.01,-1.301,1.715,-335.195,-73.342,36.75,
43283620,0.358,-1.771,1.965,-272.982,-56,15.067,
43283620,-0.072,-0.99,0.87,-181.597,-11.497,-28.787,
43283630,-0.384,-0.389,1.573,-119.157,16.87,-89.757,
43283640,-1.157,-1.165,1.89,-112.035,67.305,-57.207,
43283650,-1.874,0.084,0.848,61.827,-70.595,-21.84,
43283660,-0.121,1.446,1.112,267.557,-158.06,53.077,
43283670,0.51,0.909,0.956,280,-109.672,151.847,
43283680,-0.226,0.401,0.601,257.775,-61.6,174.02,
43283690,-0.692,0.441,-0.025,298.252,-74.48,199.482,
43283700,-0.317,0.595,-0.68,312.882,-105.647,222.705,
43283710,0.243,0.317,-0.644,233.992,-134.522,222.022,
43283720,0.271,-0.495,-0.543,104.492,-142.467,195.282,
43283730,0.029,-1.158,-0.527,30.292,-152.407,137.392,
43283740,-0.248,-0.718,-0.87,56.577,-141.12,73.57,
43283750,-0.476,-0.083,-0.818,72.572,-104.387,6.545,
43283760,-1.427,-0.68,-0.965,-16.117,-41.492,-0.472,
43283770,0.214,-1.922,-0.006,-71.977,28.612,-73.937,
43283780,-0.11,-1.998,-0.884,-33.915,288.925,-352.362,
43283790,-1.317,0.415,0.868,352.222,42.927,-407.312,
43283800,1.998,1.997,1.83,405.772,-34.335,-174.405,
43283810,1.861,-0.942,0.444,235.305,131.582,-91.35,
43283820,0.692,-1.32,0.954,211.452,198.712,0.157,
43283830,1.439,1.08,1.338,300.037,175.927,113.452,
43283840,-1.378,-0.402,1.618,216.352,196.49,132.37,
43283850,-1.739,1.47,1.805,153.86,104.912,70.787,
43283860,-0.653,-0.044,1.404,38.202,32.777,-1.837,
43283870,0.114,0.06,1.237,-22.645,-14.945,-15.47,
43283880,0.272,-0.331,1.051,-55.16,-32.34,-0.717,
43283890,0.193,-0.378,0.93,-70.192,-35.157,14.017,
43283900,0.217,-0.604,0.787,-68.25,-33.862,17.325,
43283910,0.298,-0.527,0.817,-52.237,-33.32,27.09,
43283920,0.086,-0.476,0.844,-41.965,-26.775,25.06,
43283920,0.012,-0.468,0.875,-38.237,-21.682,13.772,
43283940,0.113,-0.397,0.951,-36.54,-19.215,1.155,
43283940,0.152,-0.312,1.034,-43.89,-19.162,-4.69,
43283960,0.216,-0.306,1.07,-59.15,-20.632,-7.595,
43283960,0.254,-0.281,1.106,-78.452,-20.51,-8.295,
43283980,0.231,-0.264,1.166,-102.025,-19.302,-6.877,
43283980,0.273,-0.221,1.223,-129.57,-16.257,-4.077,
43284000,0.323,-0.232,1.245,-160.195,-9.152,1.05,
43284000,0.321,-0.204,1.195,-189.612,0.822,9.187,
43284010,0.297,-0.33,1.08,-215.18,6.387,14.875,
43284020,0.179,-0.387,0.975,-239.015,1.61,23.695,
43284030,0.214,-0.46,0.978,-258.825,-7.787,32.077,
43284040,0.152,-0.604,1.103,-267.872,-23.59,39.742,
43284050,0.1,-1.013,1.099,-263.06,-44.73,39.357,
43284060,0.371,-1.488,1.233,-221.567,-44.45,28.402,
43284070,0.556,-1.532,1.129,-158.83,-0.035,14.735,
43284080,0.321,-0.928,0.332,-97.055,64.697,-7.157,
43284090,-0.009,-0.678,0.766,-64.032,97.177,-42.332,
43284100,-0.686,-1.194,0.858,-58.765,105.017,-35,
43284110,-0.465,-0.749,0.545,37.205,22.767,-26.46,
43284120,-0.031,0.505,0.305,154.455,-54.092,-4.917,
43284130,0.21,0.611,0.359,182.28,-63.297,37.257,
43284140,-0.158,0.305,-0.052,163.87,-50.347,82.565,
43284150,-0.485,0.456,-0.536,184.887,-75.932,104.247,
43284160,-0.294,0.427,-0.705,175.332,-94.64,126.385,
43284170,-0.147,-0.19,-0.798,105.63,-82.302,140.245,
43284180,-0.467,-0.495,-0.882,48.65,-81.357,137.935,
43284190,-0.311,-0.482,-0.823,35.525,-111.702,70.367,
43284200,-0.41,-1.07,-0.921,13.212,-103.512,3.237,
43284210,0.405,-1.998,0.262,3.937,-34.072,-78.102,
43284220,-1.558,-1.998,1.851,55.23,97.825,-145.81,
43284230,-1.776,-1.702,-0.432,203.385,-11.9,-264.932,
43284240,1.744,1.756,1.325,397.18,-147.227,-252.752,
43284250,1.767,0.394,0.779,344.067,40.67,-118.422,
43284260,0.728,-1.554,1.184,280.945,155.347,-95.007,
43284270,1.955,0.762,1.271,333.095,154.612,8.295,
43284280,-0.63,-0.433,1.81,248.71,221.795,86.38,
43284290,-1.652,1.838,1.942,182.035,125.23,60.147,
43284300,-0.662,0.122,1.324,24.395,27.597,15.977,
43284300,0.054,-0.257,1.064,-33.827,-22.435,5.687,
43284320,0.11,-0.433,0.923,-46.287,-34.86,9.432,
43284320,0.335,-0.501,0.875,-43.61,-35.437,11.55,
43284330,0.46,-0.544,0.82,-36.767,-25.55,18.987,
43284340,0.127,-0.402,0.889,-23.852,-15.032,28.49,
43284350,0.113,-0.429,0.874,-18.795,-9.782,23.835,
43284360,0.205,-0.469,0.879,-14.017,-5.302,14.402,
43284370,0.169,-0.358,0.957,-9.712,-1.522,12.285,
43284380,0.178,-0.314,1.028,-13.335,-1.347,12.075,
43284390,0.281,-0.223,1.103,-24.552,-7.49,15.207,
43284400,0.19,-0.29,1.14,-43.627,-12.67,22.277,
43284410,0.207,-0.305,1.166,-67.952,-16.73,28.822,
43284420,0.186,-0.274,1.196,-93.52,-19.092,35.437,
43284430,0.236,-0.288,1.221,-119.717,-14.192,42.63,
43284440,0.177,-0.355,1.165,-141.89,-8.172,53.83,
43284450,0.032,-0.478,1.069,-160.177,-15.82,61.985,
43284460,-0.101,-0.51,1.062,-176.12,-44.205,67.042,
43284470,-0.095,-0.634,1.126,-184.467,-85.4,67.182,
43284480,-0.284,-0.8,0.93,-176.26,-127.085,62.335,
43284490,-0.095,-0.981,0.771,-147.175,-156.59,35.507,
43284500,0.153,-1.381,0.72,-126.63,-154.017,13.265,
43284510,-0.522,-1.801,-0.19,-105.437,-133.63,51.712,
43284520,-0.863,-1.998,0.083,-82.81,-84.42,42.052,
43284530,-0.647,-1.944,-1.104,8.33,-72.94,58.782,
43284540,0.13,-0.831,-0.96,109.987,-87.062,88.777,
43284550,0.3,-0.514,-0.875,26.547,-48.405,69.772,
43284560,0.19,-0.894,-0.537,-64.855,-11.97,6.055,
43284570,0.256,-0.84,-0.189,-103.442,12.477,-64.977,
43284580,0.121,-0.46,-0.034,-117.582,52.552,-110.915,
43284590,-0.402,0.057,-0.017,-128.87,85.347,-147.07,
43284600,-1.031,0.214,0.024,-149.975,106.89,-163.537,
43284610,-1.37,0.314,-0.027,-166.845,106.435,-149.975,
43284620,-0.97,0.587,1.63,-105.927,84.437,-107.415,
43284630,1.371,0.592,1.851,32.742,138.687,-86.432,
43284640,1.998,1.955,0.801,325.255,7.77,-119.157,
43284650,1.155,-1.36,0.953,212.397,142.73,-178.605,
43284660,0.924,-1.587,0.229,234.727,181.037,-197.19,
43284670,1.453,1.799,0.945,393.662,89.442,-70.052,
43284670,1.491,-0.919,1.428,313.897,153.072,13.562,
43284690,-0.169,0.486,1.61,274.995,178.132,78.907,
43284690,-1.012,0.451,1.77,211.89,136.902,65.537,
43284710,-1.163,0.604,1.661,113.172,71.627,27.702,
43284710,-0.425,0.125,1.225,22.137,8.715,-1.575,
43284730,0.605,-0.427,1.12,-13.912,-25.042,-8.855,
43284730,0.152,-0.301,0.951,-29.942,-23.135,21.735,
43284750,-0.062,-0.492,0.869,-31.622,-23.835,25.077,
43284750,0.124,-0.453,0.893,-29.295,-26.022,14.805,
43284760,0.132,-0.445,0.902,-30.31,-24.01,9.292,
43284770,0.145,-0.422,0.905,-30.8,-22.4,5.617,
43284780,0.243,-0.368,0.93,-31.552,-21.087,1.995,
43284790,0.371,-0.428,0.942,-35.49,-20.825,4.427,
43284800,0.159,-0.312,1.011,-40.372,-17.675,8.522,
43284810,0.201,-0.278,1.093,-55.405,-14.822,6.282,
43284820,0.234,-0.271,1.179,-78.47,-13.335,3.29,
43284830,0.261,-0.28,1.255,-108.062,-12.705,5.18,
43284840,0.299,-0.215,1.335,-142.59,-13.562,13.37,
43284850,0.327,-0.262,1.319,-184.1,-9.957,28.542,
43284860,0.297,-0.324,1.226,-213.885,-8.837,42.507,
43284870,0.198,-0.36,1.125,-241.202,-18.025,60.112,
43284880,0.217,-0.316,1.094,-263.48,-34.475,75.617,
43284890,0.044,-0.572,1.141,-277.987,-49,83.667,
43284900,-0.226,-1.321,1.234,-257.81,-83.055,76.387,
43284910,0.006,-1.836,1.229,-210.507,-103.81,67.672,
43284920,0.577,-1.51,0.317,-136.22,-89.95,54.302,
43284930,0.212,-1.078,0.303,-73.325,-66.535,48.125,
43284940,-0.633,-1.31,0.407,-52.01,-40.46,82.897,
43284950,-0.803,-1.447,0.526,-2.275,-90.23,137.305,
43284960,0.197,-0.831,-0.404,117.127,-182.35,175.7,
43284970,0.967,0.169,-0.381,173.932,-217.297,210.577,
43284980,0.714,0.509,-0.497,96.722,-223.195,184.537,
43284990,0.704,0.115,-0.493,19.6,-210.21,115.797,
43285000,0.611,0.02,-0.322,-12.897,-205.17,42.507,
43285010,0.5,0.097,-0.086,-36.785,-166.915,-17.465,
43285010,-0.094,0.056,0.077,-41.877,-78.417,-48.212,
43285030,-1.066,0.17,0.13,-16.852,-30.432,-90.562,
43285030,-1.453,0.101,0.02,-8.575,-10.972,-91.227,
43285050,-1.188,-0.123,-0.092,4.742,10.885,-61.827,
43285050,-1.171,-0.224,-0.229,11.357,33.547,-44.327,
43285070,-1.26,-1.451,0.001,4.83,59.78,-80.57,
43285070,1.55,-1.998,1.694,51.31,152.897,-205.905,
43285080,1.071,-1.979,0.161,199.587,255.71,-286.265,
43285090,1.386,1.028,1.681,323.592,194.757,-213.517,
43285100,1.481,-0.073,0.659,309.365,147.035,-104.615,
43285110,1.155,-1.251,0.569,309.505,133.157,-28.962,
43285120,1.312,0.286,1.308,362.46,108.815,72.642,
43285130,-0.132,0.179,1.467,293.055,122.605,120.907,
43285140,-1.278,0.604,1.756,233.135,104.475,95.777,
43285150,-1.289,0.476,1.704,147.577,62.982,27.177,
43285160,0.225,0.108,1.439,52.902,13.632,-17.78,
43285170,0.459,-0.098,1.228,-6.965,-9.765,4.55,
43285180,-0.071,-0.137,1.15,-41.492,-20.982,29.452,
43285190,-0.088,-0.349,0.943,-66.22,-32.795,31.185,
43285200,0.313,-0.739,0.751,-74.725,-42.227,25.095,
43285210,0.103,-0.518,0.756,-56.07,-37.03,22.295,
43285220,0.159,-0.499,0.838,-45.027,-27.842,15.242,
43285230,0.236,-0.434,0.878,-39.217,-21.822,9.275,
43285240,0.174,-0.456,0.897,-40.25,-15.82,4.497,
43285250,0.231,-0.396,0.969,-41.965,-11.55,0.857,
43285260,0.259,-0.335,1.056,-53.007,-7.542,-1.225,
43285270,0.286,-0.279,1.162,-73.447,-5.162,-0.91,
43285280,0.302,-0.258,1.238,-103.145,-1.837,2.152,
43285290,0.309,-0.226,1.287,-135.852,3.657,8.557,
43285300,0.298,-0.232,1.287,-168.962,10.535,16.625,
43285310,0.242,-0.346,1.25,-200.637,17.272,27.527,
43285320,0.161,-0.261,1.135,-228.602,15.68,39.095,
43285330,0.142,-0.237,1.063,-251.02,2.782,41.982,
43285340,0.241,-0.422,1.087,-271.11,-7.175,48.3,
43285350,0.275,-0.801,1.032,-283.535,-9.117,63.122,
43285360,0.393,-1.143,1.188,-263.392,-3.045,71.12,
43285370,0.44,-1.671,1.312,-227.167,28.875,66.535,
43285380,0.382,-1.639,0.975,-160.807,66.097,42.49,
43285390,-0.004,-1.131,0.345,-77.735,71.855,-10.255,
43285400,-0.115,-0.578,0.413,-45.01,66.692,-48.615,
43285410,-0.098,-0.883,0.562,-30.397,54.6,-25.9,
43285420,0.177,-0.775,0.432,21.56,1.697,-9.17,
43285420,0.034,0.074,0.03,96.267,-59.342,-7.56,
43285440,0.056,0.574,-0.05,120.102,-81.97,9.73,
43285440,-0.17,0.65,-0.207,71.627,-83.842,51.012,
43285460,-0.181,0.228,-0.224,39.777,-95.725,74.147,
43285460,-0.098,0.198,-0.16,33.512,-102.27,92.732,
43285480,-0.198,0.19,-0.14,32.48,-96.092,82.197,
43285480,-0.371,-0.171,-0.187,32.147,-92.47,34.737,
43285500,-0.572,-0.164,-0.393,49.105,-90.37,1.855,
43285500,-0.638,0.018,-0.662,62.335,-67.917,-14.525,
43285510,-1.219,-0.634,-0.811,37.695,-33.39,-44.94,
43285520,0.185,-1.992,-1.151,39.322,79.66,-94.885,
43285530,-1.77,-1.998,1.573,58.677,140.437,-152.985,
43285540,-1.988,-1.935,-1.159,163.135,-7.507,-371.84,
43285550,1.321,1.568,1.549,429.87,-144.9,-350.63,
43285560,1.998,1.23,1.104,390.827,-48.93,-154.682,
43285570,1.25,-1.985,0.763,238.84,155.942,-136.08,
43285580,1.644,0.125,1.055,333.917,127.82,4.532,
43285590,0.664,0.416,1.509,291.83,174.282,106.785,
43285600,-1.104,0.182,1.585,213.482,164.29,126.717,
43285610,-1.519,0.738,1.755,164.307,88.287,62.317,
43285620,-0.636,0.077,1.418,52.99,34.405,-2.765,
43285630,0.16,-0.003,1.258,-3.657,-12.022,-17.675,
43285640,0.213,-0.346,1.045,-44.03,-26.757,-3.745,
43285650,0.098,-0.411,0.93,-57.067,-32.795,8.89,
43285660,0.143,-0.432,0.852,-58.065,-34.44,9.327,
43285670,0.14,-0.572,0.78,-51.205,-32.182,6.58,
43285680,0.215,-0.511,0.819,-37.887,-28.49,2.24,
43285690,0.229,-0.477,0.845,-29.522,-23.257,1.05,
43285700,0.174,-0.444,0.902,-24.482,-19.95,0.752,
43285710,0.212,-0.379,0.928,-23.782,-19.215,1.19,
43285720,0.188,-0.374,0.974,-29.995,-18.69,-0.647,
43285730,0.158,-0.326,1.018,-39.602,-20.475,-1.575,
43285740,0.184,-0.304,1.059,-55.3,-21.857,-3.605,
43285750,0.224,-0.282,1.092,-74.602,-23.345,-5.39,
43285760,0.272,-0.327,1.119,-96.6,-23.607,-4.392,
43285760,0.299,-0.289,1.161,-120.067,-24.412,3.115,
43285780,0.349,-0.283,1.174,-147.647,-24.692,14.892,
43285780,0.382,-0.352,1.139,-173.845,-23.38,27.72,
43285800,0.314,-0.456,1.089,-197.627,-22.05,42.122,
43285800,0.199,-0.411,1.048,-217.14,-30.205,56.14,
43285820,0.017,-0.44,1.129,-237.755,-50.33,68.932,
43285820,-0.22,-0.783,1.095,-250.232,-91,73.937,
43285830,-0.136,-1.242,1.117,-224.49,-150.482,57.977,
43285840,0.181,-1.459,0.993,-184.432,-179.532,42.805,
43285850,0.668,-1.348,0.652,-157.43,-144.305,45.447,
43285860,0.628,-0.984,0.244,-100.747,-87.92,58.275,
43285870,0.025,-1.238,0.231,-50.977,-37.135,54.11,
43285880,-0.365,-1.969,0.474,-10.255,-15.925,40.11,
43285890,-0.068,-1.508,0.254,71.277,-26.18,71.207,
43285900,0.272,-0.621,-0.521,188.965,-14,96.845,
43285910,-0.135,0.474,-0.678,215.407,10.64,86.835,
43285920,-0.076,0.325,-0.749,133.262,56.262,67.602,
43285930,0.042,-0.255,-0.811,40.547,86.38,16.957,
43285940,0.103,-0.394,-0.787,-14.787,95.322,-57.032,
43285950,0.129,-0.392,-0.689,-56.63,115.29,-146.37,
43285960,-0.545,-0.433,-0.613,-112.14,151.497,-212.712,
43285970,-1.257,-0.444,-0.529,-145.88,172.41,-241.99,
43285980,-1.613,-0.367,-0.492,-129.22,159.95,-244.492,
43285990,-1.861,-1.019,1.146,-110.11,154.14,-199.412,
43286000,-0.867,-1.158,1.765,-23.012,180.827,-143.85,
43286010,1.437,0.136,1.867,265.37,147.98,-108.815,
43286020,1.47,-1.235,0.252,257.652,131.46,-198.1,
43286030,-0.94,-1.989,0.585,262.955,102.06,-288.015,
43286040,1.542,-0.571,0.636,342.86,50.067,-151.217,
43286050,1.965,0.494,0.874,415.905,58.432,-31.325,
43286060,0.544,-0.51,1.346,356.737,151.882,72.8,
43286070,0.251,0.802,1.678,361.252,153.912,101.587,
43286080,-1.394,0.494,1.891,261.485,144.707,71.54,
43286090,-0.822,0.778,1.747,157.727,81.935,19.18,
43286100,-0.161,0.192,1.453,55.562,28.28,2.765,
43286110,-0.244,0.048,1.218,-7.962,-6.422,15.4,
43286120,-0.101,-0.242,1.057,-46.13,-27.492,13.895,
43286130,0.116,-0.398,0.942,-62.807,-36.61,7.227,
43286140,0.179,-0.458,0.924,-65.905,-36.382,3.15,
43286150,0.11,-0.404,0.918,-65.205,-33.04,1.942,
43286160,0.178,-0.44,0.9,-63.63,-29.995,-4.27,
43286170,0.2,-0.447,0.923,-60.987,-25.672,-8.12,
43286170,0.306,-0.409,0.933,-57.977,-23.467,-4.462,
43286190,0.207,-0.363,1.015,-62.317,-20.23,0.087,
43286190,0.17,-0.323,1.079,-73.29,-21.822,3.377,
43286210,0.181,-0.29,1.173,-92.172,-23.765,6.317,
43286210,0.233,-0.264,1.22,-117.11,-24.465,11.9,
43286230,0.303,-0.316,1.233,-145.442,-20.895,22.102,
43286230,0.347,-0.383,1.176,-169.207,-15.295,35.735,
43286250,0.261,-0.456,1.087,-187.95,-19.372,50.645,
43286250,0.219,-0.433,1.009,-208.18,-33.337,65.957,
43286260,0.365,-0.577,1.057,-217.595,-48.632,78.872,
43286270,0.328,-0.711,1.018,-226.625,-58.555,100.467,
43286280,0.05,-1.018,0.986,-229.127,-82.11,117.04,
43286290,-0.147,-1.317,0.973,-207.497,-128.485,115.115,
43286300,0.216,-1.632,1.036,-162.487,-191.082,80.185,
43286310,0.347,-1.998,0.135,-126.945,-170.45,101.605,
43286320,-0.105,-1.67,-0.443,-45.955,-151.865,112.35,
43286330,0.03,-1.442,-0.331,41.23,-165.287,121.117,
43286340,0.32,-1.143,-0.601,82.18,-175.472,138.582,
43286350,0.777,-0.53,-0.833,104.125,-173.565,133.402,
43286360,0.61,-0.031,-0.907,86.17,-157.395,98.49,
43286370,0.029,0.339,-0.686,22.365,-144.987,50.015,
43286380,0.116,0.281,-0.44,-55.055,-122.36,2.852,
43286390,0.398,-0.143,-0.163,-103.845,-55.93,-33.372,
43286400,-0.142,-0.165,0.037,-119.315,11.445,-68.232,
43286410,-0.881,-0.101,0.122,-111.177,44.572,-101.972,
43286420,-1.417,0.033,0.167,-90.265,36.47,-111.457,
43286430,-1.423,0.133,0.2,-79.922,13.685,-93.992,
43286440,-1.389,-0.094,0.487,-56.682,2.992,-53.48,
43286450,-0.647,-1.154,1.998,-24.045,28.105,-52.115,
43286460,1.902,-1.893,1.962,161.49,149.52,-60.62,
43286470,0.246,-1.998,-1.239,259.507,142.695,-174.457,
43286480,0.362,-0.197,1.416,304.955,144.62,-216.352,
43286490,1.351,0.918,0.836,331.082,89.985,-118.37,
43286500,1.766,-1.128,0.794,323.155,114.625,-66.762,
43286510,0.756,-0.598,0.752,319.445,137.742,32.987,
43286510,0.292,0.343,1.286,333.655,120.645,79.887,
43286530,-0.365,0.147,1.46,283.605,121.17,83.317,
43286530,-0.703,0.54,1.612,233.222,111.51,50.102,
43286550,-0.339,0.015,1.564,157.29,79.24,11.13,
43286550,-0.127,0.203,1.472,88.095,40.022,-4.882,
43286570,0.047,-0.081,1.244,26.775,12.635,1.19,
43286570,-0.054,-0.176,1.105,-11.48,-4.497,10.465,
43286580,-0.055,-0.247,1.016,-34.23,-16.607,7.437,
43286590,0.047,-0.358,0.948,-48.65,-22.75,1.785,
43286600,0.21,-0.43,0.908,-54.512,-24.675,-3.132,
43286610,0.187,-0.431,0.868,-53.585,-22.662,-1.995,
43286620,0.172,-0.526,0.815,-48.107,-18.9,-2.45,
43286630,0.187,-0.523,0.79,-37.152,-14.787,-4.13,
43286640,0.202,-0.512,0.837,-25.865,-9.73,-6.457,
43286650,0.199,-0.432,0.905,-19.302,-5.74,-6.51,
43286660,0.189,-0.392,0.956,-20.807,-2.38,-6.457,
43286670,0.195,-0.357,0.995,-27.825,-0.367,-6.265,
43286680,0.189,-0.363,1.024,-38.78,1.872,-5.827,
43286690,0.191,-0.326,1.064,-52.377,3.517,-4.672,
43286700,0.217,-0.346,1.103,-68.81,5.075,-2.87,
43286710,0.259,-0.372,1.127,-89.88,7.157,2.747,
43286720,0.301,-0.361,1.158,-110.845,9.992,12.285,
43286730,0.309,-0.388,1.163,-131.197,13.632,23.345,
43286740,0.322,-0.482,1.098,-151.865,16.8,35.07,
43286750,0.252,-0.542,1.053,-162.75,8.347,44.94,
43286760,0.287,-0.603,1.1,-174.142,-8.365,59.517,
43286770,0.304,-0.729,1.115,-180.792,-27.667,76.842,
43286780,0.137,-0.926,1.114,-176.172,-50.575,90.44,
43286790,-0.022,-1.124,1.13,-157.325,-62.982,94.045,
43286800,-0.09,-1.003,0.863,-127.33,-75.092,71.312,
43286810,-0.68,-1.408,0.112,-95.69,-99.417,43.172,
43286820,-0.544,-1.88,-0.115,-112.857,-145.25,5.95,
43286830,0.006,-1.546,-0.739,-45.377,-194.425,23.047,
43286840,-0.137,-0.455,-0.648,3.71,-218.452,25.375,
43286850,-0.548,-0.305,-0.705,-45.675,-197.4,14.297,
43286860,-0.557,-0.597,-0.523,-79.257,-185.43,10.132,
43286870,-0.209,-0.603,-0.341,-79.467,-162.785,10.867,
43286880,0.191,-0.451,-0.229,-58.082,-110.6,8.225,
43286890,0.063,-0.284,-0.188,-51.94,-36.645,0.84,
43286900,-0.37,-0.223,-0.248,-63.49,17.185,-12.652,
43286910,-0.449,-0.224,-0.269,-62.58,37.8,-24.745,
43286920,-0.256,-0.233,0.612,-60.812,47.915,-30.45,
43286920,1.317,0.3,1.501,-27.265,131.722,-28.927,
43286940,1.186,-0.866,1.911,59.115,221.742,-42.875,
43286940,-1.263,-1.468,-1.461,123.532,35.612,-177.695,
43286950,1.033,-1.91,0.947,297.167,62.352,-196.945,
43286960,1.728,-0.48,0.608,268.117,126.892,-165.952,
43286970,0.39,0.352,0.72,301.192,123.252,-90.475,
43286980,1.344,-1.264,0.734,291.76,122.955,-22.837,
43286990,0.38,0.315,1.251,325.727,96.897,54.092,
43287000,0.126,-0.01,1.436,282.047,89.32,76.545,
43287010,-0.337,0.184,1.512,227.955,77.035,69.405,
43287020,-0.637,0.206,1.467,162.47,63.805,37.187,
43287030,-0.175,-0.045,1.316,97.702,33.74,1.61,
43287040,0.279,-0.247,1.176,51.187,10.272,-6.562,
43287050,0.253,-0.302,1.112,20.107,0.805,7.052,
43287060,0.033,-0.177,1.062,-1.47,-7.175,20.405,
43287070,-0.023,-0.371,1.01,-22.382,-14.91,16.012,
43287080,0.079,-0.358,0.962,-36.365,-21.805,8.89,
43287090,0.203,-0.435,0.897,-44.117,-25.375,4.672,
43287100,0.214,-0.507,0.861,-44.117,-25.427,5.477,
43287110,0.193,-0.462,0.871,-39.725,-24.815,6.79,
43287120,0.193,-0.474,0.875,-39.392,-22.137,5.372,
43287130,0.218,-0.455,0.902,-40.302,-20.247,3.902,
43287140,0.219,-0.412,0.948,-45.675,-18.497,4.27,
43287150,0.238,-0.404,0.998,-56.245,-18.305,5.092,
43287160,0.24,-0.405,1.007,-71.75,-18.497,8.365,
43287170,0.29,-0.424,1.045,-89.267,-19.372,12.915,
43287180,0.371,-0.401,1.051,-108.71,-19.355,21.647,
43287190,0.418,-0.557,1.032,-125.772,-19.162,33.337,
43287200,0.354,-0.553,0.974,-138.197,-20.09,49.595,
43287210,0.28,-0.6,0.993,-145.285,-28.122,61.915,
43287220,0.147,-0.628,1.044,-154.455,-44.537,75.827,
43287230,-0.069,-0.853,1.108,-153.527,-78.89,77.927,
43287240,-0.127,-1.025,1.083,-138.092,-110.792,78.837,
43287250,-0.037,-1.12,0.749,-89.967,-144.55,53.76,
43287260,-0.122,-1.49,0.379,-69.667,-165.585,29.295,
43287260,-1.058,-1.987,-0.157,-92.697,-177.152,54.46,
43287280,-0.69,-1.998,0.014,-57.207,-154,54.845,
43287280,-0.221,-1.745,-0.828,77.402,-154.437,100.187,
43287300,-0.107,-0.554,-0.614,136.78,-168.84,139.317,
43287300,0.111,-0.591,-0.411,53.322,-142.432,113.54,
43287320,0.22,-1.04,-0.451,-0.07,-123.41,69.475,
43287320,-0.026,-0.701,-0.6,7.962,-120.977,42.682,
43287330,-0.096,0.065,-0.542,12.04,-121.975,26.6,
43287340,-0.07,0.098,-0.459,-37.222,-104.072,17.885,
43287350,0.229,-0.353,-0.191,-73.92,-73.377,0.367,
43287360,0.224,-0.499,0.014,-87.29,-19.022,-10.815,
43287370,-0.124,-0.061,0.071,-79.922,23.31,-23.66,
43287380,-0.181,0.746,0.043,-58.117,32.76,-56.315,
43287390,0.742,0.33,1.848,-41.615,109.112,-83.772,
43287400,1.453,0.197,1.158,116.2,202.947,-92.592,
43287410,1.54,0.127,0.016,330.802,-11.217,-153.195,
43287420,1.525,-1.998,0.593,249.392,216.055,-164.727,
43287430,0.46,0.329,0.292,320.372,177.345,-142.327,
43287440,1.659,0.643,0.872,420.017,157.972,-42.21,
43287450,0.839,-0.826,1.324,321.195,248.045,41.86,
43287460,-0.571,0.247,1.581,325.43,237.16,92.015,
43287470,-1.387,0.829,1.774,265.09,163.03,45.867,
43287480,-0.667,0.563,1.641,140.577,89.232,3.552,
43287490,-0.285,0.341,1.446,44.87,28.98,-0.612,
43287500,-0.363,0.131,1.211,-15.242,-14.805,12.757,
43287510,-0.068,-0.259,1.121,-51.275,-46.515,10.727,
43287520,0.108,-0.24,1.026,-77.035,-61.232,11.427,
43287530,0.143,-0.58,0.827,-84.315,-65.257,8.4,
43287540,0.318,-0.518,0.836,-75.827,-64.172,2.712,
43287550,0.33,-0.599,0.77,-72.065,-53.13,0.21,
43287560,0.344,-0.546,0.791,-55.65,-44.24,-0.507,
43287570,0.317,-0.465,0.871,-47.39,-34.44,0.105,
43287580,0.261,-0.384,0.953,-46.427,-29.085,1.82,
43287590,0.275,-0.364,1.009,-54.687,-28.805,4.48,
43287600,0.312,-0.375,1.059,-69.615,-33.81,9.87,
43287610,0.348,-0.264,1.117,-89.022,-36.925,15.767,
43287620,0.348,-0.358,1.065,-120.89,-34.807,21.105,
43287620,0.408,-0.379,1.043,-142.835,-39.812,29.347,
43287640,0.49,-0.445,1.038,-158.55,-40.337,43.102,
43287640,0.468,-0.533,1.043,-166.67,-40.512,59.395,
43287660,0.374,-0.779,1.192,-168.56,-46.182,74.83,
43287660,0.267,-1.099,1.097,-147.875,-67.637,81.707,
43287670,0.429,-1.034,0.957,-99.907,-82.967,88.882,
43287680,0.144,-0.727,0.25,-60.095,-97.02,88.042,
43287690,-0.067,-1.455,-0.152,-89.495,-143.657,64.172,
43287700,0.227,-1.998,0.052,-107.45,-112.945,58.59,
43287710,0.655,-1.827,-0.306,-30.73,-129.815,51.975,
43287720,0.316,-0.677,-0.39,36.89,-139.72,71.627,
43287730,-0.148,-0.277,-0.331,11.165,-125.632,79.047,
43287740,-0.262,-0.272,-0.254,-26.827,-133.735,63.857,
43287750,-0.099,-0.076,-0.098,-31.867,-142.415,54.005,
43287760,0.041,0.137,0.128,-32.935,-124.6,47.88,
43287770,0.016,0.292,0.222,-39.077,-83.737,29.942,
43287780,-0.08,0.383,0.196,-41.597,-28.822,4.847,
43287790,-0.412,0.53,0.169,-45.062,27.37,-13.895,
43287800,-0.601,0.666,0.68,-40.46,57.837,-40.932,
43287810,-0.099,-1.017,1.998,-25.112,114.187,-73.482,
43287820,-0.122,-1.998,0.887,72.362,206.587,-53.042,
43287830,1.36,-1.998,0.169,213.517,165.777,-205.415,
43287840,0.675,-0.68,0.694,198.502,190.102,-201.617,
43287850,0.599,0.597,1.05,255.517,152.74,-145.46,
43287860,1.61,-1.051,0.606,270.41,127.96,-75.197,
43287870,0.923,-0.139,1.046,294.175,110.897,18.095,
43287880,0.465,-0.232,1.337,259.717,113.89,76.86,
43287890,-0.387,0.233,1.494,208.757,97.772,95.777,
43287900,-0.712,0.374,1.516,160.055,71.242,68.88,
43287910,-0.631,0.134,1.363,94.15,43.785,22.505,
43287920,0.071,-0.221,1.156,41.685,11.97,-4.55,
43287930,0.257,-0.367,1.012,14.63,-4.357,-0.385,
43287940,0.208,-0.272,1.022,6.072,-10.657,10.64,
43287950,0.122,-0.353,0.969,-12.985,-10.5,12.967,
43287960,0.104,-0.34,0.965,-19.792,-14.735,12.425,
43287970,0.162,-0.395,0.953,-29.33,-17.255,8.242,
43287980,0.219,-0.378,0.96,-36.82,-18.007,5.95,
43287990,0.275,-0.42,0.992,-45.622,-22.015,8.47,
43288000,0.163,-0.297,1.058,-56,-25.427,14.56,
43288010,0.133,-0.233,1.086,-77.7,-28.42,14.262,
43288010,0.148,-0.274,1.137,-106.54,-31.78,8.33,
43288030,0.237,-0.23,1.165,-134.365,-35.262,7.087,
43288030,0.328,-0.272,1.142,-163.625,-34.965,11.637,
43288050,0.468,-0.367,1.121,-187.53,-33.512,22.19,
43288050,0.583,-0.383,1.027,-208.32,-28.332,43.767,
43288070,0.689,-0.537,0.973,-221.865,-18.62,65.887,
43288070,0.564,-0.637,1.108,-237.09,-11.182,95.252,
43288080,0.392,-0.681,1.208,-246.207,-27.737,122.57,
43288090,0.08,-1.163,1.295,-225.347,-80.78,135.17,
43288100,0.04,-1.66,1.185,-201.687,-142.012,136.395,
43288110,0.491,-1.992,0.508,-172.83,-186.235,111.93,
43288120,1.786,-1.625,0.709,-147,-136.517,110.932,
43288130,1.044,-0.287,0.12,-55.667,-82.04,260.4,
43288140,1.007,-0.518,0.37,-13.685,-99.732,239.207,
43288150,1.374,-0.671,0.159,-42.63,-116.847,149.362,
43288160,1.191,-0.127,0.292,0.805,-131.757,99.837,
43288170,0.475,0.755,0.299,20.37,-145.337,76.09,
43288180,-0.096,0.956,0.25,11.357,-163.852,43.522,
43288190,-0.261,0.802,0.063,11.2,-192.552,-12.915,
43288200,-0.302,0.982,0.069,14.262,-218.067,-46.637,
43288210,-0.151,0.969,0.259,-8.977,-212.397,-74.165,
43288220,-0.064,0.746,0.473,-32.882,-143.85,-91.647,
43288230,-0.535,0.628,0.601,-24.36,-46.077,-108.027,
43288240,-1.416,0.596,0.758,-0.945,28.7,-128.8,
43288250,-1.921,0.444,0.695,9.992,53.322,-145.67,
43288260,-1.58,0.178,0.382,40.932,72.782,-148.242,
43288270,-1.524,-0.619,-0.533,85.19,102.532,-157.535,
43288280,0.921,-1.97,-0.863,11.41,264.145,-262.115,
43288290,-0.673,-1.841,0.216,-6.597,494.025,-496.825,
43288300,-1.731,1.945,1.466,322.367,258.317,-326.095,
43288310,1.802,0.765,1.062,363.317,83.842,-206.5,
43288320,1.858,-1.998,0.83,278.652,186.235,-70.175,
43288330,0.317,-0.407,0.701,307.65,184.695,66.972,
43288330,0.912,0.794,1.281,346.307,140.787,151.322,
43288350,-1.28,0.148,1.608,230.457,140.875,170.502,
43288350,-1.509,0.829,1.661,191.52,99.872,86.87,
43288370,-0.573,-0.055,1.395,109.095,51.17,-2.205,
43288370,0.501,-0.126,1.217,54.74,10.797,-25.777,
43288390,0.341,-0.185,1.184,18.917,0.402,0.175,
43288390,-0.137,-0.218,1.092,-13.492,-7.857,19.337,
43288410,-0.056,-0.27,1.036,-33.722,-25.217,12.74,
43288410,0.096,-0.352,1,-53.252,-36.697,3.395,
43288420,0.151,-0.366,0.969,-65.187,-43.82,-1.767,
43288430,0.261,-0.398,0.953,-74.585,-47.792,-3.78,
43288440,0.301,-0.368,0.961,-82.442,-47.967,-2.765,
43288450,0.279,-0.384,1.006,-95.34,-43.347,-2.625,
43288460,0.313,-0.266,1.086,-108.885,-39.112,-2.922,
43288470,0.295,-0.122,1.172,-134.942,-36.995,-3.727,
43288480,0.382,-0.193,1.19,-174.79,-35.192,-2.065,
43288490,0.442,-0.138,1.214,-209.335,-32.042,9.73,
43288500,0.512,-0.267,1.105,-243.582,-23.117,25.305,
43288510,0.673,-0.398,0.961,-270.865,-9.887,43.942,
43288520,0.668,-0.5,0.944,-293.405,4.637,66.885,
43288530,0.659,-0.799,1.121,-305.655,3.202,87.692,
43288540,0.699,-1.532,1.243,-286.842,-8.155,112.227,
43288550,0.779,-1.986,1.567,-218.207,-4.217,113.225,
43288560,1.095,-1.998,1.139,-147.7,56.227,117.39,
43288570,0.283,-1.222,0.196,-66.412,81.76,107.922,
43288580,0.056,0.014,0.544,-12.582,53.06,106.82,
43288590,-0.122,-0.126,1.193,-14.262,-4.847,150.115,
43288600,0.152,-0.628,0.842,52.797,-82.547,188.142,
43288610,1.341,-0.284,-0.138,214.83,-106.82,218.47,
43288620,0.803,1.342,-0.363,291.445,-141.925,213.535,
43288630,0.293,1.557,-0.342,193.69,-133.805,175.052,
43288640,0.214,0.516,-0.31,69.457,-137.252,130.182,
43288650,0.311,0.15,-0.108,27.055,-174.195,77.052,
43288660,0.412,0.074,-0.104,8.382,-176.277,32.532,
43288670,-0.19,0.165,-0.075,9.17,-161.35,0.035,
43288680,-0.277,0.362,0.178,24.132,-153.65,-80.307,
43288690,-0.633,0.238,0.249,-14.227,-105,-133.787,
43288700,-1.175,0.306,0.253,-22.68,-65.66,-163.922,
43288710,-1.313,0.406,0.24,-6.44,-47.355,-198.03,
43288720,-1.175,-1.306,-1.107,-3.027,19.95,-222.88,
43288730,-1.909,-1.998,1.284,-53.025,278.057,-209.772,
43288740,-1.998,-1.485,-0.948,104.23,226.835,-420.122,
43288750,0.07,1.997,0.619,411.18,-131.67,-400.855,
43288760,1.998,1.074,1.459,311.045,-7.42,-244.247,
43288760,0.651,-1.959,0.766,134.417,213.255,-208.757,
43288780,1.767,0.862,1.219,284.497,157.71,-55.492,
43288780,1.187,-0.496,1.111,238.402,195.475,93.292,
43288800,-0.773,-0.105,1.31,220.937,205.012,148.855,
43288800,-1.903,0.411,1.596,190.137,140.472,86.17,
43288820,-0.642,0.215,1.421,99.295,66.727,0.91,
43288820,0.341,-0.208,1.126,33.932,22.452,-21.245,
43288830,0.218,-0.19,1.115,8.767,5.967,1.295,
43288840,-0.114,-0.134,1.071,-15.627,-4.235,16.065,
43288850,0.006,-0.144,1.099,-37.17,-20.545,11.042,
43288860,0.04,-0.568,0.946,-54.95,-27.632,11.672,
43288870,-0.12,-0.241,1.055,-63.262,-34.475,2.957,
43288880,-0.096,-0.221,1.119,-83.457,-47.547,-14.157,
43288890,0.152,-0.186,1.206,-106.067,-64.487,-21.525,
43288900,0.198,-0.222,1.175,-137.462,-82.547,-17.045,
43288910,0.3,-0.244,1.19,-161.805,-96.005,-12.25,
43288920,0.141,-0.37,1.068,-191.45,-99.697,-7.14,
43288930,0.285,-0.316,1.002,-203.455,-109.34,-6.002,
43288940,0.272,-0.315,0.944,-222.32,-109.34,-3.605,
43288950,0.329,-0.422,0.968,-237.597,-105.892,-2.187,
43288960,0.289,-0.408,1.085,-256.637,-108.482,5.53,
43288970,0.128,-0.511,1.226,-278.04,-132.3,11.9,
43288980,-0.156,-0.854,1.086,-284.865,-186.69,7.77,
43288990,0.152,-1.276,1.09,-264.267,-219.187,-12.092,
43289000,0.631,-1.589,0.71,-233.887,-174.65,-28.84,
43289010,0.963,-1.662,0.387,-189,-41.475,-35.315,
43289020,0.476,-1.514,-0.063,-131.022,144.462,-19.022,
43289030,-0.608,-1.239,0.498,-74.462,249.497,-52.692,
43289040,-1.21,-1.077,0.019,-63.647,248.447,-96.372,
43289050,-0.703,-0.82,0.084,-9.572,211.697,-65.135,
43289060,-0.269,-0.763,0.025,28.63,197.837,-20.16,
43289070,-0.38,-0.56,-0.144,50.697,174.44,-17.097,
43289080,-0.65,-0.271,-0.249,63.735,147.665,-15.382,
43289080,-0.728,-0.221,-0.244,51.712,123.462,-2.292,
43289100,-0.526,-0.389,-0.144,20.072,117.985,7.542,
43289100,-0.702,-0.614,-0.121,7.612,132.177,21.175,
43289120,-0.778,-0.45,-0.096,33.32,129.15,20.125,
43289120,-0.835,-0.283,-0.248,30.117,131.022,32.13,
43289140,-0.627,-0.141,-0.294,30.345,120.767,40.442,
43289140,-0.124,0.151,-0.409,26.075,108.64,33.46,
43289160,1.417,-0.237,1.049,17.062,122.605,6.3,
43289160,1.998,-0.816,1.969,59.885,119.437,-90.58,
43289170,0.749,-0.396,-0.118,103.967,9.537,-322.525,
43289180,-0.334,-1.575,-0.17,224.262,-10.465,-407.347,
43289190,1.988,-1.491,0.975,267.435,56.507,-234.255,
43289200,1.235,1.811,0.654,368.235,36.05,-48.002,
43289210,0.909,-1.006,1.346,326.882,104.72,42.84,
43289220,0.125,0.272,1.444,310.065,96.897,104.51,
43289230,0.031,-0.019,1.513,271.32,84.647,87.657,
43289240,-0.11,0.108,1.339,198.642,83.422,66.237,
43289250,-0.465,0.016,1.33,153.195,67.795,49.892,
43289260,-0.451,0.071,1.286,101.78,45.447,19.827,
43289270,-0.141,-0.066,1.191,60.917,16.642,3.465,
43289280,0.03,-0.191,1.146,23.1,-2.257,0,
43289290,-0.014,-0.123,1.131,-5.652,-16.24,7.052,
43289300,-0.009,-0.254,1.058,-33.162,-28.21,6.37,
43289310,0.096,-0.316,1.006,-50.295,-37.852,2.817,
43289320,0.163,-0.349,0.994,-63.42,-41.912,-1.102,
43289330,0.171,-0.351,1.002,-72.537,-43.872,-3.132,
43289340,-0.088,-0.049,1.213,-83.44,-47.057,-6.772,
43289350,-0.315,-0.178,1.089,-112.997,-64.207,-28.122,
43289360,1.142,-0.881,0.703,-144.287,-63.752,-51.747,
43289370,0.645,-0.452,0.852,-120.767,-38.92,-5.477,
43289380,0.094,-0.391,1.015,-123.06,-28.945,15.155,
43289390,0.169,-0.197,1.074,-147.997,-33.792,3.727,
43289400,0.383,-0.366,1.026,-172.462,-32.217,-0.28,
43289410,0.376,-0.492,0.964,-187.985,-28.822,11.655,
43289420,0.297,-0.502,1.002,-194.915,-32.34,27.037,
43289430,0.176,-0.376,1.008,-204.75,-41.877,43.032,
43289440,0.163,-0.341,1.061,-222.985,-56.28,56.84,
43289450,-0.101,-0.698,1.122,-244.93,-80.622,68.267,
43289460,-0.193,-1.003,1.124,-233.345,-123.025,61.145,
43289470,0.041,-1.284,1.124,-188.405,-154.98,40.617,
43289480,0.23,-1.43,0.986,-148.995,-150.71,6.912,
43289490,0.254,-1.434,0.472,-119.42,-98.612,-27.667,
43289500,-0.478,-1.135,0.524,-84.84,-58.625,-47.442,
43289510,-0.812,-1.092,0.465,-45.395,-12.162,-38.5,
43289510,-0.629,-0.751,0.286,48.37,9.17,13.492,
43289530,-0.321,-0.199,0.598,94.92,11.462,54.67,
43289530,-0.243,-0.278,0.715,93.362,57.19,110.67,
43289550,-0.42,0.021,0.502,141.137,59.062,128.397,
43289550,-0.507,0.638,0.269,193.375,44.642,137.76,
43289570,-0.394,0.963,0.044,197.452,41.142,146.965,
43289570,-0.341,0.791,0.047,155.645,54.057,139.335,
43289580,-0.33,0.291,0.005,118.895,71.102,121.345,
43289590,-0.26,0.232,-0.134,129.377,72.555,92.452,
43289600,-0.152,-0.261,-0.999,140.07,60.882,44.572,
43289610,1.961,-1.961,-1.538,140.122,159.932,-34.44,
43289620,0.832,-1.998,1.077,48.79,160.16,-241.692,
43289630,-1.998,-1.998,0.365,-101.062,-21.507,-526.802,
43289640,0.488,-1.937,0.146,240.012,-115.36,-451.552,
43289650,1.622,1.39,1.122,401.852,-44.992,-209.002,
43289660,0.354,-0.156,0.366,238.035,167.282,-67.34,
43289670,1.692,-1.2,0.804,298.585,140.962,-4.182,
43289680,0.776,0.438,1.398,390.495,151.882,123.812,
43289690,-1.742,0.889,1.909,296.222,170.17,88.462,
43289700,0.713,0.383,1.743,170.397,71.032,-35.875,
43289710,0.079,0.508,1.426,58.257,47.775,0.332,
43289720,-1.234,0.475,1.194,0.105,21.91,59.99,
43289730,-0.314,0.023,1.318,-45.36,-36.347,24.447,
43289740,0.28,-0.371,1.007,-100.345,-55.912,8.12,
43289750,0.113,-0.402,1.009,-104.685,-61.32,11.182,
43289760,0.209,-0.513,0.911,-113.435,-57.452,8.697,
43289770,0.404,-0.537,0.889,-112.77,-55.212,4.497,
43289780,0.231,-0.377,0.944,-108.5,-48.335,7.297,
43289790,0.162,-0.348,1.055,-118.755,-39.427,4.095,
43289800,0.265,-0.225,1.165,-136.29,-35.56,-1.137,
43289810,0.377,-0.282,1.187,-159.897,-25.637,-3.307,
43289820,0.469,-0.249,1.177,-180.932,-9.292,4.725,
43289830,0.526,-0.302,1.147,-200.025,10.535,14.21,
43289830,0.391,-0.326,1.059,-216.527,23.8,29.137,
43289850,0.311,-0.387,1.041,-227.185,24.92,44.432,
43289850,0.327,-0.505,1.126,-234.71,29.837,57.015,
43289870,0.379,-0.569,1.284,-234.272,46.165,63.087,
43289870,0.177,-0.719,1.599,-234.412,77.577,58.52,
43289890,-0.004,-0.969,1.69,-223.615,109.9,18.725,
43289890,0.172,-0.804,1.237,-176.522,156.765,-26.04,
43289910,0.516,-0.279,0.91,-130.795,173.862,-58.502,
43289910,0.668,-0.077,1.232,-121.047,198.922,-64.785,
43289920,0.303,-0.08,1.09,-85.697,209.247,-61.932,
43289930,0.338,0.353,1.027,-19.425,139.37,-85.662,
43289940,-0.057,0.931,1.646,55.562,47.145,-73.01,
43289950,0.263,1.029,0.588,122.622,-51.467,-59.587,
43289960,0.631,0.771,0.276,224.77,-87.675,-6.44,
43289970,0.388,0.827,-0.043,245.56,-109.672,-5.582,
43289980,-0.007,0.46,-0.42,202.527,-98.332,-0.752,
43289990,-0.132,-0.002,-0.606,157.465,-89.442,11.147,
43290000,-0.235,-0.226,-0.689,121.572,-92.505,21.682,
43290010,-0.333,-0.467,-0.6,83.212,-99.977,29.33,
43290020,-0.568,-1.002,-0.871,62.947,-123.427,14.507,
43290030,0.266,-1.998,-0.299,65.275,-27.335,-34.055,
43290040,-1.998,-1.998,-0.519,-112.875,240.555,-185.517,
43290050,-1.998,-0.544,0.662,293.982,-77.402,-240.327,
43290060,0.849,1.997,-0.481,405.387,-221.865,-187.32,
43290070,1.978,1.681,1.891,387.502,-117.635,-98.14,
43290080,-0.548,-1.928,0.809,78.33,168.105,-92.382,
43290090,1.679,0.707,1.31,274.61,105.332,-17.71,
43290100,0.036,-0.488,1.473,231.717,121.065,38.955,
43290110,0.117,0.198,1.432,139.02,124.722,35.035,
43290120,-0.553,0.368,1.469,106.662,80.955,47.25,
43290130,-0.868,0.212,1.207,33.775,35.297,40.372,
43290140,-0.336,-0.11,1.085,-12.407,-5.897,14.122,
43290150,0.183,-0.338,0.999,-36.172,-25.025,3.64,
43290160,0.2,-0.334,0.997,-42.507,-30.24,9.065,
43290170,0.193,-0.397,0.941,-49.927,-28.595,12.617,
43290180,0.117,-0.415,0.939,-50.977,-25.987,12.635,
43290190,0.134,-0.332,0.988,-51.957,-24.482,8.872,
43290200,0.221,-0.326,1.044,-59.92,-22.942,5.512,
43290210,0.429,-0.312,1.105,-72.467,-22.487,7.875,
43290220,0.422,-0.29,1.172,-90.247,-14.49,18.952,
43290230,0.525,-0.343,1.221,-113.452,-0.717,32.637,
43290240,0.557,-0.399,1.192,-133,19.582,50.067,
43290250,0.471,-0.416,1.092,-145.425,37.502,71.085,
43290260,0.406,-0.512,0.948,-153.65,40.827,92.977,
43290260,0.301,-0.609,0.924,-164.342,21.437,119.805,
43290270,0.501,-0.744,0.93,-170.607,12.442,144.655,
43290280,0.389,-0.726,0.996,-157.132,-5.32,152.302,
43290290,0.305,-1.254,0.745,-156.257,-34.177,147.945,
43290300,0.071,-1.406,0.689,-132.597,-69.405,156.467,
43290310,0.412,-1.401,0.604,-115.447,-90.422,160.492,
43290320,0.327,-1.454,0.472,-75.355,-79.695,184.87,
43290330,1.078,-0.467,0.301,-43.802,-115.482,162.872,
43290340,0.7,-0.34,0.49,-2.765,-124.512,182.402,
43290350,1.494,-0.979,-0.083,-13.457,-90.527,144.532,
43290360,1.383,-0.192,0.154,3.5,-103.022,67.112,
43290370,0.426,0.606,0.208,-3.272,-117.512,-53.112,
43290380,-0.745,0.651,0.07,-44.52,-112.192,-107.275,
43290390,-1.59,0.662,-0.007,-64.522,-171.517,-138.372,
43290400,-1.349,0.387,0.14,-66.15,-222.092,-128.8,
43290410,-0.917,0.156,0.107,-62.16,-237.317,-92.067,
43290420,-0.561,0.092,0.125,-40.81,-223.23,-77.63,
43290430,-0.56,0.043,0.205,-29.137,-183.82,-73.64,
43290440,-0.589,-0.92,1.193,-53.83,-71.102,-80.15,
43290450,-1.839,-1.993,1.508,-18.375,228.305,23.327,
43290460,-1.418,-1.998,-1.263,216.405,215.932,-61.215,
43290470,1.802,0.716,1.556,365.802,55.107,-219.52,
43290480,0.777,1.817,0.945,333.55,62.51,-70.787,
43290490,1.611,-1.578,1.069,250.075,169.26,-71.347,
43290500,0.494,-0.534,0.888,288.365,153.002,-10.097,
43290510,1.162,0.477,1.547,320.425,139.002,38.552,
43290520,-0.723,-0.128,1.526,228.725,162.96,60.532,
43290530,-0.718,0.527,1.62,185.727,108.395,37.03,
43290540,-0.522,0.289,1.424,97.44,60.76,11.445,
43290550,-0.133,-0.092,1.13,30.345,25.305,4.515,
43290560,-0.063,-0.187,1.044,1.82,3.64,8.05,
43290570,-0.061,-0.305,0.988,-13.545,-7.647,9.117,
43290580,0.098,-0.318,0.98,-19.197,-15.61,5.46,
43290580,0.113,-0.404,0.937,-27.86,-15.89,4.305,
43290600,0.104,-0.351,0.953,-25.585,-17.692,3.867,
43290600,0.11,-0.348,0.977,-29.365,-17.587,1.452,
43290620,0.186,-0.33,1.006,-34.457,-18.13,-0.017,
43290620,0.147,-0.32,1.067,-42.437,-17.482,1.505,
43290640,0.315,-0.296,1.095,-53.847,-18.795,5.232,
43290640,0.213,-0.243,1.225,-74.637,-14.927,10.972,
43290660,0.231,-0.223,1.296,-101.797,-11.9,17.167,
43290660,0.273,-0.238,1.32,-127.225,-3.797,24.167,
43290670,0.27,-0.34,1.269,-147.157,1.4,33.267,
43290680,0.299,-0.474,1.222,-148.277,-6.09,44.065,
43290690,0.305,-0.779,1.197,-140.717,-15.715,47.81,
43290700,-0.021,-1.069,0.777,-131.442,-17.517,45.955,
43290710,0.281,-1.125,0.689,-98.752,-8.522,32.41,
43290720,0.537,-1.856,0.942,-89.687,16.8,32.48,
43290730,0.867,-1.998,1.046,-65.59,60.532,33.18,
43290740,1.194,-1.998,-0.463,33.6,74.462,1.995,
43290750,0.686,-0.837,-1.365,131.337,43.89,-60.83,
43290760,-0.152,0.029,-0.92,62.562,4.007,-139.79,
43290770,-0.09,-0.715,-0.972,-90.335,-2.24,-230.667,
43290780,-0.358,-1.016,-0.605,-185.622,-40.985,-269.745,
43290790,-0.35,-0.957,-0.385,-233.1,-75.897,-283.255,
43290800,-0.428,-0.797,-0.37,-256.217,-98.035,-279.79,
43290810,-0.619,-0.508,-0.306,-257.425,-130.427,-265.702,
43290820,-0.598,-0.264,0.055,-237.86,-159.722,-229.757,
43290830,-0.243,0.219,0.293,-216.212,-152.687,-176.487,
43290840,-0.51,0.59,0.539,-190.802,-94.342,-120.837,
43290850,-1.104,0.559,0.907,-140.472,-37.432,-71.382,
43290860,0.963,-0.363,1.996,-15.19,158.427,-16.065,
43290870,-0.412,-0.88,1.174,217.98,418.285,91.892,
43290880,1.073,-1.966,0.11,372.837,194.512,-89.215,
43290890,-0.809,-0.692,1.315,334.18,223.895,-118.282,
43290900,0.898,1.713,1.044,409.045,105.822,-88.025,
43290910,1.382,-0.723,1.621,330.015,179.007,-33.197,
43290920,0.285,0.348,1.546,253.435,200.567,18.375,
43290930,-0.834,0.407,1.776,199.36,155.505,36.592,
43290940,-0.922,0.595,1.59,106.47,87.64,28.367,
43290940,-0.449,0.129,1.382,25.532,26.477,14.367,
43290960,-0.034,-0.141,1.254,-35.105,-11.13,8.75,
43290960,0.06,-0.143,1.091,-56.087,-37.397,12.337,
43290980,0.216,-0.386,0.973,-86.695,-45.395,15.19,
43290980,0.25,-0.458,0.865,-93.52,-47.495,21.28,
43291000,0.268,-0.638,0.719,-87.657,-45.797,22.382,
43291000,0.294,-0.638,0.66,-67.532,-37.677,19.04,
43291010,0.231,-0.697,0.663,-49.682,-20.317,14.525,
43291020,0.218,-0.57,0.73,-29.085,-8.522,9.222,
43291030,0.296,-0.482,0.819,-15.452,0.385,4.41,
43291040,0.026,-0.427,1.009,-12.162,6.755,2.94,
43291050,-0.649,0.085,1.072,-19.617,-4.48,-2.642,
43291060,1.016,-0.851,1.009,-39.585,-0.542,-38.01,
43291070,0.436,-0.503,0.822,-45.08,8.102,-19.25,
43291080,0.482,-0.383,0.963,-33.127,6.125,14.437,
43291090,-0.211,-0.513,0.846,-42.682,4.462,28.927,
43291100,-0.222,-0.563,0.882,-36.785,-14.98,19.442,
43291110,-0.316,-0.361,0.866,-33.04,-37.485,7.77,
43291120,-0.368,-0.361,0.793,-38.062,-59.115,-9.327,
43291130,-0.313,-0.429,0.791,-42.21,-83.632,-26.04,
43291140,-0.248,-0.498,0.711,-41.65,-103.827,-42.875,
43291150,-0.042,-0.634,0.663,-34.755,-118.02,-56.787,
43291160,0.324,-0.608,0.616,-22.295,-123.707,-60.095,
43291170,0.778,-0.623,0.55,-6.685,-113.61,-54.74,
43291180,0.972,-0.596,0.468,9.415,-83.282,-41.422,
43291190,0.925,-0.484,0.476,27.055,-39.235,-23.817,
43291200,-0.38,-1.66,0.856,36.452,-2.135,-25.235,
43291210,0.625,0.124,0.281,84.087,-14.857,-100.887,
43291220,1.439,0.397,0.731,91.052,43.995,-53.707,
43291230,0.656,-1.554,0.512,48.352,89.005,7.682,
43291240,1.725,0.755,0.41,130.077,93.222,46.392,
43291250,0.858,-1.378,0.947,81.672,195.737,125.02,
43291260,-0.924,-0.699,0.935,109.672,165.182,147.717,
43291270,-0.735,0.113,1.218,143.307,101.587,90.457,
43291280,-1.146,0.066,1.209,95.515,75.67,36.557,
43291290,-0.262,-0.049,1.235,64.697,32.41,-14.892,
43291300,0.174,-0.154,1.19,27.737,3.657,-26.6,
43291310,0.235,-0.108,1.12,-0.682,-11.97,-12.302,
43291320,0.103,-0.294,0.979,-23.957,-20.142,0.122,
43291330,0.179,-0.417,0.855,-29.417,-25.987,3.745,
43291330,0.197,-0.566,0.777,-24.255,-22.68,2.415,
43291350,0.275,-0.524,0.808,-10.412,-17.045,-1.295,
43291350,0.307,-0.472,0.843,-2.03,-9.31,-2.765,
43291370,0.282,-0.405,0.895,1.96,-1.54,-1.715,
43291370,0.173,-0.394,0.963,0.752,2.345,-0.35,
43291390,0.126,-0.329,0.999,-5.04,-0.385,-1.015,
43291390,0.069,-0.237,1.05,-16.695,-5.425,-3.325,
43291410,-0.056,-0.283,1.181,-35.472,-16.117,-6.86,
43291410,-0.168,-0.206,1.232,-59.36,-40.407,-9.485,
43291420,-0.249,-0.249,1.287,-84.07,-74.83,-16.607,
43291430,-0.453,-0.312,1.427,-106.015,-125.125,-27.317,
43291440,-0.696,-0.28,1.55,-120.47,-204.452,-44.205,
43291450,-0.816,-0.288,1.31,-140.42,-299.81,-70.647,
43291460,-0.81,-0.519,0.892,-156.397,-369.04,-93.205,
43291470,-0.023,-0.763,0.727,-193.2,-374.605,-141.277,
43291480,0.141,-0.948,0.532,-213.43,-354.585,-210.682,
43291490,0.217,-0.052,0.693,-227.01,-274.487,-268.485,
43291500,1.005,-1.011,0.77,-302.855,-98.56,-300.58,
43291510,-1.424,-1.998,1.961,-328.545,143.832,-154.7,
43291520,-1.998,-1.998,1.299,-233.012,280.49,34.037,
43291530,-0.928,-1.647,0.573,75.722,158.865,113.995,
43291540,0.962,-0.454,0.803,160.422,122.045,191.082,
43291550,0.673,-0.723,0.86,15.242,173.407,206.447,
43291560,0.142,-1.264,0.8,-66.657,201.652,177.94,
43291570,0.458,-1.123,0.923,-35.052,196.227,172.007,
43291580,0.592,-0.479,0.858,-9.205,196.07,213.815,
43291590,0.584,0.094,0.812,8.47,182.735,249.34,
43291600,0.671,0.316,0.629,6.58,162.89,274.75,
43291610,0.756,0.342,0.508,20.457,132.527,300.982,
43291620,1.062,0.605,0.549,54.092,95.725,308.297,
43291630,1.183,0.968,0.644,67.077,66.815,309.277,
43291640,1.122,1.067,0.667,62.475,37.257,298.532,
43291650,1.086,0.908,0.622,66.885,5.74,276.237,
43291660,1.098,0.805,0.555,98.385,-26.145,247.677,
43291670,1.18,0.746,0.388,138.145,-50.977,213.815,
43291670,1.11,0.743,0.205,164.92,-70,176.995,
43291690,0.834,0.844,0.152,161.052,-106.75,135.292,
43291690,1.152,0.405,0.329,123.935,-131.565,83.912,
43291710,1.396,-0.495,0.305,78.645,-119.245,20.212,
43291710,0.928,-0.963,-0.313,68.757,-113.715,-75.512,
43291730,1.38,-1.976,1.147,11.707,-35.682,-222.512,
43291730,-1.933,-1.998,0.829,-147.262,-35.402,-426.265,
43291750,-1.535,-1.482,-0.197,62.51,-53.97,-383.232,
43291750,1.248,1.939,0.46,242.165,-211.452,-214.06,
43291760,1.998,1.997,1.607,173.617,-143.99,-190.032,
43291770,0.939,-0.857,1,37.432,18.655,-110.11,
43291780,1.004,-1.615,0.874,84.962,41.51,-33.775,
43291790,1.34,0.716,1.012,186.095,22.172,43.802,
43291800,-0.004,-0.493,1.077,125.265,73.29,88.55,
43291810,-0.405,0.18,1.296,116.217,53.637,87.587,
43291820,-0.882,0.348,1.334,75.232,27.807,50.435,
43291830,-0.559,-0.124,1.108,13.632,-3.587,-1.54,
43291840,0.244,-0.301,0.933,-10.64,-32.497,-35.735,
43291850,0.513,-0.58,0.807,-20.177,-27.86,-34.65,
43291860,0.523,-0.499,0.821,-2.59,-17.465,-18.497,
43291870,0.378,-0.434,0.833,12.372,-5.425,3.097,
43291880,0.121,-0.424,0.863,21.175,3.587,13.755,
43291890,0.007,-0.366,0.901,27.895,5.005,10.99,
43291900,0.054,-0.353,0.915,28.227,2.94,0.822,
43291910,0.18,-0.395,0.919,26.197,1.172,-7.77,
43291920,0.228,-0.293,0.986,24.815,0.577,-8.225,
43291930,0.18,-0.278,0.992,15.995,0.945,-4.847,
43291940,0.119,-0.298,0.972,6.457,-0.752,-2.415,
43291950,0.134,-0.29,0.985,-0.542,-4.112,-3.535,
43291960,0.168,-0.259,1.004,-8.925,-7.21,-4.007,
43291970,0.184,-0.3,1.007,-20.615,-8.907,-3.57,
43291980,0.209,-0.304,1.02,-31.71,-9.975,-3.605,
43291990,0.271,-0.273,1.09,-45.587,-10.22,-2.922,
43292000,0.356,-0.225,1.189,-67.305,-9.065,-0.105,
43292010,0.524,-0.218,1.302,-97.702,-2.1,5.53,
43292020,0.53,-0.199,1.377,-131.127,12.67,13.755,
43292030,0.585,-0.255,1.398,-158.952,30.45,22.4,
43292040,0.232,-0.392,1.316,-186.76,42.367,34.807,
43292050,0.182,-0.556,1.265,-190.977,16.117,48.23,
43292060,0.521,-0.966,1.399,-183.032,6.86,65.467,
43292070,0.41,-1.284,0.917,-159.197,14.577,75.005,
43292080,0.431,-0.88,1.219,-124.232,22.75,56.717,
43292080,0.31,-0.744,0.502,-109.952,48.685,45.185,
43292100,0.133,-1.7,-0.368,-83.842,51.572,2.905,
43292100,1.962,-1.748,-0.242,-60.83,100.817,-114.8,
43292120,1.472,-0.155,0.175,-85.907,33.512,-228.777,
43292120,-0.777,1.128,0.389,-119.91,49.035,-374.097,
43292140,-1.998,0.708,0.872,-187.6,20.632,-381.78,
43292140,-1.611,-0.144,0.886,-153.947,-31.937,-275.38,
43292160,-0.625,0.663,0.19,20.755,-80.902,-118.755,
43292160,-0.235,1.831,0.075,120.4,-90.16,-42.63,
43292170,-0.027,1.156,-0.27,46.2,-13.912,-19.967,
43292180,-0.388,-0.092,-0.663,-8.995,25.392,-15.102,
43292190,-0.758,-0.413,-0.847,35.14,-38.167,-46.095,
43292200,-0.989,-1.064,-0.868,9.852,-101.587,-99.627,
43292210,-0.404,-1.998,0.716,-67.147,83.125,-88.06,
43292220,-0.226,-1.998,-0.316,182.332,182.525,-137.69,
43292230,1.804,1.239,1.384,503.58,45.237,-224.262,
43292240,1.048,1.834,1.38,443.45,46.305,-73.745,
43292250,1.803,-1.833,1.043,172.095,244.86,-27.912,
43292260,0.528,-0.058,0.895,238.122,262.552,41.422,
43292270,-1.189,1.389,1.971,292.967,189,74.322,
43292280,-1.252,1.185,1.536,77.857,98.857,46.06,
43292290,-0.494,-0.148,1.195,-7.192,2.537,27.352,
43292300,0.095,-0.246,1.019,-45.342,-32.532,19.985,
43292310,0.27,-0.604,0.841,-47.897,-41.632,22.995,
43292320,0.51,-0.713,0.755,-33.04,-32.602,22.61,
43292330,0.196,-0.452,0.864,-5.145,-17.307,22.505,
43292340,-0.065,-0.284,0.939,-1.487,-9.467,15.522,
43292350,0.288,-0.369,0.937,-6.405,-11.322,1.505,
43292360,0.311,-0.305,0.981,-10.36,-7.507,1.907,
43292370,0.226,-0.23,1.032,-17.167,-5.127,9.222,
43292380,0.141,-0.232,1.055,-31.902,-6.65,12.582,
43292390,0.229,-0.267,1.061,-48.3,-10.29,13.23,
43292400,0.274,-0.299,1.073,-64.085,-12.792,17.885,
43292410,-0.021,-0.279,1.001,-81.882,-18.865,25.392,
43292420,0.731,-0.34,1.211,-105.367,-39.672,37.957,
43292420,0.377,-0.242,1.173,-132.002,-33.355,52.64,
43292440,0.309,-0.41,1.121,-157.605,-26.88,68.215,
43292440,0.256,-0.464,1.18,-166.232,-36.575,88.952,
43292460,0.076,-0.734,1.101,-178.535,-53.532,107.31,
43292460,0.098,-0.693,1.022,-180.145,-68.407,117.442,
43292480,0.523,-1.101,0.934,-145.197,-76.23,117.197,
43292480,0.296,-1.131,0.626,-116.147,-82.442,133.857,
43292500,0.368,-1.43,0.102,-92.295,-88.9,130.655,
43292500,0.117,-1.888,0.652,-98.175,-63.665,122.115,
43292510,0.554,-1.806,0.034,-66.045,-47.827,125.02,
43292520,0.882,-0.994,0.189,29.82,-59.255,153.772,
43292530,1.218,-0.728,-0.255,28.84,-46.305,130.357,
43292540,1.25,-0.455,-0.071,6.912,-43.032,70.577,
43292550,0.744,-0.015,-0.192,-12.11,-43.977,-1.417,
43292560,0.071,0.439,-0.09,-29.487,-54.827,-63.525,
43292570,0.001,0.378,0.091,-65.257,-62.965,-105,
43292580,-0.013,0.243,0.212,-92.96,-68.355,-119.77,
43292590,-0.096,0.404,0.26,-84.227,-76.16,-131.127,
43292600,0.038,0.615,0.264,-59.622,-59.167,-138.81,
43292610,-0.181,0.911,0.089,-41.387,-17.062,-130.987,
43292620,-0.636,0.953,0.073,-14.122,3.85,-119.665,
43292630,-0.129,-0.771,1.213,-1.925,123.182,-64.732,
43292640,-1.998,-1.998,-0.203,-1.82,354.287,67.497,
43292650,0.322,-1.957,0.576,344.155,77.525,-70.77,
43292660,1.659,1.591,0.982,463.802,-24.762,-281.102,
43292670,0.61,1.34,1.659,366.432,56.175,-112.472,
43292680,1.97,-1.967,1.333,190.96,183.347,-68.617,
43292690,1.227,1.213,1.303,269.395,174.457,-0.647,
43292700,-0.939,-0.36,1.619,211.907,183.067,89.442,
43292710,-1.617,1.041,1.667,155.067,98.49,58.572,
43292720,-0.425,0.148,1.317,46.13,32.865,8.032,
43292730,-0.094,0.186,1.286,-11.375,-9.397,3.045,
43292740,-0.107,-0.128,1.065,-56.157,-33.757,12.582,
43292750,0.141,-0.348,1.12,-67.025,-53.865,16.835,
43292760,0.236,-0.495,0.861,-87.955,-51.362,12.582,
43292770,-0.272,-0.113,1.189,-82.705,-51.835,9.695,
43292780,-0.308,-0.383,0.911,-105.175,-73.027,-12.757,
43292790,1.207,-0.838,0.673,-115.185,-69.545,-33.95,
43292800,0.74,-0.445,0.807,-93.625,-38.43,1.242,
43292810,0.052,-0.523,0.945,-95.357,-10.045,18.515,
43292820,0.22,-0.356,1.008,-94.15,-9.152,9.397,
43292830,0.294,-0.326,1.025,-107.922,-5.285,8.26,
43292830,0.323,-0.377,1.046,-120.102,-1.487,12.582,
43292850,0.302,-0.453,1.036,-134.522,2.327,20.457,
43292850,0.31,-0.513,0.993,-144.042,2.117,29.54,
43292870,0.357,-0.565,0.973,-151.637,1.855,42.612,
43292870,0.353,-0.694,1.049,-150.412,0.227,53.882,
43292890,0.319,-0.857,1.165,-142.205,-2.94,67.987,
43292890,0.107,-1.033,1.038,-118.965,-4.497,88.287,
43292910,-0.204,-0.819,0.774,-91.245,-16.835,81.34,
43292910,-0.006,-0.735,0.663,-69.877,-31.552,49.49,
43292920,0.136,-1.053,0.265,-68.355,-27.842,37.467,
43292930,0.309,-1.492,0.087,-56.035,-14.735,17.115,
43292940,0.614,-1.278,0.119,-36.872,-8.785,-9.327,
43292950,1.025,-0.325,-0.108,9.24,-9.17,-22.592,
43292960,0.439,0.704,0.276,9.537,-26.232,-62.877,
43292970,-0.01,0.391,0.427,-39.847,-12.775,-101.692,
43292980,-0.349,0.241,0.1,-18.497,-28.367,-101.08,
43292990,-0.439,1.042,0.065,27.44,-62.002,-92.96,
43293000,-0.114,0.941,0.359,10.535,-42.087,-72.537,
43293010,0.017,0.223,0.149,-10.43,0.997,-71.942,
43293020,0.247,-0.109,0.362,21.175,32.025,-104.51,
43293030,-1.454,-1.738,0.722,-15.4,210.612,-93.082,
43293040,-1.66,-1.998,-0.996,46.9,126.087,-155.417,
43293050,1.892,-0.087,1.711,311.342,-20.825,-312.602,
43293060,1.045,1.972,0.783,300.737,1.995,-243.932,
43293070,0.06,-0.777,1.018,190.435,134.47,-192.342,
43293080,1.961,-0.364,1.173,252.542,108.08,-152.897,
43293090,0.795,0.196,1.299,204.242,167.16,-33.757,
43293100,-0.438,-0.249,1.444,155.4,165.217,31.08,
43293110,0.02,0.18,1.39,134.767,110.372,31.045,
43293120,-0.362,0.08,1.36,81.427,73.255,36.137,
43293130,-0.432,-0.019,1.213,37.555,30.765,33.32,
43293140,-0.176,-0.236,1.048,4.987,0.21,20.037,
43293150,0.081,-0.332,0.99,-10.36,-16.38,10.22,
43293160,0.182,-0.376,0.945,-20.055,-21.77,8.487,
43293170,0.163,-0.354,0.963,-24.43,-22.995,9.52,
43293170,0.105,-0.358,0.953,-31.727,-23.537,7.77,
43293190,0.151,-0.378,0.956,-37.047,-26.302,3.57,
43293190,0.176,-0.358,0.977,-42.805,-28.735,0.752,
43293210,0.14,-0.319,1.035,-51.082,-32.375,1.312,
43293210,0.154,-0.28,1.097,-65.38,-39.112,2.222,
43293230,0.199,-0.257,1.131,-86.205,-46.567,3.657,
43293230,0.261,-0.275,1.156,-111.597,-51.467,6.755,
43293250,0.288,-0.229,1.146,-139.982,-52.885,12.232,
43293250,0.324,-0.33,1.069,-166.197,-56.735,21.525,
43293260,0.429,-0.239,0.989,-184.012,-64.225,36.785,
43293270,0.485,-0.566,1.001,-198.59,-70,58.047,
43293280,0.394,-0.745,1.068,-206.92,-79.852,80.552,
43293290,0.353,-1.113,0.94,-186.777,-100.362,92.645,
43293300,0.349,-1.219,0.82,-144.777,-109.62,102.182,
43293310,-0.036,-0.938,0.505,-97.527,-117.337,111.65,
43293320,-0.193,-1.165,0.749,-57.522,-134.855,93.817,
43293330,-0.202,-1.43,0.865,-83.037,-110.425,75.845,
43293340,-0.147,-1.823,-0.077,-37.94,-68.32,85.925,
43293350,0.191,-1.284,-0.313,58.117,-24.167,113.295,
43293360,0.23,-0.254,-0.447,77.91,-59.937,105.7,
43293370,0.395,-0.215,-0.431,43.295,-76.422,90.457,
43293380,0.298,-0.454,-0.367,-2.502,-83.265,81.83,
43293390,0.188,-0.361,-0.381,-17.762,-84.227,64.68,
43293400,0.265,-0.175,-0.227,-7,-91.647,35.315,
43293410,0.339,0.035,-0.17,-26.005,-77.542,-0.35,
43293420,0.034,0.497,-0.139,-44.94,-64.47,-41.842,
43293430,0,0.762,-0.071,-52.815,-57.067,-106.592,
43293440,0.919,0.215,0.789,-55.65,16.152,-153.912,
43293450,-1.585,-1.645,1.577,-65.065,258.982,-89.687,
43293460,-1.015,-1.998,-1.542,109.777,125.405,-159.6,
43293470,1.998,-1.265,1.552,362.985,117.355,-271.862,
43293480,-0.402,1.292,0.406,214.165,167.58,-194.477,
43293490,0.788,-0.166,0.739,260.96,162.662,-146.282,
43293500,1.531,-0.644,1.346,298.83,124.442,-81.48,
43293510,0.51,0.513,1.392,228.777,145.6,0.77,
43293520,0.454,-0.339,1.378,162.592,146.982,39.147,
43293530,-0.079,0.174,1.476,133.122,115.202,70.472,
43293540,-0.912,0.067,1.388,79.012,71.505,72.502,
43293550,-0.594,0.063,1.261,33.687,15.032,40.862,
43293560,0.002,-0.277,1.066,-8.522,-18.987,15.312,
43293570,0.207,-0.378,0.958,-29.067,-33.285,10.972,
43293580,0.234,-0.443,0.943,-39.602,-35.455,13.317,
43293580,0.25,-0.46,0.912,-44.502,-37.31,16.975,
43293590,0.296,-0.542,0.862,-46.06,-41.055,27.02,
43293600,0.189,-0.45,0.896,-44.415,-39.2,30.082,
43293610,0.179,-0.398,0.915,-48.037,-35.805,24.185,
43293620,0.288,-0.404,0.953,-54.897,-33.477,15.645,
43293630,0.352,-0.384,0.997,-70.122,-33.075,16.152,
43293640,0.313,-0.331,1.016,-89.862,-34.492,22.155,
43293650,0.327,-0.329,1.038,-109.567,-37.205,28.91,
43293660,0.379,-0.356,1.051,-130.41,-36.697,37.24,
43293670,0.373,-0.427,1.02,-150.885,-30.905,47.687,
43293680,0.482,-0.561,0.966,-162.82,-25.392,59.482,
43293690,0.603,-0.627,1.006,-168.332,-21.892,76.545,
43293700,0.64,-0.707,1.079,-173.075,-19.39,100.03,
43293710,0.336,-0.892,1.09,-170.012,-27.58,125.142,
43293720,0.031,-1.005,0.963,-152.18,-67.13,148.137,
43293730,-0.049,-1.177,-0.028,-115.727,-156.73,147.245,
43293740,1.266,-1.998,0.963,-71.26,-210.07,119.402,
43293750,0.913,-1.533,0.121,-92.277,-165.847,140.332,
43293760,1.322,0.141,0.291,15.697,-205.712,154.297,
43293770,1.115,0.002,-0.178,48.702,-183.82,198.59,
43293780,1.053,0.553,-0.021,23.205,-214.602,124.32,
43293790,0.652,0.803,0.346,4.287,-223.422,54.862,
43293800,0.127,0.341,0.453,-8.575,-217.052,15.12,
43293810,-0.172,0.403,0.26,5.582,-219.135,-15.767,
43293820,-0.163,0.605,0.258,37.292,-210.192,-31.045,
43293830,-0.312,0.387,0.247,27.457,-176.295,-47.582,
43293840,-0.508,-0.062,0.133,2.17,-135.642,-77.77,
43293850,-0.772,-0.31,0.004,6.912,-96.74,-92.575,
43293860,-0.48,-1.066,0.225,34.65,-32.322,-86.59,
43293870,-1.382,-1.984,0.324,28.752,282.117,31.675,
43293880,-1.605,-1.998,-0.954,125.737,345.537,2.52,
43293890,1.933,0.485,1.338,365.715,164.885,-245.175,
43293900,-0.278,1.989,1.603,331.187,130.707,-109.077,
43293910,1.031,-1.29,0.718,228.305,159.687,-59.132,
43293920,1.524,-1.14,1.127,281.085,151.042,-41.44,
43293920,0.897,1.168,1.122,287.105,156.887,26.372,
43293940,-0.127,-0.418,1.525,194.285,188.527,62.825,
43293940,-0.918,0.142,1.429,165.97,128.695,57.067,
43293960,-0.644,0.099,1.446,124.95,66.027,26.075,
43293960,-0.113,-0.031,1.25,56.682,26.95,-0.227,
43293980,0.174,-0.178,1.143,17.01,1.505,0.315,
43293980,0.051,-0.24,1.097,-12.302,-10.885,9.012,
43294000,0.059,-0.219,1.027,-32.48,-24.255,13.807,
43294000,0.198,-0.398,0.904,-46.497,-32.602,15.102,
43294010,0.257,-0.539,0.83,-47.81,-32.567,14.91,
43294020,0.226,-0.504,0.799,-38.972,-28.49,14.35,
43294030,0.281,-0.527,0.812,-28.98,-23.782,12.512,
43294040,0.205,-0.454,0.836,-21.175,-16.992,9.187,
43294050,0.205,-0.449,0.872,-18.252,-10.552,4.865,
43294060,0.206,-0.376,0.927,-17.202,-8.417,0.822,
43294070,0.2,-0.377,0.979,-23.502,-8.715,-0.42,
43294080,0.218,-0.319,1.037,-36.032,-13.055,0.875,
43294090,0.191,-0.299,1.09,-55.387,-18.217,1.627,
43294100,0.162,-0.259,1.107,-79.625,-25.812,1.592,
43294110,0.182,-0.234,1.128,-104.527,-32.742,1.015,
43294120,0.152,-0.251,1.12,-131.792,-38.15,2.817,
43294130,0.178,-0.272,1.089,-151.865,-45.01,5.845,
43294140,0.148,-0.314,1.026,-168.84,-49.367,9.765,
43294150,0.059,-0.471,1.057,-182.752,-59.622,13.58,
43294160,-0.074,-0.493,1.116,-186.602,-88.427,16.03,
43294170,-0.014,-0.714,1.015,-180.162,-127.382,7.927,
43294180,0.118,-1,1.056,-152.775,-154.472,3.57,
43294190,0.188,-0.95,0.709,-125.965,-164.027,-8.662,
43294200,0.259,-0.7,0.599,-97.982,-152.215,-20.982,
43294210,0.22,-1.03,0.644,-99.207,-117.197,-15.645,
43294220,0.42,-1.305,0.767,-62.807,-72.31,-3.132,
43294230,0.406,-1.19,0.648,36.855,-1.347,48.02,
43294240,-1.46,0.364,0.154,146.737,7.735,137.795,
43294250,-0.685,0.823,-0.169,172.97,-99.435,125.002,
43294260,0.544,0.338,-0.171,162.855,-100.467,157.85,
43294260,0.118,0.57,-0.701,145.39,-87.71,167.772,
43294280,-0.247,1.273,-0.783,133.647,-85.33,131.005,
43294280,0.224,0.236,-0.078,65.327,-115.395,82.18,
43294300,1.773,-1.998,-0.2,-7.262,199.377,-30.905,
43294300,-1.706,-1.935,0.192,72.66,123.34,-242.077,
43294320,-0.028,1.456,0.979,280.42,74.48,-113.33,
43294320,1.998,1.628,0.994,350.07,59.657,-54.302,
43294330,0.794,-1.547,1.202,195.212,169.75,-28.437,
43294340,0.733,-0.308,1.018,227.185,171.85,18.917,
43294350,0.234,0.751,1.746,234.71,153.387,50.977,
43294360,-1.063,-0.004,1.501,113.855,136.412,48.737,
43294370,-0.583,0.365,1.533,80.92,52.5,21.7,
43294380,-0.297,-0.114,1.196,2.397,9.975,5.162,
43294390,0.07,-0.273,1.062,-26.11,-22.4,0.787,
43294400,0.188,-0.371,0.94,-43.015,-33.46,4.095,
43294410,0.223,-0.453,0.931,-48.387,-35.945,5.302,
43294420,0.241,-0.428,0.892,-53.182,-34.895,6.737,
43294430,0.244,-0.477,0.839,-52.727,-32.287,5.495,
43294440,0.257,-0.487,0.858,-48.545,-27.93,2.975,
43294450,0.27,-0.428,0.878,-46.917,-23.187,1.767,
43294460,0.232,-0.42,0.915,-48.545,-19.215,0.507,
43294470,0.277,-0.397,0.93,-52.605,-18.217,-1.05,
43294480,0.249,-0.37,0.992,-59.692,-15.365,-2.555,
43294490,0.206,-0.308,1.065,-74.655,-13.737,-2.94,
43294500,0.126,-0.27,1.141,-95.69,-17.78,-4.112,
43294510,0.121,-0.21,1.168,-123.672,-25.725,-5.74,
43294520,0.125,-0.23,1.159,-152.652,-35.315,-8.872,
43294530,0.078,-0.309,1.104,-178.185,-43.102,-8.417,
43294540,0.045,-0.276,1.013,-196.7,-51.905,-8.47,
43294550,0.077,-0.384,0.955,-213.307,-62.947,-8.54,
43294560,0.02,-0.551,0.98,-229.757,-82.792,-5.232,
43294570,-0.033,-0.717,0.988,-234.272,-119.42,-7.7,
43294580,0.093,-0.779,0.96,-224.997,-150.412,-16.905,
43294590,0.166,-0.989,0.941,-209.51,-160.037,-29.452,
43294600,0.447,-1.237,0.837,-176.435,-136.972,-49.577,
43294610,1.133,-1.581,1.082,-115.36,-58.625,-66.36,
43294620,0.656,-1.276,0.953,-45.132,87.237,-27.737,
43294630,-1.508,-0.115,0.97,19.88,120.855,-13.632,
43294640,-1.781,0.238,0.208,49.595,26.705,-32.83,
43294650,-0.356,0.483,-0.095,130.095,-58.187,39.9,
43294660,0.582,0.455,0.1,152.425,-45.92,122.64,
43294670,0.353,0.418,-0.491,129.15,1.995,114.73,
43294670,-0.014,0.618,-0.915,141.96,16.397,68.197,
43294690,0.244,0.022,-1.445,106.522,15.907,26.897,
43294690,1.693,-1.619,-1.532,17.99,33.267,-72.17,
43294710,1.134,-1.998,-0.064,-112.122,251.125,-244.387,
43294710,-1.896,-1.497,0.454,59.01,238.927,-286.282,
43294730,1.438,1.955,1.411,286.422,89.18,-184.03,
43294730,1.998,0.334,0.73,303.905,85.785,-60.742,
43294750,0.928,-1.949,0.742,225.505,181.965,-1.33,
43294750,0.747,0.373,0.914,321.212,148.82,80.202,
43294760,-0.065,0.371,1.686,304.657,137.672,110.617,
43294770,-1.279,0.479,1.666,206.622,117.092,100.38,
43294780,-0.893,0.424,1.638,142.607,51.887,18.2,
43294790,0.206,-0.118,1.268,48.352,9.432,-25.952,
43294800,0.564,-0.258,1.144,9.467,-10.15,-13.51,
43294810,0.073,-0.179,1.123,-17.745,-14.875,15.575,
43294820,-0.105,-0.262,1.025,-39.83,-26.67,21.525,
43294830,0.074,-0.408,0.929,-54.67,-36.925,12.057,
43294840,0.231,-0.43,0.918,-59.955,-41.142,4.06,
43294850,0.228,-0.449,0.894,-63.525,-41.177,2.782,
43294860,0.237,-0.478,0.86,-64.592,-39.777,1.68,
43294870,0.327,-0.51,0.825,-59.64,-37.975,1.19,
43294880,0.272,-0.505,0.854,-55.807,-32.497,2.607,
43294890,0.326,-0.441,0.897,-55.195,-28.245,3.92,
43294900,0.287,-0.458,0.942,-61.442,-26.25,8.837,
43294910,0.301,-0.382,1.004,-70.997,-31.15,15.33,
43294920,0.299,-0.389,1.031,-89.11,-38.885,23.94,
43294930,0.303,-0.393,1.031,-108.727,-48.282,32.69,
43294940,0.275,-0.439,1.044,-128.31,-56.927,42.857,
43294950,0.258,-0.566,1.113,-146.685,-72.222,54.425,
43294960,0.279,-0.662,1.094,-162.085,-98.402,67.952,
43294970,0.432,-1.066,0.924,-152.967,-123.725,75.127,
43294980,0.444,-1.109,0.805,-119.98,-125.597,80.5,
43294990,0.593,-1.441,0.712,-64.47,-135.66,52.342,
43295000,0.066,-1.553,0.566,-49.28,-144.55,61.022,
43295010,-0.11,-1.675,-0.577,-6.282,-148.137,105.105,
43295010,0.811,-1.998,-1.063,46.602,-131.215,124.757,
43295030,1.118,-1.423,-1.077,71.662,-84.945,130.48,
43295030,0.008,-0.55,-0.945,33.827,-88.322,112.35,
43295050,0.107,-0.711,-0.8,-26.197,-66.815,56.822,
43295050,0.22,-0.467,-0.422,-57.575,-67.462,13.807,
43295070,-0.066,0.017,-0.215,-76.912,-59.01,-20.93,
43295070,-0.44,0.386,-0.059,-85.347,-54.722,-56.752,
43295080,-0.652,0.567,0.081,-95.217,-47.092,-74.515,
43295090,-0.524,0.399,0.485,-84.28,-21.402,-70.787,
43295100,0.827,0.287,1.998,1.312,173.005,-34.405,
43295110,-1.573,-0.931,0.275,153.545,249.97,7.787,
43295120,1.668,-1.929,0.803,321.615,161.175,-125.982,
43295130,-0.161,-0.549,1.058,257.127,194.057,-107.957,
43295140,0.996,1.337,0.793,351.68,95.707,-50.26,
43295150,1.207,-1.073,1.27,289.957,155.995,-11.795,
43295160,0.125,0.483,1.653,271.792,147.98,46.707,
43295170,-0.604,0.285,1.757,199.377,112.315,64.207,
43295180,-0.668,0.344,1.479,112.787,57.68,45.15,
43295190,-0.383,-0.205,1.238,47.827,15.68,15.855,
43295200,0.034,-0.149,1.126,8.732,-13.212,2.642,
43295210,0.151,-0.3,1.072,-18.375,-29.277,2.38,
43295220,0.198,-0.348,1.004,-37.852,-38.657,7.525,
43295230,0.16,-0.429,0.931,-51.24,-43.435,10.097,
43295240,0.275,-0.459,0.872,-55.055,-47.302,10.71,
43295250,0.274,-0.509,0.843,-57.732,-44.87,9.642,
43295260,0.263,-0.478,0.859,-57.312,-40.88,7.7,
43295270,0.286,-0.43,0.875,-58.152,-36.05,5.092,
43295280,0.292,-0.466,0.902,-64.242,-29.085,2.782,
43295290,0.309,-0.423,0.94,-72.38,-24.78,3.272,
43295300,0.318,-0.405,0.972,-83.772,-23.8,5.635,
43295310,0.305,-0.394,0.979,-98.525,-24.132,11.182,
43295320,0.318,-0.454,0.99,-112.472,-24.78,16.572,
43295330,0.26,-0.452,0.975,-126.035,-24.99,24.465,
43295340,0.231,-0.49,0.994,-134.032,-30.012,28.402,
43295350,0.182,-0.557,1.048,-140.612,-43.242,34.3,
43295360,0.142,-0.724,1.064,-139.772,-62.055,38.307,
43295370,0.088,-0.921,0.92,-125.475,-81.27,32.69,
43295380,0.114,-1.021,0.847,-94.062,-88.76,27.44,
43295390,0.138,-1.074,0.632,-58.835,-98.105,15.995,
43295400,0.199,-0.892,0.399,-37.712,-84.595,3.027,
43295410,0.107,-1.354,0.393,-26.337,-80.692,-13.247,
43295420,-0.087,-1.91,-0.581,-27.79,-81.13,-1.225,
43295420,0.199,-1.817,-0.365,-4.235,-35.105,10.062,
43295440,0.091,-1.024,-0.458,11.777,-30.012,-7.052,
43295440,0.325,-0.626,-0.348,-0.997,-9.555,-40.32,
43295460,0.008,-0.53,-0.236,-46.742,27.527,-66.307,
43295460,-0.42,-0.024,-0.2,-60.62,50.295,-86.817,
43295480,-1.119,0.844,-0.126,-52.43,34.072,-86.117,
43295480,-1.052,1.408,-0.096,-41.055,15.75,-73.377,
43295500,-0.688,1.501,0.742,-2.362,27.125,-61.197,
43295500,1.833,-1.223,1.851,31.64,200.917,-80.062,
43295510,1.493,-1.998,-0.198,185.657,291.095,-182.595,
43295520,0.431,-0.763,1.132,254.45,250.687,-202.755,
43295530,1.468,1.148,0.681,342.877,151.445,-42.682,
43295540,0.579,-1.58,1.043,293.667,186.112,23.45,
43295550,0.177,0.549,1.633,324.362,145.075,86.117,
43295560,-1.047,0.802,1.849,255.115,113.662,80.202,
43295570,-0.885,0.549,1.595,140.402,69.492,30.38,
43295580,-0.207,-0.097,1.26,51.817,23.152,-3.552,
43295590,0.318,-0.364,1.026,6.965,-1.61,-7.822,
43295600,0.211,-0.272,1.078,7.84,-14.647,4.585,
43295610,0.02,-0.309,0.945,-17.115,-14.035,11.462,
43295620,0.113,-0.36,0.976,-26.285,-19.792,7.052,
43295630,0.202,-0.386,0.934,-35.945,-21,3.01,
43295640,0.198,-0.376,0.947,-42.612,-19.197,0.805,
43295650,0.193,-0.357,0.975,-49.892,-17.482,-1.575,
43295660,0.241,-0.357,0.97,-58.992,-15.33,-4.515,
43295670,0.264,-0.405,0.993,-68.705,-11.252,-5.565,
43295680,0.289,-0.347,1.054,-80.062,-7.525,-3.255,
43295690,0.282,-0.336,1.097,-98.262,-4.445,1.47,
43295700,0.282,-0.342,1.131,-120.172,-3.465,7.21,
43295710,0.297,-0.385,1.126,-142.24,-3.08,14.035,
43295720,0.307,-0.358,1.098,-161.455,-2.24,22.732,
43295730,0.334,-0.429,1.046,-174.597,-4.707,28.805,
43295740,0.375,-0.495,1.027,-182.805,-10.762,39.987,
43295750,0.298,-0.543,0.996,-189.437,-15.365,57.137,
43295760,0.229,-0.621,0.997,-189.997,-22.96,72.992,
43295760,0.072,-0.804,1.095,-176.977,-37.59,80.325,
43295780,-0.101,-1.109,0.945,-156.537,-58.397,72.642,
43295780,-0.032,-1.042,0.735,-113.592,-76.265,59.185,
43295800,0.073,-1.154,0.406,-86.607,-75.6,54.057,
43295800,-0.002,-1.175,0.526,-66.937,-69.002,45.972,
43295820,0.024,-1.004,0.674,-16.52,-84.997,39.62,
43295820,0.232,-0.459,-0.009,39.095,-90.72,73.377,
43295830,0.397,0.285,-0.064,95.025,-93.397,83.79,
43295840,0.242,0.228,-0.113,54.775,-86.485,75.32,
43295850,0.208,-0.206,-0.217,1.627,-83.247,48.335,
43295860,0.243,-0.361,-0.252,5.442,-93.765,19.11,
43295870,0.232,-0.214,-0.268,17.535,-89.862,-13.825,
43295880,-0.071,-0.299,-0.358,-7.192,-65.397,-41.44,
43295890,-0.287,-0.383,-0.38,-23.817,-51.8,-71.277,
43295900,-0.471,-0.445,-0.306,-30.327,-39.76,-90.44,
43295910,-0.927,-0.8,0.897,-26.757,3.342,-87.867,
43295920,-1.454,-1.946,1.449,-23.31,122.517,-26.985,
43295930,-0.029,-1.996,-0.581,174.615,45.43,-122.71,
43295940,1.559,-0.018,1.295,265.912,36.767,-189.507,
43295950,0.679,0.871,0.455,260.68,54.932,-96.932,
43295960,1.699,-1.423,1.051,277.865,102.83,-82.407,
43295970,1.028,-0.246,0.739,298.917,114.38,-3.762,
43295980,0.699,-0.013,1.383,312.9,120.732,47.18,
43295990,-0.219,0.131,1.527,262.832,117.162,73.342,
43296000,-0.637,0.392,1.59,207.48,89.95,52.71,
43296010,-0.525,0.147,1.408,123.235,57.82,14.385,
43296020,0.058,-0.07,1.241,62.352,22.172,-3.972,
43296030,0.106,-0.173,1.158,20.335,3.535,2.187,
43296040,0.03,-0.159,1.098,-9.17,-9.87,10.885,
43296050,0.091,-0.287,1.052,-31.342,-20.947,8.767,
43296060,0.106,-0.299,0.986,-50.067,-27.02,7.437,
43296070,0.157,-0.378,0.981,-62.23,-30.415,1.767,
43296080,0.241,-0.343,1.001,-73.097,-30.957,-3.062,
43296090,0.286,-0.359,0.997,-85.26,-28.997,-5.39,
43296100,0.276,-0.364,1.004,-98.157,-26.6,-4.445,
43296110,0.211,-0.345,1.047,-114.625,-22.627,-5.495,
43296120,0.209,-0.283,1.106,-133.245,-21.665,-6.842,
43296130,0.244,-0.317,1.171,-154.437,-23.065,-6.282,
43296140,0.237,-0.153,1.181,-180.95,-24.027,0.437,
43296150,0.232,-0.289,1.19,-207.112,-26.442,4.497,
43296160,0.147,-0.348,1.119,-234.482,-29.487,13.177,
43296170,0.233,-0.283,1.054,-248.307,-39.515,17.465,
43296170,0.392,-0.388,1.018,-266.542,-40.46,22.54,
43296190,0.421,-0.69,1.219,-276.657,-40.11,29.242,
43296190,0.528,-1.248,1.387,-258.405,-36.82,32.602,
43296210,0.659,-1.55,1.474,-213.815,0.682,30.432,
43296210,0.693,-1.27,1.099,-132.212,95.9,23.73,
43296230,0.098,-0.77,0.64,-59.132,160.965,-21.227,
43296230,-0.723,-0.127,0.801,-39.515,152.407,-78.4,
43296240,-0.598,-0.177,0.413,-25.182,66.727,-74.305,
43296250,-0.002,0.581,0.299,38.465,-35.927,-38.43,
43296260,0.433,0.767,0.745,52.99,-63.647,7.105,
43296270,0.493,0.347,0.667,34.002,-48.002,27.825,
43296280,0.185,0.468,0.438,65.712,-60.882,4.777,
43296290,-0.043,0.746,0.268,93.45,-71.032,-9.887,
43296300,-0.339,0.521,0.272,89.67,-69.772,-7.385,
43296310,-0.454,0.03,0.183,79.887,-62.72,-8.505,
43296320,-0.617,-0.128,0.06,97.44,-61.057,7.682,
43296330,-0.647,-0.195,0.01,110.005,-66.64,29.522,
43296340,-0.48,-0.415,-0.143,107.38,-71.732,29.925,
43296350,-0.523,-0.99,-1.666,108.535,-99.995,-15.347,
43296360,1.184,-1.998,-0.635,-34.352,186.567,-227.465,
43296370,-1.792,-1.322,0.369,13.282,86.17,-404.74,
43296380,0.56,1.997,1.075,387.87,-38.447,-177.852,
43296390,1.998,0.407,0.848,300.702,13.16,-97.65,
43296400,1.628,-1.998,0.416,163.065,150.43,-107.87,
43296410,1.328,-0.032,0.572,315.192,174.982,3.237,
43296420,1.308,0.654,1.093,323.435,229.897,79.572,
43296430,-1.037,-0.588,1.383,239.382,258.16,99.155,
43296440,-1.119,0.374,1.551,245.14,170.03,57.977,
43296450,-0.806,0.495,1.619,171.307,98.595,8.4,
43296460,-0.184,0.412,1.455,77.087,42.14,-4.025,
43296470,-0.206,0.023,1.177,6.965,5.372,8.96,
43296480,-0.101,-0.237,0.993,-28.822,-17.605,11.2,
43296490,0.112,-0.273,1.052,-36.575,-32.917,6.93,
43296500,0.105,-0.337,0.945,-50.015,-36.137,6.265,
43296510,0.16,-0.385,0.939,-49.945,-39.882,4.62,
43296510,0.193,-0.445,0.859,-49.875,-38.272,0.35,
43296530,0.253,-0.463,0.85,-43.277,-33.845,-5.18,
43296530,0.279,-0.438,0.88,-37.152,-26.652,-8.435,
43296550,0.25,-0.384,0.937,-34.282,-20.982,-8.96,
43296550,0.163,-0.328,1,-38.78,-18.637,-7.892,
43296570,0.106,-0.296,1.074,-51.135,-21.507,-8.61,
43296570,0.038,-0.244,1.162,-69.615,-31.237,-9.222,
43296580,-0.041,-0.205,1.252,-95.112,-48.597,-8.995,
43296590,0.032,-0.185,1.247,-122.797,-81.725,-5.425,
43296600,0.012,-0.063,1.343,-152.495,-112.525,0.525,
43296610,-0.12,-0.106,1.34,-194.6,-142.607,7.402,
43296620,-0.156,-0.263,1.307,-222.04,-177.957,1.365,
43296630,-0.019,-0.723,0.987,-225.627,-213.955,-13.282,
43296640,0.286,-1.004,0.694,-194.18,-232.872,-31.482,
43296650,0.754,-1.074,0.696,-160.86,-227.867,-52.115,
43296660,0.558,-1.402,0.265,-167.282,-173.81,-74.62,
43296670,0.5,-1.914,0.177,-159.25,-59.465,-92.68,
43296680,0.239,-1.993,0,-130.27,66.045,-70.595,
43296690,-1.573,-1.251,-0.446,-85.82,122.57,-40.495,
43296700,-1.001,-0.962,-0.258,-51.835,92.82,-56.542,
43296710,0.274,-1.252,-0.012,-52.622,114.782,-26.827,
43296720,-0.061,-0.927,0.118,-61.092,142.73,-15.4,
43296730,-0.392,-0.522,0.078,-52.937,158.06,-18.987,
43296740,-0.513,-0.246,0.11,-38.08,142.205,-1.557,
43296750,-0.376,-0.156,0.169,-38.202,118.737,24.447,
43296760,-0.119,-0.127,0.24,-32.97,97.352,52.22,
43296770,0.06,0.322,0.049,-11.077,77.332,78.452,
43296780,0.204,1.294,-0.185,21.507,40.022,86.572,
43296790,0.643,1.688,0.94,33.582,4.567,62.912,
43296800,1.998,-0.096,1.998,77.262,48.002,-26.53,
43296810,0.045,-1.547,-0.294,185.99,100.38,-147.997,
43296820,-0.633,-1.998,1.143,197.277,144.48,-212.905,
43296830,1.996,0.876,0.113,374.517,58.38,-72.87,
43296840,1.715,0.779,1.137,407.032,111.37,-8.4,
43296850,0.577,-1.466,1.2,278.495,214.165,34.125,
43296860,-0.323,1.04,1.799,358.435,174.055,74.567,
43296870,-1.154,0.45,1.693,228.865,140.297,44.135,
43296880,-0.552,0.431,1.54,127.61,70.805,3.587,
43296890,-0.009,0.159,1.338,45.535,23.712,-6.912,
43296900,-0.164,0.015,1.185,3.097,-8.12,8.365,
43296910,0.014,-0.23,1.082,-27.685,-29.82,10.605,
43296910,0.105,-0.315,0.968,-50.557,-38.325,13.09,
43296920,0.065,-0.405,0.946,-56.175,-41.825,9.957,
43296930,0.17,-0.38,0.955,-62.195,-42.857,1.942,
43296940,0.248,-0.412,0.932,-68.355,-41.352,-2.94,
43296950,0.272,-0.382,0.975,-71.33,-38.657,-4.41,
43296960,0.185,-0.313,1.044,-79.082,-36.855,-4.392,
43296970,0.166,-0.331,1.078,-95.62,-40.81,-6.72,
43296980,0.335,-0.199,1.148,-113.365,-48.702,-6.457,
43296990,0.18,-0.243,1.206,-149.275,-51.31,-5.32,
43297000,0.01,-0.107,1.31,-178.867,-65.712,-3.605,
43297010,0.045,-0.072,1.131,-213.535,-74.952,-2.905,
43297020,0.345,-0.4,1.109,-237.807,-79.73,1.627,
43297030,0.197,-0.483,1.217,-255.5,-94.832,22.645,
43297040,-0.349,-0.435,1.376,-264.495,-132.755,33.162,
43297050,-0.376,-0.785,1.2,-252.122,-193.427,11.287,
43297060,0.017,-0.917,1.264,-211.872,-223.142,-7.49,
43297070,0.311,-1.084,1.136,-189.787,-183.295,-31.22,
43297080,0.75,-1.525,0.998,-168.21,-70.087,-60.812,
43297090,-0.419,-1.463,1.774,-101.482,110.6,-43.925,
43297100,-1.998,0.321,0.325,-16.187,104.527,6.895,
43297110,-1.489,0.959,0.77,109.585,-31.447,84.332,
43297120,0.56,-0.144,0.866,147.7,-51.607,196.682,
43297130,0.973,0.291,0.409,157.85,-7.98,195.107,
43297140,0.339,1.22,0.061,201.162,36.715,148.942,
43297150,-0.249,1.116,-0.189,165.34,47.022,86.957,
43297160,-0.165,0.71,-0.128,103.127,32.707,34.142,
43297170,-0.515,0.075,0.194,60.077,23.852,20.212,
43297180,1.311,-1.476,-1.837,50.61,52.447,-73.167,
43297190,1.575,-1.998,-1.757,58.345,185.36,-249.515,
43297200,-1.663,-1.998,0.993,-180.74,122.57,-481.845,
43297210,1.17,-1.519,-0.742,39.287,63.35,-455.035,
43297220,1.992,1.972,0.639,333.865,3.377,-199.447,
43297230,1.998,-0.61,0.177,224.017,93.607,-53.952,
43297240,0.977,-1.518,0.639,269.867,175.35,51.047,
43297250,1.517,0.566,0.635,384.965,165.042,183.032,
43297260,-1.014,-0.371,1.399,351.907,218.277,184.257,
43297260,-1.812,1.014,1.69,299.285,173.757,71.925,
43297280,-0.47,0.522,1.761,188.387,93.45,-26.022,
43297280,-0.005,0.592,1.556,72.467,41.44,-22.68,
43297300,-0.667,0.402,1.314,-0.297,-2.73,9.957,
43297300,-0.353,0.067,1.247,-65.87,-46.2,1.26,
43297320,0.111,-0.329,1.04,-115.745,-69.09,-10.867,
43297320,0.441,-0.499,0.984,-123.9,-77.035,-14.245,
43297330,0.423,-0.499,0.882,-128.362,-67.725,-5.81,
43297340,0.416,-0.464,0.89,-123.252,-54.565,-0.875,
43297350,0.391,-0.481,0.921,-120.592,-39.182,3.85,
43297360,0.331,-0.414,0.975,-120.207,-30.257,7.49,
43297370,0.387,-0.424,1.003,-124.547,-23.415,10.43,
43297380,0.497,-0.54,0.976,-130.287,-15.855,13.58,
43297390,0.537,-0.645,0.929,-124.932,-5.6,20.177,
43297400,0.023,-0.668,1.038,-111.527,-1.295,22.435,
43297410,-0.167,-0.737,0.845,-93.17,-27.947,7.49,
43297420,0.091,-0.735,0.787,-70.122,-50.627,-7.717,
43297430,0.315,-0.643,0.829,-51.73,-41.09,-14.192,
43297440,0.121,-1.035,0.924,-49.507,-17.605,-28.28,
43297450,-0.156,-1.364,0.86,-46.987,1.347,-35.962,
43297460,0,-1.758,0.562,-11.095,30.747,-45.482,
43297470,-0.922,-1.343,0.181,15.19,80.535,-12.985,
43297480,-1.019,-0.733,0.163,24.552,37.467,-3.447,
43297490,0.148,-0.78,0.301,21.98,22.505,6.825,
43297500,-0.057,-0.633,0.479,-13.142,16.362,15.995,
43297510,-0.138,-0.624,0.723,-52.92,13.912,2.975,
43297520,0.115,-0.815,0.982,-73.5,12.32,-0.77,
43297530,0.1,-0.745,1.125,-89.075,12.372,3.885,
43297540,0.052,-0.597,1.331,-101.727,9.24,13.685,
43297550,0.247,-0.698,1.476,-119.735,13.055,27.877,
43297560,0.524,-0.844,1.506,-125.44,30.607,39.865,
43297570,0.425,-0.657,1.355,-117.827,51.712,51.8,
43297580,0.24,-0.364,1.22,-112.07,57.435,60.077,
43297580,0.389,-0.33,1.104,-112.577,58.712,60.06,
43297600,0.572,-0.269,0.972,-107.135,66.517,56.472,
43297600,0.515,-0.023,0.818,-91.455,76.02,48.632,
43297620,0.503,0.114,0.68,-74.585,82.827,30.082,
43297620,0.48,0.004,0.485,-60.34,87.255,-0.262,
43297640,0.272,-0.112,0.29,-45.517,82.617,-33.337,
43297640,0.108,-0.223,0.177,-30.747,68.932,-49.56,
43297660,0.133,-0.361,0.149,-15.767,52.972,-46.655,
43297660,0.209,-0.397,0.158,-0.017,39.585,-39.725,
43297670,0.183,-0.369,0.192,11.865,28.525,-34.93,
43297680,0.158,-0.399,0.265,18.392,16.59,-31.85,
43297690,0.228,-0.505,0.396,24.902,4.55,-29.82,
43297700,0.28,-0.626,0.542,31.132,-5.775,-31.99,
43297710,0.252,-0.733,0.655,36.627,-15.347,-41.982,
43297720,0.21,-0.821,0.77,43.085,-26.46,-53.655,
43297730,0.224,-0.812,0.851,48.457,-32.55,-55.895,
43297740,0.414,-0.94,1.002,55.72,-30.572,-63.63,
43297750,0.234,-1.038,0.928,57.715,-22.207,-71.872,
43297760,-0.041,-0.889,0.739,69.72,-23.327,-77.612,
43297770,-0.101,-0.723,0.714,67.34,-26.985,-75.67,
43297780,-0.096,-0.786,0.755,41.545,-20.09,-65.782,
43297790,-0.194,-0.762,0.75,15.557,-12.302,-60.462,
43297800,-0.209,-0.653,0.811,-5.827,-5.005,-57.12,
43297810,-0.087,-0.701,0.893,-27.195,12.652,-48.37,
43297820,-0.03,-0.702,0.892,-38.185,33.512,-41.317,
43297830,-0.105,-0.58,0.818,-38.325,47.057,-36.942,
43297840,-0.137,-0.466,0.737,-37.135,51.065,-29.855,
43297850,-0.122,-0.387,0.695,-40.775,47.985,-18.952,
43297860,-0.027,-0.376,0.707,-46.41,43.837,-5.18,
43297870,0.025,-0.37,0.744,-50.802,39.62,11.742,
43297880,0.018,-0.352,0.811,-48.09,29.452,28.245,
43297890,0.154,-0.333,0.837,-38.115,17.605,43.435,
43297900,0.32,-0.266,0.825,-21.56,11.987,54.845,
43297910,0.317,-0.107,0.819,-7.42,9.222,60.375,
43297920,0.366,0.016,0.869,-0.63,6.002,58.835,
43297930,0.592,0.017,1.045,13.37,2.677,49.595,
43297940,0.702,0.041,1.244,35.175,1.872,41.247,
43297950,0.637,0.179,1.204,57.575,0.052,21.577,
43297960,0.659,0.164,1.119,91.017,-8.312,-11.55,
43297970,0.688,-0.003,1.07,118.282,-11.515,-32.952,
43297980,0.499,-0.177,0.931,126.122,-17.605,-53.007,
43297990,0.282,-0.143,0.805,133.49,-37.887,-88.48,
43298000,0.417,-0.255,0.839,126.98,-54.897,-134.627,
43298010,0.318,-0.326,0.898,101.36,-50.557,-151.83,
43298010,0.126,-0.397,0.83,93.205,-41.965,-161.49,
43298030,-0.065,-0.325,0.644,94.727,-34.125,-159.005,
43298030,-0.316,-0.234,0.405,77.122,-21.98,-134.47,
43298050,-0.355,-0.345,0.215,41.177,-2.8,-97.3,
43298050,-0.309,-0.617,0.155,1.732,16.66,-58.87,
43298070,-0.453,-1.038,0.026,-33.232,24.43,-41.632,
43298070,-0.863,-1.319,-0.179,-69.965,8.207,-53.742,
43298080,-1.67,-1.702,1.031,-138.687,-52.64,-71.767,
43298090,0.695,-1.998,0.949,-151.795,125.86,-69.597,
43298100,-0.512,-1.501,-1.621,122.5,-153.737,-287.21,
43298110,1.526,1.643,0.723,238.717,-41.842,-255.482,
43298120,1.012,1.997,1.778,65.8,137.147,-194.232,
43298130,-0.702,0.409,1.101,48.002,93.695,-160.282,
43298140,1.998,-1.893,0.292,121.835,99.645,-99.785,
43298150,0.64,-0.151,0.957,139.037,146.177,-38.605,
43298160,0.842,-0.255,1.084,147.577,154.577,39.48,
43298170,-0.021,-0.202,1.203,151.235,147.682,88.655,
43298180,-1.125,0.232,1.461,123.305,118.212,79.992,
43298190,-0.866,0.138,1.312,57.365,57.732,28.07,
43298200,0.04,-0.203,1.062,9.625,6.615,-5.005,
43298210,0.338,-0.37,0.924,-7.402,-10.29,-4.515,
43298220,0.239,-0.384,0.885,-7.787,-8.942,8.785,
43298230,0.104,-0.401,0.895,-3.342,-6.79,15.33,
43298240,0.153,-0.416,0.889,0.35,-6.387,12.39,
43298250,0.135,-0.36,0.934,3.272,-5.565,7.542,
43298260,0.164,-0.322,0.954,1.382,-6.685,3.255,
43298270,0.175,-0.307,0.969,-4.147,-7.822,0.84,
43298280,0.195,-0.296,0.989,-10.92,-9.222,0.735,
43298290,0.147,-0.253,1.031,-21.07,-11.637,2.012,
43298300,0.131,-0.257,1.049,-36.435,-15.645,1.732,
43298310,0.176,-0.245,1.084,-53.777,-20.072,0.367,
43298320,0.181,-0.172,1.189,-76.982,-23.397,-0.245,
43298330,0.315,-0.113,1.329,-108.78,-23.765,-0.7,
43298330,0.334,-0.116,1.317,-144.97,-12.372,-1.05,
43298350,0.329,-0.181,1.359,-179.357,3.745,-2.625,
43298350,0.32,-0.201,1.197,-214.34,13.317,5.092,
43298370,0.375,-0.263,1.144,-232.54,5.897,16.292,
43298370,0.307,-0.377,1.076,-252,-3.675,33.162,
43298390,0.384,-0.44,1.156,-261.415,-16.887,45.447,
43298390,0.226,-0.94,1.334,-260.715,-25.917,49.997,
43298410,0.176,-1.41,1.313,-239.312,-27.982,43.872,
43298410,0.499,-1.345,1.198,-174.965,-7.63,37.135,
43298420,0.601,-0.873,0.458,-111.982,52.972,38.255,
43298430,0.352,-0.413,0.479,-72.555,93.082,41.912,
43298440,0.038,-0.534,0.282,-62.387,95.62,38.185,
43298450,0.311,-0.531,0.283,-31.622,40.95,24.08,
43298460,0.695,0,0.418,-4.69,-2.52,21.91,
43298470,0.677,0.484,0.183,19.495,-35.192,27.51,
43298480,0.604,0.692,0.18,24.255,-66.552,13.685,
43298490,0.267,0.538,0.265,1.05,-94.797,-14.49,
43298500,-0.001,0.192,0.241,-15.137,-124.547,-41.982,
43298510,-0.281,0.065,0.017,8.33,-161.7,-56.367,
43298520,-0.641,0.186,-0.231,47.425,-204.207,-61.88,
43298530,-0.868,0.366,-0.387,40.11,-232.085,-64.172,
43298540,-1.092,-0.038,-0.45,8.592,-237.3,-54.635,
43298550,-1.468,-1.603,1.171,-38.237,-212.012,-40.792,
43298560,-1.145,-1.998,-0.2,21.472,-8.907,3.167,
43298570,-1.736,-1.998,-1.701,204.452,0.122,-145.985,
43298580,1.486,-1.369,1.241,154.7,196.122,-345.222,
43298590,0.447,1.963,1.959,267.995,225.242,-267.19,
43298600,0.692,0.133,0.096,257.81,50.785,-226.45,
43298610,1.996,-1.643,0.659,289.17,165.077,-125.877,
43298620,0.78,1.088,1.031,282.975,224.91,-35.507,
43298630,0.768,-0.11,1.21,244.51,252.717,64.557,
43298640,-0.455,0.053,1.452,224.717,237.842,111.335,
43298650,-1.909,0.282,1.788,158.34,172.48,77.7,
43298660,-0.526,0.441,1.577,79.712,58.1,5.477,
43298670,-0.008,-0.039,1.246,0.857,-4.077,-0.525,
43298680,-0.045,-0.167,1.118,-36.365,-36.312,12.967,
43298690,0.071,-0.348,0.976,-57.207,-54.092,12.372,
43298700,0.24,-0.395,0.941,-62.527,-62.685,9.24,
43298710,0.242,-0.468,0.878,-62.072,-64.505,10.815,
43298720,0.275,-0.505,0.837,-57.155,-62.772,8.452,
43298730,0.358,-0.459,0.844,-50.855,-57.12,6.16,
43298740,0.321,-0.418,0.891,-47.617,-50.417,8.715,
43298750,0.321,-0.387,0.945,-50.54,-46.672,12.25,
43298760,0.283,-0.397,1.003,-58.905,-47.46,18.707,
43298760,0.485,-0.283,1.032,-70.105,-52.745,27.142,
43298780,0.372,-0.269,1.101,-97.457,-49.98,39.375,
43298780,0.444,-0.244,1.067,-129.36,-49.262,47.477,
43298800,0.591,-0.412,1.048,-157.902,-42.752,55.772,
43298800,0.559,-0.451,0.981,-178.692,-31.027,72.432,
43298820,0.564,-0.572,0.991,-189.63,-27.492,94.64,
43298820,0.581,-0.729,0.935,-204.592,-26.81,118.352,
43298830,0.576,-0.874,0.922,-202.93,-30.17,132.44,
43298840,0.464,-0.979,0.933,-180.215,-36.382,140.017,
43298850,-0.361,-1.659,0.429,-130.077,-84.455,135.467,
43298860,0.442,-1.998,0.245,-99.4,-96.302,125.212,
43298870,1.008,-1.556,0.037,-38.29,-77.997,149.222,
43298880,0.671,-0.485,-0.158,25.585,-65.327,167.247,
43298890,0.288,-1.143,-0.165,23.922,-55.072,181.282,
43298900,1.289,-1.326,-0.751,36.732,-68.232,156.047,
43298910,1.287,-0.536,-0.67,83.422,-58.152,150.377,
43298920,0.788,0.142,-0.753,60.462,-46.41,110.985,
43298930,0.461,0.085,-0.61,-17.587,-50.942,51.362,
43298940,0.571,-0.323,-0.48,-83.265,-76.755,-14.735,
43298950,-0.131,0.019,-0.322,-88.917,-122.535,-76.475,
43298960,-1.331,1.047,-0.092,-121.747,-183.277,-159.95,
43298970,-1.868,0.323,0.151,-180.197,-222.687,-219.852,
43298980,-1.998,-0.473,0.311,-189.385,-236.67,-191.24,
43298990,-1.989,-0.501,0.834,-95.007,-233.835,-115.5,
43299000,0.358,-1.866,1.998,5.827,41.93,-44.152,
43299010,1.258,-1.998,0.344,233.24,309.925,-30.222,
43299020,1.643,-0.908,0.122,348.337,196.35,-254.59,
43299030,0.098,0.366,1.035,279.23,274.872,-179.427,
43299040,1.143,-0.613,0.586,347.847,182.56,-104.562,
43299050,1.778,-0.403,0.861,384.107,182.752,-29.802,
43299060,0.401,0.514,1.4,351.732,208.162,50.942,
43299070,-0.576,0.189,1.702,279.002,204.977,76.282,
43299080,-0.998,0.528,1.62,207.112,139.877,40.915,
43299080,-0.346,0.046,1.468,128.922,76.79,5.057,
43299100,0.013,0.035,1.333,63.84,33.092,1.715,
43299100,-0.05,-0.138,1.158,25.41,3.657,12.425,
43299120,-0.007,-0.215,1.075,-8.977,-14.42,14.192,
43299120,0.073,-0.313,1.031,-32.287,-26.652,11.06,
43299140,0.157,-0.366,0.962,-46.69,-33.355,6.23,
43299140,0.302,-0.421,0.95,-54.915,-34.72,2.87,
43299160,0.338,-0.403,0.962,-63.28,-30.73,4.865,
43299160,0.263,-0.45,0.962,-72.607,-28.49,9.957,
43299170,0.523,-0.315,1.037,-81.847,-30.012,18.2,
43299180,0.403,-0.44,1.075,-104.195,-20.807,26.425,
43299190,0.556,-0.353,1.149,-124.092,-18.637,38.185,
43299200,0.647,-0.35,1.134,-146.492,-7,53.462,
43299210,0.618,-0.578,1.151,-164.902,8.575,72.415,
43299220,0.814,-0.712,1.186,-168.35,17.622,93.415,
43299230,0.856,-0.803,1.271,-156.782,32.392,121.922,
43299240,0.222,-1.11,0.874,-138.95,28.98,149.712,
43299250,-0.17,-1.958,0.611,-136.605,-3.167,168.735,
43299260,0.449,-1.983,0.692,-131.11,-32.445,164.57,
43299270,1.098,-0.749,-0.039,-28.105,-76.632,172.095,
43299280,0.84,0.238,-0.123,22.732,-108.185,199.972,
43299290,1.626,-1.011,-0.749,-33.862,-92.47,144.48,
43299300,1.998,-1.134,-0.17,-69.65,-57.47,47.372,
43299310,1.972,0.13,-0.314,-79.327,-58.117,-95.55,
43299320,0.663,0.781,-0.011,-112,-31.097,-237.3,
43299330,-0.816,0.56,0.064,-184.38,-81.76,-351.575,
43299340,-1.069,0.188,0.138,-207.095,-168.455,-374.955,
43299350,-0.772,0.23,0.191,-175.367,-232.277,-332.535,
43299360,-0.653,0.572,0.45,-135.922,-252.017,-285.337,
43299370,-0.865,0.47,0.566,-152.74,-226.362,-265.755,
43299380,-1.523,-0.836,1.127,-157.937,-182.735,-215.582,
43299390,-1.926,-1.99,1.943,-96.092,-9.205,-99.61,
43299400,-1.629,-1.998,-0.764,70.49,312.025,95.987,
43299410,0.213,-1.897,-0.858,457.712,304.867,2.397,
43299420,1.559,1.715,0.634,384.492,456.382,-252.91,
43299430,-1.724,1.455,1.103,209.772,383.862,-197.61,
43299440,1.998,-1.825,0.363,334.792,163.642,-62.947,
43299450,0.035,0.306,1.499,359.607,196.56,46.567,
43299460,1.099,0.735,1.312,232.977,193.655,11.27,
43299470,-1.118,-0.254,1.697,153.475,198.24,104.65,
43299480,-1.037,0.263,1.49,107.135,106.61,47.792,
43299490,-0.394,-0.216,1.277,49.525,38.605,9.59,
43299500,0.238,-0.107,1.167,11.06,-1.995,-8.277,
43299510,0.128,-0.361,0.931,-19.705,-17.22,3.307,
43299510,0.122,-0.278,1.148,-17.43,-35.017,10.342,
43299530,0.058,-0.428,0.926,-44.607,-38.255,2.957,
43299530,0.295,-0.389,0.976,-46.62,-47.635,-4.935,
43299550,0.335,-0.392,0.96,-58.765,-47.862,-4.672,
43299550,0.374,-0.395,0.948,-70.7,-44.677,-2.66,
43299560,0.375,-0.328,1.023,-83.527,-39.287,2.467,
43299570,0.506,-0.38,1.015,-99.015,-35.665,9.87,
43299580,0.604,-0.304,1.108,-119.77,-23.432,18.97,
43299590,0.654,-0.43,1.067,-143.657,-5.565,32.9,
43299600,0.487,-0.582,1.024,-157.395,5.267,47.425,
43299610,0.313,-0.756,1.174,-169.225,-9.362,65.677,
43299620,0.248,-0.816,1.066,-168.315,-42.157,75.617,
43299630,0.045,-0.694,1.009,-138.075,-81.847,67.025,
43299640,-0.048,-0.881,0.83,-113.977,-103.075,48.247,
43299650,-0.356,-1.455,0.025,-84.017,-109.445,39.497,
43299660,-1.22,-1.932,-0.775,-104.405,-124.95,17.745,
43299670,0.579,-1.998,-0.649,-97.405,-107.327,-44.887,
43299680,0.175,-1.563,-0.287,-61.355,-41.825,-23.695,
43299690,-0.385,-1.043,-0.191,-97.737,16.852,-39.095,
43299700,-0.553,-1.154,0.158,-113.05,56.42,-0.717,
43299710,-0.109,-0.942,0.33,-87.36,57.96,59.202,
43299720,0.237,-0.489,0.426,-52.167,47.425,90.615,
43299730,0.212,-0.214,0.508,-45.395,38.85,99.802,
43299740,0.155,-0.258,0.546,-54.617,28.577,102.147,
43299750,0.244,-0.445,0.65,-46.007,20.65,118.02,
43299760,0.548,-0.424,0.74,-17.22,12.635,129.272,
43299770,0.806,0.003,0.611,7.63,7.735,135.17,
43299780,0.799,0.034,0.66,-7.77,6.842,141.872,
43299790,0.888,0.262,1.266,-3.762,-20.23,92.382,
43299800,1.028,0.449,1.638,38.955,-67.375,62.23,
43299810,1.149,0.338,1.405,40.67,-51.52,65.852,
43299820,1.099,-0.182,1.157,79.31,-9.205,72.485,
43299830,-0.155,-0.974,1.208,43.942,47.705,79.87,
43299830,-0.912,-1.726,1.523,7.612,60.795,60.322,
43299850,-0.138,-1.641,1.458,15.382,35.087,47.792,
43299850,0.167,-0.573,1.335,-8.662,27.282,44.24,
43299870,0.152,-0.647,1.267,-17.01,27.107,2.222,
43299870,0.09,-1.236,1.145,-21.315,25.707,-35,
43299890,0.168,-1.185,0.777,-10.78,17.99,-36.627,
43299890,0.096,-1.076,0.214,10.272,11.147,-22.067,
43299910,-0.357,-1.21,-0.11,12.705,-10.447,-0.455,
43299910,0.386,-1.616,-0.422,-6.877,-15.802,-8.96,
43299920,-0.09,-1.606,-0.222,-45.412,-34.702,-31.99,
43299930,-0.816,-1.344,-0.08,-76.16,-102.305,-88.637,
43299940,-0.962,-1.549,0.262,-84.91,-124.355,-83.982,
43299950,-0.63,-1.754,0.273,-81.13,-128.66,-35.63,
43299960,-0.674,-1.437,0.23,-50.47,-133.262,6.825,
43299970,-0.661,-0.985,0.167,-31.447,-122.78,39.725,
43299980,-0.465,-0.801,0.115,-39.9,-88.532,69.492,
43299990,-0.412,-0.765,0.079,-48.737,-46.725,107.555,
43300000,-0.29,-0.576,0.109,-43.68,-20.72,127.452,
43300010,-0.057,-0.197,0.125,-41.58,-0.735,130.777,
43300020,0.203,0.063,0.212,-42.07,21.595,120.067,
43300030,0.415,0.081,0.305,-60.287,54.617,104.16,
43300040,0.517,0.218,0.305,-71.12,96.652,85.89,
43300050,0.676,0.365,0.424,-44.992,130.112,46.987,
43300060,0.42,0.3,0.403,-50.645,170.8,11.515,
43300070,0.077,0.271,0.286,-37.222,174.002,-29.96,
43300080,-0.319,-0.069,0.765,-3.85,156.082,-58.1,
43300090,-0.505,-0.324,1.283,10.465,78.12,-78.715,
43300100,0.404,-0.699,0.964,105.07,-26.53,-133.367,
43300110,0.891,-0.275,0.267,215.67,-33.39,-146.492,
43300120,-0.757,-0.109,1.212,192.465,8.925,-128.415,
43300130,-1.003,-1.998,1.275,60.935,-72.397,-260.68,
43300140,0.326,-1.245,-0.7,257.25,-106.837,-296.135,
43300150,1.998,1.95,0.769,393.032,-13.055,-169.89,
43300160,0.934,-0.085,0.741,298.55,44.012,-149.38,
43300170,0.68,-1.783,0.93,280.84,54.915,-95.97,
43300180,1.678,0.521,1.055,378.717,18.357,2.467,
43300190,0.303,-0.241,1.377,320.81,44.152,76.597,
43300200,-0.056,0.531,1.744,282.922,36.452,97.947,
43300210,-0.488,0.501,1.756,207.007,32.9,71.4,
43300220,-0.441,0.169,1.47,111.37,18.41,28.542,
43300230,0.071,-0.239,1.165,41.422,-8.627,1.627,
43300230,0.313,-0.313,1.075,13.387,-25.305,-4.2,
43300250,0.204,-0.377,0.967,-8.837,-25.935,6.247,
43300250,0.146,-0.417,0.963,-16.975,-28.105,9.205,
43300260,0.091,-0.375,0.972,-25.637,-30.117,7.367,
43300270,0.164,-0.389,0.965,-35.84,-33.617,1.697,
43300280,0.269,-0.411,0.966,-46.865,-34.09,-3.185,
43300290,0.281,-0.369,1.015,-57.33,-32.952,-2.625,
43300300,0.235,-0.331,1.054,-71.977,-33.145,0.122,
43300310,0.244,-0.346,1.161,-92.277,-35.752,0.175,
43300320,0.268,-0.101,1.2,-119.717,-41.632,0.63,
43300330,0.38,-0.286,1.153,-156.852,-41.737,3.92,
43300340,0.33,-0.371,1.092,-184.17,-39.97,16.677,
43300350,0.268,-0.375,1,-200.392,-41.492,29.767,
43300360,0.236,-0.506,0.906,-215.845,-46.83,38.22,
43300370,0.341,-0.55,0.899,-226.905,-53.515,47.057,
43300380,0.385,-0.7,1.076,-231.157,-62.317,61.162,
43300390,0.481,-1.181,1.116,-232.4,-76.755,70.822,
43300400,0.805,-1.532,1.053,-191.957,-74.83,78.19,
43300410,1.021,-1.794,0.933,-126.735,-44.205,83.965,
43300420,0.454,-1.847,0.371,-81.497,4.69,92.575,
43300430,-0.405,-1.563,0.195,-35.612,-4.742,77.437,
43300440,-0.862,-1.235,-0.227,5.897,-42.542,88.007,
43300450,-0.337,-1.071,-0.656,103.495,-108.482,158.515,
43300460,0.92,-0.669,-0.627,144.55,-134.54,214.567,
43300470,1.143,-0.247,-0.608,107.817,-112,200.042,
43300480,0.657,0.12,-0.602,45.062,-92.54,144.13,
43300490,0.313,0.157,-0.487,-8.557,-92.942,87.85,
43300500,0.242,0.079,-0.335,-39.987,-116.76,31.762,
43300510,0.065,0.093,-0.224,-52.342,-146.212,-13.632,
43300520,-0.056,0.27,-0.123,-56.192,-168.507,-40.95,
43300530,0.014,0.45,-0.148,-66.885,-151.76,-42.21,
43300540,-0.514,0.663,0.04,-15.487,-137.147,-29.33,
43300550,-0.739,0.932,0.185,1.61,-123.62,-23.817,
43300560,-1.552,-0.708,-0.135,-62.247,-82.775,-23.677,
43300570,-0.544,-1.926,1.407,25.987,74.48,-38.43,
43300580,-1.239,-1.998,-0.512,187.792,217.227,-80.412,
43300580,0.583,0.437,0.267,454.37,0.717,-326.725,
43300600,1.819,1.859,0.846,389.147,55.58,-167.265,
43300600,1.682,-1.456,0.801,336.437,114.73,-75.635,
43300620,1.629,-1.127,0.493,381.99,155.242,-24.045,
43300620,0.922,1.432,1.606,424.025,180.67,62.912,
43300640,-0.758,0.219,1.833,297.342,203.455,91.787,
43300640,-1.377,0.877,1.828,206.097,134.347,44.187,
43300660,-0.253,0.094,1.517,98.735,59.08,-9.73,
43300660,0.463,-0.163,1.2,28.91,19.215,-8.295,
43300670,-0.066,-0.18,1.14,1.155,4.952,18.62,
43300680,-0.254,-0.146,1.132,-23.66,-12.967,21.42,
43300690,0.029,-0.248,1.06,-50.855,-31.85,10.132,
43300700,0.16,-0.369,0.979,-70.245,-42.035,5.897,
43300710,0.213,-0.539,0.896,-78.277,-45.867,4.532,
43300720,0.244,-0.193,0.836,-66.692,-49.84,-0.805,
43300730,0.244,-0.687,0.842,-66.482,-41.387,-1.015,
43300740,0.389,-0.347,0.942,-60.532,-41.405,-3.727,
43300750,0.267,-0.471,0.893,-70.227,-32.462,1.085,
43300760,0.308,-0.382,0.966,-75.215,-28.21,2.117,
43300770,0.256,-0.359,1.036,-91.157,-26.075,5.407,
43300780,0.174,-0.271,1.133,-108.465,-30.24,8.732,
43300790,0.246,-0.291,1.068,-129.115,-35.402,9.205,
43300800,0.573,-0.537,0.907,-147.84,-32.795,15.4,
43300810,0.602,-0.639,0.872,-156.607,-30.957,38.605,
43300820,0.446,-0.604,0.97,-160.65,-39.9,66.552,
43300830,0.31,-0.634,1.115,-170.537,-55.912,88.445,
43300840,0.172,-0.848,1.138,-169.82,-74.497,99.767,
43300850,0.009,-1.079,1.005,-147.91,-102.357,106.05,
43300860,-0.134,-1.091,0.765,-117.337,-147.21,103.442,
43300870,0.288,-1.685,0.354,-80.255,-164.692,82.39,
43300880,0.069,-1.839,-0.051,-96.74,-171.115,88.655,
43300890,-0.211,-1.807,-0.017,-54.74,-140.91,105.787,
43300900,-0.189,-1.454,-0.378,11.952,-152.285,137.182,
43300910,-0.097,-0.739,-0.761,67.602,-173.897,166.39,
43300920,0.385,-0.241,-0.622,56.84,-168.787,158.532,
43300920,0.075,-0.021,-0.451,-3.202,-148.592,107.03,
43300940,0.158,-0.107,-0.071,-24.78,-115.587,30.205,
43300940,-0.022,-0.159,0.043,-54.04,-56.892,-21.052,
43300960,-0.472,-0.073,0.032,-55.037,-21.315,-63.105,
43300960,-0.715,0.043,0.039,-41.492,-11.095,-76.405,
43300980,-0.603,0.054,0.001,-35.437,6.562,-52.097,
43300980,-0.696,0.018,0.894,-18.217,24.885,-13.457,
43301000,0.925,-0.337,1.99,4.987,32.882,-47.39,
43301000,1.994,-1.261,1.479,134.96,112.91,-69.597,
43301010,0.231,-1.946,-0.139,189.49,123.97,-137.62,
43301020,0.013,-1.81,0.403,224.332,156.887,-166.477,
43301030,1.157,1.326,1.251,314.317,125.562,-118.86,
43301040,0.629,-0.074,0.866,299.477,123.952,-77.245,
43301050,0.97,-0.849,0.806,280.927,127.732,-39.042,
43301060,0.898,0.243,1.3,299.845,119.472,14.665,
43301070,0.305,-0.228,1.356,238.91,137.602,57.19,
43301080,-0.065,0.053,1.38,204.155,112.577,74.34,
43301090,-0.309,-0.002,1.353,155.435,76.632,76.79,
43301100,-0.52,0.119,1.26,106.82,46.287,61.67,
43301110,-0.353,-0.107,1.17,59.745,23.45,23.45,
43301120,0.112,-0.139,1.121,24.727,1.61,0.017,
43301130,-0.021,-0.181,1.071,-2.747,-10.605,-0.262,
43301140,0.018,-0.262,1.042,-24.272,-22.855,-4.252,
43301150,0.358,-0.385,0.984,-42.91,-30.275,-10.482,
43301160,0.411,-0.431,0.948,-51.957,-28.262,-3.535,
43301170,0.135,-0.294,0.975,-50.785,-25.462,6.142,
43301180,0.199,-0.415,0.982,-59.185,-25.06,1.277,
43301190,0.272,-0.276,1.077,-74.795,-27.3,-0.717,
43301200,0.182,-0.23,1.106,-97.825,-30.117,-2.537,
43301210,0.267,-0.239,1.142,-128.205,-30.625,-4.41,
43301220,0.346,-0.325,1.16,-158.182,-30.747,-2.31,
43301230,0.464,-0.297,1.186,-183.015,-31.447,8.837,
43301240,0.558,-0.291,1.142,-207.41,-28.805,25.305,
43301250,0.698,-0.437,1.09,-227.447,-21.297,44.327,
43301260,0.721,-0.571,1.073,-242.462,-10.902,68.25,
43301270,0.722,-0.569,0.961,-251.562,0.805,97.86,
43301280,0.556,-0.728,1.157,-245,7.245,126.227,
43301290,-0.04,-1.059,1.397,-249.445,-0.07,149.362,
43301300,0.014,-1.558,1.369,-230.615,-26.092,133.595,
43301310,0.683,-1.877,0.676,-167.72,-60.847,91.7,
43301320,0.597,-1.468,-0.012,-112.052,-88.427,44.152,
43301330,1.199,-0.608,0.422,-73.692,-89.915,27.002,
43301330,-0.225,0.222,0.256,-124.985,-81.917,-14.822,
43301350,0.19,0.961,0.701,-106.872,-17.01,-86.73,
43301350,-0.608,0.302,0.968,-82.197,19.46,-79.817,
43301370,-1.541,0.678,1.179,-57.732,21.227,-69.755,
43301370,-1.597,0.933,1.288,-5.915,-21.507,-17.535,
43301390,-0.579,0.757,1.116,62.317,-57.382,34.072,
43301390,-0.477,0.135,0.65,108.867,-40.512,54.67,
43301410,-0.509,0.002,0.319,156.45,-26.04,25.392,
43301410,-0.622,0.313,-0.163,151.13,0.682,39.812,
43301420,-0.596,0.033,-0.511,176.487,-15.925,37.922,
43301430,-0.459,-0.364,-0.685,152.88,-39.41,9.082,
43301440,1.265,-1.64,-1.937,115.097,19.057,-15.05,
43301450,1.371,-1.998,-1.584,106.802,200.865,-106.995,
43301460,-1.985,-1.998,1.062,-147.962,115.78,-391.387,
43301470,-0.773,-1.295,-0.845,67.392,17.237,-377.23,
43301480,1.998,1.997,1.581,437.482,-175.595,-278.932,
43301490,1.998,-0.05,-0.009,281.19,8.085,-69.265,
43301500,0.952,-1.956,0.801,237.195,171.255,-31.465,
43301510,1.408,0.255,0.622,349.195,114.17,104.247,
43301520,-0.255,0.88,1.485,335.3,123.847,150.272,
43301530,-1.677,0.02,1.597,243.337,117.652,127.68,
43301540,-1.158,0.68,1.52,212.467,68.18,16.345,
43301550,0.603,-0.149,1.39,122.097,33.39,-56.262,
43301560,0.938,-0.148,1.298,70.857,24.01,-27.982,
43301570,-0.143,0.017,1.323,31.657,23.31,20.965,
43301580,-0.489,-0.039,1.206,-17.57,1.207,24.972,
43301590,-0.092,-0.207,1.109,-58.117,-27.265,-0.507,
43301600,0.138,-0.222,1.096,-88.007,-42.245,-15.207,
43301610,0.228,-0.222,1.044,-115.097,-46.795,-18.777,
43301620,0.291,-0.292,1.175,-133.875,-45.01,-27.125,
43301630,0.276,-0.23,1.078,-161.84,-32.2,-31.605,
43301640,0.366,-0.235,1.14,-178.115,-22.715,-35.98,
43301650,0.374,-0.15,1.14,-204.907,-11.217,-32.62,
43301660,0.371,-0.262,1.144,-232.47,-3.85,-22.942,
43301670,0.353,-0.159,1.171,-257.792,-5.985,-9.327,
43301670,0.425,-0.149,1.116,-287.665,-7.437,4.76,
43301690,0.47,-0.251,1.081,-315.647,-4.217,18.112,
43301690,0.463,-0.342,0.909,-345.817,9.257,30.992,
43301710,0.414,-0.431,0.974,-375.305,19.04,43.365,
43301710,0.748,-1.245,1.51,-381.237,13.772,52.902,
43301730,1.252,-1.914,1.985,-346.447,27.107,65.31,
43301730,1.293,-1.987,1.975,-253.802,134.522,80.237,
43301750,0.44,-1.251,1.438,-130.69,248.29,68.687,
43301750,-0.645,0.438,1.82,-41.387,197.82,-26.495,
43301760,-1.342,0.815,1.489,-24.5,59.745,-48.965,
43301770,0.349,1.013,0.548,71.207,-85.365,76.79,
43301780,1.526,1.299,0.908,188.457,-152.67,199.482,
43301790,1.994,1.394,1.403,192.972,-148.225,172.707,
43301800,1.335,1.277,1.236,133.822,-106.085,91.455,
43301810,0.404,1.124,0.901,155.26,-127.137,15.067,
43301820,0.232,0.839,0.711,218.47,-179.515,-13.632,
43301830,0.284,0.518,0.429,254.94,-213.237,-17.062,
43301840,0.04,0.415,0.022,257.512,-223.02,-39.76,
43301850,-0.271,0.203,-0.33,225.767,-216.982,-78.277,
43301860,-0.422,-0.482,-0.489,163.887,-169.557,-87.482,
43301870,-0.958,-1.138,-0.47,120.19,-105.122,-69.247,
43301880,-1.85,-1.235,-0.851,102.13,-107.257,-80.272,
43301890,-1.8,-1.452,-1.101,96.827,-138.372,-118.282,
43301900,-0.371,-1.875,1.082,24.062,-5.057,-89.215,
43301910,-1.596,-1.998,-1.406,121.66,290.727,-276.885,
43301920,-1.641,0.178,-0.148,493.99,125.755,-411.845,
43301930,1.657,1.997,1.475,515.742,162.697,-310.047,
43301940,1.998,0.084,0.588,311.762,203.21,-129.885,
43301950,0.117,-1.022,1.363,121.73,441.63,79.257,
43301960,-1.619,1.799,1.926,317.292,276.552,173.6,
43301970,-1.939,1.535,1.41,73.22,132.072,76.895,
43301980,0.023,-0.995,0.905,-28.297,-5.11,-11.34,
43301990,0.584,-0.391,0.986,-24.132,-17.08,-13.877,
43302000,-0.171,-0.164,0.995,-15.732,-9.975,13.422,
43302010,0.035,-0.235,1.046,-26.285,-24.412,11.532,
43302020,0.31,-0.457,0.886,-44.415,-23.975,6.807,
43302030,0.19,-0.34,0.934,-32.567,-20.177,8.522,
43302040,0.084,-0.35,0.928,-35,-12.6,2.712,
43302050,0.085,-0.279,0.991,-34.65,-11.935,-5.145,
43302060,0.044,-0.295,0.987,-44.257,-12.25,-12.425,
43302070,0.143,-0.325,0.971,-51.485,-13.44,-19.635,
43302080,0.165,-0.311,1.016,-57.435,-12.967,-20.492,
43302080,0.121,-0.182,1.119,-69.772,-12.425,-19.355,
43302100,0.152,-0.17,1.193,-94.307,-11.497,-21.875,
43302100,0.369,0.078,1.276,-119.787,4.532,-26.425,
43302120,-0.078,-0.228,1.258,-148.242,35.035,-37.625,
43302120,0.187,-0.183,1.212,-179.725,37.852,-41.422,
43302140,0.376,-0.16,1.253,-203.402,38.78,-32.812,
43302140,0.418,-0.257,1.186,-228.707,43.347,-20.422,
43302160,0.489,-0.416,1.162,-237.807,42.21,-8.627,
43302160,0.218,-0.411,0.965,-238.42,32.637,1.767,
43302170,0.081,-0.622,1.083,-234.587,9.782,3.097,
43302180,0.07,-0.907,1.246,-226.485,-13.877,0.245,
43302190,0.146,-1.204,1.31,-198.835,-14.752,-5.162,
43302200,0.091,-1.004,1.23,-156.17,-2.52,-10.132,
43302210,0.252,-0.856,1.209,-120.277,24.132,-15.4,
43302220,-0.161,-0.591,0.789,-79.1,60.2,1.697,
43302230,-0.683,-0.382,0.271,-29.137,13.457,19.32,
43302240,-0.62,-0.231,0.782,13.37,-61.18,39.252,
43302250,-0.39,-0.09,0.102,47.005,-150.045,74.795,
43302260,0.181,0.115,-0.015,111.352,-173.407,142.257,
43302270,0.25,0.271,-0.144,134.697,-184.327,181.02,
43302280,0.317,0.373,-0.654,127.61,-174.877,180.985,
43302290,0.293,0.706,-1.235,129.517,-183.225,169.347,
43302300,0.312,1.085,-1.335,110.267,-204.557,131.967,
43302310,0.5,0.765,-1.062,52.517,-197.75,79.765,
43302320,0.326,0.573,-0.622,-5.092,-147.997,27.247,
43302330,0.296,-1.451,-0.508,22.067,-61.39,-76.317,
43302340,-1.998,-1.998,0.497,-61.057,302.802,-154.472,
43302350,-1.898,-0.415,0.391,253.277,-27.37,-308.647,
43302360,1.7,1.997,-0.289,550.987,-209.86,-287.507,
43302370,0.974,0.098,0.829,333.69,130.987,-123.637,
43302380,0.705,-1.218,1.243,196.945,266.472,-61.39,
43302390,1.88,1.285,1.788,404.687,179.917,70.595,
43302400,-1.605,-0.243,1.739,216.212,244.79,142.94,
43302410,-1.719,1.672,1.694,157.675,107.205,72.345,
43302420,-0.385,-0.125,1.173,12.022,17.745,-6.107,
43302420,0.223,-0.188,1.092,-30.187,-19.95,-6.475,
43302440,-0.134,-0.179,1.053,-47.582,-28.7,6.72,
43302440,0.142,-0.38,1.014,-61.162,-38.71,7.822,
43302460,0.219,-0.411,0.948,-70.052,-39.602,9.1,
43302460,0.156,-0.416,0.947,-67.62,-39.147,12.46,
43302480,0.152,-0.395,0.959,-69.072,-36.592,11.952,
43302480,0.168,-0.399,1.003,-73.062,-34.195,9.31,
43302500,0.126,-0.262,1.066,-80.885,-34.492,9.31,
43302500,0.197,-0.053,1.2,-101.36,-41.405,12.162,
43302510,0.391,-0.338,1.21,-130.952,-30.94,8.19,
43302520,0.329,-0.381,1.203,-159.617,-16.992,9.8,
43302530,0.293,-0.074,1.301,-177.887,-14.14,22.54,
43302540,0.395,-0.225,1.079,-203.017,-11.375,34.737,
43302550,0.723,-0.636,0.872,-215.635,-6.545,47.53,
43302560,0.671,-0.824,0.808,-213.85,-2.485,78.855,
43302570,0.438,-0.94,0.922,-192.797,-8.942,110.477,
43302580,0.208,-1.187,0.849,-166.145,-18.27,130.27,
43302590,0.352,-1.074,0.84,-118.632,-33.442,132.16,
43302600,0.335,-1.42,0.753,-82.39,-46.042,114.555,
43302610,0.185,-1.497,0.602,-88.567,-48.02,102.042,
43302620,-0.182,-0.876,0.078,-51.047,-56.49,87.99,
43302630,0.58,0.039,0.21,5.722,-93.73,69.125,
43302640,1.258,0.09,0.219,27.247,-84.052,77.385,
43302650,1.069,-0.112,0.165,11.287,-55.23,6.282,
43302660,0.4,0.252,0.02,-3.062,-24.447,-98.577,
43302670,-0.491,0.534,-0.134,-9.852,-6.58,-136.447,
43302680,-0.586,0.639,-0.165,-7.682,-32.55,-165.077,
43302690,-0.419,0.791,0.005,-6.72,-58.03,-174.002,
43302700,-0.255,0.727,-0.005,-14.91,-39.427,-170.572,
43302710,-0.895,0.559,0.026,7.612,-4.497,-151.287,
43302720,-1.097,-1.404,0.273,36.085,78.4,-119.07,
43302730,-1.998,-1.998,0.348,-11.9,347.182,-58.24,
43302740,-1.23,-1.392,0.328,217.122,10.062,-259.297,
43302750,1.84,1.983,-0.153,493.465,-193.27,-301.822,
43302760,1.94,1.383,1.774,420.297,22.767,-101.062,
43302770,-0.188,-1.92,1.045,203.175,212.292,-33.32,
43302780,1.944,0.25,1.168,316.697,162.837,-12.25,
43302790,0.571,0.129,1.728,263.217,218.05,79.222,
43302800,-1.998,0.665,1.679,177.765,177.327,112.857,
43302810,-0.976,0.945,1.491,98.752,55.055,37.38,
43302820,-0.105,-0.159,1.115,-3.29,1.75,2.1,
43302830,0.321,-0.47,0.936,-30.012,-15.925,2.8,
43302830,0.195,-0.297,0.97,-28.49,-15.522,7.875,
43302850,0.114,-0.302,0.998,-29.872,-14.595,10.465,
43302850,-0.143,-0.258,0.995,-40.337,-15.575,8.907,
43302870,-0.008,-0.305,0.994,-49,-24.78,-4.585,
43302870,0.367,-0.417,0.996,-59.447,-28.56,-15.155,
43302880,0.364,-0.319,1.066,-68.897,-23.152,-8.33,
43302890,0.238,-0.266,1.155,-86.187,-18.252,2.432,
43302900,0.139,-0.159,1.188,-110.127,-19.67,8.505,
43302910,0.446,-0.156,1.276,-145.04,-21.945,13.125,
43302920,0.258,-0.165,1.23,-174.632,-8.4,17.045,
43302930,0.325,-0.205,1.202,-192.78,4.042,21.297,
43302940,0.381,-0.363,1.109,-207.112,17.78,24.692,
43302950,0.442,-0.567,0.994,-214.392,31.5,32.672,
43302960,0.386,-0.699,0.912,-200.27,33.582,47.285,
43302970,0.299,-0.765,1.041,-179.795,21.122,63.087,
43302980,0.045,-1.111,1.107,-162.75,5.372,73.447,
43302990,0.22,-1.191,1.01,-120.557,0.717,76.352,
43303000,0.226,-0.942,0.932,-79.45,17.797,72.24,
43303010,-0.162,-0.585,0.56,-48.895,31.15,51.94,
43303020,-0.254,-0.242,0.265,-23.572,33.88,27.02,
43303030,0.038,-0.35,0.266,9.117,-0.42,4.445,
43303040,1.034,0,-0.003,41.282,-56.227,-25.917,
43303050,0.548,0.114,-0.171,24.255,-56.105,-59.377,
43303060,-0.314,-0.041,-0.189,-13.51,-33.162,-98.77,
43303070,-0.497,-0.128,-0.21,-22.54,-62.177,-129.36,
43303080,-0.362,0.007,-0.217,-13.3,-89.547,-140.227,
43303090,-0.462,0.134,-0.267,-8.225,-104.44,-135.012,
43303100,-0.547,0.233,-0.43,-25.952,-113.295,-138.582,
43303110,-0.49,0.1,-0.251,-21.42,-124.39,-131.372,
43303120,-1.447,-1.6,1.79,-84.087,8.977,-103.88,
43303130,-1.549,-1.998,-0.764,47.617,98.227,-138.197,
43303140,1.798,0.234,0.303,321.965,1.207,-328.212,
43303150,0.748,1.087,0.784,218.225,116.55,-258.615,
43303160,1.269,-0.364,1.215,188.37,175.192,-165.165,
43303170,1.776,0.608,1.07,294.49,135.17,-69.037,
43303170,0.728,-0.727,1.247,210.052,191.905,8.522,
43303190,0.267,0.079,1.353,195.895,182.577,50.26,
43303190,-0.827,0.024,1.437,155.505,154.98,67.987,
43303210,-0.977,0.327,1.398,110.687,85.54,35.787,
43303210,-0.322,-0.01,1.204,44.957,32.847,3.71,
43303230,0.203,-0.207,1.067,12.197,0.07,-5.477,
43303230,0.296,-0.29,1.026,-3.64,-9.695,5.792,
43303250,0.112,-0.282,1.019,-19.145,-10.797,16.747,
43303250,0.023,-0.27,1.007,-30.257,-16.1,19.005,
43303260,0.048,-0.261,1.02,-40.495,-24.36,15.54,
43303270,0.111,-0.299,1.016,-53.322,-31.57,10.64,
43303280,0.173,-0.325,0.985,-64.925,-36.312,6.195,
43303290,0.261,-0.378,0.988,-74.235,-36.417,2.17,
43303300,0.257,-0.373,0.991,-86.572,-31.605,0,
43303310,0.221,-0.36,1.026,-98.315,-27.282,-1.295,
43303320,0.26,-0.316,1.069,-113.977,-24.36,-1.12,
43303330,0.155,-0.255,1.161,-134.785,-20.545,-0.595,
43303340,0.19,-0.241,1.161,-159.967,-21.892,0.07,
43303350,0.359,-0.403,1.067,-182.665,-19.425,2.38,
43303360,0.533,-0.43,0.991,-192.535,-20.877,16.047,
43303370,0.619,-0.583,1.082,-201.022,-27.877,42.087,
43303380,0.454,-0.724,1.171,-205.117,-34.877,66.57,
43303390,0.208,-1.094,1.201,-192.57,-48.702,77.77,
43303400,0.037,-1.33,1.009,-160.825,-79.432,79.17,
43303410,0.057,-1.088,0.999,-116.795,-108.045,70.367,
43303420,-0.302,-1.311,1.068,-94.045,-75.127,91.332,
43303430,-0.729,-1.988,0.584,-52.115,-51.1,96.25,
43303440,-0.68,-1.29,-0.475,23.432,-53.812,108.885,
43303450,-0.136,-0.002,-0.549,107.1,-86.345,126.56,
43303460,0.363,-0.419,-0.281,45.517,-67.357,111.702,
43303470,0.309,-0.872,-0.292,-51.432,-38.395,66.797,
43303480,0.382,-0.361,-0.181,-53.847,-40.372,28.367,
43303490,0.583,0.232,-0.244,-46.83,-22.61,1.75,
43303500,0.354,0.616,-0.17,-38.902,-19.127,-38.57,
43303510,0.282,0.762,-0.094,-48.51,-30.905,-97.685,
43303520,0.174,0.637,-0.133,-80.15,-45.185,-143.885,
43303530,0.223,0.547,-0.094,-85.82,-69.212,-165.777,
43303530,0.021,0.732,-0.061,-74.305,-89.005,-169.662,
43303550,0.28,0.195,0.056,-53.2,-80.465,-189.437,
43303550,-0.169,-1.845,1.813,-67.76,163.31,-111.807,
43303570,-1.902,-1.998,-1.26,104.79,291.55,-91.385,
43303570,1.583,0.536,0.542,404.145,91.49,-339.167,
43303580,1.757,1.587,0.575,332.937,126.262,-219.17,
43303590,1.558,-1.101,0.692,306.39,183.75,-39.112,
43303600,0.306,-0.261,1.187,352.292,202.055,32.095,
43303610,0.785,0.311,1.436,322.35,207.725,33.775,
43303620,-0.107,-0.149,1.464,262.832,201.11,47.302,
43303630,-0.562,0.399,1.628,214.917,150.675,41.562,
43303640,-0.974,0.557,1.476,137.532,90.807,21.84,
43303650,-0.475,0.198,1.369,58.52,33.635,-1.732,
43303660,-0.047,-0.106,1.076,-3.307,-0.56,-11.147,
43303670,0.224,-0.312,1.027,-19.547,-19.127,-7.735,
43303680,0.263,-0.427,0.919,-32.13,-18.917,-3.202,
43303690,0.197,-0.374,0.943,-32.795,-15.365,1.067,
43303700,0.203,-0.371,0.952,-34.282,-12.845,0.56,
43303710,0.258,-0.395,0.96,-39.27,-9.257,-1.295,
43303720,0.274,-0.348,1.014,-44.03,-5.022,-1.61,
43303730,0.242,-0.339,1.039,-55.912,1.277,-0.857,
43303740,0.214,-0.306,1.085,-69.352,7.42,-1.225,
43303750,0.214,-0.297,1.155,-86.765,12.127,-0.245,
43303760,0.187,-0.23,1.234,-107.975,18.497,1.75,
43303770,0.292,-0.333,1.208,-132.387,31.01,0.647,
43303780,0.401,-0.444,1.083,-151.83,42.262,3.167,
43303790,0.543,-0.604,1.062,-159.092,40.232,22.417,
43303800,0.581,-0.806,1.003,-153.212,26.67,53.655,
43303810,0.324,-0.855,1.081,-137.41,5.005,87.115,
43303820,0.025,-0.942,1.18,-126.63,-20.265,113.697,
43303830,-0.187,-0.828,1.074,-105.122,-63.332,116.322,
43303840,-0.208,-0.986,0.814,-84.98,-94.57,105.105,
43303850,-0.752,-1.806,0.315,-89.565,-100.502,106.855,
43303860,-0.102,-1.998,0.193,-54.197,-113.75,70.507,
43303870,0.527,-1.174,-0.284,24.167,-102.462,55.475,
43303880,-0.022,-0.272,-0.391,30.362,-51.8,36.4,
43303890,-0.438,-0.738,-0.337,-43.925,-20.527,-6.615,
43303900,-0.233,-1,-0.243,-78.837,-29.662,-13.09,
43303910,0.086,-0.409,-0.152,-60.532,-54.792,0.525,
43303920,0.177,0.189,-0.08,-46.375,-69.457,-5.092,
43303920,0.187,0.367,-0.06,-58.362,-76.72,-24.815,
43303940,0.259,0.497,-0.075,-67.725,-85.505,-50.242,
43303940,0.124,0.962,-0.069,-59.675,-110.792,-82.757,
43303960,0.054,1.649,-0.074,-65.625,-139.055,-126.28,
43303960,0.249,1.617,0.029,-80.99,-138.075,-168.542,
43303980,0.721,-0.201,1.569,-96.425,41.527,-161.682,
43303980,-1.653,-1.998,-0.39,-65.205,406.77,-44.59,
43304000,0.512,-1.574,1.065,429.607,148.61,-199.85,
43304000,0.823,1.991,0.659,433.755,57.067,-257.617,
43304010,1.362,-0.645,1.014,304.64,172.497,-57.067,
43304020,0.576,-0.386,1.055,331.73,161.735,-2.835,
43304030,0.962,0.751,1.917,371.332,141.977,37.922,
43304040,-1.022,0.523,1.745,223.405,160.23,56.735,
43304050,-0.894,0.738,1.655,143.325,81.707,26.355,
43304060,-0.305,0.247,1.359,33.6,24.85,5.425,
43304070,0.138,-0.264,0.948,-24.447,-7.507,4.322,
43304080,0.032,-0.412,1.063,-23.887,-22.33,15.942,
43304090,-0.018,-0.37,0.897,-35.017,-23.625,12.897,
43304100,0.087,-0.41,0.905,-34.16,-25.795,5.582,
43304110,0.155,-0.491,0.84,-32.375,-23.59,-3.482,
43304120,0.28,-0.444,0.92,-24.027,-19.53,-8.505,
43304130,0.208,-0.344,0.964,-25.322,-12.897,-7.875,
43304140,0.17,-0.278,1.04,-30.222,-11.532,-5.775,
43304150,0.148,-0.254,1.084,-45.36,-12.652,-4.917,
43304160,0.125,-0.249,1.131,-66.325,-15.907,-4.13,
43304170,0.056,-0.207,1.191,-92.382,-21.525,-1.995,
43304180,0.062,-0.244,1.192,-122.045,-35.91,2.765,
43304190,0.016,-0.295,1.17,-151.235,-52.36,7.052,
43304200,0.108,-0.372,1.106,-177.485,-75.652,12.845,
43304210,0.243,-0.43,1.052,-184.887,-102.55,21.822,
43304220,0.303,-0.597,1.212,-184.905,-128.1,31.64,
43304230,-0.021,-1.023,1.082,-177.485,-163.852,40.32,
43304240,-0.209,-1.244,0.821,-142.117,-207.235,43.382,
43304250,-0.165,-1.172,0.557,-94.867,-242.69,45.307,
43304260,-0.223,-1.7,0.52,-62.702,-248.92,53.147,
43304260,-0.498,-1.998,-0.149,-55.51,-184.432,109.812,
43304280,-1.975,-1.998,-0.729,-11.637,-108.465,236.442,
43304280,-0.444,-1.853,-1.379,90.702,-183.872,241.255,
43304300,1.208,-1.189,-0.66,122.167,-165.13,246.277,
43304300,0.543,-1.094,-0.456,-2.415,-91.682,226.835,
43304320,0.188,-0.998,-0.375,-52.36,-57.697,156.992,
43304320,-0.028,-0.565,-0.118,-18.952,-66.447,124.442,
43304330,-0.093,-0.022,-0.039,-17.972,-62.055,113.977,
43304340,-0.246,0.236,-0.058,-42.752,-51.362,122.43,
43304350,-0.434,0.617,-0.015,-17.36,-67.515,137.095,
43304360,0.134,1.336,0.424,40.285,-99.837,101.395,
43304370,1.135,1.667,1.763,17.78,-90.755,82.022,
43304380,1.998,1.37,1.488,130.427,-52.377,-20.002,
43304390,1.066,-0.823,0.586,242.462,80.447,-184.73,
43304400,-0.432,-1.998,1.056,154.542,170.87,-212.152,
43304410,1.995,1.438,0.388,390.862,53.935,-26.687,
43304420,1.105,-0.496,1.365,347.62,111.842,40.617,
43304430,0.054,-0.225,1.452,266.63,127.19,97.002,
43304440,-0.175,0.822,1.783,264.827,85.68,107.607,
43304450,-0.85,0.197,1.481,146.09,71.417,73.622,
43304460,-0.525,0.175,1.374,89.88,23.187,31.202,
43304470,-0.062,-0.184,1.148,25.672,-8.312,4.077,
43304480,0.221,-0.407,1.02,-3.272,-27.72,2.397,
43304490,0.202,-0.277,1.033,-10.727,-36.995,8.89,
43304500,0.128,-0.386,0.96,-29.575,-38.57,10.99,
43304510,0.171,-0.415,0.931,-37.1,-43.4,11.112,
43304520,0.255,-0.442,0.928,-43.522,-47.39,10.71,
43304530,0.291,-0.397,0.98,-50.75,-49.35,12.337,
43304540,0.259,-0.347,1.017,-64.995,-53.392,15.592,
43304550,0.236,-0.315,1.071,-83.65,-61.897,19.565,
43304560,0.234,-0.302,1.112,-105.717,-73.815,22.977,
43304570,0.278,-0.228,1.102,-134.102,-83.387,26.04,
43304580,0.325,-0.308,1.08,-162.942,-87.045,31.167,
43304590,0.358,-0.312,1.048,-186.497,-85.872,41.09,
43304600,0.313,-0.367,1.071,-205.327,-83.405,50.732,
43304610,0.243,-0.383,1.256,-222.337,-94.552,62.79,
43304620,-0.099,-0.531,1.21,-236.582,-126.595,74.865,
43304630,-0.293,-0.92,1.136,-220.727,-181.877,67.795,
43304640,-0.124,-1.185,1.017,-170.817,-242.812,42.56,
43304650,0.02,-1.151,1.497,-151.34,-243.355,14.122,
43304660,-0.793,-1.141,0.721,-156.065,-242.987,-16.94,
43304670,-0.019,-1.577,0.613,-67.55,-207.462,-13.195,
43304670,0.046,-1.884,0.646,-13.002,33.46,126.962,
43304690,-1.642,-0.205,-0.496,145.53,-0.052,161.175,
43304690,0.641,0.139,0.014,178.342,-64.067,115.08,
43304710,1.446,-0.596,-0.114,65.485,21.997,147.752,
43304710,0.507,0.127,-0.299,53.27,34.65,73.727,
43304730,0.092,0.574,-0.102,57.225,46.06,-3.867,
43304730,-0.309,0.054,0.026,3.43,64.505,-20.72,
43304750,-0.228,0.025,0.121,5.705,60.567,-41.527,
43304750,-0.091,0.32,0.102,29.277,74.795,-56.682,
43304760,-0.281,0.328,0,29.347,101.377,-63.507,
43304770,-0.36,0.125,-0.055,23.572,110.53,-82.722,
43304780,-0.378,-0.075,-0.823,3.955,75.46,-143.36,
43304790,1.998,-1.989,0.145,-41.16,212.852,-247.905,
43304800,0.084,-1.899,-0.127,57.032,388.272,-416.115,
43304810,-1.961,1.732,1.856,192.972,299.075,-244.23,
43304820,1.407,0.22,0.264,322.647,79.887,-172.375,
43304830,1.522,-1.67,0.613,282.572,163.712,-72.712,
43304840,0.158,0.361,0.737,333.777,174.877,75.127,
