#Format version: 1.0
time[ms],accX[g],accY[g],accZ[g],Value 1,Value 2,Value 3,
39877250,-0.059,-0.165,0.973,-3.36,0.245,3.062,
39877260,-0.073,-0.168,0.978,-3.832,2.065,3.307,
39877270,-0.09,-0.159,0.978,-4.007,2.135,3.99,
39877280,-0.092,-0.176,0.981,-4.795,1.627,4.707,
39877290,-0.08,-0.174,0.975,-4.182,0.595,5.075,
39877300,-0.099,-0.163,0.978,-3.5,0.122,4.462,
39877310,-0.103,-0.151,0.976,-3.482,-1.032,4.095,
39877320,-0.097,-0.177,0.981,-3.99,-2.31,4.847,
39877330,-0.077,-0.18,0.976,-3.237,-3.657,4.165,
39877340,-0.039,-0.173,0.968,-2.625,-3.692,4.095,
39877350,-0.026,-0.17,0.965,-2.1,-1.33,3.535,
39877360,-0.037,-0.167,0.969,-1.662,1.662,2.187,
39877370,-0.053,-0.162,0.972,-1.452,4.392,1.75,
39877380,-0.054,-0.164,0.973,-1.767,6.212,2.152,
39877390,-0.064,-0.164,0.975,-1.907,8.032,2.625,
39877400,-0.067,-0.16,0.975,-2.467,8.925,3.062,
39877410,-0.057,-0.179,0.977,-3.045,10.36,3.727,
39877420,-0.054,-0.175,0.979,-2.852,11.34,3.202,
39877420,-0.106,-0.17,0.98,-2.975,12.775,3.045,
39877440,-0.151,-0.178,0.985,-3.08,11.375,2.922,
39877440,-0.162,-0.176,0.988,-3.167,8.575,3.36,
39877460,-0.181,-0.197,1.001,-3.465,4.83,3.465,
39877460,-0.228,-0.218,1.009,-2.957,0,2.992,
39877480,-0.214,-0.207,0.999,-1.68,-8.785,2.572,
39877480,-0.177,-0.191,0.989,-2.222,-15.522,5.372,
39877500,-0.155,-0.171,0.984,-2.467,-20.982,7.052,
39877500,-0.15,-0.083,0.973,-0.805,-25.13,5.775,
39877510,-0.241,-0.036,0.969,-3.535,-30.275,6.23,
39877520,-0.222,-0.1,0.976,-7.455,-37.765,9.782,
39877530,-0.085,-0.14,0.984,-6.982,-46.147,10.08,
39877540,0.063,-0.161,0.972,-8.225,-47.757,9.59,
39877550,-0.061,-0.16,0.98,-8.907,-44.222,9.257,
39877560,0.14,-0.154,0.946,-6.527,-43.155,8.505,
39877570,0.238,-0.222,0.936,-9.31,-32.217,13.825,
39877580,0.19,-0.283,0.919,-7.945,-16.397,13.125,
39877590,0.249,-0.245,0.928,-2.327,-0.63,10.01,
39877600,0.249,-0.274,0.921,-1.575,18.865,11.9,
39877610,0.183,-0.233,0.922,-0.105,38.167,12.442,
39877620,0.221,-0.175,0.921,2.117,54.74,12.53,
39877630,0.061,-0.13,0.999,-0.595,70.525,11.182,
39877640,-0.168,-0.114,0.994,-1.295,75.617,5.005,
39877650,-0.142,-0.143,0.99,1.067,71.12,2.607,
39877660,-0.117,-0.175,1.009,1.05,65.94,2.135,
39877670,-0.199,-0.181,0.981,4.655,59.692,-2.345,
39877680,-0.223,-0.148,0.964,8.47,52.78,-3.01,
39877690,-0.358,-0.187,0.967,6.51,45.447,0.857,
39877700,-0.451,-0.166,0.958,6.912,31.517,1.995,
39877710,-0.422,-0.134,0.962,5.757,14.017,2.24,
39877720,-0.322,-0.135,0.971,2.59,-1.75,1.715,
39877730,-0.225,-0.201,0.98,1.347,-12.337,0.122,
39877740,-0.111,-0.17,0.972,1.365,-17.955,-0.682,
39877750,-0.034,-0.174,0.961,-0.192,-16.187,1.33,
39877760,-0.011,-0.142,0.967,-0.525,-10.57,3.132,
39877760,-0.031,-0.137,0.971,-0.927,-3.272,3.5,
39877780,-0.084,-0.154,0.968,-2.205,1.872,3.92,
39877780,-0.078,-0.152,0.969,-2.24,4.882,3.745,
39877800,-0.045,-0.147,0.973,-1.05,7.052,1.47,
39877800,-0.099,-0.133,0.968,-0.892,10.185,0.245,
39877820,-0.129,-0.138,0.98,-2.152,10.692,-1.067,
39877820,-0.179,-0.137,0.972,-2.537,9.1,-3.062,
39877830,-0.199,-0.141,0.975,-1.977,5.092,-5.46,
39877840,-0.21,-0.165,0.975,-2.065,1.435,-7.087,
39877850,-0.158,-0.151,0.967,-0.507,-2.205,-8.802,
39877860,-0.181,-0.174,0.961,-0.297,-3.43,-10.447,
39877870,-0.186,-0.195,0.952,-0.157,-5.862,-11.305,
39877880,-0.149,-0.151,0.957,0.49,-6.895,-10.237,
39877890,-0.134,-0.169,0.97,0.98,-6.825,-10.062,
39877900,-0.106,-0.165,0.975,2.415,-5.39,-9.642,
39877910,-0.129,-0.124,0.968,3.57,-3.955,-9.117,
39877920,-0.14,-0.152,0.973,2.117,-2.537,-8.347,
39877930,-0.149,-0.135,0.974,1.05,-3.027,-7.472,
39877940,-0.121,-0.128,0.977,-0.49,-2.695,-7.49,
39877950,-0.115,-0.138,0.979,-3.902,-1.855,-7.42,
39877960,-0.114,-0.157,0.982,-7.56,-0.245,-7.035,
39877970,-0.107,-0.12,0.988,-11.41,0.997,-8.102,
39877980,-0.125,-0.109,1.001,-19.145,3.5,-7.927,
39877990,-0.156,-0.141,1.031,-30.905,4.637,-8.837,
39878000,-0.213,-0.121,1.076,-43.942,2.642,-14.192,
39878010,-0.184,-0.164,1.161,-64.347,-1.19,-22.925,
39878020,-0.147,-0.236,1.132,-93.152,-3.587,-37.607,
39878030,-0.338,-0.469,1.097,-126.192,6.055,-62.895,
39878040,0.219,-0.231,1.04,-153.58,46.9,-95.725,
39878050,-0.579,-0.536,0.957,-155.067,102.62,-135.135,
39878060,-0.317,-1.057,0.738,-108.657,112.262,-161.997,
39878070,-0.543,-1.372,0.489,-84.962,140.105,-175.245,
39878080,-0.896,-1.713,0.188,-51.712,161.56,-196.402,
39878090,-0.946,-1.982,0.041,-42.245,163.852,-217.035,
39878100,-1.713,-1.998,-0.295,-22.925,152.792,-159.39,
39878110,-1.898,-1.783,-0.025,-51.957,94.745,-92.802,
39878120,-1.341,-0.95,0.012,-108.85,43.68,1.592,
39878130,0.084,-0.341,0.363,-149.135,26.722,126.367,
39878140,1.707,0.159,0.787,-168.91,35.332,204.505,
39878150,1.998,1.534,1.798,-120.505,18.602,162.172,
39878160,1.998,1.997,1.998,9.292,-40.32,53.462,
39878170,-0.725,1.616,0.617,239.68,-33.11,-10.675,
39878170,-1.985,-1.954,0.97,332.377,-61.25,99.995,
39878190,0.187,-0.369,1.344,343.227,-171.027,209.842,
39878190,-1.76,1.536,1.524,334.722,-164.412,91.035,
39878210,0.207,0.847,1.405,207.2,-177.537,2.45,
39878210,1.675,0.839,1.24,73.605,-113.032,-48.842,
39878230,0.753,0.349,1.065,6.667,-13.58,-45.587,
39878230,-0.135,-0.386,1.023,-48.475,39.865,-13.212,
39878240,-0.58,-0.256,0.931,-47.81,39.322,-11.62,
39878250,-0.545,-0.424,0.917,-42.105,21.07,-20.44,
39878260,-0.435,-0.37,0.933,-21.787,2.852,-34.212,
39878270,-0.055,-0.259,0.938,-9.695,-9.887,-37.747,
39878280,0.02,-0.287,0.981,-8.452,-8.785,-18.76,
39878290,-0.116,-0.191,0.986,-15.837,-4.007,-7.892,
39878300,-0.196,-0.085,1.032,-23.625,-0.192,-5.74,
39878310,-0.281,-0.014,1.091,-39.917,3.202,-11.515,
39878320,-0.221,-0.15,1.116,-68.442,6.65,-28.77,
39878330,-0.295,-0.097,1.257,-108.465,21.56,-54.215,
39878340,-0.146,0.044,1.223,-149.432,21.63,-77,
39878350,-0.174,-0.1,1.174,-191.922,21.455,-82.337,
39878360,-0.142,-0.151,1.075,-224.962,20.825,-76.195,
39878370,0,-0.227,1.007,-244.632,24.447,-70.525,
39878380,-0.012,-0.214,0.868,-246.732,34.072,-65.45,
39878390,-0.303,-0.545,0.94,-249.182,39.34,-66.097,
39878400,-0.233,-0.484,1.086,-229.197,29.732,-69.125,
39878410,-0.244,-0.79,1.313,-246.4,52.955,-67.62,
39878420,-0.359,-1.125,1.262,-221.34,63.07,-62.702,
39878430,-0.49,-1.008,1.064,-162.155,78.942,-51.24,
39878440,-0.311,-1.092,0.476,-110.32,84.735,-40.022,
39878450,0.07,-1.595,0.932,-32.987,121.712,-45.185,
39878460,-0.563,-0.635,1.114,71.47,121.59,-73.36,
39878470,-0.792,-0.364,-0.128,139.842,70.595,-115.937,
39878480,-0.995,0.744,-0.629,152.635,25.602,-114.205,
39878490,-0.768,1.138,-0.718,117.915,49.647,-55.72,
39878500,-0.814,0.892,-0.382,51.66,65.222,39.847,
39878510,-0.498,0.479,-0.35,21.14,58.03,155.68,
39878510,0.05,0.326,-0.522,56.997,21.927,264.005,
39878530,0.415,-0.075,-0.879,78.61,-24.01,345.432,
39878530,1.047,-0.93,-0.895,33.687,-52.29,340.375,
39878550,1.57,-1.998,1.328,-23.625,-116.585,235.2,
39878550,-0.67,-1.998,-1.424,264.127,-268.572,171.605,
39878570,-0.698,1.078,0.933,524.457,-238.122,159.145,
39878570,0.832,1.34,1.793,358.207,-222.442,279.335,
39878580,-1.984,-1.332,1.619,262.71,-233.292,158.287,
39878590,0.46,1.376,1.373,271.005,-287.7,14.472,
39878600,0.421,0.048,0.969,24.657,-148.522,-35.98,
39878610,1.507,0.261,0.999,-21.437,-12.46,-40.53,
39878620,0.066,-0.509,1.066,-53.042,61.337,7.595,
39878630,-0.514,-0.183,0.952,-47.232,76.125,8.242,
39878640,-0.871,-0.643,0.888,-42.752,54.18,-11.62,
39878650,-0.635,-0.426,0.886,-7.507,18.445,-29.505,
39878660,-0.17,-0.42,0.947,12.74,-7.665,-21.577,
39878670,-0.244,-0.193,0.966,19.162,-16.345,-3.08,
39878680,-0.366,-0.168,0.974,14.63,-22.592,2.117,
39878690,0.027,-0.027,1.005,15.26,-28.525,-4.007,
39878700,0.071,-0.043,1.006,1.592,-18.252,-2.537,
39878710,0.005,-0.075,0.994,-11.34,-6.055,3.955,
39878720,0.01,-0.106,1,-22.785,3.29,6.475,
39878730,0.012,-0.13,1.005,-34.055,12.512,8.172,
39878740,-0.015,-0.118,1.039,-46.935,22.54,9.467,
39878750,-0.056,-0.096,1.09,-64.995,33.705,9.205,
39878760,-0.113,-0.1,1.164,-89.722,43.05,7.402,
39878770,-0.236,-0.144,1.199,-116.287,48.422,3.045,
39878780,-0.321,-0.097,1.226,-147.997,43.522,-1.645,
39878790,-0.314,-0.024,1.155,-184.432,32.497,-9.537,
39878800,-0.269,-0.052,1.101,-215.53,25.847,-15.47,
39878810,-0.222,-0.168,1.109,-245.385,28.805,-26.477,
39878820,0.012,-0.341,1.072,-265.475,40.162,-35.28,
39878830,0.187,-0.673,1.045,-284.585,74.935,-34.842,
39878840,0.225,-0.914,1.033,-283.867,126.402,-26.897,
39878850,0.107,-0.959,0.831,-257.687,172.007,0.98,
39878860,0.249,-1.612,0.139,-234.115,191.572,19.722,
39878870,0.376,-1.547,0.678,-204.575,188.702,4.55,
39878880,0.054,-0.733,0.854,-166.162,142.747,-48.667,
39878890,-0.391,-0.484,0.152,-85.995,69.422,-77.087,
39878890,0.115,-0.679,0.771,-87.325,10.045,-72.642,
39878910,0.46,-0.87,1.147,-47.757,-27.125,-49.472,
39878910,1.214,-0.701,1.284,51.765,-73.15,-74.55,
39878920,1.276,-0.292,1.248,119.945,-96.757,-122.412,
39878930,0.43,0.117,0.314,177.047,-117.67,-167.807,
39878940,0.379,0.607,-0.703,229.705,-119.91,-190.54,
39878950,0.402,1.059,-1.366,225.977,-85.225,-171.692,
39878960,-0.137,0.897,-1.5,159.512,-49.472,-136.727,
39878970,-0.277,-0.263,-0.217,63.455,0.647,-85.995,
39878980,-1.896,-1.831,1.18,7.245,281.225,56.682,
39878990,-0.286,-1.998,-1.749,444.062,-64.505,346.85,
39879000,1.353,0.392,1.819,409.85,-13.282,502.827,
39879010,-1.954,1.373,1.304,327.162,-96.145,366.467,
39879020,-1.192,1.067,1.71,469.822,-203.612,196.087,
39879030,-1.661,-0.881,1.549,247.345,-243.6,95.847,
39879040,1.9,1.809,1.087,183.557,-243.022,-24.43,
39879050,1.35,0.695,1.056,1.505,-82.687,-33.67,
39879060,0.487,-0.425,1.085,-67.55,23.467,8.82,
39879070,-0.356,-0.754,0.941,-67.375,43.33,8.732,
39879080,-0.103,-0.473,0.939,-30.292,31.745,-5.425,
39879090,-0.426,-0.37,0.939,-20.51,28.507,-2.38,
39879100,-0.072,-0.029,1.027,-16.625,21.7,-8.032,
39879110,0.026,-0.102,0.992,-27.965,25.147,-11.725,
39879120,-0.163,-0.39,0.927,-27.667,28.7,-2.782,
39879130,-0.312,-0.284,0.933,-16.642,25.217,3.99,
39879140,-0.258,-0.098,0.982,-8.925,17.465,-4.06,
39879150,-0.175,-0.186,0.976,-10.57,14.087,-7.542,
39879160,-0.07,-0.177,0.986,-13.405,13.475,-8.12,
39879170,-0.144,-0.223,0.962,-15.89,15.61,-3.29,
39879180,-0.225,-0.225,0.953,-17.22,14.91,1.907,
39879190,-0.208,-0.186,0.978,-15.855,12.757,0.84,
39879200,-0.201,-0.091,1.011,-20.842,11.847,-1.557,
39879210,-0.216,-0.122,1.034,-31.027,12.302,-6.615,
39879220,-0.207,-0.108,1.066,-43.54,11.462,-13.825,
39879230,-0.191,-0.176,1.089,-60.865,10.955,-19.687,
39879240,-0.206,-0.207,1.138,-82.407,9.625,-24.71,
39879250,-0.237,-0.18,1.159,-109.9,7.297,-32.69,
39879260,-0.329,-0.172,1.132,-142.047,1.26,-42.98,
39879260,-0.414,-0.231,1.099,-176.61,-1.032,-54.215,
39879280,-0.592,-0.355,1.103,-207.235,-3.885,-71.785,
39879280,-0.638,-0.487,0.984,-223.212,-3.15,-100.695,
39879300,-0.539,-0.561,1.026,-222.442,13.475,-136.57,
39879300,-0.674,-0.78,0.94,-197.907,44.537,-165.305,
39879320,-0.234,-1.385,0.225,-157.762,83.632,-189.84,
39879320,-0.109,-1.998,0.451,-118.737,165.515,-222.897,
39879330,-1.178,-1.998,0.585,-41.65,256.707,-232.242,
39879340,-1.933,-1.876,-0.892,47.39,236.985,-244.632,
39879350,-1.839,-1.433,-1.04,62.44,166.757,-249.41,
39879360,-1.152,-1.32,-1.039,-23.467,183.225,-166.6,
39879370,-0.738,-0.819,-0.428,-79.047,222.197,-36.4,
39879380,-0.556,-0.429,0.043,-111.912,194.722,49.787,
39879390,0.591,0.368,0.019,-135.292,145.81,109.917,
39879400,1.753,1.174,0.193,-137.935,119.875,167.93,
39879410,1.998,1.568,0.677,-149.765,107.012,177.992,
39879420,1.998,1.85,0.883,-145.215,65.502,142.66,
39879430,1.757,0.901,1.323,-105.91,-4.83,95.06,
39879440,0.19,-0.148,1.998,120.085,-184.625,56.962,
39879450,-1.998,-1.663,-0.9,471.327,-250.827,171.64,
39879460,-0.394,-0.98,1.624,388.885,-335.702,213.325,
39879470,0.985,1.69,1.602,288.33,-257.775,232.645,
39879480,-1.781,-0.821,1.217,382.34,-213.29,25.462,
39879490,-0.294,0.828,1.517,331.992,-230.737,-41.247,
39879500,0.836,0.365,1.551,236.582,-212.52,-86.992,
39879510,1.596,0.491,1.386,131.95,-138.897,-64.33,
39879520,0.745,0.411,1.157,36.172,-39.917,-19.757,
39879530,0.196,-0.086,1.081,-29.032,17.43,-1.505,
39879540,0.015,-0.146,1.046,-44.94,41.265,-8.365,
39879550,-0.409,-0.244,0.955,-56.42,53.375,-16.432,
39879560,-0.317,-0.35,0.932,-53.497,48.632,-27.562,
39879570,-0.28,-0.418,0.863,-54.25,46.217,-33.46,
39879580,-0.395,-0.23,0.96,-56.14,44.135,-37.45,
39879580,-0.3,-0.315,0.974,-55.79,32.917,-33.197,
39879600,-0.189,-0.161,1.069,-64.837,23.275,-22.732,
39879600,-0.243,-0.107,1.14,-89.407,16.257,-13.562,
39879620,-0.271,-0.108,1.175,-123.34,7.735,-9.782,
39879620,-0.221,-0.142,1.162,-159.547,0.175,-9.835,
39879640,-0.165,-0.159,1.129,-187.337,-2.292,-11.077,
39879640,-0.144,-0.15,1.04,-215.705,1.89,-9.73,
39879660,-0.138,-0.183,1.003,-240.065,3.745,-9.117,
39879660,-0.092,-0.395,0.993,-245.525,0.105,-10.342,
39879670,-0.037,-0.205,1.023,-238.332,-3.097,-3.482,
39879680,0.043,-0.505,1.087,-270.287,11.27,1.767,
39879690,0,-0.598,1.082,-282.24,30.327,7.035,
39879700,-0.023,-0.745,1.109,-284.97,52.01,6.825,
39879710,0.012,-0.825,1.186,-276.955,79.397,3.85,
39879720,0.029,-1.053,1.001,-258.877,131.197,5.425,
39879730,0.054,-1.062,1.045,-219.957,174.982,16.485,
39879740,0.276,-1.388,0.89,-160.72,203.035,32.34,
39879750,0.632,-1.452,0.578,-67.847,175.105,-35.91,
39879760,0.948,-0.698,0.917,52.097,90.737,-119.472,
39879770,1.998,-0.943,1.995,121.24,138.722,-119.192,
39879780,0.983,-1.343,0.394,246.382,66.587,-188.037,
39879790,-0.459,-0.126,-0.421,291.462,-67.532,-372.277,
39879800,-0.04,0.839,-1.681,294.77,-32.882,-373.415,
39879810,-0.263,1.135,-1.885,209.405,-47.565,-300.335,
39879820,-0.688,1.01,-1.26,67.585,-25.287,-219.065,
39879830,-0.485,-0.299,-0.421,-54.775,11.235,-125.09,
39879840,-1.839,-1.413,0,44.467,-151.34,20.912,
39879850,-1.135,-1.998,1.395,109.235,-296.205,174.545,
39879860,1.998,-1.998,-0.491,324.817,86.152,463.12,
39879870,1.563,-1.081,0.776,225.452,101.465,562.642,
39879880,-1.924,1.933,1.091,291.83,81.917,267.312,
39879890,-1.997,-0.124,0.439,397.04,-62.947,59.465,
39879900,-0.075,-1.133,1.411,293.93,-126.857,191.852,
39879910,-1.224,-0.313,0.934,304.85,-143.552,4.865,
39879920,-0.879,-0.154,1.161,351.855,-156.765,-134.907,
39879930,0.234,0.653,1.783,278.722,-177.572,-167.545,
39879940,1.934,0.998,1.387,207.707,-169.732,-106.802,
39879950,1.593,1.073,1.245,56.07,-67.287,-2.625,
39879960,0.619,0.771,1.741,-110.582,36.33,57.732,
39879970,-0.291,0.863,1.972,-249.27,82.372,43.785,
39879980,-0.823,1.734,1.998,-435.995,77.875,11.41,
39879990,-1.397,1.288,1.993,-565.407,23.52,-33.827,
39880000,-1.253,-0.859,1.984,-573.37,-149.852,-76.842,
39880010,-0.447,-1.788,1.998,-573.37,-360.01,-21.14,
39880010,-0.513,-1.749,1.998,-573.37,-195.58,6.142,
39880030,-0.815,-1.869,1.998,-573.37,-161.122,-17.202,
39880030,-0.599,-1.901,1.998,-571.077,-74.025,100.152,
39880050,0.728,-1.998,1.989,-388.815,-50.592,233.467,
39880050,1.246,-1.644,0.902,42.175,-123.252,225.802,
39880070,0.96,-1.368,-0.342,138.74,-126,75.757,
39880070,0.181,-1.473,-0.724,52.097,-138.337,-88.567,
39880080,-0.94,-1.438,-1.139,31.202,-141.942,-156.94,
39880090,-1.389,-1.1,-1.27,38.447,-155.085,-143.902,
39880100,-0.862,-0.675,-1.449,-28,-134.155,-118.615,
39880110,-0.956,-0.821,-1.507,-82.46,-96.775,-21.805,
39880120,-0.654,-0.978,-1.485,-60.252,-73.237,75.495,
39880130,-0.201,-0.832,-1.364,-56.28,-57.75,109.935,
39880140,-0.151,-0.755,-1.316,-58.905,-48.44,117.897,
39880150,0.001,-0.689,-1.213,-56.175,-41.352,102.06,
39880160,0.112,-0.517,-1.037,-52.902,-36.715,69.457,
39880170,0.047,-0.315,-0.904,-57.155,-33.792,37.835,
39880180,0.055,-0.16,-0.798,-69.825,-30.17,17.955,
39880190,0.1,-0.093,-0.662,-82.46,-27.597,9.975,
39880200,0.068,-0.043,-0.518,-82.915,-29.137,5.495,
39880210,0.001,0.026,-0.388,-75.32,-33.18,2.012,
39880220,-0.009,0.113,-0.296,-71.75,-36.942,3.465,
39880230,-0.011,0.185,-0.198,-72.975,-39.427,8.505,
39880240,-0.027,0.198,-0.064,-74.935,-42.105,15.995,
39880250,-0.082,0.162,0.101,-74.445,-46.41,26.915,
39880260,-0.114,0.114,0.234,-67.27,-53.112,39.252,
39880270,-0.131,0.117,0.241,-51.66,-60.515,53.217,
39880280,-0.054,0.161,0.151,-29.82,-66.342,64.802,
39880290,0.029,0.232,0.06,-17.412,-61.915,70.945,
39880300,0.085,0.244,0.053,-13.195,-49.962,72.992,
39880310,0.245,0.117,0.222,-10.342,-35.997,71.82,
39880320,0.016,0.289,0.194,-34.37,-20.23,71.12,
39880330,0.49,-0.288,0.653,122.132,-24.412,38.237,
39880330,0.7,-0.316,0.977,147.017,-4.882,40.302,
39880350,0.667,-0.373,1.111,41.212,27.265,40.337,
39880350,0.627,-0.642,1.257,-5.74,31.062,3.062,
39880370,0.523,-0.758,1.288,25.497,14.595,-39.532,
39880370,0.282,-0.606,1.172,31.727,-0.805,-38.027,
39880390,0.215,-0.592,1.066,10.325,-18.165,-33.81,
39880390,0.127,-0.598,0.975,-6.475,-37.677,-34.335,
39880410,0.02,-0.793,0.989,-29.452,-42.332,-27.282,
39880410,-0.096,-0.904,1.023,-25.322,-47.197,-25.602,
39880420,-0.126,-0.958,1.03,-9.975,-47.197,-13.265,
39880430,-0.14,-1.136,1.039,1.225,-43.26,3.78,
39880440,-0.168,-1.462,1.013,9.135,-38.57,11.987,
39880450,-0.033,-1.486,0.981,27.107,-35.7,-5.635,
39880460,-0.222,-1.415,1.002,49.105,-29.382,-9.835,
39880470,-0.341,-1.921,0.953,58.152,-29.277,0.472,
39880480,-0.473,-1.956,0.823,42.875,-45.797,-15.662,
39880490,-0.684,-1.843,0.727,50.89,-63.787,-0.017,
39880500,-0.628,-1.957,0.576,54.32,-69.947,27.72,
39880510,-0.4,-1.998,0.496,49.91,-60.41,67.27,
39880520,-0.074,-1.998,0.539,41.09,-32.27,101.15,
39880530,0.149,-1.998,0.536,39.69,8.05,116.27,
39880540,0.066,-1.998,0.323,54.372,39.97,113.365,
39880550,-0.071,-1.998,0.021,69.965,42.892,98.42,
39880560,0.08,-1.998,-0.185,61.757,29.365,79.887,
39880570,0.236,-1.998,-0.304,36.207,21.367,65.275,
39880580,0.145,-1.998,-0.309,12.337,18.392,54.565,
39880590,-0.005,-1.998,-0.265,-8.75,9.712,46.865,
39880600,-0.037,-1.998,-0.254,-28.63,-7.822,44.922,
39880610,0.07,-1.997,-0.278,-49.455,-24.815,45.78,
39880620,0.155,-1.878,-0.301,-70.402,-37.747,39.042,
39880630,0.078,-1.695,-0.292,-87.045,-49.665,21.332,
39880640,-0.039,-1.479,-0.311,-97.772,-63.227,-0.805,
39880650,-0.123,-1.213,-0.346,-105.122,-71.19,-17.045,
39880660,-0.217,-0.957,-0.346,-114.765,-73.412,-25.917,
39880670,-0.285,-0.726,-0.284,-126.385,-72.257,-27.702,
39880680,-0.262,-0.507,-0.181,-136.605,-70.402,-24.92,
39880690,-0.212,-0.307,-0.058,-142.31,-63.665,-20.597,
39880700,-0.174,-0.128,0.064,-141.54,-55.982,-18.375,
39880710,-0.106,0.02,0.191,-136.955,-47.075,-21.157,
39880720,-0.083,0.171,0.295,-127.96,-42.017,-30.712,
39880730,-0.115,0.355,0.374,-112.665,-43.085,-47.022,
39880740,-0.198,0.557,0.4,-91.577,-49.42,-64.627,
39880750,-0.254,0.739,0.37,-67.007,-55.632,-78.487,
39880760,-0.241,0.945,0.33,-42.42,-56.49,-85.732,
39880760,-0.196,1.075,0.315,-20.912,-49.822,-88.252,
39880780,-0.142,1.049,0.328,0.175,-38.972,-93.467,
39880780,-0.239,1.062,0.297,25.602,-32.235,-105.28,
39880800,-0.525,1.093,0.204,54.39,-42.017,-113.907,
39880800,-0.718,1.203,0.291,53.112,-53.585,-111.772,
39880820,-0.748,1.115,0.509,44.065,-45.745,-86.66,
39880820,-0.773,0.972,0.591,54.565,-14.822,-31.71,
39880830,-0.786,0.95,0.526,83.65,16.415,35.157,
39880840,-0.678,0.913,0.56,105.122,36.505,93.87,
39880850,-0.43,0.604,0.692,106.015,46.97,138.88,
39880860,-0.147,0.174,0.811,108.955,55.387,169.942,
39880870,0.157,-0.147,0.898,127.207,62.335,173.442,
39880880,0.363,-0.509,0.942,150.5,76.912,152.88,
39880890,0.331,-0.926,0.921,167.79,89.845,112.052,
39880900,0.17,-1.157,0.821,183.295,87.132,52.867,
39880910,-0.007,-1.32,0.608,196.805,74.462,-0.21,
39880920,-0.172,-1.529,0.443,194.162,73.552,-25.62,
39880930,-0.34,-1.807,0.392,172.725,85.785,-24.097,
39880940,-0.256,-1.995,0.551,135.135,108.867,2.047,
39880950,0.017,-1.908,0.787,90.947,128.222,28.857,
39880960,0.373,-1.933,1.073,76.125,129.482,-0.525,
39880970,0.019,-1.998,0.9,11.952,123.847,-18.165,
39880980,-0.066,-1.998,0.869,19.145,93.03,-54.617,
39880990,0.167,-1.998,0.835,33.425,57.4,-170.94,
39881000,-0.343,-1.998,0.745,35.595,81.112,-134.382,
39881010,-0.421,-1.998,0.57,45.692,101.272,-103.775,
39881020,-0.344,-1.998,0.496,48.912,99.067,-88.672,
39881030,0.017,-1.998,0.537,27.3,110.652,-60.602,
39881040,0.292,-1.998,0.616,1.627,127.855,-57.75,
39881050,0.306,-1.998,0.785,-11.55,140.682,-82.652,
39881060,0.185,-1.998,1.032,-23.747,143.115,-112.787,
39881070,0.011,-1.977,1.202,-32.287,131.18,-144.287,
39881080,-0.076,-1.753,1.302,-35.437,117.215,-164.535,
39881080,-0.167,-1.55,1.272,-41.632,106.89,-170.572,
39881100,-0.118,-1.308,1.282,-49,98.105,-167.02,
39881100,-0.087,-1.202,1.315,-61.705,93.205,-156.835,
39881120,-0.125,-1.183,1.297,-69.422,84.56,-146.055,
39881120,-0.155,-1.082,1.203,-67.112,67.532,-137.637,
39881140,-0.089,-0.954,1.041,-63.175,49.98,-128.397,
39881140,-0.021,-0.868,0.867,-59.255,43.225,-116.235,
39881160,-0.082,-0.827,0.691,-53.637,40.932,-101.622,
39881160,-0.089,-0.78,0.526,-50.207,36.067,-81.882,
39881170,-0.016,-0.758,0.409,-51.047,29.365,-56.367,
39881180,-0.026,-0.752,0.313,-54.722,21.385,-37.572,
39881190,-0.138,-0.688,0.208,-55.02,8.172,-33.95,
39881200,-0.195,-0.548,0.081,-50.942,-4.655,-36.26,
39881210,-0.118,-0.423,-0.029,-51.047,-7.42,-36.172,
39881220,-0.121,-0.299,-0.135,-59.08,-0.875,-35.192,
39881230,-0.18,-0.545,-0.095,-41.387,5.197,-30.887,
39881240,0.066,-0.331,-0.071,-3.447,3.167,-35.735,
39881250,0.095,-0.068,-0.137,-31.08,5.705,-34.212,
39881260,0.066,-0.25,-0.134,-60.637,2.205,-36.365,
39881270,0.171,-0.297,-0.05,-54.232,-9.747,-49.735,
39881280,0.19,-0.091,-0.01,-43.942,-21.42,-66.08,
39881290,0.134,-0.021,0.002,-50.085,-29.575,-74.812,
39881300,0.145,-0.046,0.053,-53.602,-39.83,-80.132,
39881310,0.118,0.002,0.098,-46.882,-50.942,-84.437,
39881320,0.069,0.005,0.165,-43.732,-58.887,-85.82,
39881330,0.03,-0.034,0.238,-36.137,-60.987,-84.647,
39881340,-0.048,-0.001,0.241,-22.505,-59.867,-76.895,
39881350,-0.123,0.007,0.228,-20.37,-56.945,-58.415,
39881360,-0.115,-0.067,0.282,-29.68,-55.23,-35.122,
39881370,-0.047,-0.167,0.404,-41.58,-50.487,-10.902,
39881380,0.05,-0.337,0.539,-52.972,-42.665,14.42,
39881390,0.21,-0.5,0.677,-64.295,-34.965,29.557,
39881400,0.389,-0.648,0.843,-70.455,-27.65,29.382,
39881410,0.386,-0.727,1.018,-71.26,-20.93,15.575,
39881420,0.25,-0.764,1.116,-65.695,-24.465,-8.767,
39881430,0.196,-0.743,1.153,-54.88,-36.592,-30.222,
39881440,0.19,-0.694,1.079,-42.595,-52.132,-44.362,
39881450,0.226,-0.666,0.948,-26.267,-54.81,-48.755,
39881460,0.219,-0.615,0.821,-6.72,-47.635,-44.415,
39881470,0.265,-0.569,0.791,13.02,-34.475,-35.297,
39881480,0.181,-0.625,0.97,26.88,-19.477,-18.69,
39881490,0.083,-0.739,1.279,42.105,-11.41,-6.545,
39881500,-0.193,-0.838,1.335,51.905,-5.11,24.307,
39881510,0.153,-1.066,1.194,63.105,-7.192,49.822,
39881510,0.567,-1.195,1.052,85.942,-5.757,49.402,
39881530,0.629,-1.211,1.002,107.362,12.302,58.695,
39881530,0.436,-1.464,0.888,117.722,20.562,37.152,
39881550,0.374,-1.578,0.657,142.485,24.955,24.377,
39881550,0.55,-1.619,0.458,158.637,42.017,24.937,
39881560,0.69,-1.807,0.411,148.872,71.172,28.577,
39881570,0.786,-1.989,0.534,135.59,98.175,32.935,
39881580,0.799,-1.998,0.623,127.977,111.247,34.16,
39881590,0.756,-1.998,0.721,123.497,109.287,26.337,
39881600,0.626,-1.998,0.786,115.15,100.065,17.937,
39881610,0.493,-1.998,0.756,107.887,81.27,9.992,
39881620,0.392,-1.995,0.638,103.652,57.855,6.195,
39881630,0.318,-1.872,0.548,88.392,43.925,1.697,
39881640,0.171,-1.656,0.441,66.29,34.335,-0.98,
39881650,0.01,-1.381,0.326,46.707,17.202,-4.445,
39881660,-0.16,-1.138,0.193,27.265,-6.877,-4.952,
39881670,-0.297,-0.966,0.031,10.465,-26.302,7.157,
39881680,-0.403,-0.728,-0.114,-2.817,-34.86,36.015,
39881690,-0.409,-0.536,-0.223,-16.73,-33.862,75.46,
39881700,-0.363,-0.373,-0.235,-37.047,-27.877,112.665,
39881710,-0.332,-0.265,-0.201,-52.5,-21.385,140.315,
39881720,-0.177,-0.175,-0.184,-54.372,-15.102,153.632,
39881730,0.043,-0.067,-0.106,-46.287,-3.237,154.56,
39881740,0.119,-0.042,-0.04,-35.682,10.482,142.642,
39881750,0.156,-0.013,0.003,-20.492,17.115,120.382,
39881760,0.285,0.046,0.056,-4.952,13.755,89.88,
39881770,0.386,0.013,0.145,6.825,12.477,58.887,
39881780,0.304,-0.082,0.183,20.492,10.5,29.487,
39881790,0.215,-0.058,0.182,39.97,0.455,0.122,
39881800,0.121,-0.009,0.172,54.057,-14.035,-20.93,
39881810,0.035,-0.043,0.158,57.785,-26.075,-28,
39881820,-0.043,-0.062,0.134,58.59,-35.857,-23.275,
39881830,-0.07,-0.085,0.134,57.085,-40.792,-10.902,
39881830,-0.119,-0.151,0.149,49.42,-41.947,7.84,
39881850,-0.16,-0.229,0.161,38.622,-43.487,26.67,
39881850,-0.066,-0.255,0.179,29.732,-43.68,43.435,
39881870,0.041,-0.305,0.207,21.507,-38.01,54.932,
39881870,0.124,-0.325,0.281,15.627,-29.452,56.437,
39881890,0.113,-0.391,0.412,10.92,-21.857,52.535,
39881890,0.174,-0.484,0.551,6.895,-18.655,34.685,
39881910,0.115,-0.466,0.532,6.702,-12.267,34.317,
39881910,0.32,-0.431,0.534,8.592,-5.355,34.16,
39881920,0.618,-0.492,0.604,5.53,2.782,23.8,
39881930,0.768,-0.598,0.701,7.017,12.075,10.377,
39881940,0.714,-0.76,0.772,6.422,7.017,-11.375,
39881950,0.689,-0.241,0.926,2.31,-10.867,-58.52,
39881960,0.128,-0.523,0.956,-46.27,7.262,-31.745,
39881970,0.095,-1.242,1.248,-46.042,32.9,-11.55,
39881980,-0.281,-1.466,1.466,-19.162,48.527,18.305,
39881990,-0.432,-1.626,1.589,-8.697,38.64,90.125,
39882000,0.131,-1.99,1.573,0.332,-0.98,134.382,
39882010,0.65,-1.998,1.551,8.942,-31.412,129.027,
39882020,0.511,-1.998,1.624,18.637,-41.177,86.135,
39882030,0.045,-1.998,1.608,35.437,-48.562,32.935,
39882040,-0.274,-1.998,1.48,55.58,-59.132,-3.972,
39882050,-0.485,-1.913,1.386,69.037,-58.52,-12.162,
39882060,-0.657,-1.657,1.345,70.385,-49.315,1.347,
39882070,-0.774,-1.468,1.324,62.422,-41.755,22.312,
39882080,-0.719,-1.279,1.203,64.645,-41.335,44.52,
39882090,-0.534,-1.061,1.053,68.635,-38.535,63.367,
39882100,-0.362,-0.906,0.892,68.197,-32.287,77.192,
39882110,-0.165,-0.76,0.782,67.27,-24.657,88.025,
39882120,-0.008,-0.655,0.693,65.135,-20.965,91.98,
39882130,0.069,-0.561,0.615,66.57,-20.492,91.122,
39882140,0.02,-0.489,0.513,70.577,-25.025,86.222,
39882150,-0.038,-0.443,0.361,76.23,-30.642,80.85,
39882160,-0.076,-0.428,0.195,82.215,-32.952,76.772,
39882170,-0.084,-0.433,0.027,84.7,-29.68,73.78,
39882180,-0.044,-0.475,-0.135,79.747,-21.875,70.56,
39882190,0.08,-0.503,-0.248,66.885,-8.4,64.19,
39882200,0.208,-0.497,-0.254,50.225,9.345,48.982,
39882210,0.205,-0.491,-0.171,34.072,30.59,25.847,
39882220,0.077,-0.464,-0.076,25.13,49.77,-0.91,
39882230,-0.084,-0.382,-0.029,25.637,68.04,-22.855,
39882230,-0.277,-0.294,-0.005,25.305,81.655,-35.997,
39882250,-0.46,-0.232,0.002,19.39,90.86,-37.327,
39882250,-0.521,-0.18,0.013,10.675,96.337,-28.472,
39882260,-0.483,-0.16,0.041,0.262,103.04,-13.825,
39882270,-0.421,-0.178,0.086,-10.622,112.455,-0.525,
39882280,-0.391,-0.211,0.156,-19.88,128.152,8.697,
39882290,-0.357,-0.236,0.23,-26.6,144.602,12.337,
39882300,-0.415,-0.271,0.252,-29.47,156.87,8.89,
39882310,-0.402,-0.257,0.337,-31.202,165.83,1.47,
39882320,-0.421,-0.347,0.427,-35.315,176.872,-4.06,
39882330,-0.424,-0.477,0.485,-35.805,188.457,-6.562,
39882340,-0.435,-0.509,0.539,-32.48,195.737,-7.035,
39882350,-0.382,-0.684,0.656,-25.742,195.107,-16.677,
39882360,-0.367,-0.274,0.768,-12.18,189.945,-37.695,
39882370,-0.664,-0.335,0.816,-19.565,187.232,-25.917,
39882380,-0.666,-0.561,0.952,-5.11,163.275,-31.657,
39882390,-0.76,-0.277,0.923,16.065,127.505,-9.397,
39882400,-0.623,-0.307,0.869,18.27,95.567,28.997,
39882410,-0.331,-0.543,0.803,8.295,73.5,66.832,
39882420,-0.236,-0.696,0.832,4.375,68.967,87.71,
39882430,-0.616,-0.804,0.924,7.7,69.895,87.745,
39882440,-1.045,-0.846,0.95,15.61,57.032,90.51,
39882450,-0.907,-0.978,0.978,33.057,33.442,103.932,
39882460,-0.782,-0.521,0.911,27.527,15.505,97.247,
39882470,-0.951,-0.642,0.875,18.97,13.667,122.78,
39882480,-0.978,-0.759,0.815,29.557,11.34,133.682,
39882490,-1.062,-0.625,0.702,38.482,0.577,116.865,
39882500,-0.969,-0.328,0.7,41.177,-17.412,108.412,
39882510,-0.756,-0.473,0.705,18.812,-42.262,100.695,
39882520,-0.425,-0.442,0.878,0.35,-73.5,75.6,
39882530,-0.219,-0.493,1.097,-10.29,-105.035,59.045,
39882540,0.106,-0.78,1.291,-3.132,-121.082,23.082,
39882550,0.074,-0.882,1.292,33.74,-127.89,-27.685,
39882560,-0.299,-0.886,1.106,68.88,-149.52,-82.39,
39882570,-0.395,-0.967,0.811,80.902,-172.62,-118.195,
39882580,-0.076,-0.94,0.756,73.832,-159.985,-110.145,
39882580,0.168,-1.223,0.574,56.28,-86.695,-58.065,
39882600,-0.089,-1.308,0.03,61.302,-9.625,17.447,
39882600,-0.501,-0.998,-0.32,52.062,1.662,61.705,
39882620,-0.345,-1.062,-0.432,-19.6,-40.127,64.68,
39882620,-0.199,-1.505,-0.569,-94.237,-75.932,91.402,
39882640,-0.801,-1.997,-0.008,-116.847,-112.892,129.815,
39882640,0.841,-1.998,1.821,-20.93,-234.395,108.237,
39882660,0.564,-1.4,1.549,160.335,-311.465,125.667,
39882660,-1.031,0.492,-0.062,204.662,-192.885,58.607,
39882670,-1.464,0.303,1.253,214.392,-140.77,53.235,
39882680,-0.724,-1.163,0.806,230.212,-148.82,65.38,
39882690,-0.191,-0.548,1.04,253.872,-143.36,15.785,
39882700,-0.301,-0.063,0.972,266.227,-127.662,-50.785,
39882710,-0.237,-0.164,1.185,269.92,-117.407,-68.425,
39882720,0.152,0.03,1.294,261.082,-119.805,-64.172,
39882730,0.282,-0.055,1.287,214.13,-104.93,-49.07,
39882740,0.371,0.455,1.186,147.892,-70.035,-32.83,
39882750,0.113,0.196,1.074,62.737,-27.597,-16.257,
39882760,-0.053,-0.069,1.012,14.892,-1.785,-16.205,
39882770,-0.085,-0.213,0.977,-1.365,9.152,-21.087,
39882780,-0.148,-0.251,0.963,-7.385,14.017,-19.897,
39882790,-0.22,-0.255,0.955,-7.98,14.175,-16.747,
39882800,-0.242,-0.233,0.965,-7.542,10.622,-15.522,
39882810,-0.239,-0.155,0.985,-9.782,7.262,-16.835,
39882820,-0.249,-0.095,1.013,-19.04,5.862,-21.28,
39882830,-0.23,-0.058,1.025,-37.047,8.767,-30.1,
39882840,-0.44,-0.04,1.085,-72.275,25.235,-51.135,
39882850,-0.602,-0.205,1.249,-116.847,34.055,-84.542,
39882860,-0.349,-0.212,1.332,-163.642,13.58,-106.645,
39882870,-0.281,-0.169,1.265,-219.66,-0.595,-124.407,
39882880,-0.487,-0.169,1.369,-268.992,4.847,-138.792,
39882890,-0.57,-0.327,1.306,-299.81,-1.435,-160.667,
39882900,-1.272,-0.968,0.97,-306.005,-18.83,-192.78,
39882910,-1.316,-1.114,1.104,-280.63,-87.832,-237.44,
39882920,-0.375,-0.788,0.773,-230.37,-115.867,-248.202,
39882920,0.245,-1.536,1.412,-224.402,-2.275,-220.062,
39882940,-1.644,-1.976,0.662,-151.97,106.4,-116.357,
39882940,-1.998,-0.139,0.422,-94.85,24.692,-75.372,
39882960,-1.855,-0.542,-0.134,-62.265,-16.31,63.997,
39882960,-0.671,0.12,0.359,-34.965,-46.007,245.7,
39882980,0.058,-0.425,0.864,-21.787,-26.705,363.387,
39882980,1.007,-0.429,1.264,18.55,-11.042,331.555,
39883000,0.91,0.1,1.113,36.61,-2.345,250.32,
39883000,0.326,0.223,0.624,68.792,-25.41,211.452,
39883010,0.442,0.525,0.432,102.777,-60.34,169.925,
39883020,0.557,0.765,0.248,136.955,-59.902,128.852,
39883030,0.11,0.859,-0.603,161.122,-56.402,99.732,
39883040,0.166,0.813,-1.086,153.142,-44.905,83.212,
39883050,0.507,0.418,-0.66,86.082,0.945,90.352,
39883060,0.388,-0.328,-0.547,29.067,43.925,116.707,
39883070,0.316,-0.425,-0.632,1.89,53.27,136.412,
39883080,0.68,-0.456,-0.35,-35.332,39.305,156.065,
39883090,1.156,-0.889,-0.18,-69.142,22.575,176.032,
39883100,0.765,-1.407,0.434,-89.215,-40.757,146.93,
39883110,1.287,-1.998,-0.662,125.405,-132.247,63.647,
39883120,-1.832,0.251,0.604,479.202,-100.467,125.16,
39883130,0.847,1.997,1.68,127.872,-28.367,107.17,
39883140,-1.391,-0.539,1.801,61.267,-19.81,137.042,
39883150,-0.793,0.529,1.358,161.612,-80.552,36.277,
39883160,0.92,1.234,1.195,124.162,-151.06,-58.94,
39883170,1.581,0.008,1.096,12.845,-91.14,-79.327,
39883180,0.351,-0.41,0.964,-17.622,-14.175,-31.797,
39883190,-0.296,-0.469,0.958,-11.83,7.175,13.212,
39883200,-0.501,-0.171,0.959,2.152,-4.095,10.22,
39883210,-0.378,-0.274,0.971,4.707,-20.492,-7.385,
39883220,0.012,-0.102,0.979,11.69,-31.185,-12.197,
39883230,-0.102,-0.102,0.986,1.26,-26.39,1.89,
39883240,-0.257,-0.2,0.975,-5.232,-25.672,8.995,
39883250,-0.107,-0.184,0.988,-3.815,-31.237,3.815,
39883260,0.144,-0.124,0.977,-5.775,-30.17,-1.137,
39883270,0.194,-0.152,0.973,-15.575,-16.047,2.1,
39883280,0.126,-0.108,0.983,-24.5,1.172,4.182,
39883290,0.093,-0.114,1.003,-36.347,17.377,6.142,
39883300,0.061,-0.099,1.039,-50.557,31.43,6.212,
39883310,0.046,-0.076,1.113,-69.44,44.38,4.112,
39883320,-0.001,0.176,1.193,-93.555,57.225,-3.43,
39883330,-0.199,-0.379,1.132,-126.892,65.38,-13.58,
39883330,-0.03,-0.316,1.196,-158.357,66.692,-16.31,
39883350,-0.176,-0.073,1.14,-184.555,74.375,-17.867,
39883350,-0.178,-0.202,1.151,-211.085,80.902,-14.14,
39883370,-0.136,-0.302,1.316,-227.587,90.685,-18.777,
39883370,-0.038,-0.435,1.429,-241.727,104.387,-35.84,
39883390,-0.069,-0.885,1.313,-244.825,131.565,-51.572,
39883390,-0.599,-1.707,1.466,-212.065,154.56,-50.347,
39883410,-0.252,-1.998,1.703,-121.555,120.277,-92.172,
39883410,1.281,-1.998,0.622,-14.105,9.695,-161.63,
39883420,1.992,-1.874,0.441,47.687,20.685,-194.845,
39883430,-0.576,-1.644,-0.056,53.392,40.425,-257.722,
39883440,-1.873,-1.088,-0.101,41.212,22.365,-285.022,
39883450,-0.787,-0.592,0.099,27.23,35.857,-174.23,
39883460,-0.402,-0.665,0.387,9.205,5.302,-89.495,
39883470,-0.769,-0.456,0.081,26.582,-10.167,-37.572,
39883480,-0.986,0.261,-0.284,23.695,-30.45,13.37,
39883490,-0.444,0.578,-0.6,15.68,-26.372,103.722,
39883500,0.888,0.439,-1.078,7.647,23.345,222.04,
39883510,1.704,0.24,-1.109,-21.577,75.705,289.695,
39883520,1.66,0.31,-0.549,-112.017,34.177,242.97,
39883530,1.894,0.469,-0.12,-187.862,-76.545,165.392,
39883540,1.998,0.737,-0.347,-181.3,-145.407,123.445,
39883550,1.609,1.454,-0.721,-142.975,-179.655,87.202,
39883560,0.359,-0.557,0.363,-146.02,-95.672,87.85,
39883570,-1.998,-1.998,-0.338,280.577,95.725,402.99,
39883580,1.099,-1.089,0.978,456.19,-346.412,531.947,
39883590,-0.289,1.505,1.387,326.655,-229.477,375.252,
39883600,-1.911,-0.575,1.58,461.265,-259.192,66.57,
39883610,0.735,1.008,1.736,318.062,-281.295,-77.875,
39883620,1.714,1.487,1.02,136.045,-171.64,-52.027,
39883630,0.939,-0.055,1.09,-40.565,-15.172,1.522,
39883640,-0.424,-0.456,0.974,-57.032,33.862,11.147,
39883650,-0.15,-0.468,0.962,-33.425,22.837,-20.86,
39883660,-0.217,-0.237,0.948,-16.152,18.515,-31.202,
39883670,-0.006,-0.301,0.955,-11.602,16.275,-21.84,
39883670,-0.249,-0.223,0.945,-9.485,17.622,-3.097,
39883690,-0.298,-0.15,0.984,-6.3,12.757,2.957,
39883690,-0.229,-0.07,1.022,-13.177,6.09,-2.205,
39883710,-0.166,0.029,1.045,-33.092,5.477,-6.212,
39883710,-0.221,-0.017,1.076,-51.992,5.337,-10.605,
39883730,-0.255,-0.087,1.069,-76.02,5.582,-20.965,
39883730,-0.325,-0.268,1.046,-102.672,8.802,-35.035,
39883750,-0.112,-0.128,1.216,-120.732,11.847,-50.47,
39883750,-0.091,-0.039,1.224,-148.19,6.912,-53.182,
39883760,-0.085,-0.183,1.19,-186.182,3.727,-49.507,
39883770,-0.039,-0.187,1.091,-213.412,7.105,-49.91,
39883780,-0.139,-0.267,1.043,-236.582,27.335,-61.775,
39883790,-0.468,-0.251,1.062,-247.17,41.842,-82.512,
39883800,-0.614,-0.235,1.069,-261.555,34.457,-110.582,
39883810,-0.531,-0.386,1.115,-274.96,9.012,-133.402,
39883820,-0.142,-0.584,0.815,-262.762,-3.99,-141.085,
39883830,-0.033,-1.824,1.204,-295.382,66.745,-158.865,
39883840,0.025,-1.933,1.042,-255.605,192.36,-152.057,
39883850,-0.118,-0.894,0.477,-177.835,236.267,-185.115,
39883860,0.032,-0.971,0.682,-133.682,219.87,-249.27,
39883870,-0.061,-1.493,0.732,-97.562,242.865,-245.612,
39883880,-0.493,-0.617,0.398,15.225,189.192,-210.945,
39883890,-0.608,-0.533,0.887,19.6,126.332,-196.07,
39883900,-0.992,-0.254,0.656,30.292,81.287,-152.53,
39883910,-1.077,0.195,0.585,73.132,18.725,-80.605,
39883920,-0.958,0.243,0.643,79.362,-34.772,-0.07,
39883930,-0.777,0.264,0.454,96.215,-75.18,72.502,
39883940,-0.647,0.75,-0.1,126.21,-98.175,121.065,
39883950,-0.745,1.225,-0.612,122.535,-97.912,167.09,
39883960,-0.764,1.219,-0.511,64.277,-82.652,212.87,
39883970,-0.495,0.719,-0.02,5.53,-58.712,269.412,
39883980,-0.048,0.309,0.228,2.24,-37.397,321.317,
39883990,0.436,0.541,-0.016,35.437,-27.72,336.437,
39884000,0.624,0.867,-0.385,55.86,-36.155,343.682,
39884010,0.875,0.697,-0.597,68.32,-59.622,323.907,
39884020,0.814,-1.191,-0.17,32.515,-94.587,267.067,
39884030,1.134,-1.998,-0.628,282.03,-164.692,68.932,
39884040,-1.684,0.21,1.006,462.595,-97.23,189.122,
39884050,1.395,1.972,1.101,306.915,-64.05,205.73,
39884060,-1.609,-1.514,1.947,377.667,-117.897,161.385,
39884070,-1.688,0.563,1.777,366.012,-190.697,46.602,
39884080,1.026,1.68,1.318,205.572,-204.715,-18.97,
39884080,1.69,0.845,1.106,45.797,-109.602,-49.997,
39884100,0.853,0.253,1.044,-41.667,1.487,-20.58,
39884100,-0.088,-0.486,1.027,-92.505,51.905,7.542,
39884120,-0.516,-0.563,0.929,-74.41,49.822,8.067,
39884120,-0.441,-0.394,0.891,-47.547,32.025,-9.73,
39884140,-0.334,-0.433,0.89,-32.34,14.455,-17.727,
39884140,-0.211,-0.293,0.936,-13.177,1.82,-13.457,
39884160,-0.13,-0.194,0.967,-7.84,-3.815,-1.82,
39884160,-0.137,-0.144,0.997,-13.58,-3.465,9.485,
39884170,-0.173,-0.11,1.023,-24.36,-2.765,15.382,
39884180,-0.137,-0.094,1.046,-38.552,-2.485,18.725,
39884190,-0.042,-0.028,1.077,-54.652,-3.36,21.455,
39884200,-0.075,-0.114,1.098,-71.207,-1.47,28.91,
39884210,-0.037,-0.141,1.094,-85.995,-0.752,37.66,
39884220,-0.069,-0.173,1.11,-107.135,3.675,40.81,
39884230,-0.125,-0.196,1.128,-130.445,6.475,39.287,
39884240,-0.139,-0.203,1.11,-159.88,9.117,31.167,
39884250,-0.125,-0.207,1.094,-192.272,11.83,20.002,
39884260,-0.163,-0.296,1.033,-214.182,18.27,7.28,
39884270,-0.24,-0.248,1.029,-230.79,23.03,-5.337,
39884280,-0.194,-0.321,1.024,-241.99,27.09,-14.017,
39884290,-0.176,-0.418,0.989,-250.565,28.315,-26.162,
39884300,0.105,-0.409,0.944,-244.772,37.992,-29.435,
39884310,0.3,-0.647,0.946,-276.552,67.882,-26.32,
39884320,0.391,-0.74,0.922,-281.837,105.42,-10.797,
39884330,0.108,-0.912,0.932,-257.845,131.582,12.512,
39884340,0.029,-1.136,0.954,-243.53,137.497,29.802,
39884350,0.434,-1.613,0.929,-176.697,112.682,52.307,
39884360,1.974,-1.982,1.627,-128.047,70.997,-12.477,
39884370,1.998,-1.845,1.356,28.892,96.81,-121.327,
39884380,0.463,-1.287,0.352,196.962,71.487,-244.842,
39884390,-1.121,-0.665,-0.461,214.305,-7.175,-289.607,
39884400,-0.905,-0.285,-0.586,209.807,-45.465,-243.057,
39884410,-0.799,-0.17,-0.642,215.232,-42.017,-182.91,
39884420,-0.999,-0.25,-0.852,212.17,-20.737,-130.077,
39884420,-1.182,0.045,-1.894,233.38,-7.017,-83.895,
39884440,-1.392,0.831,-1.997,202.562,-32.27,-39.917,
39884440,-1.612,0.812,-1.837,41.877,-72.397,36.942,
39884460,-1.224,-0.036,-0.893,-139.825,-56.035,164.745,
39884460,-0.208,-1.506,1.014,-263.83,-32.445,220.92,
39884480,0.5,-1.88,1.255,90.352,228.865,234.727,
39884480,-1.391,0.26,-1.686,524.072,-235.445,275.152,
39884500,-1.191,-0.822,1.593,258.317,0.052,225.627,
39884500,-1.117,-0.464,0.894,322.21,-87.797,254.59,
39884510,-0.712,1.05,1.256,411.022,-113.837,127.522,
39884520,-1.646,-0.56,1.713,353.062,-126.77,20.37,
39884530,0.134,0.443,1.709,314.51,-181.37,-60.69,
39884540,1.549,1.531,1.052,158.515,-141.312,-41.142,
39884550,0.92,0.549,1.007,20.597,-44.117,-15.645,
39884560,0.244,0.168,1.041,-32.882,19.162,-13.667,
39884570,-0.127,-0.398,1.036,-63,42.07,-18.305,
39884580,-0.46,-0.4,0.975,-61.005,39.76,-25.76,
39884590,-0.194,-0.321,0.967,-49.525,24.622,-29.592,
39884600,-0.381,-0.418,0.884,-39.445,13.405,-28.91,
39884610,-0.111,-0.429,0.926,-20.422,-1.155,-19.67,
39884620,-0.118,-0.168,0.993,-11.41,-7.122,-1.137,
39884630,-0.156,-0.065,1.05,-19.197,-8.085,8.575,
39884640,-0.111,-0.055,1.093,-40.722,-8.802,7.35,
39884650,0.129,0.174,1.136,-72.222,-3.325,3.535,
39884660,0.146,-0.121,1.204,-110.442,14.175,4.41,
39884670,-0.374,-0.266,1.164,-144.445,20.317,12.915,
39884680,-0.282,-0.143,1.131,-169.312,14.14,-0.56,
39884690,-0.444,-0.191,1.049,-192.867,17.22,-37.747,
39884700,-0.41,-0.297,0.98,-213.185,18.427,-66.762,
39884710,-0.391,-0.46,0.875,-223.492,21.227,-80.92,
39884720,-0.398,-0.501,0.931,-219.747,28.14,-97.037,
39884730,-0.281,-0.603,1.061,-206.587,40.442,-113.12,
39884740,-0.161,-0.885,0.978,-189.682,72.135,-129.937,
39884750,-0.515,-0.955,0.991,-153.352,100.31,-138.197,
39884760,-0.908,-1.761,0.427,-89.215,91.332,-148.995,
39884770,0.322,-1.992,0.499,-26.862,126.297,-147.122,
39884780,-1.712,-1.083,0.081,51.905,192.027,-40.11,
39884790,-1.998,0.415,-0.024,102.042,44.957,8.382,
39884800,-0.867,-0.181,0.103,30.047,-37.695,117.197,
39884810,0.407,-1.113,-0.086,38.972,-47.46,243.6,
39884820,0.388,-0.609,-0.762,88.095,-6.947,241.202,
39884830,0.145,0.282,-1.339,69.685,37.03,225.925,
39884830,0.587,0.189,-0.873,-5.127,70.21,234.92,
39884850,1.014,-0.281,-0.29,-84.472,88.742,246.172,
39884850,0.924,-0.352,-0.171,-113.067,67.41,237.702,
39884870,0.763,-0.594,1.731,-119,-128.607,163.205,
39884870,1.954,-1.888,0.777,105.63,-228.042,76.912,
39884890,-1.732,0.692,-0.089,513.117,-67.935,88.077,
39884890,-0.258,-0.9,1.238,345.975,-194.267,134.802,
39884900,-0.541,0.379,1.58,342.387,-209.562,113.977,
39884910,-0.454,-0.125,1.486,289.1,-216.265,27.965,
39884920,1.197,1.606,1.153,163.047,-170.397,-6.615,
39884930,1.408,0.449,1.098,39.462,-78.697,-45.885,
39884940,0.455,0.142,1.003,-9.415,3.552,-59.797,
39884950,0.26,-0.154,1.016,-40.81,45.027,-48.072,
39884960,-0.232,-0.197,0.991,-57.277,63.682,-30.66,
39884970,-0.511,-0.323,0.976,-66.202,62.667,-19.092,
39884980,-0.65,-0.316,0.922,-62.002,47.687,-21.56,
39884990,-0.375,-0.337,0.961,-51.765,24.727,-25.917,
39885000,-0.298,-0.272,0.996,-52.832,10.675,-16.922,
39885010,-0.179,-0.198,1.074,-62.982,2.817,-5.687,
39885020,0.69,0.159,1.198,-86.415,6.965,1.645,
39885030,0.035,-0.389,1.166,-138.197,43.47,41.195,
39885040,-0.791,0.072,1.173,-162.732,46.707,54.162,
39885050,-0.65,-0.027,1.131,-183.365,27.055,12.04,
39885060,-0.299,-0.225,1.07,-229.74,15.872,-32.777,
39885070,-0.008,-0.252,1.025,-255.727,31.675,-49.857,
39885080,-0.059,-0.365,1.058,-258.177,53.935,-53.27,
39885090,-0.08,-0.695,1.216,-254.03,70.997,-54.057,
39885100,-0.011,-0.734,1.252,-223.772,89.285,-41.02,
39885110,-0.041,-0.808,1.308,-191.677,112.245,-23.765,
39885120,0.052,-1.432,0.558,-151.725,129.867,-6.3,
39885130,-0.635,-1.998,0.666,-99.102,125.002,8.452,
39885140,-0.31,-1.998,0.319,-44.45,68.845,-23.467,
39885150,0.427,-1.924,0.713,-22.767,37.222,-41.457,
39885160,0.308,-1.481,0.466,-12.547,32.567,-75.46,
39885170,0.512,-1.259,0.377,8.33,46.445,-127.68,
39885170,0.593,-1.062,0.198,21.052,61.617,-181.16,
39885190,0.588,-0.809,0.079,25.427,70.052,-248.92,
39885190,0.058,-0.823,0.265,-7.122,49.77,-303.992,
39885210,-0.334,-0.932,0.559,-42,8.26,-327.862,
39885210,-0.538,-0.841,0.746,-56.875,-28.647,-315.77,
39885230,-0.884,-0.477,0.853,-71.89,-54.845,-296.992,
39885230,-1.104,-0.284,1.001,-99.365,-68.18,-253.19,
39885250,-1.048,-0.281,1.257,-126.087,-73.64,-188.79,
39885250,-0.904,-0.31,1.574,-144.445,-76.772,-124.617,
39885260,-0.834,-0.363,1.781,-154.07,-78.242,-68.127,
39885270,-0.74,-0.409,1.827,-155.89,-87.657,-19.39,
39885280,-0.559,-0.607,1.762,-155.645,-95.585,21.367,
39885290,-0.449,-0.716,1.702,-149.957,-103.285,54.25,
39885300,-0.359,-0.886,1.654,-133.56,-108.43,85.102,
39885310,-0.18,-0.991,1.646,-131.092,-106.067,91.822,
39885320,-0.262,-0.969,1.549,-130.707,-104.912,87.465,
39885330,-0.32,-0.88,1.416,-115.552,-106.19,84.385,
39885340,-0.191,-0.885,1.224,-97.492,-99.067,90.667,
39885350,-0.08,-0.939,1.084,-78.977,-83.23,91.192,
39885360,-0.108,-1.006,0.968,-55.562,-67.217,83.265,
39885370,-0.18,-1.06,0.867,-31.342,-57.33,75.495,
39885380,-0.193,-1.09,0.756,-12.547,-50.872,70.997,
39885390,-0.124,-1.067,0.592,-0.105,-42.997,65.45,
39885400,-0.014,-0.969,0.444,8.067,-32.69,58.03,
39885410,0.029,-0.889,0.358,11.252,-21.297,45.902,
39885420,0.023,-0.82,0.25,10.185,-13.265,33.285,
39885430,-0.022,-0.729,0.097,11.147,-13.825,23.555,
39885440,0.057,-0.613,-0.032,10.902,-19.705,14.157,
39885450,0.141,-0.527,-0.147,8.505,-20.947,9.502,
39885460,0.143,-0.452,-0.266,7.332,-23.012,8.365,
39885470,0.122,-0.386,-0.385,5.967,-28.49,12.442,
39885480,0.116,-0.348,-0.488,2.205,-35.892,19.512,
39885490,0.1,-0.317,-0.579,-2.537,-43.855,26.372,
39885500,0.085,-0.264,-0.635,-7.385,-49.28,32.497,
39885510,0.061,-0.177,-0.699,-11.13,-49.507,40.232,
39885520,0.127,-0.025,-0.733,-15.015,-42.805,51.695,
39885530,0.333,0.088,-0.661,-21.962,-25.147,66.395,
39885540,0.457,0.044,-0.614,-34.895,-9.065,75.88,
39885550,0.684,0.042,-0.526,-47.932,0.892,76.335,
39885550,1.018,0.089,-0.26,-63.735,13.842,75.18,
39885570,1.122,0.021,0.09,-85.505,21.42,66.64,
39885570,1.058,-0.112,0.351,-95.987,8.172,44.852,
39885580,1.045,-0.165,0.529,-85.155,-16.362,17.867,
39885590,0.94,-0.223,0.628,-67.06,-42.14,-13.597,
39885600,0.78,-0.369,0.66,-47.53,-60.655,-47.232,
39885610,0.591,-0.525,0.65,-26.32,-71.417,-78.732,
39885620,0.347,-0.628,0.685,-11.165,-75.337,-107.607,
39885630,0.014,-0.782,0.674,-4.462,-79.1,-129.692,
39885640,-0.189,-0.794,0.655,0.07,-80.517,-140.297,
39885650,-0.464,-0.798,0.609,-6.177,-76.37,-127.347,
39885660,-0.548,-0.961,0.503,-12.162,-69.86,-105.56,
39885670,-0.531,-1.09,0.466,-38.92,-57.592,-91.77,
39885680,-0.51,-1.282,0.564,-54.635,-36.33,-58.065,
39885690,-0.466,-1.562,0.727,-56.77,-14.787,-26.845,
39885700,-0.484,-1.757,0.878,-58.135,-1.942,-5.512,
39885710,-0.505,-1.838,1.049,-57.33,-5.25,13.09,
39885720,-0.278,-1.989,1.192,-63.332,-7.542,31.447,
39885730,-0.007,-1.998,1.165,-68.495,-2.642,39.602,
39885740,0.066,-1.998,0.994,-64.242,0.98,24.937,
39885750,0.013,-1.998,0.767,-62.912,2.135,-0.192,
39885760,-0.001,-1.998,0.614,-63.455,4.025,-24.255,
39885770,-0.063,-1.998,0.49,-60.41,4.357,-42.332,
39885780,-0.052,-1.998,0.333,-55.562,3.92,-50.242,
39885790,0.05,-1.957,0.17,-50.68,7.962,-51.87,
39885800,0.065,-1.931,0.037,-48.527,12.74,-51.432,
39885810,0.043,-1.802,-0.093,-46.567,9.73,-60.69,
39885820,0.045,-1.638,-0.125,-49.35,4.847,-67.27,
39885830,-0.004,-1.535,-0.149,-54.757,-0.227,-73.237,
39885840,-0.048,-1.356,-0.158,-56.49,-7.087,-77.367,
39885850,-0.116,-1.166,-0.198,-62.125,-20.212,-77.42,
39885860,-0.108,-1.073,-0.213,-71.435,-34.965,-69.79,
39885870,-0.087,-0.905,-0.165,-79.03,-43.557,-56.577,
39885880,-0.068,-0.747,-0.065,-86.152,-42.122,-39.392,
39885890,-0.05,-0.695,0.085,-93.537,-24.937,-16.922,
39885900,-0.018,-0.634,0.124,-88.48,0.157,7.84,
39885910,-0.033,-0.508,0.125,-70.7,17.237,26.617,
39885920,-0.054,-0.416,0.156,-56.892,22.435,35.91,
39885920,0.033,-0.36,0.164,-45.272,18.462,38.745,
39885940,0.19,-0.297,0.143,-34.702,15.89,38.675,
39885940,0.284,-0.284,0.126,-28.297,19.057,33.337,
39885960,0.306,-0.258,0.119,-23.765,19.6,21.035,
39885960,0.316,-0.147,0.134,-19.862,15.802,3.15,
39885980,0.21,-0.211,0.148,-16.782,7.42,-11.34,
39885980,0.148,-0.204,0.217,0.402,-5.845,-27.422,
39886000,0.163,0.013,0.136,-23.887,-14.35,-34.335,
39886000,-0.022,-0.082,0.15,-50.575,-19.687,-28.927,
39886010,0.001,-0.252,0.191,-19.652,-34.107,-17.605,
39886020,-0.085,-0.052,0.15,-12.075,-43.767,-2.257,
39886030,0.042,-0.133,0.229,-20.247,-45.447,2.73,
39886040,0.079,-0.269,0.274,-8.522,-46.97,-8.435,
39886050,0.045,-0.279,0.303,-3.185,-47.372,0.437,
39886060,0.165,-0.325,0.374,-5.005,-46.305,7.577,
39886070,0.261,-0.467,0.444,-10.08,-43.697,7.84,
39886080,0.269,-0.583,0.461,-9.31,-39.025,-0.122,
39886090,0.169,-0.652,0.431,-7.14,-37.047,-21.437,
39886100,0.001,-0.717,0.347,-5.32,-38.78,-47.04,
39886110,-0.071,-0.829,0.28,-5.67,-33.075,-56.315,
39886120,-0.144,-1.035,0.28,-11.602,-18.637,-47.197,
39886130,-0.324,-1.245,0.216,-17.92,-11.27,-36.015,
39886140,-0.281,-1.361,0.15,-24.71,-2.975,-9.765,
39886150,-0.058,-1.513,0.362,-43.225,4.952,25.602,
39886160,0.245,-1.828,0.645,-57.855,2.992,35.857,
39886170,0.494,-1.978,0.823,-57.4,10.727,25.847,
39886180,0.531,-1.913,0.704,-51.695,27.055,7.175,
39886190,0.32,-1.837,0.517,-48.352,41.597,-14.857,
39886200,0.202,-1.703,0.353,-43.085,48.912,-38.937,
39886210,0.157,-1.65,0.24,-34.002,56.7,-46.007,
39886220,0.212,-1.55,0.21,-22.085,70.822,-38.045,
39886230,0.249,-1.377,0.312,-31.64,89.372,-35.665,
39886240,0.307,-1.289,0.399,-23.52,96.057,-50.75,
39886250,0.216,-1.344,0.462,-12.53,100.03,-43.96,
39886260,0.233,-1.324,0.482,-3.43,98.98,-29.067,
39886260,0.238,-1.337,0.494,11.025,96.092,-13.37,
39886280,0.279,-1.344,0.558,31.535,95.672,4.182,
39886280,0.385,-1.344,0.655,45.045,97.807,15.925,
39886300,0.423,-1.399,0.707,58.537,94.517,21.332,
39886300,0.507,-1.383,0.705,71.715,87.43,21,
39886320,0.583,-1.362,0.665,84.07,78.19,15.715,
39886320,0.568,-1.355,0.581,96.005,69.58,10.22,
39886330,0.528,-1.283,0.454,105.752,58.817,10.745,
39886340,0.537,-1.184,0.322,110.18,44.415,14.7,
39886350,0.574,-1.186,0.184,109.13,30.45,19.407,
39886360,0.616,-1.153,0,107.117,22.417,25.76,
39886370,0.607,-1.046,-0.21,104.51,13.79,24.465,
39886380,0.603,-1.02,-0.343,95.305,9.03,16.66,
39886390,0.607,-0.982,-0.412,79.677,9.397,9.082,
39886400,0.604,-0.885,-0.416,61.81,8.942,-3.377,
39886410,0.53,-0.787,-0.35,41.387,7.297,-19.145,
39886420,0.318,-0.702,-0.28,19.477,-5.267,-37.065,
39886430,0.168,-0.59,-0.258,5.6,-23.975,-48.51,
39886440,0.056,-0.41,-0.263,-6.02,-36.242,-48.265,
39886450,-0.107,-0.324,-0.269,-14.787,-45.272,-33.845,
39886460,-0.189,-0.326,-0.27,-20.702,-53.427,-7.245,
39886470,-0.113,-0.367,-0.274,-26.127,-62.737,20.632,
39886480,0.028,-0.373,-0.251,-30.835,-69.352,40.53,
39886490,0.065,-0.385,-0.193,-36.26,-74.795,47.337,
39886500,0.022,-0.39,-0.139,-43.015,-81.182,43.977,
39886510,0.011,-0.351,-0.087,-49.455,-87.412,38.465,
39886520,0.03,-0.309,-0.007,-55.86,-89.74,32.847,
39886530,0.047,-0.303,0.099,-61.302,-87.57,27.177,
39886540,0.067,-0.32,0.207,-62.842,-84.157,19.355,
39886550,0.086,-0.327,0.289,-64.05,-79.065,12.932,
39886560,0.137,-0.324,0.381,-67.252,-73.465,9.31,
39886570,0.198,-0.337,0.517,-69.405,-66.535,4.97,
39886580,-0.027,-0.312,0.627,-72.52,-63.175,2.205,
39886590,-0.227,-0.248,0.676,-73.622,-71.592,5.005,
39886600,-0.152,-0.269,0.698,-74.602,-78.12,22.785,
39886610,-0.059,-0.381,0.724,-73.85,-82.722,42.98,
39886620,-0.088,-0.444,0.731,-67.042,-95.322,52.08,
39886630,-0.01,-0.513,0.673,-56.157,-111.125,55.44,
39886640,0.23,-0.572,0.727,-39.742,-110.197,61.617,
39886650,0.332,-0.709,0.869,-18.497,-90.037,65.852,
39886660,0.229,-0.896,0.914,11.322,-64.925,65.572,
39886670,0.246,-1.041,0.803,50.697,-45.36,67.497,
39886670,0.448,-1.19,0.756,84.595,-28.857,68.582,
39886690,0.555,-1.457,0.754,104.265,-9.555,63.052,
39886690,0.559,-1.697,0.717,119.84,7.245,53.585,
39886710,0.647,-1.84,0.658,132.825,20.65,45.832,
39886710,0.79,-1.944,0.637,139.282,32.725,39.532,
39886730,0.837,-1.998,0.613,143.01,44.467,32.147,
39886730,0.828,-1.977,0.658,148.925,54.915,24.08,
39886750,1.019,-1.794,0.591,149.957,57.54,-5.722,
39886750,0.614,-1.832,0.532,87.692,73.675,9.502,
39886760,0.743,-1.998,0.589,105.857,72.222,13.527,
39886770,0.903,-1.998,0.437,78.785,67.042,-51.152,
39886780,0.389,-1.998,0.395,95.707,77.437,-9.8,
39886790,0.504,-1.998,0.295,102.83,74.812,9.38,
39886800,0.671,-1.976,0.184,100.8,60.917,4.375,
39886810,0.702,-1.805,0.08,100.66,54.862,-6.3,
39886820,0.628,-1.639,-0.042,100.45,48.842,-35.262,
39886830,0.512,-1.424,-0.236,102.182,36.19,-67.34,
39886840,0.44,-1.12,-0.443,93.52,28.472,-95.76,
39886850,0.33,-0.89,-0.557,70.35,28.56,-113.54,
39886860,0.302,-0.813,-0.537,37.45,45.622,-116.882,
39886870,0.237,-0.773,-0.458,7.262,74.952,-113.837,
39886880,-0.039,-0.722,-0.262,-13.177,95.76,-114.205,
39886890,-0.249,-0.607,-0.194,-23.397,83.982,-115.972,
39886900,-0.134,-0.439,-0.167,-25.935,52.482,-113.242,
39886910,0.036,-0.382,-0.14,-27.79,25.427,-107.38,
39886920,0.057,-0.348,-0.104,-24.815,9.73,-107.1,
39886930,0.047,-0.213,-0.062,-19.372,2.607,-112.297,
39886940,-0.038,-0.1,-0.025,-16.362,-4.27,-113.54,
39886950,-0.133,-0.06,0.042,-14.525,-14.437,-109.06,
39886960,-0.202,-0.035,0.112,-11.707,-26.565,-98.455,
39886970,-0.264,-0.042,0.164,-9.8,-36.032,-80.692,
39886980,-0.301,-0.074,0.164,-7.175,-42.91,-55.807,
39886990,-0.263,-0.078,0.15,-6.422,-49,-28.63,
39887000,-0.21,-0.117,0.168,-10.412,-53.917,-4.725,
39887010,-0.167,-0.213,0.216,-15.067,-54.687,14.752,
39887010,-0.089,-0.273,0.248,-15.19,-54.39,25.777,
39887030,-0.028,-0.281,0.278,-12.722,-53.97,24.885,
39887030,-0.07,-0.29,0.358,-14,-52.885,15.417,
39887050,-0.16,-0.324,0.414,-15.75,-52.815,5.267,
39887050,-0.14,-0.343,0.422,-15.872,-50.172,1.19,
39887070,-0.099,-0.373,0.451,-18.112,-40.827,2.117,
39887070,-0.132,-0.411,0.512,-18.812,-31.867,-0.542,
39887080,-0.235,-0.402,0.652,-18.27,-22.557,-2.537,
39887090,-0.361,-0.481,0.761,-15.05,-17.43,4.917,
39887100,-0.403,-0.639,0.786,-4.62,-11.287,23.1,
39887110,-0.378,-0.696,0.773,11.847,-3.412,46.917,
39887120,-0.295,-0.841,0.763,27.93,11.847,69.02,
39887130,-0.23,-1.002,0.738,46.567,37.695,94.395,
39887140,-0.317,-1.066,1.02,55.142,67.935,117.495,
39887150,-0.42,-1.523,1.361,54.67,89.687,131.442,
39887160,-0.406,-1.777,1.331,79.625,93.677,142.065,
39887170,-0.238,-1.635,1.352,107.24,90.002,138.915,
39887180,-0.478,-1.704,1.316,113.487,85.925,131.81,
39887190,-0.683,-1.814,1.081,120.82,72.572,139.282,
39887200,-0.504,-1.739,0.84,125.895,70.052,166.827,
39887210,-0.198,-1.544,0.779,116.13,85.68,195.352,
39887220,-0.159,-1.298,0.772,81.007,109.532,218.207,
39887230,-0.075,-1.998,0.963,48.667,121.782,255.885,
39887240,0.565,-1.929,1.028,25.322,111.877,203.315,
39887250,0.461,-1.916,0.997,23.992,108.097,184.625,
39887260,1.013,-1.522,1.558,59.115,95.357,153.387,
39887270,1.998,-1.907,1.367,86.59,41.212,99.26,
39887280,1.644,-1.858,0.867,61.162,-3.307,-18.357,
39887290,-0.512,-0.515,0.616,82.197,32.182,0.665,
39887300,-0.117,-0.115,-0.055,105.017,5.407,117.985,
39887310,1.061,-0.647,0.469,6.475,-33.635,121.292,
39887320,0.681,-1.149,0.691,-38.237,-53.357,51.712,
39887330,0.03,-0.675,0.379,47.162,-54.495,12.827,
39887340,0.142,-0.131,0.189,85.995,-64.837,-5.197,
39887350,0.157,-0.294,0.141,52.167,-69.422,-13.825,
39887360,0.019,-0.54,0.128,38.01,-68.705,-26.39,
39887370,-0.058,-0.427,0.098,58.415,-68.127,-37.117,
39887380,-0.222,-0.251,0.038,63.315,-69.492,-37.765,
39887390,-0.283,-0.265,0.005,50.225,-69.632,-27.685,
39887400,-0.211,-0.296,0.004,37.17,-68.407,-12.915,
39887410,-0.141,-0.28,0.031,28.612,-59.64,4.217,
39887420,-0.164,-0.29,0.076,16.537,-50.155,21.77,
39887420,-0.141,-0.362,0.142,1.242,-47.53,38.85,
39887440,-0.045,-0.42,0.187,-10.307,-51.135,51.047,
39887440,-0.006,-0.494,0.218,-18.427,-54.652,54.407,
39887460,0.087,-0.558,0.23,-25.917,-55.16,53.742,
39887460,0.035,-0.632,0.252,-37.205,-54.862,50.785,
39887480,-0.018,-0.691,0.303,-40.635,-55.282,55.16,
39887480,0.084,-0.862,0.362,-52.71,-50.382,61.162,
39887500,0.34,-1.076,0.537,-74.602,-37.712,56.315,
39887500,0.311,-1.32,0.858,-93.73,-21.805,36.172,
39887510,-0.114,-1.492,1.18,-107.135,-22.662,15.347,
39887520,-0.366,-1.388,1.399,-118.02,-44.415,-1.452,
39887530,-0.415,-1.355,1.523,-126.07,-68.355,6.825,
39887540,-0.356,-1.342,1.507,-121.1,-81.847,21.507,
39887550,-0.278,-1.284,1.538,-115.167,-83.492,28.735,
39887560,-0.219,-1.282,1.584,-110.67,-75.985,40.11,
39887570,-0.304,-1.285,1.788,-104.65,-67.2,58.17,
39887580,-0.467,-1.421,1.968,-105.56,-64.19,69.86,
39887590,-0.282,-1.409,1.903,-93.572,-64.872,56.717,
39887600,-0.05,-1.256,1.509,-57.925,-57.102,17.85,
39887610,-0.203,-0.878,1.125,-23.572,-41.037,-33.95,
39887620,-0.539,-0.764,0.938,-12.162,-27.667,-71.382,
39887630,-0.608,-0.941,0.797,-7.332,-16.537,-80.57,
39887640,-0.48,-0.995,0.631,5.267,2.835,-74.182,
39887650,-0.412,-1.045,0.635,10.902,29.855,-65.31,
39887660,-0.483,-0.687,0.657,-6.895,49.192,-57.417,
39887670,-0.549,-1.113,0.831,-12.215,50.54,-39.777,
39887680,-0.481,-0.893,0.793,-21.402,43.382,-43.855,
39887690,-0.485,-0.774,0.675,-0.35,47.32,-24.92,
39887700,-0.235,-0.809,0.569,17.272,51.327,0.717,
39887710,0.103,-0.834,0.416,28.332,49.402,15.592,
39887720,0.381,-0.876,0.27,34.405,46.567,19.495,
39887730,0.548,-0.894,0.184,38.465,42.91,22.575,
39887740,0.681,-0.926,0.207,34.947,33.757,24.01,
39887750,0.737,-0.994,0.213,26.845,14.28,25.97,
39887760,0.796,-0.978,0.167,22.837,-16.257,23.992,
39887760,0.851,-0.877,0.057,23.642,-49.577,16.52,
39887780,0.815,-0.732,-0.033,23.572,-75.582,6.3,
39887780,0.611,-0.593,-0.09,20.16,-94.657,0.035,
39887800,0.415,-0.445,-0.104,14.157,-116.287,-0.35,
39887800,0.335,-0.337,-0.118,3.972,-138.092,5.075,
39887820,0.3,-0.272,-0.131,-6.877,-153.58,14.297,
39887820,0.267,-0.198,-0.164,-17.097,-161.472,23.17,
39887830,0.346,-0.121,-0.13,-27.002,-162.697,32.427,
39887840,0.428,-0.146,-0.026,-33.372,-154.542,39.462,
39887850,0.311,-0.209,0.057,-30.73,-147.525,37.765,
39887860,0.125,-0.185,0.102,-21.735,-146.93,30.975,
39887870,0.026,-0.169,0.08,-15.277,-151.795,28.507,
39887880,0.039,-0.168,0.073,-13.982,-153.947,25.585,
39887890,0.015,-0.207,0.157,-18.725,-150.062,21.017,
39887900,-0.054,-0.31,0.236,-23.485,-135.87,17.482,
39887910,-0.171,-0.346,0.258,-22.47,-121.642,14.84,
39887920,-0.218,-0.33,0.231,-21.14,-114.362,14.472,
39887930,-0.159,-0.366,0.228,-23.87,-108.605,18.62,
39887940,-0.172,-0.472,0.259,-29.855,-100.17,23.905,
39887950,-0.254,-0.576,0.317,-35.577,-90.492,30.975,
39887960,-0.269,-0.645,0.409,-43.732,-81.497,40.617,
39887970,-0.268,-0.709,0.618,-53.305,-72.467,47.617,
39887980,-0.394,-0.785,0.846,-59.675,-63.525,50.225,
39887990,-0.624,-0.907,1.053,-57.137,-55.055,62.09,
39888000,-0.47,-0.906,1.155,-36.96,-42.105,84.087,
39888010,-0.473,-1.283,0.874,-11.69,-29.295,105.455,
39888020,-0.029,-1.949,0.382,21.49,-15.61,83.055,
39888030,0.791,-1.356,1.252,26.425,82.302,12.74,
39888040,-1.534,-1.242,1.402,13.702,116.287,-39.83,
39888050,-1.471,-1.632,1.107,26.075,81.042,-29.067,
39888060,0.344,-1.079,0.412,42.07,69.912,28.997,
39888070,0.455,-1.576,0.37,55.947,109.305,30.31,
39888080,-0.1,-1.171,0.472,23.852,132.632,-33.092,
39888090,-0.46,-1.232,0.711,10.797,141.4,-37.607,
39888100,-0.251,-1.231,0.777,29.925,134.977,-35.682,
39888110,-0.148,-1.035,0.781,28.752,137.585,-42.227,
39888120,-0.296,-1.065,0.759,28.367,142.992,-44.642,
39888130,-0.306,-1.025,0.707,38.85,141.767,-47.985,
39888140,-0.271,-0.749,0.561,51.257,143.78,-44.082,
39888150,-0.379,-0.514,0.387,53.935,148.68,-30.537,
39888160,-0.456,-0.247,0.147,43.26,147.315,-7.385,
39888170,-0.458,-0.021,-0.152,26.372,137.2,29.627,
39888170,-0.428,0.197,-0.259,-15.452,119.035,66.482,
39888190,-0.283,0.08,0.081,-81.34,114.677,95.13,
39888190,-0.249,-0.384,0.425,-119.857,132.212,126.595,
39888210,-0.29,-0.483,0.668,-101.99,149.047,149.485,
39888210,-0.08,-0.232,0.829,-76.317,157.045,153.055,
39888220,0.297,-0.206,0.948,-62.16,170.135,149.59,
39888230,0.612,-0.375,1.202,-43.277,192.045,131.057,
39888240,0.304,-0.588,1.834,-62.58,223.895,98.455,
39888250,-0.142,-1.418,1.998,5.687,221.357,32.917,
39888260,-0.233,-1.313,1.934,171.657,168.63,7.962,
39888270,0.295,-0.269,1.214,302.015,112.315,-2.275,
39888280,0.509,0.147,0.655,371.28,87.727,-14.577,
39888290,0.337,-0.44,0.55,348.022,89.705,-42.14,
39888300,0.15,-0.684,0.474,319.672,85.785,-79.205,
39888310,0.297,-0.46,0.296,297.657,76.667,-79.905,
39888320,0.733,-0.435,0.449,249.62,73.517,-95.34,
39888330,0.993,-0.874,0.869,195.895,114.222,-114.66,
39888340,0.735,-1.168,0.912,188.667,175.14,-115.675,
39888350,0.503,-0.807,0.459,206.78,204.802,-108.605,
39888360,0.743,-0.57,0.114,195.422,203.787,-107.17,
39888370,0.841,-0.89,-0.059,154.91,210.28,-103.005,
39888380,-0.177,-1.809,-0.124,179.287,183.435,-82.53,
39888390,-0.598,-1.998,0.945,344.557,-67.095,-189.507,
39888400,0.678,-1.525,-1.644,390.145,-153.65,-3.027,
39888410,0.29,1.988,1.892,188.685,-49.455,39.147,
39888420,-1.333,1.305,0.775,212.8,-44.73,85.452,
39888430,-0.443,-1.964,1.442,357.21,-94.657,118.667,
39888440,-0.54,0.431,1.125,347.252,-96.915,59.832,
39888450,-0.875,0.157,1.218,289.362,-108.972,21.857,
39888460,-0.35,0.006,1.316,244.772,-128.782,-18.357,
39888470,0.167,0.284,1.336,199.85,-125.405,-46.322,
39888480,0.612,0.263,1.257,123.445,-95.13,-46.707,
39888490,0.495,0.386,1.104,60.217,-43.872,-28.752,
39888500,0.028,-0.061,1.03,0.91,-2.135,-14.665,
39888510,-0.131,-0.232,0.981,-15.26,13.317,-13.65,
39888510,-0.127,-0.176,0.982,-19.337,16.432,-15.715,
39888530,-0.182,-0.115,0.995,-25.392,20.947,-16.922,
39888530,-0.182,-0.159,1.002,-33.46,23.345,-21.577,
39888550,-0.169,-0.2,1.002,-43.592,28,-26.74,
39888550,-0.208,-0.211,1.025,-57.855,37.012,-31.867,
39888570,-0.183,-0.067,1.079,-77.455,45.885,-36.61,
39888570,-0.193,-0.093,1.124,-98.63,50.19,-44.24,
39888580,-0.128,-0.115,1.155,-129.255,52.92,-49.525,
39888590,-0.114,-0.196,1.115,-160.807,54.285,-51.275,
39888600,-0.086,-0.217,1.067,-186.777,60.655,-50.382,
39888610,-0.065,-0.305,1.004,-204.05,74.042,-50.295,
39888620,-0.196,-0.337,0.96,-211.837,93.835,-53.497,
39888630,-0.345,-0.398,0.879,-221.112,107.292,-64.172,
39888640,-0.413,-0.333,0.992,-222.6,113.575,-79.677,
39888650,-0.428,-0.599,1.085,-218.032,120.907,-94.517,
39888660,-0.33,-0.961,1.203,-227.062,130.585,-105.367,
39888670,-0.551,-1.133,0.718,-190.435,123.76,-93.415,
39888680,-0.437,-1.416,1.27,-134.68,137.235,-73.062,
39888690,0.248,-1.868,1.317,-64.89,158.392,-79.992,
39888700,0.367,-1.252,0.722,50.19,107.1,-132.51,
39888710,-0.791,-0.199,0.498,115.307,3.675,-192.762,
39888720,-1.037,0.112,0.326,88.252,2.362,-203.315,
39888730,-1.603,0.32,0.465,92.82,-25.27,-122.01,
39888740,-1.091,0.688,0.267,122.797,-46.095,-30.887,
39888750,-0.344,0.982,-0.604,153.142,-44.537,42.437,
39888760,0.322,1.469,-1.087,152.53,-21.63,74.007,
39888770,0.438,1.126,-0.435,72.695,14.437,56.962,
39888780,0.022,0.533,-0.231,28.35,20.825,36.715,
39888790,0.128,0.879,-0.241,43.505,-1.767,22.802,
39888800,-0.266,0.786,-0.36,40.582,-30.695,30.257,
39888810,1.082,-1.805,0.627,36.82,-38.237,-14.122,
39888820,-1.565,-1.957,-0.355,353.867,-125.37,81.812,
39888830,0.552,1.756,0.76,307.265,-96.757,33.705,
39888840,0.242,1.572,1.573,126.472,-32.672,53.987,
39888850,-1.484,-1.896,1.814,187.075,-31.78,108.622,
39888860,-0.861,0.926,1.476,318.307,-123.567,32.9,
39888870,0.023,0.745,1.346,174.895,-130.217,-5.827,
39888880,1.072,0.783,1.084,76.055,-85.82,-41.615,
39888890,0.63,0.203,1.062,2.222,-11.865,-37.24,
39888890,0.013,-0.261,0.982,-31.447,29.68,-28.997,
39888910,-0.186,-0.414,0.969,-32.427,38.447,-22.347,
39888910,-0.246,-0.318,0.93,-16.677,32.847,-16.835,
39888920,-0.427,-0.339,0.934,-14.962,25.865,-8.942,
39888930,-0.377,-0.231,0.942,-2.87,11.847,-5.6,
39888940,-0.268,-0.2,0.968,-0.752,0.805,-4.97,
39888950,-0.213,-0.144,0.982,-2.327,-5.285,-2.292,
39888960,-0.245,-0.077,1.015,-10.902,-6.807,-0.49,
39888970,-0.28,0.003,1.069,-24.71,-8.365,-5.302,
39888980,-0.312,0.112,1.132,-43.872,-10.955,-17.832,
39888990,-0.293,-0.008,1.182,-76.352,-17.64,-37.782,
39889000,-0.179,-0.297,1.078,-112.367,-24.692,-56.105,
39889010,-0.274,-0.33,1.171,-145.092,-11.55,-72.607,
39889020,-0.236,-0.174,1.065,-175.227,-14.472,-94.045,
39889030,-0.143,-0.216,1.039,-192.587,-16.537,-97.877,
39889040,-0.072,-0.354,1.072,-210.367,0.175,-96.215,
39889050,-0.389,-0.603,1.048,-217.647,15.172,-97.825,
39889060,-0.454,-0.885,0.787,-191.695,22.977,-103.022,
39889070,-0.707,-0.824,0.953,-130.515,11.69,-112.28,
39889080,-0.223,-0.94,0.761,-101.972,-12.845,-127.645,
39889090,-0.114,-1.145,0.827,-53.917,-7.717,-147.385,
39889100,0.31,-1.558,1.284,-18.97,23.135,-147.91,
39889110,-0.999,-1.726,-0.652,23.485,134.242,-37.695,
39889120,-1.769,-0.307,-0.282,70.472,29.242,-14.49,
39889130,-0.672,-0.299,-0.229,-6.23,17.15,13.107,
39889140,-0.537,-0.716,-0.269,-44.59,24.465,151.707,
39889150,-0.324,-0.438,-0.404,-24.36,21.017,197.75,
39889160,-0.007,0.299,-0.379,-66.29,13.387,225.627,
39889170,0.176,0.592,-0.456,-118.23,6.352,270.392,
39889180,0.344,1.115,-0.234,-126.28,6.055,287.612,
39889190,0.039,0.937,1.365,-141.47,-107.922,206.85,
39889200,1.54,-1.998,-0.096,122.937,-21.017,108.237,
39889210,-1.998,-1.784,-0.273,375.34,-27.177,-31.132,
39889220,0.283,-0.624,1.2,221.392,-41.51,81.865,
39889230,0.671,0.641,1.496,331.835,-57.68,152.32,
39889240,-1.553,-0.18,1.253,320.985,-33.302,99.662,
39889250,-0.757,0.253,1.489,264.32,-77.122,81.165,
39889260,-0.653,0.478,1.289,189.84,-94.85,5.372,
39889260,0.602,0.56,1.2,97.527,-84.07,-40.932,
39889280,0.641,0.361,1.097,27.072,-34.405,-48.317,
39889280,0.121,0.105,1.058,-24.5,12.442,-36.645,
39889300,-0.194,-0.117,1.015,-48.265,33.985,-36.295,
39889300,-0.35,-0.326,0.951,-51.327,36.242,-46.532,
39889320,-0.233,-0.449,0.917,-38.535,24.045,-50.277,
39889320,-0.16,-0.404,0.905,-30.467,16.887,-38.517,
39889330,-0.058,-0.346,0.923,-24.15,11.497,-14.297,
39889340,-0.092,-0.276,0.956,-21.175,11.462,12.512,
39889350,-0.213,-0.156,1.017,-26.372,12.845,28.56,
39889360,-0.246,-0.04,1.07,-37.87,13.037,30.082,
39889370,-0.251,-0.035,1.124,-59.797,11.445,19.915,
39889380,-0.232,-0.038,1.16,-86.537,8.89,6.877,
39889390,-0.183,-0.069,1.169,-119.98,5.302,-3.045,
39889400,-0.223,-0.116,1.155,-154.542,3.15,-9.59,
39889410,-0.171,-0.123,1.067,-183.4,-2.432,-12.39,
39889420,-0.211,-0.195,0.986,-202.37,-3.097,-12.32,
39889430,-0.261,-0.295,0.942,-218.382,-2.222,-15.365,
39889440,-0.302,-0.329,0.924,-219.467,-6.807,-20.772,
39889450,-0.396,-0.531,1.02,-220.92,-15.015,-27.247,
39889460,-0.522,-0.484,1.147,-187.775,-36.382,-33.302,
39889470,-0.484,-0.508,1.049,-175.997,-58.52,-35.962,
39889480,-0.627,-0.703,1.147,-159.897,-71.522,-36.697,
39889490,-0.602,-0.566,1.367,-122.132,-79.695,-42.227,
39889500,-0.384,-0.103,1.086,-85.54,-76.02,-46.707,
39889510,0.02,-0.303,1.567,-49.542,-31.605,-56.892,
39889520,-1.255,0.16,1.91,-8.312,154.157,17.132,
39889530,-1.98,1.992,0.402,182.717,145.162,52.29,
39889540,-0.721,1.776,-0.101,269.325,81.357,103.232,
39889550,0.067,0.33,-0.955,260.522,86.852,170.747,
39889560,-0.264,0.068,-1.148,220.745,84.017,110.652,
39889570,-0.628,-0.087,-0.927,137.357,67.602,87.482,
39889580,-0.343,-0.737,-0.793,54.25,39.497,117.232,
39889580,-0.331,-1.212,-0.693,9.782,18.76,130.655,
39889600,0.639,-1.528,1.376,-105.07,-109.707,41.982,
39889600,0.028,-1.998,-1.051,100.94,-1.032,-118.44,
39889620,-1.127,1.443,0.468,490.717,-38.972,2.957,
39889620,1.728,0.031,1.888,294.945,-142.975,193.777,
39889640,-1.914,-0.155,1.15,204.925,-101.815,159.705,
39889640,0.109,0.648,1.3,213.675,-166.372,93.957,
39889660,0.805,1.044,1.054,109.025,-147.822,-31.027,
39889660,1.373,0.184,1.077,15.942,-68.95,-55.16,
39889670,0.504,0.066,0.984,-20.282,12.547,-19.302,
39889680,-0.332,-0.287,1.007,-49.84,45.167,-6.195,
39889690,-0.548,-0.338,0.922,-34.247,35.577,-20.317,
39889700,-0.507,-0.557,0.929,-14.21,14.822,-31.167,
39889710,-0.183,-0.363,0.945,6.562,-4.41,-20.615,
39889720,-0.049,-0.082,0.989,5.6,-8.592,-0.612,
39889730,-0.082,-0.101,0.992,-4.602,-2.992,8.47,
39889740,0.013,-0.093,0.998,-13.65,4.882,8.47,
39889750,0.066,-0.021,1.039,-26.075,15.995,7.997,
39889760,0.043,0.055,1.084,-45.85,31.657,6.632,
39889770,-0.029,-0.062,1.125,-77.087,47.757,6.72,
39889780,-0.187,-0.133,1.128,-103.635,57.102,7.84,
39889790,-0.209,-0.155,1.147,-123.13,54.915,6.51,
39889800,-0.398,-0.103,1.15,-151.235,49.157,4.357,
39889810,-0.302,-0.16,1.019,-185.027,33.162,-0.91,
39889820,-0.396,-0.275,1.05,-209.807,35.49,-18.935,
39889830,-0.37,-0.207,0.984,-230.842,42.927,-49.297,
39889840,-0.322,-0.298,0.954,-240.152,46.287,-74.462,
39889850,-0.121,-0.508,0.957,-245.525,59.78,-95.077,
39889860,0.158,-0.578,1.103,-240.695,102.13,-112.577,
39889870,0.098,-0.697,1.086,-218.837,173.285,-110.232,
39889880,-0.165,-0.854,0.954,-178.22,234.762,-112.595,
39889890,-0.425,-0.997,0.829,-122.465,276.57,-125.16,
39889900,0.632,-1.023,0.809,-43.382,327.25,-125.16,
39889910,1.483,-0.333,1.77,63.91,384.16,-144.112,
39889920,-1.434,0.095,0.745,194.775,263.69,-189.367,
39889930,-1.159,0.64,1.072,197.715,91.892,-250.845,
39889940,-0.384,0.715,-0.186,215.6,-8.89,-140.787,
39889950,0.357,0.708,-1.364,273.385,-52.727,-19.862,
39889960,0.311,0.363,-1.274,177.38,-19.495,-14.822,
39889970,-0.514,-0.386,-0.855,60.515,22.277,-14.192,
39889980,-1.065,-1.415,-1.014,18.077,13.247,29.417,
39889990,-0.855,-1.998,1.556,-6.65,-66.535,61.775,
39890000,-1.346,-1.998,-0.977,103.057,-350.997,87.517,
39890010,0.662,0.316,1.343,324.992,-230.125,216.527,
39890010,0.374,1.858,1.429,240.59,-175.612,227.167,
39890030,-1.426,-0.832,1.02,254.1,-160.982,150.5,
39890030,-0.907,-0.417,1.428,308.49,-168.315,59.692,
39890050,-1.226,-0.054,1.395,278.11,-186.532,-4.042,
39890050,1.741,1.262,1.235,168.245,-177.24,-28.962,
39890070,1.317,0.557,1.017,49.962,-70.297,-22.942,
39890070,0.238,0.105,1.019,-16.502,17.15,-14.385,
39890080,-0.312,-0.327,0.98,-30.992,42.14,-28.787,
39890090,-0.258,-0.337,0.963,-22.085,37.765,-44.467,
39890100,-0.323,-0.334,0.947,-17.185,30.397,-34.037,
39890110,-0.364,-0.339,0.948,-14.91,19.04,-19.495,
39890120,-0.296,-0.136,0.967,-10.902,7.98,-13.86,
39890130,-0.123,-0.182,1.005,-17.29,2.957,-9.747,
39890140,-0.094,-0.003,1.027,-21.577,7.63,-9.45,
39890150,-0.036,0.1,1.126,-48.545,17.85,-16.012,
39890160,-0.352,0.043,1.16,-89.11,30.73,-25.322,
39890170,-0.145,-0.368,1.099,-129.237,35.665,-47.67,
39890180,-0.532,-0.044,1.355,-176.435,48.282,-80.447,
39890190,-0.291,0.064,1.137,-204.487,29.75,-95.952,
39890200,-0.392,-0.199,1.07,-234.832,17.482,-91.262,
39890210,-0.343,-0.252,0.986,-244.685,8.225,-89.215,
39890220,-0.405,-0.297,1.036,-256.987,-0.14,-96.337,
39890230,-0.657,-0.342,1.123,-256.427,-24.08,-103.635,
39890240,-0.604,-0.084,1.092,-216.685,-61.757,-108.255,
39890250,-0.5,-0.406,1.137,-221.952,-73.395,-108.045,
39890260,-0.048,-0.474,1.09,-201.075,-71.61,-114.31,
39890270,-0.053,-0.281,0.961,-134.102,-62.895,-111.527,
39890280,0.269,-1.374,1.346,-91.962,2.677,-66.937,
39890290,-1.671,0.636,0.842,-48.615,157.097,29.995,
39890300,-1.752,1.954,1.843,0.752,189.122,2.537,
39890310,-0.971,0.838,1.323,87.535,82.442,104.195,
39890320,0.283,0.252,0.159,245.98,46.655,227.85,
39890330,0.925,0.502,-1.563,342.037,33.53,227.517,
39890330,0.916,0.414,-1.302,251.982,43.347,150.29,
39890350,0.06,-0.617,-0.562,51.642,52.92,85.19,
39890350,-0.408,-1.416,-0.452,-10.85,34.282,96.005,
39890370,0.944,-1.222,0.671,-32.795,-45.587,126.332,
39890370,0.857,-1.998,-1.063,68.197,1.452,13.195,
39890390,-1.97,0.406,0.712,508.707,-20.125,100.817,
39890390,1.512,1.839,1.485,381.587,-117.67,222.425,
39890410,-1.588,-0.981,1.772,213.815,-126.262,209.527,
39890410,-1.234,0.213,1.121,260.557,-196.035,79.835,
39890420,1.559,1.58,1.267,136.5,-197.05,-30.782,
39890430,1.608,0.168,1.094,30.257,-108.237,-66.832,
39890440,0.776,-0.068,1.002,-15.032,-9.695,-26.775,
39890450,0.022,-0.31,1.006,-42.052,36.855,-8.54,
39890460,-0.268,-0.291,0.969,-39.287,44.835,-7.962,
39890470,-0.446,-0.284,0.931,-30.257,40.11,-17.377,
39890480,-0.403,-0.467,0.938,-18.34,25.655,-20.177,
39890490,-0.218,-0.16,0.963,-2.047,11.83,-17.762,
39890500,-0.181,-0.186,0.981,-12.635,7.7,-8.802,
39890510,-0.218,-0.193,0.978,-14.227,5.337,1.435,
39890520,-0.185,-0.04,1.018,-15.942,4.095,4.865,
39890530,-0.157,-0.042,1.054,-34.842,5.285,4.585,
39890540,-0.157,-0.069,1.08,-54.827,7.28,3.972,
39890550,-0.107,-0.051,1.136,-76.51,7.84,1.627,
39890560,-0.065,-0.11,1.113,-101.132,10.062,0.437,
39890570,-0.086,-0.134,1.132,-126.192,14.595,4.322,
39890580,-0.082,-0.117,1.076,-145.495,15.505,9.345,
39890590,-0.113,-0.187,1.049,-166.285,19.687,13.685,
39890600,-0.131,-0.216,0.96,-181.772,23.94,16.555,
39890610,-0.172,-0.243,0.956,-191.257,29.277,18.095,
39890620,-0.166,-0.256,0.987,-191.52,31.972,18.672,
39890630,-0.064,-0.366,0.981,-197.96,32.462,16.94,
39890640,0.05,-0.554,1.022,-197.242,32.392,22.89,
39890650,-0.165,-0.652,0.965,-183.785,31.132,29.785,
39890660,-0.24,-0.6,1.026,-155.855,20.475,37.502,
39890670,-0.168,-0.613,0.968,-135.887,16.502,52.5,
39890680,-0.371,-0.655,0.916,-114.17,8.417,63.507,
39890690,-0.698,-0.673,0.78,-101.272,-14.805,73.955,
39890700,-0.623,-0.567,0.682,-75.915,-44.747,90.3,
39890710,0.007,-0.45,0.993,-45.972,-69.265,101.465,
39890720,-0.151,-0.332,0.241,-1.925,-71.242,118.317,
39890730,-0.008,0.552,-0.123,68.285,-60.707,128.852,
39890740,0.502,1.019,-0.398,71.96,-51.817,133.7,
39890750,0.482,0.843,-0.525,40.407,-46.235,111.492,
39890760,-0.041,0.016,-0.31,0.857,-38.447,73.395,
39890760,-1.246,-1.8,1.649,44.362,-37.94,75.442,
39890780,-1.644,-1.998,-1.078,238.997,-112.647,103.582,
39890780,1.548,0.673,1.815,211.767,-94.027,144.235,
39890800,-1.139,1.738,0.634,177.817,-61.565,174.965,
39890800,-1.148,-1.375,1.119,240.59,-73.692,71.032,
39890820,-0.517,-0.063,1.227,283.937,-103.565,5.267,
39890820,-0.652,0.435,1.305,272.79,-132.037,-52.92,
39890830,0.518,0.059,1.52,204.295,-144.217,-73.622,
39890840,0.804,0.616,1.289,137.497,-105.63,-42.455,
39890850,0.303,0.255,1.106,44.222,-46.357,-6.177,
39890860,0.011,-0.063,1.026,-4.637,-11.655,-0.98,
39890870,-0.107,-0.317,0.968,-18.62,-0.332,-9.03,
39890880,-0.133,-0.316,0.945,-12.652,1.032,-10.99,
39890890,-0.161,-0.2,0.97,-5.67,-0.402,-6.912,
39890900,-0.156,-0.181,0.984,-7.472,-1.225,-5.04,
39890910,-0.131,-0.154,0.992,-14.805,-1.487,-2.555,
39890920,-0.121,-0.14,0.999,-21.105,-0.437,0.665,
39890930,-0.118,-0.053,1.042,-33.04,2.012,0.997,
39890940,-0.142,-0.057,1.078,-51.905,7.787,-2.45,
39890950,-0.089,-0.237,1.061,-77.91,19.11,-12.39,
39890960,-0.228,0.006,1.279,-114.852,33.092,-28.927,
39890970,-0.059,-0.072,1.192,-153.107,30.45,-34.877,
39890980,0.057,-0.141,1.15,-192.937,33.687,-28.577,
39890990,0.033,-0.174,1.082,-220.605,40.145,-13.982,
39891000,-0.01,-0.179,1.019,-239.662,48.177,0.455,
39891010,0.001,-0.245,1.008,-242.13,54.022,5.04,
39891020,0.021,-0.495,1.039,-257.442,58.555,10.465,
39891030,0.396,-0.483,1.358,-240.432,79.065,35.647,
39891040,0.525,-0.766,1.439,-250.967,141.12,62.58,
39891050,0.299,-1.315,0.931,-246.785,176.435,89.495,
39891060,0.488,-1.946,0.784,-196.42,154.525,135.887,
39891070,-0.221,-1.998,-1.061,-138.092,102.042,182.927,
39891080,0.527,-1.998,-0.217,-52.955,-30.607,208.967,
39891080,1.791,-1.998,0.541,-99.347,-100.502,212.485,
39891100,1.998,-1.998,0.412,-140.28,-93.432,193.095,
39891100,1.98,-1.959,0.864,-137.445,-67.2,95.287,
39891120,1.093,-1.974,0.876,-128.012,-54.967,-44.327,
39891120,0.35,-1.71,0.793,-118.93,-57.697,-172.147,
39891140,0.197,-1.149,0.939,-107.38,-69.965,-250.932,
39891140,-0.562,-1.068,1.129,-133.822,-92.172,-299.53,
39891160,-1.555,-0.748,0.943,-152.617,-133.752,-308.367,
39891160,-1.648,-0.254,1.052,-166.215,-159.6,-275.415,
39891170,-1.41,-0.206,1.259,-205.677,-150.535,-196.997,
39891180,-1.453,-0.365,1.476,-260.732,-132.44,-105.262,
39891190,-1.342,-0.314,1.622,-305.48,-119.665,-37.275,
39891200,-1.262,-0.397,1.485,-309.925,-131.862,4.235,
39891210,-0.722,-0.49,1.436,-293.597,-138.88,17.202,
39891220,-0.169,-0.422,1.547,-288.207,-107.117,10.797,
39891230,-0.362,-0.414,1.616,-275.012,-73.955,-9.24,
39891240,-0.802,-0.454,1.526,-254.047,-67.76,-34.842,
39891250,-0.868,-0.407,1.366,-229.162,-88.76,-52.85,
39891260,-0.656,-0.315,1.188,-203.875,-104.37,-54.337,
39891270,-0.501,-0.256,1.049,-181.842,-92.382,-40.197,
39891280,-0.638,-0.221,0.776,-145.18,-76.212,-23.345,
39891290,-0.713,-0.124,0.444,-97.947,-71.295,-10.727,
39891300,-0.529,-0.111,0.131,-53.217,-66.71,4.182,
39891310,-0.247,-0.236,-0.11,-13.965,-47.687,18.007,
39891320,-0.099,-0.325,-0.256,19.18,-18.795,14.892,
39891330,-0.089,-0.346,-0.347,48.107,9.66,0.717,
39891340,-0.053,-0.354,-0.357,74.042,33.092,-16.52,
39891350,0.046,-0.325,-0.385,93.205,51.012,-44.38,
39891360,0.169,-0.238,-0.387,106.452,70.175,-75.53,
39891370,0.22,-0.142,-0.3,114.187,94.01,-106.05,
39891380,0.22,-0.153,-0.152,117.635,119.07,-132.282,
39891390,0.207,-0.174,0.123,121.747,142.415,-152.757,
39891400,0.242,-0.229,0.441,130.252,160.265,-169.137,
39891410,0.233,-0.333,0.849,146.93,180.757,-178.832,
39891420,0.136,-0.397,1.158,173.512,199.482,-182.857,
39891430,-0.118,-0.39,1.106,207.55,207.217,-176.47,
39891440,-0.431,-0.147,0.851,235.13,187.95,-159.897,
39891450,-0.488,0.194,0.672,232.54,154.875,-128.432,
39891460,-0.415,0.251,0.66,198.152,127.47,-78.837,
39891470,-0.432,0.042,0.666,161,109.987,-14.997,
39891480,-0.462,-0.017,0.775,141.662,89.967,43.995,
39891490,-0.393,0.039,1.067,128.362,70.647,88.987,
39891500,-0.334,-0.112,1.284,120.855,58.642,132.667,
39891510,-0.193,-0.385,1.266,142.8,49.367,180.442,
39891510,0.007,-0.548,1.069,173.827,36.417,204.05,
39891530,0.204,-0.58,0.876,189.28,22.61,195.72,
39891530,0.255,-0.941,0.683,186.882,15.715,175.297,
39891540,0.61,-0.766,0.623,193.655,14,127.645,
39891550,0.226,-0.524,0.528,144.812,21.437,104.895,
39891560,0.01,-1.249,0.713,142.677,18.847,102.34,
39891570,-0.08,-1.324,0.7,147.822,3.78,62.282,
39891580,-0.192,-1.024,0.563,148.172,-8.19,43.855,
39891590,-0.25,-0.898,0.534,129.22,-10.815,27.79,
39891600,-0.453,-1.038,0.661,89.162,-7.787,13.02,
39891610,-0.67,-1.127,0.862,62.597,2.87,15.505,
39891620,-0.758,-1.044,1.077,47.32,17.71,31.027,
39891630,-0.845,-1.082,1.391,24.465,27.895,53.707,
39891640,-0.997,-1.254,1.665,1.68,27.597,77.175,
39891650,-0.977,-1.264,1.853,-4.532,23.975,102.725,
39891660,-0.799,-1.423,1.632,6.597,19.512,136.867,
39891670,-0.278,-1.618,1.295,29.907,16.537,147.455,
39891680,-0.077,-1.221,1.136,32.462,31.937,126.227,
39891690,-0.184,-1.609,1.048,41.702,53.287,112.087,
39891700,-0.153,-1.743,0.941,16.94,52.325,37.887,
39891710,-0.334,-1.311,0.871,2.1,45.062,-13.702,
39891720,-0.403,-1.215,0.79,-7.682,48.265,-32.375,
39891730,-0.448,-1.138,0.743,-24.22,51.275,-49.822,
39891740,-0.656,-0.921,0.693,-31.027,42.647,-50.627,
39891750,-0.616,-0.831,0.771,-52.412,34.807,-35.402,
39891760,-0.33,-1.003,1.062,-83.947,42.192,1.75,
39891770,0.081,-1.285,1.345,-97.212,72.765,47.495,
39891780,0.32,-1.504,1.38,-70.98,108.797,86.047,
39891790,0.424,-1.457,1.01,-23.537,113.452,103.04,
39891800,0.713,-1.214,0.634,7.752,93.327,93.642,
39891810,0.877,-1.099,0.301,5.232,62.475,67.725,
39891820,1.008,-1.011,0.128,-6.65,39.235,31.692,
39891830,1.069,-0.83,0.103,-18.637,31.255,-8.067,
39891830,1.16,-0.456,0.147,-29.085,28.507,-47.512,
39891850,1.944,0.759,0.78,-33.127,44.117,-61.495,
39891850,0.646,0.978,1.116,-58.38,2.152,-31.71,
39891870,-0.454,-1.038,0.572,-82.162,-94.342,-48.475,
39891870,0.461,-0.994,0.469,-24.097,-131.67,-68.302,
39891890,0.438,0.043,0.147,52.622,-135.642,-81.007,
39891890,-0.18,0.099,-0.022,35.98,-97.212,-94.132,
39891910,-0.501,-0.185,0.029,-3.342,-77.735,-74.007,
39891910,-0.493,-0.15,0.126,-18.97,-89.267,-50.767,
39891920,-0.429,-0.076,0.209,-33.932,-102.917,-31.01,
39891930,-0.44,-0.161,0.279,-58.887,-105.84,-7.472,
39891940,-0.474,-0.195,0.303,-73.482,-105.857,16.59,
39891950,-0.406,-0.155,0.454,-83.335,-101.272,36.89,
39891960,-0.384,-0.28,0.722,-102.165,-87.01,56.122,
39891970,-0.434,-0.424,0.867,-110.092,-81.077,63.017,
39891980,-0.222,-0.381,1.018,-103.827,-72.782,53.917,
39891990,-0.036,-0.332,1.342,-104.405,-44.782,32.742,
39892000,-0.041,-0.28,1.532,-102.27,-15.19,-11.462,
39892010,-0.672,-0.286,1.945,-73.797,1.085,-42.402,
39892020,-0.829,0.154,1.997,-17.15,-4.392,-28.42,
39892030,-0.62,0.26,1.998,-48.282,5.862,-9.432,
39892040,-0.922,-0.587,1.998,-58.205,34.597,35.787,
39892050,-0.85,-0.749,1.998,15.925,41.947,97.107,
39892060,0.207,0.354,1.974,50.54,52.097,104.842,
39892070,0.412,-0.272,1.901,13.457,73.115,43.82,
39892080,-0.07,-0.824,1.888,33.407,80.535,-77.455,
39892090,-0.545,-0.367,1.755,90.125,75.67,-172.917,
39892100,-0.884,-0.134,1.575,108.797,68.827,-212.152,
39892110,-1.038,-0.239,1.431,103.635,71.137,-192.29,
39892120,-0.926,-0.4,1.234,96.18,84.07,-155.47,
39892130,-0.719,-0.455,1.133,97.807,110.215,-123.795,
39892140,-0.654,-0.485,1.144,98.07,133.507,-94.237,
39892150,-0.405,-0.658,1.34,83.177,152.757,-68.355,
39892160,-0.001,-0.81,1.404,74.55,159.617,-39.13,
39892170,0.155,-0.891,1.433,75.81,149.8,-8.347,
39892180,0.314,-1.276,1.182,79.362,114.555,-16.345,
39892190,0.593,-1.399,0.982,95.725,100.047,-59.587,
39892200,0.039,-1.175,0.631,115.167,82.6,-76.02,
39892210,-0.103,-0.867,0.343,110.145,50.785,-67.252,
39892210,0.126,-0.729,0.221,73.64,28.507,-25.165,
39892230,0.175,-0.792,0.186,31.745,21.28,23.397,
39892230,0.171,-0.891,0.151,10.972,8.767,59.167,
39892250,0.223,-0.906,-0.005,7.892,-14.315,82.11,
39892250,0.311,-0.9,-0.19,8.662,-38.185,94.325,
39892260,0.364,-0.814,-0.275,-0.945,-54.005,96.617,
39892270,0.334,-0.711,-0.227,-19.67,-63.997,95.182,
39892280,0.3,-0.64,-0.178,-35.437,-71.907,92.015,
39892290,0.787,-0.304,-0.305,-36.277,-71.662,90.16,
39892300,1.913,1.155,0.772,-32.427,-22.225,112.525,
39892310,-0.375,-0.033,0.405,-64.785,-80.325,147.927,
39892320,0.361,-1.584,-0.208,-59.255,-167.387,117.057,
39892330,1.779,-0.59,-0.316,1.085,-149.047,74.112,
39892340,0.584,-0.35,-0.204,3.517,-97.195,-7.525,
39892350,-0.445,-0.915,-0.001,-53.462,-69.125,-71.557,
39892360,-0.268,-0.896,-0.047,-70.385,-68.495,-71.417,
39892370,-0.033,-0.7,-0.137,-79.292,-30.887,-57.592,
39892380,-0.214,-0.798,-0.099,-107.835,36.855,-39.322,
39892390,-0.459,-1.007,0.043,-141.715,107.397,-16.607,
39892400,-0.597,-1.134,0.432,-170.887,155.837,-1.662,
39892410,-0.648,-1.253,0.984,-198.59,179.602,-7.157,
39892420,-0.822,-1.609,1.588,-209.037,184.38,-26.25,
39892430,-0.836,-1.302,1.837,-189.28,165.077,-89.39,
39892440,-1.294,-1.268,1.986,-19.845,133.56,-47.022,
39892450,-0.94,-1.134,1.988,-55.737,88.305,-92.382,
39892460,-1.072,-1.312,1.671,-64.82,35.017,-141.085,
39892470,-0.817,-0.866,1.341,-10.535,8.872,-166.407,
39892480,-0.943,-0.632,1.34,-32.48,19.617,-168.157,
39892490,-1.113,-0.757,1.521,-73.447,39.27,-148.347,
39892500,-0.998,-0.799,1.598,-76.912,41.055,-119.7,
39892510,-0.761,-0.723,1.581,-58.012,31.99,-101.692,
39892520,-0.805,-0.694,1.557,-42.7,21.875,-94.202,
39892530,-1.043,-0.692,1.454,-29.26,0.857,-98.297,
39892540,-1.175,-0.486,1.172,-11.637,-36.697,-101.745,
39892550,-1.108,-0.319,0.934,1.75,-67.55,-64.557,
39892560,-0.781,-0.325,0.714,6.125,-83.02,-17.745,
39892570,-0.475,-0.424,0.552,0.577,-72.852,23.012,
39892580,-0.368,-0.385,0.457,6.702,-52.08,51.922,
39892580,-0.358,-0.299,0.418,11.007,-30.957,72.432,
39892600,-0.105,-0.35,0.42,13.527,-14.56,76.545,
39892600,0.142,-0.286,0.415,23.1,-0.91,64.295,
39892620,0.282,-0.256,0.414,39.742,11.025,58.607,
39892620,0.461,-0.324,0.476,47.057,19.95,34.352,
39892640,0.434,-0.347,0.53,61.18,20.44,6.3,
39892640,0.329,-0.406,0.608,78.907,20.86,-7.84,
39892660,0.168,-0.423,0.572,104.807,12.337,-15.032,
39892660,0.034,-0.35,0.429,128.957,-7.49,-17.5,
39892670,-0.001,-0.246,0.268,140.682,-28.35,-11.182,
39892680,-0.028,-0.233,0.148,135.152,-40.74,4.935,
39892690,-0.103,-0.314,0.116,119.857,-46.97,25.252,
39892700,-0.168,-0.401,0.109,102.252,-50.505,52.167,
39892710,-0.194,-0.458,0.136,84.857,-54.46,82.652,
39892720,-0.207,-0.537,0.167,67.812,-59.237,110.932,
39892730,-0.22,-0.622,0.173,52.815,-65.607,136.552,
39892740,-0.162,-0.701,0.177,39.672,-71.19,158.235,
39892750,-0.112,-0.789,0.217,27.475,-75.53,172.567,
39892760,-0.13,-0.898,0.266,13.597,-80.832,179.235,
39892770,-0.08,-0.958,0.27,-0.682,-89.092,179.725,
39892780,0.051,-0.995,0.32,-17.552,-91.542,176.015,
39892790,0.015,-1.081,0.363,-40.407,-89.617,167.807,
39892800,-0.002,-1.124,0.411,-62.912,-87.517,156.975,
39892810,0.14,-1.077,0.568,-85.225,-79.45,144.69,
39892820,0.174,-1.034,0.892,-112.017,-64.102,125.335,
39892830,0.074,-1.106,1.128,-134.627,-51.922,97.93,
39892840,0.06,-1.128,1.194,-139.615,-41.492,72.642,
39892850,0.027,-1.047,1.398,-143.412,-24.815,47.652,
39892860,-0.327,-1.04,1.714,-159.215,-6.685,19.81,
39892870,-0.716,-1.078,1.846,-162.802,-1.242,6.09,
39892880,-0.269,-1.171,1.873,-155.417,0.07,1.452,
39892890,-0.322,-1.466,1.649,-91.07,12.547,23.695,
39892900,-0.477,-1.185,1.59,-38.342,-4.007,35.35,
39892910,-0.021,-1.259,1.612,-83.86,-10.167,17.097,
39892920,-0.205,-1.496,1.714,-111.79,-25.812,-14.857,
39892920,-0.294,-1.41,1.515,-101.762,-29.242,-33.407,
39892940,-0.429,-1.338,1.281,-91.297,-10.167,-26.057,
39892940,-0.56,-1.233,1.144,-94.307,18.585,-17.85,
39892960,-0.584,-1.266,1.086,-91.472,38.237,-3.587,
39892960,-0.419,-1.405,1.105,-88.812,43.715,5.635,
39892980,-0.163,-1.572,1.122,-86.205,41.772,-2.642,
39892980,-0.063,-1.576,1.07,-69.58,40.425,-23.257,
39893000,-0.255,-1.439,0.926,-50.382,29.75,-54.46,
39893000,-0.336,-1.267,0.66,-35.927,15.697,-77.752,
39893010,-0.297,-1.04,0.413,-28.157,8.68,-82.53,
39893020,-0.278,-0.848,0.227,-28.227,6.055,-74.69,
39893030,-0.2,-0.744,0.104,-31.027,-0.087,-60.585,
39893040,-0.006,-0.701,0.017,-32.462,-8.347,-46.462,
39893050,0.132,-0.629,-0.033,-32.812,-15.155,-39.55,
39893060,0.103,-0.54,-0.066,-33.005,-22.732,-38.342,
39893070,0.073,-0.449,-0.086,-34.545,-34.93,-39.655,
39893080,0.07,-0.337,-0.122,-35.647,-48.23,-38.972,
39893090,0.048,-0.206,-0.189,-34.58,-59.202,-35.927,
39893100,-0.016,-0.066,-0.251,-35.21,-66.167,-28.595,
39893110,-0.075,0.024,-0.294,-39.882,-69.352,-15.085,
39893120,-0.074,0.079,-0.321,-47.705,-68.18,3.202,
39893130,-0.027,0.088,-0.293,-59.185,-61.547,24.447,
39893140,0.03,0.038,-0.204,-70.822,-51.66,43.05,
39893150,0.112,-0.026,-0.106,-75.25,-41.177,54.145,
39893160,0.152,-0.062,-0.026,-71.47,-35.56,56.07,
39893170,0.194,-0.089,0.064,-64.645,-36.032,49.262,
39893180,0.277,-0.307,0.166,-57.732,-36.645,39.97,
39893190,0.295,-0.221,0.245,-48.335,-39.357,17.605,
39893200,0.223,-0.576,0.323,-6.02,-47.862,-7.105,
39893210,0.009,-0.555,0.316,-24.972,-48.317,-18.725,
39893220,-0.079,-0.604,0.349,-45.15,-48.632,-24.08,
39893230,-0.089,-0.782,0.366,-48.055,-42.49,-30.59,
39893240,-0.007,-0.898,0.423,-60.322,-30.59,-31.745,
39893250,0.033,-1.005,0.488,-71.89,-22.26,-42.49,
39893260,0.03,-1.171,0.591,-83.755,-12.127,-58.31,
39893270,-0.174,-1.239,0.625,-94.99,-8.61,-78.54,
39893280,-0.426,-1.149,0.637,-100.152,-11.935,-94.867,
39893290,-0.468,-1.107,0.55,-104.737,-6.475,-89.845,
39893300,-0.162,-0.988,0.71,-98.717,16.992,-65.66,
39893310,-0.156,-1.232,0.741,-101.027,41.037,-47.197,
39893320,-0.341,-1.292,0.705,-39.025,35.052,-43.715,
39893330,-0.054,-1.051,0.609,-52.15,31.955,-10.115,
39893330,0.321,-1.101,0.711,-83.125,32.515,-0.542,
39893350,0.238,-1.155,0.809,-94.132,31.797,-6.125,
39893350,0.303,-1.153,1.022,-78.277,29.435,-20.65,
39893370,0.344,-1.118,1.028,-58.852,29.085,-37.782,
39893370,0.225,-1.003,0.895,-37.03,32.025,-42.245,
39893390,0.116,-0.941,0.801,-17.57,34.317,-44.1,
39893390,0.088,-1.004,0.763,-2.905,40.985,-36.172,
39893410,0.053,-1.074,0.679,6.492,48.825,-19.95,
39893410,0.056,-1.119,0.535,12.337,46.445,-8.82,
39893420,0.165,-1.112,0.388,13.527,38.517,-7.14,
39893430,0.258,-1.131,0.267,9.31,28.927,-9.59,
39893440,0.388,-1.159,0.251,3.29,22.645,-22.242,
39893450,0.419,-1.202,0.306,-4.497,20.545,-43.68,
39893460,0.352,-1.22,0.402,-8.68,24.097,-63.787,
39893470,0.205,-1.204,0.508,-5.215,32.48,-75.565,
39893480,-0.07,-1.261,0.567,5.32,41.072,-75.232,
39893490,-0.311,-1.334,0.516,24.255,42.892,-58.957,
39893500,-0.407,-1.264,0.423,49.612,30.205,-32.865,
39893510,-0.379,-1.145,0.329,68.46,10.29,-7.035,
39893520,-0.37,-1.04,0.19,81.06,-8.89,19.215,
39893530,-0.416,-0.857,0.009,87.815,-31.395,41.667,
39893540,-0.364,-0.653,-0.18,84.455,-52.937,61.355,
39893550,-0.201,-0.519,-0.304,74.165,-64.085,87.64,
39893560,0.06,-0.521,-0.367,57.837,-62.597,111.265,
39893570,0.42,-0.599,-0.288,44.047,-49.315,119.035,
39893580,0.491,-0.712,-0.159,32.41,-37.257,95.165,
39893590,0.262,-0.72,-0.116,31.517,-36.487,53.532,
39893600,-0.002,-0.518,-0.14,41.457,-47.547,19.127,
39893610,-0.109,-0.315,-0.188,44.835,-62.842,-0.332,
39893620,-0.129,-0.218,-0.211,42.175,-74.655,-5.092,
39893630,-0.087,-0.134,-0.237,40.39,-75.18,0.175,
39893640,0.005,-0.074,-0.227,39.97,-66.325,15.365,
39893650,0.085,-0.098,-0.164,36.89,-49.735,37.415,
39893660,0.167,-0.17,-0.059,32.392,-38.745,56.91,
39893670,0.252,-0.24,0.065,26.512,-39.69,65.082,
39893670,0.352,-0.35,0.21,18.9,-45.377,61.53,
39893690,0.424,-0.455,0.339,15.96,-48.79,50.347,
39893690,0.39,-0.494,0.428,16.45,-47.705,31.43,
39893710,0.254,-0.602,0.454,13.527,-41.317,8.155,
39893710,0.102,-0.67,0.389,13.947,-34.562,-13.93,
39893730,-0.002,-0.671,0.335,14.77,-27.755,-30.117,
39893730,-0.02,-0.75,0.196,10.657,-16.345,-37.887,
39893750,-0.018,-0.843,0.104,3.902,6.527,-33.722,
39893750,-0.02,-1.054,0.279,-8.68,42.647,-21.385,
39893760,-0.271,-1.478,0.753,-35.437,85.61,9.292,
39893770,-0.459,-1.974,1.107,-46.637,112.507,68.092,
39893780,-0.244,-1.998,1.323,-27.807,113.645,131.442,
39893790,0.137,-1.998,1.462,-10.85,80.535,142.695,
39893800,0.379,-1.998,1.429,4.41,59.08,110.092,
39893810,0.029,-1.998,1.171,23.257,56.42,67.655,
39893820,-0.453,-1.998,0.902,43.47,48.212,25.287,
39893830,-0.627,-1.998,0.721,47.635,36.89,9.572,
39893840,-0.542,-1.998,0.682,25.462,38.062,18.795,
39893850,-0.376,-1.998,0.703,2.66,45.657,32.707,
39893860,-0.127,-1.848,0.698,1.977,50.96,47.25,
39893870,0.367,-1.56,0.716,9.31,43.89,48.002,
39893880,1.016,-1.665,0.741,7.525,26.81,24.395,
39893890,0.414,-1.544,0.562,0.787,19.057,6.947,
39893900,-0.2,-0.978,0.378,6.895,11.742,8.802,
39893910,0.029,-0.758,0.086,10.815,4.48,22.05,
39893920,0.332,-0.81,-0.014,-5.687,-6.772,24.745,
39893930,0.492,-0.781,-0.032,-20.632,-10.412,8.645,
39893940,0.437,-0.637,-0.158,-16.38,-13.475,-15.82,
39893950,0.357,-0.448,-0.292,-13.667,-23.555,-42.717,
39893960,0.317,-0.308,-0.367,-20.125,-37.485,-63.56,
39893970,0.256,-0.251,-0.359,-30.8,-49.84,-76.387,
39893980,0.15,-0.231,-0.302,-40.32,-61.652,-82.04,
39893990,0.081,-0.183,-0.287,-42.735,-74.165,-81.707,
39894000,0.106,-0.066,-0.306,-40.6,-84.437,-78.05,
39894010,0.139,0.028,-0.329,-41.352,-86.485,-73.412,
39894020,0.136,0.052,-0.31,-44.117,-79.765,-68.11,
39894030,0.103,0.065,-0.283,-43.522,-68.547,-62.335,
39894040,0.034,0.119,-0.253,-39.952,-61.092,-57.592,
39894050,-0.053,0.146,-0.179,-38.797,-57.785,-53.27,
39894060,-0.139,0.08,-0.12,-38.972,-58.8,-44.782,
39894070,-0.236,0.015,-0.104,-37.59,-63.14,-31.325,
39894080,-0.263,-0.027,-0.055,-40.635,-68.74,-14.21,
39894080,-0.183,-0.175,0.074,-51.73,-67.025,7.997,
39894100,-0.159,-0.405,0.247,-63.647,-61.81,29.627,
39894100,-0.096,-0.644,0.413,-71.225,-56.665,41.58,
39894120,-0.032,-0.917,0.56,-74.76,-49.91,46.287,
39894120,-0.066,-0.899,0.598,-75.092,-50.085,36.4,
39894140,-0.157,-1.008,0.676,-68.722,-49.927,23.817,
39894140,-0.151,-1.003,0.759,-74.987,-49.14,1.96,
39894160,-0.442,-1.086,0.85,-85.085,-42.455,-7.735,
39894160,-0.632,-1.079,0.803,-58.73,-36.365,-2.152,
39894170,-0.444,-0.946,0.749,-27.615,-25.672,19.04,
39894180,-0.314,-1.138,0.814,-13.58,-5.687,45.657,
39894190,-0.503,-1.402,0.854,-8.085,2.152,51.695,
39894200,-0.574,-1.328,1.03,-3.727,4.725,52.552,
39894210,-0.47,-1.413,1.19,-4.392,16.59,57.435,
39894220,-0.465,-1.56,1.265,-0.875,37.957,55.982,
39894230,-0.55,-1.547,1.218,20.737,49.752,37.485,
39894240,-0.468,-1.515,1.079,52.255,57.96,11.987,
39894250,-0.457,-1.499,0.898,82.215,79.205,-10.237,
39894260,-0.578,-1.546,0.789,108.867,109.83,-25.62,
39894270,-0.712,-1.12,0.712,101.01,143.255,-25.935,
39894280,-0.663,-1.296,0.82,108.167,169.102,-26.967,
39894290,-0.725,-1.173,0.907,124.477,187.53,-19.215,
39894300,-0.831,-0.934,0.905,136.727,192.972,-8.995,
39894310,-0.775,-0.782,0.874,144.795,188.79,9.8,
39894320,-0.459,-0.66,0.913,142.607,186.06,28.682,
39894330,-0.097,-0.61,0.987,133.98,191.467,50.522,
39894340,0.32,-0.619,1.091,122.815,203.245,58.572,
39894350,0.675,-0.597,1.244,117.547,211.767,47.985,
39894360,0.669,-0.676,1.34,117.827,213.605,28.77,
39894370,0.504,-0.69,1.374,127.242,202.877,6.947,
39894380,0.503,-0.564,1.376,146.877,184.782,0.437,
39894390,0.633,-0.449,1.242,167.212,165.725,16.222,
39894400,0.863,-0.357,1.109,180.81,144.865,34.825,
39894410,1.139,-0.401,1.019,175.63,110.425,34.632,
39894420,1.289,-0.465,0.979,161.962,66.552,13.3,
39894420,1.253,-0.461,0.964,158.182,20.02,-27.982,
39894440,1.09,-0.481,0.963,166.355,-12.005,-67.55,
39894440,0.737,-0.485,0.723,184.327,-27.195,-87.307,
39894460,0.412,-1.87,-0.444,245.42,-74.042,-38.202,
39894460,1.993,0.362,1.028,238.262,-38.605,239.61,
39894480,1.038,0.344,-0.287,127.872,-193.48,240.275,
39894480,0.439,-1.255,0.1,-49.98,-269.5,82.337,
39894500,1.839,-1.994,1.334,-7.122,-155.452,-21.385,
39894500,-0.784,-0.935,0.285,200.812,-129.605,-85.627,
39894510,-1.91,0.14,-0.411,245,-172.602,-70.84,
39894520,-0.824,-0.333,-0.475,144.112,-180.092,-2.66,
39894530,-0.13,-0.913,-0.202,69.912,-151.042,67.392,
39894540,-0.333,-0.91,0.026,66.902,-101.99,97.37,
39894550,-0.388,-0.803,0.363,49.367,-55.58,118.842,
39894560,-0.116,-0.987,0.628,13.37,-32.83,117.705,
39894570,0.076,-1.153,0.833,-0.892,-12.67,90.195,
39894580,0.001,-1.214,1.075,-8.75,17.937,54.932,
39894590,-0.389,-1.36,1.212,-11.865,36.102,8.715,
39894600,-0.749,-1.402,1.249,-2.187,33.407,-30.73,
39894610,-0.986,-1.51,1.194,4.34,25.445,-45.605,
39894620,-1.174,-1.733,0.96,6.86,22.242,-33.67,
39894630,-1.132,-1.64,0.835,2.695,29.505,-7.665,
39894640,-0.883,-1.616,0.916,-25.76,59.36,17.92,
39894650,-0.755,-1.788,0.988,-56,101.552,32.147,
39894660,-0.61,-1.482,0.954,-71.4,142.257,28.787,
39894670,-0.445,-1.595,1.102,-76.562,192.885,24.867,
39894680,-0.52,-1.554,1.122,-119.595,243.985,3.255,
39894690,-1.002,-1.654,1.234,-134.102,272.475,0.315,
39894700,-1.335,-1.519,1.523,-116.882,255.832,3.255,
39894710,-1.261,-1.356,1.676,-106.89,186.375,17.465,
39894720,-0.527,-1.278,1.525,-80.92,100.695,35.822,
39894730,0.282,-1.11,1.147,-47.39,47.862,36.995,
39894740,0.462,-0.792,0.778,-29.487,30.187,19.582,
39894750,0.18,-0.611,0.583,-34.667,18.252,-3.78,
39894760,-0.042,-0.564,0.448,-46.637,-9.59,-17.29,
39894770,0.046,-0.492,0.29,-51.66,-43.365,-18.305,
39894780,0.23,-0.3,0.128,-55.387,-64.662,-13.387,
39894790,0.299,-0.178,0.021,-67.252,-67.602,-5.827,
39894800,0.346,-0.122,0.021,-77.892,-60.55,-1.207,
39894810,0.279,-0.053,0.1,-87.027,-52.92,1.417,
39894820,0.17,-0.01,0.169,-90.195,-52.272,4.06,
39894830,0.183,-0.039,0.21,-87.885,-57.47,9.205,
39894830,0.241,-0.011,0.224,-88.112,-63.262,10.325,
39894850,0.302,-0.026,0.25,-81.13,-65.275,7.087,
39894850,0.328,-0.008,0.265,-81.305,-64.155,-4.655,
39894860,0.376,0.153,0.42,-81.41,-61.197,-25.917,
39894870,0.6,0.229,0.729,-100.555,-47.582,-46.025,
39894880,0.63,-0.357,0.757,-107.205,-83.755,-67.042,
39894890,0.416,-0.732,0.761,-65.1,-170.59,-116.06,
39894900,1.197,0.246,1.345,-38.99,-167.37,-131.512,
39894910,-0.115,-0.314,0.577,-104.16,14.087,-74.515,
39894920,-1.026,-0.539,0.315,-52.832,3.377,-35.682,
39894930,-0.54,0.056,0.357,-35.805,-34.632,-47.215,
39894940,-0.14,-0.272,0.683,-76.527,-63.997,-62.037,
39894950,-0.341,-1.025,0.804,-84.245,-44.065,-73.92,
39894960,-0.569,-0.953,0.762,-30.327,-6.317,-86.135,
39894970,-0.981,-0.719,0.77,0.315,20.02,-78.54,
39894980,-1.28,-1.097,0.893,-14.157,33.39,-45.412,
39894990,-1.108,-1.388,1.062,-15.89,33.967,-5.075,
39895000,-0.799,-1.245,1.157,-3.307,34.755,20.317,
39895010,-0.569,-1.313,1.1,4.917,47.407,24.29,
39895020,-0.536,-1.525,0.968,18.217,59.832,7.892,
39895030,-0.68,-1.407,0.819,33.25,60.97,-21.402,
39895040,-0.835,-1.083,0.758,39.007,55.807,-43.75,
39895050,-0.907,-0.851,0.753,31.482,50.505,-43.522,
39895060,-0.634,-0.617,0.879,30.922,50.575,-21.017,
39895070,1.367,-0.671,1.583,62.895,94.762,3.57,
39895080,1.785,-1.239,0.689,158.305,110.407,-33.005,
39895090,0.21,-0.847,0.686,116.27,112.752,-74.567,
39895100,-0.967,-0.401,0.724,48.545,67.935,-36.137,
39895110,-0.077,-0.253,0.679,35.472,26.775,55.055,
39895120,0.898,-0.48,0.788,33.53,34.825,77.017,
39895130,0.98,-0.334,0.886,48.422,59.885,33.285,
39895140,0.9,-0.282,1.06,84.822,85.907,-41.807,
39895150,0.78,-0.472,1.129,120.785,96.232,-133.857,
39895160,0.401,-0.495,0.978,156.642,86.537,-204.085,
39895170,0.12,-0.353,0.836,187.88,69.475,-249.812,
39895170,-0.239,-0.319,0.638,200.9,47.565,-262.972,
39895190,-0.494,-0.267,0.463,194.215,28.297,-242.305,
39895190,-0.751,-0.212,0.343,177.835,10.5,-202.072,
39895210,-0.893,-0.147,0.238,155.4,-6.3,-147.07,
39895210,-0.842,-0.078,0.19,127.802,-15.697,-80.202,
39895230,-0.759,-0.08,0.181,97.335,-17.78,-11.76,
39895230,-0.662,-0.162,0.231,70.035,-16.695,49.665,
39895250,-0.521,-0.301,0.296,51.03,-15.715,101.097,
39895250,-0.41,-0.434,0.272,38.972,-22.872,138.967,
39895260,-0.213,-0.51,0.19,28.682,-34.65,159.565,
39895270,0.034,-0.539,0.151,15.592,-39.41,166.18,
39895280,0.165,-0.62,0.188,1.365,-35.122,165.06,
39895290,0.31,-0.652,0.367,-8.295,-26.162,153.177,
39895300,0.377,-0.687,0.698,-18.48,-16.135,132.23,
39895310,0.29,-0.756,1.013,-32.077,-11.637,100.66,
39895320,0.059,-0.789,1.313,-37.537,-13.16,65.782,
39895330,-0.17,-1.048,1.484,-32.672,-20.702,32.567,
39895340,-0.328,-0.721,1.751,-40.442,-23.432,-0.77,
39895350,-0.51,-0.838,1.952,-12.18,-18.182,13.387,
39895360,-0.578,-0.892,1.998,-7.42,-9.397,30.222,
39895370,-0.564,-1.084,1.998,7.332,-5.25,43.68,
39895380,-0.647,-1.082,1.974,32.497,-14.49,50.295,
39895390,-0.542,-1.037,1.772,33.617,-21.945,62.877,
39895400,-0.307,-1.196,1.696,20.667,-15.382,69.195,
39895410,-0.314,-1.311,1.71,15.785,-2.52,63.192,
39895420,-0.403,-1.272,1.68,16.66,0.98,44.135,
39895430,-0.636,-1.198,1.493,19.057,-9.17,29.977,
39895440,-0.702,-1.102,1.249,18.007,-22.172,31.85,
39895450,-0.671,-1.035,1.082,10.255,-24.71,50.312,
39895460,-0.637,-1.06,1.019,-4.515,-18.97,78.697,
39895470,-0.469,-1.116,1.017,-14.577,-12.635,103.582,
39895480,-0.174,-1.107,0.977,-14.507,-5.355,118.3,
39895490,0.109,-1.044,0.902,-7.262,4.532,120.12,
39895500,0.282,-0.925,0.779,-2.205,9.065,105.472,
39895510,0.36,-0.803,0.644,0.035,5.722,81.69,
39895520,0.402,-0.662,0.514,0.192,-2.852,55.247,
39895530,0.358,-0.509,0.393,-1.645,-10.57,33.215,
39895530,0.244,-0.369,0.278,-4.427,-20.072,19.582,
39895550,0.224,-0.257,0.192,-10.027,-29.382,14.315,
39895550,0.293,-0.183,0.173,-15.872,-33.705,15.767,
39895570,0.3,-0.166,0.221,-24.272,-28.892,18.83,
39895570,0.271,-0.164,0.273,-26.337,-23.152,16.782,
39895580,0.239,-0.117,0.315,-22.89,-21,6.265,
39895590,0.214,-0.091,0.344,-19.687,-18.672,-6.3,
39895600,0.199,-0.142,0.351,-17.57,-12.547,-17.412,
39895610,0.248,-0.178,0.363,-15.767,-6.072,-31.692,
39895620,0.408,-0.258,0.434,-16.31,4.55,-51.747,
39895630,0.376,-0.405,0.505,-18.812,12.32,-87.185,
39895640,0.129,-0.458,0.493,-16.065,15.47,-129.832,
39895650,-0.079,-0.392,0.441,-14.332,19.46,-155.89,
39895660,-0.318,-0.382,0.355,-26.845,26.407,-161.507,
39895670,-0.516,-0.421,0.249,-46.515,33.355,-150.832,
39895680,-0.466,-0.373,0.213,-63.98,46.655,-120.365,
39895690,-0.322,-0.427,0.242,-87.692,65.205,-80.972,
39895700,-0.146,-0.63,0.308,-112.98,87.78,-46.27,
39895710,0.037,-0.825,0.301,-119.385,116.637,-24.727,
39895720,0.048,-0.847,0.295,-108.045,145.705,-18.777,
39895730,-0.153,-0.786,0.278,-94.64,165.882,-16.45,
39895740,-0.415,-0.83,0.256,-86.38,165.217,-13.142,
39895750,-0.592,-0.922,0.236,-74.725,144.707,-0.332,
39895760,-0.651,-0.902,0.176,-62.562,114.625,25.812,
39895770,-0.593,-0.842,0.052,-55.982,85.102,60.2,
39895780,-0.382,-0.829,-0.085,-58.642,62.335,92.032,
39895790,-0.205,-0.899,-0.15,-67.34,49.455,106.4,
39895800,-0.317,-0.881,-0.134,-74.095,34.562,97.632,
39895810,-0.536,-0.767,0.006,-84.472,9.292,84.227,
39895820,-0.631,-0.711,0.27,-98.455,-26.337,74.952,
39895830,-0.605,-0.737,0.568,-98.892,-70.087,68.845,
39895840,-0.418,-0.675,0.676,-69.177,-122.71,57.855,
39895850,-0.203,-0.517,0.71,-25.427,-154.857,45.71,
39895860,-0.11,-0.454,0.748,6.142,-158.182,32.112,
39895870,-0.115,-0.541,0.807,26.477,-137.025,25.515,
39895880,-0.15,-0.766,0.88,42.805,-113.61,17.272,
39895890,-0.2,-0.632,1.047,43.137,-91.315,-6.037,
39895900,-0.025,-0.675,1.123,113.767,-83.247,-6.335,
39895910,0.288,-0.953,1.29,111.247,-46.76,-12.915,
39895920,0.48,-1.358,1.377,111.492,1.575,-34.195,
39895920,0.551,-1.318,1.141,140.577,37.327,-70.14,
39895940,0.644,-1.227,0.716,147.665,61.95,-112.297,
39895940,0.795,-1.251,0.456,145.635,67.865,-157.885,
39895960,0.958,-1.058,0.314,135.852,67.322,-212.555,
39895960,0.797,-0.925,0.218,117.302,78.697,-267.505,
39895980,0.508,-0.599,-0.193,105.892,92.68,-304.605,
39895980,0.2,-0.236,-0.262,72.992,114.992,-318.955,
39896000,-0.131,-0.129,-0.188,23.765,135.222,-303.292,
39896000,-0.318,-0.071,0.01,-1.767,143.972,-264.512,
39896010,-0.313,0.047,-0.004,-3.955,128.607,-194.722,
39896020,0.384,0.565,-0.213,13.947,106.12,-136.535,
39896030,0.769,-0.714,1.672,10.815,377.877,15.715,
39896040,-1.761,-1.998,-0.877,403.707,275.362,202.72,
39896050,0.346,0.508,0.616,438.847,11.497,156.275,
39896060,-1.624,1.856,1.661,322.892,-11.865,223.387,
39896070,-1.808,-1.298,1.081,342.422,-99.837,173.617,
39896080,-0.603,0.062,1.202,319.76,-154.752,71.487,
39896090,-0.992,-0.082,1.163,313.792,-174.51,-49.822,
39896100,0.516,0.316,1.388,250.88,-184.467,-78.82,
39896110,1.165,0.446,1.3,172.182,-141.4,-49.297,
39896120,0.658,0.469,1.093,81.935,-65.747,5.915,
39896130,0.079,0.089,1.074,3.937,-7.682,23.38,
39896140,-0.018,-0.031,1.036,-21.052,15.82,-1.19,
39896150,0.113,-0.12,1.04,-39.252,30.905,-18.392,
39896160,-0.017,-0.094,1.041,-58.905,46.567,-13.982,
39896170,-0.216,-0.07,1.078,-83.265,57.207,-7.087,
39896180,-0.367,-0.327,0.995,-96.6,57.557,-9.905,
39896190,-0.322,-0.163,1.102,-125.982,56.682,-15.855,
39896200,-0.317,-0.176,1.128,-144.602,50.4,-27.475,
39896210,-0.271,-0.162,1.169,-169.085,40.757,-35.665,
39896220,-0.315,-0.197,1.14,-203.157,31.29,-39.48,
39896230,-0.297,-0.204,1.086,-233.922,26.617,-45.832,
39896240,-0.298,-0.225,1.012,-258.055,26.67,-51.38,
39896250,-0.269,-0.372,0.989,-261.625,22.592,-63.192,
39896260,-0.23,-0.119,0.895,-241.85,10.307,-55.23,
39896260,-0.106,-0.333,1.111,-273.735,8.645,-56.98,
39896280,-0.083,-0.574,1.595,-293.527,11.287,-53.305,
39896280,0.021,-0.939,1.708,-296.17,35.192,-44.187,
39896300,-0.472,-1.095,1.558,-241.22,38.272,-10.167,
39896300,-0.331,-0.593,1.479,-185.99,4.882,6.16,
39896320,0.04,-0.048,1.88,-167.072,7.98,30.642,
39896320,0.775,1.051,1.948,-94.517,1.505,39.322,
39896330,0.544,1.661,1.822,67.742,4.042,-3.692,
39896340,-0.796,1.994,1.81,226.572,-67.34,-54.11,
39896350,-0.871,1.734,1.503,274.102,-43.225,-36.855,
39896360,-1.086,1.143,0.689,333.007,-82.6,44.8,
39896370,-0.633,0.832,-1.253,397.81,-94.325,128.467,
39896380,-0.214,0.638,-1.982,402.167,-79.502,182,
39896390,-0.092,0.075,-1.243,190.522,-22.487,184.275,
39896400,-0.61,-1.278,-0.6,-51.852,38.272,232.802,
39896410,-0.414,-1.998,-0.361,-73.5,15.942,276.325,
39896420,0.944,-1.983,-1.077,1.715,-20.212,268.38,
39896430,-0.041,-1.998,0.399,-42.77,110.775,221.602,
39896440,-1.998,-1.916,-1.581,232.487,-81.935,262.202,
39896450,1.015,1.873,1.866,471.975,-231.752,190.75,
39896460,-0.566,1.143,1.363,224.332,-118.037,234.867,
39896470,-1.421,-1.429,1.469,165.83,-169.12,83.387,
39896480,-0.291,0.391,1.208,254.625,-218.33,-34.457,
39896490,1.877,1.473,1.094,116.9,-161.857,-76.195,
39896500,0.723,-0.197,1.073,4.357,-44.1,-27.72,
39896510,-0.115,-0.285,0.977,-6.632,10.307,-0.052,
39896520,-0.122,-0.235,0.976,-10.062,17.885,-2.992,
39896530,-0.296,-0.32,0.962,-4.497,17.972,-11.427,
39896540,-0.203,-0.196,0.966,1.837,11.462,-11.777,
39896550,-0.097,-0.09,0.979,-1.365,10.71,-6.702,
39896560,-0.191,-0.185,0.973,-9.817,13.65,-1.907,
39896570,-0.216,-0.177,0.97,-12.757,13.142,-0.105,
39896580,-0.148,-0.07,1.007,-16.8,12.53,-0.367,
39896590,-0.214,-0.037,0.99,-28.682,17.22,-3.535,
39896600,-0.214,-0.027,1.058,-46.952,21.245,-4.917,
39896610,-0.182,0.059,1.178,-72.555,25.865,-14.542,
39896620,-0.397,-0.002,1.152,-103.022,28.402,-32.112,
39896630,-0.059,-0.378,1.18,-136.307,25.76,-44.607,
39896640,-0.042,-0.16,1.2,-166.652,43.96,-52.622,
39896650,-0.222,-0.064,1.163,-189.052,51.852,-61.075,
39896660,-0.21,-0.182,1.043,-201.547,45.027,-56.612,
39896670,-0.231,-0.297,1.046,-211.487,43.925,-46.585,
39896670,-0.359,-0.441,1.047,-220.185,42.227,-41.23,
39896690,-0.43,-0.551,1.139,-213.955,36.312,-49.577,
39896690,-0.407,-0.322,1.543,-197.26,42.507,-57.82,
39896710,-0.26,0.045,0.706,-176.732,41.842,-66.972,
39896710,-0.935,-1.315,0.407,-99.33,9.957,-75.337,
39896730,-0.514,-1.188,0.637,-90.492,3.832,-44.1,
39896730,-0.188,-0.398,0.755,-33.337,-42.682,-12.11,
39896750,-0.26,-1.015,0.811,-17.535,-56.595,14.35,
39896750,-1.171,-0.289,0.53,6.72,-75.25,65.31,
39896760,-0.947,0.135,0.003,48.405,-121.555,110.6,
39896770,-0.774,0.672,0.04,30.45,-129.465,196.595,
39896780,-0.393,0.216,-0.255,0.927,-116.76,311.885,
39896790,0.136,0.187,-0.553,-1.837,-116.077,408.712,
39896800,1.053,0.487,-0.727,-3.185,-84.875,433.16,
39896810,1.733,0.906,-0.311,-47.88,-30.625,384.37,
39896820,1.76,-0.574,0.16,-99.767,-4.2,286.125,
39896830,0.155,-1.998,0.326,-29.697,-30.292,123.042,
39896840,-1.998,-1.302,-0.578,429.152,-125.457,156.047,
39896850,1.081,1.995,1.462,287.56,-114.992,178.675,
39896860,-0.974,0.538,1.53,238.857,-108.587,171.955,
39896870,-1.108,-0.774,1.461,316.19,-155.907,77.157,
39896880,-1.029,0.2,1.787,292.477,-182.63,4.97,
39896890,1.249,1.384,1.277,192.815,-171.675,-41.772,
39896900,1.178,0.445,1.064,43.855,-69.422,-27.667,
39896910,0.322,0.07,1.023,-10.815,21.612,-17.762,
39896920,-0.079,-0.291,0.976,-25.042,53.287,-25.742,
39896930,-0.203,-0.385,0.967,-25.497,57.242,-22.365,
39896940,-0.418,-0.246,0.932,-15.89,51.712,-15.33,
39896950,-0.505,-0.295,0.933,-15.032,38.657,-13.125,
39896960,-0.382,-0.196,0.945,-6.79,21.7,-19.477,
39896970,-0.264,-0.208,0.957,-9.17,11.147,-19.652,
39896980,-0.239,-0.151,0.99,-12.075,4.742,-14.227,
39896990,-0.307,0.017,1.04,-23.992,5.005,-13.982,
39897000,-0.361,-0.073,1.037,-45.097,6.422,-24.325,
39897010,-0.099,-0.084,1.046,-72.712,12.442,-46.917,
39897010,0.124,0.196,1.364,-110.32,31.902,-62.177,
39897030,-0.262,-0.281,1.132,-145.53,35.752,-44.87,
39897030,-0.753,-0.446,1.034,-175.84,25.06,-49.42,
39897050,-0.58,-0.291,1.087,-184.52,14.385,-89.04,
39897050,-0.477,-0.371,1.125,-194.285,3.902,-128.747,
39897070,-0.557,-0.596,1.158,-197.295,-4.2,-140.927,
39897070,-0.362,-0.486,1.111,-185.517,7.14,-142.152,
39897080,-0.543,-0.427,0.869,-164.85,23.537,-142.625,
39897090,-1.043,-0.916,0.765,-126.665,22.067,-147.017,
39897100,-1.002,-1.092,0.651,-99.662,-0.28,-158.305,
39897110,0.196,-1.708,0.867,-64.277,17.675,-149.572,
39897120,-1.764,-1.882,-0.18,-4.812,91.525,-57.837,
39897130,-1.998,-0.347,0,23.992,-7.805,-59.657,
39897140,-1.998,0.328,-0.432,-45.71,3.412,30.117,
39897150,-0.629,0.545,-0.673,-27.405,13.405,266.997,
39897160,1.013,0.5,-0.189,-7.7,116.025,381.64,
39897170,1.557,0.413,0.408,-32.06,160.335,327.792,
39897180,1.145,1.181,0.304,-45.5,132.702,161.332,
39897190,0.755,1.503,-0.082,-6.895,95.69,60.2,
39897200,0.439,1.336,-0.115,29.575,68.25,4.742,
39897210,0.253,-1.621,0.775,78.592,-72.957,-118.02,
39897220,0.53,-1.998,-0.998,277.497,-254.117,-295.802,
39897230,-0.65,0.249,1.488,475.195,-145.565,-141.942,
39897240,1.998,1.997,1.572,443.24,-139.685,17.535,
39897250,-1.091,-0.874,1.967,376.425,-120.785,91.56,
39897260,-0.383,0.848,1.356,236.302,-184.38,82.827,
39897270,1.426,0.651,0.784,82.967,-156.73,-12.057,
39897280,1.517,0.165,1.035,-44.257,-39.375,-48.597,
39897290,0.105,-0.508,0.946,-35.56,36.435,-11.112,
39897300,-0.248,-0.655,1.01,-51.712,56.507,8.802,
39897310,-0.478,-0.369,0.909,-26.53,43.067,-2.31,
39897320,-0.527,-0.523,0.937,-8.47,21.42,-6.58,
39897330,-0.287,-0.223,0.96,10.762,0.297,-6.422,
39897340,-0.252,-0.115,0.985,8.452,-8.837,-1.19,
39897350,-0.105,-0.158,0.982,3.237,-12.355,2.607,
39897360,-0.016,-0.022,0.991,-6.51,-5.705,5.267,
39897370,-0.004,-0.082,1.006,-18.795,-1.12,11.795,
39897380,-0.033,-0.056,1.02,-31.92,7.297,19.792,
39897390,0.012,-0.058,1.055,-49.7,14.875,28.437,
39897400,-0.038,-0.066,1.115,-74.06,22.05,35.805,
39897410,-0.1,-0.111,1.155,-99.505,25.532,40.74,
39897420,-0.156,-0.265,1.119,-119.542,20.93,42.017,
39897420,-0.082,-0.172,1.152,-126.49,9.94,39.777,
39897440,-0.022,-0.244,1.045,-143.482,13.09,31.465,
39897440,-0.163,-0.315,1.048,-168.875,30.572,10.675,
39897460,-0.238,-0.358,0.962,-162.785,34.177,-3.517,
39897460,-0.123,-0.543,1.008,-150.517,45.115,-9.502,
39897480,-0.069,-0.727,1.083,-135.555,67.2,-5.81,
39897480,-0.173,-1.437,1.194,-102.935,86.327,11.2,
39897500,-0.24,-1.894,1.322,-42.787,89.197,18.795,
39897500,-0.167,-1.844,0.878,48.982,49.822,28.927,
39897510,0.387,-1.748,-0.948,144.13,1.54,59.01,
39897520,1.228,-1.011,-0.875,110.267,-1.925,-2.082,
39897530,0.016,-1.21,-0.237,-1.592,38.395,-62.142,
39897540,-0.614,-1.691,-0.11,-53.69,28.892,-91.157,
39897550,-0.257,-0.922,-0.179,-56.98,-13.79,-93.537,
39897560,-0.153,-0.327,-0.315,-88.62,-39.532,-75.897,
39897570,-0.492,0.152,-0.866,-121.782,-52.815,-52.36,
39897580,-0.01,1.405,1.606,-149.957,-43.68,-69.492,
39897590,-1.989,1.95,1.092,-27.37,12.757,22.172,
39897600,1.222,1.734,0.741,480.077,-62.737,189.927,
39897610,-1.393,-1.893,1.625,295.82,-26.915,227.412,
39897620,-1.421,0.38,1.552,357.315,-105,117.827,
39897630,-1.856,0.804,1.187,306.057,-150.64,56.087,
39897640,1.478,1.374,1.245,92.33,-150.692,-12.46,
39897650,0.947,0.501,1.011,25.847,-70.927,-42.315,
39897660,0.56,-0.293,1.055,-40.495,1.225,-13.002,
39897670,0.008,-0.393,0.984,-42.455,30.485,-5.232,
39897680,-0.284,-0.404,0.938,-34.3,34.177,6.44,
39897690,-0.545,-0.408,0.926,-22.207,22.907,12.215,
39897700,-0.328,-0.211,0.956,-3.377,3.587,1.872,
39897710,-0.139,-0.183,0.968,1.172,-5.232,-4.147,
39897720,-0.113,-0.217,0.96,-1.977,-6.317,2.537,
39897730,-0.122,-0.198,0.971,2.73,-5.967,7.735,
39897740,-0.065,-0.12,0.992,-0.892,-4.182,8.452,
39897750,-0.082,-0.125,0.98,-10.43,1.085,8.575,
39897760,-0.099,-0.115,0.993,-14.385,4.62,9.712,
39897760,-0.107,-0.085,0.998,-21.542,8.557,9.992,
39897780,-0.093,-0.109,1.012,-33.862,12.582,11.357,
39897780,-0.106,-0.121,1.034,-46.69,17.552,13.177,
39897800,-0.104,-0.147,1.069,-62.842,21.752,14.63,
39897800,-0.165,-0.044,1.138,-81.025,24.517,15.417,
39897820,-0.148,-0.112,1.151,-101.517,20.142,19.582,
39897820,-0.033,-0.174,1.169,-116.567,11.165,23.537,
39897830,-0.174,-0.067,1.117,-143.325,10.115,23.572,
39897840,-0.335,-0.2,1.046,-172.007,11.305,16.905,
39897850,-0.317,-0.298,1.025,-186.935,8.907,4.497,
39897860,-0.36,-0.432,1.002,-196.297,12.355,-8.627,
39897870,-0.44,-0.538,1.013,-191.205,10.465,-21.682,
39897880,-0.42,-0.72,0.941,-181.212,-0.49,-28.035,
39897890,-0.207,-0.951,1.017,-160.737,4.042,-31.552,
39897900,-0.238,-1.071,1.208,-118.37,11.112,-35.402,
39897910,-0.082,-1.534,1.124,-56.262,20.755,-33.985,
39897920,-1.255,-1.996,-0.033,7.49,44.677,7.472,
39897930,-1.473,-1.171,0.067,62.265,13.335,33.81,
39897940,-0.687,-0.28,-0.031,60.795,17.815,98.857,
39897950,-0.377,-0.17,-0.347,45.482,14.542,180.81,
39897960,0.389,0.035,-1.245,57.015,16.31,230.265,
39897970,1.085,0.293,-0.99,14.21,38.832,241.78,
39897980,0.981,-0.06,-0.548,-87.517,45.71,208.722,
39897990,0.898,0.075,-0.653,-106.435,-1.977,164.045,
39898000,1.052,0.014,1.285,-93.415,-78.645,99.015,
39898010,0.618,-1.24,1.654,56.192,-120.75,110.915,
39898020,-1.998,-0.21,-0.581,493.605,-197.627,130.06,
39898030,0.802,-1.459,1.958,345.572,-170.765,178.832,
39898040,-1.354,0.967,1.919,341.81,-180.565,154.962,
39898050,-0.502,0.74,1.403,264.985,-230.475,65.275,
39898060,1.531,1.206,0.961,92.312,-178.71,-21.7,
39898070,1.241,0.428,1.042,-19.827,-44.712,-38.57,
39898080,0.596,-0.52,1.081,-63.297,29.785,-12.845,
39898090,-0.467,-0.468,0.947,-55.58,56.14,-4.182,
39898100,-0.762,-0.699,0.876,-29.627,37.397,-9.012,
39898110,-0.551,-0.411,0.911,6.545,6.545,-23.38,
39898120,0.064,-0.103,1,26.057,-12.792,-30.502,
39898130,-0.012,-0.122,0.971,17.587,-6.335,-10.255,
39898140,-0.307,-0.192,0.981,8.942,-1.697,2.1,
39898150,-0.078,-0.021,0.995,7.577,-4.567,-1.872,
39898160,-0.068,-0.03,0.997,-8.452,0.157,-3.972,
39898170,-0.063,-0.041,1.027,-20.195,6.212,-3.272,
39898170,-0.103,-0.037,1.037,-33.932,11.305,-2.537,
39898180,-0.191,-0.144,1.046,-50.767,13.51,-0.227,
39898190,-0.253,-0.134,1.076,-62.72,9.502,-1.89,
39898200,-0.317,-0.138,1.123,-79.082,0.63,-5.932,
39898210,-0.242,-0.133,1.161,-97.545,-11.847,-13.597,
39898220,-0.271,-0.147,1.115,-121.1,-20.16,-23.17,
39898230,-0.293,-0.251,1.13,-145.845,-27.265,-29.242,
39898240,-0.301,-0.255,1.052,-162.872,-34.58,-35.945,
39898250,-0.324,-0.281,1.043,-176.19,-38.972,-41.685,
39898260,-0.36,-0.359,1.095,-183.032,-43.015,-51.572,
39898270,-0.424,-0.446,1.103,-175.297,-53.672,-67.69,
39898280,-0.369,-0.477,1.007,-165.742,-53.725,-85.872,
39898290,-0.445,-0.772,1.253,-159.565,-40.81,-101.902,
39898300,-0.239,-0.884,0.671,-103.565,-32.83,-111.632,
39898310,-0.468,-1.039,0.357,-57.907,-22.925,-128.187,
39898320,0.404,-1.253,0.9,-53.357,21.752,-139.212,
39898330,-1.131,-1.087,1.153,-14.56,125.825,-60.042,
39898340,-1.998,-0.055,0.099,30.52,36.277,-8.382,
39898350,-1.962,0.381,-0.083,21.035,-43.82,58.152,
39898360,-0.847,-0.472,-0.749,23.432,-22.592,240.45,
39898370,0.268,-0.446,-0.745,40.25,66.885,320.862,
39898380,0.569,0.374,-0.726,5.775,129.535,320.005,
39898390,0.971,0.733,-0.697,-40.372,131.792,301.927,
39898400,1.126,0.474,-0.751,-91.84,118.055,281.452,
39898410,-0.168,-1.462,0.673,-109.812,-31.01,198.642,
39898420,1.848,-1.998,0.179,67.707,-140.385,-9.1,
39898430,-1.944,0.141,-0.055,459.76,-71.977,54.267,
39898440,1.059,1.612,1.911,291.357,-75.565,161.525,
39898450,-0.736,-0.108,1.738,343.35,-107.905,205.765,
39898460,-1.516,0.019,1.451,260.89,-141.155,151.41,
39898470,0.421,1.531,1.06,168.84,-164.797,24.745,
39898480,1.643,0.474,1.085,43.225,-100.642,-61.705,
39898490,1.035,-0.065,1.015,-17.937,-9.642,-52.237,
39898500,-0.003,-0.491,0.983,-47.197,40.967,-22.26,
39898510,-0.392,-0.456,0.967,-26.827,43.05,-13.16,
39898510,-0.414,-0.254,0.94,-5.39,30.747,-21.822,
39898530,-0.3,-0.291,0.957,-6.055,18.287,-27.055,
39898530,-0.166,-0.162,0.966,3.255,8.4,-20.58,
39898550,-0.233,-0.171,0.97,-1.19,6.387,-9.485,
39898550,-0.201,-0.098,0.993,-4.9,3.29,-4.392,
39898570,-0.169,-0.032,1.014,-14.21,3.815,-5.757,
39898570,-0.139,-0.056,1.055,-30.94,5.635,-8.12,
39898580,-0.117,-0.038,1.091,-49.647,7.927,-7.98,
39898590,-0.162,-0.08,1.127,-72.117,8.417,-11.112,
39898600,-0.225,-0.111,1.147,-93.66,4.165,-20.65,
39898610,-0.183,-0.212,1.145,-116.357,-3.99,-31.29,
39898620,0.001,-0.095,1.132,-142.327,-3.657,-41.93,
39898630,-0.183,-0.169,1.064,-167.212,1.575,-47.092,
39898640,-0.317,-0.438,0.994,-184.152,1.4,-46.83,
39898650,-0.243,-0.425,0.989,-195.247,6.177,-51.257,
39898660,-0.393,-0.368,0.966,-194.495,4.13,-65.222,
39898670,-0.504,-0.423,1.074,-188.58,-0.297,-88.27,
39898680,-0.312,-0.544,0.878,-176.907,0.77,-114.712,
39898690,-0.549,-1.104,0.695,-151.41,26.792,-135.66,
39898700,-0.433,-1.383,0.843,-122.727,53.987,-170.03,
39898710,-0.509,-1.258,0.742,-77.455,65.275,-189.647,
39898720,-0.846,-1.281,0.431,-39.987,106.137,-189.437,
39898730,-1.924,-1.179,0.637,-10.43,119.192,-150.307,
39898740,-1.793,-1.273,-0.272,9.765,95.882,-81.095,
39898750,-1.838,-0.32,-0.032,26.53,40.722,-12.302,
39898760,-1.645,-0.03,-0.383,-20.72,48.947,74.917,
39898770,-1.349,0.039,-0.28,-49.822,65.8,192.202,
39898780,-0.059,0.461,-0.564,-45.71,115.08,295.015,
39898790,1.609,0.96,-0.984,-0.455,206.395,383.722,
39898800,1.939,1.365,-1.022,27.107,264.967,396.357,
39898810,0.5,-0.191,0.009,-57.225,183.89,247.03,
39898820,1.951,-1.952,1.658,-89.967,-214.76,-49.455,
39898830,-1.441,-1.842,-1.85,421.172,-366.712,-86.677,
39898840,-0.035,1.528,1.393,371.245,-246.435,26.53,
39898850,1.751,1.839,1.953,402.587,-231.49,115.185,
39898850,-1.915,-0.704,1.863,377.405,-180.67,78.767,
39898870,0.148,1.446,1.378,258.037,-204.54,38.097,
39898870,1.599,1.29,0.974,106.645,-155.102,-39.427,
39898890,1.207,0.006,1.027,-25.182,-32.83,-50.225,
39898890,0.273,-0.528,0.98,-60.322,43.26,-18.62,
39898910,-0.099,-0.4,0.968,-55.615,60.217,-2.065,
39898910,-0.44,-0.357,0.944,-36.225,56.927,1.942,
39898920,-0.665,-0.406,0.921,-23.03,39.812,-9.135,
39898930,-0.163,-0.215,0.958,-6.212,17.342,-19.18,
39898940,-0.128,-0.148,0.983,-6.527,14,-9.467,
39898950,-0.124,-0.083,1.014,-16.957,16.31,2.362,
39898960,-0.2,0.011,1.055,-34.317,21.297,8.085,
39898970,-0.213,-0.021,1.106,-60.287,24.08,7.7,
39898980,-0.166,-0.065,1.156,-87.762,22.995,5.81,
39898990,-0.06,-0.052,1.181,-116.83,24.675,5.407,
39899000,-0.108,-0.096,1.143,-151.042,29.295,5.635,
39899010,-0.164,-0.131,1.106,-177.31,31.062,5.547,
39899020,-0.275,-0.136,1.045,-196.735,30.047,0.787,
39899030,-0.253,-0.206,0.991,-214.095,27.772,-6.37,
39899040,-0.265,-0.32,0.969,-223.597,25.987,-17.85,
39899050,-0.345,-0.335,0.952,-226.485,20.475,-32.34,
39899060,-0.346,-0.389,0.932,-236.425,10.045,-50.242,
39899070,-0.287,-0.447,1.088,-233.747,8.137,-67.427,
39899080,-0.179,-0.384,1.304,-252.192,32.987,-87.045,
39899090,-0.397,-0.677,1.452,-254.992,71.277,-102.532,
39899100,-0.848,-0.863,1.511,-223.055,93.03,-111.09,
39899110,-1.013,-1.059,1.388,-172.077,97.545,-125.475,
39899120,-0.406,-0.464,1.602,-116.042,95.235,-142.625,
39899130,0.785,0.969,1.943,-82.477,207.27,-143.342,
39899140,0.456,1.473,1.342,72.485,281.015,-202.737,
39899150,-1.973,1.954,0.916,237.842,114.747,-328.615,
39899160,-1.619,1.997,0.296,266.91,146.51,-283.535,
39899170,-0.845,1.899,-0.121,314.055,147.297,-115.85,
39899180,-0.588,1.506,0.033,320.845,159.092,1.347,
39899190,0.362,0.845,-1.029,311.097,133.175,66.325,
39899200,1.79,0.124,-0.93,296.747,177.625,115.92,
39899210,1.63,-0.779,-0.33,183.715,162.19,92.505,
39899220,1.108,-1.733,0.142,83.405,53.217,-20.702,
39899230,1.663,-1.998,-0.461,82.022,-184.275,-270.97,
39899240,-1.967,-0.397,-0.725,520.467,-34.842,30.625,
39899250,1.504,1.997,1.858,309.522,-168.542,150.657,
39899260,0.411,1.643,1.91,245.227,-135.082,229.407,
39899260,-1.119,-1.02,1.24,186.567,-166.005,45.955,
39899280,1.623,1.497,1.289,112.63,-184.537,-23.152,
39899280,1.086,-0.028,1.057,28.122,-86.572,-83.107,
39899300,0.718,-0.115,0.992,-4.672,-5.915,-26.757,
39899300,-0.162,-0.258,0.994,-26.39,38.01,4.777,
39899320,-0.484,-0.224,0.962,-22.907,35.612,5.04,
39899320,-0.46,-0.25,0.949,-18.112,21.105,-7.455,
39899330,-0.333,-0.227,0.954,-12.11,5.285,-17.272,
39899340,-0.042,-0.188,0.98,-7.227,-3.342,-14.315,
39899350,-0.157,-0.187,0.968,-10.29,-1.015,-2.782,
39899360,-0.158,-0.093,0.996,-14.105,0.42,4.357,
39899370,-0.059,0.052,1.032,-25.217,4.305,5.32,
39899380,-0.08,-0.056,1.077,-44.292,13.405,8.89,
39899390,-0.086,0.034,1.133,-67.217,22.12,10.517,
39899400,-0.131,-0.114,1.153,-102.637,28.63,11.427,
39899410,-0.002,-0.019,1.174,-134.137,33.652,17.552,
39899420,-0.055,-0.061,1.149,-166.652,42.875,26.967,
39899430,-0.137,0.049,1.164,-198.537,47.285,32.777,
39899440,-0.158,-0.036,1.136,-223.3,42.945,36.172,
39899450,-0.216,-0.203,1.088,-248.115,39.287,32.392,
39899460,-0.269,-0.325,1.075,-265.457,33.04,30.222,
39899470,-0.254,-0.482,1.053,-269.097,30.45,22.067,
39899480,-0.556,-0.442,1.281,-268.852,18.55,13.65,
39899490,-0.643,-0.461,1.458,-253.47,-34.317,3.482,
39899500,-0.413,-0.622,1.467,-243.705,-97.177,15.015,
39899510,-0.108,-1.11,1.54,-187.827,-116.672,46.637,
39899520,0.65,-1.39,1.998,-156.292,-109.515,52.027,
39899530,1.936,-0.868,1.558,-88.445,-48.912,16.642,
39899540,0.154,0.319,0.123,81.2,-1.347,-45.692,
39899550,-1.211,0.863,-0.015,98.595,10.92,-126.962,
39899560,-1.237,0.728,-0.223,55.422,33.25,-118.947,
39899570,-0.894,1.361,-1.075,105.052,21.56,-68.565,
39899580,-0.361,1.801,-0.968,121.8,46.217,-52.605,
39899580,-0.505,0.89,-0.372,53.83,85.662,-37.31,
39899600,-0.558,0.352,-0.212,39.865,90.422,-14.665,
39899600,-0.377,0.473,-0.351,83.335,59.5,25.97,
39899620,-0.141,0.095,-0.429,89.827,18.9,61.25,
39899620,0.448,0.046,-0.656,69.667,-5.67,94.64,
39899640,1.284,-1.711,0.362,62.16,160.93,100.415,
39899640,-1.998,-0.73,0.545,414.05,-69.632,68.897,
39899660,1.019,1.997,0.89,341.477,-95.025,156.362,
39899660,-0.869,-0.394,1.85,299.967,-90.632,215.337,
39899670,-1.255,-0.544,1.288,300.265,-147.542,67.112,
39899680,-1.145,0.237,1.459,277.602,-189.63,4.48,
39899690,1.653,1.426,1.22,164.5,-166.722,-44.537,
39899700,1.141,0.549,1.049,42.437,-64.697,-36.872,
39899710,0.175,-0.212,1.013,-29.995,12.215,-9.485,
39899720,-0.186,-0.406,0.972,-36.732,30.747,-4.147,
39899730,-0.243,-0.272,0.953,-23.765,26.267,-11.445,
39899740,-0.196,-0.22,0.968,-18.777,22.925,-13.825,
39899750,-0.246,-0.191,0.96,-16.992,20.23,-9.555,
39899760,-0.289,-0.226,0.946,-17.64,14.822,-5.512,
39899770,-0.234,-0.254,0.954,-15.347,7.157,-0.98,
39899780,-0.158,-0.118,0.985,-12.005,1.855,6.02,
39899790,-0.147,-0.041,1.017,-22.382,3.097,11.182,
39899800,-0.155,-0.042,1.042,-41.037,6.877,13.86,
39899810,-0.143,-0.023,1.077,-59.377,10.797,14.892,
39899820,-0.212,-0.194,1.078,-79.555,12.197,11.375,
39899830,-0.1,-0.089,1.145,-102.585,12.127,6.562,
39899840,-0.065,-0.114,1.132,-128.59,13.282,4.077,
39899850,-0.087,-0.211,1.115,-152.757,15.417,3.115,
39899860,-0.13,-0.207,1.037,-170.66,17.902,1.4,
39899870,-0.18,-0.266,0.983,-186.97,23.52,0.595,
39899880,-0.23,-0.31,0.983,-192.605,31.255,-3.815,
39899890,-0.313,-0.422,1.087,-198.537,38.272,-12.862,
39899900,-0.386,-0.658,1.096,-189.875,24.307,-24.115,
39899910,-0.239,-0.915,1.005,-164.377,15.19,-32.795,
39899920,-0.047,-1.399,1.234,-116.777,43.872,-25.375,
39899930,-0.127,-1.924,1.655,-42.21,71.435,-26.652,
39899940,-0.128,-1.876,1.236,21.105,54.302,-39.34,
39899950,0.26,-1.277,0.068,101.36,26.022,-24.587,
39899960,0.335,-0.95,-0.012,113.592,-5.39,-74.13,
39899970,-0.717,-0.762,-0.18,78.75,34.527,-110.18,
39899980,-0.963,-0.442,-0.764,95.725,33.617,-99.662,
39899990,-0.207,-0.151,-0.824,97.947,44.94,-80.675,
