#Format version: 1.0
time[ms],accX[g],accY[g],accZ[g],Value 1,Value 2,Value 3,
60276010,0.915,-0.184,1.246,11.112,-93.467,-125.177,
60276010,1.113,-0.239,1.069,-30.52,-60.812,-80.167,
60276030,1.147,-0.236,0.917,-57.925,-32.462,-16.905,
60276030,0.946,-0.308,0.834,-75.705,-3.622,43.05,
60276050,0.414,-0.351,0.787,-80.675,27.667,77.507,
60276050,0,-0.498,0.715,-71.54,29.767,80.902,
60276070,-0.203,-0.58,0.627,-47.372,18.41,57.715,
60276070,-0.301,-0.706,0.483,-9.59,17.657,13.982,
60276080,-0.171,-0.736,0.45,37.975,14.717,-32.235,
60276090,-0.088,-0.745,0.521,86.345,8.102,-68.792,
60276100,0.128,-0.444,0.883,122.29,-8.68,-86.94,
60276110,0.456,-0.069,1.117,129.027,-28.77,-84.717,
60276120,0.52,-0.006,1.137,107.782,-31.902,-65.257,
60276130,0.481,-0.037,1.108,80.587,-27.335,-43.032,
60276140,0.437,0.044,1.176,54.722,-19.04,-28.665,
60276150,0.393,-0.001,1.116,25.672,-14.157,-15.085,
60276160,0.373,-0.151,1.026,3.01,-8.872,-6.212,
60276170,0.331,-0.25,0.951,-8.75,-7.07,0.787,
60276180,0.322,-0.268,0.95,-12.652,-5.845,7.84,
60276190,0.35,-0.227,1.001,-16.642,-7.14,14.735,
60276200,0.38,-0.154,1.066,-27.86,-4.847,22.75,
60276210,0.371,-0.13,1.128,-47.232,-4.497,31.01,
60276220,0.405,-0.098,1.165,-73.237,-3.955,38.92,
60276230,0.413,-0.119,1.168,-101.15,-7.105,45.255,
60276240,0.62,-0.139,1.128,-128.292,-4.62,49.997,
60276250,0.281,-0.197,1.134,-155.4,15.207,51.152,
60276260,0.482,-0.2,1.026,-171.237,13.51,48.982,
60276270,0.629,-0.309,0.996,-176.785,20.142,46.077,
60276280,0.716,-0.488,0.887,-170.695,34.807,40.845,
60276290,0.772,-0.796,1.132,-157.517,41.982,30.677,
60276300,1.406,-1.491,1.466,-121.467,106.365,30.52,
60276310,0.395,-1.25,1.045,-34.755,176.032,22.155,
60276320,-0.044,-1.086,0.555,22.452,162.435,27.177,
60276330,0.65,-0.841,0.184,58.8,82.722,6.3,
60276340,0.553,-0.358,0.02,71.662,-17.78,-71.907,
60276350,-0.287,0.276,-0.267,62.247,-7.14,-80.78,
60276360,-0.655,0.098,-0.129,15.015,-7.682,-45.92,
60276370,-0.23,-0.143,0.111,-10.815,-18.742,0.035,
60276380,-0.23,-0.154,-0.001,-7.735,-3.062,41.037,
60276390,-0.103,-0.178,-0.098,-2.117,6.282,68.652,
60276400,0.15,-0.373,-0.118,-4.952,12.617,85.61,
60276410,0.226,-0.478,-0.212,-4.952,17.692,94.045,
60276420,0.044,-0.529,-0.123,-12.932,10.745,101.132,
60276420,0.294,-0.363,1.029,-21.122,1.505,128.87,
60276440,-1.853,-1.936,1.553,-3.045,-18.48,194.967,
60276440,-0.255,-0.269,0.71,196.49,-86.432,194.442,
60276460,0.701,0.152,1.639,191.257,-123.042,122.045,
60276460,-0.993,0.385,1.187,204.47,-72.66,37.047,
60276480,-1.662,0.89,1.091,194.81,-63.77,-48.3,
60276480,0.522,-0.221,1.668,134.662,-109.882,-114.712,
60276500,-0.024,0.008,1.227,130.322,-162.995,-214.077,
60276500,1.305,-0.935,0.898,110.022,-202.632,-217.945,
60276510,1.954,-0.076,0.856,108.36,-155.417,-145.932,
60276520,1.72,0.056,1.024,81.76,-59.587,-39.882,
60276530,0.6,0.156,1.132,51.275,22.505,27.265,
60276540,-0.232,-0.17,1.057,22.662,37.327,42.717,
60276550,-0.323,-0.293,0.97,15.172,1.645,16.94,
60276560,0.09,-0.238,0.955,9.52,-25.235,-12.705,
60276570,0.389,-0.256,0.91,9.52,-39.392,-24.062,
60276580,0.517,-0.237,0.884,11.97,-34.072,-21.052,
60276590,0.468,-0.209,0.901,13.352,-23.1,-13.475,
60276600,0.375,-0.156,0.953,11.322,-11.987,-7.665,
60276610,0.347,-0.132,0.975,4.602,-9.17,-5.67,
60276620,0.34,-0.171,0.955,-3.885,-6.545,-4.62,
60276630,0.318,-0.19,0.945,-8.872,-7.35,-5.372,
60276640,0.372,-0.15,0.97,-13.37,-6.02,-6.02,
60276650,0.458,-0.109,0.987,-21.997,-4.515,-3.43,
60276660,0.471,-0.113,1.018,-35.455,4.13,3.955,
60276670,0.432,-0.138,1.087,-51.345,11.147,12.04,
60276680,0.384,-0.109,1.164,-70.682,16.327,19.635,
60276690,0.316,-0.085,1.251,-95.392,10.815,26.11,
60276700,0.355,-0.129,1.168,-126.752,-3.657,30.45,
60276710,0.039,-0.198,1.248,-148.785,-10.797,26.547,
60276720,0.278,-0.11,1.112,-162.05,-29.12,25.147,
60276730,0.273,-0.296,1.11,-178.605,-34.282,23.66,
60276740,0.472,-0.421,1.093,-191.572,-39.357,11.55,
60276750,1.154,-1.225,0.918,-208.757,-7.21,-3.482,
60276760,1.602,-1.96,1.741,-200.97,89.757,-25.48,
60276760,-0.129,-1.987,1.048,-128.59,155.697,-69.597,
60276780,-0.544,-1.693,0.882,-63.07,54.302,-129.482,
60276780,0.245,-0.68,0.214,-10.552,-11.707,-100.45,
60276800,0.11,0.256,-0.091,11.007,-2.73,-73.587,
60276800,-0.033,1.205,-0.441,8.837,-4.795,-46.41,
60276820,0.339,1.12,0.067,-30.957,-9.572,-5.792,
60276820,0.255,0.921,0.229,-30.642,-6.982,20.107,
60276830,0.2,1.281,0.006,8.05,-18.095,30.817,
60276840,0.246,1.125,0.015,22.295,-18.515,53.095,
60276850,0.206,0.613,0.132,32.252,-7.77,72.292,
60276860,-0.148,0.42,-0.03,53.147,-10.412,91.507,
60276870,-0.318,0.203,-0.321,58.205,-33.565,126.7,
60276880,0.005,-0.04,-0.596,43.015,-46.042,182,
60276890,0.997,-1.74,1.075,-78.347,89.022,288.015,
60276900,0.026,-1.507,-0.924,299.565,-29.75,254.992,
60276910,-0.578,1.941,1.14,378.91,1.61,73.237,
60276920,-0.412,0.792,1.661,305.795,-44.975,165.007,
60276930,-0.674,0.584,1.362,313.162,-93.415,61.127,
60276940,-0.909,-0.013,1.703,268.345,-111.842,-52.64,
60276950,0.163,-0.01,1.829,193.865,-158.41,-127.4,
60276960,1.691,0.654,1.255,118.702,-178.902,-122.43,
60276970,1.841,0.811,0.89,45.395,-111.667,-51.082,
60276980,0.974,0.206,0.942,-9.362,-9.94,17.622,
60276990,0.252,-0.216,0.953,-35.052,27.072,36.47,
60277000,0.218,-0.421,0.887,-38.71,23.73,25.06,
60277010,0.187,-0.405,0.897,-29.697,14.945,13.615,
60277020,0.062,-0.36,0.906,-17.937,5.442,6.807,
60277030,0.147,-0.346,0.877,-7.28,-9.992,-4.585,
60277040,0.256,-0.346,0.86,3.447,-17.622,-14,
60277050,0.517,-0.094,0.949,9.152,-18.042,-13.755,
60277060,0.376,-0.011,0.967,-1.435,-8.435,-3.762,
60277070,0.266,-0.253,0.882,-12.915,-6.842,-2.397,
60277080,0.345,-0.315,0.852,-10.517,-5.582,-9.537,
60277090,0.431,-0.249,0.881,-2.31,-2.38,-14.087,
60277100,0.429,-0.192,0.918,1.137,5.827,-10.605,
60277110,0.352,-0.174,0.937,-0.455,10.692,-5.862,
60277120,0.323,-0.155,0.945,-4.795,12.495,-3.92,
60277130,0.277,-0.152,0.934,-10.202,11.13,-4.655,
60277140,0.231,-0.27,0.904,-11.865,8.61,-9.152,
60277150,0.275,-0.284,0.906,-7.07,3.272,-14.997,
60277160,0.264,-0.245,0.919,-2.257,-0.77,-15.75,
60277170,0.193,-0.266,0.927,1.207,-6.405,-15.522,
60277170,0.201,-0.233,0.95,4.2,-15.82,-18.655,
60277190,0.273,-0.173,0.959,3.43,-25.497,-21.945,
60277190,0.322,-0.156,0.955,-0.577,-32.06,-22.12,
60277210,0.313,-0.147,0.966,-5.372,-35.997,-20.895,
60277210,0.26,-0.069,1.011,-11.742,-42.017,-21.507,
60277230,0.18,-0.019,1.076,-21.105,-51.485,-28.385,
60277230,0.061,0.082,1.179,-31.64,-67.147,-45.745,
60277250,-0.041,0.041,1.273,-46.865,-84.927,-70.332,
60277250,-0.081,-0.244,1.354,-72.975,-77.542,-99.715,
60277260,0.02,-0.233,1.349,-104.982,-73.867,-127.155,
60277270,0.372,-0.194,1.182,-140.122,-87.972,-141.802,
60277280,0.463,-0.377,1.242,-181.3,-55.982,-151.112,
60277290,-0.052,-0.51,1.34,-205.135,-11.217,-151.952,
60277300,0.141,-0.273,1.286,-200.077,-6.947,-158.217,
60277310,-0.028,-0.474,1.603,-193.637,43.137,-152.495,
60277320,-0.71,-0.381,1.997,-158.112,130.375,-118.51,
60277330,-0.4,0.439,1.275,-59.902,158.287,-77.28,
60277340,-1.746,0.298,1.212,-24.377,151.252,-58.642,
60277350,-1.278,-0.097,1.66,29.452,215.145,76.86,
60277360,0.227,1.412,0.079,186.41,308.35,211.435,
60277370,1.503,1.996,-0.799,196.98,339.832,207.725,
60277380,1.836,1.077,-0.053,85.505,319.41,112.455,
60277390,0.399,0.344,0.207,71.155,255.64,15.89,
60277400,1.111,-0.147,0.03,82.145,53.34,-58.992,
60277410,1.998,-1.744,-0.316,65.747,-128.327,-80.325,
60277420,0.881,-1.998,-0.594,39.445,-225.207,-117.88,
60277430,-0.158,-1.976,1.657,43.662,-255.57,-70.455,
60277440,1.889,1.726,1.198,237.895,-272.597,-55.72,
60277450,1.26,0.176,0.618,18.55,-103.862,-1.89,
60277460,0.266,-0.704,1.079,-51.1,6.247,20.965,
60277470,1.159,0.011,0.8,-20.002,9.24,5.057,
60277480,-0.009,-0.364,0.979,-31.237,51.695,7.805,
60277490,0.441,-0.266,0.923,-21.962,40.775,3.885,
60277500,0.301,-0.216,0.966,-18.217,43.54,2.415,
60277510,0.155,-0.145,0.989,-19.232,44.222,4.917,
60277510,-0.126,-0.216,0.988,-18.375,30.45,2.38,
60277530,0.202,-0.282,0.94,-15.05,8.172,-5.792,
60277530,0.339,-0.299,0.931,-8.225,0.542,-10.99,
60277550,0.181,-0.369,0.93,0.682,-0.49,-10.395,
60277550,0.067,-0.308,0.958,11.445,-9.87,-14.98,
60277570,0.248,-0.188,0.978,17.955,-24.465,-22.417,
60277570,0.386,-0.098,0.957,17.15,-29.277,-22.085,
60277580,0.25,-0.098,0.945,12.145,-23.45,-15.82,
60277590,0.339,-0.117,0.935,6.965,-22.015,-11.147,
60277600,0.315,-0.182,0.915,3.535,-17.675,-8.767,
60277610,0.334,-0.052,0.929,1.417,-14.087,-6.527,
60277620,0.343,-0.137,0.933,-4.917,-7.455,-2.975,
60277630,0.346,-0.13,0.936,-7.997,-4.83,-3.727,
60277640,0.355,-0.176,0.937,-10.36,-0.63,-4.147,
60277650,0.298,-0.213,0.938,-10.325,0.822,-4.13,
60277660,0.275,-0.222,0.946,-9.712,0.63,-3.71,
60277670,0.292,-0.213,0.955,-9.047,-3.57,-3.657,
60277680,0.317,-0.202,0.965,-9.345,-4.165,-2.432,
60277690,0.371,-0.18,0.99,-10.622,-6.282,-0.857,
60277700,0.42,-0.168,1.025,-15.697,-4.69,1.82,
60277710,0.395,-0.227,1.057,-22.75,-5.53,2.17,
60277720,0.383,-0.275,1.123,-27.37,-8.032,-0.28,
60277730,0.387,-0.322,1.241,-29.05,-21.367,-8.487,
60277740,0.937,-0.493,1.675,-36.82,-15.82,-25.305,
60277750,0.374,-1.172,1.911,-29.995,7.962,-58.87,
60277760,0.802,-1.927,1.771,-21.052,59.552,-113.137,
60277770,-0.434,-1.998,0.846,-25.322,5.6,-174.51,
60277780,-0.196,-1.998,0.459,-9.87,-46.375,-185.447,
60277790,-1.001,-1.998,0.106,-49.927,-3.78,-98.157,
60277800,-0.986,-1.993,0.469,-98.245,20.545,10.85,
60277810,0,-1.63,0.466,-113.557,-7.822,98.192,
60277820,0.688,-0.753,-0.019,-104.615,-20.982,131.565,
60277830,0.851,0.447,-0.324,-109.847,-11.952,123.042,
60277840,0.864,0.949,-0.366,-156.485,0.472,102.392,
60277850,0.762,1.313,-0.17,-184.66,3.062,80.92,
60277860,0.607,1.694,-0.265,-175.56,3.71,70.612,
60277870,0.137,1.996,-0.803,-151.147,-3.587,69.93,
60277880,-0.144,1.997,-1.105,-143.43,-21.997,93.887,
60277890,1.07,1.815,1.185,-143.955,-40.967,108.272,
60277900,1.09,-0.282,1.998,-2.94,9.555,90.422,
60277910,-1.443,-0.527,0.576,327.39,-49.472,4.41,
60277920,1.479,-1.55,0.829,393.417,-1.855,94.535,
60277920,-1.212,-0.79,1.397,413.56,62.02,34.177,
60277940,-1.979,1.362,1.994,427.892,-53.462,-79.292,
60277940,0.141,-0.018,1.834,273.91,-234.745,-103.145,
60277960,1.816,1.146,-0.015,98.297,-254.52,-76.107,
60277960,0.654,-0.397,0.944,-52.08,-26.39,13.79,
60277980,0.884,-0.473,0.782,-36.365,26.967,31.167,
60277980,0.114,-0.521,0.919,-30.152,54.915,18.462,
60278000,0.095,-0.285,0.966,-16.03,37.17,8.645,
60278000,0.365,-0.158,0.933,-12.862,21.787,-0.385,
60278010,0.094,-0.243,0.961,-11.077,15.347,-2.66,
60278020,0.243,-0.232,0.934,-6.055,5.425,-4.357,
60278030,0.151,-0.221,0.958,-1.487,-5.04,-6.037,
60278040,0.259,-0.186,0.944,0.525,-15.715,-7.42,
60278050,0.34,-0.162,0.93,0.735,-23.222,-7.91,
60278060,0.358,-0.119,0.939,0.28,-22.855,-5.18,
60278070,0.398,-0.13,0.922,-1.872,-22.96,-2.45,
60278080,0.439,-0.185,0.9,-3.955,-17.482,0.542,
60278090,0.426,-0.123,0.917,-3.43,-11.777,4.322,
60278100,0.392,-0.115,0.932,-7.14,-4.375,8.225,
60278110,0.428,-0.108,0.934,-12.565,-1.382,10.412,
60278120,0.469,-0.068,0.954,-20.282,5.757,13.492,
60278130,0.502,-0.087,0.964,-31.92,12.39,17.237,
60278140,0.538,-0.094,1.006,-46.427,23.012,21.507,
60278150,0.629,-0.048,1.123,-64.505,34.667,26.74,
60278160,0.593,-0.055,1.257,-89.547,54.372,32.375,
60278170,0.537,-0.072,1.278,-117.81,68.425,34.545,
60278180,0.665,0.048,1.337,-151.812,76.002,34.667,
60278190,0.778,0.008,1.251,-192.412,81.095,32.497,
60278200,1.124,-0.208,1.258,-225.225,116.427,28.665,
60278210,1.223,-0.603,1.487,-235.76,174.912,22.855,
60278220,0.883,-0.389,1.096,-192.622,221.287,2.695,
60278230,-0.1,-0.365,1.076,-147.525,233.187,-17.622,
60278240,0.824,-0.41,1.398,-97.282,199.552,-35.752,
60278250,0.634,0.095,0.813,-5.057,73.745,-129.097,
60278260,0.447,0.849,0.76,45.307,-135.887,-297.255,
60278260,-1.391,0.716,0.23,74.655,-63.367,-239.015,
60278280,-1.998,0.075,0.366,68.687,-14.945,-96.372,
60278280,-1.37,-0.118,-0.107,123.97,-41.002,87.622,
60278300,0.025,-0.207,-0.684,151.637,-43.365,204.907,
60278300,0.51,-0.447,-1.056,132.65,-43.592,222.6,
60278320,0.588,-0.816,-1.133,87.972,-73.465,178.727,
60278320,0.638,-1.437,-0.878,37.887,-86.1,132.79,
60278330,0.075,-1.683,-1.233,10.237,-76.492,102.48,
60278340,0.038,-1.56,0.896,-73.85,74.217,143.167,
60278350,-0.68,-1.992,1.147,36.872,-108.85,190.645,
60278360,1.639,1.453,1.873,437.342,-137.882,110.95,
60278370,-1.788,0.461,1.991,330.907,-115.115,-25.287,
60278380,0.475,-0.291,1.936,202.65,-211.085,-97.912,
60278390,1.984,1.696,0.797,127.907,-242.97,-98.84,
60278400,1.003,0.261,0.808,11.812,-67.06,-6.912,
60278410,0.887,-0.116,0.797,-29.505,24.36,25.112,
60278420,0.358,-0.202,0.929,-33.53,56.857,22.067,
60278430,0.17,-0.366,0.917,-33.775,59.937,15.435,
60278440,-0.099,-0.378,0.969,-23.992,47.932,4.865,
60278450,0.205,-0.253,0.958,-13.422,22.995,-4.742,
60278460,0.23,-0.226,0.951,-10.395,14.945,-6.58,
60278470,0.135,-0.2,0.961,-8.855,9.292,-7.07,
60278480,0.209,-0.231,0.96,-7.035,2.345,-6.86,
60278490,0.297,-0.169,0.952,-6.23,-2.992,-7.262,
60278500,0.131,-0.117,0.98,-9.712,-2.432,-7.542,
60278510,0.311,-0.2,0.935,-15.347,-10.36,-15.645,
60278520,0.476,-0.162,0.921,-15.68,-6.387,-15.365,
60278530,0.325,-0.165,0.945,-15.47,3.727,-6.317,
60278540,0.243,-0.167,0.957,-17.045,8.61,-2.257,
60278550,0.241,-0.187,0.951,-19.372,6.265,-4.375,
60278560,0.258,-0.222,0.937,-19.81,5.337,-5.53,
60278570,0.226,-0.241,0.933,-17.937,3.097,-4.55,
60278580,0.176,-0.262,0.933,-15.19,0.245,-3.92,
60278590,0.161,-0.266,0.934,-11.392,-7.035,-4.917,
60278600,0.217,-0.238,0.942,-8.4,-14.052,-6.16,
60278610,0.273,-0.224,0.943,-7.332,-19.302,-5.18,
60278620,0.307,-0.192,0.959,-8.102,-20.895,-1.557,
60278630,0.309,-0.148,0.984,-12.477,-21.262,2.817,
60278640,0.341,-0.092,1.029,-21.927,-21.805,7.052,
60278650,0.452,-0.03,1.106,-37.205,-19.495,12.005,
60278660,0.494,-0.071,1.161,-57.067,-11.76,18.357,
60278670,0.55,-0.251,1.175,-81.007,-5.11,30.432,
60278670,0.552,-0.085,1.251,-102.725,2.432,43.487,
60278690,0.588,-0.086,1.237,-131.25,5.267,58.957,
60278690,0.479,-0.272,1.177,-162.627,-2.625,73.885,
60278710,0.588,-0.228,1.202,-171.797,-15.067,81.48,
60278710,0.6,-0.607,1.422,-172.077,-17.797,86.065,
60278730,0.216,-0.617,1.228,-147.927,-21.577,86.957,
60278730,0.292,-0.651,1.345,-134.487,-31.85,79.415,
60278750,0.286,-1.004,1.311,-104.895,-38.045,69.457,
60278750,-0.094,-0.913,1.488,-36.767,-59.29,42.385,
60278760,-1.421,-0.014,1.206,54.652,-78.837,33.862,
60278770,-0.139,1.006,0.346,99.05,-37.835,104.177,
60278780,-0.054,0.853,0.346,95.742,40.862,134.732,
60278790,0.006,0.55,0.065,77.227,99.977,106.89,
60278800,-0.223,0.212,-0.059,61.547,109.182,71.732,
60278810,-0.203,-0.203,-0.272,42.297,100.012,47.407,
60278820,-0.385,-0.401,-0.489,28.84,93.065,34.842,
60278830,-0.333,-0.753,-0.75,12.092,84.35,43.12,
60278840,-0.266,-0.902,-0.952,-1.172,78.802,60.375,
60278850,0.118,-0.93,-1.089,-10.447,58.677,73.395,
60278860,0.47,-1.01,-0.456,-31.867,30.257,60.882,
60278870,0.592,-1.953,0.902,-78.785,-129.115,46.847,
60278880,-0.801,0.053,1.138,321.877,-159.512,11.007,
60278890,0.81,1.4,1.464,409.657,-121.992,-39.567,
60278900,-0.716,-1.655,1.258,303.642,-161.84,-76.72,
60278910,-1.338,0.151,1.986,341.127,-229.565,-156.887,
60278920,1.85,1.079,1.107,226.555,-335.317,-147.682,
60278930,0.594,-0.017,0.653,28.752,-136.92,-29.33,
60278940,1.441,-0.103,0.586,-51.012,0.297,29.977,
60278950,0.198,-0.448,0.919,-39.077,53.812,32.55,
60278960,0.497,-0.253,0.884,-30.275,66.027,24.64,
60278970,-0.086,-0.313,0.995,-24.255,59.797,16.765,
60278980,0.182,-0.299,0.952,-19.897,35.945,6.247,
60278990,0.372,-0.223,0.918,-16.065,24.937,1.575,
60279000,0.789,-0.256,0.833,-9.31,32.48,13.23,
60279010,-0.534,-0.219,1.085,2.03,49.927,33.915,
60279010,-0.361,-0.159,1.045,-6.982,9.327,5.985,
60279030,0.133,-0.346,0.928,-15.995,-30.59,-28.297,
60279030,0.512,-0.229,0.889,-6.65,-43.347,-30.555,
60279050,0.485,-0.153,0.91,0.91,-33.18,-14.612,
60279050,0.259,-0.168,0.952,2.152,-22.225,-1.172,
60279070,0.271,-0.16,0.949,-0.192,-22.487,0.84,
60279070,0.347,-0.15,0.938,-3.15,-25.41,-0.245,
60279080,0.379,-0.148,0.934,-6.632,-22.015,2.45,
60279090,0.336,-0.184,0.933,-9.747,-18.917,5.95,
60279100,0.301,-0.2,0.941,-11.585,-16.45,8.452,
60279110,0.318,-0.19,0.95,-13.125,-18.497,9.59,
60279120,0.358,-0.168,0.955,-17.272,-18.13,11.655,
60279130,0.426,-0.151,0.965,-23.012,-17.552,15.102,
60279140,0.487,-0.124,1.004,-32.637,-10.535,20.912,
60279150,0.57,-0.083,1.079,-46.83,-1.627,27.877,
60279160,0.611,-0.044,1.216,-69.597,15.12,38.237,
60279170,0.608,0.013,1.306,-100.415,30.047,49.665,
60279180,0.596,0.055,1.358,-139.545,40.477,59.955,
60279190,0.926,0.004,1.221,-175.805,47.757,65.24,
60279200,0.985,-0.292,1.18,-202.3,81.427,68.075,
60279210,1.213,-0.032,1.287,-198.607,129.57,66.482,
60279220,1.502,-0.592,1.49,-202.23,196.49,74.165,
60279230,1.067,-0.631,1.135,-164.99,266.91,79.502,
60279240,-0.282,-0.171,0.991,-130.095,254.957,64.032,
60279250,0.667,0.435,0.762,-91.192,131.302,29.155,
60279260,1.443,0.418,0.648,-58.345,86.03,2.31,
60279270,1.931,0.992,1.05,-7.875,28.595,-103.145,
60279280,1.833,0.797,0.999,52.937,-81.742,-259.157,
60279290,-0.257,0.646,0.061,109.882,-131.425,-377.825,
60279300,-1.48,0.945,-0.32,122.797,-93.922,-326.777,
60279310,-1.91,-0.257,0.275,57.925,-57.207,-174.58,
60279320,-1.281,-1,0.044,63.875,-46.357,-11.427,
60279330,-0.024,-0.586,-0.37,103.582,-50.715,73.885,
60279340,0.637,-0.857,-0.558,81.55,-21.28,94.045,
60279350,0.216,-1.09,-0.713,53.655,0.315,68.022,
60279360,0.231,-0.941,-1.275,28.997,-20.037,38.657,
60279370,-0.469,-1.84,1.051,-114.52,128.047,125.527,
60279380,0.436,-1.904,-0.784,166.792,-151.795,270.06,
60279390,0.512,1.556,1.739,375.287,-99.382,83.755,
60279400,-1.234,1.714,1.659,343.945,-67.795,15.942,
60279410,-1.187,-1.36,1.911,200.917,-152.46,-53.34,
60279420,0.847,0.532,1.732,179.882,-242.06,-156.24,
60279420,1.848,1.641,0.683,83.055,-210.297,-92.242,
60279430,0.721,-0.103,0.923,-5.88,-31.64,2.59,
60279440,0.348,-0.301,0.904,-24.395,16.38,26.355,
60279450,0.655,-0.09,0.864,-25.025,21.717,16.187,
60279460,0.26,-0.32,0.916,-24.71,38.202,20.195,
60279470,0.086,-0.308,0.961,-18.812,35.297,16.625,
60279480,0.238,-0.209,0.945,-15.54,21.752,7.787,
60279490,0.342,-0.216,0.92,-15.662,14.805,5.057,
60279500,0.198,-0.239,0.938,-14.052,15.12,7.21,
60279510,0.193,-0.243,0.938,-11.725,7.647,4.83,
60279520,0.244,-0.223,0.928,-9.922,2.065,1.085,
60279530,0.255,-0.22,0.925,-7.665,-3.325,-2.38,
60279540,0.283,-0.229,0.923,-5.635,-5.005,-4.672,
60279550,0.352,-0.174,0.935,-3.902,-7.14,-4.952,
60279560,0.352,-0.176,0.935,-5.355,-3.377,-0.682,
60279570,0.272,-0.195,0.941,-6.457,-2.94,3.587,
60279580,0.262,-0.196,0.942,-7.42,-3.92,5.232,
60279590,0.252,-0.204,0.941,-8.155,-8.837,4.83,
60279600,0.256,-0.224,0.936,-9.31,-11.655,4.182,
60279610,0.263,-0.244,0.925,-8.977,-16.572,3.167,
60279620,0.199,-0.234,0.946,-8.067,-19.495,2.415,
60279630,0.213,-0.216,0.964,-8.207,-28.122,-0.297,
60279640,0.338,-0.139,0.987,-11.777,-34.265,-1.33,
60279650,0.418,-0.108,0.991,-20.527,-36.557,1.557,
60279660,0.519,-0.103,1.019,-32.147,-30.275,6.65,
60279670,0.576,-0.033,1.1,-47.197,-18.952,12.092,
60279680,0.539,-0.036,1.125,-66.762,-1.662,15.907,
60279690,0.536,-0.111,1.148,-94.22,8.33,22.015,
60279700,0.537,-0.063,1.124,-119.77,16.712,25.077,
60279710,0.533,-0.143,1.088,-143.185,21.42,32.62,
60279720,0.458,-0.416,1.071,-161.472,36.19,40.862,
60279730,0.49,-0.016,0.99,-163.677,36.68,46.97,
60279740,0.515,-0.374,0.947,-170.59,33.827,59.937,
60279750,0.514,-0.512,0.996,-162.417,36.75,68.355,
60279760,0.574,-0.75,1.165,-140.805,42.857,74.13,
60279760,0.28,-0.648,0.975,-100.52,46.532,73.167,
60279780,0.017,-0.417,0.891,-67.567,41.702,72.38,
60279780,-0.16,-0.428,0.908,-33.18,5.022,69.3,
60279800,0.435,-0.081,1.419,34.632,-46.147,52.535,
60279800,0.555,0.383,1.272,113.89,-49.682,37.362,
60279820,0.333,0.761,0.361,182.857,-81.287,-13.755,
60279820,0.816,1.21,-0.419,198.275,-69.405,-60.585,
60279830,0.046,0.982,-0.489,150.447,-28.07,-101.885,
60279840,-0.19,0.238,-0.109,92.207,17.657,-84.735,
60279850,-0.365,-0.035,-0.626,84.245,35.28,-46.795,
60279860,0.296,0.361,-0.706,69.51,46.182,-3.657,
60279870,1.393,-0.417,-1.072,14.017,106.33,45.71,
60279880,-0.817,-1.904,1.344,-117.127,257.092,117.915,
60279890,-0.42,-1.934,-0.409,190.347,-56.245,184.065,
60279900,0.051,1.448,1.952,363.265,-49.122,99.592,
60279910,-1.844,1.486,1.933,301.052,-82.39,56.28,
60279920,0.111,-0.75,1.934,114.817,-166.915,-54.985,
60279930,1.7,0.543,1.18,62.177,-204.89,-134.697,
60279940,1.367,0.427,0.892,6.02,-100.922,-54.285,
60279950,0.851,-0.031,0.928,-17.412,-2.642,9.117,
60279960,0.208,-0.095,1.012,-35.07,32.322,20.527,
60279970,0.465,-0.093,0.967,-47.53,33.46,16.467,
60279980,0.176,-0.368,0.913,-49.227,41.597,18.69,
60279990,-0.045,-0.546,0.86,-36.505,31.99,14.262,
60280000,0.1,-0.407,0.884,-18.445,13.16,3.342,
60280010,0.195,-0.205,0.947,-8.435,-0.385,-3.027,
60280020,0.221,-0.277,0.912,-6.597,-6.282,-6.3,
60280030,0.236,-0.305,0.904,0.245,-11.602,-9.397,
60280040,0.258,-0.22,0.933,6.177,-13.335,-11.987,
60280050,0.297,-0.185,0.948,7.105,-15.54,-14.052,
60280060,0.393,-0.151,0.95,4.76,-13.3,-14.017,
60280070,0.377,-0.199,0.93,0.962,-7.332,-10.64,
60280080,0.319,-0.22,0.932,0.175,-0.577,-5.565,
60280090,0.22,-0.193,0.951,0.14,0.385,-2.957,
60280100,0.193,-0.188,0.956,-1.925,-4.235,-4.655,
60280110,0.235,-0.216,0.94,-3.412,-10.657,-7.7,
60280120,0.218,-0.219,0.946,-3.29,-15.33,-8.592,
60280120,0.217,-0.228,0.947,-3.605,-20.615,-9.677,
60280140,0.235,-0.212,0.958,-4.392,-26.705,-11.392,
60280140,0.262,-0.164,0.983,-7.665,-31.587,-12.337,
60280160,0.268,-0.094,1.037,-15.225,-36.82,-13.737,
60280160,0.239,-0.037,1.12,-27.93,-41.475,-18.095,
60280170,0.192,-0.053,1.232,-46.077,-51.205,-26.74,
60280180,-0.07,-0.205,1.357,-72.415,-66.412,-41.475,
60280190,0.401,-0.251,1.189,-107.432,-87.587,-63.962,
60280200,-0.51,-0.396,1.649,-152.897,-35.7,-109.742,
60280210,0.188,-0.025,1.279,-187.862,-44.432,-147.157,
60280220,0.608,-0.675,1.356,-241.815,8.365,-165.34,
60280230,0.193,-1.431,1.583,-258.93,109.532,-174.86,
60280240,-0.263,-1.639,0.718,-234.675,185.15,-195.475,
60280250,-0.45,-1.998,0.672,-239.575,250.6,-191.1,
60280260,-0.993,-1.998,0.405,-166.092,246.837,-173.267,
60280270,-1.532,-1.998,0.593,-113.26,144.602,-101.902,
60280280,-0.887,-1.528,0.321,-36.277,86.257,24.955,
60280290,-0.252,-0.655,0.263,-1.855,49.245,119.507,
60280300,0.382,0.006,0.042,7.385,40.355,171.692,
60280310,0.521,0.48,0.086,-5.075,60.532,184.1,
60280320,0.552,0.862,0.065,-16.835,70.14,172.48,
60280330,0.499,1.165,0.047,-18.165,69.772,160.632,
60280340,0.558,1.075,0.003,-20.86,59.045,156.887,
60280350,0.604,1.082,-0.228,-2.467,46.182,163.415,
60280360,0.566,0.979,-0.47,12.775,32.182,181.3,
60280370,-0.711,0.78,-0.437,23.17,-20.212,191.047,
60280380,1.631,-0.343,1.9,7.245,-305.795,120.487,
60280390,0.465,-1.793,1.111,214.042,-171.08,62.212,
60280400,-0.703,0.532,1.43,370.09,-89.722,-43.767,
60280410,0.977,-0.371,1.219,358.802,-126.665,-38.255,
60280420,-1.894,0.613,1.781,357.332,-148.47,-119.35,
60280430,0.718,-0.014,1.99,256.76,-263.602,-148.995,
60280440,1.998,1.858,0.789,117.232,-266.962,-120.347,
60280450,1.013,0.08,0.916,-11.34,-80.937,-11.357,
60280460,0.997,-0.283,0.722,-38.185,11.62,24.5,
60280470,0.474,-0.315,0.857,-38.115,55.615,23.66,
60280480,0.151,-0.305,0.955,-31.272,64.872,24.867,
60280490,0.094,-0.282,0.989,-29.557,53.707,19.582,
60280500,0.298,-0.183,0.94,-31.167,40.95,14.245,
60280510,0.002,-0.396,0.897,-28.542,37.117,11.235,
60280510,-0.096,-0.52,0.873,-12.652,19.057,1.68,
60280530,-0.064,-0.375,0.939,7.052,-3.675,-7.77,
60280530,0.152,-0.196,0.977,15.33,-25.917,-15.68,
60280550,0.365,-0.133,0.95,12.652,-34.895,-16.712,
60280550,0.37,-0.155,0.94,9.485,-32.2,-11.06,
60280570,0.338,-0.159,0.942,7.472,-26.46,-5.075,
60280570,0.359,-0.182,0.926,4.83,-24.22,-2.135,
60280580,0.357,-0.206,0.915,3.99,-18.882,1.19,
60280590,0.282,-0.193,0.938,5.302,-16.555,4.445,
60280600,0.281,-0.181,0.942,4.48,-16.292,5.057,
60280610,0.337,-0.163,0.935,3.01,-18.69,4.847,
60280620,0.295,-0.205,0.928,1.575,-16.45,6.895,
60280630,0.221,-0.251,0.931,2.765,-19.197,7.455,
60280640,0.249,-0.218,0.935,4.27,-23.03,5.162,
60280650,0.353,-0.199,0.921,4.62,-27.912,3.622,
60280660,0.422,-0.177,0.911,3.517,-23.782,5.757,
60280670,0.425,-0.165,0.914,1.592,-17.622,9.397,
60280680,0.447,-0.151,0.924,-2.38,-8.137,13.702,
60280690,0.468,-0.144,0.939,-8.347,-1.33,18.305,
60280700,0.498,-0.146,0.965,-17.92,8.68,24.185,
60280710,0.544,-0.125,1.018,-30.94,18.112,30.625,
60280720,0.6,-0.124,1.098,-49.332,33.687,39.095,
60280730,0.591,-0.123,1.211,-72.922,51.502,48.877,
60280740,0.513,-0.117,1.295,-104.3,67.672,55.65,
60280750,0.564,-0.09,1.311,-131.197,67.777,50.12,
60280760,0.735,-0.477,1.299,-145.46,61.477,43.207,
60280770,0.797,-0.879,1.443,-131.162,64.19,37.695,
60280780,0.181,-0.886,1.161,-87.115,72.292,30.485,
60280790,0.024,-1.663,0.664,-77.402,45.412,38.377,
60280800,0.329,-1.998,-0.163,-63.98,-15.12,22.295,
60280810,0.77,-1.577,-0.472,-2.275,-64.995,-61.897,
60280820,-0.055,-0.738,-0.124,-34.055,-48.93,-91.612,
60280830,-0.818,-1.089,0.523,-96.775,-26.705,-74.392,
60280830,-0.874,-0.319,0.55,-72.607,-25.095,-46.427,
60280850,-0.808,0.593,0.425,-54.075,-15.925,-4.952,
60280850,-0.243,1.286,0.203,-39.585,15.522,40.652,
60280870,0.224,1.782,0.106,-15.19,65.485,70.7,
60280870,0.17,1.78,0.075,10.832,99.522,82.355,
60280890,-0.013,1.658,-0.031,47.267,84.875,92.907,
60280890,0.931,0.913,-0.161,71.715,53.515,122.01,
60280910,-0.578,-1.566,1.541,12.267,45.552,163.94,
60280910,-1.213,-1.939,-0.097,282.345,-136.062,134.12,
60280920,0.258,0.892,1.249,473.69,-114.345,50.015,
60280930,-1.581,1.155,1.846,451.902,-146.51,35.63,
60280940,-1.195,-0.061,1.998,326.13,-288.102,-37.922,
60280950,1.904,1.784,-1.217,145.022,-436.957,-89.407,
60280960,-0.662,-1.139,1.521,-77.42,-43.837,11.725,
60280970,0.707,-0.149,0.524,-32.27,-14.647,8.47,
60280980,0.508,-0.383,0.812,-27.947,42.997,38.885,
60280990,-0.012,-0.164,1.052,-19.932,69.44,22.995,
60281000,-0.064,-0.187,1.028,-23.397,38.972,8.697,
60281010,0.278,-0.207,0.955,-22.995,17.622,-4.532,
60281020,0.089,-0.227,0.97,-21.577,6.527,-12.425,
60281030,0.258,-0.342,0.926,-14.525,-7.647,-12.88,
60281040,0.318,-0.161,0.938,-7.262,-11.97,-11.042,
60281050,0.297,-0.184,0.939,-7.472,-14.77,-10.727,
60281060,0.343,-0.181,0.924,-7.595,-13.965,-9.747,
60281070,0.357,-0.142,0.932,-7.28,-14.262,-8.837,
60281080,0.394,-0.128,0.922,-9.152,-9.677,-6.545,
60281090,0.263,-0.271,0.928,-8.855,-7.052,-2.24,
60281100,0.332,-0.174,0.925,-4.935,-9.38,-0.91,
60281110,0.36,-0.157,0.924,-4.357,-11.06,0.297,
60281120,0.327,-0.176,0.929,-4.952,-7.7,3.5,
60281130,0.353,-0.172,0.922,-5.075,-8.295,5.092,
60281140,0.349,-0.178,0.924,-5.792,-5.95,7.63,
60281150,0.348,-0.177,0.927,-6.282,-5.53,10.115,
60281160,0.4,-0.155,0.927,-7.682,-3.307,13.23,
60281170,0.431,-0.143,0.927,-10.867,0.7,17.692,
60281180,0.462,-0.14,0.936,-16.222,8.12,23.31,
60281190,0.492,-0.134,0.957,-23.73,16.082,29.522,
60281200,0.541,-0.128,1.017,-34.282,26.46,36.277,
60281210,0.624,-0.088,1.105,-50.137,40.005,44.572,
60281220,0.585,-0.128,1.186,-74.2,59.832,53.567,
60281230,0.602,-0.019,1.222,-107.537,76.002,59.64,
60281240,0.596,0.044,1.294,-144.287,89.932,58.922,
60281250,0.668,-0.072,1.392,-179.637,96.617,49.42,
60281260,0.558,-0.111,1.154,-202.352,93.31,32.952,
60281260,0.955,-0.461,1.309,-220.08,108.692,10.272,
60281280,0.822,-0.441,1.162,-185.395,164.237,-12.617,
60281280,0.29,-0.264,0.844,-153.737,218.715,-60.585,
60281300,1.103,-0.419,0.92,-128.275,233.467,-114.292,
60281300,1.862,-0.938,0.329,-80.867,149.642,-278.407,
60281320,1.921,-0.921,0.488,-79.205,-90.51,-550.06,
60281320,-1.315,-1.608,0.002,-34.597,16.66,-571.48,
60281330,-1.998,-0.522,-0.373,10.097,39.007,-479.132,
60281340,-1.858,0.161,-0.338,23.695,-38.237,-236.145,
60281350,-0.69,-0.897,0.168,1.75,-31.272,29.487,
60281360,0.24,-0.587,-0.389,86.1,-9.747,167.037,
60281370,1.058,0.783,-1.099,138.932,-31.955,187.705,
60281380,1.466,0.597,-1.294,78.942,-46.445,181.107,
60281390,1.137,0.326,-1.234,26.53,-50.207,141.382,
60281400,0.06,-0.934,1.537,-85.522,167.072,200.532,
60281410,-1.285,-1.23,-0.752,195.16,-115.57,281.54,
60281420,1.868,1.393,1.947,471.17,-139.457,227.815,
60281430,-1.897,1.426,1.977,345.31,-75.512,60.357,
60281440,-0.121,-0.02,1.998,226.047,-143.78,-75.547,
60281450,1.901,1.549,1.005,98.717,-224.84,-130.077,
60281460,0.964,0.277,0.838,10.097,-86.607,-28.105,
60281470,0.848,-0.163,0.851,-21.227,4.025,24.867,
60281480,0.2,-0.188,0.97,-24.22,26.407,23.712,
60281490,0.448,-0.209,0.912,-26.705,24.167,16.782,
60281500,-0.029,-0.418,0.954,-25.025,27.65,11.077,
60281510,0.226,-0.301,0.919,-17.062,8.452,-1.662,
60281520,0.438,-0.191,0.921,-12.04,4.375,-5.39,
60281530,0.218,-0.283,0.918,-8.697,9.047,0.577,
60281540,0.113,-0.2,0.951,-5.005,5.547,1.662,
60281550,0.086,-0.224,0.954,-5.18,-6.825,-5.197,
60281560,0.242,-0.24,0.937,-5.075,-18.742,-14.91,
60281570,0.405,-0.2,0.917,-3.412,-21.875,-16.362,
60281580,0.409,-0.131,0.94,-2.257,-15.417,-10.08,
60281580,0.314,-0.196,0.931,-4.725,-8.837,-3.71,
60281600,0.29,-0.239,0.924,-4.69,-7.472,-1.592,
60281600,0.285,-0.19,0.937,-3.482,-8.067,-0.682,
60281620,0.265,-0.198,0.939,-4.252,-9.765,0.07,
60281620,0.295,-0.188,0.937,-5.127,-11.55,-0.245,
60281640,0.325,-0.166,0.942,-6.23,-12.565,1.137,
60281640,0.362,-0.161,0.944,-8.557,-10.237,4.812,
60281660,0.387,-0.16,0.946,-11.655,-7.245,9.205,
60281660,0.419,-0.136,0.959,-15.785,-0.525,15.085,
60281670,0.479,-0.116,0.983,-22.767,6.72,21.63,
60281680,0.569,-0.104,1.04,-35.175,19.565,30.1,
60281690,0.68,-0.131,1.13,-51.957,37.135,40.95,
60281700,0.714,-0.169,1.183,-72.275,63.175,54.495,
60281710,0.762,-0.115,1.231,-102.322,88.357,68.477,
60281720,0.889,-0.144,1.291,-138.652,110.547,82.39,
60281730,0.956,-0.08,1.311,-165.042,129.395,91.56,
60281740,1.1,-0.42,1.085,-189.157,153.527,107.485,
60281750,1.452,-0.661,0.927,-185.062,161.21,135.94,
60281760,1.185,-1.183,0.698,-168.98,193.007,176.435,
60281770,0.411,-1.006,0.624,-112.927,199.692,196.7,
60281780,0.197,-0.822,0.13,-79.345,65.59,161.962,
60281790,1.998,-0.007,0.365,-65.222,-162.89,21.63,
60281800,1.998,-0.367,0.912,-95.147,-240.012,-196.245,
60281810,-0.085,0.197,0.732,-26.197,-180.757,-363.09,
60281820,-1.998,0.801,1.139,9.992,-165.462,-359.187,
60281830,-1.932,0.331,0.835,41.72,-150.43,-195.755,
60281840,-1.817,0.718,-0.22,113.662,-131.162,-56.91,
60281850,-0.903,0.658,-0.586,117.6,-110.057,71.452,
60281860,0.104,-0.402,-0.563,62.37,-64.767,150.255,
60281870,0.422,-0.387,-0.936,63.192,-45.797,126.595,
60281880,1.024,-0.205,-1.129,32.252,-43.347,58.24,
60281890,-0.375,-1.625,1.331,-90.86,258.947,173.495,
60281900,-0.463,-0.473,-0.716,326.182,-1.242,345.467,
60281910,1.03,1.152,1.789,375.305,-85.837,172.882,
60281920,-1.962,1.62,1.654,344.365,-43.942,32.025,
60281930,-1.168,-0.46,1.953,260.435,-160.72,-94.36,
60281940,1.503,0.555,1.546,162.19,-266.507,-183.627,
60281950,1.423,1.426,0.569,65.887,-161.42,-83.352,
60281960,0.969,-0.086,0.883,-28.262,-1.54,21.297,
60281970,0.267,-0.202,0.964,-42.14,41.965,30.765,
60281980,0.507,-0.329,0.864,-41.58,45.377,23.712,
60281990,-0.018,-0.505,0.922,-28.787,46.97,24.657,
60282000,0.068,-0.366,0.933,-15.015,28.385,14.717,
60282010,0.283,-0.234,0.933,-8.33,13.895,3.587,
60282010,0.381,-0.185,0.92,-6.51,11.252,2.87,
60282030,0.134,-0.236,0.934,-4.445,13.685,8.47,
60282030,0.01,-0.311,0.942,0.052,1.382,2.87,
60282050,0.187,-0.208,0.954,3.762,-14.227,-9.94,
60282050,0.318,-0.197,0.934,4.077,-23.397,-14.91,
60282070,0.361,-0.203,0.928,4.777,-22.33,-12.932,
60282070,0.363,-0.145,0.942,4.882,-20.44,-10.57,
60282080,0.328,-0.16,0.941,1.557,-15.732,-6.37,
60282090,0.297,-0.195,0.937,-0.665,-15.557,-3.587,
60282100,0.275,-0.173,0.945,-1.942,-15.61,-3.272,
60282110,0.297,-0.163,0.946,-3.85,-19.372,-4.41,
60282120,0.328,-0.179,0.938,-7.14,-19.495,-5.215,
60282130,0.335,-0.18,0.941,-9.87,-20.772,-5.757,
60282140,0.319,-0.158,0.965,-14.28,-19.355,-5.425,
60282150,0.35,-0.096,1.001,-21.945,-21.56,-6.492,
60282160,0.385,-0.012,1.076,-35.402,-19.915,-8.207,
60282170,0.299,0.225,1.249,-53.83,-14.455,-17.01,
60282180,0.12,-0.102,1.327,-82.547,-9.835,-35.28,
60282190,0.345,-0.309,1.248,-122.482,-22.785,-49.91,
60282200,0.339,-0.13,1.238,-162.505,23.152,-62.09,
60282210,0.354,-0.006,1.136,-195.825,31.692,-64.592,
60282220,0.631,-0.23,0.973,-212.695,25.095,-61.932,
60282230,0.349,-0.15,0.865,-217.42,38.447,-54.6,
60282240,0.636,-0.444,0.915,-229.687,54.915,-48.037,
60282250,0.791,-0.846,1.047,-219.31,101.692,-42.385,
60282260,0.708,-1.156,0.979,-177.397,170.975,-37.572,
60282270,0.244,-1.274,0.77,-124.95,228.637,-34.842,
60282280,-0.026,-1.72,0.724,-78.96,233.992,-17.64,
60282290,-1.562,-1.695,0.583,3.465,194.425,11.777,
60282300,-1.545,-1.052,0.001,77.77,78.4,68.897,
60282310,-0.111,-0.757,-0.05,98.297,-20.807,178.132,
60282320,0.888,-0.367,-0.291,125.055,-77.157,231.192,
60282330,1.42,0.921,-0.689,163.537,-107.45,203.105,
60282330,1.588,1.477,-0.764,147.647,-83.492,163.292,
60282350,0.724,1.201,-0.734,116.865,-36.417,133.14,
60282350,-0.346,0.909,-0.995,100.432,-19.162,129.202,
60282370,-0.576,-0.205,1.072,11.812,30.607,157.465,
60282370,-1.375,-1.998,-0.012,32.497,-253.732,208.862,
60282390,0.941,-0.904,1.526,375.217,-275.065,130.865,
60282390,0.492,1.952,1.72,478.852,-177.572,4.585,
60282410,-1.929,-1.212,1.998,299.127,-255.675,-75.092,
60282410,1.539,1.465,-0.013,203.525,-440.195,-107.415,
60282420,0.384,-0.021,0.39,17.237,-193.305,-19.652,
60282430,0.848,-0.318,0.646,-58.257,-30.8,13.685,
60282440,1.187,-0.347,0.673,-34.475,15.715,18.165,
60282450,0.332,-0.081,0.953,-36.295,74.41,18.025,
60282460,0.167,-0.302,0.993,-36.137,72.905,15.312,
60282470,0.031,-0.323,0.991,-30.642,52.307,4.69,
60282480,0.077,-0.3,0.97,-20.72,27.142,-3.097,
60282490,0.259,-0.323,0.926,-12.6,5.53,-6.072,
60282500,0.195,-0.202,0.96,-5.04,-2.94,-3.115,
60282510,0.221,-0.203,0.948,-2.537,-15.61,-4.147,
60282520,0.376,-0.19,0.915,-2.695,-22.907,-8.487,
60282530,0.48,-0.078,0.903,-2.625,-22.89,-8.802,
60282540,0.496,-0.139,0.883,-7.35,-12.302,-4.41,
60282550,0.412,-0.2,0.897,-8.277,-3.202,0.105,
60282560,0.335,-0.162,0.925,-7.105,2.835,2.502,
60282570,0.35,-0.15,0.93,-8.26,1.487,2.275,
60282580,0.395,-0.137,0.927,-11.252,3.395,2.905,
60282590,0.402,-0.139,0.929,-15.102,6.055,4.322,
60282600,0.379,-0.164,0.943,-20.142,11.655,6.615,
60282610,0.396,-0.158,0.959,-26.565,13.79,7.157,
60282620,0.4,-0.156,0.987,-35.542,17.972,7.542,
60282630,0.428,-0.158,1.015,-45.57,21.997,7.017,
60282640,0.405,-0.095,1.084,-57.26,30.747,3.36,
60282650,0.393,-0.12,1.125,-71.732,38.132,-3.01,
60282660,0.404,-0.148,1.135,-83.212,46.917,-16.467,
60282670,0.459,-0.215,1.111,-94.552,53.13,-33.25,
60282680,0.604,-0.273,1.027,-108.657,59.815,-46.882,
60282690,0.492,-0.574,1.078,-116.62,104.475,-64.82,
60282700,0.895,-0.752,1.337,-109.007,112.945,-88.62,
60282710,1.162,-1.095,1.122,-77.262,172.952,-118.16,
60282720,1.078,-0.905,0.592,-22.89,247.642,-158.812,
60282730,-1.234,-1.03,0.209,-13.912,291.48,-187.617,
60282740,-1.822,-1.624,0.36,-51.397,180.705,-179.34,
60282750,-0.805,-1.262,0.581,-27.825,42.962,-143.29,
60282760,-0.399,-0.809,0.592,-14,1.032,-95.165,
60282760,-0.546,-0.272,0.318,3.832,0.49,-28.682,
60282780,-0.377,0.307,-0.15,19.32,-25.165,40.722,
60282780,-0.123,0.761,-0.367,22.995,-56.612,120.697,
60282800,-0.166,0.729,-0.498,18.27,-66.972,208.11,
60282800,0.122,1.539,0.047,40.582,-142.677,241.08,
60282820,1.994,0.809,1.033,14.07,-198.957,241.99,
60282820,0.458,-1.775,1.948,73.815,-168.332,211.995,
60282830,-1.796,-1.079,1.29,293.912,-123.252,120.417,
60282840,1.228,1.33,1.998,318.64,-225.645,-71.102,
60282850,0.785,0.864,1.426,127.627,-270.69,-117.162,
60282860,1.527,0.363,0.491,34.965,-188.58,-43.015,
60282870,1.133,0.129,0.696,-8.697,-51.24,5.495,
60282880,0.304,-0.101,0.96,-21.297,11.76,20.86,
60282890,0.822,-0.129,0.857,-30.205,28.612,18.305,
60282900,0.368,-0.221,0.922,-35.472,50.697,19.057,
60282910,0.262,-0.373,0.916,-32.287,53.077,19.565,
60282920,0.136,-0.209,0.972,-23.66,46.655,17.115,
60282930,0.266,-0.25,0.925,-22.82,33.337,10.972,
60282940,0.146,-0.322,0.917,-19.372,29.172,9.345,
60282950,0.093,-0.289,0.94,-11.305,16.905,5.32,
60282960,0.191,-0.241,0.939,-6.702,4.27,0,
60282970,0.32,-0.178,0.939,-5.127,-4.007,-2.362,
60282980,0.379,-0.124,0.945,-7.315,-2.607,-0.087,
60282990,0.331,-0.193,0.934,-10.202,0.07,4.077,
60283000,0.33,-0.228,0.925,-10.57,2.73,7.805,
60283010,0.289,-0.201,0.942,-10.132,3.202,11.602,
60283020,0.271,-0.191,0.947,-11.742,2.502,13.772,
60283030,0.303,-0.186,0.951,-15.137,0.157,13.702,
60283040,0.328,-0.174,0.959,-20.16,0.49,14.07,
60283050,0.338,-0.184,0.959,-25.847,2.047,14.945,
60283060,0.356,-0.191,0.976,-31.465,5.092,15.855,
60283070,0.38,-0.164,1.017,-39.41,9.677,16.275,
60283080,0.396,-0.122,1.079,-51.555,16.485,16.397,
60283080,0.351,-0.113,1.129,-70,26.145,16.1,
60283100,0.305,-0.218,1.206,-96.705,30.205,13.09,
60283100,0.22,0.049,1.274,-126.21,25.812,6.195,
60283120,0.305,-0.158,1.313,-162.277,5.897,-0.612,
60283120,0.786,-0.016,1.215,-191.327,8.557,-12.477,
60283140,0.457,-0.324,1.188,-225.837,54.25,-15.032,
60283140,1.044,-0.363,1.161,-239.33,72.24,-11.935,
60283160,1.129,-0.651,1.116,-223.072,113.96,-2.502,
60283160,0.753,-0.718,1.027,-187.985,147.35,-0.647,
60283170,0.318,-0.933,0.784,-165.515,178.92,7.017,
60283180,-0.289,-0.703,0.771,-143.622,176.802,10.202,
60283190,0.82,-0.239,0.563,-98.647,78.365,-13.615,
60283200,1.916,0.335,0.632,-52.885,0.735,-66.727,
60283210,0.706,1.085,0.794,-17.99,-36.907,-137.497,
60283220,0.07,1.475,0.889,29.575,-65.467,-147.857,
60283230,-0.793,1.65,0.869,91.997,-93.747,-115.64,
60283240,-0.66,1.742,0.868,148.925,-81.13,-23.257,
60283250,-0.467,0.998,-0.066,211.627,-93.117,82.005,
60283260,0.197,0.857,-0.879,228.55,-95.987,137.427,
60283270,0.699,-0.121,-0.881,174.247,-55.212,184.467,
60283280,0.989,-0.732,-1.399,122.307,-27.002,185.15,
60283290,-0.506,-1.676,0.973,-65.117,90.965,261.187,
60283300,-0.562,-1.998,-1.013,267.295,-160.527,396.69,
60283310,1.513,1.021,1.75,470.627,-117.197,174.65,
60283320,-1.686,1.875,1.864,416.377,-90.562,166.075,
60283330,-1.381,0.416,1.973,302.61,-139.475,42.245,
60283340,0,-0.036,1.95,181.282,-199.5,-129.815,
60283350,1.971,1.556,0.833,83.562,-223.615,-125.195,
60283360,0.782,0.097,0.931,0.595,-67.305,-15.067,
60283370,0.728,-0.045,0.915,-28.105,-0.49,20.825,
60283380,0.685,-0.088,0.922,-38.692,26.845,14.647,
60283390,0.397,-0.357,0.907,-41.44,45.272,21.577,
60283400,0.03,-0.458,0.927,-32.06,49.682,27.51,
60283410,0.032,-0.25,0.971,-22.085,33.302,20.23,
60283420,0.541,-0.274,0.883,-21.84,24.01,13.44,
60283430,-0.182,-0.282,0.924,-15.435,28,14.577,
60283440,-0.06,-0.263,0.933,-9.31,8.89,-2.45,
60283450,0.195,-0.22,0.942,-5.827,-9.555,-17.885,
60283460,0.288,-0.235,0.94,-3.657,-15.855,-20.44,
60283470,0.398,-0.112,0.962,-2.572,-14.7,-17.237,
60283480,0.402,-0.132,0.946,-7.35,-8.925,-11.707,
60283490,0.333,-0.261,0.916,-9.765,-1.522,-5.897,
60283500,0.311,-0.243,0.925,-7.017,1.225,-1.75,
60283510,0.229,-0.183,0.952,-5.197,2.712,2.345,
60283510,0.199,-0.191,0.956,-6.335,-1.785,1.295,
60283530,0.22,-0.155,0.961,-9.625,-5.477,-3.167,
60283530,0.192,-0.223,0.937,-12.197,-11.147,-7.805,
60283540,0.196,-0.268,0.924,-10.535,-16.52,-11.917,
60283550,0.237,-0.251,0.93,-6.912,-23.52,-14.612,
60283560,0.241,-0.243,0.937,-4.935,-26.582,-14.175,
60283570,0.24,-0.246,0.943,-3.832,-31.762,-12.967,
60283580,0.245,-0.213,0.963,-4.06,-35.087,-12.215,
60283590,0.25,-0.154,1.006,-7.192,-41.58,-12.565,
60283600,0.228,-0.067,1.105,-16.66,-47.495,-14.122,
60283610,0.121,-0.003,1.295,-32.812,-61.757,-20.335,
60283620,-0.022,-0.145,1.503,-60.515,-89.39,-26.547,
60283630,-0.226,-0.287,1.563,-94.587,-136.762,-45.325,
60283640,-0.04,-0.683,1.554,-135.012,-132.737,-79.52,
60283650,-0.401,-0.167,1.454,-158.515,-150.342,-126.997,
60283660,0.503,-0.533,1.273,-181.877,-93.292,-137.48,
60283670,-1.166,-1.998,1.437,-228.147,44.17,-99.82,
60283680,-0.138,-1.998,1.268,-204.89,73.85,-63.507,
60283690,-1.998,-1.998,1.865,-94.325,135.485,44.555,
60283700,-0.928,-1.797,0.834,62.09,52.325,217.595,
60283710,1.374,-0.796,-0.224,157.832,11.235,328.195,
60283720,1.996,0.511,-0.569,140.035,50.645,309.19,
60283730,1.923,1.172,-0.61,82.792,57.89,213.062,
60283740,0.848,1.383,-0.871,28.525,43.802,117.635,
60283750,-0.182,1.742,-0.54,12.145,60.427,119.315,
60283760,-0.362,1.264,-0.201,4.252,102.532,211.295,
60283770,-0.282,1.129,-0.436,49.735,112.245,314.37,
60283780,0.137,0.697,-1.156,94.465,87.027,380.31,
60283790,1.164,-0.037,1.458,45.377,-176.365,242.322,
60283800,0.401,-1.998,1.28,64.137,-131.355,78.907,
60283810,-0.985,0.32,0.134,450.24,-83.615,-107.31,
60283820,0.584,0.737,1.998,376.127,-157.237,-35.77,
60283830,-0.915,0.06,1.964,214.655,-192.325,-89.897,
60283830,1.954,1.535,0.248,83.667,-242.042,-91.175,
60283850,0.799,-0.191,0.934,-45.01,-34.195,0.262,
60283850,0.855,-0.259,0.82,-46.62,44.082,33.652,
60283870,0.145,-0.399,0.939,-46.112,73.29,28.332,
60283870,0.015,-0.391,0.937,-36.645,55.632,14.945,
60283890,0.101,-0.363,0.936,-28,36.785,3.132,
60283890,0.092,-0.243,0.955,-20.79,20.3,-3.657,
60283910,0.336,-0.326,0.884,-17.92,9.1,-8.102,
60283910,0.641,-0.272,0.866,-7.805,12.565,-1.487,
60283920,-0.004,-0.083,1.02,-4.462,30.082,5.985,
60283930,-0.034,-0.131,1.002,-16.607,14.56,-7.997,
60283940,0.416,-0.269,0.915,-23.292,-0.42,-22.435,
60283950,0.475,-0.26,0.906,-18.392,4.865,-11.812,
60283960,0.374,-0.204,0.942,-16.572,17.57,3.972,
60283970,0.215,-0.219,0.952,-18.182,21.227,10.937,
60283980,0.175,-0.254,0.936,-19.005,19.32,10.885,
60283990,0.176,-0.291,0.928,-15.207,11.83,8.802,
60284000,0.165,-0.244,0.944,-11.847,6.79,8.75,
60284010,0.11,-0.253,0.939,-9.66,-1.837,8.032,
60284020,0.115,-0.254,0.935,-8.05,-10.22,5.215,
60284030,0.17,-0.245,0.942,-5.757,-20.825,1.627,
60284040,0.249,-0.232,0.95,-5.005,-25.935,-0.402,
60284050,0.324,-0.231,0.951,-6.195,-28.91,0.507,
60284060,0.399,-0.194,0.971,-10.202,-25.147,4.34,
60284070,0.46,-0.154,1.008,-17.71,-18.742,10.22,
60284080,0.5,-0.136,1.045,-30.152,-6.44,18.655,
60284090,0.517,-0.145,1.083,-45.482,5.985,28.315,
60284100,0.516,-0.183,1.112,-64.977,20.37,39.935,
60284110,0.534,-0.194,1.117,-87.045,29.942,52.517,
60284120,0.545,-0.194,1.133,-108.955,39.287,65.45,
60284130,0.471,-0.135,1.137,-130.147,42.42,75.932,
60284140,0.458,-0.127,1.06,-147.752,28.14,86.415,
60284150,0.508,-0.357,1.091,-162.242,22.522,95.602,
60284160,0.435,-0.306,1.088,-162.627,22.785,101.885,
60284170,0.508,-0.582,1.372,-161.857,15.575,112.577,
60284180,0.321,-0.876,1.505,-142.485,-2.082,115.255,
60284190,-0.025,-0.945,1.086,-110.81,-44.31,108.955,
60284200,0.262,-0.841,0.737,-90.055,-88.042,86.257,
60284210,0.936,-0.718,0.672,-79.38,-113.19,61.827,
60284220,0.54,-0.192,0.269,-52.745,-94.237,36.172,
60284230,0.49,1.242,0.407,-0.857,-66.885,-11.357,
60284230,0.577,1.95,0.276,41.72,-75.722,-73.22,
60284250,-0.362,1.997,0.084,69.562,-75.617,-123.865,
60284250,-0.643,1.96,0.053,106.382,-53.882,-112.77,
60284260,-0.736,1.395,-0.478,146.3,-32.112,-66.027,
60284270,-0.365,0.707,-1.133,172.375,-22.207,-25.2,
60284280,-0.789,-1.137,-0.44,114.205,-1.785,50.242,
60284290,0.489,-1.998,-0.111,2.485,158.917,263.742,
60284300,-0.197,-0.389,-0.407,462.682,-12.565,89.67,
60284310,-1.024,1.997,1.577,479.342,-24.202,-63.385,
60284320,-0.721,0.261,1.998,318.657,-93.17,38.22,
60284330,-0.245,0.386,1.906,211.277,-188.615,-105.717,
60284340,1.949,1.438,0.483,66.062,-214.917,-116.515,
60284350,1.326,0.248,0.749,-34.597,-47.74,-15.26,
60284360,0.635,-0.39,0.853,-46.427,46.48,35.507,
60284370,0.174,-0.354,0.934,-38.692,61.39,30.712,
60284380,0.103,-0.406,0.906,-30.222,50.855,21.227,
60284390,-0.125,-0.398,0.957,-21,34.002,7.14,
60284400,0.192,-0.282,0.93,-13.335,10.5,-7.612,
60284410,0.409,-0.309,0.879,-8.54,1.12,-11.55,
60284420,0.381,-0.223,0.907,-1.872,7.14,-5.6,
60284430,0.176,-0.122,0.987,0.595,9.275,-2.135,
60284440,0.17,-0.115,0.99,-5.967,3.57,-4.742,
60284450,0.327,-0.154,0.95,-13.055,-4.602,-9.467,
60284460,0.361,-0.239,0.909,-15.19,-2.87,-8.015,
60284470,0.383,-0.256,0.898,-11.725,0,-2.87,
60284480,0.305,-0.239,0.921,-7.962,4.795,3.342,
60284490,0.263,-0.211,0.937,-6.247,3.92,6.177,
60284500,0.239,-0.217,0.934,-6.125,1.715,6.405,
60284510,0.203,-0.249,0.93,-4.742,-3.412,4.497,
60284520,0.26,-0.221,0.938,-2.957,-8.82,1.907,
60284530,0.337,-0.171,0.946,-4.042,-12.04,1.645,
60284540,0.405,-0.17,0.945,-7.875,-10.202,5.057,
60284550,0.35,-0.169,0.964,-12.495,-5.495,11.007,
60284560,0.31,-0.144,0.993,-18.392,-3.255,15.172,
60284570,0.309,-0.125,1.032,-26.827,-2.992,16.957,
60284580,0.359,-0.134,1.074,-36.942,-3.937,18.287,
60284580,0.427,-0.182,1.112,-53.077,-3.535,24.097,
60284600,0.433,-0.076,1.187,-70.262,-1.137,32.2,
60284600,0.396,-0.089,1.256,-97.755,-4.077,39.077,
60284620,0.365,-0.135,1.251,-124.477,-14.472,47.092,
60284620,0.294,-0.096,1.233,-150.85,-29.907,51.45,
60284640,0.338,-0.068,1.26,-172.515,-48.877,54.792,
60284640,0.299,-0.14,1.361,-193.742,-63.402,55.58,
60284660,0.292,-0.446,1.471,-206.237,-80.85,52.535,
60284660,0.363,-0.909,1.599,-189.682,-74.672,46.76,
60284670,0.211,-0.847,1.326,-146.142,-45.202,37.765,
60284680,-0.33,-0.675,1.158,-95.392,-13.912,34.667,
60284690,-1.064,-0.672,0.661,-59.57,-3.08,22.995,
60284700,-1.292,-1.321,0.967,-15.942,3.15,38.29,
60284710,-1.385,-1.097,1.073,51.922,57.697,130.9,
60284720,-0.21,-0.432,-0.477,184.852,69.492,229.652,
60284730,0.662,-0.195,-0.668,182.577,108.972,231.122,
60284740,0.724,-0.51,-1.328,129.867,148.242,186.69,
60284750,0.645,-0.271,-1.011,84.402,156.135,124.932,
60284760,0.413,-0.877,-0.733,-5.565,145.547,55.265,
60284770,0.114,-1.026,-0.769,-44.03,137.13,-5.565,
60284780,-0.15,-0.757,-0.781,-53.27,140.507,-10.622,
60284790,-1.221,-0.37,-0.126,-54.477,96.495,21.192,
60284800,1.262,-0.406,1.994,-2.1,-191.397,35.332,
60284810,0.569,-0.994,1.441,206.587,-131.652,14.595,
60284820,-1.566,-0.757,1.03,294.035,-63.945,-56.612,
60284830,-0.403,-0.11,0.906,343.14,-135.922,-39.025,
60284840,-0.676,0.379,1.427,347.917,-171.062,-94.482,
60284850,-0.256,-0.06,1.988,278.512,-234.132,-136.762,
60284860,1.623,0.757,1.625,177.187,-268.852,-157.01,
60284870,1.584,1.406,0.787,56.262,-164.797,-65.73,
60284880,1.305,0.107,0.883,-40.092,-9.572,12.67,
60284890,0.248,-0.244,0.92,-60.725,51.835,35.962,
60284900,0.187,-0.653,0.84,-52.902,53.182,30.345,
60284910,0.113,-0.576,0.833,-31.307,45.832,22.61,
60284920,-0.146,-0.37,0.951,-10.937,30.537,10.535,
60284920,0.129,-0.33,0.91,-0.752,6.457,-9.065,
60284940,0.297,-0.324,0.908,7.35,-2.922,-18.97,
60284940,0.23,-0.09,0.977,12.302,-3.482,-14.822,
60284960,0.335,-0.093,0.974,5.057,-5.652,-10.972,
60284960,0.358,-0.13,0.952,-4.305,-2.555,-8.697,
60284980,0.342,-0.21,0.927,-9.835,1.085,-7.525,
60284980,0.427,-0.096,0.955,-11.655,7.175,-5.162,
60285000,0.357,-0.184,0.942,-16.992,15.767,0.437,
60285000,0.235,-0.285,0.919,-17.22,22.26,4.55,
60285010,0.164,-0.277,0.934,-13.055,18.392,5.197,
60285020,0.2,-0.217,0.945,-10.307,12.46,4.462,
60285030,0.212,-0.227,0.935,-9.887,6.65,2.835,
60285040,0.221,-0.278,0.917,-8.557,3.885,1.942,
60285050,0.198,-0.273,0.918,-4.865,-1.347,2.537,
60285060,0.178,-0.247,0.938,-2.17,-5.04,3.377,
60285070,0.225,-0.227,0.945,-0.997,-12.04,2.572,
60285080,0.232,-0.209,0.959,-1.995,-14.91,3.587,
60285090,0.265,-0.208,0.963,-3.867,-19.617,5.6,
60285100,0.295,-0.166,0.991,-7.367,-20.44,9.187,
60285110,0.332,-0.142,1.028,-14.577,-22.522,13.562,
60285120,0.393,-0.117,1.063,-26.46,-20.335,19.705,
60285130,0.43,-0.132,1.106,-41.965,-17.675,27.335,
60285140,0.426,-0.127,1.152,-62.3,-11.025,35.98,
60285150,0.403,-0.087,1.219,-83.93,-10.325,43.942,
60285160,0.425,-0.085,1.147,-107.31,-16.59,49.525,
60285170,0.479,-0.144,1.072,-125.545,-34.755,60.392,
60285180,0.385,-0.276,1.007,-136.64,-34.965,70.385,
60285190,0.288,-0.199,1.05,-146.195,-35.332,73.64,
60285200,0.311,-0.238,1.021,-157.36,-42.315,74.812,
60285210,0.322,-0.459,1.044,-162.68,-45.272,70.927,
60285220,0.286,-0.754,1.021,-148.242,-44.52,63.647,
60285230,0.281,-0.833,0.875,-117.88,-43.172,47.95,
60285240,0.154,-0.904,0.911,-87.955,-34.475,31.115,
60285250,0.294,-1.006,1.052,-47.425,-28.245,16.992,
60285260,0.536,-1.275,1.246,30.467,-16.502,0.927,
60285270,-0.222,-0.61,-0.013,145.302,-10.867,-27.335,
60285280,-0.136,0.383,-0.38,174.65,0.402,-18.497,
60285290,-0.275,-0.22,-1.042,143.85,27.335,16.1,
60285300,-0.509,0.378,-1.26,133.28,35.262,41.632,
60285310,0.138,-0.122,-0.694,73.027,45.36,96.705,
60285320,0.018,-0.447,-0.601,54.355,43.12,116.655,
60285330,0.532,0.34,-1.039,72.397,5.25,98.822,
60285330,-0.306,-0.98,1.857,-9.922,46.532,106.592,
60285350,-1.292,-1.049,-0.325,279.265,-86.835,109.777,
60285350,0.725,1.583,1.503,483.892,-76.317,7.315,
60285370,-1.54,0.019,1.998,340.48,-144.375,-31.447,
60285370,0.789,0.496,1.712,237.615,-244.632,-112.035,
60285390,1.749,1.313,0.144,89.897,-216.545,-69.825,
60285390,0.419,0.137,0.943,-33.6,-44.555,-0.437,
60285410,1.355,-0.503,0.587,-34.772,7.385,33.6,
60285410,0.418,-0.39,0.87,-27.772,57.645,21.647,
60285420,0.299,-0.303,0.934,-16.432,69.282,26.95,
60285430,-0.158,-0.255,1.038,-16.38,58.765,13.475,
60285440,0.189,-0.321,0.937,-13.457,29.557,-3.727,
60285450,0.241,-0.234,0.94,-5.04,16.117,-4.252,
60285460,0.158,-0.238,0.961,-0.017,10.132,-0.735,
60285470,0.241,-0.176,0.957,4.34,-1.487,-0.385,
60285480,0.35,-0.149,0.931,4.095,-5.232,-0.735,
60285490,0.31,-0.163,0.935,3.78,-5.67,2.327,
60285500,0.34,-0.147,0.932,2.922,-4.252,4.707,
60285510,0.367,-0.193,0.913,1.75,-3.955,5.985,
60285520,0.356,-0.19,0.918,2.485,0.665,8.54,
60285530,0.345,-0.165,0.924,3.64,2.695,10.762,
60285540,0.322,-0.185,0.924,3.045,6.475,12.04,
60285550,0.319,-0.178,0.927,3.447,6.702,11.462,
60285560,0.307,-0.174,0.929,3.202,8.487,10.465,
60285570,0.304,-0.182,0.926,3.167,7.735,8.925,
60285580,0.287,-0.179,0.929,2.992,8.312,6.912,
60285590,0.276,-0.174,0.93,3.29,6.23,4.83,
60285600,0.254,-0.162,0.934,3.167,4.795,2.852,
60285610,0.257,-0.156,0.937,2.467,1.085,0.77,
60285620,0.273,-0.158,0.93,1.417,-1.295,-0.647,
60285630,0.278,-0.152,0.929,0.437,-3.325,-1.89,
60285640,0.299,-0.159,0.925,-0.875,-4.077,-2.415,
60285650,0.327,-0.159,0.923,-1.977,-3.815,-2.695,
60285660,0.358,-0.162,0.917,-3.01,-1.277,-2.047,
60285670,0.332,-0.172,0.922,-3.535,2.397,-0.717,
60285670,0.295,-0.181,0.928,-3.027,4.2,0.437,
60285690,0.27,-0.177,0.932,-2.415,4.34,0.56,
60285690,0.255,-0.183,0.93,-1.855,2.345,-0.052,
60285710,0.259,-0.177,0.938,-1.26,0.542,-0.28,
60285710,0.253,-0.169,0.941,-0.805,-2.677,-0.227,
60285730,0.28,-0.171,0.939,-1.102,-4.375,0.315,
60285730,0.297,-0.175,0.936,-1.242,-6.422,0.122,
60285750,0.31,-0.176,0.93,-1.487,-5.6,0.192,
60285750,0.297,-0.163,0.931,-1.47,-5.862,-0.21,
60285760,0.301,-0.168,0.931,-2.502,-4.515,-0.07,
60285770,0.31,-0.169,0.932,-3.01,-5.022,-0.175,
60285780,0.313,-0.17,0.936,-3.902,-2.87,0.157,
60285790,0.31,-0.174,0.935,-4.48,-2.922,0.245,
60285800,0.307,-0.181,0.932,-5.127,-0.787,0.63,
60285810,0.314,-0.184,0.933,-4.952,-1.365,0.28,
60285820,0.317,-0.176,0.934,-5.197,0.91,0.752,
60285830,0.331,-0.175,0.949,-5.652,0.787,0.997,
60285840,0.34,-0.173,0.954,-6.702,3.482,1.715,
60285850,0.359,-0.181,0.964,-8.102,4.165,2.117,
60285860,0.379,-0.175,0.981,-11.182,7.21,2.275,
60285870,0.35,-0.208,0.973,-14.945,7.577,1.032,
60285880,0.345,-0.216,0.981,-14.997,9.975,-1.487,
60285890,0.35,-0.217,0.989,-13.09,9.397,-4.585,
60285900,0.35,-0.209,0.992,-12.057,11.69,-6.772,
60285910,0.332,-0.191,1.001,-11.795,12.022,-9.327,
60285920,0.356,-0.139,1.003,-13.09,14.157,-11.042,
60285930,0.35,-0.169,1.021,-17.99,16.31,-13.702,
60285940,0.469,-0.183,1.041,-21.752,27.702,-18.392,
60285950,0.123,-0.223,0.996,-23.187,40.967,-28.087,
60285960,0.144,-0.277,1.063,-19.092,39.41,-41.807,
60285970,0.246,-0.206,0.94,-14.577,38.692,-55.492,
60285980,0.978,-0.066,1.045,-9.17,45.395,-67.2,
60285990,0.483,-0.236,0.196,-3.43,38.622,-136.692,
60286000,1.469,0.436,0.594,-56.14,-15.225,-243.88,
60286010,0.99,-0.681,0.787,-127.155,-48.247,-270.515,
60286020,0.55,-0.552,0.913,-120.19,-32.445,-314.702,
60286030,-0.318,-0.178,1.043,-103.792,-21.647,-324.327,
60286040,-0.598,-0.125,1.135,-108.57,-28.892,-296.747,
60286050,-0.439,-0.071,1.196,-99.137,-18.322,-252.052,
60286060,-0.497,0.044,1.202,-79.782,11.375,-205.852,
60286070,-0.444,0.145,1.118,-57.645,32.217,-164.307,
60286080,-0.043,0.242,0.956,-38.132,33.302,-136.062,
60286080,0.354,0.278,0.801,-29.942,30.765,-129.622,
60286100,0.581,0.173,0.677,-30.187,27.702,-140.805,
60286100,0.712,0.216,0.561,-37.17,20.895,-166.46,
60286120,0.593,-0.063,0.489,-50.207,12.652,-187.88,
60286120,0.551,-0.184,0.42,-58.642,10.255,-201.39,
60286140,0.401,-0.318,0.284,-70.752,16.257,-206.57,
60286140,0.304,-0.318,0.082,-81.077,35.472,-200.217,
60286160,0.287,-0.355,0.066,-101.36,75.285,-180.932,
60286160,-0.144,-0.694,1.087,-141.487,70.472,-136.657,
60286170,0.19,-1.908,1.589,-135.047,54.127,-39.182,
60286180,0.004,-0.705,1.409,81.025,23.362,-60.392,
60286190,0.589,-0.094,1.494,105.087,-24.167,-26.95,
60286200,0.514,0.637,1.139,65.52,-39.305,-13.685,
60286210,0.45,-0.016,0.972,13.457,-32.025,0.507,
60286220,0.494,-0.19,0.919,-1.557,-22.54,4.917,
60286230,0.669,-0.127,0.871,1.225,-12.495,4.427,
60286240,0.514,-0.137,0.897,-4.48,7.84,5.25,
60286250,0.427,-0.153,0.923,-8.645,20.265,5.775,
60286260,0.32,-0.201,0.947,-10.482,26.915,6.562,
60286270,0.263,-0.206,0.957,-9.957,24.762,4.952,
60286280,0.246,-0.198,0.961,-8.54,21.175,3.797,
60286290,0.237,-0.219,0.957,-6.807,14.402,2.66,
60286300,0.238,-0.206,0.956,-4.27,9.222,1.662,
60286310,0.25,-0.201,0.954,-2.817,2.835,0.945,
60286320,0.266,-0.192,0.949,-2.24,-0.63,1.067,
60286330,0.287,-0.181,0.948,-2.432,-4.305,0.91,
60286340,0.312,-0.173,0.943,-3.5,-4.882,1.155,
60286350,0.337,-0.174,0.936,-4.812,-4.532,1.452,
60286360,0.363,-0.161,0.928,-5.932,-1.487,2.117,
60286370,0.368,-0.167,0.92,-7.437,2.432,2.887,
60286380,0.342,-0.171,0.913,-8.487,6.597,3.587,
60286390,0.308,-0.182,0.909,-8.522,9.03,3.5,
60286400,0.273,-0.193,0.907,-7.035,9.345,2.747,
60286410,0.232,-0.21,0.919,-4.13,7.472,1.732,
60286420,0.182,-0.29,0.916,0.805,1.592,0.192,
60286420,0.144,-0.228,0.928,9.642,-7.367,-3.85,
60286440,0.18,-0.207,0.948,15.277,-19.127,-7.49,
60286440,0.198,-0.174,0.936,18.2,-29.942,-11.217,
60286460,0.277,-0.025,0.937,16.887,-38.15,-13.982,
60286460,0.349,-0.073,0.936,6.632,-37.642,-11.252,
60286480,0.403,-0.034,0.942,-2.485,-33.057,-8.365,
60286480,0.403,-0.006,0.978,-15.715,-23.257,-4.637,
60286500,0.383,-0.018,1.026,-32.287,-16.187,-0.49,
60286500,0.388,-0.065,1.078,-50.417,-13.212,4.935,
60286510,0.364,-0.059,1.139,-67.077,-19.897,9.782,
60286520,0.49,-0.004,1.262,-86.537,-25.935,15.277,
60286530,0.406,-0.286,1.34,-113.155,-18.76,14.98,
60286540,0.258,0.182,1.18,-129.972,-12.127,4.41,
60286550,-0.254,-0.471,1.217,-168,-20.23,2.117,
60286560,0.242,-0.491,0.961,-160.492,-70.595,-7.315,
60286570,0.323,-0.364,0.763,-151.41,-76.982,-22.102,
60286580,0.304,-0.534,0.699,-159.267,-43.82,-26.757,
60286590,-0.019,-0.568,0.831,-154.927,-25.9,-41.615,
60286600,0.286,-0.454,0.778,-141.872,-32.9,-69.44,
60286610,0.267,-0.44,0.82,-130.41,-14.91,-91.717,
60286620,0.054,-0.374,0.877,-120.855,14.927,-110.39,
60286630,0.415,-0.759,1.101,-118.195,36.347,-116.34,
60286640,-0.347,-0.481,1.3,-91.07,71.592,-117.162,
60286650,-0.023,-0.319,1.086,-53.077,64.89,-122.762,
60286660,-0.302,-0.495,1.129,-37.747,80.78,-103.092,
60286670,-0.038,-0.41,1.077,-8.47,90.93,-73.412,
60286680,0.132,-0.311,0.755,14.42,84.385,-59.587,
60286690,0.294,-0.179,0.781,18.777,101.062,-54.075,
60286700,0.402,-0.194,0.732,17.377,111.037,-56.507,
60286710,0.428,-0.016,0.672,15.575,119.227,-66.832,
60286720,0.391,0.001,0.731,-1.33,121.467,-77.227,
60286730,0.391,-0.093,0.846,-15.54,112.28,-87.15,
60286740,0.36,-0.122,0.863,-16.24,98.297,-92.627,
60286750,0.335,-0.16,0.787,-9.94,78.4,-91.525,
60286760,0.48,-0.241,0.574,-0.787,56.297,-76.545,
60286770,0.658,-0.306,0.351,4.795,45.255,-51.835,
60286780,0.791,-0.38,0.084,4.76,34.3,-33.232,
60286790,0.87,-0.334,-0.148,-3.167,21.56,-19.792,
60286800,1.009,-0.374,-0.29,-27.597,9.397,-14.245,
60286810,0.957,-0.406,-0.459,-53.287,11.182,-12.232,
60286820,0.689,-0.253,-0.61,-74.97,22.855,-2.975,
60286830,0.769,0.099,-0.49,-100.205,40.092,18.112,
60286830,1.763,-1.306,1.998,-114.257,150.797,77.647,
60286850,-0.366,-1.352,-0.643,141.732,216.737,98.28,
60286850,-1.926,0.652,0.98,237.475,58.765,1.785,
60286870,-0.155,-1.342,1.097,194.11,-26.617,64.05,
60286870,-0.264,0.732,1.302,246.82,-59.325,-10.797,
60286890,-0.674,-0.062,1.546,185.08,-108.272,-63.77,
60286890,0.141,-0.022,1.605,130.095,-155.82,-101.657,
60286910,1.648,0.152,1.138,78.785,-161.542,-111.895,
60286910,1.425,0.491,0.963,36.47,-96.635,-53.042,
60286920,0.812,0.123,0.964,-1.942,-22.172,-2.537,
60286930,0.491,-0.035,0.966,-27.23,13.912,11.13,
60286940,0.362,-0.205,0.944,-40.372,29.907,13.23,
60286950,0.267,-0.323,0.919,-42.315,32.217,13.072,
60286960,0.055,-0.315,0.929,-35.052,32.217,11.322,
60286970,-0.015,-0.375,0.914,-23.677,18.147,-0.315,
60286980,0.161,-0.42,0.87,-12.792,3.045,-15.242,
60286990,0.314,-0.397,0.866,-0.98,-6.947,-19.425,
60287000,0.309,-0.265,0.922,8.575,-6.125,-12.6,
60287010,0.223,-0.207,0.956,11.06,-6.387,-8.61,
60287020,0.262,-0.194,0.954,8.19,-8.4,-9.677,
60287030,0.357,-0.192,0.938,4.865,-10.045,-9.222,
60287040,0.339,-0.17,0.95,2.187,-4.917,-4.077,
60287050,0.316,-0.185,0.949,-1.627,-2.082,1.05,
60287060,0.302,-0.178,0.96,-5.495,0.892,5.022,
60287070,0.323,-0.175,0.966,-10.412,1.802,8.19,
60287080,0.329,-0.162,0.986,-16.94,4.935,12.25,
60287090,0.346,-0.141,1.016,-25.585,8.137,16.222,
60287100,0.274,-0.028,1.083,-37.187,14.035,17.307,
60287110,0.265,-0.229,1.094,-53.112,15.277,13.825,
60287120,0.318,-0.09,1.115,-69.632,16.485,9.8,
60287130,0.368,-0.094,1.143,-86.135,20.807,5.6,
60287140,0.363,-0.202,1.142,-108.237,22.487,4.76,
60287150,0.513,-0.118,1.157,-128.292,26.757,5.005,
60287160,0.707,-0.191,1.291,-149.222,55.807,5.722,
60287170,0.411,-0.224,1.277,-168.77,82.775,6.055,
60287170,0.805,-0.399,1.373,-174.947,96.022,9.345,
60287190,0.408,-0.476,1.416,-156.292,130.077,1.995,
60287190,-0.078,-0.37,1.44,-142.24,121.87,-14.49,
60287210,-0.08,-0.565,1.433,-138.005,97.405,-15.435,
60287210,0.267,-0.309,1.337,-116.112,82.25,-18.497,
60287230,0.517,0.205,1.22,-62.125,44.572,-56.647,
60287230,1.236,1.193,0.607,22.33,-33.215,-150.22,
60287250,-0.059,1.698,0.181,52.342,-55.072,-210.297,
60287250,-0.548,1.503,0.273,72.747,-24.255,-170.135,
60287260,-0.873,1.079,-0.276,124.705,-11.427,-90.387,
60287270,-0.123,1.004,-1.128,181.02,-37.257,-16.1,
60287280,0.444,-0.182,-1.339,149.502,-23.327,48.475,
60287290,-0.107,-1.272,-1.339,110.757,-13.527,77.017,
60287300,0.891,-1.797,-1.395,81.725,-21.315,89.477,
60287310,-0.299,-1.998,1.441,-59.325,111.842,133.595,
60287320,-1.3,-1.98,-0.311,245.595,-156.1,191.17,
60287330,1.106,1.778,1.998,542.237,-152.547,-39.13,
60287340,-1.533,-0.153,1.998,277.515,-182.752,-55.685,
60287350,1.944,1.171,0.546,82.46,-276.797,-103.67,
60287360,0.655,-0.153,0.885,-20.317,-89.267,-28.472,
60287370,0.946,-0.087,0.778,-41.912,2.135,19.372,
60287380,0.212,-0.354,0.947,-38.937,28.542,16.065,
60287390,0.605,-0.225,0.873,-32.48,31.832,12.46,
60287400,0.108,-0.266,0.983,-30.502,47.005,12.81,
60287410,0.111,-0.345,0.948,-27.037,34.387,5.337,
60287420,0.26,-0.346,0.912,-18.935,21.875,-0.822,
60287430,0.27,-0.187,0.957,-10.99,16.8,0.875,
60287440,0.197,-0.222,0.953,-10.202,14.315,3.972,
60287450,0.146,-0.266,0.938,-8.855,7.21,2.275,
60287460,0.23,-0.206,0.939,-6.23,-0.647,-2.152,
60287470,0.316,-0.227,0.924,-4.62,-4.497,-3.552,
60287480,0.297,-0.214,0.933,-2.625,-3.185,-1.995,
60287490,0.305,-0.169,0.946,-2.485,-1.837,-0.14,
60287500,0.271,-0.176,0.949,-4.27,-0.91,2.082,
60287510,0.276,-0.192,0.944,-5.897,-1.452,3.64,
60287520,0.253,-0.181,0.953,-6.37,-2.8,5.74,
60287530,0.22,-0.193,0.956,-7.875,-5.022,7.122,
60287540,0.225,-0.189,0.959,-9.765,-10.115,6.335,
60287550,0.247,-0.193,0.959,-12.565,-13.79,5.162,
60287560,0.305,-0.172,0.972,-16.152,-17.465,4.515,
60287570,0.368,-0.132,1.002,-23.502,-16.012,5.722,
60287580,0.421,-0.09,1.055,-36.172,-11.97,7.875,
60287580,0.428,-0.052,1.123,-54.005,-1.662,9.502,
60287600,0.466,-0.242,1.151,-72.397,8.925,9.31,
60287600,0.424,-0.078,1.198,-92.767,20.58,11.305,
60287620,0.434,-0.205,1.237,-118.125,23.782,13.352,
60287620,0.475,-0.182,1.16,-135.52,19.67,7.682,
60287640,0.869,-0.32,1.082,-147.612,24.535,3.377,
60287640,1.078,-0.778,1.302,-147.35,93.537,-6.265,
60287660,0.757,-0.879,1.167,-118.615,137.095,-8.68,
60287660,0.293,-0.781,0.925,-81.287,169.155,-10.36,
60287670,0.212,-0.815,0.836,-55.352,167.912,-16.695,
60287680,0.033,-1.195,0.617,-23.66,150.167,-23.257,
60287690,-0.139,-1.313,-0.106,13.982,100.257,-50.592,
60287700,0.047,-0.419,0.038,48.055,32.252,-97.79,
60287710,-0.188,-0.239,0.024,62.142,-7.595,-86.065,
60287720,-0.322,-0.101,-0.305,77.717,-46.585,-55.755,
60287730,0.04,0.252,-0.772,92.102,-83.72,-22.767,
60287740,0.071,0.453,-1.199,75.302,-83.545,20.475,
60287750,-0.021,0.879,-0.976,44.485,-72.415,53.9,
60287760,1.201,0.865,-0.665,1.435,-27.65,96.075,
60287770,-1.525,-1.082,1.998,-70.84,41.877,177.467,
60287780,-0.808,-1.663,-0.524,241.167,-278.792,197.487,
60287790,1.168,1.862,1.998,468.982,-176.487,81.532,
60287800,-1.494,0.194,1.998,274.505,-182,-74.55,
60287810,1.965,1.736,0.331,115.552,-272.755,-96.512,
60287820,0.299,0.155,0.904,-4.917,-103.285,-27.265,
60287830,1.539,-0.026,0.638,-36.137,-18.865,16.502,
60287840,0.329,-0.24,0.944,-40.337,39.025,14.49,
60287850,0.575,-0.166,0.911,-35.682,51.1,18.847,
60287860,-0.074,-0.425,1.012,-34.037,52.867,12.67,
60287870,0.005,-0.368,0.963,-25.445,28.297,1.96,
60287880,0.212,-0.324,0.935,-15.872,7.77,-9.31,
60287890,0.368,-0.169,0.936,-9.415,1.032,-11.462,
60287900,0.258,-0.258,0.934,-7,1.732,-5.215,
60287910,0.209,-0.204,0.954,-3.255,-0.665,-2.152,
60287920,0.322,-0.181,0.937,-4.217,-6.44,-6.72,
60287920,0.379,-0.146,0.934,-5.355,-4.9,-6.405,
60287940,0.356,-0.138,0.937,-7.14,-1.347,-2.747,
60287940,0.3,-0.23,0.928,-8.767,2.695,-0.472,
60287960,0.307,-0.186,0.94,-6.685,1.662,-0.175,
60287960,0.331,-0.149,0.947,-7.507,3.395,0.42,
60287980,0.363,-0.177,0.936,-10.062,4.672,0.7,
60287980,0.367,-0.175,0.944,-12.355,10.167,2.555,
60288000,0.333,-0.15,0.965,-15.557,13.282,3.412,
60288000,0.347,-0.123,0.99,-21.595,17.5,1.872,
60288010,0.424,-0.024,1.05,-31.22,21.892,-2.17,
60288020,0.4,-0.057,1.128,-45.745,35.472,-9.607,
60288030,0.383,0.063,1.202,-57.592,47.88,-25.042,
60288040,0.352,-0.313,1.192,-80.972,54.267,-38.027,
60288050,0.273,-0.24,1.23,-97.317,45.692,-50.942,
60288060,0.777,-0.485,1.502,-107.275,37.59,-65.065,
60288070,1.111,-0.696,1.232,-92.47,69.37,-90.982,
60288080,0.09,-1.159,1.549,-68.495,196.297,-138.477,
60288090,0.039,-1.28,1.222,-35.017,172.917,-183.33,
60288100,-0.237,-1.755,0.168,-14.647,150.465,-205.152,
60288110,-0.903,-1.983,0.267,-45.832,100.485,-239.505,
60288120,-0.625,-1.49,0.064,-25.375,-10.29,-253.085,
60288130,-0.4,-0.939,0.062,-15.277,3.482,-161.892,
60288140,-0.674,-0.579,-0.179,-13.072,3.762,-64.82,
60288150,-0.111,-0.006,-0.578,3.447,-22.68,28.84,
60288160,0.462,0.42,-0.769,-0.735,-27.947,111.247,
60288170,0.562,0.602,-0.76,-12.267,7.612,187.757,
60288180,0.407,0.726,-0.889,-11.497,44.152,248.307,
60288190,-1.035,1.651,1.76,38.097,-28.385,281.242,
60288200,1.805,-0.275,1.641,149.712,-236.95,275.502,
60288210,-1.795,-1.231,1.982,316.347,-164.552,142.817,
60288220,-0.083,1.219,1.989,284.48,-223.965,-4.445,
60288230,1.998,1.464,0.101,81.48,-290.482,-87.342,
60288240,-0.324,-0.365,1.117,-37.747,-58.712,-33.215,
60288250,1.727,-0.122,0.66,-33.215,8.137,5.775,
60288260,-0.185,0.045,1.039,-38.43,84.56,11.952,
60288270,0.047,-0.124,1.077,-42.595,77.332,11.305,
60288280,-0.129,-0.322,0.978,-47.792,53.97,-12.32,
60288290,0.025,-0.502,0.923,-43.207,27.23,-19.267,
60288300,0.032,-0.416,0.92,-25.007,6.597,-15.067,
60288310,0.105,-0.323,0.937,-11.322,-10.78,-12.512,
60288320,0.077,-0.282,0.961,-1.715,-25.235,-10.395,
60288330,0.143,-0.246,0.963,3.395,-37.082,-11.025,
60288330,0.381,-0.179,0.936,5.25,-46.077,-12.547,
60288340,0.45,-0.141,0.929,4.532,-39.007,-7.017,
60288350,0.398,-0.136,0.934,2.065,-29.33,-0.7,
60288360,0.381,-0.183,0.923,-1.067,-20.387,2.852,
60288370,0.352,-0.201,0.924,-1.12,-15.382,5.39,
60288380,0.337,-0.166,0.936,-0.805,-9.625,7.07,
60288390,0.337,-0.169,0.935,-2.38,-7.84,7.455,
60288400,0.332,-0.206,0.93,-4.095,-3.745,8.365,
60288410,0.318,-0.196,0.935,-3.832,-2.607,9.66,
60288420,0.268,-0.218,0.937,-3.92,-0.35,11.515,
60288430,0.235,-0.233,0.934,-2.695,-3.465,11.532,
60288440,0.245,-0.242,0.932,-1.067,-5.425,10.447,
60288450,0.275,-0.207,0.942,0.612,-9.572,8.61,
60288460,0.335,-0.187,0.946,0.56,-9.922,9.152,
60288470,0.357,-0.173,0.964,-0.787,-9.992,12.25,
60288480,0.41,-0.134,1.027,-6.947,-6.79,17.255,
60288490,0.41,-0.161,1.09,-22.96,-7.157,22.925,
60288500,0.401,-0.226,1.107,-36.19,-8.225,30.012,
60288510,0.173,-0.261,1.2,-37.275,-11.725,34.177,
60288520,0.072,-0.252,1.369,-37.607,-30.012,33.267,
60288530,-0.026,-0.304,1.352,-37.485,-88.27,39.287,
60288540,0.631,-0.813,1.193,-16.992,-146.51,68.74,
60288550,-1.039,-1.272,1.332,18.935,-139.912,85.802,
60288560,0.959,-1.896,1.984,79.572,-175.665,184.327,
60288570,-1.955,-1.485,0.545,172.252,72.467,359.957,
60288580,0.208,1.358,-0.14,262.115,48.387,359.362,
60288590,1.989,0.335,-0.026,135.065,89.53,326.357,
60288600,1,0.516,-0.341,69.177,161.77,152.495,
60288610,0.363,1.547,-0.887,72.065,130.147,-10.342,
60288620,0.009,1.418,-0.608,5.232,108.307,-66.832,
60288630,-1.252,0.59,-0.806,-18.655,93.887,-55.352,
60288640,-0.059,0.315,0.257,-36.592,-90.51,-69.545,
60288650,1.574,-1.998,1.328,-109.55,-220.605,-22.505,
60288660,-1.101,-0.709,1.998,150.29,-188.212,-135.467,
60288670,1.73,1.997,0.161,219.852,-305.462,-101.57,
60288670,0.59,-1.224,0.791,-31.22,-80.342,22.295,
60288690,-0.203,0.332,0.963,-36.435,19.32,-8.82,
60288690,1.341,-0.223,0.678,-25.322,22.365,21.245,
60288710,-0.28,-0.318,1.08,-35.437,78.382,5.18,
60288710,0.369,-0.382,0.934,-22.102,50.785,4.585,
60288730,0.07,-0.185,0.993,-17.237,40.547,-4.655,
60288730,0.223,-0.28,0.945,-13.685,23.782,-4.13,
60288750,0.16,-0.22,0.969,-8.977,14.945,-4.777,
60288750,0.147,-0.242,0.962,-5.477,1.837,-2.415,
60288760,0.188,-0.228,0.956,-2.135,-8.347,-0.752,
60288770,0.294,-0.19,0.937,0.875,-18.987,-1.837,
60288780,0.393,-0.166,0.918,1.225,-19.53,-0.262,
60288790,0.413,-0.168,0.914,0.63,-15.785,3.587,
60288800,0.411,-0.127,0.926,-1.452,-7.612,7.402,
60288810,0.391,-0.152,0.931,-5.372,-2.222,11.497,
60288820,0.41,-0.146,0.937,-9.817,3.99,14.385,
60288830,0.453,-0.118,0.94,-15.855,8.907,14.735,
60288840,0.452,-0.146,0.94,-24.605,18.882,15.365,
60288850,0.381,-0.211,0.948,-32.007,26.6,15.225,
60288860,0.273,-0.144,0.964,-35.21,32.707,13.947,
60288870,0.23,-0.248,0.957,-40.215,30.765,11.112,
60288880,0.21,-0.226,0.935,-38.972,28.402,6.09,
60288890,0.209,-0.265,0.912,-37.012,23.257,1.557,
60288900,0.224,-0.276,0.892,-32.445,19.145,-2.012,
60288910,0.229,-0.277,0.885,-26.127,14.192,-4.305,
60288920,0.239,-0.269,0.901,-19.932,10.22,-4.357,
60288930,0.236,-0.308,0.872,-14.385,6.772,-4.34,
60288940,0.161,-0.241,0.885,-7.14,2.485,-6.965,
60288950,0.221,-0.283,0.884,-1.855,-3.797,-9.135,
60288960,0.209,-0.311,0.866,3.867,-7.717,-12.267,
60288970,0.144,-0.262,0.892,11.217,-12.95,-15.837,
60288980,0.207,-0.286,0.92,16.555,-22.155,-17.412,
60288990,0.324,-0.252,0.952,19.897,-28.805,-18.287,
60289000,0.35,-0.182,0.975,19.127,-29.312,-17.307,
60289010,0.366,-0.142,0.993,13.16,-25.777,-15.102,
60289020,0.388,-0.097,1.011,3.465,-21.612,-12.32,
60289030,0.394,-0.061,1.047,-10.447,-14.052,-8.732,
60289030,0.381,-0.043,1.099,-27.072,-7.595,-6.002,
60289050,0.4,-0.057,1.122,-46.655,-1.4,-2.642,
60289050,0.38,-0.157,1.071,-62.772,1.417,1.785,
60289070,0.351,-0.217,0.975,-76.86,1.627,5.39,
60289070,0.506,-0.259,0.908,-82.302,3.325,7.612,
60289080,0.355,-0.315,0.89,-81.112,43.925,1.347,
60289090,0.175,-0.289,0.843,-79.152,32.69,0.98,
60289100,0.399,-0.28,0.766,-73.255,20.825,8.015,
60289110,0.464,-0.381,0.744,-68.267,25.952,12.512,
60289120,0.297,-0.391,0.793,-59.29,37.275,14.017,
60289130,0.194,-0.383,0.805,-49.087,36.715,15.767,
60289140,0.193,-0.399,0.866,-42.28,34.265,18.217,
60289150,0.158,-0.41,0.886,-35.56,26.81,18.357,
60289160,0.121,-0.4,0.9,-29.347,19.862,18.55,
60289170,0.097,-0.394,0.914,-23.94,6.93,18.235,
60289180,0.129,-0.395,0.914,-19.915,-4.917,18.077,
60289190,0.185,-0.376,0.911,-16.012,-16.59,16.975,
60289200,0.219,-0.379,0.906,-14.21,-20.772,14.892,
60289210,0.198,-0.389,0.901,-12.495,-23.905,10.885,
60289220,0.181,-0.476,0.905,-9.94,-24.902,6.247,
60289230,0.204,-0.436,0.886,-2.065,-28.997,-0.21,
60289240,0.252,-0.401,0.879,2.555,-28.857,-5.372,
60289250,0.365,-0.438,0.884,3.867,-25.97,-10.412,
60289260,0.503,-0.435,0.884,7.665,-14.437,-18.935,
60289270,0.721,-0.218,0.874,12.845,4.9,-32.987,
60289280,0.729,-0.387,0.831,19.442,20.457,-52.045,
60289290,-0.18,-0.238,0.705,21.665,32.375,-69.86,
60289300,0.257,-0.12,0.626,20.352,-26.512,-95.287,
60289310,0.773,-0.236,0.666,3.885,-47.862,-93.94,
60289320,0.48,-0.394,0.732,-2.765,-14.49,-92.172,
60289330,0.208,-0.35,0.812,4.795,11.2,-83.807,
60289340,0.156,-0.361,0.821,10.937,7.84,-68.495,
60289350,0.363,-0.393,0.796,17.237,0.087,-48.685,
60289360,0.473,-0.388,0.775,25.427,1.19,-30.712,
60289370,0.494,-0.378,0.776,28.175,4.602,-16.327,
60289380,0.489,-0.415,0.813,26.67,-2.135,-5.32,
60289390,0.531,-0.457,0.845,24.377,-15.645,2.222,
60289400,0.502,-0.487,0.858,22.295,-29.907,8.452,
60289410,0.441,-0.47,0.833,19.215,-40.845,14.542,
60289420,0.418,-0.483,0.814,13.895,-49.612,20.405,
60289420,0.293,-0.5,0.793,8.802,-52.552,26.337,
60289440,0.226,-0.446,0.766,6.457,-56.437,33.495,
60289440,0.141,-0.425,0.739,2.73,-55.072,46.322,
60289460,0.112,-0.395,0.709,-2.292,-54.582,59.185,
60289460,0.071,-0.392,0.657,-7.875,-47.705,75.39,
60289480,0.132,-0.391,0.681,-10.675,-34.3,93.8,
60289480,0.288,-0.286,1.16,0.332,3.692,115.5,
60289500,0.326,-0.093,0.993,46.375,43.522,135.1,
60289500,0.466,0.983,0.628,101.972,78.347,131.267,
60289510,0.752,0.763,0.705,86.327,137.357,123.777,
60289520,-0.803,-0.912,1.331,73.062,155.505,112.175,
60289530,-1.494,-1.122,0.962,140.682,18.882,68.267,
60289540,0.327,-0.644,1.288,173.565,-45.185,36.627,
60289550,-0.737,0.266,1.595,165.62,-56.84,-35.087,
60289560,0.29,-0.031,1.49,113.732,-105.542,-69.965,
60289570,1.214,0.507,1.059,62.282,-125.002,-69.545,
60289580,1.284,0.148,0.799,16.782,-75.04,-31.272,
60289590,0.738,0.01,0.86,-0.315,-13.632,2.765,
60289600,0.39,-0.115,0.929,-11.602,21.035,15.68,
60289610,0.369,-0.173,0.928,-18.462,28,10.937,
60289620,0.306,-0.23,0.928,-19.547,32.2,8.19,
60289630,0.149,-0.28,0.95,-16.257,29.942,6.737,
60289640,0.18,-0.229,0.954,-12.267,20.807,2.222,
60289650,0.237,-0.197,0.946,-10.762,12.127,-1.47,
60289660,0.217,-0.228,0.947,-10.307,7.98,-2.66,
60289670,0.227,-0.211,0.946,-8.977,2.345,-3.972,
60289680,0.254,-0.202,0.942,-8.575,-2.187,-5.162,
60289690,0.289,-0.171,0.946,-8.977,-5.005,-6.16,
60289700,0.312,-0.151,0.948,-11.34,-5.197,-7.052,
60289710,0.334,-0.168,0.943,-14.665,-3.64,-7.297,
60289720,0.339,-0.177,0.942,-17.517,-1.12,-6.492,
60289730,0.344,-0.178,0.948,-20.37,2.187,-4.777,
60289740,0.33,-0.163,0.965,-24.272,4.76,-3.22,
60289750,0.326,-0.146,0.985,-30.66,7.42,-2.8,
60289760,0.331,-0.126,1.014,-39.007,9.485,-4.252,
60289760,0.327,-0.099,1.05,-48.02,14.682,-7.997,
60289780,0.274,-0.132,1.067,-56.262,19.792,-16.502,
60289780,0.231,-0.373,1.044,-68.425,19.687,-21.997,
60289800,0.312,-0.212,1.018,-74.917,15.242,-26.477,
60289800,0.315,-0.235,1.006,-82.075,17.972,-29.715,
60289820,0.606,-0.206,0.972,-88.865,26.792,-32.707,
60289820,0.097,-0.257,1.085,-96.32,55.772,-39.095,
60289830,0.407,-0.219,0.934,-100.1,46.9,-41.037,
60289840,0.484,-0.369,0.888,-100.8,51.957,-40.722,
60289850,0.578,-0.507,0.9,-87.902,56.735,-41.265,
60289860,0.633,-0.599,0.847,-65.52,74.812,-42.07,
60289870,0.537,-0.569,0.719,-38.132,93.397,-43.47,
60289880,0.124,-0.635,0.64,-10.15,106.697,-39.847,
60289890,0.736,-0.638,0.718,24.587,107.152,-36.085,
60289900,-0.287,-0.43,0.098,59.57,114.52,-33.32,
60289910,-0.104,-0.242,0.048,61.985,99.907,-5.11,
60289920,-0.515,-0.267,0.053,68.04,50.662,26.145,
60289930,-1.779,0.302,-0.021,93.327,-45.115,32.497,
60289940,-1.743,-0.334,0.496,79.415,-161.402,71.47,
60289950,0.379,-1.937,1.259,104.3,-193.392,99.907,
60289960,-0.064,0.473,1.746,237.65,-159.845,3.657,
60289970,0.404,-0.217,1.979,168.98,-194.635,-89.355,
60289980,1.862,1.501,0.727,79.415,-208.25,-89.915,
60289990,0.552,-0.266,0.972,-4.322,-74.655,-27.352,
60290000,1.058,-0.008,0.782,-12.88,-10.5,9.152,
60290010,0.314,-0.059,0.946,-27.545,27.3,6.632,
60290020,0.515,-0.259,0.899,-31.237,36.575,4.585,
60290030,0.106,-0.352,0.972,-26.075,46.27,10.237,
60290040,0.052,-0.329,0.963,-18.935,31.36,6.16,
60290050,0.208,-0.277,0.938,-13.265,14.612,-3.045,
60290060,0.234,-0.294,0.929,-8.242,7.665,-5.6,
60290070,0.202,-0.24,0.949,-2.31,2.782,-4.445,
60290080,0.244,-0.232,0.944,0.035,-3.797,-5.617,
60290090,0.317,-0.173,0.945,0,-6.755,-6.982,
60290100,0.324,-0.15,0.949,-2.502,-5.932,-5.635,
60290110,0.337,-0.173,0.942,-6.142,-3.307,-3.272,
60290120,0.277,-0.164,0.962,-8.365,-1.435,-0.052,
60290130,0.235,-0.166,0.973,-11.847,-2.222,2.082,
60290140,0.235,-0.148,0.986,-17.815,-6.86,1.592,
60290150,0.257,-0.113,1.015,-27.527,-10.43,1.067,
60290160,0.244,-0.075,1.078,-40.11,-15.47,0.84,
60290170,0.157,-0.076,1.18,-58.292,-21,-0.385,
60290170,-0.022,-0.014,1.309,-75.145,-34.177,-11.252,
60290190,-0.075,-0.176,1.276,-95.9,-55.912,-31.972,
60290190,0.58,-0.224,1.076,-120.4,-70.875,-51.852,
60290210,-0.369,-0.253,1.348,-148.085,-14.105,-75.53,
60290210,0.47,-0.182,0.94,-167.825,-40.88,-100.152,
60290230,0.451,-0.48,0.996,-181.387,-28.14,-109.655,
60290230,0.528,-0.744,1.047,-176.312,1.75,-109.69,
60290250,0.448,-0.721,0.86,-156.205,54.442,-115.57,
60290250,0.134,-0.823,0.731,-133.997,124.617,-120.137,
60290260,-0.639,-1.781,1.039,-117.862,192.955,-91.49,
60290270,-1.585,-1.277,1.21,-29.102,217.805,-27.825,
60290280,-0.504,-0.058,0.224,94.622,130.707,76.842,
60290290,1.457,0.601,-0.786,136.097,84.21,139.072,
60290300,1.304,1.12,-0.803,128.047,93.467,141.925,
60290310,1.25,1.146,-0.788,103.337,13.405,88.007,
60290320,1.789,-0.021,0.205,34.492,-2.24,50.54,
60290330,-1.434,-1.946,0.977,55.842,-40.81,49.84,
60290340,-1.998,-1.998,0.762,212.73,-157.727,53.672,
60290350,0.228,0.42,1.564,382.69,-158.375,48.212,
60290360,-0.551,0.637,1.998,284.357,-206.255,-56.192,
60290370,1.527,1.868,0.143,108.027,-286.982,-98.385,
60290380,0.187,-0.569,0.984,-17.255,-93.852,-13.335,
60290390,1.511,0.182,0.543,-21.227,-2.94,7.157,
60290400,0.446,-0.188,0.902,-33.18,70.682,24.447,
60290410,0.374,-0.306,0.951,-31.622,88.9,17.815,
60290420,-0.05,-0.321,1.003,-26.845,81.62,10.972,
60290430,-0.039,-0.343,0.983,-22.277,56.647,1.54,
60290440,-0.014,-0.293,0.976,-14.455,30.205,-5.932,
60290450,0.139,-0.308,0.941,-8.942,10.167,-10.675,
60290460,0.069,-0.267,0.965,-1.47,-3.64,-8.715,
60290470,0.32,-0.105,0.958,1.627,-15.47,-7.875,
60290480,0.344,-0.174,0.938,-2.065,-16.117,-7.612,
60290490,0.409,-0.139,0.936,-3.412,-11.252,-2.975,
60290500,0.463,-0.136,0.928,-6.755,-3.412,2.66,
60290510,0.469,-0.155,0.928,-11.462,8.96,8.12,
60290510,0.41,-0.161,0.944,-15.312,19.827,12.897,
60290530,0.352,-0.159,0.961,-20.212,28.892,15.645,
60290530,0.309,-0.17,0.97,-26.11,32.27,15.347,
60290550,0.274,-0.188,0.965,-31.027,34.982,12.74,
60290550,0.242,-0.256,0.954,-34.177,34.107,9.502,
60290570,0.193,-0.262,0.927,-32.83,33.617,6.965,
60290570,0.135,-0.312,0.901,-27.772,27.65,5.722,
60290580,0.113,-0.287,0.893,-20.072,20.562,5.285,
60290590,0.108,-0.273,0.896,-12.792,9.765,4.042,
60290600,0.123,-0.252,0.897,-6.755,2.187,2.397,
60290610,0.186,-0.259,0.915,-1.277,-6.3,-0.157,
60290620,0.168,-0.275,0.901,3.692,-9.695,-3.08,
60290630,0.187,-0.194,0.925,8.487,-15.82,-5.005,
60290640,0.282,-0.278,0.934,9.047,-18.007,-2.852,
60290650,0.261,-0.237,0.96,10.867,-18.97,-2.327,
60290660,0.339,-0.19,0.993,9.047,-15.96,-0.14,
60290670,0.326,-0.153,1.012,3.78,-13.982,0.577,
60290680,0.372,-0.118,1.03,-5.022,-8.732,1.627,
60290690,0.376,-0.101,1.064,-16.502,-3.657,2.38,
60290700,0.419,-0.045,1.112,-31.027,4.567,4.812,
60290710,0.293,-0.057,1.162,-50.977,8.575,8.925,
60290720,0.341,-0.183,1.159,-71.715,9.362,15.12,
60290730,0.252,-0.015,1.087,-83.947,4.357,17.29,
60290740,0.312,-0.303,1.053,-102.567,-7.77,21.262,
60290750,0.059,-0.284,0.955,-101.78,-21.577,16.677,
60290760,0.213,-0.307,0.943,-100.467,-34.615,15.89,
60290770,0.292,-0.386,0.897,-96.547,-36.522,12.547,
60290780,0.297,-0.406,0.848,-85.12,-27.912,10.29,
60290790,0.303,-0.39,0.797,-72.222,-17.342,6.545,
60290800,0.264,-0.395,0.802,-61.267,-5.81,2.31,
60290810,0.233,-0.436,0.803,-51.065,2.555,-0.63,
60290820,0.281,-0.449,0.885,-43.802,5.845,-4.865,
60290830,0.102,-0.441,0.83,-29.75,3.832,-10.71,
60290840,0.149,-0.18,1.182,-2.17,-16.887,-27.09,
60290850,0.838,0.073,0.912,26.39,-43.802,-35.35,
60290860,0.583,0.082,0.492,39.182,-31.885,-48.055,
60290870,0.183,-0.008,0.707,24.972,-4.095,-48.702,
60290880,0.167,-0.267,0.894,20.107,-16.765,-43.575,
60290890,0.288,-0.242,0.914,35.927,-37.205,-39.27,
60290900,0.384,-0.233,0.93,46.847,-38.972,-27.335,
60290910,0.32,-0.314,0.947,52.955,-29.767,-13.86,
60290920,0.222,-0.306,0.964,60.007,-32.865,-3.57,
60290920,0.264,-0.315,0.982,64.925,-42.962,5.88,
60290940,0.246,-0.332,0.991,71.33,-54.67,13.58,
60290940,0.198,-0.368,0.907,78.802,-56.35,27.562,
60290960,0.091,-0.388,0.767,86.887,-54.6,47.372,
60290960,0.011,-0.408,0.529,91.91,-51.485,71.347,
60290980,-0.047,-0.357,0.19,93.502,-53.235,96.197,
60290980,-0.044,-0.263,-0.056,80.692,-53.847,121.31,
60291000,0.055,-0.361,-0.244,52.237,-53.077,146.702,
60291000,0.152,-0.359,-0.378,23.292,-37.957,170.38,
60291010,0.249,-0.298,-0.439,-9.205,-18.34,186.952,
60291020,0.912,-0.013,0.298,-45.202,40.547,196.157,
60291030,1.998,-1.95,0.699,-56.087,213.167,227.465,
60291040,-1.396,-0.062,0.855,277.795,206.447,90.422,
60291050,-1.965,-0.1,1.214,230.737,23.362,19.985,
60291060,0.852,-0.038,1.935,220.272,-71.487,55.405,
60291070,-0.491,0.756,1.699,156.012,-103.512,-63.56,
60291080,1.489,0.591,1.033,33.057,-138.827,-71.75,
60291090,0.88,0.084,0.889,-8.4,-94.85,-36.382,
60291100,1.057,0.06,0.825,-21.927,-39.62,2.327,
60291110,0.419,-0.248,0.902,-31.412,2.397,15.085,
60291120,0.406,-0.357,0.878,-31.272,15.487,7.087,
60291130,0.348,-0.313,0.889,-24.027,20.247,1.452,
60291140,0.215,-0.293,0.925,-16.94,22.907,0.472,
60291150,0.212,-0.234,0.936,-10.867,16.87,-1.4,
60291160,0.238,-0.173,0.952,-9.572,11.532,-4.235,
60291170,0.26,-0.242,0.93,-10.045,6.405,-6.247,
60291180,0.239,-0.27,0.924,-7.052,2.975,-7.227,
60291190,0.246,-0.233,0.933,-3.57,-1.487,-9.975,
60291200,0.321,-0.168,0.94,-2.467,-5.25,-12.18,
60291210,0.355,-0.152,0.933,-3.657,-4.69,-10.85,
60291220,0.335,-0.174,0.934,-5.705,-1.82,-7.962,
60291230,0.311,-0.172,0.94,-7.017,0.262,-6.317,
60291240,0.28,-0.165,0.948,-8.592,-0.35,-5.827,
60291250,0.246,-0.168,0.957,-10.43,-2.275,-6.475,
60291260,0.228,-0.163,0.966,-12.757,-7.227,-9.292,
60291260,0.232,-0.151,0.974,-16.345,-12.372,-14.385,
60291280,0.269,-0.128,0.987,-21.367,-19.005,-20.667,
60291280,0.29,-0.056,1.028,-29.487,-22.102,-27.667,
60291300,0.24,0.057,1.118,-40.687,-24.675,-39.585,
60291300,0.101,0.038,1.221,-57.645,-24.307,-57.995,
60291320,-0.03,-0.246,1.247,-81.357,-29.732,-81.392,
60291320,-0.038,-0.388,1.208,-116.095,3.815,-112.665,
60291330,0.223,-0.229,1.192,-152.897,32.707,-148.942,
60291340,0.488,-0.064,1.09,-189.315,39.865,-175.525,
60291350,0.693,0.151,0.998,-221.917,66.727,-189.227,
60291360,0.578,-0.232,0.979,-250.32,104.125,-182.525,
60291370,0.96,-0.404,1.07,-244.335,132.842,-185.797,
60291380,0.87,-0.496,1.105,-209.632,188.072,-197.137,
60291390,0.024,-0.851,0.692,-166.18,228.882,-203.42,
60291400,-0.272,-1.001,0.494,-125.545,237.422,-178.5,
60291410,0.205,-1.395,0.486,-90.247,227.867,-135.1,
60291420,-0.4,-1.013,0.171,-15.312,191.677,-116.532,
60291430,-0.597,-0.631,-0.314,38.062,90.282,-87.797,
60291440,-0.333,-0.682,-0.132,49.962,26.355,-4.742,
60291450,-0.578,-0.767,-0.313,90.755,-16.082,87.745,
60291460,-0.505,-0.28,-0.455,136.15,-88.882,153.02,
60291470,1.197,0.236,0.048,152.775,-216.002,182.017,
60291480,1.998,0.269,0.564,154.875,-231.717,180.25,
60291490,1.446,-0.032,1.879,196.017,-98.262,126,
60291500,-1.599,-0.692,1.289,291.217,-15.26,83.895,
60291510,-0.796,0.049,1.998,298.235,-169.627,-8.242,
60291520,0.92,0.671,1.719,203.315,-267.085,-108.727,
60291530,1.87,1.4,0.11,81.83,-231.63,-66.955,
60291540,0.267,-0.157,1.018,-30.695,-81.27,2.887,
60291550,1.445,-0.222,0.579,-28.805,-36.96,20.317,
60291560,0.737,-0.331,0.79,-34.107,26.407,11.147,
60291570,0.642,-0.098,0.861,-29.137,57.82,11.952,
60291580,0.25,-0.186,0.98,-33.215,73.115,9.782,
60291590,0.195,-0.277,0.952,-33.705,65.117,0.875,
60291600,0.145,-0.375,0.936,-27.247,51.362,-5.757,
60291610,0.22,-0.273,0.941,-17.185,38.29,-7.017,
60291620,0.212,-0.239,0.948,-12.022,28.49,-7.647,
60291630,0.272,-0.209,0.942,-9.012,20.877,-7.7,
60291640,0.302,-0.175,0.938,-7.052,16.012,-6.195,
60291650,0.299,-0.178,0.94,-6.965,15.26,-3.57,
60291660,0.307,-0.182,0.938,-6.755,13.265,-1.137,
60291670,0.253,-0.208,0.942,-6.09,13.422,3.062,
60291670,0.191,-0.224,0.949,-3.92,7.962,5.407,
60291690,0.189,-0.233,0.949,-1.592,1.015,5.53,
60291690,0.218,-0.217,0.951,1.05,-8.33,5.04,
60291710,0.272,-0.198,0.955,1.995,-13.457,5.215,
60291710,0.323,-0.202,0.958,1.785,-17.832,5.652,
60291730,0.36,-0.227,0.966,0.315,-16.817,6.772,
60291730,0.444,-0.222,0.977,-1.977,-15.837,6.86,
60291750,0.559,-0.255,0.964,-5.6,-8.435,7.402,
60291750,0.648,-0.289,0.958,-4.777,1.75,4.567,
60291760,0.688,-0.331,0.96,2.467,17.657,-2.047,
60291770,0.692,-0.326,0.994,14.332,29.89,-11.865,
60291780,0.745,-0.374,1.061,26.285,43.767,-19.897,
60291790,0.443,-0.394,1.004,43.05,73.85,-27.475,
60291800,0.112,-0.106,0.97,62.895,106.032,-26.442,
60291810,0.226,-0.083,0.902,60.585,118.247,-20.825,
60291820,0.309,-0.114,0.64,57.907,125.405,-18.795,
60291830,0.506,0.168,0.521,70.875,102.2,-39.69,
60291840,-0.037,0.517,0.542,41.37,58.275,-105.892,
60291850,-0.295,0.167,0.391,-4.322,0.21,-116.252,
60291860,-1.614,-0.287,1.442,-49.91,-26.53,-97.282,
60291870,-1.597,-0.128,0.421,-25.97,-65.082,-30.222,
60291880,0.83,0.217,0.957,-41.422,-136.622,26.565,
60291890,1.82,-0.53,1.236,-70.017,-124.145,19.302,
60291900,0.188,-0.363,1.113,-37.205,-60.322,-6.86,
60291910,-0.083,-0.069,1.002,-19.407,-46.182,-0.017,
60291920,0.764,-0.251,1.015,-23.52,-45.202,18.147,
60291930,0.623,-0.051,0.943,-17.587,-25.497,12.495,
60291940,0.215,-0.131,0.97,-24.587,-10.08,9.117,
60291950,0.185,-0.174,0.976,-26.477,-11.147,9.94,
60291960,0.295,-0.256,0.961,-24.097,-16.905,9.117,
60291970,0.27,-0.224,0.964,-18.41,-18.97,5.162,
60291980,0.285,-0.242,0.965,-13.527,-21.752,3.745,
60291990,0.381,-0.201,0.949,-8.102,-22.33,4.462,
60292000,0.395,-0.179,0.951,-5.74,-19.355,5.652,
60292010,0.43,-0.154,0.957,-6.055,-13.422,8.627,
60292010,0.437,-0.142,0.967,-8.75,-8.225,10.745,
60292030,0.438,-0.152,0.976,-13.265,-1.12,12.862,
60292030,0.445,-0.165,0.991,-18.27,4.287,14.455,
60292050,0.505,-0.136,1.036,-24.885,12.617,15.785,
60292050,0.51,-0.047,1.159,-35.455,23.52,16.415,
60292070,0.427,-0.06,1.245,-52.832,38.01,16.607,
60292070,0.34,-0.2,1.106,-65.905,41.632,12.67,
60292080,0.311,-0.484,1.006,-68.057,23.537,9.502,
60292090,0.472,-0.87,1.117,-56.56,6.037,10.92,
60292100,0.862,-0.875,1.058,-16.555,30.94,18.515,
60292110,0.831,-0.78,1.07,29.487,63.192,40.127,
60292120,0.281,-0.729,0.951,58.817,61.32,68.197,
60292130,0.387,-0.52,0.417,89.967,28.525,95.76,
60292140,0.633,-0.439,0.468,88.182,4.392,97.737,
60292150,1.01,-0.682,0.539,56.227,-21.105,83.982,
60292160,1.135,-0.747,0.455,48.58,-32.795,63.857,
60292170,0.816,-0.617,0.401,37.677,-39.742,36.575,
60292180,0.558,-0.699,0.362,14.612,-57.452,22.802,
60292190,0.49,-0.719,0.387,-0.052,-77.385,22.575,
60292200,0.335,-0.714,0.515,-12.67,-82.355,34.58,
60292210,0.233,-0.735,0.642,-20.387,-83.702,52.885,
60292220,0.269,-0.639,0.684,-19.337,-80.465,69.405,
60292230,0.345,-0.48,0.7,-20.615,-73.605,78.347,
60292240,0.39,-0.441,0.731,-29.505,-60.725,81.34,
60292250,0.386,-0.392,0.745,-38.412,-52.01,73.272,
60292260,0.362,-0.33,0.743,-45.955,-45.937,59.78,
60292270,0.316,-0.32,0.713,-53.865,-48.37,40.95,
60292280,0.389,-0.263,0.67,-58.415,-47.547,21.875,
60292290,0.353,-0.207,0.669,-66.902,-40.967,4.48,
60292300,0.277,-0.233,0.728,-76.177,-35.175,-10.15,
60292310,0.211,-0.248,0.76,-80.92,-36.627,-23.38,
60292320,0.216,-0.213,0.741,-81.62,-38.01,-32.182,
60292330,0.114,-0.177,0.67,-82.985,-35.35,-34.597,
60292340,-0.053,-0.096,0.572,-86.345,-36.61,-29.855,
60292350,-0.043,-0.055,0.624,-96.127,-41.247,-16.292,
60292360,0.414,-0.103,1.278,-100.257,-22.785,2.327,
60292370,0.813,-0.592,1.865,-31.955,138.127,56.42,
60292380,-1.872,1.37,1.341,149.905,185.815,70.892,
60292390,-0.772,1.993,1.643,193.532,114.45,73.657,
60292400,0.149,0.652,1.342,114.45,105.035,109.917,
60292410,-1.222,-1.833,1.412,109.655,52.85,59.272,
60292420,-0.394,-0.247,1.178,168.507,-25.007,-35.245,
60292420,-0.094,0.286,1.267,135.257,-55.177,-84.192,
60292440,-0.137,-0.471,1.346,101.85,-91.84,-121.082,
60292440,0.994,-0.349,1.193,91.682,-122.867,-119.35,
60292450,1.593,0.499,0.881,74.655,-97.195,-77.455,
60292460,0.828,0.195,0.887,32.06,-23.887,-17.237,
60292470,0.496,-0.031,0.924,6.72,16.31,6.86,
60292480,0.444,-0.054,0.918,-7.332,32.515,7.21,
60292490,0.441,-0.181,0.902,-14.927,41.09,8.242,
60292500,0.186,-0.241,0.963,-14.77,47.005,11.567,
60292510,0.132,-0.206,0.981,-13.177,36.085,8.19,
60292520,0.213,-0.215,0.957,-13.422,24.99,4.322,
60292530,0.226,-0.235,0.947,-11.742,15.505,3.99,
60292540,0.198,-0.217,0.959,-9.887,9.8,4.795,
60292550,0.22,-0.184,0.967,-10.08,1.085,3.115,
60292560,0.259,-0.173,0.969,-13.142,-3.867,1.995,
60292570,0.291,-0.165,0.974,-17.622,-8.942,1.155,
60292580,0.315,-0.163,0.985,-24.027,-9.502,1.75,
60292590,0.322,-0.155,1.005,-31.797,-11.042,2.572,
60292600,0.346,-0.146,1.018,-41.195,-10.307,3.237,
60292610,0.355,-0.089,1.05,-50.592,-8.732,1.645,
60292620,0.283,-0.124,1.015,-59.43,1.102,-5.512,
60292630,0.334,-0.335,0.96,-69.93,0.612,-6.492,
60292640,0.452,-0.17,0.881,-73.465,2.957,-4.025,
60292650,0.244,-0.318,0.937,-80.15,18.62,2.502,
60292660,0.377,-0.183,0.88,-79.205,12.792,7.98,
60292670,0.304,-0.275,0.87,-79.502,10.01,14.35,
60292680,0.271,-0.295,0.873,-75.6,6.405,19.162,
60292690,0.29,-0.412,0.857,-71.802,0.542,23.607,
60292700,0.215,-0.186,0.872,-64.102,-3.395,23.975,
60292710,0.281,-0.36,0.906,-67.76,-5.967,27.44,
60292720,0.259,-0.291,0.941,-68.897,-7.385,25.462,
60292730,0.277,-0.298,0.981,-77.245,-9.292,26.442,
60292740,0.323,-0.271,1.039,-89.32,-12.197,27.737,
60292750,0.357,-0.243,1.121,-107.992,-12.985,30.327,
60292760,0.41,-0.197,1.231,-135.835,-14.192,34.405,
60292760,0.467,-0.067,1.325,-174.685,-11.707,39.322,
60292780,0.648,-0.034,1.482,-223.807,-0.665,44.065,
60292780,0.339,0.13,1.516,-275.765,14.385,41.3,
60292800,0.086,-0.281,1.247,-320.407,-6.615,39.725,
60292800,0.13,-0.955,1.138,-354.165,-45.377,22.837,
60292820,0.602,-1.637,1.392,-356.667,-58.432,3.272,
60292820,1.357,-1.78,1.748,-301.752,-28.945,-22.015,
60292830,0.988,-0.598,0.862,-181.405,-1.645,-77.927,
60292840,1.979,-0.428,0.637,-131.355,15.592,-170.327,
60292850,-0.093,-0.989,0.119,-138.04,49.105,-250.897,
60292860,0.31,-1.468,0.601,-171.342,-5.635,-291.882,
60292870,-0.188,-1.513,0.122,-114.73,-73.272,-248.412,
60292880,-0.337,-1.499,0.323,-88.06,-59.815,-180.617,
60292890,-0.346,-1.513,0.17,-49.56,-37.625,-82.145,
60292900,-0.101,-1.234,-0.062,-9.432,-32.34,-1.802,
60292910,0.172,-1.217,-0.213,11.882,-34.965,58.765,
60292920,0.551,-1.108,-0.282,19.985,-27.965,82.075,
60292930,0.63,-0.984,-0.292,20.422,-14.77,75.39,
60292940,0.51,-0.926,-0.18,-2.327,-9.065,41.51,
60292950,0.288,-0.915,-0.001,-26.862,-22.242,6.93,
60292960,0.216,-0.86,0.137,-42.157,-38.027,-10.482,
60292970,0.136,-0.731,0.158,-47.67,-46.585,-11.095,
60292980,0.127,-0.592,0.202,-48.125,-45.395,0.367,
60292990,0.158,-0.483,0.29,-44.87,-43.05,13.072,
60293000,0.229,-0.493,0.429,-33.81,-37.852,18.427,
60293010,0.102,-0.261,0.516,-21.525,-32.97,15.067,
60293020,0.037,-0.11,0.532,-9.135,-29.907,30.012,
60293030,0.242,-0.021,0.533,1.767,-32.06,41.597,
60293040,0.457,-0.015,0.576,11.427,-18.917,45.045,
60293050,0.429,0.016,0.578,17.78,-3.99,34.702,
60293060,0.378,-0.007,0.577,23.607,0.105,21.682,
60293070,0.378,-0.103,0.55,24.657,-8.102,6.825,
60293080,0.425,-0.17,0.503,28.7,-13.055,1.347,
60293090,0.408,-0.271,0.453,30.082,-12.512,3.99,
60293100,0.36,-0.344,0.417,30.397,-13.912,13.195,
60293110,0.37,-0.389,0.417,29.522,-21.577,27.702,
60293120,0.435,-0.461,0.396,27.16,-31.587,46.672,
60293130,0.501,-0.487,0.37,25.48,-40.04,64.435,
60293140,0.551,-0.445,0.33,21.507,-48.93,75.967,
60293140,0.589,-0.447,0.307,11.882,-57.75,81.917,
60293160,0.639,-0.462,0.312,-0.542,-66.955,81.357,
60293160,0.644,-0.453,0.361,-14.7,-72.94,75.792,
60293170,0.692,-0.465,0.468,-30.59,-78.54,66.605,
60293180,0.714,-0.515,0.624,-43.96,-79.187,57.172,
60293190,0.723,-0.536,0.9,-51.922,-79.292,46.375,
60293200,0.799,-0.608,1.319,-57.05,-76.072,36.452,
60293210,0.86,-0.776,1.414,-41.51,-65.782,32.27,
60293220,0.372,-0.811,1.299,1.75,-64.872,36.575,
60293230,0.599,-0.89,1.201,33.67,-88.97,44.677,
60293240,0.954,-1.061,1.185,40.985,-86.555,56.752,
60293250,0.821,-1.096,1.116,40.075,-65.537,61.932,
60293260,0.74,-1.064,1,35.035,-56.192,52.307,
60293270,0.796,-1.048,0.868,24.08,-61.355,28,
60293280,0.768,-1.053,0.775,13.825,-61.722,-6.037,
60293290,0.614,-1.104,0.687,4.83,-59.692,-46.095,
60293300,0.371,-1.115,0.575,-0.437,-53.567,-77.49,
60293310,0.093,-1.019,0.48,-0.595,-52.745,-91.927,
60293320,0.085,-0.906,0.394,-0.647,-51.24,-91.787,
60293330,0.199,-0.922,0.345,0.367,-38.29,-80.64,
60293340,0.171,-0.99,0.235,6.737,-7.612,-65.747,
60293350,-0.153,-0.945,0.019,22.417,15.05,-56.21,
60293360,-0.525,-0.744,-0.181,35.612,15.837,-46.532,
60293370,-0.461,-0.594,-0.212,30.642,6.107,-26.407,
60293380,-0.352,-0.638,-0.203,14.98,18.952,8.47,
60293390,-0.45,-0.533,-0.142,9.572,41.09,42.052,
60293400,-0.471,-0.38,-0.045,10.325,55.51,71.82,
60293410,-0.332,-0.289,0.042,12.88,57.4,95.34,
60293420,-0.063,-0.229,0.146,18.83,61.267,108.027,
60293430,0.085,-0.195,0.287,26.407,70.507,109.077,
60293440,0.149,-0.134,0.413,35.595,76.405,102.095,
60293450,0.326,-0.076,0.515,43.785,76.772,86.765,
60293460,0.521,-0.096,0.664,52.395,76.93,67.795,
60293470,0.813,-0.185,0.856,66.57,82.617,46.095,
60293480,1.036,-0.355,1.04,87.325,96.092,18.042,
60293490,1.038,-0.52,1.093,118.457,112,-14.472,
60293500,0.816,-0.549,1.02,154.525,110.652,-47.25,
60293510,0.705,-0.596,0.934,178.202,93.905,-69.44,
60293510,0.665,-0.756,0.841,185.85,71.015,-79.975,
60293530,0.541,-0.95,0.794,193.165,48.772,-79.467,
60293530,0.347,-0.969,0.665,203.227,25.27,-73.377,
60293550,0.27,-0.83,0.523,211.172,4.655,-55.51,
60293550,0.299,-0.72,0.43,206.447,-13.3,-30.73,
60293570,0.269,-0.701,0.295,196.91,-25.725,-7.017,
60293570,0.215,-0.566,0.173,185.132,-42.857,4.795,
60293580,0.249,-0.451,0.095,164.15,-58.572,13.545,
60293590,0.415,-0.413,0.131,135.17,-66.885,23.66,
60293600,0.508,-0.399,0.322,104.125,-59.377,35.945,
60293610,0.502,-0.466,0.68,74.742,-52.535,49.07,
60293620,0.528,-0.565,1.101,55.317,-52.972,61.932,
60293630,0.648,-0.456,1.717,48.02,-62.772,66.377,
60293640,0.834,-0.516,1.998,38.552,-63.945,68.092,
60293650,0.368,-1.025,1.993,50.47,-68.6,72.747,
60293660,-0.029,-0.94,1.54,102.9,-99.487,74.147,
60293670,0.304,0.084,1.095,134.085,-134.785,69.965,
60293680,0.674,-1.271,1.005,54.722,-118.755,100.835,
60293690,0.618,-1.025,1.097,42.367,-75.337,64.487,
60293700,0.332,-0.892,0.921,9.59,-38.797,13.265,
60293710,0.486,-0.938,0.705,-35.857,-21.14,-50.977,
60293720,0.295,-0.584,0.899,-87.255,-20.072,-140.787,
60293730,0.326,-1.298,1.091,-149.187,-17.955,-211.487,
60293740,-0.351,-1.308,0.946,-144.357,5.267,-263.637,
60293750,-0.846,-0.976,0.577,-132.335,14.665,-283.237,
60293760,-0.679,-0.906,0.345,-134.89,27.02,-256.725,
60293770,-0.318,-0.912,0.351,-143.342,68.845,-209.09,
60293780,0.222,-1.037,0.747,-153.895,151.06,-147.507,
60293790,0.408,-1.409,1.113,-144.147,247.415,-86.887,
60293800,0.096,-1.334,1.281,-97.562,308.28,-54.915,
60293810,-0.205,-0.99,1.241,-56.07,297.552,-41.965,
60293820,0.058,-0.766,1.086,-36.347,234.115,-32.322,
60293830,0.748,-0.594,0.77,-25.795,183.47,-18.62,
60293830,1.481,-0.358,0.514,-24.167,192.412,-6.055,
60293850,1.368,-0.43,0.479,-33.95,227.01,-12.897,
60293850,0.74,-0.426,0.456,-32.217,214.165,-34.527,
60293870,0.273,-0.244,0.392,-26.145,142.572,-50.032,
60293870,0.402,-0.166,0.34,-27.79,58.712,-38.167,
60293890,0.645,-0.159,0.296,-29.19,17.29,-2.695,
60293890,0.502,-0.176,0.258,-21.052,11.41,42.315,
60293910,0.319,-0.143,0.254,-9.31,10.552,83.895,
60293910,0.189,-0.177,0.27,2.17,-6.37,122.797,
60293920,0.145,-0.285,0.282,12.827,-31.64,162.872,
60293930,0.203,-0.38,0.359,23.117,-51.835,206.465,
60293940,0.121,-0.618,0.434,34.965,-51.677,257.232,
60293950,-0.774,-0.894,0.157,61.057,-61.775,298.69,
60293960,-1.332,0.43,1.107,135.152,-166.792,296.607,
60293970,1.795,-0.374,1.71,131.162,-334.075,316.96,
60293980,1.998,-0.063,1.346,213.692,-156.257,233.345,
60293990,-0.118,-0.431,1.071,252.997,19.285,116.112,
60294000,-1.731,0.09,0.66,285.46,-95.76,98.787,
60294010,1.72,-0.157,1.354,274.505,-154.28,111.282,
60294020,-1.072,-0.372,1.144,278.862,-110.617,14.262,
60294030,-0.226,0.019,1.475,270.76,-129.307,-68.285,
60294040,-0.078,-0.423,1.862,227.552,-167.58,-119.035,
60294050,1.237,0.051,1.496,178.937,-178.99,-116.62,
60294060,1.957,1.764,0.658,103.267,-123.147,-47.705,
60294070,0.708,0.1,0.864,-3.01,-4.165,0.84,
60294080,0.765,-0.156,0.831,-25.077,46.252,18.322,
60294090,0.209,-0.227,0.953,-29.015,66.447,15.015,
60294100,0.125,-0.211,0.98,-27.825,62.335,10.622,
60294110,-0.026,-0.298,0.981,-26.635,46.445,1.89,
60294120,0.082,-0.303,0.948,-22.067,27.457,-7.997,
60294130,0.124,-0.269,0.949,-15.47,11.795,-13.492,
60294140,0.155,-0.281,0.945,-9.17,0.612,-13.405,
60294150,0.167,-0.218,0.957,-2.8,-10.517,-11.97,
60294160,0.223,-0.143,0.96,-0.98,-18.69,-12.18,
60294170,0.294,-0.148,0.947,-3.185,-24.587,-13.545,
60294180,0.324,-0.094,0.953,-5.67,-25.2,-12.95,
60294190,0.276,-0.142,0.96,-10.167,-24.867,-11.095,
60294200,0.347,-0.171,0.941,-13.93,-26.092,-10.465,
60294210,0.405,-0.148,0.94,-16.922,-24.395,-7.98,
60294220,0.368,-0.132,0.976,-22.015,-20.405,-3.517,
60294230,0.318,-0.086,1.042,-32.567,-19.67,-2.38,
60294240,0.297,-0.018,1.151,-49.017,-22.837,-5.775,
60294250,0.146,0.127,1.37,-69.912,-26.407,-15.662,
60294260,-0.031,-0.272,1.401,-104.51,-44.922,-35.035,
60294260,0.452,-0.517,1.194,-144.025,-60.077,-54.775,
60294280,-0.483,-0.245,1.499,-172.025,-35.262,-76.072,
60294280,0.652,0.218,0.898,-168.787,-82.845,-98.42,
60294300,0.321,-0.666,0.946,-199.517,-38.167,-95.655,
60294300,0.057,-1.28,0.835,-214.567,-2.625,-91.035,
60294320,0.464,-1.341,1.065,-200.025,51.695,-93.66,
60294320,-0.613,-1.998,1.411,-200.427,145.95,-23.782,
60294330,-1.848,-1.496,1.444,-66.535,167.282,98.735,
60294340,1.036,0.009,0.098,46.287,36.172,211.33,
60294350,1.792,0.594,-0.157,37.117,62.23,248.92,
60294360,1.605,1.601,-0.245,49.017,81.585,196.945,
60294370,1.43,1.977,-0.273,56.752,44.135,124.162,
60294380,0.899,1.786,-0.218,72.52,27.125,76.965,
60294390,-0.033,1.379,-0.964,112.507,15.942,74.445,
60294400,1.579,-0.35,1.011,76.825,-7.822,85.697,
60294410,0.445,-1.998,0.068,78.067,-104.037,156.747,
60294420,-1.021,-0.357,0.137,366.782,-58.24,45.447,
60294430,0.952,1.633,1.814,435.522,-82.705,42.7,
60294440,-1.723,0.462,1.998,328.842,-119.595,12.617,
60294450,1.503,1.125,1.487,187.74,-183.837,-77.227,
60294460,1.599,1.039,0.469,43.837,-132.965,-53.655,
60294470,1.244,0.08,0.745,-34.352,12.04,8.925,
60294480,0.231,-0.307,0.964,-43.942,75.617,24.482,
60294490,0.292,-0.154,0.974,-39.655,77.017,14.472,
60294500,-0.143,-0.452,0.969,-37.362,67.532,9.572,
60294510,-0.187,-0.411,0.95,-27.457,40.53,-3.342,
60294520,0.04,-0.406,0.936,-15.697,12.32,-19.74,
60294530,0.254,-0.261,0.936,-4.69,-4.497,-21.892,
60294540,0.096,-0.275,0.965,3.605,-11.217,-12.967,
60294550,0.228,-0.1,0.979,7.052,-22.487,-11.707,
60294560,0.381,-0.115,0.948,1.767,-25.655,-13.02,
60294570,0.388,-0.089,0.951,-1.837,-20.37,-6.37,
60294580,0.354,-0.162,0.941,-6.86,-13.685,0.07,
60294580,0.389,-0.16,0.939,-10.552,-8.225,3.15,
60294600,0.375,-0.132,0.958,-14.7,-2.1,6.877,
60294600,0.354,-0.089,0.989,-22.75,4.147,9.257,
60294620,0.388,-0.102,1.006,-34.86,9.17,8.225,
60294620,0.42,-0.2,1.007,-48.125,17.727,7.437,
60294640,0.358,-0.081,1.031,-57.365,27.23,6.947,
60294640,0.263,-0.227,1.036,-66.78,35.105,4.83,
60294660,0.189,-0.257,1.004,-68.6,35.455,-4.077,
60294660,0.168,-0.265,0.986,-72.695,31.272,-13.3,
60294670,0.118,-0.251,0.962,-76.387,23.257,-26.162,
60294680,0.143,-0.271,0.933,-79.712,17.955,-39.567,
60294690,0.098,-0.422,0.945,-87.832,25.55,-56.927,
60294700,-0.055,-0.269,0.96,-88.585,18.112,-74.2,
60294710,0.231,-0.17,0.879,-80.64,3.027,-82.95,
60294720,0.208,-0.397,0.831,-79.012,2.975,-89.075,
60294730,0.095,-0.399,0.757,-65.345,-2.327,-99.155,
60294740,0.349,-0.406,0.754,-52.867,-2.03,-106.137,
60294750,0.468,-0.307,0.799,-37.712,4.375,-121.292,
60294760,0.157,-0.27,0.72,-20.65,18.287,-137.69,
60294770,-0.188,-0.437,0.663,-7.647,18.48,-142.222,
60294780,-0.588,-0.46,0.644,12.74,0.14,-130.165,
60294790,0.251,-0.494,0.657,32.865,-36.662,-105.332,
60294800,0.691,-0.644,0.638,54.722,-47.215,-85.575,
60294810,0.835,-0.234,0.757,79.8,-42.14,-65.642,
60294820,0.889,-0.07,0.974,82.145,-23.135,-31.622,
60294830,0.769,-0.002,1.256,66.85,1.732,4.515,
60294840,0.524,0.16,1.393,30.695,15.26,34.055,
60294850,0.353,0.357,1.461,-19.88,9.467,54.81,
60294860,0.37,0.181,1.405,-76.055,-3.395,72.887,
60294870,0.406,-0.226,1.148,-123.27,-22.242,90.825,
60294880,0.447,-0.047,1.096,-142.555,-28.875,95.287,
60294890,0.277,-0.209,1.129,-170.94,-30.292,96.46,
60294900,0.214,-0.184,1.073,-182.84,-33.092,90.055,
60294910,0.144,-0.31,0.998,-186.112,-38.885,72.1,
60294920,0.137,-0.559,0.887,-179.427,-41.527,54.11,
60294930,-0.059,-0.594,0.738,-164.552,-36.277,33.04,
60294940,-0.008,-0.546,0.818,-147.56,-47.757,11.077,
60294950,0.041,-0.657,0.841,-129.395,-69.44,-8.575,
60294960,0.435,-0.78,0.902,-102.76,-76.387,-21.927,
60294970,0.829,-0.697,0.996,-63.875,-37.537,-29.295,
60294980,1.477,-0.468,1.691,-10.657,37.065,-59.15,
60294990,-0.921,-0.356,1.122,100.205,143.062,-81.83,
60295000,-0.772,0.42,0.561,147.822,57.855,-85.697,
60295010,0.621,-0.178,0.366,116.497,2.38,-60.62,
60295010,0.559,-0.796,0.631,90.195,61.162,-44.817,
60295030,0.209,-0.588,0.561,106.767,107.642,-47.617,
60295030,0.192,-0.396,0.377,103.81,100.03,-43.907,
60295050,0.519,-0.412,0.224,75.11,86.135,-39.235,
60295050,0.656,-0.325,0.132,49.192,88.305,-39.935,
60295070,0.533,-0.298,0.051,27.527,91.752,-35.752,
60295070,0.503,-0.222,-0.081,15.067,75.845,-25.427,
60295080,0.503,-0.138,-0.309,6.177,44.432,-13.405,
60295090,0.612,-0.064,-0.594,-5.95,4.795,-1.662,
60295100,0.472,0.034,-0.836,-25.725,-34.632,11.97,
60295110,0.428,0.03,-0.856,-65.205,-84.35,24.36,
60295120,0.921,0.004,-0.939,-108.745,-106.645,48.615,
60295130,1.068,-1.547,1.893,-156.747,160.51,174.807,
60295140,-1.726,-0.826,-1.642,312.007,-16.677,171.762,
60295150,1.937,0.975,1.158,370.352,-124.705,74.585,
60295160,-1.409,-0.607,1.61,263.62,-28.367,130.077,
60295170,-1.24,0.755,1.872,284.235,-67.322,-12.757,
60295180,0.1,-0.136,1.939,171.85,-142.712,-109.602,
60295190,1.922,0.923,1.069,94.01,-185.43,-141.102,
60295200,1.379,0.57,0.737,21.56,-90.212,-50.312,
60295210,0.915,-0.018,0.815,-18.077,3.972,7.227,
60295220,0.372,-0.14,0.948,-29.942,48.457,14.035,
60295230,0.394,-0.235,0.927,-35.035,59.097,9.642,
60295240,0.036,-0.358,0.963,-31.745,59.237,7.437,
60295250,-0.068,-0.345,0.961,-23.695,39.637,0.595,
60295260,0.113,-0.346,0.926,-16.047,16.222,-10.062,
60295270,0.281,-0.234,0.934,-8.837,1.242,-11.462,
60295280,0.203,-0.203,0.959,-6.632,-3.045,-4.532,
60295290,0.172,-0.215,0.965,-8.067,-10.465,-3.395,
60295300,0.28,-0.161,0.966,-11.165,-18.305,-6.842,
60295310,0.398,-0.079,0.985,-16.765,-20.002,-5.512,
60295320,0.399,-0.014,1.031,-28.017,-14.28,-0.665,
60295330,0.314,-0.041,1.099,-43.61,-8.032,2.03,
60295330,0.267,-0.235,1.136,-60.445,-6.09,-0.91,
60295350,0.37,-0.132,1.14,-77.84,-6.107,-7.315,
60295350,0.611,-0.154,1.143,-101.85,-2.52,-4.357,
60295370,0.73,-0.013,1.103,-124.81,11.987,3.78,
60295370,0.492,-0.171,1.18,-153.93,50.855,19.057,
60295390,0.845,-0.079,1.133,-172.865,45.92,30.59,
60295390,1.036,-0.317,1.077,-185.307,47.407,47.285,
60295410,1.396,-0.687,1.42,-180.46,75.582,61.6,
60295410,0.72,-0.841,1.28,-140.63,112.052,71.452,
60295420,-0.078,-0.223,0.848,-98.997,115.902,78.732,
60295430,0.321,-0.206,0.925,-94.185,43.627,67.602,
60295440,0.596,-0.385,0.762,-80.675,-28.402,38.657,
60295450,0.929,-0.107,0.764,-52.867,-49.98,-5.005,
60295460,0.29,-0.388,0.501,-30.992,-72.24,-39.322,
60295470,1.839,-0.381,-0.27,0.455,-80.955,-90.755,
60295480,-1.066,-0.286,0.214,23.012,-77.087,-174.562,
60295490,-1.291,-0.081,-0.447,55.702,-77.927,-131.757,
60295500,-0.873,0.501,-1.316,115.272,-47.687,-25.305,
60295510,-0.066,0.939,-1.989,132.702,6.492,57.715,
60295520,0.513,0.371,-1.902,97.632,48.002,96.845,
60295530,-1.62,-1.898,1.042,66.92,-0.822,124.565,
60295540,0.04,-1.998,-0.991,221.375,-203.315,154.822,
60295550,0.138,-1.998,1.025,351.977,47.215,213.675,
60295560,-1.312,1.572,1.853,539.647,11.777,97.037,
60295570,-0.305,-0.833,1.958,283.692,-174.142,-29.942,
60295580,1.549,1.92,0.145,92.33,-220.955,-120.417,
60295590,0.978,-0.177,0.903,-61.075,-35.997,-12.302,
60295600,0.276,-0.132,0.943,-68.635,44.957,27.177,
60295610,0.341,-0.518,0.92,-66.307,57.207,16.992,
60295620,0.089,-0.614,0.893,-47.722,48.632,10.955,
60295630,-0.048,-0.304,0.932,-31.605,33.11,1.995,
60295640,0.191,-0.402,0.901,-21.612,11.707,-11.9,
60295650,0.387,-0.26,0.924,-10.29,2.94,-15.487,
60295660,0.274,-0.286,0.922,-2.362,4.375,-5.005,
60295670,0.101,-0.266,0.959,4.567,-0.052,-0.84,
60295680,0.326,-0.073,0.967,4.252,-10.727,-7.49,
60295690,0.447,-0.19,0.916,-2.572,-10.08,-6.58,
60295700,0.416,-0.138,0.932,-2.817,-1.54,0.595,
60295710,0.29,-0.22,0.937,-4.76,5.005,6.212,
60295720,0.22,-0.204,0.946,-4.515,3.272,6.195,
60295730,0.256,-0.193,0.946,-4.812,-1.085,4.357,
60295740,0.317,-0.173,0.949,-6.142,-4.76,3.465,
60295750,0.386,-0.143,0.962,-9.607,-2.975,5.775,
60295760,0.359,-0.116,0.992,-15.802,-0.245,10.447,
60295760,0.338,-0.113,1.036,-26.67,2.345,14.717,
60295780,0.371,-0.063,1.128,-42.192,2.467,17.255,
60295780,0.37,0.027,1.278,-62.912,7.647,19.18,
60295800,0.383,-0.063,1.409,-96.057,8.837,21.262,
60295800,0.285,0.086,1.467,-134.89,-1.75,20.405,
60295820,0.441,0.044,1.357,-180.145,-30.065,20.492,
60295820,0.766,-0.094,1.213,-223.177,-16.222,24.255,
60295830,0.713,-0.047,1.25,-252.84,1.19,33.425,
60295840,1.292,-0.5,1.507,-261.8,25.777,52.167,
60295850,1.092,-0.801,1.419,-233.555,89.197,70.752,
60295860,0.242,-0.249,0.974,-181.702,120.61,67.812,
60295870,0.144,0.483,1.236,-141.242,98.315,59.062,
60295880,0.734,1.07,1.416,-91.822,69.352,46.112,
60295890,1.05,1.934,1.634,4.97,36.487,-30.905,
60295900,0.91,1.997,1.573,79.345,-31.097,-139.492,
60295910,-1.417,1.996,1.358,140.682,-39.252,-171.71,
60295920,-1.857,1.414,1.406,189.525,-5.932,-71.872,
60295930,-1.605,-0.132,0.478,253.19,-11.76,56.297,
60295940,-0.806,-0.616,-1.23,321.335,-7.927,159.565,
60295950,0.111,-0.938,-1.574,273.332,42.105,226.1,
60295960,0.188,-1.971,-1.25,139.492,56.157,233.94,
60295970,0.869,-1.998,-1.434,95.602,38.745,202.107,
60295980,0.565,-1.998,-1.242,55.142,53.795,160.387,
60295990,-1.807,-1.998,1,-86.992,-163.73,131.792,
60296000,-1.476,-1.83,0.63,257.897,-352.625,149.327,
60296010,1.803,1.908,1.998,544.635,-158.515,88.55,
60296020,-1.057,-0.641,1.971,209.562,-242.287,-39.217,
60296030,1.906,1.615,-0.291,26.897,-280.122,-80.815,
60296040,-0.578,-0.083,1.1,-49.647,-23.205,-21.98,
60296050,1.238,-0.747,0.676,-55.912,17.972,24.797,
60296060,0.06,0.048,1.002,-33.25,60.445,12.53,
60296070,0.187,-0.25,0.985,-42.122,58.992,10.762,
60296080,0.027,-0.303,0.984,-42.91,49.595,-5.512,
60296080,0.047,-0.474,0.911,-34.317,27.877,-15.172,
60296100,0.368,-0.317,0.92,-20.545,10.832,-18.83,
60296100,0.381,-0.225,0.936,-12.232,10.64,-9.66,
60296120,0.191,-0.311,0.928,-7.227,10.062,-0.507,
60296120,0.288,-0.153,0.948,-2.73,5.232,-3.185,
60296140,0.352,-0.031,0.975,-6.965,4.672,-2.012,
60296140,0.324,-0.148,0.936,-17.412,9.59,1.995,
60296160,0.257,-0.322,0.889,-17.272,9.887,1.942,
60296160,0.226,-0.278,0.914,-7,8.242,2.38,
60296170,0.215,-0.198,0.949,-1.382,2.03,2.45,
60296180,0.232,-0.216,0.939,-1.925,-2.1,0.997,
60296190,0.283,-0.239,0.921,-1.207,-7.087,-0.98,
60296200,0.277,-0.23,0.923,1.925,-7.035,0.087,
60296210,0.251,-0.208,0.939,4.97,-9.677,1.155,
60296220,0.262,-0.194,0.945,5.267,-11.007,1.207,
60296230,0.27,-0.182,0.944,4.462,-14.542,0.367,
60296240,0.276,-0.19,0.944,2.782,-15.277,0.612,
60296250,0.291,-0.183,0.945,1.575,-18.165,0.945,
60296260,0.306,-0.183,0.944,-0.315,-17.99,2.625,
60296270,0.295,-0.192,0.941,-1.837,-19.757,4.042,
60296280,0.278,-0.206,0.936,-2.992,-19.705,5.022,
60296290,0.285,-0.212,0.93,-2.817,-22.61,4.392,
60296300,0.293,-0.214,0.918,-1.977,-22.855,4.165,
60296310,0.304,-0.225,0.907,0,-24.605,3.552,
60296320,0.319,-0.225,0.902,2.59,-23.695,3.027,
60296330,0.342,-0.213,0.897,5.355,-23.257,2.257,
60296340,0.368,-0.195,0.892,7.035,-19.477,1.802,
60296350,0.373,-0.194,0.897,7.42,-15.47,1.645,
60296360,0.364,-0.192,0.899,7.157,-9.905,1.085,
60296370,0.351,-0.193,0.901,6.965,-6.23,-0.087,
60296380,0.334,-0.192,0.906,6.842,-2.747,-1.207,
60296390,0.322,-0.187,0.922,6.597,-1.33,-2.467,
60296400,0.295,-0.203,0.926,6.02,-1.732,-3.185,
60296410,0.288,-0.184,0.918,6.772,-3.675,-3.395,
60296420,0.236,-0.152,0.943,6.195,-6.527,-4.147,
60296430,0.27,-0.157,0.936,3.062,-11.602,-4.777,
60296440,0.283,-0.138,0.941,-0.367,-16.152,-5.372,
60296450,0.258,-0.165,0.936,-4.795,-19.267,-5.495,
60296460,0.19,-0.188,0.925,-6.965,-26.565,-8.225,
60296470,0.317,-0.229,0.903,-6.072,-35.122,-13.335,
60296480,0.514,-0.183,0.87,-2.782,-36.767,-16.45,
60296490,0.569,-0.11,0.852,-3.045,-22.977,-13.3,
60296500,0.523,-0.138,0.869,-7.35,-5.617,-5.845,
60296510,0.382,-0.17,0.92,-10.832,8.33,-0.035,
60296510,0.302,-0.135,0.972,-14.595,10.097,0.437,
60296530,0.287,-0.108,1.024,-23.327,6.422,-0.437,
60296530,0.36,-0.001,1.087,-35.35,-3.132,-1.277,
60296550,0.27,0.056,1.106,-50.662,-3.867,-6.055,
60296550,0.134,-0.159,1.083,-56.77,-9.292,-19.477,
60296560,0.133,-0.511,1.044,-70.14,-26.565,-26.95,
60296570,0.475,-0.308,0.928,-70.63,-39.83,-35.035,
60296580,0.213,-0.316,1.037,-80.92,-10.972,-49.175,
60296590,0.209,-0.142,1.039,-85.207,-22.225,-55.195,
60296600,0.407,-0.228,0.984,-92.155,-32.515,-55.72,
60296610,0.339,-0.306,0.982,-97.79,-30.765,-58.87,
60296620,0.26,-0.217,1.001,-94.552,-30.887,-63.875,
60296630,0.413,-0.268,0.938,-93.222,-39.847,-66.482,
60296640,0.466,-0.695,0.868,-109.987,-7.752,-63.122,
60296650,0.242,-0.986,1.262,-116.97,21.49,-70.35,
60296660,0.663,-0.901,1.377,-94.832,32.305,-94.71,
60296670,0.807,-1.305,1.312,-75.495,65.835,-108.675,
60296680,0.12,-1.856,1.262,-49.175,101.762,-108.867,
60296690,-0.607,-1.188,0.695,22.347,95.847,-130.34,
60296700,-0.084,-0.904,0.675,9.432,58.047,-121.485,
60296710,0.293,-1.604,0.762,-32.06,56.84,-93.187,
60296720,-0.108,-1.358,0.699,-19.862,76.335,-83.44,
60296730,-0.248,-0.927,0.574,-17.08,69.79,-71.015,
60296740,-0.024,-0.955,0.52,-38.692,59.255,-44.975,
60296750,0.066,-0.824,0.503,-45.255,64.155,-23.222,
60296760,0.027,-0.574,0.402,-44.275,71.417,-3.482,
60296770,0.081,-0.387,0.314,-46.375,71.12,16.502,
60296780,0.23,-0.2,0.353,-46.375,68.547,37.712,
60296790,0.238,-0.128,0.394,-44.047,65.205,66.132,
60296800,0.398,-0.069,0.398,-40.6,61.495,92.102,
60296810,0.589,0.015,0.387,-36.277,59.797,107.782,
60296820,0.804,0.057,0.24,-32.025,53.357,109.847,
60296830,0.514,0.185,0.18,-32.987,53.042,107.065,
60296830,0.17,0.207,0.158,-42.892,19.215,102.392,
60296850,0.195,0.336,-0.025,-40.915,-36.19,103.95,
60296850,0.169,0.692,-0.487,-31.587,-72.047,113.872,
60296870,0.122,1.106,-0.333,-51.642,-73.675,133.63,
60296870,0.099,0.871,-0.252,-84.717,-46.41,171.15,
60296890,0.721,0.319,0.582,-63.332,-28.14,176.75,
60296890,1.998,0.402,1.998,79.905,-11.97,72.607,
60296910,-0.023,-1.708,-0.336,256.427,-5.53,-9.362,
60296910,-0.669,-0.524,1.519,354.235,-92.75,-57.802,
60296920,1.047,0.155,1.421,322.455,-107.835,-41.58,
60296930,-0.68,0.403,1.939,286.457,-130.882,-125.142,
60296940,1.003,0.051,1.918,198.187,-189.105,-130.007,
60296950,1.883,1.68,1.087,104.055,-174.65,-93.065,
60296960,1.49,0.289,0.739,-4.9,-76.737,-17.972,
60296970,0.693,-0.288,0.797,-30.835,9.8,28.315,
60296980,0.19,-0.52,0.867,-20.632,36.26,30.345,
60296990,0.199,-0.332,0.916,-7.35,28.437,15.12,
60297000,0.145,-0.267,0.952,-2.8,19.897,4.042,
60297010,0.325,-0.224,0.921,-0.962,8.417,-4.882,
60297020,0.386,-0.207,0.913,0.56,8.032,-6.492,
60297030,0.267,-0.197,0.942,1.995,9.45,-3.342,
60297040,0.23,-0.209,0.949,2.082,6.125,-2.887,
60297050,0.276,-0.191,0.942,2.082,-1.837,-5.022,
60297060,0.336,-0.141,0.936,1.207,-5.11,-4.847,
60297070,0.354,-0.159,0.924,-0.787,-5.18,-2.1,
60297080,0.317,-0.172,0.935,-1.89,-3.115,1.61,
60297090,0.324,-0.159,0.939,-2.922,-4.165,4.777,
60297100,0.34,-0.15,0.941,-4.83,-4.007,8.68,
60297110,0.336,-0.149,0.95,-8.382,-4.095,11.83,
60297120,0.345,-0.162,0.954,-13.65,-4.445,14.105,
60297130,0.354,-0.152,0.971,-20.51,-4.812,15.802,
60297140,0.354,-0.152,0.995,-29.382,-4.69,17.482,
60297150,0.35,-0.183,1.011,-39.55,-3.85,19.32,
60297160,0.365,-0.188,1.03,-48.615,-2.642,20.457,
60297170,0.375,-0.209,1.041,-59.185,1.015,20.44,
60297180,0.41,-0.241,1.023,-68.652,3.78,20.335,
60297190,0.363,-0.165,1.014,-74.795,9.31,20.72,
60297200,0.35,-0.327,1.006,-85.295,7.175,19.232,
60297210,0.401,-0.323,0.959,-84.612,4.55,16.502,
60297220,0.449,-0.447,0.916,-83.825,7.35,11.462,
60297230,0.059,-0.5,0.913,-77.997,13.597,3.062,
60297240,0.172,-0.414,0.768,-59.902,-5.022,-0.437,
60297250,0.249,-0.277,0.644,-44.345,-6.352,-5.337,
60297250,0.206,-0.297,0.554,-33.407,-1.312,-6.475,
60297260,0.304,-0.323,0.341,-19.652,8.435,-6.37,
60297270,0.209,-0.237,0.466,-3.92,29.295,-11.69,
60297280,0.207,-0.495,0.459,10.692,46.917,-18.515,
60297290,0.305,-0.676,0.28,41.317,63.227,-26.425,
60297300,-0.008,-0.405,0.328,90.947,88.725,-34.002,
60297310,-0.834,-0.532,0.584,140.017,72.555,-45.587,
60297320,-0.848,-1.276,1.223,188.877,-1.172,-61.442,
60297330,-0.26,-0.397,1.998,231.77,-96.407,-92.907,
60297340,1.261,1.014,1.443,182.052,-186.427,-104.79,
60297350,0.923,0.77,0.648,45.902,-117.687,-68.337,
60297360,1.052,0.213,0.748,-24.955,-19.74,-9.957,
60297370,0.471,-0.152,0.926,-33.582,33.687,13.667,
60297380,0.561,-0.254,0.899,-36.61,51.625,11.83,
60297390,0.097,-0.394,0.967,-27.615,53.777,14.157,
60297400,0.003,-0.302,0.994,-18.2,37.415,12.337,
60297410,0.062,-0.291,0.973,-13.842,12.635,1.435,
60297420,0.246,-0.206,0.952,-10.622,-4.76,-5.932,
60297430,0.179,-0.225,0.965,-8.19,-13.597,-3.762,
60297440,0.107,-0.199,0.996,-7.192,-24.307,-4.795,
60297450,0.237,-0.192,0.972,-9.275,-40.652,-10.92,
60297460,0.34,-0.179,0.955,-11.76,-49.175,-13.387,
60297470,0.38,-0.148,0.963,-15.732,-52.622,-11.935,
60297480,0.352,-0.138,1.001,-23.572,-54.18,-9.73,
60297490,0.388,-0.122,1.037,-33.687,-58.747,-8.207,
60297500,0.409,-0.078,1.124,-47.775,-62.195,-6.037,
60297510,0.42,0.093,1.311,-69.982,-64.61,-7.595,
60297520,0.353,0.015,1.268,-97.335,-46.62,-35.245,
60297530,-0.395,-0.59,1.413,-141.68,-16.205,-70.962,
60297540,0.19,-0.286,1.125,-157.01,-54.512,-111.825,
60297550,0.481,-0.432,0.938,-173.74,-45.92,-133.77,
60297560,0.607,-0.782,0.921,-185.587,10.587,-139.44,
60297570,0.658,-0.882,0.764,-169.47,81.655,-144.987,
60297580,0.332,-1.218,0.73,-148.26,120.47,-143.045,
60297580,0.539,-1.275,0.531,-95.935,111.125,-137.025,
60297600,-0.402,-1.083,0.175,-34.475,100.677,-99.102,
60297600,-0.526,-0.736,0.228,13.825,67.515,-53.235,
60297620,0.157,-0.47,-0.112,59.99,44.222,5.477,
60297620,0.188,0.068,-0.742,103.722,58.625,43.855,
60297640,-0.166,0.605,-1.199,102.13,86.38,72.677,
60297640,-1.109,1.117,-0.721,65.432,99.12,103.775,
60297660,1.103,0.639,1.293,61.25,-41.44,81.182,
60297660,0.522,-1.188,1.322,167.422,49.63,17.517,
60297670,-1.998,-1.516,1.971,232.277,49.7,-72.555,
60297680,0.695,0.616,1.571,239.067,-236.162,-101.167,
60297690,1.757,1.427,-0.218,100.24,-231.997,-75.74,
60297700,0.046,-0.247,1.063,-45.622,-20.212,-5.46,
60297710,1.51,-0.005,0.586,-37.047,31.22,27.387,
60297720,0.082,-0.289,1.027,-52.132,93.152,22.89,
60297730,0.401,-0.184,0.934,-42,81.235,19.635,
60297740,-0.137,-0.447,1.003,-37.625,71.33,9.695,
60297750,-0.006,-0.403,0.953,-24.815,36.715,-2.31,
60297760,0.071,-0.36,0.945,-13.457,11.567,-14,
60297770,0.235,-0.281,0.927,-4.987,-7.017,-18.83,
60297780,0.272,-0.234,0.934,1.312,-15.575,-16.555,
60297790,0.31,-0.135,0.949,3.395,-21.017,-14.052,
60297800,0.392,-0.16,0.919,-0.262,-22.067,-14.192,
60297810,0.444,-0.15,0.905,-1.995,-19.53,-12.442,
60297820,0.442,-0.109,0.914,-4.06,-12.372,-8.225,
60297830,0.41,-0.161,0.908,-7.84,-5.25,-4.025,
60297840,0.291,-0.201,0.935,-8.715,-1.61,-0.35,
60297850,0.294,-0.169,0.948,-9.117,-4.777,0.665,
60297860,0.277,-0.163,0.962,-11.637,-9.677,2.012,
60297870,0.33,-0.147,0.96,-15.242,-15.522,3.395,
60297880,0.378,-0.164,0.952,-19.372,-19.652,7.07,
60297890,0.392,-0.163,0.958,-23.047,-20.23,12.162,
60297900,0.414,-0.185,0.981,-28.472,-20.212,16.52,
60297910,0.432,-0.145,1.005,-36.33,-17.657,19.04,
60297920,0.44,-0.125,1.059,-47.425,-14.262,20.702,
60297930,0.457,-0.118,1.016,-60.287,-7.717,20.667,
60297940,0.432,-0.219,1.019,-76.685,-1.68,25.865,
60297940,0.467,-0.141,0.991,-88.427,3.867,27.317,
60297960,0.503,-0.152,0.968,-102.287,8.872,30.38,
60297960,0.544,-0.173,0.95,-116.077,22.977,31.727,
60297980,0.257,-0.193,0.97,-126.91,37.24,27.667,
60297980,0.404,-0.23,0.869,-130.847,36.557,22.627,
60298000,0.348,-0.295,0.788,-129.167,43.435,16.52,
60298000,0.278,-0.396,0.708,-123.34,50.96,11.655,
60298010,0.258,-0.5,0.674,-113.155,51.73,9.485,
60298020,0.163,-0.479,0.649,-98.927,51.782,8.032,
60298030,0.154,-0.525,0.634,-83.3,44.66,8.855,
60298040,0.203,-0.604,0.619,-66.57,39.62,11.2,
60298050,0.221,-0.591,0.582,-44.852,34.545,11.76,
60298060,0.245,-0.669,0.613,-24.237,35.472,15.242,
60298070,0.217,-0.606,0.623,-3.972,32.532,20.142,
60298080,0.195,-0.681,0.742,10.29,29.592,24.465,
60298090,0.099,-0.465,0.905,20.772,18.812,25.602,
60298100,0.143,-0.328,1.1,15.505,2.485,28.035,
60298110,0.233,-0.171,1.255,-2.957,-12.88,29.05,
60298120,0.263,-0.209,1.398,-34.632,-18.375,29.032,
60298130,0.381,0.093,1.423,-76.877,-23.1,28.28,
60298140,0.461,-0.03,1.44,-138.512,-18.392,37.572,
60298150,0.567,-0.051,1.328,-195.02,-7.805,49.297,
60298160,0.588,-0.226,1.251,-244.597,8.085,61.197,
60298170,0.485,-0.47,1.334,-268.082,16.8,71.68,
60298180,0.685,-1.115,1.64,-256.882,31.08,89.285,
60298190,0.559,-1.558,1.416,-209.282,44.957,98.84,
60298200,0.448,-1.3,1.103,-130.182,48.125,89.355,
60298210,0.309,-0.605,1.364,-39.567,80.535,64.242,
60298220,-0.455,-0.476,0.713,-8.732,47.845,47.722,
60298230,0.882,-0.678,1.003,-9.835,-40.512,14.857,
60298240,0.833,-0.756,0.586,9.94,-50.662,-32.707,
60298250,0.091,-0.689,0.684,10.902,-40.652,-85.785,
60298260,0.034,-0.695,0.542,22.592,-46.147,-99.05,
60298270,-0.028,-0.61,0.582,30.432,-48.37,-105.192,
60298280,-0.205,-0.642,0.607,33.39,-50.855,-96.425,
60298290,-0.132,-0.672,0.622,41.352,-56.752,-78.68,
60298300,-0.067,-0.673,0.596,51.817,-60.427,-61.88,
60298310,-0.031,-0.609,0.504,59.99,-59.832,-50.452,
60298320,-0.028,-0.582,0.421,61.757,-59.29,-43.872,
60298330,-0.078,-0.607,0.369,57.907,-56.63,-37.782,
60298330,-0.14,-0.634,0.296,51.222,-55.877,-29.295,
60298350,-0.211,-0.652,0.241,43.26,-52.535,-14.175,
60298350,-0.261,-0.706,0.153,36.855,-54.757,7.14,
60298370,-0.217,-0.784,0.074,32.375,-56.367,31.71,
60298370,-0.123,-0.87,-0.008,29.575,-57.75,54.267,
60298390,-0.05,-0.885,-0.078,29.662,-56.927,69.79,
60298390,0.033,-0.844,-0.118,29.82,-57.732,78.102,
60298410,0.11,-0.724,-0.122,27.352,-54.337,80.132,
60298410,0.139,-0.587,-0.081,19.74,-53.462,73.692,
60298420,0.123,-0.46,-0.024,7.227,-50.312,63.437,
60298430,0.096,-0.387,0.039,-8.26,-50.435,50.505,
60298440,0.115,-0.36,0.078,-22.995,-47.827,39.48,
60298450,0.17,-0.435,0.149,-32.882,-42.665,29.662,
60298460,0.228,-0.435,0.184,-46.935,-33.145,18.952,
60298470,0.349,-0.574,0.259,-42.892,-17.237,27.195,
60298480,0.552,-0.647,0.364,-42,1.697,31.885,
60298490,0.596,-0.786,0.526,-38.657,16.345,34.982,
60298500,0.593,-0.723,0.815,-29.382,23.31,28.962,
60298510,0.593,-0.683,1.002,-14.647,14.017,18.742,
60298520,0.559,-0.737,1.015,11.077,-0.402,15.995,
60298530,0.386,-0.714,1.024,46.007,-25.55,18.987,
60298540,0.502,-0.772,1.055,72.17,-51.362,25.41,
60298550,0.477,-1.002,1.005,87.727,-65.415,36.645,
60298560,0.452,-1.007,0.891,108.57,-67.742,42.647,
60298570,0.43,-0.849,0.781,125.107,-62.877,41.527,
60298580,0.288,-0.742,0.797,124.792,-56.035,36.68,
60298590,0.121,-0.695,0.917,119.297,-53.69,37.362,
60298600,0.063,-0.696,1.075,116.305,-58.047,40.425,
60298610,0.015,-0.675,1.15,122.36,-62.615,45.482,
60298620,-0.031,-0.555,1.147,133.665,-65.03,51.94,
60298630,-0.012,-0.471,1.124,141.68,-59.412,62.3,
60298640,0.04,-0.467,1.095,145.705,-46.2,73.78,
60298650,0.042,-0.547,1.071,146.842,-23.222,85.085,
60298660,-0.077,-0.62,0.987,145.057,-5.757,91.7,
60298670,-0.047,-0.665,0.899,136.657,6.195,92.907,
60298670,0.029,-0.71,0.793,119.665,16.432,86.922,
60298690,0.035,-0.727,0.629,96.25,34.352,75.232,
60298690,0.012,-0.68,0.41,68.092,51.625,59.43,
60298710,0.004,-0.611,0.24,32.812,67.935,42.402,
60298710,0.154,-0.631,0.046,-4.48,80.902,26.46,
60298730,0.247,-0.564,-0.213,-35.56,106.085,15.155,
60298730,0.243,-0.389,-0.462,-68.285,134.417,9.695,
60298750,0.366,-0.25,-0.626,-106.872,165.392,11.165,
60298750,-1.078,0.437,0.055,-113.68,156.852,3.885,
60298760,1.061,0.615,1.998,-39.672,-184.905,-69.072,
60298770,1.782,-0.083,-0.461,193.567,-76.037,-53.252,
60298780,-1.338,-0.344,0.897,219.695,132.177,-106.12,
60298790,-1.964,-1.779,0.674,211.277,8.172,-33.092,
60298800,1.295,0.166,1.153,278.407,-120.662,-8.54,
60298810,-0.527,0.268,1.291,262.622,-114.24,-43.067,
60298820,-0.199,0.149,1.677,231.595,-147.122,-81.025,
60298830,0.555,-0.021,1.763,170.905,-177.537,-105.42,
60298840,1.615,0.673,1.153,103.162,-159.302,-96.81,
60298850,1.57,0.472,0.786,29.33,-94.027,-48.982,
60298860,0.792,-0.013,0.848,-6.177,-18.725,-4.83,
60298870,0.454,-0.206,0.885,-17.885,15.435,7.7,
60298880,0.415,-0.25,0.887,-20.002,25.97,4.742,
60298890,0.251,-0.274,0.924,-16.765,28.77,5.512,
60298900,0.197,-0.253,0.947,-12.11,21.84,3.272,
60298910,0.3,-0.224,0.927,-9.87,12.302,-1.75,
60298920,0.313,-0.226,0.925,-8.172,8.662,-0.717,
60298930,0.288,-0.21,0.935,-6.125,6.37,3.955,
60298940,0.291,-0.2,0.943,-5.81,2.415,6.387,
60298950,0.32,-0.171,0.947,-6.632,-0.805,8.225,
60298960,0.339,-0.145,0.963,-9.817,-3.272,10.587,
60298970,0.377,-0.148,0.97,-16.187,-3.797,13.562,
60298980,0.383,-0.146,0.996,-23.572,-4.252,17.255,
60298990,0.406,-0.127,1.045,-33.95,-2.835,20.825,
60299000,0.447,-0.083,1.127,-49.525,-0.98,23.887,
60299010,0.478,-0.094,1.246,-73.832,3.85,27.23,
60299020,0.557,-0.051,1.276,-103.057,7.017,30.817,
60299030,0.614,-0.216,1.281,-135.782,9.327,33.372,
60299040,0.792,0.056,1.141,-153.405,5.11,34.877,
60299050,0.996,-0.488,1.321,-172.97,6.737,39.252,
60299060,0.87,-0.821,1.198,-154.49,32.217,47.74,
60299070,0.279,-0.399,1.127,-113.82,65.047,47.792,
60299080,0.049,-0.507,1.152,-107.782,51.957,50.767,
60299080,0.053,-1.995,0.363,-145.652,-4.76,66.307,
60299100,1.696,-1.127,0.343,-73.867,-83.335,-2.135,
60299100,0.105,0.869,0.539,-29.4,-59.675,-68.005,
60299120,-1.235,1.644,0.409,-27.93,-50.522,-72.065,
60299120,-0.795,1.997,0.119,53.427,-59.36,-17.255,
60299140,0.055,1.997,-0.214,121.432,-42.665,24.71,
60299140,0.115,1.997,-0.748,171.255,-22.855,5.407,
60299160,0.174,1.189,-1.295,196.717,-10.885,-45.675,
60299160,0.498,0.989,-1.302,184.362,21.402,-71.802,
60299170,-0.908,-1.491,1.065,-61.057,209.072,47.005,
60299180,-0.76,-1.313,-0.371,315.42,39.672,117.74,
60299190,-0.545,1.997,1.998,480.952,-115.657,-239.085,
