#Format version: 1.0,,,,,,
time[ms],accX[g],accY[g],accZ[g],Value 1,Value 2,Value 3
37463420,-0.139,0.021,0.909,15.82,-177.782,-3.71
37463430,-0.056,0.041,0.941,17.955,-166.67,-6.947
37463440,0.004,0.073,0.96,17.482,-152.565,-2.765
37463450,0.014,0.084,0.975,15.89,-141.417,6.667
37463460,-0.006,0.081,0.972,14.787,-132.93,15.575
37463470,-0.02,0.076,0.958,11.252,-123.567,18.742
37463480,-0.031,0.082,0.958,9.397,-113.295,17.29
37463490,-0.027,0.086,0.952,7.402,-102.252,14.245
37463500,-0.016,0.068,0.941,5.547,-91.91,8.89
37463510,0.022,0.079,0.95,4.742,-81.585,-1.137
37463520,0.03,0.091,0.961,3.517,-70.945,-5.985
37463530,0.048,0.083,0.964,2.292,-61.705,-6.335
37463540,0.062,0.071,0.969,1.785,-55.282,-6.072
37463550,0.064,0.073,0.978,1.54,-49.84,-5.355
37463560,0.053,0.068,0.976,-0.192,-44.415,-4.917
37463570,0.052,0.073,0.992,-0.315,-36.557,-3.937
37463580,0.044,0.08,0.991,-2.205,-30.275,-3.29
37463590,0.034,0.076,0.995,-3.5,-27.177,-1.837
37463600,0.026,0.067,0.981,-5.232,-25.725,-0.455
37463610,0.034,0.064,0.98,-5.302,-24.57,0.437
37463620,0.035,0.066,0.977,-5.18,-24.605,1.662
37463620,0.032,0.066,0.974,-5.232,-23.66,3.15
37463640,0.021,0.061,0.967,-4.987,-21.892,3.92
37463640,0.022,0.058,0.962,-4.655,-20.107,3.587
37463660,0.035,0.069,0.955,-4.375,-19.145,1.505
37463660,0.045,0.073,0.954,-3.465,-18.952,-0.42
37463670,0.057,0.07,0.958,-2.152,-18.06,-1.277
37463680,0.076,0.067,0.958,-1.767,-15.12,-1.75
37463690,0.089,0.07,0.962,-1.05,-11.48,-0.857
37463700,0.08,0.074,0.969,-0.787,-9.94,0.752
37463710,0.061,0.078,0.977,-1.645,-8.47,2.327
37463720,0.053,0.081,0.99,-3.062,-6.3,3.465
37463730,0.056,0.082,1,-4.795,-4.987,4.13
37463740,0.066,0.078,0.993,-6.737,-4.095,4.952
37463750,0.066,0.072,0.993,-8.155,-1.767,5.477
37463760,0.062,0.071,0.992,-8.697,1.627,5.39
37463770,0.06,0.073,0.994,-8.33,4.095,5.092
37463780,0.058,0.074,0.992,-8.032,4.76,4.725
37463790,0.066,0.071,0.998,-7.42,6.317,4.13
37463800,0.078,0.067,1.006,-6.475,9.817,3.622
37463810,0.095,0.061,1.011,-5.775,15.82,3.307
37463820,0.105,0.054,1.015,-4.9,25.795,3.22
37463830,0.106,0.049,1.013,-4.34,38.08,3.22
37463840,0.088,0.057,1.015,-3.64,49.647,3.01
37463850,0.033,0.05,1.009,-5.775,57.032,4.252
37463860,0.005,0.041,1.005,-5.705,60.445,7.682
37463870,0.003,0.045,0.994,-0.892,60.97,6.335
37463880,-0.014,0.044,0.988,-0.892,60.112,6.037
37463890,-0.046,0.042,0.985,-0.927,56.822,6.65
37463900,-0.061,0.033,0.98,-0.157,51.24,4.725
37463910,-0.066,0.018,0.972,1.96,44.572,2.45
37463920,-0.053,0.003,0.966,4.987,40.687,2.712
37463930,-0.037,0.001,0.972,7.087,40.565,4.602
37463940,-0.041,0.022,0.966,9.555,42.07,6.055
37463950,-0.053,0.044,0.955,10.675,45.447,6.125
37463960,-0.069,0.051,0.972,13.037,51.397,7.805
37463970,-0.083,0.061,0.977,13.615,56.91,9.485
37463980,-0.071,0.069,0.989,11.9,62.265,9.992
37463990,-0.074,0.076,0.989,11.55,66.097,9.012
37464000,-0.098,0.083,0.977,12.967,66.29,6.562
37464010,-0.129,0.093,0.97,15.942,64.75,3.937
37464010,-0.158,0.098,0.982,17.885,63.28,2.205
37464030,-0.172,0.109,0.983,17.412,61.11,1.82
37464030,-0.177,0.113,0.977,16.065,58.1,2.712
37464050,-0.155,0.113,1.006,14.927,58.677,4.76
37464050,-0.159,0.114,1.006,14.647,59.937,6.545
37464070,-0.177,0.107,0.999,15.487,61.81,7.682
37464070,-0.213,0.103,1.001,16.52,63.735,7.997
37464080,-0.248,0.103,1,17.325,63.612,7.35
37464090,-0.269,0.104,0.994,17.552,61.005,6.247
37464100,-0.29,0.11,1.008,16.905,57.295,5.32
37464110,-0.291,0.104,0.973,11.567,52.902,0.997
37464120,-0.3,0.109,0.978,12.18,51.31,-2.485
37464130,-0.299,0.106,0.974,9.362,52.43,-3.027
37464140,-0.318,0.096,0.967,8.837,51.502,-1.575
37464150,-0.33,0.091,0.962,11.252,49.717,0.612
37464160,-0.337,0.094,0.96,14.367,48.055,2.625
37464170,-0.339,0.099,0.96,16.502,46.865,4.462
37464180,-0.346,0.103,0.952,18.182,44.66,5.67
37464190,-0.35,0.109,0.949,17.412,43.102,5.652
37464200,-0.355,0.111,0.949,13.51,42.542,5.477
37464210,-0.37,0.109,0.94,11.147,41.702,5.495
37464220,-0.373,0.107,0.936,10.605,42.962,5.477
37464230,-0.378,0.111,0.938,10.815,44.397,5.215
37464240,-0.392,0.119,0.937,10.237,44.065,4.392
37464250,-0.407,0.126,0.929,8.977,42.017,3.745
37464260,-0.413,0.13,0.923,7.577,39.62,3.727
37464270,-0.415,0.132,0.923,6.247,36.627,4.235
37464280,-0.423,0.132,0.921,4.865,31.815,4.9
37464290,-0.425,0.132,0.924,3.482,27.93,5.477
37464300,-0.421,0.133,0.925,2.502,26.232,6.177
37464310,-0.425,0.136,0.924,2.047,24.675,6.702
37464320,-0.432,0.136,0.923,1.837,22.942,6.842
37464330,-0.433,0.132,0.926,1.417,21.927,6.422
37464330,-0.428,0.128,0.923,1.085,21.332,5.687
37464350,-0.417,0.125,0.914,0.927,20.3,4.9
37464350,-0.405,0.125,0.907,0.945,20.317,4.357
37464370,-0.408,0.125,0.897,1.085,21.437,4.165
37464370,-0.42,0.124,0.894,1.26,23.187,3.972
37464390,-0.436,0.124,0.892,1.4,24.622,3.675
37464390,-0.441,0.126,0.888,1.522,25.165,3.29
37464410,-0.44,0.127,0.882,1.627,24.815,2.975
37464410,-0.425,0.124,0.89,1.75,26.04,3.08
37464420,-0.421,0.126,0.896,1.435,25.987,3.307
37464430,-0.429,0.12,0.885,1.102,24.587,3.535
37464440,-0.428,0.113,0.889,0.77,26.442,3.727
37464450,-0.428,0.107,0.877,0.857,27.912,3.762
37464460,-0.418,0.103,0.863,1.085,30.345,3.92
37464470,-0.395,0.096,0.866,1.137,35.77,4.462
37464480,-0.358,0.084,0.868,1.207,43.75,5.46
37464490,-0.314,0.07,0.855,1.47,53.69,6.912
37464500,-0.291,0.06,0.839,2.572,65.695,9.082
37464510,-0.302,0.058,0.823,4.025,79.205,11.042
37464520,-0.348,0.059,0.815,5.145,91.385,11.97
37464530,-0.404,0.058,0.809,5.81,101.22,11.375
37464540,-0.45,0.062,0.79,7.437,107.817,8.855
37464550,-0.462,0.077,0.771,9.17,115.01,6.265
37464560,-0.489,0.098,0.77,11.165,122.272,4.567
37464570,-0.525,0.109,0.769,12.792,127.207,2.66
37464580,-0.547,0.114,0.74,13.65,129.132,0.56
37464590,-0.566,0.12,0.705,14.962,126.805,-1.12
37464600,-0.595,0.154,0.698,16.642,123.235,-1.697
37464610,-0.621,0.182,0.705,17.185,117.687,-2.957
37464620,-0.629,0.192,0.698,16.082,108.395,-4.567
37464630,-0.66,0.205,0.681,15.032,98.402,-6.09
37464640,-0.708,0.227,0.652,14.822,92.26,-7.262
37464650,-0.741,0.24,0.64,14.735,87.5,-8.592
37464660,-0.767,0.25,0.639,13.632,80.517,-9.52
37464670,-0.793,0.26,0.617,11.602,71.925,-9.8
37464680,-0.801,0.263,0.586,9.31,62.632,-10.255
37464690,-0.831,0.261,0.571,7.227,53.41,-11.06
37464700,-0.842,0.264,0.549,5.215,46.462,-11.935
37464710,-0.819,0.264,0.526,2.975,44.082,-13.09
37464720,-0.797,0.257,0.54,0.682,43.47,-14.595
37464730,-0.792,0.252,0.551,-1.645,43.435,-16.257
37464740,-0.824,0.239,0.553,-3.535,44.275,-18.112
37464750,-0.882,0.229,0.564,-4.41,45.325,-20.387
37464760,-0.917,0.229,0.58,-3.395,43.557,-21.962
37464760,-0.915,0.233,0.609,-2.467,36.645,-22.295
37464780,-0.899,0.222,0.633,-2.765,26.932,-21.612
37464780,-0.9,0.196,0.629,-3.605,16.345,-20.615
37464800,-0.922,0.185,0.621,-3.797,6.667,-19.635
37464800,-0.941,0.18,0.622,-2.87,-0.7,-18.252
37464820,-0.94,0.166,0.62,-2.082,-8.26,-16.537
37464820,-0.92,0.149,0.611,-1.715,-16.677,-15.015
37464830,-0.885,0.136,0.588,-2.065,-22.925,-13.702
37464840,-0.843,0.128,0.551,-3.045,-24.08,-12.057
37464850,-0.811,0.125,0.53,-3.955,-20.912,-10.272
37464860,-0.789,0.123,0.523,-5.582,-15.662,-8.995
37464870,-0.79,0.111,0.517,-7.98,-9.257,-8.277
37464880,-0.807,0.099,0.532,-10.325,-2.065,-8.627
37464890,-0.832,0.093,0.576,-11.9,2.817,-10.062
37464900,-0.842,0.085,0.61,-13.632,3.447,-12.285
37464910,-0.843,0.068,0.618,-13.632,0.787,-13.317
37464920,-0.826,0.053,0.618,-11.83,-2.222,-13.037
37464930,-0.795,0.042,0.616,-10.395,-4.952,-12.74
37464940,-0.769,0.037,0.602,-9.52,-6.667,-12.565
37464950,-0.758,0.036,0.588,-8.697,-5.845,-12.687
37464960,-0.746,0.042,0.569,-8.33,-1.26,-12.967
37464970,-0.752,0.049,0.569,-7.175,5.705,-12.915
37464980,-0.791,0.054,0.594,-5.512,12.705,-13.44
37464990,-0.839,0.064,0.607,-3.797,18.077,-14.577
37465000,-0.878,0.076,0.632,-1.557,21.945,-15.33
37465010,-0.901,0.079,0.657,0.437,22.645,-16.047
37465020,-0.902,0.082,0.65,1.732,20.947,-16.327
37465030,-0.885,0.083,0.627,3.185,19.442,-14.997
37465040,-0.859,0.097,0.596,3.64,17.255,-12.687
37465050,-0.812,0.103,0.579,6.685,16.117,-11.672
37465060,-0.83,0.099,0.552,5.267,14.91,-4.147
37465070,-0.839,0.093,0.538,2.24,12.215,0.437
37465080,-0.839,0.087,0.522,0.7,10.325,-0.192
37465080,-0.812,0.074,0.515,1.032,9.275,-2.905
37465100,-0.79,0.059,0.53,2.292,10.062,-6.037
37465100,-0.781,0.052,0.533,2.695,12.932,-9.1
37465120,-0.801,0.057,0.564,3.307,16.1,-11.252
37465120,-0.848,0.066,0.59,3.255,18.497,-11.147
37465140,-0.898,0.079,0.596,3.605,19.88,-9.52
37465140,-0.921,0.095,0.595,4.322,17.85,-7.717
37465160,-0.92,0.101,0.576,4.375,14.7,-5.635
37465160,-0.907,0.101,0.56,4.095,11.76,-3.482
37465170,-0.901,0.103,0.541,2.8,6.282,-2.065
37465180,-0.892,0.104,0.53,1.207,0.945,-1.277
37465190,-0.871,0.101,0.526,-0.472,-2.59,-1.33
37465200,-0.855,0.098,0.535,-1.225,-6.002,-2.345
37465210,-0.838,0.09,0.545,-1.96,-8.382,-4.41
37465220,-0.835,0.079,0.547,-2.345,-7.402,-6.72
37465230,-0.839,0.068,0.546,-1.907,-4.567,-8.242
37465240,-0.848,0.065,0.546,-0.175,-2.45,-9.205
37465250,-0.843,0.065,0.546,1.155,-1.732,-9.135
37465260,-0.849,0.055,0.543,1.155,0.07,-8.487
37465270,-0.851,0.053,0.529,1.575,-0.297,-7.647
37465280,-0.869,0.057,0.544,3.15,0.332,-4.672
37465290,-0.869,0.055,0.523,0.735,-1.12,-3.797
37465300,-0.873,0.048,0.523,0.332,-2.94,-5.145
37465310,-0.887,0.05,0.53,2.047,-5.81,-6.44
37465320,-0.887,0.055,0.532,2.975,-8.837,-6.86
37465330,-0.872,0.054,0.547,2.66,-9.537,-5.88
37465340,-0.869,0.056,0.547,1.382,-10.902,-4.165
37465350,-0.871,0.059,0.543,0.647,-11.97,-2.905
37465360,-0.87,0.059,0.542,0.42,-13.212,-2.922
37465370,-0.854,0.064,0.542,1.085,-14.997,-3.657
37465380,-0.834,0.067,0.557,1.417,-15.907,-3.815
37465390,-0.822,0.068,0.564,0.402,-15.96,-3.622
37465400,-0.825,0.064,0.564,-0.297,-15.015,-3.255
37465410,-0.831,0.064,0.563,-0.07,-14.122,-2.94
37465420,-0.838,0.065,0.568,0.262,-13.58,-2.922
37465430,-0.842,0.065,0.573,-0.052,-13.685,-2.817
37465440,-0.839,0.066,0.571,-0.507,-13.615,-2.1
37465450,-0.837,0.065,0.573,-0.997,-13.86,-1.312
37465460,-0.841,0.065,0.577,-1.452,-14.892,-1.207
37465470,-0.848,0.061,0.568,-1.452,-16.17,-1.137
37465480,-0.856,0.06,0.572,-1.05,-18.13,-0.875
37465490,-0.867,0.065,0.575,-1.277,-21.175,-0.787
37465500,-0.879,0.067,0.577,-1.907,-25.41,-0.717
37465510,-0.891,0.065,0.568,-2.59,-31.185,-0.577
37465510,-0.892,0.061,0.567,-3.325,-37.747,-0.42
37465530,-0.869,0.055,0.565,-4.147,-43.47,-0.017
37465530,-0.803,0.042,0.595,-3.762,-43.277,2.415
37465550,-0.73,0.04,0.612,-4.76,-38.22,4.305
37465550,-0.689,0.044,0.607,-4.725,-30.73,4.602
37465570,-0.7,0.039,0.62,-2.502,-21.542,4.83
37465570,-0.74,0.047,0.625,0.297,-13.037,4.025
37465580,-0.781,0.061,0.617,1.767,-6.37,2.782
37465590,-0.826,0.063,0.613,1.4,-3.657,0.77
37465600,-0.855,0.064,0.611,0.63,-4.48,-2.082
37465610,-0.861,0.063,0.609,0.192,-6.02,-4.392
37465620,-0.842,0.065,0.598,0.21,-10.01,-5.425
37465630,-0.814,0.059,0.602,-0.227,-12.617,-4.637
37465640,-0.791,0.057,0.608,-1.085,-13.982,-2.852
37465650,-0.78,0.053,0.615,-1.487,-14.035,-0.84
37465660,-0.78,0.049,0.618,-1.05,-13.107,1.295
37465670,-0.768,0.052,0.621,-0.595,-10.99,3.482
37465680,-0.754,0.052,0.618,-0.49,-7,3.937
37465690,-0.74,0.048,0.621,-0.315,-0.98,3.815
37465700,-0.741,0.049,0.62,0.262,5.425,2.432
37465710,-0.745,0.052,0.62,1.295,12.617,0.035
37465720,-0.763,0.052,0.626,2.502,18.077,-2.922
37465730,-0.788,0.055,0.623,3.08,20.352,-6.212
37465740,-0.798,0.079,0.617,3.097,21.14,-8.855
37465750,-0.815,0.08,0.623,2.187,21.14,-9.87
37465760,-0.837,0.068,0.594,1.557,18.742,-10.797
37465770,-0.913,0.064,0.597,5.04,13.632,-5.512
37465780,-0.93,0.082,0.592,2.345,5.477,4.672
37465790,-0.893,0.077,0.577,-6.037,-5.845,5.74
37465800,-0.839,0.05,0.574,-6.895,-14.14,3.045
37465810,-0.792,0.031,0.592,-2.712,-15.802,1.435
37465820,-0.785,0.046,0.612,0.105,-14.892,1.61
37465830,-0.791,0.056,0.602,-2.03,-14.717,1.942
37465830,-0.819,0.055,0.618,-3.465,-16.345,3.062
37465850,-0.84,0.056,0.61,-3.64,-20.615,3.92
37465850,-0.851,0.058,0.609,-3.342,-24.185,4.672
37465870,-0.86,0.06,0.604,-4.795,-29.26,4.9
37465870,-0.85,0.055,0.604,-6.685,-34.527,5.057
37465890,-0.817,0.05,0.61,-7.525,-37.345,6.02
37465890,-0.77,0.049,0.622,-7.21,-36.557,6.965
37465910,-0.737,0.047,0.634,-6.335,-33.267,7.122
37465910,-0.729,0.05,0.639,-5.215,-27.947,6.982
37465920,-0.742,0.054,0.634,-3.92,-22.715,6.65
37465930,-0.762,0.059,0.631,-2.905,-18.777,5.302
37465940,-0.773,0.061,0.632,-2.537,-16.152,3.185
37465950,-0.78,0.06,0.636,-2.135,-15.12,0.84
37465960,-0.786,0.053,0.636,-1.522,-14.595,-1.172
37465970,-0.792,0.049,0.636,-1.172,-14.455,-2.52
37465980,-0.792,0.051,0.637,-1.295,-14.822,-2.66
37465990,-0.785,0.052,0.638,-1.47,-15.452,-1.645
37466000,-0.777,0.054,0.641,-1.33,-15.662,-0.367
37466010,-0.771,0.054,0.645,-1.032,-15.522,0.77
37466020,-0.77,0.059,0.651,-0.647,-15.575,1.855
37466030,-0.77,0.061,0.656,-0.595,-15.995,2.835
37466040,-0.76,0.063,0.666,-0.997,-16.012,3.675
37466050,-0.735,0.053,0.681,-1.242,-14.665,4.025
37466060,-0.709,0.042,0.648,-0.962,-12.46,3.587
37466070,-0.707,0.054,0.651,0.577,-8.4,3.045
37466080,-0.721,0.061,0.673,1.312,-4.27,2.257
37466090,-0.745,0.061,0.67,0.962,-0.717,0.997
37466100,-0.761,0.054,0.656,0.91,1.89,-0.56
37466110,-0.77,0.058,0.65,1.872,3.132,-2.012
37466120,-0.78,0.064,0.654,2.31,2.432,-2.957
37466130,-0.788,0.065,0.649,1.522,0.14,-3.325
37466140,-0.789,0.066,0.652,0.892,-2.397,-2.747
37466150,-0.79,0.062,0.653,0.612,-5.512,-1.54
37466160,-0.789,0.061,0.66,0.42,-8.662,-0.385
37466170,-0.783,0.06,0.68,-0.122,-11.637,0.542
37466180,-0.765,0.057,0.686,-1.102,-13.947,1.26
37466190,-0.732,0.053,0.679,-1.767,-13.685,1.942
37466200,-0.697,0.045,0.665,-1.557,-11.322,2.03
37466210,-0.681,0.036,0.655,-0.997,-7.157,1.487
37466220,-0.675,0.038,0.64,-0.07,-1.4,0.472
37466230,-0.727,0.031,0.605,0.875,5.687,-1.015
37466240,-0.829,0.055,0.597,2.415,5.74,-3.745
37466250,-0.887,0.084,0.671,2.1,-0.7,-6.72
37466260,-0.851,0.075,0.685,-0.63,-6.947,-8.977
37466260,-0.781,0.043,0.663,-2.94,-9.432,-9.047
37466280,-0.745,0.028,0.653,-0.91,-8.68,-7.35
37466280,-0.737,0.055,0.662,1.277,-7.472,-4.445
37466300,-0.749,0.073,0.683,1.855,-1.942,-0.7
37466300,-0.778,0.064,0.676,1.26,1.277,2.24
37466320,-0.818,0.063,0.666,1.61,0.612,3.797
37466320,-0.824,0.078,0.671,3.517,-1.417,3.535
37466330,-0.808,0.08,0.663,2.187,-7.525,2.625
37466340,-0.766,0.076,0.658,1.47,-13.055,0.735
37466350,-0.74,0.065,0.654,-0.017,-15.767,-0.28
37466360,-0.726,0.066,0.68,0.595,-16.082,-0.157
37466370,-0.702,0.055,0.71,0.472,-14.07,0.77
37466380,-0.658,0.034,0.704,1.015,-10.115,1.452
37466390,-0.633,0.027,0.669,1.89,-4.567,2.572
37466400,-0.653,0.027,0.654,4.2,2.397,3.692
37466410,-0.717,0.04,0.644,5.337,7.945,3.64
37466420,-0.779,0.062,0.65,5.897,9.992,2.1
37466430,-0.806,0.067,0.656,4.952,9.397,0.122
37466440,-0.817,0.062,0.651,3.342,6.405,-1.767
37466450,-0.821,0.066,0.646,2.485,1.505,-2.432
37466460,-0.819,0.072,0.646,1.96,-4.182,-1.767
37466470,-0.814,0.073,0.65,0.647,-10.465,-0.63
37466480,-0.79,0.067,0.679,-1.207,-16.712,0.262
37466490,-0.738,0.056,0.687,-3.377,-19.477,1.54
37466500,-0.679,0.04,0.678,-4.427,-18.585,3.622
37466510,-0.635,0.033,0.663,-3.99,-12.88,5.355
37466520,-0.664,0.042,0.599,-2.327,-5.057,5.39
37466530,-0.767,0.08,0.622,-0.052,-1.085,3.832
37466540,-0.836,0.093,0.686,-0.437,-1.435,0.385
37466550,-0.863,0.084,0.706,-2.24,-5.355,-3.64
37466560,-0.813,0.073,0.704,-2.852,-8.225,-6.387
37466570,-0.757,0.054,0.68,-2.117,-8.645,-5.967
37466580,-0.732,0.053,0.67,-1.435,-9.362,-4.13
37466580,-0.717,0.065,0.677,-1.12,-9.432,-1.242
37466600,-0.695,0.068,0.682,-0.875,-7.787,2.03
37466600,-0.7,0.058,0.689,-0.647,-4.935,4.62
37466620,-0.726,0.064,0.657,0.017,-2.957,6.387
37466620,-0.764,0.069,0.667,0.927,-0.402,7.385
37466640,-0.808,0.086,0.681,1.207,-1.05,6.475
37466640,-0.828,0.098,0.689,0.56,-4.375,4.252
37466660,-0.791,0.083,0.716,-0.21,-7.542,1.925
37466660,-0.704,0.057,0.696,-1.207,-8.732,0.945
37466670,-0.65,0.036,0.654,-0.84,-6.685,2.275
37466680,-0.64,0.041,0.635,0.892,-2.38,4.585
37466690,-0.69,0.045,0.635,1.295,2.345,6.37
37466700,-0.755,0.049,0.678,0.507,3.762,6.107
37466710,-0.781,0.054,0.691,-0.682,3.902,4.462
37466720,-0.776,0.061,0.667,-0.577,3.237,2.73
37466730,-0.76,0.07,0.649,-0.07,1.697,0.717
37466740,-0.761,0.07,0.647,-0.595,0.892,-1.4
37466750,-0.772,0.067,0.67,-1.575,-0.402,-3.08
37466760,-0.755,0.065,0.685,-2.152,-2.257,-3.587
37466770,-0.723,0.056,0.681,-2.327,-2.94,-2.712
37466780,-0.708,0.053,0.667,-2.31,-1.19,-0.962
37466790,-0.72,0.053,0.657,-2.047,1.19,0.682
37466800,-0.743,0.054,0.636,-1.592,2.642,1.085
37466810,-0.784,0.068,0.575,-1.102,0.875,0.385
37466820,-0.842,0.088,0.608,-0.49,-5.04,-1.19
37466830,-0.864,0.086,0.679,-2.765,-13.125,-3.797
37466840,-0.829,0.083,0.728,-5.512,-18.742,-5.757
37466850,-0.76,0.055,0.716,-5.372,-19.005,-5.057
37466860,-0.738,0.03,0.673,-3.01,-17.325,-2.835
37466870,-0.738,0.043,0.664,-1.032,-16.117,-0.245
37466880,-0.714,0.059,0.668,-0.577,-14.7,2.59
37466890,-0.689,0.061,0.677,-1.627,-14.56,5.04
37466900,-0.675,0.045,0.688,-2.957,-11.462,6.247
37466910,-0.695,0.033,0.678,-2.292,-5.67,6.142
37466920,-0.747,0.044,0.681,0.192,-1.295,5.302
37466930,-0.789,0.075,0.681,1.82,0.105,3.167
37466940,-0.797,0.095,0.678,1.837,-1.995,0.455
37466950,-0.792,0.096,0.687,0.542,-6.405,-1.82
37466960,-0.791,0.085,0.684,-1.242,-10.605,-2.345
37466970,-0.783,0.079,0.682,-1.837,-14.122,-0.822
37466980,-0.745,0.087,0.709,-1.575,-16.397,2.065
37466990,-0.687,0.055,0.756,-2.502,-15.75,4.637
37467000,-0.603,0.035,0.696,-3.482,-11.917,5.88
37467010,-0.588,0.037,0.659,-1.242,-4.112,8.277
37467010,-0.661,0.042,0.661,1.172,3.815,9.695
37467030,-0.749,0.053,0.667,0.927,9.152,7.962
37467030,-0.797,0.061,0.673,0.245,10.097,4.585
37467050,-0.797,0.065,0.674,0.63,7.367,1.05
37467050,-0.773,0.066,0.656,0.42,3.552,-2.03
37467060,-0.763,0.066,0.654,-0.7,0.49,-3.85
37467070,-0.764,0.075,0.664,-1.452,-1.697,-3.92
37467080,-0.771,0.071,0.676,-1.592,-4.48,-2.45
37467090,-0.771,0.059,0.673,-1.697,-7.927,-0.787
37467100,-0.753,0.049,0.702,-2.222,-11.48,0.28
37467110,-0.707,0.045,0.734,-3.43,-14.507,1.347
37467120,-0.635,0.043,0.71,-3.99,-13.265,2.415
37467130,-0.587,0.035,0.653,-2.38,-6.037,2.45
37467140,-0.653,0.038,0.527,0.297,1.312,0.665
37467150,-0.821,0.091,0.552,3.115,3.115,-2.17
37467160,-0.92,0.116,0.7,1.592,-2.73,-6.527
37467170,-0.917,0.096,0.774,-3.675,-12.967,-10.5
37467180,-0.859,0.056,0.748,-6.492,-22.802,-11.34
37467190,-0.771,0.043,0.702,-4.445,-28.262,-8.575
37467200,-0.693,0.047,0.703,-3.325,-28.577,-3.867
37467210,-0.626,0.059,0.708,-3.657,-26.022,1.12
37467220,-0.596,0.05,0.708,-3.78,-19.04,5.6
37467230,-0.622,0.039,0.707,-1.872,-11.375,9.432
37467240,-0.666,0.048,0.717,0.122,-4.252,10.71
37467250,-0.709,0.072,0.703,1.365,1.68,10.115
37467260,-0.753,0.097,0.683,2.467,3.727,8.12
37467270,-0.796,0.103,0.686,2.905,1.68,4.252
37467280,-0.806,0.105,0.701,2.152,-2.135,-0.822
37467290,-0.769,0.084,0.744,0.437,-5.495,-3.482
37467300,-0.696,0.044,0.727,-1.295,-7.875,-3.115
37467310,-0.629,0.033,0.689,-0.647,-6.072,-0.7
37467320,-0.623,0.037,0.672,0.98,-3.22,2.905
37467330,-0.668,0.049,0.688,1.435,1.417,6.16
37467330,-0.713,0.054,0.697,0.56,3.815,7.735
37467350,-0.72,0.06,0.7,0.507,4.392,7.84
37467350,-0.708,0.054,0.691,0.577,3.885,6.632
37467370,-0.712,0.055,0.687,0.542,4.532,4.147
37467370,-0.742,0.065,0.675,0.315,5.32,1.4
37467390,-0.777,0.075,0.663,0.682,3.762,-1.312
37467390,-0.773,0.079,0.702,0.017,-0.437,-4.13
37467410,-0.71,0.07,0.726,-2.222,-4.287,-5.81
37467410,-0.639,0.045,0.698,-3.605,-3.99,-4.69
37467420,-0.629,0.032,0.682,-2.257,0.91,-2.117
37467430,-0.67,0.046,0.667,-0.157,7.332,-0.262
37467440,-0.73,0.058,0.612,0.91,11.042,-0.21
37467450,-0.807,0.082,0.562,1.12,9.485,-1.33
37467460,-0.884,0.093,0.637,-0.017,1.802,-3.587
37467470,-0.902,0.086,0.72,-3.342,-8.855,-6.387
37467480,-0.852,0.061,0.729,-6.002,-18.445,-7.49
37467490,-0.783,0.052,0.701,-4.987,-25.987,-5.88
37467500,-0.693,0.053,0.726,-3.762,-26.565,-2.502
37467510,-0.625,0.052,0.739,-4.217,-22.54,1.925
37467520,-0.595,0.047,0.708,-3.675,-15.365,6.44
37467530,-0.595,0.037,0.705,-1.575,-3.185,9.695
37467540,-0.619,0.041,0.696,0.21,7.735,9.852
37467550,-0.657,0.056,0.692,1.312,15.102,7.997
37467560,-0.702,0.071,0.691,2.747,21.14,5.005
37467570,-0.755,0.083,0.719,4.2,23.362,0.857
37467580,-0.784,0.094,0.726,4.042,22.925,-4.095
37467590,-0.797,0.102,0.701,3.57,22.82,-7.787
37467600,-0.808,0.106,0.693,3.15,19.372,-8.627
37467610,-0.775,0.105,0.74,2.012,15.802,-7.262
37467620,-0.694,0.061,0.728,-1.032,16.8,-4.165
37467630,-0.653,0.025,0.645,-2.065,18.077,-0.07
37467640,-0.682,0.023,0.627,-0.297,18.62,4.095
37467650,-0.753,0.044,0.645,1.155,20.125,7.21
37467660,-0.818,0.05,0.673,0.175,18.007,7.805
37467670,-0.829,0.053,0.655,-0.875,13.195,6.072
37467680,-0.817,0.056,0.637,-0.385,8.767,3.727
37467690,-0.814,0.064,0.647,-0.052,2.362,1.33
37467700,-0.816,0.07,0.641,-1.435,-2.467,-0.77
37467710,-0.818,0.068,0.636,-2.362,-7.175,-1.96
37467720,-0.807,0.059,0.654,-2.467,-12.67,-2.257
37467730,-0.769,0.052,0.689,-3.167,-16.555,-1.592
37467730,-0.713,0.042,0.688,-4.235,-17.99,0.385
37467750,-0.672,0.028,0.663,-4.13,-15.435,2.94
37467750,-0.711,0.028,0.593,-2.24,-12.95,3.885
37467760,-0.816,0.077,0.582,0.682,-16.432,2.66
37467770,-0.859,0.111,0.675,0.577,-21,0.052
37467780,-0.85,0.103,0.742,-3.045,-26.792,-2.397
37467790,-0.784,0.07,0.708,-5.075,-30.887,-3.71
37467800,-0.719,0.046,0.687,-2.887,-28.665,-2.87
37467810,-0.666,0.053,0.69,-1.032,-26.827,-1.155
37467820,-0.662,0.056,0.686,-1.575,-23.485,1.312
37467830,-0.65,0.062,0.716,-2.1,-19.635,3.692
37467840,-0.637,0.048,0.717,-1.925,-10.692,6.177
37467850,-0.648,0.042,0.71,-0.787,-1.312,6.93
37467860,-0.68,0.054,0.693,0.77,6.65,5.985
37467870,-0.719,0.077,0.699,2.485,11.812,3.57
37467880,-0.747,0.096,0.7,3.062,14.717,0.087
37467890,-0.769,0.091,0.679,2.957,15.96,-3.622
37467900,-0.783,0.087,0.676,2.625,13.352,-5.862
37467910,-0.744,0.074,0.721,1.697,13.282,-5.127
37467920,-0.68,0.047,0.698,0.367,14.297,-3.395
37467930,-0.661,0.036,0.644,1.085,14.035,-1.067
37467940,-0.71,0.041,0.646,2.695,14.717,1.137
37467950,-0.78,0.059,0.669,2.537,14.455,2.695
37467960,-0.831,0.067,0.674,0.752,10.605,3.22
37467970,-0.83,0.07,0.658,-0.315,5.215,2.1
37467980,-0.816,0.069,0.654,-1.067,-1.802,0.63
37467990,-0.808,0.069,0.667,-2.485,-8.137,-0.857
37468000,-0.805,0.059,0.648,-3.972,-13.107,-1.557
37468010,-0.782,0.055,0.653,-3.885,-18.27,-1.592
37468020,-0.724,0.056,0.687,-4.322,-21.122,-1.295
37468030,-0.658,0.045,0.698,-5.88,-19.407,0.087
37468040,-0.647,0.027,0.667,-6.107,-14.07,1.89
37468050,-0.72,0.04,0.62,-3.36,-9.152,1.925
37468060,-0.831,0.085,0.642,-0.087,-9.485,0.017
37468070,-0.883,0.097,0.69,-0.455,-15.627,-3.202
37468080,-0.855,0.083,0.698,-3.377,-23.012,-6.37
37468080,-0.794,0.055,0.667,-4.637,-29.312,-7.49
37468100,-0.759,0.042,0.673,-4.077,-31.307,-6.247
37468100,-0.737,0.058,0.716,-3.99,-35.525,-3.535
37468120,-0.674,0.04,0.709,-4.13,-35.245,0.28
37468120,-0.662,0.02,0.685,-3.535,-32.62,3.5
37468140,-0.646,0.036,0.713,-1.33,-29.89,5.88
37468140,-0.607,0.035,0.721,-0.28,-21.192,8.68
37468160,-0.598,0.03,0.723,0.175,-10.64,9.905
37468160,-0.623,0.045,0.71,1.977,-0.192,8.19
37468170,-0.675,0.066,0.714,5.145,9.1,4.532
37468180,-0.707,0.1,0.723,7.122,15.4,0.787
37468190,-0.724,0.11,0.723,6.947,19.495,-2.222
37468200,-0.709,0.112,0.728,5.407,21.227,-4.532
37468210,-0.638,0.076,0.75,3.622,26.88,-5.302
37468220,-0.607,0.043,0.69,3.482,31.342,-5.442
37468230,-0.666,0.055,0.651,5.6,31.167,-4.935
37468240,-0.776,0.078,0.667,5.985,29.207,-4.427
37468250,-0.898,0.089,0.684,3.237,22.942,-4.55
37468260,-0.939,0.084,0.691,0.087,13.562,-5.057
37468270,-0.893,0.078,0.651,-0.752,1.365,-5.005
37468280,-0.821,0.061,0.642,-1.557,-12.862,-3.675
37468290,-0.767,0.051,0.659,-3.832,-22.645,-1.925
37468300,-0.728,0.033,0.675,-5.705,-26.95,0.962
37468310,-0.704,0.016,0.689,-5.337,-27.58,4.06
37468320,-0.67,0.016,0.691,-3.815,-25.27,6.072
37468330,-0.664,0.023,0.684,-3.36,-21.21,6.982
37468340,-0.695,0.034,0.687,-3.657,-17.482,6.3
37468350,-0.759,0.051,0.654,-3.325,-16.327,4.165
37468360,-0.823,0.081,0.641,-1.067,-19.6,1.487
37468370,-0.842,0.086,0.714,-0.612,-25.34,-2.187
37468380,-0.801,0.08,0.726,-3.342,-30.45,-4.707
37468390,-0.731,0.067,0.714,-3.902,-32.322,-3.465
37468400,-0.675,0.05,0.715,-1.942,-29.347,-0.245
37468410,-0.657,0.068,0.745,-0.77,-27.562,3.22
37468420,-0.588,0.069,0.766,-1.277,-21.437,6.982
37468420,-0.554,0.041,0.722,-1.522,-8.137,10.78
37468440,-0.57,0.034,0.694,-0.035,3.447,11.847
37468440,-0.643,0.059,0.691,2.152,12.6,10.202
37468460,-0.729,0.078,0.703,2.765,17.325,7.297
37468460,-0.772,0.09,0.724,2.03,17.377,3.395
37468480,-0.758,0.091,0.72,0.927,15.907,-1.277
37468480,-0.724,0.086,0.703,0.437,14.315,-4.462
37468500,-0.712,0.081,0.697,0.21,14.962,-5.477
37468500,-0.719,0.08,0.708,-0.035,14.822,-4.917
37468510,-0.723,0.072,0.718,-0.647,13.632,-3.255
37468520,-0.719,0.061,0.701,-1.382,12.092,-0.962
37468530,-0.716,0.06,0.722,-1.347,12.285,1.907
37468540,-0.683,0.048,0.774,-1.505,14.875,4.077
37468550,-0.636,0.023,0.706,-1.47,21.087,5.075
37468560,-0.631,0.035,0.634,1.592,28.28,4.62
37468570,-0.691,0.052,0.624,4.48,34.107,3.342
37468580,-0.779,0.074,0.647,3.832,36.662,1.155
37468590,-0.836,0.08,0.666,1.942,33.302,-1.732
37468600,-0.843,0.08,0.658,1.155,27.335,-4.532
37468610,-0.83,0.08,0.649,1.207,20.072,-5.845
37468620,-0.822,0.073,0.628,1.225,11.812,-6.002
37468630,-0.837,0.068,0.61,0.035,4.515,-5.022
37468640,-0.848,0.073,0.625,-0.997,-3.045,-3.36
37468650,-0.849,0.068,0.661,-2.327,-12.565,-1.417
37468660,-0.83,0.046,0.698,-4.165,-22.33,0.052
37468670,-0.799,0.026,0.705,-6.16,-26.32,1.627
37468680,-0.778,0.023,0.679,-6.055,-25.97,3.185
37468690,-0.776,0.034,0.639,-4.042,-26.46,3.185
37468700,-0.827,0.047,0.54,-2.712,-28.49,1.295
37468710,-0.878,0.104,0.556,-1.802,-37.222,-1.225
37468720,-0.791,0.122,0.686,-4.34,-44.082,-3.71
37468730,-0.72,0.072,0.748,-10.027,-46.76,-3.797
37468740,-0.689,0.022,0.736,-10.85,-48.055,-2.817
37468750,-0.636,0.005,0.721,-6.475,-40.145,-0.437
37468760,-0.584,0.016,0.759,-2.345,-27.527,2.38
37468770,-0.538,0.019,0.732,-0.367,-19.53,4.077
37468780,-0.53,0.019,0.692,1.54,-9.152,4.742
37468790,-0.568,0.031,0.674,3.885,3.517,4.865
37468800,-0.645,0.059,0.673,5.827,13.23,3.675
37468810,-0.745,0.092,0.707,6.142,16.38,0.735
37468820,-0.812,0.107,0.732,4.602,14.682,-3.185
37468830,-0.826,0.103,0.733,2.712,10.202,-6.527
37468830,-0.796,0.092,0.719,1.627,4.742,-7.28
37468850,-0.737,0.078,0.687,0.962,0.84,-5.18
37468850,-0.684,0.064,0.687,0.105,0.315,-1.085
37468870,-0.641,0.04,0.739,-1.067,-0.332,2.712
37468870,-0.583,0.021,0.709,-1.47,1.715,5.355
37468890,-0.564,0.02,0.685,1.085,10.167,7.84
37468890,-0.605,0.04,0.678,4.567,18.585,8.067
37468910,-0.692,0.062,0.685,5.582,27.02,5.425
37468910,-0.776,0.076,0.677,5.285,31.5,1.102
37468920,-0.833,0.084,0.655,5.582,30.065,-3.29
37468930,-0.864,0.08,0.653,4.812,26.092,-7.525
37468940,-0.883,0.078,0.644,2.607,18.935,-10.745
37468950,-0.888,0.076,0.635,0.63,9.765,-10.937
37468960,-0.872,0.077,0.64,-0.157,-1.015,-8.522
37468970,-0.825,0.066,0.662,-1.837,-12.722,-4.97
37468980,-0.762,0.041,0.689,-4.62,-21.752,-1.225
37468990,-0.704,0.021,0.688,-6.352,-25.515,2.625
37469000,-0.67,0.018,0.664,-5.162,-25.007,6.685
37469010,-0.68,0.024,0.629,-2.327,-21.262,8.627
37469020,-0.764,0.045,0.559,-0.787,-19.652,7.49
37469030,-0.859,0.086,0.603,-0.542,-23.397,4.69
37469040,-0.869,0.09,0.711,-2.73,-30.835,0.857
37469050,-0.825,0.061,0.763,-6.02,-37.187,-2.59
37469060,-0.751,0.03,0.738,-6.247,-40.127,-4.287
37469070,-0.674,0.024,0.709,-3.377,-37.765,-3.605
37469080,-0.627,0.039,0.714,-1.715,-32.917,-0.35
37469090,-0.595,0.053,0.722,-1.382,-27.177,3.29
37469100,-0.584,0.051,0.715,-1.015,-19.25,6.597
37469110,-0.598,0.049,0.712,0.735,-11.182,8.89
37469120,-0.629,0.057,0.719,2.537,-2.905,8.855
37469130,-0.667,0.068,0.718,3.902,3.237,6.842
37469140,-0.7,0.08,0.719,4.55,8.347,3.395
37469150,-0.707,0.089,0.716,5.04,13.002,-0.595
37469160,-0.7,0.096,0.713,5.337,16.73,-4.27
37469170,-0.707,0.092,0.725,4.095,19.425,-6.335
37469170,-0.729,0.086,0.716,1.785,20.58,-7.035
37469190,-0.731,0.091,0.732,1.05,20.37,-5.845
37469190,-0.702,0.076,0.757,0.805,19.74,-3.29
37469210,-0.64,0.054,0.716,-0.227,21.385,-0.595
37469210,-0.623,0.046,0.67,0.245,25.112,2.362
37469230,-0.684,0.041,0.636,1.47,28.822,4.707
37469230,-0.772,0.053,0.662,1.627,32.217,4.707
37469250,-0.829,0.07,0.675,1.207,30.747,2.782
37469250,-0.857,0.071,0.668,0.91,23.415,0.682
37469260,-0.842,0.071,0.671,-0.21,14.595,-1.645
37469270,-0.814,0.073,0.656,-2.327,7.875,-2.152
37469280,-0.794,0.081,0.646,-3.167,2.292,-0.297
37469290,-0.783,0.087,0.644,-3.377,-2.695,2.082
37469300,-0.768,0.088,0.656,-4.235,-6.912,4.182
37469310,-0.754,0.076,0.678,-5.495,-10.85,6.195
37469320,-0.738,0.055,0.678,-6.685,-12.652,7.472
37469330,-0.725,0.036,0.664,-6.72,-11.095,7.367
37469340,-0.733,0.031,0.654,-5.442,-8.347,5.775
37469350,-0.77,0.029,0.622,-4.235,-6.667,3.01
37469360,-0.831,0.049,0.582,-2.905,-9.415,-0.175
37469370,-0.884,0.065,0.627,-2.257,-17.552,-3.675
37469380,-0.897,0.067,0.687,-4.987,-29.312,-6.877
37469390,-0.844,0.052,0.686,-8.015,-39.182,-7.665
37469400,-0.769,0.03,0.657,-7.84,-42.735,-4.462
37469410,-0.703,0.029,0.663,-5.565,-44.905,0.315
37469420,-0.65,0.049,0.713,-4.41,-44.992,4.445
37469430,-0.596,0.06,0.746,-4.357,-39.83,8.295
37469440,-0.57,0.044,0.751,-3.412,-29.19,11.707
37469450,-0.553,0.037,0.741,-1.172,-15.54,12.372
37469460,-0.578,0.041,0.71,1.33,-0.437,10.64
37469470,-0.649,0.063,0.692,3.517,9.695,6.807
37469480,-0.718,0.095,0.709,4.375,14.875,1.732
37469490,-0.754,0.113,0.732,4.077,16.765,-3.745
37469500,-0.749,0.1,0.728,2.695,16.975,-8.172
37469510,-0.733,0.075,0.704,1.365,16.45,-9.852
37469520,-0.716,0.071,0.688,1.085,16.152,-8.872
37469530,-0.672,0.077,0.721,1.102,18.83,-5.652
37469540,-0.626,0.042,0.737,0.175,25.252,-1.417
37469550,-0.625,0.026,0.686,0.787,28.892,2.152
37469560,-0.665,0.025,0.653,3.552,31.5,4.812
37469570,-0.744,0.043,0.65,4.777,34.44,5.617
37469580,-0.841,0.061,0.659,3.412,33.407,4.375
37469580,-0.908,0.072,0.652,2.38,26.32,1.575
37469600,-0.916,0.075,0.659,1.68,15.802,-1.75
37469600,-0.874,0.074,0.654,-0.157,5.04,-3.78
37469620,-0.824,0.07,0.632,-2.187,-4.882,-3.255
37469620,-0.786,0.063,0.639,-2.905,-10.867,-0.647
37469640,-0.771,0.058,0.659,-3.307,-15.907,1.872
37469640,-0.747,0.046,0.675,-4.235,-19.88,4.182
37469660,-0.707,0.039,0.675,-4.882,-20.125,6.772
37469660,-0.682,0.039,0.675,-4.55,-18.095,8.697
37469670,-0.692,0.049,0.66,-3.867,-14.175,8.137
37469680,-0.772,0.064,0.597,-2.975,-11.707,4.917
37469690,-0.891,0.107,0.616,-0.84,-17.85,0.315
37469700,-0.923,0.105,0.698,-1.785,-27.422,-4.882
37469710,-0.886,0.083,0.736,-5.95,-34.667,-9.467
37469720,-0.772,0.065,0.673,-6.632,-42.84,-9.572
37469730,-0.692,0.032,0.675,-5.022,-40.022,-5.285
37469740,-0.647,0.052,0.713,-4.252,-42.507,-1.592
37469750,-0.623,0.049,0.722,-4.917,-39.48,2.922
37469760,-0.628,0.039,0.707,-3.22,-33.932,7.07
37469770,-0.618,0.029,0.703,-0.542,-26.757,9.03
37469780,-0.638,0.033,0.717,-0.157,-16.24,8.995
37469790,-0.66,0.048,0.732,0.402,-10.29,7.262
37469800,-0.674,0.053,0.726,1.487,-4.322,4.777
37469810,-0.691,0.053,0.71,2.905,1.75,1.207
37469820,-0.7,0.067,0.711,4.112,5.425,-2.747
37469830,-0.708,0.08,0.725,4.06,6.895,-4.935
37469840,-0.704,0.085,0.731,2.747,9.03,-4.76
37469850,-0.667,0.09,0.737,2.887,11.952,-2.957
37469860,-0.626,0.074,0.769,2.712,18.707,-0.49
37469870,-0.602,0.055,0.753,1.942,27.895,1.452
37469880,-0.619,0.055,0.701,3.885,34.79,3.045
37469890,-0.683,0.061,0.668,7.052,36.452,2.712
37469900,-0.769,0.078,0.644,7.385,36.137,0.315
37469910,-0.845,0.087,0.654,5.442,32.287,-2.852
37469920,-0.885,0.088,0.683,2.905,23.467,-5.81
37469920,-0.882,0.08,0.672,0.28,12.022,-7.472
37469940,-0.846,0.069,0.659,-0.962,1.557,-7.035
37469940,-0.804,0.064,0.651,-1.365,-6.685,-4.672
37469960,-0.776,0.064,0.65,-2.537,-13.807,-1.312
37469960,-0.751,0.055,0.673,-4.305,-19.862,1.995
37469980,-0.722,0.041,0.687,-5.757,-23.397,4.987
37469980,-0.691,0.029,0.689,-6.037,-22.907,7.507
37470000,-0.675,0.033,0.68,-4.935,-21,8.4
37470000,-0.698,0.044,0.667,-4.13,-17.815,6.72
37470010,-0.797,0.053,0.573,-3.255,-18.357,3.01
37470020,-0.916,0.101,0.609,-1.137,-27.895,-1.662
37470030,-0.92,0.123,0.791,-3.552,-41.142,-6.352
37470040,-0.799,0.099,0.841,-9.66,-49.472,-6.387
37470050,-0.604,0.024,0.731,-10.062,-47.635,-0.665
37470060,-0.499,-0.015,0.643,-4.585,-36.085,6.195
37470070,-0.538,0.009,0.677,-0.052,-22.12,10.815
37470080,-0.64,0.069,0.7,1.47,-17.377,12.425
37470090,-0.687,0.088,0.727,1.26,-11.602,12.267
37470100,-0.678,0.084,0.745,-0.42,-5.407,9.135
37470110,-0.64,0.083,0.783,-2.222,0.857,4.13
37470120,-0.634,0.089,0.762,-3.185,8.452,0.175
37470130,-0.64,0.104,0.729,-1.802,13.125,-3.517
37470140,-0.668,0.117,0.752,-1.19,17.29,-8.697
37470150,-0.699,0.122,0.751,-3.29,21.245,-13.405
37470160,-0.763,0.087,0.724,-5.967,22.347,-13.562
37470170,-0.793,0.056,0.694,-7.245,15.942,-11.27
37470180,-0.772,0.023,0.664,-8.715,9.397,-7.052
37470190,-0.712,-0.009,0.632,-9.135,3.272,-1.68
37470200,-0.678,-0.043,0.614,-7.98,-1.347,3.115
37470210,-0.698,-0.055,0.635,-5.67,0,6.597
37470220,-0.765,-0.03,0.665,-1.977,-0.945,9.012
37470230,-0.807,-0.003,0.664,1.242,-2.922,10.762
37470240,-0.786,0.022,0.67,1.837,-4.322,11.48
37470250,-0.744,0.053,0.718,0.437,-6.877,10.675
37470260,-0.699,0.087,0.738,-0.525,-7.822,9.135
37470270,-0.695,0.093,0.757,-0.437,-5.057,7.507
37470280,-0.758,0.102,0.752,-0.595,-4.2,4.2
37470290,-0.792,0.12,0.762,-1.365,-6.002,1.19
37470300,-0.77,0.134,0.763,-3.36,-12.792,-0.192
37470310,-0.708,0.121,0.742,-6.317,-19.197,0.472
37470320,-0.62,0.089,0.729,-9.117,-19.425,1.645
37470330,-0.593,0.07,0.729,-9.362,-14.962,3.097
37470330,-0.618,0.065,0.705,-7.577,-7.472,4.672
37470350,-0.679,0.068,0.703,-4.252,-0.84,4.847
37470350,-0.745,0.081,0.726,-1.662,2.397,2.817
37470370,-0.793,0.09,0.72,-0.472,-4.83,0.892
37470370,-0.774,0.055,0.718,-1.487,-4.76,-0.787
37470390,-0.73,0.033,0.692,-1.155,-5.302,-2.292
37470390,-0.694,0.018,0.687,0.472,-5.075,-2.87
37470410,-0.698,0.011,0.696,1.33,-0.087,-2.205
37470410,-0.724,0.023,0.686,2.38,0.56,-0.595
37470420,-0.745,0.033,0.693,3.395,-1.015,1.225
37470430,-0.739,0.04,0.698,2.94,-3.185,2.642
37470440,-0.699,0.04,0.725,1.207,-4.655,3.605
37470450,-0.63,0.021,0.76,-0.35,0.647,4.917
37470460,-0.596,0.008,0.692,0.49,7.612,5.792
37470470,-0.601,0.035,0.671,4.515,14.052,5.617
37470480,-0.669,0.074,0.683,6.422,19.232,4.707
37470490,-0.759,0.095,0.712,5.04,23.222,2.677
37470500,-0.814,0.101,0.701,3.185,21.297,0.017
37470510,-0.826,0.095,0.691,3.027,15.925,-2.712
37470520,-0.81,0.091,0.674,2.52,9.327,-4.952
37470530,-0.793,0.089,0.663,1.365,1.837,-5.95
37470540,-0.789,0.085,0.687,0.14,-6.405,-5.6
37470550,-0.761,0.071,0.732,-1.855,-12.67,-4.445
37470560,-0.713,0.044,0.732,-3.587,-16.607,-2.275
37470570,-0.655,0.03,0.7,-3.307,-16.765,1.05
37470580,-0.633,0.035,0.681,-1.575,-12.932,4.217
37470590,-0.673,0.049,0.673,-0.735,-9.537,5.04
37470600,-0.792,0.05,0.594,-0.962,-9.8,3.01
37470610,-0.91,0.088,0.656,0.07,-18.252,-0.892
37470620,-0.883,0.096,0.779,-1.715,-30.205,-5.022
37470630,-0.783,0.063,0.747,-5.53,-37.537,-5.967
37470640,-0.683,0.022,0.681,-5.442,-39.48,-4.322
37470650,-0.622,0.034,0.701,-2.012,-39.252,-1.872
37470660,-0.579,0.038,0.743,-2.152,-32.392,1.522
37470670,-0.609,0.043,0.745,-3.115,-23.345,5.46
37470670,-0.626,0.037,0.707,-0.752,-18.165,8.015
37470690,-0.653,0.039,0.723,1.102,-9.625,7.857
37470690,-0.681,0.063,0.749,1.277,-6.02,5.565
37470710,-0.685,0.066,0.743,1.47,-4.497,3.202
37470710,-0.687,0.052,0.737,2.572,-0.717,0.175
37470730,-0.676,0.055,0.727,3.902,3.045,-3.482
37470730,-0.66,0.068,0.728,4.637,7.945,-4.76
37470750,-0.683,0.093,0.746,4.602,10.657,-3.465
37470750,-0.73,0.11,0.753,3.535,7.7,-2.345
37470760,-0.728,0.112,0.753,2.152,6.72,-2.135
37470770,-0.679,0.098,0.777,1.61,11.147,-0.787
37470780,-0.621,0.068,0.764,1.662,15.12,1.277
37470790,-0.591,0.054,0.724,2.31,18.515,2.362
37470800,-0.605,0.038,0.676,3.465,22.522,2.222
37470810,-0.671,0.045,0.669,4.62,25.795,1.155
37470820,-0.761,0.061,0.683,4.9,23.975,-0.927
37470830,-0.819,0.077,0.702,4.27,20.702,-3.797
37470840,-0.824,0.073,0.704,3.115,15.277,-6.807
37470850,-0.821,0.059,0.651,2.275,6.93,-8.522
37470860,-0.806,0.057,0.633,2.24,-1.54,-8.435
37470870,-0.775,0.064,0.687,1.155,-8.277,-6.895
37470880,-0.737,0.046,0.712,-2.205,-14.28,-4.497
37470890,-0.697,0.022,0.685,-4.042,-17.325,-1.557
37470900,-0.679,0.015,0.665,-2.835,-17.045,1.382
37470910,-0.71,0.018,0.65,-1.435,-16.782,2.975
37470920,-0.815,0.045,0.596,-1.207,-21.63,2.275
37470930,-0.893,0.079,0.687,-0.945,-31.5,-0.122
37470940,-0.876,0.088,0.761,-3.202,-42.735,-3.08
37470950,-0.808,0.084,0.757,-5.285,-52.622,-4.48
37470960,-0.709,0.07,0.741,-4.707,-56.857,-3.132
37470970,-0.611,0.06,0.753,-4.025,-53.445,-0.332
37470980,-0.564,0.056,0.757,-3.902,-49.175,3.08
37470990,-0.551,0.051,0.751,-3.08,-42.612,6.457
37471000,-0.565,0.053,0.76,-1.225,-36.802,8.312
37471010,-0.564,0.037,0.776,-0.84,-25.497,8.242
37471020,-0.561,0.042,0.769,-0.245,-11.55,6.352
37471030,-0.576,0.046,0.763,2.38,1.855,3.587
37471040,-0.612,0.072,0.752,5.652,8.837,0.035
37471050,-0.63,0.088,0.75,7.192,16.152,-3.797
37471060,-0.656,0.092,0.755,6.282,21.192,-7.437
37471070,-0.673,0.088,0.759,4.672,23.082,-9.38
37471080,-0.664,0.088,0.768,3.657,26.04,-9.187
37471080,-0.613,0.077,0.803,3.552,32.217,-6.685
37471100,-0.574,0.05,0.765,3.5,37.625,-3.692
37471100,-0.574,0.049,0.701,4.672,40.95,-1.767
37471120,-0.618,0.062,0.688,6.3,44.677,-0.542
37471120,-0.728,0.069,0.696,5.845,45.517,-0.857
37471140,-0.822,0.076,0.705,4.165,42.945,-2.87
37471140,-0.872,0.076,0.68,3.36,35.63,-4.917
37471160,-0.869,0.07,0.691,2.747,24.797,-6.492
37471160,-0.824,0.066,0.677,0.56,13.387,-7.21
37471170,-0.794,0.051,0.646,-1.645,3.027,-5.915
37471180,-0.785,0.054,0.655,-2.327,-3.99,-3.5
37471190,-0.768,0.063,0.671,-2.135,-9.59,-0.84
37471200,-0.745,0.059,0.705,-2.712,-15.102,1.925
37471210,-0.739,0.045,0.715,-3.727,-19.6,3.692
37471220,-0.732,0.035,0.714,-3.902,-21.945,4.2
37471230,-0.72,0.036,0.692,-3.027,-22.505,3.447
37471240,-0.715,0.039,0.678,-2.362,-22.522,1.942
37471250,-0.767,0.034,0.618,-2.45,-25.095,-0.595
37471260,-0.861,0.056,0.612,-2.03,-33.32,-3.57
37471270,-0.907,0.076,0.722,-3.482,-46.725,-6.632
37471280,-0.833,0.081,0.771,-7.507,-59.64,-7.297
37471290,-0.726,0.043,0.762,-10.342,-63.717,-3.92
37471300,-0.617,0.031,0.732,-8.54,-68.092,0.42
37471310,-0.516,0.013,0.755,-6.72,-59.185,5.53
37471320,-0.474,0.023,0.749,-5.005,-47.302,9.782
37471330,-0.484,0.026,0.735,-1.61,-33.197,12.74
37471340,-0.544,0.036,0.767,0.822,-18.602,12.46
37471350,-0.57,0.06,0.784,2.502,-8.33,9.065
37471360,-0.595,0.058,0.772,3.115,3.202,5.425
37471370,-0.638,0.069,0.759,4.707,10.937,1.347
37471380,-0.675,0.097,0.771,6.055,14.227,-3.307
37471390,-0.67,0.117,0.784,6.457,16.31,-6.947
37471400,-0.64,0.103,0.777,4.97,19.39,-8.137
37471410,-0.584,0.097,0.809,3.727,24.5,-7.297
37471420,-0.522,0.058,0.807,2.537,36.872,-4.357
37471420,-0.531,0.035,0.742,3.762,48.545,-0.017
37471440,-0.607,0.034,0.707,6.755,52.692,2.257
37471440,-0.713,0.054,0.687,7.525,52.272,1.697
37471460,-0.799,0.073,0.709,5.267,50.382,-0.157
37471460,-0.856,0.088,0.706,3.097,41.317,-2.467
37471480,-0.861,0.08,0.69,1.382,30.765,-4.41
37471480,-0.832,0.075,0.684,-0.35,19.232,-5.862
37471500,-0.81,0.062,0.659,-1.96,7.91,-5.477
37471500,-0.795,0.05,0.644,-2.905,-3.062,-3.535
37471510,-0.766,0.046,0.688,-4.165,-11.637,-1.155
37471520,-0.727,0.042,0.719,-5.705,-17.062,1.96
37471530,-0.702,0.032,0.703,-5.967,-18.672,5.425
37471540,-0.71,0.033,0.691,-4.392,-20.002,7.332
37471550,-0.74,0.045,0.696,-3.272,-21.875,6.93
37471560,-0.794,0.054,0.652,-3.202,-27.352,5.005
37471570,-0.842,0.075,0.662,-2.852,-36.645,2.03
37471580,-0.828,0.073,0.726,-4.305,-43.872,-1.365
37471590,-0.798,0.069,0.738,-6.965,-50.347,-2.572
37471600,-0.739,0.054,0.737,-7.42,-55.09,-0.717
37471610,-0.656,0.052,0.747,-6.93,-58.397,2.135
37471620,-0.576,0.046,0.775,-7.14,-56.595,5.512
37471630,-0.51,0.03,0.753,-6.667,-48.23,9.362
37471640,-0.499,0.033,0.732,-3.605,-38.325,12.372
37471650,-0.522,0.039,0.783,-1.382,-24.955,12.95
37471660,-0.564,0.049,0.767,-0.63,-14.017,10.657
37471670,-0.608,0.048,0.753,0.542,-4.707,7.14
37471680,-0.667,0.06,0.761,1.89,1.75,2.765
37471690,-0.686,0.083,0.781,2.467,2.135,-2.117
37471700,-0.656,0.083,0.788,1.19,2.782,-4.865
37471710,-0.615,0.056,0.755,-0.122,6.037,-5.11
37471720,-0.606,0.052,0.745,0.157,9.275,-4.252
37471730,-0.617,0.069,0.762,1.26,13.072,-2.135
37471740,-0.622,0.079,0.759,1.347,16.87,1.102
37471750,-0.61,0.071,0.743,1.417,21.892,4.532
37471760,-0.629,0.07,0.742,1.837,26.372,6.02
37471770,-0.668,0.081,0.759,2.065,29.33,5.075
37471780,-0.663,0.097,0.793,2.082,33.757,3.43
37471790,-0.587,0.085,0.815,2.065,43.47,2.502
37471800,-0.521,0.051,0.752,2.8,53.9,1.347
37471810,-0.57,0.042,0.688,4.847,57.522,-1.015
37471820,-0.726,0.061,0.674,5.897,56.787,-4.182
37471830,-0.858,0.088,0.707,4.305,54.302,-7.175
37471830,-0.943,0.088,0.692,1.155,44.975,-9.152
37471850,-0.958,0.083,0.646,-0.787,29.155,-10.115
37471850,-0.923,0.075,0.642,-2.502,9.835,-9.432
37471860,-0.865,0.061,0.684,-5.88,-7.875,-7.052
37471870,-0.807,0.042,0.7,-9.625,-19.337,-3.132
37471880,-0.735,0.022,0.682,-9.73,-26.092,1.627
37471890,-0.685,0.014,0.664,-6.737,-28.227,6.527
37471900,-0.695,0.029,0.679,-3.867,-29.96,9.817
37471910,-0.741,0.038,0.638,-4.182,-32.812,10.675
37471920,-0.846,0.056,0.6,-4.917,-39.462,9.362
37471930,-0.882,0.099,0.732,-5.127,-53.987,5.162
37471940,-0.824,0.081,0.779,-8.172,-61.757,1.802
37471950,-0.729,0.049,0.739,-9.642,-68.985,-0.245
37471960,-0.595,0.041,0.757,-7.927,-67.34,0.035
37471970,-0.47,0.023,0.765,-6.51,-56.997,2.345
37471980,-0.432,0.006,0.746,-5.075,-41.667,6.545
37471990,-0.469,0.014,0.758,-1.627,-24.727,9.642
37472000,-0.522,0.038,0.775,1.785,-7.962,9.467
37472010,-0.568,0.056,0.772,3.255,3.85,7.822
37472020,-0.618,0.069,0.75,4.585,12.285,5.18
37472030,-0.686,0.084,0.771,4.777,16.082,1.225
37472040,-0.718,0.103,0.795,3.78,15.785,-3.552
37472050,-0.691,0.104,0.772,2.257,17.167,-6.09
37472060,-0.641,0.086,0.745,1.697,19.582,-5.6
37472070,-0.632,0.079,0.745,1.085,20.265,-4.76
37472080,-0.662,0.084,0.755,-0.07,20.667,-3.64
37472090,-0.68,0.088,0.752,-0.035,23.17,-0.332
37472100,-0.648,0.079,0.812,1.487,26.39,4.042
37472110,-0.587,0.026,0.782,1.505,30.432,6.107
37472120,-0.557,0.018,0.679,2.66,34.72,5.372
37472130,-0.602,0.028,0.653,5.635,42.42,3.832
37472140,-0.735,0.057,0.662,7.56,47.617,1.12
37472150,-0.847,0.071,0.698,6.422,44.642,-3.465
37472160,-0.903,0.066,0.698,4.602,36.155,-8.19
37472170,-0.882,0.066,0.663,2.905,22.19,-11.007
37472170,-0.826,0.067,0.646,0.91,9.327,-9.94
37472190,-0.804,0.064,0.649,-1.61,-1.137,-7.087
37472190,-0.79,0.057,0.696,-3.902,-10.377,-4.095
37472210,-0.769,0.036,0.697,-5.057,-16.537,-0.332
37472210,-0.741,0.024,0.689,-3.867,-20.23,4.007
37472230,-0.726,0.04,0.693,-1.872,-24.22,7.682
37472230,-0.724,0.047,0.69,-1.942,-27.982,9.572
37472250,-0.74,0.039,0.663,-3.482,-30.45,9.082
37472250,-0.791,0.051,0.601,-3.465,-35.682,6.825
37472260,-0.861,0.09,0.669,-2.677,-44.765,3.5
37472270,-0.876,0.108,0.797,-5.337,-57.365,-0.647
37472280,-0.798,0.089,0.78,-9.345,-67.357,-3.097
37472290,-0.687,0.058,0.726,-9.012,-71.435,-1.207
37472300,-0.593,0.041,0.776,-7.42,-65.135,3.255
37472310,-0.5,0.054,0.761,-7.052,-62.16,7.35
37472320,-0.439,0.041,0.772,-6.825,-49.787,12.04
37472330,-0.444,0.021,0.799,-5.425,-30.222,14.63
37472340,-0.479,0.038,0.774,-0.7,-16.572,13.615
37472350,-0.543,0.033,0.763,2.992,-2.59,10.78
37472360,-0.635,0.061,0.758,4.795,7.945,5.477
37472370,-0.722,0.089,0.773,4.27,9.03,-0.28
37472380,-0.744,0.095,0.786,2.905,6.72,-5.267
37472390,-0.7,0.075,0.768,1.067,4.602,-8.277
37472400,-0.648,0.059,0.757,-0.542,3.307,-8.312
37472410,-0.624,0.07,0.765,-0.437,1.032,-5.81
37472420,-0.611,0.07,0.77,-0.752,2.835,-1.435
37472430,-0.597,0.073,0.762,-0.822,7.175,2.572
37472440,-0.609,0.069,0.759,-0.087,11.83,5.985
37472450,-0.647,0.069,0.757,0.332,15.662,7.787
37472460,-0.68,0.077,0.755,0.367,17.675,7.42
37472470,-0.682,0.09,0.773,0.49,17.325,5.757
37472480,-0.626,0.073,0.813,0.28,20.807,3.762
37472490,-0.554,0.042,0.747,0.472,27.16,1.347
37472500,-0.537,0.037,0.699,3.132,33.355,-0.927
37472510,-0.594,0.061,0.709,5.075,38.71,-2.975
37472520,-0.682,0.08,0.757,4.095,44.607,-4.462
37472530,-0.76,0.074,0.726,2.765,43.68,-5.285
37472540,-0.786,0.07,0.693,3.237,39.777,-6.282
37472550,-0.809,0.084,0.706,2.572,32.252,-6.982
37472550,-0.818,0.088,0.685,0.017,23.012,-6.562
37472570,-0.845,0.079,0.659,-2.082,13.702,-5.25
37472570,-0.854,0.077,0.678,-2.52,0.787,-4.462
37472580,-0.814,0.074,0.717,-3.605,-11.252,-3.202
37472590,-0.743,0.043,0.722,-5.075,-18.182,-0.122
37472600,-0.695,0.018,0.695,-4.865,-21.402,3.552
37472610,-0.69,0.02,0.693,-2.8,-22.452,5.88
37472620,-0.747,0.039,0.667,-1.155,-25.515,5.897
37472630,-0.867,0.082,0.634,-0.612,-39.375,3.447
37472640,-0.866,0.093,0.736,-2.905,-47.95,0.262
37472650,-0.81,0.072,0.796,-7.262,-53.305,-1.067
37472660,-0.675,0.056,0.775,-8.067,-61.862,-1.207
37472670,-0.495,0.026,0.754,-6.247,-47.075,2.1
37472680,-0.46,0.011,0.723,-4.235,-29.96,5.652
37472690,-0.521,0.021,0.758,-1.645,-23.047,7.28
37472700,-0.533,0.057,0.784,0.612,-14.245,6.37
37472710,-0.493,0.045,0.767,2.957,3.465,6.825
37472720,-0.528,0.036,0.738,5.18,17.517,5.197
37472730,-0.637,0.078,0.742,7.402,23.117,-0.367
37472740,-0.744,0.122,0.774,7.087,24.36,-5.687
37472750,-0.771,0.128,0.785,5.197,23.695,-9.292
37472760,-0.725,0.11,0.762,2.642,22.89,-11.375
37472770,-0.673,0.091,0.741,0.49,21.91,-11.2
37472780,-0.633,0.085,0.792,-0.752,22.802,-8.4
37472790,-0.586,0.058,0.777,-1.382,25.69,-3.797
37472800,-0.558,0.033,0.702,-0.21,31.955,1.032
37472810,-0.592,0.026,0.686,2.992,38.92,3.832
37472820,-0.67,0.056,0.694,4.847,42.315,3.587
37472830,-0.753,0.061,0.706,3.675,44.502,2.1
37472840,-0.81,0.063,0.679,2.87,44.677,-0.56
37472850,-0.843,0.07,0.65,3.78,37.852,-3.797
37472860,-0.851,0.071,0.653,3.622,29.225,-7.07
37472870,-0.858,0.069,0.638,1.715,18.935,-9.432
37472880,-0.857,0.066,0.643,-0.14,8.067,-9.52
37472890,-0.832,0.065,0.652,-0.997,-2.922,-7.49
37472900,-0.786,0.057,0.665,-1.82,-12.25,-3.64
37472910,-0.748,0.043,0.69,-3.15,-19.32,0.542
37472920,-0.728,0.031,0.701,-4.165,-22.82,3.972
37472920,-0.718,0.026,0.693,-3.5,-23.397,6.265
37472940,-0.713,0.031,0.679,-1.767,-22.732,6.667
37472940,-0.721,0.035,0.667,-1.522,-21.507,5.372
37472960,-0.765,0.031,0.607,-2.152,-22.522,2.73
37472960,-0.865,0.069,0.593,-1.312,-31.972,-0.682
37472980,-0.875,0.098,0.718,-1.785,-46.112,-5.04
37472980,-0.832,0.094,0.761,-6.44,-58.572,-7.647
37473000,-0.735,0.054,0.773,-8.96,-61.967,-6.247
37473000,-0.616,0.048,0.735,-7.14,-62.352,-2.397
37473010,-0.532,0.041,0.754,-3.99,-55.037,2.677
37473020,-0.495,0.039,0.778,-3.465,-42.297,7.437
37473030,-0.519,0.027,0.766,-2.012,-28.367,10.57
37473040,-0.548,0.032,0.762,1.172,-17.832,10.605
37473050,-0.554,0.047,0.771,3.342,-5.757,8.61
37473060,-0.577,0.056,0.761,3.99,5.635,5.145
37473070,-0.615,0.072,0.753,4.515,14.997,1.207
37473080,-0.659,0.09,0.75,5.635,21.07,-2.31
37473090,-0.692,0.101,0.758,5.687,24.115,-5.915
37473100,-0.698,0.105,0.755,3.972,25.882,-8.4
37473110,-0.671,0.095,0.801,2.03,27.737,-8.172
37473120,-0.625,0.058,0.804,1.085,30.187,-5.967
37473130,-0.585,0.033,0.722,1.82,33.985,-2.8
37473140,-0.623,0.033,0.655,4.06,34.755,0.472
37473150,-0.729,0.058,0.671,4.532,33.53,2.362
37473160,-0.828,0.074,0.692,1.907,28.717,2.765
37473170,-0.874,0.075,0.697,-0.28,21.805,2.047
37473180,-0.86,0.069,0.683,-1.015,12.46,0.56
37473190,-0.834,0.074,0.666,-1.802,1.207,-0.542
37473200,-0.805,0.085,0.662,-3.36,-9.275,-0.35
37473210,-0.757,0.092,0.696,-5.267,-18.165,1.347
37473220,-0.688,0.079,0.73,-7.21,-23.765,3.57
37473230,-0.642,0.05,0.723,-7.875,-24.745,5.827
37473240,-0.65,0.031,0.71,-6.825,-21.612,7.49
37473250,-0.708,0.039,0.709,-5.075,-18.777,7.122
37473260,-0.767,0.05,0.716,-4.322,-19.617,4.182
37473260,-0.793,0.048,0.707,-4.252,-24.01,-0.245
37473280,-0.828,0.031,0.632,-4.34,-30.87,-4.672
37473280,-0.903,0.072,0.61,-4.182,-43.137,-8.085
37473300,-0.904,0.103,0.741,-7.035,-59.955,-8.417
37473300,-0.792,0.076,0.79,-13.125,-73.097,-4.76
37473320,-0.631,0.022,0.75,-15.417,-77.49,1.977
37473320,-0.503,-0.014,0.745,-11.76,-73.447,8.75
37473330,-0.44,-0.011,0.768,-6.44,-63.42,13.65
37473340,-0.416,-0.01,0.799,-2.905,-46.602,17.36
37473350,-0.377,-0.003,0.788,0.63,-26.74,17.902
37473360,-0.357,0.008,0.788,4.305,-2.52,15.785
37473370,-0.422,0.032,0.761,7.63,18.2,10.972
37473380,-0.551,0.074,0.763,10.5,34.51,4.112
37473390,-0.678,0.119,0.794,11.445,43.575,-2.712
37473400,-0.747,0.138,0.813,9.887,46.13,-9.292
37473410,-0.748,0.129,0.807,6.615,45.815,-15.015
37473420,-0.709,0.109,0.78,3.377,44.152,-17.01
37473430,-0.651,0.097,0.793,1.557,43.242,-14.472
37473440,-0.584,0.078,0.822,0,45.395,-9.817
37473450,-0.561,0.038,0.738,0.035,46.305,-4.655
37473460,-0.624,0.013,0.646,2.607,46.69,0.49
37473470,-0.707,0.031,0.64,6.107,46.672,4.445
37473480,-0.794,0.069,0.68,5.757,44.065,6.72
37473490,-0.85,0.091,0.702,2.432,34.807,7.035
37473500,-0.862,0.086,0.735,-0.7,24.132,5.792
37473510,-0.858,0.067,0.702,-2.765,11.987,3.377
37473520,-0.833,0.067,0.678,-3.517,2.642,1.242
37473530,-0.775,0.081,0.675,-3.745,-2.835,0.105
37473540,-0.736,0.078,0.686,-4.585,-7.245,-0.105
37473550,-0.719,0.054,0.708,-6.02,-11.497,0.49
37473560,-0.726,0.031,0.703,-6.632,-13.842,1.837
37473570,-0.74,0.022,0.69,-5.845,-14.367,3.832
37473580,-0.765,0.04,0.68,-4.252,-17.64,4.34
37473590,-0.795,0.049,0.651,-3.447,-23.38,2.8
37473600,-0.856,0.066,0.594,-3.237,-32.97,-0.42
37473610,-0.883,0.096,0.652,-3.465,-49.49,-3.622
37473620,-0.847,0.085,0.777,-7.962,-60.007,-3.902
37473630,-0.755,0.059,0.788,-11.952,-70.98,-2.03
37473640,-0.631,0.02,0.726,-11.06,-77.175,2.502
37473650,-0.532,0.005,0.714,-7.927,-67.742,6.877
37473660,-0.5,0.046,0.795,-4.795,-57.907,10.71
37473670,-0.483,0.039,0.83,-4.217,-45.395,13.58
37473670,-0.486,0.018,0.767,-3.377,-31.447,13.825
37473690,-0.498,0.022,0.777,-0.437,-15.137,12.127
37473690,-0.49,0.042,0.794,2.73,0.787,8.732
37473710,-0.528,0.06,0.783,3.675,14.455,4.462
37473710,-0.606,0.074,0.76,3.972,24.5,-0.087
37473730,-0.676,0.092,0.762,4.847,29.995,-5.95
37473730,-0.712,0.101,0.777,4.62,31.465,-10.64
37473750,-0.718,0.095,0.776,2.922,29.995,-12.057
37473750,-0.699,0.079,0.761,0.997,27.842,-10.185
37473760,-0.65,0.073,0.768,-0.227,26.95,-6.16
37473770,-0.577,0.042,0.812,-1.347,32.2,-1.225
37473780,-0.527,0.036,0.752,-0.28,35.945,3.535
37473790,-0.51,0.03,0.714,3.885,40.547,7.21
37473800,-0.588,0.039,0.707,6.23,49.962,7.507
37473810,-0.717,0.071,0.717,6.107,54.11,4.55
37473820,-0.846,0.081,0.711,5.827,52.342,0.612
37473830,-0.899,0.101,0.677,6.177,44.712,-3.937
37473840,-0.912,0.093,0.702,4.48,33.022,-8.12
37473850,-0.871,0.107,0.665,1.085,17.255,-11.392
37473860,-0.819,0.089,0.635,-1.54,7.297,-9.94
37473870,-0.787,0.073,0.642,-2.66,-0.21,-7.175
37473880,-0.77,0.07,0.656,-3.92,-8.242,-4.427
37473890,-0.751,0.056,0.689,-5.11,-15.662,-0.455
37473900,-0.733,0.026,0.706,-5.635,-20.352,3.727
37473910,-0.728,0.009,0.682,-4.62,-21.542,6.58
37473920,-0.742,0.025,0.674,-1.907,-21.875,6.947
37473930,-0.772,0.046,0.682,-1.102,-23.905,5.092
37473940,-0.803,0.038,0.683,-2.537,-27.282,1.75
37473950,-0.847,0.029,0.583,-3.255,-35.63,-2.292
37473960,-0.899,0.071,0.658,-2.17,-48.842,-5.652
37473970,-0.829,0.089,0.775,-5.687,-62.527,-7.612
37473980,-0.733,0.059,0.822,-11.865,-66.395,-4.987
37473990,-0.606,0.019,0.764,-13.387,-69.527,-0.315
37474000,-0.484,0.01,0.748,-9.817,-55.965,5.88
37474010,-0.448,0.029,0.789,-6.265,-41.737,10.885
37474010,-0.433,0.057,0.8,-3.132,-30.887,13.212
37474030,-0.442,0.027,0.794,-1.837,-12.215,13.282
37474030,-0.477,0.01,0.75,0.525,8.05,10.727
37474050,-0.519,0.024,0.723,4.462,23.66,6.3
37474050,-0.585,0.061,0.727,8.067,33.407,1.61
37474070,-0.664,0.079,0.762,8.26,38.622,-3.535
37474070,-0.719,0.074,0.761,6.212,40.232,-9.432
37474080,-0.737,0.06,0.741,5.652,40.407,-13.125
37474090,-0.744,0.047,0.75,6.335,38.902,-12.565
37474100,-0.716,0.054,0.729,6.457,35.647,-9.17
37474110,-0.644,0.067,0.755,5.74,34.457,-3.237
37474120,-0.588,0.063,0.773,3.622,36.487,2.31
37474130,-0.583,0.069,0.72,3.062,35.472,6.772
37474140,-0.661,0.061,0.688,3.692,37.66,9.712
37474150,-0.788,0.079,0.681,3.78,42.192,9.607
37474160,-0.881,0.114,0.672,2.782,40.495,7.455
37474170,-0.915,0.138,0.681,1.54,31.5,3.815
37474180,-0.881,0.136,0.654,-1.102,18.602,-0.682
37474190,-0.831,0.104,0.64,-4.55,7.245,-4.462
37474200,-0.794,0.08,0.653,-6.51,0.105,-6.545
37474210,-0.77,0.072,0.676,-6.16,-5.005,-6.387
37474220,-0.745,0.051,0.686,-5.302,-8.4,-4.602
37474230,-0.732,0.021,0.66,-4.585,-9.66,-2.222
37474240,-0.745,0,0.643,-3.622,-10.535,0.052
37474250,-0.782,0.003,0.653,-2.747,-12.565,1.452
37474260,-0.827,0.011,0.659,-2.205,-17.377,1.575
37474270,-0.855,0.007,0.617,-1.47,-24.692,0.105
37474280,-0.906,0.036,0.55,0.262,-37.765,-2.24
37474290,-0.916,0.089,0.656,0.455,-53.952,-4.182
37474300,-0.849,0.103,0.769,-4.777,-67.9,-3.517
37474310,-0.736,0.052,0.769,-9.782,-76.86,0.087
37474320,-0.642,0.008,0.729,-9.87,-79.485,4.952
37474330,-0.549,0.007,0.738,-6.002,-68.967,9.625
37474340,-0.51,0.035,0.822,-3.29,-59.482,13.615
37474350,-0.456,0.046,0.798,-2.362,-50.785,15.33
37474360,-0.45,0.016,0.76,-1.68,-31.657,15.365
37474370,-0.463,0.022,0.748,1.732,-12.775,11.935
37474380,-0.524,0.054,0.755,5.04,1.925,6.912
37474390,-0.628,0.077,0.776,5.547,11.987,1.452
37474400,-0.719,0.087,0.786,3.902,16.607,-4.62
37474410,-0.752,0.083,0.776,2.117,17.045,-10.535
37474420,-0.736,0.077,0.766,1.645,15.47,-13.002
37474420,-0.685,0.081,0.747,1.61,11.585,-11.48
37474440,-0.627,0.082,0.741,0.192,11.357,-7.402
37474440,-0.608,0.085,0.746,-1.347,11.987,-2.38
37474460,-0.615,0.082,0.773,-1.697,14.245,2.432
37474460,-0.61,0.061,0.823,-0.472,22.54,6.755
37474480,-0.596,0.042,0.77,1.767,27.317,8.96
37474480,-0.587,0.054,0.729,4.637,30.922,8.925
37474500,-0.637,0.07,0.718,5.53,34.142,6.93
37474500,-0.703,0.079,0.692,5.232,35.49,3.255
37474510,-0.784,0.065,0.689,3.412,36.19,-0.805
37474520,-0.825,0.067,0.672,2.712,33.04,-5.39
37474530,-0.821,0.075,0.669,2.135,26.285,-8.4
37474540,-0.807,0.076,0.693,0.647,17.675,-9.222
37474550,-0.802,0.065,0.67,-1.802,9.835,-8.155
37474560,-0.807,0.055,0.651,-2.782,3.01,-5.285
37474570,-0.806,0.055,0.668,-2.87,-4.007,-1.785
37474580,-0.78,0.055,0.7,-3.5,-11.375,1.137
37474590,-0.744,0.036,0.709,-4.427,-17.22,3.797
37474600,-0.723,0.017,0.698,-3.99,-20.405,5.95
37474610,-0.714,0.034,0.69,-1.89,-21.402,6.825
37474620,-0.718,0.054,0.687,-0.717,-22.137,6.037
37474630,-0.751,0.055,0.652,-1.382,-24.237,3.552
37474640,-0.841,0.074,0.578,-1.365,-32.13,-0.157
37474650,-0.907,0.106,0.699,-1.225,-45.78,-4.55
37474660,-0.847,0.114,0.788,-5.827,-59.22,-7.315
37474670,-0.767,0.066,0.787,-10.92,-66.902,-5.547
37474680,-0.648,0.037,0.739,-10.605,-74.532,-1.855
37474690,-0.54,0.023,0.764,-8.855,-66.132,3.832
37474700,-0.473,0.027,0.798,-7.35,-55.58,9.485
37474710,-0.455,0.004,0.799,-5.11,-42.682,13.895
37474720,-0.459,-0.012,0.774,-1.977,-27.93,14.192
37474730,-0.466,-0.004,0.747,2.275,-9.94,12.722
37474740,-0.514,0.014,0.75,5.775,5.022,9.8
37474750,-0.608,0.049,0.758,7.507,14.122,5.46
37474760,-0.689,0.072,0.765,7.56,18.707,-0.035
37474760,-0.717,0.079,0.767,6.527,21.927,-5.442
37474780,-0.703,0.09,0.765,5.425,21.035,-8.785
37474780,-0.668,0.094,0.764,3.972,18.672,-8.575
37474800,-0.637,0.091,0.77,2.327,18.69,-6.58
37474800,-0.646,0.103,0.769,1.067,18.41,-3.937
37474820,-0.653,0.111,0.801,0.682,19.005,-0.105
37474820,-0.611,0.073,0.83,-0.892,26.652,4.217
37474830,-0.571,0.046,0.76,-1.137,33.845,7.49
37474840,-0.561,0.055,0.715,0.98,37.87,8.522
37474850,-0.62,0.085,0.715,2.975,39.375,7.63
37474860,-0.684,0.104,0.736,2.59,41.09,4.497
37474870,-0.769,0.096,0.727,1.067,40.88,0.245
37474880,-0.822,0.083,0.7,1.33,38.01,-5.075
37474890,-0.851,0.085,0.665,2.292,28.787,-9.432
37474900,-0.852,0.085,0.657,1.802,17.412,-11.655
37474910,-0.853,0.084,0.668,-1.032,5.232,-11.637
37474920,-0.82,0.068,0.706,-3.867,-5.95,-9.782
37474930,-0.751,0.046,0.714,-5.302,-13.562,-6.055
37474940,-0.682,0.022,0.694,-4.707,-17.062,-0.875
37474950,-0.654,0.022,0.681,-3.255,-17.465,3.517
37474960,-0.678,0.03,0.686,-2.345,-16.292,5.582
37474970,-0.729,0.034,0.685,-2.152,-15.487,4.882
37474980,-0.797,0.045,0.644,-1.907,-20.247,2.467
37474990,-0.84,0.063,0.671,-1.155,-29.942,-0.332
37475000,-0.818,0.073,0.721,-2.502,-39.06,-3.115
37475010,-0.744,0.064,0.745,-4.69,-44.765,-4.742
37475020,-0.655,0.042,0.73,-5.022,-43.872,-4.235
37475030,-0.615,0.041,0.76,-3.185,-40.757,-2.607
37475040,-0.58,0.042,0.79,-2.117,-34.44,0.367
37475050,-0.577,0.035,0.766,-1.54,-26.215,3.78
37475060,-0.571,0.031,0.758,-0.105,-16.992,5.95
37475070,-0.578,0.042,0.755,1.032,-5.967,6.545
37475080,-0.604,0.045,0.752,1.68,2.572,5.355
37475090,-0.654,0.056,0.752,2.117,8.347,2.59
37475100,-0.689,0.076,0.762,3.01,11.742,-1.225
37475110,-0.694,0.084,0.76,3.237,14.052,-4.445
37475120,-0.688,0.08,0.745,2.835,15.225,-6.212
37475130,-0.689,0.071,0.733,1.925,15.312,-5.932
37475140,-0.675,0.075,0.746,1.172,15.137,-4.2
37475150,-0.617,0.06,0.791,0.087,20.3,-1.33
37475160,-0.566,0.033,0.751,-0.49,29.365,2.065
37475170,-0.592,0.033,0.698,2.1,33.32,4.077
37475170,-0.668,0.057,0.695,4.97,35.087,4.025
37475190,-0.74,0.074,0.713,4.165,37.292,2.082
37475190,-0.79,0.076,0.714,2.187,35.735,-0.577
37475210,-0.816,0.074,0.701,1.715,29.452,-2.957
37475210,-0.808,0.078,0.667,1.802,19.407,-5.092
37475230,-0.795,0.084,0.681,0.63,11.287,-5.985
37475230,-0.767,0.076,0.674,-1.627,4.602,-5.32
37475250,-0.786,0.061,0.666,-3.132,-0.752,-2.922
37475250,-0.804,0.065,0.691,-2.975,-8.032,-0.21
37475260,-0.801,0.072,0.712,-3.062,-14.577,2.31
37475270,-0.764,0.068,0.714,-3.885,-20.965,4.357
37475280,-0.702,0.042,0.728,-5.232,-23.485,5.39
37475290,-0.657,0.027,0.707,-5.915,-21.787,5.127
37475300,-0.668,0.019,0.665,-4.69,-17.99,4.217
37475310,-0.754,0.024,0.63,-2.607,-18.76,1.382
37475320,-0.865,0.069,0.625,-1.225,-29.26,-3.027
37475330,-0.86,0.096,0.735,-2.747,-39.217,-6.842
37475340,-0.76,0.082,0.802,-7.035,-47.075,-7.84
37475350,-0.607,0.035,0.788,-9.187,-49,-6.02
37475360,-0.498,-0.012,0.723,-6.877,-36.592,-1.347
37475370,-0.497,-0.022,0.697,-1.96,-21.717,3.57
37475380,-0.543,0.006,0.739,2.135,-5.215,6.632
37475390,-0.616,0.053,0.746,3.92,6.44,7.035
37475400,-0.676,0.064,0.744,4.62,11.882,5.897
37475410,-0.724,0.073,0.75,4.112,13.93,2.66
37475420,-0.751,0.084,0.749,3.605,12.565,-1.19
37475430,-0.758,0.094,0.738,2.747,8.96,-4.13
37475440,-0.735,0.101,0.733,2.135,4.865,-6.02
37475450,-0.675,0.086,0.775,0.805,3.57,-5.757
37475460,-0.6,0.043,0.781,-1.4,8.085,-3.447
37475470,-0.566,0.024,0.736,-1.33,16.852,1.312
37475480,-0.61,0.031,0.711,1.855,22.627,6.23
37475490,-0.678,0.06,0.721,3.92,25.41,7.612
37475500,-0.745,0.071,0.719,2.695,25.34,6.51
37475510,-0.776,0.069,0.688,1.697,22.522,3.605
37475510,-0.789,0.07,0.676,1.435,17.272,0.315
37475530,-0.787,0.076,0.693,0.49,11.585,-2.38
37475530,-0.786,0.071,0.693,-1.172,5.845,-3.867
37475550,-0.766,0.065,0.676,-1.452,-0.91,-4.2
37475550,-0.731,0.055,0.673,-1.155,-5.897,-3.01
37475570,-0.706,0.046,0.695,-1.872,-8.89,-0.84
37475570,-0.707,0.035,0.713,-3.097,-11.025,1.96
37475580,-0.726,0.028,0.718,-2.905,-11.585,3.99
37475590,-0.72,0.037,0.706,-1.085,-11.217,4.217
37475600,-0.71,0.048,0.698,0.07,-11.445,3.132
37475610,-0.721,0.051,0.691,-0.595,-11.987,1.26
37475620,-0.739,0.046,0.683,-1.242,-13.09,-0.945
37475630,-0.739,0.04,0.681,-0.735,-14.49,-3.01
37475640,-0.753,0.031,0.666,0.017,-16.992,-4.392
37475650,-0.839,0.061,0.594,0.612,-26.495,-5.162
37475660,-0.861,0.117,0.786,0.472,-40.005,-5.075
37475670,-0.747,0.096,0.869,-5.04,-45.465,-2.537
37475680,-0.614,0.049,0.793,-6.982,-43.47,1.802
37475690,-0.514,0.009,0.706,-2.922,-34.457,6.632
37475700,-0.49,0.029,0.732,1.4,-19.425,9.572
37475710,-0.531,0.055,0.766,1.435,-7.577,10.972
37475720,-0.593,0.057,0.755,1.242,4.445,9.415
37475730,-0.659,0.057,0.742,2.747,14.84,5.495
37475740,-0.711,0.072,0.749,5.057,18.427,0.822
37475750,-0.742,0.08,0.756,4.882,18.76,-3.115
37475760,-0.739,0.078,0.737,2.38,18.48,-5.792
37475770,-0.719,0.072,0.729,1.557,18.707,-6.317
37475780,-0.666,0.062,0.782,3.045,18.13,-4.707
37475790,-0.605,0.035,0.762,2.59,20.23,-1.855
37475800,-0.607,0.022,0.681,1.855,23.59,2.117
37475810,-0.697,0.027,0.647,2.992,22.522,5.862
37475820,-0.766,0.087,0.681,4.007,16.975,6.895
37475830,-0.788,0.106,0.714,1.925,11.987,6.615
37475840,-0.792,0.093,0.69,-0.822,5.67,4.34
37475850,-0.783,0.081,0.673,-2.065,-0.945,1.382
37475860,-0.768,0.079,0.698,-2.31,-4.602,-0.577
37475870,-0.753,0.08,0.734,-2.94,-8.33,-1.907
37475880,-0.717,0.071,0.74,-3.797,-11.952,-2.887
37475890,-0.674,0.049,0.714,-3.605,-12.792,-2.31
37475900,-0.65,0.039,0.689,-2.572,-10.36,-0.07
37475910,-0.656,0.042,0.686,-1.96,-6.685,2.135
37475920,-0.687,0.049,0.689,-1.872,-3.377,2.345
37475920,-0.716,0.051,0.691,-1.067,-1.225,0.455
37475940,-0.739,0.046,0.694,0.017,-0.945,-2.222
37475940,-0.765,0.044,0.693,0.595,-2.607,-4.69
37475960,-0.785,0.043,0.692,0.682,-6.65,-6.475
37475960,-0.785,0.039,0.695,0.49,-12.145,-7.297
37475970,-0.797,0.035,0.63,0.297,-19.407,-6.79
37475980,-0.814,0.08,0.687,1.26,-29.907,-4.567
37475990,-0.735,0.087,0.82,-0.857,-36.627,-1.54
37476000,-0.644,0.067,0.803,-4.165,-35.77,2.765
37476010,-0.581,0.029,0.71,-2.87,-28.98,7.315
37476020,-0.565,0.04,0.722,1.767,-17.64,9.467
37476030,-0.586,0.072,0.775,2.135,-7.77,8.925
37476040,-0.602,0.068,0.75,0.56,1.365,6.912
37476050,-0.621,0.042,0.724,1.365,12.845,3.5
37476060,-0.657,0.052,0.728,3.867,19.722,-0.787
37476070,-0.688,0.08,0.744,4.812,23.345,-4.392
37476080,-0.699,0.096,0.747,3.535,26.582,-7.087
37476090,-0.699,0.094,0.731,2.607,28.052,-8.627
37476100,-0.708,0.078,0.763,2.712,27.422,-9.03
37476110,-0.708,0.068,0.74,1.75,26.757,-7.945
37476120,-0.717,0.068,0.693,1.33,23.87,-4.497
37476130,-0.767,0.062,0.677,0.927,16.887,-1.137
37476140,-0.818,0.069,0.694,-0.175,10.167,0.577
37476150,-0.829,0.065,0.689,-1.12,2.065,1.767
37476160,-0.799,0.059,0.665,-0.98,-5.862,2.835
37476170,-0.761,0.061,0.66,-1.417,-12.197,3.325
37476180,-0.746,0.064,0.691,-2.572,-17.185,3.15
37476190,-0.748,0.053,0.717,-3.797,-20.527,2.607
37476200,-0.732,0.039,0.732,-4.007,-22.067,1.697
37476210,-0.701,0.029,0.729,-3.605,-22.487,1.032
37476220,-0.675,0.03,0.711,-3.202,-21.087,1.19
37476230,-0.666,0.031,0.69,-2.957,-18.655,1.4
37476240,-0.688,0.037,0.678,-2.537,-16.625,0.595
37476250,-0.756,0.034,0.648,-1.785,-16.59,-1.382
37476260,-0.884,0.072,0.596,-0.437,-25.27,-3.885
37476260,-0.934,0.112,0.723,-0.91,-41.755,-6.16
37476280,-0.862,0.098,0.784,-6.65,-55.79,-5.775
37476280,-0.719,0.066,0.794,-9.94,-63.245,-2.292
37476300,-0.558,0.033,0.767,-8.277,-63.682,3.062
37476300,-0.455,0.015,0.775,-4.69,-51.327,8.592
37476320,-0.44,0.017,0.789,-2.135,-37.082,12.687
37476320,-0.45,0.02,0.762,1.435,-21.262,14.315
37476330,-0.491,0.023,0.753,4.007,-2.87,13.335
37476340,-0.545,0.056,0.742,6.422,9.467,9.222
37476350,-0.619,0.081,0.759,6.597,18.27,3.307
37476360,-0.69,0.098,0.788,5.127,22.767,-2.52
37476370,-0.723,0.099,0.797,3.255,24.5,-7.822
37476380,-0.711,0.093,0.781,2.24,25.322,-11.357
37476390,-0.681,0.088,0.76,2.222,25.567,-11.795
37476400,-0.65,0.095,0.741,1.715,25.532,-9.24
37476410,-0.614,0.096,0.763,0.805,25.69,-4.41
37476420,-0.572,0.053,0.799,-0.612,28.192,0.245
37476430,-0.576,0.023,0.731,-0.595,31.972,3.937
37476440,-0.647,0.026,0.669,3.115,35.245,6.475
37476450,-0.756,0.051,0.686,5.302,36.715,6.457
37476460,-0.843,0.067,0.699,2.747,33.53,3.902
37476470,-0.879,0.073,0.665,0.822,22.837,0.77
37476480,-0.863,0.071,0.658,0.507,11.585,-2.065
37476490,-0.836,0.063,0.663,-1.067,1.207,-4.392
37476500,-0.792,0.058,0.684,-3.132,-8.61,-5.005
37476510,-0.732,0.047,0.719,-4.007,-15.05,-3.08
37476520,-0.686,0.029,0.714,-4.322,-17.412,0.455
37476530,-0.677,0.026,0.703,-3.482,-16.922,3.85
37476540,-0.696,0.039,0.703,-2.152,-15.89,6.457
37476550,-0.721,0.053,0.704,-1.645,-16.24,7.542
37476560,-0.729,0.06,0.706,-1.942,-17.727,6.23
37476570,-0.748,0.051,0.66,-2.047,-19.897,3.342
37476580,-0.824,0.074,0.62,-0.805,-26.81,-0.087
37476590,-0.861,0.097,0.714,-1.12,-37.257,-3.937
37476600,-0.833,0.091,0.786,-5.547,-45.92,-5.827
37476610,-0.726,0.067,0.795,-8.155,-53.812,-4.462
37476620,-0.596,0.035,0.75,-6.737,-54.67,-0.175
37476630,-0.531,0.024,0.761,-4.917,-46.707,4.935
37476640,-0.514,0.045,0.757,-3.745,-40.127,9.135
37476650,-0.533,0.047,0.764,-2.52,-28.77,12.11
37476660,-0.556,0.047,0.781,-1.4,-16.292,11.952
37476660,-0.557,0.05,0.763,0.175,-7.122,9.257
37476670,-0.574,0.053,0.769,1.137,3.342,5.722
37476680,-0.61,0.065,0.764,1.575,10.622,1.662
37476690,-0.638,0.071,0.766,1.592,15.61,-2.59
37476700,-0.643,0.073,0.763,1.592,20.055,-6.335
37476710,-0.635,0.066,0.757,1.785,24.412,-8.172
37476720,-0.641,0.06,0.762,2.012,28.175,-7.77
37476730,-0.658,0.077,0.754,2.152,31.517,-5.582
37476740,-0.672,0.101,0.782,2.327,33.985,-2.047
37476750,-0.65,0.081,0.814,0.892,36.032,0.472
37476760,-0.643,0.057,0.732,-0.42,34.527,1.12
37476770,-0.676,0.049,0.678,1.067,32.69,1.435
37476780,-0.732,0.058,0.674,1.855,32.742,1.435
37476790,-0.795,0.076,0.708,0.227,30.572,0.367
37476800,-0.828,0.085,0.726,-1.435,23.03,-1.19
37476810,-0.797,0.076,0.708,-1.347,14.787,-2.87
37476820,-0.761,0.061,0.692,-1.557,7.105,-3.605
37476830,-0.733,0.057,0.672,-2.31,0.717,-3.01
37476840,-0.75,0.052,0.678,-3.045,-0.262,-0.7
37476850,-0.791,0.062,0.686,-2.485,-5.652,0.857
37476860,-0.791,0.068,0.695,-1.837,-12.39,1.137
37476870,-0.76,0.06,0.703,-1.977,-17.395,1.557
37476880,-0.737,0.051,0.693,-2.765,-22.487,2.1
37476890,-0.728,0.066,0.669,-1.68,-25.357,1.732
37476900,-0.751,0.103,0.665,1.522,-26.985,-0.017
37476910,-0.798,0.14,0.698,3.71,-29.82,-3.815
37476920,-0.882,0.141,0.693,2.257,-38.15,-9.03
37476930,-0.941,0.126,0.69,-1.33,-57.977,-13.772
37476940,-0.896,0.064,0.768,-6.825,-69.282,-13.51
37476950,-0.716,0.025,0.729,-11.865,-78.312,-8.837
37476960,-0.548,-0.009,0.716,-14.227,-79.957,-1.96
37476970,-0.478,-0.029,0.768,-12.74,-71.977,4.287
37476980,-0.46,-0.058,0.881,-12.337,-62.842,7.052
37476990,-0.391,-0.061,0.856,-8.89,-50.137,6.825
37477000,-0.312,-0.084,0.812,-1.505,-22.61,7.647
37477010,-0.33,-0.064,0.742,5.81,5.67,6.527
37477010,-0.485,0.006,0.713,10.535,25.375,4.55
37477030,-0.643,0.07,0.758,12.32,34.772,0.647
37477030,-0.718,0.103,0.811,11.462,37.275,-4.2
37477050,-0.725,0.089,0.821,7.91,35.087,-9.065
37477050,-0.697,0.095,0.809,5.547,31.797,-11.515
37477070,-0.632,0.084,0.839,4.917,32.725,-9.327
37477070,-0.552,0.073,0.797,3.745,37.502,-6.16
37477080,-0.535,0.082,0.739,3.237,44.66,-2.345
37477090,-0.611,0.091,0.73,3.675,48.79,1.452
37477100,-0.713,0.093,0.748,3.535,48.37,4.427
37477110,-0.778,0.111,0.759,2.572,43.155,5.722
37477120,-0.8,0.101,0.742,1.33,36.137,5.915
37477130,-0.783,0.093,0.719,-0.63,27.02,4.882
37477140,-0.74,0.075,0.712,-2.695,20.877,3.552
37477150,-0.71,0.052,0.664,-3.867,19.442,2.31
37477160,-0.728,0.05,0.65,-2.73,18.2,1.172
37477170,-0.758,0.055,0.682,-1.382,17.062,-0.017
37477180,-0.786,0.048,0.677,-1.575,13.352,-0.42
37477190,-0.8,0.031,0.656,-2.24,5.67,-0.385
37477200,-0.794,0.024,0.663,-2.52,-1.312,-0.437
37477210,-0.764,0.021,0.675,-3.167,-7.14,-0.105
37477220,-0.722,0.015,0.689,-3.675,-10.78,0.7
37477230,-0.698,0.012,0.69,-3.36,-11.252,1.435
37477240,-0.715,0.018,0.695,-1.942,-10.675,1.977
37477250,-0.74,0.039,0.706,-0.577,-10.937,2.135
37477260,-0.744,0.049,0.699,-0.717,-12.722,2.24
37477270,-0.733,0.039,0.68,-1.557,-15.312,1.697
37477280,-0.727,0.034,0.679,-1.68,-18.917,0.805
37477290,-0.778,0.027,0.603,-1.225,-23.432,0.157
37477300,-0.916,0.103,0.601,0.28,-38.99,-1.102
37477310,-0.884,0.133,0.814,-2.38,-53.987,-3.22
37477320,-0.818,0.103,0.834,-10.01,-63.84,-2.607
37477330,-0.699,0.059,0.785,-10.64,-73.517,0.052
37477340,-0.556,0.03,0.736,-7.28,-70.262,4.357
37477350,-0.492,0.034,0.783,-5.565,-59.447,7.822
37477350,-0.446,0.065,0.808,-4.69,-51.905,11.095
37477370,-0.423,0.037,0.805,-3.255,-31.29,13.737
37477370,-0.446,0.008,0.792,-0.42,-9.73,12.88
37477390,-0.506,0.02,0.765,2.922,7.595,9.222
37477390,-0.595,0.051,0.756,5.932,21.735,5.145
37477410,-0.682,0.081,0.771,6.632,27.842,0.875
37477410,-0.728,0.088,0.776,5.145,28.315,-4.27
37477420,-0.723,0.075,0.764,3.132,27.3,-8.61
37477430,-0.684,0.06,0.752,2.222,26.075,-9.1
37477440,-0.649,0.059,0.738,2.152,25.917,-6.685
37477450,-0.613,0.068,0.744,1.627,28.84,-2.905
37477460,-0.578,0.047,0.801,0.402,36.347,1.12
37477470,-0.566,0.028,0.764,0.595,43.785,5.302
37477480,-0.605,0.029,0.699,4.235,47.722,8.715
37477490,-0.688,0.057,0.692,6.65,49.402,9.362
37477500,-0.781,0.082,0.706,4.97,52.43,7.28
37477510,-0.854,0.099,0.712,3.447,47.11,3.325
37477520,-0.869,0.102,0.67,2.887,32.935,-1.382
37477530,-0.82,0.091,0.681,1.47,23.047,-4.83
37477540,-0.802,0.089,0.681,-1.575,14.245,-6.387
37477550,-0.821,0.085,0.652,-3.15,1.347,-5.687
37477560,-0.81,0.077,0.679,-3.85,-7.035,-4.305
37477570,-0.761,0.07,0.718,-5.145,-13.895,-2.695
37477580,-0.714,0.046,0.718,-6.842,-19.057,0.175
37477590,-0.697,0.027,0.693,-6.72,-20.65,2.887
37477600,-0.718,0.03,0.671,-4.532,-20.335,4.13
37477610,-0.756,0.041,0.675,-2.607,-21.437,3.412
37477620,-0.832,0.04,0.607,-2.572,-29.19,1.347
37477630,-0.947,0.076,0.578,-2.415,-48.492,-1.662
37477640,-0.939,0.091,0.733,-5.862,-70.245,-5.635
37477650,-0.853,0.047,0.805,-13.212,-76.23,-4.27
37477660,-0.707,0.021,0.803,-14.595,-86.52,0.262
37477670,-0.509,-0.003,0.742,-10.15,-86.205,7.525
37477680,-0.378,-0.018,0.787,-7,-59.955,14.42
37477690,-0.381,0.002,0.792,-3.972,-41.825,18.707
37477700,-0.429,0.016,0.761,0.595,-22.942,20.037
37477710,-0.5,0.02,0.767,3.972,0.735,18.27
37477720,-0.577,0.055,0.757,6.335,15.05,12.915
37477730,-0.667,0.091,0.776,7.192,22.837,7.035
37477740,-0.744,0.115,0.787,7.07,22.942,0.717
37477750,-0.772,0.11,0.792,5.442,20.142,-6.037
37477760,-0.739,0.1,0.773,3.71,16.467,-10.115
37477760,-0.671,0.087,0.774,3.325,16.275,-9.537
37477780,-0.592,0.071,0.8,2.975,17.447,-5.67
37477780,-0.523,0.046,0.776,1.662,23.537,-0.77
37477800,-0.505,0.04,0.728,2.345,32.917,4.462
37477800,-0.564,0.047,0.701,5.18,38.78,8.312
37477820,-0.658,0.074,0.698,6.772,41.877,8.61
37477820,-0.735,0.1,0.721,6.037,40.827,5.967
37477830,-0.782,0.099,0.705,4.357,35.875,1.505
37477840,-0.833,0.09,0.662,2.73,27.387,-3.36
37477850,-0.855,0.087,0.665,1.68,17.815,-7.892
37477860,-0.879,0.084,0.673,0.245,6.475,-11.287
37477870,-0.882,0.072,0.682,-1.575,-8.942,-12.285
37477880,-0.833,0.059,0.706,-3.307,-23.45,-10.517
37477890,-0.747,0.04,0.738,-5.267,-33.792,-5.967
37477900,-0.662,0.022,0.736,-6.667,-38.64,0.402
37477910,-0.608,0.018,0.723,-5.897,-36.68,6.667
37477920,-0.595,0.023,0.724,-3.43,-30.8,10.832
37477930,-0.612,0.036,0.711,-1.575,-24.045,11.095
37477940,-0.673,0.039,0.675,-1.277,-19.897,8.54
37477950,-0.801,0.063,0.62,-0.822,-24.727,4.165
37477960,-0.857,0.103,0.736,-0.822,-35.507,-0.875
37477970,-0.812,0.088,0.828,-5.11,-45.395,-4.935
37477980,-0.717,0.059,0.854,-8.697,-51.642,-5.897
37477990,-0.593,0.007,0.799,-7.402,-46.025,-2.852
37478000,-0.522,0.005,0.75,-2.852,-34.842,1.435
37478010,-0.494,0.03,0.743,0.052,-24.22,6.037
37478020,-0.497,0.066,0.728,1.68,-14.122,10.377
37478030,-0.523,0.083,0.755,2.432,-4.637,12.932
37478040,-0.545,0.092,0.778,4.095,3.5,12.162
37478050,-0.583,0.087,0.788,4.707,12.162,7.927
37478060,-0.665,0.086,0.792,4.69,17.272,2.31
37478070,-0.744,0.106,0.794,4.847,19.127,-2.992
37478080,-0.769,0.112,0.784,4.655,17.43,-7.472
37478080,-0.742,0.102,0.775,2.555,12.67,-10.185
37478100,-0.689,0.084,0.763,-1.295,8.487,-9.485
37478100,-0.643,0.071,0.754,-3.395,5.985,-4.9
37478120,-0.62,0.067,0.75,-3.71,6.265,0.56
37478120,-0.621,0.077,0.76,-3.062,7.91,4.655
37478140,-0.604,0.072,0.797,-2.45,13.247,7.7
37478140,-0.579,0.054,0.773,-1.837,21.997,9.117
37478160,-0.586,0.054,0.73,0.402,29.312,8.697
37478160,-0.642,0.046,0.684,2.537,32.305,5.845
37478170,-0.713,0.075,0.677,3.465,31.535,0.612
37478180,-0.77,0.076,0.722,3.115,28.84,-3.762
37478190,-0.794,0.071,0.711,1.907,22.68,-8.4
37478200,-0.797,0.077,0.695,2.047,14.787,-10.552
37478210,-0.803,0.07,0.708,1.767,7.682,-9.712
37478220,-0.811,0.066,0.701,0.805,-2.345,-7.052
37478230,-0.79,0.061,0.682,-0.472,-13.002,-3.08
37478240,-0.747,0.052,0.705,-1.33,-21,0.805
37478250,-0.705,0.048,0.732,-2.607,-27.44,4.025
37478260,-0.676,0.044,0.731,-3.272,-31.43,7.157
37478270,-0.661,0.035,0.718,-2.45,-29.907,8.837
37478280,-0.671,0.039,0.717,-1.295,-27.195,7.84
37478290,-0.687,0.05,0.718,-0.595,-27.177,4.97
37478300,-0.719,0.048,0.68,-0.542,-29.26,1.662
37478310,-0.773,0.075,0.628,-0.595,-36.137,-1.96
37478320,-0.786,0.093,0.712,-1.942,-44.625,-5.477
37478330,-0.771,0.098,0.798,-6.125,-55.002,-7.385
37478340,-0.699,0.074,0.838,-8.802,-60.55,-6.475
37478350,-0.645,0.047,0.801,-7.735,-60.83,-3.045
37478360,-0.587,0.055,0.813,-4.812,-59.587,1.172
37478370,-0.513,0.069,0.822,-3.972,-54.355,5.932
37478380,-0.434,0.056,0.807,-3.867,-41.772,10.657
37478390,-0.375,0.031,0.78,-2.135,-22.995,13.877
37478400,-0.399,0.033,0.772,2.327,-3.99,13.58
37478410,-0.476,0.062,0.786,6.86,9.275,9.642
37478420,-0.57,0.081,0.792,8.067,21.42,4.532
37478430,-0.633,0.094,0.801,8.032,29.487,-0.997
37478440,-0.671,0.101,0.799,7.542,33.565,-5.897
37478450,-0.69,0.104,0.79,5.95,35.367,-9.642
37478460,-0.692,0.103,0.776,3.307,33.46,-11.182
37478470,-0.667,0.103,0.774,1.242,30.222,-10.202
37478480,-0.627,0.087,0.816,0.07,28.945,-6.895
37478490,-0.587,0.068,0.803,-0.385,28.892,-2.8
37478500,-0.588,0.052,0.761,0.665,31.937,2.03
37478510,-0.612,0.051,0.724,3.395,33.022,6.247
37478510,-0.649,0.048,0.721,3.202,36.662,8.067
37478530,-0.702,0.067,0.719,1.347,36.732,7.035
37478530,-0.74,0.083,0.704,1.19,31.395,4.427
37478550,-0.758,0.083,0.723,1.225,28.7,1.12
37478550,-0.786,0.085,0.725,0.857,21.892,-2.835
37478570,-0.824,0.077,0.693,-0.017,13.212,-5.88
37478570,-0.85,0.072,0.672,-0.595,3.587,-7.49
37478580,-0.818,0.079,0.7,-1.54,-8.365,-7.56
37478590,-0.743,0.074,0.73,-3.85,-19.827,-5.495
37478600,-0.663,0.055,0.738,-5.652,-25.585,-1.697
37478610,-0.618,0.041,0.733,-5.6,-25.34,2.047
37478620,-0.622,0.043,0.735,-3.482,-21.997,4.042
37478630,-0.69,0.052,0.702,-1.645,-19.88,3.325
37478640,-0.786,0.088,0.661,-0.472,-24.937,0.752
37478650,-0.824,0.095,0.71,-1.802,-34.807,-2.8
37478660,-0.807,0.088,0.758,-5.705,-46.83,-6.527
37478670,-0.73,0.062,0.792,-8.837,-50.732,-7.682
37478680,-0.636,0.035,0.771,-8.032,-53.112,-6.492
37478690,-0.568,0.027,0.761,-6.02,-52.43,-3.587
37478700,-0.523,0.024,0.79,-5.197,-43.452,1.12
37478710,-0.447,0.043,0.839,-4.445,-32.882,5.407
37478720,-0.378,0.038,0.851,-5.162,-14.49,10.36
37478730,-0.396,0.018,0.818,-5.162,9.572,13.247
37478740,-0.505,0.04,0.781,-2.922,26.39,11.83
37478750,-0.628,0.088,0.766,-0.472,36.382,8.032
37478760,-0.699,0.117,0.76,0.262,42.315,3.237
37478770,-0.727,0.122,0.764,-0.122,42.997,-2.485
37478780,-0.731,0.101,0.761,-1.767,40.67,-7.56
37478790,-0.705,0.082,0.778,-2.887,37.642,-9.555
37478800,-0.655,0.074,0.794,-2.992,34.212,-8.4
37478810,-0.6,0.07,0.768,-2.205,32.602,-4.235
37478820,-0.586,0.049,0.731,-1.627,36.382,0.175
37478830,-0.654,0.047,0.697,-0.42,39.287,3.587
37478830,-0.744,0.056,0.689,0.7,37.852,5.565
37478850,-0.818,0.073,0.695,0.157,32.445,5.897
37478850,-0.818,0.084,0.698,-1.557,24.675,4.515
37478870,-0.801,0.079,0.701,-2.8,16.012,1.872
37478870,-0.78,0.072,0.687,-2.782,5.495,-1.365
37478890,-0.772,0.056,0.68,-2.94,1.855,-3.587
37478890,-0.769,0.047,0.687,-3.132,-0.927,-4.305
37478910,-0.749,0.043,0.704,-3.307,-4.41,-3.465
37478910,-0.722,0.039,0.726,-3.517,-7.56,-1.697
37478920,-0.691,0.034,0.72,-3.762,-9.415,0.017
37478930,-0.68,0.036,0.708,-3.377,-7.49,0.997
37478940,-0.695,0.053,0.698,-2.327,-5.337,0.385
37478950,-0.722,0.069,0.692,-1.277,-5.145,-1.645
37478960,-0.76,0.068,0.687,-1.592,-6.265,-4.865
37478970,-0.83,0.07,0.608,-2.642,-11.147,-8.855
37478980,-0.891,0.104,0.693,-3.5,-21.437,-11.935
37478990,-0.858,0.088,0.804,-8.925,-35.052,-14.28
37479000,-0.742,0.038,0.798,-14.437,-42.822,-13.265
37479010,-0.598,-0.02,0.748,-14.91,-43.435,-8.592
37479020,-0.506,-0.043,0.711,-10.43,-35.105,-2.835
37479030,-0.492,-0.028,0.694,-5.005,-23.922,2.117
37479040,-0.524,-0.009,0.705,-0.77,-12.18,4.567
37479050,-0.57,-0.002,0.706,1.837,-1.592,4.585
37479060,-0.615,0,0.706,3.745,5.057,3.815
37479070,-0.665,0.013,0.709,6.317,9.152,2.537
37479080,-0.712,0.036,0.73,8.4,11.112,0.84
37479090,-0.73,0.061,0.745,8.925,10.867,-1.487
37479100,-0.728,0.075,0.747,9.187,10.062,-3.027
37479110,-0.727,0.085,0.747,9.187,7.787,-2.747
37479120,-0.723,0.093,0.768,8.33,4.742,-0.91
37479130,-0.679,0.103,0.829,5.407,4.725,2.065
37479140,-0.604,0.08,0.836,2.117,10.465,5.862
37479150,-0.576,0.061,0.766,2.117,16.24,9.485
37479160,-0.606,0.061,0.724,4.707,20.877,11.2
37479170,-0.67,0.074,0.693,5.46,26.652,10.447
37479180,-0.754,0.091,0.714,3.57,26.495,7.35
37479190,-0.807,0.093,0.709,0.525,21.542,2.52
37479200,-0.836,0.077,0.687,-1.575,14.647,-2.485
37479210,-0.818,0.078,0.669,-1.907,5.145,-5.915
37479220,-0.79,0.068,0.67,-2.572,-1.61,-7.035
37479230,-0.764,0.047,0.688,-4.217,-7.892,-6.562
37479240,-0.729,0.016,0.685,-5.652,-12.845,-4.602
37479250,-0.692,-0.013,0.678,-5.057,-14.612,-1.26
37479260,-0.665,-0.015,0.669,-3.045,-14.07,2.66
37479260,-0.656,0.001,0.665,-1.12,-11.497,5.897
37479280,-0.659,0.014,0.654,-0.227,-7.35,7.437
37479280,-0.643,0.012,0.593,0.122,3.447,7.437
37479300,-0.612,0.044,0.659,1.4,20.037,6.825
37479300,-0.589,0.07,0.808,1.855,32.812,5.022
37479320,-0.602,0.062,0.795,1.592,43.697,3.062
37479320,-0.617,0.028,0.761,4.83,58.415,1.697
37479330,-0.628,0.001,0.705,9.957,71.382,0.367
37479340,-0.675,-0.003,0.64,13.265,80.99,0.017
37479350,-0.706,0.003,0.625,15.12,87.937,-0.017
37479360,-0.749,0.009,0.634,15.715,93.047,-0.227
37479370,-0.822,0.025,0.636,16.94,95.935,-0.157
37479380,-0.906,0.065,0.649,17.745,96.845,-0.472
37479390,-0.894,0.102,0.683,21.21,92.942,-3.99
37479400,-0.942,0.12,0.586,23.59,78.61,0.752
37479410,-0.931,0.116,0.599,19.162,68.442,8.032
37479420,-0.947,0.121,0.618,10.657,48.912,6.055
37479430,-0.974,0.092,0.587,5.617,28.192,2.45
37479440,-0.981,0.115,0.545,5.862,16.922,2.327
37479450,-0.982,0.111,0.546,7.297,-1.627,2.817
37479460,-0.992,0.097,0.569,3.36,-24.202,0.402
37479470,-0.994,0.09,0.573,-2.922,-44.257,-0.962
37479480,-0.938,0.102,0.522,-5.442,-59.482,2.642
37479490,-0.848,0.119,0.516,-5.46,-64.295,9.835
37479500,-0.788,0.113,0.537,-5.687,-68.11,17.36
37479510,-0.786,0.105,0.562,-6.912,-67.445,25.602
37479520,-0.82,0.091,0.614,-11.165,-61.862,29.172
37479530,-0.826,0.074,0.633,-14.735,-57.977,22.575
37479540,-0.87,0.069,0.66,-12.25,-58.555,18.9
37479550,-0.879,0.074,0.677,-9.555,-64.312,20.685
37479560,-0.826,0.081,0.687,-10.867,-67.865,22.4
37479570,-0.758,0.102,0.702,-13.44,-73.22,22.172
37479580,-0.661,0.107,0.688,-13.037,-74.497,21.962
37479580,-0.591,0.108,0.7,-10.167,-68.687,22.102
37479600,-0.574,0.108,0.716,-7.647,-64.085,21.07
37479600,-0.569,0.108,0.723,-6.037,-55.23,19.18
37479620,-0.579,0.105,0.739,-4.742,-48.282,16.467
37479620,-0.594,0.098,0.723,-2.747,-45.307,13.212
37479640,-0.604,0.099,0.755,-0.35,-36.61,9.607
37479640,-0.65,0.09,0.766,0.525,-30.66,5.442
37479660,-0.694,0.079,0.739,1.277,-29.662,0.28
37479660,-0.715,0.077,0.739,2.082,-31.272,-4.76
37479670,-0.757,0.074,0.745,1.855,-37.94,-8.295
37479680,-0.786,0.087,0.721,1.085,-46.34,-9.887
37479690,-0.746,0.102,0.707,0.367,-47.582,-8.032
37479700,-0.685,0.11,0.701,-0.297,-44.607,-2.87
37479710,-0.661,0.105,0.709,-2.135,-40.757,3.482
37479720,-0.669,0.101,0.721,-4.567,-35.577,8.627
37479730,-0.677,0.094,0.725,-5.67,-27.125,12.162
37479740,-0.699,0.095,0.728,-5.04,-20.72,14.945
37479750,-0.721,0.096,0.733,-3.815,-19.075,16.502
37479760,-0.726,0.082,0.732,-4.182,-15.96,16.8
37479770,-0.745,0.076,0.727,-5.687,-13.317,16.117
37479780,-0.771,0.081,0.747,-6.02,-15.645,14.525
37479790,-0.784,0.082,0.761,-5.757,-22.435,12.46
37479800,-0.784,0.082,0.761,-5.53,-33.792,10.937
37479810,-0.805,0.089,0.755,-5.565,-49.997,10.447
37479820,-0.807,0.092,0.753,-6.212,-67.655,8.435
37479830,-0.77,0.107,0.756,-8.365,-83.597,5.162
37479840,-0.73,0.127,0.761,-9.642,-98.805,4.742
37479850,-0.669,0.137,0.777,-9.607,-109.672,7
37479860,-0.626,0.131,0.793,-10.29,-117.81,9.922
37479870,-0.583,0.12,0.81,-11.322,-125.37,10.99
37479880,-0.518,0.112,0.805,-11.34,-129.132,12.337
37479890,-0.48,0.107,0.807,-8.382,-126.542,16.87
37479900,-0.441,0.107,0.803,-4.9,-118.545,21.892
37479910,-0.441,0.114,0.813,-3.535,-105.595,25.567
37479920,-0.444,0.124,0.823,-4.935,-92.942,25.287
37479930,-0.453,0.129,0.819,-7.56,-85.19,23.257
37479940,-0.472,0.13,0.84,-9.222,-81.06,21.49
37479950,-0.492,0.127,0.875,-11.655,-80.01,19.075
37479960,-0.505,0.13,0.89,-15.085,-84.56,15.575
37479970,-0.484,0.123,0.886,-18.55,-91.612,14.28
37479980,-0.413,0.125,0.896,-17.64,-98.472,12.075
37479990,-0.333,0.126,0.891,-18.392,-101.815,13.16
37480000,-0.264,0.128,0.89,-18.585,-102.042,15.207
37480010,-0.237,0.126,0.881,-20.842,-99.382,20.212
37480010,-0.221,0.105,0.885,-20.93,-93.52,24.587
37480030,-0.235,0.106,0.901,-20.702,-80.955,28.192
37480030,-0.197,0.106,0.942,-20.965,-64.155,28.857
37480050,-0.247,0.075,0.97,-20.212,-53.795,30.432
37480050,-0.333,0.082,1.018,-16.485,-53.515,29.032
37480070,-0.324,0.096,1.039,-13.755,-65.24,23.607
37480070,-0.324,0.093,0.985,-13.107,-85.277,18.462
37480080,-0.342,0.065,0.943,-13.107,-106.47,14.962
37480090,-0.307,0.057,0.922,-12.775,-118.685,12.442
37480100,-0.24,0.084,0.889,-11.462,-124.302,13.475
37480110,-0.128,0.128,0.859,-9.747,-130.235,18.025
37480120,-0.021,0.144,0.838,-9.257,-131.88,26.652
37480130,0.061,0.134,0.861,-6.072,-123.742,35.927
37480140,0.105,0.115,0.912,-4.637,-105.402,42.7
37480150,0.143,0.081,0.864,0.28,-78.96,49.087
37480160,0.13,0.084,0.981,40.687,-46.725,68.46
37480170,0.135,0.081,1,46.41,-7.787,74.06
37480180,0.03,0.112,1.011,30.852,37.625,72.485
37480190,-0.161,0.155,1.031,23.537,85.925,74.62
37480200,-0.305,0.165,1.014,9.222,122.972,68.565
37480210,-0.347,0.158,1.029,-0.315,134.802,53.97
37480220,-0.301,0.153,1.03,-8.557,127.347,38.482
37480230,-0.221,0.137,1.003,-17.692,113.417,27.142
37480240,-0.183,0.11,0.978,-27.37,100.66,22.12
37480250,-0.207,0.087,0.951,-35.332,90.3,22.452
37480260,-0.27,0.089,0.899,-41.842,80.745,21.577
37480270,-0.367,0.103,0.903,-44.695,73.062,21.035
37480280,-0.469,0.107,0.933,-46.742,64.382,24.797
37480290,-0.456,0.076,0.97,-42.14,47.967,28.035
37480300,-0.346,0.069,0.991,-35.402,23.467,21.105
37480310,-0.24,0.065,0.987,-32.095,0.98,17.5
37480320,-0.177,0.056,0.964,-30.905,-9.642,21.822
37480330,-0.156,0.042,0.938,-29.802,-10.08,27.632
37480330,-0.135,0.031,0.915,-29.172,-4.742,29.837
37480350,-0.129,0.035,0.931,-22.662,0.035,32.41
37480350,-0.11,0.036,0.944,-17.465,-1.19,32.83
37480370,-0.046,-0.004,0.944,-19.442,-0.752,25.13
37480370,0.004,-0.017,0.902,-20.492,13.037,17.15
37480390,-0.045,-0.033,0.904,-16.835,33.162,13.23
37480390,-0.153,-0.038,0.948,-10.622,41.037,9.03
37480410,-0.26,-0.027,1.008,-2.292,33.04,6.597
37480410,-0.356,-0.015,1.083,2.712,16.677,5.88
37480420,-0.399,-0.001,1.116,-2.17,-7.402,-0.192
37480430,-0.35,0.005,1.018,-11.27,-36.277,-9.205
37480440,-0.226,-0.019,0.966,-11.112,-56.315,-12.722
37480450,-0.173,-0.026,1.079,-11.2,-38.307,-8.855
37480460,-0.165,-0.01,1.066,-8.977,-0.245,-0.56
37480470,-0.139,-0.023,0.961,-0.56,9.24,4.025
37480480,-0.301,-0.02,1.021,4.427,29.26,8.312
37480490,-0.453,0.052,0.99,8.68,58.957,4.147
37480500,-0.508,0.069,1.011,13.912,57.522,-5.705
37480510,-0.526,0.098,1.025,17.237,45.657,-9.922
37480520,-0.461,0.095,0.985,16.275,36.785,-10.937
37480530,-0.346,0.087,0.957,12.407,29.837,-11.077
37480540,-0.265,0.089,0.937,6.58,30.555,-6.212
37480550,-0.28,0.078,0.91,0.14,38.64,1.89
37480560,-0.335,0.052,0.929,-0.472,44.66,8.19
37480570,-0.394,0.039,0.944,1.435,41.387,11.672
37480580,-0.403,0.044,0.949,2.852,32.165,9.817
37480590,-0.364,0.062,0.941,3.36,25.13,5.862
37480600,-0.323,0.064,0.913,2.187,23.047,2.852
37480610,-0.367,0.066,0.871,1.295,18.27,2.257
37480620,-0.478,0.066,0.849,0.717,7.07,1.522
37480630,-0.479,0.069,0.897,-0.07,-2.31,-1.19
37480640,-0.3,0.072,0.918,-2.957,-8.47,-5.162
37480650,-0.231,0.058,0.956,-7.227,-21.105,-4.287
37480660,-0.248,0.046,0.969,-10.027,-26.932,0.91
37480670,-0.308,0.022,0.961,-10.727,-30.345,2.817
37480680,-0.372,0.003,0.938,-8.732,-42.665,0.595
37480690,-0.41,0.015,0.904,-4.952,-60.987,-3.622
37480700,-0.406,0.047,0.887,-2.012,-79.117,-10.237
37480710,-0.354,0.083,0.907,-2.257,-96.162,-16.66
37480720,-0.279,0.101,0.901,-5.827,-109.095,-19.6
37480730,-0.226,0.114,0.919,-4.06,-115.797,-15.032
37480740,-0.158,0.111,0.961,-4.007,-113.12,-9.257
37480750,-0.056,0.09,0.976,-12.67,-101.15,-10.255
37480760,-0.023,0.069,0.985,-8.33,-83.492,-4.375
37480760,-0.026,0.061,0.982,-1.26,-58.292,3.71
37480780,-0.085,0.049,0.953,4.585,-29.767,9.012
37480780,-0.177,0.042,0.92,8.872,-4.917,9.275
37480790,-0.283,0.037,0.934,11.917,11.48,5.705
37480800,-0.382,0.034,0.97,13.807,9.73,-0.157
37480810,-0.453,0.039,0.988,12.705,-13.142,-7.56
37480820,-0.499,0.049,0.996,8.487,-47.635,-14.665
37480830,-0.443,0.054,0.967,-2.782,-78.872,-22.61
37480840,-0.31,0.055,0.961,-8.522,-100.292,-23.59
37480850,-0.147,0.058,0.974,-9.502,-107.607,-15.995
37480860,-0.044,0.048,0.991,-8.592,-103.897,-5.215
37480870,-0.012,0.034,1.052,-6.737,-91.42,3.692
37480880,-0.191,0.047,1.072,-9.502,-81.585,5.495
37480890,-0.516,0.22,0.776,-5.6,-99.33,1.277
37480900,-0.265,0.331,0.685,3.202,-140.63,-9.1
37480910,0.182,0.177,0.648,-8.05,-191.135,-14.28
37480920,0.428,-0.044,0.775,-23.17,-180.127,-5.617
37480930,0.66,-0.051,0.935,-31.377,-84.35,8.242
37480940,0.607,-0.022,0.963,-28.192,-9.59,22.4
37480950,0.275,-0.088,0.967,-14.35,24.71,33.512
37480960,-0.048,-0.039,1.061,0,57.942,34.65
37480970,-0.285,0.057,1.179,9.45,73.937,22.277
37480980,-0.492,0.108,1.267,12.337,42.367,3.57
37480990,-0.565,0.136,1.302,6.842,-16.555,-19.39
37481000,-0.44,0.136,1.278,-3.01,-65.065,-39.252
37481010,-0.202,0.14,1.197,-14.7,-92.242,-51.8
37481020,-0.017,0.141,1.057,-26.687,-104.23,-49.84
37481030,0.1,0.121,0.949,-23.922,-97.387,-31.587
37481040,0.141,0.114,0.892,-11.2,-72.03,-7.63
37481050,0.087,0.122,0.883,1.225,-41.475,14.087
37481060,-0.013,0.136,0.885,8.295,-19.477,27.632
37481070,-0.1,0.146,0.874,6.667,-9.135,30.187
37481080,-0.138,0.122,0.901,2.415,-9.222,29.312
37481080,-0.019,0.084,0.907,-6.16,-9.485,24.132
37481100,0.108,0.065,0.876,-10.57,-6.195,20.702
37481100,0.174,0.035,0.872,-9.905,2.607,22.47
37481120,0.185,0.014,0.899,-8.82,14.63,24.5
37481120,0.155,0,0.94,-8.277,25.182,25.2
37481140,0.154,-0.019,0.961,-9.082,31.412,23.642
37481140,0.15,-0.054,0.982,-11.34,36.172,20.492
37481160,0.168,-0.084,0.994,-13.912,42.507,16.415
37481160,0.184,-0.121,0.993,-15.155,49.07,12.95
37481170,0.182,-0.167,1,-14.7,56.35,10.062
37481180,0.145,-0.223,1.028,-11.9,57.225,6.965
37481190,0.138,-0.245,1.105,-8.487,64.592,2.45
37481200,0.21,-0.227,1.172,-3.57,98.735,0.682
37481210,0.123,-0.212,1.217,4.672,126.595,-2.1
37481220,-0.028,-0.177,1.202,9.292,128.782,-11.777
37481230,-0.196,-0.136,1.037,13.597,110.967,-19.11
37481240,-0.255,-0.08,0.934,22.872,92.522,-27.23
37481250,-0.267,0.01,0.979,22.75,83.51,-35.192
37481260,-0.277,0.103,0.978,12.617,86.1,-38.692
37481270,-0.378,0.164,0.868,-1.242,63.437,-39.515
37481280,-0.423,0.243,0.757,-9.397,18.777,-42.122
37481290,-0.371,0.251,0.717,-16.275,-19.372,-36.015
37481300,-0.23,0.175,0.815,-23.555,-36.365,-23.87
37481310,-0.149,0.122,0.915,-33.04,-38.29,-10.097
37481320,-0.218,0.094,0.967,-39.742,-40.215,3.885
37481330,-0.319,0.043,1.037,-37.17,-46.235,13.055
37481340,-0.36,-0.022,1.083,-31.115,-56.105,12.32
37481350,-0.299,-0.084,1.096,-26.32,-71.365,5.775
37481360,-0.137,-0.113,1.115,-21.07,-82.95,-0.752
37481370,0.04,-0.117,1.11,-15.33,-83.492,-3.902
37481380,0.148,-0.109,1.068,-9.187,-73.832,-3.29
37481390,0.187,-0.087,1.015,-2.187,-54.687,-0.98
37481400,0.162,-0.057,0.96,4.707,-31.587,2.187
37481410,0.125,-0.013,0.939,11.83,-8.102,2.625
37481420,0.067,0.017,0.926,18.322,9.782,1.085
37481430,0.011,-0.001,0.912,21.875,19.477,-1.54
37481440,-0.025,-0.008,0.916,19.267,26.81,-5.25
37481450,-0.065,0.028,0.935,14.7,32.9,-8.19
37481460,-0.148,0.074,0.934,11.462,33.442,-9.275
37481470,-0.229,0.09,0.916,8.575,32.9,-9.905
37481480,-0.267,0.078,0.919,4.042,31.08,-11.672
37481480,-0.246,0.068,0.932,-2.397,27.125,-14.07
37481500,-0.253,0.043,0.906,-8.592,18.077,-14.105
37481500,-0.185,0.024,0.958,-12.267,9.397,-16.52
37481510,-0.129,0.018,0.985,-15.522,1.96,-15.645
37481520,-0.151,-0.02,0.967,-18.182,-8.4,-11.445
37481530,-0.222,-0.052,0.981,-18.532,-19.687,-8.557
37481540,-0.267,-0.081,0.994,-18.655,-28.472,-6.615
37481550,-0.246,-0.102,0.992,-18.62,-39.795,-5.565
37481560,-0.153,-0.116,1.005,-17.832,-52.937,-3.255
37481570,-0.031,-0.123,1.024,-17.29,-61.897,0.07
37481580,0.057,-0.148,1.034,-15.977,-63.175,5.582
37481590,0.118,-0.192,1.05,-12.915,-57.47,11.287
37481600,0.138,-0.246,1.067,-7.997,-48.072,15.435
37481610,0.127,-0.268,1.081,-1.645,-35.507,16.24
37481620,0.102,-0.26,1.108,4.06,-25.83,13.02
37481630,0.073,-0.227,1.106,7.612,-23.047,6.317
37481640,0.061,-0.18,1.088,11.795,-20.93,0.315
37481650,0.087,-0.122,1.066,15.715,-14.507,-3.955
37481660,0.117,-0.07,1.042,17.482,-5.687,-7.35
37481670,0.081,-0.038,1.028,19.057,2.8,-9.03
37481680,-0.01,-0.024,1.012,19.092,3.447,-10.937
37481690,-0.041,-0.018,0.998,15.837,-4.095,-14.332
37481700,-0.085,-0.011,0.961,10.43,-23.345,-18.322
37481710,-0.119,-0.003,0.957,4.06,-46.532,-21.332
37481720,-0.153,-0.006,0.989,-1.767,-70.647,-22.33
37481730,-0.122,-0.015,1,-6.877,-92.382,-23.415
37481740,-0.027,-0.017,0.983,-11.69,-108.027,-22.75
37481750,0.042,-0.023,0.993,-14.595,-120.96,-18.952
37481760,0.092,-0.05,1.024,-16.695,-123.41,-13.282
37481770,0.125,-0.061,1.012,-15.295,-111.982,-7.98
37481780,0.123,-0.08,1.031,-11.445,-100.502,-4.602
37481790,0.143,-0.093,1.031,-7.157,-89.967,-2.642
37481800,0.195,-0.103,1.017,-1.4,-80.272,-1.907
37481810,0.265,-0.115,1.011,3.867,-68.337,-1.925
37481820,0.274,-0.113,1.01,9.012,-56.927,-2.485
37481830,0.256,-0.105,1.009,12.495,-49.122,-5.372
37481830,0.235,-0.096,0.994,13.702,-44.485,-9.695
37481850,0.212,-0.073,0.972,14.367,-39.725,-13.107
37481850,0.194,-0.039,0.962,15.365,-35.822,-16.065
37481870,0.228,-0.019,0.971,14.612,-32.34,-18.707
37481870,0.298,-0.014,0.95,12.39,-27.282,-20.072
37481890,0.345,-0.018,0.917,10.727,-19.6,-18.97
37481890,0.355,-0.015,0.904,9.94,-7.962,-15.767
37481910,0.294,-0.008,0.907,9.712,7.14,-11.34
37481910,0.2,-0.001,0.923,10.832,21.647,-8.697
37481920,0.137,0.004,0.923,11.672,30.572,-9.222
37481930,0.096,0.006,0.888,11.97,36.522,-10.01
37481940,0.007,0.001,0.875,11.795,45.99,-9.8
37481950,-0.127,0.004,0.897,10.5,56.14,-10.185
37481960,-0.167,0.026,0.927,4.865,58.765,-13.247
37481970,-0.128,0.033,0.938,-1.347,50.4,-15.26
37481980,-0.07,0.038,0.951,-5.88,35.612,-14
37481990,0.002,0.049,0.955,-10.5,21.455,-11.392
37482000,0.064,0.06,0.936,-12.74,14.647,-5.792
37482010,0.087,0.067,0.909,-11.935,14.437,1.487
37482020,0.065,0.075,0.878,-8.732,17.727,8.4
37482030,0.026,0.071,0.882,-5.74,24.78,14.367
37482040,-0.026,0.081,0.889,-3.08,31.71,17.727
37482050,-0.022,0.096,0.9,-5.127,31.272,13.475
37482060,0.022,0.072,0.953,-9.012,26.215,8.225
37482070,0.043,0.029,0.977,-10.675,26.46,6.947
37482080,0.001,-0.004,0.987,-9.66,32.9,6.16
37482090,-0.082,-0.023,1.021,-7.21,37.187,5.722
37482100,-0.102,-0.02,1.052,-6.16,32.707,2.94
37482110,-0.058,-0.009,1.04,-8.242,17.92,0.77
37482120,0.023,0.001,1.026,-11.672,2.765,0.525
37482130,0.098,0,1.025,-14.437,-4.585,4.112
37482140,0.134,-0.017,1.011,-15.627,-4.217,10.43
37482150,0.133,-0.046,1.02,-15.82,-1.977,15.907
37482160,0.12,-0.068,1.036,-14.63,1.925,18.182
37482170,0.113,-0.074,1.054,-10.657,8.032,17.64
37482170,0.107,-0.072,1.071,-5.145,12.775,15.837
37482190,0.121,-0.068,1.09,-0.157,13.877,12.302
37482190,0.124,-0.074,1.1,2.467,14.542,7.7
37482210,0.095,-0.077,1.094,3.465,20.352,3.902
37482210,0.082,-0.07,1.071,5.18,28.98,0.752
37482230,0.076,-0.052,1.049,7.21,36.68,-2.135
37482230,0.045,-0.036,1.03,8.767,41.737,-4.025
37482250,0.002,-0.024,1.015,9.66,42.577,-3.675
37482250,-0.035,-0.013,0.997,8.575,35.14,-4.48
37482260,-0.043,-0.002,0.977,5.04,23.397,-4.865
37482270,-0.021,0.005,0.92,0.087,12.232,-3.727
37482280,-0.006,0.003,0.958,-4.235,3.745,-1.487
37482290,0.06,0.002,1.016,-8.837,9.467,0.945
37482300,0.126,0,1.013,-9.992,28.245,5.897
37482310,0.096,-0.046,1.023,-6.72,39.62,11.34
37482320,-0.04,-0.077,1.04,-2.73,38.552,13.247
37482330,-0.168,-0.062,1.044,1.662,29.89,9.205
37482340,-0.218,-0.03,1.098,4.97,15.487,2.152
37482350,-0.147,0,1.138,2.712,0.63,-6.072
37482360,0.002,0.006,1.139,-1.907,-7.735,-11.112
37482370,0.111,-0.011,1.137,-3.955,-8.82,-10.85
37482380,0.12,-0.035,1.112,-3.587,-2.135,-7.052
37482390,0.07,-0.052,1.063,-1.347,10.08,-2.887
37482400,0.005,-0.059,1.039,4.2,19.932,0.332
37482410,-0.018,-0.052,1.054,9.94,27.615,1.662
37482420,-0.004,-0.053,1.066,12.95,33.302,1.75
37482430,-0.004,-0.057,1.062,13.335,36.645,1.942
37482440,-0.053,-0.057,1.061,12.74,36.4,2.275
37482450,-0.067,-0.05,1.099,11.69,34.247,1.715
37482460,-0.021,-0.069,1.112,11.515,32.462,1.312
37482470,-0.024,-0.082,1.008,13.457,24.08,0.805
37482480,-0.045,-0.091,0.934,14.752,10.692,-0.84
37482490,-0.032,-0.111,0.881,15.96,3.115,-3.5
37482500,0.028,-0.106,0.854,18.41,-0.472,-7.857
37482510,0.075,-0.084,0.862,19.792,-6.387,-11.042
37482520,0.076,-0.066,0.91,20.965,-11.9,-11.76
37482530,0.065,-0.041,0.99,22.732,-15.382,-13.072
37482540,0.094,-0.045,1.064,21.927,-13.09,-16.642
37482550,0.072,-0.03,1.096,21.875,-8.907,-20.895
37482560,-0.001,0.003,1.113,25.182,-13.09,-24.692
37482570,0,0.021,1.119,28.56,-15.75,-29.487
37482580,0.023,0.037,1.036,28.665,-12.74,-33.477
37482580,0.027,0.058,0.942,27.527,-10.78,-35.017
37482600,-0.023,0.085,0.852,26.145,-8.785,-33.075
37482600,-0.098,0.119,0.742,23.607,-8.75,-29.925
37482620,-0.078,0.113,0.694,19.302,-9.712,-26.95
37482620,-0.086,0.122,0.711,15.295,-17.01,-22.347
37482640,-0.096,0.181,0.765,12.39,-22.977,-18.462
37482640,-0.03,0.18,0.877,8.365,-11.34,-16.905
37482660,0.01,0.155,0.933,4.497,0.805,-15.995
37482660,-0.01,0.102,0.969,1.855,9.047,-13.422
37482670,-0.083,0.078,0.985,0.997,17.377,-12.582
37482680,-0.143,0.052,0.997,0.822,18.62,-12.582
37482690,-0.166,0.044,1.022,1.942,16.397,-12.67
37482700,-0.15,0.037,0.975,-0.28,11.97,-14.35
37482710,-0.113,0.022,0.942,-0.14,12.46,-14.91
37482720,-0.115,0.024,0.955,1.872,18.182,-14.245
37482730,-0.137,0.031,0.987,4.55,20.212,-13.545
37482740,-0.144,0.031,1.008,6.947,17.92,-12.792
37482750,-0.136,0.032,1.006,8.505,12.81,-12.04
37482760,-0.12,0.038,0.976,9.712,7.105,-11.025
37482770,-0.113,0.053,0.954,10.43,5.18,-9.345
37482780,-0.113,0.072,0.954,10.307,5.862,-7.21
37482790,-0.106,0.095,0.951,9.52,4.445,-4.935
37482800,-0.1,0.119,0.899,8.365,0.857,-2.31
37482810,-0.089,0.129,0.856,7.63,-0.227,0.437
37482820,-0.072,0.113,0.894,6.737,3.097,2.572
37482830,-0.053,0.107,0.92,4.952,10.272,3.167
37482840,-0.013,0.105,0.892,4.55,14.822,3.605
37482850,-0.003,0.092,0.923,4.27,20.09,5.057
37482860,-0.034,0.083,0.969,4.637,33.74,5.372
37482870,-0.063,0.067,1.027,7.122,49.525,2.537
37482880,-0.141,0.065,1.057,8.557,54.477,-1.19
37482890,-0.221,0.058,1.076,7.98,56.42,-5.652
37482900,-0.295,0.051,1.077,7.472,53.497,-11.34
37482910,-0.331,0.052,1.073,6.125,42.98,-17.22
37482920,-0.343,0.07,1.034,3.622,27.842,-20.755
37482920,-0.324,0.08,0.986,0.77,9.765,-21.682
37482940,-0.295,0.081,0.976,-3.395,-6.212,-20.107
37482940,-0.273,0.097,0.966,-7.805,-21.49,-16.362
37482960,-0.253,0.112,0.976,-11.375,-39.427,-10.99
37482960,-0.259,0.104,0.964,-13.982,-56.682,-5.582
37482980,-0.219,0.1,0.957,-14.717,-66.01,-1.627
37482980,-0.162,0.088,0.963,-13.807,-71.47,1.785
37483000,-0.092,0.075,0.951,-12.53,-73.692,5.092
37483000,-0.033,0.072,0.934,-11.742,-65.187,8.505
37483010,-0.008,0.085,0.922,-10.727,-46.62,11.27
37483020,-0.01,0.103,0.914,-8.295,-24.815,12.39
37483030,-0.049,0.12,0.918,-5.932,-1.347,12.635
37483040,-0.117,0.132,0.916,-4.287,21.787,10.902
37483050,-0.16,0.14,0.842,-5.18,40.582,6.527
37483060,-0.204,0.145,0.778,-7.682,50.085,3.675
37483070,-0.313,0.159,0.777,-11.655,47.932,0.56
37483080,-0.421,0.169,0.837,-18.935,40.985,-1.645
37483090,-0.461,0.163,0.932,-27.44,25.9,-2.992
37483100,-0.428,0.141,1.023,-34.352,-2.992,-3.762
37483110,-0.321,0.112,1.063,-39.655,-40.53,-2.345
37483120,-0.231,0.076,1.064,-44.642,-67.077,3.85
37483130,-0.212,0.045,1.014,-45.132,-75.407,14.07
37483140,-0.207,0.02,1.049,-39.882,-75.635,21.612
37483150,-0.15,-0.006,1.16,-33.425,-77.84,22.995
37483160,-0.041,-0.004,1.25,-26.565,-88.602,21.612
37483170,0.103,0.003,1.403,-19.127,-92.61,19.705
37483180,0.367,-0.027,1.505,-10.36,-67.76,19.11
37483190,0.558,-0.083,1.375,3.5,-21.647,22.662
37483200,0.549,-0.089,1.114,17.745,43.032,24.272
37483210,0.309,-0.055,0.994,31.972,114.677,22.68
37483220,-0.027,-0.024,1.029,44.572,157.027,13.965
37483230,-0.248,0.041,1.077,49,159.477,-0.857
37483240,-0.276,0.06,1.051,41.685,141.312,-14.017
37483250,-0.211,0.062,1.035,32.287,129.92,-20.387
37483260,-0.074,0.071,1.039,24.342,119.805,-19.092
37483270,0.043,0.056,0.867,17.85,122.92,-12.11
37483280,0.179,0.037,1.059,17.325,153.405,1.54
37483290,-0.118,0.072,0.867,14.455,143.71,14.77
37483300,-0.307,0.023,0.837,11.165,152.162,17.815
37483310,-0.417,-0.015,0.852,9.572,151.62,12.477
37483320,-0.476,-0.046,0.845,5.81,125.877,6.16
37483330,-0.491,-0.063,0.856,3.622,94.797,2.625
37483330,-0.477,-0.059,0.859,2.467,60.76,-1.172
37483350,-0.384,-0.066,0.847,1.942,23.52,-3.955
37483350,-0.281,-0.062,0.859,1.837,1.207,-4.2
37483370,-0.201,-0.056,0.837,1.172,-9.677,-2.747
37483370,-0.148,-0.057,0.836,3.097,-12.302,0.017
37483390,-0.165,0.001,0.89,7.507,-5.337,0.122
37483390,-0.152,0.008,0.927,9.66,5.582,-4.672
37483410,-0.071,-0.004,0.918,8.995,16.922,-10.202
37483410,-0.07,-0.027,0.911,11.182,27.58,-11.445
37483420,-0.15,-0.033,0.906,14.175,41.685,-11.305
37483430,-0.229,-0.041,0.917,16.362,55.37,-14.07
37483440,-0.256,-0.031,0.948,16.8,62.58,-18.025
37483450,-0.303,-0.016,0.901,15.89,59.675,-19.057
37483460,-0.357,0.006,0.825,15.452,60.882,-18.165
37483470,-0.422,0.047,0.822,17.185,74.322,-18.322
37483480,-0.492,0.076,0.87,18.742,90.422,-20.3
37483490,-0.554,0.08,0.916,18.9,94.885,-23.782
37483500,-0.588,0.064,0.931,18.322,86.8,-27.072
37483510,-0.622,0.071,0.91,16.047,71.47,-27.125
37483520,-0.607,0.053,0.864,23.17,54.897,-23.66
37483530,-0.605,0.138,0.929,41.982,39.637,-21.98
37483540,-0.594,0.187,0.915,28.77,29.032,-21.665
37483550,-0.584,0.175,0.894,10.657,22.347,-21.77
37483560,-0.549,0.126,0.82,2.52,19.057,-20.737
37483570,-0.504,0.095,0.794,10.902,20.632,-19.565
37483580,-0.476,0.108,0.81,19.46,28.07,-19.425
37483590,-0.505,0.133,0.816,18.497,35.822,-19.407
37483600,-0.561,0.13,0.815,14.105,40.355,-18.305
37483610,-0.621,0.103,0.81,11.532,44.205,-15.872
37483620,-0.675,0.08,0.791,11.375,46.252,-14.402
37483630,-0.733,0.068,0.8,11.042,41.055,-14.157
37483640,-0.724,0.089,0.827,9.73,29.365,-14.245
37483650,-0.684,0.122,0.819,7.21,13.055,-14.017
37483660,-0.627,0.15,0.794,5.215,-3.43,-12.74
37483670,-0.553,0.133,0.772,3.57,-10.85,-10.255
37483670,-0.456,0.11,0.725,3.29,-7.157,-7.56
37483690,-0.368,0.096,0.733,5.127,4.532,-6.527
37483690,-0.331,0.095,0.737,7.192,23.03,-5.792
37483710,-0.377,0.098,0.716,8.557,42.857,-4.095
37483710,-0.45,0.1,0.721,9.607,59.797,-4.48
37483730,-0.528,0.103,0.727,10.482,70.595,-6.457
37483730,-0.569,0.106,0.733,11.165,75.057,-8.382
37483750,-0.58,0.115,0.754,11.217,74.48,-8.557
37483750,-0.575,0.124,0.756,10.762,68.355,-7.315
37483760,-0.556,0.123,0.753,10.202,61.845,-5.442
37483770,-0.559,0.11,0.716,8.855,57.155,-2.957
37483780,-0.577,0.096,0.684,7.385,59.605,-0.525
37483790,-0.623,0.089,0.71,6.615,70.945,0.7
37483800,-0.646,0.091,0.71,4.06,80.692,-2.8
37483810,-0.652,0.08,0.688,3.482,85.085,-5.162
37483820,-0.674,0.076,0.687,7.105,86.905,-4.217
37483830,-0.683,0.083,0.688,11.567,87.657,-3.202
37483840,-0.665,0.096,0.666,13.93,87.307,-4.2
37483850,-0.669,0.106,0.622,15.207,86.205,-4.585
37483860,-0.692,0.112,0.623,16.065,84.297,-4.182
37483870,-0.717,0.109,0.662,15.662,80.272,-5.285
37483880,-0.677,0.111,0.643,15.68,78.207,-7.665
37483890,-0.677,0.128,0.631,16.275,75.635,-10.377
37483900,-0.809,0.137,0.628,16.187,71.277,-10.85
37483910,-0.905,0.141,0.589,14,68.792,-12.18
37483920,-0.892,0.109,0.574,9.117,67.252,-15.207
37483930,-0.817,0.096,0.566,6.072,55.825,-17.202
37483940,-0.812,0.087,0.547,5.862,36.767,-14.507
37483950,-0.867,0.097,0.533,6.422,25.165,-10.027
37483960,-0.871,0.122,0.531,6.002,25.077,-9.467
37483970,-0.825,0.126,0.525,2.957,26.547,-10.57
37483980,-0.79,0.122,0.506,-0.472,25.042,-10.342
37483990,-0.805,0.109,0.509,-2.397,25.55,-9.03
37484000,-0.849,0.104,0.544,-4.27,29.102,-8.557
37484010,-0.865,0.106,0.561,-5.39,32.882,-9.117
37484020,-0.87,0.109,0.59,-5.407,34.125,-10.062
37484030,-0.862,0.11,0.62,-5.705,32.165,-12.197
37484040,-0.824,0.1,0.606,-6.37,30.537,-13.527
37484050,-0.781,0.09,0.577,-4.83,31.01,-13.527
37484060,-0.747,0.102,0.484,-2.17,33.652,-14.717
37484070,-0.793,0.103,0.444,-1.452,37.345,-16.45
37484080,-0.909,0.095,0.478,-3.99,35.455,-18.637
37484080,-1.003,0.079,0.542,-8.54,29.627,-21.402
37484100,-1.047,0.067,0.622,-12.442,17.307,-24.15
37484100,-0.993,0.045,0.767,-14.332,3.937,-25.042
37484120,-0.907,0.034,0.72,-16.24,3.202,-25.62
37484120,-0.96,0.019,0.735,-13.055,13.545,-23.852
37484140,-1.151,0.013,0.713,-7.28,13.615,-19.6
37484140,-1.313,0.038,0.654,-1.802,1.89,-12.985
37484160,-1.288,0.089,0.606,2.117,-15.225,-8.89
37484160,-1.166,0.092,0.539,-0.035,-36.872,-6.51
37484170,-1.008,0.084,0.461,-5.792,-59.5,-3.482
37484180,-0.89,0.081,0.447,-14.035,-73.237,1.277
37484190,-0.821,0.098,0.442,-22.032,-77.612,5.81
37484200,-0.832,0.077,0.472,-26.635,-76.912,10.307
37484210,-0.842,0.065,0.523,-26.355,-74.795,13.037
37484220,-0.836,0.047,0.572,-24.675,-72.187,14.192
37484230,-0.835,0.025,0.568,-22.627,-69.317,13.93
37484240,-0.793,0.04,0.607,-19.215,-59.535,13.09
37484250,-0.771,0.043,0.628,-14.367,-48.58,13.895
37484260,-0.725,0.022,0.607,-8.995,-43.68,13.825
37484270,-0.636,0.063,0.608,-4.025,-37.012,12.74
37484280,-0.583,0.092,0.624,-1.015,-28.245,14.98
37484290,-0.596,0.087,0.604,0.595,-18.392,16.66
37484300,-0.645,0.08,0.587,2.222,-4.725,16.292
37484310,-0.723,0.077,0.606,3.937,6.667,15.19
37484320,-0.797,0.079,0.632,6.51,8.802,13.072
37484330,-0.838,0.079,0.666,8.242,4.655,9.467
37484340,-0.842,0.086,0.688,8.872,-2.38,5.705
37484350,-0.828,0.092,0.68,8.33,-8.085,3.902
37484360,-0.817,0.093,0.687,6.597,-9.047,3.325
37484370,-0.829,0.086,0.682,4.217,-7.665,3.115
37484380,-0.856,0.075,0.671,2.52,-6.79,3.587
37484390,-0.863,0.075,0.674,0.805,-7.857,4.392
37484400,-0.842,0.076,0.677,-2.205,-11.602,4.41
37484410,-0.818,0.061,0.655,-5.705,-16.362,4.235
37484420,-0.806,0.047,0.586,-7.332,-18.917,4.515
37484420,-0.819,0.033,0.657,-7.122,-21.192,3.972
37484440,-0.737,0.03,0.632,-9.187,-23.397,1.19
37484440,-0.703,0.023,0.638,-9.765,-17.36,1.102
37484460,-0.75,0.02,0.646,-7.28,-12.932,1.96
37484460,-0.79,0.021,0.609,-4.305,-9.572,2.66
37484480,-0.767,0.05,0.628,-1.872,-6.807,1.487
37484480,-0.722,0.059,0.634,-1.995,-7.962,0.052
37484500,-0.716,0.052,0.641,-2.03,-7.175,0.542
37484500,-0.739,0.05,0.651,-1.05,-2.817,1.767
37484510,-0.763,0.056,0.649,0.035,-0.035,2.327
37484520,-0.783,0.068,0.655,0.997,-0.56,2.31
37484530,-0.802,0.069,0.649,0.437,-1.732,2.187
37484540,-0.809,0.069,0.647,0.035,-2.362,2.205
37484550,-0.805,0.076,0.644,0.28,-3.675,2.765
37484560,-0.783,0.076,0.638,0.035,-4.9,3.237
37484570,-0.764,0.076,0.655,-0.595,-6.457,3.342
37484580,-0.752,0.073,0.663,-1.417,-7.717,3.132
37484590,-0.762,0.066,0.667,-1.855,-8.435,3.447
37484600,-0.78,0.059,0.67,-2.24,-9.59,4.147
37484610,-0.784,0.06,0.667,-2.712,-12.057,4.182
37484620,-0.782,0.063,0.676,-3.325,-14.63,3.727
37484630,-0.782,0.065,0.671,-3.937,-16.345,3.202
37484640,-0.776,0.062,0.664,-3.92,-16.432,3.097
37484650,-0.769,0.064,0.66,-3.657,-16.87,3.045
37484660,-0.754,0.068,0.652,-3.92,-16.94,2.835
37484670,-0.737,0.067,0.656,-4.48,-14.805,2.975
37484680,-0.734,0.066,0.664,-4.987,-12.95,3.115
37484690,-0.748,0.064,0.665,-5.18,-12.442,2.817
37484700,-0.757,0.065,0.665,-4.672,-12.127,2.362
37484710,-0.764,0.067,0.677,-3.972,-13.16,1.785
37484720,-0.769,0.069,0.687,-3.78,-15.697,0.892
37484730,-0.759,0.065,0.676,-3.657,-16.94,0.612
37484740,-0.738,0.061,0.665,-3.185,-16.17,1.47
37484750,-0.73,0.057,0.673,-3.167,-15.032,2.187
37484760,-0.737,0.057,0.675,-3.797,-14.052,2.24
37484770,-0.739,0.058,0.681,-3.955,-13.597,2.257
37484780,-0.737,0.056,0.687,-3.815,-14.07,2.38
37484790,-0.737,0.055,0.691,-3.71,-15.102,2.292
37484800,-0.728,0.058,0.69,-3.71,-14.752,2.24
37484810,-0.722,0.063,0.695,-3.29,-13.86,2.24
37484820,-0.725,0.067,0.694,-2.835,-13.002,2.24
37484830,-0.727,0.069,0.688,-2.327,-11.322,2.24
37484830,-0.734,0.072,0.692,-1.47,-10.517,1.925
37484850,-0.734,0.073,0.707,-1.242,-10.045,1.435
37484850,-0.722,0.066,0.721,-1.435,-9.275,1.277
37484870,-0.708,0.05,0.692,-1.137,-9.432,1.522
37484870,-0.693,0.062,0.695,-0.35,-7.42,1.662
37484890,-0.668,0.076,0.712,-0.525,-2.905,1.837
37484890,-0.668,0.07,0.712,-0.577,0.367,2.275
37484910,-0.697,0.062,0.699,0.577,3.745,2.52
37484910,-0.728,0.068,0.682,2.415,7.07,2.065
37484920,-0.748,0.072,0.677,3.64,8.347,0.63
37484930,-0.772,0.07,0.667,3.657,6.405,-1.067
37484940,-0.778,0.08,0.661,3.57,3.692,-2.467
37484950,-0.777,0.08,0.688,2.852,1.4,-2.765
37484960,-0.784,0.069,0.691,1.102,-1.907,-2.677
37484970,-0.808,0.051,0.681,-0.507,-5.915,-2.082
37484980,-0.823,0.047,0.675,-1.382,-10.57,-1.54
37484990,-0.807,0.048,0.656,-2.607,-16.975,-1.137
37485000,-0.779,0.046,0.639,-4.427,-23.625,-0.455
37485010,-0.767,0.038,0.592,-6.195,-28,0.63
37485020,-0.766,0.068,0.644,-6.405,-30.992,1.33
37485030,-0.686,0.088,0.707,-7.507,-30.94,1.557
37485040,-0.649,0.062,0.725,-8.995,-29.487,2.45
37485050,-0.651,0.033,0.731,-8.522,-25.06,3.237
37485060,-0.66,0.018,0.695,-6.352,-17.185,4.637
37485070,-0.652,0.032,0.697,-3.78,-10.062,5.04
37485080,-0.603,0.06,0.734,-2.572,-4.48,3.955
37485090,-0.579,0.057,0.751,-2.712,0.962,3.272
37485100,-0.601,0.043,0.751,-1.627,7.42,3.15
37485110,-0.638,0.05,0.78,1.12,14.017,2.467
37485120,-0.679,0.072,0.779,3.447,19.932,0.542
37485130,-0.764,0.089,0.784,5.39,23.135,-0.805
37485140,-0.78,0.097,0.815,6.51,23.73,-2.677
37485150,-0.763,0.081,0.735,6.352,20.16,-3.622
37485160,-0.753,0.093,0.679,6.93,17.552,-2.677
37485170,-0.725,0.112,0.645,6.247,14.577,-1.137
37485170,-0.713,0.109,0.634,3.885,11.497,0.262
37485190,-0.735,0.095,0.635,1.627,11.305,2.187
37485190,-0.764,0.081,0.661,1.225,11.812,3.412
37485210,-0.788,0.077,0.665,1.82,8.767,3.5
37485210,-0.791,0.082,0.668,2.485,4.637,2.765
37485230,-0.801,0.066,0.665,2.677,1.645,1.172
37485230,-0.808,0.078,0.678,3.622,-3.115,0.017
37485250,-0.772,0.068,0.68,2.695,-6.387,-1.032
37485250,-0.763,0.039,0.676,0.07,-6.212,-1.697
37485260,-0.769,0.042,0.679,-0.892,-8.067,-0.385
37485270,-0.749,0.053,0.66,0.402,-13.002,3.36
37485280,-0.756,0.018,0.572,-1.82,-14.577,3.062
37485290,-0.813,0.049,0.582,-3.605,-15.767,1.697
37485300,-0.8,0.066,0.655,-4.812,-18.83,1.54
37485310,-0.775,0.049,0.684,-6.632,-22.225,0.577
37485320,-0.784,0.043,0.718,-7.525,-22.732,0.91
37485330,-0.768,0.061,0.783,-7.98,-23.712,0.105
37485340,-0.687,0.061,0.726,-15.697,-26.022,-5.897
37485350,-0.67,0.022,0.71,-16.327,-24.85,-0.122
37485360,-0.654,0.006,0.713,-10.202,-20.387,6.615
37485370,-0.655,0.036,0.725,-2.73,-14.752,8.89
37485380,-0.636,0.087,0.752,-2.852,-10.29,5.425
37485390,-0.631,0.081,0.745,-6.125,-5.792,3.955
37485400,-0.671,0.066,0.72,-4.97,-1.855,3.657
37485410,-0.708,0.079,0.717,-1.015,3.395,3.027
37485420,-0.718,0.1,0.714,1.662,7.49,1.277
37485430,-0.728,0.11,0.719,2.1,7.052,-0.612
37485440,-0.719,0.109,0.756,2.03,5.722,-1.592
37485450,-0.686,0.066,0.754,1.697,6.527,-0.385
37485460,-0.701,0.023,0.698,0.805,6.545,2.222
37485470,-0.722,0.05,0.703,0.735,6.965,3.99
37485480,-0.725,0.068,0.682,0.157,4.725,4.76
37485490,-0.731,0.069,0.69,0.07,2.52,4.217
37485500,-0.746,0.06,0.669,0.245,2.8,3.027
37485510,-0.775,0.056,0.665,1.802,2.905,2.012
37485520,-0.789,0.061,0.67,3.045,1.207,0.35
37485530,-0.788,0.061,0.654,3.22,-1.47,-1.942
37485540,-0.798,0.06,0.663,3.062,-6.475,-3.01
37485550,-0.793,0.063,0.696,1.067,-13.667,-2.87
37485560,-0.744,0.05,0.688,-1.977,-20.93,-1.19
37485570,-0.715,0.016,0.685,-5.967,-21.175,-0.525
37485580,-0.741,0.013,0.667,-8.067,-19.6,0.595
37485580,-0.797,0.03,0.595,-7.28,-21.98,2.257
37485590,-0.819,0.098,0.644,-5.757,-27.177,1.085
37485600,-0.711,0.12,0.714,-7.525,-28.49,-0.962
37485610,-0.657,0.084,0.743,-9.695,-29.785,-0.945
37485620,-0.654,0.066,0.773,-8.907,-25.305,-0.087
37485630,-0.675,0.05,0.763,-6.632,-18.322,0.875
37485640,-0.693,0.06,0.783,-4.235,-15.82,0.56
37485650,-0.652,0.056,0.781,-3.552,-13.895,0.577
37485660,-0.616,0.049,0.772,-2.852,-12.442,1.312
37485670,-0.569,0.052,0.751,-1.995,-9.642,2.187
37485680,-0.564,0.056,0.709,-0.805,-2.8,2.992
37485690,-0.611,0.068,0.705,1.505,6.755,2.625
37485700,-0.673,0.081,0.725,4.27,14.14,1.347
37485710,-0.709,0.09,0.738,6.16,16.397,-0.21
37485720,-0.718,0.086,0.749,7,15.82,-1.68
37485730,-0.693,0.078,0.778,7.525,16.187,-2.345
37485740,-0.687,0.033,0.724,7.315,16.94,-0.945
37485750,-0.743,0.025,0.734,7.35,16.537,0.595
37485760,-0.729,0.066,0.738,6.142,14.542,1.435
37485770,-0.696,0.085,0.717,4.2,8.802,2.992
37485780,-0.699,0.072,0.693,2.152,4.935,4.06
37485790,-0.738,0.057,0.662,1.137,4.69,4.06
37485800,-0.772,0.074,0.663,1.575,5.022,3.08
37485810,-0.789,0.09,0.661,1.715,3.132,1.347
37485820,-0.816,0.084,0.667,1.365,-0.192,-0.647
37485830,-0.838,0.072,0.68,0.577,-3.885,-2.52
37485840,-0.825,0.058,0.684,-0.542,-10.535,-4.042
37485850,-0.793,0.039,0.677,-2.292,-18.427,-4.41
37485860,-0.775,0.03,0.667,-4.567,-25.235,-3.587
37485870,-0.755,0.031,0.647,-6.51,-29.82,-1.662
37485880,-0.743,0.035,0.603,-7.892,-32.305,0.577
37485890,-0.762,0.066,0.558,-8.715,-35.787,1.662
37485900,-0.713,0.132,0.631,-9.187,-36.347,0.84
37485910,-0.619,0.118,0.728,-12.162,-33.442,0.402
37485920,-0.597,0.072,0.845,-13.772,-28.962,0.105
37485920,-0.622,0.02,0.867,-12.197,-19.757,0.7
37485940,-0.653,-0.015,0.832,-6.317,-11.917,1.82
37485940,-0.639,-0.012,0.795,-1.225,-6.44,1.645
37485960,-0.583,0.018,0.767,0.647,-1.452,-0.157
37485960,-0.539,0.043,0.752,1.155,2.31,-0.647
37485980,-0.551,0.043,0.743,1.61,10.185,0.682
37485980,-0.622,0.051,0.739,3.29,20.93,1.68
37486000,-0.699,0.081,0.734,7.035,27.405,1.47
37486000,-0.755,0.107,0.745,9.905,27.265,0.21
37486010,-0.766,0.117,0.746,9.852,22.855,-1.645
37486020,-0.743,0.122,0.739,8.89,17.5,-1.732
37486030,-0.688,0.116,0.786,7.437,13.212,-0.245
37486040,-0.652,0.047,0.744,4.182,11.287,1.61
37486050,-0.705,0.015,0.694,2.765,11.305,3.867
37486060,-0.736,0.056,0.712,3.43,12.39,5.757
37486070,-0.714,0.087,0.721,2.59,8.715,5.88
37486080,-0.675,0.082,0.723,0.245,5.372,4.672
37486090,-0.683,0.055,0.665,-1.137,8.085,3.657
37486100,-0.737,0.053,0.663,1.032,12.215,2.625
37486110,-0.774,0.076,0.672,3.447,13.702,0.577
37486120,-0.81,0.081,0.649,4.567,12.355,-1.697
37486130,-0.859,0.077,0.632,4.707,7.437,-2.555
37486140,-0.868,0.078,0.641,2.957,-0.052,-2.607
37486150,-0.838,0.072,0.668,-0.437,-10.167,-2.362
37486160,-0.785,0.044,0.676,-4.2,-20.387,-1.627
37486170,-0.742,0.016,0.667,-6.842,-27.352,-0.14
37486180,-0.691,0.016,0.689,-8.172,-28.49,2.205
37486190,-0.656,0.019,0.675,-9.747,-27.09,4.637
37486200,-0.711,0.01,0.575,-10.062,-26.775,5.442
37486210,-0.785,0.076,0.617,-6.685,-28.42,3.692
37486220,-0.7,0.113,0.714,-5.722,-26.302,-0.017
37486230,-0.647,0.056,0.753,-6.65,-25.235,-2.992
37486240,-0.696,0.026,0.799,-4.725,-20.125,-3.15
37486250,-0.7,0.05,0.811,-0.612,-11.357,-1.417
37486260,-0.655,0.066,0.798,1.207,-8.487,-0.175
37486270,-0.62,0.076,0.79,0.105,-9.03,0.14
37486280,-0.593,0.081,0.743,-0.717,-4.637,1.855
37486280,-0.629,0.084,0.72,0.227,-0.367,4.182
37486300,-0.687,0.1,0.725,0.542,2.38,3.675
37486300,-0.742,0.105,0.722,1.54,5.162,1.225
37486320,-0.777,0.102,0.724,3.867,4.217,-1.242
37486320,-0.763,0.1,0.719,5.215,0.927,-3.027
37486330,-0.717,0.079,0.736,4.13,-1.645,-3.202
37486340,-0.658,0.046,0.754,1.557,-3.99,-2.117
37486350,-0.622,0.027,0.731,-0.472,-4.76,0.14
37486360,-0.611,0.049,0.741,-0.752,-2.082,3.185
37486370,-0.621,0.05,0.74,-1.872,0.542,5.477
37486380,-0.66,0.04,0.735,-2.362,4.182,5.827
37486390,-0.694,0.033,0.728,-0.472,9.502,5.127
37486400,-0.72,0.045,0.712,2.52,11.182,2.87
37486410,-0.737,0.066,0.703,4.48,10.937,-0.402
37486420,-0.747,0.079,0.692,5.145,11.795,-2.94
37486430,-0.769,0.087,0.691,5.442,9.432,-3.815
37486440,-0.777,0.097,0.679,4.165,4.83,-3.622
37486450,-0.773,0.1,0.667,1.995,-1.347,-2.537
37486460,-0.749,0.101,0.701,-0.542,-8.137,-1.365
37486470,-0.71,0.082,0.705,-3.745,-13.02,-0.087
37486480,-0.714,0.052,0.701,-5.232,-15.505,1.54
37486490,-0.741,0.038,0.707,-5.547,-15.207,2.17
37486500,-0.76,0.036,0.69,-5.11,-14.665,1.242
37486510,-0.757,0.033,0.674,-4.007,-16.38,-0.245
37486520,-0.746,0.022,0.609,-3.01,-17.85,-2.345
37486530,-0.795,0.054,0.587,-1.855,-22.12,-4.235
37486540,-0.721,0.124,0.715,-2.257,-22.785,-5.74
37486550,-0.636,0.085,0.765,-6.37,-22.61,-4.13
37486560,-0.656,0.04,0.818,-8.05,-21.49,-1.19
37486570,-0.684,0.016,0.803,-7.122,-15.75,2.817
37486580,-0.68,0.02,0.789,-5.005,-13.965,4.987
37486590,-0.619,0.039,0.778,-5.057,-13.755,5.022
37486600,-0.562,0.042,0.751,-4.952,-10.15,5.197
37486610,-0.57,0.043,0.745,-2.642,-4.777,5.46
37486620,-0.607,0.062,0.742,0.472,3.045,4.305
37486630,-0.642,0.082,0.726,3.78,10.395,2.03
37486640,-0.676,0.101,0.733,7.35,13.51,-0.822
37486650,-0.703,0.118,0.748,8.837,13.037,-3.465
37486660,-0.72,0.122,0.753,8.487,10.832,-4.2
37486670,-0.72,0.12,0.788,6.965,8.487,-3.08
37486670,-0.678,0.09,0.817,4.34,8.242,-1.417
37486690,-0.662,0.033,0.731,1.855,7.105,1.19
37486690,-0.673,0.047,0.738,1.907,6.825,3.797
37486710,-0.649,0.079,0.745,0.735,5.967,5.04
37486710,-0.662,0.074,0.706,-0.927,3.762,5.197
37486730,-0.715,0.059,0.696,-1.015,6.737,4.025
37486730,-0.758,0.064,0.681,0.77,10.01,1.207
37486750,-0.79,0.079,0.665,2.94,7.455,-1.435
37486750,-0.795,0.089,0.68,3.272,2.292,-4.497
37486760,-0.781,0.073,0.694,1.33,-2.502,-6.195
37486770,-0.766,0.047,0.699,-1.242,-7.822,-5.302
37486780,-0.758,0.021,0.688,-3.675,-11.025,-3.01
37486790,-0.756,0.011,0.678,-4.917,-12.862,-0.437
37486800,-0.75,0.013,0.653,-5.827,-15.995,1.732
37486810,-0.774,0.024,0.575,-6.825,-20.842,2.747
37486820,-0.774,0.079,0.614,-6.825,-24.99,1.977
37486830,-0.696,0.09,0.632,-7.84,-26.25,0.962
37486840,-0.682,0.059,0.662,-8.207,-26.162,0.612
37486850,-0.685,0.059,0.739,-7.21,-20.142,0.665
37486860,-0.667,0.049,0.849,-6.615,-12.967,1.452
37486870,-0.667,0.034,0.902,-6.475,-13.58,1.785
37486880,-0.651,0.025,0.889,-5.285,-14.437,3.22
37486890,-0.603,0.026,0.826,-3.097,-12.302,4.567
37486900,-0.543,0.063,0.777,-1.225,-10.64,4.847
37486910,-0.496,0.114,0.765,-0.84,-4.672,4.217
37486920,-0.524,0.128,0.737,-0.42,5.617,3.482
37486930,-0.608,0.127,0.732,2.24,15.05,1.907
37486940,-0.688,0.116,0.727,6.055,22.4,-0.805
37486950,-0.737,0.112,0.745,9.24,24.64,-4.2
37486960,-0.724,0.096,0.782,9.817,24.15,-6.702
37486970,-0.731,0.037,0.72,7.91,21.437,-6.562
37486980,-0.774,0.036,0.733,7.297,17.622,-4.865
37486990,-0.749,0.078,0.715,6.58,10.062,-2.117
37487000,-0.699,0.073,0.695,3.675,4.62,1.225
37487010,-0.685,0.062,0.692,-0.21,3.167,4.007
37487010,-0.688,0.052,0.691,-2.012,2.38,6.562
37487030,-0.702,0.034,0.672,-2.432,2.24,7.437
37487030,-0.731,0.029,0.684,-2.835,4.217,5.337
37487050,-0.77,0.024,0.671,-2.03,3.64,2.73
37487050,-0.784,0.03,0.693,0.682,-0.21,0.805
37487070,-0.715,0.043,0.719,1.557,-3.097,-1.452
37487070,-0.687,0.032,0.718,-0.315,-2.992,-2.73
37487080,-0.695,0.041,0.716,-0.892,-2.59,-1.172
37487090,-0.715,0.048,0.718,-1.61,0.175,0.647
37487100,-0.737,0.065,0.716,-2.205,-0.157,1.242
37487110,-0.747,0.069,0.709,-2.94,-3.902,1.732
37487120,-0.763,0.061,0.658,-4.077,-7.245,1.522
37487130,-0.802,0.077,0.623,-3.71,-11.112,0.77
37487140,-0.798,0.085,0.655,-3.395,-13.51,-0.682
37487150,-0.787,0.071,0.683,-4.112,-19.005,-2.292
37487160,-0.757,0.077,0.705,-4.532,-24.622,-2.782
37487170,-0.7,0.083,0.735,-4.917,-26.547,-1.312
37487180,-0.655,0.07,0.794,-6.825,-25.987,0.805
37487190,-0.627,0.06,0.807,-8.925,-23.327,2.782
37487200,-0.615,0.055,0.804,-7.367,-19.215,5.057
37487210,-0.586,0.053,0.79,-4.655,-14.35,5.932
37487220,-0.578,0.052,0.746,-2.87,-8.312,5.197
37487230,-0.589,0.07,0.735,-1.12,-0.455,3.605
37487240,-0.615,0.089,0.732,1.47,7.385,1.4
37487250,-0.672,0.097,0.738,4.182,13.282,-1.085
37487260,-0.708,0.104,0.745,6.65,16.117,-3.535
37487270,-0.725,0.11,0.749,8.487,14.77,-4.742
37487280,-0.695,0.106,0.784,7.787,12.547,-4.602
37487290,-0.663,0.045,0.737,4.357,12.757,-2.73
37487300,-0.72,0.015,0.682,2.835,11.952,0.612
37487310,-0.761,0.05,0.714,2.992,9.66,3.272
37487320,-0.728,0.094,0.727,1.82,2.362,4.322
37487330,-0.681,0.068,0.707,-1.085,-4.34,4.462
37487340,-0.701,0.034,0.689,-3.08,-1.995,3.622
37487350,-0.747,0.025,0.676,-2.065,-0.052,2.922
37487360,-0.765,0.051,0.667,-0.122,-0.455,1.68
37487370,-0.751,0.072,0.701,0.49,-2.677,-0.805
37487380,-0.725,0.066,0.733,-1.47,-5.67,-2.397
37487390,-0.729,0.045,0.729,-3.622,-7.735,-2.117
37487400,-0.74,0.04,0.718,-3.92,-9.117,-1.12
37487410,-0.736,0.043,0.703,-3.657,-11.9,-0.56
37487420,-0.714,0.048,0.7,-4.305,-14.087,-0.105
37487420,-0.711,0.04,0.654,-6.09,-14.962,0.647
37487440,-0.775,0.052,0.63,-6.09,-17.937,1.26
37487440,-0.762,0.098,0.724,-5.372,-18.27,0.227
37487460,-0.716,0.081,0.748,-6.177,-19.25,-0.35
37487460,-0.695,0.058,0.769,-5.092,-19.25,-0.385
37487480,-0.664,0.048,0.748,-3.465,-15.54,0.997
37487480,-0.624,0.046,0.727,-2.415,-13.16,2.327
37487500,-0.607,0.051,0.734,-3.185,-10.902,3.22
37487500,-0.606,0.054,0.744,-3.587,-6.055,3.85
37487510,-0.631,0.052,0.765,-2.467,-1.697,4.287
37487520,-0.671,0.052,0.77,-1.312,1.522,3.5
37487530,-0.701,0.07,0.753,0.577,3.955,1.715
37487540,-0.707,0.091,0.733,3.01,4.445,0.157
37487550,-0.702,0.103,0.734,3.832,4.025,-1.085
37487560,-0.69,0.107,0.744,2.975,2.555,-1.925
37487570,-0.67,0.101,0.748,1.68,1.47,-1.557
37487580,-0.656,0.089,0.738,1.435,1.085,-0.017
37487590,-0.651,0.08,0.761,1.785,2.082,1.487
37487600,-0.606,0.074,0.822,1.12,6.527,2.712
37487610,-0.608,0.007,0.743,0.052,10.92,4.252
37487620,-0.692,0.01,0.724,2.38,13.825,4.427
37487630,-0.718,0.062,0.751,4.725,16.187,2.782
37487640,-0.719,0.082,0.685,5.6,10.867,0.49
37487650,-0.747,0.067,0.679,5.53,9.502,-1.452
37487660,-0.757,0.071,0.669,5.32,10.675,-2.432
37487670,-0.782,0.084,0.654,4.182,5.915,-1.697
37487680,-0.801,0.088,0.688,1.19,0.052,-1.61
37487690,-0.78,0.068,0.712,-2.747,-5.145,-1.855
37487700,-0.769,0.03,0.713,-5.775,-11.917,-0.367
37487710,-0.757,0.018,0.707,-7.367,-16.082,1.575
37487720,-0.724,0.016,0.688,-7.752,-19.25,2.87
37487730,-0.692,0.005,0.611,-8.137,-21.14,3.01
37487740,-0.742,0.042,0.557,-6.615,-23.135,2.012
37487750,-0.687,0.132,0.714,-5.075,-19.74,0.157
37487760,-0.6,0.105,0.813,-7.297,-14.717,-0.385
37487760,-0.62,0.035,0.842,-6.895,-9.03,0.402
37487780,-0.686,0.006,0.78,-1.872,-0.822,2.485
37487780,-0.689,0.032,0.745,3.622,3.955,3.115
37487800,-0.65,0.067,0.721,3.605,3.097,2.135
37487800,-0.633,0.084,0.717,1.837,2.87,2.012
37487820,-0.642,0.078,0.734,0.595,6.09,3.167
37487820,-0.663,0.076,0.736,0.822,11.672,3.29
37487830,-0.679,0.086,0.733,2.835,15.942,2.362
37487840,-0.699,0.099,0.727,5.127,18.147,1.12
37487850,-0.725,0.106,0.731,5.652,18.812,0.192
37487860,-0.761,0.103,0.725,4.707,16.117,-0.175
37487870,-0.776,0.102,0.729,3.815,10.832,-0.437
37487880,-0.743,0.101,0.789,2.975,6.02,-0.682
37487890,-0.678,0.046,0.789,1.347,2.537,0.07
37487900,-0.622,0.024,0.743,0.612,1.172,1.942
37487910,-0.601,0.043,0.721,0.595,3.465,4.69
37487920,-0.668,0.045,0.684,-0.857,2.292,6.335
37487930,-0.747,0.059,0.691,-2.047,0.472,4.987
37487940,-0.76,0.084,0.718,-1.47,-0.21,1.662
37487950,-0.814,0.089,0.674,0,-7.087,-1.715
37487960,-0.84,0.101,0.668,1.54,-16.117,-4.357
37487970,-0.805,0.119,0.687,1.19,-22.487,-5.845
37487980,-0.752,0.119,0.688,-0.122,-29.61,-6.055
37487990,-0.726,0.089,0.676,-2.765,-35.857,-4.34
37488000,-0.729,0.069,0.668,-5.845,-37.52,-1.872
37488010,-0.751,0.064,0.669,-7.84,-39.235,0.665
37488020,-0.74,0.043,0.644,-8.627,-43.995,2.415
37488030,-0.747,0.011,0.469,-8.96,-49.7,2.152
