#Format version: 1.0
time[ms],accX[g],accY[g],accZ[g],Value 1,Value 2,Value 3,
60055770,0.557,-0.493,-0.033,-15.382,52.622,-7.227,
60055780,0.694,-0.038,-0.067,3.167,43.837,-0.857,
60055790,0.812,0.22,-0.111,-1.12,31.692,-14.752,
60055800,0.728,0.365,-0.098,-11.06,20.842,-23.397,
60055810,0.743,0.558,-0.123,-18.06,5.862,-39.725,
60055820,0.662,0.557,-0.127,-28.56,-15.855,-64.452,
60055830,0.225,0.476,-0.052,-24.902,-43.977,-84.822,
60055840,-0.239,0.396,0.012,-18.095,-90.825,-100.205,
60055850,-0.376,0.169,0.012,-12.407,-136.832,-94.92,
60055860,-0.232,-0.086,-0.178,-2.922,-150.465,-74.445,
60055870,-0.448,-0.251,-0.37,7.017,-143.132,-59.08,
60055880,-0.789,-0.376,-0.555,-4.252,-133.122,-58.765,
60055890,-0.898,-0.621,-0.686,-32.69,-123.165,-64.82,
60055900,-1.071,-0.835,-0.603,-90.475,-95.865,-45.36,
60055910,-0.518,-1.633,-0.635,-116.042,-2.747,0.647,
60055910,1.546,-1.998,1.998,-47.862,127.82,69.965,
60055920,-1.079,-1.927,-0.808,245.49,50.61,-164.622,
60055930,1.015,1.657,-0.234,435.767,71.575,-333.97,
60055940,0.318,0.778,1.69,207.83,223.352,-175.402,
60055950,0.68,-0.772,0.565,317.625,135.817,-113.172,
60055960,1.972,0.211,0.68,356.877,204.452,-45.482,
60055970,0.615,0.157,1.421,275.957,179.427,37.082,
60055980,0.372,0.335,1.679,226.485,143.622,106.085,
60055990,-0.492,0.285,1.815,141.365,94.22,134.26,
60056000,-0.713,0.184,1.676,55.685,38.99,105.63,
60056010,-0.376,-0.073,1.321,-16.94,8.522,59.71,
60056020,0.073,-0.347,0.983,-58.362,-6.51,18.935,
60056030,0.379,-0.415,0.832,-70.945,-10.342,4.182,
60056040,0.479,-0.408,0.854,-71.872,-9.082,4.235,
60056050,0.424,-0.357,0.898,-72.1,-3.255,8.96,
60056060,0.356,-0.361,0.859,-66.08,-1.977,11.48,
60056070,0.306,-0.469,0.913,-62.667,3.605,16.625,
60056080,0.265,-0.366,0.928,-66.43,6.632,12.897,
60056090,0.238,-0.401,0.964,-70.945,11.83,8.907,
60056100,0.271,-0.337,0.972,-78.54,12.775,5.39,
60056110,0.279,-0.372,1.015,-87.78,13.09,6.65,
60056120,0.262,-0.304,1.003,-100.607,7.857,5.95,
60056130,0.222,-0.359,1.012,-113.225,1.61,7.017,
60056140,0.174,-0.432,1.021,-126.472,-10.832,4.27,
60056150,0.158,-0.412,1.003,-140.945,-24.395,0.91,
60056160,0.161,-0.456,0.965,-156.572,-38.815,-0.857,
60056170,0.317,-0.49,1.01,-174.755,-51.555,-0.7,
60056180,0.439,-0.408,1.038,-193.585,-60.987,1.645,
60056190,0.541,-0.562,1.041,-208.635,-60.182,7.49,
60056200,0.608,-0.81,1.07,-211.995,-54.792,9.625,
60056210,0.719,-1.139,1.324,-204.4,-46.13,10.272,
60056220,0.967,-1.507,1.442,-183.032,-18.55,7.735,
60056230,0.792,-1.902,0.96,-148.837,37.782,11.602,
60056240,0.277,-1.958,0.315,-111.16,105.49,-3.745,
60056250,0.199,-1.807,-0.18,-42.437,141.802,-37.397,
60056260,-0.299,-1.457,0.161,13.492,98.507,-48.685,
60056260,-0.578,-1.178,-0.039,88.34,20.177,-65.957,
60056280,-0.245,-0.674,-0.271,140.21,-8.417,-42.245,
60056280,-0.138,-0.153,-0.42,157.517,-14.402,-8.627,
60056300,-0.195,0.087,-0.477,149.642,20.16,26.302,
60056300,-0.556,0.191,-0.437,120.82,79.082,97.527,
60056320,-0.746,0.168,-0.277,93.292,109.34,167.44,
60056320,-0.578,0.254,-0.178,79.642,97.965,217.577,
60056330,-0.051,0.575,-0.221,74.952,68.477,242.55,
60056340,0.379,0.806,-0.204,72.257,31.342,227.955,
60056350,0.418,0.838,-0.207,65.87,1.557,191.607,
60056360,0.066,0.836,-0.217,64.172,-31.587,152.337,
60056370,-0.245,0.773,-0.195,62.16,-68.407,130.007,
60056380,-0.078,0.085,-0.544,53.06,-94.202,130.952,
60056390,1.239,-1.201,1.363,49.805,-42.542,134.715,
60056400,-0.056,-1.998,-0.673,236.897,-370.195,-220.867,
60056410,-1.727,0.264,0.937,497.49,-358.382,-365.837,
60056420,0.318,1.954,0.884,407.277,-391.3,-233.1,
60056430,1.573,-0.587,1.011,453.862,-15.522,-136.937,
60056440,0.627,0.9,1.986,420.595,188.142,-171.412,
60056450,1.234,1.058,1.841,195.93,206.255,-51.012,
60056460,-1.819,1.631,1.83,44.45,116.165,71.435,
60056470,-0.573,0.13,1.329,-53.725,-4.48,106.085,
60056480,-0.041,-1.265,0.898,-67.235,-55.457,96.162,
60056490,0.064,-0.464,0.882,-55.737,-58.905,48.79,
60056500,0.226,-0.617,0.839,-46.935,-56.612,18.095,
60056510,0.625,-0.505,0.737,-33.022,-45.622,-1.575,
60056520,0.659,-0.219,0.79,-18.462,-26.635,-4.497,
60056530,0.429,-0.315,0.894,-14.402,-6.615,-3.027,
60056540,0.312,-0.102,1.108,-18.515,-0.63,-2.45,
60056550,0.316,0.086,1.265,-45.482,-6.562,0.717,
60056560,0.325,0.163,1.489,-89.6,-14.122,5.81,
60056570,0.498,0.275,1.338,-143.745,-12.267,7.332,
60056580,0.371,-0.186,1.459,-209.562,-0.717,17.447,
60056590,0.35,-0.217,1.287,-248.027,0.367,23.205,
60056600,0.277,-0.273,1.29,-257.635,-6.107,26.04,
60056600,0.805,-0.544,1.528,-258.195,13.387,29.4,
60056620,1.261,-0.879,1.514,-248.377,91.017,36.225,
60056620,0.582,-1.592,1.562,-226.817,171.937,39.165,
60056640,-0.747,-1.878,1.446,-184.292,137.48,1.837,
60056640,-0.706,-1.998,1.314,-135.852,78.837,-40.215,
60056660,-1.427,-1.95,-0.069,26.53,24.517,-31.955,
60056660,-0.14,-0.679,-0.974,153.527,48.86,52.167,
60056670,0.078,-0.763,-0.579,49.525,47.162,94.727,
60056680,0.398,-1.119,-0.119,4.777,9.677,64.785,
60056690,0.323,-0.444,-0.047,27.23,15.925,62.79,
60056700,0.145,0.209,-0.081,33.827,9.31,61.285,
60056710,-0.002,0.434,-0.017,17.185,-3.867,61.862,
60056720,-0.07,0.703,0.065,2.87,-22.977,75.11,
60056730,-0.067,0.958,0.147,-11.865,-40.18,98.577,
60056740,-0.08,0.958,0.264,-26.372,-62.912,122.885,
60056750,-0.016,0.954,0.266,-26.757,-84.997,141.067,
60056760,0.034,0.953,0.202,-14.857,-102.497,146.65,
60056770,-0.098,0.826,0.07,-6.65,-112.227,147.07,
60056780,-0.27,0.763,-0.153,-1.487,-122.552,148.26,
60056790,-0.449,0.713,-0.282,-14.14,-134.33,159.302,
60056800,-0.325,0.491,-0.223,-46.427,-159.355,162.61,
60056810,-0.879,-0.217,0.102,-65.765,-182.752,199.097,
60056820,1.156,-0.242,-0.256,3.972,-168.49,151.147,
60056830,0.478,-1.986,1.071,-149.205,-277.917,-14.84,
60056840,1.14,-1.818,-1.021,362.477,-354.235,-462.14,
60056850,-1.969,1.931,1.526,447.632,-185.22,-277.532,
60056860,1.868,1.99,0.081,413.682,-128.467,-198.73,
60056870,0.317,-0.622,1.022,382.532,131.39,-126.437,
60056880,1.263,1.245,1.585,308.805,185.43,-111.265,
60056890,1.413,1.056,1.453,176.312,199.762,12.95,
60056900,-0.719,0.42,1.884,56.157,169.102,115.955,
60056910,-1.523,0.505,1.714,-16.695,59.885,114.152,
60056920,-0.612,-0.487,1.236,-79.905,-32.952,79.082,
60056930,-0.093,-0.563,0.902,-99.802,-65.485,34.142,
60056940,0.384,-0.487,0.77,-78.4,-70,6.632,
60056950,0.539,-0.547,0.687,-63.595,-56.525,-1.067,
60056960,0.556,-0.548,0.655,-41.195,-42.297,2.817,
60056970,0.417,-0.421,0.8,-21.437,-30.572,9.117,
60056980,0.192,-0.292,1.054,-18.06,-24.185,7.332,
60056990,0.327,-0.093,1.181,-33.565,-30.555,0.367,
60057000,0.577,0.107,1.205,-69.387,-34.825,1.26,
60057010,0.593,0.006,1.227,-119.28,-34.58,13.037,
60057010,0.681,-0.045,1.207,-164.885,-28.77,28.595,
60057030,0.664,-0.223,1.164,-200.077,-21.49,46.462,
60057030,0.552,-0.406,1.03,-221.935,-11.147,61.145,
60057050,0.622,-0.423,1.019,-223.282,-7.525,74.077,
60057050,0.98,-0.49,1.105,-217.665,7.962,94.657,
60057070,1.051,-0.777,1.271,-206.972,51.485,126.385,
60057070,0.885,-1.442,1.401,-191.712,109.97,144.795,
60057080,0.203,-1.642,1.548,-155.47,110.792,126.595,
60057090,0.078,-1.442,0.918,-95.095,52.552,86.502,
60057100,-0.078,-1.673,0.929,-67.795,28.157,92.995,
60057110,-0.291,-1.976,0.738,-17.062,65.257,129.745,
60057120,-0.163,-1.35,0.199,113.33,58.222,152.337,
60057130,1.137,-0.632,-0.448,181.615,52.552,166.127,
60057140,1.306,-0.256,-1.072,151.83,47.425,132.667,
60057150,0.832,0.099,-1.17,90.072,0.472,47.425,
60057160,0.648,-0.126,-0.762,-12.512,-33.845,4.445,
60057170,1.012,-0.456,-0.299,-78.61,-57.715,-33.81,
60057180,0.992,-0.568,-0.103,-88.812,-46.917,-76.685,
60057190,0.34,-0.062,-0.216,-61.092,-12.687,-124.477,
60057200,-0.706,0.582,-0.16,-79.502,3.01,-143.99,
60057210,-0.936,0.485,-0.13,-119.525,11.322,-171.15,
60057220,-1.672,0.404,0.087,-141.925,-7.28,-175.595,
60057230,-1.848,0.27,0.109,-145.512,-19.407,-140.717,
60057240,-1.268,0.169,0.066,-113.155,-4.41,-106.732,
60057250,-0.678,0.313,-0.178,-111.265,17.675,-117.687,
60057260,-0.569,0.138,-0.723,-166.495,67.095,-115.22,
60057270,-0.877,-1.224,1.321,-169.172,122.377,-147.892,
60057280,-0.903,-1.988,1.998,-80.167,47.985,-166.827,
60057290,1.637,-1.998,-0.218,186.952,-21.49,-246.33,
60057300,-0.744,1.295,-1.285,516.337,170.625,-381.395,
60057310,-0.4,0.647,1.519,298.305,-124.652,-368.9,
60057320,1.998,-0.09,0.56,395.43,128.31,-247.485,
60057330,1.592,0.837,1.089,452.987,162.592,-156.362,
60057330,1.789,1.277,1.731,371.577,215.95,-3.22,
60057350,-0.261,0.217,1.998,221.287,235.882,86.94,
60057350,-1.807,0.89,1.975,102.305,132.3,86.327,
60057370,-0.736,0.227,1.561,1.26,6.265,56.297,
60057370,0.1,-0.15,1.184,-58.03,-61.582,41.597,
60057390,0.47,-0.242,1.027,-77.245,-94.115,52.412,
60057390,0.473,-0.253,0.987,-82.582,-101.535,71.295,
60057410,0.314,-0.393,0.986,-87.762,-100.572,75.302,
60057410,0.115,-0.411,0.969,-105.63,-93.17,68.285,
60057420,0.197,-0.345,0.973,-114.152,-87.797,43.435,
60057430,0.336,-0.268,1.045,-127.05,-78.557,23.975,
60057440,0.55,-0.225,1.052,-145.477,-74.795,20.02,
60057450,0.701,-0.28,0.994,-164.29,-68.67,34.44,
60057460,0.681,-0.442,0.921,-177.135,-68.075,60.812,
60057470,0.796,-0.38,1.003,-183.33,-61.022,86.607,
60057480,0.956,-0.632,1.461,-191.467,-54.022,110.53,
60057490,1.098,-1.451,1.463,-188.982,-46.34,136.815,
60057500,1.063,-1.924,1.319,-139.282,-59.64,117.932,
60057510,0.379,-1.998,1.341,-90.475,-88.427,86.38,
60057520,-0.263,-1.998,0.698,-27.825,-96.075,48.265,
60057530,0.569,-1.605,-0.988,126.437,-88.725,21.91,
60057540,1.506,-0.433,-1.533,149.572,-19.022,16.677,
60057550,1.278,-0.789,-0.973,9.03,42.717,-36.732,
60057560,0.914,-1.071,-0.813,-52.815,76.545,-115.832,
60057570,0.602,-0.5,-0.934,-54.075,102.777,-174.212,
60057580,0.195,-0.123,-0.87,-99.347,106.015,-197.977,
60057590,-0.233,-0.426,-0.453,-162.172,86.082,-192.15,
60057600,-0.619,-0.489,-0.007,-194.775,43.522,-178.885,
60057610,-0.581,-0.338,0.206,-202.545,11.042,-167.002,
60057620,-0.567,-0.331,0.4,-204.872,13.632,-138.775,
60057630,-0.732,-0.248,0.559,-200.235,28.49,-104.3,
60057640,-1.029,0.091,0.614,-180.425,39.602,-58.555,
60057650,-1.325,0.556,0.592,-150.167,25.812,-4.392,
60057660,-1.477,0.781,0.457,-122.377,-20.947,51.852,
60057670,-1.51,1.136,0.419,-71.995,-80.867,105.105,
60057680,-0.607,1.662,-0.16,-4.987,-131.897,116.13,
60057690,0.873,0.269,-0.303,-30.835,-63.577,138.967,
60057700,1.998,-1.998,1.868,23.065,210.7,144.987,
60057710,-1.293,-1.784,-1.118,297.15,95.445,-205.572,
60057720,-1.998,1.954,0.767,479.237,88.707,-267.207,
60057730,0.804,1.159,1.456,349.125,3.972,-175.647,
60057740,1.919,0.845,0.839,467.74,88.147,-179.235,
60057750,1.733,0.04,1.736,437.307,161.997,-70.262,
60057760,1.614,1.755,1.59,317.502,206.237,20.457,
60057760,-0.84,0.011,1.998,117.827,187.722,101.01,
60057780,-0.974,0.294,1.816,44.03,61.862,104.44,
60057780,-0.367,0.046,1.423,-26.862,-28.227,77.7,
60057800,0.099,-0.344,1.139,-78.54,-56.157,51.975,
60057800,0.292,-0.244,1.083,-98.857,-70.437,38.062,
60057820,0.227,-0.343,1.104,-125.755,-77.07,33.862,
60057820,0.179,-0.242,1.123,-149.1,-90.265,27.597,
60057830,0.076,-0.21,1.172,-171.412,-105.052,25.62,
60057840,0.088,-0.253,1.115,-192.885,-122.92,19.67,
60057850,0.183,-0.378,1.054,-214.025,-141.785,21.157,
60057860,0.273,-0.392,1.407,-230.755,-178.71,38.377,
60057870,0.014,-0.534,1.763,-239.855,-245.56,54.705,
60057880,0.068,-1.095,1.467,-222.372,-329.56,40.162,
60057890,1.244,-1.811,0.88,-190.96,-319.06,14.91,
60057900,0.404,-1.998,1.637,-156.152,-261.485,11.48,
60057910,-1.998,-1.998,1.629,33.74,-43.312,165.217,
60057920,-1.007,-1.578,-1.304,421.242,83.772,310.905,
60057930,1.69,-0.309,-1.989,402.307,33.792,287.402,
60057940,1.904,-0.774,-1.704,181.055,87.447,299.74,
60057950,1.265,-1.01,-1.089,70.052,83.772,216.457,
60057960,1.021,-0.377,-0.828,36.627,74.795,118.667,
60057970,0.622,0.145,-0.761,-10.237,76.02,57.102,
60057980,-0.04,0.253,-0.463,-57.295,63.787,9.677,
60057990,-0.599,-0.032,-0.037,-89.775,58.59,13.177,
60058000,-0.88,0.125,0.257,-80.955,58.555,59.097,
60058010,-0.879,0.469,0.343,-34.842,40.547,109.725,
60058020,-0.675,0.585,0.182,-0.805,26.792,169.365,
60058030,-0.606,0.552,-0.022,25.48,-1.995,219.257,
60058040,-0.224,0.49,-0.271,38.01,-49.577,243.372,
60058050,0.216,0.517,-0.594,31.535,-86.187,241.552,
60058060,0.435,0.345,-0.568,3.797,-103.162,217.84,
60058070,1.012,-0.598,0.621,-10.5,-72.205,196.945,
60058080,1.998,-1.972,1.998,28.892,-74.165,-13.93,
60058080,-0.853,-1.965,0.36,296.45,-176.452,-259.682,
60058100,-1.684,0.901,0.495,462.997,-139.335,-283.395,
60058100,1.92,1.718,0.856,336.717,-127.61,-130.795,
60058120,1.704,0.734,0.611,394.03,-4.725,-143.517,
60058120,0.328,-1.039,1.661,337.452,24.377,-99.767,
60058140,1.739,1.013,1.282,329.962,72.415,-7.787,
60058140,0.231,0.359,1.775,240.065,95.165,55.335,
60058160,-0.551,0.344,1.787,147.857,76.072,60.777,
60058160,-0.667,0.243,1.626,54.88,16.887,34.37,
60058170,-0.07,0.03,1.332,-16.082,-39.987,9.817,
60058180,0.351,-0.02,1.21,-60.602,-77.49,4.76,
60058190,0.495,-0.055,1.161,-100.397,-92.872,13.37,
60058200,0.585,-0.052,1.17,-141.19,-102.182,23.957,
60058210,0.668,-0.084,1.123,-183.382,-99.837,33.845,
60058220,0.651,-0.209,1.066,-214.952,-89.127,47.547,
60058230,0.692,-0.134,1.011,-227.447,-74.112,50.26,
60058240,0.446,-0.442,1.064,-256.707,-65.362,77.017,
60058250,0.4,-0.233,1.03,-250.95,-77.875,94.412,
60058260,0.699,-0.221,1.138,-261.24,-85.715,115.36,
60058270,0.865,-0.593,1.308,-278.687,-83.93,129.587,
60058280,1.144,-1.446,1.442,-287.63,-84.245,127.75,
60058290,1.343,-1.998,0.672,-250.215,-75.967,93.45,
60058300,1.945,-1.811,0.02,-180.197,-23.362,22.925,
60058310,1.068,-1.174,-0.549,-98.507,107.117,-19.67,
60058320,1.354,-1.18,-0.495,-115.447,224.21,-75.932,
60058330,0.772,-0.812,-0.302,-100.817,217.647,-139.212,
60058340,0.031,0.053,-0.013,-57.785,156.642,-200.27,
60058350,-0.492,0.367,0.062,-48.177,117.635,-166.6,
60058360,-0.605,0.664,0.062,-19.582,55.125,-120.102,
60058370,-0.699,0.848,0.137,-2.275,9.152,-43.312,
60058380,-0.276,0.728,0.365,6.02,-21.91,32.532,
60058390,0.077,0.536,0.436,33.145,-42.612,77.612,
60058400,0,0.808,0.28,85.12,-61.512,93.065,
60058410,-0.058,0.754,-0.085,130.532,-98.315,71.995,
60058420,-0.458,0.599,-0.547,128.012,-131.932,81.182,
60058430,-0.568,0.314,-0.927,110.215,-163.415,98.91,
60058440,-0.786,-0.117,-1.219,59.64,-192.272,134.032,
60058450,1.168,-1.946,-1.494,33.04,-106.207,151.55,
60058460,-0.563,-1.998,1.777,128.8,123.97,134.522,
60058470,-1.283,-0.995,-1.251,382.2,-38.657,27.545,
60058480,-0.342,1.997,1.348,456.697,-88.34,-3.867,
60058490,1.662,0.588,0.751,343.787,-105.42,-50.137,
60058500,-0.089,-0.597,1.674,415.17,-66.885,-130.375,
60058510,0.466,-0.457,0.69,369.547,10.85,-134.977,
60058510,1.877,0.402,1.031,395.185,81.532,-93.152,
60058530,1.978,1.257,1.06,344.995,179.497,-83.947,
60058530,0.754,0.285,1.817,174.335,230.527,-1.697,
60058550,-1.373,1.238,1.842,63.857,154.857,41.335,
60058550,-0.616,-0.138,1.379,-14.227,41.317,53.235,
60058570,-0.205,-0.4,1.167,-40.32,-24.01,38.57,
60058570,0.203,-0.181,1.073,-57.242,-53.445,28.105,
60058580,0.22,-0.254,0.945,-67.795,-70.14,31.465,
60058590,0.386,-0.505,0.693,-57.627,-68.88,30.152,
60058600,0.469,-0.627,0.62,-27.79,-51.905,19.232,
60058610,0.494,-0.483,0.656,7.595,-27.317,6.212,
60058620,0.56,-0.492,0.613,34.93,-2.327,-3.71,
60058630,0.651,-0.579,0.67,65.38,30.222,-14.192,
60058640,0.659,-0.456,0.99,79.922,58.765,-24.202,
60058650,-0.07,0.357,1.308,58.73,57.767,-27.457,
60058660,-0.203,0.316,1.095,17.78,17.325,-11.06,
60058670,0.28,-0.199,0.966,-5.495,-7.735,0.7,
60058680,0.146,-0.072,0.941,-8.575,-17.675,-2.52,
60058690,0.277,-0.256,0.912,-14.472,-20.387,0.262,
60058700,0.454,-0.274,0.866,-10.377,-19.057,-1.68,
60058710,0.418,-0.229,0.878,-6.387,-11.445,-0.035,
60058720,0.317,-0.193,0.917,-3.622,-4.97,3.097,
60058730,0.214,-0.211,0.968,-3.867,-4.252,5.075,
60058740,0.162,-0.187,1,-5.46,-10.342,3.955,
60058750,0.194,-0.205,0.991,-10.01,-20.142,2.502,
60058760,0.247,-0.192,0.976,-15.33,-28.017,1.47,
60058770,0.309,-0.178,0.924,-19.53,-34.317,1.645,
60058780,0.373,-0.233,0.888,-20.615,-33.512,4.287,
60058790,0.394,-0.225,0.889,-18.392,-30.94,5.95,
60058800,0.366,-0.226,0.913,-18.742,-27.212,7.997,
60058810,0.328,-0.248,0.923,-20.02,-27.825,8.26,
60058820,0.337,-0.256,0.921,-22.225,-27.912,6.772,
60058830,0.373,-0.243,0.915,-24.937,-29.942,4.865,
60058830,0.366,-0.224,0.925,-29.487,-28.805,4.55,
60058850,0.293,-0.239,0.905,-33.53,-30.887,4.095,
60058850,0.309,-0.325,0.843,-32.69,-30.082,2.572,
60058870,0.355,-0.369,0.807,-24.78,-28.875,-1.662,
60058870,0.354,-0.38,0.777,-14.665,-23.135,-5.687,
60058890,0.398,-0.381,0.768,-1.155,-17.885,-8.242,
60058890,0.374,-0.31,0.833,11.375,-9.52,-9.415,
60058910,0.366,-0.213,0.917,17.185,-7.91,-9.362,
60058910,0.338,-0.154,0.981,12.477,-9.31,-6.807,
60058920,0.348,-0.158,0.987,3.342,-17.447,-3.01,
60058930,0.355,-0.168,0.979,-7.875,-23.66,0.822,
60058940,0.358,-0.16,0.935,-18.112,-30.975,3.727,
60058950,0.403,-0.223,0.863,-24.465,-31.482,7.14,
60058960,0.452,-0.278,0.807,-24.027,-28.682,9.012,
60058970,0.465,-0.288,0.793,-19.705,-18.952,10.447,
60058980,0.458,-0.299,0.79,-14.105,-10.412,11.462,
60058990,0.436,-0.292,0.772,-6.58,0.07,12.827,
60059000,0.467,-0.338,0.746,3.027,10.027,13.895,
60059010,0.445,-0.346,0.78,13.492,22.557,14.14,
60059020,0.409,-0.278,0.828,22.995,31.185,13.3,
60059030,0.382,-0.257,0.899,27.51,36.767,13.265,
60059040,0.344,-0.232,0.98,24.552,34.667,12.845,
60059050,0.241,-0.183,1.044,13.457,26.985,11.445,
60059060,0.207,-0.203,1.057,-0.945,13.65,8.575,
60059070,0.251,-0.158,1.093,-15.295,-0.945,5.127,
60059080,0.347,-0.086,1.114,-33.092,-15.4,5.162,
60059090,0.339,-0.021,1.178,-60.742,-26.407,8.05,
60059100,0.399,0.009,1.277,-99.557,-36.137,12.005,
60059110,0.472,0.105,1.33,-147.752,-47.215,15.277,
60059120,0.521,0.008,1.327,-203.157,-48.072,25.585,
60059130,0.572,-0.142,1.27,-262.902,-44.642,36.452,
60059140,0.644,-0.07,1.262,-305.585,-44.065,47.162,
60059150,0.685,0.011,1.245,-323.837,-42.07,67.742,
60059160,0.917,-0.284,1.279,-332.08,-29.995,92.995,
60059170,1.108,-1.117,1.536,-342.265,-5.022,104.982,
60059180,0.79,-1.847,1.542,-336.402,-6.632,79.467,
60059190,0.662,-1.914,0.636,-310.257,-50.382,24.885,
60059200,0.235,-1.487,0.848,-285.162,-20.755,6.807,
60059210,0.651,-1.998,0,-228.147,77.402,-4.917,
60059220,1.826,-1.749,-0.926,-111.842,202.02,-40.967,
60059230,0.92,-1.198,-0.552,-58.432,308.507,-93.065,
60059240,-0.414,-1.195,-0.242,-47.95,312.497,-156.502,
60059250,-0.574,-0.785,-0.315,-7.595,274.12,-138.775,
60059260,-0.556,-0.078,-0.343,21.542,215.39,-103.46,
60059260,-0.628,0.234,-0.271,7.98,131.057,-85.977,
60059280,-0.464,0.364,-0.193,-23.835,67.532,-52.972,
60059280,-0.253,0.407,-0.094,-47.495,30.695,-13.65,
60059300,-0.229,0.473,0.011,-71.505,3.08,19.53,
60059300,-0.221,0.359,0.175,-85.295,-26.495,44.905,
60059320,-0.064,0.394,0.236,-83.16,-53.987,58.24,
60059320,-0.042,0.299,0.296,-79.345,-82.197,64.417,
60059330,-0.097,0.145,0.304,-56.367,-108.64,65.187,
60059340,-0.08,0.016,0.187,-17.045,-135.082,62.072,
60059350,-0.024,-0.078,-0.045,18.2,-149.345,60.427,
60059360,-0.036,-0.166,-0.317,43.05,-154.455,53.707,
60059370,-0.903,-0.648,-0.36,65.747,-149.432,79.695,
60059380,0.209,0.019,-0.779,92.68,-152.565,55.335,
60059390,-0.375,-0.538,-1.094,8.522,-176.96,-31.395,
60059400,0.203,-1.986,-1.155,-27.79,-65.415,-61.897,
60059410,1.769,-1.998,1.926,-6.562,146.825,-76.02,
60059420,-0.99,-1.998,1.998,161.77,76.457,-119.787,
60059430,0.505,-1.522,-0.99,373.94,20.02,-282.677,
60059440,0.576,1.92,0.315,423.027,39.62,-307.457,
60059450,1.691,0.107,1.017,288.015,34.58,-177.45,
60059460,1.998,-0.364,0.928,375.795,68.11,-181.072,
60059470,1.599,0.12,0.875,301.017,109.497,-16.222,
60059480,1.119,0.469,1.254,281.75,103.285,93.817,
60059490,0.321,0.397,1.756,212.31,75.25,154.945,
60059500,-0.335,0.411,1.896,109.445,29.907,164.08,
60059510,-0.514,0.224,1.759,5.477,1.487,129.01,
60059520,-0.531,-0.162,1.535,-82.512,0.402,63.175,
60059530,0.021,-0.014,1.085,-131.302,3.027,-0.91,
60059540,0.311,-0.468,0.804,-164.342,15.47,-38.64,
60059550,0.602,-0.557,0.54,-146.562,27.475,-50.12,
60059560,0.586,-0.814,0.487,-121.8,38.465,-47.127,
60059570,0.602,-0.722,0.586,-90.072,39.97,-34.492,
60059580,0.607,-0.633,0.682,-68.985,40.407,-13.947,
60059580,0.575,-0.534,0.823,-58.292,37.17,6.755,
60059600,0.467,-0.473,0.949,-59.5,37.975,22.732,
60059600,0.378,-0.405,1.062,-69.667,35.28,33.827,
60059620,0.374,-0.352,1.178,-88.707,34.807,42.56,
60059620,0.43,-0.36,1.275,-114.45,32.83,50.592,
60059640,0.466,-0.438,1.316,-143.64,37.782,59.762,
60059640,0.377,-0.529,1.32,-167.965,40.512,64.522,
60059660,0.378,-0.7,1.285,-185.815,38.92,64.417,
60059660,0.534,-1.012,1.313,-194.897,34.177,61.915,
60059670,0.551,-1.204,1.244,-192.377,48.947,64.015,
60059680,0.758,-1.12,1.406,-174.912,57.312,47.25,
60059690,1.223,-0.791,1.115,-151.69,104.72,36.102,
60059700,1.141,-0.698,0.831,-136.29,197.487,25.235,
60059710,1.242,-0.772,0.272,-127.382,264.215,-27.492,
60059720,1.521,0.175,0.831,-128.432,274.295,-88.235,
60059730,-0.847,1.204,0.706,-81.252,120.47,-175.42,
60059740,-1.203,1.996,0.926,12.88,-36.277,-220.955,
60059750,-0.518,1.992,1.19,26.477,-133.157,-155.102,
60059760,-0.092,1.675,1.58,29.085,-161.35,-55.177,
60059770,0.129,0.981,1.842,84.157,-141.82,-12.635,
60059780,0.099,0.094,1.727,151.445,-127.207,-18.9,
60059790,-0.081,-0.753,1.14,205.485,-132.545,-55.002,
60059800,-0.282,-1.201,0.213,252.035,-152.005,-105.997,
60059810,-0.499,-1.244,-0.688,250.967,-168.84,-147.472,
60059820,-0.691,-1.342,-1.468,192.15,-175.822,-173.635,
60059830,-0.737,-1.613,-1.946,102.865,-140.35,-154.385,
60059840,-1.169,-1.959,-1.582,9.572,-68.915,-80.412,
60059850,-1.581,-1.998,-1.057,-62.3,-47.04,-11.48,
60059860,-1.572,-1.998,-1.619,-56.297,-71.522,27.965,
60059870,1.961,-1.998,1.429,-23.012,18.147,-67.76,
60059880,0.035,-1.512,-1.993,310.712,45.465,-299.862,
60059890,0.088,1.991,1.334,356.212,219.082,-296.38,
60059900,-0.715,1.422,1.515,227.762,107.415,-169.54,
60059910,1.887,-0.998,0.425,299.215,76.807,-62.965,
60059920,1.392,0.682,0.963,318.167,223.93,35,
60059930,0.642,1.027,1.539,209.142,250.95,89.04,
60059940,-1.155,-0.849,1.991,91.297,199.815,136.832,
60059950,-1.239,0.256,1.682,57.155,76.195,60.27,
60059960,-0.102,-0.274,1.281,-11.637,2.152,7.437,
60059970,0.825,-0.083,0.934,-45.937,-29.26,-14.63,
60059980,0.811,-0.293,0.814,-66.307,-22.54,10.587,
60059990,0.496,-0.501,0.729,-44.1,-14.98,34.842,
60060000,0.189,-0.538,0.915,-42.525,-4.567,37.24,
60060010,0.113,-0.244,1.11,-40.46,-10.36,30.03,
60060010,0.146,-0.131,1.236,-66.237,-17.167,19.792,
60060020,0.324,-0.044,1.263,-102.567,-28.437,14.297,
60060030,0.491,-0.103,1.209,-144.235,-33.285,20.125,
60060040,0.51,-0.317,1.149,-177.117,-39.305,36.102,
60060050,0.401,-0.399,1.101,-200.585,-58.905,60.427,
60060060,0.562,-0.204,1.167,-222.74,-85.75,84.052,
60060070,0.551,0.135,1.162,-241.517,-98.192,109.847,
60060080,0.541,-0.374,1.254,-268.677,-104.317,135.8,
60060090,0.668,-1.481,1.745,-282.642,-101.885,140.892,
60060100,0.914,-1.989,1.693,-251.335,-99.557,115.027,
60060110,0.508,-1.998,1.258,-201.39,-111.615,55.405,
60060120,-0.068,-1.998,0.907,-156.712,-72.957,16.082,
60060130,-0.483,-1.998,0.661,-29.557,-4.182,11.252,
60060140,-0.667,-1.632,-0.407,174.16,-22.907,3.85,
60060150,-0.613,-0.923,-1.251,280.752,-48.09,29.995,
60060160,-1.01,-0.358,-1.718,254.24,-91.98,42.332,
60060170,-0.958,0.085,-1.654,183.977,-137.112,66.342,
60060180,-0.367,-0.045,-1.234,82.092,-138.862,109.637,
60060190,0.103,-0.284,-0.62,-9.8,-105.367,145.512,
60060200,0.391,-0.387,-0.141,-61.74,-63.507,146.44,
60060210,0.421,-0.337,0.049,-94.132,-17.57,134.452,
60060220,0.492,-0.335,0.132,-111.177,23.345,102.865,
60060230,0.391,-0.356,0.146,-112.105,48.422,67.987,
60060240,0.197,-0.264,0.137,-104.58,62.23,41.842,
60060250,0.188,-0.121,0.064,-97.212,72.345,26.075,
60060260,0.202,0.044,0.001,-98.91,76.562,11.322,
60060270,0.09,-0.009,0.082,-109.462,77.717,3.92,
60060280,-0.047,0.086,-0.091,-98.875,78.155,6.44,
60060290,0.294,0.445,-0.383,-32.935,31.78,-84.175,
60060300,-0.509,-0.221,1.97,-95.06,15.837,-28.157,
60060310,1.365,-1.428,1.998,28.385,-86.38,-40.407,
60060320,1.995,-1.996,1.974,217.98,-35.122,-73.36,
60060330,0.878,-1.998,-1.477,396.725,95.672,-221.935,
60060330,-1.844,0.524,0.968,452.55,68.897,-209.877,
60060350,1.058,0.8,0.421,368.987,-40.04,-89.6,
60060350,1.602,0.736,1.076,429.135,50.715,-38.692,
60060370,0.408,-0.257,1.465,391.125,48.055,4.462,
60060370,1.031,0.924,1.748,345.135,57.995,98.647,
60060390,-0.114,0.368,1.977,234.657,30.275,138.985,
60060390,-0.289,0.719,1.871,112.122,-7.63,128.782,
60060410,-0.319,0.173,1.64,-4.83,-29.575,82.582,
60060410,-0.103,-0.039,1.36,-93.31,-39.287,30.38,
60060420,0.281,-0.194,1.091,-145.652,-45.202,4.112,
60060430,0.67,-0.128,0.953,-158.637,-41.65,-13.265,
60060440,0.622,-0.386,0.954,-197.802,-34.125,8.995,
60060450,0.604,-0.285,0.892,-206.027,-33.81,26.775,
60060460,0.447,-0.456,0.929,-213.15,-39.077,52.307,
60060470,0.365,-0.414,0.878,-213.517,-50.82,69.86,
60060480,0.242,-0.464,0.89,-225.207,-74.13,87.237,
60060490,0.371,-0.366,1.153,-248.482,-100.52,105.245,
60060500,0.423,-0.481,1.215,-278.53,-125.667,128.117,
60060510,0.352,-1.243,1.431,-310.817,-152.057,146.002,
60060520,0.792,-1.994,1.898,-323.365,-198.117,119.42,
60060530,1.545,-1.998,1.295,-280.805,-240.94,54.705,
60060540,1.268,-1.998,-0.462,-208.687,-157.64,13.912,
60060550,0.767,-1.998,-1.884,-79.38,89.075,15.487,
60060560,0.548,-1.967,-1.75,-44.415,253.767,24.99,
60060570,0.872,-1.497,-1.405,-98.787,312.34,6.545,
60060580,0.767,-1.056,-1.02,-144.287,261.712,-80.587,
60060590,0.535,-0.499,-0.801,-180.442,178.762,-178.727,
60060600,0.437,0.037,-0.355,-226.572,124.932,-238.805,
60060610,-0.232,0.494,0.137,-269.71,81.34,-271.74,
60060620,-0.844,0.92,0.631,-294.122,34.23,-272.72,
60060630,-0.797,0.848,1.079,-298.462,8.032,-234.097,
60060640,-0.767,0.626,1.403,-289.415,18.322,-173.442,
60060650,-0.811,0.604,1.71,-244.265,37.52,-122.01,
60060660,-1.056,0.448,1.829,-167.212,47.74,-82.057,
60060670,-0.934,0.163,1.729,-74.462,39.585,-42.49,
60060680,-0.712,-0.053,1.435,29.4,30.817,4.375,
60060690,-0.657,-0.42,0.968,134.05,17.727,52.027,
60060700,-0.436,-0.162,0.602,214.847,5.18,106.715,
60060710,-0.142,-0.369,0.082,302.242,-38.535,74.742,
60060710,-0.169,-0.325,-0.294,321.475,-69.44,57.382,
60060730,-0.006,-0.261,-0.749,319.235,-72.887,76.055,
60060730,0.003,-0.14,-1.029,291.602,-72.327,59.815,
60060750,-0.207,-0.031,-1.186,200.392,-61.197,85.05,
60060750,-0.168,-0.789,-1.791,98.21,-51.782,67.165,
60060760,1.998,-1.956,-0.026,-16.572,279.23,53.2,
60060770,-0.981,-1.998,0.576,169.155,88.62,-217.385,
60060780,-1.239,0.827,-0.877,549.325,27.16,-455.735,
60060790,1.894,1.996,1.338,427.21,170.45,-38.097,
60060800,1.796,-0.543,0.587,357.21,35.98,-39.48,
60060810,0.783,-0.948,1.081,406.105,111.142,-68.687,
60060820,1.392,0.471,1.207,376.722,141.575,110.232,
60060830,-0.608,0.818,1.754,288.452,128.625,136.36,
60060840,-0.799,-0.026,1.966,169.592,75.215,123.795,
60060850,-0.625,0.279,1.656,95.742,20.195,36.487,
60060860,0.246,-0.051,1.394,-2.537,-29.435,-14.752,
60060870,0.845,0.086,1.076,-60.182,-50.417,-15.382,
60060880,0.528,-0.374,1.041,-109.847,-45.045,10.815,
60060890,0.465,-0.126,0.788,-111.755,-40.022,18.27,
60060900,0.409,-0.458,0.926,-135.835,-38.377,14.472,
60060910,0.467,-0.276,0.972,-140.385,-36.82,17.675,
60060920,0.479,-0.233,0.988,-160.947,-41.597,27.965,
60060930,0.518,-0.296,1.015,-182.595,-48.212,39.48,
60060940,0.474,-0.256,1.052,-203.315,-52.237,56.77,
60060950,0.506,-0.248,1.033,-224.647,-61.827,74.322,
60060960,0.602,-0.163,1.171,-259.122,-69.562,103.845,
60060970,0.461,-0.272,1.302,-298.917,-82.407,134.05,
60060980,0.449,-0.803,1.472,-339.395,-110.18,161.105,
60060990,0.677,-1.803,1.941,-365.26,-168.595,147.49,
60061000,1.452,-1.998,1.918,-314.387,-269.92,94.377,
60061010,1.073,-1.982,0.491,-198.135,-311.307,55.58,
60061020,-0.482,-1.921,0.503,-98.77,-198.642,93.117,
60061030,-1.099,-1.993,1.313,-11.235,-109.462,115.902,
60061040,-0.668,-1.847,0.228,188.755,-132.562,163.642,
60061050,0.08,-1.006,-0.444,369.512,-90.79,236.057,
60061060,-0.229,-0.29,-0.678,359.45,-41.107,284.707,
60061070,-0.17,-0.141,-0.732,311.097,-38.972,278.845,
60061080,-0.054,0.008,-0.778,296.66,-58.502,254.765,
60061080,-0.11,0.528,-0.927,277.532,-71.102,236.495,
60061100,-0.007,0.836,-0.921,191.607,-86.905,186.287,
60061100,0.349,0.643,-0.674,52.972,-87.937,109.497,
60061120,0.376,0.35,-0.379,-56.315,-53.987,36.54,
60061120,0.078,0.22,-0.11,-108.08,-2.38,-24.08,
60061140,-0.394,0.129,0.08,-146.107,47.617,-61.67,
60061140,-0.735,-0.044,0.243,-166.215,68.67,-88.305,
60061160,-0.867,-0.204,0.349,-159.495,73.325,-94.36,
60061160,-0.857,-0.288,0.347,-135.712,74.392,-80.517,
60061170,-0.78,-0.325,0.301,-109.305,80.64,-57.592,
60061180,-0.695,-0.388,0.216,-89.267,89.652,-35.227,
60061190,-0.555,-0.441,0.114,-74.585,105.402,-14.962,
60061200,-0.315,-0.596,-0.016,-61.477,123.602,-6.422,
60061210,-0.14,-0.772,0.088,-52.71,139.457,-11.935,
60061220,-0.446,-0.772,-0.409,-50.19,162.277,14.927,
60061230,0.421,-0.298,-0.642,6.632,125.02,-105.875,
60061240,1.046,-0.345,-1.132,-60.62,190.487,-118.195,
60061250,1.998,-1.285,1.521,-145.162,343.997,-105.665,
60061260,0.66,-1.998,1.998,10.255,302.505,-214.515,
60061270,-1.826,-1.931,-0.876,356.44,65.747,-475.545,
60061280,-1.342,1.815,-0.757,518.612,19.897,-471.45,
60061290,1.995,-0.198,0.381,345.852,-43.942,-151.637,
60061300,1.991,0.965,-0.698,534.485,113.382,-148.592,
60061310,1.17,-0.609,1.111,573.282,101.815,-31.622,
60061320,1.774,1.498,1.79,568.557,71.102,130.742,
60061330,-0.627,0.817,1.998,461.142,138.722,184.485,
60061340,-1.766,1.752,1.998,251.09,118.807,153.37,
60061350,-1.214,0.941,1.983,45.517,23.66,63.7,
60061360,0.055,0.267,1.58,-100.87,-46.812,-4.585,
60061370,0.636,-0.158,1.048,-180.075,-56.105,-24.587,
60061380,0.637,-0.324,0.869,-198.835,-39.97,-5.845,
60061390,0.614,-0.25,0.883,-197.907,-32.095,24.885,
60061400,0.324,-0.474,0.916,-208.88,-23.222,46.952,
60061410,0.348,-0.19,0.685,-183.347,-22.242,58.24,
60061420,0.193,-0.508,0.865,-192.605,-21.332,37.117,
60061420,0.262,-0.37,1.036,-197.417,-23.485,52.465,
60061440,0.425,-0.179,1.076,-212.187,-26.022,63.402,
60061440,0.501,-0.349,1.117,-236.775,-35.787,79.117,
60061460,0.666,-0.4,1.007,-261.66,-42.35,107.257,
60061460,0.861,-0.472,1.071,-291.742,-43.732,146.125,
60061480,0.773,-0.965,1.165,-311.377,-41.755,181.65,
60061480,0.655,-1.816,1.432,-301.63,-70.682,190.907,
60061500,0.612,-1.998,1.854,-259,-117.687,172.655,
60061500,1.205,-1.987,1.071,-216.055,-189.63,129.57,
60061510,1.185,-1.749,0.583,-152.32,-171.885,119.77,
60061520,1.052,-1.632,0.003,-116.742,-34.492,128.747,
60061530,1.307,-0.541,0.068,-73.185,101.727,132.282,
60061540,0.85,0.724,0.277,-54.005,150.167,80.92,
60061550,0.299,1.516,0.472,-44.975,105.56,-27.667,
60061560,-0.151,1.385,0.706,-67.077,54.565,-75.197,
60061570,0.277,1.107,0.776,-71.54,21.63,-93.397,
60061580,0.544,0.699,0.829,-56.42,22.4,-118.965,
60061590,0.449,0.24,0.816,-32.952,63.437,-136.71,
60061600,0.335,-0.178,0.645,5.267,116.305,-156.747,
60061610,0.035,-0.427,0.351,54.25,157.22,-176.96,
60061620,-0.328,-0.548,0.006,100.817,170.695,-186.672,
60061630,-0.564,-0.496,-0.374,126.052,159.18,-178.447,
60061640,-0.738,-0.401,-0.69,124.057,115.325,-163.782,
60061650,-0.678,-0.292,-0.944,99.925,49.245,-148.645,
60061660,-0.537,-0.332,-1.073,52.29,-3.797,-119.577,
60061670,-0.58,-0.56,-1.009,-13.282,-40.652,-78.837,
60061680,-0.713,-0.898,-0.823,-55.195,-81.742,-42.402,
60061690,-0.809,-1.156,-0.635,-58.362,-139.702,-21.297,
60061700,-0.626,-1.63,-1.319,-43.33,-170.782,8.89,
60061710,1.463,-1.974,-0.746,-22.855,63.192,66.762,
60061720,-1.135,-1.998,1.35,7.157,124.827,54.81,
60061730,-0.487,-1.998,0.271,333.077,-101.272,-113.452,
60061740,-0.833,0.911,-1.8,558.932,-74.27,-153.895,
60061750,0.428,1.985,1.916,417.147,-254.765,-146.335,
60061760,1.93,-0.574,-0.033,346.36,-63.542,-78.505,
60061770,1.668,-0.44,1.488,423.762,61.39,-141.61,
60061780,0.467,0.439,1.203,322.402,128.975,-79.835,
60061790,1.707,-0.002,1.011,321.842,131.215,6.3,
60061800,1.156,0.312,1.103,283.85,131.915,80.027,
60061810,-0.115,0.396,1.744,215.32,125.912,137.357,
60061820,-0.681,0.538,1.907,104.877,66.272,133.647,
60061830,-0.347,0.528,1.689,-4.567,7.612,90.615,
60061830,-0.264,0.085,1.433,-112.122,-6.702,42.945,
60061850,0.066,-0.218,0.998,-165.55,-8.732,0.525,
60061850,0.312,-0.63,0.617,-170.485,4.007,-19.302,
60061870,0.56,-0.427,0.415,-114.135,14.665,-26.25,
60061870,0.41,-0.884,0.615,-87.605,21.84,-34.09,
60061890,0.534,-0.579,0.699,-52.5,20.527,-8.155,
60061890,0.416,-0.447,0.818,-36.662,18.882,11.55,
60061910,0.268,-0.386,0.967,-31.115,13.107,19.775,
60061910,0.175,-0.228,1.069,-39.445,12.372,23.467,
60061920,0.095,-0.185,1.125,-57.242,7.717,19.565,
60061930,0.132,-0.167,1.186,-84.805,3.727,13.107,
60061940,0.208,-0.125,1.18,-115.745,-1.085,7.962,
60061950,0.243,-0.187,1.178,-147.385,-5.442,5.932,
60061960,0.285,-0.208,1.159,-177.415,-13.737,9.905,
60061970,0.378,-0.256,1.092,-207.865,-21.402,19.46,
60061980,0.329,-0.307,1.034,-236.145,-31.552,36.435,
60061990,0.541,-0.361,1.122,-270.322,-41.895,61.67,
60062000,0.511,-0.394,1.238,-299.075,-48.737,94.605,
60062010,0.438,-0.801,1.254,-309.26,-49.472,110.845,
60062020,0.34,-1.411,1.483,-315.822,-65.45,101.027,
60062030,0.443,-1.977,1.945,-307.107,-110.967,75.757,
60062040,0.815,-1.998,1.799,-287.14,-203.052,33.495,
60062050,1.129,-1.998,1.651,-229.862,-208.022,-7.822,
60062060,0.977,-1.998,1.207,-88.322,-56.035,4.462,
60062070,0.589,-1.998,1.25,160.93,81.13,24.745,
60062080,-0.058,-1.795,0.04,421.522,67.987,26.74,
60062090,-0.092,-0.904,-0.813,520.905,47.565,62.3,
60062100,0.002,-0.249,-1.313,478.117,38.465,108.902,
60062110,-0.011,0.061,-1.272,406.157,5.267,123.917,
60062120,-0.038,0.16,-1.096,329.91,-36.4,113.995,
60062130,-0.023,0.222,-1.048,256.252,-59.045,115.325,
60062140,-0.035,0.405,-0.871,163.467,-75.635,98.665,
60062150,-0.35,0.589,-0.646,50.96,-95.06,86.24,
60062160,-0.195,0.305,-0.366,-38.832,-98.7,59.08,
60062170,-0.162,0.118,-0.096,-86.8,-91.35,30.975,
60062170,-0.341,0.116,0.092,-106.697,-71.242,15.575,
60062190,-0.587,0.13,0.208,-109.235,-47.075,11.865,
60062190,-0.819,0.155,0.279,-105.42,-26.547,18.847,
60062210,-0.915,0.137,0.284,-94.902,-15.837,31.64,
60062210,-0.881,0.175,0.232,-82.477,-3.097,48.527,
60062230,-0.801,0.254,0.127,-74.235,12.057,63.525,
60062230,-0.724,0.231,0.03,-71.89,28.857,66.01,
60062250,-0.538,0.418,-0.2,-86.555,42.332,49.297,
60062250,-0.673,0.41,-0.27,-98.402,47.967,28.962,
60062260,-0.519,0.572,-0.382,-111.037,48.737,10.395,
60062270,-0.333,0.747,-0.43,-152.74,49.385,-9.817,
60062280,-0.073,0.234,-1.029,-205.537,55.65,-37.397,
60062290,1.412,-1.523,0.405,-232.225,361.795,72.992,
60062300,-0.267,-1.998,0.973,-121.695,-24.167,-330.47,
60062310,0.878,0.045,-1.997,523.372,134.417,-572.757,
60062320,-1.998,1.997,0.319,458.727,-93.31,-517.877,
60062330,1.732,-0.931,0.416,295.172,-227.71,-371.14,
60062340,1.998,0.035,0.6,524.65,184.66,-392.49,
60062350,1.928,1.261,1.709,407.872,378.77,-315.962,
60062360,-1.526,1.506,1.827,82.81,357.49,-18.06,
60062370,-0.707,0.786,1.766,-0.647,64.172,121.572,
60062380,1.225,-0.355,0.86,-116.34,-61.53,204.68,
60062390,0.985,-1.869,0.743,-131.845,-35.612,195.755,
60062400,-0.814,-1.043,0.728,-144.83,-0.91,109.567,
60062410,0.124,-0.612,0.439,-74.217,-10.115,67.48,
60062420,-0.177,-0.9,0.638,-13.947,16.835,29.19,
60062430,-0.433,-0.399,0.868,31.745,16.607,-9.17,
60062440,0.1,-0.324,0.947,55.72,-0.822,-30.782,
60062450,0.557,-0.215,0.917,61.915,-10.465,-34.23,
60062460,0.683,-0.115,0.903,55.387,-0.525,-27.37,
60062470,0.481,-0.006,0.998,47.687,11.515,-11.042,
60062480,0.198,-0.022,1.126,33.267,14.717,2.66,
60062490,0.077,0.033,1.133,9.135,1.26,7.35,
60062500,0.058,-0.136,1.102,-20.387,-15.715,8.592,
60062510,0.165,-0.193,1.033,-40.512,-33.145,3.132,
60062520,0.312,-0.216,0.963,-54.355,-40.075,-1.592,
60062530,0.341,-0.254,0.898,-61.985,-41.895,-3.797,
60062540,0.348,-0.325,0.836,-61.285,-35.857,-3.867,
60062550,0.302,-0.395,0.789,-52.027,-30.957,-5.74,
60062560,0.331,-0.439,0.749,-36.452,-24.902,-7.21,
60062570,0.37,-0.411,0.727,-16.66,-17.272,-9.397,
60062580,0.444,-0.375,0.778,2.835,-9.275,-7.665,
60062580,0.47,-0.28,0.838,20.177,-3.815,-2.695,
60062600,0.395,-0.219,0.918,23.24,3.92,2.922,
60062600,0.298,-0.178,0.943,20.422,4.147,7.77,
60062620,0.284,-0.24,0.907,16.1,4.76,11.165,
60062620,0.311,-0.286,0.848,18.392,3.605,12.302,
60062640,0.329,-0.382,0.801,27.02,8.032,13.037,
60062640,0.328,-0.376,0.837,39.602,11.515,11.742,
60062660,0.325,-0.269,0.949,47.215,16.17,10.465,
60062660,0.299,-0.081,1.066,40.075,13.51,9.485,
60062670,0.164,-0.004,1.121,18.147,5.39,11.655,
60062680,0.162,-0.059,1.1,-6.422,-10.955,13.037,
60062690,0.231,-0.092,1.073,-27.405,-24.43,14.402,
60062700,0.295,-0.086,1.069,-44.012,-36.382,15.61,
60062710,0.312,-0.091,1.088,-65.187,-43.592,20.947,
60062720,0.327,-0.118,1.126,-94.92,-50.855,22.102,
60062730,0.314,-0.124,1.236,-120.295,-63.63,30.625,
60062740,0.322,0.086,1.279,-153.842,-76.65,35.927,
60062750,0.227,-0.013,1.334,-209.23,-87.535,41.055,
60062760,0.194,-0.044,1.249,-254.52,-101.937,47.477,
60062770,0.305,-0.11,1.289,-304.92,-113.557,55.632,
60062780,0.301,-0.016,1.412,-351.347,-137.007,69.912,
60062790,0.537,-0.102,1.532,-383.46,-166.687,97.527,
60062800,0.78,-1.079,1.714,-427.402,-183.645,141.855,
60062810,1.638,-1.989,1.998,-454.545,-165.007,154.682,
60062820,1.007,-1.998,1.998,-459.882,-180.092,120.96,
60062830,0.564,-1.998,1.795,-436.59,-146.51,61.425,
60062840,-0.247,-1.998,1.787,-265.177,-161.455,40.67,
60062850,1.445,-1.998,0.196,38.972,-84.752,73.22,
60062860,1.456,-1.998,-0.971,468.772,67.917,87.762,
60062870,0.253,-1.797,-1.928,573.317,201.582,73.01,
60062880,0.329,-0.924,-1.997,570.64,278.232,111.282,
60062890,-0.507,0.16,-1.997,541.555,262.167,158.83,
60062900,-0.745,0.98,-1.997,434.7,133.63,173.162,
60062910,0.298,1.316,-1.997,188.265,3.552,149.467,
60062920,1.343,0.566,-1.607,-92.592,-71.522,109.987,
60062920,1.699,-0.146,-0.646,-247.012,-76.16,52.57,
60062940,1.773,-0.237,-0.088,-282.94,-13.002,-16.537,
60062940,1.478,-0.347,0.142,-303.66,72.257,-73.71,
60062960,0.848,-0.377,0.43,-283.57,122.482,-144.27,
60062960,-0.073,-0.156,0.484,-273.35,132.387,-157.85,
60062980,-0.41,0.058,0.541,-260.452,92.61,-171.29,
60062980,-0.525,0.177,0.598,-235.217,27.125,-173.775,
60063000,-0.423,0.186,0.595,-208.39,-28.035,-158.812,
60063000,-0.346,0.135,0.544,-177.187,-65.555,-132.632,
60063010,-0.386,0.046,0.514,-143.955,-84.91,-99.522,
60063020,-0.485,-0.078,0.431,-105.577,-89.232,-56.63,
60063030,-0.621,-0.299,0.396,-60.077,-75.967,-0.77,
60063040,-0.872,-0.435,0.371,-2.205,-72.992,62.072,
60063050,-1.083,-0.459,0.268,60.585,-96.897,125.002,
60063060,-1.394,-0.549,0.168,110.862,-148.435,183.82,
60063070,-1.424,-0.764,-0.175,147.14,-222.897,228.725,
60063080,-1.017,-0.518,-0.648,177.432,-273.822,257.565,
60063090,-0.169,0.129,-1.122,155.312,-263.27,258.335,
60063100,0.412,0.673,-1.237,62.16,-188.877,229.302,
60063110,0.281,0.646,-1.064,-86.45,-114.87,144.567,
60063120,-0.021,0.085,-0.5,-233.625,-67.2,55.982,
60063130,-0.939,-0.568,-0.565,-351.837,4.672,47.407,
60063140,1.801,-1.998,0.245,-166.792,154.822,-60.812,
60063150,-1.276,-1.998,1.846,67.025,258.247,-191.345,
60063160,1.707,-1.998,-0.143,435.82,135.397,-428.452,
60063170,-1.261,1.192,-1.74,561.155,287.385,-486.937,
60063180,-0.49,1.848,1.946,493.937,-111.632,-435.697,
60063190,1.998,-1.199,-0.844,496.632,68.442,-288.977,
60063200,1.596,0.644,0.671,572.267,295.05,-243.232,
60063210,1.578,1.182,1.445,563.535,261.03,47.6,
60063220,0.656,1.898,1.998,448.087,306.495,202.247,
60063230,-1.998,1.473,1.998,226.187,205.642,177.712,
60063240,-1.013,1.163,1.998,26.302,31.955,137.287,
60063250,0.173,0.56,1.784,-155.452,-43.4,73.692,
60063260,0.24,-0.137,0.889,-266.647,-15.557,33.022,
60063270,0.002,-0.592,0.374,-241.955,9.012,29.505,
60063280,-0.108,-1.113,0.293,-173.81,9.537,26.775,
60063290,-0.11,-0.693,0.48,-98.245,-2.1,20.492,
60063300,-0.265,-0.674,0.362,-42.14,-15.907,-18.322,
60063310,-0.205,-1.024,0.521,-0.227,-29.347,-30.467,
60063320,0.202,-0.631,0.722,41.597,-42.595,-41.772,
60063330,0.6,-0.369,0.869,58.275,-49.245,-40.46,
60063330,0.777,-0.174,0.945,56.42,-48.125,-19.775,
60063350,0.695,-0.121,1.09,46.182,-45.937,12.617,
60063350,0.474,0.05,1.244,20.16,-42.84,43.155,
60063370,0.24,-0.008,1.252,-16.327,-47.162,56.42,
60063370,0.076,-0.11,1.227,-56.84,-49.507,53.27,
60063390,0.148,-0.149,1.12,-93.432,-51.695,38.22,
60063390,0.221,-0.236,1.042,-123.34,-47.897,23.537,
60063410,0.281,-0.309,1.023,-147.297,-45.92,11.532,
60063410,0.415,-0.307,0.993,-168.822,-45.412,9.117,
60063420,0.644,-0.41,0.997,-194.11,-50.802,21.455,
60063430,0.724,-0.246,1.002,-219.502,-56.14,48.142,
60063440,0.826,-0.204,1.083,-255.465,-61.495,82.285,
60063450,0.881,-0.205,1.164,-300.177,-74.322,120.172,
60063460,0.982,-0.894,1.696,-342.562,-94.272,163.1,
60063470,0.732,-1.91,1.429,-361.445,-114.765,176.452,
60063480,1.665,-1.998,1.632,-333.532,-229.25,112.14,
60063490,1.269,-1.998,0.846,-289.292,-243.687,87.5,
60063500,1.975,-1.998,-1.995,-165.182,-87.36,65.152,
60063510,1.495,-1.704,-1.831,-122.605,121.467,10.185,
60063520,0.163,-1.646,-0.832,-249.305,154.385,-120.102,
60063530,-0.812,-1.388,-0.119,-212.45,75.46,-169.592,
60063540,-0.609,-0.438,0,-191.327,1.68,-135.94,
60063550,-0.438,0.115,0.342,-224.997,-24.36,-77.052,
60063560,-0.338,0.52,0.834,-261.432,-28.56,-27.247,
60063570,-0.362,1.281,1.254,-272.65,-24.815,16.345,
60063580,-0.356,1.968,1.858,-302.907,-29.907,42.367,
60063590,0.142,1.953,1.998,-355.075,-43.61,51.187,
60063600,0.978,1.332,1.998,-375.917,-34.597,29.137,
60063610,1.165,0.427,1.998,-308.56,22.242,-17.605,
60063620,0.791,-0.622,1.936,-138.6,88.865,-91.245,
60063630,-0.1,-0.502,1.932,105.437,116.567,-148.347,
60063640,-0.547,-1.037,1.538,271.495,116.235,-125.545,
60063650,-0.765,-1.14,0.649,444.045,86.922,-110.862,
60063660,-1.257,-1.27,0.081,520.817,51.73,-38.377,
60063670,-1.645,-1.74,-0.418,547.837,-10.097,63.262,
60063670,-1.688,-1.618,-1.081,571.497,-102.567,131.11,
60063690,-1.361,-0.878,-1.771,567.857,-182.14,150.22,
60063690,-0.684,-0.176,-1.997,474.267,-197.207,127.435,
60063710,-0.379,0.008,-1.997,241.29,-137.06,79.94,
60063710,-0.638,-1.036,-1.811,-14.332,-48.055,15.417,
60063730,-0.953,-1.766,-1.292,-113.68,-2.572,-45.325,
60063730,-1.425,-1.805,-1.046,-130.742,35.297,-45.307,
60063750,-1.731,-1.495,-1.007,-137.97,44.485,-19.53,
60063750,0.202,-1.846,-0.992,-192.097,146.527,67.375,
60063760,1.998,-1.998,1.998,-84.42,423.185,-5.057,
60063770,-0.639,-1.998,-0.777,325.167,10.377,-467.757,
60063780,1.153,1.373,0.686,521.902,117.355,-453.827,
60063790,0.756,1.948,0.984,396.55,112.35,-87.902,
60063800,1.956,-1.306,0.759,409.185,55.772,-63.14,
60063810,1.772,-0.326,0.651,425.372,216.492,122.517,
60063820,0.23,0.648,1.846,424.392,218.89,190.557,
60063830,-1.044,-0.035,1.989,253.417,158.882,152.477,
60063840,-1.314,1.2,1.987,124.215,76.475,77.805,
60063850,-0.554,0.252,1.74,-10.71,9.73,16.835,
60063860,0.307,0,1.253,-102.235,-38.43,-19.442,
60063870,0.701,-0.05,0.911,-153.545,-49.122,-16.782,
60063880,0.572,-0.669,0.689,-161.315,-34.72,0.997,
60063890,0.622,-0.387,0.525,-123.865,-16.187,2.712,
60063900,0.429,-0.776,0.644,-123.077,-1.575,3.045,
60063910,0.395,-0.445,0.752,-88.182,9.537,0.297,
60063920,0.394,-0.384,0.903,-85.82,16.31,-2.012,
60063930,0.475,-0.25,1.018,-96.46,18.392,-2.537,
60063940,0.483,-0.244,1.045,-119.63,25.13,0.84,
60063950,0.524,-0.266,1.097,-143.132,27.475,7.245,
60063960,0.521,-0.253,1.12,-169.207,27.475,20.667,
60063970,0.523,-0.368,1.18,-199.64,17.535,35.84,
60063980,0.49,-0.236,1.232,-230.527,6.965,53.042,
60063990,0.627,-0.287,1.326,-260.715,-5.81,67.847,
60064000,0.77,-0.625,1.364,-283.902,-1.715,85.347,
60064010,0.832,-1.037,1.39,-282.257,5.932,86.485,
60064020,0.812,-1.311,1.325,-262.815,8.75,63.315,
60064030,0.741,-1.745,1.131,-252.682,0.822,35.14,
60064040,0.735,-1.506,0.777,-213.272,-21.647,-4.795,
60064050,0.005,-1.911,0.358,-166.11,-27.177,-28.385,
60064060,0.843,-1.998,-0.85,-158.042,53.375,-48.965,
60064070,0.391,-1.548,0.033,-179.147,152.932,-33.932,
60064080,-0.974,-1.314,0.516,-176.802,75.915,-99.242,
60064080,-0.869,-0.938,0.553,-123.55,-2.135,-141.925,
60064100,-0.658,0.131,0.563,-100.362,-11.165,-91.56,
60064100,-0.866,1.017,0.778,-96.267,-37.467,-47.302,
60064120,-0.756,1.785,0.931,-103.81,-53.585,-20.895,
60064120,-0.856,1.997,1.232,-101.185,-49.297,22.155,
60064130,-0.726,1.997,1.751,-109.095,-37.45,66.745,
60064140,-0.356,1.599,1.998,-101.885,-35.875,91.682,
60064150,0.129,0.502,1.942,-28.332,-29.697,82.617,
60064160,-0.091,0.369,1.974,132.475,-5.075,102.06,
60064170,0.733,0.304,1.283,271.11,16.467,11.9,
60064180,0.402,-0.017,0.533,315.367,34.02,-103.057,
60064190,-0.022,-0.265,-0.162,321.422,74.357,-144.007,
60064200,-0.098,-0.881,-0.803,338.187,110.74,-164.045,
60064210,-0.707,-0.87,-1.343,339.762,136.15,-85.435,
60064220,-1.147,-0.323,-1.566,235.427,107.432,-40.18,
60064230,1.068,-1.917,-1.879,74.252,244.002,-32.2,
60064240,0.782,-1.998,0.925,-247.45,428.05,16.117,
60064250,-1.707,-1.43,-1.176,197.557,-124.53,-502.967,
60064260,-1.341,1.997,1.011,302.05,-99.942,-488.792,
60064270,1.998,1.292,-0.358,219.555,-102.147,-111.685,
60064280,1.8,-1.911,0.591,325.867,55.335,-118.86,
60064290,1.057,-0.589,0.599,448.192,65.677,-48.755,
60064300,1.718,1.701,0.677,455.98,124.512,146.475,
60064310,-0.654,0.337,1.983,360.465,157.325,170.887,
60064320,-1.592,0.595,1.998,240.502,124.407,68.687,
60064330,-0.438,0.537,1.871,97.037,36.452,-13.422,
60064340,0.652,0.567,1.544,-25.427,-35.28,-17.675,
60064350,0.516,0.412,1.494,-134.715,-62.107,16.537,
60064360,0.289,0.038,1.425,-237.037,-67.777,31.132,
60064370,0.716,-0.067,1.264,-290.64,-92.015,41.912,
60064380,0.532,0.057,1.136,-335.44,-79.94,70.84,
60064390,0.633,0.273,1.093,-331.66,-65.782,78.61,
60064400,0.052,-0.157,1.05,-398.807,-63.122,95.795,
60064410,0.406,0.007,1.006,-398.002,-82.985,108.027,
60064420,0.97,-0.547,1.428,-421.767,-77.91,143.92,
60064420,0.953,-1.405,1.855,-416.832,-24.657,179.637,
60064440,0.984,-1.998,1.998,-393.365,30.712,155.295,
60064440,0.648,-1.998,1.78,-324.345,-14.227,56.945,
60064460,-0.459,-1.739,1.551,-182.63,-10.57,-2.03,
60064460,-0.49,-1.677,1.178,-65.73,50.487,26.88,
60064480,-0.125,-0.992,0.512,122.255,65.922,67.165,
60064480,0.217,-0.03,-0.272,245.192,13.562,66.937,
60064500,0.89,0.366,-0.476,213.43,47.11,82.232,
60064500,0.32,0.598,-0.688,156.31,63.262,82.722,
60064510,-0.123,0.943,-0.613,131.565,41.282,38.867,
60064520,0.009,0.928,-0.469,103.302,6.667,14.577,
60064530,0.333,0.835,-0.266,38.99,-13.037,-10.675,
60064540,0.493,0.638,-0.016,-31.78,-13.37,-36.995,
60064550,0.452,0.376,0.205,-60.812,-2.24,-80.99,
60064560,0.263,0.333,0.307,-70.752,16.835,-115.605,
60064570,0.126,0.267,0.359,-86.45,41.195,-137.025,
60064580,-0.026,0.091,0.389,-90.422,58.135,-153.44,
60064590,-0.157,-0.037,0.408,-74.55,68.372,-162.837,
60064600,-0.184,-0.154,0.392,-51.905,79.852,-160.037,
60064610,-0.208,-0.272,0.348,-28.927,92.12,-149.555,
60064620,-0.256,-0.329,0.308,-6.212,103.635,-139.685,
60064630,-0.242,-0.459,0.247,7.262,113.942,-123.007,
60064640,-0.19,-0.614,0.115,43.4,115.517,-124.092,
60064650,-0.543,-0.692,-0.043,77.367,118.107,-90.79,
60064660,0.023,-0.089,-0.593,98.507,116.952,-87.255,
60064670,-0.004,-0.115,-0.871,60.06,102.27,-109.41,
60064680,-0.382,-0.796,-1.355,-7.315,116.9,-93.537,
60064690,1.824,-1.472,-0.129,-71.102,364.7,-88.83,
60064700,-0.852,-1.998,-0.169,-178.92,-60.007,-274.365,
60064710,-0.795,0.699,-0.393,437.115,33.652,-534.782,
60064720,0.829,1.997,-0.047,263.48,-113.137,-306.022,
60064730,1.998,-0.778,0.036,305.567,44.257,-119.77,
60064740,0.783,-1.506,1.117,396.48,94.815,-53.182,
60064750,1.87,1.899,1.101,479.99,112.542,89.162,
60064760,-0.234,0.469,1.977,385.665,151.235,172.375,
60064770,-1.875,1.294,1.998,199.937,110.092,109.672,
60064780,-0.849,0.459,1.883,30.082,5.302,13.002,
60064790,0.735,0.321,1.331,-99.085,-68.547,-31.43,
60064800,0.953,-0.054,1.064,-178.535,-65.082,-15.277,
60064800,0.824,-0.317,0.918,-215.827,-45.762,18.27,
60064820,0.611,-0.452,1.04,-223.492,-30.712,53.725,
60064820,0.644,-0.179,1.023,-215.652,-26.39,85.68,
60064830,0.372,-0.189,1.023,-233.625,-22.995,82.81,
60064840,0.212,-0.433,1.016,-255.237,-29.347,97.23,
60064850,0.2,-0.365,0.964,-255.762,-57.382,108.762,
60064860,0.695,-0.522,1.172,-271.022,-85.102,148.487,
60064870,0.977,-1.139,1.644,-272.807,-74.76,192.71,
60064880,1.289,-1.963,1.998,-253.382,-82.145,195.772,
60064890,1.049,-1.998,1.856,-203.752,-140.332,128.712,
60064900,0.016,-1.998,1.33,-121.292,-102.672,85.697,
60064910,-1.531,-1.976,1.407,147.332,1.802,123.357,
60064920,-0.022,-0.952,-1.149,368.812,-48.457,136.097,
60064930,1.45,-0.32,-1.356,315.945,80.57,189.192,
60064940,1.249,-0.028,-1.106,177.975,125.842,142.625,
60064950,0.443,-0.192,-0.75,84.805,101.727,40.705,
60064960,0.009,-0.104,-0.615,54.775,75.967,-11.777,
60064970,-0.03,0.442,-0.632,41.072,28.787,-39.742,
60064980,-0.133,0.576,-0.469,-12.302,-27.912,-54.32,
60064990,-0.105,0.225,-0.242,-82.53,-64.925,-55.02,
60065000,-0.125,0.057,-0.006,-100.782,-80.045,-55.02,
60065010,-0.129,0.163,0.047,-115.972,-77.77,-40.11,
60065020,-0.127,0.1,0.08,-135.52,-69.702,-32.917,
60065030,-0.152,0.088,0.078,-141.54,-64.137,-35,
60065040,-0.101,0.233,0.044,-140.122,-53.917,-44.152,
60065050,-0.076,0.367,0.011,-143.167,-44.87,-57.417,
60065060,-0.192,0.379,0.053,-156.432,-40.39,-65.117,
60065070,-0.285,0.363,0.091,-168.472,-44.782,-66.132,
60065080,-0.201,0.315,0.114,-176.61,-48.895,-65.572,
60065090,-0.043,-0.077,0.23,-183.89,-45.255,-62.16,
60065100,-0.818,0.359,0.254,-150.202,-25.41,25.13,
60065110,1.293,0.615,-0.086,-44.467,-43.207,-113.47,
60065120,0.318,-0.741,-1.061,-107.73,-13.772,-139.667,
60065130,1.083,-1.998,1.608,-94.482,231.402,-45.605,
60065140,-0.654,-1.998,0.12,146.702,24.535,-193.165,
60065150,0.801,0.927,-1.771,497.805,179.007,-290.395,
60065160,-0.926,1.279,1.304,254.432,96.932,-179.637,
60065170,1.343,-1.729,1.277,372.207,16.66,-142.747,
60065170,1.734,0.318,0.93,497.945,111.475,-67.777,
60065190,1.248,0.953,1.615,393.33,99.942,27.037,
60065190,0.225,0.848,1.964,297.482,97.072,96.915,
60065210,-0.223,0.48,1.957,169.102,49.612,115.64,
60065210,-0.286,0.675,1.801,28.735,-4.095,86.975,
60065230,-0.109,0.094,1.489,-98.63,-38.85,42.822,
60065230,0.166,-0.319,1.09,-173.845,-51.082,15.575,
60065250,0.375,-0.397,0.844,-190.435,-56.735,1.837,
60065250,0.468,-0.408,0.854,-191.712,-53.707,1.54,
60065260,0.468,-0.406,0.897,-193.62,-58.03,11.06,
60065270,0.321,-0.483,0.891,-189.997,-65.835,25.27,
60065280,0.312,-0.493,0.837,-188.195,-75.845,32.795,
60065290,0.362,-0.523,0.719,-185.15,-90.107,42.787,
60065300,0.553,-0.57,0.879,-186.06,-105.892,59.972,
60065310,0.693,-0.622,1.45,-195.737,-123.06,88.13,
60065320,0.78,-1.218,1.73,-193.97,-144.655,113.907,
60065330,1.144,-1.919,1.448,-168.035,-194.46,92.382,
60065340,1.062,-1.998,1.328,-138.285,-154.455,66.57,
60065350,-1.911,-1.998,1.998,-3.167,-25.9,117.897,
60065360,-1.416,-1.98,-0.019,348.145,-45.832,176.347,
60065370,1.527,-1.108,-1.555,512.837,12.617,252.63,
60065380,1.804,-0.787,-1.52,418.18,120.417,345.205,
60065390,1.132,-0.107,-1.463,309.19,120.155,304.762,
60065400,1.158,-0.057,-1.055,221.13,97.23,214.48,
60065410,1.234,0.014,-0.955,141.732,77.647,127.96,
60065420,1.06,0.436,-0.911,69.142,54.285,28.752,
60065430,0.75,0.523,-0.763,-14,29.505,-65.502,
60065440,0.414,0.436,-0.546,-100.73,18.305,-124.197,
60065450,-0.028,0.567,-0.306,-156.432,3.447,-151.462,
60065460,-0.378,0.71,-0.077,-175.665,-19.25,-161.91,
60065470,-0.738,0.798,0.064,-200.445,-35.367,-136.412,
60065480,-0.813,0.675,0.042,-238.927,-39.112,-90.965,
60065490,-0.74,0.632,0.081,-253.767,-40.635,-43.47,
60065500,-0.584,0.209,0.147,-263.987,-42.927,2.327,
60065510,-1.194,0.632,0.316,-269.535,-44.957,92.295,
60065510,0.526,-0.014,-1.037,-86.345,-57.05,16.467,
60065530,1.771,-0.989,0.92,-110.67,40.985,-20.247,
60065530,1.08,-1.998,1.284,-91.175,5.722,-111.545,
60065550,-0.581,-0.504,-1.997,434.367,80.237,-330.225,
60065550,-1.16,1.997,0.643,284.725,-0.455,-207.637,
60065570,1.998,0.139,0.711,168.437,-66.307,-75.985,
60065570,1.326,-1.436,0.836,387.502,64.82,-96.18,
60065580,0.747,-0.331,0.97,385.77,106.382,-118.265,
60065590,1.103,0.512,1.291,325.465,112.052,-13.422,
60065600,0.686,0.289,1.309,282.695,107.415,44.292,
60065610,0.04,0.005,1.649,213.097,80.272,85.627,
60065620,-0.277,0.374,1.618,127.627,49.595,72.485,
60065630,-0.322,0.276,1.531,37.642,24.797,44.205,
60065640,-0.106,-0.088,1.335,-36.785,-0.105,9.607,
60065650,0.218,-0.138,1.106,-83.755,-15.277,-8.995,
60065660,0.366,-0.199,0.994,-95.392,-19.337,-19.6,
60065670,0.394,-0.451,0.898,-119.7,-11.41,-21.28,
60065680,0.451,-0.448,0.868,-113.487,-7.262,-19.81,
60065690,0.504,-0.422,0.892,-107.905,-3.307,-9.905,
60065700,0.482,-0.435,0.908,-105.297,-0.735,1.872,
60065710,0.47,-0.468,0.877,-103.197,-1.295,14.612,
60065720,0.451,-0.515,0.826,-101.36,-4.025,23.205,
60065730,0.402,-0.578,0.818,-98.35,-13.842,30.887,
60065740,0.382,-0.596,0.869,-95.69,-25.935,41.527,
60065750,0.378,-0.648,0.919,-88.777,-50.435,54.74,
60065760,0.36,-0.893,1.197,-82.215,-78.872,67.76,
60065770,0.034,-1.28,1.036,-62.755,-147.087,51.065,
60065780,-0.06,-1.192,0.709,-29.75,-209.58,15.05,
60065790,-0.077,-1.376,0.096,-13.352,-223.002,0.105,
60065800,0.151,-1.998,-0.577,-1.19,-227.92,-38.08,
60065810,0.558,-1.349,-1.691,-0.07,-184.555,-65.257,
60065820,0.372,-1.086,-1.728,-63.315,-109.62,-62.457,
60065830,-0.395,-1.895,-1.199,-157.902,-77.175,-79.957,
60065840,-0.651,-1.998,-0.374,-175.612,-8.102,-46.987,
60065850,-0.558,-1.604,0.24,-116.077,45.29,-15.627,
60065860,-0.576,-0.716,0.904,-36.942,50.19,-9.467,
60065870,0.256,0.254,1.44,27.895,44.345,4.077,
60065880,1.56,0.867,1.998,91.665,99.627,28.63,
60065890,1.348,1.805,1.998,185.657,116.62,14.437,
60065900,1.074,1.997,1.874,269.36,52.307,-64.295,
60065910,0.007,0.266,0.17,256.9,-43.102,-87.552,
60065920,1.732,-1.997,0.678,222.372,52.412,-43.82,
60065920,1.049,-0.611,0.592,313.775,140.122,-64.802,
60065940,0.384,1.323,0.976,321.265,168.455,-97.09,
60065940,1.147,0.219,1.179,228.742,193.077,-38.447,
60065960,0.89,0.071,1.312,194.67,213.815,9.835,
60065960,0.282,-0.051,1.419,137.795,195.142,32.585,
60065980,-0.264,0.015,1.45,74.025,150.832,33.845,
60065980,-0.591,0.261,1.378,21.717,87.29,26.635,
60066000,-0.447,0.086,1.236,-24.867,24.727,22.522,
60066000,-0.143,-0.113,1.134,-49.892,-24.867,23.887,
60066010,-0.126,-0.22,1.061,-62.86,-54.425,17.675,
60066020,0.124,-0.288,0.978,-72.52,-78.575,7.682,
60066030,0.416,-0.237,0.822,-75.11,-85.855,-0.192,
60066040,0.41,-0.32,0.71,-73.15,-79.117,-1.557,
60066050,0.589,-0.337,0.615,-48.615,-58.835,-4.515,
60066060,0.593,-0.234,0.543,-38.692,-31.01,-5.39,
60066070,0.544,-0.414,0.633,-9.765,-6.09,8.277,
60066080,0.681,-0.344,0.671,26.25,14.63,24.255,
60066090,0.479,-0.473,0.699,48.912,30.59,37.677,
60066100,0.299,-0.656,0.847,75.267,44.03,40.18,
60066110,-0.023,-0.311,1.063,86.24,46.725,21.77,
60066120,-0.007,-0.05,1.191,74.095,34.842,0.472,
60066130,0.34,-0.002,1.147,41.527,14.752,-12.04,
60066140,0.624,-0.008,1.07,5.302,6.842,-7.367,
60066150,0.512,-0.002,1.132,-31.57,6.842,7,
60066160,0.412,-0.042,1.223,-72.712,8.96,20.79,
60066170,0.594,-0.072,1.252,-110.757,-5.11,36.452,
60066180,0.626,-0.25,1.226,-149.677,0.122,64.032,
60066190,0.353,-0.223,1.279,-168.227,-6.352,95.235,
60066200,0.275,-0.382,1.032,-211.102,-50.522,129.587,
60066210,0.162,-0.275,0.979,-219.73,-90.79,172.165,
60066220,0.323,-0.368,0.958,-232.33,-141.592,204.715,
60066230,-0.264,-0.971,1.397,-249.567,-207.392,224.402,
60066240,-0.948,-1.898,1.522,-228.987,-350.717,208.005,
60066250,-0.068,-1.998,1.178,-166.635,-484.225,152.652,
60066260,1.062,-1.998,0.641,-136.902,-421.487,153.667,
60066260,0.526,-1.998,1.216,-69.335,-227.937,175.21,
60066280,0.17,-1.976,0.173,82.6,-78.05,145.897,
60066280,0.786,-1.324,-0.595,200.182,101.78,137.095,
60066300,0.348,-0.668,-1.025,227.797,179.375,114.922,
60066300,-0.198,-0.1,-1.609,185.395,166.88,62.002,
60066320,-0.438,0.466,-1.599,90.702,104.37,16.625,
60066320,-0.029,0.333,-1.195,-65.94,24.78,-20.23,
60066330,0.59,-0.244,-0.502,-201.95,-32.27,-64.837,
60066340,0.904,-0.489,-0.063,-251.282,-44.765,-130.235,
60066350,0.628,-0.411,0.041,-263.952,-0.945,-181.09,
60066360,-0.1,-0.396,0.107,-277.76,57.47,-212.292,
60066370,-1.004,-0.416,0.139,-286.265,91.262,-209.755,
60066380,-1.331,-0.572,0.383,-286.965,101.43,-176.89,
60066390,-1.517,-0.536,0.439,-245.595,96.775,-115.412,
60066400,-0.772,-0.185,0.407,-118.72,29.225,-118.685,
60066410,-0.724,-0.438,0.621,-148.68,68.337,-15.627,
60066420,0.433,-0.569,1.998,-101.692,69.23,15.382,
60066430,1.997,0.781,1.998,129.902,139.51,15.312,
60066440,1.896,-1.443,0.348,225.575,179.042,-67.637,
60066450,-0.648,-1.998,-0.229,405.632,118.072,-255.22,
60066460,-0.201,-0.297,1.033,367.587,70.21,-153.807,
60066470,1.94,1.637,-0.204,409.29,65.957,-38.815,
60066480,0.656,-0.762,1.327,398.842,67.392,7.315,
60066490,0.549,0.376,1.444,380.572,58.117,70.735,
60066500,0.318,0.288,1.7,316.312,48.142,108.465,
60066510,-0.139,0.554,1.879,206.832,25.2,106.417,
60066520,-0.145,0.523,1.862,100.24,3.08,77.262,
60066530,-0.094,0.361,1.777,-28.07,-25.287,45.272,
60066540,0.153,0.027,1.472,-141.872,-45.92,29.33,
60066550,0.577,0.249,1.221,-200.2,-63.91,24.115,
60066560,0.508,-0.185,1.118,-275.38,-69.02,44.52,
60066570,0.461,-0.133,0.969,-292.022,-75.635,64.61,
60066580,0.345,-0.212,0.826,-308.787,-80.622,81.462,
60066590,0.385,-0.348,0.661,-309.925,-89.145,92.12,
60066600,0.533,-0.402,0.688,-308.595,-90.877,106.785,
60066610,0.655,-0.51,0.87,-309.715,-86.415,131.792,
60066620,0.71,-1.108,1.407,-313.005,-67.462,149.852,
60066630,0.98,-1.671,1.832,-279.615,-48.492,136.552,
60066640,1.528,-1.998,1.444,-217.822,-7.752,105.192,
60066650,1.257,-1.773,1.065,-132.317,73.972,83.002,
60066660,-0.502,-1.409,1.443,-51.922,83.615,57.837,
60066670,-0.333,-1.038,0.667,132.265,27.37,41.317,
60066670,-1.179,-0.048,0.857,241.08,-11.777,123.48,
60066690,1.191,0.477,-0.761,271.372,-16.205,197.137,
60066690,1.963,1.508,-0.67,198.275,64.365,232.365,
60066710,1.79,1.792,-0.563,91.367,28.717,115.815,
60066710,1.506,1.333,-0.285,3.797,7.945,-56.35,
60066730,0.964,0.935,0.193,-68.337,-8.172,-179.952,
60066730,-0.018,-0.268,0.376,-95.34,-23.852,-209.807,
60066750,0.254,0.836,0.683,-51.992,-39.637,-170.957,
60066750,0.646,-0.038,0.135,-3.465,-52.395,-322.28,
60066760,-0.037,-0.705,-0.052,-15.277,-68.197,-337.242,
60066770,-0.348,-1.066,-0.354,-22.19,-58.8,-305.567,
60066780,-0.578,-1.268,-0.777,-25.042,-73.815,-298.9,
60066790,-0.912,-1.542,-1.049,-35.577,-126.665,-308.122,
60066800,-1.076,-1.788,-1.293,-68.722,-122.36,-264.022,
60066810,-1.848,-1.998,-1.38,-83.212,-84.28,-131.075,
60066820,1.771,-1.998,1.998,-45.43,183.172,3.29,
60066830,-0.687,-1.525,-1.217,300.387,226.712,-97.475,
60066840,1.047,1.988,0.545,363.527,256.445,-138.985,
60066850,-0.246,0.788,0.891,225.89,142.292,70.717,
60066860,1.455,-1.656,1.18,377.86,76.072,30.835,
60066870,0.735,-0.749,0.752,376.88,136.412,81.41,
60066880,-0.192,-0.32,1.524,299.565,126,52.937,
60066890,-0.427,0.703,1.539,238.28,108.132,39.83,
60066900,-0.359,0.285,1.81,180.81,75.197,12.145,
60066910,0.37,0.322,1.576,72.59,17.675,-19.915,
60066920,0.604,0.314,1.426,-11.97,-17.395,-0.42,
60066930,0.4,-0.032,1.196,-90.387,-38.797,27.545,
60066940,0.192,-0.415,1.134,-141.347,-44.975,37.362,
60066950,0.33,-0.124,1.013,-143.517,-61.46,28.175,
60066960,0.372,-0.201,1.037,-180.775,-77.017,18.532,
60066970,0.52,-0.259,0.938,-196.28,-88.76,28.612,
60066980,0.531,-0.329,0.8,-211.75,-95.165,48.107,
60066990,0.61,-0.559,0.726,-217.14,-96.74,71.05,
60067000,0.618,-0.381,0.739,-210.735,-83.965,89.547,
60067010,0.59,-0.316,0.805,-217.682,-72.45,104.16,
60067010,0.52,-0.675,1.049,-231.665,-65.66,111.912,
60067030,0.573,-1.315,1.309,-231.857,-79.957,106.89,
60067030,0.972,-1.79,1.169,-189.612,-90.86,94.132,
60067050,1.559,-1.734,0.699,-116.812,-84.612,67.9,
60067050,1.026,-1.818,0.667,-58.222,-31.832,46.392,
60067070,-0.53,-1.966,1.603,1.872,74.585,49.577,
60067070,-1.178,-1.746,0.754,164.167,67.13,83.037,
60067080,0.574,-0.967,-0.512,327.67,72.94,142.1,
60067090,0.447,-0.509,-1.111,326.34,96.512,191.187,
60067100,-0.016,0.127,-1.534,298.392,44.957,166.25,
60067110,-0.198,0.466,-1.484,225.592,-16.117,142.065,
60067120,0.252,0.231,-1.255,97.685,-72.082,130.13,
60067130,0.421,-0.059,-0.692,-5.075,-104.16,113.295,
60067140,0.316,-0.181,-0.247,-66.64,-96.11,85.242,
60067150,0.316,-0.155,-0.05,-100.362,-44.397,52.902,
60067160,-0.173,-0.137,-0.031,-113.277,1.225,13.212,
60067170,-1.16,0.015,-0.006,-117.897,-9.222,-27.615,
60067180,-1.697,-0.126,0.08,-125.86,-45.15,-23.887,
60067190,-0.172,0.468,-0.216,-50.015,-75.617,-75.162,
60067200,0.133,0.099,1.445,-98.542,-36.697,-36.96,
60067210,1.76,-1.971,1.964,-91.56,-50.802,-52.045,
60067220,1.311,-1.875,-1.657,344.61,67.077,-269.255,
60067230,-1.529,1.608,0.223,435.26,130.76,-255.605,
60067240,1.69,0.42,0.718,253.942,77.56,-150.115,
60067250,1.928,0.253,0.604,414.942,85.872,-110.32,
60067260,1.544,0.065,1.062,424.62,135.87,5.32,
60067270,0.913,0.421,1.772,378.595,142.992,116.812,
60067280,-0.468,0.749,1.804,275.817,124.337,129.762,
60067290,-1.183,0.617,1.934,116.147,36.767,105.07,
60067300,-0.737,0.305,1.696,32.672,6.877,44.1,
60067310,0.014,0.283,1.443,-59.885,-45.272,10.57,
60067320,0.396,0.104,1.298,-130.847,-75.565,15.365,
60067330,0.377,-0.253,1.081,-177.782,-90.422,32.06,
60067340,0.472,-0.144,1.116,-185.36,-101.657,40.267,
60067350,0.413,-0.401,1.009,-233.415,-119.332,49.122,
60067360,0.231,-0.26,1.009,-240.485,-128.66,58.502,
60067370,0.188,-0.351,0.969,-254.187,-142.135,68.005,
60067380,0.279,-0.32,1.096,-265.702,-152.11,76.3,
60067390,0.348,-0.14,1.2,-281.085,-161.21,84.297,
60067400,0.201,-0.866,1.715,-298.217,-191.135,84.787,
60067410,0.223,-1.872,1.758,-270.095,-276.5,58.467,
60067420,1.071,-1.998,1.268,-209.965,-352.992,-9.205,
60067420,-0.532,-1.998,1.669,-223.93,-286.51,15.995,
60067440,-1.79,-1.998,0.914,27.492,-101.36,109.41,
60067440,-0.277,-1.013,-1.334,394.432,3.132,178.885,
60067460,0.581,-0.118,-1.49,330.592,84.945,215.95,
60067460,1.034,-0.309,-1.555,176.382,142.065,206.29,
60067480,0.783,-0.142,-1.245,113.75,140.157,162.19,
60067480,0.727,0.145,-0.958,73.15,107.765,118.842,
60067500,1.063,0.331,-0.54,-28.577,81.62,66.027,
60067500,1.262,0.233,-0.176,-127.645,73.097,-1.102,
60067510,1.078,0.165,0.024,-161.91,96.162,-72.537,
60067520,0.509,0.23,0.112,-164.01,133.297,-133.665,
60067530,-0.263,0.463,0.133,-169.242,150.325,-164.535,
60067540,-0.774,0.395,0.285,-155.732,137.882,-169.977,
60067550,-0.917,0.485,0.301,-144.655,114.887,-146.51,
60067560,-0.916,0.063,0.404,-143.99,97.895,-104.177,
60067570,-1.324,0.2,0.373,-115.482,81.112,-35.455,
60067580,-0.345,0.577,0.23,-20.615,39.882,-41.79,
60067590,-0.657,0.331,0.187,-44.38,9.03,-28.665,
60067600,-0.774,0.077,-0.597,-48.195,30.03,22.767,
60067610,1.442,-0.216,-0.077,1.575,156.467,40.355,
60067620,1.822,-1.998,1.322,-88.392,19.477,-154.192,
60067630,-0.417,-0.599,-1.901,433.545,73.675,-522.427,
60067640,-0.452,1.997,1.266,342.912,71.715,-331.555,
60067650,1.998,0.275,-0.576,339.08,118.3,-86.992,
60067660,1.303,-1.226,1.629,548.712,118.667,-72.397,
60067670,1.716,0.347,0.856,546.472,129.815,46.252,
60067680,0.591,1.211,1.812,471.03,137.847,139.44,
60067690,-0.798,0.624,1.971,347.515,138.512,131.162,
60067700,-1.347,1.156,1.943,174.037,95.882,58.38,
60067710,-0.456,0.502,1.712,33.022,12.652,1.207,
60067720,0.313,0.427,1.449,-65.8,-47.215,1.26,
60067730,0.271,0.221,1.337,-145.425,-71.312,20.335,
60067740,0.457,-0.036,1.162,-205.012,-83.947,35.227,
60067750,0.554,-0.165,1.031,-247.24,-94.57,48.475,
60067760,0.627,-0.541,0.954,-277.795,-97.422,67.34,
60067760,0.451,-0.138,0.868,-250.215,-88.567,96.792,
60067780,0.397,-0.07,0.766,-256.445,-92.382,70.017,
60067780,0.284,-0.62,0.923,-288.382,-92.96,101.57,
60067800,0.449,-0.313,0.886,-266.91,-93.695,113.855,
60067800,0.578,-0.365,0.861,-273.735,-91.56,128.222,
60067820,0.79,-1.087,1.102,-280.735,-84.647,140.507,
60067820,0.918,-1.758,1.381,-255.167,-79.345,135.292,
60067830,1.177,-1.921,1.205,-189.332,-84.437,106.662,
60067840,1.054,-1.939,0.833,-137.76,-56.192,78.96,
60067850,0.721,-1.64,0.242,-72.835,17.71,47.11,
60067860,0.071,-1.492,-0.127,25.515,109.62,54.215,
60067870,-0.06,-0.872,-0.043,89.67,138.565,47.67,
60067880,0.104,-0.419,-0.7,149.695,102.287,33.075,
60067890,0.682,0.144,-0.673,133.7,119.875,27.492,
60067900,0.342,0.445,-0.68,62.37,89.635,-26.372,
60067910,-0.116,0.565,-0.64,4.112,50.557,-98.017,
60067920,-0.226,0.493,-0.449,-59.01,49.017,-124.582,
60067930,-0.409,0.229,-0.279,-115.797,56.087,-127.557,
60067940,-0.633,0.035,-0.07,-153.16,57.61,-123.69,
60067950,-0.691,-0.26,0.087,-175.262,53.462,-112.472,
60067960,-1.056,-0.15,0.231,-173.915,52.955,-74.147,
60067970,-0.427,-0.071,0.234,-55.072,33.635,-79.52,
60067980,-0.679,0.052,-0.263,-44.677,-2.24,-103.635,
60067990,-0.746,-0.864,0.16,-61.512,31.307,-85.33,
60068000,0.083,-1.703,0.559,8.96,85.522,-70.927,
60068010,0.415,-1.998,1.941,76.807,21.122,-109.795,
60068020,0.469,-1.871,-0.587,298.952,-147.962,-287.98,
60068030,0.258,1.667,0.171,319.147,63.42,-311.867,
60068040,1.207,1.305,0.237,173.372,29.96,-233.94,
60068050,1.807,-1.84,0.537,379.26,42.63,-155.977,
60068060,1.557,-0.904,0.795,377.037,105.665,-84.175,
60068070,1.525,0.945,0.698,363.3,115.832,19.442,
60068080,0.67,0.412,1.303,324.747,130.865,99.347,
60068090,-0.427,-0.024,1.772,272.58,116.585,119.84,
60068100,-0.633,0.544,1.752,209.387,75.407,87.045,
60068110,-0.637,0.466,1.711,98.542,34.702,24.342,
60068120,0.139,0.203,1.45,-0.052,-12.075,-14.455,
60068130,0.587,0.176,1.187,-67.847,-38.832,-13.055,
60068140,0.489,-0.031,1.123,-128.467,-38.587,4.497,
60068150,0.355,-0.113,1.112,-169.487,-40.862,16.59,
60068160,0.336,-0.172,1.101,-201.477,-43.312,21.857,
60068170,0.297,-0.374,1.041,-219.625,-48.982,30.712,
60068170,0.712,0.101,0.907,-205.1,-51.415,23.222,
60068190,0.41,-0.531,0.962,-254.45,-36.05,44.345,
60068190,0.423,-0.468,0.889,-232.487,-33.46,56.612,
60068210,0.442,-0.324,0.794,-231.84,-39.76,66.902,
60068210,0.504,-0.355,0.844,-235.007,-50.977,82.407,
60068220,0.668,-0.469,0.983,-247.817,-55.457,106.855,
60068230,0.766,-0.854,1.421,-253.697,-49.21,134.715,
60068240,0.905,-1.72,1.891,-248.955,-36.47,148.767,
60068250,1.293,-1.974,1.574,-198.905,-8.312,116.812,
60068260,0.937,-1.775,0.906,-139.79,25.13,68.95,
60068270,0.375,-0.81,0.365,-78.47,54.862,12.652,
60068280,0.175,-0.533,0.169,-13.545,128.38,-8.085,
60068290,0.415,0.084,0.301,-20.982,99.085,-30.17,
60068300,0.524,0.829,-0.168,-2.975,42.21,-46.83,
60068310,0.193,1.405,0.057,0.227,-4.76,-80.377,
60068320,-0.277,1.308,0.519,-29.26,-51.835,-80.202,
60068330,-0.242,0.987,0.928,-33.355,-87.062,-70.49,
60068340,-0.238,0.647,1.116,1.47,-104.142,-50.435,
60068350,-0.41,0.494,1.107,51.94,-123.217,-33.845,
60068360,-0.371,0.318,0.866,101.045,-146.195,-37.065,
60068370,-0.235,0.135,0.534,126.262,-158.147,-40.985,
60068380,-0.119,-0.025,0.26,130.427,-147.035,-40.582,
60068390,-0.092,-0.274,-0.081,123.725,-122.465,-49.455,
60068400,-0.261,-0.55,-0.353,107.782,-94.762,-60.987,
60068410,-0.526,-0.768,-0.517,87.85,-76.212,-61.915,
60068420,-1.134,-1.209,-0.944,56,-61.897,-50.207,
60068430,0.5,-1.989,-0.459,11.777,-43.312,-81.182,
60068440,0.474,-1.998,0.659,64.365,274.067,-177.17,
60068450,-1.854,1.437,-0.378,307.982,199.92,-333.602,
60068460,0.677,1.598,1.651,191.8,198.52,-199.815,
60068470,1.945,-1.776,-0.157,237.247,71.837,-92.627,
60068480,1.147,-1.103,0.969,427.577,169.627,-57.382,
60068490,1.442,0.798,0.161,359.607,205.047,57.75,
60068500,0.825,0.284,1.417,322.945,218.137,140.105,
60068510,-0.837,-0.122,1.867,271.547,196.997,124.67,
60068510,-1.201,0.686,1.81,170.94,133.735,48.317,
60068530,-0.3,0.297,1.598,74.865,52.237,-1.732,
60068530,0.219,0.226,1.304,4.305,-6.44,0.28,
60068550,0.111,-0.019,1.202,-49.122,-38.622,18.427,
60068550,0.182,-0.16,1.119,-84.805,-57.522,22.137,
60068570,0.42,-0.152,1.035,-110.862,-68.95,18.445,
60068570,0.47,-0.257,1.073,-134.697,-73.08,21.175,
60068580,0.42,-0.231,1.058,-148.942,-83.37,29.732,
60068590,0.472,-0.15,0.972,-157.552,-89.057,34.51,
60068600,0.351,-0.301,1.007,-182.367,-99.4,38.605,
60068610,0.394,-0.337,0.978,-188.702,-105.875,49.017,
60068620,0.407,-0.424,0.882,-200.935,-116.742,63.91,
60068630,0.534,-0.238,0.885,-205.31,-107.362,75.46,
60068640,0.456,-0.236,0.908,-216.895,-100.31,87.972,
60068650,0.45,-0.378,1.024,-226.082,-104.317,103.565,
60068660,0.58,-0.835,1.308,-229.775,-111.667,113.452,
60068670,0.839,-1.362,1.293,-206.937,-113.26,110.39,
60068680,1.427,-1.674,1.106,-155.557,-94.29,81.392,
60068690,1,-1.798,0.994,-114.975,-37.747,50.557,
60068700,0.028,-1.998,1.086,-48.405,27.895,4.602,
60068710,-0.721,-1.739,0.942,61.652,112.367,30.345,
60068720,0.304,-0.445,-0.611,190.067,143.57,83.387,
60068730,0.675,0.14,-0.751,204.47,166.372,111.195,
60068740,0.613,0.223,-0.773,122.097,136.01,73.5,
60068750,0.398,0.065,-0.686,70.087,98.262,19.95,
60068760,0.262,0.251,-0.69,48.877,66.64,-15.295,
60068770,0.23,0.433,-0.698,9.537,30.66,-39.602,
60068780,0.065,0.423,-0.571,-54.145,-3.867,-56.367,
60068790,-0.024,0.33,-0.412,-118.212,-21.945,-67.76,
60068800,-0.083,0.308,-0.264,-155.365,-12.162,-68.862,
60068810,-0.392,0.03,-0.063,-171.832,6.842,-57.05,
60068820,-0.915,0.497,0.167,-129.377,20.387,-7.682,
60068830,0.018,0.896,-0.908,-47.022,-6.807,-72.625,
60068840,0.049,-0.663,1.008,-140.227,77.595,-24.342,
60068850,0.689,-1.998,0.966,-84.735,10.465,-54.022,
60068860,0.12,-0.186,-1.995,483.332,123.27,-258.51,
60068870,-1.595,1.915,0.614,250.6,7.857,-197.68,
60068880,1.855,-1.665,0.705,250.302,-26.302,-101.85,
60068890,1.299,0.154,1.116,507.342,40.862,-113.452,
60068890,1.731,0.359,1.09,456.89,84.857,-66.867,
60068910,1.436,1.104,1.622,365.435,140.21,19.425,
60068910,-0.027,0.414,1.941,243.897,164.115,61.582,
60068920,-0.886,0.866,1.85,115.5,100.432,57.89,
60068930,-0.674,0.477,1.678,17.36,14.157,53.34,
60068940,0.028,0.071,1.357,-57.067,-60.375,48.037,
60068950,0.439,0.046,1.159,-112.28,-97.597,55.702,
60068960,0.463,-0.233,1.015,-153.142,-100.52,59.395,
60068970,0.307,-0.473,1.038,-179.427,-90.58,51.975,
60068980,0.421,-0.129,0.948,-170.747,-89.547,43.487,
60068990,0.446,-0.328,0.903,-203.122,-92.505,31.22,
60069000,0.523,-0.355,0.841,-205.695,-73.29,37.59,
60069010,0.592,-0.349,0.816,-203.507,-54.985,45.71,
60069020,0.642,-0.423,0.81,-209.09,-41.667,62.107,
60069030,0.683,-0.423,0.949,-213.062,-36.522,83.44,
60069040,0.525,-0.594,1.154,-211.47,-48.982,114.695,
60069050,0.518,-1.159,1.352,-196.945,-64.382,136.64,
60069060,0.522,-1.482,1.126,-157.447,-82.635,127.067,
60069070,0.489,-1.416,0.848,-111.055,-103.932,72.135,
60069080,-0.075,-1.852,1.021,-72.327,-95.882,26.845,
60069090,-0.448,-1.992,1.249,-20.825,-66.92,37.747,
60069100,-0.152,-1.082,-0.243,125.002,-4.672,84.472,
60069110,0.24,0,-0.583,167.335,68.267,120.505,
60069120,0.411,0.039,-0.461,74.567,67.445,106.54,
60069130,0.573,-0.185,-0.438,18.357,55.562,59.85,
60069140,0.374,0.249,-0.466,14.542,66.167,30.607,
60069150,0.252,0.649,-0.334,-15.767,52.447,-6.72,
60069160,0.279,0.451,-0.065,-87.5,33.162,-36.837,
60069170,0.187,0.347,0.199,-132.02,33.022,-45.377,
60069180,-0.058,0.343,0.419,-118.72,34.142,-54.74,
60069190,-0.898,1.073,0.427,-61.88,23.887,-21.455,
60069200,-0.094,1.667,0.193,11.725,-24.115,-76.247,
60069210,-0.518,0.966,-0.724,-35.805,-57.575,-76.37,
60069220,1.629,-0.961,-0.596,-57.487,136.272,-26.197,
60069230,-0.168,-1.998,1.609,-38.517,87.237,-113.855,
60069240,-0.686,0.386,-1.431,409.517,71.96,-280.945,
60069250,-0.952,1.772,-0.007,142.73,-32.13,-208.652,
60069260,1.976,-1.723,0.873,211.627,-25.48,-90.597,
60069260,0.972,-0.76,0.996,407.522,44.187,-109.637,
60069280,1.106,0.294,0.942,327.215,38.062,-85.26,
60069280,1.309,0.501,1.197,318.08,72.065,14.77,
60069300,0.461,0.18,1.454,268.52,84.945,67.935,
60069300,-0.132,0.317,1.593,187.232,73.097,76.247,
60069320,-0.296,0.283,1.639,110.897,47.267,60.987,
60069320,-0.262,0.293,1.581,21.297,11.812,31.342,
60069330,0.068,0.18,1.412,-61.95,-20.212,11.83,
60069340,0.314,-0.035,1.236,-128.327,-40.687,6.72,
60069350,0.337,-0.289,1.092,-169.54,-49.77,11.34,
60069360,0.498,-0.08,1.015,-175.402,-55.72,15.522,
60069370,0.347,-0.324,1.044,-211.19,-53.235,19.162,
60069380,0.325,-0.267,0.996,-218.872,-54.302,24.045,
60069390,0.27,-0.42,0.887,-227.727,-57.767,28.612,
60069400,0.216,-0.528,0.82,-221.305,-70.577,32.27,
60069410,0.263,-0.508,0.938,-213.71,-95.147,36.662,
60069420,0.293,-0.652,1.23,-206.412,-128.642,44.292,
60069430,0.311,-1.057,1.241,-179.637,-168.052,39.567,
60069440,0.746,-1.229,1.059,-145.565,-172.567,22.242,
60069450,1.159,-1.377,0.808,-125.842,-119.735,1.26,
60069460,1,-1.819,0.834,-106.977,-35.647,-27.335,
60069470,-0.351,-1.998,1.615,-45.675,74.935,-52.272,
60069480,-1.303,-1.622,0.426,98.787,128.555,-41.405,
60069490,-0.177,-0.028,-0.783,202.755,138.39,-27.335,
60069500,0.154,0.074,-0.857,120.417,133.91,-12.092,
60069510,0.019,-0.415,-0.835,44.292,97.212,-36.855,
60069520,-0.086,-0.194,-0.686,19.565,76.37,-62.352,
60069530,0.024,-0.106,-0.437,-26.792,55.3,-72.94,
60069540,0.032,-0.377,-0.128,-82.267,37.065,-88.462,
60069550,-0.227,-0.413,-0.035,-109.655,27.807,-96.092,
60069560,-0.449,-0.254,0.006,-109.27,27.562,-92.855,
60069570,-0.598,-0.164,0.09,-110.565,29.155,-72.835,
60069580,-0.71,-0.174,0.216,-110.95,30.432,-40.337,
60069580,-0.612,-0.026,0.246,-94.482,28.735,-3.185,
60069600,-0.656,0.348,0.635,-63.542,43.75,51.922,
60069600,1.607,0.034,1.998,-19.145,30.345,18.217,
60069620,1.998,-1.998,0.266,134.942,44.957,-115.535,
60069620,-0.388,-1.796,-0.241,468.86,84.315,-303.047,
60069640,-0.559,-0.245,1.339,339.43,77.542,-120.54,
60069640,1.994,1.493,-0.129,408.992,79.59,-46.602,
60069660,0.787,-0.728,1.496,419.317,130.865,58.117,
60069660,0.534,1.062,1.613,391.632,133.962,104.44,
60069670,-0.434,0.389,1.885,286.037,129.727,106.522,
60069680,-0.853,0.852,1.783,154.682,90.125,62.65,
60069690,-0.553,0.357,1.587,44.467,30.1,19.862,
60069700,0.02,0.269,1.43,-35.822,-25.252,3.115,
60069710,0.315,0.181,1.372,-104.58,-55.492,11.287,
60069720,0.579,0.064,1.268,-165.69,-78.4,33.792,
60069730,0.533,-0.077,1.192,-220.237,-96.337,62.405,
60069740,0.369,-0.293,1.094,-258.107,-104.877,94.465,
60069750,0.587,-0.028,0.894,-241.01,-105,90.037,
60069760,0.232,-0.493,0.956,-285.18,-94.92,103.39,
60069770,0.313,-0.523,0.996,-259.245,-97.282,105.175,
60069780,0.561,-0.622,1.16,-236.985,-95.83,113.19,
60069790,0.627,-1.26,1.171,-208.162,-85.382,137.952,
60069800,0.353,-1.499,0.862,-155.4,-113.365,110.932,
60069810,0.627,-1.817,1.012,-112.665,-140.945,51.887,
60069820,-0.958,-1.998,1.837,-72.012,-130.795,50.137,
60069830,-1.593,-1.655,0.319,103.425,-112.227,102.445,
60069840,0.576,-0.153,-0.708,276.185,40.162,242.077,
60069850,1.316,0.211,-0.849,189.507,71.172,256.287,
60069860,1.779,0.432,-0.483,48.405,59.15,128.012,
60069870,1.38,0.165,-0.323,-30.695,94.027,6.825,
60069880,0.604,0.362,-0.389,-42.612,115.587,-114.905,
60069890,-0.084,0.403,-0.328,-74.655,94.132,-210.175,
60069900,-0.533,-0.028,-0.134,-128.87,74.427,-252.525,
60069910,-0.649,-0.146,-0.015,-165.392,84.472,-227.15,
60069920,-0.934,-0.323,0.262,-167.23,95.515,-205.87,
60069930,-1.307,0.264,0.534,-128.327,108.482,-149.117,
60069940,-0.813,0.369,0.383,-33.127,95.742,-161.63,
60069950,-1.117,0.57,0.21,-78.47,103.985,-82.005,
60069960,0.168,0.414,1.061,-86.677,142.415,-34.807,
60069970,1.998,-1.959,1.45,-132.79,72.922,-123.585,
60069980,0.461,-1.636,-1.211,353.482,69.16,-383.6,
60069990,-1.505,1.857,0.308,224.175,10.64,-295.12,
60070000,1.763,0.42,0.077,221.042,28.035,-135.695,
60070010,1.596,-0.996,0.855,391.632,70.227,-60.34,
60070010,0.952,-0.517,1.131,393.802,59.657,26.477,
60070030,1.092,0.996,1.204,366.03,82.39,108.99,
60070030,-0.132,0.066,1.71,285.162,72.765,164.272,
60070050,-0.402,0.912,1.728,206.325,44.695,149.59,
60070050,-0.606,0.64,1.825,93.66,19.477,105.91,
60070070,-0.263,0.595,1.728,-18.042,-15.75,62.72,
60070070,0.075,0.381,1.609,-128.292,-42.542,41.09,
60070080,0.309,0.2,1.443,-222.39,-63.437,43.505,
60070090,0.523,-0.051,1.169,-290.78,-71.26,57.33,
60070100,0.392,-0.052,1.012,-303.45,-64.225,87.99,
60070110,0.586,0.028,0.754,-283.885,-72.222,60.41,
60070120,0.3,-0.727,0.772,-331.38,-73.272,99.54,
60070130,0.831,-0.565,0.774,-287.63,-67.76,120.75,
60070140,0.995,-0.792,0.974,-260.207,-38.412,148.925,
60070150,0.898,-1.297,1.298,-227.185,-3.045,170.957,
60070160,0.53,-1.604,1.135,-174.457,-3.43,147.262,
60070170,0.175,-1.53,0.83,-116.182,-40.162,107.957,
60070180,0.161,-1.529,0.932,-60.97,-66.675,84.35,
60070190,-0.101,-1.127,0.52,2.31,-87.325,81.847,
60070200,-0.64,-0.654,1.065,109.585,-80.955,110.512,
60070210,-0.25,-0.201,-0.503,174.37,-91.56,130.497,
60070220,0.92,0.623,-0.742,163.87,2.327,145.495,
60070230,0.56,0.827,-0.793,78.417,-9.24,83.51,
60070240,0.482,0.334,-0.278,-18.042,9.957,3.78,
60070250,0.342,-0.1,0.184,-72.66,57.767,-33.512,
60070260,-0.07,-0.043,0.326,-67.497,83.195,-74.462,
60070270,-0.685,-0.005,0.253,-54.845,96.197,-94.587,
60070280,-0.914,0.705,0.442,-16.485,104.807,-65.24,
60070290,-0.448,0.798,0.259,21.052,80.185,-106.627,
60070300,-0.632,0.86,0.364,-19.53,88.2,-69.177,
60070310,0.506,0.636,-1.626,5.005,152.827,-53.077,
60070320,0.927,-1.152,0.65,-32.06,433.457,-13.212,
60070330,-1.785,-1.998,0.366,11.777,-146.037,-332.097,
60070330,-1.726,0.475,0.232,377.177,-301.14,-491.225,
60070350,0.364,1.768,-0.325,103.057,-380.432,-286.947,
60070350,1.998,-1.553,0.215,337.347,-156.03,-156.24,
60070370,1.171,-0.994,1.203,418.46,39.2,-280.91,
60070370,1.848,1.909,0.238,388.185,90.772,-165.48,
60070390,1.87,0.517,1.326,345.205,177.555,20.597,
60070390,-0.076,0.566,1.847,236.95,218.68,95.077,
60070410,-1.21,0.317,1.948,134.05,136.062,89.232,
60070410,-1.009,0.526,1.754,28.84,29.767,42.017,
60070420,0.218,0.109,1.359,-63.577,-51.012,21.402,
60070430,0.298,0.026,1.209,-111.755,-91.227,31.412,
60070440,0.427,-0.203,1.087,-154.682,-107.152,48.02,
60070450,0.298,-0.225,1.077,-180.425,-116.55,46.375,
60070460,0.259,-0.398,1.018,-189.612,-127.032,47.985,
60070470,0.382,-0.179,0.846,-173.337,-142.135,21.717,
60070480,0.357,-0.501,0.869,-221.952,-140.437,26.635,
60070490,0.412,-0.506,0.803,-201.407,-140.07,22.417,
60070500,0.595,-0.597,0.913,-190.697,-133.91,21.297,
60070510,0.777,-0.767,0.838,-176.522,-119.052,30.38,
60070520,0.944,-0.948,0.637,-148.592,-84.35,35.875,
60070530,1.042,-1.077,0.657,-117.407,-22.662,33.18,
60070540,1.181,-1.621,0.476,-87.5,23.257,23.905,
60070550,-0.316,-1.998,0.804,-58.275,73.272,39.847,
60070560,-1.404,-1.998,0.259,26.302,140.437,71.12,
60070570,0.01,-1.031,-0.42,132.685,137.095,86.59,
60070580,1.146,-0.344,-0.615,99.487,132.93,95.865,
60070590,0.993,-0.387,-0.425,29.102,138.022,71.067,
60070600,0.294,-0.062,-0.332,-4.532,139.422,25.235,
60070610,-0.304,0.544,-0.275,-28.525,114.415,-15.557,
60070620,-0.531,0.906,-0.095,-74.165,68.6,-45.01,
60070630,-0.683,0.855,0.176,-126.98,41.632,-39.725,
60070640,-0.822,0.672,0.342,-140.945,41.072,-13.527,
60070650,-1.039,0.592,0.199,-109.445,47.95,24.815,
60070660,-0.186,1.101,1.692,22.505,44.695,15.4,
60070670,1.926,-1.257,1.714,-26.705,-39.305,-38.202,
60070680,1.323,-1.998,-1.117,309.242,38.465,-201.215,
60070690,-1.949,-0.963,1.234,397.915,-6.65,-251.055,
60070700,1.241,1.439,0.116,294.017,-14.35,-158.13,
60070710,1.769,0.542,0.844,410.777,35.017,-82.145,
60070720,0.859,-0.134,1.582,393.505,72.66,-3.867,
60070730,0.928,1.037,1.588,342.317,105.542,50.505,
60070740,-0.378,0.495,1.798,197.697,111.702,68.722,
60070750,-0.548,0.652,1.651,93.835,64.207,51.065,
60070760,-0.254,0.348,1.521,-3.517,10.01,28.35,
60070760,0.17,0.286,1.435,-80.587,-31.5,19.53,
60070780,0.424,0.251,1.299,-152.11,-46.13,22.68,
60070780,0.525,-0.074,1.138,-211.785,-46.305,33.705,
60070800,0.598,-0.21,1.01,-242.952,-35.77,48.982,
60070800,0.472,-0.199,0.894,-240.642,-19.355,71.382,
60070820,0.457,-0.289,0.794,-229.827,-9.712,54.512,
60070820,0.164,-0.644,0.894,-250.022,-0.402,69.597,
60070830,0.294,-0.536,0.805,-215.775,-3.115,65.712,
60070840,0.481,-0.624,0.826,-199.587,-4.06,69.317,
60070850,0.57,-0.656,0.854,-174.475,2.905,75.495,
60070860,0.746,-0.825,1.042,-155.47,27.002,88.97,
60070870,0.486,-1.052,0.965,-128.012,55.545,91.455,
60070880,0.192,-1.083,0.867,-90.422,40.127,64.977,
60070890,-0.039,-1.026,0.713,-64.925,15.015,36.365,
60070900,-0.127,-1.144,0.664,-39.882,4.532,14.525,
60070910,-0.067,-1.437,0.916,-10.045,13.212,-4.305,
60070920,-0.011,-1.107,0.765,41.002,-30.31,-39.077,
60070930,0.069,0.14,-1.352,155.4,-42.595,-69.702,
60070940,-0.466,1.462,-1.082,123.462,-33.18,-80.412,
60070950,-0.559,0.28,-0.29,-54.775,-73.027,-73.92,
60070960,-0.142,-0.601,0.184,-100.642,-88.76,-71.487,
60070970,-0.303,-0.063,-0.076,-44.415,-96.582,-73.202,
60070980,-1.038,0.226,-0.381,-21.98,-121.52,-67.935,
60070990,-0.939,0.512,-0.576,7.455,-161.717,-52.535,
60071000,0.102,-0.26,1.188,-30.572,-199.867,-56.297,
60071010,1.834,-1.998,0.618,14.42,-92.505,-36.977,
60071020,0.838,-1.552,-0.166,437.447,-87.762,-229.285,
60071030,0.931,1.856,0.445,280.227,30.747,-181.125,
60071040,1.759,1.133,0.25,271.705,41.877,-101.045,
60071050,1.799,-1.687,1.294,316.995,124.967,-8.732,
60071060,1.029,1.094,1.06,324.327,164.097,39.13,
60071070,0.213,0.323,1.685,255.342,162.61,93.45,
60071080,-0.391,0.171,1.701,149.275,107.957,100.8,
60071080,-0.432,0.452,1.583,80.447,43.942,73.36,
60071100,-0.081,0.171,1.468,-19.407,-2.082,44.747,
60071100,0.276,0.153,1.324,-90.247,-36.96,35.7,
60071120,0.3,-0.038,1.273,-151.532,-59.43,48.545,
60071120,0.475,-0.087,1.234,-200.305,-87.587,70.42,
60071140,0.276,-0.232,1.103,-234.797,-108.815,93.835,
60071140,0.628,0.059,0.882,-216.265,-119.262,89.53,
60071160,0.206,-0.441,0.872,-267.242,-111.212,104.965,
60071160,0.376,-0.477,0.859,-248.535,-103.442,117.477,
60071170,0.517,-0.494,0.959,-231.77,-100.397,118.072,
60071180,0.461,-0.912,1.033,-219.065,-98.122,133.647,
60071190,0.623,-1.273,0.989,-182.175,-104.65,125.86,
60071200,0.604,-1.417,0.89,-141.89,-98.892,104.545,
60071210,0.564,-1.49,0.744,-94.062,-102.41,68.372,
60071220,0.314,-1.249,0.937,-29.557,-103.022,24.622,
60071230,-0.637,-1.179,1.561,57.872,-83.405,51.887,
60071240,0.327,-0.726,0.012,178.045,6.86,111.562,
60071250,0.708,0.619,-0.485,204.417,82.11,133.297,
60071260,0.771,0.97,-0.471,128.152,87.237,79.205,
60071270,0.392,0.655,-0.459,59.167,90.23,3.01,
60071280,0.004,0.796,-0.245,13.825,83.842,-47.39,
60071290,-0.106,0.594,-0.056,-36.102,55.755,-80.78,
60071300,-0.101,0.086,-0.01,-71.592,27.702,-113.645,
60071310,-0.919,0.525,0.105,-55.335,19.6,-106.19,
60071320,-0.288,0.983,-0.277,13.772,24.85,-132.982,
60071330,-0.272,-0.841,-1.333,-29.54,52.762,-147.437,
60071340,0.382,-1.998,0.381,-67.077,263.427,-98.577,
60071350,-1.636,-1.991,0.496,95.795,-43.522,-262.57,
60071360,0.134,1.627,-0.037,269.972,-65.852,-325.027,
60071370,1.998,1.217,-0.452,233.45,1.312,-185.377,
60071380,1.148,-1.962,1.493,302.347,94.85,-50.54,
60071390,1.251,-0.179,0.607,407.61,112.805,-5.547,
60071400,1.452,1.322,1.008,340.602,147.332,96.18,
60071410,-0.58,-0.565,1.883,250.127,136.167,152.022,
60071420,-0.505,0.774,1.627,191.047,86.047,112.28,
60071430,-0.619,0.576,1.752,80.307,41.755,64.102,
60071440,-0.196,0.417,1.648,-27.545,-0.227,21.787,
60071450,0.244,0.322,1.477,-122.832,-36.522,10.185,
60071460,0.493,0.013,1.308,-211.68,-58.362,21.35,
60071470,0.656,-0.216,1.163,-261.8,-74.987,45.535,
60071480,0.635,0.128,0.883,-256.882,-66.972,76.212,
60071490,0.29,-0.263,0.892,-278.005,-63.7,68.302,
60071500,0.258,-0.553,0.886,-293.055,-54.81,92.977,
60071510,0.617,-0.405,0.744,-262.762,-45.29,95.235,
60071510,0.746,-0.715,0.976,-250.915,-21.402,112.49,
60071530,0.873,-1.054,1.294,-225.592,18.707,130.515,
60071530,0.904,-1.454,1.156,-174.51,44.45,124.075,
60071550,0.655,-1.483,0.968,-117.967,31.902,86.31,
60071550,0.28,-1.249,0.604,-71.697,-1.995,45.902,
60071570,0.021,-0.821,0.454,-15.172,9.135,45.465,
60071570,-0.419,-0.283,1.351,31.57,-1.05,67.217,
60071580,0.496,0.046,-0.279,101.815,-82.302,61.88,
60071590,1.58,0.634,-0.465,109.13,-4.9,66.832,
60071600,0.796,0.654,-0.473,32.182,-25.532,15.89,
60071610,0.107,0.591,-0.14,5.267,-62.195,-74.462,
60071620,0.154,0.329,0.091,-29.487,-73.465,-136.29,
60071630,-0.135,-0.027,0.335,-46.462,-86.327,-162.522,
60071640,-0.481,-0.048,0.379,-31.622,-78.242,-157.255,
60071650,-0.652,0.185,0.259,-10.22,-79.712,-158.392,
60071660,-0.746,0.223,0.068,-6.16,-86.537,-159.862,
60071670,-0.793,0.326,-0.166,-11.392,-81.515,-148.347,
60071680,-1.254,0.451,-0.883,-17.955,-64.085,-130.812,
60071690,0.624,-1.716,1.646,-63.7,6.702,-106.855,
60071700,0.012,-1.994,0.065,253.067,203.682,-170.887,
60071710,-0.73,1.637,-0.659,283.307,57.662,-292.757,
60071720,1.875,0.866,-0.233,159.18,104.982,-168.997,
60071730,1.884,-1.965,1.512,333.76,219.94,-7.822,
60071740,1.369,0.453,0.494,428.715,220.605,-0.945,
60071750,0.806,0.288,1.504,320.057,199.675,139.335,
60071760,-0.157,-0.123,1.605,263.62,131.057,229.197,
60071770,-0.733,1.099,1.788,204.295,63.997,209.842,
60071780,-0.771,0.772,1.867,83.615,24.902,150.395,
60071790,-0.312,0.483,1.652,-29.12,-4.287,83.072,
60071800,-0.081,0.104,1.376,-128.24,-16.38,38.097,
60071810,0.231,-0.207,1.134,-189.805,-28.857,22.592,
60071820,0.33,-0.413,1.036,-210.525,-40.565,31.097,
60071830,0.535,0.005,1.016,-188.807,-54.46,50.295,
60071830,0.15,-0.271,0.963,-219.432,-67.34,44.59,
60071850,0.169,-0.548,0.943,-236.25,-79.73,66.92,
60071850,0.307,-0.44,0.883,-221.235,-88.27,70.315,
60071870,0.319,-0.546,0.989,-212.327,-91.402,87.115,
60071870,0.393,-0.859,1.171,-199.587,-87.412,107.187,
60071890,0.508,-1.118,1.086,-179.445,-98.192,100.87,
60071890,0.796,-1.222,1.023,-139.702,-103.67,62.002,
60071910,0.731,-1.681,1.01,-106.015,-78.435,47.705,
60071910,-1.078,-1.998,1.304,-46.025,-35.91,61.092,
60071920,-1.898,-1.865,1.649,85.12,4.357,97.737,
60071930,-0.015,-0.6,-0.929,243.075,19.285,158.707,
60071940,1.95,-0.114,-0.756,219.905,144.812,232.82,
60071950,1.597,0.41,-1.343,86.835,115.447,173.705,
60071960,1.325,0.87,-0.993,5.215,83.755,22.942,
60071970,1.437,0.206,-0.385,-103.687,95.112,-86.03,
60071980,1.186,-0.265,-0.068,-156.782,99.732,-189.752,
60071990,0.328,-0.499,0.101,-139.615,83.37,-273.927,
60072000,-0.847,0.979,-0.054,-119.892,85.82,-229.95,
60072010,-0.754,1.139,-0.105,-45.57,22.19,-310.765,
60072020,-1.406,0.956,0.289,-85.4,-39.042,-255.955,
60072030,-1.212,0.396,-0.084,-82.827,-5.827,-130.497,
60072040,-0.478,-1.39,1.349,-59.71,109.042,-49,
60072050,0.61,-1.998,-0.775,191.555,6.09,-137.252,
60072060,-0.677,1.063,-0.181,391.09,-47.302,-265.125,
60072070,1.949,1.663,-0.534,198.782,-29.365,-242.812,
60072080,1.117,-1.343,1.63,390.215,107.432,-22.995,
60072090,1.585,-0.244,0.989,447.965,118.58,-24.815,
60072100,0.87,1.057,1.56,357.875,136.395,49.822,
60072110,-0.334,0.501,1.886,258.947,129.955,62.107,
60072120,-0.881,0.837,1.805,141.942,86.52,39.602,
60072130,-0.578,0.516,1.669,23.905,16.87,6.055,
60072140,0.083,0.339,1.432,-73.22,-37.24,-2.397,
60072150,0.315,0.037,1.207,-142.187,-62.842,4.987,
60072160,0.345,-0.138,1.07,-190.802,-66.832,12.425,
60072170,0.268,-0.405,0.943,-215.862,-72.642,17.15,
60072180,0.48,-0.049,0.926,-186.13,-77.665,14.245,
60072190,0.294,-0.396,0.914,-220.22,-79.03,11.655,
60072200,0.328,-0.456,0.914,-217.332,-77.962,15.907,
60072210,0.411,-0.32,0.883,-211.557,-80.692,16.24,
60072220,0.497,-0.484,0.965,-210.402,-72.765,21.507,
60072230,0.717,-0.526,1.007,-198.45,-56.052,28.14,
60072240,0.782,-0.656,1.015,-185.412,-22.82,45.272,
60072250,0.622,-0.972,0.95,-156.87,-8.715,33.985,
60072260,0.754,-1.022,0.788,-117.512,25.847,7.315,
60072260,0.52,-1.106,0.636,-89.18,74.077,-11.585,
60072280,-0.012,-1.405,0.773,-69.37,105.087,-43.225,
60072280,-1.215,-1.494,1.08,-36.645,81.76,-69.107,
60072300,-0.934,-0.614,-0.206,36.47,45.307,-37.66,
60072300,-0.084,0.638,-0.228,77.665,31.832,40.425,
60072310,0.26,0.644,-0.244,19.932,10.657,82.687,
60072320,0.461,0.698,-0.119,1.067,-4.06,72.66,
60072330,0.133,0.632,0.047,9.572,4.917,74.777,
60072340,0.137,0.982,-0.22,50.995,-1.627,58.8,
60072350,-0.116,1.125,-0.507,73.43,-23.1,26.547,
60072360,1.026,-1.074,-1.007,42.875,26.775,-3.57,
60072370,-1.052,-1.998,1.488,17.552,-17.01,-84.385,
60072380,0.102,-1.493,1.879,223.125,-147.525,-262.85,
60072390,1.464,1.968,-1.03,263.322,-19.39,-185.395,
60072400,1.6,0.343,0.367,301.875,16.485,-115.22,
60072410,0.728,-1.963,1.589,264.985,94.745,-41.195,
60072420,1.257,0.975,0.712,369.39,116.742,-39.97,
60072430,0.604,0.249,1.33,308.752,134.89,25.952,
60072440,-0.026,0.111,1.536,224.507,132.755,25.62,
60072450,-0.3,0.544,1.484,175.822,103.372,-0.14,
60072460,-0.254,0.408,1.42,74.83,62.422,-10.482,
60072470,-0.051,0.253,1.258,10.185,18.462,-6.107,
60072480,-0.006,0.027,1.168,-39.55,-9.065,4.13,
60072490,0.025,-0.103,1.131,-69.37,-31.08,8.33,
60072500,0.106,-0.168,1.088,-89.617,-46.83,8.977,
60072510,0.158,-0.206,1.056,-103.302,-61.372,8.417,
60072520,0.219,-0.237,0.991,-111.965,-70.262,8.277,
60072530,0.286,-0.315,0.9,-114.117,-79.345,7.927,
60072540,0.392,-0.36,0.804,-108.132,-79.922,7.875,
60072550,0.457,-0.43,0.729,-97.422,-76.387,7.91,
60072560,0.48,-0.547,0.658,-83.965,-65.362,12.04,
60072570,0.608,-0.333,0.69,-46.287,-54.495,10.605,
60072580,0.458,-0.4,0.688,-42.962,-39.532,15.942,
60072580,0.452,-0.477,0.706,-28.262,-27.562,22.365,
60072600,0.451,-0.399,0.706,-12.652,-16.187,20.44,
60072600,0.409,-0.381,0.748,-4.305,-5.967,19.145,
60072620,0.371,-0.434,0.753,3.482,4.112,17.902,
60072620,0.341,-0.452,0.795,11.917,10.797,11.777,
60072640,0.319,-0.321,0.819,21.087,19.162,10.237,
60072640,0.316,-0.258,0.873,25.935,24.71,5.95,
60072660,0.231,-0.287,0.965,22.365,26.722,2.957,
60072660,0.21,-0.302,1.03,15.767,21.77,-2.485,
60072670,0.248,-0.245,1.061,2.782,13.212,-8.19,
60072680,0.276,-0.191,1.071,-13.23,3.64,-9.73,
60072690,0.314,-0.238,0.974,-28.455,-4.34,-6.702,
60072700,0.262,-0.276,0.904,-35.157,-9.642,-2.292,
60072710,0.192,-0.381,0.67,-30.187,-14.49,0.752,
60072720,0.391,-0.416,0.704,-15.137,-13.755,4.585,
60072730,0.302,-0.492,0.637,-0.577,-8.26,4.742,
60072740,0.35,-0.729,0.657,13.58,-1.277,-0.07,
60072750,0.336,-0.718,0.528,42.42,3.832,-4.025,
60072760,0.455,-0.705,0.443,88.427,14.892,-7.437,
60072770,0.528,-0.705,0.58,140.892,30.467,-10.342,
60072780,0.672,-0.28,0.814,180.845,51.187,-13.212,
60072790,0.556,0.056,1.15,181.282,72.345,-11.06,
60072800,0.168,0.261,1.338,140.56,80.92,-7.805,
60072810,-0.102,0.229,1.328,84.21,58.24,-2.03,
60072820,0.023,0.18,1.231,33.162,26.792,1.837,
60072830,0.137,0.092,1.187,-9.012,-1.627,5.232,
60072840,0.254,0.011,1.13,-46.672,-19.04,9.975,
60072850,0.328,-0.098,1.045,-76.055,-27.545,11.952,
60072860,0.337,-0.193,1.012,-97.405,-23.415,9.59,
60072870,0.339,-0.198,0.994,-112.892,-18.637,5.897,
60072880,0.333,-0.238,1.011,-125.702,-15.417,6.545,
60072890,0.289,-0.36,1.045,-135.397,-14.735,8.452,
60072900,0.407,-0.063,0.93,-130.392,-10.395,9.8,
60072910,0.261,-0.367,0.977,-146.79,-6.37,8.82,
60072920,0.276,-0.362,0.965,-143.465,-3.062,11.987,
60072930,0.28,-0.31,0.997,-143.902,-7.017,12.005,
60072940,0.302,-0.275,1.007,-154.14,-9.607,13.212,
60072950,0.302,-0.294,0.995,-167.895,-15.102,16.327,
60072960,0.369,-0.362,1.047,-175.14,-20.02,20.86,
60072970,0.574,-0.47,1.025,-173.547,-21.07,30.975,
60072980,0.57,-0.725,1.095,-154.63,-5.267,35.91,
60072980,0.313,-0.742,1.05,-127.557,-0.63,13.545,
60073000,0.137,-0.74,0.737,-101.78,0.525,-12.32,
60073000,0.212,-0.821,0.688,-82.687,8.19,-27.93,
60073010,-0.029,-0.806,0.674,-66.64,22.487,-24.325,
60073020,-0.277,-0.623,0.807,-45.832,-7.122,-34.002,
60073030,-0.065,-0.625,0.661,-30.66,-37.275,-49.332,
60073040,-0.41,-0.106,0.215,32.077,-31.99,-41.79,
60073050,-0.565,0.614,-0.408,57.417,-49.227,-32.27,
60073060,-0.363,0.88,-0.559,53.217,-42.35,-1.715,
60073070,-0.529,0.64,-0.326,10.185,-45.92,32.532,
60073080,-0.057,0.191,-0.587,2.205,-60.69,30.625,
60073090,1.815,-1.497,-0.848,8.68,14.49,1.575,
60073100,0.405,-1.998,1.911,-0.472,14.262,-85.557,
60073110,-0.244,-1.528,0.56,173.53,-53.41,-279.842,
60073120,0.249,1.852,-0.082,185.517,-15.592,-234.517,
60073130,1.981,1.086,0.502,231.7,26.582,-170.17,
60073140,1.365,-1.224,1.1,289.66,113.242,-83.895,
60073150,1.215,0.234,0.9,300.23,118.895,-7.28,
60073160,0.864,0.497,1.341,241.342,122.972,77.017,
60073170,-0.22,0.268,1.666,170.502,105.717,109.27,
60073180,-0.611,0.307,1.624,112.945,63.28,90.16,
60073190,-0.553,0.191,1.463,22.995,18.917,38.36,
60073200,0.06,-0.08,1.257,-47.792,-15.575,-4.847,
60073210,0.531,-0.049,1.023,-83.177,-35.84,-16.555,
60073220,0.565,-0.184,0.956,-109.182,-32.077,-4.935,
60073230,0.391,-0.339,0.948,-122.342,-28.945,11.007,
60073240,0.415,-0.164,0.99,-109.515,-32.41,15.522,
60073250,0.302,-0.431,1.012,-139.492,-38.85,27.405,
60073260,0.322,-0.325,0.937,-132.755,-45.15,28.892,
60073270,0.258,-0.438,0.92,-140.332,-52.027,29.557,
60073280,0.322,-0.475,0.892,-142.852,-55.685,33.827,
60073290,0.325,-0.406,0.886,-144.217,-62.265,36.855,
60073300,0.333,-0.425,0.955,-143.08,-75.88,47.355,
60073310,0.32,-0.491,1.118,-140.542,-100.292,61.705,
60073320,0.338,-0.738,1.072,-130.742,-138.057,63.14,
60073330,0.5,-0.858,0.94,-105.367,-153.317,56.105,
60073330,0.646,-0.913,0.739,-87.815,-144.497,34.51,
60073350,0.533,-1.046,0.608,-74.55,-132.632,1.417,
60073350,0.208,-1.653,0.259,-57.435,-112.525,-22.435,
60073370,0.245,-1.927,-0.132,-23.03,-84.14,-44.327,
60073370,0.585,-1.176,-0.124,-16.922,-4.322,-42.752,
60073390,-0.201,-0.44,-0.194,3.552,24.587,-51.257,
60073390,-0.454,-0.324,-0.091,-5.652,26.285,-67.725,
60073410,-0.772,-0.085,-0.172,-16.835,16.117,-51.205,
60073410,-0.693,0.431,-0.117,-12.897,4.515,-20.58,
60073420,-0.547,0.582,0.129,-43.942,20.282,38.605,
60073430,-0.433,0.602,0.17,-58.572,45.202,93.765,
60073440,0.168,1.14,1.064,-29.277,73.78,125.982,
60073450,1.998,-1.065,1.901,43.312,152.775,50.172,
60073460,0.723,-1.998,-0.781,254.065,109.34,-118.44,
60073470,-1.405,-1.389,1.883,339.902,61.057,-177.327,
60073480,1.344,1.887,-0.254,294.735,49.28,-82.372,
60073490,1.304,0.174,0.789,341.862,100.205,9.695,
60073500,0.512,-0.502,1.582,298.9,128.432,70.647,
60073510,0.055,0.902,1.573,290.727,119,76.79,
60073520,-0.312,0.127,1.831,168.77,79.082,79.607,
60073530,-0.411,0.57,1.651,84.297,31.377,41.282,
60073540,-0.19,0.261,1.56,-17.185,-9.03,14.437,
60073550,0.186,0.139,1.329,-95.97,-47.145,4.252,
60073560,0.376,-0.099,1.11,-154.122,-67.025,9.87,
60073570,0.341,-0.327,0.994,-178.727,-79.8,23.765,
60073580,0.457,-0.124,0.929,-158.742,-95.06,19.11,
60073590,0.345,-0.445,0.934,-209.965,-108.272,34.527,
60073600,0.402,-0.344,0.848,-196.297,-114.922,42.612,
60073610,0.356,-0.4,0.763,-200.042,-117.355,45.71,
60073620,0.368,-0.537,0.771,-191.555,-115.85,51.117,
60073630,0.387,-0.478,0.894,-186.112,-116.637,55.947,
60073640,0.424,-0.521,1.017,-181.142,-121.572,59.867,
60073650,0.484,-0.804,0.986,-171.587,-136.36,57.032,
60073660,0.732,-1.005,0.793,-149.922,-135.467,44.047,
60073670,0.835,-1.253,0.737,-123.725,-109.725,26.46,
60073670,0.83,-1.334,0.761,-99.085,-86.52,1.33,
60073690,0.584,-1.427,0.686,-60.952,-80.412,-28.21,
60073690,-0.73,-1.865,1.14,6.877,-50.785,-22.89,
60073710,-0.613,-1.503,0.238,123.812,47.512,40.162,
60073710,-0.351,-0.448,-0.847,240.887,55.895,80.552,
60073730,-0.252,0.366,-0.927,203.63,16.03,75.705,
60073730,0.076,-0.094,-0.64,93.292,2.607,79.152,
60073750,0.322,-0.428,-0.125,31.605,24.237,87.325,
60073750,0.399,-0.171,-0.086,9.135,54.442,87.29,
60073760,0.151,0.356,-0.193,-13.177,56.77,63.017,
60073770,-0.004,0.573,-0.22,-61.337,34.72,31.447,
60073780,-0.141,0.474,-0.063,-84.017,33.04,30.38,
60073790,0.725,1.084,0.75,-2.887,35.21,-44.222,
60073800,1.156,-1.41,1.991,-67.287,39.305,-63.787,
60073810,0.75,-1.998,-0.787,233.835,-2.327,-232.645,
60073820,0.651,-0.312,0.725,375.287,-8.172,-243.792,
60073830,1.391,1.979,-0.147,299.967,33.285,-149.292,
60073840,1.712,0.061,0.665,339.92,110.25,-101.64,
60073850,1.354,-0.267,1.08,338.065,153.562,-13.685,
60073860,0.73,1.02,1.485,323.54,190.452,60.83,
60073870,-0.701,0.352,1.959,202.912,158.375,86.94,
60073880,-0.402,0.11,1.588,100.835,65.327,22.487,
60073890,0.307,0.588,1.359,6.195,-11.357,-22.54,
60073900,0.74,-0.006,1.079,-58.03,-30.432,11.34,
60073910,-0.096,-0.162,1.183,-100.87,-34.737,35.857,
60073920,0.385,-0.298,1.039,-123.042,-57.365,36.19,
60073930,0.317,-0.293,1.013,-128.17,-68.827,26.88,
60073940,0.297,-0.256,0.927,-130.707,-80.167,10.99,
60073950,0.357,-0.501,0.922,-164.01,-82.74,17.622,
60073960,0.414,-0.307,0.895,-155.54,-88.567,9.765,
60073970,0.411,-0.376,0.872,-161.262,-98.402,13.072,
60073980,0.537,-0.484,0.953,-153.632,-101.465,19.407,
60073990,0.607,-0.658,1.047,-149.957,-112.402,26.11,
60074000,0.605,-0.851,0.892,-128.59,-120.977,27.37,
60074010,0.672,-0.803,0.844,-92.102,-100.975,25.322,
60074020,0.681,-1.124,0.874,-74.585,-71.522,13.51,
60074030,0.735,-1.371,0.939,-52.745,-34.755,6.93,
60074040,1.437,-1.631,0.562,13.037,28.262,-6.3,
60074050,-0.302,-1.078,1.009,76.002,115.605,11.34,
60074060,-1.276,-0.829,-0.349,159.337,116.567,9.397,
60074070,-0.157,-0.038,-0.667,170.45,77.175,22.277,
60074080,0.613,-0.064,-0.848,84.192,83.405,54.757,
60074080,0.209,-0.03,-0.711,14.91,62.317,33.862,
60074100,-0.101,0.158,-0.439,-47.407,45.412,8.505,
60074100,0.025,0.338,-0.132,-121.502,45.762,4.585,
60074120,-0.167,0.495,1.102,-179.987,51.205,-2.24,
60074120,-0.476,0.464,1.485,-194.74,9.257,-36.872,
60074140,-0.138,0.633,0.649,-1.855,42.857,-32.76,
60074140,1.994,-1.158,1.452,117.897,85.277,-87.43,
60074160,0.346,-1.998,1.073,161.525,90.16,-178.64,
60074160,-0.508,0.347,0.687,231.175,9.537,-197.89,
60074170,1.998,1.35,0.118,286.405,50.802,-99.207,
60074180,0.907,-0.88,1.263,304.762,101.745,-3.517,
60074190,1.071,0.663,1.154,294.945,103.057,45.815,
60074200,0.171,0.25,1.576,230.737,112.14,94.482,
60074210,-0.228,0.375,1.588,137.952,80.132,94.57,
60074220,-0.204,0.372,1.524,55.352,29.347,80.657,
60074230,0.166,0.175,1.363,-26.18,-17.692,77.105,
60074240,0.362,0.031,1.233,-90.317,-46.287,82.407,
60074250,0.314,-0.116,1.19,-146.65,-66.22,94.885,
60074260,0.353,-0.238,1.148,-182.157,-87.255,109.497,
60074270,0.373,-0.379,1.067,-200.41,-104.79,118.615,
60074280,0.249,-0.194,0.909,-178.272,-106.295,130.585,
60074290,0.178,-0.161,0.864,-185.867,-113.225,110.092,
60074300,0.233,-0.51,1.08,-206.202,-108.185,125.352,
60074310,0.452,-0.742,1.122,-182.805,-108.745,119.035,
60074320,0.801,-1.097,0.986,-161.052,-98.962,114.87,
60074330,1.032,-1.227,0.743,-130.795,-82.775,89.547,
60074340,1.053,-1.415,0.558,-89.267,-51.642,62.142,
60074350,0.662,-1.491,0.311,-35.385,-2.24,52.78,
60074360,0.293,-0.945,0.181,26.18,42.945,55.86,
60074370,0.782,-0.433,-0.228,69.79,49.892,52.15,
60074380,1.006,0.061,-0.482,74.55,53.76,37.555,
60074390,1.187,0.343,-0.726,46.48,44.52,-8.575,
60074400,1.227,0.557,-1.08,2.625,17.01,-106.662,
60074410,0.566,0.111,-0.927,-62.265,-23.555,-193.06,
60074420,0.521,0.401,-0.583,-120.89,-38.255,-213.185,
60074420,0.474,-0.112,-0.54,-156.677,-54.74,-299.6,
60074440,-0.502,-0.317,-0.434,-177.922,-29.645,-298.865,
60074440,-1.283,-0.653,0.139,-127.505,68.635,-176.137,
60074460,-1.992,-1.983,1.343,-87.517,194.512,15.54,
60074460,1.331,-1.858,-1.225,453.512,100.625,119.49,
60074480,1.494,1.545,0.932,335.895,87.99,-29.557,
60074480,-1.414,1.986,1.054,235.06,-2.835,-160.37,
60074500,0.812,-0.29,1.345,394.292,75.67,-58.992,
60074500,1.376,-0.386,1.522,321.142,105.087,-41.282,
60074510,0.853,1.243,1.246,248.78,133.157,-49.857,
60074520,0.071,0.256,1.652,119.647,130.305,16.065,
60074530,-0.482,0.553,1.555,40.267,66.605,29.662,
60074540,-0.258,0.198,1.461,-42.542,-0.542,40.022,
60074550,0.115,0.129,1.286,-102.042,-45.22,37.922,
60074560,0.311,-0.075,1.142,-158.952,-59.482,34.23,
60074570,0.553,-0.166,0.992,-199.727,-60.2,26.775,
60074580,0.505,-0.425,0.949,-221.97,-51.87,28.63,
60074590,0.724,-0.104,0.801,-189.122,-44.03,40.512,
60074600,0.531,-0.546,0.841,-211.505,-37.555,45.657,
60074610,0.693,-0.588,0.889,-203.945,-24.955,76.282,
60074620,0.749,-0.413,0.86,-169.242,-19.11,89.6,
60074630,0.908,-0.846,0.852,-162.767,2.432,128.66,
60074640,0.83,-1.081,0.897,-137.13,34.23,147.84,
60074650,0.649,-0.846,0.937,-107.152,37.03,148.382,
60074660,1.065,-1.039,0.696,-74.602,33.18,144.27,
60074670,1.015,-1.155,0.371,-40.39,28.735,138.582,
60074680,0.601,-0.398,0.336,-18.06,21.542,143.902,
60074690,0.904,-0.207,0.297,-14.315,-12.635,123.095,
60074700,1.739,0.406,-0.593,-8.837,-46.62,80.587,
60074710,1.998,1.231,-0.087,-30.082,-55.23,-5.652,
60074720,1.163,1.097,0.066,-81.357,-169.05,-182.507,
60074730,-0.34,0.475,0.291,-50.505,-228.917,-351.592,
60074740,-1.346,0.262,0.269,-22.277,-282.66,-325.92,
60074750,-1.055,0.377,0.147,-10.202,-285.582,-250.512,
60074760,-0.325,-0.16,-0.133,-4.655,-203.472,-181.825,
60074770,-0.392,-1.573,0.533,-5.967,-39.095,-91.682,
60074780,-1.998,-1.998,1.631,29.837,238.105,45.43,
60074790,1.22,-1.891,-1.113,460.372,261.59,45.5,
60074800,0.838,1.735,1.121,310.712,249.847,-89.53,
60074810,-1.766,1.942,1.002,225.767,117.337,-162.417,
60074820,0.904,-0.876,1.78,322.507,168.297,-10.797,
60074830,1.246,-0.384,1.378,287.717,157.815,-17.71,
60074830,0.806,1.304,1.302,212.502,156.45,-36.557,
60074850,-0.241,0.17,1.799,69.877,135.292,23.257,
60074850,-0.588,0.442,1.607,5.775,66.517,42.157,
60074870,-0.112,0.153,1.525,-69.422,2.642,48.3,
60074870,0.288,0.237,1.296,-143.99,-27.247,45.01,
60074890,0.35,-0.204,1.168,-216.055,-36.12,50.47,
60074890,0.545,-0.433,0.987,-239.155,-42.717,69.825,
60074910,0.467,-0.209,0.798,-222.985,-38.01,89.775,
60074910,0.561,-0.42,0.699,-192.272,-30.345,67.952,
60074920,0.185,-0.731,0.864,-216.562,-18.83,96.967,
60074930,0.452,-0.556,0.835,-178.692,-15.242,91.84,
60074940,0.577,-0.578,0.885,-161.787,-4.725,106.155,
60074950,0.564,-0.803,0.993,-147.245,9.467,125.212,
60074960,0.465,-1.035,1.043,-128.03,17.535,133.35,
60074970,0.68,-1.096,1.074,-106.295,-3.15,117.46,
60074980,0.952,-1.207,0.919,-74.637,-17.062,92.61,
60074990,0.688,-1.094,0.687,-25.865,-6.737,95.55,
60075000,0.464,-0.919,0.407,12.127,7.227,97.527,
60075010,0.729,-0.581,-0.039,46.935,-16.327,66.185,
60075020,0.994,-0.547,-0.255,49.14,-37.362,36.925,
60075030,1.614,-0.045,-1.002,28.052,-32.725,-10.64,
60075040,0.763,0.577,-0.811,0.367,-73.272,-90.632,
60075050,0.033,0.316,-0.287,-77.07,-161.192,-193.777,
60075060,-0.427,-0.314,0.208,-128.887,-219.17,-234.167,
60075070,-0.737,-0.148,0.448,-118.247,-267.995,-216.247,
60075080,-0.809,0.289,0.422,-85.977,-299.582,-194.915,
60075090,-0.877,0.597,0.378,-56.507,-299.005,-156.712,
60075100,-0.862,0.799,0.331,-29.155,-255.657,-115.062,
60075110,-0.785,-0.302,0.472,6.842,-111.09,-19.39,
60075120,1.635,-1.998,1.343,47.075,304.325,162.242,
60075130,-0.955,-1.91,-0.202,465.29,249.69,15.347,
60075140,1.12,1.67,-0.393,322.175,108.482,-191.31,
60075150,0.317,1.471,0.685,219.082,137.9,-59.01,
60075160,1.1,-0.798,1.804,346.272,199.22,28.63,
60075170,0.923,0.115,1.402,348.74,194.88,37.17,
60075170,-0.19,0.864,1.834,220.92,153.772,62.16,
60075190,-1.197,0.632,1.956,128.117,94.342,87.605,
60075190,0.312,0.096,1.63,11.165,28.857,6.107,
60075210,0.279,0.333,1.291,-88.672,-9.222,-8.522,
60075210,0.525,-0.199,0.953,-141.522,-16.957,14.175,
60075230,0.212,-0.497,0.822,-141.715,-26.372,37.852,
60075230,0.224,-0.572,0.825,-106.767,-48.58,19.565,
60075250,0.2,-0.423,0.947,-131.39,-63.682,30.432,
60075250,0.182,-0.28,0.926,-116.532,-77.42,28.367,
60075260,0.105,-0.343,0.961,-133.455,-89.705,31.605,
60075270,0.042,-0.402,1.045,-141.172,-107.712,28.21,
60075280,-0.025,-0.334,1.239,-155.662,-138.25,27.492,
60075290,-0.111,-0.308,1.507,-170.555,-190.225,25.007,
60075300,-0.234,-0.526,1.399,-173.617,-259.787,11.427,
60075310,0.03,-0.858,1.09,-166.495,-299.11,-28.21,
60075320,0.559,-1.111,1.223,-181.335,-282.712,-73.185,
60075330,0.339,-1.182,1.082,-199.762,-277.515,-130.9,
60075340,0.523,-1.513,0.404,-131.95,-201.635,-159.11,
60075350,0.453,-1.698,1.022,-69.615,4.095,-67.462,
60075360,-1.784,-1.747,1.662,-35.21,222.39,78.347,
60075370,-1.399,-1.114,0.65,123.532,156.17,59.08,
60075380,0.497,-0.034,0.015,195.965,160.912,79.222,
60075390,-0.083,0.354,0.001,168.507,188.58,148.995,
60075400,-0.817,0.434,0.269,145.862,167.125,137.112,
60075410,-0.779,0.202,0.229,136.395,134.89,156.905,
60075420,-0.633,0.407,-0.091,136.692,102.322,208.635,
60075430,-0.317,0.99,-0.329,129.657,59.482,238.192,
60075440,-0.204,0.933,-0.888,87.22,14.997,232.015,
60075450,1.945,-0.861,-0.31,-20.65,99.68,134.732,
60075460,-0.084,-1.998,1.338,42.35,54.39,-166.477,
60075470,-1.66,-0.327,0.383,167.527,-241.43,-522.742,
60075480,1.924,1.987,-0.558,245.35,9.695,-159.092,
60075490,1.804,-1.16,0.275,395.657,139.072,83.93,
60075500,0.643,0.162,1.16,348.18,136.675,128.992,
60075510,0.188,-0.003,1.482,354.427,149.852,224.385,
60075520,-0.885,0.462,1.806,282.38,99.925,221.112,
60075530,-1.404,1.148,1.888,155.54,64.995,105.49,
60075540,-0.663,0.219,1.612,35.157,19.687,5.705,
60075550,0.454,0.241,1.251,-35.525,-35.752,-27.23,
60075560,0.742,0.057,1.086,-88.795,-49.717,-6.492,
60075570,0.55,-0.082,1.042,-129.762,-45.832,23.712,
60075580,0.282,-0.186,1.075,-164.395,-40.46,42.315,
60075580,0.145,-0.225,1.085,-181.65,-51.992,49.98,
60075600,0.363,-0.34,0.942,-166.407,-85.47,43.627,
60075600,0.357,-0.225,0.864,-196.98,-87.325,55.352,
60075620,0.331,-0.387,0.859,-194.04,-85.645,60.497,
60075620,0.317,-0.387,0.878,-197.54,-87.08,64.82,
60075640,0.407,-0.312,0.892,-197.102,-83.58,70.157,
60075640,0.509,-0.464,0.996,-193.55,-76.3,76.195,
60075660,0.512,-1.039,1.081,-188.142,-71.557,72.292,
60075660,0.585,-1.284,0.93,-149.59,-61.075,50.732,
60075670,0.657,-1.286,0.756,-100.152,-34.772,16.152,
60075680,0.881,-1.454,1.156,-85.802,-11.637,-20.002,
60075690,-0.115,-1.975,1.548,-71.26,45.29,-39.095,
60075700,-1.736,-1.685,0.727,53.532,167.457,-4.602,
60075710,-0.429,-0.399,-0.332,147.927,204.645,53.182,
60075720,0.98,0.145,-0.476,82.25,220.132,49.997,
60075730,0.841,-0.001,-0.424,4.952,200.48,-29.435,
60075740,-0.1,-0.02,-0.584,-11.322,167.755,-150.937,
60075750,-0.911,0.3,-0.645,-32.777,134.592,-207.707,
60075760,-1.285,0.428,-0.31,-91.665,107.922,-187.582,
60075770,-1.164,0.539,0.012,-147.735,91.507,-150.85,
60075780,-1.156,0.901,-0.05,-145.512,91.28,-112.332,
60075790,-1.416,1.301,0.287,-100.397,98.192,-58.905,
60075800,0.863,0.626,1.965,-107.87,2.765,-99.662,
60075810,1.998,-1.998,0.521,-21.665,-116.235,-235.48,
60075820,-0.715,-1.666,-0.108,433.615,30.24,-479.71,
60075830,0.243,1.517,0.314,207.165,-68.32,-300.072,
60075840,1.998,0.996,-0.306,355.565,42.927,-120.225,
60075850,0.969,-1.239,1.52,413.332,104.352,30.17,
60075860,0.876,1.369,1.455,377.265,109.515,135.555,
60075870,-0.289,0.541,1.918,289.537,89.337,172.077,
60075880,-0.842,1.07,1.903,145.057,49.192,122.955,
60075890,-0.473,0.614,1.753,4.235,6.44,51.415,
60075900,-0.014,0.278,1.459,-110.757,-18.165,5.757,
60075910,0.234,0.099,1.246,-187.197,-34.912,-6.877,
60075920,0.392,-0.051,1.094,-230.02,-42.717,1.26,
60075920,0.432,-0.204,0.997,-264.582,-49.7,15.977,
60075940,0.394,-0.482,0.884,-278.565,-51.555,30.8,
60075940,0.496,-0.108,0.825,-235.2,-47.267,51.555,
60075960,0.415,-0.401,0.787,-239.19,-55.282,19.74,
60075960,0.385,-0.856,0.936,-242.427,-48.457,56.98,
60075980,0.796,-0.726,0.969,-193.112,-30.765,68.512,
60075980,0.514,-0.919,1.092,-163.327,-18.655,70.21,
60076000,0.523,-1.055,1.035,-122.902,-26.232,41.44,
60076000,0.99,-1.436,0.969,-108.552,-4.27,24.29,
60076010,0.809,-1.861,1.448,-85.19,41.685,9.432,
60076020,-1.004,-1.971,1.23,-7.63,44.432,-42,
60076030,-0.829,-0.955,-0.365,137.34,56.98,-13.422,
60076040,0.18,0.373,-0.323,137.147,106.277,74.585,
60076050,0.649,0.211,-0.174,18.725,64.715,60.725,
60076060,0.504,-0.01,-0.005,-19.092,32.182,-17.237,
60076070,-0.264,0.39,-0.013,0.122,23.957,-61.6,
60076080,-0.647,0.927,0.031,-10.937,5.127,-75.302,
60076090,-0.576,1.011,0.152,-55.16,-5.775,-72.222,
60076100,-0.708,1.205,0.154,-89.495,7.91,-51.94,
60076110,-0.95,1.018,0.279,-74.077,26.862,-33.985,
60076120,-1.461,1.908,0.114,-38.377,40.495,42.735,
60076130,0.018,1.562,-1.488,28.56,35.735,-40.407,
60076140,1.392,-0.911,0.755,-117.022,211.522,-82.95,
60076150,0.222,-1.792,0.579,97.282,-164.902,-416.622,
60076160,-1.558,1.966,-0.972,251.072,-110.145,-450.8,
60076170,1.998,0.549,-0.279,180.88,-74.41,-246.785,
60076180,1.279,-1.959,1.751,338.38,70.56,-90.23,
60076190,1.432,1.444,0.27,379.47,56.472,-10.22,
60076200,0.916,0.421,1.55,275.24,104.982,147.28,
60076210,-0.441,0.28,1.836,187.652,75.005,171.307,
60076220,-0.515,0.504,1.84,118.317,30.45,117.862,
60076230,-0.255,0.489,1.62,-18.742,2.432,41.055,
60076240,0.221,0.095,1.425,-127.067,-14.752,1.82,
60076250,0.545,0.043,1.138,-189.892,-28.577,-4.602,
60076260,0.682,-0.41,1.022,-235.042,-25.847,16.887,
60076270,0.665,-0.099,0.813,-232.102,-27.142,42.945,
60076280,0.322,-0.388,0.796,-227.587,-33.652,43.715,
60076290,0.248,-0.629,0.897,-243.057,-37.66,73.255,
60076300,0.398,-0.382,0.961,-219.975,-51.065,71.225,
60076310,0.657,-0.644,1.205,-214.69,-48.23,87.605,
60076320,0.629,-1.306,1.305,-201.075,-37.24,94.412,
60076330,0.546,-1.505,1.014,-152.81,-49.752,54.04,
60076330,0.238,-1.63,0.821,-99.522,-61.88,8.382,
60076350,-0.269,-1.977,0.949,-47.337,-32.34,-8.032,
60076350,-1.761,-1.997,1.563,38.237,-9.747,31.5,
60076370,-0.852,-1.198,-0.449,206.29,-45.99,81.585,
60076370,0.99,-0.129,-0.523,230.877,48.247,145.372,
60076390,0.992,-0.279,-0.623,130.27,67.41,128.345,
60076390,0.678,-0.232,-0.414,93.012,68.985,36.33,
60076400,0.241,-0.054,-0.419,68.687,90.37,-13.002,
60076410,0,0.236,-0.565,35.892,82.582,-61.285,
60076420,-0.279,0.284,-0.573,-16.625,55.195,-102.462,
60076430,-0.562,0.224,-0.415,-75.32,25.83,-114.257,
60076440,-0.384,0.18,-0.262,-125.037,23.887,-102.707,
60076450,-0.334,0.481,-0.239,-143.185,42.367,-89.512,
60076460,-0.49,1.084,-0.452,-154.787,64.907,-72.065,
60076470,-1.316,0.537,0.49,-165.112,85.697,-26.337,
60076480,0.884,-1.088,1.998,-64.05,-2.467,-75.162,
60076490,1.921,-1.998,-0.697,207.147,-137.235,-276.325,
60076500,-1.322,0.46,0.153,457.52,15.575,-300.02,
60076510,0.988,1.951,0.327,204.82,-65.66,-226.31,
60076520,1.898,-0.667,0.761,424.007,57.54,-100.012,
60076530,1.191,0.42,1.26,416.622,110.582,-8.89,
60076540,0.673,1.016,1.784,309.995,139.632,66.185,
60076550,-0.589,0.649,1.968,185.587,113.137,88.655,
60076560,-0.723,0.629,1.843,73.517,38.92,68.11,
60076570,-0.14,0.461,1.599,-33.512,-34.23,40.792,
60076580,0.14,0.247,1.397,-124.652,-77.875,38.027,
60076590,0.293,-0.031,1.179,-191.047,-105.805,40.232,
60076600,0.328,-0.218,1.068,-232.172,-122.85,40.757,
60076610,0.412,-0.503,0.958,-255.342,-139.002,40.722,
60076620,0.51,-0.009,0.704,-229.32,-134.995,49.35,
60076630,0.332,-0.285,0.696,-246.96,-140.63,31.832,
60076640,0.387,-0.599,0.779,-251.335,-126.682,57.872,
60076650,0.58,-0.476,0.843,-217.997,-126.7,60.865,
60076660,0.434,-0.654,1.045,-200.672,-140.07,74.147,
60076670,0.838,-0.842,0.873,-166.687,-148.452,76.597,
60076670,1.235,-1.162,0.745,-138.74,-102.917,76.93,
60076690,1.002,-1.415,0.986,-118.125,-61.127,58.73,
60076690,-0.042,-1.576,1.218,-71.155,-86.817,26.705,
60076710,0.153,-1.921,1.272,51.31,-43.82,31.045,
60076710,-0.887,-1.49,0.581,167.125,83.947,132.965,
60076730,0.245,-0.62,-0.731,281.522,96.232,148.347,
60076730,0.997,0.248,-0.964,239.452,114.205,134.435,
60076750,0.958,0.173,-0.931,142.607,118.772,98.63,
60076750,0.387,0.203,-0.896,75.67,99.295,29.347,
60076760,0.088,0.497,-0.892,13.545,67.532,-29.4,
60076770,0.045,0.642,-0.655,-65.38,28.14,-57.907,
60076780,0.06,0.476,-0.269,-133,-6.86,-82.39,
60076790,0.177,0.585,-0.096,-183.452,-19.862,-107.292,
60076800,-0.421,0.491,-0.058,-204.452,7.42,-101.622,
60076810,-0.966,-0.055,1.404,-59.412,53.112,-87.745,
60076820,1.162,-1.998,0.963,40.705,125.037,-138.792,
60076830,-0.076,-0.941,-0.599,419.317,113.627,-189.63,
60076840,-0.472,1.997,-0.108,164.395,-24.045,-228.812,
60076850,1.931,-0.162,0.58,280.245,45.272,-128.975,
60076860,1.198,-1.113,1.309,411.932,108.587,-60.62,
60076870,1.352,1.276,0.974,349.125,106.68,3.517,
60076880,0.272,0.295,1.846,266.892,126.525,82.355,
60076890,-0.268,0.718,1.793,175.63,83.23,89.582,
60076900,-0.297,0.609,1.814,66.097,26.687,80.762,
60076910,0.092,0.477,1.551,-51.73,-24.115,64.155,
60076920,0.196,0.135,1.358,-142.397,-55.65,66.99,
60076930,0.214,-0.052,1.201,-202.055,-82.285,76.387,
60076940,0.302,-0.405,1.158,-248.027,-98.262,83.3,
60076950,0.363,0.06,0.927,-237.02,-99.977,92.347,
60076960,0.234,-0.153,0.822,-257.145,-107.275,60.252,
60076970,0.253,-0.659,0.827,-287.21,-102.55,81.305,
60076980,0.476,-0.389,0.786,-250.88,-107.432,77,
60076990,0.552,-0.627,0.983,-241.972,-121.485,96.407,
60077000,0.571,-1.056,1.005,-209.667,-142.747,111.02,
60077010,0.866,-1.302,0.895,-158.2,-144.042,106.137,
60077020,1.058,-1.488,0.869,-127.26,-120.137,95.847,
60077030,0.883,-1.606,1.099,-100.782,-87.587,74.83,
60077040,-0.022,-1.634,1.376,-34.86,-60.34,45.5,
60077050,-1.564,-1.754,1.607,102.76,-15.225,76.86,
60077060,-0.004,-0.798,-0.428,270.812,44.012,140.98,
60077070,0.692,0.482,-1.083,318.92,110.687,186.567,
60077070,0.775,0.788,-0.927,187.127,96.582,135.187,
60077080,0.695,0.164,-0.634,59.57,54.81,28.157,
60077090,0.334,-0.042,-0.313,0.49,41.177,-52.307,
60077100,0.164,0.217,-0.211,-32.27,28.682,-111.527,
60077110,0.159,0.329,-0.165,-70.962,22.855,-151.847,
60077120,-0.071,0.406,-0.089,-97.527,24.762,-169.592,
60077130,-0.404,0.575,-0.058,-128.52,23.117,-172.042,
60077140,-0.983,0.408,0.078,-134.155,18.882,-146.912,
60077150,-0.351,1.114,-0.184,-26.215,28.857,-134.242,
60077160,-0.465,0.136,-1.4,-49.49,59.535,-144.007,
60077170,1.925,-1.998,1.632,-143.745,188.772,-101.535,
60077180,-1.318,-0.89,-1.427,355.792,55.72,-274.662,
60077190,-0.297,1.997,-0.328,216.527,-15.452,-321.3,
60077200,1.966,-0.238,0.122,253.872,67.06,-88.9,
60077210,1.022,-1.639,1.545,461.457,136.08,-20.842,
60077220,1.463,1.426,0.892,418.46,128.135,34.247,
60077230,0.033,0.225,1.8,313.04,139.44,127.382,
60077240,-0.215,0.682,1.8,228.602,91.385,134.977,
60077250,-0.649,0.885,1.887,115.395,45.85,86.345,
60077260,-0.258,0.604,1.797,-28.472,-2.257,42.63,
60077270,0.059,0.464,1.543,-147.805,-36.977,19.092,
60077280,0.256,0.025,1.343,-236.232,-59.185,17.815,
60077290,0.502,-0.026,1.07,-283.342,-79.607,32.585,
60077300,0.267,-0.265,0.957,-305.725,-79.59,58.52,
60077310,0.632,-0.059,0.805,-261.852,-87.097,39.987,
60077320,0.126,-0.572,0.922,-319.322,-86.52,61.862,
60077330,0.449,-0.538,1.008,-279.195,-96.337,72.45,
60077340,0.573,-0.791,1.39,-248.99,-111.142,83.65,
60077350,1.037,-1.336,1.336,-210.262,-115.185,85.872,
60077360,1.429,-1.692,1.18,-165.217,-67.97,63.822,
60077370,0.747,-1.982,1.431,-125.282,-9.992,32.602,
60077380,-1.768,-1.998,1.977,-8.907,-8.557,27.335,
60077390,-0.634,-1.654,0.06,260.102,34.545,114.887,
60077400,0.73,-0.066,-0.986,379.837,103.11,223.895,
60077410,0.941,0.387,-1.008,281.207,95.742,232.365,
60077420,0.709,0.036,-1.102,172.9,46.55,152.145,
60077420,0.21,0.057,-1.02,125.177,20.335,88.427,
60077440,-0.111,0.371,-0.915,67.515,-13.877,51.24,
60077440,0.037,0.234,-0.516,-23.292,-70.332,13.632,
60077460,0.43,-0.19,-0.211,-97.02,-85.522,-17.605,
60077460,0.392,-0.192,-0.081,-107.45,-69.825,-40.092,
60077480,0.252,0.082,-0.124,-119.997,-36.54,-61.442,
60077480,0.135,0.152,-0.209,-141.417,6.247,-74.322,
60077500,0.016,0.393,-0.281,-157.15,57.19,-70.927,
60077500,-0.375,0.558,-0.388,-169.54,93.572,-61.232,
60077510,-0.3,1.255,-0.676,-99.767,114.957,-24.15,
60077520,0.66,-0.538,1.585,-81.655,114.1,-124.495,
60077530,0.097,-1.998,-0.148,37.572,-67.9,-200.095,
60077540,-1.534,0.882,-1.123,475.597,73.325,-285.39,
60077550,1.054,1.56,-0.413,149.59,-77.262,-225.645,
60077560,1.766,-0.803,1.209,359.187,58.957,-89.845,
60077570,1.08,-0.266,1.5,498.715,47.915,-100.362,
60077580,1.6,1.404,1.477,377.352,108.815,28.175,
60077590,0.029,0.58,1.979,250.372,119.367,76.632,
60077600,-0.434,0.915,1.924,114.642,74.795,83.492,
60077610,-0.169,0.495,1.746,-8.977,4.55,62.002,
60077620,0.287,0.332,1.421,-115.675,-36.855,51.065,
60077630,0.283,-0.104,1.192,-188.282,-47.617,53.2,
60077640,0.27,-0.173,1.064,-223.755,-52.027,65.082,
60077650,-0.037,-0.323,0.964,-242.375,-54.792,81.375,
60077660,0.345,-0.095,1.016,-205.87,-63.332,69.667,
60077670,-0.07,-0.485,0.949,-249.637,-75.757,55.475,
60077680,0.124,-0.62,0.911,-231.752,-87.587,53.987,
60077690,0.5,-0.629,0.835,-206.15,-100.835,52.762,
60077700,0.476,-0.932,0.964,-168.087,-115.185,59.587,
60077710,0.639,-1.298,0.887,-132.44,-131.267,54.46,
60077720,0.888,-1.635,0.548,-84.367,-113.54,47.022,
60077730,0.454,-1.998,1.01,-61.635,-65.905,75.985,
60077740,-1.537,-1.998,1.961,17.412,-62.405,99.155,
60077750,-1.451,-1.922,0.45,250.932,-67.2,175.525,
60077760,1.238,-0.63,-1.34,403.882,16.065,259.577,
60077760,1.759,-0.239,-1.445,287.945,50.137,263.777,
60077780,1.132,-0.371,-1.426,138.075,31.622,171.185,
60077780,0.455,-0.15,-1.374,59.552,15.68,72.607,
60077800,0.214,0.112,-1.089,-27.142,-22.452,1.242,
60077800,0.143,-0.167,-0.501,-130.655,-70.91,-60.112,
60077820,0.086,-0.306,-0.097,-200.935,-91.052,-101.587,
60077820,0.052,-0.255,0.058,-211.907,-66.99,-126.07,
60077830,-0.682,0.029,0.142,-210.192,-15.54,-114.975,
60077840,-1.209,0.477,0.013,-224.332,14.245,-91.56,
60077850,-0.332,0.379,1.499,-190.242,55.93,-1.627,
60077860,1.623,-1.111,1.836,93.082,41.755,-3.867,
60077870,1.407,-1.893,-1.868,434.472,164.587,-152.232,
60077880,-0.996,-1.989,1.604,442.155,36.995,-156.8,
60077890,1.086,0.484,0.46,324.712,9.852,-80.972,
60077900,1.719,1.11,0.736,384.492,38.797,-8.75,
60077910,0.356,-0.495,1.809,341.827,69.247,75.687,
60077920,0.388,1.002,1.734,288.085,51.87,105.787,
60077930,-0.213,0.626,1.931,148.19,27.825,117.705,
60077940,-0.075,0.622,1.675,24.272,-6.51,97.772,
60077950,0.061,0.205,1.445,-78.662,-31.36,78.697,
60077960,0.065,-0.052,1.227,-149.625,-42.77,67.462,
60077970,0.002,-0.147,1.155,-191.747,-53.34,62.632,
60077980,0.06,-0.217,1.122,-219.765,-62.055,57.575,
60077990,-0.064,-0.427,0.99,-236.967,-73.307,49.63,
60078000,0.303,-0.232,0.917,-191.712,-80.815,43.977,
60078010,0.218,-0.431,0.767,-205.187,-99.365,16.817,
60078020,0.244,-0.799,0.903,-194.495,-97.842,26.722,
60078030,0.652,-0.808,0.858,-147.84,-106.015,17.57,
60078040,0.946,-0.878,0.695,-120.05,-96.582,15.05,
60078050,1.01,-1.123,0.647,-97.072,-63.98,7.525,
60078060,1.051,-1.586,0.84,-91.577,-17.657,8.592,
60078070,0.324,-1.998,1.159,-44.292,25.007,6.492,
60078080,-1.83,-1.998,1.212,81.392,79.695,43.575,
60078090,-0.009,-1.221,-0.774,232.19,160.09,109.602,
60078100,1.75,0.063,-1.346,178.622,202.982,126.105,
60078110,1.998,0.075,-1.769,12.652,176.295,25.742,
60078120,1.676,-0.06,-1.324,-134.54,134.557,-150.115,
60078130,0.612,-0.885,-0.567,-276.412,91.717,-292.005,
60078140,-0.595,-1.098,-0.101,-343.14,36.907,-377.09,
60078150,-1.78,-0.286,0.023,-348.722,-5.39,-370.912,
60078160,-1.99,0.814,0.543,-312.637,2.187,-269.745,
60078170,-1.998,1.857,1.978,-253.96,-46.077,-87.99,
60078170,0.66,0.884,0.714,124.88,35.77,93.677,
60078190,1.991,-1.692,0.506,203.157,282.24,140.35,
60078190,-1.331,-1.633,1.394,397.197,-11.322,-236.67,
60078210,0,1.911,-0.314,278.32,-50.347,-208.722,
60078210,1.857,0.747,0.499,373.94,34.825,-18.392,
60078230,0.332,-0.942,1.949,371.822,40.145,7.315,
60078230,0.802,1.277,1.462,308.28,49.945,36.592,
60078250,0.312,0.452,1.904,188.387,42.822,85.627,
60078250,0.156,0.599,1.815,54.005,9.502,92.767,
60078260,0.129,0.394,1.602,-53.042,-10.045,84.63,
60078270,0.074,0.112,1.384,-152.932,-15.522,68.932,
60078280,0.083,-0.078,1.184,-216.702,-17.99,55.282,
60078290,-0.211,-0.352,1.052,-252.91,-27.002,54.197,
60078300,0.369,0.069,0.883,-214.865,-44.8,27.597,
60078310,-0.104,-0.543,0.981,-265.037,-61.302,16.345,
60078320,0.266,-0.428,0.926,-256.165,-65.397,18.357,
60078330,0.572,-0.509,0.998,-248.465,-57.697,15.89,
60078340,0.868,-0.859,1.314,-238.35,-33.442,11.62,
60078350,0.985,-1.16,1.094,-206.605,3.78,-6.107,
60078360,1.1,-1.292,0.692,-149.38,38.167,-36.522,
60078370,0.609,-1.329,0.686,-111.597,89.127,-48.597,
60078380,-0.949,-1.077,1.714,-68.81,131.092,-50.592,
60078390,-0.918,-0.767,0.177,31.587,129.5,-12.005,
60078400,0.255,0.163,0.413,98.875,115.395,49.297,
60078410,-0.272,0.654,0.56,83.107,10.43,36.312,
60078420,0.762,0.514,0.302,107.73,19.512,11.357,
60078430,1.111,0.757,0.021,76.615,86.555,29.767,
