#Format version: 1.0
time[ms],accX[g],accY[g],accZ[g],Value 1,Value 2,Value 3,
47330350,-0.739,0.191,0.588,-0.7,-10.587,-4.06,
47330360,-0.747,0.215,0.584,-1.067,-10.22,0.245,
47330370,-0.744,0.24,0.617,-0.507,-13.072,2.975,
47330380,-0.773,0.289,0.649,-0.822,-13.055,6.055,
47330390,-0.734,0.285,0.646,-3.237,-12.302,8.032,
47330400,-0.668,0.312,0.654,-4.515,-9.905,10.115,
47330410,-0.644,0.308,0.66,-7.227,-5.337,13.545,
47330420,-0.607,0.276,0.701,-8.032,2.327,16.152,
47330420,-0.65,0.252,0.672,-6.16,15.015,16.625,
47330440,-0.68,0.274,0.616,-3.972,22.33,14.7,
47330440,-0.777,0.278,0.6,-3.692,22.75,13.422,
47330460,-0.788,0.315,0.587,-1.067,18.147,11.357,
47330460,-0.817,0.337,0.576,-0.35,13.195,8.207,
47330480,-0.809,0.326,0.58,-1.662,6.772,4.655,
47330480,-0.771,0.304,0.595,-1.242,1.452,1.61,
47330500,-0.736,0.288,0.603,-1.05,-2.327,-1.172,
47330500,-0.736,0.273,0.62,-0.35,-3.587,-3.29,
47330510,-0.743,0.257,0.615,1.032,-4.095,-5.127,
47330520,-0.745,0.257,0.593,3.01,-3.272,-6.335,
47330530,-0.811,0.245,0.575,5.092,-4.795,-7.647,
47330540,-0.802,0.218,0.557,11.707,-13.93,-11.987,
47330550,-0.742,0.336,0.595,22.575,-23.467,-19.32,
47330560,-0.799,0.356,0.644,18.9,-24.692,-24.167,
47330570,-0.816,0.306,0.612,7,-28.157,-21.49,
47330580,-0.761,0.272,0.601,-0.332,-30.1,-16.1,
47330590,-0.706,0.206,0.61,-3.535,-29.067,-11.042,
47330600,-0.613,0.192,0.585,-2.555,-21.472,-5.705,
47330610,-0.801,0.266,0.695,0.857,-9.852,-2.555,
47330620,-0.614,0.223,0.662,-3.587,-14.997,1.242,
47330630,-0.639,0.217,0.645,-6.475,-8.627,5.355,
47330640,-0.653,0.279,0.651,-5.897,-0.77,13.247,
47330650,-0.669,0.318,0.669,-10.272,4.007,17.85,
47330660,-0.702,0.317,0.67,-14.49,7.315,22.575,
47330670,-0.653,0.371,0.686,-16.152,11.882,22.925,
47330680,-0.76,0.329,0.646,-23.677,22.802,22.715,
47330690,-0.776,0.261,0.589,-26.635,22.137,21.21,
47330700,-0.73,0.263,0.575,-21.332,15.855,20.055,
47330710,-0.741,0.283,0.605,-13.44,12.495,14.875,
47330720,-0.757,0.286,0.617,-8.347,10.01,10.167,
47330730,-0.771,0.264,0.6,-3.745,4.97,4.987,
47330740,-0.747,0.304,0.615,3.325,0.997,-1.032,
47330750,-0.798,0.29,0.608,5.512,-0.595,-4.9,
47330760,-0.813,0.281,0.583,6.51,-4.55,-6.737,
47330770,-0.825,0.259,0.577,8.487,-9.905,-9.065,
47330780,-0.844,0.18,0.537,13.282,-20.142,-13.44,
47330790,-0.739,0.233,0.569,28.07,-33.67,-20.632,
47330800,-0.723,0.292,0.649,36.75,-36.925,-26.215,
47330810,-0.732,0.303,0.684,32.725,-34.265,-25.182,
47330820,-0.653,0.331,0.677,20.702,-30.03,-16.59,
47330830,-0.75,0.249,0.643,4.952,-19.827,-5.897,
47330830,-0.677,0.197,0.614,-0.035,-19.162,-0.507,
47330850,-0.635,0.281,0.652,2.17,-16.625,1.715,
47330850,-0.688,0.281,0.662,-4.515,-11.165,4.725,
47330870,-0.683,0.282,0.658,-10.202,-9.222,9.047,
47330870,-0.671,0.313,0.677,-12.075,-6.947,12.127,
47330890,-0.653,0.325,0.676,-14.507,-2.485,13.807,
47330890,-0.633,0.322,0.67,-16.047,3.08,14.665,
47330910,-0.62,0.329,0.662,-17.5,9.905,15.242,
47330910,-0.558,0.373,0.662,-20.02,18.567,16.642,
47330920,-0.738,0.356,0.648,-30.152,36.855,22.96,
47330930,-0.87,0.19,0.601,-36.155,37.852,23.87,
47330940,-0.719,0.187,0.602,-23.065,25.41,19.547,
47330950,-0.706,0.29,0.632,-9.292,22.312,12.775,
47330960,-0.804,0.234,0.604,-7.105,20.055,8.942,
47330970,-0.772,0.264,0.584,0.56,12.162,3.972,
47330980,-0.832,0.263,0.571,7.052,6.597,-0.507,
47330990,-0.879,0.269,0.574,9.957,-2.327,-3.937,
47331000,-0.874,0.278,0.579,11.62,-12.775,-5.512,
47331010,-0.81,0.25,0.569,13.422,-25.392,-9.117,
47331020,-0.717,0.261,0.614,20.755,-33.512,-14.297,
47331030,-0.68,0.279,0.663,26.81,-31.045,-19.005,
47331040,-0.672,0.279,0.674,25.41,-24.605,-19.67,
47331050,-0.682,0.271,0.645,20.405,-22.277,-16.1,
47331060,-0.674,0.329,0.66,15.942,-16.397,-11.305,
47331070,-0.756,0.258,0.632,7.35,-11.847,-5.757,
47331080,-0.701,0.301,0.624,3.517,-12.25,-2.362,
47331090,-0.701,0.292,0.644,-0.525,-10.517,-0.63,
47331100,-0.676,0.296,0.654,-6.405,-8.785,2.782,
47331110,-0.65,0.292,0.672,-10.482,-5.897,6.597,
47331120,-0.65,0.297,0.676,-13.877,-0.525,10.535,
47331130,-0.658,0.293,0.667,-16.24,4.935,12.67,
47331140,-0.67,0.301,0.659,-16.52,10.517,13.177,
47331150,-0.601,0.386,0.64,-17.482,17.22,13.422,
47331160,-0.839,0.367,0.643,-29.995,29.627,18.025,
47331170,-0.82,0.177,0.574,-36.435,23.537,16.782,
47331170,-0.662,0.263,0.618,-20.51,16.222,12.687,
47331190,-0.715,0.238,0.633,-12.512,16.537,8.015,
47331190,-0.755,0.271,0.626,-7.927,14.367,5.477,
47331210,-0.776,0.23,0.593,-1.662,10.867,1.067,
47331210,-0.774,0.27,0.571,5.617,5.53,-2.432,
47331230,-0.84,0.256,0.576,8.925,-0.297,-3.99,
47331230,-0.841,0.264,0.586,10.92,-9.047,-4.935,
47331250,-0.823,0.244,0.599,12.635,-15.872,-6.475,
47331250,-0.792,0.183,0.596,17.342,-24.482,-10.465,
47331260,-0.599,0.296,0.653,29.645,-31.78,-17.605,
47331270,-0.664,0.411,0.708,25.287,-20.352,-17.325,
47331280,-0.789,0.229,0.609,6.895,-12.757,-9.275,
47331290,-0.68,0.311,0.623,6.282,-15.155,-5.547,
47331300,-0.741,0.271,0.647,2.607,-12.197,-3.552,
47331310,-0.677,0.299,0.642,-1.89,-12.495,-1.557,
47331320,-0.695,0.311,0.668,-6.37,-7.962,0.98,
47331330,-0.669,0.28,0.65,-12.932,-5.215,3.412,
47331340,-0.671,0.292,0.664,-13.58,-0.227,5.372,
47331350,-0.665,0.296,0.668,-14.875,4.147,6.772,
47331360,-0.677,0.29,0.657,-15.452,8.942,8.575,
47331370,-0.636,0.302,0.639,-14.612,13.317,9.345,
47331380,-0.698,0.351,0.655,-19.32,24.815,13.44,
47331390,-0.856,0.174,0.588,-28.805,28.332,18.287,
47331400,-0.634,0.241,0.58,-20.65,21.297,18.287,
47331410,-0.777,0.246,0.63,-13.667,24.727,17.57,
47331420,-0.756,0.211,0.6,-13.755,20.177,16.957,
47331430,-0.736,0.272,0.618,-6.685,15.715,14.875,
47331440,-0.764,0.289,0.616,-4.9,14.35,12.495,
47331450,-0.779,0.296,0.607,-5.302,11.252,11.55,
47331460,-0.757,0.289,0.597,-5.092,8.12,10.395,
47331470,-0.759,0.289,0.597,-3.832,5.495,8.645,
47331480,-0.744,0.3,0.605,-2.012,2.747,6.527,
47331490,-0.751,0.287,0.603,-0.315,0.577,3.797,
47331500,-0.765,0.291,0.604,1.575,-1.662,1.19,
47331510,-0.788,0.277,0.607,2.362,-4.62,-0.665,
47331520,-0.78,0.263,0.602,2.607,-8.295,-2.135,
47331530,-0.772,0.255,0.602,3.552,-11.392,-3.605,
47331540,-0.769,0.252,0.61,4.13,-14.42,-4.55,
47331550,-0.755,0.244,0.615,4.27,-17.027,-4.69,
47331560,-0.819,0.269,0.532,5.075,-21.437,-5.39,
47331570,-0.722,0.378,0.612,6.09,-32.777,-6.982,
47331580,-0.811,0.306,0.683,-1.452,-32.322,-4.147,
47331580,-0.637,0.23,0.661,-3.622,-26.827,-2.677,
47331600,-0.586,0.225,0.666,-2.73,-19.932,1.452,
47331600,-0.6,0.223,0.665,-1.627,-10.412,3.535,
47331620,-0.68,0.259,0.665,1.242,-1.68,5.477,
47331620,-0.725,0.284,0.622,0.875,3.552,7.227,
47331640,-0.753,0.3,0.599,-0.122,3.657,7.28,
47331640,-0.778,0.322,0.61,-1.102,1.627,8.295,
47331660,-0.762,0.344,0.624,-2.817,-1.977,9.082,
47331660,-0.725,0.333,0.632,-5.18,-3.78,8.785,
47331670,-0.625,0.276,0.726,-6.23,-1.172,8.575,
47331680,-0.62,0.165,0.66,-3.622,12.915,9.922,
47331690,-0.62,0.237,0.622,3.85,22.277,11.515,
47331700,-0.716,0.262,0.603,7.525,25.777,12.53,
47331710,-0.773,0.324,0.605,10.972,23.45,11.375,
47331720,-0.806,0.344,0.583,9.205,19.687,9.327,
47331730,-0.825,0.305,0.591,4.987,12.005,7.14,
47331740,-0.773,0.31,0.589,6.037,5.337,5.215,
47331750,-0.774,0.319,0.604,5.722,-0.647,4.41,
47331760,-0.747,0.306,0.594,4.55,-4.655,2.8,
47331770,-0.748,0.298,0.605,3.85,-7.227,1.82,
47331780,-0.742,0.276,0.615,2.152,-7.84,1.382,
47331790,-0.73,0.277,0.615,2.59,-8.172,0.927,
47331800,-0.734,0.285,0.619,2.817,-7.997,1.54,
47331810,-0.754,0.278,0.622,2.852,-9.415,1.732,
47331820,-0.741,0.273,0.62,4.252,-11.392,1.382,
47331830,-0.783,0.261,0.589,5.022,-14.77,0.49,
47331840,-0.765,0.339,0.547,6.352,-26.127,-2.8,
47331850,-0.749,0.446,0.6,4.235,-36.977,-3.255,
47331860,-0.836,0.328,0.622,-5.985,-33.81,-0.087,
47331870,-0.75,0.326,0.606,-9.87,-35.122,3.29,
47331880,-0.685,0.278,0.65,-11.532,-36.837,7.56,
47331890,-0.655,0.265,0.648,-11.182,-33.337,9.152,
47331900,-0.669,0.244,0.659,-6.212,-28.28,10.92,
47331910,-0.666,0.235,0.66,-2.327,-26.81,11.322,
47331920,-0.626,0.271,0.649,3.745,-24.027,10.15,
47331920,-0.677,0.301,0.655,7.735,-20.23,9.275,
47331940,-0.71,0.343,0.657,9.257,-18.042,7.875,
47331940,-0.701,0.353,0.643,8.942,-16.87,7.192,
47331960,-0.671,0.343,0.643,6.79,-15.12,5.757,
47331960,-0.658,0.326,0.65,5.81,-11.305,4.97,
47331980,-0.618,0.263,0.716,6.912,-6.09,3.412,
47331980,-0.605,0.178,0.684,14.595,4.497,1.96,
47332000,-0.588,0.252,0.676,26.302,12.512,2.205,
47332000,-0.685,0.282,0.675,29.89,15.645,1.767,
47332010,-0.683,0.321,0.655,32.48,16.45,0.21,
47332020,-0.741,0.314,0.636,30.152,16.712,-0.385,
47332030,-0.707,0.341,0.599,29.102,12.145,-1.487,
47332040,-0.772,0.368,0.615,26.477,10.237,0.63,
47332050,-0.779,0.359,0.615,21.927,4.427,1.242,
47332060,-0.735,0.367,0.614,19.477,-0.385,2.065,
47332070,-0.694,0.352,0.625,16.485,-3.797,1.96,
47332080,-0.649,0.377,0.629,13.177,-2.187,2.992,
47332090,-0.666,0.348,0.632,9.415,-0.542,3.482,
47332100,-0.643,0.38,0.617,9.607,2.24,2.502,
47332110,-0.708,0.397,0.605,6.597,4.34,2.1,
47332120,-0.768,0.402,0.6,2.187,4.077,2.555,
47332130,-0.767,0.368,0.596,-2.327,-0.63,1.872,
47332140,-0.741,0.337,0.604,-3.447,-5.075,0.735,
47332150,-0.711,0.329,0.618,-2.835,-8.75,0.437,
47332160,-0.692,0.322,0.627,-3.202,-10.412,0.735,
47332170,-0.687,0.31,0.642,-3.465,-11.007,1.452,
47332180,-0.696,0.288,0.67,-3.482,-11.025,0.665,
47332190,-0.609,0.337,0.599,-3.447,-10.167,-0.805,
47332200,-0.721,0.417,0.612,-6.09,-6.562,4.095,
47332210,-0.767,0.386,0.621,-9.8,-8.085,3.29,
47332220,-0.699,0.388,0.61,-10.027,-8.347,1.785,
47332230,-0.717,0.378,0.604,-11.532,-8.995,3.15,
47332240,-0.723,0.409,0.617,-15.627,-10.535,2.747,
47332250,-0.788,0.291,0.62,-20.475,-16.572,0.91,
47332260,-0.695,0.35,0.61,-16.485,-18.917,-0.472,
47332270,-0.74,0.306,0.623,-16.03,-21.227,-1.645,
47332280,-0.682,0.31,0.634,-14.437,-23.782,-2.782,
47332290,-0.667,0.294,0.679,-9.31,-24.57,-2.835,
47332300,-0.615,0.261,0.686,-1.662,-22.75,-4.725,
47332310,-0.574,0.304,0.685,6.65,-17.395,-7.805,
47332320,-0.619,0.332,0.666,10.832,-9.765,-10.395,
47332330,-0.685,0.34,0.634,12.985,-4.725,-12.775,
47332330,-0.722,0.332,0.605,17.587,-5.547,-15.382,
47332350,-0.761,0.33,0.662,23.975,-8.592,-19.32,
47332350,-0.773,0.142,0.73,32.217,-15.155,-22.872,
47332370,-0.49,0.242,0.664,52.132,-19.407,-29.54,
47332370,-0.623,0.297,0.732,57.382,-7.717,-29.627,
47332390,-0.651,0.304,0.665,55.37,-5.425,-28.682,
47332390,-0.652,0.372,0.618,52.797,-0.28,-24.307,
47332410,-0.794,0.361,0.608,44.187,1.137,-22.12,
47332410,-0.742,0.383,0.58,39.392,-5.582,-19.285,
47332420,-0.821,0.373,0.598,35.7,-11.76,-16.642,
47332430,-0.746,0.398,0.602,33.757,-19.792,-15.47,
47332440,-0.708,0.388,0.591,29.61,-23.345,-14.105,
47332450,-0.7,0.377,0.615,25.077,-24.57,-11.217,
47332460,-0.646,0.361,0.624,22.89,-27.3,-10.5,
47332470,-0.587,0.425,0.625,18.97,-22.54,-7.752,
47332480,-0.667,0.397,0.624,9.03,-15.785,-3.587,
47332490,-0.693,0.392,0.653,2.397,-12.81,-0.262,
47332500,-0.663,0.37,0.672,-3.797,-11.865,1.872,
47332510,-0.59,0.367,0.677,-7.262,-10.36,3.692,
47332520,-0.556,0.349,0.671,-10.57,-5.11,8.155,
47332530,-0.552,0.39,0.642,-11.55,1.907,13.405,
47332540,-0.604,0.433,0.636,-18.375,11.935,15.487,
47332550,-0.628,0.434,0.623,-26.757,18.97,12.04,
47332560,-0.698,0.448,0.63,-33.32,25.2,16.485,
47332570,-0.742,0.346,0.618,-42.14,23.415,16.8,
47332580,-0.621,0.437,0.602,-41.142,26.337,16.852,
47332590,-0.728,0.377,0.639,-51.1,30.327,14.647,
47332600,-0.795,0.194,0.625,-53.742,25.672,10.622,
47332610,-0.68,0.246,0.662,-34.597,14.752,3.832,
47332620,-0.696,0.222,0.668,-16.327,9.485,1.75,
47332630,-0.675,0.291,0.661,-0.98,6.177,-3.115,
47332640,-0.688,0.367,0.642,6.615,8.172,-5.897,
47332650,-0.751,0.312,0.598,5.967,8.715,-7.35,
47332660,-0.803,0.327,0.585,8.977,5.232,-9.345,
47332670,-0.843,0.316,0.574,12.88,-1.785,-11.812,
47332670,-0.941,0.226,0.598,16.59,-15.487,-14.7,
47332690,-0.817,0.163,0.615,32.76,-37.52,-21.28,
47332690,-0.614,0.354,0.673,53.952,-47.04,-27.387,
47332710,-0.619,0.367,0.647,53.515,-43.767,-28.035,
47332710,-0.654,0.377,0.671,46.112,-34.072,-24.587,
47332730,-0.671,0.33,0.633,36.242,-32.235,-20.247,
47332730,-0.586,0.372,0.617,31.395,-27.755,-14.647,
47332750,-0.707,0.411,0.595,24.692,-20.877,-8.557,
47332750,-0.74,0.428,0.633,15.172,-18.9,-4.06,
47332760,-0.731,0.413,0.607,5.425,-21.595,0.98,
47332770,-0.675,0.425,0.642,-2.065,-21.63,4.742,
47332780,-0.641,0.363,0.667,-12.197,-20.79,6.982,
47332790,-0.563,0.336,0.678,-15.592,-18.095,10.325,
47332800,-0.513,0.338,0.697,-18.095,-10.325,14.245,
47332810,-0.505,0.339,0.703,-19.617,-0.595,16.695,
47332820,-0.531,0.373,0.672,-20.387,11.952,17.71,
47332830,-0.521,0.508,0.626,-25.795,28.157,20.545,
47332840,-0.77,0.485,0.609,-43.452,41.44,27.947,
47332850,-0.857,0.365,0.564,-56.822,38.027,32.48,
47332860,-0.782,0.369,0.578,-57.645,28,33.81,
47332870,-0.794,0.3,0.623,-56.227,16.537,30.765,
47332880,-0.756,0.251,0.682,-50.697,8.557,23.905,
47332890,-0.695,0.207,0.714,-39.235,-4.235,16.257,
47332900,-0.485,0.261,0.713,-22.102,-6.125,11.655,
47332910,-0.562,0.228,0.707,-10.92,3.29,5.18,
47332920,-0.594,0.283,0.682,0.105,11.812,0.315,
47332930,-0.724,0.326,0.627,6.65,16.135,-2.205,
47332940,-0.813,0.342,0.594,8.032,12.197,-4.55,
47332950,-0.853,0.347,0.59,8.61,1.907,-7.437,
47332960,-0.849,0.336,0.611,9.957,-9.817,-8.767,
47332970,-0.78,0.294,0.63,10.552,-20.65,-9.362,
47332980,-0.735,0.129,0.652,17.762,-30.887,-12.512,
47332990,-0.495,0.251,0.69,40.407,-33.687,-18.165,
47333000,-0.534,0.322,0.701,51.852,-24.045,-21.735,
47333010,-0.653,0.342,0.683,51.257,-15.242,-22.697,
47333020,-0.618,0.438,0.643,46.987,-10.71,-21.385,
47333030,-0.784,0.449,0.598,33.985,-5.425,-14.227,
47333040,-0.737,0.458,0.564,19.722,-8.855,-9.03,
47333050,-0.853,0.455,0.603,5.495,-11.357,-0.577,
47333060,-0.748,0.386,0.61,-8.802,-20.387,3.447,
47333070,-0.679,0.322,0.649,-12.705,-24.01,6.912,
47333080,-0.577,0.329,0.697,-12.827,-24.587,9.59,
47333080,-0.531,0.307,0.702,-14.437,-19.092,11.76,
47333090,-0.515,0.308,0.7,-13.422,-10.552,14.105,
47333100,-0.537,0.342,0.682,-12.092,0.542,15.4,
47333110,-0.542,0.497,0.62,-15.085,13.335,17.185,
47333120,-0.781,0.455,0.631,-32.865,23.8,21.14,
47333130,-0.775,0.368,0.611,-41.947,18.55,23.152,
47333140,-0.694,0.434,0.615,-42.717,14.98,25.97,
47333150,-0.721,0.34,0.65,-47.95,11.532,25.357,
47333160,-0.669,0.285,0.683,-47.705,8.277,23.24,
47333170,-0.578,0.264,0.681,-38.797,7.77,19.11,
47333180,-0.606,0.279,0.715,-29.522,13.527,15.155,
47333190,-0.686,0.153,0.707,-23.012,13.58,10.045,
47333200,-0.538,0.253,0.679,-4.252,13.002,3.64,
47333210,-0.688,0.353,0.659,7.717,18.637,0.945,
47333220,-0.787,0.328,0.616,6.475,15.907,-1.925,
47333230,-0.823,0.354,0.599,9.432,6.737,-4.602,
47333240,-0.818,0.324,0.595,11.935,-4.9,-6.737,
47333250,-0.81,0.245,0.662,14.63,-17.377,-10.027,
47333260,-0.707,0.063,0.665,31.115,-28.017,-16.642,
47333270,-0.501,0.28,0.695,60.672,-28.98,-25.76,
47333280,-0.569,0.324,0.718,66.29,-21.595,-32.655,
47333290,-0.653,0.388,0.649,61.425,-12.792,-33.442,
47333300,-0.652,0.409,0.615,56.35,-7.84,-29.522,
47333310,-0.721,0.44,0.597,48.16,-4.235,-26.092,
47333320,-0.752,0.424,0.602,38.272,-4.305,-22.225,
47333330,-0.789,0.412,0.615,28.157,-9.31,-17.797,
47333340,-0.657,0.427,0.635,20.475,-14.262,-15.242,
47333350,-0.638,0.45,0.636,10.692,-9.852,-10.377,
47333360,-0.65,0.383,0.642,-0.857,-5.145,-6.37,
47333370,-0.58,0.349,0.66,-5.11,0.42,-4.06,
47333380,-0.527,0.341,0.668,-4.112,9.887,-3.202,
47333390,-0.509,0.355,0.696,-4.41,22.662,-2.66,
47333400,-0.544,0.348,0.696,-4.48,37.327,-2.957,
47333410,-0.546,0.381,0.668,-1.54,50.47,-5.932,
47333420,-0.564,0.468,0.681,-5.32,68.092,-7.297,
47333420,-0.71,0.376,0.592,-20.335,82.232,-4.567,
47333440,-0.789,0.322,0.524,-25.515,82.337,2.047,
47333440,-0.938,0.311,0.499,-26.145,68.81,5.827,
47333460,-0.961,0.319,0.523,-20.912,44.555,3.062,
47333460,-0.911,0.34,0.548,-15.715,23.397,-2.747,
47333480,-0.844,0.347,0.562,-14.42,9.047,-6.195,
47333480,-0.822,0.322,0.567,-17.08,0.595,-6.23,
47333500,-0.747,0.318,0.559,-18.217,-5.932,-4.637,
47333500,-0.784,0.303,0.576,-17.902,-7.245,-2.94,
47333510,-0.718,0.266,0.593,-17.517,-10.185,-3.482,
47333520,-0.67,0.273,0.606,-12.635,-7.175,-3.167,
47333530,-0.66,0.287,0.622,-8.295,-1.417,-3.15,
47333540,-0.696,0.273,0.611,-6.072,3.535,-2.275,
47333550,-0.716,0.331,0.597,-2.012,7.455,-1.085,
47333560,-0.775,0.332,0.581,-3.255,8.925,-0.227,
47333570,-0.787,0.333,0.564,-5.32,6.37,0.595,
47333580,-0.779,0.337,0.567,-6.23,3.465,0.787,
47333590,-0.776,0.325,0.584,-8.557,0.21,1.785,
47333600,-0.723,0.306,0.598,-9.012,-1.032,2.24,
47333610,-0.693,0.318,0.609,-6.965,1.137,2.59,
47333620,-0.72,0.312,0.602,-7.297,4.637,3.22,
47333630,-0.742,0.313,0.59,-7.805,4.567,4.357,
47333640,-0.755,0.316,0.579,-7.962,4.375,5.075,
47333650,-0.788,0.315,0.569,-8.61,3.185,5.425,
47333660,-0.793,0.326,0.558,-9.047,-0.192,5.985,
47333670,-0.772,0.322,0.563,-9.817,-3.587,6.072,
47333680,-0.754,0.343,0.589,-10.972,-4.707,6.317,
47333690,-0.75,0.338,0.592,-15.032,-3.517,8.785,
47333700,-0.731,0.325,0.578,-20.947,-2.257,10.745,
47333710,-0.761,0.28,0.574,-24.272,-1.837,12.442,
47333720,-0.755,0.276,0.569,-21.962,-3.272,13.702,
47333730,-0.752,0.295,0.578,-16.852,-4.427,13.265,
47333740,-0.788,0.317,0.593,-14.157,-6.667,11.497,
47333750,-0.73,0.294,0.598,-12.915,-9.94,10.745,
47333760,-0.66,0.392,0.614,-9.345,-7.595,8.347,
47333770,-0.75,0.353,0.617,-14.717,-2.537,7.56,
47333780,-0.736,0.314,0.597,-17.622,-2.012,7.087,
47333780,-0.744,0.33,0.596,-13.772,-2.922,4.357,
47333800,-0.788,0.327,0.595,-12.915,-6.387,2.012,
47333800,-0.782,0.32,0.592,-13.195,-11.287,0.087,
47333820,-0.745,0.302,0.592,-12.022,-14.752,-1.277,
47333820,-0.726,0.288,0.592,-11.497,-15.575,-1.697,
47333830,-0.721,0.273,0.604,-10.43,-16.117,-1.732,
47333840,-0.717,0.267,0.613,-8.242,-15.172,-0.962,
47333850,-0.72,0.287,0.608,-5.985,-14.49,-0.315,
47333860,-0.721,0.288,0.624,-5.845,-13.58,0.577,
47333870,-0.718,0.291,0.603,-5.232,-12.915,1.225,
47333880,-0.739,0.291,0.623,-4.48,-12.197,1.225,
47333890,-0.718,0.296,0.62,-4.725,-12.215,1.155,
47333900,-0.72,0.309,0.617,-4.55,-11.55,1.505,
47333910,-0.729,0.309,0.62,-4.952,-12.215,2.03,
47333920,-0.68,0.323,0.607,-5.495,-10.955,2.1,
47333930,-0.745,0.301,0.641,-6.86,-6.702,4.497,
47333940,-0.701,0.272,0.64,-7.84,-8.085,3.255,
47333950,-0.685,0.262,0.641,-4.847,-8.155,1.365,
47333960,-0.71,0.271,0.634,-2.835,-5.057,0.647,
47333970,-0.739,0.26,0.609,-2.415,-4.935,0.035,
47333980,-0.762,0.267,0.61,-1.907,-7.017,0.805,
47333990,-0.749,0.288,0.621,-2.345,-9.695,2.065,
47334000,-0.722,0.295,0.632,-4.077,-10.115,4.007,
47334010,-0.683,0.293,0.636,-4.76,-8.015,5.565,
47334020,-0.668,0.317,0.647,-4.305,-3.307,6.597,
47334030,-0.684,0.332,0.654,-5.215,2.397,7.087,
47334040,-0.676,0.295,0.686,-6.72,7.752,7.42,
47334050,-0.62,0.205,0.656,-3.78,13.212,6.44,
47334060,-0.611,0.299,0.638,7.122,23.555,5.477,
47334070,-0.749,0.327,0.618,6.72,28.91,6.09,
47334080,-0.813,0.305,0.584,4.06,25.935,6.212,
47334090,-0.805,0.34,0.575,6.212,19.337,4.76,
47334100,-0.798,0.333,0.569,3.587,10.622,2.677,
47334110,-0.773,0.338,0.567,0.927,4.042,2.135,
47334120,-0.783,0.335,0.589,-1.225,-1.61,2.082,
47334130,-0.752,0.316,0.599,-3.115,-5.915,0.77,
47334140,-0.727,0.302,0.607,-3.115,-8.19,-0.35,
47334150,-0.715,0.279,0.62,-3.675,-9.345,-0.665,
47334160,-0.69,0.258,0.627,-2.24,-8.872,-1.207,
47334170,-0.709,0.281,0.621,-1.05,-6.002,-0.7,
47334170,-0.739,0.291,0.614,-1.802,-5.407,-0.682,
47334190,-0.766,0.317,0.571,-2.362,-6.842,-2.17,
47334190,-0.86,0.519,0.499,-6.107,-12.652,-4.375,
47334210,-1.011,0.381,0.57,-21.805,-34.16,-9.537,
47334210,-0.806,0.303,0.613,-21.84,-50.855,-15.855,
47334230,-0.619,0.254,0.681,-17.797,-52.587,-16.065,
47334230,-0.56,0.21,0.678,-19.18,-45.045,-12.582,
47334250,-0.593,0.161,0.695,-11.375,-30.24,-8.207,
47334250,-0.61,0.208,0.7,-3.377,-18.952,-5.53,
47334260,-0.657,0.227,0.667,-0.455,-8.627,-4.602,
47334270,-0.732,0.266,0.638,2.1,-4.147,-2.835,
47334280,-0.766,0.31,0.616,2.782,-5.075,-1.137,
47334290,-0.779,0.335,0.617,2.187,-9.467,-0.437,
47334300,-0.729,0.313,0.628,0.577,-13.02,-0.21,
47334310,-0.678,0.3,0.643,0.297,-13.265,1.172,
47334320,-0.632,0.245,0.733,-0.402,-8.487,2.87,
47334330,-0.567,0.117,0.717,3.972,0.332,3.692,
47334340,-0.456,0.302,0.691,16.765,19.46,4.865,
47334350,-0.702,0.269,0.689,11.077,34.597,7.437,
47334360,-0.708,0.3,0.61,9.065,34.58,9.345,
47334370,-0.773,0.337,0.597,10.15,30.922,8.907,
47334380,-0.77,0.298,0.598,6.72,22.942,6.562,
47334390,-0.752,0.362,0.586,8.82,17.955,4.497,
47334400,-0.812,0.368,0.6,3.377,11.2,5.302,
47334410,-0.763,0.347,0.602,-2.187,3.272,3.5,
47334420,-0.73,0.327,0.635,-2.765,-1.172,1.172,
47334430,-0.687,0.276,0.633,-5.512,-2.59,-0.192,
47334440,-0.66,0.235,0.642,-4.06,-0.787,-1.312,
47334450,-0.688,0.245,0.629,-1.435,3.762,-0.437,
47334460,-0.748,0.256,0.619,-0.612,5.845,0.192,
47334470,-0.787,0.278,0.616,0.052,3.762,-0.577,
47334480,-0.811,0.372,0.49,-0.105,-2.205,-2.1,
47334490,-0.935,0.417,0.56,-6.51,-19.145,-5.092,
47334500,-0.895,0.325,0.575,-11.077,-35.35,-12.04,
47334510,-0.746,0.336,0.63,-8.61,-44.205,-16.415,
47334510,-0.71,0.213,0.687,-12.267,-44.625,-14.087,
47334530,-0.582,0.208,0.661,-6.492,-37.66,-11.445,
47334530,-0.6,0.24,0.693,0.28,-29.61,-9.957,
47334550,-0.622,0.208,0.693,1.19,-19.39,-7.192,
47334550,-0.652,0.239,0.664,6.912,-8.312,-4.9,
47334570,-0.692,0.282,0.635,7.49,-0.84,-1.715,
47334570,-0.753,0.286,0.619,5.267,0.07,1.085,
47334580,-0.753,0.312,0.64,4.217,-2.205,2.152,
47334590,-0.729,0.312,0.649,1.505,-4.585,2.52,
47334600,-0.681,0.309,0.661,-0.63,-3.99,2.695,
47334610,-0.631,0.272,0.699,-2.117,-0.612,3.482,
47334620,-0.559,0.238,0.698,-0.175,8.697,4.375,
47334630,-0.604,0.268,0.676,4.042,20.685,5.88,
47334640,-0.682,0.245,0.656,5.74,34.195,4.917,
47334650,-0.767,0.296,0.643,8.032,29.942,7.525,
47334660,-0.702,0.301,0.599,6.072,26.582,7.98,
47334670,-0.763,0.334,0.613,4.515,23.992,6.212,
47334680,-0.749,0.282,0.606,3.675,18.427,6.352,
47334690,-0.705,0.29,0.589,6.09,16.065,4.812,
47334700,-0.74,0.371,0.598,8.452,13.387,3.832,
47334710,-0.779,0.374,0.619,2.432,8.802,3.867,
47334720,-0.753,0.327,0.616,-2.432,5.075,2.205,
47334730,-0.706,0.311,0.613,-2.817,3.08,0.63,
47334740,-0.712,0.257,0.62,-5.162,2.38,0.647,
47334750,-0.695,0.234,0.638,-3.85,2.957,1.067,
47334760,-0.717,0.243,0.634,-2.94,4.497,1.522,
47334770,-0.747,0.237,0.608,-5.127,4.13,1.837,
47334780,-0.793,0.349,0.476,-6.545,-1.627,2.135,
47334790,-0.933,0.398,0.561,-13.615,-17.657,0.577,
47334800,-0.914,0.369,0.579,-18.357,-29.872,-5.67,
47334810,-0.865,0.357,0.598,-21.017,-40.285,-8.225,
47334820,-0.794,0.26,0.613,-25.97,-48.37,-6.58,
47334830,-0.649,0.185,0.646,-22.12,-51.012,-5.005,
47334840,-0.601,0.168,0.676,-13.247,-44.835,-1.242,
47334850,-0.606,0.201,0.667,-6.702,-34.947,2.607,
47334860,-0.614,0.186,0.665,-0.437,-26.88,3.78,
47334870,-0.658,0.267,0.657,7.84,-17.902,5.337,
47334880,-0.721,0.31,0.65,10.57,-13.947,4.427,
47334890,-0.745,0.324,0.65,9.52,-13.93,4.497,
47334900,-0.729,0.321,0.666,8.505,-15.33,4.567,
47334910,-0.694,0.264,0.686,7.157,-13.842,5.215,
47334920,-0.613,0.204,0.69,11.567,-7.49,6.195,
47334920,-0.552,0.232,0.698,20.982,2.887,6.37,
47334940,-0.606,0.243,0.694,26.635,13.002,7.385,
47334940,-0.653,0.279,0.677,30.275,18.987,6.93,
47334960,-0.681,0.356,0.647,30.887,19.687,6.51,
47334960,-0.773,0.343,0.629,25.602,19.635,7.402,
47334980,-0.756,0.287,0.628,21.682,13.282,6.265,
47334980,-0.682,0.33,0.615,24.377,9.537,4.06,
47335000,-0.695,0.396,0.61,22.347,9.887,4.06,
47335000,-0.749,0.4,0.615,12.407,9.222,4.812,
47335010,-0.745,0.343,0.629,4.462,4.585,2.94,
47335020,-0.687,0.337,0.615,3.097,2.345,1.032,
47335030,-0.69,0.342,0.6,0.717,1.312,0.945,
47335040,-0.73,0.301,0.636,-2.817,-0.245,1.155,
47335050,-0.687,0.29,0.647,-2.03,-0.892,0.122,
47335060,-0.676,0.287,0.648,-2.887,0.472,0.297,
47335070,-0.67,0.284,0.648,-6.107,1.61,1.172,
47335080,-0.654,0.388,0.557,-8.575,4.69,2.362,
47335090,-0.824,0.498,0.557,-21.157,2.345,4.935,
47335100,-0.923,0.419,0.592,-36.085,-8.837,1.137,
47335110,-0.815,0.329,0.624,-37.187,-19.617,-3.675,
47335120,-0.69,0.317,0.646,-32.987,-24.745,-5.267,
47335130,-0.667,0.253,0.655,-31.867,-23.782,-4.48,
47335140,-0.661,0.195,0.69,-26.635,-19.39,-1.172,
47335150,-0.595,0.228,0.678,-16.992,-11.13,0.875,
47335160,-0.645,0.203,0.644,-11.217,-3.15,2.24,
47335170,-0.685,0.248,0.637,-4.97,1.89,3.99,
47335180,-0.738,0.259,0.645,0.385,2.747,5.372,
47335190,-0.713,0.27,0.64,4.795,1.067,4.725,
47335200,-0.714,0.275,0.631,11.515,0.805,3.412,
47335210,-0.737,0.337,0.624,15.732,-0.175,3.395,
47335220,-0.751,0.356,0.636,13.597,-2.38,3.867,
47335230,-0.743,0.245,0.676,11.2,-1.032,4.147,
47335240,-0.625,0.145,0.666,21.945,2.572,2.957,
47335250,-0.586,0.219,0.682,39.69,8.277,1.89,
47335260,-0.633,0.271,0.681,48.982,11.357,1.015,
47335260,-0.706,0.38,0.624,48.667,12.302,2.45,
47335280,-0.747,0.415,0.576,36.75,8.312,3.85,
47335280,-0.771,0.427,0.606,23.782,7.245,4.952,
47335300,-0.712,0.417,0.577,11.707,5.285,5.075,
47335300,-0.739,0.392,0.596,2.467,2.73,4.83,
47335320,-0.724,0.374,0.622,-2.187,-1.47,2.87,
47335320,-0.704,0.347,0.638,-2.747,-2.957,0.997,
47335330,-0.674,0.318,0.632,-2.537,-2.87,-0.542,
47335340,-0.682,0.295,0.609,-1.645,-1.015,-1.085,
47335350,-0.714,0.291,0.598,-0.192,-0.525,-0.385,
47335360,-0.743,0.297,0.611,-0.367,-1.085,0.665,
47335370,-0.751,0.295,0.618,-2.222,-3.972,2.1,
47335380,-0.727,0.388,0.563,-5.635,-6.825,4.322,
47335390,-0.865,0.474,0.558,-19.022,-11.62,6.86,
47335400,-0.916,0.413,0.579,-36.067,-26.845,5.232,
47335410,-0.754,0.374,0.596,-40.722,-38.762,3.342,
47335420,-0.659,0.306,0.655,-39.777,-39.585,2.975,
47335430,-0.596,0.265,0.682,-37.327,-35.192,3.202,
47335440,-0.566,0.263,0.704,-31.185,-26.6,3.955,
47335450,-0.599,0.238,0.711,-23.625,-17.465,5.355,
47335460,-0.583,0.28,0.689,-16.205,-9.415,5.635,
47335470,-0.656,0.262,0.664,-13.807,-2.502,6.247,
47335480,-0.712,0.256,0.653,-10.185,-0.297,6.772,
47335490,-0.68,0.318,0.648,-4.41,-0.892,5.967,
47335500,-0.697,0.297,0.644,-3.552,-0.437,6.475,
47335510,-0.702,0.308,0.647,-0.7,-0.332,6.72,
47335520,-0.692,0.324,0.684,4.077,1.89,6.842,
47335530,-0.695,0.253,0.682,7.052,8.295,6.317,
47335540,-0.651,0.231,0.664,15.015,11.602,4.55,
47335550,-0.654,0.205,0.659,26.915,13.475,1.277,
47335560,-0.705,0.283,0.651,35.437,11.795,-1.96,
47335570,-0.719,0.274,0.644,39.9,8.977,-6.772,
47335580,-0.729,0.393,0.627,39.725,4.707,-7.7,
47335590,-0.702,0.443,0.587,28.367,-0.507,-5.022,
47335600,-0.803,0.419,0.594,13.282,-1.05,-0.332,
47335610,-0.717,0.368,0.598,2.992,-7.157,0.752,
47335620,-0.671,0.356,0.632,-0.455,-9.135,0.017,
47335630,-0.64,0.309,0.667,-4.34,-7.577,-0.735,
47335640,-0.608,0.322,0.677,-4.55,-4.917,0.35,
47335650,-0.632,0.318,0.668,-7.42,-0.315,1.732,
47335660,-0.653,0.322,0.657,-10.062,2.152,2.205,
47335670,-0.649,0.456,0.564,-14.892,5.285,3.01,
47335670,-0.823,0.453,0.584,-31.22,2.117,4.585,
47335690,-0.841,0.41,0.574,-42.28,-7.227,1.365,
47335690,-0.785,0.373,0.612,-42.507,-18.392,-1.645,
47335710,-0.695,0.278,0.695,-40.075,-22.47,-1.295,
47335710,-0.616,0.207,0.703,-33.232,-19.46,-0.385,
47335730,-0.616,0.164,0.705,-21.402,-13.632,0.752,
47335730,-0.58,0.18,0.693,-8.067,-6.317,1.277,
47335750,-0.648,0.214,0.641,2.975,0.91,1.33,
47335750,-0.766,0.326,0.622,10.447,2.607,1.82,
47335760,-0.824,0.349,0.611,8.75,-1.645,2.03,
47335770,-0.809,0.352,0.639,4.97,-10.15,2.345,
47335780,-0.723,0.172,0.693,5.897,-15.19,-0.525,
47335790,-0.471,0.245,0.705,22.89,-8.732,-4.112,
47335800,-0.614,0.244,0.732,31.797,4.41,-3.727,
47335810,-0.56,0.277,0.699,37.747,12.215,-4.445,
47335820,-0.655,0.313,0.638,40.547,17.815,-4.9,
47335830,-0.709,0.398,0.579,35.455,17.29,-2.992,
47335840,-0.852,0.402,0.563,22.785,12.775,0.157,
47335850,-0.834,0.405,0.589,14.892,1.557,1.382,
47335860,-0.779,0.35,0.598,10.64,-8.102,0.245,
47335870,-0.707,0.33,0.608,8.242,-13.475,-0.542,
47335880,-0.707,0.295,0.642,6.632,-15.645,-1.19,
47335890,-0.677,0.292,0.661,7.245,-16.362,-1.137,
47335900,-0.635,0.313,0.655,7.665,-14.227,-0.77,
47335910,-0.63,0.34,0.659,4.62,-10.202,0.017,
47335920,-0.643,0.345,0.657,1.435,-6.37,-0.997,
47335930,-0.637,0.384,0.662,-1.557,-3.027,-0.84,
47335940,-0.661,0.42,0.639,-8.837,-0.875,1.54,
47335950,-0.65,0.45,0.634,-18.042,1.26,3.92,
47335960,-0.67,0.437,0.644,-28.84,4.06,6.93,
47335970,-0.669,0.414,0.639,-37.852,8.907,8.785,
47335980,-0.711,0.41,0.629,-45.465,13.16,10.64,
47335990,-0.786,0.285,0.602,-51.275,13.282,11.392,
47336000,-0.796,0.203,0.618,-44.817,6.702,11.9,
47336010,-0.718,0.17,0.639,-30.03,-1.767,8.47,
47336010,-0.625,0.204,0.655,-15.26,-7.437,4.095,
47336030,-0.658,0.246,0.653,-7.017,-4.9,3.675,
47336030,-0.716,0.28,0.654,-3.43,-3.325,3.22,
47336050,-0.725,0.329,0.649,-2.24,-3.185,2.87,
47336050,-0.759,0.355,0.636,-5.39,-6.492,2.905,
47336070,-0.767,0.35,0.632,-8.872,-12.582,1.487,
47336070,-0.708,0.329,0.662,-8.977,-19.057,-1.277,
47336080,-0.655,0.315,0.674,-7.647,-19.442,-2.537,
47336090,-0.622,0.275,0.677,-5.565,-16.397,-3.727,
47336100,-0.615,0.26,0.675,-1.47,-10.027,-3.325,
47336110,-0.628,0.279,0.665,1.75,-4.812,-2.1,
47336120,-0.661,0.282,0.658,2.362,-0.262,-0.962,
47336130,-0.714,0.293,0.644,3.395,0.98,-0.122,
47336140,-0.738,0.311,0.642,4.655,-1.172,-0.28,
47336150,-0.734,0.334,0.655,4.217,-4.987,-0.752,
47336160,-0.723,0.307,0.651,1.627,-7.087,-0.297,
47336170,-0.661,0.287,0.649,1.365,-8.837,-0.262,
47336180,-0.649,0.294,0.672,3.885,-7.297,0.472,
47336190,-0.665,0.257,0.677,5.495,-4.83,0.857,
47336200,-0.616,0.27,0.681,10.342,-2.467,0.857,
47336210,-0.645,0.274,0.676,14.315,2.782,1.627,
47336220,-0.647,0.307,0.669,15.662,6.772,2.747,
47336230,-0.705,0.325,0.667,14.577,10.745,3.955,
47336240,-0.708,0.341,0.641,12.967,9.765,3.29,
47336250,-0.717,0.358,0.648,10.307,8.312,2.817,
47336260,-0.701,0.345,0.635,6.037,6.387,2.432,
47336270,-0.697,0.357,0.622,2.45,5.495,2.835,
47336280,-0.717,0.342,0.636,-0.735,2.782,2.502,
47336290,-0.707,0.328,0.638,-1.925,0.472,1.277,
47336300,-0.696,0.302,0.648,-1.295,-1.925,-0.735,
47336310,-0.675,0.281,0.65,-0.192,-1.785,-2.485,
47336320,-0.698,0.286,0.648,1.067,-1.225,-2.73,
47336330,-0.693,0.345,0.606,0.84,-0.77,-2.607,
47336340,-0.787,0.405,0.59,-4.952,-4.147,-1.697,
47336350,-0.826,0.406,0.611,-13.615,-13.72,-3.902,
47336360,-0.787,0.381,0.596,-17.885,-24.517,-8.12,
47336370,-0.766,0.397,0.63,-20.562,-33.477,-11.602,
47336380,-0.709,0.309,0.697,-24.535,-37.712,-13.107,
47336390,-0.632,0.291,0.678,-21.7,-35.892,-12.757,
47336400,-0.62,0.335,0.694,-18.217,-32.725,-12.6,
47336410,-0.604,0.256,0.713,-20.16,-27.895,-12.985,
47336420,-0.602,0.281,0.706,-16.047,-21.28,-11.97,
47336420,-0.607,0.296,0.694,-13.387,-15.662,-11.567,
47336440,-0.614,0.301,0.707,-13.405,-10.657,-10.15,
47336440,-0.627,0.245,0.727,-13.72,-5.757,-8.995,
47336460,-0.617,0.213,0.702,-9.327,0.525,-9.45,
47336460,-0.621,0.221,0.684,-5.81,5.057,-8.365,
47336480,-0.664,0.214,0.667,-3.85,7.227,-6.755,
47336480,-0.711,0.233,0.658,-1.067,7.472,-6.335,
47336490,-0.756,0.249,0.648,0.192,4.917,-5.95,
47336500,-0.751,0.252,0.635,0.087,-1.032,-5.687,
47336510,-0.719,0.255,0.655,1.592,-7.63,-6.527,
47336520,-0.718,0.259,0.677,3.71,-10.815,-8.207,
47336530,-0.666,0.286,0.683,4.585,-13.755,-9.52,
47336540,-0.653,0.286,0.69,3.377,-12.792,-9.082,
47336550,-0.647,0.285,0.699,0.595,-9.94,-6.667,
47336560,-0.667,0.257,0.688,-1.732,-6.982,-3.92,
47336570,-0.665,0.261,0.676,-0.997,-6.16,-3.185,
47336580,-0.679,0.265,0.672,0.402,-6.825,-2.345,
47336590,-0.694,0.275,0.67,1.575,-8.102,-2.327,
47336600,-0.697,0.28,0.665,3.727,-9.94,-4.095,
47336610,-0.705,0.298,0.679,4.182,-11.375,-5.897,
47336620,-0.663,0.287,0.681,1.75,-11.427,-5.547,
47336630,-0.68,0.261,0.688,-2.065,-8.575,-2.52,
47336640,-0.63,0.213,0.659,-4.55,-6.09,0.227,
47336650,-0.73,0.277,0.726,-2.852,-5.845,1.82,
47336660,-0.572,0.248,0.696,-6.37,-9.852,5.932,
47336670,-0.645,0.253,0.696,-7.035,-4.34,8.33,
47336680,-0.611,0.277,0.71,-5.88,-1.732,8.907,
47336690,-0.616,0.277,0.706,-7.105,1.732,10.5,
47336700,-0.556,0.292,0.734,-8.33,6.265,12.985,
47336710,-0.657,0.255,0.712,-11.83,17.465,18.48,
47336720,-0.653,0.227,0.652,-11.165,19.057,18.427,
47336730,-0.626,0.309,0.698,-7.245,18.13,18.935,
47336740,-0.74,0.274,0.684,-8.645,19.722,17.412,
47336750,-0.719,0.316,0.658,-5.355,15.47,12.11,
47336760,-0.828,0.296,0.637,-2.905,8.085,7.805,
47336760,-0.752,0.329,0.649,-0.525,-3.325,2.205,
47336780,-0.776,0.302,0.671,0.91,-9.695,-1.925,
47336780,-0.722,0.277,0.655,-0.402,-14.665,-4.672,
47336800,-0.687,0.245,0.657,0.122,-17.745,-6.545,
47336800,-0.69,0.217,0.64,2.24,-18.812,-7.262,
47336820,-0.716,0.232,0.649,7.542,-22.68,-8.925,
47336820,-0.721,0.23,0.671,13.825,-26.81,-12.145,
47336830,-0.704,0.262,0.689,20.895,-30.205,-17.255,
47336840,-0.644,0.338,0.736,19.862,-30.607,-18.76,
47336850,-0.691,0.25,0.7,9.065,-28.122,-14.49,
47336860,-0.559,0.261,0.699,5.127,-24.482,-10.85,
47336870,-0.589,0.19,0.682,2.835,-10.745,-6.65,
47336880,-0.743,0.341,0.77,1.365,-8.592,-1.225,
47336890,-0.509,0.263,0.72,-6.982,-13.142,4.83,
47336900,-0.558,0.263,0.694,-7.087,-1.557,7.122,
47336910,-0.655,0.359,0.771,-3.867,3.605,7.297,
47336920,-0.533,0.305,0.721,-9.17,5.25,10.92,
47336930,-0.525,0.314,0.762,-10.115,16.712,12.057,
47336940,-0.68,0.239,0.72,-13.492,32.305,15.382,
47336950,-0.637,0.185,0.649,-13.107,36.032,14.105,
47336960,-0.655,0.205,0.663,-4.042,33.495,12.162,
47336970,-0.634,0.233,0.668,1.837,34.632,10.972,
47336980,-0.645,0.209,0.703,5.915,39.462,8.802,
47336990,-0.663,0.146,0.68,11.83,48.65,7,
47337000,-0.728,0.151,0.698,20.982,50.54,6.457,
47337010,-0.706,0.145,0.701,29.47,55.44,6.37,
47337020,-0.757,0.142,0.681,39.585,59.29,2.87,
47337030,-0.745,0.176,0.675,50.26,56.945,-1.89,
47337040,-0.777,0.201,0.652,59.132,49.245,-7.28,
47337050,-0.736,0.242,0.659,64.785,41.002,-14.595,
47337060,-0.722,0.244,0.682,69.02,43.592,-17.22,
47337070,-0.782,0.239,0.688,71.732,48.737,-17.902,
47337080,-0.806,0.212,0.673,71.382,45.675,-22.47,
47337090,-0.81,0.183,0.656,70.402,36.68,-25.322,
47337100,-0.805,0.185,0.64,70.735,23.66,-27.807,
47337110,-0.777,0.185,0.619,71.137,13.195,-32.375,
47337120,-0.753,0.194,0.587,72.065,6.3,-37.292,
47337130,-0.745,0.235,0.562,72.257,4.76,-40.407,
47337140,-0.761,0.27,0.522,70.595,6.02,-42.21,
47337150,-0.797,0.307,0.488,66.465,9.677,-42.49,
47337160,-0.845,0.343,0.458,60.567,11.392,-40.442,
47337170,-0.88,0.366,0.43,51.677,10.885,-36.295,
47337170,-0.939,0.38,0.396,41.772,5.722,-30.555,
47337180,-0.949,0.388,0.375,33.722,-5.197,-25.55,
47337190,-0.897,0.419,0.365,28.227,-20.597,-20.632,
47337200,-0.84,0.456,0.36,23.817,-34.16,-14.577,
47337210,-0.768,0.496,0.377,20.352,-42.42,-8.732,
47337220,-0.75,0.524,0.399,17.132,-41.702,-4.025,
47337230,-0.754,0.526,0.434,15.47,-36.19,-2.222,
47337240,-0.76,0.531,0.474,16.24,-30.362,-2.8,
47337250,-0.735,0.533,0.502,16.957,-26.897,-4.287,
47337260,-0.703,0.523,0.513,16.922,-25.165,-4.655,
47337270,-0.682,0.526,0.527,17.115,-25.06,-3.377,
47337280,-0.707,0.551,0.552,15.417,-27.44,-0.192,
47337290,-0.735,0.491,0.555,9.73,-33.302,3.167,
47337300,-0.748,0.446,0.554,3.482,-37.765,0.035,
47337310,-0.761,0.409,0.562,-3.202,-40.757,-6.755,
47337320,-0.772,0.348,0.583,-5.022,-43.855,-8.592,
47337330,-0.783,0.316,0.593,-2.8,-47.267,-9.31,
47337340,-0.803,0.253,0.594,4.882,-50.837,-9.59,
47337350,-0.84,0.196,0.589,18.497,-58.17,-11.13,
47337360,-0.767,0.223,0.629,37.275,-70.752,-13.142,
47337370,-0.623,0.293,0.649,50.347,-76.72,-17.675,
47337380,-0.534,0.339,0.647,53.357,-70.14,-23.695,
47337390,-0.535,0.355,0.645,50.767,-51.012,-23.957,
47337400,-0.586,0.392,0.655,47.162,-29.277,-20.02,
47337410,-0.626,0.401,0.634,40.495,-11.935,-14.63,
47337420,-0.589,0.405,0.596,32.62,0.892,-9.66,
47337430,-0.594,0.456,0.571,22.785,17.29,-2.87,
47337440,-0.659,0.552,0.588,6.772,32.165,5.425,
47337450,-0.726,0.505,0.558,-18.445,40.547,12.827,
47337460,-0.813,0.465,0.499,-38.202,39.06,25.13,
47337470,-0.833,0.466,0.491,-51.8,31.447,33.18,
47337480,-0.824,0.427,0.501,-62.072,23.747,36.417,
47337490,-0.794,0.413,0.531,-64.435,19.407,40.722,
47337500,-0.751,0.391,0.545,-64.767,17.71,42.525,
47337510,-0.736,0.374,0.571,-63.07,19.337,41.02,
47337510,-0.728,0.336,0.59,-60.007,19.285,36.225,
47337530,-0.642,0.304,0.549,-53.025,18.655,30.905,
47337530,-0.668,0.32,0.597,-42.28,21.42,28.192,
47337550,-0.713,0.366,0.606,-37.012,26.512,25.62,
47337550,-0.737,0.343,0.594,-35.122,28.367,22.907,
47337570,-0.756,0.343,0.574,-32.935,28.612,22.277,
47337570,-0.782,0.355,0.575,-30.502,25.777,22.032,
47337580,-0.803,0.359,0.576,-30.73,20.002,20.142,
47337590,-0.773,0.342,0.565,-31.657,12.897,17.325,
47337600,-0.739,0.334,0.567,-31.692,8.732,15.75,
47337610,-0.76,0.315,0.574,-30.642,6.86,15.487,
47337620,-0.786,0.283,0.587,-26.057,4.462,12.512,
47337630,-0.776,0.267,0.608,-17.22,-1.19,6.037,
47337640,-0.719,0.28,0.627,-6.405,-7.892,-0.175,
47337650,-0.669,0.307,0.641,1.995,-10.57,-5.215,
47337660,-0.664,0.334,0.657,5.722,-7.98,-9.835,
47337670,-0.716,0.313,0.647,4.515,-7.717,-15.05,
47337680,-0.749,0.296,0.629,2.257,-13.755,-21.087,
47337690,-0.735,0.297,0.612,1.382,-19.6,-24.92,
47337700,-0.756,0.292,0.608,1.347,-21.717,-25.077,
47337710,-0.751,0.322,0.594,0.192,-20.387,-23.415,
47337720,-0.763,0.236,0.585,0.98,-19.582,-16.187,
47337730,-0.749,0.321,0.597,0.717,-17.675,-15.697,
47337740,-0.733,0.291,0.588,-1.68,-18.41,-13.212,
47337750,-0.766,0.337,0.579,-7.472,-19.88,-9.345,
47337760,-0.796,0.342,0.58,-12.792,-24.797,-6.527,
47337770,-0.769,0.321,0.612,-16.065,-31.377,-6.965,
47337780,-0.722,0.285,0.648,-16.012,-30.87,-4.497,
47337790,-0.678,0.278,0.629,-11.777,-27.422,-2.87,
47337800,-0.64,0.299,0.642,-7.892,-23.852,-2.73,
47337810,-0.702,0.324,0.637,-9.065,-19.495,-0.122,
47337820,-0.73,0.323,0.622,-12.582,-19.915,2.625,
47337830,-0.726,0.313,0.628,-14.822,-21.07,4.585,
47337840,-0.684,0.319,0.646,-15.575,-20.93,6.23,
47337850,-0.665,0.371,0.664,-18.917,-13.72,9.887,
47337850,-0.734,0.271,0.645,-25.987,-7.087,14,
47337870,-0.62,0.217,0.663,-21.63,-5.127,14.437,
47337870,-0.591,0.284,0.686,-13.615,1.032,15.032,
47337890,-0.616,0.269,0.672,-12.897,8.155,13.107,
47337890,-0.61,0.284,0.66,-9.975,15.54,11.112,
47337910,-0.704,0.302,0.634,-7.805,21.507,11.55,
47337910,-0.782,0.294,0.602,-5.547,18.252,9.747,
47337920,-0.773,0.33,0.602,-0.07,10.797,6.002,
47337930,-0.831,0.336,0.589,4.182,2.292,1.89,
47337940,-0.818,0.327,0.583,6.545,-8.155,-1.925,
47337950,-0.815,0.31,0.597,8.54,-18.165,-4.742,
47337960,-0.81,0.275,0.59,10.237,-27.142,-6.282,
47337970,-0.732,0.289,0.61,14.122,-40.617,-9.45,
47337980,-0.675,0.394,0.677,14.927,-45.657,-10.675,
47337990,-0.7,0.35,0.691,4.812,-41.09,-9.012,
47338000,-0.662,0.293,0.662,-5.075,-37.94,-3.71,
47338010,-0.659,0.27,0.688,-7.227,-34.632,0.49,
47338020,-0.638,0.25,0.674,-5.337,-28.892,2.87,
47338030,-0.624,0.285,0.671,-4.252,-24.22,5.495,
47338040,-0.642,0.283,0.675,-5.46,-18.672,7.157,
47338050,-0.615,0.301,0.665,-5.95,-13.317,8.312,
47338060,-0.612,0.341,0.669,-5.775,-7.087,10.71,
47338070,-0.583,0.356,0.712,-8.26,1.802,11.812,
47338080,-0.59,0.282,0.737,-10.832,16.38,14.332,
47338090,-0.58,0.261,0.678,-7.892,31.622,15.627,
47338100,-0.614,0.299,0.653,-6.107,33.705,15.627,
47338110,-0.641,0.304,0.649,-5.197,32.025,15.68,
47338120,-0.682,0.341,0.657,-2.432,31.972,13.86,
47338130,-0.748,0.313,0.615,-1.155,30.66,10.552,
47338140,-0.778,0.33,0.615,1.155,23.905,8.487,
47338150,-0.808,0.316,0.604,3.167,15.19,7.157,
47338160,-0.774,0.338,0.613,5.565,4.567,4.602,
47338170,-0.746,0.312,0.637,4.55,-1.592,1.575,
47338180,-0.698,0.29,0.645,2.782,-3.552,0.682,
47338190,-0.672,0.298,0.646,1.627,-2.852,1.75,
47338200,-0.69,0.302,0.649,0.14,-2.205,2.222,
47338210,-0.724,0.318,0.652,-1.242,-2.52,1.89,
47338220,-0.742,0.331,0.637,-3.185,-6.037,0.262,
47338230,-0.784,0.4,0.532,-5.547,-12.932,-1.645,
47338240,-0.806,0.414,0.634,-10.482,-25.637,-4.847,
47338250,-0.796,0.343,0.645,-12.827,-28.402,-7.157,
47338260,-0.653,0.306,0.662,-13.037,-31.482,-5.547,
47338260,-0.633,0.277,0.682,-13.422,-28.91,-2.887,
47338280,-0.614,0.257,0.703,-12.74,-24.115,-1.015,
47338280,-0.589,0.226,0.705,-8.347,-16.222,0.105,
47338300,-0.568,0.255,0.67,-1.907,-6.335,1.312,
47338300,-0.643,0.294,0.65,1.487,2.187,2.1,
47338320,-0.716,0.328,0.65,2.572,5.04,3.01,
47338320,-0.72,0.357,0.66,2.59,4.147,4.585,
47338330,-0.709,0.325,0.684,0.682,4.287,6.037,
47338340,-0.675,0.279,0.68,-0.437,7.192,7.717,
47338350,-0.62,0.269,0.649,1.645,9.1,8.837,
47338360,-0.627,0.278,0.665,6.317,13.615,8.015,
47338370,-0.648,0.295,0.649,9.94,17.255,5.617,
47338380,-0.707,0.307,0.634,11.007,16.572,6.685,
47338390,-0.738,0.327,0.638,10.657,13.09,7.192,
47338400,-0.74,0.325,0.637,10.202,8.872,7.087,
47338410,-0.723,0.319,0.627,10.167,4.812,6.65,
47338420,-0.696,0.329,0.631,10.675,0.98,5.67,
47338430,-0.696,0.332,0.615,10.325,-1.172,4.34,
47338440,-0.725,0.35,0.634,8.172,-4.095,4.007,
47338450,-0.721,0.323,0.653,5.162,-6.405,3.22,
47338460,-0.679,0.316,0.657,4.987,-7.315,3.115,
47338470,-0.649,0.311,0.671,5.267,-6.527,3.325,
47338480,-0.622,0.309,0.674,5.705,-4.9,1.715,
47338490,-0.628,0.312,0.673,6.545,-1.977,0,
47338500,-0.665,0.319,0.661,5.215,-0.315,-1.452,
47338510,-0.734,0.379,0.541,4.55,-0.472,-3.15,
47338520,-0.822,0.495,0.595,0.052,-10.99,-5.215,
47338530,-0.855,0.399,0.639,-9.205,-18.655,-8.155,
47338540,-0.742,0.329,0.623,-9.327,-21.98,-6.23,
47338550,-0.669,0.327,0.649,-9.747,-24.937,-2.817,
47338560,-0.644,0.274,0.652,-8.487,-23.572,-1.872,
47338570,-0.617,0.309,0.666,-4.585,-18.322,0.665,
47338580,-0.688,0.261,0.671,-6.177,-14.927,1.102,
47338580,-0.645,0.243,0.653,-1.312,-12.827,1.557,
47338600,-0.669,0.317,0.659,5.285,-10.71,3.57,
47338600,-0.714,0.346,0.644,6.055,-9.8,4.235,
47338620,-0.708,0.365,0.656,5.845,-11.165,6.352,
47338620,-0.687,0.35,0.664,4.2,-9.957,7.945,
47338640,-0.648,0.305,0.665,4.287,-7.577,7.245,
47338640,-0.623,0.297,0.661,8.05,-3.237,6.737,
47338660,-0.65,0.298,0.69,12.687,0.437,4.427,
47338660,-0.627,0.295,0.678,17.482,3.097,0.77,
47338670,-0.646,0.332,0.67,20.597,6.282,-0.437,
47338680,-0.674,0.351,0.628,20.09,7.087,-1.242,
47338690,-0.731,0.355,0.631,18.13,3.587,-1.802,
47338700,-0.742,0.336,0.618,16.887,-1.68,-2.537,
47338710,-0.728,0.344,0.623,17.605,-7.857,-1.102,
47338720,-0.709,0.354,0.646,15.19,-13.125,0.717,
47338730,-0.674,0.35,0.644,10.675,-16.975,2.922,
47338740,-0.637,0.378,0.65,6.545,-16.782,5.285,
47338750,-0.643,0.371,0.665,0.752,-14.087,7.087,
47338760,-0.618,0.362,0.661,-2.345,-10.517,7.77,
47338770,-0.623,0.361,0.664,-2.677,-6.44,7.962,
47338780,-0.644,0.366,0.679,-2.712,-3.272,7.525,
47338790,-0.656,0.377,0.677,-4.287,-1.085,8.032,
47338800,-0.646,0.361,0.668,-6.44,0.07,8.067,
47338810,-0.641,0.352,0.665,-7.455,0.647,6.895,
47338820,-0.623,0.36,0.633,-7.437,2.205,5.267,
47338830,-0.682,0.476,0.58,-9.275,5.74,5.792,
47338840,-0.835,0.426,0.637,-19.162,0.962,5.39,
47338850,-0.763,0.349,0.622,-20.72,-7.63,1.627,
47338860,-0.696,0.355,0.633,-18.952,-14.262,3.692,
47338870,-0.678,0.338,0.65,-20.86,-17.307,3.85,
47338880,-0.673,0.298,0.672,-20.965,-19.04,5.477,
47338890,-0.622,0.239,0.69,-17.64,-19.162,5.827,
47338900,-0.54,0.264,0.689,-8.925,-13.72,5.46,
47338910,-0.597,0.305,0.695,-3.43,-5.512,6.02,
47338920,-0.651,0.299,0.695,-0.56,-1.925,5.39,
47338930,-0.657,0.35,0.673,5.197,-0.052,4.76,
47338940,-0.697,0.388,0.649,7.28,-1.067,3.465,
47338950,-0.716,0.394,0.64,6.387,-4.69,0.752,
47338960,-0.699,0.39,0.658,4.952,-9.117,-1.61,
47338970,-0.676,0.326,0.679,4.095,-9.852,-3.412,
47338980,-0.636,0.291,0.679,8.715,-7.35,-4.97,
47338990,-0.634,0.28,0.712,13.79,-4.987,-5.617,
47339000,-0.611,0.255,0.682,20.212,-4.06,-7.28,
47339010,-0.639,0.276,0.68,27.597,-3.36,-7.42,
47339010,-0.638,0.308,0.66,32.672,-4.69,-8.487,
47339030,-0.721,0.319,0.638,35.56,-5.355,-8.172,
47339030,-0.712,0.388,0.635,35.332,-10.64,-8.575,
47339050,-0.721,0.376,0.642,31.132,-16.257,-8.032,
47339050,-0.683,0.406,0.626,24.867,-21.49,-5.11,
47339070,-0.654,0.435,0.644,16.625,-23.905,-1.662,
47339070,-0.608,0.452,0.656,6.352,-21.49,1.155,
47339080,-0.626,0.405,0.676,-1.697,-14.297,3.762,
47339090,-0.61,0.345,0.683,-5.215,-12.302,3.78,
47339100,-0.57,0.36,0.697,-2.677,-9.642,2.397,
47339110,-0.592,0.395,0.656,-1.4,-4.795,0.77,
47339120,-0.592,0.456,0.688,-2.362,-2.082,-0.332,
47339130,-0.632,0.385,0.683,-5.075,2.712,-1.697,
47339140,-0.593,0.396,0.648,-5.18,5.302,-3.325,
47339150,-0.635,0.386,0.674,-6.877,7.787,-4.83,
47339160,-0.652,0.366,0.678,-8.417,9.747,-4.217,
47339170,-0.659,0.354,0.67,-9.817,10.237,-0.63,
47339180,-0.615,0.337,0.655,-10.255,10.5,0.56,
47339190,-0.598,0.356,0.648,-10.605,13.125,2.87,
47339200,-0.617,0.403,0.652,-13.37,18.34,6.615,
47339210,-0.648,0.38,0.657,-18.707,23.24,8.82,
47339220,-0.659,0.357,0.656,-20.317,26.005,8.89,
47339230,-0.706,0.316,0.665,-19.04,24.937,7.595,
47339240,-0.673,0.297,0.665,-12.145,19.302,3.57,
47339250,-0.683,0.32,0.653,-2.747,16.222,0.507,
47339260,-0.692,0.359,0.633,3.955,12.617,-3.377,
47339270,-0.739,0.366,0.625,5.757,9.17,-5.932,
47339280,-0.76,0.353,0.62,5.74,2.607,-8.102,
47339290,-0.765,0.332,0.619,7.402,-3.955,-9.992,
47339300,-0.77,0.311,0.634,11.2,-11.34,-12.565,
47339310,-0.848,0.21,0.619,19.862,-24.675,-17.99,
47339320,-0.604,0.346,0.643,37.87,-43.19,-27.72,
47339330,-0.553,0.485,0.682,40.95,-40.005,-32.62,
47339330,-0.644,0.427,0.656,23.782,-26.932,-28.157,
47339350,-0.685,0.363,0.634,11.252,-21.822,-19.565,
47339350,-0.669,0.379,0.662,5.915,-19.46,-14.087,
47339370,-0.681,0.341,0.65,1.557,-17.22,-10.395,
47339370,-0.651,0.339,0.66,0.84,-16.187,-5.512,
47339390,-0.633,0.334,0.663,0.122,-14.35,-2.03,
47339390,-0.594,0.349,0.691,-0.787,-10.5,-0.402,
47339410,-0.599,0.335,0.674,-4.235,-3.797,1.82,
47339410,-0.597,0.357,0.672,-5.74,1.102,2.94,
47339420,-0.606,0.37,0.676,-6.632,6.44,2.782,
47339430,-0.606,0.368,0.67,-6.282,11.76,2.747,
47339440,-0.603,0.382,0.676,-6.16,16.695,2.747,
47339450,-0.55,0.425,0.681,-8.05,22.347,1.925,
47339460,-0.721,0.388,0.679,-17.64,39.69,4.725,
47339470,-0.777,0.2,0.577,-19.95,33.442,2.152,
47339480,-0.694,0.376,0.637,-3.535,21.28,-1.137,
47339490,-0.769,0.355,0.623,-2.45,16.852,-3.64,
47339500,-0.765,0.306,0.6,-0.577,9.187,-5.985,
47339510,-0.75,0.342,0.626,3.01,1.277,-4.62,
47339520,-0.746,0.299,0.625,1.68,-4.497,-4.48,
47339530,-0.727,0.295,0.629,3.255,-8.627,-3.29,
47339540,-0.693,0.308,0.635,5.197,-11.41,-1.662,
47339550,-0.658,0.318,0.647,5.617,-11.13,-0.262,
47339560,-0.686,0.321,0.639,4.62,-10.657,1.767,
47339570,-0.667,0.373,0.641,5.355,-13.685,0.647,
47339580,-0.671,0.416,0.674,4.305,-11.655,-0.787,
47339590,-0.697,0.347,0.648,0.507,-8.662,-0.332,
47339600,-0.666,0.364,0.65,1.592,-9.537,0.735,
47339610,-0.654,0.352,0.652,0.682,-8.592,0.07,
47339620,-0.652,0.331,0.647,0.472,-6.895,-0.472,
47339630,-0.661,0.346,0.651,0.84,-4.515,-0.052,
47339640,-0.67,0.334,0.649,-0.14,-3.255,0.21,
47339650,-0.673,0.333,0.656,-0.42,-1.627,2.03,
47339660,-0.662,0.34,0.661,-0.385,-0.63,3.657,
47339670,-0.645,0.341,0.657,-0.367,1.767,4.217,
47339680,-0.635,0.343,0.651,0.017,4.917,4.567,
47339690,-0.657,0.352,0.649,0.455,8.645,4.76,
47339700,-0.676,0.353,0.64,0.927,10.097,3.92,
47339710,-0.709,0.359,0.634,1.382,10.132,3.01,
47339720,-0.728,0.371,0.635,1.312,7.157,2.345,
47339730,-0.72,0.365,0.627,0.175,3.692,1.855,
47339740,-0.708,0.352,0.625,-0.647,0.105,1.295,
47339750,-0.688,0.349,0.629,-0.962,-1.487,0.857,
47339760,-0.686,0.349,0.636,-1.242,-2.66,0.525,
47339760,-0.685,0.341,0.636,-1.4,-2.467,0.315,
47339780,-0.694,0.343,0.638,-1.277,-2.887,0.665,
47339780,-0.703,0.348,0.639,-1.645,-3.867,1.26,
47339800,-0.7,0.353,0.633,-1.995,-5.582,1.907,
47339800,-0.687,0.36,0.633,-2.59,-6.475,2.065,
47339820,-0.695,0.358,0.633,-3.885,-7.42,1.995,
47339820,-0.691,0.349,0.636,-4.83,-8.067,1.697,
47339830,-0.697,0.344,0.639,-4.795,-8.96,1.4,
47339840,-0.702,0.345,0.641,-4.41,-10.01,1.522,
47339850,-0.7,0.345,0.64,-4.182,-11.515,1.662,
47339860,-0.694,0.338,0.638,-3.78,-12.53,1.732,
47339870,-0.685,0.339,0.64,-3.5,-13.422,1.855,
47339880,-0.661,0.337,0.649,-3.325,-13.247,2.135,
47339890,-0.648,0.337,0.656,-2.747,-11.585,2.292,
47339900,-0.644,0.346,0.665,-2.362,-9.275,2.292,
47339910,-0.632,0.348,0.672,-2.66,-6.895,2.817,
47339920,-0.617,0.354,0.669,-2.485,-4.13,3.482,
47339930,-0.619,0.367,0.672,-3.15,-0.052,3.937,
47339940,-0.642,0.369,0.663,-5.25,3.43,4.777,
47339950,-0.672,0.384,0.66,-8.575,7.875,6.562,
47339960,-0.72,0.326,0.638,-11.987,9.887,6.807,
47339970,-0.715,0.31,0.631,-9.992,6.002,4.2,
47339980,-0.693,0.338,0.632,-4.357,0.49,-0.052,
47339990,-0.689,0.342,0.643,0.402,-1.855,-5.267,
47340000,-0.676,0.321,0.642,3.955,-4.76,-9.607,
47340010,-0.664,0.326,0.65,9.117,-5.32,-15.575,
47340020,-0.658,0.324,0.654,13.51,-4.427,-21.315,
47340030,-0.683,0.34,0.653,15.487,-1.942,-21.367,
47340040,-0.713,0.343,0.636,13.335,-2.345,-18.2,
47340050,-0.787,0.301,0.611,11.165,-7.822,-14.472,
47340060,-0.68,0.393,0.635,11.655,-19.687,-13.79,
47340070,-0.69,0.407,0.671,5.39,-16.835,-9.117,
47340080,-0.731,0.315,0.641,-4.025,-13.79,-4.112,
47340080,-0.655,0.329,0.649,-5.162,-14.805,0.07,
47340100,-0.608,0.36,0.679,-5.932,-14.035,2.957,
47340100,-0.608,0.346,0.676,-8.54,-9.992,7.21,
47340120,-0.591,0.362,0.682,-10.062,-4.777,10.115,
47340120,-0.573,0.372,0.681,-13.107,2.852,12.285,
47340140,-0.627,0.351,0.688,-17.57,15.89,14.962,
47340140,-0.676,0.284,0.653,-18.515,22.662,13.825,
47340160,-0.616,0.342,0.648,-12.635,20.842,10.99,
47340160,-0.705,0.328,0.646,-10.657,22.925,8.592,
47340170,-0.74,0.301,0.618,-7.542,18.935,4.042,
47340180,-0.774,0.318,0.596,-0.997,11.707,1.382,
47340190,-0.803,0.315,0.584,4.165,2.502,-2.24,
47340200,-0.826,0.316,0.607,8.662,-6.72,-4.812,
47340210,-0.793,0.327,0.617,10.727,-16.66,-4.252,
47340220,-0.764,0.309,0.617,10.202,-23.922,-3.535,
47340230,-0.75,0.253,0.605,12.53,-33.845,-7.56,
47340240,-0.58,0.409,0.678,18.095,-40.53,-14.752,
47340250,-0.596,0.4,0.714,11.567,-29.575,-11.55,
47340260,-0.654,0.368,0.683,0.105,-18.427,-3.377,
47340270,-0.606,0.361,0.688,-7.035,-14.227,3.185,
47340280,-0.536,0.381,0.704,-12.285,-10.64,7.997,
47340290,-0.506,0.352,0.691,-17.587,-2.327,16.117,
47340300,-0.564,0.361,0.678,-19.985,8.33,19.232,
47340310,-0.559,0.412,0.693,-21.84,19.18,18.287,
47340320,-0.683,0.359,0.68,-29.225,35.822,21.735,
47340330,-0.738,0.319,0.647,-31.465,39.06,20.422,
47340340,-0.734,0.319,0.635,-28.577,33.25,16.922,
47340350,-0.767,0.276,0.617,-23.257,25.76,8.82,
47340360,-0.724,0.233,0.585,-10.92,12.092,2.94,
47340370,-0.714,0.344,0.599,3.762,2.38,-1.54,
47340380,-0.838,0.313,0.617,8.522,-2.765,-7.735,
47340390,-0.815,0.309,0.624,11.462,-11.672,-10.78,
47340400,-0.826,0.287,0.617,12.757,-20.965,-8.067,
47340410,-0.791,0.199,0.579,18.2,-37.117,-12.775,
47340420,-0.658,0.298,0.634,34.825,-53.252,-21.035,
47340430,-0.63,0.377,0.685,43.61,-54.232,-27.702,
47340440,-0.599,0.423,0.714,39.445,-46.725,-28.49,
47340450,-0.633,0.411,0.688,24.885,-36.942,-18.27,
47340460,-0.651,0.382,0.667,9.625,-28.525,-5.932,
47340470,-0.629,0.339,0.675,-0.805,-20.335,-2.205,
47340480,-0.563,0.351,0.712,-4.62,-14.857,-0.227,
47340490,-0.519,0.354,0.711,-9.59,-10.99,8.575,
47340500,-0.518,0.339,0.708,-14.717,-3.342,15.715,
47340510,-0.566,0.339,0.716,-17.797,5.81,19.932,
47340510,-0.595,0.366,0.709,-19.162,11.847,22.487,
47340530,-0.478,0.459,0.691,-22.365,22.61,26.18,
47340530,-0.604,0.404,0.675,-35.262,47.18,36.907,
47340550,-0.66,0.277,0.652,-42.822,56.787,41.685,
47340550,-0.731,0.229,0.609,-36.33,53.812,38.465,
47340570,-0.755,0.289,0.637,-21.192,44.047,24.08,
47340570,-0.824,0.307,0.624,-10.062,31.36,16.765,
47340580,-0.831,0.32,0.606,0.665,14.35,9.292,
47340590,-0.754,0.355,0.605,12.232,2.625,-2.012,
47340600,-0.772,0.342,0.604,17.5,-2.31,-11.147,
47340610,-0.791,0.327,0.609,19.442,-9.975,-14.455,
47340620,-0.879,0.186,0.584,24.272,-23.537,-19.267,
47340630,-0.733,0.254,0.603,45.587,-49.735,-32.497,
47340640,-0.617,0.447,0.705,59.36,-61.547,-38.85,
47340650,-0.633,0.491,0.717,42.472,-53.935,-33.075,
47340660,-0.65,0.39,0.637,20.737,-43.925,-19.022,
47340670,-0.602,0.395,0.655,7.77,-32.375,-6.947,
47340680,-0.622,0.327,0.678,-6.142,-23.152,1.155,
47340690,-0.526,0.317,0.709,-8.907,-16.607,4.287,
47340700,-0.468,0.37,0.735,-9.8,-6.93,9.537,
47340710,-0.477,0.341,0.719,-13.737,5.425,14.542,
47340720,-0.48,0.368,0.727,-12.6,18.147,14.98,
47340730,-0.437,0.454,0.717,-12.18,33.705,12.495,
47340740,-0.485,0.508,0.719,-23.852,66.937,17.22,
47340750,-0.875,0.242,0.595,-40.232,81.462,21.245,
47340760,-0.792,0.21,0.556,-28.14,60.392,17.097,
47340770,-0.796,0.368,0.618,-9.502,41.615,10.01,
47340780,-0.839,0.329,0.59,-5.407,29.575,3.36,
47340790,-0.809,0.303,0.539,2.117,15.19,-0.91,
47340800,-0.868,0.329,0.567,11.777,4.76,-7.21,
47340810,-0.888,0.305,0.569,14.175,-7.28,-10.867,
47340820,-0.976,0.188,0.556,18.305,-26.04,-10.797,
47340830,-0.716,0.271,0.564,34.597,-55.65,-19.232,
47340830,-0.679,0.438,0.685,41.702,-63.332,-23.992,
47340850,-0.568,0.499,0.713,23.257,-57.645,-21.175,
47340850,-0.594,0.391,0.684,3.342,-41.3,-9.537,
47340870,-0.628,0.328,0.672,-6.965,-23.572,-0.665,
47340870,-0.56,0.331,0.671,-7.42,-15.032,-0.227,
47340890,-0.557,0.365,0.688,-6.177,-6.457,0.787,
47340890,-0.526,0.367,0.705,-7.997,0.525,5.302,
47340910,-0.532,0.363,0.708,-11.34,9.87,10.535,
47340910,-0.546,0.349,0.682,-13.317,18.952,13.142,
47340920,-0.494,0.426,0.675,-10.885,29.837,12.04,
47340930,-0.512,0.549,0.723,-19.092,55.615,17.272,
47340940,-0.771,0.306,0.626,-37.782,69.667,23.362,
47340950,-0.737,0.235,0.579,-34.387,59.745,21.962,
47340960,-0.862,0.277,0.595,-20.02,46.672,15.82,
47340970,-0.946,0.228,0.493,-7.577,26.967,7.63,
47340980,-0.953,0.337,0.51,9.835,3.447,1.102,
47340990,-1.062,0.3,0.562,14.77,-18.13,-4.917,
47341000,-0.924,0.23,0.527,20.825,-53.165,-14.21,
47341010,-0.681,0.371,0.613,33.635,-74.34,-23.012,
47341020,-0.668,0.343,0.647,33.775,-76.405,-32.76,
47341030,-0.529,0.426,0.72,31.902,-68.81,-34.825,
47341040,-0.602,0.41,0.716,16.292,-49.472,-21.49,
47341050,-0.531,0.322,0.69,1.942,-33.355,-11.55,
47341060,-0.524,0.348,0.727,-1.925,-17.027,-5.39,
47341070,-0.465,0.369,0.724,-5.32,-4.83,-3.272,
47341080,-0.428,0.375,0.718,-6.877,9.712,-1.032,
47341090,-0.497,0.367,0.704,-8.732,26.092,1.837,
47341100,-0.564,0.381,0.688,-9.59,37.047,1.907,
47341110,-0.48,0.496,0.689,-13.09,52.745,4.375,
47341120,-0.893,0.361,0.634,-28.21,75.512,11.69,
47341130,-0.74,0.255,0.559,-34.79,66.5,12.74,
47341140,-0.839,0.212,0.54,-25.34,52.22,14.192,
47341150,-0.763,0.247,0.56,-12.39,33.372,8.295,
47341160,-0.887,0.248,0.533,1.347,19.95,3.062,
47341170,-0.908,0.322,0.563,11.322,5.04,-1.557,
47341180,-0.986,0.296,0.578,13.037,-11.567,-1.995,
47341190,-0.846,0.23,0.549,17.08,-36.68,-4.9,
47341200,-0.668,0.371,0.642,28.315,-49.735,-11.515,
47341210,-0.56,0.447,0.686,21.035,-45.255,-13.965,
47341220,-0.609,0.399,0.663,5.6,-29.995,-6.755,
47341230,-0.663,0.352,0.678,-6.37,-15.54,1.61,
47341240,-0.585,0.333,0.677,-10.64,-10.307,3.062,
47341250,-0.542,0.379,0.704,-9.555,-1.662,5.302,
47341260,-0.549,0.376,0.696,-12.775,8.785,8.102,
47341260,-0.492,0.381,0.659,-15.907,21.77,8.627,
47341270,-0.612,0.407,0.669,-22.155,42.945,9.555,
47341280,-0.762,0.301,0.615,-30.642,50.155,8.942,
47341290,-0.723,0.329,0.616,-26.232,46.34,7.945,
47341300,-0.765,0.317,0.59,-21.822,41.737,8.365,
47341310,-0.835,0.299,0.579,-15.4,37.537,3.972,
47341320,-0.879,0.225,0.491,-9.257,22.417,-2.31,
47341330,-0.933,0.306,0.495,6.195,6.125,-6.825,
47341340,-1.003,0.289,0.538,13.965,-11.375,-10.517,
47341350,-1.006,0.173,0.505,19.547,-37.712,-12.18,
47341360,-0.692,0.299,0.56,36.435,-63.175,-18.042,
47341370,-0.689,0.387,0.677,43.82,-64.697,-20.212,
47341380,-0.585,0.413,0.698,30.117,-56.63,-17.762,
47341390,-0.58,0.353,0.668,14.21,-36.19,-6.632,
47341400,-0.615,0.304,0.656,5.04,-22.26,-2.59,
47341410,-0.566,0.355,0.684,4.655,-13.142,-3.937,
47341420,-0.58,0.387,0.679,2.467,-2.362,-2.222,
47341430,-0.56,0.398,0.695,-0.402,8.452,-1.54,
47341440,-0.52,0.396,0.71,-5.967,19.932,-0.122,
47341450,-0.464,0.392,0.729,-13.02,37.065,3.342,
47341460,-0.686,0.31,0.654,-21.542,62.195,10.307,
47341470,-0.73,0.299,0.574,-25.97,63.84,14.017,
47341480,-0.75,0.318,0.584,-21.42,56.297,14.105,
47341490,-0.781,0.313,0.557,-17.85,50.61,9.887,
47341500,-0.853,0.26,0.496,-12.057,40.005,3.78,
47341510,-0.929,0.287,0.464,0.105,23.66,-2.38,
47341520,-0.942,0.343,0.527,9.117,6.002,-7.052,
47341530,-0.945,0.308,0.548,8.61,-8.645,-9.45,
47341540,-0.881,0.251,0.543,8.715,-23.292,-8.277,
47341550,-0.836,0.163,0.467,15.487,-45.167,-11.182,
47341560,-0.569,0.434,0.635,30.345,-59.692,-18.602,
47341570,-0.758,0.423,0.681,18.777,-46.27,-15.767,
47341580,-0.678,0.343,0.635,2.782,-39.952,-9.502,
47341580,-0.681,0.356,0.672,-2.082,-30.135,-1.995,
47341600,-0.595,0.32,0.666,-7.752,-23.065,1.207,
47341600,-0.577,0.298,0.665,-7.647,-11.567,2.8,
47341620,-0.564,0.324,0.653,-6.912,0.052,3.815,
47341620,-0.648,0.328,0.638,-7.805,11.025,2.905,
47341640,-0.717,0.358,0.604,-8.347,16.94,2.8,
47341640,-0.8,0.373,0.578,-10.027,17.22,3.937,
47341660,-0.813,0.388,0.582,-12.372,11.76,4.97,
47341660,-0.787,0.374,0.584,-17.57,5.845,6.352,
47341670,-0.741,0.289,0.597,-21.805,0.21,6.72,
47341680,-0.658,0.28,0.608,-18.375,-0.735,5.705,
47341690,-0.711,0.273,0.625,-14.857,2.485,5.635,
47341700,-0.719,0.266,0.636,-10.552,3.325,3.57,
47341710,-0.743,0.305,0.623,-5.827,3.99,2.257,
47341720,-0.802,0.269,0.6,-2.695,0.28,0.245,
47341730,-0.759,0.311,0.589,3.5,-6.177,-2.625,
47341740,-0.796,0.328,0.577,5.932,-9.38,-3.377,
47341750,-0.818,0.321,0.567,4.445,-15.19,-0.945,
47341760,-0.788,0.317,0.578,4.095,-21.7,1.05,
47341770,-0.771,0.307,0.599,6.02,-25.585,3.027,
47341780,-0.737,0.328,0.618,8.19,-26.425,5.302,
47341790,-0.7,0.329,0.677,9.047,-23.992,7.892,
47341800,-0.659,0.186,0.699,10.867,-27.527,6.422,
47341810,-0.435,0.294,0.66,23.712,-18.62,6.405,
47341820,-0.636,0.316,0.653,19.39,-6.755,12.005,
47341830,-0.669,0.325,0.638,16.625,0.245,8.575,
47341840,-0.742,0.399,0.595,14.315,3.062,7.297,
47341850,-0.774,0.403,0.562,7.595,-0.875,4.76,
47341860,-0.787,0.414,0.596,2.555,-7.962,3.517,
47341870,-0.754,0.351,0.63,-1.33,-15.347,2.012,
47341880,-0.632,0.339,0.659,-0.542,-17.202,0.035,
47341890,-0.602,0.339,0.659,-3.43,-11.41,0.28,
47341900,-0.618,0.379,0.616,-8.277,-5.652,1.382,
47341910,-0.679,0.402,0.651,-15.312,-3.5,0.56,
47341920,-0.687,0.387,0.643,-21.175,0.262,-2.397,
47341930,-0.716,0.39,0.615,-27.667,3.92,-1.645,
47341940,-0.766,0.334,0.641,-31.132,1.085,-2.03,
47341940,-0.722,0.289,0.636,-26.792,-0.997,-1.207,
47341960,-0.701,0.294,0.63,-20.457,-2.275,-0.157,
47341960,-0.705,0.279,0.623,-17.815,-0.542,-0.455,
47341980,-0.719,0.213,0.631,-14.122,-1.417,-0.682,
47341980,-0.69,0.253,0.632,-6.352,-0.175,-0.402,
47342000,-0.71,0.252,0.618,-0.63,1.557,-0.157,
47342000,-0.781,0.306,0.6,4.76,1.12,1.067,
47342010,-0.812,0.343,0.598,6.072,-5.67,3.08,
47342020,-0.799,0.35,0.655,4.742,-12.302,4.112,
47342030,-0.695,0.178,0.669,7.245,-16.205,1.942,
47342040,-0.561,0.237,0.625,23.485,-8.697,-1.085,
47342050,-0.676,0.264,0.642,30.432,-6.317,-0.84,
47342060,-0.752,0.276,0.641,36.505,-8.312,-3.15,
47342070,-0.742,0.322,0.616,39.427,-15.802,-2.485,
47342080,-0.702,0.398,0.622,33.057,-21.157,-2.345,
47342090,-0.668,0.434,0.597,19.88,-19.145,0.542,
47342100,-0.725,0.443,0.622,6.72,-13.912,4.847,
47342110,-0.676,0.383,0.669,-3.202,-14.122,4.9,
47342120,-0.587,0.351,0.684,-5.775,-12.652,3.99,
47342130,-0.56,0.34,0.694,-6.86,-5.285,3.867,
47342140,-0.582,0.321,0.675,-7.28,3.797,3.027,
47342150,-0.629,0.404,0.602,-7.472,13.615,2.012,
47342160,-0.797,0.38,0.598,-15.277,14.63,0.507,
47342170,-0.791,0.363,0.602,-16.695,8.452,-4.602,
47342180,-0.781,0.386,0.604,-17.29,0.052,-5.495,
47342190,-0.783,0.35,0.635,-19.967,-7.157,-6.562,
47342200,-0.739,0.27,0.668,-17.622,-13.387,-6.107,
47342210,-0.618,0.274,0.658,-10.377,-11.602,-4.917,
47342220,-0.635,0.25,0.645,-6.02,-6.545,-4.69,
47342230,-0.681,0.266,0.62,-1.452,-1.05,-3.902,
47342240,-0.754,0.299,0.614,2.345,-0.35,-1.575,
47342250,-0.803,0.289,0.592,4.427,-5.075,0.56,
47342260,-0.807,0.307,0.598,7.297,-13.282,3.92,
47342270,-0.753,0.344,0.612,7.542,-18.742,8.4,
47342280,-0.752,0.288,0.685,5.512,-19.145,9.887,
47342290,-0.567,0.196,0.693,12.565,-21.717,3.185,
47342300,-0.5,0.39,0.715,19.46,-7.14,0.402,
47342310,-0.65,0.348,0.701,6.212,5.862,0.7,
47342320,-0.642,0.331,0.665,4.165,10.15,0.84,
47342330,-0.666,0.396,0.583,2.957,11.48,3.43,
47342330,-0.747,0.386,0.58,0.98,6.142,5.057,
47342350,-0.759,0.399,0.61,1.137,-2.677,7.07,
47342350,-0.723,0.393,0.628,-0.945,-10.902,5.862,
47342370,-0.661,0.335,0.655,-4.69,-16.327,2.187,
47342370,-0.59,0.286,0.694,-5.145,-15.015,0.77,
47342390,-0.586,0.286,0.691,-5.092,-6.965,3.29,
47342390,-0.603,0.295,0.674,-4.322,1.417,4.882,
47342410,-0.645,0.318,0.665,-2.922,8.47,4.34,
47342410,-0.602,0.421,0.529,-4.27,14.245,4.165,
47342420,-0.911,0.488,0.582,-17.465,17.272,6.282,
47342430,-0.898,0.34,0.637,-25.497,-0.367,-1.802,
47342440,-0.754,0.394,0.664,-18.48,-11.217,-3.395,
47342450,-0.69,0.31,0.652,-19.04,-15.715,-4.882,
47342460,-0.608,0.265,0.676,-12.81,-14.91,-6.3,
47342470,-0.593,0.262,0.689,-7.857,-9.712,-5.967,
47342480,-0.613,0.228,0.646,-3.832,-2.8,-7.122,
47342490,-0.67,0.247,0.621,1.067,3.132,-6.615,
47342500,-0.775,0.283,0.631,4.235,4.637,-3.64,
47342510,-0.805,0.307,0.62,4.637,-0.245,-0.49,
47342520,-0.787,0.32,0.607,4.812,-8.942,1.61,
47342530,-0.76,0.327,0.619,5.267,-16.152,3.517,
47342540,-0.731,0.322,0.622,5.495,-20.895,4.742,
47342550,-0.724,0.314,0.656,7,-21.455,5.005,
47342560,-0.692,0.217,0.7,12.617,-26.6,0.857,
47342570,-0.536,0.306,0.702,25.287,-23.152,-2.17,
47342580,-0.519,0.366,0.701,23.887,-13.982,-1.067,
47342590,-0.592,0.366,0.689,14.945,-1.417,2.835,
47342600,-0.601,0.39,0.661,7.822,6.912,4.725,
47342610,-0.661,0.398,0.641,0.857,12.617,3.202,
47342620,-0.695,0.366,0.624,-3.657,12.74,2.345,
47342630,-0.728,0.375,0.635,-3.885,10.552,1.977,
47342640,-0.712,0.356,0.655,-4.83,4.725,0.857,
47342650,-0.647,0.319,0.675,-6.195,1.82,0.122,
47342660,-0.615,0.3,0.676,-7.647,3.797,-0.07,
47342670,-0.593,0.309,0.68,-9.38,9.467,0.822,
47342670,-0.617,0.309,0.661,-12.512,14.962,4.287,
47342690,-0.654,0.329,0.643,-14.367,20.072,6.895,
47342690,-0.655,0.464,0.612,-18.13,30.922,8.785,
47342710,-0.955,0.294,0.632,-30.922,37.59,12.687,
47342710,-0.72,0.292,0.634,-23.992,23.082,10.027,
47342730,-0.654,0.341,0.648,-20.405,19.582,10.255,
47342730,-0.665,0.201,0.594,-22.715,25.48,10.377,
47342750,-0.766,0.261,0.583,-11.34,23.45,15.802,
47342750,-0.75,0.342,0.587,-3.097,15.172,12.635,
47342760,-0.801,0.352,0.563,-0.455,6.965,9.45,
47342770,-0.798,0.389,0.613,0.945,-3.027,5.232,
47342780,-0.776,0.321,0.647,-1.487,-9.572,2.642,
47342790,-0.675,0.26,0.634,2.345,-13.527,1.592,
47342800,-0.648,0.266,0.62,10.57,-12.81,-0.192,
47342810,-0.699,0.278,0.621,18.025,-12.057,-2.66,
47342820,-0.764,0.289,0.597,25.287,-14.525,-5.722,
47342830,-0.809,0.324,0.586,32.357,-21.262,-9.87,
47342840,-0.803,0.399,0.612,33.967,-32.27,-13.16,
47342850,-0.658,0.502,0.671,22.435,-33.285,-9.03,
47342860,-0.73,0.361,0.618,2.257,-26.757,2.695,
47342870,-0.622,0.33,0.65,-4.9,-23.782,5.215,
47342880,-0.553,0.337,0.691,-6.79,-17.325,4.777,
47342890,-0.543,0.309,0.68,-9.362,-6.72,6.09,
47342900,-0.548,0.341,0.684,-8.032,5.005,7.612,
47342910,-0.616,0.375,0.688,-8.487,17.062,7.122,
47342920,-0.584,0.417,0.665,-10.43,26.74,3.377,
47342930,-0.62,0.476,0.68,-21.297,46.427,3.832,
47342940,-0.8,0.289,0.617,-36.347,55.352,1.347,
47342950,-0.649,0.342,0.585,-34.737,50.242,-3.325,
47342960,-0.78,0.382,0.603,-33.232,49.7,0.735,
47342970,-0.817,0.287,0.594,-34.002,42.542,0.28,
47342980,-0.774,0.297,0.58,-26.355,30.782,-0.7,
47342990,-0.791,0.279,0.583,-19.495,22.522,-3.797,
47343000,-0.818,0.245,0.594,-12.337,13.842,-7.752,
47343010,-0.797,0.286,0.579,-2.887,5.285,-10.412,
47343020,-0.798,0.309,0.566,2.152,-1.417,-13.3,
47343030,-0.812,0.27,0.552,3.045,-7.402,-14.805,
47343040,-0.786,0.253,0.563,7.7,-14.665,-10.92,
47343050,-0.755,0.238,0.559,11.287,-19.95,-7.017,
47343060,-0.773,0.194,0.591,17.727,-22.96,-6.3,
47343070,-0.706,0.177,0.591,31.307,-32.077,-10.36,
47343080,-0.579,0.364,0.652,45.955,-31.692,-12.46,
47343080,-0.722,0.356,0.673,37.887,-21.735,-8.592,
47343100,-0.762,0.345,0.63,26.337,-18.287,-2.905,
47343100,-0.754,0.352,0.603,20.632,-17.045,-0.437,
47343120,-0.708,0.35,0.594,14.945,-18.672,0.105,
47343120,-0.72,0.357,0.609,10.29,-16.572,3.255,
47343140,-0.72,0.342,0.621,5.04,-15.767,3.972,
47343140,-0.689,0.349,0.64,1.732,-13.72,2.94,
47343160,-0.673,0.339,0.647,-3.132,-10.08,2.117,
47343160,-0.67,0.336,0.654,-7,-5.792,0.805,
47343170,-0.675,0.365,0.661,-10.5,-0.402,0.087,
47343180,-0.686,0.35,0.642,-15.54,4.34,-0.297,
47343190,-0.658,0.343,0.636,-18.06,7.892,-1.61,
47343200,-0.652,0.339,0.622,-18.725,11.812,-2.555,
47343210,-0.663,0.343,0.611,-17.867,15.645,-1.347,
47343220,-0.601,0.459,0.639,-20.65,24.465,2.87,
47343230,-0.767,0.312,0.605,-39.69,39.637,6.142,
47343240,-0.698,0.226,0.604,-41.177,37.432,13.247,
47343250,-0.577,0.312,0.628,-35.227,38.78,20.737,
47343260,-0.759,0.222,0.633,-35.437,47.915,21.35,
47343270,-0.77,0.162,0.599,-28.577,44.537,17.307,
47343280,-0.795,0.221,0.55,-11.182,36.575,11.97,
47343290,-0.872,0.288,0.545,3.132,25.497,8.89,
47343300,-0.895,0.335,0.538,8.347,11.742,5.985,
47343310,-0.955,0.326,0.509,9.957,-0.735,2.257,
47343320,-0.923,0.354,0.547,12.057,-15.242,-2.8,
47343330,-0.864,0.3,0.549,9.467,-27.177,-5.53,
47343340,-0.835,0.162,0.523,13.86,-41.807,-9.957,
47343350,-0.673,0.319,0.609,32.445,-51.94,-17.482,
47343360,-0.705,0.313,0.627,40.547,-49.84,-24.08,
47343370,-0.661,0.358,0.636,41.755,-44.345,-25.9,
47343380,-0.674,0.348,0.616,35.56,-38.972,-23.397,
47343390,-0.633,0.391,0.63,26.67,-30.152,-16.432,
47343400,-0.74,0.337,0.631,11.305,-20.982,-6.947,
47343410,-0.669,0.296,0.633,1.977,-18.182,-2.59,
47343420,-0.653,0.312,0.653,-0.892,-12.407,0.49,
47343420,-0.648,0.315,0.643,-3.71,-6.86,2.257,
47343440,-0.689,0.344,0.643,-4.952,-1.907,5.075,
47343440,-0.701,0.345,0.626,-9.135,1.295,6.545,
47343460,-0.704,0.341,0.618,-13.107,2.87,7.962,
47343460,-0.678,0.379,0.604,-16.362,5.425,9.835,
47343480,-0.716,0.468,0.599,-27.72,14,15.645,
47343480,-0.797,0.318,0.593,-44.135,16.275,20.09,
47343500,-0.727,0.308,0.613,-45.237,14.612,22.12,
47343500,-0.631,0.294,0.598,-42.07,13.982,20.982,
47343510,-0.782,0.291,0.623,-38.64,20.23,22.207,
47343520,-0.793,0.243,0.619,-38.202,14.735,19.302,
47343530,-0.725,0.259,0.606,-30.572,6.685,15.19,
47343540,-0.729,0.286,0.619,-23.572,6.107,12.565,
47343550,-0.766,0.259,0.615,-22.277,1.68,9.887,
47343560,-0.715,0.292,0.623,-16.677,-2.362,7.157,
47343570,-0.755,0.31,0.608,-12.932,-2.87,3.307,
47343580,-0.824,0.302,0.59,-11.182,-7.892,-0.875,
47343590,-0.836,0.27,0.568,-7.087,-18.655,-7.56,
47343600,-0.781,0.3,0.588,1.82,-28.332,-14.175,
47343610,-0.787,0.291,0.623,5.845,-33.442,-16.572,
47343620,-0.72,0.295,0.642,6.37,-36.54,-16.957,
47343630,-0.641,0.287,0.664,5.337,-34.755,-15.032,
47343640,-0.632,0.243,0.682,3.587,-28.035,-10.762,
47343650,-0.622,0.24,0.664,4.742,-19.442,-7.665,
47343660,-0.654,0.267,0.65,6.877,-13.247,-6.177,
47343670,-0.712,0.279,0.638,6.685,-8.977,-5.022,
47343680,-0.739,0.292,0.612,7.052,-8.592,-5.145,
47343690,-0.76,0.288,0.612,7.577,-10.867,-4.882,
47343700,-0.742,0.273,0.626,8.26,-15.067,-4.497,
47343710,-0.713,0.271,0.641,10.202,-16.432,-4.27,
47343720,-0.71,0.231,0.646,13.562,-16.117,-4.41,
47343730,-0.605,0.249,0.653,20.527,-14.14,-5.32,
47343740,-0.63,0.295,0.694,24.692,-5.792,-3.447,
47343750,-0.641,0.303,0.712,21.49,2.747,-0.07,
47343760,-0.648,0.313,0.672,16.59,9.345,1.977,
47343770,-0.674,0.337,0.662,13.562,15.942,1.977,
47343780,-0.705,0.338,0.641,9.852,18.62,3.167,
47343790,-0.75,0.35,0.638,5.95,19.092,4.182,
47343800,-0.741,0.305,0.639,2.712,17.395,3.045,
47343810,-0.722,0.314,0.581,2.537,16.642,2.467,
47343820,-0.752,0.349,0.593,0.63,12.092,3.01,
47343830,-0.747,0.321,0.61,-3.22,7.245,2.415,
47343830,-0.718,0.317,0.602,-5.267,3.517,2.24,
47343850,-0.699,0.263,0.619,-6.615,0.752,2.17,
47343850,-0.708,0.256,0.648,-5.95,1.295,2.555,
47343870,-0.721,0.264,0.636,-5.005,1.767,4.882,
47343870,-0.682,0.314,0.552,-5.53,1.452,7.997,
47343890,-0.808,0.48,0.505,-13.842,2.52,12.74,
47343890,-0.993,0.333,0.583,-27.212,-12.442,9.695,
47343910,-0.867,0.465,0.572,-27.125,-29.505,4.445,
47343910,-0.873,0.407,0.62,-36.592,-44.835,1.697,
47343920,-0.754,0.277,0.676,-41.825,-53.865,0.105,
47343930,-0.56,0.134,0.73,-33.197,-49.752,1.767,
47343940,-0.46,0.21,0.706,-16.712,-32.515,2.677,
47343950,-0.554,0.145,0.676,-10.22,-17.727,1.785,
47343960,-0.621,0.188,0.69,-4.147,-8.505,1.942,
47343970,-0.688,0.233,0.658,2.957,-0.647,3.57,
47343980,-0.739,0.306,0.623,6.982,1.837,4.795,
47343990,-0.736,0.322,0.637,5.582,0.892,4.725,
47344000,-0.745,0.275,0.664,3.762,0.84,7.052,
47344010,-0.677,0.246,0.667,5.057,2.502,9.905,
47344020,-0.595,0.247,0.679,9.45,6.982,11.445,
47344030,-0.585,0.237,0.699,11.847,15.015,11.392,
47344040,-0.596,0.26,0.685,15.312,23.975,8.417,
47344050,-0.668,0.261,0.651,20.37,28,7.385,
47344060,-0.699,0.352,0.638,25.392,26.477,5.635,
47344070,-0.78,0.39,0.616,22.4,24.675,5.495,
47344080,-0.826,0.381,0.594,16.922,19.075,4.41,
47344090,-0.786,0.341,0.611,13.002,10.237,2.082,
47344100,-0.73,0.317,0.627,11.427,3.115,-0.192,
47344110,-0.663,0.319,0.612,10.605,0.455,-2.205,
47344120,-0.689,0.342,0.606,8.312,-0.087,-2.012,
47344130,-0.744,0.315,0.632,2.677,0.542,-0.28,
47344140,-0.714,0.297,0.632,0,-0.315,0.84,
47344150,-0.694,0.307,0.629,-0.927,0.682,1.085,
47344160,-0.702,0.301,0.652,-3.727,0.665,1.925,
47344170,-0.707,0.3,0.649,-6.212,0.892,2.922,
47344170,-0.737,0.42,0.531,-9.415,-1.487,1.697,
47344190,-0.898,0.493,0.555,-19.88,-12.127,-1.645,
47344190,-0.907,0.45,0.603,-29.102,-24.272,-9.467,
47344210,-0.853,0.399,0.622,-36.4,-36.137,-9.292,
47344210,-0.747,0.333,0.618,-41.405,-45.115,-8.26,
47344230,-0.653,0.213,0.686,-40.46,-46.69,-6.877,
47344230,-0.544,0.163,0.717,-28.385,-37.975,-6.02,
47344250,-0.555,0.209,0.704,-17.272,-22.295,-4.025,
47344250,-0.61,0.128,0.665,-10.78,-11.077,-5.075,
47344260,-0.646,0.16,0.632,2.922,-5.005,-5.617,
47344270,-0.662,0.255,0.615,17.342,-0.28,-5.67,
47344280,-0.752,0.291,0.599,19.775,0.507,-2.625,
47344290,-0.787,0.302,0.637,15.435,-2.817,1.12,
47344300,-0.76,0.165,0.685,15.61,-5.547,-1.067,
47344310,-0.66,0.162,0.681,30.415,-2.502,-4.69,
47344320,-0.516,0.22,0.649,46.235,0.315,-8.785,
47344330,-0.676,0.355,0.7,49.91,9.642,-5.985,
47344340,-0.685,0.337,0.702,38.167,3.937,-1.26,
47344350,-0.738,0.385,0.659,27.895,3.412,3.272,
47344360,-0.697,0.357,0.614,19.092,1.4,4.06,
47344370,-0.655,0.392,0.618,15.382,1.61,2.835,
47344380,-0.703,0.404,0.59,9.572,2.31,2.292,
47344390,-0.762,0.372,0.628,3.727,1.155,0,
47344400,-0.729,0.33,0.663,-0.367,-3.78,-1.61,
47344410,-0.673,0.321,0.658,-1.907,-4.217,-1.82,
47344420,-0.632,0.285,0.652,-4.725,-2.205,-2.415,
47344430,-0.641,0.286,0.667,-4.935,3.01,-1.47,
47344440,-0.675,0.309,0.663,-6.142,6.615,-1.207,
47344450,-0.705,0.379,0.556,-9.677,8.05,-0.84,
47344460,-0.822,0.398,0.594,-18.007,1.627,0.612,
47344470,-0.828,0.331,0.628,-21.192,-4.655,-2.677,
47344480,-0.766,0.365,0.599,-21.07,-10.447,0.98,
47344490,-0.749,0.324,0.623,-24.552,-15.277,1.75,
47344500,-0.7,0.261,0.647,-26.565,-18.725,3.255,
47344510,-0.649,0.241,0.661,-21.385,-16.555,3.202,
47344520,-0.637,0.253,0.656,-15.05,-11.497,4.077,
47344530,-0.663,0.206,0.67,-12.477,-7.087,4.06,
47344540,-0.656,0.244,0.681,-8.155,-3.902,6.002,
47344550,-0.67,0.254,0.67,-6.527,1.277,10.097,
47344560,-0.676,0.256,0.655,-5.46,3.587,10.797,
47344570,-0.679,0.313,0.644,-4.41,3.692,11.165,
47344580,-0.766,0.329,0.632,-6.842,0.402,10.745,
47344580,-0.758,0.309,0.632,-8.225,-4.427,11.62,
47344600,-0.72,0.322,0.653,-5.267,-6.842,11.987,
47344600,-0.696,0.314,0.65,-3.097,-8.54,7.822,
47344620,-0.674,0.299,0.657,0.875,-8.942,3.605,
47344620,-0.654,0.318,0.679,4.707,-7.227,1.365,
47344640,-0.67,0.265,0.725,5.565,-3.43,0.98,
47344640,-0.583,0.24,0.684,9.94,1.995,-0.07,
47344660,-0.583,0.311,0.642,14.752,10.447,1.837,
47344660,-0.701,0.316,0.658,11.882,14.612,1.47,
47344670,-0.744,0.288,0.655,9.782,15.312,1.137,
47344680,-0.721,0.311,0.634,11.637,13.807,0.892,
47344690,-0.728,0.314,0.622,11.707,11.305,0.647,
47344700,-0.744,0.325,0.632,11.077,8.417,1.207,
47344710,-0.73,0.334,0.63,10.325,6.755,1.435,
47344720,-0.715,0.319,0.632,9.275,5.687,1.225,
47344730,-0.684,0.308,0.625,9.135,5.687,0.245,
47344740,-0.691,0.337,0.621,8.365,5.915,0.455,
47344750,-0.737,0.341,0.617,4.305,5.477,1.26,
47344760,-0.749,0.333,0.609,0.84,2.187,1.33,
47344770,-0.737,0.318,0.609,-1.277,-1.33,1.61,
47344780,-0.718,0.293,0.626,-2.45,-4.76,2.327,
47344790,-0.69,0.284,0.636,-2.695,-5.162,4.287,
47344800,-0.686,0.29,0.642,-3.255,-4.9,7.052,
47344810,-0.689,0.303,0.642,-4.532,-3.71,9.677,
47344820,-0.706,0.317,0.626,-5.425,-3.395,10.937,
47344830,-0.729,0.374,0.604,-6.51,-3.185,11.217,
47344840,-0.77,0.367,0.617,-10.797,-6.457,10.622,
47344850,-0.764,0.349,0.621,-13.335,-10.307,9.222,
47344860,-0.734,0.336,0.623,-14.14,-15.05,8.925,
47344870,-0.707,0.342,0.639,-13.965,-17.78,7.63,
47344880,-0.734,0.308,0.647,-14.297,-19.092,7.385,
47344890,-0.7,0.273,0.642,-10.535,-20.492,4.882,
47344900,-0.662,0.29,0.654,-3.412,-18.392,3.815,
47344910,-0.66,0.282,0.647,-0.052,-15.19,2.852,
47344920,-0.656,0.288,0.653,3.64,-12.6,2.065,
47344920,-0.67,0.32,0.661,4.287,-10.185,4.095,
47344940,-0.68,0.322,0.666,2.012,-9.625,5.057,
47344940,-0.663,0.305,0.664,1.487,-8.592,4.13,
47344960,-0.675,0.319,0.663,3.15,-7.507,2.677,
47344960,-0.695,0.332,0.649,3.867,-7.175,1.89,
47344980,-0.709,0.341,0.648,3.675,-8.26,1.557,
47344980,-0.703,0.341,0.647,2.135,-9.835,1.417,
47345000,-0.687,0.332,0.65,0.122,-11.112,1.085,
47345000,-0.672,0.323,0.652,-1.295,-11.357,1.487,
47345010,-0.664,0.321,0.656,-1.645,-10.622,2.45,
47345020,-0.669,0.321,0.657,-1.662,-9.555,3.307,
47345030,-0.66,0.32,0.664,-1.732,-8.4,3.43,
47345040,-0.653,0.328,0.672,-2.1,-6.545,2.975,
47345050,-0.648,0.327,0.671,-2.73,-4.147,2.047,
47345060,-0.649,0.327,0.669,-2.975,-1.785,1.225,
47345070,-0.668,0.33,0.664,-2.817,0.385,0.647,
47345080,-0.677,0.322,0.658,-2.485,1.12,-0.227,
47345090,-0.682,0.316,0.656,-2.205,1.435,-0.455,
47345100,-0.68,0.313,0.656,-2.03,0.892,-0.647,
47345110,-0.672,0.304,0.658,-1.907,1.102,-0.962,
47345120,-0.669,0.302,0.654,-1.207,1.487,-1.085,
47345130,-0.675,0.305,0.656,-0.472,2.572,-0.77,
47345140,-0.692,0.309,0.647,0.455,2.642,-0.682,
47345150,-0.7,0.317,0.649,1.137,2.222,-0.507,
47345160,-0.705,0.321,0.645,1.33,0.56,-0.385,
47345170,-0.703,0.321,0.646,0.717,-1.05,0.087,
47345180,-0.689,0.319,0.649,0.49,-2.887,0.28,
47345190,-0.688,0.323,0.651,0.315,-3.307,0.7,
47345200,-0.685,0.321,0.655,0.297,-4.042,1.137,
47345210,-0.678,0.326,0.659,0.437,-3.745,1.05,
47345220,-0.668,0.328,0.658,0.175,-3.325,0.84,
47345230,-0.671,0.326,0.657,-0.385,-2.012,0.752,
47345240,-0.681,0.324,0.653,-0.647,-1.662,0.682,
47345250,-0.692,0.323,0.651,-0.647,-1.312,0.612,
47345260,-0.688,0.323,0.654,-0.472,-2.117,0.28,
47345270,-0.69,0.319,0.654,-0.682,-2.17,0.525,
47345280,-0.694,0.316,0.652,-0.84,-2.905,0.63,
47345290,-0.687,0.313,0.65,-0.682,-3.377,0.49,
47345300,-0.686,0.318,0.651,-0.437,-4.13,0.7,
47345310,-0.681,0.317,0.654,-0.455,-3.937,1.155,
47345320,-0.686,0.317,0.654,-0.84,-4.147,1.54,
47345330,-0.676,0.318,0.656,-1.102,-4.042,1.697,
47345330,-0.66,0.319,0.658,-1.4,-3.29,1.592,
47345350,-0.667,0.324,0.664,-1.82,-1.347,2.152,
47345350,-0.663,0.325,0.662,-2.047,0.437,1.837,
47345360,-0.672,0.325,0.66,-2.047,1.995,1.085,
47345370,-0.684,0.329,0.653,-1.785,2.8,0.28,
47345380,-0.69,0.324,0.653,-1.75,2.642,-0.472,
47345390,-0.686,0.313,0.648,-1.417,2.695,-1.12,
47345400,-0.674,0.315,0.649,-0.84,3.045,-1.295,
47345410,-0.666,0.313,0.651,-1.155,4.252,-0.63,
47345420,-0.678,0.316,0.656,-2.432,5.355,1.015,
47345430,-0.682,0.317,0.656,-3.885,6.282,2.817,
47345440,-0.685,0.312,0.651,-4.515,6.615,3.465,
47345450,-0.704,0.308,0.635,-3.745,6.265,3.587,
47345460,-0.72,0.32,0.632,-1.96,3.307,2.992,
47345470,-0.723,0.327,0.633,-0.63,0.945,2.135,
47345480,-0.722,0.329,0.637,-0.297,-1.715,1.592,
47345490,-0.707,0.326,0.639,-0.595,-3.675,1.277,
47345500,-0.686,0.321,0.65,-0.805,-5.267,0.752,
47345510,-0.671,0.318,0.655,-0.717,-4.392,0.542,
47345520,-0.664,0.32,0.657,-0.56,-2.992,0.665,
47345530,-0.669,0.319,0.652,-0.42,-0.507,0.962,
47345540,-0.675,0.325,0.652,-0.245,0.84,0.892,
47345550,-0.693,0.327,0.649,-0.91,2.257,0.7,
47345560,-0.702,0.319,0.64,-1.505,1.96,0.367,
47345570,-0.709,0.313,0.64,-1.312,1.435,0.402,
47345580,-0.703,0.311,0.639,-0.577,0,0.35,
47345590,-0.696,0.31,0.644,-0.49,-0.525,1.312,
47345600,-0.691,0.31,0.638,-0.49,-1.347,2.17,
47345610,-0.678,0.303,0.633,-0.35,-0.98,2.8,
47345620,-0.669,0.301,0.635,1.26,-0.927,3.43,
47345630,-0.665,0.306,0.643,3.465,0.157,3.885,
47345640,-0.692,0.32,0.65,5.197,0.787,3.92,
47345650,-0.714,0.324,0.645,5.547,1.085,3.43,
47345660,-0.709,0.33,0.642,5.39,0.437,2.555,
47345670,-0.712,0.329,0.638,4.235,0.245,2.975,
47345670,-0.709,0.331,0.637,3.167,-0.945,3.43,
47345690,-0.705,0.328,0.638,2.012,-1.837,4.06,
47345690,-0.681,0.319,0.633,1.662,-2.66,4.182,
47345710,-0.697,0.329,0.629,2.082,-2.94,4.602,
47345710,-0.718,0.329,0.631,1.767,-4.41,4.882,
47345730,-0.738,0.327,0.625,1.645,-6.842,4.427,
47345730,-0.742,0.344,0.629,1.977,-10.762,3.622,
47345750,-0.734,0.349,0.637,1.487,-14.017,3.15,
47345750,-0.689,0.302,0.685,1.277,-15.557,1.645,
47345760,-0.601,0.26,0.683,6.702,-11.357,-0.542,
47345770,-0.544,0.283,0.685,14.962,-3.237,-1.715,
47345780,-0.585,0.289,0.683,20.632,5.915,-5.722,
47345790,-0.645,0.315,0.67,27.615,13.02,-9.695,
47345800,-0.739,0.347,0.633,32.007,12.355,-13.247,
47345810,-0.775,0.363,0.594,33.425,6.09,-15.82,
47345820,-0.812,0.389,0.575,32.235,-3.605,-15.155,
47345830,-0.758,0.434,0.57,25.305,-9.1,-12.32,
47345840,-0.78,0.399,0.593,12.372,-11.2,-8.382,
47345850,-0.731,0.359,0.619,1.89,-14.455,-4.025,
47345860,-0.671,0.318,0.63,-3.465,-16.782,-1.47,
47345870,-0.634,0.323,0.646,-3.762,-15.26,-1.557,
47345880,-0.651,0.351,0.651,-4.305,-12.74,-0.56,
47345890,-0.67,0.366,0.658,-6.317,-9.835,1.277,
47345900,-0.653,0.376,0.661,-10.395,-6.755,2.397,
47345910,-0.641,0.362,0.649,-15.522,-1.855,4.042,
47345920,-0.612,0.361,0.631,-19.057,2.887,5.74,
47345930,-0.608,0.406,0.63,-23.03,10.657,7.402,
47345940,-0.632,0.422,0.65,-31.937,20.405,9.975,
47345950,-0.745,0.289,0.635,-38.71,29.102,11.865,
47345960,-0.726,0.248,0.633,-31.92,27.527,9.765,
47345970,-0.758,0.248,0.627,-19.425,21.595,5.53,
47345980,-0.712,0.282,0.62,-7.332,13.632,0.805,
47345990,-0.712,0.312,0.616,1.225,10.832,-1.33,
47346000,-0.772,0.298,0.606,4.585,7.507,-4.707,
47346010,-0.831,0.289,0.597,7.07,1.155,-6.58,
47346020,-0.84,0.31,0.599,9.957,-8.61,-5.827,
47346030,-0.886,0.295,0.58,10.867,-19.057,-3.36,
47346030,-0.849,0.217,0.555,17.552,-38.972,-6.195,
47346050,-0.59,0.398,0.661,32.882,-51.45,-14.017,
47346050,-0.658,0.346,0.683,31.395,-42.437,-15.855,
47346070,-0.57,0.324,0.665,27.685,-37.17,-18.182,
47346070,-0.579,0.391,0.677,27.37,-27.58,-14.245,
47346080,-0.623,0.378,0.648,18.76,-16.432,-11.777,
47346090,-0.65,0.346,0.644,12.075,-10.955,-9.292,
47346100,-0.652,0.393,0.656,5.127,-6.125,-3.972,
47346110,-0.661,0.343,0.661,-7.35,-2.607,2.59,
47346120,-0.608,0.336,0.665,-15.12,0.717,8.592,
47346130,-0.604,0.342,0.676,-20.002,7.052,14.297,
47346140,-0.522,0.359,0.693,-22.802,16.047,16.31,
47346150,-0.584,0.429,0.704,-31.01,36.067,24.867,
47346160,-0.708,0.238,0.617,-40.932,50.54,28.507,
47346170,-0.649,0.296,0.617,-33.652,48.562,22.575,
47346180,-0.725,0.322,0.615,-24.622,44.695,15.89,
47346190,-0.774,0.357,0.609,-17.395,40.985,8.155,
47346200,-0.907,0.277,0.538,-12.81,30.327,4.217,
47346210,-0.893,0.338,0.551,-0.42,10.815,-1.452,
47346220,-0.916,0.34,0.563,5.197,-4.585,-4.847,
47346230,-0.861,0.295,0.566,6.195,-18.48,-7.262,
47346240,-0.772,0.296,0.581,8.925,-29.627,-6.107,
47346250,-0.715,0.261,0.608,11.585,-33.652,-5.285,
47346260,-0.782,0.156,0.563,19.582,-39.06,-7.875,
47346270,-0.609,0.363,0.654,40.827,-52.01,-18.27,
47346280,-0.661,0.404,0.699,46.112,-43.61,-24.36,
47346290,-0.676,0.368,0.668,36.697,-37.222,-25.62,
47346300,-0.697,0.386,0.653,25.97,-32.095,-15.96,
47346310,-0.658,0.345,0.632,14.612,-30.992,-9.887,
47346320,-0.598,0.388,0.66,6.702,-26.005,-4.252,
47346330,-0.653,0.333,0.665,-4.9,-18.427,2.905,
47346340,-0.581,0.34,0.675,-9.345,-15.015,5.985,
47346350,-0.588,0.368,0.688,-12.775,-7.542,9.887,
47346360,-0.584,0.362,0.693,-17.027,0.525,10.202,
47346370,-0.605,0.368,0.68,-19.582,9.047,10.64,
47346380,-0.606,0.355,0.666,-21.35,15.732,9.8,
47346390,-0.49,0.459,0.67,-23.555,27.247,9.87,
47346400,-0.695,0.384,0.637,-41.93,51.415,19.582,
47346410,-0.739,0.22,0.574,-51.73,52.535,21.612,
47346420,-0.759,0.249,0.595,-39.445,45.657,21.525,
47346420,-0.745,0.278,0.613,-28.7,35.402,14.07,
47346440,-0.797,0.288,0.613,-16.467,28.927,9.292,
47346440,-0.807,0.273,0.611,-8.347,18.095,2.187,
47346460,-0.775,0.301,0.617,2.625,8.82,-4.55,
47346460,-0.806,0.291,0.597,10.185,2.957,-10.045,
47346480,-0.828,0.36,0.543,15.575,-5.477,-13.23,
47346480,-0.889,0.361,0.541,13.58,-21.21,-16.117,
47346500,-0.838,0.33,0.593,16.31,-39.812,-24.167,
47346500,-0.741,0.293,0.642,25.007,-48.09,-28.105,
47346510,-0.652,0.31,0.649,30.257,-48.51,-29.592,
47346520,-0.648,0.309,0.672,28.805,-45.237,-27.79,
47346530,-0.698,0.305,0.674,23.555,-44.1,-20.93,
47346540,-0.645,0.302,0.636,16.747,-42.875,-12.04,
47346550,-0.634,0.308,0.636,11.62,-37.187,-6.44,
47346560,-0.648,0.31,0.66,5.302,-29.89,-0.507,
47346570,-0.665,0.328,0.683,-2.135,-22.96,6.44,
47346580,-0.626,0.318,0.678,-9.677,-19.827,13.125,
47346590,-0.598,0.338,0.695,-13.72,-14.717,18.935,
47346600,-0.605,0.327,0.69,-16.59,-8.872,20.247,
47346610,-0.55,0.351,0.679,-14.507,-0.28,18.13,
47346620,-0.594,0.397,0.675,-17.097,14.717,21.017,
47346630,-0.712,0.312,0.642,-23.485,22.172,22.785,
47346640,-0.683,0.303,0.642,-18.97,16.257,18.27,
47346650,-0.677,0.354,0.662,-11.602,13.387,11.672,
47346660,-0.692,0.317,0.66,-7.857,10.675,4.847,
47346670,-0.675,0.321,0.674,-2.835,9.957,1.592,
47346680,-0.721,0.306,0.64,-1.102,9.065,-0.595,
47346690,-0.782,0.284,0.63,1.627,5.215,-3.955,
47346700,-0.767,0.296,0.62,5.81,-2.152,-5.6,
47346710,-0.769,0.326,0.604,8.137,-8.697,-6.562,
47346720,-0.793,0.348,0.603,7.385,-17.99,-9.765,
47346730,-0.76,0.363,0.64,4.935,-28.105,-11.987,
47346740,-0.696,0.33,0.665,1.347,-34.125,-13.422,
47346750,-0.625,0.299,0.68,-0.35,-32.847,-9.59,
47346760,-0.605,0.254,0.694,-0.42,-27.982,-5.845,
47346760,-0.594,0.258,0.699,0.805,-21.682,-3.57,
47346780,-0.616,0.253,0.677,2.345,-15.295,-0.962,
47346780,-0.635,0.286,0.67,3.815,-10.622,1.33,
47346800,-0.666,0.301,0.665,4.13,-7.857,2.887,
47346800,-0.666,0.326,0.668,3.85,-6.142,3.972,
47346820,-0.682,0.338,0.673,2.397,-5.757,4.917,
47346820,-0.664,0.348,0.681,1.68,-6.072,4.637,
47346830,-0.646,0.348,0.676,1.067,-5.652,4.27,
47346840,-0.634,0.35,0.672,1.312,-3.867,2.905,
47346850,-0.639,0.36,0.67,0.892,-1.417,1.697,
47346860,-0.626,0.364,0.679,-0.822,1.645,0.77,
47346870,-0.634,0.334,0.713,-3.027,6.02,1.05,
47346880,-0.574,0.233,0.72,1.942,7.805,-3.185,
47346890,-0.516,0.3,0.7,16.31,15.435,-6.387,
47346900,-0.619,0.338,0.684,20.632,22.96,-9.292,
47346910,-0.705,0.342,0.652,21.332,25.9,-10.692,
47346920,-0.741,0.414,0.617,18.515,24.832,-8.137,
47346930,-0.834,0.423,0.581,6.895,21.087,-6.387,
47346940,-0.862,0.35,0.594,-3.447,9.065,-4.007,
47346950,-0.767,0.28,0.635,-5.722,-4.007,-1.347,
47346960,-0.683,0.239,0.663,-5.565,-8.995,-1.417,
47346970,-0.631,0.225,0.671,-6.422,-7.07,-1.82,
47346980,-0.632,0.245,0.652,-7.017,-3.71,3.29,
47346990,-0.632,0.328,0.606,-9.275,0.472,7.315,
47347000,-0.742,0.359,0.628,-17.447,2.677,10.027,
47347010,-0.782,0.331,0.652,-21.682,-2.1,8.085,
47347020,-0.717,0.354,0.649,-19.197,-4.882,10.43,
47347030,-0.665,0.361,0.655,-19.582,-6.755,11.287,
47347040,-0.63,0.342,0.671,-19.932,-3.43,12.04,
47347050,-0.608,0.305,0.686,-19.635,1.487,11.48,
47347060,-0.599,0.263,0.671,-15.015,6.632,9.695,
47347070,-0.591,0.291,0.657,-6.492,11.952,6.422,
47347080,-0.664,0.35,0.675,-2.257,18.41,5.652,
47347090,-0.771,0.3,0.644,-4.9,22.4,7.192,
47347100,-0.764,0.296,0.625,-2.257,16.957,7.927,
47347110,-0.724,0.258,0.649,3.342,13.562,6.807,
47347120,-0.703,0.21,0.603,10.885,10.5,4.707,
47347130,-0.748,0.23,0.603,22.225,4.007,4.077,
47347140,-0.797,0.262,0.62,32.725,-4.41,3.657,
47347150,-0.797,0.276,0.615,40.372,-15.05,2.24,
47347160,-0.793,0.328,0.618,46.217,-27.317,-3.412,
47347170,-0.705,0.414,0.65,44.222,-36.785,-9.782,
47347170,-0.688,0.472,0.64,33.127,-39.62,-11.025,
47347190,-0.667,0.442,0.639,17.01,-36.68,-9.275,
47347190,-0.602,0.456,0.69,0.735,-30.03,-3.36,
47347210,-0.641,0.326,0.666,-13.072,-20.72,6.107,
47347210,-0.503,0.359,0.698,-15.015,-14.98,9.292,
47347230,-0.538,0.369,0.701,-20.055,-3.465,13.02,
47347230,-0.55,0.359,0.699,-23.362,8.225,12.862,
47347250,-0.514,0.413,0.67,-23.03,20.492,10.622,
47347250,-0.508,0.583,0.685,-34.195,45.482,16.52,
47347260,-0.8,0.304,0.626,-56.647,63.77,22.435,
47347270,-0.726,0.226,0.597,-51.712,57.032,17.797,
47347280,-0.737,0.249,0.624,-37.275,46.427,13.527,
47347290,-0.716,0.251,0.599,-26.862,38.605,8.4,
47347300,-0.79,0.283,0.6,-15.942,31.36,8.102,
47347310,-0.823,0.257,0.584,-11.147,20.44,6.002,
47347320,-0.797,0.29,0.592,-3.377,8.54,3.465,
47347330,-0.807,0.289,0.6,2.502,-0.49,1.26,
47347340,-0.76,0.317,0.616,7.385,-8.522,-1.417,
47347350,-0.731,0.321,0.631,6.335,-11.987,-0.577,
47347360,-0.702,0.301,0.628,4.48,-13.755,0.21,
47347370,-0.682,0.297,0.634,6.387,-12.722,0.542,
47347380,-0.695,0.323,0.639,9.012,-10.902,-0.385,
47347390,-0.716,0.33,0.635,10.15,-9.467,-0.875,
47347400,-0.765,0.335,0.584,11.41,-11.655,-1.89,
47347410,-0.7,0.406,0.612,14.175,-20.93,-6.212,
47347420,-0.721,0.42,0.688,10.465,-22.715,-10.15,
47347430,-0.632,0.321,0.642,0.787,-18.392,-7.927,
47347440,-0.641,0.327,0.661,-4.725,-14.595,-1.277,
47347450,-0.606,0.288,0.673,-8.697,-8.172,1.802,
47347460,-0.636,0.31,0.664,-10.342,-1.207,6.09,
47347470,-0.673,0.321,0.64,-13.055,3.71,9.852,
47347480,-0.703,0.327,0.629,-13.755,4.392,8.995,
47347490,-0.731,0.343,0.625,-12.845,3.535,7.595,
47347500,-0.721,0.403,0.627,-11.042,1.855,6.79,
47347510,-0.771,0.382,0.618,-15.19,3.377,8.137,
47347510,-0.723,0.31,0.625,-18.077,-0.717,5.705,
47347530,-0.676,0.337,0.642,-15.015,-2.747,4.357,
47347530,-0.617,0.345,0.638,-14.542,0.7,3.85,
47347550,-0.694,0.347,0.64,-18.497,6.615,6.86,
47347550,-0.723,0.321,0.631,-23.52,7.927,10.01,
47347570,-0.738,0.265,0.627,-24.097,6.702,10.132,
47347570,-0.751,0.275,0.629,-19.425,2.292,9.415,
47347580,-0.759,0.239,0.638,-16.205,-5.967,7.28,
47347590,-0.725,0.292,0.633,-11.707,-13.93,4.777,
47347600,-0.695,0.274,0.644,-9.765,-18.287,3.185,
47347610,-0.7,0.281,0.669,-5.215,-19.46,0.402,
47347620,-0.638,0.299,0.661,-0.42,-18.322,-1.33,
47347630,-0.659,0.327,0.66,2.502,-15.137,-3.08,
47347640,-0.683,0.358,0.66,1.872,-13.702,-4.55,
47347650,-0.695,0.352,0.664,-1.89,-14.507,-5.092,
47347660,-0.686,0.322,0.663,-4.602,-14.682,-5.81,
47347670,-0.679,0.32,0.653,-5.145,-14.087,-5.845,
47347680,-0.697,0.325,0.662,-5.897,-15.067,-5.32,
47347690,-0.71,0.308,0.656,-7.385,-15.54,-4.725,
47347700,-0.683,0.316,0.667,-7.665,-15.75,-4.147,
47347710,-0.693,0.303,0.668,-8.522,-14,-4.497,
47347720,-0.677,0.303,0.669,-9.555,-14.017,-4.515,
47347730,-0.68,0.291,0.67,-10.08,-12.337,-3.29,
47347740,-0.669,0.278,0.679,-8.435,-10.675,-2.59,
47347750,-0.686,0.274,0.668,-5.267,-9.047,-2.642,
47347760,-0.667,0.271,0.669,-1.12,-9.012,-2.852,
47347770,-0.653,0.274,0.686,2.292,-7.192,-2.502,
47347780,-0.619,0.276,0.686,4.847,-2.1,-1.417,
47347790,-0.609,0.3,0.687,4.725,4.602,0.805,
47347800,-0.642,0.316,0.675,1.137,9.555,5.39,
47347810,-0.64,0.33,0.668,-2.17,13.107,7.647,
47347820,-0.661,0.337,0.67,-3.727,15.557,7.665,
47347830,-0.652,0.313,0.689,-6.545,18.322,9.187,
47347840,-0.656,0.271,0.659,-7.455,22.75,11.69,
47347850,-0.706,0.274,0.635,-4.655,25.182,13.475,
47347860,-0.702,0.305,0.638,-4.13,19.932,12.617,
47347870,-0.738,0.306,0.654,-6.457,17.01,11.532,
47347880,-0.755,0.275,0.663,-7.42,11.41,9.1,
47347890,-0.702,0.263,0.656,-5.145,4.252,5.215,
47347900,-0.664,0.266,0.649,-2.187,0.84,2.187,
47347910,-0.69,0.28,0.647,0.822,1.662,0.7,
47347920,-0.686,0.29,0.649,3.167,1.312,-0.21,
47347920,-0.684,0.282,0.643,4.9,2.292,-1.225,
47347940,-0.637,0.27,0.651,7.962,5.162,-2.292,
47347940,-0.621,0.262,0.674,12.67,11.655,-3.395,
47347960,-0.608,0.262,0.694,18.9,20.282,-5.197,
47347960,-0.704,0.245,0.673,27.79,26.25,-10.78,
47347980,-0.645,0.303,0.709,41.02,23.73,-23.345,
47347980,-0.664,0.337,0.734,51.817,26.512,-38.272,
47348000,-0.635,0.296,0.723,60.602,32.777,-49.21,
47348000,-0.589,0.27,0.657,70.962,45.255,-53.182,
47348010,-0.571,0.328,0.593,88.76,58.87,-53.007,
47348020,-0.709,0.464,0.633,98.542,68.092,-56.717,
47348030,-0.771,0.488,0.652,94.797,67.077,-66.237,
47348040,-0.854,0.509,0.677,85.995,53.007,-68.057,
47348050,-0.904,0.548,0.71,75.145,28.192,-65.642,
47348060,-0.831,0.449,0.655,54.95,1.68,-60.917,
47348070,-0.805,0.459,0.618,36.435,-15.365,-56.962,
47348080,-0.73,0.453,0.583,20.877,-25.76,-41.737,
47348090,-0.686,0.381,0.59,8.12,-19.512,-30.152,
47348100,-0.673,0.334,0.589,5.757,-2.537,-29.837,
47348110,-0.727,0.369,0.628,7.577,12.617,-25.9,
47348120,-0.722,0.37,0.639,4.322,17.692,-18.795,
47348130,-0.728,0.361,0.63,-1.645,19.862,-13.93,
47348140,-0.728,0.379,0.644,-9.747,18.777,-8.557,
47348150,-0.71,0.386,0.621,-24.115,18.392,-5.11,
47348160,-0.763,0.409,0.593,-44.625,12.495,-4.007,
47348170,-0.661,0.223,0.456,-62.912,8.995,-4.007,
47348180,-0.765,0.165,0.439,-56.472,12.845,1.12,
47348190,-0.749,0.194,0.407,-50.995,17.097,3.797,
47348200,-0.794,0.2,0.404,-44.835,26.145,5.285,
47348210,-0.876,0.209,0.405,-41.72,35.192,7.595,
47348220,-0.904,0.213,0.407,-41.16,40.267,12.687,
47348230,-0.96,0.209,0.397,-44.73,43.4,17.955,
47348240,-0.998,0.231,0.414,-48.772,42.35,23.677,
47348250,-0.997,0.236,0.411,-57.557,37.747,26.6,
47348260,-0.999,0.207,0.404,-64.505,29.557,30.222,
47348260,-0.939,0.198,0.404,-69.72,20.755,33.127,
47348280,-0.859,0.201,0.4,-73.745,15.61,35.945,
47348280,-0.794,0.192,0.385,-78.05,17.412,37.975,
47348300,-0.765,0.2,0.38,-82.057,23.572,41.335,
47348300,-0.74,0.202,0.397,-88.077,30.695,48.545,
47348320,-0.796,0.297,0.417,-99.137,35.332,57.417,
47348320,-0.625,0.222,0.443,-107.852,41.597,55.79,
47348330,-0.704,0.234,0.476,-109.06,56.577,54.582,
47348340,-0.82,0.262,0.523,-110.635,67.095,59.797,
47348350,-0.884,0.293,0.555,-109.182,66.85,56.455,
47348360,-0.928,0.186,0.558,-96.985,47.862,49.787,
47348370,-0.847,0.105,0.545,-74.865,27.615,49.875,
47348380,-0.781,0.159,0.502,-49.91,21.805,49.595,
47348390,-0.889,0.237,0.495,-30.257,22.732,42.91,
47348400,-0.874,0.202,0.499,-23.555,11.13,39.9,
47348410,-0.865,0.246,0.45,-9.782,1.68,39.462,
47348420,-0.823,0.209,0.395,5.11,-11.042,42.875,
47348430,-0.92,0.233,0.419,17.57,-24.237,50.645,
47348440,-0.858,0.297,0.419,25.007,-41.685,53.235,
47348450,-0.735,0.296,0.405,25.9,-48.912,53.76,
47348460,-0.661,0.339,0.408,22.61,-35.717,50.61,
47348470,-0.692,0.378,0.406,13.562,-11.217,49.735,
47348480,-0.78,0.36,0.408,4.48,13.16,52.675,
47348490,-0.897,0.347,0.459,0.28,28.49,53.672,
47348500,-0.963,0.334,0.497,2.397,26.897,51.817,
47348510,-0.894,0.347,0.535,0.735,19.6,47.88,
47348520,-0.873,0.365,0.576,1.54,16.135,41.212,
47348530,-0.847,0.38,0.601,-1.785,15.907,38.745,
47348540,-0.8,0.365,0.599,-6.825,18.847,35.56,
47348550,-0.803,0.325,0.584,-9.187,23.327,32.812,
47348560,-0.755,0.33,0.576,-5.845,24.727,31.062,
47348570,-0.723,0.313,0.55,-4.287,28.122,28.647,
47348580,-0.725,0.316,0.514,-4.025,34.685,26.81,
47348590,-0.749,0.337,0.488,-4.06,43.47,23.8,
47348600,-0.837,0.374,0.458,-7.385,48.65,20.247,
47348610,-0.896,0.358,0.414,-12.67,45.01,17.377,
47348620,-0.874,0.375,0.377,-16.94,36.907,13.457,
47348630,-0.887,0.418,0.375,-24.482,35.332,7.997,
47348640,-0.957,0.415,0.382,-36.627,33.495,1.295,
47348650,-0.971,0.371,0.4,-45.535,23.135,3.062,
47348660,-0.891,0.362,0.404,-47.722,11.672,8.172,
47348670,-0.838,0.351,0.425,-46.13,7.7,9.432,
47348670,-0.795,0.334,0.432,-43.837,6.842,8.75,
47348690,-0.804,0.31,0.433,-40.775,6.93,9.135,
47348690,-0.864,0.317,0.441,-36.697,4.532,8.225,
47348710,-0.898,0.347,0.447,-33.512,-1.96,6.72,
47348710,-0.893,0.338,0.43,-32.497,-7.56,6.282,
47348730,-0.917,0.32,0.409,-31.15,-9.922,8.155,
47348730,-0.939,0.311,0.397,-28.14,-13.965,11.165,
47348750,-0.912,0.318,0.386,-24.482,-20.072,11.112,
47348750,-0.88,0.312,0.382,-24.64,-23.66,9.73,
47348760,-0.892,0.294,0.403,-27.79,-23.31,8.382,
47348770,-0.871,0.304,0.435,-31.045,-22.61,6.492,
47348780,-0.854,0.267,0.458,-32.497,-25.025,8.47,
47348790,-0.8,0.25,0.487,-29.977,-26.127,10.797,
47348800,-0.762,0.259,0.507,-23.607,-24.29,12.04,
47348810,-0.756,0.276,0.52,-16.222,-20.055,11.27,
47348820,-0.783,0.321,0.515,-9.485,-16.38,8.96,
47348830,-0.785,0.343,0.508,-6.212,-12.197,6.93,
47348840,-0.819,0.351,0.499,-6.545,-9.695,5.897,
47348850,-0.826,0.357,0.489,-8.207,-9.17,4.795,
47348860,-0.821,0.352,0.475,-10.5,-11.305,3.237,
47348870,-0.849,0.344,0.461,-11.27,-15.312,1.697,
47348880,-0.849,0.351,0.475,-9.1,-22.522,-0.052,
47348890,-0.845,0.358,0.501,-6.317,-29.085,-2.24,
47348900,-0.817,0.349,0.517,-4.27,-34.265,-4.497,
47348910,-0.761,0.36,0.549,-4.095,-34.667,-5.775,
47348920,-0.736,0.336,0.556,-7.7,-30.502,-6.09,
47348930,-0.732,0.284,0.546,-10.937,-24.08,-3.43,
47348940,-0.727,0.289,0.556,-7.735,-16.975,-1.277,
47348950,-0.744,0.292,0.547,-4.235,-10.307,-0.437,
47348960,-0.783,0.299,0.529,-1.995,-8.032,0.752,
47348970,-0.822,0.342,0.52,0.647,-8.715,0.525,
47348980,-0.848,0.363,0.51,0.297,-12.705,-1.4,
47348990,-0.834,0.366,0.51,-2.8,-17.832,-2.747,
47349000,-0.819,0.351,0.516,-6.475,-21.962,-3.202,
47349010,-0.819,0.331,0.524,-10.587,-24.237,-2.975,
47349010,-0.801,0.3,0.534,-12.967,-27.09,-2.94,
47349030,-0.767,0.274,0.542,-11.322,-26.985,-1.487,
47349030,-0.731,0.268,0.557,-7.052,-25.62,-0.332,
47349050,-0.706,0.277,0.575,-2.887,-21.402,0.455,
47349050,-0.707,0.293,0.576,1.172,-15.382,0.385,
47349070,-0.751,0.302,0.579,5.11,-11.357,-0.717,
47349070,-0.721,0.333,0.572,8.855,-9.8,-1.627,
47349080,-0.782,0.354,0.568,8.277,-6.107,-2.257,
47349090,-0.765,0.356,0.55,4.567,-4.76,-1.96,
47349100,-0.81,0.346,0.552,-0.087,-4.725,-1.732,
47349110,-0.774,0.3,0.545,-1.977,-7.245,-1.715,
47349120,-0.764,0.303,0.549,-0.105,-7.787,-1.365,
47349130,-0.761,0.315,0.557,-0.052,-8.102,-0.332,
47349140,-0.748,0.323,0.553,-1.557,-7.805,0.682,
47349150,-0.759,0.335,0.573,-2.782,-6.93,0.945,
47349160,-0.716,0.331,0.587,-3.85,-6.212,0.997,
47349170,-0.695,0.322,0.593,-4.427,-2.625,0.98,
47349180,-0.693,0.323,0.594,-5.145,3.167,0.665,
47349190,-0.724,0.32,0.584,-6.09,9.52,0.175,
47349200,-0.742,0.317,0.568,-5.67,13.195,-0.945,
47349210,-0.778,0.323,0.555,-4.515,15.085,-2.292,
47349220,-0.798,0.327,0.518,-3.342,13.58,-3.202,
47349230,-0.843,0.352,0.495,-4.497,10.185,-2.87,
47349240,-0.914,0.319,0.52,-6.86,1.085,-3.622,
47349250,-0.844,0.288,0.529,-3.097,-8.277,-4.882,
47349260,-0.803,0.284,0.526,2.205,-14.227,-5.092,
47349270,-0.823,0.251,0.525,5.407,-19.372,-3.395,
47349280,-0.833,0.291,0.559,10.272,-25.165,-0.805,
47349290,-0.826,0.296,0.56,12.757,-30.24,-0.892,
47349300,-0.804,0.301,0.55,14.245,-34.177,-1.26,
47349310,-0.782,0.301,0.557,15.54,-36.05,-1.942,
47349320,-0.75,0.306,0.563,15.645,-34.842,-2.24,
47349330,-0.7,0.321,0.586,13.055,-28.787,-2.555,
47349340,-0.692,0.317,0.588,7.455,-19.88,-0.752,
47349350,-0.692,0.296,0.606,3.395,-11.462,-0.875,
47349360,-0.647,0.272,0.589,5.127,-4.62,-2.782,
47349370,-0.72,0.372,0.629,7.227,6.527,-3.92,
47349380,-0.706,0.318,0.591,1.015,7.437,-1.627,
47349390,-0.74,0.305,0.572,-3.92,11.305,0.56,
47349400,-0.781,0.347,0.573,-6.755,14.787,0.28,
47349410,-0.737,0.357,0.581,-9.415,9.117,3.885,
47349420,-0.688,0.366,0.572,-12.162,10.885,2.8,
47349420,-0.761,0.311,0.568,-13.685,12.022,3.377,
47349430,-0.718,0.379,0.596,-11.69,9.695,1.47,
47349440,-0.741,0.361,0.586,-11.48,13.527,0.63,
47349450,-0.722,0.336,0.564,-12.092,15.207,-2.152,
47349460,-0.753,0.348,0.548,-12.162,18.847,-2.642,
47349470,-0.849,0.287,0.548,-13.807,18.06,-2.835,
47349480,-0.799,0.262,0.536,-9.397,10.465,-3.517,
47349490,-0.804,0.305,0.522,-3.657,7.735,-3.167,
47349500,-0.857,0.273,0.505,-3.605,2.8,-2.957,
47349510,-0.845,0.269,0.526,-0.315,-4.725,-2.695,
47349520,-0.845,0.271,0.529,4.742,-11.025,-2.835,
47349530,-0.824,0.278,0.525,6.58,-16.415,-2.345,
47349540,-0.833,0.275,0.529,6.93,-22.172,-1.26,
47349550,-0.795,0.297,0.563,9.38,-26.232,-0.997,
47349560,-0.796,0.288,0.581,11.427,-27.877,-1.575,
47349570,-0.716,0.295,0.584,14.805,-28.84,-2.607,
47349580,-0.724,0.319,0.596,17.675,-24.045,-2.03,
47349590,-0.758,0.318,0.59,15.942,-20.755,-0.542,
47349600,-0.719,0.34,0.583,13.72,-18.235,0.56,
47349610,-0.761,0.297,0.591,10.71,-14.192,1.557,
47349620,-0.681,0.299,0.578,11.97,-12.792,1.802,
47349630,-0.726,0.315,0.598,11.812,-7.385,2.38,
47349640,-0.695,0.337,0.576,8.47,-1.592,3.622,
47349650,-0.788,0.327,0.577,2.38,1.295,4.13,
47349660,-0.751,0.325,0.575,0.787,0.945,3.465,
47349670,-0.749,0.341,0.564,-0.507,2.8,2.8,
47349680,-0.749,0.335,0.567,-3.867,2.012,3.202,
47349690,-0.736,0.329,0.566,-5.32,1.067,4.235,
47349700,-0.725,0.34,0.585,-5.582,1.697,3.832,
47349710,-0.701,0.362,0.616,-8.032,4.637,3.727,
47349720,-0.747,0.389,0.585,-13.44,10.045,2.992,
47349730,-0.717,0.328,0.537,-18.305,16.275,2.012,
47349740,-0.757,0.352,0.544,-19.845,17.937,1.592,
47349750,-0.812,0.31,0.552,-21.297,16.327,1.4,
47349760,-0.794,0.284,0.545,-16.765,10.045,-0.157,
47349760,-0.78,0.323,0.548,-10.482,7.122,-0.962,
47349780,-0.844,0.266,0.564,-9.59,2.187,-1.82,
47349780,-0.756,0.278,0.55,-3.745,-0.63,-2.152,
47349800,-0.824,0.283,0.55,-0.91,-2.082,-2.03,
47349800,-0.809,0.261,0.543,1.032,-6.58,-1.68,
47349820,-0.823,0.286,0.537,6.51,-10.657,-1.732,
47349820,-0.831,0.299,0.542,8.382,-15.995,-1.085,
47349830,-0.844,0.281,0.536,9.065,-23.45,-0.402,
47349840,-0.818,0.302,0.561,13.807,-32.917,-0.682,
47349850,-0.786,0.305,0.581,17.99,-35.892,-2.03,
47349860,-0.712,0.283,0.594,21.77,-35.035,-4.427,
47349870,-0.661,0.346,0.628,22.085,-28.157,-2.8,
47349880,-0.682,0.312,0.587,13.947,-15.89,0.42,
47349890,-0.701,0.299,0.53,9.957,-7.542,1.172,
47349900,-0.8,0.355,0.608,10.955,0.927,0.752,
47349910,-0.72,0.341,0.628,7.017,-6.492,1.995,
47349920,-0.647,0.278,0.518,1.942,-4.27,2.835,
47349930,-0.751,0.381,0.627,3.255,8.137,-0.542,
47349940,-0.728,0.355,0.626,-3.237,2.66,2.905,
47349950,-0.692,0.31,0.569,-8.995,6.037,2.187,
47349960,-0.716,0.327,0.578,-8.627,11.882,1.942,
47349970,-0.75,0.358,0.565,-12.565,14.735,3.132,
47349980,-0.772,0.361,0.544,-16.345,16.94,0.367,
47349990,-0.831,0.362,0.546,-17.57,15.085,1.977,
47350000,-0.781,0.297,0.539,-18.427,4.41,1.575,
47350010,-0.73,0.324,0.581,-12.635,0.787,1.172,
47350020,-0.742,0.288,0.594,-9.572,1.067,-0.7,
47350030,-0.738,0.305,0.577,-6.527,4.025,-0.892,
47350040,-0.788,0.297,0.561,-3.92,4.34,-1.382,
47350050,-0.787,0.318,0.556,-1.102,2.73,-2.415,
47350060,-0.822,0.315,0.541,-1.102,-1.452,-3.237,
47350070,-0.84,0.316,0.513,-1.365,-7.927,-4.007,
47350080,-0.886,0.335,0.522,-1.19,-19.477,-4.55,
47350090,-0.833,0.317,0.576,-0.227,-32.34,-5.6,
47350100,-0.749,0.317,0.624,2.117,-31.605,-7.052,
47350110,-0.709,0.232,0.583,3.062,-25.042,-8.172,
47350120,-0.699,0.275,0.596,7.105,-20.842,-6.86,
47350120,-0.726,0.277,0.609,8.68,-14.35,-5.46,
47350140,-0.738,0.264,0.591,8.015,-10.762,-3.675,
47350140,-0.737,0.272,0.587,8.697,-11.287,-1.907,
47350160,-0.732,0.306,0.597,10.622,-9.765,-0.612,
47350160,-0.748,0.295,0.612,10.167,-8.085,-0.087,
47350170,-0.697,0.327,0.597,9.975,-4.515,0.822,
47350180,-0.741,0.312,0.585,6.632,0.402,1.75,
47350190,-0.734,0.33,0.564,4.655,2.607,2.572,
47350200,-0.776,0.332,0.584,1.347,1.75,3.395,
47350210,-0.731,0.329,0.597,-0.875,1.592,3.115,
47350220,-0.71,0.293,0.583,-2.047,3.797,2.817,
47350230,-0.706,0.308,0.563,-1.697,5.197,3.185,
47350240,-0.748,0.336,0.587,-1.26,4.427,3.29,
47350250,-0.747,0.34,0.596,-1.487,4.217,1.785,
47350260,-0.719,0.328,0.585,-1.872,4.882,0.332,
47350270,-0.709,0.319,0.584,-2.625,6.562,-0.262,
47350280,-0.73,0.326,0.577,-3.43,8.19,0.437,
47350290,-0.76,0.352,0.548,-4.97,8.925,0.63,
47350300,-0.857,0.38,0.531,-9.817,6.492,0.385,
47350310,-0.902,0.335,0.532,-15.032,-2.59,-0.805,
47350320,-0.821,0.33,0.564,-13.667,-11.515,-2.257,
47350330,-0.763,0.269,0.599,-12.337,-16.24,-3.167,
47350340,-0.699,0.227,0.585,-8.277,-14.49,-3.342,
47350350,-0.739,0.257,0.614,-2.975,-9.327,-2.222,
47350360,-0.747,0.238,0.584,0.087,-5.95,-1.295,
47350370,-0.796,0.283,0.577,3.727,-3.657,-0.875,
47350380,-0.808,0.297,0.559,4.287,-5.46,0.507,
47350390,-0.831,0.304,0.551,3.01,-9.205,1.872,
47350400,-0.803,0.316,0.553,3.027,-13.02,2.012,
47350410,-0.773,0.317,0.579,2.187,-13.912,2.082,
47350420,-0.75,0.248,0.666,1.645,-14.647,1.942,
47350430,-0.549,0.216,0.651,10.57,-8.365,0.315,
47350440,-0.593,0.304,0.599,17.272,6.51,1.067,
47350450,-0.739,0.353,0.591,11.987,16.555,4.637,
47350460,-0.802,0.348,0.563,6.895,17.272,5.617,
47350470,-0.773,0.373,0.543,4.917,12.792,4.725,
47350480,-0.784,0.358,0.535,-0.122,5.67,3.815,
47350490,-0.743,0.363,0.593,-2.712,0.262,2.572,
47350500,-0.702,0.352,0.624,-3.675,1.417,0.542,
47350510,-0.68,0.323,0.598,-5.145,6.142,-1.242,
47350510,-0.709,0.32,0.585,-4.532,10.202,-2.257,
47350530,-0.77,0.333,0.569,-3.71,12.617,-3.815,
47350530,-0.813,0.333,0.536,-3.307,11.06,-5.232,
47350550,-0.856,0.342,0.51,-3.57,7.175,-5.705,
47350550,-0.887,0.307,0.539,-4.69,-1.312,-5.95,
47350570,-0.821,0.254,0.541,-2.012,-8.522,-5.425,
47350570,-0.808,0.245,0.555,1.33,-11.917,-4.357,
47350580,-0.804,0.243,0.552,3.01,-14.262,-2.345,
47350590,-0.806,0.255,0.548,5.39,-17.675,-0.56,
47350600,-0.807,0.271,0.547,7.437,-21.297,0.367,
47350610,-0.775,0.3,0.57,9.082,-24.727,0.367,
47350620,-0.743,0.316,0.586,8.837,-24.29,1.12,
47350630,-0.716,0.323,0.59,5.022,-19.827,2.187,
47350640,-0.728,0.309,0.607,-0.262,-14.542,2.94,
47350650,-0.69,0.298,0.604,-3.832,-9.695,3.78,
47350660,-0.675,0.304,0.594,-4.97,-3.78,4.27,
47350670,-0.685,0.351,0.607,-6.16,1.75,5.355,
47350680,-0.65,0.365,0.622,-10.01,9.572,5.95,
47350690,-0.73,0.21,0.538,-13.457,28.402,2.975,
47350700,-0.832,0.394,0.619,-4.41,22.907,3.097,
47350710,-0.738,0.345,0.59,-5.197,10.447,7.63,
47350720,-0.703,0.313,0.558,-3.325,6.335,3.255,
47350730,-0.758,0.359,0.578,3.167,8.102,0.315,
47350740,-0.792,0.328,0.551,2.94,6.265,-2.485,
47350750,-0.838,0.333,0.553,4.55,2.362,-3.237,
47350760,-0.838,0.329,0.563,5.127,-3.22,-3.92,
47350770,-0.829,0.293,0.544,3.57,-7.647,-5.407,
47350780,-0.85,0.213,0.549,6.265,-15.96,-6.965,
47350790,-0.757,0.246,0.551,15.522,-24.272,-8.557,
47350800,-0.825,0.287,0.522,20.125,-29.137,-8.592,
47350810,-0.907,0.294,0.502,20.475,-37.257,-6.93,
47350820,-0.742,0.351,0.524,24.027,-40.145,-6.492,
47350830,-0.801,0.361,0.593,19.18,-31.325,-6.02,
47350830,-0.653,0.3,0.604,8.907,-27.93,-4.48,
47350850,-0.636,0.279,0.643,3.797,-18.235,-2.922,
47350850,-0.607,0.32,0.696,2.765,-9.975,-2.1,
47350870,-0.591,0.337,0.672,-1.295,-3.097,1.26,
47350870,-0.627,0.339,0.634,-4.322,7.437,1.925,
47350890,-0.661,0.353,0.623,-4.2,15.715,2.782,
47350890,-0.684,0.373,0.629,-6.877,21.875,3.937,
47350910,-0.734,0.312,0.579,-12.127,29.575,4.532,
47350910,-0.715,0.327,0.57,-14.682,32.777,6.23,
47350920,-0.815,0.32,0.543,-17.535,35.647,7.945,
47350930,-0.849,0.273,0.525,-16.677,26.18,5.722,
47350940,-0.787,0.336,0.556,-9.677,17.062,4.305,
47350950,-0.79,0.322,0.553,-8.382,12.407,2.397,
47350960,-0.808,0.311,0.546,-9.345,9.485,2.292,
47350970,-0.816,0.306,0.55,-7.875,5.81,1.995,
47350980,-0.804,0.3,0.546,-5.215,1.82,0.735,
47350990,-0.798,0.282,0.554,-2.047,-2.537,-0.91,
47351000,-0.793,0.286,0.556,1.785,-5.705,-1.855,
47351010,-0.802,0.294,0.551,2.992,-7.735,-1.54,
47351020,-0.804,0.303,0.538,2.992,-10.097,-0.857,
47351030,-0.816,0.305,0.533,3.272,-13.825,-0.612,
47351040,-0.818,0.298,0.539,4.112,-20.16,-1.487,
47351050,-0.796,0.282,0.555,6.842,-26.967,-2.835,
47351060,-0.768,0.289,0.555,10.99,-33.705,-3.675,
47351070,-0.718,0.359,0.621,13.807,-36.68,-3.902,
47351080,-0.719,0.329,0.643,10.5,-28.805,-2.94,
47351090,-0.645,0.291,0.619,8.61,-19.635,-3.692,
47351100,-0.687,0.302,0.609,8.697,-9.677,-2.992,
47351110,-0.731,0.299,0.594,7.437,-3.482,-1.995,
47351120,-0.758,0.311,0.584,7.612,-1.26,-1.085,
47351130,-0.774,0.291,0.579,7.665,-1.732,-0.157,
47351140,-0.758,0.323,0.585,8.557,-2.24,1.592,
47351150,-0.767,0.287,0.6,7.455,-1.872,3.377,
47351160,-0.694,0.31,0.571,9.17,0.612,4.917,
47351170,-0.76,0.327,0.567,7,4.707,6.597,
47351180,-0.751,0.325,0.599,3.36,3.64,7.332,
47351190,-0.703,0.338,0.559,2.572,7.017,7.7,
47351200,-0.74,0.35,0.583,-0.647,8.592,7.315,
47351210,-0.729,0.352,0.585,-4.357,9.87,7.507,
47351220,-0.746,0.335,0.569,-6.405,9.152,6.877,
47351230,-0.737,0.335,0.577,-7.262,6.737,6.002,
47351240,-0.736,0.358,0.587,-8.032,6.002,4.34,
47351250,-0.733,0.373,0.561,-10.045,10.027,3.01,
47351260,-0.814,0.356,0.548,-15.137,11.987,1.977,
47351260,-0.812,0.282,0.539,-14.892,4.13,-0.77,
47351280,-0.763,0.402,0.536,-8.365,3.062,-2.03,
47351280,-0.897,0.295,0.549,-15.592,-1.942,-4.235,
47351300,-0.775,0.319,0.534,-14.647,-8.417,-3.85,
47351300,-0.817,0.282,0.555,-14.14,-12.845,-2.747,
47351320,-0.754,0.285,0.577,-13.475,-15.68,-1.487,
47351320,-0.743,0.249,0.597,-10.605,-17.027,-0.56,
47351330,-0.689,0.291,0.596,-5.127,-14.787,-0.21,
47351340,-0.755,0.301,0.607,-3.622,-11.812,0.332,
47351350,-0.729,0.308,0.601,-0.962,-9.327,-0.525,
47351360,-0.725,0.309,0.596,1.522,-6.457,-1.365,
47351370,-0.742,0.308,0.586,1.592,-3.78,-1.102,
47351380,-0.756,0.304,0.578,2.362,-2.467,-0.805,
47351390,-0.759,0.297,0.57,2.642,-2.397,-0.157,
47351400,-0.774,0.281,0.569,3.5,-3.902,0.507,
47351410,-0.785,0.281,0.571,6.247,-6.562,0.945,
47351420,-0.782,0.273,0.592,10.115,-11.742,0.455,
47351430,-0.767,0.291,0.574,16.275,-16.31,-0.245,
47351440,-0.766,0.366,0.579,18.97,-15.277,0.122,
47351450,-0.81,0.332,0.57,11.76,-15.872,1.575,
47351460,-0.754,0.332,0.577,8.155,-17.08,2.17,
47351470,-0.718,0.304,0.589,6.387,-16.922,2.03,
47351480,-0.665,0.326,0.599,5.39,-12.985,2.52,
47351490,-0.69,0.333,0.609,2.397,-6.965,3.062,
47351500,-0.704,0.335,0.599,0.087,-3.045,2.537,
47351510,-0.716,0.345,0.608,-1.102,0.612,1.207,
47351520,-0.717,0.347,0.604,-2.992,3.307,0.21,
47351530,-0.725,0.34,0.594,-5.495,5.617,-0.507,
47351540,-0.736,0.342,0.595,-7.63,6.527,-0.805,
47351550,-0.752,0.333,0.587,-10.71,7.437,-0.455,
47351560,-0.754,0.324,0.578,-13.387,6.632,0.245,
47351570,-0.747,0.322,0.571,-15.102,6.86,1.155,
47351580,-0.773,0.318,0.563,-16.852,6.142,1.977,
47351580,-0.785,0.302,0.561,-17.955,3.36,2.695,
47351600,-0.735,0.316,0.565,-16.397,0.437,3.132,
47351600,-0.774,0.301,0.584,-16.625,-0.77,3.745,
47351620,-0.729,0.301,0.582,-15.382,-2.94,4.06,
47351620,-0.77,0.299,0.605,-14.14,-2.957,3.972,
47351640,-0.743,0.288,0.592,-12.022,-5.652,2.677,
47351640,-0.745,0.309,0.601,-9.117,-4.445,1.995,
47351660,-0.745,0.296,0.604,-7.91,-3.657,0.385,
47351660,-0.726,0.294,0.596,-5.267,-1.435,-0.787,
47351670,-0.732,0.269,0.595,-2.59,0.175,-1.382,
47351680,-0.747,0.281,0.588,1.015,1.557,-1.312,
47351690,-0.783,0.293,0.579,3.552,0.77,-1.032,
47351700,-0.805,0.301,0.571,4.13,-1.925,-0.385,
47351710,-0.821,0.295,0.565,3.78,-6.282,0.262,
47351720,-0.816,0.283,0.556,4.427,-11.672,0.35,
47351730,-0.842,0.268,0.555,7.315,-18.41,0.157,
47351740,-0.804,0.259,0.579,13.72,-36.732,-2.03,
47351750,-0.641,0.383,0.639,21.56,-37.782,-1.68,
47351760,-0.734,0.325,0.602,14.21,-26.495,-1.102,
47351770,-0.76,0.299,0.601,6.895,-22.995,2.117,
47351780,-0.759,0.286,0.638,7.175,-21.682,2.432,
47351790,-0.605,0.301,0.593,9.327,-21.402,-0.175,
47351800,-0.674,0.374,0.621,7.875,-9.905,1.312,
47351810,-0.721,0.314,0.613,1.54,-4.322,1.855,
47351820,-0.714,0.333,0.618,2.047,-1.697,2.1,
47351830,-0.692,0.323,0.628,2.905,1.277,1.855,
47351840,-0.683,0.315,0.642,2.327,4.637,2.03,
47351850,-0.655,0.338,0.605,2.677,11.532,2.45,
47351860,-0.717,0.348,0.616,-0.857,14.507,3.57,
47351870,-0.711,0.328,0.606,-3.57,16.03,4.287,
47351880,-0.699,0.328,0.602,-3.99,17.78,4.585,
47351890,-0.749,0.31,0.583,-7.945,19.04,6.055,
47351900,-0.765,0.304,0.564,-9.327,15.312,5.915,
47351910,-0.772,0.337,0.589,-8.732,13.79,5.39,
47351920,-0.752,0.342,0.567,-11.952,14.385,4.025,
47351930,-0.784,0.324,0.571,-15.837,17.01,3.377,
47351940,-0.769,0.263,0.583,-15.575,10.972,1.802,
47351950,-0.68,0.359,0.581,-9.502,12.512,0.962,
47351960,-0.823,0.31,0.581,-13.702,14.56,0.56,
47351970,-0.77,0.313,0.549,-14.14,10.447,0.315,
47351980,-0.844,0.301,0.551,-12.565,5.022,-0.07,
47351990,-0.788,0.301,0.542,-11.305,-1.697,-0.21,
47352000,-0.829,0.323,0.571,-11.41,-6.93,0.7,
47352010,-0.78,0.28,0.573,-10.937,-12.372,0.402,
47352010,-0.768,0.289,0.585,-7.262,-14.945,-0.455,
47352030,-0.745,0.242,0.604,-4.2,-16.415,-0.84,
47352030,-0.712,0.277,0.594,-0.035,-15.75,-1.137,
47352050,-0.747,0.275,0.604,1.12,-13.475,-0.175,
47352050,-0.742,0.287,0.585,1.505,-12.39,0.49,
47352070,-0.769,0.294,0.574,2.94,-13.072,0.927,
47352070,-0.789,0.297,0.589,4.812,-17.43,0.56,
47352080,-0.744,0.305,0.604,8.907,-23.205,-1.575,
47352090,-0.699,0.333,0.634,11.445,-20.422,-2.047,
47352100,-0.827,0.205,0.606,10.692,-23.135,-2.047,
47352110,-0.575,0.334,0.602,20.685,-24.937,-2.66,
47352120,-0.815,0.305,0.626,17.29,-14.07,-0.875,
47352130,-0.674,0.298,0.587,12.145,-16.292,-0.262,
47352140,-0.764,0.356,0.608,11.585,-8.82,1.855,
47352150,-0.707,0.328,0.605,5.652,-6.895,2.117,
47352160,-0.773,0.319,0.629,2.275,-5.88,2.852,
47352170,-0.703,0.302,0.582,3.972,-6.107,1.54,
47352180,-0.737,0.346,0.584,4.235,-5.25,2.152,
47352190,-0.751,0.337,0.608,0.455,-6.037,2.415,
47352200,-0.726,0.325,0.613,-1.417,-6.755,1.47,
47352210,-0.68,0.313,0.617,-2.135,-4.935,0.63,
47352220,-0.678,0.321,0.63,-3.132,-1.785,0.385,
47352230,-0.678,0.318,0.636,-3.85,2.397,1.085,
47352240,-0.669,0.32,0.636,-4.9,7.56,1.365,
47352250,-0.675,0.314,0.619,-7.017,14.35,1.627,
47352260,-0.666,0.335,0.626,-9.52,22.4,2.45,
47352270,-0.743,0.3,0.592,-14.35,29.225,3.412,
47352280,-0.713,0.335,0.586,-14.28,28.437,4.305,
47352290,-0.831,0.282,0.561,-13.107,26.897,3.972,
47352300,-0.832,0.286,0.521,-7.507,15.575,2.887,
47352310,-0.861,0.325,0.531,-1.61,3.675,2.257,
47352320,-0.808,0.32,0.571,-0.717,-6.772,0.665,
47352330,-0.759,0.308,0.592,-0.665,-10.622,-0.735,
47352330,-0.723,0.289,0.602,0.385,-10.815,-1.995,
47352350,-0.658,0.342,0.54,0.857,-7.297,-1.61,
47352350,-0.838,0.371,0.571,-4.357,-5.127,0.192,
47352370,-0.823,0.318,0.567,-7.227,-15.435,-0.945,
47352370,-0.758,0.365,0.614,-2.747,-20.265,-3.78,
47352390,-0.738,0.297,0.628,-4.322,-19.11,-5.88,
47352390,-0.708,0.258,0.598,-2.38,-18.13,-7.087,
47352410,-0.691,0.302,0.643,0.91,-16.905,-6.597,
47352410,-0.716,0.247,0.625,0.927,-12.18,-5.547,
47352420,-0.705,0.26,0.606,4.042,-10.675,-6.002,
47352430,-0.738,0.263,0.602,6.965,-11.112,-5.32,
47352440,-0.742,0.288,0.608,9.257,-10.797,-4.427,
47352450,-0.802,0.274,0.603,10.202,-10.657,-3.867,
47352460,-0.758,0.287,0.591,12.32,-14.63,-3.85,
47352470,-0.773,0.3,0.613,13.3,-15.26,-2.607,
47352480,-0.78,0.255,0.614,12.127,-18.357,-0.98,
47352490,-0.66,0.305,0.624,15.05,-18.497,0.262,
47352500,-0.701,0.274,0.61,13.965,-13.055,2.922,
47352510,-0.61,0.273,0.633,14.77,-5.232,5.897,
47352520,-0.59,0.261,0.641,17.535,5.775,7.315,
47352530,-0.574,0.26,0.649,20.772,20.282,9.45,
47352540,-0.617,0.281,0.652,23.257,35.49,12.407,
47352550,-0.626,0.28,0.621,26.985,51.275,13.79,
47352560,-0.708,0.252,0.63,31.465,65.38,15.225,
47352570,-0.624,0.224,0.612,38.412,75.53,12.512,
47352580,-0.714,0.283,0.605,49.56,87.955,11.9,
47352590,-0.801,0.333,0.539,54.337,92.767,8.907,
47352600,-0.968,0.388,0.473,52.202,81.235,7.192,
47352610,-1.018,0.465,0.419,44.747,57.977,6.02,
47352620,-1.026,0.472,0.382,32.97,31.01,3.797,
47352630,-0.952,0.493,0.386,21.455,6.195,1.645,
47352640,-0.917,0.503,0.412,8.715,-13.807,1.925,
47352650,-0.913,0.49,0.426,-3.78,-30.31,2.747,
47352660,-0.873,0.476,0.426,-13.282,-47.145,4.392,
47352670,-0.853,0.463,0.475,-20.212,-58.397,5.705,
47352680,-0.795,0.424,0.496,-26.932,-66.517,4.567,
47352690,-0.718,0.38,0.535,-30.992,-69.405,2.59,
47352700,-0.68,0.341,0.574,-31.867,-65.362,1.732,
47352710,-0.642,0.308,0.6,-29.75,-55.982,0.997,
47352720,-0.586,0.278,0.638,-24.307,-42.752,0.122,
47352730,-0.565,0.238,0.662,-14.56,-22.96,0.227,
47352740,-0.56,0.298,0.62,-2.905,-4.357,-0.647,
47352750,-0.705,0.343,0.584,0.455,8.995,-0.262,
47352760,-0.806,0.394,0.551,-0.7,11.602,1.015,
47352760,-0.842,0.398,0.521,-3.78,6.475,0.192,
47352780,-0.831,0.385,0.526,-7.105,-2.835,-1.05,
47352780,-0.798,0.369,0.545,-9.765,-11.392,-1.925,
47352800,-0.759,0.336,0.563,-9.887,-16.922,-2.572,
47352800,-0.729,0.325,0.58,-7.35,-18.2,-2.887,
47352820,-0.727,0.321,0.59,-4.707,-17.57,-3.272,
47352820,-0.732,0.316,0.585,-2.52,-15.96,-3.412,
47352830,-0.729,0.32,0.58,-0.07,-14.332,-3.36,
47352840,-0.729,0.336,0.596,1.277,-11.672,-2.94,
47352850,-0.722,0.336,0.594,0.507,-8.68,-2.1,
47352860,-0.741,0.327,0.578,-0.087,-6.142,-1.05,
47352870,-0.784,0.331,0.567,0.805,-6.107,0.297,
47352880,-0.814,0.325,0.56,1.575,-10.885,2.065,
47352890,-0.839,0.334,0.565,3.08,-18.287,4.427,
47352900,-0.768,0.35,0.569,4.48,-25.165,5.722,
47352910,-0.676,0.357,0.607,3.885,-25.252,5.46,
47352920,-0.593,0.332,0.637,3.377,-19.722,5.372,
47352930,-0.553,0.348,0.648,4.077,-6.16,4.707,
47352940,-0.596,0.35,0.637,2.275,7.35,4.462,
47352950,-0.636,0.376,0.615,0.035,17.885,3.885,
47352960,-0.708,0.396,0.59,-2.45,25.235,2.485,
47352970,-0.777,0.392,0.558,-7.367,26.932,2.485,
47352980,-0.781,0.387,0.548,-12.162,21.367,2.642,
47352990,-0.768,0.373,0.552,-14.087,17.675,2.275,
47353000,-0.749,0.365,0.568,-16.117,15.68,2.117,
47353010,-0.737,0.333,0.567,-17.78,14.315,2.065,
47353020,-0.787,0.3,0.561,-15.487,12.267,1.155,
47353030,-0.754,0.325,0.531,-10.097,9.397,0.91,
47353040,-0.873,0.335,0.551,-9.642,4.27,2.012,
47353050,-0.814,0.313,0.559,-8.277,-5.495,0.21,
47353060,-0.803,0.332,0.53,-3.167,-9.59,-0.507,
47353070,-0.788,0.314,0.581,-3.202,-16.73,-1.137,
47353080,-0.764,0.293,0.571,0.035,-19.512,-2.047,
47353080,-0.738,0.311,0.582,4.427,-20.825,-2.047,
47353100,-0.765,0.307,0.583,6.125,-22.242,-1.61,
47353100,-0.79,0.321,0.578,9.905,-24.815,-2.327,
47353120,-0.744,0.342,0.601,13.055,-28.42,-3.465,
47353120,-0.739,0.306,0.59,13.912,-30.537,-4.06,
47353140,-0.681,0.346,0.602,16.905,-30.205,-3.657,
47353140,-0.719,0.312,0.626,16.415,-25.287,-2.957,
47353160,-0.647,0.353,0.622,18.112,-21.63,-2.975,
47353160,-0.669,0.388,0.597,16.17,-13.632,-2.17,
47353170,-0.711,0.393,0.614,10.762,-8.102,-1.662,
47353180,-0.678,0.399,0.611,5.092,-2.905,-1.207,
47353190,-0.671,0.352,0.604,0.962,1.4,-0.245,
47353200,-0.67,0.352,0.594,-0.297,5.495,1.61,
47353210,-0.681,0.349,0.616,-2.555,8.225,2.94,
47353220,-0.719,0.321,0.578,-4.97,10.482,4.462,
47353230,-0.719,0.355,0.581,-5.442,9.362,4.637,
47353240,-0.744,0.385,0.608,-8.137,9.852,4.585,
47353250,-0.709,0.386,0.595,-12.355,13.002,3.237,
47353260,-0.696,0.379,0.574,-16.03,18.077,1.995,
47353270,-0.72,0.367,0.58,-19.092,21.385,0.927,
47353280,-0.715,0.375,0.574,-20.09,22.942,1.067,
47353290,-0.774,0.312,0.56,-21.332,21.717,0.472,
47353300,-0.732,0.327,0.542,-17.01,18.165,0.805,
47353310,-0.824,0.309,0.556,-14.77,15.155,1.47,
47353320,-0.787,0.322,0.546,-10.92,7.752,1.155,
47353330,-0.851,0.349,0.561,-10.412,3.377,2.345,
47353340,-0.782,0.268,0.565,-9.817,-5.932,0.542,
47353350,-0.757,0.356,0.544,-4.147,-8.33,0.157,
47353360,-0.807,0.306,0.579,-5.075,-13.93,-0.087,
47353370,-0.737,0.294,0.576,-0.735,-17.587,-0.98,
47353380,-0.741,0.321,0.578,5.232,-17.955,-0.735,
47353390,-0.782,0.331,0.576,5.04,-19.81,0.857,
47353400,-0.782,0.33,0.576,7.402,-24.272,0.21,
47353410,-0.736,0.332,0.589,10.937,-26.792,-0.857,
47353420,-0.71,0.297,0.596,13.282,-27.58,-2.117,
47353430,-0.714,0.305,0.607,17.815,-24.675,-2.572,
47353440,-0.714,0.337,0.61,19.81,-21.752,-3.01,
47353450,-0.73,0.335,0.61,16.73,-18.392,-1.575,
47353460,-0.732,0.333,0.593,13.86,-18.007,-0.105,
47353470,-0.723,0.346,0.601,12.46,-17.64,0.787,
47353480,-0.673,0.384,0.621,10.045,-15.05,1.172,
47353490,-0.654,0.363,0.607,4.9,-9.257,1.242,
47353500,-0.672,0.388,0.612,1.54,-3.132,1.592,
47353510,-0.692,0.371,0.624,-2.205,1.4,2.082,
47353510,-0.676,0.363,0.616,-4.287,4.497,1.627,
47353520,-0.688,0.357,0.615,-6.632,8.067,1.697,
47353530,-0.678,0.367,0.622,-9.485,11.392,1.172,
47353540,-0.682,0.375,0.616,-12.337,17.097,0.595,
47353550,-0.744,0.346,0.598,-15.96,22.312,-0.647,
47353560,-0.727,0.355,0.582,-16.817,21.122,-1.907,
47353570,-0.738,0.392,0.565,-18.515,22.295,-1.925,
47353580,-0.797,0.342,0.568,-23.17,22.435,-0.91,
47353590,-0.765,0.319,0.552,-23.8,16.065,-0.717,
47353600,-0.769,0.305,0.555,-19.057,11.882,-0.192,
47353610,-0.76,0.309,0.557,-14.945,7.49,-0.332,
47353620,-0.807,0.299,0.579,-11.637,2.432,-1.05,
47353630,-0.768,0.32,0.566,-7.052,-2.1,-1.75,
47353640,-0.805,0.311,0.571,-5.005,-6.965,-2.082,
47353650,-0.757,0.271,0.572,-1.557,-11.865,-2.03,
47353660,-0.748,0.287,0.561,5.232,-13.212,-2.047,
47353670,-0.783,0.328,0.588,8.977,-15.802,-2.31,
47353680,-0.764,0.339,0.607,9.047,-17.535,-3.465,
47353690,-0.735,0.286,0.584,9.397,-17.15,-4.585,
47353700,-0.725,0.302,0.591,13.177,-17.867,-4.392,
47353710,-0.749,0.333,0.598,15.172,-15.68,-3.027,
47353720,-0.77,0.297,0.601,15.032,-16.432,-2.502,
47353730,-0.682,0.329,0.61,18.97,-16.607,-3.447,
47353740,-0.683,0.374,0.611,18.637,-11.095,-2.975,
47353750,-0.737,0.355,0.621,11.515,-6.79,-0.577,
47353760,-0.678,0.356,0.604,8.207,-3.395,0.42,
47353770,-0.702,0.358,0.587,4.917,1.82,1.907,
47353780,-0.697,0.356,0.597,0.612,4.06,3.605,
47353790,-0.703,0.362,0.59,-3.307,5.652,4.9,
47353800,-0.712,0.353,0.598,-6.475,5.547,5.092,
47353810,-0.68,0.35,0.621,-8.715,7.892,4.427,
47353820,-0.708,0.338,0.611,-11.025,12.495,4.742,
47353830,-0.725,0.346,0.582,-13.265,16.642,4.637,
47353830,-0.747,0.362,0.571,-14.962,18.637,4.112,
47353850,-0.768,0.332,0.586,-16.572,18.83,3.307,
47353850,-0.736,0.34,0.533,-18.585,18.97,-2.765,
47353870,-0.758,0.281,0.548,-14.665,14.56,2.275,
47353870,-0.761,0.335,0.57,-10.885,10.342,3.132,
47353890,-0.77,0.36,0.552,-9.905,9.222,1.68,
47353890,-0.849,0.303,0.574,-10.482,3.535,0.962,
47353910,-0.777,0.313,0.553,-4.812,-2.397,-0.945,
47353910,-0.824,0.323,0.53,-1.942,-8.19,-1.172,
47353920,-0.846,0.297,0.565,-0.892,-18.112,-1.417,
47353930,-0.778,0.289,0.572,4.777,-24.832,-2.537,
47353940,-0.758,0.289,0.579,8.225,-27.947,-2.747,
47353950,-0.745,0.296,0.59,9.747,-30.362,-2.607,
47353960,-0.745,0.291,0.6,13.3,-28.962,-2.135,
47353970,-0.708,0.312,0.592,17.36,-28.227,-2.695,
47353980,-0.741,0.331,0.615,18.375,-24.745,-2.082,
47353990,-0.664,0.346,0.621,17.762,-23.117,-2.152,
47354000,-0.695,0.386,0.599,13.212,-15.942,-0.21,
47354010,-0.708,0.356,0.602,6.51,-11.97,0.752,
47354020,-0.721,0.346,0.64,4.812,-9.485,0.245,
47354030,-0.595,0.358,0.626,5.582,-2.992,-1.47,
47354040,-0.696,0.349,0.622,0.385,8.715,-0.682,
47354050,-0.726,0.409,0.648,-4.812,16.817,-1.155,
47354060,-0.638,0.276,0.58,-9.152,17.342,2.887,
47354070,-0.746,0.351,0.553,-11.567,24.22,0.84,
47354080,-0.725,0.274,0.515,-7.63,15.522,6.877,
47354090,-0.824,0.29,0.516,-0.21,10.167,6.16,
47354100,-0.809,0.317,0.564,4.2,-1.312,6.23,
47354110,-0.778,0.342,0.591,5.25,-7.157,6.562,
47354120,-0.731,0.328,0.592,4.672,-9.555,5.687,
47354130,-0.711,0.33,0.586,4.83,-9.73,5.6,
47354140,-0.726,0.391,0.546,5.302,-8.627,4.532,
47354150,-0.845,0.417,0.589,-1.137,-11.917,4.235,
47354160,-0.775,0.353,0.613,-3.29,-18.9,1.54,
47354170,-0.704,0.351,0.605,0.472,-18.532,-1.47,
47354180,-0.71,0.327,0.621,-0.507,-17.64,-1.557,
47354190,-0.695,0.321,0.629,-0.787,-14.507,-1.05,
47354200,-0.695,0.317,0.61,1.225,-10.272,-1.47,
47354210,-0.71,0.328,0.602,0.245,-6.457,-0.84,
47354210,-0.728,0.34,0.604,-1.89,-3.447,0.805,
47354230,-0.752,0.362,0.598,-5.127,-1.662,3.097,
47354230,-0.726,0.372,0.599,-7.997,-2.415,3.605,
47354250,-0.715,0.366,0.615,-9.975,-1.47,3.972,
47354250,-0.7,0.316,0.676,-10.605,-0.157,3.552,
47354260,-0.648,0.261,0.604,-6.492,7.192,3.36,
47354270,-0.699,0.319,0.576,-5.74,12.057,6.02,
47354280,-0.767,0.319,0.569,-7.577,11.515,9.38,
47354290,-0.78,0.346,0.55,-5.582,6.632,9.8,
47354300,-0.765,0.342,0.537,-5.687,-1.155,9.625,
47354310,-0.765,0.327,0.57,-4.62,-9.012,9.905,
47354320,-0.778,0.342,0.588,-1.435,-13.107,9.275,
47354330,-0.79,0.352,0.588,0.647,-16.817,7.7,
47354340,-0.764,0.337,0.568,0.945,-22.12,6.422,
47354350,-0.756,0.327,0.578,3.22,-28,6.23,
47354360,-0.74,0.327,0.6,5.32,-31.762,4.97,
47354370,-0.716,0.347,0.566,5.565,-32.777,3.552,
