#Format version: 1.0
time[ms],accX[g],accY[g],accZ[g],Value 1,Value 2,Value 3,
47652620,-0.681,0.299,0.632,-6.475,22.382,13.737,
47652630,-0.76,0.303,0.584,-8.662,28.087,13.982,
47652640,-0.733,0.302,0.574,-9.502,22.627,15.54,
47652650,-0.782,0.329,0.564,-6.072,21.77,11.987,
47652660,-0.805,0.33,0.548,-3.71,11.2,10.167,
47652670,-0.783,0.351,0.529,-1.837,3.745,7.122,
47652680,-0.79,0.365,0.572,1.137,-3.64,0.84,
47652690,-0.819,0.353,0.605,0,-7.385,-1.61,
47652700,-0.765,0.304,0.595,-2.712,-10.167,-2.73,
47652710,-0.708,0.239,0.576,-2.415,-8.54,-4.795,
47652720,-0.768,0.286,0.569,1.19,-5.442,-6.93,
47652730,-0.735,0.241,0.552,3.692,-6.685,-2.572,
47652740,-0.871,0.235,0.503,8.015,-12.022,-4.165,
47652750,-0.821,0.375,0.525,13.615,-26.372,-8.802,
47652760,-0.814,0.373,0.595,14.175,-39.41,-8.522,
47652770,-0.78,0.338,0.636,6.755,-37.152,-12.617,
47652780,-0.691,0.259,0.604,2.38,-32.252,-11.725,
47652790,-0.641,0.276,0.648,3.43,-23.817,-6.527,
47652800,-0.647,0.275,0.642,3.36,-14.28,-2.572,
47652810,-0.626,0.309,0.642,4.34,-7.77,0.28,
47652820,-0.667,0.36,0.652,4.672,-2.87,2.887,
47652830,-0.691,0.441,0.662,2.52,-0.84,4.112,
47652830,-0.622,0.445,0.694,-0.997,0.63,7.402,
47652850,-0.694,0.4,0.699,-8.575,12.495,6.842,
47652850,-0.642,0.315,0.647,-13.912,22.557,4.462,
47652870,-0.67,0.306,0.602,-12.985,28.385,4.34,
47652870,-0.703,0.314,0.584,-10.045,29.977,3.045,
47652890,-0.78,0.327,0.554,-7.945,27.632,1.33,
47652890,-0.788,0.348,0.561,-6.65,20.755,-1.382,
47652910,-0.844,0.32,0.549,-6.965,14.91,-4.13,
47652910,-0.821,0.28,0.538,-6.352,6.597,-6.247,
47652920,-0.825,0.255,0.547,-2.887,-0.35,-6.212,
47652930,-0.796,0.234,0.556,0.805,-5.687,-4.935,
47652940,-0.772,0.239,0.559,4.812,-9.082,-2.695,
47652950,-0.761,0.237,0.55,7.927,-10.99,0.105,
47652960,-0.82,0.204,0.48,11.707,-16.222,0.892,
47652970,-0.76,0.309,0.506,22.225,-30.905,-3.167,
47652980,-0.875,0.462,0.617,26.81,-40.25,-6.79,
47652990,-0.836,0.438,0.705,13.44,-41.475,-7.647,
47653000,-0.706,0.319,0.65,-0.332,-35.542,-2.975,
47653010,-0.575,0.26,0.62,-3.902,-27.58,-0.402,
47653020,-0.57,0.275,0.654,-0.035,-16.537,-1.487,
47653030,-0.662,0.358,0.662,3.132,-4.095,-1.102,
47653040,-0.691,0.375,0.655,1.96,-1.085,3.377,
47653050,-0.657,0.364,0.633,-2.992,3.395,3.22,
47653060,-0.655,0.37,0.676,-5.477,8.942,0.052,
47653070,-0.711,0.338,0.671,-10.762,19.565,2.117,
47653080,-0.676,0.294,0.61,-13.93,25.2,5.232,
47653090,-0.702,0.299,0.589,-12.04,27.02,7.157,
47653100,-0.735,0.292,0.565,-8.557,25.06,5.512,
47653110,-0.776,0.305,0.546,-5.04,21.175,2.852,
47653120,-0.829,0.319,0.537,-2.135,14.367,-0.07,
47653130,-0.831,0.307,0.54,-0.56,6.562,-2.922,
47653140,-0.844,0.272,0.558,1.277,-0.35,-4.2,
47653150,-0.815,0.265,0.572,2.887,-5.67,-3.675,
47653160,-0.788,0.237,0.561,5.302,-10.535,-1.417,
47653170,-0.789,0.226,0.519,9.17,-14.84,0.735,
47653170,-0.765,0.262,0.498,16.502,-25.375,-0.98,
47653190,-0.8,0.388,0.578,24.027,-34.772,-4.952,
47653190,-0.823,0.441,0.682,18.077,-36.942,-6.405,
47653210,-0.739,0.353,0.663,3.64,-30.607,-1.627,
47653210,-0.656,0.27,0.639,-3.552,-25.182,2.485,
47653230,-0.584,0.299,0.642,0.087,-18.462,3.097,
47653230,-0.622,0.373,0.648,2.345,-9.205,3.85,
47653250,-0.66,0.379,0.643,-0.367,-1.662,3.552,
47653250,-0.673,0.377,0.644,-4.48,4.182,2.047,
47653260,-0.64,0.394,0.728,-10.22,11.515,0.857,
47653270,-0.672,0.303,0.655,-19.372,23.765,5.18,
47653280,-0.576,0.279,0.608,-23.852,29.75,12.512,
47653290,-0.7,0.279,0.595,-22.452,34.755,18.165,
47653300,-0.746,0.266,0.535,-17.115,31.71,15.242,
47653310,-0.836,0.344,0.537,-8.907,24.71,11.165,
47653320,-0.906,0.33,0.508,-6.895,15.487,5.967,
47653330,-0.877,0.329,0.545,-3.01,2.922,0.507,
47653340,-0.897,0.282,0.553,-2.222,-6.125,-2.257,
47653350,-0.853,0.203,0.504,1.662,-14.35,-4.095,
47653360,-0.79,0.268,0.472,12.477,-31.027,-7.91,
47653370,-0.806,0.405,0.578,21.315,-44.747,-13.825,
47653380,-0.826,0.412,0.657,17.167,-47.11,-20.562,
47653390,-0.747,0.319,0.652,8.487,-43.785,-20.002,
47653400,-0.68,0.266,0.629,4.34,-39.9,-13.842,
47653410,-0.601,0.277,0.655,6.02,-34.947,-9.415,
47653420,-0.63,0.304,0.685,5.337,-24.377,-3.5,
47653430,-0.605,0.293,0.666,1.242,-12.635,0.91,
47653440,-0.62,0.304,0.644,-0.91,-2.117,2.222,
47653450,-0.644,0.336,0.635,-3.185,6.23,3.325,
47653460,-0.722,0.374,0.637,-5.512,11.042,4.095,
47653470,-0.693,0.356,0.704,-8.225,14.035,3.727,
47653480,-0.697,0.276,0.674,-10.237,22.382,5.862,
47653490,-0.606,0.273,0.599,-9.485,30.52,9.537,
47653500,-0.691,0.31,0.595,-9.152,33.39,12.04,
47653510,-0.738,0.317,0.587,-8.382,37.222,12.565,
47653520,-0.77,0.316,0.561,-9.222,35.21,12.477,
47653530,-0.818,0.279,0.528,-8.347,28.7,10.395,
47653540,-0.804,0.309,0.545,-2.94,17.202,6.51,
47653550,-0.832,0.319,0.562,1.557,9.765,2.1,
47653560,-0.837,0.296,0.567,4.165,3.535,-2.45,
47653570,-0.84,0.285,0.547,6.545,-2.152,-4.025,
47653580,-0.843,0.264,0.527,8.732,-9.485,-4.112,
47653580,-0.837,0.268,0.45,14.542,-23.852,-8.382,
47653600,-0.79,0.434,0.594,23.905,-40.075,-17.36,
47653600,-0.823,0.426,0.655,18.322,-40.407,-23.362,
47653620,-0.69,0.347,0.692,6.982,-36.785,-20.79,
47653620,-0.674,0.286,0.636,-4.112,-29.365,-8.4,
47653640,-0.551,0.262,0.658,-5.775,-20.195,-2.642,
47653640,-0.637,0.277,0.655,-5.32,-6.44,1.032,
47653660,-0.615,0.298,0.645,-5.005,3.29,3.972,
47653660,-0.649,0.328,0.636,-6.002,12.32,4.62,
47653670,-0.647,0.348,0.662,-8.802,20.58,4.795,
47653680,-0.728,0.36,0.689,-15.4,32.865,9.94,
47653690,-0.681,0.29,0.61,-23.345,41.65,16.52,
47653700,-0.629,0.309,0.596,-24.08,46.025,20.02,
47653710,-0.649,0.293,0.584,-23.555,53.83,21.175,
47653720,-0.679,0.27,0.583,-21.945,61.11,19.652,
47653730,-0.815,0.249,0.516,-16.677,62.475,17.237,
47653740,-0.96,0.248,0.419,-5.932,48.16,12.775,
47653750,-1.011,0.359,0.426,7.07,23.677,6.702,
47653760,-1.103,0.37,0.459,10.867,2.327,0.805,
47653770,-1.063,0.289,0.413,9.117,-22.732,-4.83,
47653780,-0.818,0.361,0.487,12.495,-52.22,-11.147,
47653790,-0.797,0.365,0.585,11.042,-62.352,-17.167,
47653800,-0.652,0.294,0.65,10.36,-59.43,-22.487,
47653810,-0.603,0.296,0.707,9.695,-45.01,-16.607,
47653820,-0.577,0.253,0.67,4.007,-28.892,-8.015,
47653830,-0.612,0.267,0.643,4.41,-12.722,-2.45,
47653840,-0.655,0.322,0.63,4.095,-1.032,0.07,
47653850,-0.749,0.364,0.631,0.157,9.17,1.505,
47653860,-0.736,0.328,0.581,-5.565,13.772,1.785,
47653870,-0.752,0.35,0.574,-7.315,14.332,1.19,
47653880,-0.734,0.379,0.621,-9.03,13.055,-0.07,
47653890,-0.758,0.407,0.678,-16.327,19.442,3.15,
47653900,-0.713,0.299,0.616,-28.42,26.215,7.297,
47653910,-0.612,0.259,0.601,-29.085,32.165,7.542,
47653920,-0.645,0.311,0.599,-24.517,41.177,8.627,
47653920,-0.816,0.285,0.531,-24.062,44.17,11.935,
47653940,-0.839,0.252,0.463,-20.387,32.882,11.515,
47653940,-0.936,0.264,0.453,-10.377,20.86,7.77,
47653960,-0.931,0.26,0.448,-2.625,7.14,0.665,
47653960,-0.928,0.258,0.471,4.147,-7.227,-3.5,
47653980,-0.945,0.21,0.47,8.085,-21.122,-3.71,
47653980,-0.935,0.138,0.42,14.367,-37.537,-1.785,
47654000,-0.775,0.24,0.471,28.647,-61.022,-4.777,
47654000,-0.792,0.415,0.608,38.622,-69.807,-9.362,
47654010,-0.739,0.409,0.716,28.787,-65.607,-13.632,
47654020,-0.626,0.338,0.714,12.95,-50.627,-4.41,
47654030,-0.592,0.287,0.651,1.4,-34.335,6.02,
47654040,-0.602,0.304,0.652,2.17,-19.617,7.35,
47654050,-0.699,0.348,0.638,1.54,-8.312,9.327,
47654060,-0.733,0.355,0.601,-1.19,-3.797,8.907,
47654070,-0.722,0.375,0.604,-4.62,-2.957,6.457,
47654080,-0.719,0.382,0.617,-10.045,-1.82,4.445,
47654090,-0.639,0.38,0.705,-15.977,4.655,4.322,
47654100,-0.649,0.311,0.683,-23.572,21.245,9.59,
47654110,-0.588,0.266,0.638,-28.105,34.772,15.522,
47654120,-0.626,0.293,0.616,-26.915,46.427,18.077,
47654130,-0.78,0.296,0.531,-25.287,54.862,17.675,
47654140,-0.904,0.28,0.476,-21.192,47.022,13.002,
47654150,-0.899,0.312,0.491,-12.32,31.78,6.772,
47654160,-0.928,0.31,0.471,-5.967,15.697,0.77,
47654170,-0.866,0.265,0.5,-0.42,-0.192,-5.442,
47654180,-0.855,0.248,0.548,5.232,-10.85,-7.227,
47654190,-0.82,0.223,0.541,7.122,-16.695,-4.585,
47654200,-0.834,0.177,0.433,11.742,-24.325,-3.412,
47654210,-0.764,0.302,0.495,24.885,-40.565,-9.187,
47654220,-0.891,0.431,0.59,29.522,-49.7,-15.96,
47654230,-0.878,0.385,0.589,22.487,-57.225,-23.59,
47654240,-0.738,0.399,0.653,14.542,-64.47,-22.365,
47654250,-0.686,0.341,0.688,1.015,-57.242,-12.757,
47654260,-0.586,0.214,0.645,-5.915,-42.525,-4.865,
47654270,-0.543,0.231,0.654,-0.805,-28.367,-0.612,
47654280,-0.576,0.296,0.696,2.012,-12.687,2.082,
47654290,-0.652,0.316,0.655,0.28,2.362,4.095,
47654300,-0.669,0.354,0.643,-2.625,9.8,4.672,
47654310,-0.676,0.37,0.668,-6.842,15.225,4.532,
47654320,-0.739,0.334,0.657,-13.265,23.852,7.402,
47654330,-0.661,0.302,0.625,-16.17,29.732,10.027,
47654330,-0.677,0.335,0.627,-16.94,35.717,12.39,
47654350,-0.705,0.325,0.598,-19.687,40.915,12.442,
47654350,-0.791,0.277,0.543,-20.177,42.052,10.972,
47654370,-0.817,0.252,0.498,-14.262,34.475,7.175,
47654370,-0.882,0.317,0.521,-4.392,22.172,3.57,
47654390,-0.896,0.297,0.498,-0.77,9.1,0,
47654390,-0.855,0.281,0.517,3.115,-4.41,-3.902,
47654410,-0.874,0.258,0.545,5.285,-14.472,-5.862,
47654410,-0.898,0.177,0.483,6.685,-23.66,-5.617,
47654420,-0.77,0.241,0.475,18.865,-42.105,-11.147,
47654430,-0.806,0.399,0.606,29.96,-51.817,-18.445,
47654440,-0.804,0.415,0.645,24.36,-55.002,-24.867,
47654450,-0.648,0.399,0.765,9.695,-48.527,-18.847,
47654460,-0.662,0.266,0.669,-8.61,-31.692,-4.952,
47654470,-0.512,0.2,0.635,-9.345,-18.357,-0.857,
47654480,-0.598,0.283,0.669,-3.062,-4.375,1.592,
47654490,-0.638,0.311,0.643,-1.592,7.787,3.08,
47654500,-0.696,0.346,0.628,-3.027,14.752,1.872,
47654510,-0.681,0.375,0.685,-8.557,21.052,1.767,
47654520,-0.78,0.343,0.641,-18.672,29.977,7.56,
47654530,-0.687,0.281,0.601,-24.027,31.71,12.005,
47654540,-0.708,0.298,0.594,-21.91,33.617,13.825,
47654550,-0.778,0.278,0.551,-20.72,35.07,13.055,
47654560,-0.851,0.236,0.508,-18.602,29.645,11.532,
47654570,-0.851,0.212,0.5,-11.882,20.16,8.785,
47654580,-0.847,0.24,0.504,-2.047,8.435,5.092,
47654590,-0.823,0.245,0.522,5.495,-1.96,2.695,
47654600,-0.821,0.251,0.561,10.412,-9.502,4.235,
47654610,-0.784,0.253,0.576,10.78,-12.057,7.437,
47654620,-0.803,0.208,0.508,11.795,-14.525,8.015,
47654630,-0.705,0.272,0.535,21.805,-24.132,0.945,
47654640,-0.775,0.392,0.624,32.077,-26.46,-6.737,
47654650,-0.795,0.399,0.633,32.2,-24.587,-14.367,
47654660,-0.695,0.419,0.668,27.212,-24.202,-16.292,
47654670,-0.698,0.417,0.693,10.71,-16.24,-8.75,
47654670,-0.645,0.308,0.645,-5.705,-6.562,-2.45,
47654690,-0.626,0.264,0.631,-9.625,3.587,-1.417,
47654690,-0.65,0.265,0.618,-6.107,13.597,-1.75,
47654710,-0.707,0.292,0.61,-1.662,22.977,-0.595,
47654710,-0.775,0.307,0.585,-0.315,27.667,0.84,
47654730,-0.81,0.324,0.568,-1.802,26.477,1.68,
47654730,-0.829,0.354,0.563,-6.475,21.017,3.57,
47654750,-0.843,0.341,0.55,-13.895,13.405,5.81,
47654750,-0.791,0.308,0.551,-17.22,6.282,5.652,
47654760,-0.779,0.296,0.559,-15.68,1.872,4.13,
47654770,-0.777,0.302,0.564,-12.005,-1.627,2.467,
47654780,-0.795,0.335,0.571,-8.505,-5.582,-0.017,
47654790,-0.79,0.337,0.583,-8.347,-9.38,-1.767,
47654800,-0.778,0.341,0.589,-10.027,-14.105,-1.925,
47654810,-0.764,0.336,0.576,-12.757,-17.167,1.33,
47654820,-0.801,0.308,0.551,-16.415,-20.247,4.62,
47654830,-0.803,0.336,0.542,-17.307,-25.795,6.545,
47654840,-0.878,0.314,0.534,-17.622,-33.32,8.505,
47654850,-0.838,0.359,0.542,-16.94,-42.035,8.015,
47654860,-0.858,0.346,0.586,-18.9,-49.717,9.292,
47654870,-0.742,0.316,0.559,-19.355,-53.9,9.135,
47654880,-0.678,0.336,0.63,-15.4,-50.4,10.5,
47654890,-0.644,0.245,0.685,-16.992,-46.462,9.31,
47654900,-0.506,0.198,0.683,-10.15,-40.25,13.3,
47654910,-0.45,0.14,0.692,-1.627,-28.857,16.765,
47654920,-0.579,0.188,0.769,2.415,-4.27,0.7,
47654930,-0.649,0.163,0.715,3.57,15.085,-3.797,
47654940,-0.715,0.297,0.609,2.397,22.697,5.407,
47654950,-0.759,0.323,0.592,-1.26,22.557,7.892,
47654960,-0.8,0.331,0.607,-3.587,19.075,6.212,
47654970,-0.784,0.262,0.71,-5.95,15.907,8.417,
47654980,-0.64,0.232,0.631,-2.432,20.317,9.747,
47654990,-0.633,0.334,0.65,1.015,28.77,10.92,
47655000,-0.698,0.272,0.626,-4.235,33.11,12.267,
47655010,-0.68,0.308,0.633,-3.762,37.24,12.827,
47655020,-0.815,0.332,0.592,-8.557,38.465,12.512,
47655030,-0.761,0.284,0.546,-12.145,32.182,11.06,
47655040,-0.838,0.298,0.514,-8.75,28.122,7.402,
47655050,-0.871,0.303,0.506,-5.11,17.972,4.515,
47655060,-0.859,0.273,0.516,-1.487,7.577,1.032,
47655070,-0.91,0.29,0.563,2.695,-0.192,-3.675,
47655080,-0.81,0.252,0.555,4.025,-9.502,-3.587,
47655080,-0.785,0.22,0.545,7.595,-14.28,-2.327,
47655100,-0.818,0.16,0.523,17.955,-25.305,-6.615,
47655100,-0.661,0.33,0.595,33.897,-36.225,-13.177,
47655120,-0.828,0.398,0.6,31.797,-39.865,-16.152,
47655120,-0.709,0.421,0.664,20.02,-41.107,-15.89,
47655140,-0.817,0.37,0.655,4.865,-33.075,-6.527,
47655140,-0.691,0.307,0.601,-8.102,-32.83,-0.105,
47655160,-0.62,0.289,0.634,-10.115,-28.297,2.572,
47655160,-0.663,0.263,0.643,-10.325,-19.845,4.952,
47655170,-0.634,0.271,0.639,-8.732,-14,5.932,
47655180,-0.704,0.296,0.647,-8.382,-8.995,6.212,
47655190,-0.718,0.289,0.635,-9.467,-7,5.565,
47655200,-0.743,0.308,0.624,-8.977,-7.735,4.777,
47655210,-0.748,0.311,0.613,-9.537,-10.465,4.025,
47655220,-0.738,0.325,0.619,-10.255,-13.58,4.112,
47655230,-0.693,0.346,0.63,-11.76,-13.44,3.657,
47655240,-0.683,0.348,0.642,-14.332,-10.99,1.557,
47655250,-0.604,0.339,0.692,-15.802,-5.215,-0.507,
47655260,-0.65,0.275,0.703,-18.095,9.59,1.907,
47655270,-0.656,0.208,0.642,-16.642,21.63,6.58,
47655280,-0.671,0.216,0.628,-9.8,24.412,7.595,
47655290,-0.744,0.265,0.594,-3.587,25.567,3.43,
47655300,-0.818,0.299,0.556,-0.595,19.985,-1.137,
47655310,-0.841,0.311,0.563,-0.997,9.852,-4.725,
47655320,-0.854,0.298,0.581,-1.977,0.63,-5.53,
47655330,-0.838,0.291,0.608,-2.677,-8.452,-3.902,
47655340,-0.769,0.271,0.614,-2.922,-16.975,-2.852,
47655350,-0.718,0.284,0.566,-0.84,-21.472,-4.077,
47655360,-0.731,0.37,0.525,0.735,-27.545,-7.332,
47655370,-0.798,0.343,0.632,-2.572,-34.037,-13.072,
47655380,-0.771,0.28,0.692,-3.64,-34.002,-12.6,
47655390,-0.671,0.245,0.677,-3.43,-28.525,-5.845,
47655400,-0.615,0.211,0.662,-0.402,-21.717,-2.73,
47655410,-0.618,0.241,0.683,4.812,-13.737,-0.315,
47655420,-0.651,0.271,0.671,5.547,-5.285,1.277,
47655420,-0.643,0.295,0.637,3.29,1.89,1.855,
47655440,-0.683,0.312,0.657,0.07,7.507,3.972,
47655440,-0.729,0.227,0.694,-1.155,10.692,6.65,
47655460,-0.649,0.208,0.693,6.632,15.627,10.832,
47655460,-0.697,0.261,0.635,11.305,20.422,19.197,
47655480,-0.739,0.207,0.586,11.165,17.657,26.302,
47655480,-0.763,0.254,0.527,15.715,12.967,26.81,
47655500,-0.818,0.328,0.574,17.237,7.087,24.15,
47655500,-0.865,0.339,0.593,12.845,2.065,21.052,
47655510,-0.757,0.362,0.594,9.52,-6.055,18.217,
47655520,-0.769,0.362,0.607,8.102,-11.812,13.492,
47655530,-0.688,0.359,0.639,7.822,-15.575,8.277,
47655540,-0.671,0.358,0.66,7.507,-14.857,4.41,
47655550,-0.633,0.363,0.662,6.895,-9.765,-0.525,
47655560,-0.623,0.351,0.644,5.005,-2.747,-4.235,
47655570,-0.653,0.338,0.632,3.605,3.325,-5.88,
47655580,-0.705,0.32,0.642,2.625,5.95,-7.63,
47655590,-0.733,0.295,0.643,2.537,5.39,-9.117,
47655600,-0.728,0.279,0.63,3.08,2.94,-9.222,
47655610,-0.762,0.29,0.539,4.165,-0.14,-8.645,
47655620,-0.73,0.41,0.545,5.092,-13.072,-11.322,
47655630,-0.837,0.393,0.678,-2.17,-15.417,-14.157,
47655640,-0.814,0.303,0.638,-9.66,-14.455,-11.725,
47655650,-0.714,0.304,0.618,-11.585,-19.39,-7.665,
47655660,-0.669,0.295,0.633,-11.637,-22.855,-8.645,
47655670,-0.656,0.303,0.658,-9.677,-17.762,-6.65,
47655680,-0.66,0.324,0.645,-9.747,-12.092,-7.07,
47655690,-0.717,0.265,0.662,-11.83,-7.245,-7.56,
47655700,-0.695,0.279,0.633,-8.05,-8.487,-11.935,
47655710,-0.673,0.327,0.653,-4.252,-4.567,-10.517,
47655720,-0.798,0.271,0.647,-4.9,-1.207,-10.465,
47655730,-0.698,0.255,0.631,1.4,-3.255,-11.357,
47655740,-0.653,0.296,0.603,8.207,-2.03,-12.53,
47655750,-0.74,0.295,0.598,9.012,2.852,-10.57,
47655760,-0.788,0.261,0.636,7.682,3.78,-8.032,
47655770,-0.771,0.208,0.642,9.94,3.482,-6.72,
47655780,-0.731,0.156,0.643,18.427,1.627,-9.205,
47655790,-0.569,0.241,0.617,29.96,1.68,-11.392,
47655800,-0.737,0.244,0.665,34.44,3.08,-10.255,
47655810,-0.612,0.343,0.631,31.902,3.167,-6.212,
47655820,-0.844,0.273,0.594,21.017,4.602,1.417,
47655830,-0.714,0.291,0.58,20.72,-2.59,2.625,
47655830,-0.768,0.333,0.607,20.107,-4.9,4.672,
47655850,-0.768,0.306,0.58,17.85,-10.097,5.355,
47655850,-0.69,0.362,0.617,18.112,-13.667,6.86,
47655870,-0.718,0.35,0.6,13.16,-14.647,8.645,
47655870,-0.65,0.381,0.645,8.872,-13.93,7.857,
47655880,-0.703,0.372,0.652,2.887,-9.887,7.507,
47655890,-0.677,0.346,0.642,-1.452,-7.105,4.462,
47655900,-0.694,0.325,0.634,-3.797,-4.602,2.747,
47655910,-0.698,0.306,0.635,-4.952,-3.885,2.677,
47655920,-0.715,0.299,0.636,-5.775,-4.392,3.657,
47655930,-0.728,0.299,0.634,-6.685,-6.247,3.727,
47655940,-0.73,0.288,0.622,-8.032,-9.59,3.482,
47655950,-0.741,0.289,0.596,-9.345,-13.457,3.692,
47655960,-0.79,0.366,0.495,-10.045,-20.3,2.695,
47655970,-0.729,0.438,0.654,-13.545,-30.362,-1.907,
47655980,-0.851,0.317,0.731,-22.4,-25.025,0.14,
47655990,-0.673,0.27,0.663,-23.852,-22.295,3.57,
47656000,-0.608,0.292,0.673,-22.75,-18.812,5.897,
47656010,-0.624,0.262,0.661,-19.46,-11.322,6.387,
47656020,-0.635,0.309,0.643,-13.23,-3.902,7.822,
47656030,-0.705,0.292,0.635,-11.48,-1.015,7.035,
47656040,-0.7,0.262,0.631,-5.337,-2.117,3.972,
47656050,-0.693,0.283,0.626,4.567,-4.165,1.75,
47656060,-0.698,0.341,0.654,11.322,-6.002,1.47,
47656070,-0.777,0.325,0.666,9.485,-8.295,2.73,
47656080,-0.707,0.308,0.637,8.82,-12.862,2.852,
47656090,-0.717,0.294,0.625,8.802,-14.927,2.922,
47656100,-0.678,0.297,0.62,9.66,-16.975,3.482,
47656110,-0.716,0.313,0.646,12.372,-16.187,6.107,
47656120,-0.712,0.271,0.694,13.317,-15.417,7.332,
47656130,-0.645,0.218,0.722,18.112,-11.462,8.592,
47656140,-0.602,0.202,0.678,25.637,-9.152,8.365,
47656150,-0.571,0.257,0.67,33.495,-4.515,8.365,
47656160,-0.696,0.252,0.652,37.66,-1.19,8.697,
47656170,-0.707,0.271,0.633,42.665,-3.482,8.015,
47656170,-0.683,0.377,0.618,47.022,-7.07,8.015,
47656190,-0.778,0.408,0.63,42.647,-10.045,8.837,
47656190,-0.703,0.444,0.629,37.24,-16.012,7.49,
47656210,-0.722,0.492,0.615,28.577,-17.342,7.63,
47656210,-0.705,0.464,0.59,17.605,-18.62,8.487,
47656230,-0.702,0.493,0.61,8.767,-20.16,8.47,
47656230,-0.675,0.43,0.649,-1.522,-21.192,5.285,
47656250,-0.582,0.395,0.688,-6.615,-18.322,-0.56,
47656250,-0.56,0.382,0.704,-8.505,-10.867,-4.13,
47656260,-0.562,0.39,0.709,-10.395,-2.765,-6.51,
47656270,-0.59,0.388,0.691,-13.02,4.935,-9.17,
47656280,-0.648,0.378,0.67,-16.432,11.025,-12.582,
47656290,-0.687,0.35,0.65,-19.635,11.742,-15.417,
47656300,-0.714,0.33,0.637,-20.72,9.992,-15.4,
47656310,-0.752,0.401,0.519,-21.542,6.86,-12.53,
47656320,-0.793,0.429,0.628,-27.912,-2.712,-9.292,
47656330,-0.833,0.334,0.644,-33.425,-12.145,-7.577,
47656340,-0.675,0.333,0.659,-32.48,-16.397,-4.497,
47656350,-0.675,0.271,0.645,-33.407,-17.797,-3.22,
47656360,-0.599,0.312,0.645,-27.212,-16.66,-2.205,
47656370,-0.683,0.257,0.682,-26.25,-14.35,1.47,
47656380,-0.569,0.248,0.672,-19.932,-13.3,1.575,
47656390,-0.606,0.281,0.692,-15.522,-5.39,4.987,
47656400,-0.641,0.166,0.676,-11.62,-3.237,5.215,
47656410,-0.551,0.272,0.679,4.357,0.35,4.532,
47656420,-0.668,0.314,0.668,8.365,4.865,5.547,
47656430,-0.707,0.342,0.677,8.487,5.915,6.58,
47656440,-0.732,0.36,0.653,4.62,3.78,6.877,
47656450,-0.733,0.361,0.633,0.647,0.735,5.302,
47656460,-0.731,0.355,0.638,-1.592,-3.622,4.76,
47656470,-0.707,0.307,0.678,-1.435,-6.807,4.725,
47656480,-0.617,0.256,0.688,3.5,-6.72,3.342,
47656490,-0.598,0.231,0.693,10.325,-2.782,3.132,
47656500,-0.587,0.231,0.684,18.585,0.367,2.327,
47656510,-0.623,0.311,0.703,24.395,6.702,3.255,
47656520,-0.673,0.311,0.647,23.94,8.82,3.535,
47656530,-0.704,0.415,0.642,22.907,9.555,3.937,
47656540,-0.789,0.406,0.635,14.577,5.565,4.147,
47656550,-0.741,0.424,0.641,9.922,-0.682,3.062,
47656560,-0.696,0.38,0.643,4.305,-5.985,1.417,
47656570,-0.613,0.35,0.667,2.887,-5.442,-0.945,
47656570,-0.585,0.343,0.675,2.782,-0.245,-2.345,
47656580,-0.555,0.323,0.678,2.712,8.137,-3.255,
47656590,-0.546,0.323,0.688,3.36,18.655,-3.552,
47656600,-0.552,0.333,0.7,4.76,31.29,-5.057,
47656610,-0.555,0.351,0.712,6.895,45.815,-8.82,
47656620,-0.573,0.385,0.704,8.802,62.265,-14.927,
47656630,-0.618,0.434,0.662,7.717,77.822,-22.575,
47656640,-0.63,0.475,0.646,2.922,90.545,-30.765,
47656650,-0.707,0.454,0.67,-3.36,101.482,-38.85,
47656660,-0.683,0.354,0.625,-9.222,113.435,-45.815,
47656670,-0.688,0.297,0.551,-6.702,120.715,-46.55,
47656680,-0.818,0.326,0.485,-3.22,116.042,-44.03,
47656690,-0.91,0.336,0.457,-4.357,100.152,-40.6,
47656700,-0.968,0.331,0.436,-7.752,79.642,-36.61,
47656710,-0.979,0.32,0.436,-10.395,58.712,-32.007,
47656720,-0.963,0.319,0.444,-13.16,38.587,-28.07,
47656730,-0.94,0.314,0.446,-15.12,19.932,-20.79,
47656740,-0.878,0.305,0.457,-16.8,4.602,-11.392,
47656750,-0.859,0.327,0.456,-19.057,-5.197,-8.137,
47656760,-0.85,0.255,0.466,-21.385,-12.582,-5.547,
47656770,-0.832,0.229,0.479,-19.757,-19.827,-2.397,
47656780,-0.761,0.234,0.464,-15.89,-23.66,2.135,
47656790,-0.765,0.263,0.497,-13.247,-20.562,9.485,
47656800,-0.77,0.266,0.527,-12.915,-16.292,15.242,
47656810,-0.783,0.247,0.541,-14.367,-12.302,19.32,
47656820,-0.783,0.224,0.546,-14.245,-9.765,20.317,
47656830,-0.773,0.208,0.543,-12.075,-7.507,20.422,
47656840,-0.769,0.21,0.545,-8.487,-5.81,21.945,
47656850,-0.792,0.209,0.547,-5.582,-4.812,24.132,
47656860,-0.814,0.196,0.533,-3.36,-7.157,24.902,
47656870,-0.853,0.196,0.53,-0.455,-12.127,24.832,
47656880,-0.894,0.228,0.536,2.45,-19.32,22.61,
47656890,-0.926,0.244,0.525,1.977,-26.39,16.765,
47656900,-0.91,0.304,0.53,-1.067,-31.972,9.66,
47656910,-0.865,0.279,0.523,-6.195,-38.062,11.865,
47656920,-0.82,0.281,0.534,-9.082,-42.875,17.237,
47656920,-0.752,0.32,0.529,-9.275,-43.925,19.53,
47656940,-0.747,0.311,0.587,-9.625,-39.48,21.507,
47656940,-0.731,0.35,0.61,-12.127,-35.945,19.74,
47656960,-0.761,0.298,0.613,-10.815,-32.182,15.435,
47656960,-0.744,0.298,0.614,-10.5,-33.162,9.555,
47656980,-0.722,0.319,0.6,-5.915,-33.302,3.797,
47656980,-0.734,0.33,0.599,-5.547,-30.712,1.785,
47657000,-0.699,0.346,0.592,-6.597,-26.635,2.152,
47657000,-0.742,0.347,0.561,-9.73,-20.895,4.882,
47657010,-0.778,0.339,0.605,-15.47,-19.302,7.315,
47657020,-0.771,0.332,0.606,-21.227,-21.84,6.702,
47657030,-0.768,0.288,0.601,-25.357,-26.915,7.017,
47657040,-0.694,0.256,0.633,-24.797,-27.58,8.925,
47657050,-0.686,0.245,0.619,-19.407,-22.295,13.475,
47657060,-0.753,0.271,0.634,-14.367,-24.517,13.212,
47657070,-0.785,0.235,0.62,-10.832,-30.992,9.607,
47657080,-0.786,0.274,0.62,-3.972,-38.832,7.28,
47657090,-0.843,0.326,0.619,-0.98,-48.772,9.852,
47657100,-0.762,0.324,0.617,-3.43,-57.662,10.185,
47657110,-0.694,0.301,0.632,-4.9,-58.817,7.385,
47657120,-0.611,0.271,0.663,-4.165,-54.617,4.742,
47657130,-0.558,0.264,0.697,-3.132,-44.52,3.395,
47657140,-0.554,0.26,0.695,-1.487,-32.41,3.99,
47657150,-0.568,0.277,0.693,0.752,-20.387,4.62,
47657160,-0.633,0.301,0.673,1.47,-11.812,5.775,
47657170,-0.704,0.309,0.663,0.612,-7.77,6.545,
47657180,-0.737,0.299,0.657,1.015,-10.307,5.46,
47657190,-0.732,0.315,0.665,2.817,-13.405,6.58,
47657200,-0.724,0.309,0.679,1.242,-16.38,8.61,
47657210,-0.635,0.306,0.678,0.297,-15.977,10.307,
47657220,-0.594,0.292,0.706,-0.752,-10.815,12.11,
47657230,-0.531,0.274,0.691,0.385,-1.907,11.375,
47657240,-0.542,0.28,0.711,3.097,9.345,9.31,
47657250,-0.566,0.28,0.672,4.795,20.125,6.755,
47657260,-0.69,0.325,0.673,6.055,24.71,4.76,
47657260,-0.775,0.352,0.648,6.282,23.082,1.102,
47657280,-0.777,0.411,0.608,4.48,17.045,-4.637,
47657280,-0.775,0.429,0.628,-2.677,10.727,-10.15,
47657300,-0.749,0.349,0.672,-11.935,3.622,-13.335,
47657300,-0.643,0.29,0.674,-15.312,2.047,-15.96,
47657320,-0.585,0.264,0.665,-14.945,5.547,-18.165,
47657320,-0.592,0.246,0.657,-11.655,10.99,-17.815,
47657330,-0.644,0.267,0.663,-7.542,14.437,-16.205,
47657340,-0.715,0.269,0.646,-6.107,16.187,-15.697,
47657350,-0.791,0.298,0.557,-5.285,13.195,-16.012,
47657360,-0.825,0.395,0.518,-5.005,1.697,-15.732,
47657370,-0.915,0.384,0.638,-8.592,-18.882,-21.42,
47657380,-0.852,0.296,0.72,-10.832,-28.805,-25.97,
47657390,-0.722,0.232,0.689,-13.16,-32.637,-20.807,
47657400,-0.612,0.2,0.642,-11.007,-31.867,-13.79,
47657410,-0.547,0.173,0.69,-5.145,-27.23,-9.397,
47657420,-0.565,0.171,0.708,1.015,-15.347,-2.887,
47657430,-0.597,0.216,0.681,4.515,-4.375,2.275,
47657440,-0.665,0.255,0.659,6.09,2.975,4.287,
47657450,-0.739,0.3,0.65,6.177,5.267,6.615,
47657460,-0.775,0.342,0.65,5.092,3.027,8.785,
47657470,-0.757,0.359,0.713,1.522,-1.522,10.657,
47657480,-0.716,0.242,0.77,-2.94,0.122,11.182,
47657490,-0.543,0.221,0.669,1.067,10.71,12.39,
47657500,-0.581,0.236,0.638,3.745,16.31,11.742,
47657510,-0.599,0.238,0.632,8.995,19.705,8.627,
47657520,-0.692,0.325,0.642,9.975,19.722,10.815,
47657530,-0.769,0.346,0.622,6.352,16.782,10.01,
47657540,-0.769,0.383,0.599,2.8,10.01,6.527,
47657550,-0.79,0.347,0.65,-1.645,0.857,2.905,
47657560,-0.755,0.319,0.689,-4.042,-4.34,0.227,
47657570,-0.678,0.303,0.675,-6.79,-4.742,-1.067,
47657580,-0.647,0.275,0.663,-7.437,-2.205,-3.622,
47657590,-0.664,0.274,0.655,-5.267,2.205,-6.58,
47657600,-0.705,0.3,0.648,-2.555,4.532,-9.59,
47657610,-0.748,0.308,0.637,-2.572,3.972,-11.357,
47657620,-0.763,0.369,0.579,-3.99,-0.385,-12.512,
47657630,-0.827,0.333,0.628,-9.782,-9.695,-15.19,
47657640,-0.804,0.293,0.596,-11.182,-21.28,-21.787,
47657650,-0.729,0.335,0.668,-10.5,-30.887,-24.657,
47657660,-0.747,0.205,0.711,-14.035,-30.835,-23.87,
47657670,-0.661,0.175,0.652,-8.19,-26.39,-18.882,
47657670,-0.621,0.205,0.639,-2.957,-24.797,-14.035,
47657690,-0.689,0.154,0.682,1.067,-16.502,-10.972,
47657690,-0.682,0.18,0.678,3.605,-16.047,-7.892,
47657710,-0.64,0.174,0.667,4.357,-13.212,-2.73,
47657710,-0.68,0.193,0.648,4.742,-8.435,1.12,
47657730,-0.689,0.226,0.655,6.457,-5.67,5.967,
47657730,-0.686,0.289,0.666,7.56,-3.727,8.557,
47657750,-0.721,0.324,0.687,6.265,-1.522,10.412,
47657750,-0.726,0.252,0.8,3.92,-4.13,11.252,
47657760,-0.471,0.229,0.695,8.417,-0.332,11.322,
47657770,-0.565,0.357,0.691,9.467,13.982,13.352,
47657780,-0.623,0.265,0.693,4.2,19.985,12.985,
47657790,-0.62,0.303,0.677,7.525,24.937,11.62,
47657800,-0.714,0.31,0.618,6.457,26.46,9.065,
47657810,-0.717,0.313,0.57,8.067,19.547,4.27,
47657820,-0.794,0.342,0.634,10.535,12.127,2.397,
47657830,-0.802,0.329,0.662,8.522,6.545,0.892,
47657840,-0.764,0.292,0.648,3.78,1.68,-1.155,
47657850,-0.708,0.262,0.634,0.175,-0.595,-3.185,
47657860,-0.734,0.342,0.553,-0.717,-5.145,-4.637,
47657870,-0.808,0.379,0.662,-4.812,-16.747,-8.347,
47657880,-0.82,0.301,0.688,-9.012,-21.612,-14.122,
47657890,-0.74,0.313,0.659,-9.922,-26.757,-17.36,
47657900,-0.725,0.284,0.678,-13.002,-31.255,-16.73,
47657910,-0.705,0.246,0.666,-11.777,-31.255,-14.857,
47657920,-0.647,0.254,0.718,-10.395,-29.907,-12.355,
47657930,-0.623,0.222,0.716,-9.415,-20.125,-7.84,
47657940,-0.582,0.219,0.657,-7.787,-11.252,-3.535,
47657950,-0.668,0.231,0.66,-4.305,-2.327,-1.19,
47657960,-0.631,0.311,0.658,-3.675,4.497,-0.297,
47657970,-0.738,0.308,0.643,-2.642,5.915,2.922,
47657980,-0.703,0.291,0.63,-1.47,4.9,3.377,
47657990,-0.677,0.296,0.634,0.577,5.407,5.162,
47658000,-0.648,0.234,0.651,1.96,5.477,7.542,
47658010,-0.636,0.229,0.698,3.972,6.457,7.735,
47658010,-0.615,0.233,0.742,2.73,7.665,7.21,
47658030,-0.617,0.219,0.763,-1.872,14.63,6.352,
47658030,-0.629,0.197,0.736,-7.682,21.42,4.042,
47658050,-0.614,0.2,0.685,-9.817,28.157,2.59,
47658050,-0.71,0.265,0.675,-7.647,34.685,3.045,
47658070,-0.764,0.276,0.615,-6.142,31.78,-1.102,
47658070,-0.833,0.279,0.582,-0.665,24.657,-4.882,
47658080,-0.905,0.289,0.579,1.33,12.95,-8.12,
47658090,-0.918,0.252,0.596,1.015,-1.295,-9.152,
47658100,-0.861,0.212,0.587,0.332,-14.682,-8.872,
47658110,-0.814,0.19,0.564,2.432,-26.022,-9.24,
47658120,-0.76,0.273,0.574,7.787,-39.287,-13.667,
47658130,-0.717,0.348,0.714,8.575,-46.217,-17.902,
47658140,-0.72,0.267,0.744,2.537,-36.312,-18.392,
47658150,-0.603,0.16,0.621,-0.63,-26.337,-15.942,
47658160,-0.702,0.249,0.669,6.055,-13.58,-16.957,
47658170,-0.686,0.246,0.71,5.67,-9.257,-15.12,
47658180,-0.693,0.241,0.7,1.19,-9.502,-10.57,
47658190,-0.615,0.217,0.68,-4.042,-9.8,-6.3,
47658200,-0.619,0.217,0.677,-5.635,-5.582,-5.67,
47658210,-0.635,0.229,0.682,-5.792,-1.802,-1.767,
47658220,-0.602,0.266,0.701,-4.445,3.692,1.837,
47658230,-0.658,0.223,0.727,-8.295,21.332,6.3,
47658240,-0.739,0.178,0.683,-12.162,31.272,6.65,
47658250,-0.685,0.172,0.616,-11.077,29.995,7.385,
47658260,-0.636,0.229,0.61,-8.47,34.247,4.9,
47658270,-0.843,0.202,0.601,-9.432,41.265,4.165,
47658280,-0.872,0.175,0.591,-7.227,30.397,1.172,
47658290,-0.815,0.206,0.589,1.977,17.745,-1.522,
47658300,-0.862,0.247,0.589,6.755,9.415,-6.737,
47658310,-0.872,0.223,0.587,10.272,-4.76,-11.007,
47658320,-0.755,0.284,0.603,16.835,-21.385,-11.935,
47658330,-0.675,0.323,0.628,20.16,-26.127,-13.562,
47658340,-0.683,0.307,0.643,21.297,-22.995,-18.13,
47658350,-0.667,0.283,0.64,24.815,-19.477,-21.087,
47658360,-0.659,0.282,0.646,30.31,-16.415,-21.717,
47658370,-0.698,0.285,0.672,34.002,-13.457,-21.035,
47658380,-0.726,0.299,0.658,35.717,-20.265,-19.25,
47658390,-0.647,0.315,0.661,36.347,-29.627,-17.657,
47658400,-0.615,0.297,0.671,34.212,-28.402,-19.04,
47658410,-0.701,0.285,0.704,30.047,-21.997,-16.59,
47658420,-0.724,0.277,0.718,22.505,-23.677,-10.587,
47658420,-0.665,0.232,0.692,14.56,-25.462,-4.725,
47658440,-0.658,0.214,0.679,10.325,-21.227,-0.682,
47658440,-0.645,0.198,0.669,8.4,-15.61,4.655,
47658460,-0.641,0.177,0.637,8.067,-11.9,11.602,
47658460,-0.66,0.18,0.618,10.657,-9.66,18.847,
47658480,-0.673,0.192,0.63,14.962,-8.82,24.99,
47658480,-0.701,0.22,0.665,18.795,-5.845,30.117,
47658500,-0.707,0.271,0.701,20.44,-3.535,32.76,
47658500,-0.755,0.258,0.681,17.412,2.782,35.927,
47658510,-0.697,0.215,0.636,15.4,8.89,35.157,
47658520,-0.836,0.275,0.659,15.715,21.175,25.515,
47658530,-0.843,0.212,0.615,16.8,21.315,19.11,
47658540,-0.713,0.153,0.488,23.835,21.332,8.715,
47658550,-0.781,0.268,0.551,38.692,31.465,-6.195,
47658560,-0.805,0.286,0.628,46.935,33.932,-11.9,
47658570,-0.736,0.291,0.612,48.597,33.355,-12.565,
47658580,-0.713,0.275,0.601,49.122,34.737,-10.027,
47658590,-0.724,0.294,0.612,48.16,36.767,-11.602,
47658600,-0.682,0.323,0.64,45.955,36.435,-12.95,
47658610,-0.599,0.383,0.654,39.76,37.117,-8.487,
47658620,-0.615,0.399,0.66,30.205,42.542,0.63,
47658630,-0.656,0.404,0.65,21.647,47.932,5.862,
47658640,-0.716,0.399,0.631,17.132,45.902,8.225,
47658650,-0.762,0.406,0.593,16.677,35.192,8.54,
47658660,-0.803,0.45,0.565,19.022,16.03,7.56,
47658670,-0.847,0.495,0.537,19.897,-7.49,7.175,
47658680,-0.816,0.572,0.474,17.745,-31.272,5.827,
47658690,-0.879,0.546,0.485,11.952,-50.102,8.89,
47658700,-0.908,0.515,0.524,-0.997,-65.292,2.677,
47658710,-0.835,0.451,0.566,-11.077,-78.365,-3.202,
47658720,-0.739,0.361,0.592,-17.29,-87.5,-6.93,
47658730,-0.735,0.236,0.617,-14.227,-89.775,-4.287,
47658740,-0.703,0.161,0.583,-0.997,-93.94,-3.045,
47658750,-0.72,0.122,0.617,22.067,-97.755,2.677,
47658760,-0.748,0.13,0.633,45.447,-101.657,6.982,
47658760,-0.649,0.208,0.658,65.957,-111.177,4.69,
47658780,-0.416,0.281,0.694,73.272,-106.155,7.542,
47658780,-0.42,0.374,0.74,68.39,-78.47,16.572,
47658800,-0.51,0.404,0.747,56.315,-49.63,23.66,
47658800,-0.537,0.427,0.718,44.292,-27.212,26.232,
47658820,-0.569,0.436,0.699,37.397,-12.827,24.657,
47658820,-0.567,0.497,0.682,33.477,-4.987,19.6,
47658830,-0.543,0.624,0.674,23.24,1.295,15.907,
47658840,-0.574,0.719,0.672,2.957,10.605,15.767,
47658850,-0.601,0.734,0.644,-26.232,18.392,14.42,
47658860,-0.692,0.633,0.609,-54.18,18.55,12.057,
47658870,-0.677,0.459,0.664,-69.807,12.11,5.897,
47658880,-0.539,0.368,0.683,-65.835,14.07,2.03,
47658890,-0.531,0.345,0.707,-53.392,21.262,-4.987,
47658900,-0.518,0.238,0.684,-38.185,28.227,-14.612,
47658910,-0.567,0.289,0.676,-19.11,36.82,-17.832,
47658920,-0.707,0.292,0.626,-9.835,39.585,-18.725,
47658930,-0.761,0.302,0.593,-5.022,32.812,-20.685,
47658940,-0.851,0.296,0.543,-0.105,21.157,-19.635,
47658950,-0.861,0.342,0.559,4.865,4.707,-14.577,
47658960,-0.827,0.372,0.616,4.007,-14.175,-7.857,
47658970,-0.719,0.386,0.682,-2.695,-25.777,-1.33,
47658980,-0.625,0.339,0.695,-12.092,-27.212,6.317,
47658990,-0.454,0.319,0.705,-15.47,-19.827,12.215,
47659000,-0.46,0.371,0.724,-16.012,-4.34,16.66,
47659010,-0.455,0.412,0.782,-17.535,16.275,15.12,
47659020,-0.476,0.408,0.775,-22.33,44.747,16.572,
47659030,-0.579,0.326,0.674,-31.272,66.692,17.78,
47659040,-0.616,0.301,0.638,-35.7,75.757,14.647,
47659050,-0.776,0.279,0.522,-26.11,72.415,16.45,
47659060,-0.762,0.403,0.551,-13.125,60.917,15.907,
47659070,-0.882,0.404,0.501,-9.8,44.292,11.532,
47659080,-0.866,0.351,0.507,-5.25,23.31,5.88,
47659090,-0.834,0.404,0.543,2.975,2.152,3.937,
47659100,-0.839,0.389,0.592,5.845,-14.017,-0.105,
47659110,-0.786,0.343,0.612,8.085,-25.025,-4.007,
47659120,-0.78,0.318,0.559,11.41,-33.967,-4.672,
47659130,-0.721,0.293,0.505,19.46,-51.467,-11.987,
47659140,-0.738,0.406,0.601,31.955,-65.52,-23.065,
47659150,-0.76,0.395,0.679,35.577,-66.57,-28.945,
47659160,-0.712,0.36,0.642,34.352,-67.27,-29.925,
47659170,-0.528,0.43,0.737,30.17,-63.84,-25.69,
47659170,-0.568,0.433,0.742,13.737,-49.157,-11.707,
47659190,-0.53,0.357,0.722,-4.305,-30.87,-0.28,
47659190,-0.486,0.312,0.715,-10.99,-17.797,1.96,
47659210,-0.425,0.373,0.728,-11.725,-3.097,5.127,
47659210,-0.5,0.399,0.723,-15.662,14.157,9.852,
47659230,-0.507,0.402,0.734,-19.897,30.87,14.612,
47659230,-0.63,0.453,0.748,-28.35,50.347,23.292,
47659250,-0.629,0.374,0.67,-38.325,59.832,24.832,
47659250,-0.616,0.379,0.649,-39.62,65.607,21.84,
47659260,-0.632,0.334,0.607,-37.415,69.65,16.082,
47659270,-0.695,0.347,0.587,-30.24,70.962,9.922,
47659280,-0.846,0.336,0.562,-24.412,64.96,5.04,
47659290,-0.867,0.295,0.514,-16.012,45.377,-0.245,
47659300,-0.849,0.336,0.497,-3.097,24.115,-4.235,
47659310,-0.901,0.358,0.532,5.95,5.915,-10.675,
47659320,-0.895,0.326,0.551,10.43,-10.22,-15.697,
47659330,-0.854,0.306,0.543,12.775,-24.342,-16.03,
47659340,-0.803,0.218,0.456,19.092,-42.647,-19.565,
47659350,-0.672,0.307,0.561,36.015,-61.495,-26.355,
47659360,-0.672,0.452,0.738,41.895,-62.807,-28.035,
47659370,-0.679,0.423,0.76,24.85,-51.957,-19.95,
47659380,-0.607,0.347,0.706,6.02,-38.57,-7.822,
47659390,-0.544,0.308,0.671,-2.24,-26.652,0.087,
47659400,-0.518,0.365,0.694,-4.69,-16.66,3.885,
47659410,-0.578,0.393,0.698,-7.647,-5.39,7.595,
47659420,-0.563,0.375,0.675,-10.01,4.725,7.647,
47659430,-0.567,0.375,0.67,-10.797,14.35,6.982,
47659440,-0.592,0.399,0.67,-12.862,22.697,9.817,
47659450,-0.688,0.468,0.697,-21.262,35.245,16.292,
47659460,-0.714,0.293,0.616,-32.987,37.712,19.547,
47659470,-0.645,0.301,0.606,-28.49,38.01,18.182,
47659480,-0.665,0.325,0.612,-22.925,38.902,13.685,
47659490,-0.816,0.292,0.589,-19.652,39.112,10.36,
47659500,-0.844,0.234,0.531,-10.92,26.81,5.95,
47659510,-0.837,0.307,0.515,6.475,9.642,1.907,
47659510,-0.888,0.344,0.532,15.75,-9.047,-1.032,
47659530,-0.921,0.317,0.537,20.44,-27.457,-3.255,
47659530,-0.956,0.237,0.499,25.847,-49.455,-5.337,
47659550,-0.696,0.223,0.491,44.8,-82.617,-17.342,
47659550,-0.607,0.457,0.669,63.542,-89.845,-21.245,
47659570,-0.703,0.455,0.706,51.502,-81.357,-10.797,
47659570,-0.785,0.385,0.662,30.835,-78.837,7.717,
47659580,-0.654,0.383,0.673,14.315,-77.56,19.985,
47659590,-0.528,0.351,0.676,4.882,-72.38,24.937,
47659600,-0.465,0.401,0.719,2.502,-59.185,26.11,
47659610,-0.438,0.436,0.772,-3.027,-44.537,25.532,
47659620,-0.421,0.451,0.802,-11.392,-26.512,30.152,
47659630,-0.388,0.451,0.783,-20.282,-6.562,30.415,
47659640,-0.399,0.535,0.775,-27.09,20.107,25.13,
47659650,-0.528,0.492,0.758,-38.097,45.587,23.695,
47659660,-0.527,0.413,0.709,-46.392,61.74,24.097,
47659670,-0.622,0.278,0.608,-45.745,67.252,19.757,
47659680,-0.651,0.251,0.579,-28.56,61.582,5.915,
47659690,-0.8,0.392,0.616,-11.147,52.045,0.42,
47659700,-0.893,0.349,0.576,-8.89,33.53,-0.665,
47659710,-0.852,0.314,0.542,0.157,12.845,-5.967,
47659720,-0.834,0.346,0.568,10.57,-4.97,-11.252,
47659730,-0.85,0.33,0.582,13.492,-21.21,-11.952,
47659740,-0.818,0.296,0.578,16.502,-36.207,-10.062,
47659750,-0.822,0.208,0.555,26.022,-52.482,-13.93,
47659760,-0.505,0.322,0.647,47.897,-71.102,-25.182,
47659770,-0.613,0.449,0.748,54.495,-65.87,-25.742,
47659780,-0.601,0.391,0.704,41.125,-59.36,-21.105,
47659790,-0.583,0.476,0.71,29.89,-54.722,-12.075,
47659800,-0.593,0.457,0.711,13.072,-46.025,-3.955,
47659810,-0.518,0.437,0.731,-0.7,-36.12,-0.07,
47659820,-0.519,0.424,0.745,-10.01,-23.537,2.765,
47659830,-0.419,0.417,0.773,-14.472,-9.625,0.892,
47659840,-0.416,0.408,0.784,-20.002,6.825,3.342,
47659850,-0.426,0.4,0.77,-25.48,25.427,6.265,
47659860,-0.419,0.491,0.758,-30.537,46.165,9.17,
47659870,-0.509,0.532,0.768,-46.182,72.52,16.642,
47659880,-0.7,0.346,0.669,-63.367,90.895,22.907,
47659890,-0.671,0.217,0.583,-60.165,90.072,18.655,
47659900,-0.698,0.203,0.551,-41.755,79.205,12.95,
47659910,-0.721,0.271,0.547,-20.632,63.472,6.877,
47659920,-0.874,0.343,0.573,-5.967,48.177,3.027,
47659920,-0.9,0.311,0.521,1.82,27.142,-1.487,
47659940,-0.88,0.346,0.541,11.532,4.165,-6.405,
47659940,-0.875,0.33,0.571,14.507,-15.05,-9.17,
47659960,-0.822,0.295,0.574,16.187,-31.552,-7.367,
47659960,-0.762,0.285,0.59,21.962,-44.135,-7.595,
47659980,-0.827,0.121,0.533,33.512,-60.147,-12.407,
47659980,-0.502,0.323,0.644,61.95,-80.115,-24.815,
47660000,-0.59,0.508,0.822,68.512,-72.345,-26.04,
47660000,-0.531,0.438,0.736,44.537,-56.63,-15.365,
47660010,-0.67,0.386,0.651,24.482,-45.71,4.427,
47660020,-0.608,0.352,0.65,12.547,-43.977,11.217,
47660030,-0.58,0.407,0.686,7.56,-41.107,17.657,
47660040,-0.576,0.449,0.738,-1.872,-32.97,27.492,
47660050,-0.5,0.451,0.789,-13.842,-22.452,35.035,
47660060,-0.399,0.41,0.798,-22.347,-2.782,38.465,
47660070,-0.306,0.456,0.82,-26.477,29.47,39.235,
47660080,-0.41,0.422,0.765,-36.032,60.917,45.587,
47660090,-0.497,0.375,0.711,-41.3,79.467,41.615,
47660100,-0.546,0.35,0.629,-30.782,85.592,24.937,
47660110,-0.586,0.475,0.631,-13.877,84.962,9.922,
47660120,-0.899,0.484,0.592,-9.87,81.06,1.382,
47660130,-0.936,0.415,0.494,-9.205,54.617,-9.135,
47660140,-0.932,0.462,0.504,-2.765,26.057,-13.545,
47660150,-0.94,0.379,0.526,-1.207,3.272,-21.14,
47660160,-0.836,0.294,0.559,2.66,-15.68,-24.517,
47660170,-0.843,0.177,0.532,8.995,-32.672,-22.137,
47660180,-0.604,0.23,0.549,30.817,-59.255,-28.822,
47660190,-0.658,0.408,0.688,46.83,-62.177,-30.117,
47660200,-0.67,0.369,0.707,43.452,-60.655,-30.712,
47660210,-0.537,0.493,0.761,32.27,-48.422,-23.222,
47660220,-0.697,0.348,0.662,8.942,-35.42,-6.842,
47660230,-0.589,0.369,0.664,0.612,-29.645,2.975,
47660240,-0.587,0.414,0.691,-6.195,-25.375,5.197,
47660250,-0.546,0.379,0.728,-13.982,-17.815,3.43,
47660260,-0.454,0.443,0.744,-18.935,-4.637,3.622,
47660260,-0.372,0.454,0.815,-24.377,17.745,6.965,
47660280,-0.419,0.402,0.762,-35.105,48.772,13.002,
47660280,-0.412,0.396,0.718,-45.395,71.592,21.332,
47660300,-0.563,0.314,0.679,-46.76,85.715,23.905,
47660300,-0.562,0.354,0.608,-36.96,89.372,17.57,
47660320,-0.979,0.381,0.546,-30.082,85.225,10.71,
47660320,-0.92,0.292,0.436,-23.205,57.995,-0.84,
47660330,-0.997,0.4,0.468,-5.862,33.145,-0.682,
47660340,-1,0.387,0.491,0.385,4.585,-4.742,
47660350,-0.887,0.35,0.556,6.965,-20.807,-12.967,
47660360,-0.762,0.299,0.571,10.587,-37.52,-15.26,
47660370,-0.704,0.233,0.55,15.015,-47.092,-12.302,
47660380,-0.815,0.093,0.457,29.155,-59.097,-12.197,
47660390,-0.594,0.341,0.596,58.835,-83.667,-17.937,
47660400,-0.722,0.525,0.735,66.447,-81.882,-18.987,
47660410,-0.695,0.408,0.714,49.472,-79.327,-21.122,
47660420,-0.567,0.47,0.742,37.835,-72.415,-17.045,
47660430,-0.505,0.4,0.715,19.355,-55.107,-8.89,
47660440,-0.448,0.378,0.707,8.4,-38.255,-1.417,
47660450,-0.534,0.393,0.752,3.727,-21.84,5.565,
47660460,-0.441,0.421,0.736,-1.26,-10.552,7.07,
47660470,-0.468,0.447,0.763,-8.4,4.375,11.83,
47660480,-0.464,0.418,0.746,-19.652,20.212,14.052,
47660490,-0.47,0.416,0.74,-25.2,36.977,17.307,
47660500,-0.427,0.534,0.764,-29.925,55.002,21.63,
47660510,-0.549,0.549,0.763,-50.277,87.867,31.185,
47660520,-0.636,0.25,0.608,-69.545,102.147,36.575,
47660530,-0.609,0.263,0.576,-56.507,103.897,35.192,
47660540,-0.874,0.297,0.534,-40.565,96.512,26.757,
47660550,-0.867,0.32,0.513,-23.73,77.245,14.42,
47660560,-1.003,0.36,0.48,-10.797,53.567,9.415,
47660570,-0.938,0.326,0.463,-2.047,23.782,1.627,
47660580,-0.95,0.378,0.507,8.26,-2.082,-4.602,
47660590,-0.906,0.313,0.51,9.8,-23.852,-8.015,
47660600,-0.845,0.289,0.531,14.525,-44.117,-7.77,
47660610,-0.873,0.196,0.458,23.555,-62.457,-9.205,
47660620,-0.629,0.261,0.516,49.892,-93.275,-21.805,
47660630,-0.686,0.565,0.753,67.392,-95.235,-29.435,
47660640,-0.603,0.473,0.73,51.835,-86.572,-32.305,
47660650,-0.61,0.407,0.695,38.867,-74.095,-27.142,
47660660,-0.5,0.441,0.704,29.347,-65.852,-23.187,
47660670,-0.509,0.439,0.736,16.485,-48.842,-14.857,
47660670,-0.515,0.381,0.717,2.24,-32.077,-5.915,
47660690,-0.477,0.371,0.728,-3.937,-16.1,-2.292,
47660690,-0.459,0.372,0.719,-8.032,-1.907,2.432,
47660700,-0.551,0.397,0.709,-12.582,11.2,9.8,
47660710,-0.587,0.427,0.705,-17.202,20.072,13.475,
47660720,-0.57,0.468,0.738,-24.115,30.642,15.015,
47660730,-0.556,0.436,0.698,-36.557,45.482,21.262,
47660740,-0.606,0.405,0.671,-46.06,59.342,24.92,
47660750,-0.588,0.374,0.645,-49.91,66.08,23.852,
47660760,-0.664,0.368,0.626,-49.192,73.22,24.587,
47660770,-0.817,0.223,0.516,-42.787,65.415,17.972,
47660780,-0.813,0.339,0.552,-21.892,48.405,10.22,
47660790,-0.858,0.342,0.558,-13.125,29.225,4.917,
47660800,-0.788,0.335,0.575,-5.652,13.16,-0.595,
47660810,-0.737,0.344,0.598,-0.805,3.762,-4.917,
47660820,-0.734,0.303,0.594,3.15,-1.032,-8.82,
47660830,-0.755,0.333,0.603,9.817,-6.282,-9.695,
47660840,-0.771,0.34,0.6,13.597,-12.792,-9.747,
47660850,-0.774,0.327,0.593,17.447,-19.232,-9.52,
47660860,-0.798,0.296,0.589,22.452,-27.055,-9.415,
47660870,-0.733,0.184,0.529,36.277,-44.782,-15.925,
47660880,-0.539,0.491,0.689,60.515,-50.295,-22.785,
47660890,-0.735,0.436,0.664,51.835,-42.647,-21.595,
47660900,-0.635,0.446,0.67,40.792,-38.71,-17.552,
47660910,-0.731,0.455,0.656,23.852,-32.83,-7.105,
47660920,-0.651,0.387,0.635,7.945,-32.795,-3.43,
47660930,-0.64,0.416,0.666,-0.787,-29.207,0.7,
47660940,-0.601,0.378,0.671,-9.852,-24.552,2.362,
47660950,-0.565,0.386,0.697,-15.067,-15.557,4.987,
47660960,-0.576,0.391,0.715,-21.892,-5.11,8.522,
47660970,-0.568,0.391,0.701,-28.857,5.145,11.182,
47660980,-0.601,0.415,0.676,-33.232,14.507,11.952,
47660990,-0.618,0.517,0.663,-39.48,24.272,11.725,
47661000,-0.682,0.507,0.654,-55.667,32.655,15.347,
47661010,-0.683,0.426,0.657,-69.055,38.972,19.565,
47661010,-0.618,0.308,0.69,-71.715,41.65,18.34,
47661030,-0.502,0.296,0.705,-60.637,47.442,11.532,
47661030,-0.673,0.241,0.681,-49.332,56.437,6.982,
47661050,-0.61,0.25,0.647,-34.387,56.577,-0.857,
47661050,-0.824,0.291,0.618,-21.805,51.012,-4.13,
47661070,-0.762,0.196,0.501,-17.062,34.247,-7.647,
47661070,-0.814,0.282,0.47,0.997,20.877,-10.937,
47661080,-0.948,0.328,0.511,11.41,5.792,-14.087,
47661090,-0.912,0.301,0.536,14.455,-14.63,-14.49,
47661100,-0.843,0.27,0.55,16.852,-31.92,-10.657,
47661110,-0.797,0.228,0.59,21.245,-44.45,-11.217,
47661120,-0.78,0.093,0.539,33.88,-60.48,-17.045,
47661130,-0.549,0.352,0.657,60.865,-68.74,-23.047,
47661140,-0.676,0.39,0.673,61.53,-65.345,-23.065,
47661150,-0.675,0.382,0.675,54.967,-62.055,-18.602,
47661160,-0.595,0.485,0.692,44.817,-56.245,-10.85,
47661170,-0.683,0.407,0.673,23.257,-46.025,-1.802,
47661180,-0.624,0.348,0.664,10.797,-41.755,2.73,
47661190,-0.562,0.384,0.691,7.63,-35.822,4.147,
47661200,-0.558,0.4,0.727,1.715,-23.66,5.145,
47661210,-0.571,0.38,0.741,-5.74,-12.39,7.682,
47661220,-0.496,0.393,0.748,-12.285,-1.837,10.71,
47661230,-0.524,0.376,0.729,-20.58,11.707,14.192,
47661240,-0.524,0.421,0.724,-24.5,25.567,14.63,
47661250,-0.592,0.51,0.757,-34.475,46.637,18.34,
47661260,-0.645,0.343,0.684,-51.712,59.99,20.982,
47661270,-0.582,0.321,0.658,-52.447,68.792,22.925,
47661280,-0.683,0.265,0.612,-49.192,71.4,21.262,
47661290,-0.722,0.239,0.581,-38.185,68.53,17.412,
47661300,-0.766,0.293,0.566,-22.295,55.72,11.305,
47661310,-0.834,0.388,0.604,-10.202,45.85,6.457,
47661320,-0.857,0.3,0.546,-10.92,31.412,2.747,
47661330,-0.792,0.279,0.525,-2.17,16.345,0.052,
47661340,-0.799,0.293,0.539,7.7,2.835,-1.505,
47661350,-0.823,0.291,0.588,13.475,-8.89,-0.77,
47661360,-0.759,0.307,0.626,19.162,-15.452,-1.137,
47661370,-0.803,0.08,0.54,26.425,-23.467,-7.052,
47661380,-0.46,0.361,0.628,57.732,-37.397,-21.262,
47661390,-0.724,0.567,0.717,59.797,-25.007,-23.94,
47661390,-0.83,0.379,0.613,34.527,-20.282,-20.422,
47661410,-0.772,0.421,0.627,22.61,-20.982,-10.237,
47661410,-0.728,0.309,0.583,9.975,-26.18,-6.545,
47661420,-0.631,0.356,0.635,9.537,-27.685,-5.267,
47661430,-0.617,0.386,0.676,4.34,-22.26,-1.33,
47661440,-0.594,0.348,0.679,-2.1,-12.372,1.225,
47661450,-0.588,0.362,0.683,-6.142,-3.377,3.447,
47661460,-0.626,0.376,0.668,-10.29,5.11,5.897,
47661470,-0.657,0.37,0.651,-12.705,11.112,6.405,
47661480,-0.658,0.416,0.675,-14.385,16.45,6.72,
47661490,-0.687,0.439,0.687,-24.36,27.65,10.605,
47661500,-0.655,0.307,0.619,-35.647,34.93,12.425,
47661510,-0.595,0.346,0.643,-33.25,40.022,11.55,
47661520,-0.698,0.301,0.603,-30.502,44.047,8.82,
47661530,-0.727,0.294,0.583,-21.175,39.865,4.147,
47661540,-0.79,0.351,0.595,-11.147,34.387,0.49,
47661550,-0.797,0.318,0.561,-6.807,26.285,-4.2,
47661560,-0.847,0.349,0.551,-0.805,16.135,-8.312,
47661570,-0.868,0.336,0.55,0.437,4.602,-11.515,
47661580,-0.85,0.307,0.551,2.03,-7.56,-12.652,
47661590,-0.826,0.27,0.538,5.355,-19.81,-12.005,
47661600,-0.791,0.237,0.552,12.005,-31.307,-11.182,
47661610,-0.774,0.108,0.509,24.745,-45.78,-12.32,
47661620,-0.639,0.355,0.594,49.49,-55.055,-15.61,
47661630,-0.769,0.426,0.638,48.755,-55.247,-16.257,
47661640,-0.653,0.453,0.704,35.875,-50.872,-13.947,
47661650,-0.692,0.393,0.65,14.892,-38.78,-4.882,
47661660,-0.608,0.297,0.639,3.867,-32.305,-2.572,
47661670,-0.587,0.361,0.691,1.977,-24.395,1.61,
47661680,-0.565,0.375,0.716,-2.87,-15.19,6.072,
47661690,-0.532,0.379,0.715,-9.205,-4.602,12.18,
47661700,-0.578,0.38,0.697,-15.872,8.61,13.107,
47661710,-0.629,0.382,0.685,-20.195,20.965,10.78,
47661720,-0.678,0.397,0.663,-23.992,27.107,9.52,
47661730,-0.617,0.532,0.683,-29.4,36.68,9.555,
47661740,-0.794,0.403,0.651,-49.49,48.3,13.212,
47661750,-0.62,0.249,0.624,-53.795,48.212,10.745,
47661760,-0.636,0.291,0.632,-44.117,49.612,7.367,
47661760,-0.717,0.22,0.597,-36.435,47.092,2.1,
47661780,-0.76,0.262,0.546,-19.215,38.727,-2.362,
47661780,-0.842,0.338,0.514,-5.932,30.082,-5.495,
47661800,-0.982,0.294,0.488,-0.227,18.27,-12.127,
47661800,-0.971,0.296,0.504,6.825,0.28,-16.712,
47661820,-0.979,0.249,0.493,10.622,-20.3,-17.395,
47661820,-0.791,0.179,0.469,22.207,-47.845,-23.572,
47661830,-0.678,0.326,0.575,41.982,-61.425,-29.365,
47661840,-0.69,0.302,0.608,44.082,-62.93,-33.792,
47661850,-0.688,0.299,0.649,43.68,-62.58,-32.322,
47661860,-0.639,0.383,0.718,41.282,-56.735,-28.7,
47661870,-0.638,0.4,0.724,28.21,-42.297,-21.297,
47661880,-0.669,0.328,0.671,11.637,-31.29,-12.04,
47661890,-0.677,0.256,0.613,2.642,-23.992,-4.007,
47661900,-0.629,0.257,0.603,3.395,-23.782,-0.717,
47661910,-0.567,0.348,0.691,5.512,-20.282,1.715,
47661920,-0.595,0.36,0.748,-3.465,-7.28,8.627,
47661930,-0.531,0.319,0.738,-15.575,7.245,16.345,
47661940,-0.537,0.349,0.757,-22.015,22.697,20.492,
47661950,-0.482,0.405,0.746,-25.287,40.652,19.057,
47661960,-0.714,0.485,0.711,-32.935,71.47,21.367,
47661970,-0.924,0.317,0.579,-44.835,78.977,20.912,
47661980,-0.9,0.273,0.506,-37.992,57.54,16.467,
47661990,-0.844,0.353,0.542,-26.425,26.74,12.6,
47662000,-0.665,0.23,0.445,-19.197,14.91,3.517,
47662010,-0.846,0.299,0.527,-2.012,13.09,-5.775,
47662020,-0.771,0.247,0.558,5.372,0.472,-10.832,
47662030,-0.824,0.213,0.582,11.9,-5.197,-12.617,
47662040,-0.877,0.195,0.542,16.17,-12.932,-9.59,
47662050,-0.799,0.197,0.502,27.177,-31.202,-12.827,
47662060,-0.756,0.34,0.593,41.72,-44.485,-18.847,
47662070,-0.778,0.364,0.625,39.322,-49.542,-23.012,
47662080,-0.744,0.38,0.637,29.522,-53.812,-20.842,
47662080,-0.696,0.417,0.729,16.94,-48.702,-12.53,
47662100,-0.712,0.346,0.687,0.787,-37.222,0.892,
47662100,-0.599,0.298,0.66,-6.947,-28.945,7.35,
47662120,-0.55,0.34,0.693,-7.682,-20.772,8.925,
47662120,-0.544,0.364,0.718,-10.29,-7.542,7.297,
47662140,-0.517,0.375,0.738,-13.65,8.662,4.462,
47662140,-0.565,0.385,0.767,-19.757,32.707,6.247,
47662160,-0.598,0.349,0.705,-28.63,54.442,12.162,
47662160,-0.682,0.335,0.684,-34.685,64.12,15.067,
47662170,-0.816,0.421,0.697,-35.98,59.342,14.945,
47662180,-0.636,0.149,0.484,-42.7,36.4,16.502,
47662190,-0.681,0.192,0.406,-24.622,36.26,5.652,
47662200,-0.928,0.285,0.453,-4.672,36.907,-3.43,
47662210,-0.97,0.262,0.511,3.727,21.927,-6.79,
47662220,-0.968,0.269,0.557,8.522,6.002,-5.477,
47662230,-0.852,0.24,0.56,8.907,-9.432,-3.027,
47662240,-0.819,0.147,0.446,12.95,-25.742,-5.075,
47662250,-0.668,0.291,0.551,29.47,-44.117,-13.142,
47662260,-0.79,0.422,0.699,32.69,-43.382,-16.012,
47662270,-0.79,0.395,0.724,16.047,-36.872,-7.665,
47662280,-0.737,0.296,0.642,0.63,-30.922,5.32,
47662290,-0.625,0.273,0.623,-3.43,-28.77,9.467,
47662300,-0.634,0.332,0.653,-2.292,-23.537,11.252,
47662310,-0.613,0.366,0.693,-4.252,-15.872,11.112,
47662320,-0.606,0.355,0.765,-10.027,-1.785,10.57,
47662330,-0.564,0.357,0.736,-17.447,19.845,14.455,
47662340,-0.601,0.335,0.699,-26.635,37.117,18.83,
47662350,-0.61,0.317,0.686,-30.485,48.51,19.04,
47662360,-0.861,0.522,0.798,-33.565,44.467,17.972,
47662370,-0.494,0.155,0.577,-49.63,18.637,21.56,
47662380,-0.689,0.203,0.464,-35.332,30.152,10.412,
47662390,-0.731,0.3,0.428,-17.745,25.9,3.465,
47662400,-0.922,0.315,0.489,-7.035,29.015,0.157,
47662410,-1.056,0.362,0.568,-2.572,23.625,-4.567,
47662420,-0.846,0.264,0.528,-4.007,2.992,-3.745,
47662430,-0.807,0.19,0.525,-2.957,-2.782,-7.875,
47662440,-0.755,0.144,0.44,6.492,-16.205,-11.217,
47662450,-0.679,0.369,0.626,19.565,-27.65,-10.692,
47662460,-0.848,0.345,0.722,9.607,-20.055,-4.847,
47662470,-0.789,0.229,0.64,-2.257,-13.965,4.515,
47662480,-0.678,0.247,0.58,-2.38,-14.77,9.187,
47662490,-0.705,0.29,0.603,-0.385,-15.102,11.357,
47662500,-0.72,0.322,0.621,-0.35,-13.912,13.772,
47662510,-0.694,0.344,0.627,-1.977,-10.955,13.405,
47662510,-0.669,0.378,0.69,-5.88,-6.842,11.917,
47662530,-0.697,0.341,0.716,-13.02,5.005,13.072,
47662530,-0.605,0.322,0.677,-18.515,16.66,15.802,
47662550,-0.601,0.292,0.649,-21.035,27.982,17.342,
47662550,-0.621,0.379,0.766,-18.637,35.192,15.137,
47662570,-0.762,0.397,0.649,-27.93,23.222,21.21,
47662570,-0.607,0.266,0.585,-37.537,22.487,16.467,
47662580,-0.737,0.286,0.578,-26.442,33.81,12.705,
47662590,-0.848,0.27,0.46,-21.98,28.157,7.262,
47662600,-0.853,0.253,0.444,-11.62,21.332,4.305,
47662610,-0.932,0.261,0.521,-2.555,15.487,0.577,
47662620,-0.891,0.252,0.547,-0.35,6.3,-0.77,
47662630,-0.816,0.227,0.547,-0.07,-1.715,-0.35,
47662640,-0.744,0.208,0.557,3.097,-6.755,0.122,
47662650,-0.795,0.159,0.467,9.922,-14.525,0.717,
47662660,-0.714,0.318,0.564,24.115,-29.47,-3.36,
47662670,-0.852,0.364,0.62,28.157,-31.36,-6.51,
47662680,-0.794,0.416,0.68,21.105,-32.55,-4.41,
47662690,-0.825,0.378,0.637,4.13,-29.487,5.145,
47662700,-0.687,0.289,0.596,-7.682,-28.665,8.837,
47662710,-0.665,0.284,0.606,-10.097,-25.707,12.022,
47662720,-0.641,0.292,0.631,-10.167,-21.997,14.595,
47662730,-0.655,0.32,0.657,-10.972,-15.032,16.59,
47662740,-0.638,0.365,0.7,-13.02,-7.087,17.727,
47662750,-0.707,0.373,0.739,-20.055,9.205,20.387,
47662760,-0.645,0.276,0.661,-26.827,22.68,21.945,
47662770,-0.598,0.31,0.647,-26.302,30.257,22.207,
47662780,-0.698,0.384,0.746,-26.512,35.385,21.105,
47662790,-0.588,0.301,0.643,-35.21,29.837,21.682,
47662800,-0.643,0.315,0.624,-36.627,38.43,18.97,
47662810,-0.788,0.302,0.579,-34.632,44.1,17.675,
47662820,-0.78,0.269,0.488,-31.762,34.667,15.207,
47662830,-0.96,0.306,0.519,-21.822,26.425,11.952,
47662830,-0.627,0.316,0.524,-16.065,13.667,7.91,
47662850,-0.956,0.366,0.569,-11.182,19.267,2.747,
47662850,-0.893,0.294,0.563,-13.667,7.35,-1.435,
47662870,-0.731,0.254,0.51,-10.885,-1.505,-2.31,
47662870,-0.9,0.244,0.524,-2.52,0.14,-7.735,
47662890,-0.865,0.218,0.526,6.037,-10.08,-7.84,
47662890,-0.978,0.137,0.477,13.562,-24.36,-4.917,
47662910,-0.611,0.195,0.412,31.045,-54.67,-10.972,
47662910,-0.744,0.464,0.615,45.675,-62.02,-13.475,
47662920,-0.807,0.444,0.768,26.687,-50.207,-12.565,
47662930,-0.799,0.303,0.683,1.75,-38.045,0.192,
47662940,-0.664,0.204,0.61,-5.46,-37.31,2.957,
47662950,-0.493,0.282,0.651,-0.91,-31.167,3.097,
47662960,-0.654,0.285,0.641,-0.332,-19.547,10.517,
47662970,-0.642,0.316,0.647,-0.157,-11.725,11.497,
47662980,-0.655,0.332,0.638,-3.64,-3.85,10.115,
47662990,-0.685,0.334,0.639,-7.84,2.152,8.715,
47663000,-0.663,0.339,0.662,-10.64,7.14,9.205,
47663010,-0.627,0.34,0.678,-12.162,13.632,9.677,
47663020,-0.586,0.388,0.738,-16.992,29.732,11.725,
47663030,-0.727,0.222,0.597,-30.257,47.11,16.1,
47663040,-0.638,0.24,0.544,-28,46.06,17.395,
47663050,-0.775,0.33,0.551,-24.622,48.142,20.457,
47663060,-0.934,0.364,0.631,-27.3,37.905,19.215,
47663070,-0.715,0.288,0.596,-30.922,21.612,21.437,
47663080,-0.865,0.28,0.589,-29.452,23.852,16.1,
47663090,-0.698,0.282,0.576,-20.65,18.9,12.372,
47663100,-0.782,0.304,0.552,-10.85,19.32,9.222,
47663110,-0.766,0.276,0.515,-1.785,14.507,4.445,
47663120,-0.808,0.349,0.564,7.227,7.647,1.522,
47663130,-0.833,0.311,0.579,4.672,2.415,0,
47663140,-0.81,0.283,0.579,4.235,-2.59,-1.662,
47663150,-0.793,0.281,0.573,5.442,-6.457,-1.102,
47663160,-0.798,0.258,0.564,8.522,-10.797,-0.507,
47663170,-0.801,0.248,0.548,13.93,-14.332,0.717,
47663180,-0.854,0.151,0.529,19.232,-20.492,2.03,
47663190,-0.703,0.101,0.478,37.94,-38.517,-2.117,
47663200,-0.723,0.355,0.546,59.185,-44.87,2.205,
47663210,-0.859,0.386,0.589,47.757,-51.432,6.947,
47663220,-0.839,0.455,0.676,32.357,-53.935,12.897,
47663230,-0.754,0.39,0.633,10.885,-51.73,15.242,
47663240,-0.608,0.321,0.624,2.275,-47.95,11.55,
47663250,-0.611,0.367,0.661,1.925,-35.787,12.407,
47663260,-0.634,0.356,0.668,0.21,-26.162,13.51,
47663260,-0.604,0.368,0.666,-0.84,-18.847,12.845,
47663280,-0.611,0.383,0.665,-3.097,-12.057,11.847,
47663280,-0.635,0.378,0.655,-7.402,-4.76,10.29,
47663300,-0.641,0.376,0.659,-10.412,1.54,8.47,
47663300,-0.639,0.366,0.667,-12.197,8.295,6.965,
47663320,-0.597,0.451,0.687,-15.277,18.725,8.137,
47663320,-0.762,0.412,0.634,-34.037,36.47,15.365,
47663330,-0.705,0.183,0.548,-42.262,33.512,15.627,
47663340,-0.65,0.352,0.606,-28.192,31.815,16.397,
47663350,-0.809,0.332,0.595,-32.147,32.952,17.972,
47663360,-0.757,0.238,0.595,-30.012,26.092,16.082,
47663370,-0.713,0.286,0.6,-16.73,18.637,14.402,
47663380,-0.726,0.36,0.634,-9.187,17.237,10.92,
47663390,-0.796,0.277,0.588,-8.645,15.067,6.615,
47663400,-0.745,0.316,0.587,0.752,10.727,3.675,
47663410,-0.771,0.343,0.588,4.322,7.962,1.085,
47663420,-0.763,0.35,0.62,4.585,5.372,-2.17,
47663430,-0.74,0.37,0.633,2.73,6.02,-3.57,
47663440,-0.726,0.345,0.615,0.542,6.877,-7.262,
47663450,-0.743,0.348,0.616,1.155,6.737,-10.797,
47663460,-0.766,0.339,0.607,1.977,5.267,-12.88,
47663470,-0.762,0.312,0.563,3.395,3.937,-14.192,
47663480,-0.803,0.272,0.549,6.265,0.035,-14.315,
47663490,-0.869,0.071,0.485,16.59,-16.275,-17.255,
47663500,-0.591,0.295,0.569,46.2,-30.817,-21.262,
47663510,-0.778,0.465,0.638,48.037,-23.957,-19.39,
47663520,-0.812,0.369,0.6,29.015,-20.317,-16.432,
47663530,-0.765,0.376,0.59,15.942,-20.282,-8.435,
47663540,-0.69,0.341,0.588,4.62,-20.737,-5.075,
47663550,-0.667,0.305,0.598,-0.805,-17.745,-2.292,
47663560,-0.665,0.302,0.607,-1.505,-14.087,1.61,
47663570,-0.658,0.303,0.606,-0.717,-9.205,4.13,
47663580,-0.697,0.324,0.616,-1.225,-6.002,6.107,
47663580,-0.721,0.338,0.611,-3.5,-4.392,7.84,
47663600,-0.714,0.35,0.611,-6.335,-3.885,8.942,
47663600,-0.716,0.346,0.614,-8.715,-2.345,9.607,
47663620,-0.694,0.35,0.624,-10.255,-0.315,9.537,
47663620,-0.676,0.354,0.626,-13.65,3.78,10.395,
47663640,-0.672,0.491,0.647,-23.135,14.017,13.93,
47663640,-0.813,0.326,0.599,-44.152,21.525,18.375,
47663660,-0.698,0.281,0.581,-41.422,20.58,16.922,
47663660,-0.801,0.347,0.584,-35.542,18.655,16.502,
47663670,-0.811,0.272,0.587,-32.305,10.727,11.97,
47663680,-0.737,0.264,0.622,-21,3.517,8.872,
47663690,-0.611,0.342,0.648,-11.147,2.992,4.672,
47663700,-0.686,0.323,0.627,-8.33,8.96,-0.245,
47663710,-0.698,0.325,0.613,-4.13,14.14,-3.762,
47663720,-0.777,0.34,0.586,-2.695,15.4,-4.462,
47663730,-0.798,0.317,0.571,-2.187,11.427,-6.667,
47663740,-0.786,0.33,0.583,-0.35,5.25,-8.015,
47663750,-0.787,0.295,0.57,-0.752,0.56,-9.31,
47663760,-0.813,0.278,0.557,0.822,-5.67,-9.975,
47663770,-0.814,0.287,0.574,3.535,-11.532,-9.047,
47663780,-0.776,0.281,0.585,4.97,-15.61,-8.312,
47663790,-0.74,0.281,0.6,5.845,-16.625,-7,
47663800,-0.696,0.275,0.606,6.44,-16.327,-5.337,
47663810,-0.739,0.233,0.582,8.575,-14.385,-4.952,
47663820,-0.691,0.167,0.551,21.192,-21.63,-10.465,
47663830,-0.726,0.373,0.597,40.162,-22.907,-12.6,
47663840,-0.813,0.365,0.58,36.96,-27.492,-14.262,
47663850,-0.785,0.364,0.592,33.967,-33.267,-13.702,
47663860,-0.749,0.365,0.597,28.507,-37.502,-13.177,
47663870,-0.694,0.352,0.63,22.785,-37.082,-14,
47663880,-0.684,0.331,0.644,17.867,-32.655,-12.25,
47663890,-0.662,0.319,0.645,14.927,-25.112,-9.642,
47663900,-0.655,0.3,0.642,14.105,-19.057,-7.77,
47663910,-0.672,0.313,0.635,15.312,-13.895,-6.387,
47663920,-0.705,0.346,0.63,14.752,-10.815,-5.075,
47663930,-0.752,0.367,0.628,8.347,-7.997,-2.275,
47663940,-0.76,0.323,0.603,-0.7,-9.537,1.312,
47663950,-0.692,0.328,0.627,-4.55,-11.987,3.5,
47663960,-0.663,0.339,0.657,-9.747,-11.095,6.177,
47663970,-0.623,0.319,0.667,-14.752,-5.792,9.17,
47663980,-0.59,0.323,0.674,-17.027,2.222,11.9,
47663990,-0.579,0.417,0.702,-20.44,16.467,14.7,
47664000,-0.709,0.394,0.666,-35.367,34.895,20.142,
47664010,-0.662,0.254,0.583,-45.307,39.427,22.995,
47664010,-0.683,0.356,0.603,-40.985,43.365,26.302,
47664030,-0.792,0.302,0.578,-42.98,42.98,23.712,
47664030,-0.778,0.3,0.585,-36.925,36.61,20.597,
47664050,-0.77,0.363,0.622,-31.447,31.395,18.147,
47664050,-0.754,0.293,0.61,-30.432,27.3,12.915,
47664070,-0.716,0.295,0.602,-21.735,24.85,6.877,
47664070,-0.744,0.339,0.598,-14.28,22.942,2.467,
47664080,-0.818,0.317,0.574,-12.495,20.492,-0.84,
47664090,-0.818,0.266,0.529,-8.207,13.65,-4.567,
47664100,-0.823,0.29,0.538,-0.542,5.372,-5.95,
47664110,-0.828,0.274,0.565,1.47,-2.59,-5.46,
47664120,-0.793,0.267,0.582,3.255,-8.557,-4.13,
47664130,-0.75,0.274,0.582,5.057,-12.022,-3.447,
47664140,-0.733,0.263,0.577,6.825,-13.702,-3.57,
47664150,-0.826,0.105,0.534,12.67,-18.637,-4.935,
47664160,-0.598,0.289,0.584,36.365,-29.977,-10.867,
47664170,-0.846,0.401,0.617,41.02,-28.175,-8.557,
47664180,-0.804,0.317,0.599,33.845,-33.792,-11.165,
47664190,-0.756,0.393,0.613,34.492,-36.732,-12.11,
47664200,-0.737,0.329,0.58,28.612,-39.025,-15.19,
47664210,-0.738,0.321,0.577,27.422,-39.602,-16.537,
47664220,-0.809,0.287,0.561,27.527,-43.382,-14.175,
47664230,-0.835,0.264,0.534,32.585,-54.425,-12.932,
47664240,-0.886,0.289,0.582,35.892,-67.83,-12.967,
47664250,-0.793,0.244,0.553,39.357,-86.502,-12.705,
47664260,-0.639,0.392,0.641,47.302,-94.605,-14.875,
47664270,-0.603,0.428,0.705,37.222,-85.767,-13.65,
47664280,-0.617,0.359,0.718,23.135,-71.96,-9.695,
47664290,-0.534,0.329,0.688,16.905,-56.77,-6.947,
47664300,-0.514,0.346,0.701,16.957,-41.492,-7.7,
47664310,-0.385,0.396,0.753,17.727,-20.09,-10.955,
47664320,-0.607,0.39,0.742,11.83,5.127,-9.992,
47664330,-0.615,0.36,0.685,5.337,12.04,-8.837,
47664330,-0.653,0.381,0.67,1.557,13.09,-8.137,
47664350,-0.686,0.364,0.665,-4.357,12.372,-6.667,
47664350,-0.678,0.366,0.679,-9.397,11.112,-4.76,
47664370,-0.627,0.353,0.686,-13.79,12.477,-3.097,
47664370,-0.588,0.35,0.702,-17.552,17.482,-2.38,
47664390,-0.466,0.354,0.723,-21.227,28,-1.382,
47664390,-0.532,0.413,0.758,-34.982,61.162,6.912,
47664410,-0.561,0.204,0.663,-48.79,79.887,13.86,
47664410,-0.451,0.335,0.67,-42.77,98.332,15.522,
47664420,-0.765,0.252,0.551,-45.307,112.542,18.2,
47664430,-0.977,0.173,0.463,-35.035,95.672,15.697,
47664440,-1.077,0.343,0.491,-14,63.735,11.112,
47664450,-1.053,0.36,0.468,-5.267,31.29,2.397,
47664460,-0.884,0.324,0.474,1.242,1.032,-6.37,
47664470,-0.882,0.316,0.539,8.015,-15.312,-10.92,
47664480,-0.898,0.198,0.505,10.832,-30.152,-13.702,
47664490,-0.756,0.221,0.499,26.057,-53.392,-19.705,
47664500,-0.765,0.307,0.57,41.055,-63.542,-24.535,
47664510,-0.767,0.23,0.527,48.685,-71.277,-29.715,
47664520,-0.728,0.331,0.611,58.1,-79.852,-29.697,
47664530,-0.704,0.464,0.734,50.522,-78.12,-25.112,
47664540,-0.723,0.398,0.708,26.022,-64.802,-16.537,
47664550,-0.549,0.285,0.658,9.887,-53.515,-9.047,
47664560,-0.515,0.282,0.7,5.617,-38.745,-3.325,
47664570,-0.495,0.308,0.745,4.025,-20.177,-0.262,
47664580,-0.51,0.322,0.724,3.36,-0.98,1.995,
47664590,-0.5,0.345,0.71,2.38,17.692,2.887,
47664600,-0.511,0.343,0.713,0.157,35.997,2.555,
47664610,-0.512,0.382,0.738,-2.765,56.122,1.05,
47664620,-0.523,0.436,0.786,-16.117,88.41,2.66,
47664630,-0.561,0.25,0.688,-30.257,118.247,4.34,
47664640,-0.495,0.194,0.653,-23.047,139.895,3.605,
47664650,-0.534,0.121,0.675,-10.185,168.49,9.03,
47664660,-0.449,0.031,0.646,15.557,203.087,16.362,
47664670,-0.479,0.117,0.575,51.415,237.982,22.837,
47664680,-0.64,0.191,0.457,78.347,264.6,25.48,
47664690,-0.823,0.254,0.334,95.077,278.495,27.667,
47664700,-1.073,0.337,0.218,105.56,274.242,27.842,
47664710,-1.204,0.395,0.115,109.13,250.757,27.072,
47664720,-1.21,0.443,0.022,107.31,212.52,26.74,
47664730,-1.257,0.487,-0.023,103.18,166.11,27.702,
47664740,-1.188,0.534,-0.032,90.86,115.482,21.962,
47664750,-1.209,0.449,-0.03,78.417,67.445,23.782,
47664760,-1.137,0.521,0.023,66.815,20.982,29.575,
47664760,-1.063,0.55,0.07,49.262,-16.31,26.827,
47664780,-1.053,0.444,0.099,31.167,-43.487,20.37,
47664780,-0.907,0.488,0.151,21.035,-63.542,15.085,
47664800,-0.925,0.479,0.202,14.455,-73.237,14.385,
47664800,-0.881,0.464,0.279,6.895,-75.162,10.307,
47664810,-0.821,0.459,0.276,1.54,-71.365,5.215,
47664820,-0.865,0.422,0.32,-1.067,-63.245,2.065,
47664830,-0.759,0.449,0.36,-2.817,-54.845,-4.305,
47664840,-0.76,0.432,0.34,-3.272,-44.642,-8.312,
47664850,-0.811,0.406,0.362,-3.745,-33.512,-12.232,
47664860,-0.882,0.363,0.39,-1.19,-25.375,-15.12,
47664870,-0.827,0.368,0.368,4.69,-20.387,-17.22,
47664880,-0.828,0.4,0.42,10.605,-14.542,-16.03,
47664890,-0.869,0.474,0.513,10.71,-11.375,-12.477,
47664900,-0.877,0.42,0.529,3.762,-19.25,-4.305,
47664910,-0.818,0.385,0.509,-1.452,-24.85,0.245,
47664920,-0.803,0.381,0.488,-1.697,-29.172,4.48,
47664930,-0.798,0.37,0.447,0.21,-30.52,9.012,
47664940,-0.791,0.368,0.411,7.35,-30.117,11.882,
47664950,-0.768,0.403,0.368,15.61,-26.127,14.21,
47664960,-0.806,0.486,0.332,22.067,-16.642,15.575,
47664970,-0.873,0.557,0.348,28.63,-10.885,14.245,
47664980,-0.855,0.599,0.267,27.387,-4.777,13.685,
47664990,-0.866,0.643,0.262,21.525,4.182,6.597,
47665000,-0.88,0.72,0.255,9.52,4.375,1.207,
47665010,-0.865,0.664,0.232,-9.957,2.187,2.45,
47665020,-0.807,0.65,0.261,-29.015,-5.845,-0.752,
47665030,-0.85,0.644,0.28,-47.915,-18.69,4.445,
47665040,-0.812,0.633,0.238,-70.717,-32.882,16.275,
47665050,-0.825,0.514,0.183,-93.502,-35.7,18.62,
47665060,-0.774,0.501,0.173,-114.695,-29.015,5.25,
47665070,-0.702,0.456,0.149,-134.33,-15.365,-8.33,
47665080,-0.728,0.36,0.126,-147.962,-3.622,-18.165,
47665080,-0.791,0.273,0.089,-155.05,2.292,-23.642,
47665100,-0.914,0.191,0.124,-154.017,2.66,-28.752,
47665100,-1.07,0.192,0.215,-143.64,-3.01,-35.245,
47665120,-1.195,0.217,0.329,-128.975,-16.135,-28.735,
47665120,-1.119,0.171,0.36,-116.025,-25.13,-8.785,
47665140,-0.916,0.144,0.388,-99.645,-23.397,12.827,
47665140,-0.758,0.121,0.379,-82.425,-9.887,28.14,
47665160,-0.691,0.14,0.412,-68.985,11.637,33.687,
47665160,-0.763,0.106,0.433,-57.61,28.875,34.177,
47665170,-0.903,0.1,0.438,-47.04,32.06,32.742,
47665180,-0.989,0.129,0.455,-35.455,18.777,30.117,
47665190,-0.903,0.228,0.417,-26.827,-0.63,29.557,
47665200,-0.942,0.397,0.46,-24.552,-10.622,29.155,
47665210,-0.904,0.44,0.439,-40.372,-17.605,27.02,
47665220,-0.9,0.409,0.402,-58.852,-22.785,28.245,
47665230,-0.824,0.423,0.407,-68.915,-22.452,28.892,
47665240,-0.817,0.379,0.411,-70.07,-17.622,28.157,
47665250,-0.829,0.388,0.418,-66.062,-11.392,29.68,
47665260,-0.865,0.406,0.431,-59.185,-10.237,32.917,
47665270,-0.86,0.419,0.434,-52.587,-13.79,33.302,
47665280,-0.82,0.401,0.406,-48.317,-18.602,33.32,
47665290,-0.86,0.411,0.401,-45.745,-19.932,31.745,
47665300,-0.899,0.413,0.405,-45.657,-24.08,29.365,
47665310,-0.849,0.409,0.406,-46.13,-29.435,26.827,
47665320,-0.891,0.383,0.395,-45.92,-35.245,23.467,
47665330,-0.851,0.318,0.465,-44.327,-46.567,20.23,
47665340,-0.724,0.255,0.475,-30.887,-49.927,14.962,
47665350,-0.71,0.242,0.531,-13.58,-45.5,10.202,
47665360,-0.811,0.235,0.608,1.277,-45.027,10.745,
47665370,-0.816,0.243,0.631,10.167,-50.872,5.005,
47665380,-0.709,0.235,0.626,13.965,-54.197,-4.76,
47665390,-0.645,0.245,0.628,15.47,-42.945,-10.78,
47665400,-0.709,0.256,0.628,14.07,-24.08,-14.507,
47665410,-0.781,0.246,0.564,13.51,-8.12,-16.327,
47665420,-0.801,0.255,0.503,18.27,1.207,-16.817,
47665430,-0.824,0.269,0.471,25.13,7.052,-19.057,
47665440,-0.844,0.27,0.441,29.295,7.805,-22.312,
47665450,-0.844,0.3,0.457,32.165,9.1,-25.585,
47665460,-0.771,0.354,0.531,26.635,9.8,-25.34,
47665470,-0.715,0.345,0.585,11.952,15.155,-20.072,
47665480,-0.783,0.347,0.615,-1.382,22.942,-15.732,
47665490,-0.717,0.315,0.624,-9.712,25.585,-13.037,
47665500,-0.636,0.282,0.611,-7.91,26.215,-12.792,
47665500,-0.665,0.29,0.563,-0.105,31.535,-10.972,
47665510,-0.766,0.339,0.533,8.347,35.455,-10.517,
47665520,-0.812,0.385,0.508,11.917,34.545,-9.73,
47665530,-0.893,0.419,0.457,6.86,30.152,-8.33,
47665540,-0.972,0.419,0.413,-4.112,21.052,-9.66,
47665550,-0.991,0.389,0.395,-14.332,4.602,-12.845,
47665560,-0.952,0.364,0.405,-21.367,-14.35,-14.962,
47665570,-0.939,0.337,0.426,-26.197,-30.38,-15.627,
47665580,-0.873,0.278,0.457,-27.02,-42.315,-16.397,
47665590,-0.783,0.177,0.503,-22.172,-42.892,-14.577,
47665600,-0.711,0.163,0.491,-7.367,-37.572,-12.565,
47665610,-0.767,0.24,0.524,7.472,-36.575,-12.635,
47665620,-0.816,0.245,0.54,14.962,-40.022,-11.357,
47665630,-0.841,0.309,0.545,18.585,-42.227,-9.747,
47665640,-0.813,0.298,0.517,13.825,-40.792,-8.557,
47665650,-0.813,0.285,0.531,8.732,-35.822,-6.177,
47665660,-0.76,0.296,0.574,2.59,-33.915,0.507,
47665670,-0.8,0.281,0.603,-7.875,-31.43,10.797,
47665680,-0.716,0.223,0.58,-14.21,-28.35,17.377,
47665690,-0.612,0.259,0.603,-13.3,-20.475,21.577,
47665700,-0.631,0.298,0.613,-16.082,-8.802,27.177,
47665710,-0.641,0.322,0.598,-20.02,5.057,30.975,
47665720,-0.644,0.442,0.633,-24.045,25.515,32.41,
47665730,-0.902,0.362,0.58,-37.275,40.757,32.707,
47665740,-0.853,0.262,0.505,-38.937,40.337,28.087,
47665750,-0.908,0.239,0.468,-26.372,27.755,20.597,
47665760,-0.797,0.264,0.481,-8.732,8.785,10.325,
47665770,-0.805,0.376,0.554,5.46,1.242,0.385,
47665780,-0.902,0.336,0.531,6.457,-0.017,-4.76,
47665790,-0.897,0.263,0.483,8.365,-6.055,-11.2,
47665800,-0.888,0.233,0.46,17.64,-23.485,-19.25,
47665810,-0.771,0.324,0.536,32.217,-37.1,-28.542,
47665820,-0.88,0.348,0.518,39.287,-41.265,-35.857,
47665830,-0.801,0.344,0.56,36.137,-45.885,-39.112,
47665830,-0.759,0.347,0.577,25.41,-49.437,-33.81,
47665850,-0.728,0.338,0.599,7.612,-38.85,-20.72,
47665850,-0.786,0.251,0.58,-8.995,-26.652,-8.312,
47665870,-0.727,0.189,0.602,-15.855,-23.94,-0.875,
47665870,-0.611,0.21,0.612,-14,-20.79,4.2,
47665890,-0.616,0.255,0.614,-11.795,-8.89,8.347,
47665890,-0.683,0.323,0.634,-13.755,2.922,12.46,
47665910,-0.676,0.319,0.609,-20.177,12.075,14.577,
47665910,-0.628,0.428,0.665,-28.297,32.427,21.7,
47665920,-1.024,0.293,0.554,-42.752,45.36,31.675,
47665930,-0.671,0.283,0.541,-39.952,33.897,24.657,
47665940,-0.81,0.398,0.583,-32.13,35.42,23.1,
47665950,-0.837,0.292,0.523,-33.932,36.295,15.907,
47665960,-0.831,0.237,0.472,-21.157,30.31,4.567,
47665970,-0.842,0.238,0.444,-6.702,16.082,-3.115,
47665980,-0.777,0.285,0.474,8.89,5.46,-9.38,
47665990,-0.935,0.218,0.452,17.5,1.102,-9.24,
47666000,-0.981,0.138,0.42,23.257,-9.905,-8.05,
47666010,-0.917,0.183,0.42,36.575,-32.375,-16.502,
47666020,-0.808,0.264,0.516,50.68,-48.002,-28.875,
47666030,-0.872,0.32,0.551,57.435,-51.38,-39.637,
47666040,-0.783,0.382,0.658,49.98,-61.687,-41.02,
47666050,-0.698,0.382,0.702,24.395,-60.672,-27.002,
47666060,-0.715,0.303,0.683,-3.15,-37.59,-5.39,
47666070,-0.727,0.18,0.585,-16.362,-20.107,4.69,
47666080,-0.543,0.225,0.601,-13.615,-16.257,6.177,
47666090,-0.679,0.316,0.63,-13.44,-6.44,10.5,
47666100,-0.72,0.337,0.619,-17.832,2.135,13.002,
47666110,-0.687,0.365,0.618,-22.382,8.995,13.195,
47666120,-0.658,0.427,0.69,-31.867,25.707,17.762,
47666130,-0.851,0.308,0.624,-46.06,43.26,24.727,
47666140,-0.552,0.273,0.592,-47.127,50.33,25.305,
47666150,-0.754,0.357,0.621,-44.94,66.132,28.105,
47666160,-0.938,0.21,0.532,-48.982,62.597,25.375,
47666170,-0.81,0.172,0.453,-34.405,44.117,13.93,
47666180,-0.792,0.272,0.415,-9.852,32.2,2.59,
47666190,-0.927,0.298,0.392,6.37,19.355,-6.23,
47666190,-1.008,0.241,0.398,18.41,3.325,-12.25,
47666210,-1.046,0.099,0.349,28.315,-13.457,-13.965,
47666210,-0.948,0.085,0.359,42.945,-45.115,-17.167,
47666230,-0.696,0.306,0.573,61.145,-63.735,-25.777,
47666230,-0.821,0.383,0.683,53.567,-58.205,-30.73,
47666250,-0.815,0.342,0.625,24.132,-61.792,-21.175,
47666250,-0.809,0.302,0.638,5.407,-54.565,-15.015,
47666260,-0.755,0.255,0.618,-2.957,-46.497,-9.555,
47666270,-0.64,0.29,0.612,-5.67,-38.115,-2.94,
47666280,-0.705,0.308,0.651,-10.115,-25.27,4.34,
47666290,-0.651,0.284,0.646,-16.765,-15.382,10.045,
47666300,-0.551,0.326,0.64,-22.102,-3.71,12.792,
47666310,-0.57,0.396,0.669,-29.645,17.412,16.992,
47666320,-0.729,0.363,0.689,-40.967,46.042,24.482,
47666330,-0.64,0.288,0.662,-44.975,69.282,28.087,
47666340,-0.687,0.351,0.628,-45.552,92.312,28.77,
47666350,-0.889,0.248,0.554,-50.995,95.427,23.957,
47666360,-0.842,0.187,0.439,-44.747,71.277,15.522,
47666370,-0.973,0.114,0.321,-24.867,48.947,7.402,
47666380,-0.978,0.187,0.255,3.85,18.165,-4.952,
47666390,-0.969,0.258,0.289,33.057,-7.472,-15.75,
47666400,-1.247,0.101,0.351,44.59,-28.332,-17.517,
47666410,-0.962,0.174,0.393,56.07,-62.055,-23.59,
47666420,-0.852,0.2,0.458,72.642,-78.347,-39.112,
47666430,-0.758,0.33,0.589,80.202,-89.897,-53.375,
47666440,-0.774,0.441,0.735,67.76,-96.162,-50.942,
47666450,-0.693,0.409,0.801,37.135,-86.485,-39.917,
47666460,-0.564,0.258,0.688,6.352,-55.807,-20.09,
47666470,-0.757,0.18,0.597,-7.017,-22.19,-4.095,
47666480,-0.669,0.249,0.631,-6.352,-18.2,0.927,
47666490,-0.602,0.299,0.664,-8.102,-15.61,5.88,
47666500,-0.609,0.288,0.646,-12.687,-6.79,9.852,
47666510,-0.618,0.33,0.652,-13.895,4.497,10.237,
47666520,-0.687,0.383,0.657,-15.89,14.122,11.042,
47666530,-0.456,0.479,0.756,-22.12,32.322,14.945,
47666540,-0.792,0.446,0.739,-40.862,79.205,30.432,
47666550,-0.871,0.227,0.533,-58.17,87.29,30.012,
47666560,-0.681,0.188,0.481,-56.175,71.732,27.79,
47666570,-0.856,0.197,0.488,-45.5,59.815,24.955,
47666580,-0.878,0.139,0.432,-34.282,42.7,13.72,
47666580,-0.911,0.173,0.425,-12.74,33.775,1.68,
47666600,-0.969,0.153,0.343,5.512,20.545,-7.805,
47666600,-0.957,0.184,0.431,22.785,7.612,-15.015,
47666620,-1.076,0.164,0.457,27.072,-1.767,-14.052,
47666620,-0.974,0.049,0.305,30.625,-23.31,-15.347,
47666640,-0.734,0.129,0.371,54.39,-43.715,-25.305,
47666640,-0.945,0.296,0.511,73.412,-53.917,-35.665,
47666660,-0.955,0.499,0.66,64.295,-75.232,-33.495,
47666660,-0.834,0.417,0.675,33.39,-78.925,-26.967,
47666670,-0.73,0.267,0.624,8.54,-56.997,-18.672,
47666680,-0.713,0.178,0.578,-0.542,-39.585,-6.142,
47666690,-0.601,0.225,0.621,0.157,-33.127,0.227,
47666700,-0.636,0.283,0.677,-0.752,-26.6,6.037,
47666710,-0.564,0.315,0.681,-4.025,-20.3,12.11,
47666720,-0.571,0.346,0.664,-7.56,-5.057,12.757,
47666730,-0.519,0.415,0.724,-9.905,12.775,10.202,
47666740,-0.619,0.474,0.813,-21.91,44.52,16.712,
47666750,-0.725,0.337,0.706,-40.967,69.667,21.735,
47666760,-0.655,0.272,0.645,-45.185,76.457,19.075,
47666770,-0.817,0.27,0.553,-42.612,68.127,16.275,
47666780,-0.729,0.217,0.458,-37.187,52.622,11.375,
47666790,-0.949,0.177,0.364,-18.077,48.195,-0.175,
47666800,-0.948,0.257,0.334,3.64,34.37,-10.5,
47666810,-0.994,0.224,0.402,19.477,21.385,-18.375,
47666820,-1.091,0.134,0.417,24.325,14.91,-25.375,
47666830,-0.94,0.018,0.351,33.162,-3.92,-29.085,
47666840,-0.662,0.105,0.434,54.162,-18.392,-32.865,
47666850,-0.755,0.155,0.571,63.035,-9.695,-33.67,
47666860,-0.86,0.163,0.598,56.717,-0.507,-25.165,
47666870,-0.803,0.188,0.584,49.752,6.317,-15.067,
47666880,-0.805,0.217,0.559,44.957,17.272,-6.807,
47666890,-0.786,0.245,0.524,40.372,26.39,0.402,
47666900,-0.757,0.263,0.522,36.557,35.56,6.282,
47666910,-0.81,0.3,0.524,32.882,50.487,10.675,
47666920,-0.811,0.323,0.501,30.012,56.647,12.6,
47666920,-0.826,0.356,0.482,26.232,57.435,12.687,
47666940,-0.869,0.388,0.492,21.84,56,11.655,
47666940,-0.881,0.422,0.518,15.277,55.212,10.237,
47666960,-0.84,0.382,0.498,5.53,57.137,8.172,
47666960,-0.802,0.339,0.472,-1.05,63.07,4.235,
47666980,-0.809,0.306,0.447,-4.392,68.81,2.415,
47666980,-0.814,0.271,0.427,-4.62,73.692,2.485,
47667000,-0.825,0.247,0.416,-1.89,78.295,3.377,
47667000,-0.874,0.221,0.376,1.925,82.53,5.25,
47667010,-0.897,0.214,0.345,8.102,83.212,6.825,
47667020,-0.928,0.208,0.309,15.662,81.865,7.945,
47667030,-0.945,0.24,0.301,23.257,77.315,8.592,
47667040,-1.004,0.295,0.283,29.19,71.067,8.592,
47667050,-1.004,0.335,0.279,30.8,62.16,4.637,
47667060,-1.095,0.339,0.219,26.145,50.715,1.627,
47667070,-1.014,0.323,0.222,23.415,36.925,-1.505,
47667080,-0.949,0.283,0.22,25.602,27.072,-11.935,
47667090,-1.046,0.312,0.199,33.337,18.41,-24.167,
47667100,-1.01,0.348,0.218,39.112,7.91,-33.04,
47667110,-0.949,0.338,0.235,40.355,-3.237,-39.27,
47667120,-0.903,0.291,0.301,45.727,-6.562,-35.175,
47667130,-0.913,0.406,0.331,30.38,-5.477,-22.61,
47667140,-0.949,0.39,0.308,7.787,-1.82,-10.062,
47667150,-0.936,0.372,0.322,-8.487,3.902,-2.782,
47667160,-0.853,0.346,0.341,-20.282,12.197,-4.882,
47667170,-0.833,0.331,0.342,-24.062,23.992,-6.177,
47667180,-0.866,0.324,0.345,-28.052,33.092,-4.462,
47667190,-0.862,0.325,0.336,-32.41,38.675,-3.587,
47667200,-0.856,0.346,0.301,-38.185,40.967,-3.955,
47667210,-0.979,0.346,0.274,-46.427,40.005,-3.657,
47667220,-0.861,0.222,0.235,-53.34,34.02,-2.1,
47667230,-0.833,0.163,0.212,-39.375,39.935,-0.07,
47667240,-0.873,0.253,0.222,-25.9,48.58,3.342,
47667250,-0.951,0.316,0.244,-19.6,53.935,8.715,
47667260,-0.926,0.312,0.228,-17.22,53.812,8.732,
47667270,-0.94,0.289,0.231,-21.892,53.707,10.832,
47667280,-0.948,0.304,0.227,-26.88,53.935,9.047,
47667290,-0.989,0.299,0.213,-33.057,51.782,6.685,
47667300,-0.994,0.275,0.198,-33.582,45.045,3.867,
47667310,-0.954,0.165,0.195,-32.637,34.58,6.212,
47667320,-0.968,0.229,0.187,-23.31,24.92,2.677,
47667330,-0.968,0.255,0.201,-14.875,16.397,4.427,
47667330,-0.988,0.198,0.195,-10.185,4.707,4.917,
47667350,-0.976,0.204,0.206,-2.45,-4.62,4.602,
47667350,-0.964,0.241,0.216,-0.07,-10.745,3.43,
47667370,-0.965,0.225,0.206,-2.012,-13.755,-1.155,
47667370,-0.898,0.224,0.211,-6.632,-14.087,-2.432,
47667390,-0.904,0.254,0.213,-14.07,-7.42,3.85,
47667390,-0.931,0.252,0.223,-23.485,2.8,10.325,
47667410,-0.966,0.232,0.205,-33.232,12.81,15.61,
47667410,-0.967,0.216,0.197,-38.815,22.207,19.792,
47667420,-1.013,0.18,0.173,-39.69,29.435,21.087,
47667430,-1.059,0.18,0.166,-31.762,28.472,19.425,
47667440,-1.026,0.208,0.178,-20.352,19.355,19.267,
47667450,-1.006,0.261,0.2,-12.687,9.485,20.475,
47667460,-1.003,0.309,0.223,-12.565,-0.07,19.022,
47667470,-1.003,0.342,0.22,-22.05,-10.535,16.992,
47667480,-0.889,0.327,0.222,-32.34,-20.09,14.122,
47667490,-0.823,0.3,0.208,-40.985,-21.297,9.572,
47667500,-0.878,0.264,0.17,-41.632,-19.932,9.817,
47667510,-0.876,0.214,0.162,-28.157,-20.492,17.185,
47667520,-1.008,0.179,0.176,-5.705,-25.322,23.065,
47667530,-1.077,0.225,0.222,18.655,-36.82,22.085,
47667540,-1.077,0.282,0.236,39.042,-53.76,17.552,
47667550,-1.028,0.331,0.268,49.437,-70.087,9.8,
47667560,-0.922,0.348,0.349,52.22,-82.932,0.332,
47667570,-0.808,0.316,0.36,49.017,-87.937,-6.982,
47667580,-0.716,0.278,0.366,45.447,-81.34,-11.532,
47667590,-0.672,0.226,0.379,45.22,-62.387,-15.435,
47667600,-0.705,0.212,0.383,46.69,-40.512,-16.065,
47667610,-0.731,0.168,0.367,50.05,-18.287,-7.49,
47667620,-0.787,0.147,0.346,57.242,6.545,4.077,
47667630,-0.928,0.15,0.323,66.01,33.337,12.53,
47667640,-1.036,0.289,0.313,68.425,49.105,14.157,
47667650,-1.036,0.247,0.237,61.967,53.042,11.742,
47667660,-0.999,0.199,0.145,60.637,51.467,15.365,
47667670,-0.901,0.278,0.052,60.375,51.135,18.182,
47667670,-0.827,0.33,-0.072,56.525,58.957,18.025,
47667690,-0.844,0.407,-0.18,53.2,77.507,18.042,
47667690,-1.106,0.473,-0.144,50.54,91.787,27.895,
47667710,-1.376,0.474,-0.107,36.872,79.45,32.83,
47667710,-1.271,0.468,-0.061,21.507,48.895,22.085,
47667730,-1.136,0.448,-0.023,11.095,15.802,9.642,
47667730,-1.091,0.498,0.019,-2.642,-19.635,1.89,
47667750,-1.014,0.496,0.087,-17.185,-52.64,1.487,
47667750,-0.963,0.456,0.14,-30.065,-76.23,-0.962,
47667760,-0.919,0.4,0.186,-37.922,-84.945,-7.192,
47667770,-0.892,0.329,0.225,-38.185,-83.877,-11.935,
47667780,-0.887,0.295,0.241,-30.537,-82.267,-12.372,
47667790,-0.84,0.291,0.254,-16.205,-80.342,-10.815,
47667800,-0.819,0.257,0.285,-1.715,-70.875,-11.27,
47667810,-0.84,0.275,0.289,9.887,-60.847,-8.575,
47667820,-0.826,0.306,0.297,16.135,-52.15,-3.955,
47667830,-0.843,0.337,0.304,15.837,-43.767,-1.242,
47667840,-0.891,0.368,0.307,13.422,-35.647,0.437,
47667850,-0.92,0.401,0.307,10.062,-27.37,-0.105,
47667860,-0.898,0.376,0.317,6.51,-19.582,-2.257,
47667870,-0.848,0.322,0.326,5.32,-9.625,-3.71,
47667880,-0.797,0.285,0.343,6.65,3.465,-3.377,
47667890,-0.777,0.261,0.338,12.46,19.757,-3.657,
47667900,-0.839,0.267,0.301,19.932,34.212,-1.557,
47667910,-0.884,0.291,0.265,28.14,44.922,1.557,
47667920,-0.939,0.317,0.225,36.942,50.312,3.045,
47667930,-0.972,0.335,0.18,44.327,51.327,3.202,
47667940,-1.005,0.347,0.138,47.985,47.512,2.012,
47667950,-1.029,0.375,0.103,45.797,39.62,1.592,
47667960,-1.087,0.419,0.071,41.737,27.142,0.682,
47667970,-1.1,0.424,0.076,32.69,8.365,-2.012,
47667980,-1.067,0.437,0.111,21.735,-12.39,-6.51,
47667990,-0.982,0.474,0.138,11.165,-27.737,-13.72,
47668000,-0.971,0.436,0.157,2.135,-38.202,-19.442,
47668010,-0.946,0.365,0.166,-0.315,-44.817,-27.072,
47668020,-0.926,0.319,0.182,3.797,-47.39,-33.862,
47668030,-0.92,0.296,0.199,9.765,-45.132,-36.155,
47668040,-0.913,0.282,0.216,14.77,-40.512,-35.77,
47668050,-0.9,0.267,0.229,18.97,-33.425,-33.95,
47668060,-0.875,0.229,0.208,22.54,-24.552,-31.937,
47668070,-0.889,0.27,0.223,27.877,-12.197,-31.115,
47668080,-0.934,0.305,0.238,30.345,-6.265,-28.175,
47668080,-0.94,0.354,0.246,28.84,-5.232,-27.545,
47668100,-0.955,0.374,0.239,24.412,-7.595,-29.155,
47668100,-0.979,0.385,0.222,18.567,-11.812,-30.905,
47668120,-0.998,0.355,0.186,9.45,-17.972,-37.782,
47668120,-0.999,0.278,0.165,8.085,-23.765,-39.41,
47668140,-0.972,0.32,0.186,8.68,-27.86,-37.852,
47668140,-0.986,0.275,0.195,4.795,-30.222,-38.605,
47668160,-0.931,0.3,0.25,3.78,-32.095,-37.065,
47668160,-0.923,0.29,0.275,-0.595,-31.745,-36.207,
47668170,-0.891,0.258,0.292,-3.622,-30.415,-34.667,
47668180,-0.859,0.251,0.323,-3.482,-26.81,-31.57,
47668190,-0.874,0.249,0.343,-3.657,-20.177,-28.612,
47668200,-0.886,0.231,0.352,-4.235,-14,-26.162,
47668210,-0.874,0.271,0.359,-5.092,-8.505,-24.482,
47668220,-1.031,0.341,0.297,-12.372,-3.692,-22.12,
47668230,-0.95,0.13,0.237,-30.205,-6.965,-21,
47668240,-0.826,0.071,0.238,-17.78,-4.235,-25.952,
47668250,-0.978,0.211,0.268,0,4.987,-20.02,
47668260,-0.974,0.225,0.226,-5.635,0.56,-10.902,
47668270,-0.972,0.184,0.229,-7,-5.74,-8.452,
47668280,-0.925,0.179,0.252,-6.125,-9.52,-6.72,
47668290,-0.952,0.2,0.272,-5.372,-9.327,-3.412,
47668300,-0.971,0.194,0.258,-7,-9.117,-1.12,
47668310,-0.954,0.188,0.241,-5.267,-8.925,0.227,
47668320,-0.925,0.215,0.273,-3.167,-8.54,1.837,
47668330,-0.925,0.246,0.32,-4.112,-4.707,2.135,
47668340,-0.913,0.256,0.356,-9.94,-0.35,2.327,
47668350,-0.83,0.211,0.383,-16.45,4.462,2.992,
47668360,-0.801,0.137,0.366,-15.172,13.475,3.097,
47668370,-0.842,0.086,0.311,-5.862,28.56,5.495,
47668380,-0.912,0.117,0.244,8.137,40.25,11.585,
47668390,-0.996,0.154,0.178,16.327,44.24,18.935,
47668400,-1.063,0.17,0.141,18.095,39.935,24.027,
47668410,-1.053,0.258,0.137,15.47,30.327,25.182,
47668420,-1.028,0.317,0.152,9.397,17.307,23.87,
47668420,-0.982,0.359,0.196,1.995,5.81,22.207,
47668440,-0.952,0.325,0.223,-6.562,-1.855,22.802,
47668440,-0.948,0.248,0.218,-12.477,-5.967,21.28,
47668460,-0.937,0.226,0.226,-12.6,-8.61,20.667,
47668460,-0.906,0.23,0.251,-10.972,-6.772,22.872,
47668480,-0.902,0.25,0.268,-9.782,-1.68,25.217,
47668480,-0.895,0.263,0.273,-8.907,4.357,26.005,
47668500,-0.897,0.258,0.268,-8.347,9.467,25.322,
47668500,-0.913,0.266,0.26,-7.752,15.137,25.55,
47668510,-0.971,0.317,0.261,-7.175,18.48,25.392,
47668520,-0.958,0.269,0.197,-10.465,17.482,25.97,
47668530,-1.012,0.275,0.147,-11.655,17.29,22.802,
47668540,-1.083,0.317,0.148,-13.632,13.44,21.122,
47668550,-1.108,0.318,0.135,-19.81,1.032,21.157,
47668560,-1.101,0.308,0.134,-26.74,-15.365,21.612,
47668570,-1.046,0.297,0.155,-33.635,-32.147,23.905,
47668580,-1,0.282,0.183,-38.64,-44.152,26.81,
47668590,-0.958,0.282,0.218,-40.407,-50.19,28.805,
47668600,-0.895,0.278,0.276,-40.075,-50.295,29.54,
47668610,-0.826,0.257,0.322,-41.702,-43.295,31.622,
47668620,-0.819,0.236,0.343,-42,-30.765,34.65,
47668630,-0.763,0.2,0.364,-38.955,-14.787,38.097,
47668640,-0.786,0.203,0.367,-32.987,4.217,41.72,
47668650,-0.856,0.246,0.329,-26.04,22.4,41.09,
47668660,-0.917,0.302,0.278,-20.737,31.535,37.555,
47668670,-1.012,0.361,0.241,-17.57,31.517,34.79,
47668680,-1.047,0.385,0.227,-19.39,23.257,30.275,
47668690,-0.981,0.439,0.2,-27.597,12.197,20.387,
47668700,-1.142,0.314,0.139,-38.202,-1.785,13.3,
47668710,-1.036,0.321,0.154,-40.687,-22.4,13.37,
47668720,-0.996,0.35,0.175,-37.205,-37.1,11.672,
47668730,-0.972,0.358,0.22,-36.067,-47.25,8.032,
47668740,-0.859,0.339,0.296,-32.462,-52.797,9.782,
47668750,-0.83,0.39,0.377,-28.472,-47.425,9.765,
47668760,-0.767,0.387,0.418,-25.182,-37.222,6.387,
47668770,-0.737,0.368,0.429,-18.725,-23.152,3.045,
47668780,-0.706,0.347,0.425,-12.635,-4.095,-6.072,
47668790,-0.77,0.318,0.399,-7.262,16.257,-14.945,
47668800,-0.818,0.32,0.369,-2.922,32.13,-18.357,
47668810,-0.851,0.352,0.354,-1.47,43.225,-19.355,
47668820,-0.881,0.371,0.33,-5.04,49.35,-20.02,
47668830,-0.917,0.405,0.317,-12.46,53.532,-21.175,
47668830,-0.989,0.517,0.395,-23.712,50.557,-22.522,
47668850,-1.028,0.563,0.441,-45.08,33.547,-17.255,
47668850,-0.894,0.481,0.416,-75.565,15.68,-11.83,
47668870,-0.888,0.44,0.383,-99.61,7.595,-8.715,
47668870,-0.868,0.379,0.363,-114.117,5.95,-6.597,
47668890,-0.856,0.302,0.331,-119.752,9.922,-5.285,
47668890,-0.868,0.283,0.31,-115.57,15.47,-3.377,
47668910,-0.882,0.266,0.291,-107.747,20.037,-1.907,
47668910,-0.909,0.272,0.266,-97.947,23.082,-2.327,
47668920,-0.927,0.275,0.244,-90.055,25.445,-2.45,
47668930,-0.947,0.272,0.228,-85.575,27.44,-1.645,
47668940,-0.975,0.272,0.206,-83.877,28.665,-0.35,
47668950,-0.982,0.259,0.18,-82.267,26.95,0.682,
47668960,-0.973,0.243,0.155,-78.89,23.135,1.172,
47668970,-0.985,0.236,0.137,-74.41,18.165,2.852,
47668980,-0.996,0.205,0.106,-68.582,11.287,5.862,
47668990,-1.01,0.181,0.092,-58.03,2.502,9.887,
47669000,-1.001,0.183,0.067,-43.837,-5.88,11.497,
47669010,-0.971,0.171,0.065,-30.607,-10.972,12.792,
47669020,-0.978,0.173,0.072,-17.937,-14,15.697,
47669030,-0.983,0.179,0.089,-4.532,-15.627,19.11,
47669040,-0.991,0.192,0.118,9.467,-16.59,19.985,
47669050,-0.986,0.229,0.185,21.91,-18.147,17.132,
47669060,-0.893,0.306,0.292,25.795,-20.842,15.505,
47669070,-0.858,0.438,0.397,10.045,-20.16,28.577,
47669080,-0.904,0.537,0.426,-27.86,-15.452,51.345,
47669090,-0.948,0.431,0.362,-70.77,-11.952,64.82,
47669100,-0.981,0.335,0.33,-98.787,-11.9,61.18,
47669110,-1.012,0.265,0.307,-112.84,-18.865,56.49,
47669120,-0.992,0.211,0.314,-109.917,-29.435,48.37,
47669130,-0.98,0.202,0.332,-96.687,-39.235,39.847,
47669140,-0.922,0.221,0.339,-82.145,-46.165,34.912,
47669150,-0.841,0.24,0.337,-71.995,-43.697,33.6,
47669160,-0.809,0.243,0.338,-67.742,-33.18,33.425,
47669170,-0.821,0.23,0.34,-68.04,-18.515,33.355,
47669170,-0.885,0.228,0.359,-68.862,-6.527,32.952,
47669190,-0.951,0.248,0.388,-70.245,-0.787,31.01,
47669190,-1.006,0.259,0.402,-73.412,-4.427,27.702,
47669210,-1.023,0.247,0.403,-76.457,-13.912,24.587,
47669210,-1.031,0.235,0.397,-77.192,-28.21,22.487,
47669230,-0.994,0.229,0.395,-74.987,-43.312,21.035,
47669230,-0.927,0.208,0.397,-70.805,-56.98,20.282,
47669250,-0.843,0.204,0.399,-65.677,-63.822,20.755,
47669250,-0.77,0.192,0.415,-60.375,-61.88,21.665,
47669260,-0.737,0.182,0.448,-53.97,-52.885,20.002,
47669270,-0.731,0.182,0.489,-48.422,-41.965,17.832,
47669280,-0.762,0.169,0.52,-44.135,-31.132,16.345,
47669290,-0.817,0.153,0.545,-39.9,-25.83,16.135,
47669300,-0.825,0.13,0.561,-34.597,-25.97,17.447,
47669310,-0.821,0.12,0.552,-28.017,-28.77,18.865,
47669320,-0.796,0.11,0.534,-19.88,-31.36,19.355,
47669330,-0.76,0.097,0.505,-11.252,-32.445,19.635,
47669340,-0.738,0.089,0.464,-3.377,-29.575,20.65,
47669350,-0.734,0.1,0.437,4.427,-22.96,21.56,
47669360,-0.749,0.13,0.433,11.182,-13.3,20.562,
47669370,-0.805,0.15,0.425,15.172,-0.857,18.952,
47669380,-0.909,0.176,0.446,16.975,10.937,18.235,
47669390,-1.042,0.223,0.475,18.252,12.757,20.877,
47669400,-1.024,0.224,0.469,21.105,4.882,23.905,
47669410,-0.951,0.247,0.461,25.497,-3.307,24.85,
47669420,-0.892,0.268,0.46,27.02,-8.137,25.077,
47669430,-0.871,0.303,0.477,25.742,-10.22,23.73,
47669440,-0.864,0.323,0.498,21.455,-11.357,23.59,
47669450,-0.857,0.321,0.473,14.087,-10.745,21.927,
47669460,-0.839,0.317,0.455,10.167,-6.002,12.95,
47669470,-0.854,0.341,0.474,9.992,-0.787,5.967,
47669480,-0.829,0.355,0.482,6.86,2.782,1.155,
47669490,-0.853,0.339,0.462,1.575,5.232,-3.185,
47669500,-0.857,0.334,0.474,-1.697,2.957,-6.772,
47669510,-0.822,0.348,0.498,-3.657,-1.382,-6.247,
47669520,-0.775,0.366,0.53,-5.267,-5.022,-2.73,
47669530,-0.739,0.356,0.535,-9.957,-5.635,-0.49,
47669540,-0.758,0.337,0.564,-10.955,-6.405,0.735,
47669550,-0.764,0.371,0.6,-9.87,-10.692,3.29,
47669560,-0.682,0.311,0.551,-8.347,-14.402,6.825,
47669570,-0.707,0.363,0.533,-6.51,-6.247,2.485,
47669580,-0.796,0.359,0.527,-8.697,0.752,-1.802,
47669580,-0.837,0.345,0.497,-10.185,2.03,-3.745,
47669600,-0.885,0.368,0.482,-9.782,-3.902,-5.46,
47669600,-0.873,0.386,0.477,-12.617,-13.142,-8.662,
47669620,-0.884,0.381,0.473,-18.007,-21.927,-11.69,
47669620,-0.838,0.336,0.505,-24.465,-21.577,-13.562,
47669630,-0.864,0.328,0.528,-24.465,-17.552,-11.69,
47669640,-0.866,0.371,0.548,-24.447,-21.612,-5.6,
47669650,-0.77,0.225,0.49,-27.877,-27.142,-0.56,
47669660,-0.751,0.191,0.463,-22.75,-25.095,4.06,
47669670,-0.694,0.22,0.517,-17.832,-14.332,10.535,
47669680,-0.798,0.213,0.542,-17.99,0.787,14.122,
47669690,-0.745,0.188,0.538,-19.827,9.17,14.927,
47669700,-0.696,0.22,0.525,-21.84,20.055,18.48,
47669710,-0.737,0.34,0.555,-26.547,35.665,20.23,
47669720,-0.926,0.253,0.536,-34.737,48.965,18.97,
47669730,-1.011,0.14,0.502,-33.057,42.927,13.562,
47669740,-0.815,0.195,0.487,-18.655,24.92,8.54,
47669750,-0.822,0.27,0.486,-8.137,17.85,7.472,
47669760,-0.813,0.274,0.469,-8.207,12.127,5.285,
47669770,-0.863,0.288,0.45,-6.002,6.895,4.445,
47669780,-0.88,0.308,0.438,-1.452,-0.77,3.15,
47669790,-0.865,0.331,0.467,0.77,-8.47,-0.507,
47669800,-0.856,0.298,0.505,-0.787,-13.317,-3.377,
47669810,-0.791,0.261,0.521,-2.152,-14.122,-4.13,
47669820,-0.779,0.235,0.518,-2.135,-12.005,-3.797,
47669830,-0.822,0.22,0.456,0.455,-14,-4.375,
47669840,-0.786,0.322,0.486,6.597,-21.332,-5.845,
47669850,-0.873,0.389,0.571,5.18,-19.932,-6.825,
47669860,-0.946,0.326,0.531,-4.025,-16.345,-7.21,
47669870,-0.81,0.287,0.532,-7.7,-20.107,-8.207,
47669880,-0.771,0.227,0.512,-8.102,-20.895,-4.882,
47669890,-0.743,0.22,0.564,-10.85,-9.345,-3.377,
47669900,-0.791,0.253,0.603,-10.745,-0.507,-1.33,
47669910,-0.783,0.251,0.542,-10.937,1.417,1.855,
47669920,-0.756,0.267,0.5,-13.37,8.452,1.417,
47669920,-0.801,0.302,0.529,-14.052,16.835,1.172,
47669940,-0.906,0.313,0.581,-17.745,25.777,3.745,
47669940,-0.865,0.22,0.504,-25.252,25.147,5.18,
47669960,-0.724,0.154,0.449,-25.462,21.245,3.64,
47669960,-0.815,0.137,0.387,-16.485,24.605,6.58,
47669980,-0.838,0.189,0.419,-6.93,16.817,9.24,
47669980,-0.871,0.244,0.431,1.925,8.732,9.397,
47670000,-0.87,0.275,0.425,8.522,-3.325,7.577,
47670000,-0.878,0.347,0.502,12.652,-11.497,6.142,
47670010,-0.92,0.382,0.554,9.66,-15.102,2.187,
47670020,-0.843,0.337,0.547,3.587,-17.692,-2.975,
47670030,-0.806,0.303,0.519,1.417,-18.27,-7.28,
47670040,-0.823,0.33,0.418,0.542,-20.387,-10.482,
47670050,-0.881,0.315,0.453,-3.097,-35.035,-16.012,
47670060,-0.836,0.305,0.562,-1.032,-40.95,-18.567,
47670070,-0.81,0.314,0.623,-0.052,-33.477,-15.925,
47670080,-0.746,0.23,0.578,-6.195,-24.482,-14.105,
47670090,-0.687,0.163,0.587,-8.015,-15.4,-10.465,
47670100,-0.767,0.172,0.606,-7.14,-2.24,-4.112,
47670110,-0.751,0.207,0.571,-8.522,8.172,-1.68,
47670120,-0.814,0.233,0.513,-9.625,14.402,-0.612,
47670130,-0.837,0.268,0.481,-10.727,15.557,0.962,
47670140,-0.857,0.313,0.513,-13.072,13.772,1.925,
47670150,-0.814,0.247,0.593,-17.955,14.105,2.415,
47670160,-0.762,0.238,0.566,-20.457,23.012,3.99,
47670170,-0.78,0.218,0.564,-26.565,26.495,5.775,
47670180,-0.799,0.161,0.499,-26.127,29.015,5.985,
47670190,-0.785,0.196,0.466,-15.995,27.492,8.54,
47670200,-0.832,0.268,0.471,-9.817,23.1,10.43,
47670210,-0.841,0.306,0.448,-8.75,15.225,8.68,
47670220,-0.829,0.319,0.453,-7.945,5.215,7.07,
47670230,-0.881,0.334,0.509,-8.907,0.84,5.932,
47670240,-0.932,0.326,0.545,-11.217,-3.01,2.8,
47670250,-0.885,0.268,0.531,-14.717,-7.927,0.7,
47670260,-0.871,0.239,0.458,-17.447,-12.81,-2.082,
47670270,-0.862,0.253,0.42,-17.85,-23.852,-4.532,
47670280,-0.83,0.216,0.466,-14.455,-33.985,-5.18,
47670290,-0.834,0.266,0.569,-8.19,-25.795,-4.427,
47670300,-0.896,0.28,0.603,-12.197,-18.41,-3.587,
47670300,-0.839,0.224,0.559,-18.41,-13.545,-4.987,
47670320,-0.769,0.196,0.568,-21.087,-11.707,-4.042,
47670320,-0.783,0.214,0.569,-20.545,-4.27,-2.712,
47670330,-0.775,0.238,0.547,-21.542,-0.367,-1.715,
47670340,-0.804,0.252,0.512,-23.24,3.692,-0.927,
47670350,-0.835,0.279,0.484,-23.345,5.705,-0.752,
47670360,-0.811,0.268,0.515,-23.24,6.247,-0.192,
47670370,-0.817,0.201,0.553,-23.362,10.045,1.855,
47670380,-0.788,0.205,0.551,-23.415,13.755,3.955,
47670390,-0.796,0.158,0.51,-26.232,12.757,4.97,
47670400,-0.81,0.13,0.467,-22.312,11.217,5.757,
47670410,-0.796,0.149,0.462,-15.295,7.647,7.857,
47670420,-0.839,0.127,0.426,-10.202,4.287,8.19,
47670430,-0.829,0.1,0.418,-4.847,-1.102,9.765,
47670440,-0.877,0.09,0.444,0.367,-2.8,10.797,
47670450,-0.932,0.104,0.48,4.042,-4.305,10.395,
47670460,-0.949,0.142,0.499,5.932,-7.647,9.695,
47670470,-0.915,0.159,0.5,6.632,-12.495,8.47,
47670480,-0.874,0.171,0.5,7.087,-15.522,5.915,
47670490,-0.858,0.197,0.491,8.382,-17.955,4.182,
47670500,-0.837,0.233,0.522,9.992,-17.692,2.502,
47670510,-0.861,0.277,0.558,10.062,-14.14,1.417,
47670520,-0.843,0.301,0.568,8.855,-12.88,-0.297,
47670530,-0.791,0.298,0.571,7.157,-12.057,-3.01,
47670540,-0.768,0.28,0.576,6.177,-9.992,-4.9,
47670550,-0.755,0.278,0.58,6.825,-5.897,-5.25,
47670560,-0.745,0.279,0.575,6.965,-1.767,-5.092,
47670570,-0.752,0.26,0.54,5.512,1.96,-5.022,
47670580,-0.763,0.241,0.519,6.055,6.282,-5.932,
47670590,-0.822,0.269,0.519,9.047,8.487,-7.157,
47670600,-0.827,0.291,0.547,9.8,7.402,-7.962,
47670610,-0.839,0.293,0.566,6.615,7.052,-8.645,
47670620,-0.82,0.268,0.594,2.975,8.26,-9.73,
47670630,-0.788,0.262,0.585,0.21,13.09,-11.27,
47670640,-0.775,0.247,0.57,-3.132,18.987,-12.827,
47670650,-0.778,0.238,0.562,-6.02,26.985,-14.42,
47670660,-0.776,0.243,0.562,-8.487,34.195,-16.572,
47670670,-0.827,0.206,0.543,-8.942,39.707,-17.85,
47670670,-0.862,0.237,0.492,-12.162,38.395,-12.6,
47670690,-0.868,0.189,0.456,-13.335,33.32,-12.022,
47670690,-0.857,0.192,0.451,-8.54,29.872,-12.057,
47670710,-0.917,0.192,0.46,-6.142,28.7,-12.932,
47670710,-0.886,0.177,0.45,-3.605,25.672,-15.295,
47670730,-0.856,0.2,0.481,-1.82,27.16,-16.03,
47670730,-0.824,0.177,0.475,-4.532,36.417,-20.335,
47670750,-0.874,0.118,0.532,-3.5,49.49,-18.147,
47670750,-0.861,0.142,0.498,-11.41,53.777,-7.56,
47670760,-0.836,0.084,0.477,-12.057,58.082,-7.56,
47670770,-0.881,0.104,0.466,-10.867,63.84,-6.912,
47670780,-0.95,0.119,0.434,-12.232,65.327,-6.107,
47670790,-0.998,0.133,0.399,-12.39,61.635,-6.107,
47670800,-1.058,0.157,0.373,-14.087,54.81,-6.772,
47670810,-1.113,0.17,0.345,-17.5,43.627,-9.24,
47670820,-1.153,0.178,0.324,-20.562,28.42,-13.51,
47670830,-1.188,0.197,0.322,-23.555,10.867,-20.912,
47670840,-1.19,0.21,0.331,-28.227,-8.347,-30.922,
47670850,-1.181,0.208,0.336,-33.932,-26.547,-41.107,
47670860,-1.138,0.182,0.315,-39.41,-42.682,-49.087,
47670870,-1.051,0.102,0.287,-39.935,-55.545,-52.325,
47670880,-0.926,0.043,0.288,-33.355,-61.512,-48.912,
47670890,-0.818,0.026,0.297,-22.89,-56.98,-43.925,
47670900,-0.744,0.039,0.323,-12.635,-43.907,-39.497,
47670910,-0.676,0.064,0.35,-5.88,-24.185,-34.737,
47670920,-0.654,0.068,0.368,-3.132,-0.875,-27.772,
47670930,-0.661,0.067,0.392,-1.085,23.957,-19.267,
47670940,-0.752,0.083,0.438,0.91,44.66,-10.237,
47670950,-0.834,0.093,0.454,-1.277,55.79,-6.387,
47670960,-0.877,0.063,0.482,-1.54,56.91,-7.84,
47670970,-0.913,0.052,0.482,-4.515,51.152,-8.207,
47670980,-0.878,0.022,0.464,-8.592,41.685,-10.307,
47670990,-0.849,-0.022,0.444,-9.187,32.795,-6.562,
47671000,-0.832,-0.03,0.424,-6.737,26.687,2.047,
47671010,-0.778,-0.015,0.419,-4.287,27.37,7.122,
47671010,-0.756,0.01,0.412,-2.152,33.512,10.85,
47671030,-0.808,0.038,0.416,-1.05,44.117,14.595,
47671030,-0.881,0.065,0.412,-3.57,51.397,14.997,
47671050,-0.944,0.076,0.41,-5.39,53.13,12.845,
47671050,-1.009,0.099,0.407,-6.16,47.705,13.037,
47671070,-1.041,0.104,0.401,-5.95,38.08,13.912,
47671070,-1.071,0.106,0.397,-3.465,26.442,14.735,
47671080,-1.077,0.124,0.404,-0.052,15.925,13.107,
47671090,-1.071,0.129,0.393,2.257,5.512,10.465,
47671100,-1.048,0.125,0.386,7.402,-2.695,5.407,
47671110,-1.032,0.149,0.39,13.247,-8.977,3.99,
47671120,-1.008,0.168,0.376,13.142,-13.195,4.48,
47671130,-0.971,0.148,0.362,14.07,-14.927,1.33,
47671140,-0.952,0.18,0.367,15.33,-13.527,3.167,
47671150,-0.929,0.183,0.351,8.68,-10.99,3.657,
47671160,-0.909,0.145,0.327,4.06,-6.895,4.322,
47671170,-0.908,0.147,0.32,3.797,-3.15,7.437,
47671180,-0.911,0.137,0.318,2.975,-0.175,8.627,
47671190,-0.913,0.135,0.316,1.715,0.875,8.575,
47671200,-0.912,0.127,0.313,1.277,0.017,6.387,
47671210,-0.903,0.123,0.318,1.085,-2.87,5.792,
47671220,-0.573,0.077,0.273,-1.242,4.13,1.872,
47671230,-0.806,0.093,0.304,-1.347,27.212,2.31,
47671240,-0.971,0.146,0.32,-2.975,25.2,7.49,
47671250,-0.848,0.084,0.319,-9.817,12.04,6.335,
47671260,-0.868,0.059,0.315,-11.987,9.152,4.567,
47671270,-0.919,0.066,0.336,-7.962,10.15,4.795,
47671280,-0.968,0.084,0.355,-3.5,9.257,5.04,
47671290,-0.986,0.099,0.358,-1.837,6.51,3.92,
47671300,-0.956,0.094,0.36,-0.787,6.107,2.257,
47671310,-0.987,0.097,0.363,1.732,9.537,3.71,
47671320,-1.019,0.118,0.365,5.232,11.97,6.3,
47671330,-1.029,0.137,0.362,6.16,12.477,7.227,
47671340,-1.02,0.148,0.351,5.022,11.252,6.842,
47671350,-1.02,0.153,0.331,3.342,9.537,6.615,
47671360,-1.033,0.147,0.313,2.537,6.072,6.72,
47671370,-1.032,0.14,0.296,4.69,2.1,7.28,
47671380,-1.014,0.151,0.284,9.012,-2.502,7.14,
47671390,-0.986,0.163,0.272,11.795,-5.092,6.615,
47671400,-0.94,0.165,0.254,12.215,-5.757,6.3,
47671410,-0.933,0.172,0.242,10.78,-2.887,6.982,
47671420,-0.955,0.179,0.231,7.245,-2.362,8.33,
47671420,-0.956,0.168,0.219,1.68,-3.605,9.047,
47671440,-0.941,0.149,0.208,-3.132,-6.037,9.17,
47671440,-0.946,0.14,0.206,-5.705,-6.79,9.047,
47671460,-0.943,0.134,0.217,-6.475,-8.785,8.575,
47671460,-0.92,0.119,0.229,-5.792,-8.89,8.4,
47671480,-0.911,0.116,0.252,-2.607,-5.862,9.292,
47671480,-0.927,0.127,0.282,1.61,0.21,10.937,
47671500,-0.956,0.147,0.304,4.445,4.655,12.022,
47671500,-0.958,0.153,0.316,4.917,6.982,12.547,
47671510,-0.955,0.154,0.325,4.637,7.752,12.95,
47671520,-0.971,0.158,0.333,3.902,7.91,12.88,
47671530,-0.967,0.159,0.334,2.415,6.79,11.707,
47671540,-0.948,0.159,0.331,0.507,5.722,10.57,
47671550,-0.94,0.155,0.323,-0.892,4.97,10.01,
47671560,-0.936,0.148,0.316,-1.207,4.357,9.922,
47671570,-0.929,0.142,0.309,0.262,3.57,10.377,
47671580,-0.921,0.141,0.308,3.185,3.185,11.445,
47671590,-0.918,0.15,0.315,6.195,3.552,12.285,
47671600,-0.922,0.161,0.317,7.63,4.165,13.002,
47671610,-0.931,0.168,0.314,7.245,4.375,13.825,
47671620,-0.951,0.172,0.307,5.477,3.412,14.42,
47671630,-0.98,0.179,0.299,2.45,0.122,13.965,
47671640,-0.975,0.175,0.288,-1.47,-5.6,12.827,
47671650,-0.944,0.166,0.272,-4.952,-9.432,11.812,
47671660,-0.914,0.159,0.255,-7.105,-10.237,11.252,
47671670,-0.894,0.148,0.241,-7.91,-7.052,11.147,
47671680,-0.901,0.142,0.232,-6.632,-2.275,11.532,
47671690,-0.904,0.152,0.233,-4.13,1.645,12.337,
47671700,-0.906,0.166,0.236,-2.817,3.272,13.475,
47671710,-0.923,0.168,0.242,-3.237,4.025,14.105,
47671720,-0.945,0.16,0.253,-3.745,3.115,14.07,
47671730,-0.985,0.158,0.272,-2.765,1.19,14.105,
47671740,-0.99,0.16,0.299,-0.875,-2.485,13.632,
47671750,-0.996,0.157,0.324,0.315,-4.532,12.985,
47671760,-1.024,0.155,0.345,1.732,-6.212,12.302,
47671760,-1.039,0.157,0.366,3.867,-7.437,12.32,
47671780,-1.079,0.196,0.375,6.16,-11.375,11.882,
47671780,-1.094,0.192,0.379,4.882,-20.86,8.54,
47671800,-1.074,0.165,0.358,0.752,-34.842,6.107,
47671800,-0.991,0.159,0.355,2.24,-47.565,6.072,
47671820,-0.939,0.146,0.358,5.862,-56.315,7.28,
47671820,-0.925,0.155,0.372,8.907,-60.725,8.645,
47671830,-0.896,0.172,0.377,8.505,-64.067,9.502,
47671840,-0.881,0.174,0.377,7.175,-65.397,9.1,
47671850,-0.821,0.177,0.369,5.022,-64.172,9.73,
47671860,-0.813,0.189,0.37,2.38,-56.997,11.585,
47671870,-0.798,0.196,0.363,0.42,-48.895,13.02,
47671880,-0.777,0.185,0.356,0.42,-40.11,14.682,
47671890,-0.761,0.195,0.363,1.505,-30.257,16.152,
47671900,-0.752,0.204,0.368,2.38,-21.052,17.832,
47671910,-0.726,0.222,0.364,0.63,-14.665,20.475,
47671920,-0.693,0.288,0.342,-4.427,-6.457,24.972,
47671930,-0.707,0.228,0.348,-7.822,7.035,30.992,
47671940,-0.775,0.223,0.37,-5.407,20.142,33.215,
47671950,-0.86,0.256,0.399,-4.112,25.9,37.047,
47671960,-0.936,0.275,0.427,-3.71,26.932,42.28,
47671970,-1.004,0.284,0.439,-1.82,27.457,41.72,
47671980,-1.096,0.319,0.45,-2.922,23.905,39.707,
47671990,-1.116,0.356,0.446,-7.49,19.687,37.327,
47672000,-1.145,0.365,0.423,-14.245,14.735,32.62,
47672010,-1.104,0.39,0.414,-23.012,10.465,28.122,
47672020,-1.064,0.4,0.401,-34.212,3.255,22.732,
47672030,-1.019,0.365,0.356,-45.832,-8.802,17.675,
47672040,-0.952,0.316,0.331,-52.307,-25.9,13.825,
47672050,-0.904,0.292,0.331,-53.83,-41.685,14.752,
47672060,-0.898,0.302,0.34,-53.077,-55.125,15.295,
47672070,-0.97,0.324,0.357,-56.07,-67.952,12.6,
47672080,-0.931,0.286,0.347,-61.407,-80.64,11.357,
47672090,-0.815,0.219,0.316,-59.675,-78.032,10.657,
47672100,-0.856,0.153,0.35,-49.98,-58.292,12.337,
47672110,-0.797,0.128,0.372,-36.435,-37.782,15.697,
47672120,-0.931,0.282,0.493,-19.6,-18.847,14.21,
47672130,-0.851,0.227,0.498,-17.64,-17.01,17.185,
47672140,-0.787,0.206,0.477,-19.845,-17.727,17.097,
47672150,-0.792,0.203,0.455,-19.442,-13.667,15.82,
47672160,-0.827,0.2,0.448,-15.26,-11.9,15.33,
47672170,-0.82,0.212,0.444,-8.767,-12.18,15.837,
47672170,-0.794,0.223,0.446,-2.555,-10.675,15.312,
47672190,-0.813,0.241,0.456,1.662,-4.935,15.19,
47672190,-0.859,0.254,0.454,4.165,-0.455,16.222,
47672210,-0.9,0.28,0.452,6.387,0.14,17.22,
47672210,-0.9,0.284,0.446,7.542,-2.45,16.852,
47672230,-0.896,0.282,0.448,6.947,-3.99,14.84,
47672230,-0.904,0.286,0.455,5.145,-4.742,12.617,
47672250,-0.893,0.272,0.458,2.975,-5.495,10.937,
47672250,-0.884,0.273,0.465,1.137,-5.705,8.942,
47672260,-0.874,0.278,0.464,-0.385,-5.67,6.65,
47672270,-0.861,0.287,0.469,-0.472,-5.967,5.775,
47672280,-0.832,0.269,0.453,0.297,-5.372,4.375,
47672290,-0.817,0.295,0.462,2.24,-4.112,1.452,
47672300,-0.818,0.302,0.466,4.707,-3.675,0.892,
47672310,-0.827,0.314,0.455,7.805,-3.64,-0.77,
47672320,-0.825,0.3,0.444,9.117,-5.215,-3.237,
47672330,-0.81,0.268,0.454,9.905,-7.245,-3.657,
47672340,-0.79,0.269,0.481,9.415,-7.035,-1.872,
47672350,-0.762,0.253,0.473,5.477,-3.062,1.225,
47672360,-0.739,0.218,0.457,2.817,4.725,4.707,
47672370,-0.779,0.215,0.457,2.345,14.717,5.862,
47672380,-0.902,0.245,0.453,3.482,18.06,8.05,
47672390,-0.998,0.309,0.424,2.397,11.69,7.14,
47672400,-1.089,0.354,0.39,-0.455,-2.24,3.43,
47672410,-1.103,0.367,0.371,-6.685,-21.175,-1.61,
47672420,-1.043,0.322,0.38,-10.832,-40.232,-7.525,
47672430,-0.93,0.242,0.417,-11.217,-53.445,-10.185,
47672440,-0.807,0.183,0.459,-5.915,-56.402,-7.91,
47672450,-0.705,0.183,0.5,3.062,-49.262,-3.587,
47672460,-0.71,0.205,0.534,7.227,-38.692,0.7,
47672470,-0.76,0.244,0.555,8.802,-26.67,5.25,
47672480,-0.79,0.29,0.553,8.61,-17.885,6.79,
47672490,-0.813,0.32,0.534,6.737,-11.025,4.217,
47672500,-0.837,0.337,0.51,4.76,-9.432,0.49,
47672510,-0.842,0.35,0.493,2.117,-10.482,-2.677,
47672510,-0.846,0.342,0.483,-0.28,-14.07,-6.3,
47672530,-0.87,0.307,0.471,-1.855,-18.025,-9.695,
47672530,-0.868,0.315,0.492,-2.38,-20.877,-14.035,
47672550,-0.896,0.28,0.471,-1.942,-25.357,-16.135,
47672550,-0.868,0.269,0.475,1.382,-27.947,-19.687,
47672570,-0.836,0.257,0.482,4.637,-25.445,-21.665,
47672570,-0.808,0.237,0.478,7.385,-22.417,-21.612,
47672580,-0.765,0.237,0.508,10.185,-17.867,-19.775,
47672590,-0.76,0.238,0.549,10.675,-13.177,-16.677,
47672600,-0.752,0.248,0.579,7.735,-10.167,-11.445,
47672610,-0.734,0.254,0.593,2.555,-6.79,-5.53,
47672620,-0.724,0.255,0.595,-1.82,-0.56,-1.522,
47672630,-0.699,0.274,0.593,-5.022,7.542,0.665,
47672640,-0.731,0.292,0.581,-8.085,14.77,4.585,
47672650,-0.733,0.299,0.545,-11.515,19.25,9.415,
47672660,-0.741,0.31,0.549,-12.67,24.972,11.147,
47672670,-0.83,0.318,0.528,-15.575,34.615,9.012,
47672680,-0.878,0.267,0.483,-16.572,31.22,4.48,
47672690,-0.838,0.265,0.451,-9.502,25.13,2.555,
47672700,-0.891,0.305,0.447,-2.327,18.112,0.805,
47672710,-0.892,0.276,0.436,-0.315,8.312,-2.485,
47672720,-0.891,0.244,0.438,3.045,-0.927,-3.657,
47672730,-0.885,0.249,0.451,7.612,-6.877,-3.045,
47672740,-0.887,0.251,0.464,8.662,-10.832,-3.762,
47672750,-0.919,0.227,0.451,9.047,-15.452,-4.235,
47672760,-0.902,0.215,0.415,14.035,-27.37,-6.492,
47672770,-0.818,0.269,0.463,21.997,-41.527,-9.012,
47672780,-0.858,0.31,0.525,23.047,-41.527,-7.962,
47672790,-0.858,0.319,0.582,13.125,-36.855,-6.142,
47672800,-0.788,0.28,0.561,-2.03,-30.502,-4.725,
47672810,-0.808,0.17,0.553,-6.09,-21.122,-1.732,
47672820,-0.717,0.196,0.556,-5.127,-16.362,1.155,
47672830,-0.753,0.2,0.537,-3.727,-9.135,4.287,
47672840,-0.792,0.238,0.526,-0.297,-3.955,6.457,
47672850,-0.817,0.291,0.529,1.085,-0.087,7.14,
47672860,-0.812,0.313,0.537,-0.927,3.132,5.512,
47672870,-0.78,0.266,0.582,-4.497,7.595,4.497,
47672880,-0.772,0.24,0.534,-3.43,16.31,5.775,
47672890,-0.752,0.276,0.524,-2.765,18.725,5.985,
47672900,-0.799,0.256,0.501,-4.725,18.427,6.16,
47672910,-0.824,0.268,0.5,-2.082,18.48,7.21,
47672920,-0.862,0.282,0.476,-0.315,16.502,7.682,
47672920,-0.839,0.296,0.472,-0.42,11.34,5.285,
47672940,-0.89,0.293,0.473,0.49,6.93,3.622,
47672940,-0.858,0.288,0.469,1.277,-0.087,1.645,
47672960,-0.859,0.289,0.5,1.627,-5.705,-0.157,
47672960,-0.859,0.271,0.504,1.575,-7.997,-2.1,
47672980,-0.838,0.265,0.501,2.607,-9.065,-3.71,
47672980,-0.843,0.249,0.484,4.13,-10.22,-4.602,
47673000,-0.894,0.246,0.423,6.895,-16.502,-5.495,
47673000,-0.813,0.287,0.494,11.707,-28.787,-9.205,
47673010,-0.864,0.31,0.554,12.075,-26.25,-9.572,
47673020,-0.827,0.266,0.536,6.825,-21.49,-9.187,
47673030,-0.776,0.248,0.542,1.505,-17.465,-5.932,
47673040,-0.786,0.216,0.532,-0.98,-11.935,-2.887,
47673050,-0.746,0.233,0.552,0.052,-7.647,-0.682,
47673060,-0.764,0.256,0.546,-0.332,-1.96,2.59,
47673070,-0.782,0.281,0.533,-2.747,3.15,4.445,
47673080,-0.802,0.309,0.541,-6.142,7.332,5.355,
47673090,-0.801,0.313,0.545,-10.78,11.48,5.145,
47673100,-0.787,0.289,0.547,-14.262,15.032,4.357,
47673110,-0.747,0.282,0.567,-16.257,23.747,4.987,
47673120,-0.801,0.209,0.514,-19.74,35.332,6.58,
47673130,-0.779,0.16,0.449,-17.867,34.982,6.492,
47673140,-0.754,0.212,0.444,-5.897,32.375,9.73,
47673150,-0.882,0.256,0.429,1.522,28.822,11.62,
47673160,-0.887,0.281,0.44,5.67,18.602,8.505,
47673170,-0.935,0.34,0.48,9.87,11.742,5.687,
47673180,-0.957,0.329,0.482,6.125,5.04,0.805,
47673190,-0.935,0.289,0.462,2.257,-0.402,-2.817,
47673200,-0.902,0.251,0.452,3.062,-7.7,-5.39,
47673210,-0.859,0.186,0.415,7.455,-18.935,-8.032,
47673220,-0.753,0.336,0.502,18.357,-26.845,-10.517,
47673230,-0.916,0.345,0.525,12.547,-21.315,-10.01,
47673240,-0.842,0.251,0.481,0.525,-20.3,-7.84,
47673250,-0.801,0.258,0.515,-0.612,-20.65,-5.092,
47673260,-0.807,0.264,0.564,-3.377,-15.032,-2.695,
47673260,-0.736,0.223,0.552,-5.705,-6.702,-1.54,
47673280,-0.725,0.243,0.549,-4.637,2.782,1.137,
47673280,-0.767,0.267,0.528,-6.002,11.602,3.657,
47673300,-0.8,0.285,0.515,-6.247,17.132,4.865,
47673300,-0.826,0.299,0.504,-7.717,20.755,5.162,
47673320,-0.808,0.34,0.49,-9.712,23.065,3.692,
47673320,-0.932,0.357,0.498,-18.427,27.877,2.66,
47673330,-0.899,0.183,0.446,-25.235,22.505,-0.612,
47673340,-0.787,0.176,0.438,-13.615,16.362,-0.7,
47673350,-0.852,0.238,0.443,-3.482,13.527,1.295,
47673360,-0.897,0.249,0.436,-1.312,8.522,0.787,
47673370,-0.909,0.239,0.428,2.012,2.345,-0.752,
47673380,-0.912,0.241,0.416,4.97,-4.025,-1.155,
47673390,-0.93,0.238,0.414,7.595,-12.285,-1.89,
47673400,-0.932,0.256,0.436,10.062,-20.842,-2.222,
47673410,-0.93,0.235,0.454,10.15,-29.435,-3.867,
47673420,-0.768,0.252,0.492,14.787,-38.447,-7.577,
47673430,-0.777,0.369,0.563,15.067,-34.405,-6.685,
47673440,-0.833,0.324,0.55,0.752,-24.272,-5.197,
47673450,-0.776,0.206,0.512,-6.055,-15.61,-4.392,
47673460,-0.724,0.223,0.527,-2.52,-7.525,-1.732,
47673470,-0.787,0.267,0.573,-2.047,2.415,0.682,
47673480,-0.79,0.26,0.539,-4.235,3.325,3.412,
47673490,-0.784,0.274,0.522,-6.457,9.905,3.762,
47673500,-0.823,0.277,0.497,-9.712,14.262,4.515,
47673510,-0.848,0.278,0.478,-10.517,15.382,4.252,
47673520,-0.878,0.324,0.47,-12.11,14.507,4.095,
47673530,-0.932,0.255,0.459,-17.395,10.797,2.607,
47673540,-0.829,0.221,0.466,-14.63,4.06,0.087,
47673550,-0.859,0.209,0.466,-8.995,1.75,0.262,
47673560,-0.807,0.216,0.461,-3.64,-1.33,-0.577,
47673570,-0.866,0.227,0.464,1.627,-1.627,0.525,
47673580,-0.862,0.245,0.461,3.43,-4.287,0.98,
47673590,-0.888,0.26,0.471,4.62,-6.982,0.63,
47673600,-0.883,0.261,0.469,3.08,-11.077,-0.105,
47673610,-0.871,0.25,0.476,3.01,-14.105,-1.627,
47673620,-0.86,0.253,0.484,3.57,-16.537,-2.905,
47673630,-0.864,0.257,0.484,3.815,-17.622,-3.587,
47673640,-0.851,0.246,0.478,3.43,-19.075,-4.34,
47673650,-0.829,0.181,0.432,4.06,-18.217,-5.705,
47673660,-0.777,0.271,0.504,12.372,-14.857,-9.082,
47673670,-0.89,0.335,0.565,11.095,-13.895,-6.177,
47673670,-0.783,0.248,0.526,0.7,-9.59,-6.02,
47673690,-0.713,0.216,0.523,-2.31,2.73,-4.55,
47673690,-0.876,0.264,0.583,-4.795,11.077,-1.487,
47673710,-0.758,0.23,0.561,-9.59,4.602,2.765,
47673710,-0.702,0.218,0.535,-9.555,12.092,5.985,
47673730,-0.833,0.284,0.526,-11.305,20.947,6.632,
47673730,-0.831,0.271,0.496,-12.145,20.842,8.802,
47673740,-0.823,0.313,0.504,-12.547,21.385,8.592,
47673750,-0.901,0.3,0.501,-18.077,27.545,7.647,
47673760,-0.924,0.223,0.432,-21.245,24.325,4.445,
47673770,-0.765,0.207,0.41,-11.952,14.315,2.467,
47673780,-0.893,0.27,0.43,-1.575,12.46,3.587,
47673790,-0.91,0.234,0.4,0.192,3.202,0.805,
47673800,-0.897,0.255,0.437,5.897,-5.967,-0.927,
47673810,-0.919,0.262,0.456,5.512,-11.55,-1.207,
47673820,-0.88,0.219,0.455,4.147,-16.222,-2.817,
47673830,-0.863,0.234,0.478,6.142,-17.745,-3.062,
47673840,-0.87,0.241,0.484,4.55,-19.127,-2.887,
47673850,-0.862,0.224,0.481,3.097,-20.667,-3.01,
47673860,-0.864,0.207,0.443,5.6,-25.48,-3.675,
47673870,-0.749,0.277,0.515,10.587,-28.822,-4.13,
47673880,-0.899,0.292,0.511,7.945,-23.835,-2.1,
47673890,-0.802,0.267,0.541,1.627,-22.295,-2.992,
47673900,-0.84,0.237,0.548,-3.272,-15.067,-1.067,
47673910,-0.744,0.224,0.532,-4.795,-9.152,0.542,
47673920,-0.737,0.239,0.546,-4.865,-3.447,2.957,
47673930,-0.743,0.253,0.55,-6.02,5.32,5.46,
47673940,-0.792,0.274,0.531,-7.017,13.51,7.752,
47673950,-0.838,0.289,0.501,-8.592,18.235,7.91,
47673960,-0.815,0.294,0.505,-9.415,18.847,6.247,
47673970,-0.924,0.283,0.496,-13.177,22.802,7.822,
47673980,-0.907,0.202,0.428,-14.315,16.52,5.53,
47673990,-0.802,0.206,0.439,-6.125,8.435,2.975,
47674000,-0.88,0.264,0.466,0.875,5.95,2.1,
47674010,-0.882,0.253,0.447,1.242,2.24,0.245,
47674010,-0.873,0.243,0.451,1.487,-2.485,-1.417,
47674030,-0.877,0.236,0.465,0.647,-4.83,-1.155,
47674030,-0.861,0.225,0.474,0.245,-6.947,-0.402,
47674050,-0.848,0.232,0.483,1.452,-8.33,-0.175,
47674050,-0.849,0.245,0.494,2.1,-9.065,-0.402,
47674070,-0.851,0.25,0.495,1.557,-8.662,-0.787,
47674070,-0.851,0.249,0.482,1.26,-8.295,-1.382,
47674080,-0.86,0.251,0.47,1.47,-9.345,-2.187,
47674090,-0.859,0.245,0.472,1.82,-12.092,-3.237,
47674100,-0.865,0.24,0.48,2.17,-14.98,-3.937,
47674110,-0.887,0.251,0.433,3.745,-20.772,-6.055,
47674120,-0.814,0.296,0.54,5.285,-28.175,-9.1,
47674130,-0.907,0.269,0.558,1.312,-21.052,-6.947,
47674140,-0.782,0.237,0.527,-0.245,-17.15,-7.087,
47674150,-0.766,0.218,0.521,-1.89,-13.51,-5.757,
47674160,-0.765,0.201,0.519,-1.067,-8.225,-3.132,
47674170,-0.764,0.226,0.527,1.417,-2.59,0.91,
47674180,-0.811,0.264,0.531,-0.332,3.78,2.957,
47674190,-0.84,0.257,0.512,-3.167,7.997,2.887,
47674200,-0.842,0.265,0.498,-4.34,9.135,3.167,
47674210,-0.827,0.261,0.503,-5.18,8.82,3.185,
47674220,-0.774,0.226,0.567,-5.81,11.462,3.99,
47674230,-0.823,0.217,0.525,-6.772,21.857,7.84,
47674240,-0.793,0.218,0.44,-8.137,20.545,7.647,
47674250,-0.795,0.224,0.462,-6.125,17.412,6.947,
47674260,-0.918,0.24,0.458,-0.997,16.467,8.767,
47674270,-0.879,0.268,0.44,1.242,9.782,7.192,
47674280,-0.924,0.269,0.435,2.24,3.745,3.71,
47674290,-0.912,0.261,0.445,3.71,-3.482,0.21,
47674300,-0.896,0.247,0.456,3.885,-10.045,-0.892,
47674310,-0.879,0.227,0.465,4.602,-13.702,-1.89,
47674320,-0.851,0.207,0.462,6.545,-16.047,-2.012,
47674330,-0.85,0.2,0.472,9.905,-16.922,-1.155,
47674340,-0.823,0.183,0.476,14.332,-22.487,-1.977,
47674350,-0.757,0.296,0.533,20.02,-22.4,-2.135,
47674360,-0.897,0.329,0.543,13.562,-14.42,-0.49,
47674370,-0.877,0.236,0.487,4.882,-13.895,-1.942,
47674380,-0.805,0.269,0.51,7.087,-14.087,-1.977,
47674390,-0.872,0.276,0.506,3.657,-11.095,-0.07,
47674400,-0.81,0.255,0.511,-0.297,-12.057,-0.42,
47674410,-0.796,0.269,0.543,-1.715,-8.015,0.647,
47674420,-0.772,0.278,0.551,-5.687,-1.872,0.752,
47674420,-0.782,0.283,0.553,-8.4,5.95,0.612,
47674430,-0.763,0.315,0.557,-11.882,14.84,1.697,
47674440,-0.913,0.273,0.526,-20.317,24.535,3.745,
47674450,-0.844,0.177,0.457,-21.192,19.967,0.927,
47674460,-0.823,0.224,0.446,-12.232,15.295,1.505,
47674470,-0.843,0.236,0.414,-7.227,9.852,1.452,
47674480,-0.822,0.258,0.442,-1.68,3.902,1.12,
47674490,-0.9,0.264,0.448,0.192,0.577,1.015,
47674500,-0.864,0.258,0.477,-0.297,-5.74,-0.7,
47674510,-0.879,0.245,0.496,-0.892,-8.137,-1.382,
47674520,-0.856,0.23,0.496,-1.522,-9.712,-2.047,
47674530,-0.855,0.224,0.49,-1.575,-10.465,-2.292,
47674540,-0.87,0.237,0.488,-1.12,-12.057,-1.977,
47674550,-0.835,0.212,0.462,-0.682,-14.017,-1.96,
47674560,-0.902,0.244,0.443,0.21,-15.26,-2.765,
47674570,-0.865,0.278,0.443,1.61,-25.2,-5.792,
47674580,-0.872,0.298,0.532,0.21,-31.43,-8.277,
47674590,-0.893,0.281,0.552,-3.902,-27.422,-9.012,
47674600,-0.831,0.239,0.561,-7.525,-25.62,-10.412,
47674610,-0.792,0.197,0.519,-8.785,-22.207,-8.26,
47674620,-0.743,0.204,0.544,-5.285,-20.475,-6.125,
47674630,-0.725,0.154,0.534,-4.847,-12.495,-2.572,
47674640,-0.804,0.187,0.52,-2.205,-3.395,-0.56,
47674650,-0.835,0.185,0.487,-0.122,0.227,1.557,
47674660,-0.86,0.218,0.476,1.802,-1.627,3.552,
47674670,-0.884,0.239,0.501,2.065,-4.06,4.812,
47674680,-0.877,0.243,0.521,1.382,-6.335,4.602,
47674690,-0.834,0.192,0.574,1.365,-7.332,3.255,
47674700,-0.718,0.217,0.558,5.67,-2.362,2.45,
47674710,-0.753,0.246,0.533,5.355,6.177,3.57,
47674720,-0.784,0.238,0.501,1.015,9.31,4.007,
47674730,-0.798,0.264,0.534,3.517,10.535,6.405,
47674740,-0.852,0.297,0.513,3.342,12.04,7.91,
47674750,-0.82,0.296,0.515,-1.137,10.377,4.83,
47674760,-0.849,0.259,0.503,-3.062,10.08,4.182,
47674760,-0.835,0.288,0.49,-2.502,8.19,3.71,
47674780,-0.848,0.277,0.493,-3.78,4.917,1.802,
47674780,-0.857,0.278,0.482,-3.01,1.645,0.21,
47674800,-0.866,0.302,0.491,-3.22,-4.97,-1.155,
47674800,-0.831,0.249,0.484,-4.795,-10.517,-1.645,
47674820,-0.842,0.22,0.486,-3.412,-12.197,-1.47,
47674820,-0.837,0.169,0.465,0.227,-14.402,-0.297,
47674830,-0.821,0.149,0.43,7.63,-15.925,0.962,
47674840,-0.834,0.213,0.454,14.717,-19.145,0.035,
47674850,-0.907,0.24,0.512,15.557,-23.345,-1.085,
47674860,-0.862,0.263,0.568,14.577,-24.5,-1.662,
47674870,-0.88,0.219,0.597,9.152,-18.83,-1.995,
47674880,-0.812,0.184,0.547,7.28,-11.462,-0.157,
47674890,-0.777,0.184,0.522,9.502,-7.787,2.292,
47674900,-0.797,0.214,0.521,9.292,-5.057,5.582,
47674910,-0.823,0.253,0.521,9.117,-2.065,7.227,
47674920,-0.854,0.288,0.514,5.617,0,7.105,
47674930,-0.812,0.227,0.551,0.822,3.517,4.952,
47674940,-0.737,0.225,0.564,3.08,15.802,4.2,
47674950,-0.798,0.28,0.566,2.485,22.032,6.807,
47674960,-0.783,0.235,0.494,-3.867,16.887,10.027,
47674970,-0.766,0.268,0.471,-2.817,12.337,12.425,
47674980,-0.822,0.321,0.478,2.38,8.242,10.955,
47674990,-0.826,0.351,0.473,3.937,3.727,8.26,
47675000,-0.854,0.362,0.507,-0.84,-0.612,3.29,
47675010,-0.848,0.311,0.542,-6.002,-1.54,-1.05,
47675020,-0.83,0.275,0.54,-8.12,-1.872,-2.292,
47675030,-0.805,0.244,0.511,-7.805,-1.347,-2.782,
47675040,-0.804,0.266,0.47,-7.402,-1.05,-2.975,
47675050,-0.88,0.241,0.474,-9.38,-3.727,-3.535,
47675060,-0.865,0.206,0.433,-5.232,-9.695,-3.01,
47675070,-0.878,0.273,0.461,1.295,-13.317,-3.867,
47675080,-0.879,0.232,0.511,0.875,-17.185,-3.78,
47675090,-0.895,0.237,0.588,-0.122,-14.315,-5.547,
47675100,-0.859,0.204,0.574,-0.49,-7.315,-4.812,
47675100,-0.779,0.218,0.555,-1.277,-2.87,-4.392,
47675120,-0.773,0.203,0.527,-3.43,3.727,-3.657,
47675120,-0.768,0.219,0.498,-2.397,9.905,-1.977,
47675140,-0.801,0.261,0.495,-1.715,15.05,0.56,
47675140,-0.82,0.247,0.549,-3.867,20.282,0.297,
47675160,-0.792,0.235,0.606,-4.147,27.212,-1.522,
47675160,-0.757,0.278,0.623,-4.9,37.73,-0.63,
47675170,-0.833,0.285,0.584,-16.8,42.735,-0.437,
47675180,-0.821,0.204,0.483,-24.57,39.252,0.402,
47675190,-0.835,0.181,0.388,-18.672,33.32,3.972,
47675200,-0.827,0.25,0.331,-8.347,24.36,5.267,
47675210,-0.849,0.285,0.329,-1.33,15.942,6.387,
47675220,-0.916,0.272,0.34,1.995,7.84,5.722,
47675230,-0.949,0.303,0.454,3.85,-1.312,4.462,
47675240,-0.944,0.3,0.526,2.432,-6.3,1.75,
47675250,-0.902,0.274,0.531,-1.417,-7.035,-1.505,
47675260,-0.85,0.233,0.495,-3.762,-7.77,-3.727,
47675270,-0.798,0.212,0.475,-2.222,-7.595,-3.692,
47675280,-0.826,0.211,0.444,-0.385,-7.875,-2.292,
47675290,-0.826,0.247,0.377,3.202,-17.342,-2.87,
47675300,-0.791,0.268,0.447,7.84,-23.572,-3.57,
47675310,-0.935,0.27,0.487,7.752,-17.902,-4.602,
47675320,-0.957,0.251,0.517,4.585,-18.812,-3.902,
47675330,-0.917,0.256,0.527,2.117,-19.652,-4.62,
47675340,-0.851,0.194,0.528,-0.91,-18.147,-5.897,
47675350,-0.788,0.178,0.526,-0.525,-12.425,-4.865,
47675360,-0.759,0.198,0.509,-0.087,-6.527,-2.397,
47675370,-0.783,0.208,0.476,-0.595,-0.21,0.017,
47675380,-0.836,0.243,0.452,0.367,2.975,2.327,
47675390,-0.882,0.276,0.47,-0.122,5.845,2.432,
47675400,-0.902,0.207,0.54,-0.717,6.562,1.82,
47675410,-0.843,0.203,0.54,5.302,11.322,2.59,
47675420,-0.833,0.264,0.511,5.372,10.92,2.555,
47675430,-0.764,0.195,0.457,-2.362,7.91,2.327,
47675440,-0.737,0.226,0.462,-1.172,8.172,4.987,
47675450,-0.798,0.27,0.475,-1.575,11.27,7.525,
47675460,-0.843,0.265,0.469,-2.275,12.285,7.647,
47675470,-0.865,0.286,0.459,-0.245,9.625,7.752,
47675480,-0.879,0.305,0.474,-0.332,5.127,6.02,
47675490,-0.91,0.308,0.513,-2.362,1.627,3.692,
47675500,-0.898,0.312,0.521,-4.305,-1.732,1.575,
47675510,-0.871,0.283,0.495,-7.21,-4.952,-0.752,
47675510,-0.838,0.267,0.433,-6.965,-7.437,-2.415,
47675530,-0.852,0.272,0.395,-6.317,-9.047,-3.29,
47675530,-0.909,0.221,0.372,-5.967,-16.065,-3.867,
47675550,-0.861,0.219,0.416,0.805,-24.272,-4.235,
47675550,-0.904,0.192,0.478,6.492,-24.395,-4.147,
47675570,-0.884,0.23,0.522,6.177,-22.137,-2.975,
47675570,-0.9,0.182,0.545,2.38,-18.112,-3.43,
47675580,-0.823,0.155,0.527,1.085,-14.122,-3.885,
47675590,-0.777,0.167,0.51,-0.105,-9.992,-2.152,
47675600,-0.796,0.161,0.459,-0.472,-3.377,0.017,
47675610,-0.867,0.216,0.44,2.607,0,2.677,
47675620,-0.878,0.264,0.44,2.922,-1.907,3.727,
47675630,-0.899,0.241,0.504,0.402,-4.742,3.482,
47675640,-0.789,0.232,0.549,0.612,-4.97,3.115,
47675650,-0.76,0.273,0.584,-2.065,2.257,4.567,
47675660,-0.746,0.255,0.566,-12.022,7.997,5.547,
47675670,-0.726,0.234,0.545,-16.887,13.982,6.545,
47675680,-0.751,0.243,0.497,-16.082,18.795,10.08,
47675690,-0.819,0.275,0.449,-12.092,20.475,12.127,
47675700,-0.87,0.286,0.419,-6.685,16.66,10.657,
47675710,-0.925,0.325,0.437,-1.435,11.9,8.522,
47675720,-0.945,0.341,0.481,-0.997,4.777,4.427,
47675730,-0.928,0.32,0.507,-4.357,-1.767,-0.332,
47675740,-0.849,0.31,0.455,-7.105,-7.175,-3.08,
47675750,-0.907,0.276,0.463,-10.237,-9.275,-5.267,
47675760,-0.864,0.231,0.448,-7.752,-13.667,-6.107,
47675770,-0.839,0.243,0.474,-1.452,-14.665,-7.315,
47675780,-0.885,0.19,0.472,-0.717,-12.775,-7.227,
47675790,-0.876,0.148,0.465,-0.21,-13.772,-6.632,
47675800,-0.871,0.13,0.478,2.555,-15.802,-6.632,
47675810,-0.883,0.131,0.466,4.69,-16.38,-5.25,
47675820,-0.866,0.134,0.444,8.207,-19.722,-3.29,
47675830,-0.845,0.188,0.463,12.985,-22.12,-1.032,
47675830,-0.856,0.212,0.469,13.58,-22.015,0.525,
47675850,-0.848,0.249,0.498,12.39,-21.595,1.067,
47675850,-0.833,0.278,0.527,8.19,-18.48,0.892,
47675870,-0.848,0.254,0.541,0.612,-13.562,-0.542,
47675870,-0.807,0.259,0.562,-3.64,-11.322,-1.172,
47675890,-0.786,0.291,0.584,-7.262,-7.122,-1.172,
47675890,-0.777,0.288,0.561,-13.195,-2.415,-1.4,
47675910,-0.741,0.269,0.525,-14.717,1.312,-0.14,
47675910,-0.718,0.253,0.519,-12.95,5.547,3.045,
47675920,-0.794,0.219,0.478,-9.747,9.8,5.897,
47675930,-0.794,0.241,0.48,-3.307,7.437,6.037,
47675940,-0.85,0.294,0.519,1.89,6.405,4.9,
47675950,-0.858,0.295,0.522,1.19,5.267,1.697,
47675960,-0.861,0.296,0.53,-1.172,3.71,-0.945,
47675970,-0.857,0.27,0.517,-4.322,0.21,-2.03,
47675980,-0.841,0.221,0.491,-6.09,0.017,-3.517,
47675990,-0.874,0.206,0.462,-2.905,-0.385,-4.165,
47676000,-0.893,0.226,0.43,1.085,-3.167,-5.04,
47676010,-0.985,0.219,0.435,0.28,-8.277,-6.072,
47676020,-0.942,0.174,0.429,1.54,-19.687,-6.65,
47676030,-0.871,0.195,0.452,6.562,-26.582,-9.03,
47676040,-0.86,0.201,0.526,6.125,-28.087,-9.695,
47676050,-0.864,0.134,0.49,4.725,-24.15,-7.525,
47676060,-0.774,0.176,0.506,9.887,-24.64,-5.792,
47676070,-0.834,0.204,0.529,10.5,-18.725,-4.077,
47676080,-0.806,0.228,0.542,9.747,-18.322,-2.712,
47676090,-0.76,0.233,0.55,7.052,-14.507,-0.035,
47676100,-0.815,0.259,0.554,1.207,-7.192,1.067,
47676110,-0.759,0.239,0.564,-3.15,-4.357,2.415,
47676120,-0.759,0.264,0.582,-7.297,-0.91,5.145,
47676130,-0.746,0.247,0.583,-14.122,3.902,8.452,
47676140,-0.714,0.217,0.575,-16.065,9.975,10.15,
47676150,-0.765,0.242,0.57,-15.54,17.43,12.792,
47676160,-0.797,0.298,0.57,-17.202,25.27,13.457,
47676170,-0.861,0.277,0.547,-23.73,31.902,12.897,
47676180,-0.868,0.254,0.512,-28.157,32.13,11.042,
47676190,-0.873,0.203,0.434,-26.722,29.82,9.362,
47676200,-0.806,0.194,0.421,-17.255,23.17,8.155,
47676210,-0.855,0.226,0.427,-6.265,19.127,7.105,
47676220,-0.926,0.259,0.438,0.98,14.402,3.797,
47676230,-0.972,0.273,0.448,4.077,6.405,0.682,
47676240,-0.965,0.252,0.451,2.555,-2.152,-2.835,
47676250,-0.934,0.215,0.455,0.7,-9.24,-5.81,
47676260,-0.892,0.173,0.45,2.03,-14.875,-7.262,
47676260,-0.843,0.128,0.441,8.662,-20.457,-7.962,
47676280,-0.768,0.17,0.473,20.947,-23.52,-8.172,
47676280,-0.838,0.232,0.511,26.757,-18.62,-6.685,
47676300,-0.873,0.252,0.495,24.92,-19.005,-6.457,
47676300,-0.828,0.26,0.505,23.187,-18.935,-6.177,
47676320,-0.862,0.28,0.535,16.502,-16.817,-4.917,
47676320,-0.803,0.262,0.543,6.772,-17.482,-2.607,
47676330,-0.814,0.25,0.572,-1.207,-12.722,-0.63,
47676340,-0.745,0.215,0.57,-7.892,-10.237,1.89,
47676350,-0.718,0.218,0.575,-11.13,-2.362,5.792,
47676360,-0.743,0.222,0.551,-14.262,6.002,9.817,
47676370,-0.757,0.224,0.536,-13.405,14.157,11.025,
47676380,-0.792,0.261,0.526,-10.622,20.247,11.532,
47676390,-0.863,0.355,0.544,-12.565,26.075,11.9,
47676400,-0.946,0.278,0.506,-23.59,26.022,9.642,
47676410,-0.855,0.194,0.46,-24.115,19.285,6.23,
47676420,-0.809,0.192,0.453,-14.822,16.257,5.652,
47676430,-0.872,0.164,0.413,-8.54,12.582,5.162,
