#Format version: 1.0
time[ms],accX[g],accY[g],accZ[g],Value 1,Value 2,Value 3,
61023480,0.224,-0.024,1.478,-71.172,-14.507,26.04,
61023490,0.268,-0.131,1.337,-136.867,-20.177,20.615,
61023500,0.32,-0.196,1.137,-186.795,-22.155,22.365,
61023510,0.267,-0.366,0.962,-221.9,-25.462,28.07,
61023510,0.276,-0.431,0.855,-244.895,-33.005,35.805,
61023530,0.392,-0.523,0.899,-261.222,-46.13,43.872,
61023530,0.619,-0.722,0.956,-281.295,-48.65,54.757,
61023550,0.863,-1.203,1.137,-278.337,-29.33,58.327,
61023550,1.024,-1.716,1.324,-239.295,32.427,57.557,
61023570,0.465,-1.509,0.936,-167.3,93.66,42.297,
61023570,0.209,-1.65,0.781,-97.912,100.87,5.95,
61023580,-0.755,-1.623,1.445,-38.395,151.847,26.442,
61023590,-0.749,-1.423,0.685,67.06,148.907,49.262,
61023600,-1.834,-0.878,0.913,165.83,52.797,51.642,
61023610,-1.173,-0.303,0.04,237.037,-72.94,98.385,
61023620,0.144,-0.006,-0.227,221.427,-76.702,166.145,
61023630,0.415,0.383,-0.668,210.367,-83.265,160.475,
61023640,0.46,0.887,-0.722,178.08,-31.605,133.682,
61023650,0.391,0.913,-0.523,93.922,38.605,110.915,
61023660,0.221,0.596,-0.211,16.047,69.055,82.897,
61023670,0.18,0.344,0.016,-28.84,62.72,41.562,
61023680,0.122,0.234,0.136,-41.107,36.277,-3.132,
61023690,-0.216,-0.162,0.219,-32.217,10.692,-19.232,
61023700,-0.175,0.199,-0.13,0.35,7.21,54.81,
61023710,0.794,-0.323,-1.516,44.432,29.277,-80.692,
61023720,1.231,-1.502,-0.235,-16.537,180.565,-136.587,
61023730,-1.756,-1.998,1.715,-54.687,-97.965,-269.447,
61023740,-0.51,-1.407,-1.997,276.412,-314.387,-420.105,
61023750,1.557,1.997,0.885,406.227,-1.417,-267.4,
61023760,1.425,1.854,1.359,275.275,24.535,-182.21,
61023770,0.725,-1.107,1.272,310.345,51.747,-103.075,
61023780,1.961,0.015,1.068,363.177,96.897,29.592,
61023790,0.279,0.721,1.791,289.065,117.74,106.417,
61023800,-0.706,-0.03,1.818,189.682,84.385,135.502,
61023810,-0.985,0.293,1.754,76.755,29.907,87.902,
61023820,-0.391,0.015,1.474,-16.362,-15.89,33.915,
61023830,-0.109,-0.083,1.37,-80.552,-50.4,7.63,
61023840,0.353,-0.118,1.25,-130.707,-72.345,-6.317,
61023850,0.62,-0.295,1.096,-172.9,-74.935,-5.757,
61023860,0.585,-0.37,1.084,-200.865,-59.937,3.15,
61023870,0.527,-0.312,1.169,-223.982,-49.542,16.31,
61023880,0.487,-0.23,1.084,-251.09,-46.217,36.295,
61023890,0.497,-0.222,1.004,-283.202,-55.072,61.46,
61023890,0.613,-0.13,1.135,-323.067,-67.252,94.29,
61023910,0.818,-0.58,1.191,-360.867,-69.037,130.34,
61023910,0.964,-1.708,1.551,-372.925,-50.592,165.515,
61023920,0.431,-1.998,1.847,-342.405,-55.107,161.735,
61023930,0,-1.998,1.19,-253.26,-121.537,107.887,
61023940,-1.013,-1.924,0.58,-134.89,-112.28,100.152,
61023950,-0.251,-1.82,0.545,-2.327,-56.262,119.035,
61023960,0.04,-1.058,-0.133,153.86,-63.525,95.987,
61023970,0.556,-0.479,-0.509,204.015,-28.052,83.37,
61023980,0.497,0.048,-0.821,183.155,-11.602,60.095,
61023990,-0.045,0.452,-0.877,154.105,-21.087,30.1,
61024000,-0.063,0.534,-0.679,69.457,-42.822,16.012,
61024010,0.111,0.292,-0.441,-15.277,-62.947,7.21,
61024020,0.078,0.063,-0.164,-57.592,-67.165,-5.74,
61024030,-0.065,-0.119,0.029,-72.047,-60.217,-21.805,
61024040,-0.266,-0.246,0.086,-66.29,-47.442,-28.612,
61024050,-0.452,-0.254,0.022,-50.207,-36.645,-24.062,
61024060,-0.526,-0.224,-0.123,-36.802,-34.825,-18.795,
61024070,-0.504,-0.246,-0.294,-32.182,-33.11,-12.6,
61024080,-0.533,-0.339,-0.45,-36.557,-25.095,-3.202,
61024090,-0.622,-0.446,-0.567,-42.962,-17.36,9.607,
61024100,-0.722,-0.497,-0.666,-53.83,-18.375,23.082,
61024110,-0.748,-0.554,-0.739,-71.82,-29.855,35.21,
61024120,-0.958,-0.772,-0.83,-93.38,-45.132,54.652,
61024130,-0.393,-0.389,-1.062,-68.74,-57.942,50.732,
61024140,-0.438,-1.699,-0.124,-102.235,-35.56,39.025,
61024150,1.901,-1.998,1.975,38.342,-10.185,-41.125,
61024160,1.276,-1.996,0.406,371.77,-60.83,-245.665,
61024170,-0.864,0.969,-0.821,514.342,-17.955,-323.085,
61024180,1.763,0.386,1.759,417.707,104.422,-174.212,
61024190,1.562,0.966,0.35,440.86,16.887,-121.485,
61024200,1.977,0.015,0.917,404.722,83.58,-6.842,
61024210,0.933,0.477,1.704,384.475,103.162,104.58,
61024220,0.212,0.425,1.781,293.125,80.552,166.477,
61024230,-0.882,0.018,1.914,183.032,32.847,167.02,
61024240,-0.889,0.087,1.755,77.105,-0.945,104.615,
61024250,-0.579,-0.126,1.48,-20.282,-7.297,22.697,
61024260,0.354,-0.234,1.12,-84.595,-17.587,-27.58,
61024260,0.632,-0.469,0.902,-110.617,-6.947,-37.135,
61024280,0.689,-0.489,0.807,-116.935,7.385,-32.025,
61024280,0.663,-0.511,0.843,-123.952,16.17,-12.6,
61024300,0.663,-0.423,0.963,-128.345,25.725,6.79,
61024300,0.6,-0.325,1.049,-143.325,35.472,22.067,
61024320,0.525,-0.331,1.055,-164.36,44.922,35.84,
61024320,0.458,-0.34,1.078,-192.99,45.237,51.205,
61024330,0.455,-0.332,1.108,-227.64,44.222,72.905,
61024340,0.714,-0.389,1.24,-264.967,51.135,102.462,
61024350,0.904,-0.807,1.379,-289.065,76.247,134.75,
61024360,1.075,-1.623,1.655,-287.997,101.937,148.82,
61024370,1.027,-1.998,1.848,-254.45,104.895,119.892,
61024380,-0.09,-1.998,1.402,-185.202,80.955,56.332,
61024390,0.515,-1.846,0.278,-100.152,36.837,-36.732,
61024400,0.831,-1.651,-0.307,28.385,104.387,-48.93,
61024410,0.182,-1.012,-0.139,94.29,120.365,-50.225,
61024420,-0.271,-0.16,-0.61,137.077,60.532,-74.375,
61024430,-0.307,0.209,-0.717,106.155,27.002,-38.71,
61024440,-0.319,0.35,-0.444,49.665,-32.585,-2.485,
61024450,-0.094,0.221,-0.151,-5.04,-96.11,13.755,
61024460,0.146,-0.032,0.06,-33.04,-131.652,27.247,
61024470,0.102,-0.056,0.21,-24.29,-152.442,31.867,
61024480,-0.079,0.064,0.198,-7.927,-167.702,27.37,
61024490,-0.098,0.151,0.147,3.5,-178.097,15.837,
61024500,-0.117,0.112,0.02,-0.997,-176.522,6.107,
61024510,-0.267,0.089,-0.081,-7.087,-168.052,-5.162,
61024520,-0.397,0.076,-0.188,-15.785,-157.167,-14.665,
61024530,-0.448,0.065,-0.255,-32.182,-146.212,-18.97,
61024540,-0.468,-0.009,-0.278,-54.337,-128.327,-13.982,
61024550,-0.485,-0.087,-0.258,-74.165,-105.665,-6.93,
61024560,-0.482,-0.139,-0.232,-88.585,-82.477,-4.62,
61024570,-1.067,-0.321,-0.238,-106.137,-59.08,38.762,
61024580,-0.27,0.165,-0.235,-59.955,-29.365,45.045,
61024580,-0.568,-0.211,-1.037,-58.765,-26.407,-43.662,
61024600,0.658,-1.998,-0.509,-54.617,128.94,-38.307,
61024600,0.334,-1.998,0.298,165.165,132.002,-200.042,
61024620,-1.195,0.519,-1.444,447.247,13.072,-283.85,
61024620,1.655,1.641,1.9,413.35,201.582,-167.002,
61024640,0.899,-0.152,0.67,389.375,4.655,-135.835,
61024640,1.874,0.204,1.2,430.15,80.237,-64.767,
61024660,1.555,-0.133,1.127,423.115,125.317,53.2,
61024660,0.404,0.676,1.762,367.307,142.117,115.395,
61024670,-0.709,-0.028,1.811,250.127,114.765,132.702,
61024680,-1.13,0.211,1.788,135.957,73.29,73.5,
61024690,-0.185,0.021,1.444,37.205,25.427,7.577,
61024700,0.341,-0.174,1.188,-29.592,-13.3,-8.872,
61024710,0.361,-0.29,1.09,-71.767,-29.697,0.332,
61024720,0.225,-0.263,1.21,-104.352,-37.065,6.09,
61024730,0.645,-0.211,1.153,-142.205,-50.75,11.567,
61024740,0.566,-0.265,1.254,-177.975,-41.58,22.89,
61024750,0.456,-0.317,1.202,-215.6,-31.552,24.307,
61024760,0.369,-0.261,1.106,-243.145,-37.975,43.312,
61024770,0.414,-0.145,1.113,-277.952,-59.272,74.165,
61024780,0.415,-0.178,1.152,-325.465,-80.185,119,
61024790,0.098,-0.488,1.403,-370.545,-114.45,160.387,
61024800,-0.158,-1.54,1.9,-416.097,-179.147,173.407,
61024810,-0.096,-1.998,1.998,-430.29,-303.432,111.072,
61024820,-0.674,-1.998,0.258,-390.407,-423.237,43.032,
61024830,-0.237,-1.998,0.268,-220.867,-227.885,68.04,
61024840,0.103,-1.902,-0.198,69.247,35.875,98.42,
61024850,-0.395,-1.23,-0.74,239.505,135.117,73.29,
61024860,-0.793,-0.515,-1.213,271.88,138.652,89.442,
61024870,-0.534,0.121,-1.477,238.28,110.39,145.722,
61024880,0.259,0.258,-1.335,142.957,60.55,169.277,
61024890,0.74,0.19,-0.852,34.667,3.675,146.702,
61024900,1.044,0.005,-0.451,-50.417,-12.005,105.892,
61024910,1.102,-0.142,-0.17,-103.792,6.352,60.795,
61024920,1.001,-0.158,0.03,-133,40.18,15.96,
61024930,0.784,-0.017,0.128,-138.74,74.025,-29.085,
61024940,0.173,0.15,0.208,-134.067,91.997,-71.995,
61024950,-0.261,0.256,0.234,-128.187,88.9,-96.302,
61024960,-0.516,0.248,0.191,-117.617,75.687,-97.335,
61024970,-0.588,0.176,0.193,-101.307,56.752,-77.927,
61024980,-0.536,0.033,0.193,-85.627,43.19,-48.335,
61024990,-0.409,-0.087,0.154,-73.465,35.56,-16.537,
61025000,-0.219,-0.201,0.041,-58.922,36.452,5.11,
61025010,-0.017,-0.237,-0.094,-40.442,41.65,8.592,
61025010,-0.209,-0.299,-0.369,-49.735,50.12,28.14,
61025030,0.18,0.294,-0.272,14.455,50.452,-9.59,
61025030,-0.229,-0.135,-1.537,-6.09,44.747,-36.435,
61025050,1.114,-1.299,-0.29,5.145,166.74,-80.727,
61025050,-0.736,-1.998,1.962,114.502,134.05,-65.52,
61025070,0.607,-1.998,-0.606,460.635,-258.877,-258.247,
61025070,-1.67,1.201,-1.084,566.23,-59.762,-175.297,
61025080,1.839,1.22,1.579,411.88,-214.112,-214.777,
61025090,1.778,0.414,0.273,494.287,-99.032,-140.245,
61025100,1.797,-0.162,1.447,473.41,30.257,-56.472,
61025110,1.55,0.468,1.712,422.8,66.972,54.495,
61025120,0.323,0.492,1.995,327.197,68.145,128.45,
61025130,-0.662,0.58,1.998,170.957,20.072,149.222,
61025140,-0.663,0.159,1.79,27.965,-32.637,104.457,
61025150,-0.405,-0.104,1.404,-78.242,-53.305,36.155,
61025160,0.071,-0.344,1.046,-139.597,-64.872,-8.435,
61025170,0.498,-0.412,0.83,-159.6,-64.872,-26.04,
61025180,0.569,-0.604,0.693,-159.985,-51.135,-26.39,
61025190,0.6,-0.507,0.633,-137.567,-40.687,-16.047,
61025200,0.572,-0.752,0.65,-131.407,-32.322,-12.442,
61025210,0.606,-0.484,0.756,-122.255,-26.145,5.302,
61025220,0.629,-0.457,0.849,-126.84,-17.535,20.965,
61025230,0.594,-0.426,0.907,-138.985,-9.695,38.71,
61025240,0.544,-0.389,0.931,-157.15,-2.73,59.097,
61025250,0.512,-0.388,0.983,-185.395,-3.937,79.397,
61025260,0.61,-0.291,1.099,-217.717,-7.227,102.007,
61025270,0.77,-0.409,1.054,-251.055,2.59,129.622,
61025280,0.442,-0.842,0.893,-279.125,13.51,155.312,
61025290,0.642,-1.252,1.174,-291.462,9.292,152.005,
61025300,0.662,-1.804,1.342,-281.697,-0.017,143.43,
61025310,0.751,-1.975,1.532,-244.685,-22.33,117.95,
61025320,0.574,-1.944,1.067,-215.337,-47.74,72.642,
61025330,0.793,-1.312,0.344,-123.9,-28.367,23.852,
61025330,0.748,-1.614,-0.169,-21.577,70.07,-15.96,
61025350,1.261,-1.38,-0.288,87.675,193.672,-64.26,
61025350,-0.12,-1.028,-0.547,163.677,221.427,-102.952,
61025370,-1.252,-0.195,-1.019,240.695,121.467,-150.675,
61025370,-1.409,0.475,-1.227,194.145,-1.592,-118.58,
61025390,-0.633,0.562,-1.078,83.422,-106.872,-71.785,
61025390,0.026,0.298,-0.671,-9.555,-165.83,-52.78,
61025410,0.25,0.035,-0.266,-82.495,-160.195,-39.217,
61025410,0.325,-0.027,0.062,-112.997,-106.137,-30.887,
61025420,0.265,0.137,0.323,-122.325,-45.552,-31.237,
61025430,0.124,0.346,0.461,-137.462,-1.4,-32.147,
61025440,0.024,0.566,0.576,-140.507,22.645,-41.475,
61025450,-0.105,0.241,0.594,-141.47,28.682,-44.642,
61025460,-0.716,0.855,0.802,-153.457,18.567,27.737,
61025470,0.671,0.745,0.689,-58.992,16.205,-42.752,
61025480,0.025,0.048,0.695,-34.387,-7.7,-142.432,
61025490,-0.512,-0.278,-0.29,-28.612,10.377,-109.252,
61025500,1.503,-1.537,0.247,44.992,328.387,-85.26,
61025510,-1.384,-1.998,0.923,137.917,456.505,-201.18,
61025520,-1.587,-0.771,-1.769,416.43,-37.31,-291.305,
61025530,1.706,1.994,0.631,500.587,19.862,-190.33,
61025540,1.285,1.483,1.445,397.267,90.615,-123.655,
61025550,0.888,-0.829,0.756,419.86,24.342,-144.375,
61025560,1.971,0.828,0.92,428.277,109.515,-25.322,
61025570,1.011,-0.372,1.252,373.555,102.935,112.91,
61025580,0.021,0.683,1.706,292.827,103.985,150.22,
61025590,-0.815,0.32,1.959,167.37,77.927,133.927,
61025600,-0.934,-0.019,1.766,65.257,32.83,71.487,
61025610,-0.341,-0.138,1.415,-22.067,-8.33,6.16,
61025620,0.422,-0.276,0.978,-75.39,-38.745,-25.445,
61025630,0.771,-0.546,0.642,-90.457,-41.247,-19.617,
61025640,0.561,-0.564,0.643,-77.857,-28,-1.732,
61025650,0.385,-0.558,0.666,-55.72,-17.097,8.505,
61025660,0.314,-0.666,0.678,-40.442,-7.595,4.987,
61025670,0.377,-0.522,0.728,-25.025,0.052,1.732,
61025680,0.418,-0.551,0.767,-17.675,7.14,-0.14,
61025690,0.466,-0.457,0.875,-14.98,10.5,3.202,
61025700,0.487,-0.375,0.978,-22.277,15.015,9.975,
61025710,0.487,-0.341,1.066,-40.337,17.71,17.99,
61025720,0.544,-0.356,1.088,-65.695,19.18,28.717,
61025730,0.438,-0.35,1.11,-90.387,19.722,42,
61025740,0.432,-0.411,1.036,-117.635,8.312,57.33,
61025750,0.377,-0.491,0.971,-142.397,-6.93,79.205,
61025760,0.333,-0.458,0.898,-162.785,-18.305,106.382,
61025760,0.44,-0.521,1.127,-183.522,-25.76,129.045,
61025780,0.221,-1.029,1.441,-189.595,-51.765,135.695,
61025780,0.348,-1.538,1.67,-174.387,-124.967,119.087,
61025800,0.836,-1.93,1.309,-157.64,-190.82,74.742,
61025800,0.267,-1.998,0.91,-108.272,-157.832,39.987,
61025820,-0.161,-1.998,0.783,70.402,-75.197,-3.062,
61025820,-0.063,-1.681,-0.217,246.592,-49.367,-19.547,
61025830,0.312,-0.781,-1.215,266.245,-9.957,-25.462,
61025840,0.008,-0.605,-1.492,206.01,41.317,-27.247,
61025850,-0.786,-0.64,-1.849,139.107,45.885,-38.71,
61025860,-0.963,0.137,-1.623,69.527,19.862,-37.607,
61025870,-0.709,-0.179,-1.169,-66.307,-0.105,3.745,
61025880,-0.15,-0.985,-0.552,-165.445,-17.01,12.705,
61025890,0.201,-1.207,-0.092,-177.8,3.517,12.967,
61025900,0.035,-0.994,0.147,-166.687,44.73,23.537,
61025910,-0.204,-0.811,0.201,-161.647,73.85,39.532,
61025920,-0.335,-0.634,0.187,-158.095,76.16,59.587,
61025930,-0.313,-0.415,0.132,-160.737,57.82,84.175,
61025940,-0.129,-0.305,0.081,-173.04,32.532,104.912,
61025950,0.151,-0.204,0.043,-183.925,9.327,112.577,
61025960,0.454,0.273,-0.238,-189.227,6.37,122.395,
61025970,-0.289,-0.263,1.339,-198.432,1.942,152.25,
61025980,1.334,1.092,1.998,65.187,-133.175,52.325,
61025990,1.959,-0.074,1.998,218.225,-193.532,-8.54,
61026000,1.081,-1.998,-0.499,394.205,-148.54,-105.175,
61026010,-1.998,-1.812,-0.146,519.47,-201.442,-175.385,
61026020,1.557,0.875,1.254,447.72,-171.15,-150.08,
61026030,1.683,0.645,1.207,492.03,-18.357,-141.12,
61026040,1.799,-0.096,1.259,478.87,76.685,-85.925,
61026050,1.509,0.794,1.829,390.197,148.312,-13.597,
61026060,0.409,0.679,1.924,234.885,145.512,60.97,
61026070,-0.947,0.424,1.893,93.17,72.502,98.262,
61026080,-0.646,-0.037,1.503,-14.42,-15.487,76.037,
61026080,-0.131,-0.153,1.286,-82.757,-68.915,37.782,
61026100,0.136,-0.185,1.183,-128.87,-91.56,16.012,
61026100,0.404,-0.242,1.081,-168.612,-99.242,3.85,
61026120,0.644,-0.406,0.928,-203.367,-92.312,0.665,
61026120,0.631,-0.539,0.831,-223.037,-72.712,5.565,
61026140,0.701,-0.109,0.873,-209.772,-47.722,11.182,
61026140,0.684,-0.594,0.847,-231.525,-23.275,15.89,
61026160,0.834,-0.319,0.749,-229.53,-0.42,34.212,
61026160,0.81,-0.481,0.763,-244.02,14.805,64.137,
61026170,0.884,-0.456,0.933,-252.857,20.877,102.2,
61026180,0.775,-0.822,1.55,-260.715,17.255,145.67,
61026190,0.545,-1.583,1.974,-248.867,-36.785,171.43,
61026200,0.535,-1.982,1.897,-210.63,-137.777,144.042,
61026210,0.345,-1.998,1.061,-160.492,-193.375,92.417,
61026220,0.682,-1.998,0.307,-41.65,-119.752,27.16,
61026230,0.539,-1.793,0.001,94.71,-5.04,-11.27,
61026240,0.359,-0.931,-0.548,177.782,50.645,-58.135,
61026250,0.307,-0.292,-0.707,183.19,111.685,-74.095,
61026260,0.025,-0.201,-0.907,145.67,145.705,-72.117,
61026270,-0.176,0.119,-1.107,114.59,143.412,-85.015,
61026280,-0.26,0.411,-0.887,61.267,119.805,-87.675,
61026290,-0.027,0.142,-0.594,-23.975,80.29,-93.222,
61026300,0.418,-0.127,-0.386,-78.19,49.472,-112.98,
61026310,0.74,-0.096,-0.237,-101.78,50.452,-135.747,
61026320,0.767,-0.001,-0.143,-120.26,78.382,-156.975,
61026330,0.35,0.052,-0.049,-134.4,110.005,-170.152,
61026340,-0.37,0.264,0.072,-138.267,107.8,-175.735,
61026350,-0.759,0.386,0.123,-140.77,73.832,-166.6,
61026360,-0.771,0.385,0.15,-145.232,33.617,-138.705,
61026370,-0.617,0.277,0.166,-147.84,3.815,-94.762,
61026380,-0.484,0.169,0.152,-141.837,-5.092,-46.9,
61026390,-0.433,0.185,0.139,-127.557,-0.735,-5.53,
61026400,-0.56,0.05,-0.189,-117.285,8.855,32.165,
61026410,0.676,-1.934,-0.499,-58.012,172.812,114.835,
61026420,0.269,-1.998,1.621,215.127,366.555,-48.282,
61026430,-1.998,-0.368,-1.949,427.63,-59.027,-158.112,
61026440,0.796,1.853,1.796,360.15,-9.572,-197.242,
61026450,1.79,1.264,0.78,291.812,-114.712,-111.37,
61026460,1.076,-0.684,1.632,300.72,30.642,-104.387,
61026470,1.308,-0.028,1.211,258.685,63.98,-55.055,
61026480,0.946,0.693,1.707,193.97,60.252,-11.007,
61026490,0.448,-0.084,1.48,94.465,35.7,37.905,
61026500,0.034,-0.314,1.112,30.922,2.887,62.23,
61026510,-0.177,-0.681,0.889,5.635,-19.18,53.41,
61026510,-0.06,-0.635,0.821,-0.017,-19.512,20.107,
61026530,0.249,-0.533,0.827,0.665,-22.207,-4.427,
61026530,0.602,-0.421,0.8,-0.122,-23.747,-7.647,
61026550,0.578,-0.409,0.827,-8.382,-21.717,1.487,
61026550,0.391,-0.418,0.914,-18.987,-18.305,9.31,
61026570,0.268,-0.379,1.05,-36.12,-21.07,8.855,
61026570,0.355,-0.256,1.164,-64.47,-29.312,5.162,
61026580,0.405,-0.196,1.211,-104.335,-38.605,5.985,
61026590,0.441,-0.216,1.162,-148.242,-45.045,11.655,
61026600,0.47,-0.271,1.066,-186.445,-47.32,20.387,
61026610,0.409,-0.345,0.974,-215.32,-47.915,31.482,
61026620,0.37,-0.361,0.941,-239.767,-54.862,44.205,
61026630,0.398,-0.391,0.998,-259.28,-64.785,59.622,
61026640,0.263,-0.489,0.967,-280.77,-81.882,74.357,
61026650,0.242,-0.77,1.061,-292.652,-105.717,76.195,
61026660,0.304,-1.251,1.454,-302.47,-136.027,74.69,
61026670,0.703,-1.88,1.762,-296.292,-179.462,57.295,
61026680,0.731,-1.998,1.466,-263.97,-203.105,19.022,
61026690,0.547,-1.971,0.43,-173.67,-182.297,-19.355,
61026700,0.026,-1.948,0.441,-3.202,-41.702,-27.895,
61026710,-0.572,-1.587,0.802,177.257,66.272,-29.12,
61026720,-0.759,-1.131,-0.12,297.465,20.422,-8.925,
61026730,-0.742,-0.608,-0.624,336.577,-16.03,1.767,
61026740,-0.568,-0.229,-1.037,338.065,-26.197,42.052,
61026750,-0.296,0.036,-1.345,309.347,-20.195,93.187,
61026760,-0.158,0.353,-1.193,246.242,15.61,144.13,
61026770,0.096,0.024,-0.95,148.977,63.945,187.582,
61026780,0.401,-0.447,-0.74,71.365,103.337,193.725,
61026790,0.483,-0.396,-0.661,26.652,117.915,161.84,
61026800,0.382,-0.266,-0.764,-17.395,102.182,108.815,
61026810,0.403,-0.35,-0.929,-71.89,72.327,54.337,
61026820,0.551,-0.454,-1.044,-122.605,60.077,7.402,
61026830,0.591,-0.578,-1,-166.967,69.107,-29.015,
61026830,0.553,-0.776,-0.858,-204.855,92.575,-61.302,
61026850,0.604,-0.351,-0.883,-228.987,130.725,-79.73,
61026850,-0.743,-1.813,1.136,-160.23,190.015,-69.037,
61026870,-1.452,-1.457,1.998,53.357,45.605,-123.025,
61026870,1.221,-1.998,0.621,188.09,-68.215,-98.21,
61026890,1.219,0.439,-1.585,474.162,135.52,-119.63,
61026890,-1.212,-0.064,1.777,339.01,54.565,-165.462,
61026910,0.806,-0.677,0.319,337.715,9.992,-103.512,
61026910,1.426,0.561,1.369,402.5,32.585,-42.63,
61026920,0.829,-0.237,1.238,352.537,31.85,-12.775,
61026930,0.744,0.122,1.598,330.452,47.25,36.172,
61026940,0.207,0.15,1.769,258.807,50.435,57.925,
61026950,-0.111,0.437,1.833,154.857,37.555,59.57,
61026960,-0.161,0.172,1.648,38.64,6.475,42.56,
61026970,-0.001,-0.002,1.44,-56.507,-24.185,23.432,
61026980,0.174,-0.184,1.242,-124.635,-38.955,10.01,
61026990,0.32,-0.304,1.117,-165.637,-43.487,5.985,
61027000,0.344,-0.466,1.105,-193.025,-42.105,8.277,
61027010,0.442,-0.051,1.084,-203.77,-38.395,13.947,
61027020,0.413,-0.454,1.055,-235.322,-36.592,20.195,
61027030,0.44,-0.185,0.966,-248.342,-32.9,33.775,
61027040,0.374,-0.434,0.859,-267.697,-32.13,48.632,
61027050,0.412,-0.464,0.808,-275.502,-36.995,65.905,
61027060,0.788,-0.522,0.913,-288.382,-25.707,89.617,
61027070,0.952,-0.831,1.043,-293.177,2.712,114.222,
61027080,1.044,-1.4,1.252,-275.695,42.787,128.065,
61027090,1.28,-1.896,1.232,-242.97,86.485,129.745,
61027100,0.821,-1.635,0.995,-188.107,135.712,116.69,
61027110,0.053,-1.579,0.875,-142.205,133.542,63.892,
61027120,-0.224,-1.718,0.43,-87.71,94.027,6.755,
61027130,0.79,-1.166,-0.053,5.722,72.24,-20.72,
61027140,0.492,-0.813,0.117,50.872,50.312,-29.89,
61027150,-0.086,-0.451,-0.117,106.557,-18.55,-77.682,
61027160,-0.225,-0.067,-0.328,119.542,-45.377,-71.47,
61027170,-0.771,0.307,-0.377,107.292,-65.975,-41.072,
61027180,-1.233,0.634,-0.256,89.67,-108.762,-25.515,
61027190,-0.986,0.293,-0.201,42.49,-116.427,23.362,
61027200,-0.878,-0.009,0.013,14.105,-99.855,76.527,
61027210,-0.991,-0.213,0.225,14.122,-93.502,106.067,
61027220,-0.973,-0.329,0.277,27.65,-104.51,118.772,
61027230,-0.745,-0.362,0.17,46.567,-118.702,125.772,
61027240,-0.53,-0.31,-0.028,55.195,-118.86,132.895,
61027250,-0.416,-0.277,-0.237,49.262,-109.007,135.625,
61027260,-0.283,-0.237,-0.388,38.395,-94.762,131.757,
61027260,-0.16,-0.144,-0.51,15.522,-80.57,123.672,
61027280,-0.005,-0.083,-0.64,-24.465,-62.405,111.825,
61027280,0.77,-0.564,-1.541,-61.425,18.917,88.042,
61027300,1.801,-1.81,0.764,-95.567,239.032,66.955,
61027300,-1.423,-1.998,1.234,40.267,-174.93,-235.62,
61027320,0.904,-0.845,-1.554,461.545,-86.222,-400.715,
61027320,-1.937,1.958,-0.047,416.115,131.25,-193.515,
61027330,1.266,0.244,1.437,265.685,-189.84,-207.987,
61027340,1.998,-1.131,0.675,286.79,-52.605,-137.917,
61027350,1.086,0.074,0.97,362.582,15.155,-81.655,
61027360,1.518,-0.211,1.1,332.815,18.322,0.017,
61027370,1.096,0.103,1.442,323.522,37.835,68.775,
61027380,0.395,0.26,1.709,253.767,39.357,112.997,
61027390,-0.426,0.197,1.729,155.68,22.575,122.5,
61027400,-0.479,0.153,1.575,52.71,-2.852,84.665,
61027410,-0.155,-0.078,1.366,-32.917,-17.902,31.325,
61027420,0.194,-0.228,1.148,-94.605,-24.342,-1.767,
61027430,0.463,-0.366,0.996,-128.695,-22.767,-11.2,
61027440,0.516,-0.501,0.994,-143.482,-7.157,-8.102,
61027450,0.57,-0.223,1.008,-144.707,7.507,-0.227,
61027460,0.501,-0.487,1.059,-168.84,20.09,6.667,
61027470,0.52,-0.347,1.027,-181.405,32.357,18.287,
61027480,0.449,-0.413,0.976,-197.487,38.937,31.902,
61027490,0.233,-0.457,0.925,-208.582,33.967,48.02,
61027500,0.099,-0.453,0.942,-223.93,13.51,70.192,
61027510,0.271,-0.342,1.025,-245.035,-15.802,100.38,
61027520,0.46,-0.553,1.063,-267.365,-26.985,131.32,
61027530,0.331,-0.957,1.44,-273.665,-39.637,150.517,
61027540,0.306,-1.817,1.777,-267.12,-64.54,154.577,
61027550,-0.287,-1.998,1.998,-225.907,-116.392,115.412,
61027560,-0.191,-1.998,1.918,-124.425,-177.397,7.805,
61027570,-0.445,-1.966,0.809,112.647,-172.497,-28.367,
61027580,0.122,-0.913,-0.514,275.607,-66.815,19.635,
61027580,-0.126,-0.046,-1.564,272.107,-27.055,32.427,
61027600,-0.781,0.372,-1.824,193.042,-72.38,15.225,
61027600,-0.598,0.162,-1.476,66.867,-141.522,17.675,
61027620,0.292,-0.581,-0.929,-31.692,-174.51,33.372,
61027620,0.854,-0.938,-0.515,-53.76,-152.32,38.832,
61027640,0.713,-0.648,-0.311,-32.2,-101.832,22.54,
61027640,0.424,-0.263,-0.34,-23.485,-67.375,-9.625,
61027660,0.286,-0.098,-0.422,-50.75,-51.94,-33.67,
61027660,0.368,-0.032,-0.441,-90.597,-40.477,-46.742,
61027670,0.501,0.047,-0.367,-123.287,-22.05,-53.025,
61027680,0.494,0.175,-0.223,-151.077,-2.835,-60.497,
61027690,0.363,0.21,-0.05,-176.75,3.412,-68.46,
61027700,0.235,0.149,0.072,-193.235,-4.305,-68.39,
61027710,0.2,0.203,0.166,-195.72,-19.075,-55.86,
61027720,0.229,0.432,0.248,-192.587,-30.8,-30.38,
61027730,0.023,0.357,0.411,-191.94,-35.542,4.252,
61027740,-0.917,0.109,0.205,-178.78,-49.262,116.41,
61027750,0.503,-0.046,-1.23,13.195,-64.032,-14.21,
61027760,1.14,-1.998,1.115,157.307,132.055,-37.17,
61027770,-1.785,-1.971,-0.831,330.522,70.192,-99.452,
61027780,-0.088,1.482,-0.907,490.14,-59.29,-99.172,
61027790,1.55,0.179,1.348,393.435,126.717,-59.605,
61027800,0.568,0.196,0.701,442.977,19.827,-86.537,
61027810,1.065,0.411,1.304,449.085,95.987,-75.67,
61027820,1.216,-0.377,1.365,409.657,99.085,8.767,
61027830,0.594,0.832,1.808,338.415,95.13,50.277,
61027840,0.178,0.122,1.904,223.072,71.102,83.195,
61027850,-0.271,0.337,1.936,105.035,32.06,72.345,
61027860,-0.109,0.154,1.727,-21.84,-1.382,46.042,
61027870,0.097,-0.201,1.373,-118.44,-19.775,21.227,
61027880,0.268,-0.295,1.154,-174.195,-24.797,8.505,
61027890,0.384,-0.463,1.064,-204.155,-28.682,9.082,
61027900,0.479,-0.123,1.085,-211.067,-30.135,24.885,
61027910,0.513,-0.32,0.909,-238.262,-34.09,29.715,
61027920,0.4,-0.466,0.768,-255.465,-33.442,60.865,
61027930,0.5,-0.46,0.69,-263.182,-36.207,79.835,
61027940,0.719,-0.641,0.779,-274.697,-31.22,105.612,
61027950,0.517,-0.905,0.875,-280.717,-35.455,131.915,
61027960,0.602,-1.456,1.254,-282.415,-36.365,146.912,
61027970,0.874,-1.988,1.576,-246.75,-44.502,145.74,
61027980,1.048,-1.998,1.295,-190.802,-54.617,118.247,
61027990,0.481,-1.994,0.278,-111.37,-41.02,81.602,
61028000,0.354,-1.909,-0.026,38.412,47.845,44.59,
61028010,0.125,-1.435,-0.161,141.872,98.122,33.792,
61028010,0.382,-0.766,-0.858,186.9,66.955,12.81,
61028030,0.528,-0.252,-1.038,159.74,32.655,-32.41,
61028030,0.323,-0.004,-1.071,112.525,-12.53,-96.075,
61028050,-0.1,0.303,-0.871,59.342,-39.707,-137.532,
61028050,-0.341,0.513,-0.593,-6.352,-63.28,-148.732,
61028060,-0.306,0.411,-0.314,-74.532,-73.15,-140.717,
61028070,-0.185,0.149,-0.048,-123.235,-55.615,-119.682,
61028080,-0.241,-0.057,0.195,-139.982,-13.79,-91.91,
61028090,-0.45,-0.083,0.397,-135.677,26.46,-68.32,
61028100,-0.586,-0.059,0.469,-121.87,49.612,-47.757,
61028110,-0.696,0.019,0.471,-102.76,51.502,-28.577,
61028120,-0.696,0.097,0.378,-87.535,42.857,-7.192,
61028130,-0.629,0.173,0.286,-70.035,32.69,13.352,
61028140,-0.496,0.205,0.201,-58.187,28.21,32.077,
61028150,-1.004,0.025,0.015,-71.785,33.372,99.89,
61028160,0.326,0.751,-1.332,27.685,76.702,88.497,
61028170,1.677,-1.415,0.415,20.317,329.28,-11.48,
61028180,-1.416,-1.998,-0.068,199.01,1.662,-280.682,
61028190,-1.634,0.842,-0.906,476.892,2.24,-280.612,
61028200,1.938,0.806,1.127,397.337,22.067,-192.01,
61028210,1.871,-0.763,0.572,416.01,-37.835,-126.892,
61028220,1.65,0.943,1.14,482.282,66.412,-85.032,
61028230,1.689,-0.26,1.391,440.002,105.262,30.607,
61028240,0.438,0.721,1.865,371.665,121.87,105.542,
61028250,-0.618,0.606,1.998,231.157,93.992,127.277,
61028260,-0.808,0.332,1.998,82.25,34.615,81.305,
61028270,-0.205,0.24,1.828,-60.357,-25.725,29.242,
61028280,0.304,0.05,1.472,-172.27,-62.335,7.682,
61028290,0.312,-0.255,1.258,-238.77,-76.09,10.762,
61028300,0.326,-0.293,1.207,-273.595,-79.257,20.177,
61028310,0.522,0.246,1.163,-290.465,-83.492,26.215,
61028320,0.343,-0.313,0.93,-335.265,-82.88,55.79,
61028330,0.527,-0.238,0.782,-347.375,-82.495,75.932,
61028330,0.89,-0.556,0.999,-365.68,-72.397,104.405,
61028350,0.808,-1.168,1.259,-370.86,-63.735,128.975,
61028350,0.659,-1.897,1.424,-359.24,-41.58,136.675,
61028370,0.477,-1.998,1.625,-317.992,-49.997,111.09,
61028370,-0.149,-1.829,0.851,-242.515,-113.505,60.392,
61028390,-0.558,-1.155,0.348,-133.717,-98.682,56.927,
61028390,-0.891,-1.586,0.955,-27.195,-54.67,99.715,
61028410,-0.539,-1.279,0.558,114.87,-64.05,109.69,
61028410,0.278,-0.637,-0.163,221.935,-41.737,107.887,
61028420,0.366,-0.274,-0.466,244.387,29.732,99.96,
61028430,-0.207,-0.068,-0.782,236.915,55.02,75.897,
61028440,-0.398,0.102,-1.069,199.412,51.362,49.472,
61028450,-0.194,0.25,-1.064,132.195,26.512,15.96,
61028460,0.09,0.031,-1.01,44.1,-11.637,-34.02,
61028470,0.179,-0.222,-0.848,-23.782,-22.172,-72.31,
61028480,0.115,-0.325,-0.621,-66.342,0.367,-89.04,
61028490,-0.195,-0.369,-0.393,-93.187,29.995,-85.505,
61028500,-0.52,-0.362,-0.206,-107.135,43.435,-70.192,
61028510,-0.698,-0.299,-0.107,-106.767,33.53,-47.11,
61028520,-0.698,-0.237,-0.06,-97.492,7.56,-18.567,
61028530,-0.524,-0.213,-0.105,-88.795,-20.457,8.627,
61028540,-0.269,-0.083,-0.201,-81.935,-29.837,28.49,
61028550,-0.192,0.178,-0.242,-84.385,-10.15,50.715,
61028560,0.517,-0.897,-1.114,-51.87,86.59,65.45,
61028570,1.877,-0.992,1.261,22.75,244.93,-50.785,
61028580,0.322,-1.998,0.427,182.227,-28.542,-264.6,
61028590,-1.177,-0.298,-1.631,465.412,110.495,-343.052,
61028600,1.015,1.618,1.744,419.072,43.102,-215.967,
61028610,1.832,-0.51,-0.125,397.145,0,-97.65,
61028620,1.556,0.251,0.907,466.795,44.52,-39.462,
61028630,1.227,-0.263,1.28,463.89,45.465,76.895,
61028640,0.454,0.838,1.968,405.597,13.947,162.505,
61028650,0.03,0.3,1.998,292.075,-0.42,183.767,
61028660,-0.386,0.926,1.998,135.712,-19.25,157.447,
61028670,-0.221,0.35,1.932,-29.802,-34.02,102.917,
61028680,-0.095,-0.09,1.438,-150.097,-26.145,51.362,
61028690,-0.006,-0.368,1.036,-205.975,-15.802,20.912,
61028700,0.13,-0.591,0.885,-216.597,-11.952,9.922,
61028710,0.169,-0.517,0.93,-200.882,-15.067,22.05,
61028720,0.481,-0.2,0.815,-194.075,-20.387,15.435,
61028730,0.323,-0.771,0.773,-204.627,-19.53,37.24,
61028740,0.455,-0.898,0.643,-171.045,-11.83,47.53,
61028750,0.713,-1.004,0.609,-130.13,4.62,52.657,
61028750,0.44,-1.069,0.841,-101.57,7.42,57.12,
61028760,0.256,-1.325,0.773,-78.225,-18.76,55.895,
61028770,0.174,-1.733,0.834,-65.695,-39.9,83.037,
61028780,-1.974,-1.998,1.998,-14.612,-14.21,218.89,
61028790,-1.998,-1.992,1.578,154.455,-139.16,299.162,
61028800,-0.551,-1.543,-1.263,332.797,-238.35,373.835,
61028810,1.998,-1.36,-1.938,336.385,19.372,514.5,
61028820,1.998,-0.97,-1.986,143.045,89.582,491.68,
61028830,1.998,-0.179,-1.287,-65.677,10.447,158.847,
61028840,1.98,-1.413,-0.432,-245.577,-24.972,-126.647,
61028850,1.175,-1.542,0.007,-261.66,14.542,-258.037,
61028860,0.022,-0.368,0.092,-221.13,22.75,-322.315,
61028870,-0.8,0.328,0.22,-225.907,-10.132,-332.482,
61028880,-1.315,0.677,0.406,-243.652,-77.192,-307.02,
61028890,-1.33,1.276,0.396,-248.815,-137.48,-248.342,
61028900,-1.006,1.892,0.552,-228.917,-133.28,-142.8,
61028910,-1.052,1.457,0.604,-191.747,-63.315,-33.617,
61028920,-0.28,0.107,1.016,-112.945,64.575,5.372,
61028930,1.927,-1.998,0.101,151.952,108.71,-168.42,
61028940,-1.515,0.217,-0.336,333.427,128.485,-192.57,
61028950,0.532,0.817,-0.09,308.682,10.71,-180.057,
61028960,1.926,-0.383,0.521,404.792,32.637,-104.335,
61028970,0.924,0.151,1.229,459.13,102.497,-50.12,
61028980,1.458,0.148,1.461,441.42,83.125,60.007,
61028990,0.195,0.6,1.945,371.507,54.635,139.93,
61029000,-0.076,0.507,1.995,248.395,24.727,154.595,
61029010,-0.452,0.633,1.995,105.192,2.45,113.68,
61029020,-0.261,0.189,1.835,-36.015,-6.51,50.417,
61029030,0.2,-0.046,1.495,-152.827,-9.975,3.64,
61029040,0.428,-0.233,1.286,-222.25,-4.182,-6.947,
61029050,0.525,-0.282,1.11,-252.507,-0.21,4.97,
61029060,0.518,-0.229,1.011,-274.802,1.242,10.885,
61029070,0.407,-0.462,0.916,-299.11,-1.942,37.187,
61029080,0.429,-0.251,0.853,-308.035,-11.217,65.87,
61029080,0.881,-0.444,0.871,-328.282,-11.025,100.17,
61029100,0.967,-0.853,1.025,-331.117,16.695,140.91,
61029100,1.059,-1.72,1.428,-316.12,51.922,163.712,
61029120,0.817,-1.998,1.532,-270.602,71.487,147.472,
61029120,0.398,-1.998,1.366,-216.352,41.667,95.777,
61029140,0.155,-1.739,0.42,-161.525,-6.125,46.392,
61029140,-0.259,-1.608,-0.113,-53.27,-4.34,35.07,
61029160,0.289,-0.849,-0.318,47.95,18.042,3.447,
61029160,0.148,-0.433,-0.411,97.58,-9.765,-22.75,
61029170,-0.237,0.093,-0.398,104.387,-58.467,-75.145,
61029180,-0.245,0.462,-0.428,86.572,-62.055,-83.877,
61029190,-0.018,0.56,-0.344,49.07,-15.102,-60.375,
61029200,-0.136,0.589,-0.134,19.915,40.932,-37.52,
61029210,-0.408,0.433,0.139,-8.662,71.785,-27.58,
61029220,-0.515,0.205,0.338,-24.535,74.69,-24.762,
61029230,-0.417,0.085,0.373,-18.042,59.71,-24.482,
61029240,-0.281,0.081,0.261,-3.867,43.837,-26.337,
61029250,-0.247,0.102,0.137,6.702,34.807,-29.295,
61029260,-0.268,0.092,0.023,12.092,31.99,-31.43,
61029270,-0.259,0.085,-0.147,13.3,32.742,-28.56,
61029280,-0.188,0.081,-0.25,7.192,40.39,-19.127,
61029290,-0.352,-0.192,-0.196,-10.745,43.855,-4.13,
61029300,-0.175,-0.523,-1.807,-19.967,107.345,80.797,
61029310,1.702,-1.193,-0.149,37.887,412.317,-23.485,
61029320,-1.968,-1.998,1,38.465,-70.455,-288.435,
61029330,-0.035,-0.589,-1.57,491.435,-157.745,-372.627,
61029340,-1.136,1.997,1.525,429.765,17.57,-153.807,
61029350,1.998,0.694,0.454,321.247,-192.22,-155.697,
61029360,0.625,-1.022,0.917,370.615,1.26,-94.955,
61029370,1.162,-0.212,1.02,425.757,36.452,-39.182,
61029380,1.789,0.061,1.353,433.107,66.255,32.305,
61029390,0.519,0.067,1.712,395.01,107.485,87.342,
61029400,-0.55,0.812,1.997,276.43,115.867,92.96,
61029410,-0.7,0.517,1.885,124.985,64.347,56.227,
61029420,-0.165,0.221,1.603,-4.06,-1.015,21.14,
61029430,0.189,-0.028,1.36,-100.1,-51.45,13.475,
61029440,0.568,-0.09,1.337,-169.067,-82.547,30.712,
61029440,0.407,-0.313,1.193,-215.6,-75.197,46.742,
61029460,0.246,-0.368,1.153,-243.95,-62.877,53.34,
61029460,0.264,-0.508,1.088,-263.252,-61.232,55.86,
61029480,0.408,-0.317,0.823,-245.577,-61.407,73.325,
61029480,0.462,-0.337,0.71,-260.54,-67.165,73.482,
61029500,0.54,-0.713,0.832,-269.045,-67.48,119.525,
61029500,0.639,-0.978,0.802,-247.817,-55.107,158.9,
61029510,0.422,-1.66,0.808,-231.35,-39.69,181.37,
61029520,-0.603,-1.998,1.239,-195.965,-50.575,174.457,
61029530,-1.29,-1.998,1.584,-111.807,-108.815,166.285,
61029540,-1.998,-1.95,1.304,28.962,-225.855,203.98,
61029550,-0.504,-1.318,-0.926,220.185,-218.96,298.48,
61029560,1.713,-0.732,-1.586,258.247,-122.745,313.197,
61029570,1.635,-0.329,-1.35,175.735,-39.952,228.637,
61029580,0.918,-0.452,-1.053,70.437,15.12,110.687,
61029590,0.529,-0.272,-0.854,13.09,51.607,24.885,
61029600,0.284,0.071,-0.519,-36.592,68.897,-19.565,
61029610,0.138,-0.124,-0.18,-88.007,72.905,-51.572,
61029620,-0.033,-0.202,0.056,-102.2,80.08,-81.34,
61029630,-0.329,-0.014,0.162,-92.82,87.115,-98.997,
61029640,-0.559,0.153,0.233,-87.92,85.96,-93.747,
61029650,-0.606,0.262,0.251,-89.512,75.495,-74.655,
61029660,-0.633,0.36,0.2,-97.195,56.84,-43.96,
61029670,-0.572,0.509,0.101,-102.427,31.64,-15.312,
61029680,-0.364,0.66,0.029,-108.15,12.32,14.122,
61029690,-0.604,0.311,0.267,-106.592,14.997,61.425,
61029700,0.254,-1.539,1.998,-0.682,-143.377,-34.562,
61029710,1.66,-1.998,-1.518,196.42,-389.935,-341.985,
61029720,-0.39,-0.45,-1.353,512.575,72.187,-249.83,
61029730,-0.092,1.894,1.452,465.22,-79.152,-152.88,
61029740,1.995,-0.788,0.949,356.72,-39.707,-129.045,
61029750,0.879,-0.252,1.433,460.722,51.87,-63.56,
61029760,1.719,0.386,1.646,436.415,80.99,5.11,
61029770,0.328,0.51,1.976,357.525,107.345,65.012,
61029780,-0.587,0.652,1.96,205.992,94.587,69.195,
61029790,-0.59,0.403,1.751,66.85,38.832,33.075,
61029800,0.015,0.142,1.506,-43.277,-15.242,3.185,
61029810,0.325,-0.03,1.315,-125.405,-45.955,-1.942,
61029820,0.776,-0.182,1.251,-181.195,-57.802,14.84,
61029830,0.391,-0.41,1.187,-223.65,-45.377,31.587,
61029830,0.239,-0.352,1.218,-255.57,-37.1,41.055,
61029850,0.204,-0.365,1.138,-284.305,-37.607,42.507,
61029850,0.207,-0.344,1.006,-301.892,-43.977,47.81,
61029870,0.281,-0.328,0.922,-281.365,-54.145,82.005,
61029870,0.958,-0.131,0.863,-290.937,-64.592,83.44,
61029890,0.658,-1.185,1.06,-316.68,-57.435,127.557,
61029890,0.574,-1.859,1.283,-283.762,-26.495,151.952,
61029910,0.393,-1.998,1.353,-245.647,-36.12,142.152,
61029910,-0.35,-1.998,1.088,-186.847,-77.245,102.532,
61029920,-1.275,-1.993,0.374,-20.79,-47.6,113.242,
61029930,-0.824,-1.14,-0.605,194.232,-72.38,136.552,
61029940,0.705,-0.575,-1.336,242.165,-70.105,156.432,
61029950,1.393,-0.332,-1.452,189.402,-20.44,133.14,
61029960,1.217,-0.009,-1.379,141.575,34.895,66.185,
61029970,0.777,0.219,-1.194,63.07,81.095,5.547,
61029980,0.366,0.197,-0.899,-29.207,93.275,-30.38,
61029990,0.2,-0.024,-0.565,-106.505,76.737,-56.7,
61030000,0.185,-0.203,-0.289,-146.51,53.322,-87.325,
61030010,-0.03,-0.215,-0.081,-164.517,42.402,-112.367,
61030020,-0.323,-0.262,0.047,-175.035,43.75,-129.535,
61030030,-0.531,-0.263,0.089,-172.357,49.77,-133.997,
61030040,-0.741,-0.166,0.082,-168.595,60.847,-122.185,
61030050,-0.907,-0.14,0.054,-172.9,64.312,-101.36,
61030060,-1.044,-0.175,0.019,-170.677,58.765,-78.032,
61030070,-1.098,0.278,-0.331,-162.925,44.59,-39.007,
61030080,-1.733,-1.502,1.377,-87.22,16.94,17.412,
61030090,-0.74,-0.681,1.91,100.292,-141.75,-80.64,
61030100,1.268,-1.998,1.66,176.05,-233.59,-82.88,
61030110,1.031,-1.186,-1.997,458.027,-69.597,-179.847,
61030120,-1.042,1.996,1.307,484.54,1.592,-162.102,
61030130,1.998,-0.636,0.305,354.095,-37.87,-127.645,
61030140,1.258,0.146,1.426,426.142,20.912,-95.97,
61030150,1.292,-0.251,1.072,379.54,42.087,-24.797,
61030160,1.02,0.401,1.666,358.172,44.397,54.512,
61030170,0.193,0.108,1.835,269.762,31.115,103.775,
61030170,-0.215,0.361,1.893,154.315,3.342,113.68,
61030190,-0.173,0.226,1.784,28.297,-24.097,87.727,
61030190,0.018,-0.009,1.573,-86.362,-39.882,51.992,
61030210,0.301,-0.18,1.308,-169.732,-46.06,30.397,
61030210,0.453,-0.343,1.096,-219.66,-45.867,28.49,
61030230,0.503,-0.313,1.014,-246.82,-52.237,40.897,
61030230,0.336,-0.472,0.843,-267.662,-57.277,65.765,
61030250,0.468,-0.106,0.969,-259.192,-58.397,92.89,
61030250,0.151,-0.396,0.734,-301.227,-68.512,96.005,
61030260,0.19,-0.58,0.884,-318.482,-77.14,118.982,
61030270,0.41,-0.612,1.12,-325.43,-73.972,141.837,
61030280,0.366,-1.35,1.349,-337.557,-72.712,151.462,
61030290,0.39,-1.938,1.595,-322.542,-77.612,134.155,
61030300,0.858,-1.998,1.663,-298.217,-81.287,108.36,
61030310,0.423,-1.998,1.316,-236.652,-82.67,64.155,
61030320,-0.041,-1.841,0.591,-51.572,-34.93,11.69,
61030330,-1.063,-1.169,0.458,166.267,20.545,24.675,
61030340,-0.194,-0.688,-0.408,290.447,34.667,68.407,
61030350,0.298,-0.194,-0.743,280.14,54.95,81.252,
61030360,0.037,0.157,-1.13,245.455,60.217,42.017,
61030370,-0.099,0.503,-1.123,180.547,87.955,10.237,
61030380,-0.203,0.607,-0.723,76.562,102.235,1.33,
61030390,-0.284,0.348,-0.325,-24.605,91.56,-11.427,
61030400,-0.316,0.077,0.111,-79.117,67.952,-28.28,
61030410,-0.286,-0.043,0.395,-91.577,45.57,-33.477,
61030420,-0.436,-0.017,0.565,-78.592,31.027,-24.36,
61030430,-0.634,0.03,0.577,-49.63,5.6,-9.24,
61030440,-0.657,0.126,0.418,-9.467,-24.325,13.422,
61030450,-0.547,0.19,0.237,29.417,-43.872,45.64,
61030460,-0.377,0.168,0.097,50.067,-53.252,79.012,
61030470,-0.256,0.065,-0.082,59.325,-61.285,103.705,
61030480,-0.184,0.125,-0.274,69.002,-69.475,124.32,
61030490,0.627,-0.358,-1.541,75.372,-30.275,121.38,
61030500,1.894,-0.841,-0.166,62.247,368.865,190.277,
61030510,-1.783,-1.998,-0.173,-12.057,-126.035,-190.732,
61030520,-0.96,0.205,0.007,364.42,-292.88,-552.912,
61030530,0.189,1.997,0.583,342.51,-74.007,-320.407,
61030540,1.998,-0.573,0.183,452.812,-51.87,-162.61,
61030550,0.329,-0.157,1.135,365.557,112.857,-219.73,
61030560,1.671,-0.385,0.881,459.322,137.952,-106.452,
61030570,1.424,0.802,1.543,411.652,142.992,-3.43,
61030580,0.196,0.452,1.87,308.735,161.07,64.452,
61030580,-1.237,0.643,1.976,159.635,117.757,64.855,
61030600,-0.873,0.236,1.667,39.777,31.727,29.47,
61030600,0.027,-0.015,1.299,-47.215,-32.445,-1.785,
61030620,0.349,-0.143,1.178,-99.26,-58.887,-3.955,
61030620,0.385,-0.193,1.185,-143.097,-68.232,1.172,
61030640,0.519,-0.132,1.227,-189.595,-75.652,7.717,
61030640,0.364,-0.23,1.253,-238.805,-69.527,13.037,
61030660,0.314,-0.204,1.202,-279.37,-57.697,9.817,
61030660,0.371,-0.198,1.066,-307.895,-48.405,7.017,
61030670,0.359,-0.376,0.843,-325.955,-43.225,15.592,
61030680,0.579,-0.034,1.041,-310.485,-44.012,41.002,
61030690,0.876,-0.329,0.887,-348.792,-45.57,42.21,
61030700,0.967,-0.981,1.028,-359.152,-18.147,71.015,
61030710,1.199,-1.429,1.186,-321.912,60.287,93.87,
61030720,1.107,-1.957,1.248,-263.06,156.992,106.82,
61030730,0.162,-1.995,0.912,-195.667,218.732,72.065,
61030740,-0.516,-1.804,0.499,-136.202,226.59,9.73,
61030750,-0.516,-1.94,0.169,-61.302,206.885,-17.272,
61030760,0.027,-1.001,-0.03,54.705,166.005,-32.287,
61030770,0.308,-0.383,-0.231,89.022,105.017,-57.872,
61030780,0.337,-0.005,-0.254,59.657,83.86,-75.04,
61030790,0.091,0.365,-0.153,52.885,88.217,-69.562,
61030800,-0.117,0.826,0.004,42.437,96.722,-54.127,
61030810,-0.306,1.013,0.26,14.052,83.527,-31.902,
61030820,-0.316,0.843,0.528,-10.237,61.285,-6.562,
61030830,-0.199,0.675,0.731,-6.177,41.947,16.485,
61030840,-0.154,0.575,0.779,16.8,28.542,26.075,
61030850,-0.194,0.461,0.641,45.78,17.71,22.155,
61030860,-0.288,0.391,0.4,78.277,10.622,12.985,
61030870,-0.385,0.387,0.103,104.475,1.435,6.265,
61030880,-0.402,0.351,-0.184,109.515,-11.742,3.447,
61030890,-0.271,0.24,-0.396,92.225,-23.03,4.305,
61030900,-0.163,-0.185,-0.929,55.527,-16.345,9.187,
61030910,1.405,-1.146,-0.761,37.415,256.935,25.777,
61030920,-1.952,-1.998,-0.037,-128.975,-45.797,-95.795,
61030920,0.14,-0.175,0.445,389.2,-263.445,-532.665,
61030940,-1.151,1.997,1.348,291.165,-79.065,-279.737,
61030940,1.998,1.548,0.878,328.632,-71.347,-127.977,
61030960,1.101,-1.914,1.217,218.12,3.78,-177.677,
61030960,0.938,0.342,1.176,368.9,73.412,-78.207,
61030980,1.541,0.062,1.249,322.245,89.232,26.95,
61030980,0.244,0.389,1.711,259.647,105.525,96.197,
61031000,-0.706,0.436,1.766,151.532,70.052,110.302,
61031000,-0.664,0.081,1.568,52.482,15.452,75.425,
61031010,-0.134,-0.012,1.368,-30.222,-26.88,34.23,
61031020,0.381,-0.165,1.171,-87.885,-50.82,19.285,
61031030,0.483,-0.381,1.011,-122.202,-52.097,23.8,
61031040,0.423,-0.505,0.973,-138.425,-43.855,34.527,
61031050,0.36,-0.401,1.079,-150.22,-35.805,46.62,
61031060,0.338,-0.373,1.167,-170.975,-28.035,55.002,
61031070,0.421,-0.346,1.142,-192.727,-19.232,60.41,
61031080,0.283,-0.583,0.877,-203.612,-15.855,74.007,
61031090,0.291,-0.365,1.077,-162.715,-19.285,93.817,
61031100,0.629,-0.43,0.798,-193.847,-26.005,92.295,
61031110,0.645,-1.088,0.831,-204.785,5.39,141.347,
61031120,0.552,-1.037,0.835,-180.512,47.302,159.897,
61031130,0.198,-0.87,0.888,-165.55,45.325,157.027,
61031140,-0.107,-1.098,1.012,-159.022,-1.96,154.822,
61031150,-0.515,-1.771,1.018,-146.79,-76.037,130.725,
61031160,-1.423,-1.919,1.481,-99.47,-130.9,124.862,
61031170,-0.561,-1.3,0.334,24.85,-200.602,132.09,
61031180,1.085,-0.897,-0.389,111.457,-151.112,147.752,
61031190,0.815,-0.423,-0.759,124.932,-99.802,107.905,
61031200,0.373,-0.126,-0.759,95.357,-64.732,23.94,
61031210,0.262,-0.219,-0.693,45.272,-28.035,-39.935,
61031220,0.313,-0.241,-0.612,12.932,4.497,-83.282,
61031230,0.193,-0.143,-0.576,-13.335,25.97,-120.68,
61031240,0.001,-0.051,-0.503,-47.652,36.54,-150.535,
61031250,-0.094,-0.101,-0.399,-88.777,40.075,-166.442,
61031260,-0.091,-0.182,-0.271,-123.462,42.682,-172.97,
61031270,-0.12,-0.231,-0.142,-152.022,42.682,-179.672,
61031280,-0.261,-0.159,-0.009,-175.017,40.18,-187.652,
61031290,-0.504,-0.008,-0.004,-205.817,33.53,-186.515,
61031300,-0.179,-0.244,-0.029,-205.887,59.517,-130.987,
61031310,-1.663,-1.972,1.998,8.382,58.397,-89.722,
61031320,0.263,-1.776,-0.798,238.752,-25.76,-149.415,
61031330,0.93,1.594,-1.38,469.997,110.355,-156.065,
61031330,1.535,-0.774,1.253,220.517,121.625,-133.385,
61031350,-0.878,-0.518,0.853,278.407,71.942,-86.8,
61031350,1.865,0.157,0.856,403.235,86.362,-12.635,
61031370,1.089,-0.351,1.064,391.632,91.035,51.45,
61031370,0.69,0.231,1.671,383.162,102.865,100.362,
61031390,-0.451,0.604,1.913,288.452,110.705,109.55,
61031390,-0.853,0.533,1.936,160.982,85.26,65.082,
61031410,-0.386,0.381,1.739,33.075,26.617,18.2,
61031410,0.128,0.186,1.565,-74.725,-26.197,3.097,
61031420,0.483,-0.047,1.388,-160.545,-62.055,15.417,
61031430,0.424,-0.221,1.304,-219.87,-75.67,40.862,
61031440,0.217,-0.341,1.219,-258.072,-78.33,59.955,
61031450,0.167,-0.309,1.12,-285.477,-86.712,65.45,
61031460,0.13,-0.254,0.957,-301.437,-92.767,67.567,
61031470,0,-0.677,0.96,-302.26,-93.205,83.615,
61031480,0.581,-0.113,1.171,-261.712,-81.13,78.767,
61031490,0.705,-1.301,1.266,-292.932,-88.235,77.245,
61031500,-0.106,-1.986,0.997,-244.247,-109.48,90.23,
61031510,-0.869,-1.998,1.478,-182.84,-108.395,113.347,
61031520,-1.998,-1.998,1.971,-45.045,-128.607,279.632,
61031530,-0.657,-1.416,-1.079,324.695,-301.367,393.557,
61031540,1.989,-1.075,-1.839,405.265,-199.867,522.602,
61031550,1.905,-0.647,-1.92,297.605,-126.927,496.965,
61031560,1.652,-0.106,-1.664,149.415,-81.987,334.635,
61031570,1.247,-0.607,-1.034,6.037,-79.992,188.982,
61031580,1.203,-0.796,-0.567,-57.89,-73.377,73.307,
61031590,0.972,-0.626,-0.344,-59.115,-37.17,-9.38,
61031600,0.639,-0.382,-0.303,-59.745,22.207,-68.932,
61031610,0.373,-0.3,-0.242,-81.025,81.322,-107.852,
61031620,0.336,-0.278,-0.136,-99.96,134.102,-132.527,
61031630,0.417,-0.195,-0.064,-110.845,178.36,-152.337,
61031640,0.31,0.001,-0.042,-113.417,206.657,-176.295,
61031650,-0.112,0.295,0.016,-136.902,203.962,-202.195,
61031660,-0.514,0.486,0.11,-168.665,161.927,-225.4,
61031670,-0.573,0.692,0.212,-185.22,118.125,-218.47,
61031670,-0.521,1.13,0.296,-188.3,90.545,-187.302,
61031690,-0.779,1.115,-0.183,-193.76,69.51,-134.382,
61031690,-0.76,-1.177,1.232,-64.382,124.32,-26.582,
61031710,-0.567,-1.998,0.839,99.61,-137.725,-309.977,
61031710,0.731,-0.462,-1.997,423.325,64.627,-348.215,
61031730,-0.834,1.908,1.127,438.69,39.585,-160.107,
61031730,1.998,-1.641,0.636,308.91,-83.195,-163.52,
61031750,1.232,0.542,1.134,455.122,49.84,-96.232,
61031750,1.349,-0.542,1.42,458.29,67.76,-20.527,
61031760,0.843,0.871,1.957,420.717,82.407,57.26,
61031770,-0.161,0.701,1.998,299.495,88.077,89.005,
61031780,-0.549,0.603,1.966,143.412,49.542,67.445,
61031790,-0.222,0.306,1.669,1.96,-9.502,34.335,
61031800,0.199,-0.076,1.284,-95.287,-50.732,20.667,
61031810,0.34,-0.312,1.05,-144.042,-64.155,20.265,
61031820,0.277,-0.399,1.003,-165.917,-61.425,20.492,
61031830,0.338,-0.42,0.977,-182.63,-54.11,15.452,
61031840,0.33,-0.412,0.968,-200.952,-43.505,8.155,
61031850,0.406,-0.475,0.949,-214.567,-33.302,2.257,
61031860,0.626,-0.352,0.901,-227.307,-23.817,8.085,
61031870,0.453,-0.832,0.849,-232.505,-20.16,31.71,
61031880,0.928,0.015,0.738,-204.505,-25.795,45.272,
61031890,0.697,-0.51,0.972,-260.382,-40.53,73.587,
61031900,1.01,-0.827,1.078,-256.462,-26.792,126.262,
61031910,1.085,-1.413,1.517,-235.165,6.265,168.315,
61031920,0.651,-1.953,1.623,-205.362,1.417,172.515,
61031930,0.099,-1.998,1.31,-169.592,-61.197,134.26,
61031940,-0.456,-1.998,0.492,-105.91,-89.075,93.31,
61031950,-0.323,-1.882,0.259,58.362,-56.385,77.752,
61031960,0.262,-0.915,-0.432,168.997,-52.027,74.987,
61031970,0.549,-0.403,-0.831,169.645,-32.025,71.96,
61031980,0.277,-0.196,-0.624,125.125,-11.55,51.065,
61031990,0.204,-0.063,-0.531,82.215,-0.735,30.817,
61032000,0.247,0.228,-0.524,48.632,10.22,21.91,
61032010,0.305,0.433,-0.334,4.602,6.72,12.722,
61032020,0.384,0.318,-0.157,-52.71,-2.765,-6.562,
61032030,0.364,0.28,0.017,-90.492,-10.29,-29.662,
61032040,0.322,0.288,0.139,-108.202,-14.682,-54.337,
61032050,0.181,0.321,0.209,-111.212,-20.002,-81.76,
61032060,-0.037,0.374,0.217,-112.927,-28.542,-104.982,
61032070,-0.185,0.341,0.162,-115.01,-42.367,-123.41,
61032080,-0.323,0.285,0.071,-113.207,-59.762,-134.277,
61032080,-0.438,0.231,-0.028,-115.657,-81.305,-139.002,
61032100,-0.571,0.003,-0.163,-128.047,-101.815,-124.862,
61032100,-0.483,-0.204,-0.219,-131.845,-116.2,-116.2,
61032120,-1.113,-0.961,-0.303,-139.475,-111.23,-45.517,
61032120,0.372,-1.387,-1.745,-13.947,-45.745,-59.202,
61032140,1.705,-1.998,1.401,118.562,209.825,-99.4,
61032140,-1.537,-1.691,-0.921,260.627,129.535,-143.535,
61032160,0.296,1.893,0.14,437.675,37.17,-168,
61032160,1.576,0.687,0.83,350.385,150.377,-44.345,
61032170,1.178,-1.033,0.676,391.545,36.505,-60.497,
61032180,0.436,0.397,1.243,366.852,113.61,2.24,
61032190,0.884,-0.067,1.418,341.302,93.642,61.46,
61032200,0.051,0.219,1.561,281.68,87.535,78.662,
61032210,-0.246,0.053,1.626,194.302,69.247,68.092,
61032220,-0.269,-0.1,1.517,109.795,43.137,34.142,
61032230,0.134,-0.063,1.377,32.06,14,3.325,
61032240,0.377,-0.104,1.259,-34.23,-9.1,-2.782,
61032250,0.445,-0.275,1.105,-89.74,-21.49,1.417,
61032260,0.378,-0.323,1.08,-128.607,-23.87,5.337,
61032270,0.36,-0.296,1.135,-158.392,-24.85,7.717,
61032280,0.336,-0.211,1.212,-191.817,-26.897,11.06,
61032290,0.395,-0.293,1.164,-230.72,-32.97,16.782,
61032300,0.388,-0.215,1.147,-250.46,-34.317,38.325,
61032310,0.511,-0.157,0.907,-282.31,-35.35,31.377,
61032320,0.321,-0.421,0.917,-316.242,-37.94,53.147,
61032330,0.536,-0.301,0.962,-327.792,-44.852,80.727,
61032340,0.735,-0.833,1.04,-340.34,-39.532,112.787,
61032350,0.849,-1.5,1.372,-335.265,-26.04,133.822,
61032360,1.018,-1.998,1.696,-298.06,12.11,130.795,
61032370,0.856,-1.998,1.249,-232.995,33.652,108.202,
61032380,-0.239,-1.957,0.982,-142.625,61.372,75.18,
61032390,-0.117,-1.47,0.259,-7.805,113.995,47.145,
61032400,-0.768,-1.033,0.753,122.412,100.117,67.007,
61032410,0.145,-0.157,-0.037,185.045,18.602,72.555,
61032420,1.003,-0.135,-0.309,154.227,23.222,98.087,
61032420,0.813,0.158,-0.303,133.385,33.372,81.287,
61032440,0.404,0.613,-0.226,114.607,42.455,39.882,
61032440,0.295,0.709,-0.214,73.587,49.612,15.032,
61032460,0.157,0.575,-0.139,35.91,38.797,-3.482,
61032460,0.031,0.449,-0.008,16.257,12.46,-30.012,
61032480,0,0.326,0.022,2.572,-7.98,-51.222,
61032480,0,0.164,0.031,-4.13,-12.687,-61.932,
61032500,-0.135,0.085,0.049,0.962,-8.102,-66.255,
61032500,-0.354,0.03,0.004,0.017,-5.442,-60.515,
61032510,-0.428,-0.003,-0.121,-3.325,-7.175,-54.407,
61032520,-0.432,-0.026,-0.215,-12.005,-9.572,-46.917,
61032530,-0.419,-0.171,-0.297,-31.78,-2.747,-34.72,
61032540,-0.475,-0.285,-0.367,-50.61,9.485,-24.85,
61032550,-1.042,-0.646,-0.388,-67.952,19.46,6.51,
61032560,0.695,-0.939,-1.807,9.677,194.337,79.415,
61032570,-0.007,-1.998,1.694,-14.367,388.745,-98.857,
61032580,-0.892,-1.929,-1.191,247.607,-232.137,-443.8,
61032590,-1.823,1.462,0.479,362.74,138.845,-261.222,
61032600,1.549,1.557,1.15,313.81,-152.32,-196.122,
61032610,1.746,-1.946,0.051,280.472,10.5,-119.822,
61032620,0.132,0.592,1.311,348.565,45.622,-78.207,
61032630,1.652,-0.45,1.161,294.315,28.945,34.667,
61032640,0.569,0.55,1.48,263.707,19.565,99.522,
61032650,-0.139,-0.194,1.713,197.435,10.342,121.625,
61032660,-0.391,-0.015,1.704,127.907,1.942,99.312,
61032670,-0.281,0.067,1.695,30.485,0.42,50.05,
61032680,0.121,-0.108,1.46,-65.905,1.557,7.892,
61032690,0.467,-0.307,1.125,-131.985,9.24,-10.395,
61032700,0.551,-0.415,0.998,-161.402,15.155,-3.64,
61032710,0.459,-0.453,1.057,-179.777,12.215,15.942,
61032720,0.518,-0.112,1.181,-184.607,11.602,43.102,
61032730,0.307,-0.243,1.163,-229.547,6.44,38.972,
61032740,0.272,-0.325,1.129,-263.095,4.83,60.83,
61032750,0.214,-0.292,1.169,-293.422,-3.99,83.44,
61032760,0.355,-0.965,1.927,-328.895,-29.277,107.887,
61032770,0.326,-1.972,1.998,-318.587,-110.355,101.745,
61032780,0.674,-1.998,1.976,-286.965,-207.375,48.3,
61032790,0.002,-1.998,0.912,-116.287,-156.345,-12.022,
61032800,-1.187,-1.226,0.605,242.165,3.99,11.567,
61032810,-0.125,-0.064,-0.856,263.48,25.392,92.855,
61032820,0.595,-1.29,-0.338,117.547,30.205,106.872,
61032830,0.873,-1.252,-0.518,114.782,22.697,39.725,
61032830,0.497,-0.177,-0.553,160.475,58.572,5.302,
61032850,-0.025,0.39,-0.514,131.6,71.435,-22.417,
61032850,-0.294,0.397,-0.427,73.465,50.47,-49.822,
61032870,-0.225,0.454,-0.299,31.307,24.29,-68.862,
61032870,-0.086,0.583,-0.134,-5.477,5.862,-76.772,
61032890,-0.003,0.581,0.052,-44.94,-1.68,-85.33,
61032890,-0.099,0.479,0.184,-65.712,6.632,-80.517,
61032910,-0.353,0.552,0.29,-60.077,14.682,-63.437,
61032910,-0.536,0.666,0.317,-49.717,8.032,-41.895,
61032920,-0.528,0.661,0.269,-42.77,-3.867,-14.7,
61032930,-0.417,0.653,0.181,-36.802,-11.375,13.3,
61032940,-0.309,0.605,0.147,-36.785,-13.545,34.947,
61032950,-0.267,0.539,0.139,-44.275,-13.51,49.227,
61032960,-0.269,0.415,0.071,-59.762,-11.62,62.317,
61032970,-0.368,0.309,-0.002,-75.355,-16.117,76.527,
61032980,-0.478,0.231,-0.124,-98.525,-37.065,90.457,
61032990,-0.427,0.005,-0.335,-128.17,-70.735,97.877,
61033000,-0.243,-0.211,-0.499,-155.26,-103.407,97.195,
61033010,-0.036,-0.41,-0.716,-177.992,-127.312,87.342,
61033020,0.701,-1.12,-1.717,-160.055,-5.582,97.107,
61033030,0.561,-1.998,1.931,2.835,291.935,39.672,
61033040,-0.249,-1.914,-1.197,353.29,-238.875,-463.05,
61033050,-1.674,1.603,-0.095,469.262,123.83,-344.715,
61033060,1.434,1.149,1.687,362.757,-217.472,-217.507,
61033070,1.998,-1.571,0.228,389.637,-108.78,-209.002,
61033080,1.663,-0.117,0.903,430.5,29.592,-124.722,
61033090,1.89,0.856,1.432,409.937,87.132,18.375,
61033100,0.386,0.511,1.975,318.237,115.622,105.087,
61033110,-0.505,0.486,1.994,165.602,68.145,120.61,
61033120,-0.415,0.217,1.852,21.07,-3.272,87.972,
61033130,-0.077,-0.025,1.517,-96.145,-44.782,44.205,
61033140,0.291,-0.239,1.197,-175.647,-48.125,14.367,
61033150,0.368,-0.384,1.08,-213.622,-41.457,4.602,
61033160,0.501,-0.399,1.092,-235.83,-39.41,9.38,
61033170,0.549,-0.094,1.118,-245.717,-42.98,36.662,
61033170,0.436,-0.176,1.018,-286.265,-46.48,42.997,
61033190,0.242,-0.167,0.903,-316.82,-53.672,75.53,
61033190,0.441,-0.072,0.931,-348.32,-71.872,99.872,
61033210,0.593,-0.427,0.984,-386.155,-78.47,137.585,
61033210,0.241,-0.947,1.197,-422.887,-93.17,170.957,
61033230,0.368,-1.764,1.614,-437.972,-92.26,178.36,
61033230,0.44,-1.998,1.685,-426.177,-132.002,152.6,
61033250,0.189,-1.998,1.324,-372.785,-118.125,106.225,
61033250,-0.09,-1.881,1.105,-240.135,-27.72,132.842,
61033260,-0.109,-1.73,0.595,-2.59,26.512,142.747,
61033270,-0.807,-1.218,0.42,176.33,37.8,152.425,
61033280,0.211,-0.874,-0.235,290.237,56.717,219.222,
61033290,1.224,-0.495,-0.694,343.647,92.627,256.095,
61033300,1.188,0.364,-1.032,349.947,112.77,239.137,
61033310,0.953,0.9,-1.003,271.95,96.005,187.215,
61033320,0.883,0.916,-0.811,127.26,37.992,103.74,
61033330,1.264,0.477,-0.568,-6.527,-16.467,8.365,
61033340,1.478,-0.086,-0.262,-87.185,-18.935,-71.487,
61033350,1.204,-0.357,0.003,-106.435,15.54,-138.967,
61033360,0.849,-0.515,0.13,-94.675,70.875,-187.757,
61033370,0.407,-0.443,0.2,-64.995,124.355,-209.947,
61033380,-0.289,-0.204,0.266,-35.052,158.427,-208.967,
61033390,-1.34,0.28,0.403,-10.99,138.705,-216.282,
61033400,-1.496,0.342,0.519,-6.16,77.647,-207.112,
61033410,-1.271,0.18,0.469,0.227,37.642,-146.072,
61033420,-1.077,0.194,0.432,12.67,31.64,-67.83,
61033430,-0.956,0.202,0.401,21.84,39.987,4.025,
61033440,-0.788,0.293,0.304,26.967,28.77,36.75,
61033450,-1.188,0.026,0.213,25.812,7.297,99.557,
61033460,1.228,1.128,-1.095,65.432,71.995,122.622,
61033470,1.174,-1.268,-0.115,14.507,473.2,45.062,
61033480,-1.723,-1.998,-0.453,178.535,-25.2,-381.675,
61033490,0.267,0.503,-1.401,546.612,23.572,-443.782,
61033500,-1.142,1.87,1.444,355.11,-223.615,-252.332,
61033510,1.998,-1.807,-0.446,339.237,-431.2,-303.205,
61033520,1.998,-0.01,-0.584,525.717,-79.625,-268.467,
61033530,1.348,0.592,1.713,520.66,187.005,-220.797,
61033540,1.962,1.242,1.138,446.827,220.027,-130.935,
61033550,0.574,0.056,1.863,269.622,300.125,-20.125,
61033560,-1.868,1.618,1.934,64.995,154.245,15.242,
61033570,0.588,-0.893,0.932,-29.225,-55.702,60.847,
61033580,0.81,-0.74,0.678,-37.695,-82.197,40.355,
61033580,0.261,-0.486,0.829,-37.957,-60.235,40.88,
61033600,0.394,-0.492,0.82,-36.645,-51.205,30.712,
61033600,0.597,-0.332,0.848,-39.532,-44.975,24.272,
61033610,0.223,-0.244,0.937,-46.515,-35.612,29.015,
61033620,0.241,-0.511,0.738,-44.555,-33.635,29.837,
61033630,0.287,-0.66,0.687,-29.662,-22.032,15.995,
61033640,0.255,-0.459,0.814,-16.152,-9.397,-1.347,
61033650,0.331,-0.375,0.828,-9.87,-4.76,-9.625,
61033660,0.371,-0.339,0.853,-4.287,-0.315,-10.045,
61033670,0.339,-0.317,0.925,-3.255,1.855,-7.875,
61033680,0.278,-0.261,1.005,-11.62,-1.19,-6.527,
61033690,0.177,-0.239,0.991,-27.405,-10.185,-6.58,
61033700,0.202,-0.353,0.858,-35.332,-16.695,-7.752,
61033710,0.29,-0.504,0.767,-30.187,-16.45,-11.725,
61033720,0.292,-0.473,0.783,-21.192,-10.657,-19.092,
61033730,0.335,-0.416,0.782,-12.512,-6.3,-24.29,
61033740,0.405,-0.368,0.78,-3.167,0.315,-23.817,
61033750,0.417,-0.313,0.803,7.332,6.422,-17.552,
61033760,0.462,-0.289,0.846,17.045,12.897,-6.23,
61033770,0.383,-0.261,0.898,20.702,15.33,5.495,
61033780,0.271,-0.276,0.902,21.577,16.905,15.225,
61033790,0.253,-0.345,0.867,25.637,16.047,20.3,
61033800,0.357,-0.404,0.834,32.62,18.2,21.437,
61033810,0.315,-0.328,0.948,35.455,19.53,20.685,
61033820,0.194,-0.2,1.076,24.867,14.21,20.3,
61033830,0.189,-0.168,1.098,4.76,-1.855,20.685,
61033840,0.257,-0.212,1.049,-18.427,-17.062,22.207,
61033850,0.266,-0.23,1.05,-39.34,-28.875,23.397,
61033860,0.306,-0.258,1.063,-62.755,-37.117,24.062,
61033870,0.37,-0.129,1.158,-87.045,-47.285,26.705,
61033880,0.224,-0.208,1.271,-126.14,-54.915,28.735,
61033890,0.767,-0.175,1.069,-165.655,-69.79,37.677,
61033900,0.473,-0.245,1.184,-202.877,-49.542,40.495,
61033910,0.57,-0.295,1.175,-242.497,-39.882,44.31,
61033920,0.658,-0.253,1.303,-273.35,-29.732,60.707,
61033920,1.028,-0.504,1.715,-302.435,-26.232,90.16,
61033940,1.225,-1.48,1.998,-301.98,-3.325,128.52,
61033940,1.451,-1.998,1.649,-263.9,22.575,143.622,
61033960,0.626,-1.998,0.963,-192.185,55.965,141.05,
61033960,0.499,-1.998,1.167,-96.145,146.055,129.097,
61033980,0.765,-1.998,0.152,75.967,133.455,40.757,
61033980,0.6,-1.283,-0.97,243.565,95.042,-42.49,
61034000,0.726,-0.476,-1.191,204.382,109.41,-38.972,
61034000,0.195,-0.795,-1.193,91.49,99.19,-40.145,
61034010,-0.283,-0.754,-0.941,25.812,73.465,-56.437,
61034020,-0.408,-0.298,-0.629,-17.657,30.695,-74.2,
61034030,-0.228,-0.125,-0.352,-79.59,-6.842,-79.345,
61034040,-0.024,-0.117,-0.094,-133.437,-17.605,-73.027,
61034050,-0.023,0.131,0.168,-152.582,-11.76,-62.912,
61034060,-0.168,0.522,0.335,-158.69,-8.19,-52.832,
61034070,-0.279,1.079,0.45,-158.567,-12.932,-38.377,
61034080,-0.351,1.557,0.575,-157.727,-29.225,-17.64,
61034090,-0.364,1.494,0.607,-159.95,-61.635,-0.35,
61034100,-0.292,1.224,0.583,-151.847,-97.965,10.99,
61034110,-0.267,0.892,0.568,-134.557,-132.912,18.41,
61034120,-0.244,0.39,0.486,-113.085,-161.21,23.415,
61034130,-0.246,-0.107,0.349,-83.755,-184.712,20.02,
61034140,-0.338,-0.457,0.147,-48.93,-201.057,16.327,
61034150,-0.444,-0.599,-0.127,-13.685,-198.205,17.99,
61034160,-0.709,-0.626,-0.369,4.725,-176.015,39.147,
61034170,-0.949,-0.613,-0.555,3.08,-157.885,69.055,
61034180,-1.033,-0.629,-0.689,-20.387,-145.005,96.722,
61034190,-0.861,-0.661,-0.738,-61.705,-127.172,112.542,
61034200,-0.064,-1.584,-1.419,-98.84,-79.695,124.477,
61034210,1.998,-1.998,1.721,132.825,313.985,43.347,
61034220,-1.411,-1.998,1.851,394.415,306.267,-160.685,
61034230,-1.774,-0.207,-1.579,495.337,-89.267,-361.847,
61034240,1.894,1.997,1.954,480.515,162.242,-225.907,
61034250,1.178,0.042,0.067,394.555,64.995,-180.495,
61034260,1.409,-0.28,1.233,395.657,129.097,-109.515,
61034270,1.561,0.249,1.221,408.555,157.377,14.28,
61034280,0.539,0.61,1.76,345.222,158.952,95.952,
61034290,-0.445,0.179,1.857,244.02,127.89,126.682,
61034300,-1.15,0.088,1.793,142.327,83.265,89.075,
61034300,-0.77,0.075,1.61,47.81,32.725,18.497,
61034320,0.317,-0.085,1.25,-32.375,-13.212,-22.54,
61034320,0.648,-0.246,1.065,-80.972,-29.4,-17.937,
61034330,0.415,-0.285,1.116,-112.49,-27.142,-0.35,
61034340,0.318,-0.215,1.232,-141.575,-26.6,10.447,
61034350,0.192,-0.34,1.352,-179.34,-26.775,14.402,
61034360,0.396,0.089,1.342,-208.46,-27.142,17.167,
61034370,0.247,-0.345,1.24,-264.127,-30.73,12.6,
61034380,0.312,-0.08,1.059,-290.01,-42.122,30.012,
61034390,0.368,-0.05,1.03,-326.672,-69.405,47.722,
61034400,0.709,-0.29,0.966,-359.87,-85.627,84.385,
61034410,0.683,-0.816,1.061,-371.07,-77.297,122.622,
61034420,0.227,-1.436,1.582,-369.285,-91.332,135.205,
61034430,-0.015,-1.998,1.167,-356.93,-169.347,133.63,
61034440,0.129,-1.998,0.636,-315.385,-235.987,94.692,
61034450,0.262,-1.998,0.377,-236.617,-180.652,87.937,
61034460,0.205,-1.767,-0.287,-80.92,-102.392,65.345,
61034470,0.179,-1.803,-0.419,33.74,8.452,74.06,
61034480,0.408,-1.403,-0.519,150.202,88.532,95.305,
61034490,0.542,-0.942,-0.561,214.917,135.222,103.687,
61034500,0.526,-0.432,-0.586,228.777,152.827,95.62,
61034510,0.36,-0.083,-0.69,210.945,141.417,77.28,
61034520,0.208,0.162,-0.722,171.15,117.127,48.72,
61034530,0.113,0.32,-0.631,118.072,74.602,14.542,
61034540,0.058,0.383,-0.591,52.43,27.317,-21.105,
61034550,0.033,0.484,-0.51,-10.062,-5.67,-48.125,
61034560,0.113,0.547,-0.41,-71.207,-6.807,-58.992,
61034570,0.052,0.473,-0.262,-128.642,16.852,-55.405,
61034580,-0.216,0.432,-0.024,-167.702,38.272,-47.827,
61034590,-0.447,0.437,0.173,-190.172,41.142,-37.555,
61034600,-0.503,0.344,0.31,-203.647,26.337,-24.885,
61034610,-0.445,0.273,0.361,-201.757,1.96,-10.01,
61034620,-0.256,0.264,0.414,-182.945,-6.982,11.235,
61034630,-0.164,0.194,0.495,-160.335,-0.822,38.167,
61034640,-0.735,-0.183,0.285,-152.53,-0.595,85.19,
61034650,0.276,-0.659,-1.281,-26.442,67.077,174.37,
61034660,1.232,-1.665,1.556,108.167,453.04,59.097,
61034670,-1.74,-1.998,1.984,270.042,279.492,-96.792,
61034670,-1.745,-1.998,-0.384,406.822,-99.33,-173.845,
61034690,-0.922,1.311,-1.481,487.112,-77.035,-42.875,
61034690,0.591,0.526,1.852,293.51,-357.962,-144.217,
61034710,1.309,-1.205,0.484,342.09,-198.555,-131.722,
61034710,-0.064,1.037,1.229,441.735,-73.482,-157.43,
61034730,1.091,-0.251,1.103,352.1,-67.427,-116.165,
61034730,1.35,0.349,1.461,343.157,-29.277,-66.22,
61034750,1.191,0.005,1.579,267.662,-9.992,-10.482,
61034750,0.792,0.132,1.745,200.62,2.362,38.517,
61034760,0.428,0.111,1.709,103.005,6.44,65.467,
61034770,0.022,0.077,1.651,5.705,5.162,67.322,
61034780,0.011,-0.139,1.432,-84.35,13.597,43.12,
61034790,0.135,-0.226,1.251,-149.852,29.19,13.65,
61034800,0.353,-0.246,1.171,-193.112,47.005,-3.937,
61034810,0.367,-0.456,1.086,-219.712,62.475,-0.822,
61034820,0.639,0.09,1.059,-225.942,75.635,-6.877,
61034830,0.347,-0.534,1.067,-265.23,87.412,4.952,
61034840,0.445,-0.327,0.98,-272.002,102.462,21.56,
61034850,0.335,-0.49,0.921,-286.177,109.252,32.252,
61034860,0.045,-0.481,0.962,-307.79,104.86,52.797,
61034870,0.234,-0.867,1.353,-338.957,84.332,69.492,
61034880,0.206,-1.711,1.706,-350.875,56.437,79.047,
61034890,0.425,-1.998,1.647,-315.647,41.317,54.967,
61034900,0.542,-1.987,1.823,-276.867,14.63,13.982,
61034910,0.811,-1.651,0.857,-203.665,44.065,-11.165,
61034920,0.448,-1.735,0.702,-119.017,158.445,-49,
61034930,0.405,-0.636,0.217,10.202,192.622,-106.75,
61034940,-0.645,0.534,0.325,72.59,138.39,-154.77,
61034950,-0.437,0.989,0.141,38.167,81.9,-129.255,
61034960,-0.032,0.743,0.303,-0.56,59.797,-69.352,
61034970,-0.025,0.634,0.498,1.295,28.805,-49.175,
61034980,-0.003,0.482,0.611,21.612,14.875,-35.052,
61034990,0.231,0.273,0.5,53.06,10.587,-20.142,
61035000,0.025,0.141,0.451,86.852,5.495,-15.12,
61035010,-0.141,0.081,0.261,119.052,-14.105,-11.742,
61035010,-0.198,0.017,0.09,139.93,-38.587,-0.595,
61035030,-0.183,-0.038,-0.059,151.2,-64.732,13.72,
61035030,-0.135,-0.073,-0.148,154.945,-87.622,27.02,
61035050,-0.07,-0.08,-0.2,148.592,-102.9,36.47,
61035050,-0.005,-0.102,-0.212,133.175,-108.937,40.705,
61035070,0.078,-0.177,-0.183,114.222,-109.725,34.51,
61035070,0.187,-0.324,-0.128,93.485,-102.2,17.517,
61035080,0.158,-0.521,0.017,67.095,-96.862,-13.667,
61035090,0.194,-0.954,-0.055,46.9,-98.35,-63.402,
61035100,-0.632,-0.851,0.161,56.665,-90.002,-42.805,
61035110,0.54,-0.416,-0.844,118.632,-79.415,-188.23,
61035120,0.986,-1.876,0.415,104.755,40.687,-320.232,
61035130,-0.525,-1.998,0.553,163.572,276.85,-185.115,
61035140,-1.998,0.358,-1.557,439.145,254.852,-244.282,
61035150,0.662,1.162,1.279,301.962,-61.757,-366.065,
61035160,1.907,1.37,1.27,259.192,26.967,-253.68,
61035170,1.137,-0.108,1.792,339.167,93.397,-169.435,
61035180,1.998,0.385,1.641,323.872,120.242,-33.285,
61035190,0.697,0.618,1.845,210.875,159.005,59.64,
61035200,-0.99,0.338,1.791,106.855,131.005,123.182,
61035210,-0.913,0.049,1.38,24.745,44.992,105.385,
61035220,-0.275,-0.38,1.038,-19.827,-9.8,60.112,
61035230,0.053,-0.461,0.861,-33.477,-15.715,20.072,
61035240,0.457,-0.524,0.719,-28.927,-7.297,3.412,
61035250,0.59,-0.5,0.723,-12.845,4.777,7.192,
61035260,0.401,-0.429,0.825,2.572,18.585,22.12,
61035270,0.433,-0.334,0.9,9.415,16.905,40.722,
61035280,0.134,-0.328,0.994,7.385,17.342,47.705,
61035290,0.109,-0.234,1.082,-3.465,13.842,44.257,
61035300,0.16,-0.258,1.083,-22.312,12.162,39.375,
61035310,0.14,-0.268,1.068,-40.285,12.022,35.42,
61035320,0.165,-0.373,1.077,-56.14,12.81,35.49,
61035330,0.254,-0.123,1.155,-70.297,12.32,35.07,
61035340,0.221,-0.213,1.126,-101.342,9.992,41.912,
61035350,0.184,-0.271,1.064,-125.632,4.847,48.195,
61035360,0.106,-0.312,1.055,-144.795,-1.837,52.832,
61035370,0.121,-0.278,1.124,-160.58,-10.535,56.997,
61035380,0.162,-0.234,1.274,-188.79,-13.912,62.177,
61035390,0.152,-0.061,1.319,-228.515,-12.302,65.502,
61035400,0.233,-0.074,1.368,-283.535,-10.762,73.01,
61035410,0.54,-0.009,1.413,-346.395,0.735,89.04,
61035420,0.577,-0.276,1.469,-407.872,24.675,119.682,
61035420,0.215,-1.21,1.579,-447.877,19.512,139.807,
61035440,0.269,-1.972,1.892,-449.767,-43.522,135.73,
61035440,0.175,-1.911,1.44,-411.705,-123.41,103.25,
61035460,0.453,-1.243,1.437,-385.28,-205.24,71.382,
61035460,0.547,-1.521,0.791,-355.162,-224.472,87.062,
61035480,1.267,-1.897,0.304,-291.742,-155.452,62.125,
61035480,1.1,-1.732,0.509,-163.117,-60.707,35.42,
61035500,-0.339,-1.228,0.526,-10.727,-40.53,-60.655,
61035500,-1.229,-0.625,0.3,144.27,-98.192,-130.935,
61035510,-1.416,-0.099,0.174,189.997,-150.57,-109.812,
61035520,-0.79,-0.03,-0.135,178.447,-156.467,-53.13,
61035530,-0.353,-0.03,-0.328,174.23,-117.582,-12.88,
61035540,-0.068,-0.198,-0.442,163.607,-47.722,21.28,
61035550,0.04,-0.296,-0.504,164.465,26.74,45.727,
61035560,0.083,-0.291,-0.499,167.702,69.107,55.002,
61035570,0.183,-0.324,-0.503,153.037,74.357,52.657,
61035580,0.371,-0.336,-0.538,125.16,60.777,42,
61035590,0.506,-0.294,-0.574,94.465,40.582,24.412,
61035600,0.544,-0.25,-0.563,65.24,21.577,3.535,
61035610,0.442,-0.224,-0.478,40.267,1.522,-20.65,
61035620,0.23,-0.215,-0.397,17.29,-22.015,-42.595,
61035630,0.042,-0.142,-0.317,-1.96,-48.825,-58.065,
61035640,-0.09,-0.038,-0.261,-20.807,-73.045,-68.617,
61035650,-0.207,0.137,-0.218,-38.832,-88.637,-80.22,
61035660,-0.112,0.269,-0.182,-62.265,-80.36,-92.19,
61035670,0.008,0.178,-0.183,-88.777,-36.575,-94.132,
61035680,-0.044,-0.084,-0.157,-106.925,31.657,-90.615,
61035690,-0.211,-0.37,-0.149,-113.855,96.005,-90.755,
61035700,-0.292,-0.605,-0.196,-109.427,143.307,-98.875,
61035710,-0.362,-0.837,-0.07,-101.342,176.89,-110.6,
61035720,-0.854,-0.403,-0.795,-132.02,210.7,-32.007,
61035730,0.466,-0.643,-1.046,38.657,239.137,-162.085,
61035740,-0.801,-1.721,-1.149,54.582,271.652,-211.557,
61035750,-0.96,-1.998,1.862,113.102,466.48,-98.175,
61035760,-1.1,-1.948,-0.564,423.727,21.472,-225.68,
61035760,0.392,1.78,0.027,557.2,109.725,-283.78,
61035780,1.924,0.437,0.334,382.515,-11.812,-180.827,
61035780,1.431,-1.059,1.241,459.672,47.792,-82.425,
61035800,1.498,-0.103,1.415,497.717,50.645,47.127,
61035800,1.086,1.292,1.947,420.122,82.635,128.345,
61035820,-1.56,0.472,1.998,272.16,103.6,153.3,
61035820,-1.264,0.544,1.911,91.91,30.292,85.627,
61035830,-0.27,0.167,1.582,-47.04,-46.287,18.865,
61035840,0.625,-0.074,1.313,-130.882,-96.88,10.202,
61035850,0.786,-0.255,1.218,-183.242,-116.882,34.615,
61035860,0.495,-0.267,1.307,-224.367,-112.14,62.107,
61035870,0.4,-0.163,1.265,-263.602,-108.745,78.435,
61035880,0.432,-0.031,1.008,-297.15,-103.635,95.497,
61035890,0.407,-0.142,0.787,-328.632,-91.315,123.725,
61035900,0.669,-0.473,0.782,-359.397,-82.232,161.315,
61035910,0.564,-0.605,0.968,-379.977,-80.185,207.445,
61035920,0.084,-1.264,1.093,-390.32,-97.597,251.877,
61035930,-0.438,-1.993,1.394,-378.192,-165.165,256.935,
61035940,-0.396,-1.998,1.371,-342.93,-298.007,203.017,
61035950,0.382,-1.754,0.746,-273.017,-419.44,159.267,
61035960,-0.052,-1.914,0.188,-152.267,-429.082,161.122,
61035970,-0.162,-1.724,0.147,7.315,-339.675,139.282,
61035980,0.338,-1.532,-0.14,184.257,-205.152,147.805,
61035990,0.786,-1.056,-0.48,280.052,-79.152,158.76,
61036000,0.684,-0.706,-0.58,308.962,3.255,136.85,
61036010,0.224,-0.286,-0.742,304.657,25.812,88.777,
61036020,0.075,0.1,-0.894,269.307,31.955,44.38,
61036030,0.271,0.315,-1.026,202.72,43.505,2.747,
61036040,0.371,0.52,-1.051,127.435,58.345,-52.692,
61036050,0.412,0.523,-0.954,30.485,79.275,-119.595,
61036060,0.278,0.266,-0.862,-77.122,114.065,-184.047,
61036070,0.014,0.053,-0.498,-156.187,143.727,-235.725,
61036080,-0.315,-0.23,-0.235,-208.512,161.035,-277.672,
61036090,-0.775,-0.169,0.066,-242.97,162.68,-308.735,
61036100,-0.928,-0.388,0.206,-277.76,157.342,-312.48,
61036110,-1.059,-0.641,0.397,-278.477,155.12,-287.63,
61036120,-1.31,-0.544,0.487,-244.247,159.25,-239.417,
61036130,-1.482,-0.382,0.174,-219.047,151.917,-174.317,
61036140,-1.768,-0.031,0.79,-76.895,141.365,-87.692,
61036150,-1.456,0.073,0.533,-45.832,108.307,-31.36,
61036160,-1.375,-0.094,-0.634,-49.385,83.037,33.197,
61036170,1.322,-1.488,0.496,2.292,233.065,36.767,
61036170,1.18,-1.998,1.226,93.957,180.617,-255.22,
61036190,-1.342,-0.449,-1.935,482.282,-57.137,-402.692,
61036190,1.706,1.633,1.758,425.967,265.825,-220.955,
61036210,-0.174,0.153,0.709,456.89,43.767,-104.282,
61036210,1.992,0.744,0.723,553.14,77.84,-33.355,
61036230,1.156,0.102,1.572,522.287,100.432,136.797,
61036230,-0.74,0.825,1.998,412.912,102.147,191.695,
61036250,-1.383,0.775,1.998,232.085,67.882,143.815,
61036250,-0.864,0.224,1.957,54.967,17.745,34.335,
61036260,0.348,0.283,1.632,-85.33,-41.982,-21.63,
61036270,0.684,-0.088,1.309,-180.285,-71.872,-7.367,
61036280,0.488,-0.236,1.213,-238.28,-77.28,16.975,
61036290,0.565,-0.295,1.064,-272.037,-80.115,31.657,
61036300,0.632,-0.226,0.927,-295.382,-74.497,47.845,
61036310,0.489,-0.249,0.726,-311.167,-66.815,76.527,
61036320,0.278,-0.343,0.691,-326.55,-63.157,107.292,
61036330,0.386,-0.474,0.887,-342.3,-73.552,133.717,
61036340,0.246,-0.562,1.128,-367.325,-81.935,159.022,
61036350,0.125,-1.186,1.36,-394.642,-110.477,166.6,
61036360,0.215,-1.925,1.849,-402.587,-154.56,152.985,
61036370,0.483,-1.998,1.998,-374.657,-240.642,111.002,
61036380,0.399,-1.988,0.465,-273.612,-323.697,32.007,
61036390,-0.735,-1.71,0.842,-85.435,-223.842,43.89,
61036400,-0.42,-1.597,0.414,147.507,-108.78,97.79,
61036410,0.176,-0.882,-0.289,328.387,-29.085,158.76,
61036420,0.475,-0.318,-0.488,333.077,25.987,173.11,
61036430,0.385,-0.031,-0.636,320.74,39.2,166.005,
61036440,0.377,0.38,-0.895,296.73,48.86,156.852,
61036450,0.435,0.847,-0.985,253.68,54.425,145.04,
61036460,0.536,1.107,-0.877,170.625,44.047,121.03,
61036470,0.613,0.821,-0.765,55.562,19.337,78.137,
61036480,0.778,0.348,-0.617,-26.775,0.542,21.455,
61036490,0.752,0.139,-0.352,-63.157,-2.87,-40.722,
61036500,0.56,0.012,-0.173,-108.027,4.27,-94.657,
61036510,0.298,-0.191,-0.073,-136.255,14.945,-140.21,
61036510,-0.064,-0.201,0.008,-129.867,23.537,-169.435,
61036530,-0.416,-0.164,0.054,-117.862,19.18,-178.955,
61036530,-0.6,-0.33,0.156,-103.635,7.245,-169.172,
61036550,-1.184,0.218,-0.131,-99.767,-0.595,-60.707,
61036550,-0.11,0.309,-0.239,31.815,8.75,-150.71,
61036570,-0.972,-0.129,-0.022,-1.015,-8.277,-149.572,
61036570,-1.268,-0.29,-1.316,-58.94,50.19,-20.79,
61036580,1.703,-1.662,0.75,-7.507,433.317,20.685,
61036590,-1.96,-1.998,-0.165,198.17,111.492,-268.555,
61036600,-1.447,0.777,-0.865,492.94,19.635,-265.772,
61036610,1.988,1.447,0.628,422.415,-31.64,-244.755,
61036620,1.797,-0.981,-0.196,516.355,2.03,-97.212,
61036630,1.197,1.34,1.268,553.175,90.755,-36.452,
61036640,1.524,-0.411,1.536,529.165,141.785,105.945,
61036650,-0.879,0.924,1.998,425.67,187.407,136.675,
61036660,-1.42,1.11,1.998,227.657,145.11,88.235,
61036670,-0.797,0.43,1.985,36.89,35.437,21.577,
61036680,0.178,0.188,1.653,-111.422,-50.172,-2.31,
61036690,0.548,-0.194,1.249,-203.612,-83.387,3.412,
61036700,0.706,-0.347,1.003,-249.655,-82.127,24.29,
61036710,0.475,-0.457,1.085,-252.997,-62.125,52.78,
61036720,0.556,-0.024,1.092,-265.037,-67.375,77.437,
61036730,0.167,-0.136,0.953,-295.61,-62.895,102.69,
61036740,0.139,-0.276,0.849,-321.317,-58.012,117.407,
61036750,0.352,-0.403,0.92,-336.507,-53.655,135.152,
61036760,0.204,-0.765,1.068,-344.067,-53.707,150.465,
61036770,0.118,-1.615,1.324,-336.175,-68.145,144.445,
61036780,0.22,-1.998,1.374,-307.072,-95.462,128.152,
61036790,0.099,-1.998,1,-233.59,-131.285,79.975,
61036800,0.154,-1.903,0.396,-143.5,-78.47,79.275,
61036810,-0.586,-1.998,0.617,6.352,-27.352,101.22,
61036820,-0.297,-1.489,-0.568,162.365,-62.545,84.98,
61036830,0.784,-0.617,-1.393,238.7,-16.485,119.49,
61036840,0.949,-0.024,-1.72,182.017,12.6,83.16,
61036850,0.375,0.276,-1.623,82.547,5.46,14.367,
61036860,0.308,0.095,-1.064,-36.225,33.67,-23.572,
61036870,0.187,-0.333,-0.408,-124.092,83.142,-43.767,
61036880,-0.275,-0.605,0.143,-162.242,117.897,-74.427,
61036890,-0.789,-0.722,0.44,-162.365,133.437,-91.087,
61036900,-1.186,-0.511,0.763,-110.67,135.572,-78.645,
61036910,-1.106,-0.251,0.701,-88.305,119.665,-54.897,
61036920,-1.003,0.01,0.585,-53.48,91.595,-28.945,
61036920,-0.804,0.317,0.492,-25.375,79.992,9.747,
61036940,-0.554,0.373,0.42,-14.84,72.957,40.565,
61036940,-0.352,0.382,0.381,-3.045,64.837,59.692,
61036960,-0.166,0.565,0.32,4.462,59.377,67.882,
61036960,-0.004,0.691,0.197,2.625,48.965,66.885,
61036980,0,0.877,0.076,-24.237,36.767,79.38,
61036980,1.095,1.164,-1.477,13.195,71.207,18.97,
61037000,1.874,-0.84,0.446,-12.162,320.81,-1.89,
61037000,-1.863,-1.998,1.012,39.497,-91.105,-300.65,
61037010,-1.316,-0.077,-1.667,480.217,-346.885,-499.992,
61037020,0.289,1.833,1.423,337.417,-208.145,-331.345,
61037030,1.981,-1.288,-0.141,353.062,-147.262,-270.322,
61037040,1.822,0.435,0.768,440.492,35.052,-252.21,
61037050,1.998,-0.264,0.775,482.825,106.47,-85.557,
61037060,1.704,1.331,1.68,454.177,153.667,48.177,
61037070,-0.157,0.353,1.993,317.677,143.22,148.802,
61037080,-1.371,0.61,1.998,162.085,59.202,157.115,
61037090,-0.968,0.246,1.843,9.117,-26.092,89.495,
61037100,-0.074,-0.088,1.382,-105.052,-71.697,20.317,
61037110,0.32,-0.237,1.171,-172.69,-87.85,-7.297,
61037120,0.649,-0.282,0.945,-205.59,-87.587,-11.322,
61037130,0.579,-0.409,0.943,-229.74,-76.72,-4.305,
61037140,0.466,-0.34,0.953,-239.26,-64.382,4.392,
61037150,0.358,-0.394,0.857,-249.235,-55.632,11.235,
61037160,0.35,-0.503,0.749,-251.685,-47.967,18.48,
61037170,0.388,-0.496,0.748,-252.84,-50.767,31.745,
61037180,0.425,-0.322,0.959,-262.097,-61.372,49.227,
61037190,0.584,-0.307,1.132,-285.495,-74.76,68.197,
61037200,0.801,-0.825,1.215,-305.882,-65.03,87.832,
61037210,1.129,-1.546,1.494,-304.01,-14.017,109.112,
61037220,1,-1.998,1.852,-284.795,35.315,117.11,
61037230,0.375,-1.998,1.326,-208.915,64.82,71.295,
61037240,-1.469,-1.998,1.083,-61.425,103.757,5.075,
61037250,-1.783,-1.589,0.655,141.522,95.34,5.88,
61037260,0.013,-0.425,-1.017,275.73,47.775,71.225,
61037260,0.776,-0.35,-1.119,223.65,92.75,117.285,
61037280,0.438,-0.346,-1.024,173.04,94.325,95.935,
61037280,0.299,-0.142,-0.837,149.485,96.407,59.01,
61037300,0.352,-0.028,-0.608,109.567,101.465,36.785,
61037300,0.404,-0.109,-0.571,58.467,83.982,3.202,
61037320,0.15,0.048,-0.531,16.905,55.282,-23.24,
61037320,-0.014,0.165,-0.428,-10.482,24.01,-28.542,
61037330,0.043,0.355,-0.305,-59.762,-7.752,-28.14,
61037340,-0.015,0.3,-0.152,-123.83,-43.172,-19.355,
61037350,-0.077,0.259,0.009,-149.432,-75.46,-3.062,
61037360,-0.065,0.245,0.126,-153.877,-102.672,16.607,
61037370,-0.036,0.238,0.187,-146.912,-122.955,40.915,
61037380,-0.04,0.26,0.219,-128.975,-136.342,63.437,
61037390,-0.548,-0.169,0.141,-114.152,-139.93,116.515,
61037400,0.391,0.567,-1.03,-10.937,-113.942,126.14,
61037410,1.971,-0.755,-0.099,5.075,117.985,32.812,
61037420,-1.594,-1.998,1.06,102.497,-8.977,-123.795,
61037430,-0.455,-1.001,-1.997,400.855,-116.305,-323.12,
61037440,-1.39,1.997,1.205,446.04,73.85,-205.8,
61037450,1.992,-0.925,-0.618,333.515,-129.325,-231.245,
61037460,1.708,0.198,1.031,444.185,48.177,-171.22,
61037470,1.437,0.404,1.23,477.085,89.827,-101.29,
61037480,1.538,0.657,1.827,434.332,128.047,2.45,
61037490,0.467,0.279,1.985,343.892,138.652,64.557,
61037500,-0.722,0.708,1.998,191.485,103.25,79.17,
61037510,-0.551,0.191,1.768,47.127,29.102,56.175,
61037520,-0.056,0.072,1.487,-64.19,-29.295,26.477,
61037530,0.318,-0.158,1.231,-138.617,-54.53,16.082,
61037540,0.33,-0.514,1.088,-180.355,-54.32,17.937,
61037550,0.236,-0.126,1.163,-194.075,-48.807,20.807,
61037560,0.142,-0.479,1.152,-222.495,-43.872,9.747,
61037570,0.272,-0.337,1.031,-230.387,-42.437,7.437,
61037580,0.396,-0.346,0.859,-236.547,-41.912,10.185,
61037590,0.446,-0.547,0.729,-237.842,-49.735,22.207,
61037600,0.697,-0.786,0.777,-217.927,-55.457,39.847,
61037610,0.593,-0.839,0.97,-196.735,-60.62,57.785,
61037620,0.835,-1.056,1.192,-187.915,-55.177,77.927,
61037630,0.725,-1.774,1.507,-181.422,-45.517,97.58,
61037640,0.702,-1.998,1.276,-147.927,-52.325,85.33,
61037650,-0.789,-1.998,1.167,-14.035,1.697,91.14,
61037660,-1.321,-1.822,0.188,210.105,34.195,131.372,
61037670,0.414,-0.511,-1.407,316.382,44.957,174.79,
61037670,0.574,-0.278,-1.358,231.787,67.182,195.002,
61037690,0.237,-0.394,-1.109,136.325,29.33,139.405,
61037690,0.089,-0.401,-0.915,74.007,6.107,88.165,
61037710,0.186,-0.258,-0.651,17.657,-2.502,62.755,
61037710,0.209,-0.281,-0.402,-48.877,-23.852,29.47,
61037730,0.318,-0.379,-0.304,-101.202,-29.627,-0.245,
61037730,0.489,-0.363,-0.116,-111.125,-5.32,-19.215,
61037750,0.509,-0.141,-0.104,-133.175,23.24,-35.385,
61037750,0.402,-0.087,-0.089,-155.452,45.027,-55.23,
61037760,0.458,0.023,-0.101,-164.92,68.092,-69.755,
61037770,0.563,0.273,-0.14,-167.842,88.76,-79.975,
61037780,0.605,0.588,-0.173,-166.442,100.905,-97.387,
61037790,0.359,0.83,-0.239,-164.675,101.535,-112.665,
61037800,-0.352,1.296,-0.555,-175,81.935,-99.767,
61037810,0.406,1.643,0.113,-18.392,109.48,-92.802,
61037820,-1.879,-1.884,1.584,52.902,-116.27,-129.447,
61037830,1.743,-0.952,-1.997,461.842,-66.08,-36.505,
61037840,-1.299,1.997,1.273,469.087,-36.96,-79.59,
61037850,1.88,-0.513,1.037,312.602,-198.362,-136.99,
61037860,1.386,-0.497,1.649,473.567,15.085,-68.267,
61037870,1.07,0.328,1.752,429.572,47.582,-50.54,
61037880,1.375,0.535,1.854,365.155,80.885,8.417,
61037890,0.394,0.652,1.944,231.682,91.857,54.092,
61037900,-0.29,0.406,1.786,87.64,50.452,78.575,
61037910,0.126,0.294,1.678,-30.415,-16.747,86.31,
61037920,0.17,0.012,1.54,-123.41,-41.527,86.87,
61037930,-0.026,-0.168,1.417,-194.18,-41.037,79.45,
61037940,-0.097,-0.393,1.166,-243.67,-38.36,68.477,
61037950,0.068,-0.193,1.14,-257.057,-41.825,51.817,
61037960,0.028,-0.468,0.998,-281.522,-51.537,48.65,
61037970,0.125,-0.398,0.825,-269.5,-63.367,56.122,
61037980,0.169,-0.451,0.774,-259.28,-68.652,74.725,
61037990,0.524,-0.675,0.768,-249.462,-65.135,96.372,
61038000,0.578,-1.058,1.001,-234.745,-52.57,124.162,
61038010,0.126,-1.379,1.013,-213.745,-77.017,137.952,
61038010,-0.113,-1.694,1.491,-192.815,-130.042,126.98,
61038030,0.491,-1.998,1.59,-158.392,-179.287,133.997,
61038030,-1.231,-1.998,1.906,0.595,-181.072,166.932,
61038050,-0.598,-1.456,0.282,229.53,-171.57,215.215,
61038050,1.351,-0.426,-0.972,349.877,-40.495,313.337,
61038070,1.361,-0.059,-1.373,269.535,22.26,303.765,
61038070,0.931,0.251,-1.551,167.44,-10.745,179.165,
61038080,0.671,0.201,-1.136,37.292,-43.365,58.765,
61038090,0.952,-0.364,-0.614,-91.56,-58.397,-38.972,
61038100,0.995,-0.636,-0.25,-153.737,-57.33,-128.887,
61038110,0.57,-0.586,-0.046,-153.107,-34.982,-202.177,
61038120,0.153,-0.389,-0.054,-152.477,8.89,-240.345,
61038130,-0.313,-0.207,-0.128,-157.902,61.39,-248.167,
61038140,-1.136,0.05,-0.031,-158.235,82.022,-238.962,
61038150,-1.759,0.128,0.022,-164.22,62.317,-207.795,
61038160,-1.963,0.098,0.109,-169.54,27.877,-148.312,
61038170,-1.83,-0.06,-0.056,-172.707,-10.762,-65.362,
61038180,-1.352,-0.033,0.161,-84.665,-27.685,9.345,
61038190,-0.79,-0.244,-0.802,-48.737,-18.777,29.697,
61038200,1.703,-1.962,1.204,-47.932,112.052,-9.73,
61038210,0.887,-1.998,-0.341,193.83,20.125,-288.925,
61038220,-1.714,0.972,-0.734,475.702,95.62,-317.135,
61038230,1.683,1.233,1.396,343.087,145.057,-200.742,
61038240,1.953,-0.741,0.32,378.857,48.195,-122.78,
61038250,1.858,0.534,0.989,462.752,120.54,-37.677,
61038260,1.381,-0.124,1.503,448,130.935,68.897,
61038270,0.083,0.622,1.973,388.045,122.517,133.805,
61038280,-0.829,0.711,1.998,245.962,88.865,139.947,
61038290,-0.906,0.369,1.948,93.397,36.855,79.117,
61038300,-0.309,0.149,1.649,-37.73,-16.782,21.77,
61038310,0.262,-0.088,1.312,-129.377,-58.082,3.01,
61038320,0.314,-0.395,1.155,-180.6,-80.867,12.967,
61038330,0.199,-0.179,1.181,-199.08,-99.172,30.187,
61038340,0.179,-0.365,1.166,-227.745,-116.637,30.607,
61038350,0.271,-0.227,1.011,-248.465,-129.972,36.557,
61038360,0.345,-0.41,0.852,-262.202,-137.13,49.017,
61038370,0.548,-0.443,0.814,-262.972,-135.17,66.202,
61038380,0.693,-0.683,1.029,-255.972,-117.617,86.45,
61038390,0.951,-1.424,1.093,-240.572,-98.07,113.837,
61038400,0.438,-1.929,1.095,-196.63,-86.695,116.392,
61038410,-0.197,-1.998,1.868,-134.085,-140.525,72.082,
61038420,-1.966,-1.998,1.903,28.297,-200.147,172.655,
61038420,-1.455,-1.479,-0.454,276.71,-106.417,349.965,
61038440,1.192,-0.511,-1.607,340.182,-103.74,393.977,
61038440,1.998,-1.044,-1.475,211.522,-39.725,360.535,
61038450,1.58,-1.034,-0.996,128.975,7.315,244.667,
61038460,1.094,-0.488,-0.934,104.912,42.945,97.002,
61038470,0.917,-0.143,-1.006,48.772,89.092,4.06,
61038480,0.714,-0.022,-0.886,-25.9,122.045,-64.942,
61038490,0.336,-0.162,-0.543,-98.665,141.592,-122.465,
61038500,0.123,-0.274,-0.123,-142.047,154.507,-163.38,
61038510,0.104,-0.116,0.182,-159.407,172.077,-190.627,
61038520,-0.158,0.141,0.32,-174.107,183.295,-215.477,
61038530,-1.064,0.455,0.434,-181.475,154.595,-233.73,
61038540,-1.608,0.752,0.515,-177.852,91.07,-218.907,
61038550,-1.338,1.227,0.46,-173.04,43.26,-151.34,
61038560,-1.093,1.149,0.244,-185.937,26.022,-37.922,
61038570,-0.595,1.901,-0.084,-83.247,23.047,49.017,
61038580,1.125,-0.058,0.388,-88.97,138.565,-13.142,
61038590,1.383,-1.998,-0.832,158.847,-217.14,-404.355,
61038600,-1.756,0.871,-0.24,316.925,89.74,-229.932,
61038610,1.385,0.629,-0.561,334.705,-66.01,-215.11,
61038620,1.797,-1.548,0.644,346.272,2.362,-117.127,
61038630,1.338,1.207,1.209,476.787,92.732,-39.655,
61038640,1.545,-0.212,1.635,427.787,91,116.9,
61038650,0.106,0.685,1.986,350.84,48.65,205.887,
61038660,-0.277,0.698,1.998,201.967,-2.38,227.605,
61038670,-0.495,0.407,1.945,52.202,-41.772,183.96,
61038680,-0.515,0.143,1.728,-70.98,-48.107,110.687,
61038690,-0.273,-0.174,1.357,-164.377,-34.842,38.185,
61038700,0.017,-0.401,1.003,-208.582,-28.437,-3.115,
61038710,0.203,-0.546,0.836,-214.882,-33.617,-17.15,
61038720,0.332,-0.526,0.798,-204.347,-46.812,-11.165,
61038730,0.31,-0.579,0.742,-194.757,-63.892,4.637,
61038740,0.304,-0.607,0.757,-184.87,-79.992,22.015,
61038750,0.3,-0.571,0.814,-175.332,-102.55,40.792,
61038760,0.295,-0.697,1.062,-165.252,-131.635,57.522,
61038760,0.236,-0.886,1.071,-146.212,-180.617,64.505,
61038780,0.484,-1.227,0.62,-129.482,-220.185,68.565,
61038780,0.279,-1.817,0.791,-126.787,-234.307,51.677,
61038800,-0.492,-1.998,1.406,-99.155,-234.535,74.987,
61038800,-1.998,-1.998,1.93,92.137,-192.01,220.307,
61038820,-0.879,-1.73,-0.188,392.542,-137.987,375.112,
61038820,1.757,-0.762,-1.318,461.825,-16.992,459.742,
61038830,1.548,-0.374,-1.507,383.425,24.5,448.682,
61038840,0.772,-0.017,-1.072,241.342,0.175,324.975,
61038850,0.947,-0.096,-1.131,114.747,-16.887,175.752,
61038860,1.386,0.18,-1.009,30.922,28.595,75.81,
61038870,1.04,0.197,-0.554,-69.667,62.125,-11.865,
61038880,0.623,-0.16,-0.291,-138.512,76.492,-110.39,
61038890,0.393,0.014,-0.261,-144.847,109.165,-168.717,
61038900,0.021,0.513,-0.284,-140.892,150.885,-182.665,
61038910,-0.539,0.724,-0.169,-162.487,162.767,-186.305,
61038920,-1.472,1.077,-0.441,-174.265,140.822,-150.045,
61038930,-1.717,0.083,1.994,-65.52,85.662,-181.475,
61038940,-0.025,-1.991,0.811,-37.502,-113.225,-222.302,
61038950,0.664,-0.927,-1.739,321.93,48.072,-212.94,
61038960,-0.084,1.994,1.18,425.215,-43.242,-222.565,
61038970,1.998,-0.995,0.607,263.585,-50.505,-99.137,
61038980,1.425,-0.26,1.122,367.955,4.48,-9.677,
61038990,1.428,0.271,1.727,361.812,25.252,69.877,
61039000,0.106,0.434,1.927,282.327,25.112,147.262,
61039010,-0.261,0.53,1.998,146.65,-6.772,157.587,
61039020,-0.168,0.401,1.949,-0.42,-37.24,121.17,
61039030,-0.052,0.12,1.713,-129.447,-48.755,76.65,
61039040,-0.005,-0.226,1.359,-217.542,-41.877,46.217,
61039050,0.215,-0.126,1.071,-249.41,-35.175,22.295,
61039060,0.238,-0.475,0.865,-273.49,-33.127,20.405,
61039070,0.336,-0.352,0.748,-262.395,-33.512,30.73,
61039080,0.312,-0.471,0.647,-260.697,-37.887,44.292,
61039090,0.471,-0.585,0.647,-252.927,-37.432,59.01,
61039100,0.67,-0.823,0.782,-240.992,-26.757,76.335,
61039110,0.733,-1.211,1.082,-212.485,-18.2,88.532,
61039120,0.825,-1.664,1.054,-171.692,-19.495,81.48,
61039130,0.537,-1.993,1.11,-121.467,-17.062,51.45,
61039140,0.653,-1.756,0.763,-37.397,10.482,35.91,
61039140,-0.57,-0.867,0.488,82.267,92.47,70.052,
61039160,-0.211,-0.647,0.629,169.872,71.19,85.522,
61039160,1.111,-0.147,-0.916,200.497,54.757,81.62,
61039170,1.48,0.049,-0.985,136.99,112.402,74.777,
61039180,0.812,0.238,-0.826,69.317,85.417,-25.235,
61039190,0.384,-0.118,-0.273,-21.245,64.417,-115.465,
61039200,0.192,-0.22,-0.073,-56.35,30.432,-177.73,
61039210,-0.112,0.185,-0.056,-51.887,6.317,-207.48,
61039220,-0.425,0.417,-0.111,-51.537,0,-196.665,
61039230,-0.482,0.636,-0.19,-44.677,0.385,-162.33,
61039240,-0.512,0.622,-0.143,-37.66,8.575,-110.057,
61039250,-0.489,0.864,-0.562,-9.257,12.232,-32.112,
61039260,0.664,-1.125,-1.016,50.785,90.37,-56.542,
61039270,-1.998,-1.998,0.439,76.79,4.165,-14.91,
61039280,-0.348,0.3,-0.315,409.78,-119.437,-90.107,
61039290,1.998,1.996,1.034,440.002,-80.832,-129.167,
61039300,0.402,-1.263,1.59,312.48,-15.575,-40.11,
61039310,1.111,0.555,1.546,412.16,53.375,-36.382,
61039320,1.268,0.303,1.773,345.642,91.472,-12.617,
61039330,0.43,0.503,1.822,219.66,96.32,21,
61039340,-0.209,0.4,1.714,86.187,57.61,41.125,
61039350,-0.385,0.042,1.487,-16.24,0.612,36.4,
61039360,0.017,-0.141,1.246,-90.055,-36.82,14.77,
61039370,0.167,-0.231,1.161,-137.235,-51.24,0.035,
61039380,0.366,-0.236,1.15,-170.747,-55.317,-4.707,
61039390,0.344,-0.284,1.137,-201.495,-55.702,-2.905,
61039400,0.226,-0.46,1.023,-226.152,-46.655,-4.445,
61039410,0.183,-0.366,0.899,-212.835,-42.665,-3.307,
61039420,0.16,-0.486,0.815,-221.042,-44.17,-20.947,
61039430,0.198,-0.624,0.8,-222.862,-52.36,-18.48,
61039440,0.284,-0.441,0.923,-214.112,-63.332,-7.997,
61039450,0.425,-0.468,1.026,-220.832,-84.192,3.727,
61039460,0.307,-0.929,1.201,-225.032,-114.852,7.122,
61039470,0.2,-1.272,1.023,-209.702,-150.01,-18.935,
61039480,0.227,-1.587,1.021,-188.527,-133.787,-51.607,
61039490,0.624,-1.993,0.279,-147.385,-43.522,-85.505,
61039500,-1.301,-1.992,0.254,-51.065,84.472,-84.49,
61039510,-1.921,-1.237,0.079,19.267,163.747,-75.355,
61039510,-0.687,-0.756,-0.033,23.8,141.015,-64.977,
61039530,-0.269,-1.048,-0.213,5.652,152.897,-36.172,
61039530,-0.863,-0.318,-0.078,22.12,153.055,-19.477,
61039550,-0.986,0.064,0.065,1.697,137.34,10.902,
61039550,-0.699,-0.03,0.201,-28.49,115.657,58.642,
61039570,-0.372,0.233,0.301,-33.075,104.702,100.117,
61039570,-0.151,0.776,0.307,-25.917,103.11,129.027,
61039580,-0.066,1.286,0.191,-21.542,86.87,140.647,
61039590,0.034,1.654,0.134,-21.175,62.317,144.952,
61039600,0.423,0.829,0.002,-17.605,57.277,140.612,
61039610,1.998,-1.812,0.638,-38.22,-33.39,-127.155,
61039620,-0.668,-1.881,-0.653,228.882,-86.362,-458.587,
61039630,0.046,1.793,0.777,352.415,-21.98,-283.955,
61039640,1.998,-0.09,0.228,313.197,-5.775,-102.672,
61039650,1.028,-0.72,0.971,348.565,10.517,-1.067,
61039660,1.541,0.705,1.548,396.602,41.842,97.457,
61039670,-0.014,0.223,1.787,317.922,45.552,145.355,
61039680,-0.376,0.348,1.936,204.085,32.97,139.37,
61039690,-0.519,0.356,1.957,74.375,11.9,87.43,
61039700,-0.138,0.26,1.833,-56.787,-12.302,37.415,
61039710,0.158,0.066,1.628,-171.027,-26.897,9.765,
61039720,0.344,-0.082,1.371,-249.9,-32.147,5.46,
61039730,0.454,-0.206,1.126,-296.292,-37.485,12.582,
61039740,0.347,-0.385,0.749,-320.057,-37.327,32.48,
61039750,0.505,0.016,0.912,-290.517,-33.197,59.08,
61039760,0.079,-0.427,0.708,-316.295,-39.882,50.995,
61039770,0.179,-0.692,0.81,-315.437,-42.56,72.117,
61039780,0.553,-1.034,1.128,-297.412,-39.585,73.115,
61039790,0.622,-1.641,1.396,-260.995,-43.645,64.802,
61039800,0.694,-1.97,1.137,-203.052,-33.127,31.727,
61039810,0.739,-1.957,0.6,-126.63,6.16,-12.6,
61039820,0.094,-1.302,0.476,-22.575,86.52,-15.067,
61039830,-1.513,-1.175,1.155,80.15,91.717,8.61,
61039830,-0.196,-0.336,-0.488,153.282,52.797,70.315,
61039850,1.598,0.199,-0.34,136.99,134.487,130.935,
61039850,1.538,0.2,-0.545,77.175,122.307,58.59,
61039870,0.862,0.386,-0.476,48.79,122.325,-65.345,
61039870,0.307,0.704,-0.346,13.597,124.722,-137.322,
61039890,0.074,0.881,-0.059,-40.652,89.862,-188.335,
61039890,0.002,0.755,0.224,-81.655,50.032,-221.602,
61039910,-0.16,0.715,0.391,-80.307,28.49,-231.84,
61039910,-0.395,0.938,0.37,-55.895,22.435,-221.987,
61039920,-0.599,0.752,0.299,-37.17,37.257,-180.932,
61039930,-1.034,1.187,0,-26.53,63.315,-68.372,
61039940,0.603,-0.222,-1.552,41.755,174.405,-80.92,
61039950,-0.82,-1.998,0.136,-22.242,196.577,-160.317,
61039960,-1.199,1.25,0.039,306.005,4.13,-269.622,
61039970,1.583,0.634,-0.12,280.787,-20.457,-156.852,
61039980,1.664,-1.931,0.679,238.385,-40.915,-59.867,
61039990,0.939,0.991,0.79,422.677,37.992,-36.627,
61040000,1.332,0.139,1.438,388.482,69.387,41.72,
61040010,0.293,-0.241,1.574,345.397,80.202,95.777,
61040020,-0.156,0.593,1.872,257.145,73.92,101.85,
61040030,-0.513,0.415,1.992,136.745,56.245,61.53,
61040040,-0.13,0.279,1.816,1.575,13.93,18.672,
61040050,0.277,0.093,1.622,-116.077,-30.152,8.067,
61040060,0.294,-0.036,1.51,-205.047,-51.467,15.82,
61040070,0.26,-0.119,1.348,-266.56,-63.77,23.082,
61040080,0.342,-0.086,1.141,-310.555,-67.392,28.595,
61040090,0.258,-0.24,1.003,-341.407,-63.927,41.317,
61040100,0.181,-0.321,0.666,-332.045,-55.317,77.14,
61040110,0.384,-0.327,0.755,-326.41,-64.995,42.822,
61040120,0.137,-1.058,1.168,-335.142,-71.925,59.867,
61040130,0.553,-1.47,1.265,-283.692,-86.66,30.835,
61040140,0.419,-1.882,1.178,-245.017,-81.445,7.875,
61040150,0.54,-1.998,0.551,-175.77,-21.735,-15.89,
61040160,-0.518,-1.494,0.897,-55.562,98.595,-15.137,
61040170,-1.734,-1.523,1.514,45.815,146.405,31.587,
61040180,-0.75,-0.456,-0.079,170.135,53.567,67.585,
61040190,1.428,0.172,-0.082,179.637,143.342,142.66,
61040200,1.164,0.449,-0.457,139.037,130.76,111.282,
61040210,0.779,0.967,-0.504,102.655,118.02,2.24,
61040220,0.541,1.131,-0.453,33.617,99.697,-79.152,
61040230,0.451,0.994,-0.107,-39.882,64.067,-147.63,
61040240,0.173,0.572,0.162,-84.105,66.167,-182.665,
61040250,-0.527,0.157,0.323,-71.26,94.202,-172.13,
61040260,-1.02,1.233,0.41,-26.81,112.21,-104.16,
61040260,-0.734,1.164,0.359,9.415,100.607,-122.99,
61040280,-1.041,0.167,-0.382,-13.44,76.037,-62.002,
61040280,1.732,-1.386,-0.118,-14.717,299.67,-41.807,
61040300,-1.625,-1.998,-0.423,-16.222,-95.375,-387.887,
61040300,-0.997,1.228,1.084,276.29,-20.527,-422.747,
61040320,1.998,1.383,0.31,279.475,-29.575,-258.09,
61040320,1.69,-1.989,0.3,171.237,-17.5,-159.827,
61040330,1.214,0.328,0.636,366.327,36.82,-43.347,
61040340,1.692,0.189,1.156,366.922,64.207,69.807,
61040350,0.385,0.193,1.653,319.707,64.032,139.807,
61040360,-0.667,0.221,1.926,226.642,52.08,145.11,
61040370,-0.685,0.495,1.977,95.602,21.332,90.247,
61040380,-0.239,0.224,1.809,-37.31,-12.302,29.295,
61040390,0.168,0.174,1.7,-151.445,-40.11,-1.032,
61040400,0.447,-0.019,1.469,-243.145,-51.345,-4.34,
61040410,0.497,-0.09,1.23,-296.905,-51.8,5.11,
61040420,0.479,-0.347,0.974,-316.015,-45.657,30.222,
61040430,0.653,0.02,0.751,-309.26,-31.885,33.197,
61040440,0.546,-0.6,0.742,-329.332,-15.172,55.615,
61040450,1.033,-0.903,1.019,-298.655,18.725,71.522,
61040460,1.258,-1.444,1.05,-260.557,67.725,90.965,
61040470,0.82,-1.659,1.048,-198.45,98.717,79.975,
61040480,0.781,-1.982,0.967,-126.122,130.777,26.687,
61040490,-0.186,-1.746,1.815,-18.007,179.165,-2.485,
61040500,-0.982,-0.977,0.332,145.897,81.795,-14.717,
61040510,1.201,0.536,-1.269,219.94,71.505,21.105,
61040520,1.213,0.251,-0.958,113.82,88.462,67.742,
61040530,0.967,-0.542,-0.822,45.71,37.905,-18.462,
61040540,0.701,-0.458,-0.759,42.315,21.455,-113.645,
61040550,0.224,0.066,-0.759,25.567,-2.065,-151.532,
61040560,-0.148,0.128,-0.579,-19.967,-44.975,-183.225,
61040570,-0.319,-0.16,-0.361,-70,-87.57,-186.27,
61040580,-0.33,-0.116,-0.269,-89.127,-111.09,-169.942,
61040580,-0.399,0.227,-0.327,-94.045,-116.2,-152.32,
61040600,-0.517,0.154,-0.238,-110.862,-98.14,-121.17,
61040600,-0.873,0.956,-0.602,-139.422,-58.24,-34.58,
61040620,-0.1,1.327,-0.98,-49.98,-14.682,-28.717,
61040620,-0.238,-1.73,1.714,-81.882,159.197,50.347,
61040640,-1.718,-1.112,-1.934,387.327,35.56,-67.445,
61040640,0.941,1.961,1.223,406.035,36.75,-217.175,
61040660,0.585,-0.965,1.549,298.007,22.54,-81.322,
61040660,1.728,0.757,1.343,436.782,92.837,-62.93,
61040670,1.354,0.194,1.613,391.947,142.625,-17.027,
61040680,0.387,0.755,1.964,281.907,156.765,22.33,
61040690,-0.384,0.428,1.952,136.955,105.472,55.86,
61040700,-0.673,0.2,1.874,19.39,20.3,55.615,
61040710,-0.284,0.005,1.618,-82.74,-57.837,35.402,
61040720,0.212,-0.07,1.377,-160.037,-108.255,20.475,
61040730,0.352,-0.228,1.134,-207.427,-144.322,23.642,
61040740,0.284,-0.314,1.065,-236.932,-154.42,33.757,
61040750,0.142,-0.345,0.981,-254.38,-163.152,38.937,
61040760,0.014,-0.291,1.03,-254.292,-175,46.515,
61040770,-0.076,-0.679,1.269,-242.34,-227.605,27.842,
61040780,-0.218,-1.277,1.099,-219.432,-316.785,25.445,
61040790,0.305,-1.313,0.678,-183.837,-347.952,-4.305,
61040800,-0.236,-1.817,1.35,-141.925,-343.542,-5.565,
61040810,-1.715,-1.998,1.696,2.257,-424.655,64.12,
61040820,-1.859,-1.998,1.781,221.357,-187.18,326.147,
61040830,-1.426,-1.925,-0.263,469.857,-171.29,377.597,
61040840,1.707,-1.197,-1.747,471.205,-110.46,301.507,
61040850,1.897,-1.089,-1.894,383.022,56.507,324.362,
61040860,0.815,-0.598,-1.905,287.42,112.945,242.392,
61040870,0.13,-0.167,-1.616,163.187,125.58,148.715,
61040880,0.101,-0.605,-1.009,27.562,111.965,113.89,
61040890,0.409,-0.884,-0.568,-52.937,83.002,70.157,
61040900,0.454,-0.636,-0.292,-77.84,84.28,36.89,
61040910,0.179,-0.228,-0.111,-99.505,102.375,19.197,
61040920,-0.062,-0.064,-0.023,-123.777,114.03,7.122,
61040930,-0.111,0.332,0.063,-127.872,113.82,2.8,
61040940,-0.074,0.991,-0.102,-128.572,106.312,7.612,
61040950,-0.185,1.751,-0.377,-127.487,100.117,15.155,
61040960,-0.176,0.804,1.601,-135.642,35.437,-19.95,
61040970,1.998,-1.998,0.335,69.755,-168.805,-311.78,
61040980,0.527,-1.998,-1.127,447.002,-7.577,-341.232,
61040990,1.84,0.304,1.512,394.24,72.03,-163.292,
61041000,1.903,0.763,1.226,449.102,88.217,-77.262,
61041010,1.287,0.388,1.703,434.28,137.655,29.662,
61041010,-0.327,0.934,1.998,301.98,136.902,71.942,
61041030,-0.606,0.527,1.994,134.225,78.225,60.34,
61041030,-0.367,0.27,1.704,-8.417,-2.31,28.56,
61041050,0.223,-0.099,1.279,-104.282,-57.05,12.827,
61041050,0.348,-0.201,1.152,-154.507,-85.995,19.075,
61041070,0.436,-0.329,1.128,-189.717,-101.395,32.742,
61041070,0.319,-0.27,1.213,-226.047,-116.112,44.765,
61041080,0.148,-0.324,1.153,-262.342,-134.47,50.12,
61041090,0.092,-0.633,0.761,-283.552,-152.652,51.257,
61041100,0.376,-0.206,0.913,-250.425,-164.762,54.74,
61041110,0.419,-0.446,1.048,-263.025,-178.395,56.42,
61041120,0.5,-0.863,1.511,-265.422,-219.065,76.37,
61041130,0.73,-1.458,1.155,-242.2,-282.38,87.657,
61041140,1.005,-1.981,0.99,-206.447,-281.89,77.14,
61041150,0.896,-1.998,0.735,-130.462,-221.97,60.812,
61041160,-0.421,-1.998,0.402,80.937,-107.817,72.887,
61041170,-0.191,-1.361,-0.776,328.93,16.537,111.195,
61041180,0.35,-0.018,-1.566,374.99,67.55,173.075,
61041190,0.972,0.091,-1.6,254.52,76.195,160.702,
61041200,1.079,-0.066,-1.714,162.82,75.512,116.165,
61041210,0.956,0.486,-1.648,87.885,52.36,40.95,
61041220,0.923,0.426,-1.282,-30.712,19.425,-32.165,
61041230,1.113,-0.213,-1.009,-138.127,-3.885,-87.237,
61041240,1.142,-0.446,-0.735,-185.22,1.33,-135.047,
61041250,0.795,-0.309,-0.678,-202.335,12.232,-181.317,
61041260,0.278,-0.12,-0.712,-217.752,26.092,-201.74,
61041270,0.025,-0.068,-0.663,-235.007,38.272,-187.6,
61041280,-0.235,-0.041,-0.6,-250.127,42.665,-154.682,
61041290,-0.573,0.095,-0.821,-249.742,42.122,-104.755,
61041300,-1.991,-1.998,1.998,-166.792,171.22,47.355,
61041310,-1.975,-1.824,0.367,384.527,254.047,167.912,
61041320,1.638,1.336,-0.762,517.457,-110.635,-61.932,
61041330,-0.281,-0.092,1.559,331.695,154.7,-63.14,
61041330,-0.446,0.383,1.286,403.62,70.297,-63.297,
61041350,1.793,-0.428,0.924,376.285,123.27,-27.667,
61041350,0.59,0.476,1.629,313.915,130.812,0.752,
61041370,0.078,0.181,1.811,220.587,113.61,35.752,
61041370,-0.187,0.3,1.799,102.935,63.122,36.715,
61041390,-0.225,0.147,1.721,-5.915,0.665,24.64,
61041390,0.083,0.095,1.623,-103.32,-53.357,12.827,
61041410,0.388,-0.022,1.393,-190.365,-92.417,12.372,
61041410,0.545,-0.043,1.25,-250.46,-105,18.515,
61041420,0.513,-0.355,0.805,-306.862,-103.477,31.745,
61041430,0.589,-0.046,0.899,-282.66,-100.082,52.185,
61041440,0.496,-0.419,0.699,-312.235,-100.957,64.102,
61041450,0.396,-0.479,0.679,-310.73,-96.932,89.915,
61041460,0.507,-0.538,0.813,-310.31,-90.282,103.705,
61041470,0.616,-1.095,1.22,-309.032,-85.837,111.107,
61041480,0.763,-1.78,1.387,-268.187,-74.865,101.955,
61041490,0.897,-1.997,1.245,-216.125,-72.257,76.825,
61041500,0.956,-1.937,0.53,-125.457,-19.827,64.767,
61041510,-0.53,-1.255,1.305,17.85,70.945,71.837,
61041520,-1.057,-0.969,1.146,183.33,93.152,115.517,
61041530,0.649,-0.023,-0.355,276.342,78.33,176.627,
61041540,1.815,0.172,-0.327,246.557,139.965,202.352,
61041550,1.821,0.363,-0.432,223.352,146.65,137.917,
61041560,1.413,0.64,-0.325,188.842,170.87,56.315,
61041570,1.003,0.613,-0.396,145.757,165.287,-8.172,
61041580,0.672,0.736,-0.542,114.975,112.525,-74.62,
61041590,0.363,0.797,-0.627,70.735,40.477,-127.4,
61041600,0.205,0.536,-0.462,7.367,-19.127,-148.33,
61041610,0.26,0.112,-0.364,-32.41,-49.577,-151.095,
61041620,-0.057,-0.036,-0.164,-39.06,-49.875,-128.152,
61041630,-0.719,-0.118,-0.137,-38.395,-59.307,-86.747,
61041640,-1.418,-0.1,-0.325,-28.595,-87.062,-26.075,
61041650,-0.091,-0.851,-1.242,12.652,-20.055,70.455,
61041660,-1.941,-1.998,0.433,-3.237,-3.92,68.67,
61041670,-1.001,0.253,-0.607,457.747,-177.887,-90.562,
61041680,1.864,1.997,1.032,440.755,-94.622,-175.927,
61041690,1.421,-0.387,1.594,300.755,-52.272,-59.307,
61041700,0.68,-1.003,1.243,372.785,55.212,-61.407,
61041710,1.801,0.676,1.57,377.247,113.26,-40.162,
61041720,0.872,-0.016,1.583,262.745,150.202,11.217,
61041730,-0.381,0.531,1.781,141.295,120.435,51.485,
61041740,-0.763,0.36,1.731,35.332,45.867,59.57,
61041750,-0.326,0.064,1.547,-61.092,-29.995,43.89,
61041760,-0.032,0.027,1.516,-138.88,-78.89,31.972,
61041760,0.215,-0.02,1.43,-210.052,-105.437,25.795,
61041780,0.687,-0.192,1.289,-274.82,-107.555,25.322,
61041780,0.345,-0.482,1.081,-301.805,-80.64,35.962,
61041800,0.548,0.066,0.819,-292.425,-68.88,33.04,
61041800,0.394,-0.486,0.71,-314.265,-67.987,47.985,
61041820,0.522,-0.608,0.92,-290.832,-64.89,66.237,
61041820,0.761,-1.023,0.904,-268.502,-62.072,82.197,
61041830,0.618,-1.433,0.816,-224.77,-35.7,82.46,
61041840,0.435,-1.583,0.82,-179.375,-11.147,67.095,
61041850,-0.05,-1.641,1.089,-122.832,-10.115,58.187,
61041860,-1.25,-1.707,1.737,-28.315,-23.642,98.472,
61041870,-0.295,-0.836,0.377,132.107,-3.57,191.8,
61041880,1.347,0.763,-0.597,222.302,26.32,216.457,
61041890,1.96,0.987,-0.704,120.89,23.94,156.712,
61041900,1.633,0.51,-0.543,8.417,45.57,35.052,
61041910,0.67,-0.298,-0.105,-23.38,38.815,-78.47,
61041920,0.817,0.53,-0.061,-17.622,42.542,-131.967,
61041930,0.524,0.453,-0.154,-59.08,29.102,-240.922,
61041940,0.098,0.244,-0.261,-77.35,44.03,-298.445,
61041950,-0.603,0.148,-0.024,-84.385,80.57,-265.947,
61041960,-1.228,0.267,0.23,-74.847,96.39,-176.942,
61041970,-0.982,0.566,0.314,-49.385,78.487,-126.962,
61041980,-1.495,-1.075,0.287,-44.975,56.805,-90.02,
61041990,1.389,-1.998,-1.445,64.295,196.77,-120.61,
61042000,-1.258,1.203,0.534,399.017,88.602,-199.552,
61042010,1.221,1.274,0.696,324.397,31.972,-111.825,
61042020,1.558,-1.932,0.887,216.685,16.502,-68.547,
61042030,0.736,0.461,1.12,402.01,63.997,-15.067,
61042040,1.543,-0.119,1.565,362.775,94.29,48.265,
61042050,-0.111,0.349,1.795,296.38,100.275,103.985,
61042060,-0.561,0.477,1.879,172.935,72.45,104.475,
61042070,-0.615,0.375,1.86,52.447,14.087,65.642,
61042080,0.017,0.188,1.652,-66.92,-48.807,38.412,
61042080,0.402,0.068,1.52,-164.062,-84.91,33.145,
61042100,0.401,-0.305,1.305,-232.4,-85.26,40.442,
61042100,0.512,-0.223,1.144,-260.207,-81.41,46.112,
61042120,0.598,-0.433,0.911,-272.212,-78.26,64.942,
61042120,0.508,-0.572,0.734,-249.497,-58.24,90.265,
61042140,0.485,-0.834,0.731,-212.765,-19.915,110.32,
61042140,0.298,-0.833,0.649,-167.737,13.037,115.237,
61042160,-0.071,-0.957,0.735,-137.637,10.447,94.64,
61042160,-0.015,-1.325,0.79,-111.527,-14.14,66.115,
61042170,0.433,-1.499,0.652,-67.637,-30.117,52.325,
61042180,-0.236,-1.296,1.335,-10.587,-20.492,65.222,
61042190,-1.998,-1.276,1.747,100.292,-50.155,117.267,
61042200,-0.886,-0.529,-0.113,247.782,-96.897,174.93,
61042210,1.109,-0.155,-0.365,272.825,-22.715,257.967,
61042220,1.588,-0.48,-0.709,218.382,4.497,213.955,
61042230,1.116,-0.306,-0.65,176.942,33.075,91.892,
61042240,0.737,-0.122,-0.575,130.077,45.587,-23.782,
61042250,0.751,-0.35,-0.664,69.912,43.365,-122.342,
61042260,0.512,-0.461,-1.024,15.312,38.727,-200.427,
61042270,-0.112,-0.414,-1.086,-45.465,24.745,-260.907,
61042280,-0.89,-0.63,-0.983,-125.107,-27.3,-299.897,
61042290,-0.899,-0.895,-0.68,-199.657,-63.035,-288.155,
61042300,0.317,-0.562,-0.245,-243.617,-19.53,-212.135,
61042310,-1.998,-1.899,1.353,-134.82,61.985,-118.422,
61042320,-0.523,1.601,-0.899,397.775,-65.835,-170.52,
61042330,1.926,-0.704,0.498,186.2,33.127,-104.265,
61042340,-0.837,-0.189,1.124,242.077,106.627,-90.457,
61042350,1.503,0.333,1.358,281.75,88.165,-11.742,
61042360,0.934,0.103,1.413,215.897,106.802,45.587,
61042370,-0.352,0.278,1.679,133.157,91.07,85.697,
61042380,-0.698,0.114,1.556,40.862,35.297,74.217,
61042390,-0.069,-0.055,1.311,-34.475,-14.595,38.64,
61042400,0.397,-0.274,1.123,-86.607,-35.892,19.46,
61042410,0.396,-0.453,0.978,-112.805,-36.4,22.085,
61042420,0.334,-0.532,0.956,-124.705,-25.952,25.287,
61042430,0.19,-0.616,1.037,-127.05,-18.2,29.75,
61042440,0.325,-0.23,1.152,-118.702,-16.03,30.31,
61042450,0.243,-0.606,1.145,-137.707,-20.335,36.19,
61042460,0.162,-0.558,1.1,-126.84,-29.242,46.777,
61042470,0.108,-0.615,0.978,-117.512,-41.877,49.875,
61042480,0.351,-0.709,0.792,-112.997,-41.51,54.057,
61042490,0.662,-0.718,1.036,-108.272,-32.392,57.89,
61042500,0.246,-0.959,1.366,-113.225,-34.16,63.875,
61042510,-0.337,-1.614,1.563,-108.29,-77.945,43.435,
61042510,-0.405,-1.998,0.759,-51.905,-96.337,19.32,
61042530,-0.311,-1.784,-0.379,104.825,-51.17,40.705,
61042530,0.435,-0.891,-1.222,194.337,30.222,60.165,
61042550,0.547,-0.573,-1.605,143.762,46.252,27.212,
61042550,0.365,-0.355,-1.591,56.192,29.785,-52.062,
61042570,0.317,-0.085,-1.402,-31.657,28.787,-122.237,
61042570,0.331,-0.182,-1.114,-126.91,34.177,-164.692,
61042580,0.161,-0.452,-0.69,-210.332,31.78,-198.975,
61042590,-0.114,-0.741,-0.387,-270.095,19.057,-221.375,
61042600,0.576,0.301,-0.63,-285.425,29.977,-205.695,
61042610,-1.825,-1.862,1.99,-259.07,125.597,-98.49,
61042620,-1.765,0.18,1.837,160.912,82.862,-15.365,
61042630,0.264,1.984,-0.582,437.237,-107.012,-47.88,
61042640,1.843,-1.631,0.569,129.062,-15.102,5.372,
61042650,-0.341,-0.465,0.475,312.69,41.125,-6.037,
61042660,0.829,0.232,1.494,351.137,85.96,26.897,
61042670,0.435,0.032,1.476,299.74,104.16,41.947,
61042680,-0.267,0.285,1.722,215.722,105.612,33.407,
61042690,-0.095,0.166,1.559,113.26,65.292,9.975,
61042700,-0.019,0.176,1.461,28.227,18.165,6.282,
61042710,0.07,0.005,1.365,-45.587,-25.41,9.1,
61042720,0.231,-0.073,1.318,-109.34,-53.392,9.835,
61042730,0.422,-0.165,1.244,-165.865,-65.31,10.325,
61042740,0.579,-0.313,1.117,-211.067,-71.697,18.742,
61042750,0.477,-0.385,1.041,-235.025,-65.905,33.092,
61042760,0.289,-0.756,0.905,-236.092,-56.49,53.182,
61042770,0.612,-0.005,0.938,-192.727,-53.935,59.78,
61042780,0.299,-0.604,0.928,-216.16,-46.917,66.762,
61042790,0.359,-0.944,0.931,-191.73,-31.412,88.917,
61042800,0.287,-1.048,0.897,-161.192,-22.172,92.837,
61042810,0.103,-1.502,0.907,-129.727,-39.41,70.437,
61042820,-0.584,-1.985,1.609,-85.802,-94.08,40.827,
61042830,-1.085,-1.994,0.69,24.64,-123.462,76.247,
61042830,-0.859,-1.261,0.126,168.297,-13.79,178.29,
61042850,0.097,-0.415,-0.752,195.65,-9.345,184.415,
61042850,0.974,-0.449,-0.602,139.755,1.347,155.697,
61042870,1.016,-0.557,-0.481,85.785,19.11,108.71,
61042870,0.674,-0.001,-0.588,58.257,45.447,43.89,
61042890,0.373,0.573,-0.79,9.572,65.117,-14.28,
61042890,0.167,0.599,-0.643,-73.115,69.527,-51.975,
61042910,0.059,0.341,-0.377,-151.445,72.187,-72.607,
61042910,0.002,0.636,0.011,-181.457,95.987,-76.177,
61042920,-0.306,1.157,0.192,-190.785,101.885,-79.205,
61042930,-0.917,0.117,1.571,-176.505,76.457,-53.41,
61042940,-0.614,-1.998,-0.099,28.455,-146.125,-95.515,
61042950,1.534,-1.923,-1.318,365.312,65.87,-202.807,
61042960,-1.032,1.423,1.222,298.707,-48.702,-155.365,
61042970,1.59,0.935,1.032,296.24,-32.847,-124.25,
61042980,1.447,-1.227,1.003,305.69,12.005,-52.22,
61042990,0.998,0.072,1.565,332.027,43.365,-8.715,
61043000,0.926,0.472,1.691,272.23,69.037,44.94,
61043010,-0.143,0.394,1.816,162.242,66.99,71.137,
61043020,-0.102,0.285,1.695,44.555,21.857,69.247,
61043030,0.316,0.146,1.573,-55.125,-23.485,66.57,
61043040,0.359,-0.052,1.47,-135.817,-32.217,70.437,
61043050,0.194,-0.26,1.343,-195.79,-23.117,70.875,
61043060,0.284,-0.31,1.223,-228.917,-10.237,68.407,
61043070,0.436,-0.369,1.143,-237.58,9.537,69.002,
61043080,0.277,-0.739,0.793,-224.682,44.012,84.28,
61043090,0.282,-0.359,0.857,-158.305,74.095,96.722,
61043100,0.188,-0.349,0.624,-158.865,72.03,40.442,
61043110,-0.094,-1.129,0.812,-152.25,74.97,34.807,
61043120,-0.225,-1.066,0.853,-98.385,69.877,24.552,
61043130,-0.016,-0.957,0.623,-43.89,40.005,3.885,
61043140,0.042,-1.145,0.806,-1.907,18.147,-7.035,
61043150,-0.257,-0.596,0.594,78.347,-42.245,-24.552,
61043160,0.429,0.158,-0.404,131.162,-36.89,-34.352,
61043170,0.412,0.104,-0.397,104.405,-13.02,-33.302,
61043180,0.304,-0.291,-0.243,62.877,-16.38,-70.56,
61043190,0.275,-0.253,-0.321,60.182,-9.66,-109.812,
61043200,0.17,0.084,-0.416,51.625,-1.61,-134.225,
61043210,-0.074,0.263,-0.657,18.182,-2.537,-145.67,
61043220,0.193,0.523,-0.496,-25.217,10.01,-123.637,
61043230,-1.245,-1.38,1.947,-91.927,-4.48,-43.452,
61043240,-1.88,-1.998,-0.768,82.04,-144.882,-76.912,
61043250,1.573,0.133,-0.338,359.59,-32.952,-67.69,
61043260,1.337,0.234,0.793,264.932,-61.827,-85.085,
61043260,0.205,0.157,1.748,282.695,10.255,-66.167,
61043280,1.707,0.09,1.765,313.355,84.997,-25.41,
61043280,0.843,0.745,1.803,156.782,112.717,-16.345,
61043290,-0.64,1.179,1.793,34.317,52.255,30.905,
61043300,0.134,-0.247,1.474,-61.425,-19.67,56.402,
61043310,-0.193,-0.171,1.561,-132.65,-46.935,42.787,
61043320,0.501,-0.234,1.316,-196.455,-54.285,40.512,
61043330,0.288,-0.461,1.013,-231.997,-40.862,44.047,
61043340,0.103,-0.469,0.914,-224.157,-30.485,43.032,
61043350,0.085,-0.566,0.89,-207.707,-35.087,46.34,
61043360,-0.041,-0.587,0.827,-183.89,-45.832,45.902,
61043370,-0.158,-0.976,0.847,-144.515,-61.827,50.697,
61043380,0.048,-0.354,0.838,-91.927,-88.13,25.13,
61043390,-0.223,-1.067,0.782,-116.97,-128.537,2.712,
61043400,-0.169,-1.449,0.747,-81.742,-132.492,6.982,
61043410,-0.166,-1.235,1.138,-34.317,-127.785,5.792,
61043420,-0.216,-1.008,0.835,-1.995,-105.175,38.587,
61043430,-1.284,-1.274,1.261,10.78,-26.04,97.982,
61043440,-0.912,-1.071,0.448,61.88,-27.842,88.742,
61043450,-0.329,-0.579,0.186,69.632,-34.352,81.742,
61043460,-0.045,-0.631,-0.02,30.747,-13.422,88.655,
61043470,0.219,-0.595,-0.218,6.352,34.51,82.25,
61043480,0.425,-0.356,-0.387,-14.437,98.227,77.14,
61043490,0.143,-0.155,-0.394,-48.982,136.43,72.87,
61043500,-0.111,-0.054,-0.325,-96.285,131.425,52.307,
61043510,-0.109,-0.12,-0.353,-135.117,103.95,29.732,
61043520,-0.027,0.081,-0.587,-158.655,74.06,14.052,
61043530,-0.561,-0.088,1.602,-181.842,13.51,-10.412,
61043540,0.956,-1.205,1.908,-146.51,-248.657,-143.43,
61043550,1.983,-0.452,0.137,107.555,-191.625,-268.537,
61043560,-1.023,-0.287,-0.325,189.717,105.262,-178.745,
61043570,-0.549,-1.675,0.586,157.57,1.82,-204.225,
61043580,1.983,-0.78,-0.063,234.255,-2.835,-103.232,
61043580,1.24,0.375,0.83,320.495,7.612,1.557,
61043600,0.99,-0.349,1.01,320.075,10.797,78.837,
61043600,0.885,0.167,1.522,331.975,18.97,134.715,
61043620,-0.392,0.272,1.845,252.542,40.32,134.172,
61043620,-0.761,0.291,1.823,131.565,36.907,73.307,
61043640,-0.221,0.081,1.564,11.602,6.877,1.557,
61043640,0.492,-0.047,1.283,-78.907,-25.252,-25.515,
61043660,0.639,-0.205,1.125,-138.075,-31.692,-15.102,
61043660,0.5,-0.333,1.069,-172.55,-26.285,4.567,
61043670,0.391,-0.333,1.052,-191.047,-19.915,17.92,
61043680,0.368,-0.408,1.005,-206.447,-20.37,25.147,
61043690,0.481,-0.56,0.913,-204.172,-21.105,39.9,
61043700,0.672,-0.288,0.802,-196.42,-9.467,30.73,
61043710,0.511,-0.721,0.838,-200.27,5.932,51.625,
61043720,0.808,-0.733,0.762,-179.077,28.087,69.3,
61043730,0.539,-0.834,0.803,-157.535,48.177,91.805,
61043740,0.177,-1.043,0.816,-137.48,55.387,85.137,
61043750,-0.031,-1.311,0.763,-113.015,47.11,62.387,
61043760,-0.13,-1.227,0.623,-80.622,31.43,31.71,
61043770,-0.19,-1.494,0.526,-48.947,25.847,1.487,
61043780,0.514,-1.143,-0.465,-14.945,23.205,-61.442,
61043790,0.732,0.028,-0.173,8.522,59.78,-90.895,
61043800,0.069,0.053,0.295,-31.937,72.1,-127.785,
61043810,-0.382,0.096,0.386,-27.055,64.225,-167.37,
61043820,-0.683,0.86,0.106,6.247,49,-173.197,
61043830,-0.733,1.333,0.087,2.38,32.69,-147.122,
61043840,-0.793,0.936,0.305,-23.467,45.517,-84.875,
61043850,-0.671,0.345,0.249,-10.255,57.907,-32.305,
61043860,0.561,-1.272,-0.139,15.505,126.017,-20.965,
61043870,-1.304,-1.998,-0.109,35.14,15.732,-128.922,
61043880,-0.945,-0.581,0.545,241.57,-67.427,-259.227,
61043890,1.624,1.997,0.568,327.337,-26.25,-200.48,
61043900,1.445,-0.628,1.093,231.892,8.907,-120.557,
61043910,1.109,-0.869,0.892,317.1,53.392,-47.04,
61043920,1.385,0.409,1.402,346.5,93.082,7.087,
61043930,0.335,0.298,1.691,285.127,110.705,58.345,
61043940,-0.506,0.376,1.829,184.957,98.98,55.177,
61043950,-0.428,0.357,1.711,72.677,46.392,28.017,
61043960,-0.013,0.151,1.539,-27.947,-10.64,10.937,
61043970,0.182,-0.11,1.342,-110.635,-56.612,13.055,
61043980,0.611,0.136,1.484,-179.077,-90.737,33.355,
61043980,0.339,-0.249,1.218,-232.837,-86.765,49.577,
61044000,0.316,-0.333,1.064,-260.96,-76.422,56.892,
61044000,0.329,-0.361,0.894,-273.472,-69.562,63.122,
61044010,0.217,-0.673,0.83,-263.865,-57.417,86.59,
61044020,0.722,0.067,0.754,-227.167,-44.467,73.045,
61044030,0.607,-0.886,0.828,-254.782,-17.307,93.345,
61044040,0.803,-1.176,0.748,-216.667,33.635,102.637,
61044050,0.502,-1.341,0.803,-168.945,73.867,94.272,
61044060,0.182,-1.386,0.887,-122.027,80.937,71.977,
61044070,0.113,-1.46,0.432,-75.39,92.715,58.887,
61044080,-1.116,-1.429,0.816,-27.212,115.675,86.117,
61044090,-0.564,-1.12,0.629,41.965,74.637,100.205,
61044100,0.441,0.054,-0.383,120.61,10.972,96.075,
61044110,1.768,0.27,-0.26,58.87,80.92,126.42,
61044120,1.794,0.455,-0.274,10.167,39.97,17.482,
61044130,1.514,0.588,0.164,-39.865,23.73,-134.12,
61044140,0.448,0.542,0.244,-56.507,9.257,-228.235,
61044150,-0.333,1.77,0.424,-9.082,-2.292,-258.65,
61044160,-1,1.366,0.547,-20.352,9.362,-244.755,
61044170,-1.711,1.005,0.751,-2.957,10.15,-139.265,
61044180,0.094,-0.35,-0.598,63.297,82.04,-42.28,
61044190,-0.61,-1.998,0.042,86.415,221.567,-34.947,
61044200,-1.998,-1.751,-0.638,147.087,-72.17,-220.027,
61044210,-0.14,1.971,0.837,247.572,-46.69,-216.51,
61044220,1.86,0.315,1.442,198.047,-116.742,-172.917,
61044230,0.75,-1.465,1.134,190.75,-19.582,-108.465,
61044240,1.335,1.001,1.373,288.82,17.115,-72.957,
61044250,1.125,-0.14,1.371,216.895,48.58,-3.552,
61044260,0.35,0.167,1.647,160.457,45.727,46.672,
61044270,0.048,0.177,1.766,71.872,18.707,61.88,
61044280,-0.068,0.189,1.769,-34.09,-11.865,48.265,
61044290,0.123,0.103,1.652,-134.575,-31.5,32.165,
61044300,0.271,-0.023,1.44,-212.905,-37.152,23.73,
61044310,0.41,-0.138,1.195,-262.342,-35.7,29.855,
61044320,0.515,-0.549,1.062,-288.19,-24.745,52.832,
61044330,0.84,-0.205,0.97,-278.862,-1.312,69.877,
61044330,0.975,-0.727,0.987,-282.922,43.032,92.942,
61044350,0.73,-1.217,1.298,-245.227,86.117,108.15,
61044350,0.158,-1.213,1.462,-182.42,93.345,99.347,
61044370,0.179,-1.124,0.93,-123.865,67.392,63.717,
61044370,0.283,-0.627,0.979,-69.895,79.73,56.98,
61044390,-0.896,-0.041,1.534,-12.442,54.95,64.995,
61044390,-0.715,1.243,0.474,106.435,-70.332,58.835,
61044410,1.879,0.919,-0.008,134.557,7.752,141.592,
61044410,1.942,0.104,-0.535,72.8,-16.03,98.21,
61044420,1.483,0.717,-0.274,46.952,-35.07,-62.3,
61044430,0.628,0.097,-0.294,25.812,-43.347,-203,
61044440,-0.155,-0.239,-0.373,5.477,-84.262,-252.21,
61044450,-0.66,-0.013,-0.44,-13.842,-128.292,-218.61,
61044460,-0.426,-0.133,-0.482,-21.56,-159.53,-174.982,
61044470,-0.407,-0.612,-0.329,-23.817,-178.815,-120.662,
61044480,-0.653,-1.596,0.005,0.647,-174.72,-47.705,
61044490,-1.795,-1.998,0.56,68.547,-2.642,111.65,
61044500,1.629,-0.592,-1.371,337.68,41.055,-22.47,
61044510,0.195,1.994,1.937,326.182,30.572,-89.46,
61044520,-0.237,0.093,1.453,237.422,7.63,-17.342,
61044530,1.076,-0.494,0.887,340.427,70.577,6.265,
61044540,1.158,-0.811,0.875,367.132,114.17,0.665,
61044550,0.634,0.487,1.733,315.35,161.962,-18.83,
61044560,0.69,0.14,1.492,221.917,161.717,-2.66,
61044570,-0.013,0.372,1.615,125.842,133.122,15.557,
61044580,-0.439,0.262,1.569,38.255,75.215,24.955,
61044590,-0.377,-0.013,1.364,-29.225,10.535,17.622,
61044600,-0.302,-0.21,1.256,-75.302,-33.127,8.19,
61044610,-0.191,-0.207,1.223,-107.572,-64.767,-3.045,
61044620,0.041,-0.252,1.135,-136.5,-87.36,-12.39,
61044630,0.183,-0.337,0.986,-156.625,-101.237,-15.557,
61044640,0.262,-0.443,0.815,-160.072,-107.275,-12.985,
61044650,0.332,-0.494,0.696,-143.657,-107.905,-11.742,
61044660,0.178,-0.847,0.583,-111.422,-109.182,-9.432,
61044670,0.435,-0.449,0.518,-62.177,-124.775,-11.812,
61044670,0.565,-0.812,0.415,-52.832,-117.285,-9.432,
61044690,0.55,-0.637,0.385,-14.14,-99.172,-8.12,
61044690,0.577,-0.69,0.379,14,-71.785,-9.397,
61044710,0.537,-0.657,0.416,40.057,-42.035,-12.512,
61044710,0.606,-0.587,0.45,62.615,-8.347,-16.292,
61044730,0.698,-0.489,0.454,76.545,28.175,-20.527,
61044730,0.8,-0.455,0.42,83.107,70.297,-22.067,
61044750,1.05,-0.474,0.381,89.985,117.547,-19.565,
61044750,0.856,-0.41,0.63,103.092,160.055,-9.992,
61044760,0.307,-0.207,0.942,124.127,176.82,6.895,
61044770,0.03,-0.097,1.084,141.435,171.255,33.337,
61044780,-0.276,-0.301,1.197,134.155,152.512,50.522,
61044790,-0.607,-0.265,1.321,110.565,120.557,34.37,
61044800,-0.33,-0.051,1.332,77.472,75.057,1.925,
61044810,-0.087,0.041,1.217,38.15,27.615,-12.005,
61044820,-0.03,-0.064,1.128,7.525,-11.532,-8.435,
61044830,0.02,-0.189,1.049,-12.547,-39.707,-4.882,
61044840,0.235,-0.253,0.965,-24.832,-55.65,-5.46,
61044850,0.449,-0.308,0.894,-31.237,-58.695,-3.78,
61044860,0.467,-0.294,0.879,-34.72,-51.87,0.962,
61044870,0.51,-0.363,0.825,-36.662,-44.31,7.822,
61044880,0.44,-0.43,0.811,-36.505,-32.025,12.18,
61044890,0.351,-0.375,0.833,-32.777,-21.735,13.142,
61044900,0.238,-0.403,0.825,-26.337,-13.352,14.035,
61044910,0.225,-0.435,0.801,-15.802,-8.312,12.057,
61044920,0.223,-0.441,0.797,-3.08,-2.52,8.452,
61044930,0.221,-0.441,0.81,9.502,2.467,3.85,
61044940,0.209,-0.401,0.855,18.987,7.927,-1.732,
61044950,0.253,-0.369,0.883,24.85,9.24,-6.212,
61044960,0.309,-0.34,0.888,26.6,11.62,-8.19,
61044970,0.325,-0.327,0.902,25.655,13.562,-8.837,
61044980,0.337,-0.286,0.922,22.12,16.327,-8.172,
61044990,0.317,-0.267,0.94,15.802,15.89,-6.352,
61045000,0.296,-0.257,0.948,8.102,14.822,-3.517,
61045010,0.245,-0.264,0.956,0.577,10.815,-1.12,
61045020,0.226,-0.268,0.965,-6.877,6.965,0.402,
61045030,0.219,-0.271,0.97,-14.962,0.84,0.595,
61045040,0.198,-0.271,0.965,-23.205,-3.78,1.12,
61045050,0.161,-0.286,0.99,-30.397,-9.555,1.697,
61045060,0.116,-0.269,1.004,-40.705,-15.925,0.21,
61045070,0.151,-0.179,1.084,-54.477,-25.987,-2.205,
61045080,0.243,-0.307,1.11,-78.417,-35.997,-2.187,
61045080,0.308,0.048,1.135,-98.035,-42.315,-0.087,
61045100,0.451,-0.207,0.999,-133.752,-36.4,2.275,
61045100,0.459,-0.347,0.818,-146.632,-22.05,9.31,
61045120,0.262,-0.513,0.689,-138.53,-8.575,16.485,
61045120,0.248,-0.58,0.477,-107.485,-10.535,22.592,
61045140,0.24,-0.832,0.34,-67.357,-5.967,24.57,
61045140,0.221,-0.901,0.372,-22.347,-0.857,18.375,
61045160,0.229,-0.745,0.522,22.802,3.377,11.987,
61045160,0.289,-0.594,0.717,55.562,6.65,8.942,
61045170,0.346,-0.392,0.913,69.405,10.5,7.927,
61045180,0.312,-0.296,1.052,61.985,14.035,8.05,
61045190,0.313,-0.274,1.114,39.13,15.05,6.93,
61045200,0.285,-0.219,1.203,8.067,14.367,5.775,
61045210,0.366,-0.122,1.265,-29.417,12.285,5.32,
61045220,0.411,-0.219,1.256,-75.687,16.905,4.76,
61045230,0.365,-0.252,1.198,-113.82,26.407,6.142,
61045240,0.336,-0.303,1.097,-142.082,37.835,8.032,
61045250,0.32,-0.416,1.021,-160.597,46.27,10.307,
61045260,0.272,-0.373,0.979,-170.1,53.34,11.795,
61045270,0.168,-0.421,0.917,-175.647,53.287,12.11,
61045280,0.297,-0.522,0.905,-179.375,53.34,14.245,
61045290,0.46,-0.76,1.013,-179.427,54.635,20.562,
61045300,0.62,-0.906,1.104,-163.432,68.232,34.335,
61045310,0.637,-0.951,1.162,-138.197,77.49,40.46,
61045320,0.691,-1.12,1.01,-119.017,77.507,39.13,
61045330,0.341,-0.936,0.88,-91.122,80.622,49.28,
61045340,0.274,-0.576,0.72,-66.64,56.052,29.54,
61045350,0.658,-0.367,0.592,-42.49,32.462,22.715,
61045360,0.324,-0.351,0.24,-14.472,16.24,12.25,
61045370,1.15,0.157,0.764,-8.82,-16.817,-45.097,
61045380,-0.11,0.82,-0.091,49.28,-109.025,-100.782,
61045390,-0.624,1.255,0.362,57.855,-137.235,-88.27,
61045400,-0.513,0.505,0.342,18.392,-152.355,-14.385,
61045410,0.127,0.428,0.18,49.665,-144.007,13.16,
61045420,0.178,0.561,0.009,74.095,-99.505,29.435,
61045420,-0.226,0.471,-0.032,80.342,-59.412,41.755,
61045440,-0.287,0.21,-0.042,73.132,-58.922,35.577,
61045440,0.097,-1.125,-1.033,64.47,-10.797,26.705,
61045460,-1.835,-1.998,-0.292,56.49,29.767,-12.162,
61045460,-0.709,0.22,0.129,194.53,-61.267,-106.47,
61045480,1.287,1.983,1.079,241.902,-79.747,-98.245,
61045480,1.431,-0.95,1.319,156.485,-51.712,-49.962,
61045500,0.363,-0.92,1.077,266.98,4.497,-45.325,
61045500,1.081,0.161,1.44,282.8,25.865,-30.66,
61045510,0.986,0.119,1.394,226.187,41.58,1.347,
61045520,0.482,-0.06,1.431,168.875,52.325,39.007,
61045530,-0.037,0.168,1.559,95.445,38.045,55.072,
61045540,-0.284,0,1.474,16.03,1.855,52.342,
61045550,0.211,-0.018,1.373,-57.015,-39.06,40.302,
61045560,0.198,-0.222,1.216,-114.625,-54.407,33.652,
61045570,0.179,-0.397,1.063,-152.32,-55.632,28.735,
61045580,0.274,-0.281,1.067,-164.5,-51.52,19.267,
61045590,0.303,-0.436,0.98,-183.592,-48.545,17.342,
61045600,0.334,-0.346,0.912,-188.475,-47.407,20.317,
61045610,0.338,-0.449,0.818,-194.32,-50.085,30.747,
61045620,0.36,-0.43,0.764,-196.472,-50.592,42.105,
61045630,0.375,-0.438,0.785,-195.877,-51.52,49.157,
61045640,0.373,-0.677,0.846,-195.23,-51.8,56.122,
61045650,0.401,-0.998,0.973,-191.8,-54.53,69.632,
61045660,0.651,-1.155,0.974,-166.6,-45.972,68.88,
61045670,0.593,-1.121,0.726,-126.805,-34.352,57.977,
61045680,0.382,-1.106,0.976,-102.305,-3.115,50.155,
61045690,0.221,-0.756,0.886,-63.472,29.75,50.575,
61045700,-0.355,-0.038,1.617,11.83,44.73,71.505,
61045710,-1.008,0.333,1.271,102.987,32.952,116.637,
61045720,0.322,1.199,0.135,187.162,48.142,163.03,
61045730,0.701,1.185,-0.058,145.145,26.005,168.017,
61045740,0.751,0.762,-0.062,83.737,-9.52,97.877,
61045750,0.466,0.259,0.041,61.162,-20.265,17.307,
61045760,0.099,-0.017,-0.043,50.855,-16.1,-38.167,
61045770,-0.51,-0.219,-0.194,46.287,-8.085,-57.89,
61045780,-0.752,-1.225,-0.217,26.425,10.797,-47.005,
61045790,-1.745,-1.998,-0.846,-16.852,3.237,-107.642,
61045800,-0.63,-1.066,-0.145,152.635,-35.98,-206.08,
61045810,-0.078,1.997,1.091,206.692,-133.07,-190.225,
61045820,1.998,0.738,0.979,165.48,-34.352,-99.19,
61045830,0.504,-0.418,0.907,179.76,-12.565,-98.367,
61045830,0.56,-0.878,0.903,263.795,28.262,-55.212,
61045850,1.674,-0.595,0.994,241.587,50.015,22.05,
61045850,0.551,0.323,1.422,241.64,47.04,57.557,
61045870,0.167,0.037,1.641,173.372,47.547,86.152,
61045870,-0.368,0.261,1.732,92.715,30.712,82.075,
61045890,-0.135,0.108,1.625,-5.355,4.76,55.23,
61045890,0.047,-0.134,1.492,-89.652,-10.167,31.132,
61045910,0.252,-0.002,1.323,-149.117,-8.872,17.36,
61045910,0.28,-0.453,1.065,-194.285,-3.605,13.65,
61045920,0.278,-0.441,0.964,-200.165,-1.977,20.807,
61045930,0.291,-0.428,0.931,-200.532,-8.312,32.585,
61045940,0.172,-0.405,0.902,-198.432,-16.572,46.445,
61045950,0.305,-0.494,0.823,-197.715,-23.555,58.012,
61045960,0.436,-0.699,0.745,-189.717,-16.537,71.995,
61045970,0.548,-0.774,0.821,-174.002,2.135,83.895,
61045980,0.766,-0.934,0.884,-156.345,38.412,101.832,
61045990,0.515,-1.114,0.912,-133.455,60.2,102.532,
61046000,0.397,-1.211,0.853,-101.237,60.76,81.935,
61046010,0.279,-1.118,0.5,-57.645,63.437,73.535,
61046020,-0.066,-0.719,0.657,-24.062,73.78,87.377,
61046030,-0.19,-0.273,0.244,20.02,58.747,95.077,
61046040,0.708,0.279,0.169,40.827,24.062,75.6,
61046050,1.071,0.387,-0.192,34.86,-13.825,46.707,
61046060,1.534,0.143,-0.018,-0.175,18.585,12.005,
61046070,0.918,0.325,-0.076,-4.55,5.232,-73.08,
61046080,0.216,0.455,-0.046,7.315,-20.282,-167.912,
61046090,-0.391,0.181,-0.168,-8.452,-75.722,-208.985,
61046100,-0.72,-0.134,-0.805,-7.525,-133.962,-199.482,
61046110,-1.186,-1.686,0.017,48.475,-73.395,-140.297,
