#Format version: 1.0
time[ms],accX[g],accY[g],accZ[g],Value 1,Value 2,Value 3,
41951640,-0.901,0.07,0.903,4.165,25.602,2.555,
41951650,-0.878,0.012,0.909,-4.165,13.387,0.945,
41951660,-0.806,-0.061,0.886,-7.14,4.077,2.607,
41951670,-0.79,-0.081,0.86,-4.252,-0.892,9.992,
41951680,-0.756,-0.059,0.834,0.892,-2.747,15.645,
41951690,-0.725,-0.063,0.816,7.245,-2.607,18.672,
41951700,-0.69,-0.04,0.809,15.242,-3.885,20.3,
41951710,-0.625,-0.011,0.799,21.805,-6.352,20.44,
41951720,-0.581,0.015,0.783,25.147,-7.175,18.865,
41951730,-0.53,0.027,0.764,26.39,-5.057,16.992,
41951740,-0.496,0.046,0.756,26.057,-0.245,16.257,
41951750,-0.506,0.045,0.752,25.2,5.25,17.552,
41951760,-0.499,0.042,0.729,25.147,10.552,16.642,
41951770,-0.498,0.057,0.725,24.762,16.31,13.51,
41951780,-0.53,0.055,0.727,22.767,21.227,10.447,
41951790,-0.588,0.036,0.717,21.647,23.187,7.35,
41951800,-0.634,0.04,0.733,22.26,22.575,3.22,
41951810,-0.68,0.043,0.747,22.12,21.052,-2.467,
41951820,-0.697,0.021,0.728,21.315,19.285,-9.432,
41951830,-0.731,-0.007,0.753,22.767,17.342,-13.597,
41951830,-0.73,-0.029,0.765,27.44,14.875,-14.98,
41951850,-0.72,0.001,0.804,34.335,13.982,-14.472,
41951850,-0.655,0.039,0.776,36.12,15.592,-5.302,
41951870,-0.785,0.063,0.789,29.575,12.565,4.27,
41951870,-0.753,0.091,0.771,25.637,11.235,8.61,
41951890,-0.738,0.081,0.744,20.615,5.897,14.157,
41951890,-0.749,0.085,0.729,15.82,-1.627,18.095,
41951910,-0.702,0.119,0.737,12.74,-7.245,18.83,
41951910,-0.688,0.128,0.728,7.35,-10.622,17.885,
41951920,-0.711,0.133,0.711,2.835,-15.54,14.91,
41951930,-0.692,0.15,0.726,-0.105,-20.667,10.885,
41951940,-0.664,0.134,0.721,-3.972,-24.727,8.575,
41951950,-0.657,0.114,0.723,-6.545,-27.947,8.12,
41951960,-0.667,0.084,0.742,-5.53,-30.257,8.557,
41951970,-0.671,0.062,0.762,-2.345,-32.427,8.925,
41951980,-0.663,0.067,0.783,0.402,-34.072,9.03,
41951990,-0.634,0.082,0.797,1.82,-34.055,8.995,
41952000,-0.608,0.086,0.802,2.992,-31.657,8.102,
41952010,-0.572,0.09,0.824,2.73,-27.282,6.492,
41952020,-0.54,0.063,0.803,1.242,-21.245,6.842,
41952030,-0.523,0.076,0.813,1.435,-13.93,6.877,
41952040,-0.539,0.073,0.804,-1.802,-7.385,8.487,
41952050,-0.55,0.063,0.799,-2.502,-0.227,8.802,
41952060,-0.585,0.059,0.778,-1.995,4.147,7.332,
41952070,-0.613,0.073,0.778,-0.035,6.387,5.705,
41952080,-0.62,0.083,0.764,0.49,7.367,4.165,
41952090,-0.621,0.088,0.761,0.665,7.42,1.557,
41952100,-0.63,0.083,0.759,0.122,6.947,-0.245,
41952110,-0.641,0.077,0.756,-0.245,6.09,0.262,
41952120,-0.653,0.078,0.762,-0.052,4.69,0.805,
41952130,-0.668,0.074,0.766,0.227,2.73,0.822,
41952140,-0.679,0.069,0.768,1.365,0.262,1.277,
41952150,-0.682,0.07,0.772,3.097,-2.52,1.4,
41952160,-0.673,0.082,0.776,5.39,-5.232,0.367,
41952170,-0.656,0.093,0.78,7.175,-7.245,-0.91,
41952180,-0.637,0.092,0.776,8.277,-7.91,-2.502,
41952190,-0.618,0.091,0.773,9.45,-8.05,-3.57,
41952200,-0.607,0.105,0.771,9.817,-7.472,-4.427,
41952210,-0.609,0.115,0.767,8.4,-7.105,-5.11,
41952220,-0.622,0.111,0.763,6.3,-7.805,-5.075,
41952230,-0.631,0.108,0.766,4.445,-8.61,-5.092,
41952240,-0.653,0.109,0.78,2.782,-10.412,-5.6,
41952250,-0.676,0.093,0.778,0.07,-12.95,-7.017,
41952260,-0.684,0.067,0.78,-1.015,-16.1,-7.472,
41952260,-0.684,0.063,0.784,-0.507,-19.057,-6.002,
41952280,-0.702,0.062,0.791,-0.07,-21.507,-4.007,
41952280,-0.697,0.045,0.79,0.402,-23.17,-2.222,
41952300,-0.677,0.039,0.785,1.295,-22.715,-1.505,
41952300,-0.675,0.041,0.782,1.505,-20.58,-3.255,
41952320,-0.691,0.038,0.785,3.605,-21.192,-3.937,
41952320,-0.705,0.022,0.783,5.232,-22.575,-5.915,
41952330,-0.71,0.027,0.793,8.802,-26.687,-8.242,
41952340,-0.702,0.024,0.803,11.952,-28.962,-11.952,
41952350,-0.695,0.022,0.832,12.6,-28.21,-18.235,
41952360,-0.655,0.059,0.816,7.227,-24.01,-24.587,
41952370,-0.616,0.077,0.824,0.437,-16.695,-29.802,
41952380,-0.589,0.077,0.838,-6.842,-9.8,-30.31,
41952390,-0.562,0.077,0.839,-17.36,-3.692,-24.36,
41952400,-0.526,0.053,0.831,-29.225,4.69,-15.12,
41952410,-0.481,-0.005,0.818,-37.94,17.185,-6.3,
41952420,-0.447,-0.036,0.809,-41.632,34.667,1.802,
41952430,-0.442,-0.051,0.821,-40.985,54.285,6.457,
41952440,-0.486,-0.058,0.826,-40.915,70.875,9.467,
41952450,-0.549,-0.062,0.85,-39.725,80.517,8.942,
41952460,-0.631,-0.049,0.835,-41.405,81.445,5.792,
41952470,-0.732,-0.03,0.837,-45.202,71.557,-4.917,
41952480,-0.773,-0.067,0.805,-44.45,49.91,-15.855,
41952490,-0.74,-0.065,0.761,-35.962,23.345,-22.907,
41952500,-0.692,0.006,0.724,-24.535,-3.605,-25.077,
41952510,-0.618,0.099,0.715,-14.787,-22.522,-26.39,
41952520,-0.554,0.146,0.693,-9.362,-29.942,-27.387,
41952530,-0.52,0.17,0.677,-4.62,-28.962,-26.565,
41952540,-0.556,0.21,0.661,-1.96,-24.815,-21.805,
41952550,-0.621,0.256,0.65,-1.627,-22.242,-16.065,
41952560,-0.663,0.276,0.648,-4.865,-21.752,-10.867,
41952570,-0.686,0.271,0.674,-13.982,-24.36,-4.165,
41952580,-0.783,0.213,0.67,-26.74,-32.777,1.26,
41952580,-0.732,0.145,0.685,-39.287,-47.355,5.652,
41952600,-0.654,0.067,0.726,-39.9,-49.035,6.352,
41952600,-0.719,-0.1,0.725,-30.765,-56.157,12.197,
41952620,-0.61,-0.102,0.784,-9.047,-58.275,16.975,
41952620,-0.56,-0.01,0.851,9.572,-51.905,20.457,
41952640,-0.561,0.068,0.913,15.312,-41.055,20.755,
41952640,-0.607,0.062,0.92,11.305,-34.825,17.675,
41952660,-0.604,0.016,0.897,9.38,-36.75,16.502,
41952660,-0.566,-0.017,0.875,13.737,-43.19,20.492,
41952670,-0.505,-0.003,0.861,21.472,-47.11,25.2,
41952680,-0.52,0.058,0.905,27.23,-44.8,26.04,
41952690,-0.581,0.064,0.9,23.047,-49.105,16.45,
41952700,-0.436,0.021,0.854,14.735,-54.967,1.505,
41952710,-0.392,0.028,0.887,10.185,-53.83,-2.852,
41952720,-0.406,0.035,0.873,2.432,-49.647,1.12,
41952730,-0.354,-0.008,0.854,-4.48,-42.472,-1.61,
41952740,-0.273,-0.017,0.831,-11.305,-28.122,1.995,
41952750,-0.375,0.004,0.856,-17.972,-10.237,7.542,
41952760,-0.399,-0.058,0.853,-26.022,6.527,13.562,
41952770,-0.478,-0.109,0.854,-26.74,15.19,17.815,
41952780,-0.537,-0.105,0.881,-22.33,17.85,19.005,
41952790,-0.589,-0.081,0.886,-17.412,18.672,16.642,
41952800,-0.63,-0.066,0.887,-12.652,17.727,11.147,
41952810,-0.669,-0.036,0.893,-9.24,15.645,3.465,
41952820,-0.726,-0.034,0.88,-7.962,7.682,1.54,
41952830,-0.803,0.022,0.905,-6.265,-6.055,2.135,
41952840,-0.675,0.039,0.852,-8.61,-23.8,-0.455,
41952850,-0.566,0.024,0.916,-14.14,-25.497,10.15,
41952860,-0.625,0.054,0.958,-19.092,-20.44,20.895,
41952870,-0.572,0.057,0.954,-29.715,-19.005,22.225,
41952880,-0.569,0.048,0.918,-40.285,-18.917,25.882,
41952890,-0.567,0.023,0.885,-47.302,-20.667,28.875,
41952900,-0.515,-0.012,0.831,-48.825,-22.785,31.29,
41952910,-0.445,-0.042,0.804,-44.012,-21.91,34.387,
41952920,-0.399,-0.089,0.791,-33.145,-14.367,35.752,
41952930,-0.459,-0.124,0.796,-17.465,-6.16,37.397,
41952940,-0.473,-0.107,0.82,2.047,-4.182,40.582,
41952950,-0.517,-0.023,0.861,16.275,-4.27,40.757,
41952960,-0.534,-0.006,0.873,22.942,-6.387,36.12,
41952970,-0.513,0.008,0.883,25.532,-8.68,28.84,
41952980,-0.502,0.044,0.878,23.38,-9.52,22.82,
41952990,-0.52,0.06,0.876,18.672,-7.42,17.552,
41953000,-0.54,0.029,0.846,13.685,-7.63,16.975,
41953010,-0.554,0.054,0.847,9.397,-9.817,17.517,
41953010,-0.577,0.086,0.86,1.697,-13.177,14.402,
41953030,-0.56,0.098,0.853,-9.625,-16.502,9.502,
41953030,-0.551,0.104,0.86,-24.395,-20.177,2.502,
41953050,-0.56,0.092,0.837,-41.125,-24.605,-6.335,
41953050,-0.575,0.032,0.782,-56.385,-32.462,-15.137,
41953070,-0.56,-0.018,0.737,-64.75,-43.155,-23.625,
41953070,-0.502,-0.036,0.706,-67.305,-53.13,-30.152,
41953080,-0.47,-0.058,0.669,-66.675,-60.62,-32.462,
41953090,-0.45,-0.091,0.642,-63.542,-63.612,-31.027,
41953100,-0.388,-0.151,0.608,-56.612,-57.802,-28.175,
41953110,-0.383,-0.132,0.704,-43.557,-44.222,-21.525,
41953120,-0.439,-0.163,0.736,-32.095,-28.805,-14,
41953130,-0.422,-0.111,0.859,-24.99,-17.412,-11.27,
41953140,-0.512,-0.225,0.919,-22.347,-10.185,-2.257,
41953150,-0.506,-0.223,0.979,-11.042,-6.475,-1.155,
41953160,-0.683,-0.2,1.032,-4.952,-13.352,-2.887,
41953170,-0.681,-0.2,1.043,0.262,-35.262,-7.087,
41953180,-0.513,-0.16,1.041,4.672,-54.127,-12.67,
41953190,-0.428,-0.126,1.011,5.67,-62.055,-11.165,
41953200,-0.366,-0.099,0.986,5.862,-58.835,-7.98,
41953210,-0.352,-0.056,0.956,1.89,-53.602,-4.025,
41953220,-0.322,-0.055,0.909,-5.862,-48.44,-1.032,
41953230,-0.301,-0.077,0.857,-12.897,-44.38,0.192,
41953240,-0.286,-0.068,0.845,-17.675,-40.215,1.855,
41953250,-0.273,-0.106,0.852,-21.122,-37.467,3.71,
41953260,-0.215,-0.097,0.906,-21.857,-32.445,3.43,
41953270,-0.2,-0.072,0.985,-25.707,-23.992,3.36,
41953280,-0.281,-0.129,1.021,-31.797,-15.452,5.215,
41953290,-0.373,-0.157,1.058,-33.827,-12.705,5.495,
41953300,-0.439,-0.16,1.063,-35,-17.377,4.935,
41953310,-0.517,-0.165,1.016,-35.35,-25.27,2.852,
41953320,-0.531,-0.187,0.952,-33.145,-36.942,-0.682,
41953330,-0.601,-0.161,0.929,-28.245,-47.705,-3.832,
41953330,-0.533,-0.206,0.891,-24.115,-59.972,-6.79,
41953350,-0.552,-0.149,0.917,-17.535,-66.605,-8.05,
41953350,-0.57,-0.166,0.923,-15.907,-74.917,-10.342,
41953370,-0.516,-0.184,0.928,-14.315,-83.825,-14.35,
41953370,-0.456,-0.23,0.901,-14.577,-93.012,-15.575,
41953390,-0.271,-0.214,0.913,-15.19,-95.392,-16.082,
41953390,-0.21,-0.238,0.902,-19.39,-88.917,-14.157,
41953410,-0.168,-0.242,0.892,-23.835,-82.25,-12.617,
41953410,-0.122,-0.224,0.907,-26.722,-75.827,-9.957,
41953420,-0.134,-0.222,0.93,-30.73,-71.697,-8.015,
41953430,-0.138,-0.229,0.929,-33.6,-68.11,-9.975,
41953440,-0.146,-0.252,0.946,-34.772,-65.782,-13.965,
41953450,-0.189,-0.269,0.931,-35.822,-65.712,-15.225,
41953460,-0.198,-0.245,0.933,-34.51,-68.425,-17.762,
41953470,-0.125,-0.206,0.936,-34.755,-68.425,-21.315,
41953480,-0.047,-0.17,0.929,-37.537,-63.892,-23.397,
41953490,0.016,-0.155,0.888,-44.152,-55.142,-23.082,
41953500,0.094,-0.16,0.858,-50.96,-42.332,-23.135,
41953510,0.188,-0.194,0.843,-54.442,-24.692,-22.102,
41953520,0.169,-0.214,0.873,-52.465,-3.237,-16.187,
41953530,0.077,-0.212,0.905,-45.447,13.86,-10.885,
41953540,0.011,-0.198,0.943,-37.782,26.25,-9.432,
41953550,-0.036,-0.209,0.926,-32.34,33.25,-9.607,
41953560,-0.137,-0.228,0.959,-30.607,38.08,-9.502,
41953570,-0.208,-0.257,0.99,-32.462,40.057,-8.767,
41953580,-0.381,-0.325,1.107,-36.522,34.825,-7.595,
41953590,-0.263,-0.497,1.049,-36.855,15.89,-10.727,
41953600,-0.206,-0.323,1.107,-33.162,7.245,-15.907,
41953610,-0.152,-0.352,1.009,-36.312,-2.012,-13.86,
41953620,-0.103,-0.297,0.875,-42.245,1.015,-18.357,
41953630,-0.15,-0.318,0.748,-41.93,2.117,-19.425,
41953640,-0.154,-0.298,0.635,-28.367,1.54,-16.397,
41953650,-0.037,-0.336,0.554,-5.67,2.66,-10.325,
41953660,0.164,-0.478,0.571,30.87,18.34,4.515,
41953670,0.138,-0.442,0.652,79.362,54.827,30.747,
41953680,-0.333,-0.068,0.823,110.302,84.892,45.517,
41953690,-0.566,-0.09,0.946,103.127,71.96,30.59,
41953700,-0.691,-0.113,1.055,82.215,35.21,7.035,
41953710,-0.414,-0.212,1.169,58.957,1.102,-16.887,
41953720,-0.249,-0.233,1.241,43.697,-2.117,-20.142,
41953730,-0.531,-0.098,1.258,25.112,-1.085,-10.342,
41953740,-0.708,-0.223,1.157,5.11,-21.577,-8.487,
41953750,-0.475,-0.247,1.004,4.095,-58.275,-19.495,
41953760,-0.086,-0.031,1.068,-5.46,-77.192,-25.252,
41953760,-0.067,-0.172,1.044,-35.77,-64.89,-21.21,
41953780,-0.109,-0.388,0.96,-44.047,-48.125,-22.295,
41953780,-0.069,-0.317,0.927,-35.245,-44.747,-20.422,
41953800,-0.032,-0.308,0.85,-27.545,-45.657,-13.877,
41953800,0.099,-0.269,0.838,-13.772,-38.57,-13.317,
41953810,0.129,-0.157,0.9,-6.615,-24.587,-13.09,
41953820,0.09,-0.256,0.868,-9.537,-11.445,-7.455,
41953830,0.151,-0.317,0.869,-1.417,4.007,-5.967,
41953840,0.145,-0.231,0.868,12.495,20.475,-3.535,
41953850,0.06,-0.142,0.863,21.752,36.575,-0.402,
41953860,-0.071,-0.147,0.866,24.605,47.757,0.595,
41953870,-0.176,-0.148,0.98,25.392,49.717,-0.017,
41953880,-0.246,-0.126,1.088,16.31,43.4,2.187,
41953890,-0.261,-0.157,1.086,-2.205,39.077,5.197,
41953900,-0.311,-0.216,1.017,-16.082,43.207,6.475,
41953910,-0.408,-0.212,0.945,-23.345,45.167,6.247,
41953920,-0.479,-0.176,0.831,-27.982,39.392,5.442,
41953930,-0.533,-0.121,0.734,-33.617,26.267,3.325,
41953940,-0.462,-0.272,0.758,-38.955,10.605,0.56,
41953950,-0.129,-0.717,0.718,-19.267,3.5,0.997,
41953960,-0.11,-0.532,0.859,21.612,8.837,5.442,
41953970,-0.286,0.277,0.778,24.15,-11.812,5.862,
41953980,-0.003,-0.51,0.757,-1.032,-10.622,13.772,
41953990,0.252,-0.8,0.827,38.815,21.612,19.582,
41954000,0.096,-0.499,1.077,87.78,49.315,26.722,
41954010,-0.21,-0.352,1.081,103.74,55.387,34.755,
41954020,-0.335,-0.262,1.046,95.077,30.782,30.292,
41954030,-0.135,-0.253,1.018,77.14,5.932,21.437,
41954040,-0.002,-0.229,0.979,64.557,19.6,18.585,
41954050,-0.254,-0.201,0.894,52.29,43.837,23.765,
41954060,-0.441,-0.248,0.867,44.957,54.792,17.955,
41954070,-0.537,-0.264,0.898,45.902,46.707,15.067,
41954080,-0.517,-0.24,0.974,46.865,29.522,14.647,
41954080,-0.47,-0.183,1.05,45.552,18.672,16.537,
41954100,-0.453,-0.105,1.112,39.515,7.297,13.807,
41954100,-0.346,-0.098,1.125,33.057,-0.28,8.767,
41954120,-0.281,-0.065,1.121,29.767,-2.415,6.65,
41954120,-0.25,-0.038,1.123,25.41,-0.892,4.672,
41954140,-0.22,0,1.098,20.107,3.167,1.435,
41954140,-0.173,-0.016,1.062,13.247,6.58,-2.047,
41954160,-0.103,-0.065,0.991,10.657,12.32,-3.867,
41954160,-0.062,-0.115,0.954,13.352,20.965,-3.762,
41954170,-0.132,-0.084,0.953,17.535,31.097,-3.867,
41954180,-0.185,-0.019,0.834,18.182,32.165,-9.8,
41954190,-0.211,-0.044,0.851,11.55,32.375,-13.877,
41954200,-0.225,-0.016,0.771,6.772,28.665,-13.562,
41954210,-0.233,0.029,0.804,-1.435,34.195,-12.075,
41954220,-0.438,-0.076,0.815,-10.972,39.865,1.137,
41954230,-0.531,-0.129,0.847,-13.247,38.972,2.205,
41954240,-0.579,-0.099,0.903,-15.05,30.345,-1.575,
41954250,-0.521,-0.153,0.926,-18.76,20.195,-5.11,
41954260,-0.468,-0.133,0.955,-19.932,15.907,-9.887,
41954270,-0.342,-0.175,0.955,-21.735,17.255,-11.725,
41954280,-0.36,-0.119,0.96,-24.377,22.47,-10.29,
41954290,-0.355,-0.107,0.937,-31.115,20.282,-12.075,
41954300,-0.319,-0.124,0.925,-36.925,17.097,-16.397,
41954310,-0.373,-0.138,0.889,-41.562,15.05,-18.97,
41954320,-0.248,-0.244,0.848,-41.02,17.237,-18.252,
41954330,-0.238,-0.297,0.849,-35.56,22.802,-8.627,
41954340,-0.304,-0.374,0.904,-24.657,34.842,0.927,
41954350,-0.473,-0.329,0.917,-7.7,36.855,11.777,
41954360,-0.463,-0.242,0.931,5.862,31.692,14.455,
41954370,-0.425,-0.178,0.946,11.095,28.315,15.662,
41954380,-0.392,-0.157,0.947,8.802,31.675,14.805,
41954390,-0.389,-0.153,0.92,5.442,38.815,16.047,
41954400,-0.416,-0.095,0.936,-0.63,44.905,21.7,
41954410,-0.482,-0.057,0.953,-14.63,48.842,25.865,
41954420,-0.348,-0.055,0.998,-31.587,58.975,24.745,
41954430,-0.346,-0.041,0.975,-52.237,72.485,22.855,
41954440,-0.399,-0.139,1.012,-74.252,83.685,24.412,
41954450,-0.53,-0.401,0.965,-81.077,94.202,25.217,
41954460,-0.573,-0.373,0.961,-61.267,95.812,14.787,
41954470,-0.656,-0.278,0.912,-42.07,84.122,15.627,
41954480,-0.72,-0.257,0.848,-26.285,65.992,20.177,
41954480,-0.759,-0.229,0.776,-9.625,47.18,18.952,
41954500,-0.779,-0.146,0.738,7.122,27.422,10.43,
41954500,-0.733,-0.172,0.67,18.812,4.707,1.277,
41954510,-0.666,-0.153,0.669,32.707,-11.515,-7.087,
41954520,-0.632,-0.112,0.667,45.535,-19.915,-15.155,
41954530,-0.593,-0.129,0.649,56.227,-28.402,-23.012,
41954540,-0.498,-0.115,0.604,68.757,-33.267,-27.51,
41954550,-0.437,-0.03,0.676,78.522,-27.265,-28.192,
41954560,-0.419,-0.014,0.734,79.432,-21.42,-27.65,
41954570,-0.281,-0.012,0.8,76.755,-13.475,-28.192,
41954580,-0.244,0.054,0.884,67.147,2.24,-21.98,
41954590,-0.376,0.02,0.952,45.307,19.775,-16.45,
41954600,-0.505,-0.023,1.027,20.545,27.545,-17.36,
41954610,-0.509,-0.136,1.06,0.962,23.922,-19.757,
41954620,-0.48,-0.214,1.056,-10.43,19.215,-15.662,
41954630,-0.534,-0.285,1.058,-13.947,20.142,-7.49,
41954640,-0.579,-0.321,0.994,-11.095,16.397,-0.227,
41954650,-0.527,-0.301,0.944,-1.767,12.232,5.162,
41954660,-0.411,-0.238,0.894,6.632,13.93,8.557,
41954670,-0.458,-0.226,0.854,9.1,22.33,14.35,
41954680,-0.436,-0.27,0.847,11.305,30.817,16.345,
41954690,-0.398,-0.218,0.842,14.857,41.912,16.292,
41954700,-0.479,-0.128,0.861,9.345,53.567,16.747,
41954710,-0.531,-0.105,0.858,-0.962,57.61,14.7,
41954720,-0.521,-0.091,0.827,-12.705,54.075,13.947,
41954730,-0.52,-0.04,0.793,-28.945,46.147,17.482,
41954740,-0.581,-0.047,0.737,-49.787,33.495,20.457,
41954750,-0.654,-0.219,0.645,-65.782,12.25,21.28,
41954760,-0.661,-0.323,0.559,-62.037,-12.372,14.98,
41954770,-0.594,-0.308,0.546,-46.2,-31.797,4.9,
41954780,-0.522,-0.251,0.56,-32.515,-40.757,-6.352,
41954790,-0.538,-0.179,0.588,-27.44,-41.702,-17.447,
41954800,-0.549,-0.158,0.597,-30.345,-40.705,-27.877,
41954810,-0.409,-0.175,0.557,-35.14,-31.815,-32.97,
41954820,-0.43,-0.195,0.609,-38.325,-6.23,-27.002,
41954830,-0.56,-0.353,0.736,-39.602,24.045,-15.19,
41954830,-0.743,-0.324,1,-26.425,43.382,0.525,
41954850,-0.845,-0.205,1.095,-13.317,47.705,2.817,
41954850,-0.894,-0.101,1.189,-19.285,32.742,-7.77,
41954870,-0.864,-0.197,1.112,-32.007,14.035,-14.56,
41954870,-0.812,-0.256,1.023,-35.49,-1.785,-19.285,
41954890,-0.784,-0.187,0.942,-34.597,-15.4,-18.76,
41954890,-0.734,-0.156,0.834,-34.58,-30.607,-17.78,
41954910,-0.625,-0.131,0.751,-35.577,-43.295,-20.265,
41954910,-0.575,-0.157,0.703,-37.765,-48.72,-24.937,
41954920,-0.495,-0.178,0.694,-36.085,-50.172,-30.24,
41954930,-0.515,-0.204,0.771,-34.947,-42.857,-32.375,
41954940,-0.678,-0.326,0.799,-37.625,-34.667,-38.062,
41954950,-0.551,-0.257,0.85,-30.45,-34.317,-46.672,
41954960,-0.478,-0.153,0.905,-34.055,-27.037,-46.602,
41954970,-0.684,-0.266,0.886,-53.882,-15.645,-46.497,
41954980,-0.66,-0.382,0.853,-63.105,-21.227,-48.142,
41954990,-0.683,-0.499,0.753,-59.727,-42.892,-51.887,
41955000,-0.096,-0.405,0.706,-49.927,-46.707,-65.712,
41955010,-0.31,-0.461,0.632,-46.777,-29.067,-56.612,
41955020,-0.354,-0.503,0.647,-41.475,-17.412,-54.477,
41955030,-0.193,-0.44,0.669,-37.012,-10.955,-54.53,
41955040,-0.17,-0.371,0.777,-42.332,10.15,-48.352,
41955050,-0.268,-0.37,0.882,-51.555,30.17,-37.537,
41955060,-0.204,-0.478,0.804,-68.512,49.7,-39.497,
41955070,-0.317,-0.425,0.83,-76.265,65.835,-35.892,
41955080,-0.478,-0.399,0.735,-86.8,73.99,-27.912,
41955090,-0.552,-0.496,0.632,-96.687,72.467,-28.42,
41955100,-0.683,-0.603,0.562,-93.8,64.347,-23.502,
41955110,-0.724,-0.596,0.564,-72.187,41.125,-16.187,
41955120,-0.61,-0.474,0.691,-51.712,19.6,-12.967,
41955130,-0.474,-0.4,0.722,-44.677,12.285,-13.055,
41955140,-0.56,-0.479,0.723,-47.757,16.345,-11.97,
41955150,-0.647,-0.51,0.731,-46.9,12.845,-11.795,
41955160,-0.632,-0.513,0.713,-44.205,0.035,-14.21,
41955170,-0.496,-0.55,0.688,-38.342,-9.555,-19.04,
41955170,-0.517,-0.514,0.658,-31.045,-7.105,-21.91,
41955190,-0.604,-0.51,0.664,-29.365,-2.695,-23.73,
41955190,-0.578,-0.556,0.655,-27.912,-3.78,-24.64,
41955210,-0.557,-0.569,0.635,-24.552,-4.987,-23.817,
41955210,-0.586,-0.581,0.615,-20.142,-6.982,-24.027,
41955230,-0.47,-0.559,0.607,-15.312,-9.887,-26.67,
41955230,-0.407,-0.525,0.622,-13.37,-5.985,-29.697,
41955250,-0.357,-0.506,0.619,-14.56,2.135,-31.272,
41955250,-0.349,-0.56,0.588,-16.625,9.712,-31.062,
41955260,-0.311,-0.502,0.624,-15.452,18.637,-29.942,
41955270,-0.369,-0.491,0.646,-19.197,27.895,-25.725,
41955280,-0.421,-0.587,0.658,-24.99,36.487,-25.147,
41955290,-0.464,-0.541,0.673,-24.57,39.585,-26.512,
41955300,-0.597,-0.437,0.733,-29.785,43.557,-30.24,
41955310,-0.701,-0.376,0.733,-46.725,40.232,-35.875,
41955320,-0.69,-0.442,0.59,-63.35,31.552,-40.25,
41955330,-0.47,-0.794,0.554,-57.75,33.337,-34.09,
41955340,-0.758,-0.692,0.672,-39.095,32.165,-24.867,
41955350,-0.77,-0.505,0.781,-28.192,21.437,-34.16,
41955360,-0.772,-0.468,0.749,-32.515,12.285,-43.575,
41955370,-0.654,-0.72,0.626,-41.352,1.767,-45.955,
41955380,-0.566,-0.695,0.65,-36.557,-1.802,-44.87,
41955390,-0.593,-0.581,0.711,-35.28,-2.38,-42.892,
41955400,-0.497,-0.512,0.673,-41.877,-2.205,-45.92,
41955410,-0.51,-0.508,0.624,-55.912,-5.232,-46.935,
41955420,-0.427,-0.577,0.574,-70.192,-10.15,-46.305,
41955430,-0.44,-0.584,0.618,-77.35,-9.415,-47.162,
41955440,-0.437,-0.642,0.578,-87.027,-7.472,-47.985,
41955450,-0.401,-0.603,0.57,-92.47,-3.552,-47.337,
41955460,-0.425,-0.6,0.514,-102.97,1.995,-47.057,
41955470,-0.475,-0.589,0.416,-116.007,5.302,-47.757,
41955480,-0.465,-0.611,0.46,-125.825,1.172,-50.505,
41955490,-0.516,-0.843,0.486,-129.885,-4.322,-43.382,
41955500,-0.465,-1.106,0.45,-117.985,-15.312,-36.4,
41955510,-0.418,-1.019,0.49,-90.947,-22.645,-28.122,
41955520,-0.444,-0.88,0.415,-74.672,-28.105,-24.955,
41955530,-0.29,-0.92,0.314,-71.435,-31.587,-29.785,
41955540,-0.357,-0.848,0.261,-65.835,-33.827,-17.202,
41955550,-0.422,-0.778,0.343,-44.222,-36.82,-9.222,
41955560,-0.157,-0.899,0.277,-47.862,-27.79,-26.092,
41955570,-0.341,-0.895,0.275,-55.755,-13.912,-13.895,
41955580,-0.471,-0.889,0.337,-51.52,-13.755,-5.215,
41955580,-0.342,-0.957,0.287,-48.912,-17.622,-11.025,
41955600,-0.288,-0.861,0.332,-47.337,-14.91,-10.535,
41955600,-0.251,-0.831,0.31,-53.112,-5.985,-6.527,
41955620,-0.277,-0.895,0.334,-60.445,4.287,-2.327,
41955620,-0.305,-0.915,0.298,-61.477,12.022,-0.262,
41955640,-0.295,-0.715,0.293,-62.702,15.54,-8.54,
41955640,-0.539,-1.032,0.124,-77.35,7.262,-1.995,
41955660,-0.274,-1.035,0.261,-58.38,5.32,-2.782,
41955660,-0.424,-0.936,0.306,-39.182,11.935,-7.227,
41955670,-0.584,-0.873,0.307,-37.625,8.207,-10.622,
41955680,-0.466,-1.015,0.227,-42.017,-7.857,-10.482,
41955690,-0.32,-0.945,0.257,-32.007,-9.607,-6.842,
41955700,-0.376,-0.856,0.261,-23.117,-5.162,-3.447,
41955710,-0.338,-0.902,0.27,-20.405,0.017,4.392,
41955720,-0.308,-0.946,0.347,-16.572,7.332,10.902,
41955730,-0.331,-0.93,0.37,-14.402,12.67,14.017,
41955740,-0.394,-0.947,0.368,-14,13.37,13.387,
41955750,-0.448,-0.972,0.355,-10.64,7.647,10.307,
41955760,-0.453,-0.975,0.326,-3.57,-2.012,7.367,
41955770,-0.494,-0.943,0.323,5.547,-10.115,3.097,
41955780,-0.438,-0.898,0.302,13.685,-15.54,-2.747,
41955790,-0.304,-0.84,0.291,15.907,-10.955,-5.145,
41955800,-0.356,-0.809,0.283,6.562,0.997,1.085,
41955810,-0.398,-0.81,0.299,-4.165,11.847,7.56,
41955820,-0.38,-0.879,0.284,-7.087,16.012,8.89,
41955830,-0.432,-0.926,0.307,-4.497,16.17,8.295,
41955840,-0.46,-0.934,0.303,3.115,8.137,4.532,
41955850,-0.389,-0.92,0.288,12.442,0.087,1.96,
41955860,-0.438,-0.892,0.236,19.792,-3.167,1.417,
41955870,-0.214,-0.726,0.293,27.667,-4.182,2.345,
41955880,-0.342,-0.784,0.251,23.957,9.45,6.107,
41955890,-0.359,-0.774,0.238,19.215,18.76,10.5,
41955900,-0.381,-0.76,0.256,14.857,25.165,14.77,
41955910,-0.454,-0.79,0.277,7.84,27.282,20.755,
41955920,-0.442,-0.828,0.295,3.762,25.865,22.207,
41955920,-0.441,-0.838,0.294,3.36,23.87,22.802,
41955940,-0.381,-0.85,0.284,3.78,23.117,24.307,
41955940,-0.355,-0.877,0.317,0.332,28.14,29.172,
41955960,-0.47,-0.923,0.373,-0.98,29.417,29.627,
41955960,-0.416,-0.865,0.323,4.9,25.2,26.267,
41955980,-0.372,-0.828,0.292,7.507,22.662,26.582,
41955980,-0.374,-0.864,0.227,10.097,26.285,29.557,
41956000,-0.375,-0.837,0.203,17.272,35.227,32.602,
41956000,-0.412,-0.817,0.173,25.182,45.22,33.845,
41956010,-0.491,-0.82,0.215,30.782,54.145,31.797,
41956020,-0.548,-0.804,0.248,32.62,55.597,28.227,
41956030,-0.516,-0.786,0.264,29.662,55.632,22.627,
41956040,-0.527,-0.806,0.27,25.287,55.58,21.542,
41956050,-0.498,-0.83,0.298,22.592,57.015,26.705,
41956060,-0.538,-0.859,0.303,21.35,59.377,32.165,
41956070,-0.605,-0.87,0.321,22.82,56.892,32.602,
41956080,-0.59,-0.859,0.318,25.515,48.737,32.637,
41956090,-0.556,-0.835,0.33,26.582,41.667,31.972,
41956100,-0.57,-0.837,0.309,27.702,36.487,31.307,
41956110,-0.561,-0.82,0.293,30.012,33.775,30.17,
41956120,-0.566,-0.808,0.277,32.182,33.425,30.17,
41956130,-0.573,-0.807,0.284,35.052,34.772,30.555,
41956140,-0.629,-0.833,0.289,38.657,34.72,31.797,
41956150,-0.701,-0.822,0.307,43.907,30.782,33.512,
41956160,-0.735,-0.818,0.325,49.472,21.962,34.912,
41956170,-0.736,-0.752,0.341,52.692,12.285,35.525,
41956180,-0.744,-0.704,0.343,48.58,3.587,34.422,
41956190,-0.754,-0.714,0.328,42.42,-4.97,32.847,
41956200,-0.739,-0.689,0.327,38.57,-13.772,29.697,
41956210,-0.718,-0.632,0.323,32.13,-19.372,24.605,
41956220,-0.698,-0.675,0.302,24.412,-26.442,21.577,
41956230,-0.641,-0.692,0.305,23.73,-33.25,19.582,
41956240,-0.606,-0.703,0.303,25.812,-37.082,15.627,
41956250,-0.61,-0.759,0.314,28.927,-41.58,11.9,
41956260,-0.579,-0.842,0.296,37.152,-45.412,12.442,
41956270,-0.865,-0.395,0.378,41.212,-60.532,14.402,
41956280,-0.655,-0.705,0.236,22.75,-76.282,13.02,
41956290,-0.194,-0.727,0.301,17.78,-61.617,5.722,
41956300,-0.468,-0.672,0.398,14.052,-26.145,6.685,
41956310,-0.666,-0.727,0.405,6.702,-7.157,9.555,
41956320,-0.639,-0.763,0.37,6.982,-8.015,13.772,
41956330,-0.502,-0.706,0.429,12.32,-2.135,17.185,
41956330,-0.671,-0.708,0.445,11.76,8.82,19.792,
41956350,-0.673,-0.74,0.445,9.205,10.797,19.932,
41956350,-0.665,-0.72,0.475,9.292,9.625,18.427,
41956370,-0.663,-0.72,0.481,7.157,8.977,15.207,
41956370,-0.649,-0.737,0.469,5.022,8.802,10.465,
41956390,-0.677,-0.731,0.456,5.477,8.382,5.407,
41956390,-0.76,-0.698,0.43,6.037,2.677,2.502,
41956410,-0.666,-0.743,0.389,4.217,-11.707,2.555,
41956410,-0.551,-0.724,0.385,7.77,-15.05,4.725,
41956420,-0.668,-0.651,0.396,9.712,-14.42,11.13,
41956430,-0.74,-0.627,0.36,4.55,-18.882,13.93,
41956440,-0.63,-0.886,0.306,0.087,-30.922,10.937,
41956450,-0.58,-0.781,0.382,19.477,-40.442,0.437,
41956460,-0.482,-0.567,0.394,32.375,-53.637,-16.257,
41956470,-0.277,-0.463,0.408,24.412,-46.077,-14.875,
41956480,-0.53,-0.616,0.354,1.225,-25.305,6.265,
41956490,-0.667,-0.815,0.31,-3.185,-12.04,0.42,
41956500,-0.65,-0.696,0.345,9.152,-15.75,-9.817,
41956510,-0.691,-0.64,0.312,14.962,-23.345,-2.047,
41956520,-0.729,-0.698,0.316,16.135,-23.432,16.152,
41956530,-0.836,-0.722,0.322,22.627,-22.592,14.437,
41956540,-0.716,-0.662,0.398,29.767,-26.005,3.937,
41956550,-0.67,-0.651,0.476,26.985,-27.09,-0.157,
41956560,-0.589,-0.721,0.451,23.922,-25.795,-1.837,
41956570,-0.447,-0.79,0.391,33.11,-21.367,-4.392,
41956580,-0.322,-0.625,0.466,54.74,-6.947,-1.715,
41956590,-0.517,-0.614,0.505,62.177,4.83,2.975,
41956600,-0.464,-0.645,0.547,65.625,9.59,0.63,
41956610,-0.592,-0.694,0.564,63.857,10.342,1.68,
41956620,-0.653,-0.759,0.566,64.75,4.235,2.852,
41956630,-0.678,-0.725,0.577,69.055,-10.745,9.887,
41956640,-0.652,-0.712,0.567,70.7,-21.525,15.645,
41956650,-0.744,-0.753,0.516,73.377,-32.76,23.152,
41956660,-0.707,-0.733,0.495,80.045,-49.787,27.457,
41956670,-0.619,-0.688,0.547,85.347,-62.562,26.6,
41956670,-0.667,-0.689,0.569,87.062,-77.192,28.77,
41956690,-0.312,-0.55,0.707,82.022,-78.242,19.25,
41956690,-0.533,-0.64,0.597,68.39,-55.65,26.005,
41956710,-0.595,-0.583,0.704,53.27,-76.422,16.52,
41956710,-0.559,-0.539,0.811,35.525,-96.425,19.74,
41956730,-0.746,-0.673,0.809,10.675,-110.285,16.187,
41956730,-0.993,-0.76,0.773,0.332,-142.415,9.047,
41956750,-0.883,-0.678,0.767,0.21,-186.305,-5.25,
41956750,-0.204,-0.502,0.795,-4.025,-199.867,-21.682,
41956760,0.272,-0.398,0.88,-20.352,-157.64,-31.605,
41956770,0.309,-0.463,0.899,-45.342,-82.985,-36.837,
41956780,0.241,-0.46,1.001,-66.342,-12.95,-36.645,
41956790,-0.029,-0.435,1.009,-98.945,39.83,-32.357,
41956800,-0.208,-0.619,0.861,-133.507,68.372,-32.165,
41956810,-0.689,-0.471,0.843,-156.957,68.197,-36.295,
41956820,-0.937,-0.738,0.485,-195.44,5.302,-67.585,
41956830,0.027,-0.96,0.076,-199.465,-66.71,-102.34,
41956840,0.347,-0.592,0.311,-171.552,-55.667,-105.052,
41956850,0.015,-0.718,0.203,-164.29,-18.095,-86.485,
41956860,-0.04,-0.815,0.118,-139.212,8.225,-74.182,
41956870,-0.107,-0.719,0.162,-103.967,26.25,-54.81,
41956880,-0.182,-0.674,0.197,-76.107,39.83,-30.03,
41956890,-0.263,-0.707,0.211,-54.215,48.195,-7.402,
41956900,-0.248,-0.682,0.24,-34.23,54.88,9.677,
41956910,-0.28,-0.626,0.3,-19.95,66.325,18.742,
41956920,-0.471,-0.626,0.37,-15.907,76.317,18.97,
41956930,-0.627,-0.648,0.432,-19.757,75.95,4.987,
41956940,-0.688,-0.697,0.424,-29.365,62.212,-19.092,
41956950,-0.699,-0.705,0.413,-36.645,42.892,-43.61,
41956960,-0.67,-0.736,0.382,-46.025,24.185,-66.342,
41956970,-0.622,-0.771,0.327,-50.417,8.015,-83.177,
41956980,-0.564,-0.773,0.325,-49.122,-2.362,-93.59,
41956990,-0.54,-0.82,0.336,-44.467,-8.855,-92.995,
41957000,-0.502,-0.881,0.304,-35.297,-13.737,-86.38,
41957010,-0.413,-0.921,0.279,-22.557,-9.555,-81.602,
41957020,-0.583,-0.922,0.292,-6.387,-5.005,-74.83,
41957030,-0.719,-0.941,0.37,23.52,-11.165,-71.557,
41957040,-0.772,-0.942,0.417,40.932,-34.37,-70.192,
41957050,-0.513,-0.965,0.452,45.342,-60.41,-71.715,
41957060,-0.133,-1.016,0.526,50.225,-51.222,-52.99,
41957070,-0.16,-1.062,0.55,58.187,-17.272,-3.465,
41957080,-0.388,-1.055,0.541,75.425,19.617,39.497,
41957080,-0.599,-0.894,0.49,80.482,32.655,43.19,
41957100,-0.579,-0.892,0.495,74.007,26.232,41.335,
41957100,-0.592,-0.966,0.414,73.342,8.977,54.337,
41957120,-0.513,-0.835,0.427,90.16,-9.992,47.617,
41957120,-0.432,-0.77,0.454,98.84,-22.872,33.25,
41957140,-0.395,-0.724,0.484,97.877,-30.87,20.685,
41957140,-0.331,-0.655,0.526,92.312,-35.892,9.87,
41957160,-0.213,-0.591,0.558,82.582,-34.825,3.027,
41957160,-0.138,-0.581,0.566,66.797,-26.547,2.817,
41957170,-0.136,-0.556,0.584,49.175,-11.462,7.052,
41957180,-0.132,-0.567,0.604,30.1,4.165,11.06,
41957190,-0.166,-0.598,0.604,12.95,20.195,16.975,
41957200,-0.239,-0.665,0.606,-1.627,31.482,23.922,
41957210,-0.325,-0.777,0.6,-9.94,36.785,29.12,
41957220,-0.405,-0.904,0.594,-5.967,36.155,32.007,
41957230,-0.479,-0.982,0.566,11.445,29.067,33.687,
41957240,-0.493,-0.967,0.555,38.202,19.005,33.372,
41957250,-0.452,-0.842,0.571,61.985,11.515,30.94,
41957260,-0.422,-0.727,0.56,70.297,9.852,29.347,
41957270,-0.47,-0.695,0.564,64.522,10.605,28.455,
41957280,-0.481,-0.684,0.564,54.477,11.725,24.5,
41957290,-0.458,-0.682,0.584,42.21,12.985,19.197,
41957300,-0.483,-0.7,0.592,29.277,13.877,18.935,
41957310,-0.509,-0.7,0.612,19.04,15.522,19.197,
41957320,-0.498,-0.715,0.63,10.64,15.33,16.66,
41957330,-0.494,-0.741,0.61,7.14,12.967,17.08,
41957340,-0.494,-0.732,0.598,12.477,7.542,23.205,
41957350,-0.471,-0.674,0.603,22.015,0.385,30.31,
41957360,-0.459,-0.648,0.598,27.72,-5.792,34.247,
41957370,-0.477,-0.669,0.585,32.375,-12.775,33.197,
41957380,-0.414,-0.639,0.563,40.162,-17.325,24.745,
41957390,-0.357,-0.592,0.586,45.815,-16.8,15.12,
41957400,-0.345,-0.569,0.596,46.48,-12.705,8.592,
41957410,-0.323,-0.573,0.586,42.42,-7.49,4.97,
41957420,-0.324,-0.61,0.656,35.472,0.192,5.32,
41957420,-0.304,-0.691,0.651,34.37,11.322,9.922,
41957440,-0.409,-0.644,0.682,36.61,21.402,17.57,
41957440,-0.487,-0.65,0.693,37.205,24.745,19.757,
41957460,-0.514,-0.676,0.667,35.752,23.24,19.512,
41957460,-0.532,-0.662,0.679,35.7,18.987,18.97,
41957480,-0.558,-0.659,0.672,33.127,13.09,19.145,
41957480,-0.566,-0.661,0.672,29.855,6.79,17.482,
41957500,-0.535,-0.648,0.685,27.002,2.012,13.16,
41957500,-0.501,-0.657,0.671,22.995,-0.175,10.15,
41957510,-0.476,-0.651,0.659,20.79,0.332,8.505,
41957520,-0.485,-0.636,0.636,20.545,0.542,7.84,
41957530,-0.475,-0.631,0.61,22.382,-0.77,8.4,
41957540,-0.462,-0.605,0.587,25.305,-1.557,8.732,
41957550,-0.445,-0.592,0.572,28,0.21,8.102,
41957560,-0.486,-0.595,0.579,31.71,3.15,7.367,
41957570,-0.545,-0.61,0.594,35.665,2.835,3.325,
41957580,-0.562,-0.616,0.62,40.197,-1.19,-2.905,
41957590,-0.553,-0.605,0.653,43.942,-7.052,-6.65,
41957600,-0.555,-0.587,0.686,44.117,-12.88,-6.947,
41957610,-0.537,-0.578,0.704,41.387,-16.992,-4.235,
41957620,-0.528,-0.573,0.739,36.732,-16.1,-0.035,
41957630,-0.542,-0.598,0.744,34.422,-16.572,3.622,
41957640,-0.506,-0.579,0.761,33.862,-17.045,5.267,
41957650,-0.42,-0.544,0.767,31.762,-12.722,5.337,
41957660,-0.418,-0.509,0.792,26.635,-4.742,7.612,
41957670,-0.446,-0.509,0.795,20.247,4.2,10.132,
41957680,-0.464,-0.529,0.775,16.957,11.077,8.312,
41957690,-0.509,-0.536,0.747,15.68,11.882,3.972,
41957700,-0.537,-0.518,0.749,15.645,8.277,-0.56,
41957710,-0.486,-0.539,0.731,17.097,3.587,-5.355,
41957720,-0.444,-0.547,0.751,21.105,4.707,-9.397,
41957730,-0.485,-0.544,0.751,24.237,4.567,-16.1,
41957740,-0.381,-0.543,0.712,29.225,0.227,-23.677,
41957750,-0.302,-0.473,0.753,31.99,-1.225,-22.137,
41957760,-0.346,-0.402,0.815,24.307,4.165,-15.312,
41957770,-0.448,-0.446,0.803,8.872,5.232,-7.577,
41957780,-0.458,-0.487,0.79,-2.695,1.627,-4.27,
41957790,-0.435,-0.498,0.795,-10.36,-1.032,-4.322,
41957800,-0.429,-0.533,0.765,-16.572,-1.61,-5.11,
41957810,-0.389,-0.554,0.703,-18.83,0,-6.755,
41957820,-0.354,-0.534,0.673,-18.007,6.16,-7.42,
41957830,-0.38,-0.495,0.652,-17.447,16.222,-6.072,
41957830,-0.445,-0.488,0.626,-17.972,22.645,-5.11,
41957850,-0.441,-0.487,0.609,-17.132,28.367,-7.227,
41957850,-0.489,-0.492,0.585,-15.942,32.725,-8.68,
41957870,-0.551,-0.526,0.578,-12.81,33.11,-9.537,
41957870,-0.55,-0.521,0.592,-6.737,30.52,-11.252,
41957880,-0.565,-0.531,0.603,-3.08,27.982,-12.635,
41957890,-0.598,-0.547,0.624,0.805,24.097,-15.155,
41957900,-0.618,-0.532,0.656,4.69,17.272,-19.092,
41957910,-0.617,-0.508,0.686,3.43,9.012,-22.417,
41957920,-0.589,-0.547,0.73,-2.87,1.277,-24.255,
41957930,-0.578,-0.558,0.749,-8.137,-4.217,-23.66,
41957940,-0.561,-0.566,0.765,-13.755,-7.7,-25.007,
41957950,-0.525,-0.6,0.741,-19.11,-10.08,-26.477,
41957960,-0.492,-0.589,0.736,-22.452,-10.972,-26.145,
41957970,-0.486,-0.592,0.723,-26.967,-12.81,-23.677,
41957980,-0.482,-0.6,0.713,-31.867,-12.95,-21.21,
41957990,-0.527,-0.646,0.689,-34.352,-15.382,-20.405,
41958000,-0.552,-0.675,0.661,-29.802,-21.14,-21.857,
41958010,-0.532,-0.657,0.713,-23.677,-25.69,-24.57,
41958020,-0.542,-0.637,0.745,-21.84,-31.255,-23.66,
41958030,-0.533,-0.632,0.739,-21.21,-41.37,-21.087,
41958040,-0.448,-0.621,0.738,-20.912,-48.23,-19.46,
41958050,-0.377,-0.6,0.721,-22.662,-48.51,-18.27,
41958060,-0.332,-0.607,0.689,-25.777,-43.732,-17.465,
41958070,-0.286,-0.584,0.651,-27.755,-34.02,-17.272,
41958080,-0.28,-0.541,0.634,-32.55,-21.402,-15.575,
41958090,-0.311,-0.558,0.599,-40.862,-8.452,-11.34,
41958100,-0.34,-0.597,0.578,-47.39,1.715,-8.347,
41958110,-0.401,-0.648,0.566,-50.05,5.127,-7.017,
41958120,-0.411,-0.673,0.552,-47.215,3.045,-7.752,
41958130,-0.387,-0.681,0.55,-42.437,1.295,-7.962,
41958140,-0.389,-0.72,0.538,-36.05,-2.38,-7.437,
41958150,-0.367,-0.705,0.539,-27.842,-5.46,-7.07,
41958160,-0.327,-0.678,0.564,-22.487,-3.92,-5.25,
41958170,-0.298,-0.687,0.592,-20.562,2.012,-2.1,
41958170,-0.266,-0.702,0.592,-17.08,8.417,-0.297,
41958190,-0.245,-0.708,0.595,-14.455,15.802,0.717,
41958190,-0.253,-0.697,0.58,-14.087,24.36,2.135,
41958210,-0.271,-0.692,0.624,-17.885,32.287,3.29,
41958210,-0.293,-0.776,0.608,-19.11,42.577,2.135,
41958230,-0.368,-0.803,0.56,-10.762,47.687,3.237,
41958230,-0.464,-0.756,0.564,0.122,46.707,3.657,
41958250,-0.491,-0.757,0.546,10.517,42.035,4.077,
41958250,-0.519,-0.782,0.517,23.852,36.417,5.267,
41958260,-0.558,-0.77,0.506,42.63,28.437,3.727,
41958270,-0.494,-0.736,0.469,61.512,22.645,-3.57,
41958280,-0.428,-0.729,0.427,79.485,22.837,-9.887,
41958290,-0.385,-0.666,0.418,98.892,30.712,-12.46,
41958300,-0.324,-0.579,0.479,110.582,48.597,-11.077,
41958310,-0.376,-0.525,0.577,110.04,69.317,-4.427,
41958320,-0.543,-0.534,0.615,103.582,79.887,4.795,
41958330,-0.606,-0.502,0.649,92.26,79.38,4.095,
41958340,-0.623,-0.499,0.685,72.082,74.27,-5.81,
41958350,-0.659,-0.506,0.693,51.047,62.282,-11.742,
41958360,-0.673,-0.51,0.697,31.132,47.11,-13.527,
41958370,-0.666,-0.587,0.672,13.457,33.04,-11.217,
41958380,-0.627,-0.667,0.656,6.702,21,-7.77,
41958390,-0.554,-0.729,0.636,11.2,14.035,-5.845,
41958400,-0.504,-0.735,0.635,24.535,15.155,-2.782,
41958410,-0.529,-0.699,0.64,38.027,19.022,2.607,
41958420,-0.502,-0.663,0.638,46.532,24.57,3.202,
41958430,-0.528,-0.618,0.657,52.57,29.4,3.447,
41958440,-0.532,-0.613,0.651,57.19,31.132,2.52,
41958450,-0.5,-0.603,0.626,62.492,31.43,1.767,
41958460,-0.523,-0.529,0.633,66.062,33.425,2.45,
41958470,-0.576,-0.505,0.663,64.312,32.795,1.225,
41958480,-0.584,-0.507,0.648,62.667,29.032,-1.487,
41958490,-0.553,-0.488,0.628,60.742,23.415,-5.355,
41958500,-0.515,-0.456,0.638,54.985,19.757,-8.155,
41958510,-0.514,-0.455,0.639,46.322,18.602,-7.28,
41958520,-0.523,-0.509,0.627,39.025,18.182,-5.302,
41958530,-0.526,-0.526,0.62,37.065,17.867,-4.41,
41958540,-0.519,-0.55,0.635,35.98,19.81,-3.937,
41958550,-0.558,-0.538,0.658,35.402,21.35,-4.9,
41958560,-0.506,-0.563,0.661,36.102,26.25,-7,
41958570,-0.517,-0.567,0.693,37.03,36.522,-4.585,
41958570,-0.607,-0.503,0.774,37.047,45.465,-1.365,
41958580,-0.649,-0.48,0.829,32.042,47.022,2.695,
41958590,-0.656,-0.51,0.825,25.182,43.627,6.86,
41958600,-0.616,-0.483,0.815,19.197,41.807,6.16,
41958610,-0.592,-0.407,0.806,10.482,44.555,1.82,
41958620,-0.527,-0.389,0.775,-0.84,51.222,-2.45,
41958630,-0.514,-0.429,0.736,-12.915,60.585,-2.537,
41958640,-0.666,-0.43,0.721,-24.587,65.397,-0.945,
41958650,-0.717,-0.444,0.67,-30.782,57.452,-4.147,
41958660,-0.634,-0.415,0.669,-33.285,46.147,-13.632,
41958670,-0.553,-0.45,0.632,-34.44,37.695,-17.71,
41958680,-0.51,-0.455,0.627,-31.57,37.38,-17.115,
41958690,-0.49,-0.379,0.634,-28.962,40.862,-14.157,
41958700,-0.46,-0.359,0.613,-32.952,47.617,-9.87,
41958710,-0.543,-0.342,0.615,-41.562,55.702,-4.865,
41958720,-0.542,-0.371,0.603,-52.412,63.21,-0.437,
41958730,-0.548,-0.433,0.588,-60.007,75.372,4.305,
41958740,-0.665,-0.506,0.551,-63.087,85.645,4.532,
41958750,-0.732,-0.515,0.514,-61.39,91.052,-3.535,
41958760,-0.758,-0.504,0.48,-60.55,90.352,-14.385,
41958770,-0.815,-0.494,0.449,-62.457,85.33,-20.09,
41958780,-0.825,-0.512,0.398,-64.75,75.512,-23.555,
41958790,-0.729,-0.542,0.319,-64.767,65.782,-25.987,
41958800,-0.667,-0.504,0.291,-64.435,62.457,-26.162,
41958810,-0.751,-0.482,0.26,-68.985,61.582,-26.075,
41958820,-0.785,-0.493,0.228,-75.862,56,-29.225,
41958830,-0.735,-0.541,0.22,-81.812,49.787,-33.302,
41958840,-0.754,-0.631,0.226,-84.315,44.8,-31.167,
41958850,-0.859,-0.771,0.259,-78.697,36.907,-25.427,
41958860,-0.934,-0.839,0.293,-62.79,18.917,-20.947,
41958870,-0.869,-0.867,0.345,-43.715,-0.542,-17.937,
41958880,-0.904,-0.816,0.405,-29.697,-19.477,-10.972,
41958890,-0.823,-0.823,0.437,-20.422,-35.087,-9.502,
41958900,-0.589,-0.731,0.44,-13.842,-36.417,-13.632,
41958910,-0.502,-0.618,0.455,-19.442,-20.282,-10.955,
41958920,-0.529,-0.628,0.427,-36.155,0.56,-5.145,
41958920,-0.609,-0.608,0.393,-51.047,16.887,-1.452,
41958940,-0.714,-0.641,0.347,-63.875,23.292,0.21,
41958940,-0.772,-0.728,0.294,-71.155,19.145,-1.365,
41958960,-0.728,-0.755,0.255,-68.075,8.995,-4.987,
41958960,-0.659,-0.738,0.268,-60.217,3.255,-6.737,
41958980,-0.639,-0.665,0.26,-52.867,0.927,-3.395,
41958980,-0.603,-0.63,0.276,-50.225,3.5,0.84,
41959000,-0.57,-0.623,0.224,-52.22,10.815,5.705,
41959000,-0.572,-0.765,0.2,-53.357,20.177,12.967,
41959010,-0.599,-0.783,0.249,-37.502,29.4,24.08,
41959020,-0.612,-0.673,0.265,-19.915,34.79,24.342,
41959030,-0.723,-0.634,0.346,-14.56,34.282,30.537,
41959040,-0.79,-0.629,0.277,-13.317,26.582,34.79,
41959050,-0.826,-0.563,0.279,-17.237,7.385,32.462,
41959060,-0.599,-0.734,0.279,-28.122,-3.727,28.297,
41959070,-0.7,-0.764,0.262,-28.56,-2.082,25.655,
41959080,-0.831,-0.69,0.27,-26.232,-3.99,15.137,
41959090,-0.729,-0.796,0.259,-30.485,-11.935,6.037,
41959100,-0.627,-0.844,0.299,-23.45,-11.147,3.727,
41959110,-0.643,-0.762,0.294,-11.952,-2.152,8.54,
41959120,-0.645,-0.693,0.279,-8.96,10.097,16.905,
41959130,-0.585,-0.632,0.231,-12.565,23.8,28.14,
41959140,-0.659,-0.612,0.234,-19.95,40.215,46.025,
41959150,-0.778,-0.683,0.198,-23.765,46.585,62.685,
41959160,-0.837,-0.673,0.201,-22.47,45.132,70.402,
41959170,-0.902,-0.704,0.194,-20.107,35.77,70.175,
41959180,-0.927,-0.744,0.179,-11.2,19.495,61.53,
41959190,-0.861,-0.712,0.148,0.735,4.69,48.037,
41959200,-0.754,-0.636,0.157,10.465,-3.062,34.615,
41959210,-0.777,-0.563,0.149,14.157,-6.405,27.912,
41959220,-0.838,-0.439,0.155,11.147,-10.762,24.937,
41959230,-0.783,-0.43,0.11,-3.587,-14.507,23.117,
41959240,-0.608,-0.525,0.084,-19.022,-7.315,27.667,
41959250,-0.611,-0.479,0.126,-24.22,9.275,27.65,
41959260,-0.721,-0.596,0.138,-29.312,24.482,29.96,
41959260,-0.765,-0.608,0.133,-23.625,35.385,30.94,
41959280,-0.898,-0.631,0.154,-12.04,35.157,35.787,
41959280,-0.916,-0.669,0.177,-1.155,26.565,32.41,
41959300,-0.847,-0.666,0.172,11.462,18.427,24.622,
41959300,-0.799,-0.583,0.191,22.435,13.405,21.525,
41959320,-0.765,-0.573,0.181,27.492,13.16,21.7,
41959320,-0.761,-0.583,0.194,31.57,16.135,24.097,
41959330,-0.746,-0.567,0.165,33.985,21.35,25.445,
41959340,-0.758,-0.524,0.156,36.032,30.537,28.49,
41959350,-0.788,-0.538,0.136,34.702,40.355,31.815,
41959360,-0.823,-0.526,0.126,33.057,46.2,34.825,
41959370,-0.861,-0.51,0.111,32.9,50.155,39.252,
41959380,-0.938,-0.506,0.113,33.197,48.685,43.33,
41959390,-0.991,-0.499,0.144,34.405,39.27,44.852,
41959400,-0.988,-0.521,0.152,32.935,24.43,40.67,
41959410,-0.941,-0.548,0.15,29.855,10.57,34.44,
41959420,-0.773,-0.624,0.137,31.622,6.23,34.02,
41959430,-0.945,-0.504,0.166,37.765,10.71,42.91,
41959440,-0.871,-0.577,0.158,43.592,10.902,43.715,
41959450,-0.888,-0.506,0.193,49.227,11.55,42.017,
41959460,-0.84,-0.455,0.233,50.855,13.965,40.46,
41959470,-0.872,-0.409,0.238,46.217,18.602,40.04,
41959480,-0.871,-0.394,0.237,35.927,23.712,37.292,
41959490,-0.911,-0.379,0.225,22.015,28.192,32.987,
41959500,-0.958,-0.404,0.189,7.962,26.267,26.582,
41959510,-0.928,-0.374,0.161,-3.5,23.712,20.405,
41959520,-0.903,-0.394,0.173,-15.347,23.117,16.52,
41959530,-0.905,-0.429,0.167,-25.865,24.29,13.16,
41959540,-0.925,-0.452,0.157,-31.045,23.117,9.642,
41959550,-0.941,-0.465,0.103,-31.307,17.727,6.947,
41959560,-0.876,-0.484,0.064,-29.242,11.725,4.9,
41959570,-0.847,-0.462,0.06,-23.957,11.13,9.362,
41959580,-0.88,-0.47,0.059,-20.317,14.84,15.54,
41959590,-0.936,-0.477,0.058,-16.327,16.992,19.88,
41959600,-0.97,-0.467,0.07,-11.357,15.557,22.137,
41959610,-0.982,-0.467,0.079,-7.455,11.76,22.487,
41959620,-0.984,-0.493,0.068,-3.5,8.522,22.015,
41959630,-0.969,-0.467,0.066,2.065,6.51,19.04,
41959640,-0.947,-0.443,0.063,5.53,5.897,14.262,
41959650,-0.926,-0.413,0.059,6.58,7.49,8.382,
41959660,-0.93,-0.397,0.067,5.092,8.627,5.372,
41959670,-0.929,-0.403,0.068,2.117,7.752,4.917,
41959670,-0.944,-0.424,0.063,-0.787,4.935,4.812,
41959690,-0.93,-0.422,0.065,-0.945,0.682,2.537,
41959690,-0.899,-0.391,0.083,-1.925,-3.062,-0.157,
41959710,-0.898,-0.406,0.074,-5.022,-5.6,0.192,
41959710,-0.889,-0.427,0.072,-7.297,-5.145,0.56,
41959730,-0.889,-0.424,0.072,-6.947,-3.57,0.577,
41959730,-0.885,-0.418,0.088,-6.177,0.647,0.647,
41959750,-0.911,-0.42,0.09,-5.652,5.267,2.555,
41959750,-0.943,-0.447,0.094,-4.952,8.277,3.972,
41959760,-0.949,-0.466,0.078,-1.995,8.855,4.06,
41959770,-0.945,-0.448,0.074,2.082,8.417,3.15,
41959780,-0.928,-0.419,0.061,4.69,9.082,3.307,
41959790,-0.923,-0.42,0.054,4.655,10.78,5.092,
41959800,-0.94,-0.429,0.052,3.167,11.742,6.65,
41959810,-0.941,-0.441,0.04,3.01,12.372,8.102,
41959820,-0.937,-0.451,0.026,4.637,12.372,8.872,
41959830,-0.938,-0.439,0.019,7.927,12.757,10.902,
41959840,-0.954,-0.411,0.029,10.71,12.915,13.79,
41959850,-0.96,-0.404,0.039,12.425,11.707,16.817,
41959860,-0.97,-0.406,0.043,13.877,7.857,18.305,
41959870,-0.963,-0.4,0.05,14.945,3.692,16.887,
41959880,-0.909,-0.404,0.053,15.47,1.977,13.737,
41959890,-0.857,-0.411,0.06,16.065,5.232,13.055,
41959900,-0.814,-0.452,0.051,17.447,14.052,16.677,
41959910,-0.835,-0.413,0.062,21.437,27.265,24.92,
41959920,-0.949,-0.367,0.092,23.555,37.625,34.212,
41959930,-1.003,-0.377,0.082,22.907,40.53,38.15,
41959940,-1.037,-0.347,0.064,22.015,36.697,38.745,
41959950,-1.061,-0.36,0.038,17.43,28.455,33.267,
41959960,-1.027,-0.383,0.017,13.352,18.375,26.53,
41959970,-0.991,-0.374,0,9.485,9.275,21.052,
41959980,-0.926,-0.371,0.005,4.865,3.605,15.715,
41959990,-0.86,-0.361,-0.018,1.172,3.85,15.802,
41960000,-0.899,-0.354,-0.031,-0.367,7.245,21.14,
41960010,-0.919,-0.421,0.005,1.575,6.807,25.69,
41960010,-0.877,-0.383,-0.019,7.91,5.705,26.162,
41960030,-0.849,-0.322,-0.003,11.847,6.002,24.22,
41960030,-0.807,-0.296,0.013,8.54,12.127,25.252,
41960050,-0.823,-0.276,0.028,2.922,22.942,28.28,
41960050,-0.909,-0.321,0.019,-1.872,33.425,31.5,
41960070,-1.017,-0.401,0.03,-0.91,37.485,31.902,
41960070,-1.042,-0.403,0.008,6.615,32.357,26.635,
41960080,-1.053,-0.353,0.002,14.262,28.035,20.002,
41960090,-1.052,-0.359,0,19.285,24.85,16.852,
41960100,-1.077,-0.316,0,22.68,22.26,17.255,
41960110,-1.107,-0.267,-0.009,22.505,18.602,15.767,
41960120,-1.118,-0.241,-0.046,17.43,12.162,12.39,
41960130,-1.107,-0.223,-0.059,9.117,4.847,11.112,
41960140,-1.137,-0.252,-0.037,0.367,-2.922,12.862,
41960150,-1.145,-0.328,-0.086,-2.992,-15.225,13.3,
41960160,-0.998,-0.297,-0.081,-0.385,-23.66,6.23,
41960170,-0.933,-0.339,-0.051,4.025,-24.727,5.425,
41960180,-0.919,-0.341,-0.027,10.64,-16.765,9.03,
41960190,-0.934,-0.305,-0.006,16.73,-8.732,11.322,
41960200,-0.907,-0.273,0.009,21.07,-3.185,10.78,
41960210,-0.902,-0.256,0.016,20.755,2.712,10.29,
41960220,-0.943,-0.255,0.007,17.622,5.967,10.99,
41960230,-0.968,-0.255,0.017,16.24,7.752,12.075,
41960240,-1.13,-0.308,0.02,14.315,0.892,13.667,
41960250,-1.141,-0.292,0.005,14.77,-16.992,13.457,
41960260,-1.146,-0.296,-0.002,18.217,-37.52,18.06,
41960270,-1.191,-0.334,-0.051,22.312,-62.247,25.217,
41960280,-1.042,-0.285,-0.018,27.422,-81.637,29.207,
41960290,-0.881,-0.237,0.04,25.795,-81.865,30.275,
41960300,-0.895,-0.292,0.051,18.497,-63.717,30.537,
41960310,-0.985,-0.305,0.076,14.28,-46.515,27.527,
41960320,-1.018,-0.287,0.106,12.337,-39.217,22.557,
41960330,-0.964,-0.299,0.093,10.097,-36.942,19.67,
41960340,-0.952,-0.332,0.08,10.85,-33.932,25.025,
41960350,-1.031,-0.324,0.065,16.257,-34.685,33.792,
41960360,-1.055,-0.33,0.04,22.575,-39.147,40.53,
41960370,-1.153,-0.326,0.03,28.857,-46.935,49.507,
41960380,-1.335,-0.345,0.031,35.682,-65.695,59.552,
41960390,-1.428,-0.404,0.007,48.475,-100.1,69.895,
41960400,-1.478,-0.381,0.016,68.862,-148.662,82.88,
41960410,-1.37,-0.326,0.071,88.357,-197.33,94.22,
41960420,-1.146,-0.233,0.117,101.762,-228.48,101.657,
41960420,-1.001,-0.13,0.196,101.045,-232.277,106.645,
41960440,-0.932,-0.15,0.272,89.687,-214.987,103.477,
41960440,-0.939,-0.177,0.273,82.687,-196.052,95.532,
41960460,-0.9,-0.095,0.332,82.407,-184.082,95.182,
41960460,-0.983,-0.115,0.324,77.35,-180.442,103.967,
41960480,-1.074,-0.11,0.327,75.267,-188.037,110.687,
41960480,-1.07,-0.031,0.351,76.212,-205.345,116.077,
41960500,-1.049,0.064,0.431,72.625,-226.52,122.727,
41960500,-1.107,-0.016,0.423,63.28,-249.27,127.47,
41960510,-0.9,-0.083,0.374,60.305,-272.842,126.122,
41960520,-0.69,0.04,0.446,62.685,-280.98,129.71,
41960530,-0.582,0.081,0.582,59.01,-271.355,133.192,
41960540,-0.448,0.103,0.534,56.455,-245.962,128.52,
41960550,-0.33,0.245,0.709,48.632,-204.575,118.422,
41960560,-0.429,0.118,0.684,36.942,-160.02,106.837,
41960570,-0.495,0.051,0.708,40.162,-131.407,94.342,
41960580,-0.571,0.191,0.768,53.042,-123.497,88.41,
41960590,-0.557,0.349,0.815,54.932,-127.365,84.525,
41960600,-0.443,0.258,0.722,42.525,-130.41,80.937,
41960610,-0.383,0.268,0.708,36.89,-125.177,78.155,
41960620,-0.237,0.272,0.703,32.322,-105.875,72.117,
41960630,-0.146,0.297,0.72,29.697,-69.195,63.437,
41960640,-0.285,0.35,0.738,25.917,-26.705,51.485,
41960650,-0.432,0.305,0.735,23.59,3.132,37.73,
41960660,-0.588,0.229,0.695,23.992,11.077,31.622,
41960670,-0.777,0.253,0.765,31.132,2.205,32.55,
41960680,-0.823,0.348,0.776,40.722,-26.337,35.717,
41960690,-0.561,0.429,0.721,42.28,-49.402,37.415,
41960700,-0.593,0.401,0.687,37.555,-51.275,39.287,
41960710,-0.561,0.369,0.655,35.875,-43.032,33.932,
41960720,-0.464,0.341,0.614,35.332,-37.887,30.292,
41960730,-0.353,0.37,0.636,35.962,-33.88,27.002,
41960740,-0.223,0.381,0.698,34.16,-28.787,22.26,
41960750,-0.105,0.391,0.657,31.482,-26.075,17.15,
41960760,-0.07,0.547,0.838,29.26,-20.125,16.992,
41960760,-0.272,0.395,0.785,19.18,-19.827,9.03,
41960780,0.034,0.439,0.866,19.775,-24.727,-1.627,
41960780,-0.194,0.469,0.917,15.89,-15.032,-3.237,
41960800,-0.302,0.453,0.91,11.182,-3.535,-12.022,
41960800,-0.437,0.505,0.926,4.917,-3.43,-18.095,
41960820,-0.45,0.462,0.898,-6.667,-2.817,-26.25,
41960820,-0.487,0.361,0.821,-14.595,2.905,-37.817,
41960830,-0.42,0.323,0.791,-16.327,9.17,-43.172,
41960840,-0.486,0.235,0.759,-18.865,20.79,-43.837,
41960850,-0.578,0.211,0.771,-16.975,28.052,-47.092,
41960860,-0.558,0.318,0.89,-18.2,30.467,-52.115,
41960870,-0.433,0.421,0.968,-35.63,42.787,-63.227,
41960880,-0.557,0.481,1.017,-67.672,66.587,-84.665,
41960890,-0.677,0.618,1.101,-109.637,76.02,-120.19,
41960900,-0.586,0.757,1.156,-167.912,71.452,-169.4,
41960910,-0.416,0.759,1.106,-239.802,68.022,-224.21,
41960920,-0.175,0.497,0.824,-310.415,66.097,-265.65,
41960930,-0.048,-0.135,0.302,-341.145,67.585,-257.6,
41960940,-0.509,-0.208,0.303,-311.85,43.645,-206.045,
41960950,-0.475,-0.161,0.396,-281.75,13.965,-178.115,
41960960,-0.247,-0.193,0.469,-267.575,11.742,-166.075,
41960970,-0.21,-0.264,0.675,-252.612,47.232,-153.632,
41960980,-0.594,-0.068,0.827,-242.795,93.345,-154.595,
41960990,-0.839,-0.132,0.772,-262.972,98.437,-169.522,
41961000,-0.653,-0.204,0.708,-286.965,82.145,-183.942,
41961010,-0.547,-0.332,0.653,-308.665,73.325,-185.517,
41961020,-0.503,-0.644,0.505,-317.8,76.37,-173.267,
41961030,-0.764,-0.835,0.341,-297.132,72.73,-157.727,
41961040,-1.081,-0.878,0.279,-252.892,39.935,-150.115,
41961050,-1.058,-0.969,0.195,-195.3,-15.627,-144.147,
41961060,-0.866,-1.004,0.19,-123.13,-49.7,-127.102,
41961070,-0.897,-1.035,0.271,-46.882,-55.37,-95.112,
41961080,-1.052,-1.057,0.351,23.537,-58.59,-59.727,
41961090,-1.227,-1.031,0.444,76.247,-77.822,-37.152,
41961100,-1.268,-1.041,0.572,113.575,-120.802,-38.062,
41961110,-1.136,-0.982,0.693,143.955,-175.945,-56.455,
41961120,-0.831,-0.951,0.74,170.03,-221.532,-81.777,
41961130,-0.599,-0.646,0.836,198.747,-255.115,-119,
41961140,-0.285,-0.386,0.891,212.345,-280.42,-153.177,
41961150,0.32,-0.311,0.862,213.692,-275.327,-160.527,
41961160,0.698,-0.216,0.896,217.315,-226.345,-146.335,
41961170,0.748,-0.212,0.943,218.925,-152.757,-120.627,
41961170,0.903,-0.221,1.009,221.13,-66.92,-86.677,
41961190,0.903,-0.178,0.989,216.37,29.172,-38.657,
41961190,0.657,-0.117,0.928,202.405,124.932,5.53,
41961210,0.346,-0.117,0.847,182.332,206.85,33.32,
41961210,0.046,-0.151,0.746,163.905,264.915,48.492,
41961230,-0.24,-0.159,0.675,155.26,296.572,55.965,
41961230,-0.567,-0.14,0.647,154.665,301.595,57.347,
41961250,-0.917,-0.087,0.662,160.16,276.85,51.397,
41961250,-1.15,0.002,0.694,168.122,218.435,42.42,
41961260,-1.2,0.132,0.753,169.05,139.002,35.787,
41961270,-1.138,0.182,0.73,154.612,58.467,31.027,
41961280,-1.032,0.136,0.668,134.75,-7.612,20.422,
41961290,-0.867,0.133,0.648,117.39,-50.907,-2.38,
41961300,-0.645,0.188,0.675,98.367,-68.722,-31.062,
41961310,-0.472,0.236,0.724,74.007,-62.877,-53.2,
41961320,-0.47,0.275,0.761,44.992,-48.16,-66.815,
41961330,-0.516,0.267,0.79,13.23,-32.62,-78.12,
41961340,-0.531,0.2,0.783,-17.622,-22.925,-87.85,
41961350,-0.544,0.096,0.743,-44.275,-19.687,-93.695,
41961360,-0.571,-0.038,0.717,-63.682,-19.372,-94.99,
41961370,-0.623,-0.134,0.726,-74.602,-22.557,-91.35,
41961380,-0.643,-0.182,0.738,-80.902,-28.927,-85.662,
41961390,-0.638,-0.231,0.749,-84.77,-38.01,-74.27,
41961400,-0.621,-0.255,0.772,-88.62,-47.355,-57.05,
41961410,-0.614,-0.277,0.798,-95.83,-55.772,-39.62,
41961420,-0.625,-0.343,0.804,-104.842,-65.24,-24.972,
41961430,-0.628,-0.44,0.808,-111.09,-78.68,-13.877,
41961440,-0.636,-0.524,0.817,-111.282,-94.202,-8.365,
41961450,-0.684,-0.574,0.819,-104.79,-113.575,-8.697,
41961460,-0.646,-0.561,0.827,-95.112,-138.547,-13.3,
41961470,-0.534,-0.483,0.889,-88.112,-159.565,-15.575,
41961480,-0.343,-0.428,0.924,-94.622,-169.487,-12.18,
41961490,-0.082,-0.408,0.863,-116.252,-154.472,-0.91,
41961500,0.112,-0.438,0.774,-143.08,-106.61,17.78,
41961510,0.093,-0.543,0.681,-162.172,-37.73,43.802,
41961510,-0.1,-0.66,0.625,-159.53,31.045,70.927,
41961530,-0.325,-0.712,0.619,-135.012,82.022,92.05,
41961530,-0.669,-0.771,0.643,-99.102,101.097,103.495,
41961550,-0.97,-0.721,0.691,-55.825,80.85,101.202,
41961550,-1,-0.567,0.72,-19.88,36.295,86.957,
41961570,-0.951,-0.49,0.76,-2.17,-12.355,64.435,
41961570,-0.804,-0.461,0.697,0.682,-53.952,34.177,
41961580,-0.629,-0.43,0.691,-4.007,-83.895,6.842,
41961590,-0.492,-0.406,0.68,-10.08,-98.892,-10.377,
41961600,-0.371,-0.387,0.677,-15.172,-101.08,-16.747,
41961610,-0.298,-0.406,0.699,-20.877,-93.065,-16.59,
41961620,-0.273,-0.475,0.703,-25.427,-79.065,-12.915,
41961630,-0.346,-0.546,0.732,-23.24,-69.475,-5.25,
41961640,-0.359,-0.557,0.732,-15.242,-67.952,4.34,
41961650,-0.338,-0.574,0.719,-11.497,-70.91,7.91,
41961660,-0.31,-0.631,0.749,-7.875,-72.24,4.077,
41961670,-0.145,-0.698,0.8,0.682,-73.692,3.22,
41961680,-0.094,-0.684,0.911,8.75,-57.785,7.192,
41961690,-0.195,-0.677,0.921,13.212,-40.25,9.065,
41961700,-0.276,-0.649,0.933,15.82,-33.355,6.527,
41961710,-0.263,-0.605,0.955,16.835,-37.502,-0.14,
41961720,-0.206,-0.6,0.923,13.44,-45.762,-3.78,
41961730,-0.082,-0.592,0.886,10.535,-49.735,-0.787,
41961740,-0.012,-0.538,0.887,7.612,-42.157,4.725,
41961750,-0.019,-0.566,0.879,1.085,-28.577,10.325,
41961760,-0.025,-0.58,0.872,-7.962,-11.812,16.817,
41961770,-0.041,-0.659,0.842,-14.245,4.707,19.215,
41961780,-0.072,-0.693,0.796,-10.097,21.315,22.295,
41961790,-0.115,-0.675,0.799,1.802,37.38,23.03,
41961800,-0.162,-0.679,0.792,16.38,51.712,23.555,
41961810,-0.195,-0.62,0.799,31.08,65.292,23.205,
41961820,-0.269,-0.556,0.812,38.762,74.865,20.79,
41961830,-0.347,-0.539,0.811,42.192,77.332,16.152,
41961840,-0.468,-0.311,0.835,37.747,75.792,14.945,
41961850,-0.294,-0.879,0.558,47.757,62.86,-13.177,
41961860,-0.354,-0.24,0.87,71.085,59.255,-55.09,
41961870,-0.32,-0.114,0.956,68.162,43.767,-2.467,
41961880,-0.269,-0.443,0.737,40.547,32.97,2.012,
41961890,-0.447,-0.388,0.75,32.742,22.435,-3.43,
41961900,-0.501,-0.209,0.809,26.687,9.397,-15.907,
41961910,-0.496,-0.175,0.792,14,-5.967,-32.217,
41961920,-0.504,-0.291,0.772,1.82,-20.545,-50.19,
41961920,-0.471,-0.286,0.766,-7.77,-37.485,-64.61,
41961940,-0.373,-0.229,0.786,-24.342,-53.147,-73.097,
41961940,-0.302,-0.311,0.734,-46.917,-61.145,-73.622,
41961960,-0.29,-0.284,0.752,-65.94,-63.717,-70.525,
41961960,-0.363,-0.283,0.721,-82.53,-62.405,-62.492,
41961970,-0.376,-0.38,0.749,-85.96,-58.625,-67.2,
41961980,-0.345,-0.571,0.76,-82.005,-54.565,-69.142,
41961990,-0.343,-0.709,0.784,-66.272,-52.902,-58.467,
41962000,-0.333,-0.789,0.854,-38.815,-50.907,-41.422,
41962010,-0.324,-0.893,0.875,-8.19,-45.132,-24.097,
41962020,-0.319,-0.911,0.898,26.792,-36.015,-14.472,
41962030,-0.248,-0.831,0.942,57.33,-23.047,-12.005,
41962040,-0.18,-0.731,0.945,74.795,-5.495,-10.15,
41962050,-0.122,-0.631,0.94,81.917,15.75,-7.087,
41962060,-0.064,-0.519,0.922,80.097,39.76,2.992,
41962070,-0.052,-0.386,0.933,69.142,64.382,20.422,
41962080,-0.114,-0.271,0.89,47.057,89.162,41.422,
41962090,-0.15,-0.152,0.86,17.902,112.735,60.76,
41962100,-0.236,-0.072,0.78,-17.622,131.197,76.807,
41962110,-0.326,-0.009,0.726,-56.805,143.727,83.965,
41962120,-0.499,0.032,0.667,-95.445,145.145,83.457,
41962130,-0.704,-0.042,0.574,-127.837,131.215,73.92,
41962140,-0.875,-0.177,0.498,-143.115,97.107,53.707,
41962150,-0.912,-0.279,0.458,-138.162,50.277,32.515,
41962160,-0.848,-0.346,0.465,-120.4,3.797,14.035,
41962170,-0.752,-0.385,0.498,-97.947,-34.37,-3.902,
41962180,-0.653,-0.434,0.569,-76.16,-62.65,-21.612,
41962190,-0.568,-0.536,0.713,-51.695,-83.177,-36.837,
41962200,-0.456,-0.753,0.858,-22.557,-98.455,-48.877,
41962210,-0.39,-0.858,0.996,19.81,-110.145,-49.052,
41962220,-0.282,-0.857,1.105,63.997,-126.525,-46.182,
41962230,-0.027,-0.6,1.197,101.797,-130.812,-44.52,
41962240,0.269,-0.297,1.236,104.247,-111.86,-42.192,
41962250,0.381,-0.251,1.261,70.472,-63.577,-26.652,
41962260,0.301,-0.408,1.118,28.98,-13.265,-7.875,
41962260,0.001,-0.512,1.093,-4.375,14.507,13.422,
41962280,-0.025,-0.45,1.03,-12.232,27.947,22.61,
41962280,-0.033,-0.543,0.901,-17.377,27.335,22.172,
41962300,-0.003,-0.526,0.846,-13.842,31.027,24.867,
41962300,-0.02,-0.548,0.769,-9.642,41.405,21.787,
41962320,-0.071,-0.588,0.739,-0.822,53.742,17.342,
41962320,-0.222,-0.593,0.731,10.045,61.057,16.152,
41962330,-0.338,-0.597,0.712,21.49,59.412,11.2,
41962340,-0.394,-0.515,0.745,32.375,49.682,4.532,
41962350,-0.462,-0.436,0.787,34.702,35.07,0.525,
41962360,-0.48,-0.402,0.8,29.627,17.185,-6.195,
41962370,-0.435,-0.346,0.808,18.077,1.942,-15.225,
41962380,-0.415,-0.284,0.812,-1.452,-6.44,-26.267,
41962390,-0.469,-0.282,0.781,-26.495,-15.995,-39.97,
41962400,-0.408,-0.293,0.762,-50.522,-22.837,-53.952,
41962410,-0.359,-0.369,0.75,-70.017,-23.852,-59.412,
41962420,-0.378,-0.528,0.712,-77.612,-20.895,-51.257,
41962430,-0.414,-0.672,0.689,-61.512,-17.15,-32.865,
41962440,-0.402,-0.722,0.7,-28.017,-9.187,-7.56,
41962450,-0.446,-0.692,0.712,9.135,1.907,20.212,
41962460,-0.478,-0.659,0.711,44.555,11.27,44.362,
41962470,-0.524,-0.584,0.726,76.002,21.262,58.992,
41962480,-0.598,-0.526,0.754,100.87,25.69,64.855,
41962490,-0.612,-0.48,0.804,119.857,26.267,64.96,
41962500,-0.68,-0.441,0.853,130.69,21.35,60.2,
41962510,-0.764,-0.423,0.873,136.517,6.037,53.217,
41962520,-0.723,-0.378,0.864,139.422,-15.015,42.735,
41962530,-0.599,-0.296,0.854,136.727,-33.6,31.885,
41962540,-0.468,-0.185,0.898,123.707,-47.04,25.042,
41962550,-0.347,-0.08,0.913,99.225,-53.532,25.025,
41962560,-0.243,-0.019,0.909,67.077,-48.247,30.677,
41962570,-0.181,-0.009,0.881,32.567,-31.132,37.992,
41962580,-0.198,-0.059,0.856,2.362,-9.642,45.57,
41962590,-0.297,-0.156,0.827,-18.27,5.915,50.645,
41962600,-0.363,-0.204,0.818,-28.682,11.83,47.145,
41962610,-0.404,-0.243,0.775,-37.397,7.402,36.277,
41962620,-0.469,-0.296,0.777,-44.082,-6.912,20.51,
41962630,-0.517,-0.324,0.762,-49.455,-28.14,0.105,
41962640,-0.499,-0.385,0.715,-54.512,-55.107,-20.107,
41962640,-0.429,-0.463,0.696,-51.852,-83.965,-36.312,
41962660,-0.318,-0.433,0.735,-40.425,-107.17,-49.822,
41962660,-0.17,-0.377,0.769,-30.817,-119.927,-60.9,
41962670,-0.052,-0.393,0.791,-27.79,-123.55,-65.502,
41962680,0.099,-0.478,0.806,-24.867,-115.255,-63.7,
41962690,0.109,-0.426,0.855,-21.525,-94.71,-59.972,
41962700,0.047,-0.442,0.902,-24.64,-78.382,-58.747,
41962710,0.064,-0.513,0.906,-26.67,-64.61,-55.002,
41962720,0.136,-0.513,0.979,-30.117,-54.442,-47.232,
41962730,0.325,-0.755,1.022,-40.25,-34.405,-22.75,
41962740,0.383,-0.924,1.125,-33.67,9.275,13.405,
41962750,0.059,-0.935,1.079,-17.78,50.767,36.47,
41962760,-0.312,-0.8,0.919,0.595,59.307,43.522,
41962770,-0.38,-0.559,0.88,14.105,41.125,38.692,
41962780,-0.347,-0.577,0.802,12.652,17.902,29.68,
41962790,-0.356,-0.598,0.685,29.102,-3.15,11.217,
41962800,-0.157,-0.576,0.742,42.997,-27.37,-10.85,
41962810,-0.047,-0.365,0.913,39.672,-37.135,-26.267,
41962820,0.14,-0.334,0.883,24.272,-27.317,-29.522,
41962830,0.151,-0.303,0.954,3.185,-8.767,-18.777,
41962840,0.115,-0.381,0.913,-20.247,17.325,-3.412,
41962850,0.024,-0.441,0.908,-33.845,43.61,5.302,
41962860,-0.051,-0.48,0.923,-38.762,62.387,9.87,
41962870,-0.146,-0.487,0.941,-37.152,75.775,14.997,
41962880,-0.255,-0.491,0.932,-32.83,83.055,17.097,
41962890,-0.349,-0.526,0.894,-27.177,83.23,15.942,
41962900,-0.403,-0.512,0.886,-16.38,74.235,16.187,
41962910,-0.37,-0.496,0.865,-5.18,64.417,19.74,
41962920,-0.39,-0.399,0.869,6.387,58.152,22.662,
41962930,-0.396,-0.375,0.867,14.14,54.985,21.035,
41962940,-0.401,-0.33,0.868,22.662,55.72,21.98,
41962950,-0.398,-0.281,0.874,32.987,58.835,24.675,
41962960,-0.403,-0.231,0.853,41.807,66.062,28.052,
41962970,-0.471,-0.196,0.822,48.527,73.027,33.057,
41962980,-0.532,-0.187,0.761,56.245,76.16,36.557,
41962990,-0.608,-0.153,0.734,64.33,71.365,36.61,
41963000,-0.707,-0.08,0.764,64.242,56.752,31.797,
41963010,-0.757,-0.086,0.746,54.075,31.342,24.955,
41963010,-0.754,-0.052,0.773,41.02,-2.275,17.885,
41963030,-0.709,-0.044,0.77,21.63,-33.25,10.972,
41963030,-0.686,-0.126,0.731,1.995,-58.59,2.502,
41963050,-0.627,-0.2,0.714,-11.025,-80.377,-10.395,
41963050,-0.536,-0.261,0.722,-20.877,-97.807,-21.087,
41963070,-0.409,-0.301,0.729,-28,-104.265,-29.487,
41963070,-0.283,-0.324,0.742,-33.215,-98.542,-30.642,
41963080,-0.257,-0.382,0.731,-38.762,-88.165,-22.277,
41963090,-0.305,-0.462,0.707,-42.245,-80.902,-10.57,
41963100,-0.339,-0.474,0.736,-41.457,-73.92,-4.34,
41963110,-0.311,-0.543,0.752,-40.32,-71.75,-3.727,
41963120,-0.255,-0.683,0.84,-38.92,-71.015,-3.325,
41963130,-0.085,-0.768,1.045,-24.097,-59.08,-4.252,
41963140,-0.055,-0.839,1.072,0.14,-40.88,-7.49,
41963150,-0.399,-0.709,1.06,23.957,-45.64,-4.865,
41963160,-0.423,-0.613,1.17,31.762,-77.84,-8.732,
41963170,0.035,-0.678,1.164,25.917,-90.317,-13.16,
41963180,0.103,-0.667,1.122,16.415,-81.112,-8.015,
41963190,0.01,-0.711,0.996,12.04,-60.287,-6.737,
41963200,-0.023,-0.734,0.902,17.867,-49.157,-13.58,
41963210,-0.036,-0.728,0.867,29.697,-48.422,-19.057,
41963220,0.029,-0.749,0.838,46.655,-52.08,-25.9,
41963230,0.188,-0.776,0.83,63.42,-48.755,-29.522,
41963240,0.227,-0.739,0.835,77.385,-29.68,-23.642,
41963250,0.148,-0.718,0.885,86.922,0.455,-13.632,
41963260,0.028,-0.708,0.899,89.967,32.48,3.132,
41963270,-0.083,-0.742,0.884,87.115,64.452,15.382,
41963280,-0.207,-0.754,0.887,84.315,97.51,21.595,
41963290,-0.396,-0.737,0.866,84.857,125.65,29.382,
41963300,-0.565,-0.676,0.866,86.345,144.2,31.535,
41963310,-0.738,-0.564,0.856,82.582,147.56,34.545,
41963320,-0.866,-0.471,0.827,72.712,136.867,41.685,
41963330,-0.888,-0.393,0.743,60.567,120.242,49.052,
41963330,-0.848,-0.228,0.673,51.66,104.002,58.765,
41963350,-0.805,-0.137,0.611,46.392,93.38,72.817,
41963350,-0.769,-0.038,0.531,42.14,90.912,87.972,
41963370,-0.74,0.102,0.526,36.067,91.787,96.827,
41963370,-0.719,0.19,0.539,25.217,92.347,102.987,
41963390,-0.667,0.257,0.549,10.412,90.107,106.155,
41963390,-0.605,0.311,0.583,-6.79,84.385,105.105,
41963410,-0.507,0.331,0.613,-22.662,76.667,101.325,
41963410,-0.365,0.353,0.661,-40.6,74.567,94.482,
41963420,-0.339,0.31,0.659,-66.5,74.83,88.287,
41963430,-0.292,0.278,0.716,-90.335,74.655,77.332,
41963440,-0.316,0.182,0.76,-111.982,70.21,64.907,
41963450,-0.384,0.081,0.817,-130.252,58.38,48.125,
41963460,-0.433,-0.02,0.855,-143.657,38.815,27.562,
41963470,-0.402,-0.134,0.872,-147.945,16.292,5.215,
41963480,-0.345,-0.225,0.869,-141.592,-4.077,-7.665,
41963490,-0.273,-0.3,0.871,-123.777,-16.992,-12.215,
41963500,-0.246,-0.357,0.856,-97.125,-17.745,-10.622,
41963510,-0.27,-0.352,0.906,-67.55,-10.132,-4.27,
41963520,-0.347,-0.32,0.97,-42.7,-1.47,0.647,
41963530,-0.412,-0.275,1.017,-26.967,1.82,1.487,
41963540,-0.392,-0.221,1.07,-19.355,1.277,-0.752,
41963550,-0.369,-0.198,1.112,-21.735,1.452,-5.127,
41963560,-0.348,-0.214,1.107,-29.435,5.022,-7.857,
41963570,-0.344,-0.241,1.113,-35.63,9.59,-9.24,
41963580,-0.356,-0.329,1.066,-37.222,13.37,-7.84,
41963590,-0.401,-0.344,1.042,-29.312,12.425,-2.24,
41963600,-0.41,-0.365,1.002,-20.265,7.577,1.435,
41963610,-0.363,-0.421,0.94,-14.157,7.42,-2.695,
41963620,-0.382,-0.424,0.908,-9.485,11.042,-12.477,
41963630,-0.359,-0.416,0.833,-8.715,17.22,-27.492,
41963640,-0.265,-0.416,0.756,-14.332,33.32,-44.047,
41963650,-0.243,-0.429,0.69,-24.325,60.9,-60.095,
41963660,-0.277,-0.496,0.584,-33.547,95.865,-79.17,
41963670,-0.33,-0.621,0.471,-41.842,142.187,-108.78,
41963680,-0.421,-0.722,0.398,-44.87,191.607,-150.78,
41963690,-0.413,-0.887,0.294,-37.73,232.4,-189.77,
41963700,-0.719,-0.915,0.395,-12.967,252.14,-204.137,
41963710,-0.999,-0.726,0.573,24.465,226.94,-196.175,
41963720,-1.156,-0.556,0.703,42.192,173.95,-168.035,
41963730,-1.111,-0.432,0.773,38.692,106.662,-126.297,
41963740,-0.852,-0.453,0.752,23.31,50.592,-81.392,
41963750,-0.688,-0.568,0.708,7.822,20.177,-50.435,
41963760,-0.581,-0.634,0.681,4.13,10.605,-40.25,
41963760,-0.547,-0.591,0.678,11.602,11.007,-45.15,
41963780,-0.674,-0.591,0.692,22.662,8.417,-54.495,
41963780,-0.71,-0.571,0.673,38.885,-7.927,-63.297,
41963800,-0.574,-0.532,0.625,52.552,-28.91,-65.975,
41963800,-0.374,-0.575,0.58,59.78,-34.807,-61.057,
41963820,-0.375,-0.58,0.562,58.205,-23.905,-55.492,
41963820,-0.408,-0.572,0.628,57.452,-8.592,-49.7,
41963830,-0.396,-0.55,0.667,53.62,3.255,-47.705,
41963840,-0.445,-0.453,0.722,46.252,21.717,-40.25,
41963850,-0.633,-0.463,0.823,27.615,29.26,-32.375,
41963860,-0.695,-0.516,0.793,6.142,31.027,-25.06,
41963870,-0.642,-0.526,0.782,-6.107,26.512,-24.832,
41963880,-0.662,-0.589,0.762,-12.722,25.27,-20.125,
41963890,-0.638,-0.582,0.695,-8.995,21.805,-13.492,
41963900,-0.551,-0.527,0.633,1.207,16.94,-10.675,
41963910,-0.601,-0.481,0.604,12.67,10.657,-6.79,
41963920,-0.631,-0.448,0.561,22.82,-1.487,-7.647,
41963930,-0.48,-0.328,0.568,29.312,-14.665,-13.877,
41963940,-0.36,-0.301,0.56,23.467,-16.87,-18.69,
41963950,-0.321,-0.29,0.566,13.965,-8.47,-21.28,
41963960,-0.325,-0.297,0.566,0.717,3.745,-20.58,
41963970,-0.365,-0.378,0.539,-15.19,14.945,-17.325,
41963980,-0.403,-0.433,0.516,-27.387,24.482,-13.055,
41963990,-0.444,-0.507,0.489,-36.417,32.235,-8.522,
41964000,-0.507,-0.61,0.469,-39.06,38.657,-4.322,
41964010,-0.568,-0.797,0.472,-31.902,43.12,-0.805,
41964020,-0.64,-0.816,0.522,-7.84,46.375,0.717,
41964030,-0.726,-0.771,0.581,19.407,43.312,-4.585,
41964040,-0.883,-0.715,0.641,40.687,30.975,-8.295,
41964050,-0.909,-0.649,0.654,55.475,6.58,-10.955,
41964060,-0.818,-0.644,0.632,62.142,-17.85,-12.25,
41964070,-0.739,-0.624,0.618,69.265,-34.002,-9.152,
41964080,-0.729,-0.57,0.632,77.017,-44.502,-4.602,
41964080,-0.796,-0.57,0.628,79.59,-58.52,-1.242,
41964100,-0.635,-0.527,0.623,80.395,-72.292,-1.155,
41964100,-0.533,-0.456,0.674,78.26,-73.15,1.575,
41964120,-0.538,-0.461,0.677,68.39,-65.835,5.932,
41964120,-0.572,-0.463,0.699,58.782,-58.712,6.667,
41964140,-0.545,-0.491,0.714,51.957,-58.537,3.745,
41964140,-0.431,-0.505,0.751,52.955,-56.682,0.647,
41964160,-0.44,-0.47,0.778,55.247,-53.042,0.087,
41964160,-0.43,-0.439,0.804,55.23,-48.842,-0.262,
41964170,-0.326,-0.395,0.806,55.86,-43.4,-1.33,
41964180,-0.212,-0.316,0.834,51.957,-29.872,-2.082,
41964190,-0.213,-0.277,0.837,42.455,-8.995,-2.817,
41964200,-0.231,-0.305,0.798,31.57,9.345,-5.81,
41964210,-0.273,-0.339,0.789,25.532,22.802,-10.185,
41964220,-0.346,-0.373,0.76,23.1,30.8,-12.827,
41964230,-0.415,-0.434,0.725,22.207,33.355,-14.56,
41964240,-0.485,-0.488,0.695,24.587,32.725,-14.63,
41964250,-0.551,-0.49,0.72,28.612,29.505,-16.537,
41964260,-0.524,-0.578,0.682,30.485,25.147,-18.987,
41964270,-0.459,-0.459,0.717,38.552,19.775,-24.062,
41964280,-0.547,-0.433,0.72,38.482,22.96,-18.392,
41964290,-0.406,-0.448,0.622,38.885,19.39,-18.83,
41964300,-0.415,-0.361,0.633,44.1,24.01,-18.13,
41964310,-0.457,-0.264,0.704,39.147,29.697,-11.532,
41964320,-0.493,-0.417,0.72,25.672,47.757,3.57,
41964330,-0.707,-0.418,0.723,23.992,57.942,7.63,
41964340,-0.718,-0.406,0.746,24.517,55.825,4.725,
41964350,-0.716,-0.435,0.742,30.17,46.2,4.48,
41964360,-0.745,-0.431,0.718,38.517,36.487,7.367,
41964370,-0.764,-0.39,0.726,46.112,26.477,12.372,
41964380,-0.768,-0.351,0.723,48.44,18.952,15.54,
41964390,-0.741,-0.304,0.726,49.017,12.11,16.642,
41964400,-0.658,-0.257,0.752,48.51,8.855,18.707,
41964410,-0.664,-0.252,0.752,46.427,7.542,20.825,
41964420,-0.63,-0.269,0.748,48.877,3.902,20.195,
41964430,-0.637,-0.22,0.79,53.147,-2.905,19.722,
41964440,-0.676,-0.307,0.748,53.375,-14.07,21.91,
41964450,-0.675,-0.359,0.739,57.47,-29.102,24.185,
41964460,-0.659,-0.324,0.745,63.682,-44.415,27.93,
41964470,-0.725,-0.292,0.751,62.912,-62.317,33.04,
41964480,-0.49,-0.396,0.76,61.652,-75.127,37.1,
41964490,-0.414,-0.309,0.842,65.275,-69.825,36.102,
41964500,-0.407,-0.231,0.848,60.777,-56.07,32.287,
41964510,-0.247,-0.244,0.94,50.96,-35.56,27.825,
41964510,-0.588,-0.337,0.529,46.077,-16.205,30.52,
41964530,-0.319,0.135,0.722,56.052,-33.652,18.287,
41964530,-0.141,-0.165,0.778,36.487,-26.39,19.022,
41964550,-0.513,-0.065,0.965,28.682,-5.67,20.825,
41964550,-0.581,-0.161,1.035,15.925,3.64,19.11,
41964570,-0.575,-0.288,1.011,5.932,6.51,13.72,
41964570,-0.478,-0.224,1.039,9.065,15.522,7,
41964580,-0.621,-0.161,0.991,7.122,26.022,4.497,
41964590,-0.575,-0.157,0.906,0.472,28.42,1.172,
41964600,-0.475,-0.111,0.851,-4.777,29.452,-3.745,
41964610,-0.398,-0.151,0.793,-11.742,35.787,-3.745,
41964620,-0.533,-0.153,0.796,-17.412,42.192,1.26,
41964630,-0.631,-0.21,0.799,-22.89,38.01,6.247,
41964640,-0.708,-0.266,0.787,-22.33,23.537,7.682,
41964650,-0.665,-0.217,0.818,-19.442,8.977,7.927,
41964660,-0.648,-0.213,0.81,-23.957,4.795,11.252,
41964670,-0.58,-0.244,0.764,-30.082,9.467,11.952,
41964680,-0.494,-0.165,0.762,-34.72,24.43,3.325,
41964690,-0.493,-0.132,0.759,-43.925,42.77,-6.475,
41964700,-0.539,-0.157,0.745,-52.412,56.717,-12.652,
41964710,-0.596,-0.176,0.758,-56.245,62.335,-17.482,
41964720,-0.624,-0.244,0.766,-54.88,62.825,-17.955,
41964730,-0.709,-0.186,0.806,-50.995,59.167,-19.897,
41964740,-0.761,-0.269,0.816,-52.307,53.27,-20.79,
41964750,-0.855,-0.324,0.808,-49.507,39.13,-20.02,
41964760,-0.854,-0.338,0.817,-45.57,21.717,-21.682,
41964770,-0.851,-0.37,0.823,-43.12,4.935,-24.447,
41964780,-0.823,-0.371,0.874,-40.46,-13.825,-30.642,
41964790,-0.704,-0.374,0.896,-38.132,-28.525,-38.43,
41964800,-0.659,-0.418,0.851,-34.142,-37.047,-44.905,
41964810,-0.691,-0.296,0.77,-26.11,-53.795,-56.052,
41964820,-0.346,-0.105,0.769,-27.44,-71.487,-80.815,
41964830,-0.206,-0.34,0.578,-31.43,-55.685,-94.377,
41964830,-0.686,-0.418,0.503,-22.697,-42.98,-84.122,
41964850,-0.913,-0.36,0.492,-5.022,-65.17,-78.907,
41964850,-0.825,-0.113,0.659,-4.427,-102.865,-78.435,
41964870,-0.514,-0.056,0.81,-42.175,-119.122,-82.74,
41964870,-0.357,-0.241,0.796,-95.935,-101.64,-84.262,
41964890,-0.27,-0.332,0.754,-135.747,-68.127,-85.522,
41964890,-0.157,-0.235,0.736,-157.57,-29.487,-83.125,
41964910,-0.368,-0.235,0.686,-175.227,2.205,-73.955,
41964910,-0.412,-0.287,0.771,-187.442,14.577,-65.817,
41964920,-0.56,-0.579,0.788,-193.112,20.562,-49.892,
41964930,-0.788,-0.871,0.727,-177.73,21.577,-35.63,
41964940,-0.944,-0.907,0.614,-148.312,15.435,-27.055,
41964950,-1.02,-0.925,0.385,-116.987,-3.412,-34.912,
41964960,-1.085,-0.637,0.425,-91.35,-27.457,-39.322,
41964970,-0.834,-0.726,0.317,-86.31,-53.987,-37.765,
41964980,-0.521,-0.633,0.362,-75.635,-66.377,-45.36,
41964990,-0.326,-0.555,0.525,-70.542,-62.947,-36.627,
41965000,-0.235,-0.682,0.612,-74.06,-54.267,-19.372,
41965010,-0.222,-0.716,0.603,-71.995,-50.645,-19.547,
41965020,0.025,-0.627,0.708,-67.41,-46.41,-20.912,
41965030,-0.094,-0.72,0.582,-72.135,-34.527,-11.917,
41965040,-0.178,-0.826,0.633,-67.532,-29.172,-13.125,
41965050,-0.192,-0.871,0.616,-56.892,-29.452,-13.895,
41965060,-0.293,-0.861,0.532,-45.29,-25.095,-13.23,
41965070,-0.356,-0.743,0.498,-35.42,-16.257,-12.582,
41965080,-0.544,-0.738,0.481,-36.697,-11.62,-10.412,
41965090,-0.459,-0.793,0.554,-36.102,-12.67,-7.892,
41965100,-0.413,-0.766,0.634,-31.692,-12.18,-5.687,
41965110,-0.328,-0.736,0.643,-28.245,-11.235,-7.752,
41965120,-0.297,-0.788,0.594,-21.805,-8.767,-8.032,
41965130,-0.303,-0.82,0.592,-14.42,-8.33,-10.797,
41965140,-0.309,-0.829,0.589,-7.84,-10.202,-10.64,
41965150,-0.288,-0.916,0.552,-1.207,-7.805,-8.592,
41965160,-0.372,-0.883,0.56,19.197,0.14,-6.247,
41965170,-0.197,-0.86,0.568,40.127,-6.3,-11.935,
41965180,-0.05,-0.779,0.563,65.397,-5.337,-11.252,
41965190,0.002,-0.753,0.536,83.825,1.225,-0.822,
41965200,0.034,-0.663,0.494,100.94,7.175,13.072,
41965210,0.017,-0.477,0.485,112.157,13.825,32.532,
41965220,0.001,-0.329,0.48,108.727,20.125,59.115,
41965230,-0.058,-0.29,0.446,88.375,27.335,91.962,
41965240,-0.218,-0.401,0.585,58.695,37.292,119.56,
41965250,-0.639,-0.666,0.779,30.817,31.097,133.507,
41965260,-0.826,-1.153,0.868,19.372,9.222,132.597,
41965260,-0.668,-1.333,0.869,38.797,-3.832,118.44,
41965280,-0.252,-1.084,0.946,78.4,18.497,104.37,
41965280,-0.118,-0.777,1.124,101.552,57.54,100.992,
41965300,-0.264,-0.688,1.119,111.947,92.61,104.125,
41965300,-0.223,-0.61,1.125,127.837,113.557,101.395,
41965320,-0.361,-0.471,1.196,132.965,124.53,98.455,
41965320,-0.594,-0.442,1.18,124.127,130.34,96.477,
41965330,-0.672,-0.478,1.089,117.18,119.07,94.237,
41965340,-0.654,-0.522,0.986,123.567,95.585,89.95,
41965350,-0.684,-0.52,0.891,139.072,70.28,81.865,
41965360,-0.752,-0.46,0.824,159.18,43.925,67.077,
41965370,-0.809,-0.373,0.772,181.79,10.762,49.437,
41965380,-0.829,-0.249,0.734,201.687,-27.02,30.66,
41965390,-0.771,-0.136,0.675,216.16,-63.805,11.322,
41965400,-0.648,0.006,0.638,218.715,-90.457,-6.195,
41965410,-0.561,0.132,0.628,205.625,-101.202,-20.002,
41965420,-0.515,0.226,0.603,180.705,-98.805,-28.35,
41965430,-0.505,0.284,0.581,147.07,-85.767,-36.505,
41965440,-0.532,0.311,0.581,109.567,-68.075,-43.487,
41965450,-0.556,0.298,0.576,70.77,-51.87,-45.29,
41965460,-0.634,0.199,0.537,36.242,-42.227,-42.245,
41965470,-0.729,0.082,0.503,9.782,-37.747,-39.97,
41965480,-0.784,-0.028,0.494,-6.79,-37.362,-42.21,
41965490,-0.826,-0.108,0.493,-14,-42.017,-44.992,
41965500,-0.832,-0.155,0.522,-15.627,-49.98,-44.852,
41965510,-0.796,-0.171,0.56,-14.122,-59.22,-39.06,
41965520,-0.764,-0.16,0.601,-14.525,-67.585,-28.752,
41965530,-0.693,-0.163,0.635,-17.832,-72.642,-15.242,
41965540,-0.628,-0.171,0.668,-21.717,-74.62,2.905,
41965550,-0.605,-0.181,0.708,-26.862,-74.9,18.76,
41965560,-0.619,-0.232,0.738,-35.017,-74.13,26.39,
41965570,-0.596,-0.269,0.725,-41.492,-72.677,26.127,
41965580,-0.535,-0.301,0.734,-44.117,-69.23,21.122,
41965580,-0.515,-0.305,0.736,-42.752,-65.327,14.507,
41965600,-0.489,-0.272,0.74,-40.197,-62.335,11.182,
41965600,-0.456,-0.271,0.73,-40.145,-60.322,10.01,
41965620,-0.435,-0.222,0.742,-42.49,-58.87,12.897,
41965620,-0.381,-0.221,0.721,-50.137,-57.872,21.07,
41965640,-0.362,-0.258,0.693,-61.775,-52.342,31.255,
41965640,-0.339,-0.316,0.674,-72.415,-41.755,43.312,
41965660,-0.373,-0.39,0.655,-80.937,-27.492,53.427,
41965660,-0.425,-0.473,0.646,-82.127,-12.495,56.28,
41965670,-0.47,-0.518,0.673,-74.252,-1.277,53.13,
41965680,-0.514,-0.513,0.724,-62.51,3.85,48.737,
41965690,-0.572,-0.504,0.779,-51.642,2.205,44.117,
41965700,-0.6,-0.505,0.802,-42.7,-4.427,34.405,
41965710,-0.568,-0.494,0.832,-35.63,-12.442,24.797,
41965720,-0.53,-0.481,0.845,-33.092,-19.775,18.672,
41965730,-0.462,-0.466,0.859,-34.492,-23.957,16.397,
41965740,-0.432,-0.427,0.851,-40.162,-23.642,22.68,
41965750,-0.412,-0.42,0.824,-49.402,-16.94,35.332,
41965760,-0.411,-0.44,0.802,-58.45,-5.862,49.857,
41965770,-0.442,-0.484,0.773,-63.525,5.267,65.782,
41965780,-0.479,-0.549,0.749,-62.982,15.137,75.792,
41965790,-0.55,-0.588,0.755,-57.155,22.89,76.702,
41965800,-0.655,-0.612,0.78,-49.507,23.502,68.145,
41965810,-0.717,-0.622,0.757,-39.76,16.082,46.235,
41965820,-0.714,-0.599,0.745,-27.055,0.682,21.14,
41965830,-0.659,-0.563,0.743,-17.377,-19.425,1.4,
41965840,-0.609,-0.516,0.731,-12.547,-37.467,-11.217,
41965850,-0.554,-0.463,0.724,-11.497,-50.697,-17.692,
41965860,-0.506,-0.417,0.725,-15.575,-60.637,-18.952,
41965870,-0.418,-0.417,0.731,-22.452,-65.415,-12.145,
41965880,-0.316,-0.428,0.72,-27.965,-63.385,0.455,
41965890,-0.239,-0.445,0.715,-30.677,-52.552,14.315,
41965900,-0.196,-0.464,0.736,-30.73,-32.655,26.722,
41965910,-0.207,-0.503,0.765,-27.58,-8.54,36.61,
41965920,-0.253,-0.49,0.789,-18.865,13.37,42.437,
41965930,-0.274,-0.416,0.817,-10.937,29.802,46.34,
41965940,-0.305,-0.36,0.861,-12.705,40.53,56.752,
41965950,-0.331,-0.34,0.825,-16.555,44.485,78.505,
41965960,-0.354,-0.289,0.801,-19.565,47.827,105.42,
41965970,-0.363,-0.278,0.842,-26.285,62.527,126.35,
41965980,-0.437,-0.36,0.834,-35.84,82.565,133.21,
41965990,-0.654,-0.509,0.755,-40.6,96.285,120.96,
41966000,-0.88,-0.548,0.746,-33.88,92.4,87.587,
41966010,-1.029,-0.542,0.814,-22.89,63.945,45.885,
41966010,-1.04,-0.511,0.826,-12.022,13.492,6.842,
41966030,-0.84,-0.414,0.809,-5.652,-41.16,-18.042,
41966030,-0.564,-0.352,0.772,-7.087,-71.032,-24.937,
41966040,-0.467,-0.383,0.73,-13.107,-73.307,-22.942,
41966050,-0.36,-0.409,0.719,-18.935,-58.03,-20.877,
41966060,-0.305,-0.401,0.74,-21.21,-34.265,-15.627,
41966070,-0.31,-0.408,0.758,-22.12,-9.555,-9.1,
41966080,-0.341,-0.453,0.784,-23.152,9.45,-3.395,
41966090,-0.39,-0.45,0.826,-22.487,20.177,-1.277,
41966100,-0.438,-0.484,0.844,-22.312,22.802,-0.77,
41966110,-0.477,-0.551,0.825,-17.08,19.46,2.852,
41966120,-0.493,-0.593,0.824,-5.145,15.452,6.562,
41966130,-0.54,-0.634,0.805,10.535,12.302,10.43,
41966140,-0.555,-0.651,0.786,32.34,5.46,14.087,
41966150,-0.521,-0.595,0.798,58.362,-1.855,15.925,
41966160,-0.465,-0.527,0.786,81.375,-4.935,14,
41966170,-0.42,-0.497,0.798,101.202,-2.065,7.175,
41966180,-0.408,-0.477,0.772,117.792,4.637,1.172,
41966190,-0.427,-0.377,0.779,132.912,14.91,-3.902,
41966200,-0.44,-0.23,0.786,143.395,27.667,-7.052,
41966210,-0.482,-0.105,0.777,142.887,40.127,-5.827,
41966220,-0.614,0.05,0.812,129.955,47.022,0.087,
41966230,-0.763,0.142,0.882,100.992,39.462,7.245,
41966240,-0.867,0.14,0.87,59.955,17.29,13.457,
41966250,-0.926,0.077,0.791,19.267,-15.575,15.26,
41966260,-0.945,0.006,0.734,-13.685,-53.847,11.585,
41966270,-0.861,-0.068,0.673,-42.157,-87.78,1.085,
41966280,-0.667,-0.161,0.638,-61.757,-105.437,-13.072,
41966290,-0.602,-0.132,0.655,-74.725,-108.832,-19.932,
41966300,-0.511,-0.108,0.676,-91.7,-104.632,-15.872,
41966310,-0.405,-0.225,0.602,-109.322,-89.32,-2.397,
41966320,-0.44,-0.358,0.559,-112.367,-71.102,18.812,
41966330,-0.538,-0.443,0.581,-102.165,-56.035,38.237,
41966330,-0.618,-0.49,0.63,-82.425,-49.857,49.7,
41966350,-0.628,-0.504,0.656,-56.682,-51.695,52.92,
41966350,-0.632,-0.47,0.713,-34.282,-55.965,47.915,
41966370,-0.69,-0.435,0.79,-21.192,-65.152,32.025,
41966370,-0.76,-0.428,0.816,-14.525,-84.787,8.137,
41966390,-0.721,-0.409,0.822,-8.767,-114.467,-20.93,
41966390,-0.567,-0.417,0.778,-4.462,-147.367,-46.41,
41966410,-0.324,-0.441,0.758,2.87,-168.35,-59.727,
41966410,-0.062,-0.6,0.792,16.31,-167.72,-52.99,
41966420,0.216,-0.674,0.879,39.585,-135.187,-26.04,
41966430,0.146,-0.537,1.054,59.342,-73.097,3.71,
41966440,-0.132,-0.435,1.073,65.45,-16.24,15.05,
41966450,-0.266,-0.517,0.977,54.95,5.477,12.687,
41966460,-0.359,-0.569,0.987,37.642,5.127,11.147,
41966470,-0.372,-0.63,0.965,21.14,0.472,3.832,
41966480,-0.364,-0.75,0.94,9.625,2.047,-9.292,
41966490,-0.414,-0.805,0.948,11.322,11.62,-26.635,
41966500,-0.548,-0.84,0.962,15.645,18.427,-36.26,
41966510,-0.687,-0.841,1.004,18.235,11.952,-32.935,
41966520,-0.687,-0.82,1.005,20.23,0.84,-25.742,
41966530,-0.608,-0.8,0.986,20.072,-0.175,-17.517,
41966540,-0.579,-0.793,0.939,15.452,13.79,-6.002,
41966550,-0.52,-0.794,0.872,14.735,38.027,9.065,
41966560,-0.553,-0.766,0.817,16.852,65.782,29.505,
41966570,-0.664,-0.729,0.787,20.107,89.022,46.585,
41966580,-0.716,-0.686,0.726,19.617,102.445,57.942,
41966590,-0.716,-0.623,0.698,21.927,107.555,60.462,
41966600,-0.705,-0.54,0.647,19.617,107.852,63.35,
41966610,-0.736,-0.468,0.638,17.027,103.337,62.982,
41966620,-0.67,-0.448,0.658,15.47,97.02,54.512,
41966630,-0.562,-0.464,0.655,16.485,93.467,44.975,
41966640,-0.581,-0.354,0.686,22.33,92.522,29.627,
41966650,-0.365,-0.188,0.772,21.805,98.787,3.43,
41966660,-0.222,-0.232,0.683,1.872,109.725,-4.585,
41966670,-0.273,-0.304,0.57,-14.42,126.035,-10.465,
41966680,-0.21,-0.115,0.587,-13.352,138.687,-18.06,
41966690,-0.108,0.008,0.536,-22.33,152.005,-13.037,
41966700,-0.097,0.012,0.443,-39.672,175.822,-7.07,
41966710,-0.239,0.024,0.387,-54.845,201.075,-1.085,
41966710,-0.341,0.031,0.348,-66.062,215.232,1.4,
41966730,-0.445,0.074,0.332,-73.71,218.925,1.907,
41966730,-0.581,0.096,0.341,-81.182,216.09,-2.415,
41966750,-0.793,0.138,0.395,-88.497,198.345,-6.597,
41966750,-0.861,0.177,0.431,-96.53,163.45,-12.022,
41966760,-0.883,0.094,0.428,-105.227,122.657,-15.47,
41966770,-0.795,0.009,0.454,-109.41,86.922,-17.29,
41966780,-0.776,-0.097,0.462,-108.15,60.112,-13.667,
41966790,-0.693,-0.129,0.482,-101.5,46.217,-10.185,
41966800,-0.648,-0.246,0.518,-98.507,44.275,-6.79,
41966810,-0.714,-0.335,0.534,-91.28,47.88,-5.022,
41966820,-0.765,-0.348,0.541,-75.81,55.247,0.56,
41966830,-0.818,-0.218,0.697,-69.527,53.83,-6.947,
41966840,-1.086,-0.477,0.646,-78.575,45.395,-4.392,
41966850,-1.025,-0.426,0.698,-66.745,20.142,-12.565,
41966860,-0.972,-0.505,0.71,-63.647,-6.79,-17.622,
41966870,-0.829,-0.574,0.712,-58.135,-27.23,-18.655,
41966880,-0.691,-0.634,0.746,-48.492,-36.137,-17.675,
41966890,-0.658,-0.705,0.772,-33.827,-35.945,-16.292,
41966900,-0.648,-0.701,0.784,-12.18,-32.532,-20.37,
41966910,-0.641,-0.669,0.787,10.08,-28.315,-27.772,
41966920,-0.649,-0.586,0.807,30.537,-25.27,-34.86,
41966930,-0.601,-0.475,0.838,45.447,-23.852,-39.497,
41966940,-0.509,-0.442,0.831,49.175,-18.742,-39.165,
41966950,-0.461,-0.467,0.793,47.127,-4.69,-40.635,
41966960,-0.454,-0.491,0.767,46.165,14.927,-46.077,
41966970,-0.531,-0.561,0.725,48.44,33.757,-50.995,
41966980,-0.654,-0.557,0.734,59.955,45.552,-55.352,
41966990,-0.782,-0.547,0.734,76.457,44.292,-54.425,
41967000,-0.863,-0.544,0.69,96.897,32.27,-50.75,
41967010,-0.956,-0.472,0.664,121.327,11.62,-44.975,
41967020,-0.835,-0.339,0.638,144.83,-13.702,-37.485,
41967030,-0.595,-0.176,0.587,156.94,-27.387,-28.035,
41967040,-0.578,-0.126,0.594,149.082,-25.357,-20.072,
41967050,-0.644,-0.117,0.648,129.01,-16.852,-24.885,
41967060,-0.681,-0.106,0.703,102.69,-13.335,-38.29,
41967070,-0.644,-0.164,0.713,71.96,-11.637,-51.45,
41967080,-0.598,-0.257,0.682,44.73,-4.375,-57.732,
41967080,-0.558,-0.321,0.648,26.25,10.01,-57.207,
41967100,-0.611,-0.382,0.586,17.115,27.195,-49.42,
41967100,-0.669,-0.381,0.535,15.732,39.97,-40.722,
41967120,-0.71,-0.394,0.46,14.21,46.34,-34.405,
41967120,-0.756,-0.372,0.425,11.217,47.477,-30.59,
41967140,-0.785,-0.336,0.406,2.082,44.327,-28.122,
41967140,-0.797,-0.375,0.376,-15.627,40.775,-25.76,
41967160,-0.81,-0.384,0.347,-35.385,40.11,-26.162,
41967160,-0.759,-0.365,0.322,-54.477,41.737,-24.587,
41967170,-0.769,-0.308,0.318,-77.35,45.552,-21.595,
41967180,-0.841,-0.371,0.266,-108.955,45.692,-24.325,
41967190,-0.808,-0.483,0.254,-130.637,39.637,-28.787,
41967200,-0.862,-0.7,0.292,-137.795,32.952,-27.545,
41967210,-1.033,-1.015,0.358,-125.877,23.362,-23.747,
41967220,-1.214,-1.349,0.549,-83.492,5.67,-16.695,
41967230,-1.327,-1.352,0.666,-13.422,-20.125,-3.797,
41967240,-0.95,-0.638,0.729,46.655,-42.98,-5.722,
41967250,-0.594,-0.267,0.664,34.055,-41.562,-17.902,
41967260,-0.54,-0.399,0.566,-5.022,-21.787,-16.835,
41967270,-0.579,-0.58,0.499,-26.25,-0.315,-13.685,
41967280,-0.649,-0.586,0.562,-23.205,10.115,-24.255,
41967290,-0.627,-0.501,0.617,-12.337,6.79,-34.335,
41967300,-0.556,-0.347,0.669,-8.925,-0.175,-38.902,
41967310,-0.485,-0.357,0.645,-21.472,0.875,-34.807,
41967320,-0.432,-0.378,0.592,-35.07,12.232,-31.325,
41967330,-0.481,-0.397,0.56,-47.652,29.925,-31.08,
41967340,-0.564,-0.471,0.518,-58.712,45.885,-33.582,
41967350,-0.686,-0.545,0.457,-65.152,54.495,-37.327,
41967360,-0.826,-0.619,0.386,-66.762,53.41,-41.475,
41967370,-0.844,-0.653,0.346,-63.735,47.53,-43.872,
41967380,-0.898,-0.704,0.313,-60.602,41.72,-42.787,
41967390,-1.068,-0.589,0.315,-59.535,27.72,-39.322,
41967400,-0.989,-0.796,0.219,-60.235,3.377,-36.872,
41967410,-0.838,-0.795,0.196,-50.347,-14.787,-43.715,
41967420,-0.759,-0.652,0.27,-40.547,-20.947,-44.922,
41967420,-0.689,-0.668,0.272,-43.067,-23.275,-42.28,
41967440,-0.556,-0.644,0.321,-44.747,-18.322,-39.445,
41967440,-0.604,-0.648,0.4,-47.005,-9.327,-35.665,
41967460,-0.645,-0.631,0.449,-48.422,-7.472,-34.562,
41967460,-0.543,-0.62,0.453,-51.467,-9.782,-33.372,
41967480,-0.452,-0.592,0.493,-55.685,-6.195,-32.742,
41967480,-0.431,-0.592,0.483,-63.63,3.99,-32.235,
41967500,-0.481,-0.557,0.466,-71.645,15.102,-32.27,
41967500,-0.52,-0.533,0.466,-80.867,21.332,-31.237,
41967510,-0.455,-0.401,0.53,-89.005,23.695,-30.065,
41967520,-0.198,-0.338,0.481,-100.555,32.165,-25.812,
41967530,-0.145,-0.213,0.419,-113.33,53.532,-16.992,
41967540,-0.271,-0.393,0.321,-127.207,75.88,-3.937,
41967550,-0.471,-0.625,0.265,-136.85,90.912,1.26,
41967560,-0.821,-0.932,0.158,-141.802,96.337,3.517,
41967570,-1.006,-1.063,-0.05,-136.272,91.455,-7.052,
41967580,-1.048,-0.917,-0.124,-124.145,81.9,-36.715,
41967590,-1.154,-0.983,-0.245,-119.595,76.352,-44.887,
41967600,-1.171,-1.034,-0.362,-102.077,57.697,-45.657,
41967610,-0.987,-0.919,-0.401,-67.672,38.972,-53.777,
41967620,-0.992,-0.761,-0.365,-42.35,13.002,-55.685,
41967630,-0.837,-0.421,-0.236,-34.212,-35.105,-73.062,
41967640,-0.426,-1.257,-0.111,-25.725,-9.432,-68.95,
41967650,-1.113,-1.153,-0.049,-12.285,-7.805,-45.71,
41967660,-0.756,-1.114,-0.054,-1.085,-24.99,-62.807,
41967670,-0.534,-0.932,0.051,2.362,-36.225,-67.952,
41967680,-0.386,-0.906,0.029,-0.717,-36.33,-63.875,
41967690,-0.316,-0.897,-0.004,-2.537,-31.622,-60.13,
41967700,-0.368,-0.926,-0.065,-2.922,-23.397,-60.585,
41967710,-0.518,-0.89,-0.046,0.945,-19.53,-60.182,
41967720,-0.629,-0.985,-0.094,5.74,-25.812,-58.52,
41967730,-0.671,-0.964,-0.096,12.932,-37.572,-60.147,
41967740,-0.663,-0.952,-0.065,18.095,-47.757,-61.477,
41967750,-0.578,-0.94,-0.066,22.855,-52.85,-63.822,
41967760,-0.468,-0.857,0.041,27.002,-49.997,-64.47,
41967770,-0.465,-0.836,0.101,26.355,-41.177,-61.81,
41967780,-0.454,-0.807,0.117,27.755,-36.19,-60.217,
41967790,-0.457,-0.821,0.128,27.51,-36.365,-56.857,
41967800,-0.368,-0.892,0.119,27.44,-35,-53.007,
41967810,-0.434,-0.845,0.077,29.82,-30.747,-47.407,
41967820,-0.415,-0.859,0.062,30.905,-29.505,-43.82,
41967830,-0.376,-0.914,0.078,31.395,-27.002,-39.287,
41967830,-0.462,-0.981,0.053,32.76,-23.922,-33.897,
41967850,-0.523,-1.019,0.037,39.48,-27.195,-32.34,
41967850,-0.545,-1.057,-0.021,44.905,-36.4,-31.272,
41967870,-0.53,-1.078,-0.103,51.625,-46.742,-31.955,
41967870,-0.569,-0.957,-0.09,60.287,-56.787,-31.132,
41967890,-1.257,-0.418,-0.241,65.24,-94.535,-41.16,
41967890,1.545,-1.45,0.461,57.89,-143.027,-85.435,
41967910,-0.775,-1.183,0.327,50.802,-48.23,-12.022,
41967910,-0.713,-0.933,0.247,65.66,-58.87,-23.152,
41967920,-0.065,-0.768,0.214,76.527,-102.375,-34.685,
41967930,0.286,-0.521,0.379,84.472,-81.97,-12.897,
41967940,0.013,-0.517,0.447,66.255,-34.492,10.955,
41967950,0.03,-0.628,0.571,50.75,-8.837,-0.63,
41967960,-0.03,-0.675,0.635,35.245,13.685,-5.407,
41967970,-0.252,-0.664,0.578,16.8,32.095,4.025,
41967980,-0.385,-0.757,0.462,1.085,39.217,2.502,
41967990,-0.503,-0.849,0.392,-3.937,39.497,-3.29,
41968000,-0.609,-0.97,0.349,-3.29,35.577,-5.565,
41968010,-0.637,-1.004,0.331,2.012,27.527,-8.645,
41968020,-0.625,-1.026,0.32,10.727,15.137,-9.642,
41968030,-0.473,-1.006,0.335,21.77,0.612,-12.845,
41968040,-0.2,-0.92,0.38,32.217,-6.965,-15.732,
41968050,-0.032,-0.877,0.401,39.06,-3.622,-10.482,
41968060,0.12,-0.811,0.42,44.905,4.83,-7.892,
41968070,0.235,-0.667,0.438,45.675,16.782,0.42,
41968080,0.235,-0.524,0.393,37.135,31.15,21.07,
41968090,0.196,-0.419,0.337,23.205,47.232,60.27,
41968100,0.121,-0.4,0.312,3.885,65.117,108.36,
41968110,-0.24,-0.593,0.202,-19.197,74.515,146.93,
41968120,-0.419,-0.969,0.201,-26.512,79.082,158.9,
41968130,-1.149,-1.357,0.265,-15.172,74.025,166.39,
41968140,-1.623,-1.667,0.19,14.787,42.647,137.725,
41968150,-1.876,-1.631,0.252,67.725,-10.062,111.702,
41968160,-1.742,-1.489,0.345,124.652,-79.835,107.712,
41968170,-1.243,-1.179,0.478,177.94,-145.722,111.247,
41968170,-0.676,-0.851,0.532,206.325,-171.85,119.21,
41968190,-0.374,-0.588,0.561,212.205,-158.9,142.555,
41968190,-0.462,-0.536,0.66,203.542,-134.645,165.515,
41968210,0.272,-0.617,0.744,185.132,-96.355,181.037,
41968210,0.212,-0.768,0.451,183.855,10.202,194.197,
41968230,-0.657,-0.661,0.366,219.187,74.007,197.785,
41968230,-0.875,-0.229,0.545,255.57,59.535,188.772,
41968250,-0.946,-0.028,0.526,246.627,3.727,178.622,
41968250,-0.955,0.013,0.415,220.43,-64.575,156.275,
41968260,-1.012,0.137,0.422,187.88,-137.322,133.822,
41968270,-0.975,0.088,0.398,138.04,-200.217,114.677,
41968280,-0.886,-0.108,0.329,87.71,-248.762,102.305,
41968290,-0.851,-0.18,0.374,53.672,-286.527,97.545,
41968300,-0.781,-0.179,0.428,25.235,-312.865,95.41,
41968310,-0.862,-0.206,0.533,-5.617,-328.93,86.642,
41968320,-1.129,-0.18,0.571,-39.287,-360.832,52.92,
41968330,-0.636,-0.327,0.427,-62.965,-386.47,7.087,
41968340,-0.255,-0.396,0.366,-62.177,-384.02,-17.202,
41968350,-0.092,-0.427,0.429,-52.29,-366.8,-12.862,
41968360,0.089,-0.413,0.54,-40.162,-326.532,12.407,
41968370,0.044,-0.403,0.681,-35.332,-270.55,35.42,
41968380,0.012,-0.408,0.777,-37.852,-214.707,49.595,
41968390,-0.022,-0.502,0.87,-43.19,-167.16,56,
41968400,-0.065,-0.614,0.926,-38.167,-130.357,54.687,
41968410,-0.079,-0.643,1.017,-21.525,-106.592,43.102,
41968420,-0.211,-0.619,1.086,-4.567,-101.605,34.527,
41968430,-0.245,-0.559,1.136,10.115,-113.68,24.797,
41968440,-0.185,-0.523,1.141,20.195,-131.215,14.665,
41968450,-0.113,-0.512,1.085,26.145,-145.88,6.912,
41968460,0.006,-0.489,0.995,32.375,-154.087,1.575,
41968470,0.194,-0.407,0.976,37.187,-150.64,-1.295,
41968480,0.404,-0.281,0.996,28.507,-126.052,-2.905,
41968490,0.317,-0.274,0.966,5.39,-86.765,-2.222,
41968500,0.315,-0.328,0.902,-16.73,-50.68,-8.89,
41968510,0.24,-0.404,0.842,-33.81,-23.187,-10.307,
41968520,0.104,-0.44,0.805,-42.56,-4.707,-8.207,
41968530,0,-0.473,0.8,-47.792,3.045,-3.482,
41968540,-0.095,-0.537,0.884,-47.197,-1.365,4.217,
41968550,-0.112,-0.534,0.909,-44.467,-15.12,9.887,
41968560,-0.055,-0.565,0.994,-45.867,-23.765,10.605,
41968570,-0.017,-0.623,0.993,-45.657,-26.74,9.747,
41968580,0.018,-0.651,1.009,-41.335,-25.952,6.142,
41968580,0.033,-0.675,1.001,-39.847,-23.695,0.962,
41968600,-0.021,-0.702,0.92,-38.342,-21.105,-4.462,
41968600,-0.024,-0.677,0.9,-32.287,-20.037,-13.142,
41968620,0.001,-0.698,0.861,-27.562,-19.81,-19.565,
41968620,0.062,-0.723,0.806,-20.16,-16.537,-21.105,
41968640,0.146,-0.745,0.8,-9.642,-3.92,-19.81,
41968640,0.054,-0.716,0.702,3.307,8.155,-16.992,
41968660,0.062,-0.66,0.798,13.37,15.802,-18.427,
41968660,-0.001,-0.573,0.818,11.97,24.027,-19.792,
41968670,0.013,-0.625,0.8,5.057,27.387,-24.64,
41968680,0.012,-0.579,0.798,-0.227,31.64,-29.155,
41968690,-0.015,-0.519,0.788,-7.735,33.302,-32.2,
41968700,0.003,-0.532,0.746,-17.255,33.757,-34.72,
41968710,-0.026,-0.549,0.679,-25.865,32.007,-31.272,
41968720,-0.06,-0.564,0.669,-24.762,28.997,-30.59,
41968730,-0.039,-0.518,0.693,-21.927,25.9,-32.13,
41968740,-0.044,-0.573,0.69,-20.492,23.94,-30.345,
41968750,-0.056,-0.584,0.716,-16.397,21.892,-29.802,
41968760,-0.019,-0.566,0.724,-11.252,25.112,-31.5,
41968770,-0.008,-0.5,0.753,-5.547,29.312,-33.897,
41968780,0.019,-0.472,0.748,-0.927,35.962,-33.95,
41968790,0.049,-0.419,0.76,0.087,48.142,-35.087,
41968800,0.051,-0.37,0.792,-2.31,60.48,-32.41,
41968810,0.012,-0.352,0.818,-7.892,69.912,-21.822,
41968820,-0.054,-0.368,0.794,-13.597,76.877,-9.432,
41968830,-0.081,-0.391,0.778,-15.522,81.812,0.577,
41968840,-0.1,-0.378,0.764,-15.19,87.447,7.787,
41968850,-0.117,-0.287,0.842,-13.422,92.067,8.505,
41968860,-0.149,-0.311,0.83,-13.86,88.445,11.777,
41968870,-0.214,-0.347,0.806,-13.142,83.597,13.965,
41968880,-0.251,-0.318,0.875,-5.582,75.88,7.437,
41968890,-0.234,-0.314,0.916,-0.105,64.295,1.19,
41968900,-0.2,-0.327,0.94,5.057,51.712,-0.647,
41968910,-0.166,-0.326,0.956,8.785,42.367,-0.49,
41968920,-0.116,-0.292,0.99,10.71,38.64,-1.05,
41968920,-0.109,-0.273,0.997,7.157,37.607,-0.98,
41968940,-0.06,-0.278,0.996,1.697,39.375,1.242,
41968940,0,-0.267,0.987,-4.427,45.587,5.11,
41968960,-0.022,-0.292,0.951,-12.46,55.597,12.337,
41968960,-0.031,-0.315,0.921,-14.752,66.78,18.252,
41968980,-0.049,-0.343,0.879,-14.437,78.592,22.697,
41968980,-0.099,-0.363,0.843,-10.412,91.42,25.847,
41969000,-0.153,-0.428,0.813,-3.832,104.002,25.06,
41969000,-0.277,-0.471,0.838,7.192,110.722,21.21,
41969010,-0.396,-0.423,0.86,22.47,105.35,16.922,
41969020,-0.383,-0.432,0.856,35.612,92.995,9.852,
41969030,-0.414,-0.472,0.838,46.865,80.832,4.987,
41969040,-0.415,-0.452,0.85,60.795,68.215,-1.662,
41969050,-0.346,-0.403,0.881,70.14,59.272,-11.392,
41969060,-0.321,-0.319,0.915,70.315,54.6,-18.9,
41969070,-0.29,-0.26,0.988,58.782,53.322,-21.665,
41969080,-0.36,-0.288,0.974,34.72,45.885,-20.965,
41969090,-0.209,-0.408,0.92,7.612,43.82,-23.082,
41969100,-0.124,-0.557,0.907,-9.117,60.322,-22.575,
41969110,-0.252,-0.685,0.872,-9.327,82.04,-18.707,
41969120,-0.432,-0.683,0.868,4.742,94.517,-22.68,
41969130,-0.608,-0.602,0.883,18.917,83.317,-24.937,
41969140,-0.644,-0.532,0.897,25.672,52.395,-26.232,
41969150,-0.597,-0.51,0.904,21.892,18.077,-26.687,
41969160,-0.506,-0.508,0.922,9.782,-10.955,-24.185,
41969170,-0.512,-0.607,0.893,-4.077,-33.267,-17.167,
41969180,-0.449,-0.705,0.847,-6.247,-47.11,-15.067,
41969190,-0.424,-0.688,0.856,2.152,-54.775,-16.905,
41969200,-0.497,-0.666,0.835,11.2,-60.165,-23.537,
41969210,-0.581,-0.571,0.86,22.207,-69.842,-34.93,
41969220,-0.542,-0.456,0.906,29.295,-92.172,-42.385,
41969230,-0.341,-0.418,0.901,30.24,-114.87,-44.275,
41969240,-0.202,-0.416,0.886,27.702,-122.832,-41.755,
41969250,0.019,-0.335,0.875,30.047,-115.85,-43.697,
41969260,0.171,-0.203,0.938,25.48,-88.497,-40.827,
41969270,-0.178,-0.136,0.918,9.257,-64.452,-30.187,
41969280,-0.091,-0.392,0.785,-9.432,-69.79,-37.415,
41969290,0.145,-0.411,0.752,-0.857,-55.702,-34.895,
41969300,0.011,-0.268,0.81,6.755,-37.222,-37.362,
41969310,-0.104,-0.305,0.751,6.177,-22.785,-36.05,
41969320,0.154,-0.272,0.711,8.662,-20.037,-34.93,
41969330,0.503,-0.052,0.785,2.31,12.88,-19.512,
41969330,0.408,-0.049,0.78,-27.125,72.572,9.555,
41969350,0.135,-0.148,0.75,-61.092,134.067,34.72,
41969350,-0.23,-0.291,0.678,-88.62,174.142,53.97,
41969370,-0.618,-0.536,0.603,-102.27,184.38,57.452,
41969370,-0.716,-0.718,0.635,-81.532,150.412,57.907,
41969390,-0.675,-0.646,0.698,-46.952,113.505,50.137,
41969390,-0.845,-0.641,0.704,-23.45,73.727,45.85,
41969410,-0.683,-0.588,0.747,-0.402,36.505,26.897,
41969410,-0.523,-0.496,0.761,12.53,9.957,11.322,
41969420,-0.3,-0.485,0.747,15.54,2.502,1.802,
41969430,-0.233,-0.462,0.815,13.93,13.842,1.732,
41969440,-0.242,-0.47,0.887,3.412,32.375,3.972,
41969450,-0.177,-0.616,0.929,-10.727,54.88,9.695,
41969460,-0.301,-0.681,0.973,-13.685,75.6,14.105,
41969470,-0.443,-0.628,1.011,-9.1,81.375,12.005,
41969480,-0.55,-0.521,1,-6.965,70.35,11.55,
41969490,-0.504,-0.381,0.908,-13.16,50.365,12.722,
41969500,-0.451,-0.556,0.936,-22.347,34.772,16.975,
41969510,-0.472,-0.633,0.843,-20.632,20.545,15.767,
41969520,-0.429,-0.553,0.808,-13.737,8.417,4.672,
41969530,-0.424,-0.506,0.757,-8.592,0.997,1.365,
41969540,-0.447,-0.488,0.708,-5.04,-4.742,0.385,
41969550,-0.437,-0.438,0.675,0.49,-10.727,-0.175,
41969560,-0.412,-0.383,0.693,5.827,-13.597,-5.32,
41969570,-0.35,-0.346,0.738,5.355,-10.85,-15.802,
41969580,-0.319,-0.313,0.794,-0.455,-3.692,-25.795,
41969590,-0.139,-0.271,0.822,-11.655,6.247,-28.07,
41969600,-0.17,-0.229,0.793,-33.127,35.42,-20.282,
41969610,-0.236,-0.242,0.785,-57.89,62.037,-10.57,
41969620,-0.267,-0.292,0.745,-78.855,85.4,-8.662,
41969630,-0.412,-0.415,0.663,-91.507,102.13,-12.757,
41969640,-0.427,-0.421,0.663,-93.275,111.44,-23.17,
41969650,-0.523,-0.48,0.66,-99.47,115.08,-26.652,
41969660,-0.702,-0.647,0.603,-105.437,110.25,-29.347,
41969670,-0.939,-0.623,0.351,-97.965,91.105,-37.187,
41969670,-1.299,-0.29,0.181,-86.975,18.077,-48.615,
41969690,0.157,-0.586,0.795,-91.56,5.547,-71.102,
41969690,-0.523,-1.239,1.008,-84.857,56.77,-48.317,
41969710,-1.004,-1.153,1.097,-69.947,64.802,-28.175,
41969710,-1.207,-0.787,0.808,-71.942,10.727,-38.815,
41969730,-0.172,-0.781,0.443,-63.402,-20.44,-47.18,
41969730,-0.67,-0.548,0.334,-50.4,-15.102,-32.602,
41969750,-0.549,-0.458,0.404,-53.9,-21.927,-31.167,
41969750,-0.38,-0.681,0.374,-66.762,-27.037,-45.29,
41969760,-0.364,-0.845,0.469,-67.34,-20.23,-49.945,
41969770,-0.48,-0.936,0.556,-62.685,-12.372,-53.62,
41969780,-0.57,-0.944,0.58,-56.455,-14.682,-59.22,
41969790,-0.489,-0.923,0.552,-48.72,-21.542,-68.215,
41969800,-0.379,-0.751,0.599,-41.055,-24.237,-73.237,
41969810,-0.377,-0.602,0.598,-37.905,-21.98,-69.492,
41969820,-0.4,-0.746,0.552,-32.077,-20.352,-68.267,
41969830,-0.342,-0.721,0.541,-19.565,-25.725,-63.77,
41969840,-0.372,-0.667,0.586,-12.687,-32.567,-53.83,
41969850,-0.27,-0.708,0.571,-12.705,-39.252,-46.427,
41969860,-0.114,-0.665,0.512,-14.367,-36.645,-38.815,
41969870,-0.148,-0.515,0.457,-23.345,-20.755,-29.032,
41969880,-0.3,-0.669,0.181,-39.917,-4.62,-15.295,
41969890,-0.172,-0.465,0.421,-21.122,-14.77,-11.865,
41969900,-0.021,-0.65,0.478,-42.052,12.267,10.587,
41969910,-0.352,-0.844,0.559,-58.852,27.755,24.29,
41969920,-0.264,-0.854,0.48,-57.61,20.877,21.63,
41969930,-0.295,-0.886,0.369,-56.49,20.772,22.015,
41969940,-0.273,-0.806,0.436,-49.7,24.447,13.772,
41969950,-0.419,-0.813,0.396,-50.12,21.857,18.182,
41969960,-0.562,-0.499,0.309,-58.572,6.825,9.8,
41969970,0.011,-1.308,0.319,-72.135,0.175,1.085,
41969980,-0.343,-1.067,0.464,-31.202,30.065,23.502,
41969990,-0.872,-1.014,0.447,-21.682,31.762,31.815,
41970000,-0.879,-0.897,0.281,-16.607,6.3,25.812,
41970010,-0.491,-0.881,0.291,-16.502,-2.047,22.785,
41970020,-0.556,-0.749,0.403,-14.892,11.567,28.175,
41970030,-0.613,-0.806,0.457,-24.08,14.28,28.49,
41970040,-0.414,-0.743,0.547,-27.947,4.112,18.182,
41970050,-0.335,-0.675,0.549,-35.927,-2.397,18.812,
41970060,-0.375,-0.747,0.47,-49.297,-3.587,17.762,
41970070,-0.433,-0.796,0.5,-53.795,-3.15,11.637,
41970080,-0.459,-0.956,0.559,-53.392,-3.22,8.33,
41970080,-0.53,-1.009,0.528,-41.177,-5.74,5.652,
41970100,-0.432,-0.913,0.472,-27.842,-5.792,5.267,
41970100,-0.331,-0.773,0.371,-19.617,0.542,8.802,
41970110,-0.178,-0.594,0.262,-11.882,9.607,13.387,
41970120,0.066,-0.645,0.389,-8.137,24.675,22.61,
41970130,0.159,-0.699,0.515,-11.76,46.427,36.085,
41970140,0.075,-0.793,0.493,-20.107,68.582,50.085,
41970150,-0.071,-0.76,0.409,-27.562,87.185,54.827,
41970160,-0.307,-0.687,0.334,-36.575,99.662,62.545,
41970170,-0.574,-0.832,0.33,-45.045,101.587,73.01,
41970180,-0.776,-0.953,0.246,-49.455,94.937,76.527,
41970190,-0.92,-0.932,0.223,-47.775,86.52,69.755,
41970200,-0.948,-0.922,0.207,-47.582,71.592,61.197,
41970210,-0.915,-0.972,0.127,-48.282,52.062,49.122,
41970220,-0.831,-0.936,0.172,-39.392,39.515,26.145,
41970230,-0.837,-0.904,0.135,-33.337,31.377,9.537,
41970240,-0.833,-0.838,0.176,-24.85,22.207,1.26,
41970250,-0.832,-0.872,0.148,-20.037,9.712,0.875,
41970260,-0.779,-0.841,0.158,-11.76,-4.042,-5.32,
41970270,-0.64,-0.798,0.199,-5.232,-10.08,-8.102,
41970280,-0.61,-0.788,0.231,-3.552,-8.995,-5.53,
41970290,-0.573,-0.758,0.259,-4.882,-5.652,-5.25,
41970300,-0.551,-0.8,0.246,-8.015,-5.792,-3.71,
41970310,-0.429,-0.713,0.241,-7.017,-5.617,0.35,
41970320,-0.409,-0.715,0.237,-12.775,1.557,2.24,
41970330,-0.497,-0.787,0.233,-19.302,5.705,1.085,
41970340,-0.448,-0.781,0.229,-21.035,4.375,-0.98,
41970350,-0.401,-0.781,0.254,-24.29,7.367,2.555,
41970360,-0.456,-0.816,0.255,-28.192,17.972,8.365,
41970370,-0.523,-0.847,0.236,-30.257,28.035,11.042,
41970380,-0.587,-0.83,0.26,-29.715,33.232,11.322,
41970390,-0.606,-0.822,0.251,-29.015,34.912,10.675,
41970400,-0.625,-0.806,0.224,-28.42,34.072,9.905,
41970410,-0.664,-0.789,0.211,-29.82,30.922,7.402,
41970420,-0.677,-0.776,0.176,-33.267,26.285,3.395,
41970420,-0.674,-0.76,0.16,-37.362,18.427,0.612,
41970440,-0.634,-0.735,0.151,-43.907,10.85,-3.36,
41970440,-0.553,-0.697,0.154,-54.092,7.42,-7.297,
41970460,-0.518,-0.756,0.158,-67.742,4.725,-7.052,
41970460,-0.489,-0.825,0.12,-76.002,3.78,-3.342,
41970480,-0.466,-0.8,0.111,-74.13,4.182,-0.297,
41970480,-0.437,-0.799,0.077,-70.735,7.192,5.635,
41970500,-0.487,-0.775,0.096,-68.302,11.34,14.525,
41970500,-0.543,-0.765,0.078,-68.057,13.16,19.547,
41970510,-0.564,-0.79,0.057,-69.405,11.742,18.655,
41970520,-0.587,-0.816,0.02,-69.755,9.695,17.22,
41970530,-0.688,-0.821,-0.013,-67.27,6.265,16.362,
41970540,-0.778,-0.827,-0.055,-63.14,-1.085,14.052,
41970550,-0.747,-0.818,-0.069,-58.327,-9.135,8.19,
41970560,-0.797,-0.82,-0.075,-53.27,-15.592,10.045,
41970570,-0.818,-0.865,-0.097,-45.08,-23.747,10.57,
41970580,-0.784,-0.836,-0.047,-37.205,-32.27,6.002,
41970590,-0.7,-0.905,-0.046,-33.005,-35.595,-1.225,
41970600,-0.71,-0.926,0.033,-24.377,-34.142,-5.46,
41970610,-0.612,-0.901,0.08,-14.805,-31.64,-5.845,
41970620,-0.512,-0.845,0.107,-11.882,-26.722,-3.535,
41970630,-0.477,-0.872,0.083,-15.347,-21.595,0,
41970640,-0.448,-0.796,0.062,-11.217,-17.57,2.187,
41970650,-0.432,-0.765,0.062,-12.477,-13.755,7.84,
41970660,-0.433,-0.77,0.05,-17.202,-7.7,13.79,
41970670,-0.486,-0.792,0.036,-19.617,-0.105,19.845,
41970680,-0.605,-0.833,0.002,-16.45,4.602,25.13,
41970690,-0.672,-0.831,0.028,-7.122,3.062,25.427,
41970700,-0.734,-0.848,0.053,-0.98,-2.502,24.027,
41970710,-0.209,-0.88,0.037,2.1,2.397,25.602,
41970720,-1.335,-0.723,-0.161,-16.782,41.615,108.955,
41970730,-0.347,-1.156,-0.432,-0.752,8.61,137.077,
41970740,-0.371,-0.586,0.109,18.2,65.012,64.19,
41970750,-1.365,-0.744,-0.02,-4.917,49.595,62.457,
41970760,-0.62,-0.897,0,-1.277,3.237,50.417,
41970770,-0.543,-0.887,-0.191,18.9,3.64,53.55,
41970780,-0.715,-1.004,0.121,34.58,-11.48,37.59,
41970780,-0.627,-0.671,0.153,44.572,-0.385,-14.945,
41970800,-0.874,-0.863,0.096,36.312,-21.455,-22.837,
41970800,-0.586,-0.711,0.113,37.117,-41.772,-35.192,
41970820,-0.386,-0.683,0.142,28,-37.362,-32.777,
41970820,-0.49,-0.812,0.155,9.222,-11.077,-14.77,
41970830,-0.778,-0.709,0.069,-2.52,10.535,5.215,
41970840,-0.816,-0.944,0.063,7.647,6.352,0.84,
41970850,-0.675,-0.58,0.188,21.577,3.132,-11.182,
41970860,-0.592,-0.816,0.088,10.71,6.352,-0.437,
41970870,-0.827,-0.634,-0.092,6.825,4.445,-0.787,
41970880,-0.506,-0.664,-0.051,27.842,12.075,-8.942,
41970890,-1.122,-0.72,-0.04,37.642,-10.605,-26.46,
41970900,-0.898,-0.669,-0.006,50.435,-47.547,-57.61,
41970910,-0.934,-0.792,-0.081,56.385,-75.32,-78.015,
41970920,-0.829,-0.717,0.016,68.967,-91.245,-91.787,
41970930,-0.827,-0.701,0.095,61.967,-83.912,-76.055,
41970940,-0.746,-0.975,0.064,41.93,-65.205,-46.095,
41970950,-0.93,-0.917,0.124,37.362,-54.897,-29.382,
41970960,-0.989,-0.869,0.142,39.532,-71.33,-42.105,
41970970,-0.995,-0.737,0.172,38.675,-112.647,-71.977,
41970980,-0.418,-0.822,0.207,34.632,-128.187,-93.677,
41970990,-0.594,-0.984,0.158,28.192,-119.875,-72.467,
41971000,-0.573,-1.074,0.149,34.527,-106.82,-65.257,
41971010,-0.653,-1.048,0.189,47.582,-103.25,-63.542,
41971020,-0.626,-0.988,0.227,61.53,-110.267,-62.51,
41971030,-0.547,-0.945,0.24,72.8,-117.74,-65.555,
41971040,-0.465,-0.905,0.246,78.557,-123.462,-63.577,
41971050,-0.366,-0.832,0.268,79.642,-123.9,-62.23,
41971060,-0.34,-0.819,0.285,72.642,-121.117,-62.562,
41971070,-0.29,-0.785,0.305,64.19,-118.335,-63.402,
41971080,-0.258,-0.784,0.285,54.04,-115.587,-62.982,
41971090,-0.189,-0.778,0.292,47.477,-109.252,-61.617,
41971100,-0.09,-0.773,0.288,43.627,-94.64,-54.372,
41971110,-0.055,-0.8,0.297,41.685,-70.875,-41.947,
41971120,-0.086,-0.821,0.318,44.327,-41.09,-29.067,
41971130,-0.156,-0.817,0.338,50.312,-12.897,-17.412,
41971140,-0.3,-0.827,0.358,57.19,5.197,-8.942,
41971150,-0.437,-0.814,0.403,61.372,8.347,-3.727,
41971160,-0.587,-0.811,0.402,60.27,-2.817,-3.237,
41971170,-0.672,-0.807,0.375,56.752,-22.225,-11.69,
41971170,-0.645,-0.786,0.361,52.71,-43.907,-25.27,
41971190,-0.554,-0.757,0.351,47.862,-60.147,-39.06,
41971190,-0.45,-0.726,0.348,42,-67.427,-46.795,
41971210,-0.382,-0.689,0.34,36.277,-66.132,-49.35,
41971210,-0.334,-0.68,0.312,30.695,-60.147,-49.315,
41971230,-0.295,-0.656,0.327,26.25,-50.767,-45.885,
41971230,-0.34,-0.726,0.296,21.28,-39.812,-41.247,
41971250,-0.419,-0.757,0.325,23.187,-31.815,-40.425,
41971250,-0.453,-0.749,0.386,26.81,-31.027,-44.432,
41971260,-0.411,-0.68,0.472,30.45,-38.027,-49.612,
41971270,-0.35,-0.676,0.519,24.832,-47.39,-48.335,
41971280,-0.309,-0.701,0.53,16.485,-55.947,-43.452,
41971290,-0.2,-0.675,0.599,9.152,-57.96,-39.112,
41971300,-0.125,-0.747,0.564,-2.537,-52.08,-35.227,
41971310,-0.093,-0.815,0.575,-3.01,-40.145,-36.54,
41971320,-0.024,-0.86,0.613,2.852,-25.917,-36.452,
41971330,-0.096,-0.916,0.6,15.872,-15.82,-30.852,
41971340,-0.069,-0.841,0.681,34.772,-14.875,-23.135,
41971350,0.255,-0.8,0.815,36.995,-4.952,-9.572,
41971360,0.28,-0.874,0.873,21.892,30.187,14.21,
41971370,-0.119,-0.925,0.842,9.765,56.07,28.892,
41971380,-0.272,-0.851,0.854,4.532,53.69,27.982,
41971390,-0.266,-0.969,0.718,-4.235,29.61,18.9,
41971400,-0.202,-0.906,0.705,-1.557,0.822,7.962,
41971410,-0.055,-0.881,0.633,3.255,-17.255,3.237,
41971420,-0.051,-0.886,0.59,8.26,-21.017,6.615,
41971430,-0.05,-0.913,0.53,17.78,-16.642,4.165,
41971440,-0.064,-0.838,0.538,31.762,-9.292,0.332,
41971450,-0.105,-0.747,0.522,37.1,-2.047,-0.805,
41971460,-0.043,-0.555,0.521,27.737,8.435,2.345,
41971470,-0.159,-0.656,0.502,0.07,26.215,23.415,
41971480,-0.215,-0.728,0.452,-20.335,42.227,35.612,
41971490,-0.265,-0.79,0.457,-25.235,50.225,41.965,
41971500,-0.385,-0.741,0.467,-23.38,51.152,49.752,
41971510,-0.544,-0.818,0.424,-23.415,38.517,54.53,
41971510,-0.545,-0.876,0.431,-13.597,21.385,43.575,
41971530,-0.62,-0.91,0.415,7.98,0.63,21.787,
41971530,-0.58,-0.768,0.472,30.52,-26.04,-7.385,
41971550,-0.515,-0.731,0.477,41.195,-49.595,-26.967,
41971550,-0.45,-0.681,0.489,45.78,-71.155,-43.732,
41971570,-0.262,-0.612,0.525,41.142,-82.32,-52.815,
41971570,-0.062,-0.649,0.532,27.545,-76.895,-48.335,
41971580,0.124,-0.651,0.609,11.795,-52.43,-28.49,
41971590,0.071,-0.667,0.636,-9.292,-8.89,-2.8,
41971600,-0.199,-0.714,0.616,-28.927,25.865,16.677,
41971610,-0.411,-0.774,0.57,-42.507,37.712,29.172,
41971620,-0.44,-0.754,0.516,-52.395,29.96,32.13,
41971630,-0.508,-0.734,0.501,-61.11,17.552,30.625,
41971640,-0.521,-0.769,0.442,-69.65,0.927,20.65,
41971650,-0.469,-0.836,0.397,-69.702,-14.577,4.41,
41971660,-0.405,-0.925,0.384,-55.037,-26.495,-12.67,
41971670,-0.336,-0.831,0.383,-31.745,-35.857,-33.162,
41971680,-0.257,-0.738,0.404,-14.962,-40.355,-41.842,
41971690,-0.02,-0.731,0.443,-3.92,-34.387,-33.547,
41971700,0.048,-0.746,0.481,1.032,-11.865,-13.492,
41971710,-0.01,-0.75,0.518,0.245,16.677,4.042,
41971720,-0.05,-0.809,0.581,-4.672,44.292,21.297,
41971730,-0.183,-0.993,0.656,-6.037,64.697,33.915,
41971740,-0.196,-1.007,0.677,3.255,71.96,26.967,
41971750,-0.385,-0.926,0.675,10.465,70.577,19.022,
41971760,-0.435,-0.933,0.587,9.765,53.48,14.017,
41971770,-0.627,-0.844,0.591,8.907,30.257,3.552,
41971780,-0.43,-0.934,0.495,-3.745,-6.265,-15.785,
41971790,-0.055,-0.886,0.452,-10.062,-12.302,-20.002,
41971800,-0.154,-0.842,0.429,-13.177,3.85,-13.492,
41971810,-0.212,-0.864,0.365,-11.2,17.412,-11.235,
41971820,-0.194,-0.816,0.387,-3.517,25.375,-13.282,
41971830,-0.175,-0.822,0.432,0.647,29.68,-12.652,
41971840,-0.151,-0.865,0.43,2.135,36.365,-16.485,
41971850,-0.239,-0.819,0.498,1.4,43.032,-22.925,
41971860,-0.31,-0.813,0.492,-3.29,41.807,-25.427,
41971870,-0.376,-0.839,0.51,-7.857,33.442,-33.652,
41971880,-0.192,-0.831,0.467,-11.235,26.652,-34.107,
41971890,-0.25,-0.875,0.454,-20.055,30.712,-17.535,
41971900,-0.382,-0.91,0.404,-24.5,34.632,1.89,
41971910,-0.384,-0.921,0.377,-21.63,36.61,6.562,
41971920,-0.409,-0.905,0.378,-13.737,31.797,10.517,
41971920,-0.399,-0.947,0.383,-2.257,26.932,14.227,
41971940,-0.402,-0.872,0.42,7.577,21.787,16.887,
41971940,-0.39,-0.792,0.45,7.665,15.715,16.94,
41971960,-0.361,-0.776,0.452,0.087,7.612,18.795,
41971960,-0.254,-0.801,0.432,-7.297,0.49,22.925,
41971980,-0.081,-0.804,0.417,-8.89,5.162,30.415,
41971980,-0.049,-0.745,0.382,-8.68,23.485,39.077,
41972000,-0.144,-0.731,0.365,-12.197,47.355,47.775,
41972000,-0.27,-0.781,0.331,-14.665,64.505,48.09,
41972010,-0.298,-0.802,0.342,-11.707,73.115,35.192,
41972020,-0.355,-0.861,0.402,-10.272,77.192,26.53,
41972030,-0.402,-0.907,0.408,-8.977,78.575,19.442,
41972040,-0.427,-0.923,0.462,-9.94,80.027,17.657,
41972050,-0.508,-0.964,0.469,-13.912,79.152,19.915,
41972060,-0.493,-0.975,0.465,-16.38,76.247,16.467,
41972070,-0.489,-0.975,0.446,-16.012,72.66,11.83,
41972080,-0.522,-0.967,0.449,-11.077,65.817,7.752,
41972090,-0.464,-0.961,0.444,-6.58,57.855,2.24,
41972100,-0.413,-0.917,0.436,-4.847,54.267,2.922,
41972110,-0.417,-0.91,0.384,-9.94,58.415,7.227,
41972120,-0.514,-0.921,0.363,-18.62,65.24,13.23,
41972130,-0.645,-1.006,0.3,-20.422,65.712,18.025,
41972140,-0.646,-0.958,0.268,-6.107,53.917,12.722,
41972150,-0.65,-0.856,0.281,6.58,38.062,6.825,
41972160,-0.592,-0.777,0.303,11.532,22.662,2.817,
41972170,-0.546,-0.784,0.288,10.885,11.165,5.477,
41972180,-0.5,-0.796,0.3,13.212,4.077,10.307,
41972190,-0.471,-0.716,0.385,16.345,-0.21,15.155,
41972200,-0.444,-0.741,0.433,12.827,-5.25,19.897,
41972210,-0.397,-0.639,0.465,7.577,-7.717,22.557,
41972220,-0.481,-0.603,0.462,-8.417,-11.375,26.197,
41972230,-0.409,-0.729,0.424,-27.02,-12.845,26.705,
41972240,-0.409,-0.834,0.394,-34.842,-13.055,33.705,
41972250,-0.398,-0.995,0.434,-33.092,-14.507,38.237,
41972260,-0.413,-0.835,0.444,-20.65,-12.74,33.81,
41972260,-0.559,-0.864,0.358,-17.675,-13.632,26.635,
41972280,-0.568,-0.795,0.324,-10.885,-23.957,24.622,
41972280,-0.574,-0.794,0.335,-9.922,-40.337,23.73,
41972300,-0.432,-0.758,0.258,-9.887,-47.792,17.255,
41972300,-0.358,-0.691,0.244,-12.635,-38.535,19.967,
41972320,-0.39,-0.698,0.202,-21,-23.012,30.327,
41972320,-0.46,-0.73,0.156,-28.875,-6.335,35.577,
41972330,-0.483,-0.726,0.172,-31.71,5.075,36.417,
41972340,-0.5,-0.74,0.175,-34.405,14.717,35.35,
41972350,-0.513,-0.793,0.191,-35.21,22.68,32.06,
41972360,-0.503,-0.788,0.248,-32.987,29.312,25.707,
41972370,-0.551,-0.879,0.241,-32.322,32.41,19.057,
41972380,-0.605,-0.908,0.251,-26.635,31.5,9.275,
41972390,-0.675,-0.892,0.291,-18.76,21.297,-1.33,
41972400,-0.649,-0.882,0.318,-12.6,6.387,-11.515,
41972410,-0.609,-0.869,0.335,-9.17,-5.075,-18.375,
41972420,-0.562,-0.874,0.256,-9.852,-8.242,-25.357,
41972430,-0.598,-0.872,0.23,-8.592,-1.75,-33.95,
41972440,-0.606,-0.878,0.221,-9.362,5.302,-39.165,
41972450,-0.58,-0.768,0.173,-13.335,15.102,-38.71,
41972460,-0.702,-0.885,0.398,-19.53,5.337,-14.175,
41972470,-0.615,-1.247,0.327,-8.75,6.527,10.412,
41972480,-0.69,-1.067,0.292,8.75,3.325,-15.785,
41972490,-0.645,-0.812,0.357,14.892,-4.41,-37.59,
41972500,-0.594,-0.816,0.323,8.522,-19.757,-34.895,
41972510,-0.488,-0.806,0.333,8.015,-37.135,-24.255,
41972520,-0.327,-0.598,0.321,11.917,-45.745,-18.445,
41972530,-0.218,-0.438,0.318,0.892,-39.882,-8.785,
41972540,-0.122,-0.46,0.29,-20.107,-23.922,-2.117,
41972550,-0.02,-0.643,0.258,-35.297,-2.082,-4.217,
41972560,0.021,-0.86,0.264,-37.992,21.822,3.255,
41972570,-0.202,-0.85,0.298,-30.852,41.947,20.545,
41972580,-0.406,-0.852,0.29,-18.795,50.155,27.947,
41972590,-0.593,-0.82,0.251,-4.795,38.5,35.35,
41972600,-0.492,-0.813,0.227,8.225,25.497,36.977,
41972610,-0.494,-0.843,0.217,7.332,26.425,34.492,
41972620,-0.605,-0.825,0.125,2.607,31.937,32.112,
41972630,-0.643,-0.837,0.147,1.417,37.712,30.065,
41972640,-0.704,-0.86,0.126,4.41,38.5,28.822,
41972650,-0.728,-0.872,0.18,10.797,34.072,31.027,
41972660,-0.746,-0.914,0.211,13.86,24.237,30.607,
41972670,-0.716,-0.918,0.204,17.745,5.932,29.575,
41972670,-0.547,-0.913,0.218,25.112,-11.077,30.38,
41972690,-0.494,-0.905,0.219,29.05,-10.027,32.795,
41972690,-0.577,-0.864,0.241,31.447,-4.917,32.34,
41972710,-0.539,-0.828,0.272,29.89,-0.7,31.447,
41972710,-0.545,-0.841,0.265,25.375,3.517,31.587,
41972730,-0.532,-0.807,0.26,23.975,8.435,31.832,
41972730,-0.557,-0.82,0.208,22.522,11.69,30.205,
41972750,-0.576,-0.783,0.212,24.762,10.167,29.522,
41972750,-0.528,-0.77,0.233,25.567,7.735,27.947,
41972760,-0.488,-0.798,0.262,25.322,11.217,24.552,
41972770,-0.526,-0.763,0.312,27.335,16.835,23.187,
41972780,-0.508,-0.738,0.31,26.565,21.927,20.72,
41972790,-0.532,-0.719,0.297,24.815,27.527,19.162,
41972800,-0.5,-0.665,0.292,24.307,31.99,18.147,
41972810,-0.507,-0.651,0.254,21.017,39.235,18.725,
41972820,-0.578,-0.678,0.245,17.307,46.987,16.94,
41972830,-0.704,-0.736,0.247,15.89,49.735,14.56,
41972840,-0.705,-0.756,0.276,17.692,42.682,8.995,
41972850,-0.65,-0.727,0.354,18.497,39.935,2.905,
41972860,-0.667,-0.681,0.151,19.81,45.045,-11.287,
41972870,-0.69,-0.536,0.538,8.207,44.555,-23.677,
41972880,-0.769,-0.857,0.346,-18.13,43.365,-28.997,
41972890,-0.709,-0.701,0.347,-19.11,33.302,-38.482,
41972900,-0.686,-0.647,0.35,-30.065,28.437,-48.615,
41972910,-0.687,-0.629,0.411,-56.875,27.037,-77.192,
41972920,-0.715,-0.573,0.481,-98.752,26.337,-116.725,
41972930,-0.802,-0.855,0.23,-143.657,13.177,-146.492,
41972940,-0.699,-1.222,-0.006,-136.325,-18.725,-144.095,
41972950,-0.592,-1.188,0.088,-76.667,-44.765,-108.482,
41972960,-0.602,-1.091,0.209,-31.185,-48.685,-78.82,
41972970,-0.722,-1.15,0.2,-14.647,-46.357,-72.765,
41972980,-0.877,-1.175,0.192,-1.032,-59.15,-74.095,
41972990,-0.875,-1.187,0.15,15.54,-86.87,-81.532,
41973000,-0.82,-1.103,0.082,37.38,-121.8,-94.92,
41973010,-0.62,-0.898,0.103,54.617,-149.397,-106.732,
41973010,-0.52,-0.856,0.144,55.615,-161.682,-109.952,
41973030,-0.679,-1.007,0.21,57.417,-177.467,-108.867,
41973030,-0.395,-1.134,-0.005,87.43,-210.647,-127.277,
41973050,-0.257,-0.82,0.065,134.155,-224.087,-145.88,
41973050,-0.157,-0.666,0.053,157.552,-229.162,-145.88,
41973070,-0.013,-0.577,0.117,163.922,-213.64,-130.777,
41973070,-0.058,-0.355,0.282,156.415,-209.615,-106.155,
41973080,0.213,-0.583,0.36,127.645,-181.317,-70.122,
41973090,0.336,-0.67,0.397,101.902,-136.657,-38.745,
41973100,0.334,-0.608,0.542,63.997,-70.77,-19.757,
41973110,0.156,-0.622,0.583,17.745,-16.205,1.12,
41973120,-0.072,-0.735,0.573,-25.427,18.165,25.865,
41973130,-0.322,-0.981,0.541,-55.79,29.225,48.16,
41973140,-0.481,-1.188,0.462,-60.725,18.602,55.457,
41973150,-0.387,-1.17,0.385,-41.877,2.747,47.232,
41973160,-0.252,-1.057,0.42,-21.63,-1.785,39.637,
41973170,-0.316,-1.083,0.356,-8.767,-0.227,43.47,
41973180,-0.328,-1.078,0.312,11.06,-1.82,51.992,
41973190,-0.281,-1.015,0.334,31.15,-1.61,56.647,
41973200,-0.28,-0.977,0.371,43.837,0.875,57.802,
41973210,-0.296,-0.935,0.397,51.415,3.132,55.79,
41973220,-0.275,-0.903,0.412,54.845,4.287,51.135,
41973230,-0.279,-0.868,0.436,55.317,4.917,46.165,
41973240,-0.307,-0.864,0.447,55.65,3.01,42.297,
41973250,-0.312,-0.861,0.459,59.027,-0.647,38.342,
41973260,-0.301,-0.839,0.466,64.732,-3.745,34.895,
41973270,-0.288,-0.813,0.484,70.945,-5.495,30.852,
41973280,-0.279,-0.793,0.492,75.477,-5.057,26.25,
41973290,-0.301,-0.792,0.493,80.745,-4.777,23.345,
41973300,-0.326,-0.788,0.498,88.847,-6.405,21.105,
41973310,-0.34,-0.756,0.516,97.107,-8.557,17.622,
41973320,-0.36,-0.725,0.532,101.85,-11.76,13.072,
41973330,-0.368,-0.703,0.547,103.092,-16.467,7.367,
41973340,-0.368,-0.685,0.56,101.745,-21.63,2.257,
41973350,-0.332,-0.668,0.577,98.192,-25.06,-0.752,
41973360,-0.284,-0.643,0.594,91.647,-24.99,-0.227,
41973370,-0.279,-0.629,0.608,82.232,-21.822,2.887,
41973380,-0.288,-0.638,0.606,71.032,-17.167,6.807,
41973390,-0.298,-0.655,0.598,60.655,-12.757,10.64,
41973400,-0.32,-0.668,0.595,52.902,-8.68,14.542,
41973410,-0.324,-0.696,0.59,48.212,-5.88,17.605,
41973420,-0.342,-0.698,0.574,47.495,-4.445,21.402,
41973420,-0.35,-0.698,0.584,48.825,-5.092,22.732,
41973440,-0.358,-0.719,0.584,50.47,-6.212,22.907,
41973440,-0.358,-0.715,0.593,54.057,-7.63,23.782,
41973460,-0.339,-0.687,0.608,57.155,-8.4,24.027,
41973460,-0.329,-0.66,0.618,58.362,-8.155,24.657,
41973480,-0.318,-0.648,0.639,57.942,-7.822,25.042,
41973480,-0.331,-0.64,0.642,56.577,-7.927,24.605,
41973500,-0.317,-0.629,0.656,55.055,-7.577,22.015,
41973500,-0.313,-0.618,0.668,51.8,-6.965,19.355,
41973510,-0.315,-0.613,0.676,47.95,-6.755,17.5,
41973520,-0.286,-0.619,0.671,44.695,-5.285,16.047,
41973530,-0.266,-0.603,0.678,43.085,-1.872,16.502,
41973540,-0.266,-0.59,0.696,41.475,3.08,19.197,
41973550,-0.282,-0.575,0.712,40.162,8.05,22.487,
41973560,-0.299,-0.573,0.727,39.252,12.005,24.57,
41973570,-0.306,-0.576,0.734,38.185,15.242,25.147,
41973580,-0.305,-0.612,0.723,39.252,18.375,25.445,
41973590,-0.315,-0.627,0.728,43.05,22.855,25.55,
41973600,-0.333,-0.617,0.752,47.425,27.842,26.67,
41973610,-0.353,-0.6,0.768,51.59,31.447,29.61,
41973620,-0.356,-0.611,0.771,55.23,33.792,32.252,
41973630,-0.359,-0.629,0.754,58.712,37.082,35.612,
41973640,-0.386,-0.616,0.767,63.595,41.965,39.042,
41973650,-0.404,-0.61,0.772,68.722,46.742,42.857,
41973660,-0.417,-0.587,0.776,74.095,51.187,47.407,
41973670,-0.443,-0.557,0.786,78.172,56.157,52.412,
41973680,-0.461,-0.527,0.793,79.502,60.322,56.98,
41973690,-0.477,-0.51,0.792,78.855,63.542,63.385,
41973700,-0.509,-0.483,0.788,76.142,66.815,70.735,
41973710,-0.546,-0.462,0.776,72.695,69.615,79.292,
41973720,-0.569,-0.404,0.777,70.175,71.732,88.725,
41973730,-0.588,-0.322,0.809,62.702,73.675,96.372,
41973740,-0.614,-0.273,0.82,49.42,74.882,104.702,
41973750,-0.644,-0.262,0.82,32.69,74.585,110.757,
41973760,-0.679,-0.241,0.807,14.35,72.94,112.49,
41973760,-0.726,-0.274,0.764,-4.76,69.667,109.427,
41973780,-0.745,-0.332,0.711,-18.952,64.155,102.217,
41973780,-0.751,-0.363,0.665,-24.797,57.487,91.577,
41973800,-0.748,-0.395,0.649,-23.905,49.28,79.065,
41973800,-0.738,-0.39,0.63,-20.842,40.057,67.392,
41973820,-0.692,-0.344,0.637,-14.472,31.64,54.04,
41973820,-0.602,-0.286,0.673,-12.25,27.527,43.365,
41973830,-0.561,-0.246,0.679,-17.815,28.245,37.292,
41973840,-0.525,-0.214,0.677,-27.072,33.495,31.692,
41973850,-0.458,-0.229,0.667,-36.837,44.065,27.632,
41973860,-0.411,-0.249,0.664,-47.215,61.32,27.107,
41973870,-0.437,-0.283,0.633,-56.507,79.59,28.717,
41973880,-0.462,-0.333,0.627,-60.602,97.37,30.677,
41973890,-0.487,-0.356,0.612,-57.522,113.085,28.892,
41973900,-0.529,-0.354,0.66,-52.307,121.905,19.635,
41973910,-0.827,-0.431,0.581,-59.027,108.745,16.695,
41973920,-0.81,-0.435,0.537,-57.627,75.25,2.152,
41973930,-0.57,-0.452,0.539,-51.345,59.377,-11.637,
41973940,-0.542,-0.495,0.424,-43.085,58.712,-15.242,
41973950,-0.512,-0.459,0.4,-24.71,70.665,-12.495,
41973960,-0.482,-0.317,0.465,-14.192,98.577,-1.785,
41973970,-0.731,-0.206,0.51,-16.835,122.08,11.305,
41973980,-0.84,-0.228,0.496,-26.932,132.545,10.815,
41973990,-0.773,-0.313,0.457,-36.96,133.49,1.61,
41974000,-0.83,-0.347,0.422,-44.047,130.777,-3.797,
41974010,-0.82,-0.334,0.467,-44.695,128.205,-9.03,
41974020,-0.841,-0.348,0.416,-42.735,129.745,-14.56,
41974030,-0.939,-0.342,0.398,-44.012,123.637,-22.557,
41974040,-0.944,-0.391,0.363,-42.525,118.107,-28.805,
41974050,-0.987,-0.454,0.293,-37.677,108.185,-34.807,
41974060,-1.055,-0.417,0.3,-25.865,93.205,-38.92,
41974070,-1.072,-0.438,0.29,-17.902,74.62,-42,
41974080,-1.068,-0.468,0.274,-13.702,57.61,-49.927,
41974090,-0.995,-0.509,0.325,-8.137,46.55,-67.445,
41974100,-0.942,-0.637,0.262,-2.94,46.69,-91.717,
41974110,-0.724,-0.551,0.298,12.022,66.342,-136.675,
41974120,-0.555,-0.416,0.351,13.247,99.732,-179.2,
41974130,-0.588,-0.297,0.384,-5.565,134.33,-198.712,
41974140,-0.655,-0.217,0.398,-40.075,160.317,-205.73,
41974150,-0.81,-0.209,0.349,-82.092,166.512,-192.377,
41974160,-1.016,-0.285,0.291,-121.292,149.555,-165.13,
41974170,-1.175,-0.388,0.231,-151.777,112.122,-130.97,
41974170,-1.33,-0.508,0.144,-171.342,56.035,-97.212,
41974180,-1.328,-0.684,0.021,-178.377,-8.242,-78.68,
41974190,-1.125,-0.833,-0.08,-167.807,-59.867,-81.41,
41974200,-0.993,-0.883,-0.085,-144.077,-89.705,-96.652,
41974210,-0.901,-0.868,-0.091,-113.925,-106.68,-116.742,
41974220,-0.784,-0.777,0,-82.337,-110.985,-131.582,
41974230,-0.696,-0.743,0.018,-60.095,-105.175,-134.365,
41974240,-0.589,-0.67,0.051,-43.592,-92.242,-127.19,
41974250,-0.604,-0.719,0.078,-30.345,-72.887,-99.645,
41974260,-0.615,-0.783,0.125,-16.677,-51.852,-70.77,
41974270,-0.631,-0.841,0.164,-6.947,-31.745,-49.98,
41974280,-0.709,-0.835,0.213,-0.227,-16.537,-36.592,
41974290,-0.69,-0.872,0.201,2.502,-9.117,-33.705,
41974300,-0.761,-0.862,0.231,7,-8.837,-38.605,
41974310,-0.743,-0.853,0.211,12.092,-18.375,-43.732,
41974320,-0.689,-0.851,0.183,18.48,-29.33,-45.972,
41974330,-0.616,-0.842,0.145,26.53,-36.452,-47.547,
41974340,-0.567,-0.813,0.161,35.087,-38.202,-48.685,
41974350,-0.522,-0.818,0.15,41.597,-36.75,-49.682,
41974360,-0.493,-0.801,0.163,48.055,-33.162,-54.197,
41974370,-0.494,-0.801,0.179,53.865,-29.365,-58.765,
41974380,-0.52,-0.845,0.165,60.357,-27.79,-65.345,
41974390,-0.531,-0.868,0.155,72.397,-28.7,-76.387,
41974400,-0.492,-0.883,0.159,87.815,-29.19,-87.85,
41974410,-0.523,-0.858,0.188,102.2,-28.752,-96.425,
41974420,-0.503,-0.788,0.182,115.412,-28.647,-99.435,
41974430,-0.414,-0.664,0.256,119.455,-23.397,-89.967,
41974440,-0.418,-0.67,0.286,105.07,-12.722,-68.705,
41974450,-0.388,-0.593,0.35,82.897,2.94,-49.402,
41974460,-0.417,-0.677,0.335,47.81,19.897,-29.4,
41974470,-0.376,-0.75,0.355,13.615,39.987,-13.86,
41974480,-0.587,-0.8,0.383,-11.602,52.587,0.507,
41974490,-0.634,-0.854,0.37,-29.732,46.34,15.925,
41974500,-0.634,-0.89,0.32,-41.807,30.677,29.207,
41974510,-0.768,-0.892,0.275,-50.925,5.057,35.07,
41974510,-0.601,-0.85,0.227,-58.712,-22.977,40.53,
41974530,-0.556,-0.895,0.2,-63.91,-46.042,54.11,
41974530,-0.552,-1.021,0.098,-71.837,-64.697,69.16,
41974550,-0.6,-0.985,0.033,-69.387,-74.655,68.25,
41974550,-0.555,-1.048,0.021,-68.372,-80.867,55.65,
41974570,-0.377,-1.107,0.045,-60.952,-76.947,39.252,
41974570,-0.449,-0.982,0.097,-47.582,-61.985,10.85,
41974580,-0.55,-0.699,0.2,-44.94,-55.422,-4.042,
41974590,-0.608,-0.742,0.166,-64.032,-63.315,1.767,
41974600,-0.481,-0.745,0.156,-77.91,-69.772,9.817,
41974610,-0.436,-0.737,0.129,-89.547,-70.35,20.982,
41974620,-0.402,-0.84,0.081,-98.175,-59.097,33.04,
41974630,-0.432,-0.931,0.047,-96.477,-37.502,32.357,
41974640,-0.51,-0.9,0.09,-81.847,-15.96,19.88,
