#Format version: 1.0
time[ms],accX[g],accY[g],accZ[g],Value 1,Value 2,Value 3,
49515000,-0.22,-0.145,0.887,-5.075,12.897,0.262,
49515010,-0.303,-0.169,0.816,-3.587,18.2,2.555,
49515010,-0.263,-0.182,0.754,3.517,22.785,4.795,
49515030,-0.358,-0.173,0.81,11.777,31.132,7.84,
49515030,-0.526,-0.155,0.846,15.575,26.722,7.367,
49515050,-0.517,-0.137,0.909,15.732,18.235,6.265,
49515050,-0.53,-0.17,0.911,12.005,10.762,6.352,
49515070,-0.518,-0.197,0.901,13.65,3.447,6.3,
49515070,-0.443,-0.127,0.907,15.4,-0.49,4.13,
49515080,-0.418,-0.067,0.911,13.387,-1.785,2.135,
49515090,-0.382,-0.06,0.899,9.24,-2.922,0.997,
49515100,-0.329,-0.041,0.9,5.617,-2.94,1.89,
49515110,-0.357,-0.051,0.931,0.507,-1.96,2.66,
49515120,-0.377,-0.056,0.949,-3.482,-2.012,1.82,
49515130,-0.334,-0.037,0.956,-8.435,0.98,1.137,
49515140,-0.399,-0.066,0.933,-16.642,4.41,2.432,
49515150,-0.425,-0.11,0.887,-21.28,5.232,1.505,
49515160,-0.399,-0.117,0.872,-21.315,4.847,-0.56,
49515170,-0.413,-0.128,0.868,-22.505,4.532,0.612,
49515180,-0.405,-0.145,0.859,-24.132,4.427,1.435,
49515190,-0.423,-0.167,0.832,-25.112,3.622,1.855,
49515200,-0.461,-0.163,0.831,-25.077,0.14,2.852,
49515210,-0.455,-0.167,0.873,-24.237,-3.132,3.377,
49515220,-0.419,-0.191,0.928,-23.222,-4.725,1.837,
49515230,-0.413,-0.231,0.949,-20.597,-6.02,0.087,
49515240,-0.372,-0.234,0.929,-17.045,-7.56,-2.642,
49515250,-0.301,-0.186,0.899,-12.617,-6.58,-3.29,
49515260,-0.294,-0.13,0.898,-10.36,-2.59,-0.192,
49515270,-0.33,-0.131,0.903,-11.935,1.662,4.077,
49515280,-0.329,-0.168,0.896,-12.827,5.53,5.075,
49515290,-0.346,-0.172,0.903,-11.69,8.995,4.83,
49515300,-0.417,-0.157,0.922,-11.917,10.517,6.107,
49515310,-0.472,-0.168,0.928,-14.542,9.1,7.315,
49515320,-0.484,-0.191,0.908,-15.96,5.407,6.3,
49515330,-0.474,-0.193,0.886,-14.647,1.435,4.48,
49515340,-0.437,-0.184,0.875,-12.757,-2.187,2.695,
49515350,-0.388,-0.189,0.867,-11.34,-3.167,1.487,
49515360,-0.355,-0.209,0.85,-9.31,-2.205,2.047,
49515370,-0.359,-0.208,0.851,-5.827,0.717,3.395,
49515370,-0.404,-0.193,0.894,-3.832,1.662,5.075,
49515390,-0.439,-0.199,0.918,-4.322,1.172,5.757,
49515390,-0.434,-0.2,0.914,-4.987,-0.805,3.745,
49515410,-0.419,-0.186,0.9,-5.617,-2.677,2.17,
49515410,-0.411,-0.175,0.896,-5.705,-3.01,0.28,
49515420,-0.422,-0.166,0.894,-5.267,-2.292,-2.415,
49515430,-0.431,-0.153,0.912,-5.407,-1.067,-5.215,
49515440,-0.426,-0.14,0.918,-7.245,-0.437,-7.297,
49515450,-0.421,-0.139,0.876,-9.432,-0.7,-8.102,
49515460,-0.432,-0.165,0.865,-10.727,-1.82,-8.277,
49515470,-0.383,-0.189,0.834,-8.96,-0.157,-9.922,
49515480,-0.432,-0.172,0.805,-4.13,-0.332,-10.307,
49515490,-0.511,-0.108,0.791,-1.382,-3.85,-9.887,
49515500,-0.451,-0.061,0.939,-2.817,-5.215,-10.097,
49515510,-0.501,-0.13,0.999,-12.46,-3.797,-8.89,
49515520,-0.536,-0.175,1.008,-20.702,-8.61,-13.317,
49515530,-0.447,-0.157,0.957,-25.497,-13.527,-17.062,
49515540,-0.319,-0.19,1.047,-30.87,-15.365,-17.832,
49515550,-0.376,-0.387,0.919,-35.805,-8.172,-10.377,
49515560,-0.445,-0.423,0.78,-29.487,-23.205,-2.065,
49515570,-0.221,-0.294,0.731,-16.275,-30.94,3.762,
49515580,-0.221,-0.281,0.694,-15.067,-28.945,10.622,
49515590,-0.247,-0.363,0.751,-10.64,-25.2,12.32,
49515600,-0.178,-0.354,0.801,0.21,-22.26,11.27,
49515610,-0.191,-0.27,0.768,10.797,-23.135,14.682,
49515620,-0.199,-0.217,0.732,17.675,-24.955,21.332,
49515630,-0.256,-0.28,0.8,19.145,-21,27.335,
49515640,-0.373,-0.375,0.869,21.945,-16.187,29.855,
49515650,-0.424,-0.368,0.949,27.685,-14.98,29.54,
49515660,-0.401,-0.325,0.994,29.662,-13.86,27.51,
49515670,-0.39,-0.282,1.003,32.917,-10.675,25.182,
49515680,-0.333,-0.195,1.034,33.075,-6.317,21,
49515690,-0.378,-0.124,1.049,27.072,-0.157,17.605,
49515700,-0.37,-0.118,0.913,13.982,5.215,10.237,
49515710,-0.307,-0.19,0.855,14.805,10.01,9.992,
49515720,-0.246,-0.145,0.848,18.147,17.342,7.665,
49515730,-0.309,-0.157,0.835,24.15,26.25,11.445,
49515740,-0.34,-0.117,0.847,25.847,32.077,12.565,
49515750,-0.379,-0.111,0.892,29.33,34.545,16.957,
49515760,-0.462,-0.084,0.893,27.615,33.932,15.855,
49515760,-0.538,-0.095,0.922,26.005,29.505,12.53,
49515780,-0.562,-0.094,0.982,27.177,20.335,10.972,
49515780,-0.612,-0.086,1.051,27.842,11.235,9.1,
49515800,-0.654,-0.01,1.033,21.892,-0.927,3.237,
49515800,-0.582,-0.006,0.934,12.355,-12.862,-5.617,
49515820,-0.494,-0.092,0.86,6.79,-20.422,-11.637,
49515820,-0.439,-0.12,0.855,8.365,-25.025,-12.25,
49515830,-0.372,-0.116,0.871,11.48,-28.472,-8.68,
49515840,-0.29,-0.141,0.837,13.107,-27.93,-6.947,
49515850,-0.288,-0.163,0.825,17.132,-24.255,-4.06,
49515860,-0.311,-0.173,0.862,22.627,-20.72,-0.77,
49515870,-0.329,-0.193,0.851,28.56,-18.007,0.21,
49515880,-0.335,-0.219,0.809,37.572,-17.15,-0.962,
49515890,-0.317,-0.204,0.84,46.532,-17.185,-1.505,
49515900,-0.31,-0.167,0.85,52.377,-17.85,1.627,
49515910,-0.294,-0.069,0.918,54.407,-13.965,3.097,
49515920,-0.385,-0.055,0.979,48.387,-8.26,4.602,
49515930,-0.328,-0.109,0.929,43.172,-6.965,5.617,
49515940,-0.211,-0.096,0.866,47.792,-4.322,7.875,
49515950,-0.126,-0.055,0.817,53.76,2.52,14.927,
49515960,-0.025,0.009,0.818,57.4,17.482,20.527,
49515970,-0.078,0.127,0.967,47.827,39.935,22.347,
49515980,-0.279,0.109,1.061,38.815,60.305,24.01,
49515990,-0.47,0.121,1.109,23.502,64.277,22.487,
49516000,-0.543,0.159,1.093,8.487,59.255,18.252,
49516010,-0.637,0.16,1.004,-1.067,49.717,17.36,
49516020,-0.611,0.12,0.905,-8.785,32.095,21.577,
49516030,-0.444,0.116,0.877,-14.175,24.36,20.58,
49516040,-0.421,0.069,0.854,-19.145,25.83,18.322,
49516050,-0.449,-0.011,0.825,-19.337,26.022,21.017,
49516060,-0.402,0.012,0.865,-18.357,25.567,20.79,
49516070,-0.532,-0.04,0.914,-22.19,24.867,21.98,
49516080,-0.632,-0.068,0.916,-24.57,21.175,16.922,
49516080,-0.706,-0.109,0.88,-27.492,12.442,14.84,
49516100,-0.734,-0.149,0.825,-27.72,0.595,12.267,
49516100,-0.749,-0.157,0.825,-25.97,-12.18,6.3,
49516120,-0.696,-0.152,0.857,-23.887,-26.775,0.525,
49516120,-0.603,-0.151,0.892,-22.592,-37.065,-1.61,
49516140,-0.544,-0.115,0.882,-18.882,-44.52,-5.215,
49516140,-0.435,-0.063,0.886,-16.275,-48.65,-5.932,
49516160,-0.338,-0.026,0.913,-14.385,-48.317,-5.687,
49516160,-0.265,0.016,0.948,-13.667,-43.26,-5.915,
49516170,-0.255,0.034,0.93,-15.61,-35.14,-5.18,
49516180,-0.293,0.012,0.902,-18.27,-28.437,-3.185,
49516190,-0.314,-0.008,0.891,-19.53,-21.91,-0.665,
49516200,-0.351,-0.019,0.891,-19.53,-15.312,-0.752,
49516210,-0.376,-0.049,0.885,-19.705,-10.202,-1.172,
49516220,-0.376,-0.057,0.884,-19.775,-7.63,-0.052,
49516230,-0.382,-0.048,0.874,-19.267,-5.652,1.067,
49516240,-0.388,-0.053,0.895,-19.162,-4.34,2.59,
49516250,-0.377,-0.086,0.918,-20.265,-4.147,4.357,
49516260,-0.382,-0.083,0.948,-20.772,-4.865,4.48,
49516270,-0.456,-0.064,0.968,-22.977,-7.227,5.022,
49516280,-0.471,-0.051,0.982,-26.285,-13.37,6.072,
49516290,-0.454,-0.073,0.963,-28.612,-19.95,9.03,
49516300,-0.453,-0.072,0.956,-29.977,-24.412,12.425,
49516310,-0.407,-0.044,0.948,-32.865,-27.527,11.935,
49516320,-0.405,-0.048,0.966,-35.052,-28.42,11.427,
49516330,-0.407,-0.081,0.984,-37.38,-31.167,10.937,
49516340,-0.343,-0.053,1.016,-35.735,-34.86,9.082,
49516350,-0.392,-0.076,0.953,-40.11,-36.557,8.172,
49516360,-0.425,-0.124,0.874,-43.032,-41.475,7.332,
49516370,-0.375,-0.104,0.908,-42.105,-45.01,5.687,
49516380,-0.441,-0.132,0.9,-46.69,-49,2.345,
49516390,-0.427,-0.177,0.86,-49.227,-55.737,0.105,
49516400,-0.376,-0.172,0.871,-49.612,-64.487,-1.61,
49516410,-0.37,-0.197,0.915,-50.435,-70.42,-4.41,
49516420,-0.338,-0.258,0.945,-50.662,-72.24,-6.405,
49516430,-0.342,-0.242,0.978,-43.837,-71.05,-8.767,
49516440,-0.358,-0.188,0.975,-39.515,-74.462,-9.432,
49516450,-0.292,-0.203,0.929,-36.715,-78.277,-6.492,
49516460,-0.325,-0.184,0.907,-30.555,-77.875,-0.892,
49516470,-0.483,-0.25,0.836,-27.335,-77.98,11.882,
49516480,-0.322,-0.23,0.939,-19.057,-78.505,1.207,
49516490,-0.088,-0.168,0.988,-18.48,-82.722,-10.972,
49516500,-0.094,-0.195,0.979,-22.697,-77.245,-6.685,
49516510,-0.105,-0.209,0.994,-25.725,-71.732,-8.907,
49516510,-0.07,-0.187,0.967,-24.937,-68.81,-8.032,
49516530,-0.043,-0.165,0.941,-28.297,-61.652,-8.225,
49516530,-0.049,-0.188,0.945,-30.397,-52.955,-9.975,
49516550,-0.062,-0.19,0.955,-32.497,-46.095,-10.64,
49516550,-0.044,-0.185,0.964,-33.967,-38.867,-10.377,
49516570,-0.098,-0.186,0.975,-37.677,-31.867,-10.885,
49516570,-0.23,-0.243,0.948,-44.17,-31.027,-13.23,
49516580,-0.269,-0.296,0.926,-42.157,-37.205,-14.367,
49516590,-0.233,-0.297,0.924,-35.297,-45.85,-10.465,
49516600,-0.168,-0.277,0.93,-29.925,-52.832,-8.435,
49516610,-0.069,-0.273,0.87,-27.265,-54.267,-8.4,
49516620,-0.009,-0.246,0.831,-23.782,-50.925,-4.725,
49516630,0.098,-0.187,0.742,-18.952,-40.652,-1.067,
49516640,-0.35,0.191,0.287,-8.417,-23.677,8.592,
49516650,-0.225,-0.004,1.297,-20.877,-26.74,19.67,
49516660,0.349,-0.763,1.345,-34.037,-23.782,-7.507,
49516670,0.139,-0.83,0.965,-27.195,-24.885,7.595,
49516680,-0.089,-0.205,0.767,0.472,-27.37,20.107,
49516690,-0.053,-0.011,0.937,1.645,-24.675,21.77,
49516700,0.123,-0.307,0.825,-23.59,-13.212,5.11,
49516710,0.013,-0.433,0.938,-28.42,-0.805,-0.262,
49516720,0.064,-0.375,0.974,-23.38,0.332,4.655,
49516730,0.04,-0.377,0.927,-20.3,2.992,9.59,
49516740,-0.021,-0.354,0.867,-20.895,5.512,10.15,
49516750,-0.026,-0.332,0.861,-18.235,9.047,8.12,
49516760,-0.048,-0.363,0.866,-14.56,11.445,6.3,
49516770,-0.007,-0.371,0.851,-11.077,14.28,5.582,
49516780,0.01,-0.348,0.833,-7.035,19.057,6.02,
49516790,0.022,-0.327,0.852,-4.935,26.04,6.842,
49516800,-0.018,-0.342,0.875,-5.722,31.867,7.087,
49516810,-0.094,-0.369,0.879,-4.34,34.685,7.875,
49516820,-0.155,-0.339,0.896,-0.087,32.917,8.925,
49516830,-0.169,-0.328,0.922,2.38,29.907,9.677,
49516830,-0.193,-0.343,0.919,3.745,27.037,8.172,
49516850,-0.196,-0.349,0.914,7.787,22.487,7.857,
49516850,-0.155,-0.335,0.914,13.265,17.92,8.435,
49516870,-0.123,-0.323,0.92,16.59,16.905,7.787,
49516870,-0.123,-0.309,0.912,16.975,18.025,5.372,
49516890,-0.113,-0.331,0.911,17.5,18.48,4.34,
49516890,-0.101,-0.347,0.896,21.437,18.252,3.85,
49516910,-0.067,-0.312,0.893,26.582,19.075,5.705,
49516910,-0.054,-0.275,0.912,26.897,24.692,7.315,
49516920,-0.119,-0.265,0.931,22.312,30.835,7.332,
49516930,-0.149,-0.259,0.948,18.27,34.44,7.332,
49516940,-0.175,-0.254,0.968,16.327,35.35,8.225,
49516950,-0.215,-0.251,0.968,14.77,34.842,8.032,
49516960,-0.292,-0.301,0.964,18.55,31.465,10.36,
49516970,-0.256,-0.23,0.982,23.362,25.095,12.845,
49516980,-0.261,-0.229,0.969,18.077,21.56,7.227,
49516990,-0.238,-0.249,0.951,13.702,20.177,3.587,
49517000,-0.192,-0.264,0.946,13.352,17.797,4.305,
49517010,-0.156,-0.251,0.938,13.737,17.692,5.285,
49517020,-0.124,-0.241,0.925,12.652,19.652,4.217,
49517030,-0.111,-0.244,0.919,13.44,23.992,5.162,
49517040,-0.118,-0.252,0.912,14,28.315,8.627,
49517050,-0.145,-0.256,0.92,15.365,33.67,10.92,
49517060,-0.183,-0.231,0.935,14.787,37.187,11.55,
49517070,-0.227,-0.226,0.937,11.952,38.85,11.34,
49517080,-0.284,-0.244,0.965,12.81,37.537,12.162,
49517090,-0.313,-0.223,0.981,11.48,34.492,13.142,
49517100,-0.356,-0.196,0.986,11.042,30.03,12.197,
49517110,-0.378,-0.192,0.969,8.172,24.325,11.497,
49517120,-0.353,-0.197,0.945,4.9,17.605,8.155,
49517130,-0.32,-0.201,0.952,2.677,13.387,4.917,
49517140,-0.304,-0.231,0.947,0.98,10.027,5.565,
49517150,-0.273,-0.232,0.94,1.592,8.452,5.285,
49517160,-0.27,-0.216,0.929,2.677,7.087,5.862,
49517170,-0.259,-0.204,0.906,2.362,7.612,7.332,
49517180,-0.269,-0.183,0.921,2.485,7.997,8.085,
49517190,-0.271,-0.177,0.958,0.385,8.19,9.292,
49517200,-0.256,-0.189,0.987,-3.272,8.155,8.487,
49517210,-0.261,-0.223,0.972,-7.157,8.242,8.015,
49517220,-0.264,-0.209,0.958,-7.682,8.715,7.98,
49517230,-0.268,-0.178,0.96,-9.345,9.205,8.137,
49517240,-0.3,-0.211,0.949,-12.425,9.45,8.627,
49517250,-0.295,-0.214,0.911,-12.337,9.275,6.387,
49517260,-0.341,-0.197,0.971,-13.667,7.682,6.055,
49517260,-0.305,-0.254,0.931,-16.327,5.775,4.777,
49517280,-0.291,-0.245,0.958,-14.787,4.445,1.925,
49517280,-0.274,-0.243,0.932,-15.505,3.447,0.612,
49517300,-0.257,-0.253,0.931,-15.242,3.062,-0.717,
49517300,-0.243,-0.275,0.926,-15.89,3.255,0.945,
49517320,-0.238,-0.296,0.892,-15.785,4.27,3.027,
49517320,-0.246,-0.292,0.859,-12.53,5.985,4.357,
49517330,-0.277,-0.28,0.852,-8.05,7.7,6.125,
49517340,-0.289,-0.283,0.866,-4.41,8.4,7.35,
49517350,-0.3,-0.299,0.871,-1.47,8.872,8.312,
49517360,-0.304,-0.294,0.874,2.275,8.802,8.645,
49517370,-0.313,-0.27,0.896,4.655,8.697,9.047,
49517380,-0.319,-0.267,0.908,5.022,7.175,9.537,
49517390,-0.31,-0.263,0.905,5.967,6.44,9.135,
49517400,-0.313,-0.245,0.902,7.42,5.862,8.26,
49517410,-0.308,-0.229,0.899,8.032,6.195,7.595,
49517420,-0.306,-0.228,0.899,8.155,6.055,7.472,
49517430,-0.32,-0.243,0.916,8.085,6.877,7.84,
49517440,-0.337,-0.249,0.934,8.102,6.58,6.702,
49517450,-0.35,-0.246,0.931,7.735,6.282,5.757,
49517460,-0.35,-0.217,0.942,6.632,4.987,4.83,
49517470,-0.351,-0.217,0.949,4.235,4.777,3.745,
49517480,-0.331,-0.225,0.94,2.642,2.957,2.17,
49517490,-0.308,-0.211,0.944,2.292,2.205,0.84,
49517500,-0.303,-0.215,0.94,1.207,1.47,0.105,
49517510,-0.287,-0.209,0.922,-0.122,1.872,-0.105,
49517520,-0.283,-0.2,0.922,-2.292,2.415,0.507,
49517530,-0.3,-0.225,0.912,-4.06,4.34,1.575,
49517540,-0.318,-0.238,0.916,-3.29,5.04,1.697,
49517550,-0.332,-0.239,0.917,-2.45,4.69,1.575,
49517560,-0.332,-0.236,0.909,-1.89,3.552,0.98,
49517570,-0.344,-0.234,0.905,-1.54,2.257,0.682,
49517580,-0.341,-0.235,0.881,-2.38,1.277,0.245,
49517580,-0.342,-0.244,0.863,-1.977,1.452,-0.035,
49517600,-0.355,-0.254,0.864,-0.595,0.805,1.312,
49517600,-0.338,-0.258,0.883,1.172,-0.665,2.047,
49517620,-0.313,-0.263,0.889,3.307,-1.61,2.082,
49517620,-0.299,-0.259,0.888,5.197,-1.785,2.87,
49517640,-0.294,-0.248,0.887,7.245,-0.402,3.797,
49517640,-0.304,-0.239,0.881,8.907,1.277,4.987,
49517660,-0.308,-0.238,0.881,10.57,2.905,6.632,
49517660,-0.304,-0.23,0.89,12.46,4.007,7.385,
49517670,-0.301,-0.232,0.89,14.892,5.722,7.647,
49517680,-0.303,-0.212,0.899,17.08,7.157,7.752,
49517690,-0.308,-0.199,0.906,16.59,8.487,8.452,
49517700,-0.315,-0.204,0.908,15.837,10.132,8.207,
49517710,-0.348,-0.209,0.912,15.312,11.532,8.33,
49517720,-0.381,-0.195,0.919,14.665,10.237,8.015,
49517730,-0.387,-0.194,0.922,13.142,8.487,6.842,
49517740,-0.401,-0.204,0.916,11.882,5.985,5.6,
49517750,-0.413,-0.193,0.93,11.182,2.87,4.252,
49517760,-0.405,-0.176,0.943,9.52,-0.945,2.485,
49517770,-0.387,-0.179,0.938,6.51,-3.797,1.33,
49517780,-0.35,-0.172,0.938,4.305,-6.142,0.385,
49517790,-0.324,-0.158,0.942,2.065,-6.562,0.297,
49517800,-0.322,-0.165,0.942,0.175,-6.335,0.21,
49517810,-0.32,-0.167,0.944,-1.26,-5.075,0.175,
49517820,-0.318,-0.167,0.932,-2.747,-4.62,0.402,
49517830,-0.316,-0.167,0.918,-4.077,-3.22,0.84,
49517840,-0.313,-0.171,0.902,-4.987,-1.995,1.645,
49517850,-0.291,-0.177,0.92,-5.337,0.63,2.432,
49517860,-0.281,-0.196,0.914,-5.215,3.447,3.797,
49517870,-0.285,-0.205,0.913,-3.762,6.947,5.162,
49517880,-0.32,-0.206,0.917,-2.467,8.19,5.792,
49517890,-0.317,-0.219,0.907,-2.03,9.187,6.317,
49517900,-0.339,-0.234,0.867,0.087,10.29,6.685,
49517910,-0.413,-0.222,0.878,3.36,9.642,5.67,
49517920,-0.405,-0.235,0.886,4.567,7.91,3.045,
49517930,-0.446,-0.274,0.867,6.842,5.372,2.87,
49517940,-0.5,-0.218,0.886,9.275,0.157,1.697,
49517950,-0.46,-0.187,0.892,7.525,-4.55,-2.747,
49517960,-0.435,-0.233,0.88,5.985,-7.945,-4.27,
49517970,-0.406,-0.219,0.914,7.262,-11.9,-5.285,
49517980,-0.331,-0.175,0.936,6.562,-13.562,-7.192,
49517990,-0.309,-0.197,0.909,3.71,-11.83,-3.867,
49518000,-0.301,-0.178,0.905,3.657,-8.837,0.56,
49518010,-0.311,-0.16,0.911,2.782,-6.02,2.38,
49518010,-0.301,-0.188,0.904,2.695,-4.532,2.432,
49518030,-0.276,-0.179,0.908,5.495,-2.975,1.785,
49518030,-0.267,-0.153,0.912,6.51,-0.472,2.345,
49518050,-0.288,-0.176,0.901,6.527,3.955,4.357,
49518050,-0.34,-0.198,0.895,8.61,7.105,6.352,
49518060,-0.363,-0.184,0.906,11.847,6.055,5.757,
49518070,-0.338,-0.179,0.901,14.245,4.55,4.147,
49518080,-0.353,-0.193,0.897,16.03,4.392,2.782,
49518090,-0.371,-0.179,0.879,18.147,4.62,0.945,
49518100,-0.401,-0.17,0.894,19.285,3.517,0.875,
49518110,-0.413,-0.175,0.909,18.235,1.627,1.365,
49518120,-0.425,-0.17,0.929,17.762,-2.607,0.525,
49518130,-0.4,-0.157,0.945,15.995,-6.195,-0.612,
49518140,-0.385,-0.151,0.947,13.947,-9.327,-1.995,
49518150,-0.375,-0.136,0.952,10.255,-10.482,-3.185,
49518160,-0.376,-0.145,0.941,5.267,-11.515,-3.885,
49518170,-0.35,-0.16,0.948,3.115,-11.777,-3.57,
49518180,-0.336,-0.174,0.939,1.032,-11.83,-2.607,
49518190,-0.332,-0.166,0.925,2.31,-13.615,-3.692,
49518200,-0.248,-0.137,0.93,4.06,-11.532,-6.895,
49518210,-0.288,-0.159,0.913,1.452,-9.257,-4.69,
49518220,-0.29,-0.173,0.892,1.75,-7.402,-3.535,
49518230,-0.272,-0.16,0.845,5.232,-4.165,-2.362,
49518240,-0.337,-0.125,0.899,7.717,-0.28,1.207,
49518250,-0.374,-0.156,0.91,6.895,1.557,1.452,
49518260,-0.376,-0.169,0.894,10.447,1.05,-0.822,
49518270,-0.381,-0.115,0.916,12.145,0.752,-1.925,
49518280,-0.403,-0.114,0.923,12.337,-0.367,-0.752,
49518290,-0.387,-0.11,0.947,12.617,-2.642,-2.887,
49518300,-0.353,-0.114,0.971,10.57,-4.725,-4.515,
49518310,-0.33,-0.146,0.954,8.452,-5.565,-4.76,
49518320,-0.289,-0.141,0.952,10.622,-4.83,-6.702,
49518330,-0.296,-0.133,0.949,12.967,-3.237,-7.192,
49518330,-0.326,-0.135,0.932,14.665,-1.61,-6.877,
49518350,-0.342,-0.098,0.951,17.08,-1.592,-7.805,
49518350,-0.344,-0.064,0.955,14.525,-1.837,-8.645,
49518370,-0.348,-0.098,0.936,8.715,-2.852,-7.997,
49518370,-0.321,-0.12,0.916,7.472,-2.765,-7.717,
49518390,-0.313,-0.092,0.914,8.312,-2.38,-7.577,
49518390,-0.308,-0.084,0.911,6.615,-0.84,-5.967,
49518410,-0.307,-0.103,0.906,4.882,0.892,-4.917,
49518410,-0.313,-0.116,0.899,3.815,3.185,-4.165,
49518420,-0.341,-0.126,0.894,3.097,4.042,-2.922,
49518430,-0.37,-0.135,0.889,3.29,3.395,-1.557,
49518440,-0.388,-0.134,0.903,3.517,0.892,-0.14,
49518450,-0.397,-0.129,0.92,2.572,-1.732,0.735,
49518460,-0.391,-0.124,0.923,1.242,-4.777,-0.385,
49518470,-0.372,-0.125,0.921,-0.157,-5.967,-2.047,
49518480,-0.356,-0.128,0.909,-0.927,-6.65,-2.817,
49518490,-0.336,-0.128,0.909,-0.577,-6.562,-2.625,
49518500,-0.319,-0.125,0.915,0.437,-6.265,-2.747,
49518510,-0.307,-0.121,0.932,1.067,-4.847,-3.01,
49518520,-0.306,-0.119,0.939,1.837,-3.517,-2.012,
49518530,-0.305,-0.106,0.935,1.802,-2.117,-0.892,
49518540,-0.293,-0.093,0.933,1.067,-1.032,-0.21,
49518550,-0.308,-0.107,0.93,0.07,0.997,1.19,
49518560,-0.328,-0.114,0.936,0.14,1.732,2.397,
49518570,-0.33,-0.101,0.944,0.297,2.24,3.15,
49518580,-0.333,-0.089,0.952,-0.927,1.575,3.535,
49518590,-0.323,-0.096,0.948,-2.502,2.485,3.395,
49518600,-0.323,-0.101,0.948,-3.22,4.235,2.992,
49518610,-0.338,-0.105,0.933,-4.042,5.18,2.975,
49518620,-0.337,-0.112,0.908,-4.042,5.215,3.237,
49518630,-0.323,-0.117,0.904,-2.817,6.177,3.465,
49518640,-0.322,-0.115,0.909,-1.382,7.682,3.605,
49518650,-0.333,-0.115,0.909,-0.735,8.505,3.955,
49518660,-0.336,-0.12,0.913,-0.105,8.61,4.935,
49518670,-0.333,-0.118,0.912,0.665,9.607,5.617,
49518680,-0.351,-0.122,0.904,1.662,10.08,5.652,
49518690,-0.366,-0.134,0.899,3.115,9.905,5.46,
49518700,-0.359,-0.148,0.899,5.162,9.8,4.462,
49518710,-0.379,-0.158,0.885,8.19,9.975,3.045,
49518720,-0.412,-0.145,0.901,10.097,8.33,2.275,
49518730,-0.425,-0.145,0.907,10.447,4.567,2.082,
49518730,-0.415,-0.151,0.907,11.585,1.33,0.665,
49518750,-0.402,-0.134,0.924,12.932,0.017,-0.665,
49518750,-0.401,-0.121,0.961,11.97,-0.805,-0.822,
49518760,-0.388,-0.096,0.969,10.377,-0.7,-2.572,
49518770,-0.375,-0.059,0.981,6.632,-0.385,-4.725,
49518780,-0.357,-0.059,0.963,0.262,0.525,-4.847,
49518790,-0.34,-0.065,0.936,-4.987,2.765,-5.95,
49518800,-0.311,-0.064,0.954,-7.122,5.355,-6.685,
49518810,-0.208,-0.096,1.009,-14.892,12.46,-0.07,
49518820,-0.28,-0.164,0.961,-24.29,26.985,12.932,
49518830,-0.343,-0.11,0.932,-24.535,34.65,11.9,
49518840,-0.436,-0.122,0.881,-31.255,29.382,15.155,
49518850,-0.343,-0.113,0.836,-27.93,25.952,18.165,
49518860,-0.262,-0.081,0.835,-21.752,23.607,14.07,
49518870,-0.324,-0.09,0.869,-19.74,24.832,15.242,
49518880,-0.381,-0.101,0.863,-18.182,24.64,16.152,
49518890,-0.38,-0.101,0.906,-15.89,24.342,14.805,
49518900,-0.456,-0.104,0.91,-13.335,25.865,16.24,
49518910,-0.519,-0.082,0.914,-13.702,24.062,13.58,
49518920,-0.557,-0.08,0.905,-14.7,18.13,8.855,
49518930,-0.579,-0.087,0.887,-16.835,10.272,3.57,
49518940,-0.581,-0.101,0.862,-16.94,0.682,-2.065,
49518950,-0.546,-0.099,0.846,-15.855,-7.035,-6.755,
49518960,-0.507,-0.114,0.863,-16.432,-12.057,-10.955,
49518970,-0.463,-0.154,0.884,-17.237,-12.145,-13.09,
49518980,-0.428,-0.181,0.898,-16.73,-11.48,-14.14,
49518990,-0.368,-0.181,0.916,-15.067,-8.82,-14.017,
49519000,-0.321,-0.187,0.907,-13.65,-5.162,-12.53,
49519010,-0.294,-0.193,0.898,-11.322,0.122,-10.657,
49519020,-0.308,-0.174,0.88,-8.242,4.287,-8.925,
49519030,-0.334,-0.165,0.879,-6.527,4.725,-5.215,
49519040,-0.338,-0.167,0.879,-4.812,4.865,-2.1,
49519050,-0.366,-0.17,0.888,-3.71,6.877,-0.14,
49519060,-0.456,-0.204,0.883,-4.48,6.335,1.225,
49519070,-0.489,-0.182,0.831,-4.812,2.73,0.175,
49519080,-0.526,-0.161,0.843,-4.462,-1.19,-0.262,
49519080,-0.546,-0.171,0.845,-6.037,-5.967,-1.172,
49519100,-0.514,-0.177,0.856,-7.245,-11.147,-3.272,
49519100,-0.463,-0.172,0.869,-7.717,-14.525,-4.725,
49519120,-0.417,-0.159,0.894,-6.317,-15.925,-4.095,
49519120,-0.351,-0.133,0.91,-5.162,-15.277,-3.22,
49519140,-0.31,-0.119,0.904,-5.547,-11.725,-1.347,
49519140,-0.309,-0.147,0.882,-6.142,-7.63,2.205,
49519160,-0.334,-0.166,0.873,-3.622,-3.937,5.075,
49519160,-0.363,-0.151,0.883,-1.417,-0.647,6.545,
49519170,-0.421,-0.173,0.861,-1.802,1.47,7.84,
49519180,-0.43,-0.192,0.842,-0.297,1.837,7.14,
49519190,-0.417,-0.202,0.838,1.855,3.622,5.687,
49519200,-0.428,-0.21,0.856,3.307,4.55,5.18,
49519210,-0.454,-0.191,0.881,3.955,3.097,5.88,
49519220,-0.48,-0.17,0.903,3.097,-1.12,5.6,
49519230,-0.472,-0.162,0.91,1.435,-5.74,3.955,
49519240,-0.444,-0.147,0.93,1.155,-9.502,1.575,
49519250,-0.436,-0.14,0.932,0.192,-10.307,-0.77,
49519260,-0.422,-0.145,0.919,-0.822,-11.27,-2.59,
49519270,-0.389,-0.143,0.912,-0.805,-11.077,-3.272,
49519280,-0.367,-0.139,0.911,-0.402,-9.835,-2.975,
49519290,-0.356,-0.136,0.904,-0.28,-6.807,-1.925,
49519300,-0.352,-0.139,0.886,-0.157,-3.377,-1.102,
49519310,-0.358,-0.153,0.879,-0.07,0.385,0.455,
49519320,-0.382,-0.158,0.888,-0.21,2.852,1.872,
49519330,-0.425,-0.166,0.891,-1.207,4.042,2.625,
49519340,-0.456,-0.173,0.897,-2.187,2.782,2.38,
49519350,-0.473,-0.174,0.907,-2.957,0.437,1.085,
49519360,-0.479,-0.168,0.912,-4.007,-2.73,-0.822,
49519370,-0.472,-0.167,0.9,-5.95,-6.422,-2.765,
49519380,-0.432,-0.154,0.878,-7.682,-8.767,-5.145,
49519390,-0.424,-0.144,0.84,-9.52,-9.362,-6.457,
49519400,-0.407,-0.144,0.83,-10.36,-9.537,-6.562,
49519410,-0.368,-0.153,0.85,-10.71,-8.925,-6.142,
49519420,-0.371,-0.186,0.855,-10.797,-7.752,-4.97,
49519420,-0.369,-0.212,0.853,-9.292,-5.162,-5.285,
49519440,-0.449,-0.226,0.903,-6.562,-5.022,-4.812,
49519440,-0.415,-0.217,0.892,-7.84,-12.792,-5.11,
49519460,-0.349,-0.215,0.86,-7.437,-10.972,-7.262,
49519460,-0.465,-0.237,0.885,-7.297,-10.185,-6.212,
49519480,-0.494,-0.22,0.918,-7.332,-14.787,-7.105,
49519480,-0.485,-0.213,0.919,-7.787,-21.192,-12.302,
49519500,-0.513,-0.177,0.923,-9.712,-27.3,-18.007,
49519500,-0.543,-0.179,0.909,-11.935,-36.137,-19.687,
49519510,-0.562,-0.188,0.935,-13.492,-43.522,-24.552,
49519520,-0.493,-0.15,0.951,-13.247,-53.742,-27.282,
49519530,-0.416,-0.132,0.952,-16.1,-58.992,-28.56,
49519540,-0.29,-0.121,0.948,-20.667,-59.622,-29.785,
49519550,-0.243,-0.116,0.96,-22.837,-53.322,-27.632,
49519560,-0.221,-0.121,0.967,-25.34,-48.44,-25.095,
49519570,-0.188,-0.158,0.965,-26.6,-42.84,-23.485,
49519580,-0.2,-0.194,0.966,-26.722,-37.905,-21.175,
49519590,-0.256,-0.205,0.975,-26.81,-32.217,-18.672,
49519600,-0.324,-0.229,0.962,-27.44,-31.972,-18.83,
49519610,-0.335,-0.268,0.968,-26.565,-33.827,-18.602,
49519620,-0.332,-0.292,0.974,-24.605,-36.33,-18.165,
49519630,-0.313,-0.273,0.937,-19.162,-38.57,-17.517,
49519640,-0.3,-0.245,0.904,-15.05,-40.88,-16.065,
49519650,-0.272,-0.246,0.884,-12.827,-40.442,-15.715,
49519660,-0.203,-0.25,0.885,-10.272,-37.835,-15.995,
49519670,-0.188,-0.242,0.936,-7.612,-32.147,-14.472,
49519680,-0.187,-0.256,1.019,-7.63,-28.035,-12.74,
49519690,-0.135,-0.24,1.135,-8.365,-25.287,-12.425,
49519700,-0.083,-0.182,1.225,-11.025,-22.627,-11.13,
49519710,-0.021,-0.115,1.33,-18.9,-16.467,-11.077,
49519720,0.027,-0.053,1.409,-32.287,-5.757,-13.09,
49519730,-0.082,-0.022,1.291,-52.307,3.237,-12.53,
49519740,-0.133,-0.14,1.101,-69.37,9.94,-10.132,
49519750,-0.16,-0.214,1.065,-66.885,14.56,-5.355,
49519760,-0.252,-0.247,1.059,-53.165,14.752,7.35,
49519770,-0.329,-0.309,1.061,-39.305,10.85,19.67,
49519780,-0.374,-0.366,0.98,-23.485,3.185,22.82,
49519790,-0.427,-0.336,0.911,-4.322,-11.987,14.07,
49519800,-0.274,-0.265,0.908,14.21,-22.785,3.605,
49519810,-0.012,-0.275,0.737,31.622,-9.852,3.29,
49519820,0.026,-0.306,0.705,56.77,16.432,1.312,
49519830,-0.071,-0.394,0.722,74.235,37.117,-3.867,
49519830,0.018,-0.362,0.648,100.817,60.532,-11.375,
49519850,-0.059,-0.227,0.71,125.772,82.057,-11.725,
49519850,-0.207,-0.134,0.713,133.892,96.18,-10.377,
49519870,-0.368,-0.101,0.717,132.685,100.327,-16.887,
49519870,-0.493,-0.138,0.706,127.435,87.762,-28.455,
49519890,-0.549,-0.103,0.696,121.03,63.962,-41.037,
49519890,-0.607,-0.056,0.69,117.337,31.85,-52.272,
49519910,-0.619,-0.041,0.69,114.432,-3.29,-67.357,
49519910,-0.557,-0.016,0.692,109.462,-34.702,-85.89,
49519920,-0.489,-0.044,0.645,102.112,-57.575,-105.157,
49519930,-0.417,-0.067,0.628,103.39,-70.262,-126.84,
49519940,-0.299,-0.018,0.678,107.642,-71.172,-148.382,
49519950,-0.21,0.182,0.903,95.48,-59.15,-162.032,
49519960,-0.224,0.22,0.886,52.307,-44.187,-175.577,
49519970,-0.211,0.123,0.885,31.552,-26.11,-183.872,
49519980,-0.158,0.075,0.948,18.217,-12.95,-174.65,
49519990,-0.236,0.028,0.942,-0.735,-9.17,-145.32,
49520000,-0.385,-0.091,0.913,-17.867,-11.515,-108.272,
49520010,-0.396,-0.182,0.918,-24.5,-15.05,-89.687,
49520020,-0.374,-0.229,0.934,-28.875,-18.69,-74.095,
49520030,-0.41,-0.244,0.92,-29.662,-23.8,-59.027,
49520040,-0.363,-0.187,0.975,-24.622,-31.517,-53.917,
49520050,-0.303,-0.153,0.991,-27.51,-35.945,-49.07,
49520060,-0.259,-0.159,0.983,-34.86,-36.242,-44.012,
49520070,-0.24,-0.21,0.96,-39.83,-33.862,-39.9,
49520080,-0.238,-0.264,0.949,-39.497,-31.237,-37.817,
49520090,-0.229,-0.256,0.963,-36.47,-28.07,-38.482,
49520100,-0.23,-0.234,0.994,-35.315,-28.262,-40.495,
49520110,-0.218,-0.195,1.023,-39.987,-32.76,-41.37,
49520120,-0.167,-0.209,1.06,-48.685,-39.27,-39.707,
49520130,-0.108,-0.301,1.046,-54.285,-45.955,-36.627,
49520140,-0.088,-0.265,1.007,-58.8,-49.7,-34.877,
49520150,-0.075,-0.258,0.97,-67.042,-52.447,-32.672,
49520160,-0.001,-0.376,0.951,-69.912,-49.437,-34.86,
49520170,0.011,-0.496,0.935,-64.662,-46.252,-34.632,
49520170,0.007,-0.539,0.967,-52.762,-44.555,-33.057,
49520190,0.223,-0.529,1.07,-38.657,-38.5,-30.292,
49520190,0.41,-0.594,1.108,-33.985,-3.57,-9.52,
49520210,0.011,-0.642,1.175,-19.197,25.445,1.61,
49520210,-0.119,-0.587,1.219,-1.33,28.21,-8.662,
49520230,-0.007,-0.546,1.167,3.465,14.84,-1.907,
49520230,0.238,-0.506,1.067,5.355,13.807,14.49,
49520250,0.391,-0.452,1.009,9.187,36.295,33.005,
49520250,0.395,-0.393,1.012,5.95,74.865,49.91,
49520260,0.343,-0.314,1.012,-8.82,119.455,64.925,
49520270,0.218,-0.25,0.997,-31.552,161.367,83.492,
49520280,0.042,-0.243,0.938,-55.65,193.882,103.407,
49520290,-0.101,-0.256,0.89,-79.24,214.357,121.152,
49520300,-0.207,-0.27,0.812,-99.137,222.18,137.55,
49520310,-0.32,-0.296,0.737,-112.087,219.31,154.105,
49520320,-0.368,-0.316,0.676,-116.497,209.737,170.275,
49520330,-0.508,-0.492,0.586,-95.812,193.165,187.792,
49520340,-0.434,-0.358,0.636,-81.077,184.1,183.067,
49520350,-0.425,-0.3,0.581,-87.885,179.445,181.825,
49520360,-0.468,-0.296,0.536,-89.285,179.13,178.377,
49520370,-0.473,-0.291,0.474,-86.082,183.872,173.722,
49520380,-0.544,-0.3,0.426,-79.205,187.95,170.922,
49520390,-0.59,-0.241,0.389,-70.577,191.117,162.767,
49520400,-0.9,-0.413,0.401,-44.362,181.737,172.865,
49520410,-0.846,-0.266,0.47,-26.512,165.882,153.335,
49520420,-0.92,-0.188,0.504,-29.26,146.86,132.195,
49520430,-1.046,-0.217,0.502,-35.017,122.01,123.165,
49520440,-1.014,-0.249,0.494,-39.305,97.422,102.515,
49520450,-1.059,-0.289,0.515,-32.917,71.907,85.05,
49520460,-1.024,-0.237,0.552,-21.647,44.625,64.102,
49520470,-0.964,-0.206,0.551,-12.057,21.577,52.605,
49520480,-0.892,-0.205,0.566,-0.84,5.32,46.077,
49520490,-0.841,-0.167,0.585,10.57,-1.435,39.777,
49520500,-0.848,-0.103,0.621,16.31,-1.067,36.155,
49520510,-0.847,-0.083,0.631,13.685,1.365,30.537,
49520520,-0.866,-0.091,0.641,11.672,4.375,25.585,
49520530,-0.887,-0.097,0.621,9.362,3.885,21.28,
49520540,-0.909,-0.07,0.602,10.727,-1.12,17.78,
49520550,-0.889,-0.071,0.603,11.637,-8.855,14.525,
49520560,-0.85,-0.064,0.611,12.722,-15.47,11.165,
49520570,-0.834,-0.063,0.592,15.47,-21.857,7.84,
49520580,-0.837,-0.048,0.618,20.93,-26.985,3.727,
49520580,-0.816,-0.057,0.615,20.755,-33.477,1.417,
49520600,-0.755,-0.046,0.613,25.112,-36.435,-3.097,
49520600,-0.686,-0.007,0.638,25.83,-35.98,-5.022,
49520620,-0.715,0.002,0.66,22.732,-34.65,-1.435,
49520620,-0.714,0.032,0.655,18.27,-34.58,-2.362,
49520640,-0.781,-0.048,0.657,14.612,-37.677,-4.602,
49520640,-0.897,-0.17,0.689,15.102,-51.502,-7.7,
49520660,-0.779,-0.121,0.623,32.952,-66.062,-17.57,
49520660,-0.617,-0.008,0.694,41.685,-70.315,-22.155,
49520670,-0.644,0.027,0.729,28.822,-67.707,-19.6,
49520680,-0.672,-0.013,0.728,16.24,-63.122,-19.565,
49520690,-0.644,-0.034,0.72,6.422,-58.572,-18.795,
49520700,-0.588,-0.037,0.693,-1.575,-53.252,-15.697,
49520710,-0.635,-0.108,0.689,-3.972,-44.135,-6.527,
49520720,-0.698,-0.166,0.677,-0.997,-38.062,-0.157,
49520730,-0.74,-0.202,0.71,5.46,-35.105,4.322,
49520740,-0.772,-0.183,0.734,13.177,-37.782,2.152,
49520750,-0.769,-0.168,0.711,18.637,-45.272,0.262,
49520760,-0.767,-0.149,0.705,20.86,-52.955,-2.66,
49520770,-0.753,-0.151,0.681,20.3,-59.465,-5.652,
49520780,-0.637,-0.119,0.683,20.93,-61.285,-4.462,
49520790,-0.574,-0.09,0.705,16.59,-54.372,0.332,
49520800,-0.619,-0.103,0.71,11.812,-44.642,7.997,
49520810,-0.626,-0.129,0.729,9.31,-36.435,15.785,
49520820,-0.631,-0.147,0.736,9.397,-31.622,22.4,
49520830,-0.655,-0.154,0.742,11.112,-28.682,25.637,
49520840,-0.685,-0.153,0.75,14.332,-29.487,25.112,
49520850,-0.687,-0.139,0.759,16.94,-34.545,20.282,
49520860,-0.665,-0.118,0.763,19.652,-41.772,17.167,
49520870,-0.647,-0.098,0.75,22.33,-48.195,18.165,
49520880,-0.566,-0.075,0.764,24.482,-50.47,22.12,
49520890,-0.505,-0.068,0.752,24.027,-46.41,25.76,
49520900,-0.523,-0.066,0.758,21.525,-37.572,26.477,
49520910,-0.551,-0.087,0.766,19.74,-30.59,26.775,
49520920,-0.576,-0.104,0.787,23.555,-25.637,27.912,
49520920,-0.639,-0.09,0.815,31.447,-26.6,28.192,
49520940,-0.7,-0.07,0.851,38.867,-34.772,26.127,
49520940,-0.672,-0.051,0.859,43.557,-47.53,22.68,
49520960,-0.595,-0.039,0.846,45.482,-55.212,21.157,
49520960,-0.564,-0.025,0.835,45.08,-56.472,21.367,
49520980,-0.576,-0.022,0.826,42.227,-54.897,22.715,
49520980,-0.595,-0.042,0.798,42.315,-56,25.375,
49521000,-0.569,-0.028,0.784,46.305,-57.627,30.922,
49521000,-0.544,0.003,0.811,51.397,-56.297,37.817,
49521010,-0.503,0.026,0.849,51.52,-46.847,40.25,
49521020,-0.509,0.063,0.85,49.577,-36.295,37.537,
49521030,-0.491,0.089,0.881,45.64,-26.932,35.192,
49521040,-0.529,0.113,0.889,41.02,-19.967,33.775,
49521050,-0.517,0.117,0.893,37.642,-14.98,31.902,
49521060,-0.571,0.112,0.911,34.912,-13.562,27.895,
49521070,-0.649,0.093,0.926,32.847,-22.05,21.35,
49521080,-0.596,0.1,0.947,37.1,-37.747,13.982,
49521090,-0.516,0.13,0.958,43.75,-50.085,11.042,
49521100,-0.446,0.153,0.958,48.842,-53.69,10.885,
49521110,-0.383,0.171,0.965,51.397,-44.275,10.657,
49521120,-0.394,0.158,0.976,51.765,-28.087,9.432,
49521130,-0.436,0.147,0.973,52.762,-11.13,5.67,
49521140,-0.47,0.151,0.967,54.407,1.557,0.875,
49521150,-0.501,0.15,0.961,55.037,9.87,-4.042,
49521160,-0.538,0.132,0.933,54.862,13.125,-10.097,
49521170,-0.583,0.126,0.926,54.81,10.85,-17.237,
49521180,-0.506,0.185,0.904,50.837,6.615,-23.222,
49521190,-0.545,0.22,0.948,37.677,6.23,-28.91,
49521200,-0.589,0.156,0.887,18.847,-1.89,-42.227,
49521210,-0.51,0.195,0.866,8.085,-11.235,-52.395,
49521220,-0.463,0.243,0.881,-7.56,-21.962,-56.507,
49521230,-0.412,0.253,0.859,-31.955,-26.897,-59.99,
49521240,-0.394,0.24,0.806,-55.597,-28.507,-65.467,
49521250,-0.368,0.217,0.766,-72.957,-30.782,-72.957,
49521260,-0.351,0.161,0.712,-88.357,-34.107,-75.355,
49521270,-0.336,0.068,0.648,-96.162,-39.27,-68.197,
49521280,-0.337,-0.004,0.618,-89.687,-45.5,-53.637,
49521290,-0.32,0,0.603,-75.67,-48.037,-37.345,
49521300,-0.302,0.023,0.589,-66.15,-44.8,-22.977,
49521310,-0.307,0.014,0.576,-60.812,-35.875,-16.397,
49521320,-0.31,-0.011,0.583,-56.122,-22.662,-18.252,
49521330,-0.366,-0.027,0.599,-52.587,-9.59,-23.8,
49521330,-0.437,-0.043,0.698,-48.492,-2.817,-31.412,
49521350,-0.522,-0.054,0.754,-41.58,-4.095,-33.355,
49521350,-0.517,-0.061,0.773,-28.437,-11.322,-31.132,
49521370,-0.469,-0.049,0.817,-14.402,-17.062,-23.835,
49521370,-0.468,-0.022,0.858,-10.92,-17.062,-15.365,
49521390,-0.455,-0.001,0.869,-13.195,-13.475,-13.597,
49521390,-0.43,0,0.903,-15.015,-5.932,-11.287,
49521410,-0.425,-0.089,0.933,-16.537,1.067,-5.25,
49521410,-0.383,-0.151,0.926,-8.522,11.445,1.837,
49521420,-0.421,-0.058,0.998,4.9,22.067,8.137,
49521430,-0.423,-0.02,1.04,4.882,37.257,14.682,
49521440,-0.454,-0.082,1.004,1.435,58.012,18.9,
49521450,-0.67,-0.021,1.022,6.352,70.035,17.972,
49521460,-0.798,-0.002,1.022,3.692,60.515,16.782,
49521470,-0.772,-0.034,0.959,-1.942,41.632,18.62,
49521480,-0.719,-0.046,0.913,-1.767,19.845,20.982,
49521490,-0.649,-0.023,0.886,1.207,5.302,23.257,
49521500,-0.678,-0.019,0.878,3.71,-10.045,25.48,
49521510,-0.536,-0.039,0.877,5.145,-14.7,27.44,
49521520,-0.611,-0.049,0.92,8.995,-18.97,32.007,
49521530,-0.639,-0.022,0.938,13.702,-24.307,28.175,
49521540,-0.585,-0.003,0.967,15.75,-36.522,22.837,
49521550,-0.497,0.011,0.934,16.187,-43.767,21.437,
49521560,-0.491,0.057,0.943,19.057,-47.057,18.165,
49521570,-0.482,0.081,0.959,15.172,-50.312,12.127,
49521580,-0.449,0.051,0.92,7.945,-53.2,6.912,
49521590,-0.428,0.049,0.925,6.492,-55.125,2.275,
49521600,-0.415,0.055,0.918,5.477,-57.697,-0.822,
49521610,-0.388,0.036,0.898,5.285,-59.972,-2.397,
49521620,-0.377,0.021,0.894,8.785,-61.022,-0.787,
49521630,-0.37,0.043,0.887,9.8,-60.742,1.382,
49521640,-0.349,0.073,0.884,7.262,-58.817,-0.017,
49521650,-0.297,0.066,0.868,-0.105,-52.447,-1.295,
49521660,-0.223,0.058,0.872,-7.472,-38.57,-1.662,
49521670,-0.207,0.035,0.882,-14.332,-19.425,-0.665,
49521670,-0.255,0.033,0.886,-21.017,-0.175,-0.577,
49521690,-0.326,0.005,0.897,-26.495,11.567,-1.505,
49521690,-0.365,-0.052,0.886,-30.065,16.852,-3.08,
49521710,-0.383,-0.116,0.865,-26.915,15.82,-3.902,
49521710,-0.429,-0.133,0.875,-13.93,8.855,-2.362,
49521730,-0.439,-0.121,0.87,0.752,-0.752,0.455,
49521730,-0.376,-0.129,0.867,15.47,-8.155,2.87,
49521750,-0.322,-0.118,0.897,29.767,-7.227,5.827,
49521750,-0.343,-0.083,0.936,42.07,1.4,9.152,
49521760,-0.36,-0.005,0.978,48.51,11.812,7.787,
49521770,-0.412,0.032,0.986,46.795,19.932,4.182,
49521780,-0.41,0.071,0.925,42.017,25.672,-0.717,
49521790,-0.447,0.068,0.969,33.145,29.417,-1.75,
49521800,-0.464,0.033,0.931,23.677,31.64,-1.137,
49521810,-0.53,0.113,0.998,20.615,30.87,-6.02,
49521820,-0.514,0.196,0.97,6.667,23.292,-8.032,
49521830,-0.463,0.113,0.962,-10.797,19.827,-6.107,
49521840,-0.448,0.077,0.929,-20.055,17.412,-8.75,
49521850,-0.432,0.053,0.904,-25.672,13.51,-8.522,
49521860,-0.376,0.05,0.859,-28.752,15.277,-6.282,
49521870,-0.412,0.043,0.868,-30.117,16.905,-11.97,
49521880,-0.468,0.016,0.854,-34.072,10.692,-24.272,
49521890,-0.436,-0.004,0.821,-35.997,2.362,-34.877,
49521900,-0.387,-0.016,0.785,-31.115,-6.632,-41.265,
49521910,-0.377,-0.045,0.78,-24.972,-14.472,-41.632,
49521920,-0.338,-0.125,0.792,-19.215,-18.2,-35.157,
49521930,-0.304,-0.127,0.796,-6.37,-14.017,-24.692,
49521940,-0.379,-0.055,0.858,5.425,-9.835,-12.39,
49521950,-0.405,-0.011,0.885,4.707,-4.515,-3.605,
49521960,-0.423,-0.044,0.889,-2.8,2.117,-2.135,
49521970,-0.446,-0.063,0.893,-9.012,5.687,-4.672,
49521980,-0.464,-0.064,0.898,-12.705,6.282,-4.2,
49521990,-0.47,-0.085,0.896,-14.017,7.752,-2.765,
49522000,-0.485,-0.106,0.9,-13.212,8.855,-1.732,
49522010,-0.517,-0.102,0.898,-10.045,7.91,-0.56,
49522020,-0.533,-0.078,0.895,-4.707,3.815,1.785,
49522030,-0.517,-0.052,0.901,-0.332,-2.362,4.462,
49522040,-0.488,-0.048,0.897,2.677,-6.965,4.9,
49522050,-0.45,-0.047,0.891,6.86,-9.66,3.937,
49522060,-0.417,-0.052,0.893,12.722,-8.855,4.637,
49522070,-0.443,-0.023,0.91,20.002,-6.545,4.672,
49522080,-0.479,0.05,0.926,23.625,-7.507,1.47,
49522080,-0.458,0.096,0.907,20.86,-11.532,-2.572,
49522090,-0.378,0.085,0.911,14.402,-13.247,-5.897,
49522100,-0.335,0.079,0.892,7.175,-9.117,-8.312,
49522110,-0.344,0.092,0.904,-0.42,-0.892,-10.71,
49522120,-0.353,0.059,0.896,-8.925,7.472,-12.232,
49522130,-0.382,0.017,0.893,-13.02,14.49,-11.532,
49522140,-0.413,-0.011,0.892,-13.667,18.847,-9.73,
49522150,-0.445,-0.02,0.899,-12.862,21.752,-9.817,
49522160,-0.454,-0.022,0.902,-12.162,21.437,-11.917,
49522170,-0.447,-0.021,0.884,-11.655,20.877,-14.087,
49522180,-0.468,-0.01,0.884,-12.04,19.39,-15.837,
49522190,-0.488,-0.009,0.871,-15.872,17.342,-17.325,
49522200,-0.48,-0.023,0.856,-20.527,14.385,-19.302,
49522210,-0.484,-0.053,0.841,-24.272,12.372,-20.037,
49522220,-0.503,-0.096,0.828,-23.082,9.012,-19.757,
49522230,-0.512,-0.114,0.838,-16.502,2.94,-16.642,
49522240,-0.503,-0.158,0.867,-9.397,-5.705,-10.342,
49522250,-0.521,-0.147,0.886,-0.612,-13.562,-5.162,
49522260,-0.531,-0.093,0.921,4.147,-22.347,-2.17,
49522270,-0.523,-0.072,0.877,3.377,-29.312,-1.155,
49522280,-0.517,-0.067,0.87,1.47,-36.015,-2.747,
49522290,-0.464,-0.091,0.847,-1.417,-39.48,-3.587,
49522300,-0.38,-0.09,0.839,0.577,-34.965,-4.637,
49522310,-0.395,-0.054,0.856,0.927,-25.865,-3.325,
49522320,-0.431,-0.035,0.857,-2.677,-16.695,-1.505,
49522330,-0.451,-0.046,0.841,-4.917,-9.117,0.385,
49522340,-0.47,-0.057,0.835,-4.322,-5.355,3.955,
49522350,-0.485,-0.045,0.845,-2.17,-5.057,6.93,
49522360,-0.465,-0.032,0.869,0.105,-5.967,7.647,
49522370,-0.437,-0.023,0.884,2.222,-6.247,7.7,
49522380,-0.451,-0.001,0.909,2.66,-6.632,6.632,
49522390,-0.432,0.012,0.922,0.63,-6.16,3.832,
49522400,-0.392,0.007,0.934,-1.925,-3.08,1.19,
49522410,-0.402,-0.037,0.951,-4.462,0.122,-0.21,
49522420,-0.361,-0.093,0.98,-2.502,5.652,-1.785,
49522420,-0.43,-0.061,0.959,5.967,10.447,-1.505,
49522440,-0.536,-0.009,0.991,8.732,3.465,-1.645,
49522440,-0.459,-0.055,0.958,8.837,-6.23,-4.252,
49522460,-0.391,-0.074,0.963,13.667,-10.71,-6.282,
49522460,-0.379,-0.041,0.964,16.327,-11.305,-6.947,
49522480,-0.361,-0.024,0.96,16.1,-8.662,-7.192,
49522480,-0.363,-0.027,0.952,15.365,-5.215,-4.76,
49522500,-0.363,-0.008,0.928,12.565,-1.767,-1.697,
49522500,-0.367,0.013,0.902,7.507,1.61,0.087,
49522510,-0.381,-0.018,0.873,0.472,6.387,1.68,
49522520,-0.401,-0.043,0.834,-3.307,10.675,1.015,
49522530,-0.42,-0.04,0.821,-3.395,14.017,-0.595,
49522540,-0.458,-0.017,0.819,-3.517,14.717,-1.277,
49522550,-0.482,-0.012,0.812,-6.632,12.477,-2.502,
49522560,-0.471,-0.022,0.797,-9.782,9.152,-4.567,
49522570,-0.452,-0.023,0.81,-12.512,6.72,-5.337,
49522580,-0.429,-0.047,0.82,-16.975,6.457,-4.34,
49522590,-0.469,0.003,0.762,-22.137,9.327,-3.867,
49522600,-0.575,0.117,0.809,-31.885,2.065,-4.76,
49522610,-0.45,-0.047,0.812,-54.092,-2.835,-2.45,
49522620,-0.377,-0.14,0.801,-58.887,2.607,-1.155,
49522630,-0.451,-0.137,0.869,-53.182,7.105,-0.962,
49522640,-0.489,-0.121,0.924,-52.535,10.622,-3.185,
49522650,-0.666,-0.131,0.899,-48.265,7.927,-9.852,
49522660,-0.682,-0.177,0.936,-42.192,-23.485,-21.857,
49522670,-0.361,-0.246,0.902,-32.97,-39.935,-23.1,
49522680,-0.224,-0.212,0.933,-13.405,-34.317,-17.535,
49522690,-0.367,0.033,0.931,-5.845,-26.267,-17.115,
49522700,-0.347,0.121,0.95,-25.112,-17.675,-24.272,
49522710,-0.331,-0.082,0.855,-41.737,-9.94,-29.89,
49522720,-0.39,-0.199,0.829,-39.76,-8.837,-27.387,
49522730,-0.398,-0.172,0.84,-25.9,-9.572,-20.492,
49522740,-0.455,-0.114,0.884,-13.947,-15.067,-16.782,
49522750,-0.503,-0.161,0.854,-7.332,-23.152,-16.975,
49522760,-0.51,-0.22,0.884,11.515,-35.822,-14.752,
49522760,-0.161,-0.246,0.829,17.045,-36.802,-24.027,
49522780,-0.064,-0.242,0.885,26.845,-2.362,-12.792,
49522780,-0.455,-0.21,0.953,38.132,28.91,6.492,
49522800,-0.597,-0.123,0.972,42.455,35.997,4.2,
49522800,-0.697,-0.217,1.074,36.732,14.017,5.617,
49522820,-0.497,-0.16,0.981,32.9,-3.377,-4.042,
49522820,-0.366,-0.102,0.948,38.29,-7.612,-6.177,
49522830,-0.393,-0.178,0.894,40.95,-2.992,6.755,
49522840,-0.419,-0.156,0.854,48.895,5.092,10.622,
49522850,-0.449,-0.087,0.844,52.132,6.3,9.065,
49522860,-0.399,-0.059,0.823,50.312,3.885,7.297,
49522870,-0.285,-0.041,0.832,49.962,5.862,6.125,
49522880,-0.219,-0.028,0.854,49.367,14.262,4.55,
49522890,-0.169,0.004,0.868,46.637,30.275,-1.662,
49522900,-0.178,0.036,0.892,41.09,50.452,-8.207,
49522910,-0.254,0.036,0.902,31.132,68.302,-10.902,
49522920,-0.336,0.005,0.894,22.102,80.727,-11.06,
49522930,-0.437,-0.019,0.885,17.832,87.395,-9.537,
49522940,-0.514,-0.021,0.883,15.715,85.312,-7.192,
49522950,-0.548,-0.019,0.868,15.452,80.815,-5.95,
49522960,-0.565,-0.016,0.863,12.775,75.705,-6.387,
49522970,-0.558,-0.004,0.845,8.155,73.237,-10.325,
49522980,-0.578,-0.015,0.841,5.495,71.89,-14.017,
49522990,-0.629,-0.002,0.832,0.945,68.477,-13.282,
49523000,-0.722,-0.021,0.818,1.557,57.067,-2.485,
49523010,-0.708,-0.035,0.811,3.045,39.917,10.517,
49523020,-0.636,-0.077,0.757,-2.59,26.792,7.245,
49523030,-0.626,-0.14,0.709,3.132,20.965,8.435,
49523040,-0.662,-0.095,0.706,14.63,16.502,8.61,
49523050,-0.72,-0.043,0.714,19.477,8.697,10.237,
49523060,-0.68,-0.034,0.713,18.567,1.645,11.83,
49523070,-0.637,-0.024,0.719,17.885,-1.452,11.795,
49523080,-0.619,-0.036,0.724,15.487,-0.385,12.95,
49523090,-0.593,-0.065,0.715,15.172,3.71,11.742,
49523100,-0.631,-0.059,0.729,18.2,4.27,12.6,
49523110,-0.755,-0.044,0.74,18.392,-1.225,14.875,
49523120,-0.662,-0.021,0.766,19.53,-18.06,10.727,
49523130,-0.468,-0.026,0.815,19.915,-16.765,15.522,
49523140,-0.506,-0.026,0.886,22.172,-7.84,20.562,
49523150,-0.617,-0.059,0.946,27.807,-2.012,24.36,
49523160,-0.584,-0.075,0.994,37.59,-4.27,24.57,
49523170,-0.475,0.021,0.9,49.752,-4.462,21.857,
49523170,-0.402,0.233,0.91,53.007,2.957,20.562,
49523190,-0.41,0.228,0.858,39.13,16.957,22.995,
49523190,-0.408,0.11,0.815,27.72,37.59,18.025,
49523210,-0.493,0.11,0.832,26.145,52.587,9.992,
49523210,-0.577,0.144,0.853,23.345,58.345,4.83,
49523230,-0.651,0.127,0.856,20.352,55.492,3.99,
49523230,-0.673,0.091,0.838,20.02,44.485,3.622,
49523250,-0.631,0.11,0.836,22.19,33.652,3.272,
49523250,-0.611,0.14,0.854,20.912,27.842,2.747,
49523260,-0.607,0.146,0.86,15.872,24.745,0.612,
49523270,-0.596,0.107,0.828,10.447,24.43,-3.132,
49523280,-0.612,0.079,0.801,8.82,22.785,-6.352,
49523290,-0.636,0.063,0.762,9.327,18.182,-7.385,
49523300,-0.609,0.011,0.716,12.845,14.035,-6.79,
49523310,-0.611,0,0.669,19.442,12.687,-3.08,
49523320,-0.642,-0.023,0.646,24.71,14.717,0.682,
49523330,-0.649,-0.07,0.602,30.257,20.247,2.607,
49523340,-0.784,-0.136,0.57,40.32,14.157,4.462,
49523350,-0.773,-0.087,0.596,54.162,-3.727,11.112,
49523360,-0.786,0.031,0.633,56.052,-23.152,19.617,
49523370,-0.751,0.096,0.7,50.242,-35.665,23.975,
49523380,-0.7,0.186,0.813,41.737,-35.472,24.85,
49523390,-0.73,0.145,0.87,31.29,-28.07,18.602,
49523400,-0.729,0.114,0.908,35.28,-25.165,14.262,
49523410,-0.747,0.272,0.893,40.565,-29.102,11.077,
49523420,-0.649,0.288,0.797,31.972,-30.782,4.637,
49523430,-0.596,0.237,0.761,26.407,-26.512,-0.052,
49523440,-0.587,0.242,0.797,24.937,-26.88,0.035,
49523450,-0.561,0.221,0.803,20.282,-28.647,4.077,
49523460,-0.555,0.181,0.792,17.167,-33.46,7.35,
49523470,-0.501,0.193,0.796,17.377,-36.295,8.032,
49523480,-0.488,0.21,0.815,16.327,-37.17,9.467,
49523490,-0.458,0.265,0.841,12.88,-25.322,10.832,
49523500,-0.649,0.309,0.864,1.645,-14.455,8.995,
49523510,-0.655,0.258,0.842,-11.637,-13.352,5.6,
49523510,-0.753,0.16,0.865,-18.637,-23.047,1.295,
49523530,-0.643,0.207,0.911,-15.925,-40.46,0.665,
49523530,-0.438,0.244,0.991,-10.885,-45.08,3.762,
49523550,-0.364,0.353,1.04,-19.67,-31.867,-1.032,
49523550,-0.509,0.371,1.005,-43.242,-14.682,-5.617,
49523570,-0.505,0.26,0.923,-63.857,-3.622,-13.107,
49523570,-0.447,0.178,0.859,-71.54,5.425,-21.875,
49523580,-0.503,0.18,0.851,-71.33,10.167,-24.885,
49523590,-0.599,0.238,0.889,-78.732,8.767,-26.022,
49523600,-0.83,0.265,0.769,-98,-14.227,-24.027,
49523610,-0.356,0.019,0.601,-118.212,-30.117,-28.997,
49523620,-0.295,-0.07,0.743,-114.292,-4.287,-29.925,
49523630,-0.915,-0.189,0.736,-105.28,-13.492,-7.787,
49523640,-0.865,-0.048,0.812,-91.927,-36.837,-17.5,
49523650,-0.684,-0.02,0.816,-85.575,-66.027,-18.06,
49523660,-0.607,-0.062,0.728,-90.877,-82.512,-8.785,
49523670,-0.56,-0.075,0.712,-84.035,-87.692,-8.505,
49523680,-0.503,-0.075,0.71,-79.59,-87.552,-7.157,
49523690,-0.465,-0.087,0.702,-76.79,-83.177,-5.04,
49523700,-0.422,-0.075,0.728,-66.202,-75.687,-6.755,
49523710,-0.402,-0.044,0.782,-56.192,-65.117,-5.757,
49523720,-0.411,-0.042,0.787,-47.145,-57.26,1.312,
49523730,-0.189,-0.055,0.746,-37.467,-36.295,5.425,
49523740,-0.378,-0.034,0.82,-29.365,-4.147,15.015,
49523750,-0.705,-0.013,0.901,-28.63,7.07,16.485,
49523760,-0.706,-0.019,0.939,-32.34,-0.367,9.432,
49523770,-0.541,-0.129,0.923,-36.452,-11.357,2.432,
49523780,-0.441,-0.139,0.952,-28.42,-10.902,-4.287,
49523790,-0.513,-0.035,0.996,-24.15,-9.012,-6.527,
49523800,-0.502,-0.034,0.967,-31.395,-12.705,-8.872,
49523810,-0.371,-0.104,0.907,-33.915,-15.05,-11.375,
49523820,-0.305,-0.116,0.862,-30.415,-13.37,-10.692,
49523830,-0.294,-0.079,0.843,-26.67,-8.33,-7.07,
49523840,-0.315,-0.081,0.818,-24.22,-3.237,-2.572,
49523850,-0.338,-0.126,0.806,-20.947,1.33,0.875,
49523860,-0.382,-0.134,0.822,-16.38,4.655,4.357,
49523870,-0.423,-0.104,0.843,-14.525,5.6,6.685,
49523880,-0.464,-0.101,0.838,-17.185,3.867,9.73,
49523890,-0.444,-0.179,0.847,-18.55,2.887,13.597,
49523900,-0.458,-0.216,0.866,-14.49,4.917,15.68,
49523910,-0.507,-0.182,0.885,-9.607,5.792,15.54,
49523920,-0.526,-0.145,0.906,-8.96,6.02,14.385,
49523920,-0.549,-0.159,0.903,-11.445,3.815,12.985,
49523940,-0.553,-0.184,0.903,-11.322,-0.175,10.377,
49523940,-0.509,-0.177,0.869,-8.662,-4.987,7.682,
49523960,-0.469,-0.161,0.843,-6.842,-7.717,7.017,
49523960,-0.435,-0.148,0.834,-4.392,-8.26,7.315,
49523980,-0.421,-0.142,0.824,-2.012,-7.752,8.645,
49523980,-0.449,-0.109,0.822,0.455,-7.927,10.622,
49524000,-0.444,-0.083,0.845,-0.752,-13.055,12.197,
49524000,-0.294,-0.139,0.862,-0.91,-5.827,16.187,
49524010,-0.457,-0.114,0.892,0,3.815,15.925,
49524020,-0.505,-0.074,0.937,-1.732,4.655,14.472,
49524030,-0.487,-0.103,0.919,-5.04,3.202,14.262,
49524040,-0.485,-0.123,0.884,-4.742,0.245,11.76,
49524050,-0.477,-0.106,0.865,-3.097,0,10.22,
49524060,-0.457,-0.092,0.84,0.437,1.487,6.3,
49524070,-0.47,-0.089,0.862,4.462,4.042,5.075,
49524080,-0.478,-0.084,0.888,3.692,3.955,6.807,
49524090,-0.471,-0.083,0.905,1.05,3.115,6.93,
49524100,-0.469,-0.092,0.903,-1.137,3.01,6.58,
49524110,-0.469,-0.101,0.884,-2.485,3.657,6.93,
49524120,-0.454,-0.088,0.873,-3.115,4.69,7.017,
49524130,-0.488,-0.102,0.881,-4.165,5.32,8.015,
49524140,-0.479,-0.127,0.867,-3.622,4.69,7.227,
49524150,-0.495,-0.145,0.881,-0.805,4.2,6.212,
49524160,-0.492,-0.146,0.879,2.485,2.747,4.795,
49524170,-0.486,-0.143,0.892,6.335,0.735,3.36,
49524180,-0.512,-0.149,0.883,9.117,-2.52,2.52,
49524190,-0.481,-0.133,0.864,12.67,-4.515,0.07,
49524200,-0.45,-0.104,0.859,14.07,-4.287,0.052,
49524210,-0.469,-0.106,0.859,12.162,-2.975,2.852,
49524220,-0.483,-0.124,0.858,11.76,-1.872,3.43,
49524230,-0.472,-0.117,0.881,13.702,-0.77,2.94,
49524240,-0.503,-0.114,0.918,13.755,-0.192,5.512,
49524250,-0.488,-0.176,0.951,14.035,-0.087,5.705,
49524260,-0.301,-0.372,1.053,22.82,8.557,4.025,
49524260,-0.344,-0.135,1.011,41.37,23.712,1.715,
49524280,-0.353,0.196,1.046,36.942,38.185,-3.447,
49524280,-0.315,0.178,0.891,7.472,62.912,8.575,
49524300,-0.4,-0.051,0.766,-6.195,86.485,14.227,
49524300,-0.601,-0.152,0.705,-3.255,94.465,19.372,
49524320,-0.75,-0.081,0.678,4.287,85.382,24.797,
49524320,-0.799,0,0.658,13.177,64.47,17.71,
49524330,-0.798,0.024,0.609,17.29,40.197,9.275,
49524340,-0.698,0.017,0.552,17.815,24.36,7.122,
49524350,-0.726,0.022,0.549,20.002,16.922,12.827,
49524360,-0.917,-0.029,0.606,19.477,-2.887,18.025,
49524370,-0.92,-0.027,0.659,19.197,-29.295,12.757,
49524380,-0.812,0.02,0.75,21.297,-59.5,4.427,
49524390,-0.749,-0.005,0.861,16.905,-87.465,3.657,
49524400,-0.591,-0.063,0.884,17.377,-107.17,7.525,
49524410,-0.532,-0.062,0.919,27.527,-117.285,14.035,
49524420,-0.529,-0.04,0.888,29.925,-130.077,16.467,
49524430,-0.368,0.008,0.873,31.272,-136.867,6.44,
49524440,-0.292,-0.002,0.808,27.72,-138.617,0.105,
49524450,-0.239,0.092,0.837,21.07,-137.462,-4.62,
49524460,0.04,0.001,0.88,-4.777,-117.897,5.792,
49524470,0.159,-0.236,0.922,-18.62,-63.175,12.057,
49524480,-0.078,-0.289,1.027,-6.405,-15.487,3.675,
49524490,-0.479,-0.196,1.106,11.707,3.675,5.127,
49524500,-0.608,0.056,1.179,18.655,-6.527,3.867,
49524510,-0.493,0.099,1.132,-0.227,-26.705,5.495,
49524520,-0.454,-0.005,1.029,-15.715,-37.257,6.737,
49524530,-0.449,-0.023,0.93,-18.62,-41.895,-1.085,
49524540,-0.355,0.031,0.899,-16.257,-41.142,-8.68,
49524550,-0.295,0.071,0.882,-14.367,-35.525,-13.212,
49524560,-0.348,0.073,0.886,-15.61,-31.482,-13.527,
49524570,-0.434,0.051,0.938,-21.14,-34.387,-8.417,
49524580,-0.468,0.012,0.96,-23.187,-43.417,-0.84,
49524590,-0.383,0.015,0.969,-20.23,-52.202,0.612,
49524600,-0.31,0.067,0.996,-19.652,-57.12,-2.467,
49524610,-0.285,0.029,0.954,-28.945,-52.08,2.135,
49524620,-0.322,-0.014,0.942,-33.915,-47.74,-2.327,
49524630,-0.271,-0.03,0.941,-35.91,-43.855,-7.962,
49524640,-0.23,-0.013,0.933,-37.03,-39.62,-3.5,
49524650,-0.282,-0.02,0.933,-42.262,-36.155,3.447,
49524660,-0.268,-0.056,0.91,-48.3,-34.16,4.06,
49524670,-0.215,-0.11,0.854,-50.89,-30.292,2.677,
49524670,-0.235,-0.155,0.81,-47.407,-25.287,4.217,
49524690,-0.17,-0.07,0.853,-41.16,-19.477,1.417,
49524690,-0.117,0.011,0.817,-47.845,-10.78,-2.222,
49524710,0.005,0.098,0.807,-68.915,6.86,-7.77,
49524710,-0.202,-0.217,0.864,-83.562,9.1,0.052,
49524730,-0.361,-0.296,1.04,-41.877,-1.715,21.455,
49524730,-0.089,0.032,1.047,-42.472,-10.587,14.91,
49524750,-0.152,-0.069,0.987,-56.315,-2.8,23.187,
49524750,-0.36,-0.29,0.91,-61.81,5.705,20.947,
49524760,-0.372,-0.307,0.909,-54.652,5.95,14.49,
49524770,-0.365,-0.244,0.953,-48.072,2.065,14.997,
49524780,-0.396,-0.23,1.022,-44.45,3.185,13.492,
49524790,-0.566,-0.212,1.101,-40.407,-2.87,15.26,
49524800,-0.563,-0.175,1.089,-45.552,-17.867,6.265,
49524810,-0.371,-0.144,1.02,-48.807,-24.045,-5.81,
49524820,-0.347,-0.176,0.948,-52.027,-23.852,-0.297,
49524830,-0.277,-0.225,0.916,-50.557,-22.19,-2.52,
49524840,-0.168,-0.227,0.926,-44.012,-19.127,-5.407,
49524850,-0.141,-0.211,0.931,-38.43,-15.155,-0.402,
49524860,-0.142,-0.186,0.893,-36.82,-12.092,5.25,
49524870,-0.142,-0.191,0.889,-36.102,-7.35,8.347,
49524880,-0.164,-0.226,0.931,-35.98,-1.312,11.76,
49524890,-0.28,-0.238,0.935,-38.64,-2.152,13.317,
49524900,-0.034,-0.264,0.867,-35.682,0.665,18.497,
49524910,-0.102,-0.266,0.829,-31.027,12.302,14.805,
49524920,-0.325,-0.28,0.911,-24.605,19.897,15.347,
49524930,-0.333,-0.381,0.897,-21.857,17.727,14.42,
49524940,-0.235,-0.418,0.828,-13.51,13.09,9.03,
49524950,-0.306,-0.363,0.809,-5.74,12.95,12.04,
49524960,-0.409,-0.312,0.851,-0.805,12.705,13.317,
49524970,-0.437,-0.317,0.926,0.472,8.295,9.59,
49524980,-0.418,-0.332,0.979,-0.962,2.817,5.757,
49524990,-0.401,-0.297,0.991,-0.507,-2.327,0.105,
49525000,-0.366,-0.238,0.985,-1.61,-5.32,-6.09,
49525010,-0.353,-0.219,0.95,-5.88,-8.102,-10.325,
49525010,-0.339,-0.25,0.954,-8.75,-9.695,-11.865,
49525030,-0.33,-0.276,0.948,-9.835,-11.987,-13.282,
49525030,-0.341,-0.279,0.942,-9.905,-14.507,-14.577,
49525050,-0.342,-0.283,0.942,-9.45,-16.642,-15.61,
49525050,-0.338,-0.3,0.93,-8.137,-18.445,-15.592,
49525070,-0.312,-0.32,0.928,-4.13,-20.387,-14.42,
49525070,-0.271,-0.345,0.945,1.4,-20.947,-13.37,
49525080,-0.225,-0.363,0.955,7.542,-20.44,-13.3,
49525090,-0.172,-0.347,0.962,15.75,-18.375,-14.472,
49525100,-0.182,-0.358,0.948,27.37,-18.445,-12.967,
49525110,-0.138,-0.367,0.91,41.685,-20.247,-11.13,
49525120,-0.105,-0.34,0.869,61.425,-19.18,-6.93,
49525130,-0.139,-0.291,0.863,79.012,-13.597,-0.647,
49525140,-0.172,-0.243,0.799,90.58,-5.46,2.66,
49525150,-0.164,-0.194,0.773,95.357,6.387,1.627,
49525160,-0.193,-0.174,0.771,94.43,20.195,-0.14,
49525170,-0.263,-0.174,0.8,92.522,29.54,-2.397,
49525180,-0.332,-0.193,0.808,92.75,28.49,2.992,
49525190,-0.361,-0.159,0.846,97.247,20.51,10.727,
49525200,-0.286,-0.118,0.902,98.91,10.937,11.987,
49525210,-0.213,-0.053,0.979,89.582,8.435,10.43,
49525220,-0.225,0.039,0.993,68.092,9.992,6.545,
49525230,-0.268,0.036,0.997,40.967,11.655,3.657,
49525240,-0.312,-0.03,0.96,21.385,10.727,3.797,
49525250,-0.349,-0.083,0.948,13.615,8.33,5.25,
49525260,-0.378,-0.077,0.927,9.17,6.405,5.827,
49525270,-0.402,-0.101,0.929,6.002,5.022,5.915,
49525280,-0.556,0.091,0.947,2.415,-1.662,4.077,
49525290,-0.537,0.127,0.995,-17.902,-20.895,4.2,
49525300,-0.277,-0.016,0.953,-38.08,-29.995,6.492,
49525310,-0.112,-0.044,0.967,-39.392,-23.975,5.827,
49525320,-0.03,0.041,1.015,-40.705,-5.617,4.27,
49525330,-0.036,0.064,1.031,-51.135,18.742,1.4,
49525340,-0.12,-0.049,0.97,-58.292,38.377,-3.85,
49525350,-0.218,-0.186,0.891,-53.952,45.727,-7.49,
49525360,-0.268,-0.206,0.854,-40.932,45.185,-8.47,
49525370,-0.351,-0.209,0.841,-33.792,40.827,-4.777,
49525380,-0.399,-0.222,0.842,-28.77,34.335,-6.86,
49525390,-0.395,-0.221,0.812,-26.337,28.77,-9.485,
49525400,-0.547,-0.359,0.812,-8.785,20.125,0.542,
49525410,-0.525,-0.28,0.868,8.697,7.28,-0.437,
49525420,-0.469,-0.222,0.872,13.3,-3.587,-2.03,
49525420,-0.407,-0.209,0.83,19.827,-9.905,-2.345,
49525430,-0.347,-0.22,0.773,28.595,-12.25,-8.872,
49525440,-0.243,-0.159,0.813,39.252,-11.147,-11.935,
49525450,-0.219,-0.126,0.876,48.335,-5.635,-8.417,
49525460,-0.225,-0.091,1.014,52.22,-0.07,-4.725,
49525470,-0.336,-0.067,1.135,46.725,-2.975,2.205,
49525480,-0.344,-0.054,1.177,34.632,-8.295,2.747,
49525490,-0.366,-0.054,1.213,21.63,-13.965,2.817,
49525500,-0.332,-0.061,1.16,10.08,-20.772,0.665,
49525510,-0.316,-0.045,1.111,3.115,-24.22,-3.255,
49525520,-0.307,-0.059,1.037,-4.637,-25.655,-5.932,
49525530,-0.348,-0.103,0.984,-9.537,-23.082,-4.9,
49525540,-0.393,-0.144,0.916,-9.572,-24.412,-4.375,
49525550,-0.394,-0.165,0.863,-4.34,-27.212,-1.347,
49525560,-0.395,-0.182,0.823,6.352,-31.29,4.147,
49525570,-0.391,-0.18,0.808,19.302,-34.895,13.02,
49525580,-0.429,-0.18,0.807,32.532,-40.845,21.84,
49525590,-0.416,-0.179,0.836,44.992,-50.102,21.49,
49525600,-0.345,-0.162,0.855,54.687,-57.417,14.175,
49525610,-0.419,-0.083,0.848,65.782,-66.5,3.15,
49525620,-0.398,-0.017,0.943,67.655,-91.017,-9.292,
49525630,-0.114,-0.013,0.968,54.075,-107.082,-6.597,
49525640,0.016,-0.015,0.986,48.895,-103.88,-1.557,
49525650,0.128,-0.013,1.12,44.835,-90.65,-4.865,
49525660,0.181,-0.007,1.098,35.98,-62.422,-3.027,
49525670,0.005,0.018,1.126,34.895,-42.105,-2.117,
49525680,-0.031,0.021,1.14,31.08,-34.422,-4.48,
49525690,0.087,0,1.102,22.75,-28.35,-3.045,
49525700,0.144,-0.047,1.091,16.397,-13.055,-0.822,
49525710,0.138,-0.093,1.053,15.89,9.992,-2.747,
49525720,0.131,-0.11,1.045,24.71,35.385,-6.492,
49525730,0.04,-0.076,1.082,37.082,55.597,-5.39,
49525740,-0.081,-0.022,1.099,45.307,67.357,-3.412,
49525750,-0.141,0.015,1.096,48.912,70.122,-4.847,
49525760,-0.178,0.036,1.079,49.017,67.515,-7.192,
49525760,-0.198,0.044,1.051,48.352,61.792,-9.87,
49525780,-0.197,0.063,1.021,48.737,56.385,-12.967,
49525780,-0.175,0.082,0.979,50.575,52.22,-14.63,
49525800,-0.165,0.098,0.963,53.182,51.642,-14.402,
49525800,-0.139,0.127,0.935,51.607,54.757,-13.3,
49525820,-0.126,0.13,0.904,48.65,63.752,-11.305,
49525820,-0.14,0.127,0.893,47.442,75.285,-8.977,
49525830,-0.195,0.127,0.885,46.007,88.095,-7.77,
49525840,-0.227,0.128,0.868,46.392,100.59,-10.29,
49525850,-0.275,0.153,0.875,48.335,111.72,-14,
49525860,-0.355,0.176,0.884,47.862,118.265,-16.712,
49525870,-0.416,0.188,0.88,46.41,120.242,-21.175,
49525880,-0.449,0.195,0.872,44.135,118.457,-26.705,
49525890,-0.468,0.195,0.854,40.057,116.795,-31.92,
49525900,-0.462,0.185,0.83,35.157,117.18,-36.575,
49525910,-0.437,0.187,0.806,30.572,123.707,-39.585,
49525920,-0.442,0.19,0.791,26.302,134.102,-40.425,
49525930,-0.474,0.192,0.785,19.267,147.84,-40.075,
49525940,-0.521,0.195,0.767,9.345,162.435,-41.317,
49525950,-0.571,0.185,0.738,-2.152,174.772,-42.7,
49525960,-0.619,0.168,0.702,-12.495,183.662,-43.855,
49525970,-0.657,0.162,0.686,-21.822,189.892,-45.167,
49525980,-0.691,0.138,0.65,-32.567,191.992,-45.605,
49525990,-0.711,0.101,0.602,-41.09,190.942,-44.537,
49526000,-0.716,0.074,0.572,-46.655,189.822,-42.035,
49526010,-0.736,0.05,0.53,-52.167,188.667,-37.87,
49526020,-0.777,0.023,0.504,-57.925,187.6,-32.672,
49526030,-0.827,-0.011,0.48,-61.95,183.872,-26.845,
49526040,-0.862,-0.022,0.465,-62.545,178.272,-21.385,
49526050,-0.898,-0.024,0.452,-62.02,168.945,-16.345,
49526060,-0.917,-0.046,0.441,-61.88,157.5,-13.37,
49526070,-0.962,-0.08,0.438,-61.757,142.397,-11.235,
49526080,-0.971,-0.089,0.438,-58.87,124.862,-10.307,
49526090,-0.942,-0.089,0.431,-53.48,106.277,-9.047,
49526100,-0.91,-0.101,0.417,-48.212,92.662,-7.875,
49526100,-0.872,-0.1,0.423,-41.422,85.12,-8.12,
49526120,-0.876,-0.094,0.416,-33.547,81.077,-8.767,
49526120,-0.844,-0.102,0.443,-25.497,79.94,-8.19,
49526140,-0.775,-0.229,0.473,-13.615,86.24,-4.935,
49526140,-0.761,-0.173,0.502,10.57,96.11,-6.44,
49526160,-0.877,-0.035,0.543,18.077,102.655,-8.032,
49526160,-0.889,0.036,0.518,9.065,106.522,-10.08,
49526170,-0.884,0.026,0.528,-2.625,111.195,-12.635,
49526180,-0.958,-0.058,0.478,-9.817,109.777,-12.477,
49526190,-0.971,-0.07,0.457,-13.65,104.667,-13.667,
49526200,-1.018,-0.039,0.442,-15.417,93.327,-12.215,
49526210,-1.048,-0.008,0.437,-18.882,77.175,-10.062,
49526220,-1.105,-0.022,0.38,-20.562,55.107,-3.57,
49526230,-1.087,-0.071,0.327,-20.807,32.69,5.6,
49526240,-0.986,-0.128,0.277,-20.597,17.202,-0.77,
49526250,-0.946,-0.158,0.263,-15.085,10.99,-5.897,
49526260,-0.924,-0.157,0.264,-3.482,7.857,-10.29,
49526270,-0.801,-0.047,0.31,9.642,15.82,-11.62,
49526280,-0.854,0.05,0.36,10.605,28.105,-5.897,
49526290,-0.951,0.089,0.388,-0.507,37.345,-2.992,
49526300,-0.97,0.069,0.385,-14.507,42.822,-3.587,
49526310,-0.928,0.029,0.368,-26.057,46.095,-2.817,
49526320,-0.878,0.005,0.342,-37.677,51.782,-8.662,
49526330,-0.9,-0.063,0.3,-44.415,59.045,-7.402,
49526340,-0.94,-0.092,0.291,-40.81,62.807,2.87,
49526350,-0.939,-0.064,0.289,-34.107,61.985,12.442,
49526360,-0.907,-0.036,0.293,-28.035,61.547,16.17,
49526370,-0.941,-0.044,0.255,-25.147,61.407,17.22,
49526380,-0.951,-0.086,0.257,-21.35,63.91,16.712,
49526390,-1.044,-0.122,0.264,-14.245,60.62,23.765,
49526400,-1.09,-0.041,0.301,-8.855,49.735,19.162,
49526410,-1.097,-0.026,0.274,-11.725,35.175,13.58,
49526420,-0.994,-0.057,0.221,-14.315,24.605,8.505,
49526430,-0.935,-0.089,0.221,-14.735,22.837,8.137,
49526440,-1.034,-0.063,0.227,-16.432,19.565,12.547,
49526450,-1.094,0.019,0.258,-18.777,9.31,14.91,
49526460,-1.122,0.094,0.295,-30.625,-7.892,20.912,
49526470,-1.121,0.061,0.271,-53.655,-29.155,27.23,
49526480,-1.063,-0.103,0.202,-68.512,-45.097,28.647,
49526490,-0.958,-0.241,0.139,-58.187,-52.272,28.367,
49526500,-0.871,-0.241,0.111,-30.957,-47.145,30.135,
49526510,-0.898,-0.171,0.153,-5.81,-32.007,31.482,
49526510,-0.919,-0.113,0.169,5.495,-16.957,24.377,
49526530,-0.905,-0.016,0.187,9.24,-3.272,11.655,
49526530,-0.95,0.026,0.171,7.822,8.697,8.4,
49526550,-1.025,-0.008,0.159,3.045,13.475,10.972,
49526550,-1.06,0.006,0.169,2.1,9.327,5.74,
49526570,-1.061,0.002,0.171,6.09,-0.21,2.24,
49526570,-1.006,0.023,0.191,13.842,-6.09,-2.747,
49526580,-0.971,0.047,0.195,18.06,-10.955,-5.39,
49526590,-0.947,0.041,0.206,20.177,-9.572,-6.947,
49526600,-0.969,0.033,0.209,21.612,-6.685,-8.61,
49526610,-0.99,0.05,0.217,21.612,-5.687,-9.38,
49526620,-1.008,0.082,0.235,16.782,-7.297,-8.907,
49526630,-1.116,0.075,0.261,7.437,-13.195,-8.54,
49526640,-1.136,0.038,0.225,0.56,-27.842,-11.34,
49526650,-1.051,0.037,0.211,-4.987,-43.61,-12.687,
49526660,-1.015,0.009,0.196,-11.795,-56.612,-7.997,
49526670,-1.011,-0.009,0.186,-15.82,-65.94,-4.987,
49526680,-0.978,-0.032,0.175,-14.77,-74.62,-6.212,
49526690,-0.947,-0.061,0.166,-12.53,-83.527,-6.842,
49526700,-0.984,-0.052,0.161,-10.115,-95.41,-5.25,
49526710,-1.081,-0.035,0.139,-7.962,-113.242,-1.697,
49526720,-1.252,-0.083,0.106,-7.332,-146.09,2.292,
49526730,-1.266,-0.141,0.04,-6.265,-188.65,4.112,
49526740,-1.112,-0.131,0.021,0.98,-224.84,3.605,
49526750,-0.982,-0.071,0.084,7.507,-247.502,4.497,
49526760,-0.925,-0.048,0.136,8.4,-258.16,3.062,
49526770,-0.83,-0.017,0.233,14.682,-259.892,-2.152,
49526780,-0.796,-0.026,0.341,19.53,-257.32,-3.78,
49526790,-0.712,0.025,0.44,22.435,-250.197,-1.032,
49526800,-0.679,-0.035,0.646,23.047,-239.662,14.245,
49526810,-0.804,-0.136,0.712,34.125,-234.78,35.385,
49526820,-0.834,-0.106,0.77,59.272,-244.125,43.295,
49526830,-0.748,-0.078,0.82,79.537,-260.942,47.11,
49526830,-0.429,-0.028,0.939,90.965,-261.397,44.712,
49526850,-0.083,0.079,0.996,97.23,-226.922,40.88,
49526850,0.024,0.248,1.13,99.347,-168.42,31.377,
49526870,-0.066,0.388,1.14,78.277,-97.16,24.255,
49526870,-0.179,0.393,1.077,45.15,-26.11,16.415,
49526890,-0.278,0.304,0.975,15.172,32.252,3.237,
49526890,-0.397,0.201,0.868,-8.592,71.155,-4.182,
49526910,-0.533,0.132,0.769,-23.73,89.267,-3.85,
49526910,-0.673,0.099,0.714,-29.12,92.085,-0.332,
49526920,-0.813,0.07,0.703,-31.92,77.875,1.19,
49526930,-0.898,0.062,0.701,-36.312,52.902,1.33,
49526940,-0.984,0.033,0.712,-38.937,23.957,2.152,
49526950,-0.828,-0.091,0.714,-31.675,-8.19,-0.052,
49526960,-0.422,-0.069,0.645,-12.88,-2.047,-1.032,
49526970,-0.566,0.059,0.744,-2.765,17.132,1.557,
49526980,-0.74,0.113,0.743,-10.972,28.49,-2.24,
49526990,-0.778,0.047,0.736,-12.285,27.825,6.265,
49527000,-0.827,0.013,0.706,-12.635,14.997,10.36,
49527010,-0.754,0,0.715,-12.81,-1.942,6.055,
49527020,-0.754,0.001,0.684,-10.115,-14.91,4.305,
49527030,-0.657,0.022,0.66,-5.057,-25.655,1.68,
49527040,-0.622,0.003,0.687,0.927,-31.745,4.777,
49527050,-0.613,0.02,0.658,6.685,-27.212,6.282,
49527060,-0.772,0.073,0.671,13.492,-33.18,3.99,
49527070,-0.67,0.119,0.695,12.39,-50.68,-0.56,
49527080,-0.321,0.088,0.68,3.36,-38.815,6.265,
49527090,-0.367,0.053,0.749,3.167,-4.357,16.467,
49527100,-0.651,0.1,0.828,10.587,18.62,13.335,
49527110,-0.737,0.164,0.893,16.905,26.11,7.437,
49527120,-0.741,0.167,0.898,13.352,21.717,5.425,
49527130,-0.733,0.152,0.856,5.722,14.35,2.625,
49527140,-0.721,0.124,0.82,4.042,10.185,1.4,
49527150,-0.703,0.081,0.767,4.777,8.312,1.487,
49527160,-0.727,0.059,0.727,7.962,7.262,1.54,
49527170,-0.769,0.047,0.708,11.847,1.872,1.487,
49527180,-0.765,0.034,0.691,15.347,-8.382,3.045,
49527190,-0.673,0.094,0.704,19.442,-18.007,5.372,
49527200,-0.648,0.119,0.725,19.932,-14.735,11.41,
49527210,-0.779,0.109,0.75,8.907,-21.542,15.627,
49527220,-0.68,0.103,0.778,2.345,-27.422,15.417,
49527230,-0.605,0.085,0.789,-0.245,-30.152,15.82,
49527240,-0.593,0.125,0.816,-4.777,-27.3,12.635,
49527250,-0.62,0.107,0.81,-10.955,-23.922,12.582,
49527260,-0.629,0.06,0.791,-13.44,-21.962,12.32,
49527260,-0.629,0.032,0.777,-11.06,-25.585,12.32,
49527280,-0.618,0.041,0.76,-4.865,-30.502,15.522,
49527280,-0.632,0.101,0.783,0.385,-37.415,21.245,
49527300,-0.687,0.112,0.787,-1.505,-46.882,28.98,
49527300,-0.698,0.091,0.766,-2.852,-57.505,37.362,
49527320,-0.728,0.066,0.776,0.595,-69.965,46.497,
49527320,-0.765,0.053,0.774,3.797,-86.345,52.097,
49527330,-0.774,0.055,0.781,6.37,-105.402,56.105,
49527340,-0.727,0.083,0.795,12.792,-126.105,62.037,
49527350,-0.706,0.11,0.813,18.62,-148.032,69.79,
49527360,-0.643,0.147,0.778,19.46,-168.105,75.057,
49527370,-0.493,0.175,0.83,11.69,-178.482,77,
49527380,-0.355,0.123,0.815,3.325,-173.075,75.985,
49527390,-0.347,0.155,0.814,2.537,-158.987,71.225,
49527400,-0.258,0.16,0.869,-1.61,-144.252,64.61,
49527410,-0.198,0.177,0.852,-4.725,-120.715,57.505,
49527420,-0.317,0.19,0.881,-7.087,-106.312,47.582,
49527430,-0.3,0.109,0.917,-15.767,-101.185,34.3,
49527440,-0.21,0.113,0.925,-13.3,-95.917,20.37,
49527450,-0.149,0.131,0.957,-8.33,-90.545,12.11,
49527460,-0.108,0.17,0.969,-8.032,-77.507,10.57,
49527470,-0.065,0.203,0.965,-10.272,-57.557,6.037,
49527480,-0.071,0.258,0.972,-12.11,-32.095,-0.157,
49527490,-0.18,0.293,0.971,-21.367,-11.567,-0.577,
49527500,-0.242,0.264,0.96,-34.265,2.485,-2.082,
49527510,-0.26,0.199,0.917,-40.967,11.305,-5.932,
49527520,-0.281,0.167,0.888,-38.01,15.75,-7.437,
49527530,-0.359,0.17,0.881,-31.885,14.997,-5.932,
49527540,-0.429,0.194,0.889,-26.897,9.607,-4.042,
49527550,-0.427,0.196,0.886,-23.677,1.05,-4.41,
49527560,-0.345,0.206,0.889,-20.177,-2.66,-6.107,
49527570,-0.274,0.204,0.902,-19.075,0.21,-5.74,
49527580,-0.241,0.204,0.93,-20.387,9.87,-2.782,
49527580,-0.251,0.207,0.975,-22.645,20.107,1.785,
49527600,-0.295,0.191,1.019,-27.107,26.18,6.737,
49527600,-0.324,0.127,1.028,-31.08,25.812,9.432,
49527620,-0.303,0.07,1.027,-28.91,22.715,9.922,
49527620,-0.271,0.076,1.038,-22.4,18.777,9.117,
49527640,-0.268,0.1,1.058,-19.565,16.362,6.755,
49527640,-0.261,0.085,1.063,-20.86,16.065,0.805,
49527660,-0.256,0.05,1.069,-21.577,18.007,-5.372,
49527660,-0.31,0.01,1.079,-18.97,16.59,-7.77,
49527670,-0.386,-0.024,1.097,-8.82,7.892,-11.322,
49527680,-0.389,-0.044,1.095,1.19,-5.985,-15.172,
49527690,-0.352,-0.067,1.05,12.582,-19.827,-20.895,
49527700,-0.322,-0.049,0.991,28.437,-31.167,-28.227,
49527710,-0.284,0.001,0.937,39.217,-37.275,-30.52,
49527720,-0.263,-0.006,0.903,46.97,-38.92,-28.402,
49527730,-0.197,0.003,0.921,55.702,-33.145,-27.825,
49527740,-0.197,0.071,0.941,61.197,-22.26,-29.697,
49527750,-0.362,0.256,0.936,61.705,-18.532,-34.002,
49527760,-0.292,0.188,0.941,49.525,-21.385,-41.317,
49527770,-0.006,0.049,0.77,51.607,-13.86,-51.31,
49527780,0.096,0.142,0.793,71.207,13.737,-57.102,
49527790,-0.035,0.269,0.851,65.555,44.992,-50.592,
49527800,-0.185,0.31,0.865,39.865,68.11,-48.895,
49527810,-0.298,0.256,0.853,16.1,80.78,-53.602,
49527820,-0.397,0.185,0.838,1.575,83.387,-54.442,
49527830,-0.489,0.147,0.852,-9.03,76.352,-51.555,
49527840,-0.577,0.141,0.884,-15.697,60.725,-51.135,
49527850,-0.634,0.162,0.932,-21.787,37.38,-54.722,
49527860,-0.649,0.18,0.959,-30.607,9.292,-61.88,
49527870,-0.63,0.21,0.997,-40.355,-19.652,-68.057,
49527880,-0.574,0.219,0.955,-60.707,-44.222,-73.237,
49527890,-0.445,0.229,0.955,-83.597,-60.34,-76.965,
49527900,-0.356,0.202,0.905,-114.467,-63.455,-70.07,
49527910,-0.347,0.12,0.841,-142.835,-61.687,-56.455,
49527920,-0.357,-0.007,0.78,-156.992,-56,-41.405,
49527930,-0.334,-0.109,0.722,-156.485,-46.217,-28.367,
49527940,-0.311,-0.133,0.704,-148.942,-33.18,-17.272,
49527950,-0.366,-0.127,0.74,-138.285,-21.717,-6.352,
49527960,-0.484,-0.106,0.792,-130.725,-16.905,0.98,
49527970,-0.562,-0.049,0.824,-130.392,-21.402,0.472,
49527980,-0.577,-0.062,0.837,-134.05,-29.872,-5.04,
49527990,-0.536,-0.072,0.854,-138.757,-41.807,-13.09,
49528000,-0.494,-0.111,0.847,-143.815,-55.807,-18.165,
49528010,-0.431,-0.172,0.828,-141.82,-69.685,-17.377,
49528010,-0.329,-0.23,0.814,-129.937,-77.017,-11.935,
49528030,-0.254,-0.252,0.824,-110.635,-76.072,-5.6,
49528030,-0.196,-0.218,0.839,-93.695,-68.057,-3.5,
49528050,-0.19,-0.246,0.858,-78.942,-57.872,-2.922,
49528050,-0.188,-0.219,0.878,-67.602,-47.67,-4.112,
49528070,-0.206,-0.229,0.872,-59.552,-41.947,-4.812,
49528070,-0.211,-0.212,0.886,-49.385,-39.637,-1.662,
49528080,-0.268,-0.235,0.878,-41.072,-40.337,5.005,
49528090,-0.249,-0.197,0.876,-35.367,-40.967,4.147,
49528100,-0.237,-0.187,0.866,-33.075,-41.72,2.677,
49528110,-0.22,-0.196,0.848,-34.055,-41.475,2.012,
49528120,-0.172,-0.22,0.827,-33.39,-38.955,1.225,
49528130,-0.081,-0.264,0.888,-29.4,-31.867,1.54,
49528140,0.034,-0.343,0.963,-23.975,-13.51,5.477,
49528150,0.082,-0.461,1.001,-12.18,10.552,10.027,
49528160,-0.057,-0.446,1.017,13.475,34.615,10.115,
49528170,-0.244,-0.394,1.086,36.802,40.757,11.042,
49528180,-0.313,-0.365,1.141,42.84,26.46,12.845,
49528190,-0.2,-0.235,1.175,29.627,10.622,3.272,
49528200,-0.19,-0.252,1.121,10.062,-0.21,10.762,
49528210,-0.144,-0.313,1.037,-4.252,-1.575,9.537,
49528220,-0.153,-0.338,0.987,-5.162,2.45,5.075,
49528230,-0.203,-0.303,0.977,-2.94,6.002,4.637,
49528240,-0.237,-0.302,0.945,-2.187,5.67,5.967,
49528250,-0.174,-0.322,0.892,0.402,5.775,4.882,
49528260,-0.166,-0.318,0.875,6.16,10.832,5.32,
49528270,-0.223,-0.288,0.874,12.775,15.977,6.685,
49528280,-0.254,-0.256,0.896,19.565,18.48,4.637,
49528290,-0.236,-0.237,0.91,24.202,18.777,0.822,
49528300,-0.221,-0.224,0.913,25.9,19.827,-1.47,
49528310,-0.22,-0.21,0.903,28.595,21.367,-2.362,
49528320,-0.238,-0.201,0.905,33.162,22.89,-1.872,
49528330,-0.231,-0.202,0.901,37.747,24.237,1.277,
49528330,-0.228,-0.213,0.887,43.645,28.647,7.28,
49528350,-0.24,-0.217,0.892,53.27,35.997,13.3,
49528350,-0.264,-0.179,0.904,60.13,45.64,18.532,
49528370,-0.279,-0.149,0.892,62.002,56.367,19.845,
49528370,-0.299,-0.135,0.9,62.527,70.052,18.55,
49528390,-0.343,-0.13,0.912,58.03,81.497,19.932,
49528390,-0.405,-0.15,0.886,50.347,88.847,21.857,
49528410,-0.457,-0.173,0.882,45.71,92.802,25.602,
49528410,-0.495,-0.187,0.858,46.13,94.237,33.495,
49528420,-0.493,-0.181,0.84,49.227,97.615,39.567,
49528430,-0.502,-0.164,0.832,51.922,103.477,40.617,
49528440,-0.495,-0.099,0.816,48.072,110.092,35.612,
49528450,-0.563,-0.131,0.773,42.262,114.047,30.625,
49528460,-0.561,-0.087,0.777,38.762,112.28,20.58,
49528470,-0.611,-0.086,0.763,32.987,103.775,19.757,
49528480,-0.649,-0.068,0.77,31.08,89.6,24.552,
49528490,-0.689,-0.086,0.797,31.325,69.615,32.392,
49528500,-0.689,-0.055,0.825,30.922,48.457,34.632,
49528510,-0.679,-0.008,0.861,28.017,25.497,29.592,
49528520,-0.611,0.012,0.901,19.705,4.165,21.735,
49528530,-0.516,0.016,0.863,9.642,-7.035,10.5,
49528540,-0.45,-0.046,0.804,3.167,-14.56,4.585,
49528550,-0.404,-0.091,0.844,4.462,-11.777,3.535,
49528560,-0.351,-0.061,0.842,7.857,-3.237,-2.327,
49528570,-0.383,-0.079,0.849,7.91,9.047,-3.675,
49528580,-0.378,-0.091,0.844,9.992,20.177,-14.612,
49528590,-0.465,-0.104,0.885,10.587,26.722,-15.662,
49528600,-0.532,-0.107,0.891,10.885,24.57,-11.865,
49528610,-0.559,-0.111,0.91,9.922,18.41,-10.78,
49528620,-0.587,-0.172,0.883,8.312,11.392,-14.822,
49528630,-0.586,-0.184,0.875,12.32,4.987,-23.8,
49528640,-0.572,-0.174,0.863,18.637,0.735,-32.095,
49528650,-0.547,-0.162,0.912,26.967,-4.41,-41.475,
49528660,-0.494,-0.129,0.903,34.09,-6.895,-43.522,
49528670,-0.482,-0.032,0.926,36.61,-5.792,-37.712,
49528680,-0.468,-0.007,0.91,30.135,-4.62,-27.335,
49528690,-0.453,-0.065,0.879,22.645,-0.07,-16.327,
49528700,-0.506,-0.115,0.85,20.93,4.427,-8.155,
49528710,-0.534,-0.1,0.845,23.59,3.57,-5.197,
49528720,-0.523,-0.1,0.834,27.457,0.647,-9.345,
49528730,-0.543,-0.112,0.816,31.745,-6.282,-14.42,
49528740,-0.522,-0.063,0.818,35.35,-15.837,-18.252,
49528750,-0.521,-0.056,0.807,36.522,-26.757,-16.555,
49528760,-0.493,-0.117,0.791,42.192,-34.72,-16.975,
49528760,-0.441,-0.13,0.783,48.545,-36.697,-17.57,
49528780,-0.404,-0.096,0.8,49.56,-32.147,-19.985,
49528780,-0.41,-0.078,0.845,48.842,-25.34,-20.405,
49528790,-0.45,-0.099,0.882,45.867,-20.142,-14.542,
49528800,-0.484,-0.092,0.908,44.957,-17.535,-9.835,
49528810,-0.478,-0.047,0.956,44.31,-15.697,-7.017,
49528820,-0.463,-0.024,0.974,39.112,-11.847,-3.64,
49528830,-0.518,-0.011,0.976,33.722,-8.47,-0.665,
49528840,-0.493,0.007,0.979,28.052,-7.665,-0.805,
49528850,-0.507,0.006,0.955,22.68,-7.28,1.242,
49528860,-0.477,0.013,0.923,23.03,-9.03,-0.49,
49528870,-0.48,0.032,0.884,24.15,-10.972,-1.015,
49528880,-0.455,0.044,0.843,25.182,-12.022,-2.397,
49528890,-0.4,0.049,0.831,25.952,-11.007,-2.432,
49528900,-0.44,0.039,0.809,25.2,-8.102,1.575,
49528910,-0.488,0.023,0.821,24.342,-8.732,4.165,
49528920,-0.498,0.028,0.842,25.357,-12.897,6.842,
49528930,-0.5,0.063,0.883,25.2,-18.742,10.57,
49528940,-0.457,0.105,0.928,19.197,-22.75,13.737,
49528950,-0.453,0.127,0.968,6.947,-24.535,20.352,
49528960,-0.488,0.099,0.984,-8.417,-25.987,27.282,
49528970,-0.448,0.058,0.96,-19.897,-25.725,29.557,
49528980,-0.39,0.028,0.95,-23.695,-19.985,29.382,
49528990,-0.42,0.034,0.931,-22.82,-10.535,27.755,
49529000,-0.491,0.032,0.942,-23.695,-3.885,24.342,
49529010,-0.477,-0.022,0.872,-25.48,-3.36,16.065,
49529020,-0.451,-0.014,0.888,-12.687,-3.01,10.115,
49529030,-0.434,0.028,0.893,-5.88,-2.432,9.152,
49529040,-0.45,0.045,0.876,-4.287,-2.485,10.797,
49529050,-0.459,0.038,0.86,-4.077,-4.375,7.087,
49529060,-0.414,0.027,0.866,-0.647,-1.47,4.322,
49529070,-0.426,0.041,0.863,2.677,3.465,7.525,
49529080,-0.456,0.076,0.849,2.625,5.32,8.82,
49529080,-0.461,0.08,0.856,4.357,2.852,6.335,
49529100,-0.463,0.098,0.871,4.69,-0.017,6.527,
49529100,-0.439,0.083,0.869,0.42,-3.745,7.087,
49529120,-0.391,0.066,0.882,0.717,-4.445,5.775,
49529120,-0.357,0.063,0.9,1.365,-1.207,5.092,
49529140,-0.373,0.067,0.917,0.612,5.215,5.39,
49529140,-0.384,0.089,0.921,-1.102,13.667,4.042,
49529160,-0.449,0.054,0.933,-5.775,20.125,2.747,
49529160,-0.455,-0.012,0.909,-6.597,23.047,0.787,
49529170,-0.465,-0.003,0.913,-1.347,23.117,-0.945,
49529180,-0.534,0.027,0.921,2.362,17.097,-1.785,
49529190,-0.473,0.081,0.909,4.095,9.275,-3.395,
49529200,-0.47,0.106,0.884,-1.12,3.99,-0.63,
49529210,-0.481,0.074,0.849,-8.942,1.697,1.312,
49529220,-0.491,0.031,0.82,-11.497,0.402,2.45,
49529230,-0.511,0.017,0.816,-10.622,-1.715,4.007,
49529240,-0.518,0.022,0.812,-7.787,-4.025,5.232,
49529250,-0.517,0.041,0.821,-3.867,-6.772,6.562,
49529260,-0.524,0.08,0.835,-3.255,-9.642,9.152,
49529270,-0.54,0.098,0.851,-7.42,-13.44,11.235,
49529280,-0.542,0.071,0.84,-12.88,-17.29,11.13,
49529290,-0.513,0.061,0.826,-16.117,-21.35,8.277,
49529300,-0.477,0.054,0.828,-18.847,-24.01,6.562,
49529310,-0.403,0.016,0.852,-19.652,-20.825,6.562,
49529320,-0.457,0.003,0.88,-17.535,-15.627,7.56,
49529330,-0.506,-0.022,0.925,-14.717,-16.397,6.352,
49529340,-0.481,-0.063,0.951,-7.595,-20.737,3.605,
49529350,-0.397,0,0.989,3.972,-23.292,1.575,
49529360,-0.375,0.052,0.984,5.74,-19.757,2.625,
49529370,-0.383,0.048,0.939,6.002,-12.81,0.875,
49529380,-0.401,0.052,0.913,6.982,-8.4,-1.715,
49529390,-0.455,0.04,0.884,4.795,-8.295,-0.157,
49529400,-0.501,0.02,0.875,5.792,-13.177,0.105,
49529410,-0.514,0.011,0.874,10.762,-23.625,-2.625,
49529420,-0.481,0.021,0.884,16.94,-35.595,-5.81,
49529430,-0.424,0.056,0.889,21.875,-43.172,-8.802,
49529440,-0.38,0.089,0.912,21.052,-43.732,-10.045,
49529450,-0.371,0.067,0.932,16.275,-40.162,-8.802,
49529460,-0.338,0.038,0.911,14.682,-33.442,-8.19,
49529460,-0.32,0.034,0.917,16.642,-22.067,-7.385,
49529480,-0.381,0.041,0.913,15.172,-13.562,-6.125,
49529480,-0.419,0.046,0.912,13.562,-11.917,-6.335,
49529500,-0.372,0.072,0.903,13.405,-13.492,-7.332,
49529500,-0.331,0.091,0.898,10.43,-11.217,-6.317,
49529510,-0.349,0.075,0.889,6.72,-5.075,-4.497,
49529520,-0.384,0.066,0.889,5.32,0.385,-3.43,
49529530,-0.396,0.077,0.884,5.005,3.762,-3.325,
49529540,-0.389,0.088,0.886,4.322,7.84,-3.08,
49529550,-0.446,0.075,0.884,2.205,8.872,-1.61,
49529560,-0.488,0.061,0.881,1.12,6.545,-0.28,
49529570,-0.478,0.054,0.883,1.802,1.977,-1.085,
49529580,-0.507,0.045,0.887,3.167,-3.57,-1.907,
49529590,-0.475,0.036,0.887,5.722,-8.452,-3.99,
49529600,-0.436,0.036,0.894,9.362,-10.395,-5.547,
49529610,-0.422,0.037,0.922,12.512,-9.047,-5.407,
49529620,-0.426,0.036,0.937,14.385,-8.452,-4.97,
49529630,-0.37,0.061,0.939,16.94,-10.675,-6.527,
49529640,-0.305,0.087,0.962,16.555,-8.977,-5.442,
49529650,-0.3,0.101,0.95,12.792,-4.725,-2.047,
49529660,-0.245,0.11,0.923,8.225,2.922,-1.032,
49529670,-0.237,0.111,0.919,4.147,12.81,-0.42,
49529680,-0.335,0.068,0.911,-0.21,19.355,2.572,
49529690,-0.387,0.046,0.906,0.035,19.267,4.042,
49529700,-0.404,0.068,0.92,1.662,17.85,3.937,
49529710,-0.384,0.087,0.917,1.19,16.712,3.867,
49529720,-0.41,0.094,0.904,-0.28,18.637,4.952,
49529730,-0.448,0.067,0.873,-2.135,19.495,6.212,
49529740,-0.44,0.037,0.85,-1.855,21.245,6.702,
49529750,-0.46,0.046,0.85,0.612,21.35,7.962,
49529760,-0.529,0.047,0.872,0.28,21.245,8.522,
49529770,-0.562,0.057,0.855,-1.207,17.867,6.58,
49529780,-0.576,0.018,0.862,-1.435,8.89,4.462,
49529790,-0.514,0.017,0.885,4.322,0.875,5.722,
49529800,-0.507,0.11,0.89,9.415,-6.51,7.49,
49529810,-0.41,0.125,0.877,7.402,-7.455,7.262,
49529820,-0.432,0.058,0.868,3.587,-4.97,9.485,
49529830,-0.445,0.083,0.875,5.897,-4.76,8.452,
49529830,-0.406,0.114,0.897,7.735,-6.09,6.107,
49529850,-0.404,0.132,0.909,7.42,-7.192,4.777,
49529850,-0.411,0.143,0.926,4.97,-6.58,2.432,
49529870,-0.448,0.132,0.921,2.835,-7.07,0.07,
49529870,-0.466,0.125,0.908,1.4,-9.38,-2.012,
49529890,-0.473,0.106,0.891,1.522,-13.58,-3.045,
49529890,-0.466,0.098,0.872,3.22,-16.905,-5.25,
49529910,-0.439,0.123,0.866,6.16,-17.272,-8.89,
49529910,-0.459,0.119,0.869,5.932,-17.202,-10.605,
49529920,-0.481,0.086,0.876,6.072,-18.655,-9.642,
49529930,-0.471,0.086,0.881,9.292,-22.015,-8.05,
49529940,-0.431,0.109,0.892,11.655,-24.955,-6.23,
49529950,-0.419,0.118,0.911,10.43,-26.582,-3.097,
49529960,-0.382,0.12,0.913,7.052,-26.757,-0.98,
49529970,-0.333,0.117,0.915,6.037,-24.692,0.805,
49529980,-0.308,0.121,0.916,5.302,-20.492,2.922,
49529990,-0.304,0.121,0.91,3.972,-15.032,4.182,
49530000,-0.306,0.107,0.909,2.747,-8.925,3.85,
49530010,-0.313,0.092,0.925,4.077,-4.095,2.275,
49530020,-0.362,0.096,0.945,6.072,-1.995,3.71,
49530030,-0.378,0.093,0.956,6.877,-3.43,4.62,
49530040,-0.408,0.084,0.947,9.012,-5.267,4.375,
49530050,-0.406,0.072,0.93,11.935,-7.227,2.59,
49530060,-0.399,0.092,0.896,14.087,-6.335,-0.437,
49530070,-0.451,0.098,0.878,14.665,-5.88,-2.8,
49530080,-0.471,0.084,0.863,14.49,-7.542,-5.092,
49530090,-0.441,0.075,0.865,16.485,-11.952,-6.755,
49530100,-0.44,0.101,0.884,19.6,-15.697,-5.145,
49530110,-0.421,0.144,0.891,21.035,-20.002,-1.365,
49530120,-0.391,0.178,0.895,19.022,-21.017,4.147,
49530130,-0.388,0.169,0.899,14.647,-19.372,9.555,
49530140,-0.361,0.198,0.907,12.845,-16.835,13.562,
49530150,-0.357,0.22,0.91,6.685,-14.262,15.207,
49530160,-0.342,0.175,0.883,1.732,-11.795,15.12,
49530170,-0.274,0.172,0.88,-0.98,-5.88,11.182,
49530170,-0.358,0.165,0.88,-7.682,1.767,8.015,
49530190,-0.396,0.113,0.9,-8.242,3.43,1.627,
49530190,-0.381,0.17,0.92,-3.937,-0.665,-0.717,
49530210,-0.312,0.204,0.925,-4.742,-2.59,0.035,
49530210,-0.341,0.13,0.946,-9.45,0.717,1.522,
49530230,-0.342,0.138,0.921,-9.695,1.837,1.207,
49530230,-0.329,0.163,0.925,-9.187,3.937,0.052,
49530250,-0.352,0.144,0.911,-13.37,5.985,2.152,
49530250,-0.37,0.11,0.898,-15.155,5.425,5.915,
49530260,-0.354,0.145,0.907,-12.862,4.042,7.717,
49530270,-0.359,0.135,0.914,-13.895,4.935,10.535,
49530280,-0.355,0.122,0.912,-17.36,7.28,10.43,
49530290,-0.39,0.108,0.917,-18.357,8.522,11.305,
49530300,-0.4,0.091,0.911,-17.517,7.297,11.235,
49530310,-0.412,0.084,0.908,-16.555,5.337,9.94,
49530320,-0.421,0.076,0.897,-14.91,2.205,8.295,
49530330,-0.393,0.108,0.898,-12.477,-0.105,6.825,
49530340,-0.418,0.119,0.908,-13.895,-0.262,9.135,
49530350,-0.458,0.047,0.894,-16.397,-2.17,11.83,
49530360,-0.447,0.034,0.877,-11.235,-6.93,12.915,
49530370,-0.467,0.068,0.89,-5.18,-12.477,15.785,
49530380,-0.457,0.101,0.884,-3.99,-16.362,18.882,
49530390,-0.51,0.048,0.91,-4.2,-21.21,24.465,
49530400,-0.465,0.035,0.902,0.787,-28.437,26.127,
49530410,-0.381,0.11,0.925,9.467,-31.815,26.512,
49530420,-0.341,0.14,0.932,11.025,-31.202,25.83,
49530430,-0.278,0.17,0.928,10.255,-26.95,24.972,
49530440,-0.228,0.181,0.931,11.795,-20.3,25.9,
49530450,-0.131,0.208,0.926,9.117,-7.332,24.867,
49530460,-0.145,0.169,0.944,5.04,9.012,22.855,
49530470,-0.211,0.197,0.963,7.227,21.035,22.4,
49530480,-0.304,0.192,0.981,2.012,27.107,22.137,
49530490,-0.338,0.143,0.95,-1.942,24.552,18.007,
49530500,-0.372,0.142,0.956,-3.447,22.172,14.245,
49530510,-0.454,0.082,0.938,-6.107,16.537,11.182,
49530520,-0.438,0.081,0.915,-5.022,10.22,7.42,
49530530,-0.437,0.103,0.913,-2.38,4.375,5.6,
49530540,-0.454,0.135,0.916,-3.342,-0.245,5.197,
49530550,-0.404,0.14,0.899,-5.565,-3.605,4.252,
49530560,-0.374,0.119,0.878,-6.632,-3.15,3.412,
49530570,-0.374,0.127,0.872,-6.842,-1.662,5.565,
49530580,-0.36,0.145,0.893,-7.98,-0.297,7,
49530580,-0.333,0.162,0.899,-9.502,2.502,8.085,
49530600,-0.327,0.17,0.917,-13.16,7.297,9.887,
49530600,-0.31,0.151,0.936,-16.712,13.615,11.305,
49530620,-0.34,0.182,0.951,-19.74,18.795,11.55,
49530620,-0.357,0.161,0.968,-24.395,19.67,12.512,
49530640,-0.378,0.128,0.97,-26.53,17.85,12.407,
49530640,-0.382,0.138,0.966,-26.32,15.015,10.92,
49530660,-0.392,0.139,0.96,-26.232,12.39,8.785,
49530660,-0.393,0.146,0.958,-27.265,11.06,7.297,
49530670,-0.416,0.128,0.968,-30.432,10.342,5.687,
49530680,-0.455,0.11,0.984,-32.672,8.365,4.427,
49530690,-0.473,0.132,1.019,-34.422,3.342,2.712,
49530700,-0.482,0.133,1.053,-38.657,-3.062,1.487,
49530710,-0.467,0.061,1.051,-43.557,-9.117,-0.77,
49530720,-0.478,-0.062,1.055,-39.182,-14.77,-1.82,
49530730,-0.556,-0.16,1.105,-22.207,-23.817,-2.852,
49530740,-0.519,-0.135,1.115,1.26,-35.402,-11.952,
49530750,-0.439,-0.088,1.139,18.48,-44.135,-22.995,
49530760,-0.381,-0.066,1.131,35.857,-49.297,-32.27,
49530770,-0.309,0.042,1.15,50.872,-51.38,-42.385,
49530780,-0.27,0.129,1.139,52.202,-50.767,-44.292,
49530790,-0.253,0.157,1.103,45.92,-47.53,-45.85,
49530800,-0.231,0.188,1.062,34.212,-41.37,-48.702,
49530810,-0.227,0.201,1.017,18.252,-34.545,-51.66,
49530820,-0.202,0.223,0.946,0.035,-24.535,-56.647,
49530830,-0.206,0.201,0.894,-17.937,-14.787,-58.45,
49530840,-0.219,0.149,0.823,-34.335,-5.197,-61.215,
49530850,-0.233,0.115,0.781,-42.297,1.645,-61.11,
49530860,-0.278,0.08,0.761,-46.042,5.25,-54.267,
49530870,-0.317,0.048,0.761,-44.485,4.252,-46.602,
49530880,-0.341,0.035,0.781,-42.437,2.817,-39.655,
49530890,-0.362,0.047,0.824,-42.717,-1.96,-36.05,
49530900,-0.379,0.086,0.874,-47.32,-8.47,-33.005,
49530910,-0.401,0.083,0.889,-54.932,-16.817,-28.735,
49530920,-0.391,0.016,0.884,-62.212,-24.727,-26.915,
49530920,-0.359,-0.026,0.871,-68.74,-31.08,-28.402,
49530940,-0.324,-0.055,0.858,-73.062,-33.81,-32.672,
49530940,-0.297,-0.077,0.858,-74.602,-33.722,-36.627,
49530960,-0.205,-0.085,0.85,-75.495,-28.455,-35.542,
49530960,-0.257,-0.087,0.825,-74.06,-19.11,-29.837,
49530980,-0.311,-0.114,0.849,-71.295,-14.507,-33.215,
49530980,-0.268,-0.093,0.831,-70.472,-11.427,-35.437,
49531000,-0.276,-0.16,0.803,-64.732,-9.555,-27.825,
49531000,-0.287,-0.211,0.806,-52.115,-6.405,-19.477,
49531010,-0.286,-0.196,0.822,-39.357,-3.325,-15.277,
49531020,-0.283,-0.172,0.833,-27.527,-0.752,-13.562,
49531030,-0.286,-0.16,0.865,-16.292,1.47,-12.617,
49531040,-0.296,-0.139,0.887,-9.502,2.765,-12.88,
49531050,-0.303,-0.122,0.889,-4.76,2.485,-15.277,
49531060,-0.311,-0.135,0.914,4.83,1.242,-16.485,
49531070,-0.278,-0.07,0.907,6.825,0.21,-19.46,
49531080,-0.277,-0.084,0.895,10.587,0.262,-21.752,
49531090,-0.273,-0.081,0.874,15.365,2.817,-22.89,
49531100,-0.286,-0.066,0.842,18.9,6.562,-22.47,
49531110,-0.284,-0.064,0.796,25.795,11.672,-22.575,
49531120,-0.289,-0.017,0.76,32.235,19.775,-21.262,
49531130,-0.337,0.029,0.732,37.835,26.18,-18.095,
49531140,-0.386,0.088,0.684,38.115,31.412,-13.615,
49531150,-0.445,0.094,0.627,37.975,34.3,-7.997,
49531160,-0.504,0.108,0.586,38.22,35.962,0.14,
49531170,-0.56,0.118,0.569,37.292,35.192,10.692,
49531180,-0.602,0.127,0.585,36.12,33.442,21.175,
49531190,-0.611,0.138,0.636,31.08,30.485,30.24,
49531200,-0.632,0.147,0.719,18.777,27.317,36.365,
49531210,-0.658,0.139,0.803,-0.175,20.422,37.467,
49531220,-0.643,0.095,0.876,-20.072,12.11,35.577,
49531230,-0.595,0.013,0.919,-35.875,3.622,33.075,
49531240,-0.527,-0.07,0.958,-43.505,-1.312,31.57,
49531250,-0.5,-0.132,0.993,-42.245,-3.43,30.03,
49531260,-0.511,-0.18,1.032,-35.07,-2.52,24.325,
49531270,-0.507,-0.215,1.022,-23.415,0.577,8.715,
49531280,-0.453,-0.186,1.037,-7.42,6.317,-13.002,
49531290,-0.429,-0.118,1.062,7.752,6.755,-24.325,
49531300,-0.422,-0.048,1.075,19.145,3.237,-27.23,
49531310,-0.364,0.032,1.106,19.967,-0.63,-27.562,
49531320,-0.305,0.048,1.079,8.312,-0.717,-22.382,
49531330,-0.248,0.012,1.042,-5.967,6.877,-18.76,
49531330,-0.181,-0.007,1.01,-18.742,22.907,-17.115,
49531350,-0.176,-0.033,0.983,-29.347,43.837,-16.362,
49531350,-0.19,-0.068,0.947,-39.48,66.255,-19.302,
49531370,-0.25,-0.079,0.942,-46.795,84.647,-26.477,
49531370,-0.345,-0.031,0.956,-54.022,95.095,-28.892,
49531390,-0.426,-0.026,0.966,-62.562,94.937,-26.232,
49531390,-0.542,-0.101,0.915,-69.895,86.397,-13.947,
49531410,-0.648,-0.273,0.884,-63.367,66.92,-6.912,
49531410,-0.505,-0.224,0.922,-59.937,49.192,-24.535,
49531420,-0.524,-0.307,0.872,-66.272,35.437,-15.907,
49531430,-0.457,-0.415,0.815,-63.822,28.28,-13.72,
49531440,-0.391,-0.446,0.821,-44.642,28.087,-8.732,
49531450,-0.456,-0.381,0.857,-27.615,30.292,0.192,
49531460,-0.522,-0.307,0.896,-17.972,31.22,7.122,
49531470,-0.495,-0.266,0.888,-17.815,28.787,4.812,
49531480,-0.452,-0.272,0.856,-19.53,27.475,-0.892,
49531490,-0.443,-0.281,0.849,-18.602,27.545,-1.4,
49531500,-0.472,-0.311,0.809,-17.675,27.282,1.137,
49531510,-0.483,-0.317,0.81,-9.625,26.25,-0.402,
49531520,-0.478,-0.278,0.821,-3.937,25.847,-5.162,
49531530,-0.499,-0.238,0.85,1.172,23.275,-6.702,
49531540,-0.52,-0.218,0.851,2.205,17.99,-7.682,
49531550,-0.547,-0.251,0.854,3.815,9.257,-7.997,
49531560,-0.522,-0.291,0.854,7.665,0.42,-8.925,
49531570,-0.462,-0.282,0.866,17.71,-5.617,-10.972,
49531580,-0.429,-0.2,0.895,26.372,-6.492,-9.24,
49531590,-0.417,-0.12,0.928,24.832,-3.395,-5.04,
49531600,-0.41,-0.116,0.92,15.067,4.252,-4.007,
49531610,-0.474,-0.151,0.905,5.407,10.01,-4.9,
49531620,-0.509,-0.157,0.894,-0.437,11.812,-5.127,
49531630,-0.525,-0.155,0.869,-4.41,9.152,-5.757,
49531640,-0.526,-0.185,0.848,-6.755,6.335,-6.632,
49531650,-0.521,-0.211,0.828,-4.602,4.987,-7.63,
49531660,-0.55,-0.187,0.837,-1.26,3.71,-7.122,
49531670,-0.553,-0.158,0.847,-2.59,1.365,-5.705,
49531670,-0.536,-0.176,0.829,-5.775,-0.07,-4.935,
49531690,-0.529,-0.199,0.819,-6.982,-1.015,-3.5,
49531690,-0.528,-0.203,0.821,-7.28,-1.102,-2.275,
49531710,-0.522,-0.201,0.82,-7.437,-1.26,-2.117,
49531710,-0.547,-0.215,0.809,-7.91,-1.785,-2.03,
49531730,-0.566,-0.226,0.815,-7.612,-5.04,-2.415,
49531730,-0.497,-0.24,0.804,-5.25,-5.95,-2.905,
49531750,-0.474,-0.242,0.791,-2.362,-3.062,-0.56,
49531750,-0.483,-0.25,0.776,1.645,1.855,2.362,
49531760,-0.5,-0.27,0.764,7,5.25,5.617,
49531770,-0.523,-0.258,0.767,12.547,5.88,8.61,
49531780,-0.55,-0.226,0.775,14.717,4.97,10.885,
49531790,-0.59,-0.234,0.81,14,0.752,12.005,
49531800,-0.576,-0.253,0.832,12.915,-5.985,12.127,
49531810,-0.557,-0.255,0.845,12.845,-12.425,13.387,
49531820,-0.545,-0.256,0.835,14.595,-15.33,13.842,
49531830,-0.549,-0.236,0.834,17.71,-17.22,13.667,
49531840,-0.53,-0.186,0.828,20.16,-18.077,13.002,
49531850,-0.506,-0.127,0.832,20.772,-17.132,14.665,
49531860,-0.544,-0.098,0.868,18.217,-14.717,25.69,
49531870,-0.572,-0.135,0.846,10.255,-14.157,28.63,
49531880,-0.521,-0.167,0.827,7.822,-12.197,17.797,
49531890,-0.511,-0.132,0.855,8.662,-7.437,10.062,
49531900,-0.535,-0.115,0.865,5.862,-3.57,11.147,
49531910,-0.568,-0.112,0.835,3.92,-2.782,11.812,
49531920,-0.574,-0.134,0.874,-1.137,-8.225,9.275,
49531930,-0.484,-0.154,0.859,-2.397,-6.65,7.017,
49531940,-0.498,-0.172,0.872,0.56,-4.812,8.137,
49531950,-0.494,-0.13,0.867,1.382,-2.957,7.682,
49531960,-0.493,-0.14,0.864,0.962,-1.277,5.915,
49531970,-0.475,-0.169,0.844,1.33,-0.927,1.487,
49531980,-0.491,-0.151,0.841,2.922,-0.595,1.645,
49531990,-0.51,-0.129,0.839,3.045,-2.152,2.117,
49532000,-0.528,-0.142,0.828,1.96,-4.62,0.875,
49532010,-0.522,-0.151,0.823,1.487,-7.525,-0.262,
49532020,-0.531,-0.144,0.849,1.977,-8.855,-0.805,
49532030,-0.552,-0.154,0.858,-0.122,-9.905,-0.822,
49532040,-0.542,-0.172,0.849,-1.452,-9.222,-1.855,
49532050,-0.538,-0.167,0.834,-0.822,-8.155,-3.027,
49532060,-0.529,-0.147,0.838,0.14,-6.212,-3.85,
49532070,-0.521,-0.138,0.838,0.665,-5.075,-4.602,
49532080,-0.514,-0.129,0.832,0.542,-4.112,-4.882,
49532080,-0.538,-0.13,0.833,-1.102,-5.687,-4.007,
49532100,-0.533,-0.141,0.831,-3.517,-7.437,-4.007,
49532100,-0.512,-0.162,0.833,-4.007,-7.787,-4.882,
49532120,-0.523,-0.17,0.849,-4.042,-7.42,-5.197,
49532120,-0.517,-0.156,0.868,-4.217,-7.297,-6.02,
49532140,-0.507,-0.139,0.876,-5.617,-6.982,-5.757,
49532140,-0.491,-0.14,0.874,-8.312,-5.547,-4.62,
49532150,-0.476,-0.141,0.877,-10.325,-2.712,-3.797,
49532160,-0.485,-0.136,0.87,-13.492,1.137,-1.54,
49532170,-0.51,-0.135,0.855,-17.867,3.972,1.435,
49532180,-0.511,-0.162,0.829,-20.09,5.6,1.925,
49532190,-0.536,-0.199,0.795,-19.757,4.812,1.837,
49532200,-0.536,-0.208,0.773,-16.1,2.625,1.732,
49532210,-0.537,-0.194,0.786,-11.515,-2.1,3.622,
49532220,-0.53,-0.208,0.784,-9.275,-7.035,5.425,
49532230,-0.507,-0.23,0.792,-5.6,-10.832,5.67,
49532240,-0.502,-0.232,0.803,-1.12,-12.74,6.93,
49532250,-0.513,-0.216,0.825,3.185,-15.172,8.82,
49532260,-0.518,-0.197,0.836,4.497,-17.097,10.657,
49532270,-0.521,-0.195,0.828,4.042,-19.425,9.747,
49532280,-0.49,-0.169,0.846,5.04,-17.622,9.047,
49532290,-0.491,-0.131,0.857,4.025,-14.98,9.292,
49532300,-0.495,-0.118,0.863,1.855,-11.357,8.855,
49532310,-0.477,-0.096,0.873,-0.42,-8.347,8.977,
49532320,-0.455,-0.084,0.877,-3.867,-3.255,8.557,
49532330,-0.474,-0.1,0.897,-6.982,1.592,6.387,
49532340,-0.489,-0.105,0.904,-11.637,5.022,3.377,
49532350,-0.491,-0.115,0.91,-14.84,6.93,-1.89,
49532360,-0.508,-0.144,0.878,-18.515,7.91,-2.677,
49532370,-0.528,-0.174,0.858,-20.65,6.947,-3.115,
49532380,-0.531,-0.18,0.837,-21.805,4.357,-3.465,
49532390,-0.496,-0.191,0.821,-20.965,2.66,-4.06,
49532400,-0.483,-0.185,0.823,-18.48,2.537,-2.94,
49532410,-0.538,-0.154,0.787,-17.237,0.56,-2.152,
49532420,-0.55,-0.144,0.822,-20.632,-5.95,-2.887,
49532420,-0.461,-0.203,0.81,-24.08,-5.897,-3.062,
49532440,-0.487,-0.258,0.835,-21.035,-4.445,-1.085,
49532440,-0.492,-0.249,0.856,-17.902,-1.837,0.157,
49532460,-0.504,-0.243,0.863,-15.522,-2.187,0.245,
49532460,-0.489,-0.27,0.84,-14.105,-3.535,0.857,
49532480,-0.462,-0.287,0.835,-9.712,-3.412,1.312,
49532480,-0.468,-0.254,0.838,-4.305,-2.852,1.715,
49532500,-0.479,-0.225,0.834,-1.382,-3.412,1.54,
49532500,-0.466,-0.224,0.818,0.192,-4.2,1.785,
49532510,-0.474,-0.216,0.819,2.467,-3.447,2.835,
49532520,-0.515,-0.207,0.83,4.235,-2.817,3.43,
49532530,-0.503,-0.196,0.84,4.987,-2.625,2.905,
49532540,-0.488,-0.18,0.852,4.795,-0.07,2.45,
49532550,-0.516,-0.174,0.865,3.027,2.695,2.17,
49532560,-0.526,-0.173,0.87,0.682,4.252,1.33,
49532570,-0.516,-0.178,0.876,-1.732,4.41,-0.07,
49532580,-0.509,-0.176,0.869,-4.042,5.32,-1.347,
49532590,-0.508,-0.168,0.849,-5.88,6.09,-2.957,
49532600,-0.514,-0.167,0.834,-8.785,6.86,-2.87,
49532610,-0.522,-0.184,0.82,-12.11,5.775,-2.292,
49532620,-0.489,-0.194,0.815,-12.687,5.25,-2.292,
49532630,-0.467,-0.193,0.839,-11.445,6.79,-3.307,
49532640,-0.467,-0.157,0.873,-11.077,10.57,-4.165,
49532650,-0.442,-0.096,0.908,-13.037,13.755,-5.005,
49532660,-0.429,-0.078,0.921,-19.18,17.832,-5.967,
49532670,-0.468,-0.121,0.905,-26.372,20.247,-7.052,
49532680,-0.537,-0.195,0.871,-30.047,21.017,-9.712,
49532690,-0.62,-0.245,0.816,-29.645,17.517,-12.232,
49532700,-0.665,-0.242,0.767,-28.56,9.59,-15.12,
49532710,-0.651,-0.25,0.724,-28,0.892,-16.362,
49532720,-0.614,-0.229,0.725,-28,-3.832,-16.747,
49532730,-0.569,-0.216,0.75,-30.38,-7.122,-16.257,
49532740,-0.508,-0.195,0.8,-33.127,-7.49,-15.522,
49532750,-0.503,-0.213,0.814,-35.63,-7.945,-14.857,
49532760,-0.491,-0.268,0.865,-34.545,-10.202,-14.297,
49532770,-0.489,-0.322,0.882,-31.377,-12.39,-14.525,
49532780,-0.488,-0.348,0.9,-26.617,-10.255,-15.662,
49532790,-0.625,-0.379,0.776,-25.41,-11.97,-16.782,
49532800,-0.626,-0.354,0.76,-19.092,-18.06,-21.262,
49532810,-0.609,-0.326,0.761,-18.13,-22.697,-23.992,
49532820,-0.6,-0.353,0.751,-22.137,-23.712,-24.535,
49532820,-0.589,-0.343,0.773,-22.452,-25.305,-23.45,
49532830,-0.518,-0.295,0.804,-23.047,-26.232,-22.102,
49532840,-0.459,-0.298,0.81,-26.932,-23.905,-19.95,
49532850,-0.441,-0.275,0.825,-29.382,-21.752,-16.45,
49532860,-0.355,-0.299,0.863,-30.712,-17.692,-11.917,
49532870,-0.337,-0.275,0.855,-28.787,-10.482,-7.787,
49532880,-0.347,-0.239,0.867,-28.997,-3.272,-3.377,
49532890,-0.37,-0.298,0.851,-30.205,2.607,-1.242,
49532900,-0.423,-0.361,0.826,-27.335,5.67,0.227,
49532910,-0.453,-0.371,0.819,-23.275,7.542,-0.577,
49532920,-0.497,-0.405,0.784,-22.33,8.837,-1.33,
49532930,-0.525,-0.423,0.742,-18.97,8.435,-3.412,
49532940,-0.534,-0.382,0.756,-15.522,6.58,-5.005,
49532950,-0.517,-0.386,0.749,-14.577,3.885,-6.002,
49532960,-0.534,-0.425,0.732,-13.527,1.82,-6.387,
49532970,-0.538,-0.427,0.753,-10.062,-1.26,-7.472,
49532980,-0.501,-0.392,0.768,-6.37,-4.165,-8.89,
49532990,-0.482,-0.383,0.773,-4.672,-5.687,-9.03,
49533000,-0.478,-0.378,0.766,-3.657,-5.932,-7.98,
49533010,-0.456,-0.398,0.769,-2.485,-6.037,-6.527,
49533020,-0.441,-0.386,0.761,0.49,-5.425,-4.287,
49533030,-0.424,-0.385,0.771,3.815,-5.477,-1.61,
49533040,-0.398,-0.396,0.776,7.612,-4.935,1.627,
49533050,-0.381,-0.376,0.771,14.472,-4.62,5.757,
49533060,-0.373,-0.326,0.786,21.437,-4.567,11.865,
49533070,-0.347,-0.285,0.774,24.99,-7.315,21.542,
49533080,-0.282,-0.322,0.751,26.215,-8.82,34.492,
49533090,-0.247,-0.404,0.785,32.147,-6.3,48.965,
49533100,-0.327,-0.409,0.902,40.145,-0.595,61.6,
49533110,-0.58,-0.333,1.01,37.1,-3.57,70.717,
49533120,-0.67,-0.438,0.978,16.747,-12.127,72.975,
49533130,-0.466,-0.682,0.828,1.767,-3.745,59.377,
49533140,-0.477,-0.585,0.844,18.165,16.835,48.982,
49533150,-0.611,-0.304,0.918,30.257,29.54,50.137,
49533160,-0.594,-0.223,0.945,15.365,37.555,46.882,
49533170,-0.626,-0.309,0.879,-2.152,35.262,41.107,
49533170,-0.581,-0.375,0.866,-5.355,28.752,35.7,
49533190,-0.534,-0.382,0.881,-1.907,29.452,33.46,
49533190,-0.542,-0.368,0.921,4.182,32.27,34.51,
49533210,-0.57,-0.404,0.924,10.885,36.592,33.757,
49533210,-0.563,-0.404,0.909,26.11,38.272,28.035,
49533230,-0.567,-0.341,0.947,44.257,37.012,22.995,
49533230,-0.583,-0.256,0.972,51.887,32.917,21.472,
49533250,-0.568,-0.2,0.974,52.955,26.897,19.215,
49533250,-0.529,-0.156,0.962,50.295,21.087,19.827,
49533260,-0.486,-0.135,0.933,44.677,16.747,22.207,
49533270,-0.483,-0.155,0.892,39.165,14.945,26.022,
49533280,-0.486,-0.183,0.853,38.395,14.49,23.957,
49533290,-0.482,-0.179,0.835,41.212,16.065,15.995,
49533300,-0.489,-0.163,0.826,44.135,18.147,7.77,
49533310,-0.51,-0.154,0.814,45.657,18.655,0.56,
49533320,-0.527,-0.146,0.811,46.55,17.71,-6.282,
49533330,-0.54,-0.13,0.813,43.767,15.12,-12.355,
49533340,-0.536,-0.109,0.784,37.765,11.76,-19.302,
49533350,-0.537,-0.129,0.762,37.782,8.032,-23.292,
49533360,-0.525,-0.109,0.761,38.5,5.162,-25.462,
49533370,-0.535,-0.116,0.747,36.627,3.517,-28.385,
49533380,-0.53,-0.082,0.744,34.317,3.92,-32.865,
49533390,-0.545,-0.086,0.744,29.277,3.64,-36.4,
49533400,-0.556,-0.106,0.733,24.605,4.025,-41.545,
49533410,-0.567,-0.105,0.731,20.055,3.377,-46.375,
49533420,-0.588,-0.121,0.724,14.98,1.225,-49.507,
49533430,-0.588,-0.165,0.714,13.002,-2.327,-52.307,
49533440,-0.627,-0.178,0.701,11.795,-7.91,-53.445,
49533450,-0.654,-0.169,0.696,12.652,-15.75,-55.527,
49533460,-0.655,-0.153,0.71,13.545,-25.41,-56.962,
49533470,-0.661,-0.165,0.714,14.052,-38.027,-58.047,
49533480,-0.653,-0.186,0.703,14.49,-50.05,-60.305,
49533490,-0.627,-0.194,0.686,18.06,-61.11,-61.565,
49533500,-0.577,-0.163,0.685,19.442,-67.952,-62.877,
49533510,-0.581,-0.146,0.683,17.972,-74.007,-61.6,
49533510,-0.575,-0.143,0.682,17.99,-78.4,-57.575,
49533530,-0.504,-0.148,0.672,17.972,-77.332,-53.952,
49533530,-0.479,-0.151,0.699,23.922,-70.945,-47.95,
49533550,-0.486,-0.119,0.744,25.357,-63.245,-42.542,
49533550,-0.507,-0.116,0.78,21.437,-56.997,-38.027,
49533570,-0.52,-0.161,0.791,19.635,-53.462,-33.88,
49533570,-0.518,-0.184,0.814,19.075,-51.415,-31.062,
49533580,-0.508,-0.19,0.809,18.112,-50.102,-29.96,
49533590,-0.498,-0.182,0.818,21,-48.492,-28.717,
49533600,-0.5,-0.15,0.832,22.032,-48.562,-27.037,
49533610,-0.5,-0.145,0.828,19.757,-48.755,-25.567,
49533620,-0.48,-0.13,0.832,15.592,-47.547,-23.695,
49533630,-0.465,-0.126,0.837,8.347,-44.345,-21.98,
49533640,-0.467,-0.16,0.838,4.042,-40.6,-19.11,
49533650,-0.449,-0.18,0.858,4.165,-37.345,-15.137,
49533660,-0.436,-0.17,0.862,1.645,-33.722,-12.372,
49533670,-0.463,-0.184,0.863,2.502,-31.587,-11.252,
49533680,-0.468,-0.186,0.857,6.352,-31.482,-12.442,
49533690,-0.479,-0.17,0.845,8.347,-34.457,-13.107,
49533700,-0.49,-0.172,0.832,12.32,-38.692,-12.792,
49533710,-0.456,-0.148,0.794,17.22,-42.612,-12.67,
49533720,-0.453,-0.143,0.806,24.937,-46.375,-6.982,
49533730,-0.424,-0.092,0.816,24.605,-49.087,0.612,
49533740,-0.404,-0.058,0.816,18.305,-48.807,9.555,
49533750,-0.411,-0.055,0.853,9.082,-48.072,18.76,
49533760,-0.408,-0.054,0.877,-3.85,-47.81,25.13,
49533770,-0.412,-0.079,0.896,-16.467,-50.155,28.77,
49533780,-0.411,-0.117,0.903,-25.952,-52.85,28.857,
49533790,-0.394,-0.144,0.907,-30.485,-56.192,24.71,
49533800,-0.386,-0.186,0.916,-29.05,-59.605,19.635,
49533810,-0.377,-0.212,0.951,-24.902,-63.332,12.617,
49533820,-0.345,-0.232,0.987,-21.875,-66.29,2.677,
49533830,-0.31,-0.268,1.012,-18.9,-69.055,-7.682,
49533840,-0.252,-0.304,1.022,-13.65,-70.385,-15.225,
49533850,-0.204,-0.323,1.029,-4.55,-70.98,-17.377,
49533860,-0.202,-0.315,1.046,7.017,-71.557,-15.592,
49533870,-0.187,-0.289,1.046,18.515,-72.835,-13.825,
49533880,-0.153,-0.261,1.052,28.157,-73.867,-10.447,
49533890,-0.131,-0.208,1.065,32.2,-74.165,-5.127,
49533900,-0.127,-0.14,1.074,24.097,-72.415,3.71,
49533910,-0.097,-0.109,1.038,7.525,-67.76,12.775,
49533920,-0.056,-0.118,1,-10.745,-57.137,18.882,
49533920,-0.055,-0.149,0.953,-25.41,-43.767,23.835,
49533940,-0.068,-0.182,0.915,-32.252,-29.61,29.312,
49533940,-0.072,-0.205,0.894,-31.447,-16.502,37.467,
49533960,-0.071,-0.203,0.89,-25.882,-3.815,48.755,
49533960,-0.083,-0.181,0.902,-20.772,7.665,62.055,
49533980,-0.131,-0.158,0.907,-17.902,19.04,75.932,
49533980,-0.216,-0.172,0.905,-12.635,26.985,86.397,
49534000,-0.27,-0.164,0.953,-12.775,34.86,84.612,
49534000,-0.365,-0.211,0.939,-14.472,37.065,81.357,
49534010,-0.44,-0.257,0.928,-10.867,34.335,65.555,
49534020,-0.479,-0.246,0.952,-3.675,23.957,42.455,
49534030,-0.461,-0.188,0.975,1.225,5.74,20.475,
49534040,-0.399,-0.137,0.981,0.577,-15.295,5.845,
49534050,-0.333,-0.117,0.972,-3.972,-34.72,1.505,
49534060,-0.267,-0.139,0.934,-7.7,-47.897,3.045,
49534070,-0.188,-0.148,0.916,-10.167,-50.33,4.147,
49534080,-0.13,-0.17,0.888,-10.29,-46.882,4.707,
49534090,-0.111,-0.177,0.897,-7.525,-38.395,4.305,
49534100,-0.134,-0.19,0.895,-4.69,-29.05,4.357,
49534110,-0.149,-0.195,0.897,-1.907,-20.737,-0.245,
49534120,-0.169,-0.214,0.908,3.115,-15.645,-6.177,
49534130,-0.23,-0.228,0.933,8.68,-17.167,-8.277,
49534140,-0.273,-0.212,0.95,11.06,-25.462,-11.725,
49534150,-0.253,-0.191,0.956,10.902,-37.817,-17.36,
49534160,-0.191,-0.169,0.954,10.622,-49.192,-22.102,
49534170,-0.138,-0.156,0.945,8.19,-57.54,-21.052,
49534180,-0.093,-0.16,0.927,4.375,-61.897,-17.342,
49534190,-0.034,-0.192,0.913,1.995,-61.162,-15.662,
49534200,0.027,-0.24,0.963,2.415,-52.762,-12.652,
49534210,0.003,-0.35,1.009,6.037,-41.16,-8.767,
49534220,-0.02,-0.325,0.998,20.825,-29.12,-12.075,
49534230,-0.036,-0.215,1.143,32.112,-21.927,-14.91,
49534240,0.026,-0.208,1.197,24.29,-16.765,-7.857,
49534250,0.041,-0.278,1.118,13.125,-7.787,-2.485,
49534260,0.031,-0.299,1.136,13.002,3.605,-0.42,
49534260,-0.069,-0.281,1.114,6.615,11.427,6.755,
49534280,-0.178,-0.287,1.087,-4.602,14.157,9.537,
49534280,-0.143,-0.341,1.03,-8.662,14.052,4.235,
49534300,-0.007,-0.448,0.939,-7.385,18.147,3.657,
49534300,-0.008,-0.563,0.881,1.96,31.202,14.49,
49534320,-0.092,-0.558,0.898,24.92,50.452,24.692,
49534320,-0.191,-0.448,0.974,44.45,64.032,35.997,
49534330,-0.256,-0.388,0.975,54.005,72.03,47.145,
49534340,-0.263,-0.339,0.998,62.58,77.735,47.547,
49534350,-0.252,-0.275,0.963,63.927,82.635,46.97,
49534360,-0.221,-0.19,0.949,60.322,90.86,51.695,
49534370,-0.213,-0.088,0.955,52.902,100.292,63.175,
49534380,-0.244,0.004,0.939,34.685,109.987,76.195,
49534390,-0.29,0.048,0.908,11.917,118.632,85.19,
49534400,-0.294,0.069,0.859,-10.202,125.737,89.18,
49534410,-0.316,0.06,0.806,-28.962,132.02,93.73,
49534420,-0.348,0.022,0.797,-38.99,136.062,96.075,
49534430,-0.369,0.044,0.754,-40.705,138.442,91.157,
49534440,-0.383,0.103,0.817,-42.315,134.085,84.105,
49534450,-0.399,0.161,0.816,-51.257,128.625,77.577,
49534460,-0.409,0.119,0.799,-63.612,119.875,70.455,
49534470,-0.45,0.052,0.784,-73.132,108.132,62.265,
49534480,-0.483,-0.009,0.779,-73.517,92.19,54.722,
49534490,-0.464,-0.031,0.787,-67.62,73.692,47.425,
49534500,-0.455,-0.04,0.798,-59.045,55.79,42.525,
49534510,-0.452,-0.053,0.818,-48.965,39.2,35.49,
49534520,-0.461,-0.08,0.838,-39.27,23.012,27.492,
49534530,-0.432,-0.093,0.847,-29.942,8.155,19.46,
49534540,-0.41,-0.103,0.865,-20.895,-3.412,14.245,
49534550,-0.412,-0.107,0.876,-12.81,-12.407,11.9,
49534560,-0.439,-0.104,0.911,-7.21,-21,9.397,
49534570,-0.432,-0.082,0.928,-3.57,-31.482,5.88,
49534580,-0.406,-0.071,0.937,-4.357,-40.32,7.77,
49534590,-0.351,-0.081,0.93,-9.17,-45.36,10.535,
49534600,-0.278,-0.101,0.909,-12.967,-42.63,11.567,
49534610,-0.26,-0.146,0.901,-13.387,-35.945,16.415,
49534620,-0.258,-0.171,0.913,-9.677,-26.985,25.357,
49534630,-0.278,-0.179,0.939,-5.18,-16.887,34.86,
49534640,-0.317,-0.191,0.952,-4.427,-7.122,40.652,
49534650,-0.377,-0.264,0.949,-1.452,2.047,39.427,
49534660,-0.431,-0.31,0.937,9.117,10.185,36.102,
49534670,-0.456,-0.335,0.932,21.752,15.47,32.025,
49534670,-0.438,-0.307,0.939,28.647,21.612,24.185,
49534690,-0.421,-0.271,0.938,29.295,29.137,14.752,
49534690,-0.452,-0.264,0.955,30.257,38.377,15.505,
49534710,-0.473,-0.264,0.953,26.652,48.352,17.43,
49534710,-0.508,-0.252,0.96,21.087,58.065,19.11,
49534730,-0.597,-0.242,0.961,12.425,63.507,22.872,
49534730,-0.677,-0.238,0.962,2.222,61.985,25.27,
49534750,-0.667,-0.247,0.933,-5.145,55.44,24.955,
49534750,-0.645,-0.252,0.899,-9.292,48.335,24.78,
49534760,-0.628,-0.252,0.858,-9.59,41.65,25.147,
49534770,-0.582,-0.232,0.845,-4.13,37.38,27.037,
49534780,-0.559,-0.218,0.826,4.585,35.087,30.38,
49534790,-0.581,-0.157,0.832,12.775,35.525,33.757,
49534800,-0.609,-0.112,0.85,16.205,34.825,35.717,
49534810,-0.677,-0.091,0.838,21.087,28.42,34.982,
49534820,-0.668,-0.028,0.864,22.452,19.635,31.307,
49534830,-0.674,-0.014,0.831,17.395,9.065,28.647,
49534840,-0.622,0.014,0.799,11.935,1.522,24.36,
49534850,-0.56,-0.064,0.76,12.39,0.42,24.482,
49534860,-0.46,0.004,0.781,20.615,6.86,25.865,
49534870,-0.529,0.096,0.831,12.197,18.357,37.38,
49534880,-0.534,0.091,0.827,6.037,29.067,39.287,
49534890,-0.463,0.068,0.828,-0.245,38.78,40.337,
49534900,-0.476,0.051,0.821,-4.55,49.63,42.42,
49534910,-0.596,0.045,0.815,-5.845,56.682,40.197,
49534920,-0.756,-0.022,0.927,-8.19,37.852,30.642,
49534930,-0.558,-0.103,0.813,1.522,6.125,21.612,
49534940,-0.352,-0.193,0.869,25.672,-27.737,13.44,
49534950,-0.15,0.061,0.818,40.547,-37.257,4.55,
49534960,-0.026,0.048,0.824,42.822,-20.947,5.95,
49534970,0.002,0.046,0.805,44.222,17.08,5.985,
49534980,-0.228,0.105,0.811,40.74,52.045,5.32,
49534990,-0.337,0.111,0.773,30.117,75.757,1.435,
49535000,-0.393,0.072,0.729,22.872,93.187,-3.745,
49535010,-0.474,0.047,0.69,16.887,107.135,-9.292,
49535010,-0.595,-0.037,0.649,13.055,118.965,-18.06,
49535030,-0.53,-0.076,0.636,23.327,136.08,-35.84,
49535030,-0.798,0.054,0.673,31.045,144.62,-39.427,
49535050,-0.929,0.067,0.68,26.652,140.507,-34.825,
49535050,-0.801,0.087,0.678,25.305,136.22,-31.517,
49535070,-0.895,0.085,0.653,29.75,135.275,-11.34,
49535070,-0.82,0.113,0.66,36.26,134.137,-0.437,
49535080,-0.671,0.133,0.575,33.74,148.207,-3.29,
49535090,-0.778,0.097,0.524,28.857,166.425,4.41,
49535100,-1.201,0.09,0.494,19.075,165.69,6.492,
49535110,-1.335,0.024,0.468,11.112,130.707,-1.96,
49535120,-1.133,0.021,0.428,18.41,90.16,-19.39,
49535130,-1.101,0.032,0.432,18.812,43.12,-18.707,
49535140,-1.037,0.17,0.48,10.29,8.995,-12.512,
49535150,-0.875,0.135,0.507,-4.06,-10.832,-7.315,
49535160,-0.747,-0.001,0.491,-11.865,-6.282,3.342,
49535170,-0.817,-0.015,0.52,-17.237,8.032,4.672,
49535180,-0.882,-0.02,0.533,-19.547,15.697,1.96,
49535190,-0.827,-0.004,0.5,-17.097,17.43,-3.465,
49535200,-0.792,0.047,0.502,-12.845,22.347,-4.952,
49535210,-0.915,-0.052,0.559,-6.825,24.29,-1.015,
49535220,-1.055,-0.088,0.614,10.395,8.872,0.21,
49535230,-1.048,0.003,0.632,31.447,-19.845,-2.572,
49535240,-0.94,0.103,0.635,46.217,-49.07,-2.66,
49535250,-0.861,0.097,0.59,50.277,-72.922,2.03,
49535260,-0.788,0.093,0.551,56.157,-88.445,8.697,
49535270,-0.7,0.182,0.536,61.057,-92.732,12.652,
49535280,-0.645,0.165,0.538,60.217,-84.105,14.07,
49535290,-0.545,0.128,0.581,61.215,-64.61,4.112,
49535300,-0.605,0.195,0.636,57.592,-39.375,-5.547,
49535310,-0.643,0.272,0.758,47.67,-21.84,-7.087,
49535320,-0.747,0.279,0.819,29.575,-8.802,1.155,
49535330,-0.902,0.172,0.833,3.902,-11.147,11.357,
49535340,-0.714,0.126,0.807,-1.487,-20.912,12.722,
49535350,-0.635,0.183,0.814,3.85,-26.775,19.442,
49535360,-0.715,0.259,0.843,0.07,-29.837,29.242,
49535370,-0.71,0.27,0.815,-10.185,-35.192,33.88,
49535380,-0.615,0.204,0.736,-16.712,-36.225,33.652,
49535390,-0.557,0.138,0.679,-16.572,-28.455,31.657,
49535400,-0.581,0.096,0.641,-12.652,-16.187,29.645,
49535410,-0.727,0.061,0.647,-5.18,-12.985,26.635,
49535420,-0.908,0.031,0.701,7.612,-30.292,21.437,
49535420,-0.945,0.07,0.7,27.632,-67.06,18.077,
49535440,-0.875,0.178,0.704,41.982,-109.077,15.68,
49535440,-0.769,0.211,0.672,42.472,-142.677,12.425,
49535460,-0.676,0.202,0.623,33.74,-159.88,6.23,
49535460,-0.552,0.149,0.561,24.465,-161.472,-0.315,
49535480,-0.465,0.08,0.532,19.075,-148.82,-0.07,
49535480,-0.532,0.047,0.546,15.557,-130.882,4.357,
49535490,-0.666,0.038,0.588,14,-115.167,3.01,
49535500,-0.737,0.039,0.609,10.5,-105.91,-5.022,
49535510,-0.766,0.07,0.667,5.897,-103.04,-12.967,
49535520,-0.827,0.087,0.681,-0.927,-108.675,-14.892,
49535530,-0.868,0.088,0.704,-5.897,-123.2,-8.995,
49535540,-0.776,0.048,0.707,-6.93,-139.475,4.252,
49535550,-0.652,0.055,0.735,-3.78,-148.767,18.725,
49535560,-0.58,0.151,0.775,-3.325,-147.56,30.747,
49535570,-0.546,0.203,0.827,-12.39,-136.972,38.675,
49535580,-0.488,0.172,0.832,-25.48,-120.89,39.532,
49535590,-0.416,0.175,0.839,-37.695,-98.28,34.615,
49535600,-0.471,0.112,0.851,-51.345,-74.48,28.35,
49535610,-0.588,0.044,0.883,-55.072,-63.245,24.097,
49535620,-0.634,0.018,0.894,-48.597,-70.332,27.405,
49535630,-0.625,0,0.918,-34.02,-88.655,38.762,
49535640,-0.599,0.01,0.934,-17.92,-110.005,50.767,
49535650,-0.454,0.004,0.915,-4.322,-125.37,56.77,
49535660,-0.345,0.039,0.929,6.177,-126.962,58.152,
49535670,-0.338,0.08,0.907,10.202,-122.64,59.062,
49535680,-0.262,0.071,0.921,7.875,-114.975,61.74,
49535690,-0.294,-0.032,0.924,6.44,-98.717,64.68,
49535700,-0.381,-0.025,0.94,16.625,-89.775,56.525,
49535710,-0.365,0.043,0.959,26.267,-89.81,49.087,
49535720,-0.299,0.09,0.97,32.217,-92.172,45.517,
49535730,-0.225,0.115,0.963,35.122,-95.55,43.785,
49535740,-0.176,0.137,0.96,36.207,-96.757,44.502,
49535750,-0.134,0.119,0.944,37.502,-96.127,46.007,
49535760,-0.079,0.128,0.945,39.585,-90.23,47.687,
49535760,-0.152,0.133,0.952,40.18,-84.682,47.862,
49535780,-0.134,0.143,0.955,43.242,-84.087,43.89,
49535780,-0.094,0.143,0.924,46.515,-85.82,41.527,
49535800,-0.037,0.207,0.944,49.892,-85.575,39.077,
49535800,-0.022,0.209,0.942,46.847,-82.355,37.782,
49535820,0.03,0.154,0.934,44.205,-77.437,34.352,
49535820,0.002,0.183,0.911,45.64,-67.69,33.005,
49535830,-0.134,0.148,0.937,45.937,-67.462,31.01,
49535840,-0.042,0.119,0.903,49.63,-72.45,29.382,
49535850,-0.106,0.202,0.95,58.8,-79.975,28.245,
49535860,-0.003,0.244,0.944,61.827,-86.117,25.655,
49535870,0.114,0.323,0.983,58.047,-80.605,22.12,
49535880,0.142,0.322,0.982,46.322,-64.295,17.797,
49535890,0.125,0.303,0.974,36.417,-45.517,12.985,
49535900,0.105,0.311,0.973,31.937,-30.012,10.325,
49535910,0.055,0.313,0.982,29.172,-20.422,8.4,
49535920,0.044,0.323,0.996,26.897,-17.342,7.437,
49535930,0.012,0.335,1.025,26.617,-18.9,8.47,
49535940,0.016,0.326,1.041,27.825,-22.977,8.452,
49535950,0.132,0.318,1.031,32.637,-23.012,5.477,
49535960,0.163,0.368,1.041,39.392,-14.91,1.347,
49535970,0.155,0.374,0.973,38.325,-1.925,-4.62,
49535980,0.092,0.448,0.948,37.52,6.247,-12.932,
49535990,0.186,0.511,0.926,30.362,12.582,-19.862,
49536000,0.157,0.463,0.883,12.46,23.607,-21.77,
49536010,0.167,0.461,0.843,-1.995,37.73,-26.81,
49536020,0.1,0.453,0.847,-13.667,51.1,-26.11,
49536030,0.002,0.391,0.823,-26.32,57.295,-18.847,
49536040,-0.134,0.327,0.801,-35.017,54.162,-9.765,
49536050,-0.149,0.258,0.763,-37.73,43.295,-1.277,
49536060,-0.135,0.185,0.784,-35.035,32.27,8.837,
49536070,-0.222,0.117,0.829,-26.145,19.565,20.667,
49536080,-0.31,0.17,0.977,-9.555,3.237,28.91,
49536090,-0.327,0.351,1.176,4.147,-19.162,32.795,
49536100,-0.195,0.362,1.19,9.677,-37.222,31.902,
49536110,-0.113,0.27,1.048,22.96,-44.87,27.055,
49536120,0.076,0.33,0.95,40.827,-43.242,19.25,
49536130,0.119,0.435,0.921,45.01,-32.742,12.407,
49536140,0.092,0.456,0.855,36.47,-21.437,3.517,
49536150,0.067,0.466,0.823,25.462,-15.19,-4.497,
49536160,0.001,0.408,0.808,11.042,-17.045,-10.465,
49536160,0.031,0.379,0.819,2.082,-24.85,-15.645,
49536170,0.01,0.38,0.873,-2.45,-32.112,-11.41,
49536180,0,0.35,0.938,-4.637,-39.34,-8.47,
49536190,0.058,0.358,0.968,-4.445,-41.772,-8.417,
49536200,0.099,0.243,1.046,-1.452,-36.61,-2.38,
49536210,0.028,0.352,1.027,9.677,-28.332,-1.347,
49536220,0.058,0.479,0.993,11.007,-23.432,0.577,
49536230,0.072,0.356,0.941,-1.68,-18.532,6.93,
49536240,0.207,0.326,0.882,-6.055,-10.36,11.742,
49536250,0.06,0.364,0.936,-5.215,1.47,24.972,
49536260,-0.046,0.244,0.908,-9.52,2.222,31.657,
49536270,0.101,0.321,0.901,-4.637,12.215,23.257,
49536280,-0.139,0.285,0.917,-12.127,8.12,22.05,
49536290,0.047,0.317,0.94,-11.375,2.012,14.595,
49536300,-0.012,0.407,0.989,-14.017,-8.767,18.987,
49536310,0.071,0.446,1.025,-25.83,-14.892,20.842,
49536320,0.094,0.507,1.029,-42.35,-17.342,12.705,
49536330,0.278,0.379,1.005,-63.56,-12.39,2.135,
49536340,0.291,0.332,0.968,-74.567,5.145,-8.417,
49536350,0.263,0.274,0.943,-79.747,24.36,-17.552,
49536360,0.174,0.157,0.883,-78.487,42.997,-22.54,
49536370,0.054,0.171,0.836,-66.955,47.267,-25.882,
49536380,0.084,0.228,0.868,-54.162,47.232,-31.605,
49536390,0.005,0.19,0.859,-48.877,45.027,-29.312,
49536400,-0.044,0.196,0.869,-43.645,40.67,-24.517,
49536410,-0.064,0.231,0.884,-36.942,35.787,-21.892,
49536420,-0.079,0.234,0.872,-35.752,34.072,-20.3,
49536430,-0.058,0.232,0.871,-36.977,37.222,-21.49,
49536440,-0.084,0.236,0.862,-38.395,44.065,-23.362,
49536450,-0.12,0.255,0.879,-41.125,49.647,-25.445,
49536460,-0.139,0.315,0.88,-48.492,52.815,-28.035,
49536470,-0.129,0.32,0.943,-62.352,52.517,-27.685,
49536480,-0.09,0.199,0.935,-74.077,53.725,-21.857,
49536490,-0.063,0.178,0.966,-70.437,55.597,-18.847,
49536500,-0.04,0.205,1.011,-62.947,56.805,-18.13,
49536510,0.032,0.237,1.051,-58.485,59.71,-19.46,
49536510,0.024,0.24,1.028,-50.522,67.34,-14.717,
49536530,-0.067,0.205,1.138,-29.977,65.852,-8.837,
49536530,-0.069,0.25,1.063,-39.287,62.387,-28.175,
49536550,-0.111,0.262,0.994,-47.197,53.305,-36.4,
49536550,-0.09,0.192,0.967,-49.472,50.05,-38.85,
49536570,-0.127,0.097,0.952,-49.385,46.427,-32.917,
49536570,-0.141,0.005,0.953,-44.94,46.795,-26.6,
49536580,-0.209,0.013,0.933,-29.82,50.68,-19.967,
49536590,-0.331,0.103,0.957,-17.045,49.437,-10.605,
49536600,-0.368,0.121,0.971,-14.997,43.977,-1.767,
49536610,-0.308,0.105,0.964,-18.795,38.447,0.647,
49536620,-0.243,0.082,0.937,-21,37.292,-1.33,
49536630,-0.196,0.086,0.916,-19.232,41.212,-4.357,
49536640,-0.166,0.088,0.905,-17.167,47.617,-5.6,
49536650,-0.181,0.063,0.895,-15.54,53.025,-2.782,
49536660,-0.215,0.034,0.891,-14.665,56.542,0.56,
49536670,-0.262,0.023,0.897,-9.047,56.595,1.75,
49536680,-0.318,0.04,0.939,-2.712,53.06,2.625,
49536690,-0.392,0.034,0.945,-1.557,42.875,2.94,
49536700,-0.392,0.059,0.937,3.377,29.907,-1.19,
49536710,-0.344,0.098,0.943,6.002,17.08,-6.335,
49536720,-0.3,0.111,0.944,5.722,11.27,-6.667,
49536730,-0.288,0.099,0.939,6.265,11.287,-1.26,
49536740,-0.285,0.139,0.951,6.545,16.24,-0.122,
49536750,-0.321,0.136,0.952,2.17,20.51,-0.105,
49536760,-0.373,0.12,0.961,-0.805,22.68,-2.1,
49536770,-0.397,0.112,0.956,-2.1,21.262,-2.012,
49536780,-0.384,0.04,0.966,-2.292,20.947,-1.382,
49536790,-0.353,0.028,0.925,2.572,24.062,-1.837,
49536800,-0.454,0.137,0.914,1.61,17.535,-3.972,
49536810,-0.424,0.1,0.925,-7.787,6.527,-2.327,
49536820,-0.32,-0.03,0.856,-7.28,-4.567,-2.87,
49536830,-0.213,0.017,0.904,5.18,-7.455,-6.702,
49536830,-0.267,0.078,0.915,11.462,-10.255,-3.29,
49536850,-0.325,0.093,0.923,13.807,-14.542,-0.612,
49536850,-0.322,0.064,0.915,15.417,-23.765,-3.342,
49536870,-0.201,0.092,0.963,17.902,-26.495,-4.655,
49536870,-0.228,0.121,1.02,18.007,-22.05,-1.89,
49536890,-0.317,0.144,1.038,13.842,-17.727,0.665,
49536890,-0.343,0.134,1.009,9.887,-15.767,0.35,
49536910,-0.346,0.131,0.987,7,-16.485,-1.68,
49536910,-0.334,0.13,0.944,5.092,-17.272,-2.835,
49536920,-0.298,0.149,0.911,4.585,-16.537,-3.727,
49536930,-0.291,0.169,0.893,2.152,-15.207,-3.605,
49536940,-0.307,0.161,0.901,-0.35,-15.645,-3.307,
49536950,-0.294,0.134,0.906,-1.365,-17.64,-0.035,
49536960,-0.255,0.126,0.922,-0.14,-19.04,3.71,
49536970,-0.27,0.138,0.958,0.56,-19.005,4.042,
49536980,-0.31,0.077,1.002,-0.017,-19.95,5.95,
49536990,-0.302,0.066,1.001,3.885,-22.225,7.612,
49537000,-0.28,0.118,1.002,6.667,-25.392,7.385,
49537010,-0.236,0.106,0.962,4.13,-25.637,9.082,
49537020,-0.21,0.099,0.94,2.31,-21.805,8.925,
49537030,-0.238,0.086,0.912,1.942,-17.885,11.515,
49537040,-0.231,0.103,0.901,2.222,-13.982,13.405,
49537050,-0.263,0.094,0.895,1.242,-13.265,13.212,
49537060,-0.282,0.087,0.903,-0.595,-16.012,10.062,
49537070,-0.289,0.102,0.925,0.367,-22.05,7.56,
49537080,-0.271,0.107,0.937,1.557,-26.74,9.922,
49537090,-0.272,0.101,0.961,1.872,-30.275,11.48,
49537100,-0.264,0.101,0.963,0.7,-32.515,10.43,
49537110,-0.254,0.101,0.971,1.242,-33.617,8.89,
49537120,-0.255,0.097,0.973,1.785,-33.25,6.037,
49537130,-0.27,0.119,0.993,3.482,-35.175,4.707,
49537140,-0.253,0.134,0.992,2.555,-38.727,6.37,
49537150,-0.242,0.123,0.968,1.61,-42.927,8.592,
49537160,-0.231,0.099,0.939,0.787,-44.975,9.835,
49537170,-0.19,0.092,0.894,2.065,-46.235,9.555,
49537180,-0.175,0.108,0.891,4.497,-46.445,11.13,
49537190,-0.146,0.111,0.907,4.462,-46.62,12.827,
49537200,-0.071,0.117,0.939,3.587,-42.472,12.687,
49537210,0.015,0.159,0.983,1.732,-33.442,11.007,
49537220,0.06,0.205,1.012,-2.152,-19.442,8.26,
49537230,0.037,0.195,1.021,-4.76,-6.842,7.262,
49537240,0.017,0.222,1.04,-5.022,2.52,5.687,
49537250,-0.036,0.23,1.023,-8.137,7.087,2.975,
49537260,-0.097,0.188,0.996,-11.97,8.995,-3.307,
49537260,-0.147,0.145,0.964,-12.495,9.87,-7.647,
49537280,-0.181,0.14,0.95,-11.165,11.27,-5.512,
49537280,-0.23,0.143,0.937,-9.24,13.51,-2.327,
49537300,-0.255,0.125,0.926,-11.147,15.382,-0.63,
49537300,-0.268,0.127,0.921,-9.817,14.787,-2.292,
49537320,-0.31,0.176,0.914,-9.24,6.457,-2.957,
49537320,-0.187,0.158,0.93,-10.202,-1.645,-3.78,
49537330,-0.228,0.22,0.897,-9.642,-12.04,-0.192,
49537340,-0.065,0.031,0.943,-12.145,-9.432,-0.595,
49537350,-0.034,-0.139,1.031,3.622,12.897,-1.47,
49537360,-0.292,0.104,1.089,16.082,22.487,1.47,
49537370,-0.324,0.214,1.037,3.885,17.972,6.877,
49537380,-0.25,0.123,1.022,-4.83,7.07,6.02,
49537390,-0.152,0.091,0.977,-6.212,1.172,7.297,
49537400,-0.148,0.136,0.969,-4.147,0.647,7.787,
49537410,-0.188,0.141,0.966,-3.465,2.957,7.752,
49537420,-0.202,0.086,0.949,-5.46,3.29,10.412,
49537430,-0.189,0.056,0.932,-5.915,1.102,13.86,
49537440,-0.17,0.056,0.93,-4.987,-0.577,15.085,
49537450,-0.176,0.066,0.964,-3.71,-0.962,15.067,
49537460,-0.179,0.053,0.975,-3.797,-0.455,17.01,
49537470,-0.206,0.058,0.97,-2.1,0.332,17.132,
49537480,-0.228,0.077,0.962,-0.665,-0.752,17.272,
49537490,-0.194,0.069,0.943,1.417,-3.885,15.172,
49537500,-0.155,0.091,0.949,4.585,-2.695,12.582,
49537510,-0.192,0.108,0.95,4.077,-3.587,11.795,
49537520,-0.189,0.091,0.945,0.77,-6.3,9.485,
49537530,-0.146,0.078,0.943,1.732,-8.855,7.7,
49537540,-0.149,0.117,0.945,1.942,-10.395,8.715,
49537550,-0.119,0.147,0.951,1.785,-10.36,8.417,
49537560,-0.123,0.168,0.98,1.487,-6.895,6.86,
49537570,-0.163,0.177,1.006,-1.26,-4.392,3.937,
49537580,-0.219,0.192,1.064,-3.727,-3.71,0.14,
49537580,-0.252,0.211,1.065,-6.072,-7.105,-2.852,
49537600,-0.191,0.214,1.029,-9.082,-7.98,-5.197,
49537600,-0.155,0.206,0.981,-8.452,-4.76,-7.56,
49537620,-0.154,0.183,0.949,-9.082,1.05,-6.965,
49537620,-0.2,0.129,0.927,-9.66,2.94,-6.002,
49537640,-0.24,0.09,0.936,-9.065,-0.63,-5.95,
49537640,-0.247,0.07,0.958,-9.415,-8.277,-4.497,
49537660,-0.203,0.071,0.974,-10.64,-13.947,-2.502,
49537660,-0.132,0.086,0.97,-11.55,-13.86,-2.24,
49537670,-0.087,0.09,0.972,-12.88,-8.295,-2.31,
49537680,-0.092,0.061,0.981,-14.42,-3.115,-0.612,
49537690,-0.081,0.024,0.96,-13.685,1.19,-0.63,
49537700,-0.133,-0.001,0.94,-11.357,3.272,-1.032,
49537710,-0.174,-0.005,0.908,-10.395,2.52,-1.05,
49537720,-0.218,0.026,0.908,-7.997,1.662,-4.742,
49537730,-0.241,0.054,0.945,-7.77,-0.017,-7.875,
49537740,-0.218,0.092,0.981,-7.98,-1.26,-9.275,
49537750,-0.19,0.115,1.035,-3.675,-1.732,-7.84,
49537760,-0.178,0.139,1.019,3.57,-1.715,-1.75,
49537770,-0.114,0.18,1.006,7.122,0.052,-4.9,
49537780,-0.125,0.154,0.99,10.185,3.692,-6.475,
49537790,-0.138,0.111,0.901,11.357,4.287,-3.342,
49537800,-0.138,0.134,0.905,13.685,3.885,1.575,
49537810,-0.174,0.159,0.967,11.55,3.92,4.655,
49537820,-0.208,0.129,0.999,6.44,4.252,5.285,
49537830,-0.212,0.114,0.983,2.765,1.172,3.832,
49537840,-0.164,0.128,0.914,2.835,-0.052,2.117,
49537850,-0.21,0.133,0.913,1.627,-0.157,-0.42,
49537860,-0.245,0.134,0.932,-0.577,-2.537,-6.947,
49537870,-0.27,0.193,0.941,-0.35,-11.34,-8.155,
49537880,-0.161,0.194,0.974,-2.537,-19.792,-6.807,
49537890,-0.038,0.146,1.065,-3.745,-15.732,-5.39,
49537900,-0.124,0.152,1.132,-4.007,1.837,-3.815,
49537910,-0.228,0.169,1.094,-11.025,13.002,-3.657,
49537920,-0.218,0.092,1.006,-15.61,15.347,-4.69,
49537930,-0.252,0.053,0.935,-15.085,10.762,-4.865,
49537940,-0.281,0.019,0.892,-14.017,3.062,-3.22,
49537950,-0.292,-0.046,0.873,-12.74,-4.952,-1.4,
49537960,-0.35,-0.089,0.885,-8.925,-15.522,1.785,
49537970,-0.277,-0.033,0.938,-5.862,-26.582,6.667,
49537980,-0.157,0.037,1.011,-4.165,-31.692,11.935,
49537990,-0.084,0.098,1.027,-4.55,-30.607,19.197,
49538000,-0.059,0.149,1.014,-7.91,-26.827,22.172,
49538010,-0.061,0.14,0.95,-12.005,-22.732,19.197,
49538010,-0.104,0.118,0.909,-12.6,-18.48,15.382,
49538030,-0.152,0.077,0.929,-11.69,-18.427,16.17,
49538030,-0.145,0.097,0.961,-7.525,-16.782,13.545,
49538050,-0.149,0.123,0.975,-5.337,-14.402,12.337,
49538050,-0.148,0.122,0.977,-6.755,-11.655,14.017,
49538070,-0.186,0.1,0.963,-7.892,-11.585,14.595,
49538070,-0.166,0.05,0.965,-8.277,-14.805,14.14,
49538080,-0.139,0.033,0.972,-5.285,-16.625,13.142,
49538090,-0.192,0.06,1.013,-2.975,-18.497,12.407,
49538100,-0.243,0.064,1.021,-6.65,-22.102,9.957,
49538110,-0.218,0.056,1.013,-7.892,-27.142,7.402,
49538120,-0.164,0.09,0.994,-5.81,-31.08,9.117,
49538130,-0.104,0.112,0.973,-4.935,-32.497,11.27,
49538140,-0.065,0.12,0.947,-6.492,-30.187,9.432,
49538150,-0.022,0.058,0.963,-8.155,-25.777,4.882,
49538160,-0.102,0.035,0.99,-6.125,-22.085,0.91,
49538170,-0.16,0.027,0.983,-5.495,-25.025,1.19,
49538180,-0.131,0.032,0.963,-4.13,-28.437,2.012,
49538190,-0.098,0.063,0.993,-3.325,-29.207,3.307,
49538200,-0.051,0.082,1.007,-4.637,-27.632,4.585,
49538210,0.067,0.136,1.019,-4.672,-22.75,2.992,
49538220,0.153,0.135,0.995,-5.635,-10.622,2.082,
49538230,0.181,0.121,0.969,-4.917,4.97,-0.402,
49538240,0.179,0.186,1.066,-0.052,19.197,-1.242,
49538250,0.162,0.271,1.222,-4.427,26.197,0.017,
49538260,0.183,0.297,1.333,-18.007,31.307,-0.14,
49538270,0.222,0.27,1.346,-34.072,41.37,-3.622,
49538280,0.156,0.244,1.273,-54.285,57.015,-3.78,
49538290,0.02,0.189,1.171,-73.36,70.42,-1.697,
49538300,-0.1,0.122,1.104,-86.537,81.55,-0.157,
49538310,-0.235,0.015,1.025,-95.917,86.852,6.387,
49538320,-0.349,-0.155,0.999,-90.072,83.387,8.925,
49538330,-0.409,-0.238,1.009,-68.6,70.98,10.325,
49538330,-0.401,-0.252,1.05,-45.045,54.32,16.047,
49538350,-0.447,-0.249,1.027,-25.725,35.525,24.307,
49538350,-0.357,-0.112,1.046,-7.105,21.21,22.015,
49538370,-0.335,-0.108,1.052,0.21,8.032,20.457,
49538370,-0.253,-0.206,1.003,6.317,0.665,14.56,
49538390,-0.086,-0.275,1.014,23.012,1.54,6.65,
49538390,0.076,-0.311,1.044,46.2,21.77,4.83,
49538410,-0.02,-0.233,1.083,73.937,46.9,6.055,
49538410,-0.079,-0.147,1.084,96.705,68.582,-2.817,
49538420,-0.105,-0.067,1.08,110.18,79.625,-15.452,
49538430,-0.162,0.02,1.067,108.517,78.4,-22.207,
49538440,-0.231,0.087,1.028,100.082,69.947,-26.197,
49538450,-0.273,0.113,0.966,90.965,54.652,-32.2,
49538460,-0.267,0.117,0.891,81.847,35.472,-38.185,
49538470,-0.226,0.137,0.828,74.445,16.555,-43.137,
