time[ms],accX[g],accY[g],accZ[g],Value 1,Value 2,Value 3
32125980,0.174,-0.321,0.954,-26.407,42.525,1.82
32125980,0.099,-0.282,0.986,-21.052,38.447,4.077
32126000,0.08,-0.267,1,-17.482,31.027,4.62
32126000,0.079,-0.316,0.985,-16.52,22.942,5.53
32126010,0.119,-0.3,0.981,-12.582,14.84,7.455
32126020,0.177,-0.297,0.963,-11.007,9.047,7.42
32126030,0.185,-0.301,0.971,-10.43,5.145,5.582
32126040,0.154,-0.308,0.988,-10.167,2.24,4.2
32126050,0.16,-0.311,1.018,-9.922,-2.152,2.747
32126060,0.124,-0.295,1.034,-10.552,-8.382,-0.455
32126070,0.089,-0.387,1.063,-12.512,-17.08,-3.447
32126080,0.132,-0.453,1.065,-6.195,-29.155,-8.12
32126090,0.185,-0.378,0.933,5.74,-38.605,-12.687
32126100,0.304,-0.188,0.892,17.605,-38.99,-13.177
32126110,0.325,-0.258,0.844,12.53,-32.777,-11.357
32126120,0.311,-0.238,0.843,14.49,-24.937,-9.537
32126130,0.321,-0.201,0.851,13.772,-17.22,-7.297
32126140,0.299,-0.236,0.856,9.327,-10.43,-5.267
32126150,0.304,-0.218,0.862,7.542,-4.48,-3.482
32126160,0.292,-0.215,0.864,3.797,0.927,-1.89
32126170,0.293,-0.213,0.879,-0.175,5.827,0.42
32126180,0.289,-0.228,0.877,-3.99,10.097,2.572
32126190,0.274,-0.222,0.891,-6.965,14.35,4.655
32126200,0.272,-0.23,0.894,-10.08,17.92,6.65
32126210,0.255,-0.249,0.908,-11.952,21.315,7.98
32126220,0.223,-0.268,0.935,-12.25,23.065,8.627
32126230,0.192,-0.288,0.949,-11.13,22.732,8.452
32126240,0.195,-0.294,0.946,-9.187,20.125,7.612
32126250,0.197,-0.279,0.933,-6.877,18.095,6.685
32126260,0.214,-0.278,0.927,-5.792,16.397,6.142
32126270,0.219,-0.279,0.92,-5.022,16.117,6.02
32126280,0.223,-0.267,0.903,-4.2,15.977,5.897
32126290,0.243,-0.259,0.897,-4.427,17.43,6.335
32126300,0.242,-0.264,0.901,-5.425,19.355,6.79
32126310,0.213,-0.268,0.915,-6.282,21.84,7.192
32126320,0.17,-0.376,0.91,-5.775,22.137,7.542
32126330,0.181,-0.152,0.958,2.607,21.035,7.297
32126330,0.175,-0.319,0.935,-5.95,19.512,5.95
32126350,0.165,-0.324,0.943,-2.327,18.305,6.51
32126350,0.183,-0.276,0.955,3.797,15.907,6.09
32126370,0.199,-0.266,0.949,2.957,14.735,5.775
32126370,0.185,-0.295,0.942,1.4,14.07,5.285
32126390,0.177,-0.286,0.944,2.572,13.545,5.145
32126390,0.19,-0.28,0.938,3.29,12.617,4.882
32126410,0.189,-0.281,0.938,3.255,12.775,4.795
32126410,0.183,-0.282,0.937,3.517,12.582,4.69
32126420,0.182,-0.276,0.935,3.727,12.757,4.777
32126430,0.171,-0.277,0.937,3.727,12.6,4.76
32126440,0.161,-0.273,0.941,3.727,12.075,4.742
32126450,0.161,-0.269,0.944,3.552,10.972,4.585
32126460,0.16,-0.272,0.943,3.01,9.905,4.532
32126470,0.157,-0.276,0.942,2.765,8.82,4.427
32126480,0.163,-0.274,0.939,2.8,8.05,4.427
32126490,0.165,-0.27,0.939,2.817,7.472,4.497
32126500,0.156,-0.27,0.943,2.537,6.965,4.41
32126510,0.167,-0.272,0.938,2.292,6.422,4.217
32126520,0.176,-0.271,0.935,2.415,6.37,4.217
32126530,0.177,-0.268,0.931,2.625,6.93,4.602
32126540,0.178,-0.264,0.931,2.852,7.542,5.057
32126550,0.167,-0.262,0.937,3.167,8.225,5.792
32126560,0.157,-0.272,0.94,3.01,8.242,6.107
32126570,0.156,-0.267,0.94,3.185,8.295,6.247
32126580,0.156,-0.266,0.94,3.22,7.84,6.405
32126590,0.157,-0.267,0.943,3.08,7.945,6.615
32126600,0.153,-0.269,0.941,3.08,7.682,6.825
32126610,0.144,-0.265,0.945,3.115,7.717,7.017
32126620,0.139,-0.267,0.947,2.975,6.737,6.947
32126630,0.143,-0.265,0.946,2.8,6.055,6.912
32126640,0.152,-0.264,0.945,2.625,5.022,6.737
32126650,0.161,-0.272,0.939,2.205,5.127,6.492
32126660,0.173,-0.271,0.943,2.187,5.337,5.932
32126670,0.169,-0.273,0.944,1.75,6.755,5.495
32126670,0.166,-0.27,0.948,1.382,7.595,4.707
32126690,0.164,-0.271,0.946,0.612,8.662,3.99
32126690,0.177,-0.254,0.945,0.42,9.065,3.78
32126710,0.158,-0.257,0.937,-0.315,10.045,3.832
32126710,0.209,-0.232,0.916,-0.052,10.062,4.427
32126730,0.199,-0.21,0.936,0.192,11.777,6.755
32126730,0.132,-0.266,0.934,-2.31,12.617,8.015
32126750,0.129,-0.24,0.949,-1.505,11.497,9.415
32126750,0.113,-0.249,0.954,-2.537,9.205,9.66
32126760,0.081,-0.269,0.963,-4.48,6.86,9.362
32126770,0.084,-0.258,0.971,-5.127,3.097,8.452
32126780,0.104,-0.269,0.962,-7.14,0.56,7.332
32126790,0.108,-0.286,0.958,-8.627,-1.015,5.915
32126800,0.13,-0.293,0.935,-8.732,-1.225,4.882
32126810,0.171,-0.277,0.931,-7.822,-0.42,4.357
32126820,0.172,-0.283,0.902,-7.192,2.047,4.427
32126830,0.187,-0.278,0.917,-6.002,4.602,5.005
32126840,0.166,-0.267,0.932,-4.13,7.297,6.055
32126850,0.144,-0.3,0.934,-4.48,9.397,6.457
32126860,0.14,-0.293,0.943,-2.975,10.447,6.93
32126870,0.117,-0.281,0.954,-2.17,10.85,6.842
32126880,0.098,-0.29,0.955,-2.94,10.342,6.195
32126890,0.09,-0.288,0.959,-3.132,8.96,5.442
32126900,0.085,-0.273,0.962,-3.675,6.72,4.742
32126910,0.081,-0.275,0.963,-5.425,4.165,4.112
32126920,0.084,-0.282,0.959,-7.157,1.225,3.29
32126930,0.097,-0.292,0.951,-8.19,-1.207,2.485
32126940,0.112,-0.286,0.96,-8.155,-3.342,1.575
32126950,0.093,-0.281,0.964,-9.24,-5.74,1.54
32126960,0.132,-0.286,0.966,-10.517,-8.942,1.592
32126970,0.124,-0.294,0.959,-11.357,-11.165,1.715
32126980,0.137,-0.302,0.936,-12.477,-12.512,0.91
32126990,0.142,-0.303,0.933,-13.265,-10.99,-0.63
32127000,0.129,-0.377,0.934,-12.897,-9.642,-2.047
32127010,0.117,-0.358,0.945,-6.09,-8.89,-1.102
32127020,0.137,-0.291,0.955,-3.097,-8.697,-1.452
32127030,0.109,-0.328,0.977,-5.197,-8.137,-1.96
32127040,0.171,-0.31,0.988,-5.512,-10.29,-0.787
32127050,0.152,-0.279,0.984,-7.227,-11.515,-0.227
32127060,0.164,-0.268,0.969,-9.222,-13.457,0.507
32127070,0.239,-0.266,0.956,-11.322,-13.352,1.015
32127080,0.209,-0.243,0.923,-12.46,-11.83,1.592
32127080,0.242,-0.21,0.938,-13.037,-8.767,2.047
32127090,0.115,-0.258,0.938,-13.317,-7.35,4.585
32127100,0.233,-0.259,0.863,-13.265,-5.705,9.8
32127110,0.314,-0.244,0.926,-15.365,-1.225,11.847
32127120,0.251,-0.303,0.929,-18.777,5.267,12.232
32127130,0.196,-0.338,0.949,-17.552,9.502,15.277
32127140,0.2,-0.346,0.971,-14.63,10.78,21.595
32127150,0.232,-0.361,0.976,-10.85,15.295,28.682
32127160,-0.243,-0.402,1.102,-2.852,9.66,37.73
32127170,0.194,-0.366,0.699,2.432,-28.735,51.45
32127180,0.586,-0.163,0.812,19.39,-22.697,76.247
32127190,0.225,-0.329,0.816,8.26,-14.035,79.835
32127200,0.266,-0.512,0.803,2.8,-18.847,80.255
32127210,0.395,-0.382,0.86,13.072,-28.262,73.762
32127220,0.411,-0.412,0.889,13.807,-33.985,63.752
32127230,0.409,-0.444,0.86,16.922,-31.692,54.04
32127240,0.283,-0.371,0.884,22.312,-29.732,45.29
32127250,0.233,-0.379,0.878,20.807,-30.66,39.445
32127260,0.218,-0.382,0.857,19.005,-31.587,37.135
32127270,0.149,-0.36,0.851,17.797,-30.1,35.402
32127280,0.079,-0.313,0.854,14.822,-28.805,33.197
32127290,0.034,-0.327,0.855,9.292,-28.21,30.992
32127300,0.023,-0.301,0.866,4.9,-27.807,30.082
32127310,0.034,-0.272,0.898,-0.735,-25.97,30.012
32127320,0.019,-0.291,0.942,-8.225,-24.272,29.977
32127330,0,-0.362,0.994,-13.055,-25.235,29.75
32127340,0.029,-0.392,1.008,-9.975,-28.98,28.052
32127350,0.07,-0.347,0.998,-4.83,-28.472,24.552
32127360,0.023,-0.377,0.995,-4.655,-24.57,21.385
32127370,-0.02,-0.39,0.991,-3.447,-21.332,22.505
32127380,-0.033,-0.42,0.983,-0.717,-21.525,30.555
32127390,0.025,-0.39,0.982,1.382,-21.857,41.737
32127400,0.039,-0.471,0.955,4.69,-19.827,57.12
32127410,0.163,-0.483,0.923,13.405,-13.212,72.047
32127420,0.186,-0.457,0.881,20.492,-6.772,82.477
32127420,0.348,-0.469,0.793,23.047,-0.297,86.1
32127440,0.447,-0.49,0.761,22.487,5.372,87.342
32127440,0.56,-0.597,0.701,16.082,8.032,79.117
32127460,0.6,-0.697,0.651,10.622,4.777,63.472
32127460,0.512,-0.71,0.641,3.657,-6.545,42.665
32127480,0.441,-0.809,0.656,-10.325,-25.97,21.332
32127480,0.412,-0.95,0.715,-22.855,-44.537,3.412
32127500,0.344,-1.039,0.742,-28.962,-55.51,-7.192
32127500,0.267,-1.024,0.696,-33.302,-52.202,-12.95
32127510,0.115,-0.923,0.683,-43.05,-39.077,-16.135
32127520,-0.001,-0.886,0.739,-63.087,-26.862,-12.337
32127530,0.119,-0.926,0.797,-81.69,-21.122,-1.54
32127540,0.309,-0.833,0.87,-88.34,-14.77,15.032
32127550,0.46,-0.718,0.916,-93.59,-8.715,30.765
32127560,0.608,-0.627,0.927,-100.52,-7.822,38.71
32127570,0.696,-0.51,0.927,-105.682,-13.702,39.2
32127580,0.663,-0.483,0.816,-105.052,-25.812,33.39
32127590,0.72,-0.089,0.865,-81.55,-42.7,14.927
32127600,0.411,-0.158,0.608,-108.43,-59.605,7.56
32127610,0.366,0.096,0.487,-94.902,-77.367,14.402
32127620,0.205,0.361,0.491,-101.08,-91.455,25.165
32127630,0.137,0.296,0.476,-113.26,-96.145,41.212
32127640,0.021,0.404,0.516,-106.925,-93.66,58.03
32127650,-0.245,0.436,0.492,-98.875,-91.56,75.827
32127660,-0.737,0.441,1.396,-82.6,-109.847,84.245
32127670,-1.556,0.054,1.031,-50.697,-207.812,71.487
32127680,1.02,-0.008,1.905,42.945,-81.217,95.06
32127690,1.951,-0.422,0.613,149.765,111.58,142.24
32127700,-0.102,-0.383,0.702,183.907,136.587,12.092
32127710,-0.648,-1.814,0.951,95.777,127.015,-44.03
32127720,-0.011,-1.085,0.906,136.377,104.212,-15.907
32127730,0.12,0.727,1.082,193.725,83.667,-35.927
32127740,0.272,-0.252,1.051,141.015,67.987,-36.382
32127750,0.127,-0.763,0.989,127.05,57.155,-28.175
32127760,0.145,-0.212,1.065,141.61,40.81,-28.157
32127760,0.339,-0.19,1.068,126.717,33.005,-26.11
32127780,0.504,-0.298,1.019,115.027,32.445,-16.117
32127780,0.602,-0.132,1.065,111.247,43.785,0.56
32127800,0.414,-0.225,1.148,94.762,59.307,18.217
32127800,0.072,-0.2,1.22,74.287,63.577,27.58
32127820,-0.119,-0.187,1.203,52.36,51.782,25.55
32127820,-0.155,-0.229,1.141,31.43,33.145,17.202
32127830,0.04,-0.256,1.039,16.677,15.137,9.275
32127840,0.123,-0.3,0.97,7.997,4.917,6.807
32127850,0.135,-0.321,0.943,5.005,-0.507,7.805
32127860,0.166,-0.338,0.916,3.815,-2.432,8.54
32127870,0.178,-0.343,0.922,4.095,-2.782,8.61
32127880,0.189,-0.301,0.947,5.215,-2.152,9.852
32127890,0.183,-0.306,0.957,3.64,-2.397,10.465
32127900,0.199,-0.268,0.972,2.03,-2.765,11.322
32127910,0.205,-0.261,1.001,-4.357,-3.465,10.885
32127920,0.189,-0.224,1.055,-12.127,-5.547,12.302
32127930,0.156,-0.211,1.111,-23.275,-9.887,13.86
32127940,0.166,-0.214,1.181,-40.11,-15.697,14.157
32127950,0.217,-0.171,1.3,-60.637,-22.137,14.42
32127960,0.064,-0.129,1.471,-87.062,-30.66,20.177
32127970,0.575,-0.179,1.351,-125.247,-59.937,32.48
32127980,0.09,-0.103,1.457,-151.375,-75.617,47.022
32127990,-0.326,-0.198,1.445,-190.435,-121.152,62.912
32128000,-0.315,-0.768,1.266,-213.64,-181.072,58.432
32128010,0.018,-0.884,1.064,-198.222,-216.737,49.84
32128020,0.202,-0.871,0.912,-169.575,-229.407,59.955
32128030,0.536,-1.26,0.568,-137.357,-247.047,67.182
32128040,0.791,-1.614,0.864,-66.64,-217.647,129.815
32128050,-0.88,-1.865,0.908,18.27,-102.41,228.952
32128060,0.459,-0.893,-0.088,225.785,-10.517,382.095
32128070,1.997,1.562,-0.059,233.922,20.597,355.075
32128080,1.556,1.381,-0.365,69.685,41.405,113.872
32128090,-0.035,0.234,-0.366,31.045,51.45,-106.33
32128100,-0.45,1.844,0.058,40.95,16.152,-198.327
32128110,-1.176,0.223,-0.254,-64.872,-8.33,-195.195
32128120,-1.45,-0.524,-0.492,-28.787,-28.647,-98.997
32128130,-0.794,-0.026,-0.437,40.092,-34.44,-15.155
32128140,-0.601,-0.635,-0.613,17.255,-18.147,3.885
32128150,0.607,-1.587,0.902,-12.442,7.595,-46.445
32128160,1.596,-1.998,-1.229,73.22,234.272,-93.205
32128170,-1.703,0.121,1.743,443.257,210.77,-119.297
32128170,1.805,1.978,1.568,483.507,129.132,-69.842
32128190,1.531,-1.527,1.846,275.922,302.242,33.302
32128190,-1.05,0.608,1.997,235.042,320.425,46.077
32128210,-0.894,0.81,1.655,95.987,108.797,35.402
32128210,-0.655,-0.295,0.968,-69.702,-35.402,13.807
32128230,0.562,-0.44,0.89,-32.445,-72.607,-4.637
32128230,0.232,-0.468,0.809,-55.405,-58.065,-1.627
32128250,0.525,-0.565,0.743,-28.192,-37.52,4.62
32128250,0.389,-0.413,0.825,-20.947,-18.077,2.87
32128260,0.347,-0.433,0.823,-7.98,-3.29,8.137
32128270,0.292,-0.31,0.891,2.957,8.382,10.255
32128280,0.127,-0.144,1.015,3.465,13.895,11.83
32128290,0.229,-0.282,0.936,-6.3,12.145,10.36
32128300,0.178,-0.293,0.924,-9.345,14.07,13.02
32128310,-0.015,-0.366,0.939,-8.715,14.7,13.807
32128320,-0.022,-0.353,0.959,-7.595,10.01,6.842
32128330,0.034,-0.28,0.976,-6.142,2.712,1.487
32128340,0.13,-0.325,0.925,-7.682,-2.695,-1.365
32128350,0.159,-0.302,0.933,-6.597,-3.447,-2.135
32128360,0.192,-0.25,0.962,-6.58,-2.905,-0.612
32128370,0.143,-0.263,0.988,-11.497,-2.782,1.732
32128380,0.102,-0.278,0.988,-16.747,-5.18,3.237
32128390,0.172,-0.318,0.96,-22.085,-6.195,2.047
32128400,0.214,-0.263,1.003,-26.11,-5.792,1.54
32128410,0.325,-0.258,1.026,-32.305,-4.812,3.395
32128420,0.329,-0.219,1.107,-40.582,0.035,8.277
32128430,0.324,-0.175,1.216,-55.737,7.857,11.795
32128440,0.329,-0.124,1.375,-77.297,14.91,13.79
32128450,0.091,-0.299,1.352,-106.715,0.805,20.422
32128460,0.606,-0.308,1.322,-133.367,-30.695,38.01
32128470,-0.088,-0.288,1.311,-150.622,-51.24,55.79
32128480,-0.208,-0.571,1.164,-169.977,-92.137,59.85
32128490,-0.002,-0.644,1.01,-163.1,-121.765,59.955
32128500,0.132,-0.68,0.812,-143.937,-123.375,64.295
32128510,0.362,-0.667,0.693,-116.007,-93.975,52.78
32128510,0.216,-0.652,0.621,-90.667,-59.062,25.007
32128530,0.343,-0.828,0.784,-61.88,-25.217,-4.725
32128530,0.549,-0.869,0.737,-6.037,15.47,-33.617
32128550,0.749,0.277,-0.11,95.707,61.39,-54.67
32128550,-0.486,0.987,-0.121,114.45,74.917,-88.725
32128570,-0.375,0.901,-0.011,37.117,33.495,-179.217
32128570,-0.596,-0.022,-0.001,-40.652,17.692,-211.662
32128580,-0.68,-0.572,-0.127,-55.895,8.662,-160.58
32128590,-0.635,-0.254,-0.33,-6.107,6.51,-107.782
32128600,-0.852,0.006,-0.367,1.627,-0.56,-85.785
32128610,1.025,-1.597,1.264,-45.692,13.422,-66.115
32128620,1.881,-1.998,-0.932,104.492,112.77,-92.102
32128630,0.01,-0.311,0.838,314.51,113.96,-100.152
32128640,1.737,1.968,1.495,353.57,138.302,-59.762
32128650,1.097,-1.314,1.916,232.032,282.712,41.457
32128660,-1.626,0.719,1.998,193.025,257.74,57.89
32128670,-1.504,0.919,1.625,95.27,110.355,43.575
32128680,-0.528,-0.088,1.291,-20.825,-8.382,-1.155
32128690,0.157,-0.547,0.886,-51.345,-50.452,-18.042
32128700,0.253,-0.349,0.866,-38.395,-48.807,-9.8
32128710,0.2,-0.421,0.875,-28.28,-40.547,-5.425
32128720,0.348,-0.417,0.827,-26.775,-32.602,-5.827
32128730,0.401,-0.381,0.808,-15.4,-19.477,-2.012
32128740,0.38,-0.447,0.775,-8.242,-3.605,1.067
32128750,0.406,-0.38,0.822,1.33,13.02,2.887
32128760,0.135,-0.195,0.996,8.015,23.24,6.125
32128770,0.037,-0.281,0.982,2.467,21.192,8.19
32128780,-0.013,-0.318,0.967,-1.085,14.035,6.597
32128790,-0.031,-0.287,0.992,-0.98,6.002,5.092
32128800,-0.049,-0.27,1.005,-3.517,-4.147,3.465
32128810,0.013,-0.261,0.998,-6.982,-13.895,1.33
32128820,0.124,-0.278,0.96,-9.975,-21.63,0.49
32128830,0.194,-0.302,0.932,-11.55,-23.66,1.82
32128840,0.258,-0.264,0.942,-11.497,-22.925,4.935
32128850,0.226,-0.251,0.965,-14.21,-20.65,9.922
32128860,0.225,-0.294,0.95,-18.427,-19.775,13.317
32128870,0.321,-0.27,0.929,-20.527,-16.782,16.695
32128880,0.365,-0.236,0.996,-22.452,-11.655,22.96
32128890,0.451,-0.242,0.995,-27.492,-5.11,32.147
32128900,0.421,-0.291,1.065,-36.557,6.58,41.755
32128910,0.509,-0.241,1.15,-46.007,17.412,51.047
32128920,0.37,-0.294,1.271,-61.985,5.722,67.112
32128920,1.294,-0.354,1.27,-84.595,-20.352,98
32128940,0.393,-0.326,1.328,-101.57,-16.975,119.927
32128940,0.328,-0.773,1.176,-126.507,-54.722,137.97
32128960,0.825,-0.906,1.012,-124.95,-96.18,166.74
32128960,0.706,-0.998,0.657,-97.002,-108.132,185.482
32128980,1.114,-0.945,0.767,-70.245,-109.882,175.91
32128980,0.67,-0.94,0.678,-37.625,-94.71,165.742
32129000,1.455,-1.296,0.442,0.84,-75.197,126
32129000,1.998,-1.043,-0.071,33.757,-34.807,40.74
32129010,0.695,0.102,-0.316,54.705,20.195,-102.97
32129020,-1.053,0.793,-0.187,-0.717,-5.547,-261.327
32129030,-1.693,0.099,0.147,-113.96,-78.19,-307.702
32129040,-1.538,0.03,0.118,-128.677,-130.515,-279.72
32129050,-1.386,1.512,0.197,-60.147,-138.915,-239.767
32129060,-1.624,1.997,0.271,-53.322,-141.872,-243.18
32129070,0.218,1.854,0.137,-74.97,-109.2,-276.71
32129080,0.031,-1.343,1.463,-128.24,237.685,-138.46
32129090,-0.662,-1.998,-1.574,52.132,460.18,-55.177
32129100,1.548,-0.212,-0.355,429.187,305.06,-106.067
32129110,0.781,1.729,1.998,500.605,369.512,-126.07
32129120,-0.666,-0.352,1.972,63.035,407.96,43.505
32129130,-0.667,1.072,1.73,59.08,139.842,53.2
32129140,-1.064,-1.391,0.961,-88.567,-42.822,9.957
32129150,0.92,-0.378,0.768,-28.192,-83.772,-12.862
32129160,0.548,-0.392,0.785,-36.942,-59.15,-13.492
32129170,0.23,-0.43,0.888,-20.195,-36.382,4.305
32129180,0.228,-0.356,0.894,-19.547,-29.575,1.837
32129190,0.577,-0.392,0.74,0.297,-19.005,3.255
32129200,0.24,-0.241,0.926,-2.362,-1.767,7.07
32129210,0.245,-0.337,0.915,-14.525,5.425,4.235
32129220,0.364,-0.304,0.882,-2.835,9.957,11.305
32129230,0.157,-0.322,0.927,1.627,16.922,17.43
32129240,-0.044,-0.306,0.986,-0.245,15.067,18.27
32129250,-0.035,-0.278,0.994,-2.152,7.227,14.21
32129260,0.048,-0.288,0.973,-4.182,-1.837,9.187
32129260,0.159,-0.291,0.931,-7.262,-6.79,7.857
32129280,0.182,-0.304,0.915,-9.205,-7.437,8.102
32129280,0.174,-0.277,0.929,-7.98,-5.652,11.077
32129300,0.121,-0.292,0.943,-8.05,-5.617,12.915
32129300,0.152,-0.305,0.945,-8.697,-6.65,12.442
32129320,0.223,-0.297,0.931,-10.15,-7.157,12.127
32129320,0.236,-0.323,0.923,-11.935,-4.287,14.245
32129330,0.278,-0.318,0.929,-12.477,-0.595,15.61
32129340,0.316,-0.291,0.973,-13.685,4.655,17.972
32129350,0.3,-0.241,1.047,-17.342,9.205,22.837
32129360,0.343,-0.217,1.13,-26.407,12.495,30.205
32129370,0.383,-0.271,1.221,-41.912,14.682,41.825
32129380,0.644,-0.448,1.333,-66.727,-9.572,63.752
32129390,1.003,-0.354,1.233,-98.945,-34.685,108.43
32129400,0.26,-0.412,1.189,-110.985,-57.925,145.407
32129410,0.706,-0.794,1.077,-135.52,-109.795,179.34
32129420,0.895,-0.968,0.844,-110.88,-147.402,223.492
32129430,1.211,-0.95,0.66,-69.772,-175.542,249.392
32129440,0.916,-0.823,0.731,-45.307,-185.36,256.445
32129450,0.414,-0.698,0.543,-8.732,-177.397,271.477
32129460,0.763,-0.505,0.502,24.99,-179.812,263.095
32129470,0.683,-0.645,0.564,48.282,-142.432,223.667
32129480,0.511,-0.723,0.116,66.342,-75.512,143.937
32129490,0.538,0.023,0.083,86.66,-32.725,9.502
32129500,-0.671,0.735,-0.221,86.117,-3.972,-152.705
32129510,-1.597,1.016,-0.694,51.345,-4.55,-252.105
32129520,-1.976,1.183,-0.418,7.385,-33.74,-260.82
32129530,-1.274,0.658,-0.32,-44.31,-41.772,-254.1
32129540,-0.533,0.623,-0.775,-25.27,23.572,-260.592
32129550,-0.752,-1.141,1.88,-8.487,201.267,-210.525
32129560,0.386,-1.998,0.509,157.377,194.775,-110.792
32129570,0.957,1.048,0.989,471.817,360.605,-102.025
32129580,-1.99,1.173,1.998,191.555,324.555,33.197
32129590,0.652,-1.94,0.024,-220.78,28.892,61.88
32129600,-0.821,1.565,1.662,66.465,-52.447,-18.34
32129610,1.143,-1.309,0.481,-69.807,-70.945,-15.785
32129620,-0.029,-0.3,0.977,-15.33,-45.78,4.445
32129630,0.24,-0.197,0.991,-4.707,-45.15,8.26
32129640,0.294,-0.407,0.858,-34.23,-42.892,-2.24
32129650,0.603,-0.402,0.756,-21.7,-33.057,1.96
32129660,0.271,-0.398,0.878,-9.957,-15.47,11.217
32129670,0.343,-0.291,0.865,-4.637,-5.967,9.065
32129670,0.44,-0.379,0.813,-4.742,4.462,10.132
32129690,0.179,-0.335,0.915,1.977,15.89,14.805
32129690,0.076,-0.289,0.977,2.975,16.817,13.125
32129710,0.097,-0.286,0.966,-0.122,12.39,10.605
32129710,0.121,-0.343,0.927,-2.852,7.84,8.435
32129730,0.126,-0.312,0.933,-2.397,5.932,5.792
32129730,0.176,-0.309,0.921,-2.362,4.62,4.27
32129750,0.15,-0.32,0.925,-2.695,4.34,4.287
32129750,0.153,-0.293,0.939,-1.05,3.22,4.48
32129760,0.132,-0.324,0.912,-4.952,2.152,2.397
32129770,0.244,-0.377,0.879,-3.727,2.59,-0.332
32129780,0.223,-0.302,0.918,2.24,5.6,0.262
32129790,0.213,-0.295,0.926,1.365,7.455,0.315
32129800,0.194,-0.322,0.921,0.017,8.82,-0.052
32129810,0.176,-0.296,0.954,-1.102,9.887,-0.682
32129820,0.134,-0.289,0.997,-4.252,8.487,-1.557
32129830,0.1,-0.282,1.016,-8.68,4.987,-1.96
32129840,0.048,-0.25,1.09,-15.75,-0.385,-3.605
32129850,0.023,-0.257,1.142,-30.502,-9.257,-7.7
32129860,0.073,-0.248,1.221,-48.93,-20.457,-13.037
32129870,0.208,-0.178,1.345,-78.855,-27.93,-16.695
32129880,0.481,-0.125,1.306,-116.445,-31.167,-14.63
32129890,0.464,-0.353,1.18,-147.14,-19.442,-6.3
32129900,0.363,-0.657,1.017,-150.465,-2.17,-8.452
32129910,0.535,-0.732,1.001,-128.817,-11.655,18.042
32129920,0.454,-0.567,0.763,-109.235,-36.137,60.287
32129930,-0.091,-0.683,0.616,-95.235,-69.247,78.54
32129940,-0.121,-0.826,0.445,-77.087,-103.022,89.495
32129950,-0.004,-1.162,0.122,-54.967,-134.767,86.66
32129960,0.394,-1.893,0.331,-37.87,-109.707,81.602
32129970,-0.432,-1.764,-0.229,10.552,-63.157,77.525
32129980,-0.481,-0.922,-0.371,81.917,-24.92,70.91
32129990,-1.083,-0.234,-0.346,81.865,-4.585,51.957
32130000,-1.032,-0.296,-0.489,66.36,15.75,46.322
32130010,-1.164,-0.147,-0.557,69.335,33.705,47.39
32130010,-0.743,0.349,1.05,83.23,18.182,15.032
32130030,1.908,1.324,0.502,167.912,-11.182,-99.26
32130030,0.977,1.394,1.58,331.59,-34.755,-229.757
32130050,1.998,-1.95,1.37,170.537,159.897,-114.38
32130050,-0.301,1.318,1.817,259.647,275.52,-25.077
32130070,-1.203,0.696,1.695,88.9,146.65,46.34
32130070,-0.231,-0.773,0.902,-77.157,-19.775,35.157
32130080,0.084,-0.043,1.053,-6.667,-58.17,4.567
32130090,0.789,-0.793,0.665,-44.047,-49.227,-0.28
32130100,0.396,-0.298,0.829,-13.51,-23.327,5.932
32130110,0.203,-0.524,0.863,-11.252,-9.695,12.285
32130120,0.269,-0.273,0.923,-4.27,-4.812,8.767
32130130,0.266,-0.413,0.848,-6.107,-1.172,11.655
32130140,0.357,-0.285,0.85,-0.227,7.962,10.657
32130150,0.351,-0.397,0.834,1.785,19.897,9.502
32130160,0.229,-0.308,0.914,6.317,29.697,11.795
32130170,-0.034,-0.26,1.003,6.107,30.1,11.707
32130180,0.086,-0.284,0.96,2.1,21.63,8.4
32130190,0.006,-0.265,0.988,-1.102,15.487,6.387
32130200,0.022,-0.293,0.97,-5.022,6.685,4.252
32130210,0.141,-0.28,0.942,-6.65,-0.07,2.712
32130220,0.176,-0.28,0.94,-7.245,-2.94,2.432
32130230,0.157,-0.291,0.93,-7.42,-4.27,4.865
32130240,0.211,-0.306,0.915,-6.387,-4.305,6.265
32130250,0.211,-0.321,0.907,-5.005,-1.837,7.35
32130260,0.193,-0.347,0.904,-2.695,0.56,8.277
32130270,0.21,-0.331,0.909,0.035,3.57,7.717
32130280,0.188,-0.309,0.929,1.032,6.16,6.16
32130290,0.18,-0.269,0.967,0.385,8.26,5.67
32130300,0.096,-0.257,0.997,-3.832,6.825,5.127
32130310,0.063,-0.3,0.992,-9.66,3.22,3.43
32130320,0.021,-0.297,1.038,-15.872,-2.38,-1.557
32130330,0.053,-0.246,1.064,-24.797,-9.047,-7.07
32130340,0.024,-0.268,1.123,-36.557,-15.102,-11.06
32130350,-0.007,-0.286,1.157,-49.49,-25.025,-15.225
32130360,-0.003,-0.297,1.208,-66.062,-37.992,-21.577
32130370,0.02,-0.208,1.283,-86.24,-49.77,-25.515
32130380,-0.094,-0.165,1.266,-114.835,-68.617,-25.305
32130390,-0.276,-0.31,1.213,-135.765,-88.235,-36.417
32130400,-0.445,-0.593,1.173,-136.57,-121.59,-58.222
32130410,-0.133,-0.806,1.053,-143.465,-146.422,-70.367
32130420,-0.263,-0.849,1.004,-121.292,-167.037,-85.89
32130420,0.217,-1.292,0.895,-92.855,-168.385,-90.702
32130430,0.181,-1.857,0.996,-41.527,-99.802,-65.642
32130440,-1.172,-1.981,0.792,49.087,64.172,69.107
32130450,-1.998,-1.333,0.578,206.272,138.495,322.367
32130460,-0.18,-0.898,-0.443,314.317,53.9,417.76
32130470,1.589,-0.973,-0.553,245.717,44.415,398.597
32130480,0.941,-0.752,-0.677,153.037,52.342,254.992
32130490,0.415,-1.007,-0.87,85.627,73.92,147.787
32130500,-0.063,-0.693,-1.116,35.595,62.02,64.995
32130510,-0.339,-0.042,-1.183,-23.17,42.787,-4.287
32130520,-0.881,-0.099,-0.728,-108.43,19.862,-36.19
32130530,0.633,-1.211,0.874,-102.76,-100.625,-126.07
32130540,1.998,1.812,0.343,372.4,-8.487,-275.362
32130550,0.729,-0.598,1.144,155.96,262.43,-149.117
32130560,-1.27,0.407,1.934,21.42,196.91,56.052
32130570,0.854,-0.494,0.739,-43.75,-13.212,115.412
32130580,-0.989,-0.501,1.175,-28.07,-50.872,30.747
32130590,1.08,-0.681,0.699,-30.047,-63.927,25.865
32130600,0.272,-0.286,0.913,-18.567,-33.057,14.105
32130610,0.292,-0.389,0.876,-14.962,-21.525,20.982
32130620,0.189,-0.436,0.872,-12.617,-12.495,19.145
32130630,0.396,-0.49,0.804,-6.79,-2.642,14.56
32130640,0.153,-0.241,0.948,0.35,9.835,12.075
32130650,0.084,-0.19,1.016,-4.112,11.252,12.477
32130660,0.218,-0.246,0.947,-10.727,5.355,14.14
32130670,0.108,-0.372,0.905,-12.355,5.722,17.78
32130680,-0.004,-0.377,0.937,-9.607,4.725,14.56
32130690,0.083,-0.294,0.958,-8.452,1.277,8.382
32130700,0.148,-0.323,0.935,-10.99,-2.38,4.76
32130710,0.195,-0.326,0.918,-11.55,-2.1,3.622
32130720,0.164,-0.308,0.944,-11.322,-0.717,2.537
32130730,0.188,-0.298,0.954,-13.177,0.402,1.417
32130740,0.138,-0.3,0.974,-16.205,0.577,0.402
32130750,0.063,-0.323,0.995,-21.035,-0.175,-3.115
32130760,0.088,-0.281,1.024,-27.107,-4.2,-8.942
32130760,0.094,-0.26,1.1,-36.26,-6.055,-13.002
32130780,0.127,-0.245,1.166,-48.755,-11.235,-15.837
32130780,0.105,-0.193,1.262,-67.725,-14.122,-19.022
32130800,0.182,-0.18,1.33,-93.152,-13.16,-22.802
32130800,0.172,-0.167,1.425,-124.197,-7.28,-26.897
32130820,0.147,-0.234,1.477,-154.805,-3.78,-28.297
32130820,0.121,-0.286,1.381,-181.842,-16.8,-24.01
32130830,0.088,-0.198,1.376,-201.547,-37.275,-7.682
32130840,-0.021,-0.209,1.308,-231.525,-61.092,9.152
32130850,-0.111,-0.425,1.423,-251.282,-87.045,15.47
32130860,-0.347,-0.726,1.613,-252.63,-122.342,9.782
32130870,0.26,-1.27,1.432,-227.622,-143.605,-3.447
32130880,0.474,-0.644,0.964,-163.275,-135.66,7.28
32130890,0.077,0.246,0.876,-113.785,-130.112,20.142
32130900,-0.029,0.157,1.121,-90.335,-131.145,14.192
32130910,-0.013,0.795,0.96,-2.607,-89.617,27.842
32130920,0.534,1.642,0.857,123.97,2.607,96.67
32130930,0.154,1.997,0.656,219.765,54.25,47.285
32130940,0.021,1.936,0.503,231.437,76.422,-46.865
32130950,-0.046,1.474,0.2,241.01,81.112,-125.825
32130960,-0.204,1.316,-0.756,264.932,86.887,-168.927
32130970,-0.567,1.9,-0.5,231.875,94.797,-161.385
32130980,-0.518,0.541,0.161,123.235,52.36,-114.135
32130990,1.213,-0.531,0.22,99.767,20.23,-133.997
32131000,1.109,-1.742,0.278,125.982,57.855,-112.682
32131010,1.202,-1.998,-0.734,97.562,376.232,26.18
32131020,0.652,-1.032,0.319,371.752,361.305,-2.572
32131030,-1.998,1.997,1.998,474.6,208.705,21.245
32131040,0.772,-0.56,0.565,-133.525,8.645,69.23
32131050,-1.14,-0.583,0.594,-165.97,-39.637,-18.725
32131060,0.974,0.981,1.231,70.7,-57.96,14.035
32131070,-0.128,-1.605,0.61,-91.875,-35.752,-7.752
32131080,0.378,0.214,1.027,-0.717,-31.307,-7
32131090,0.114,-0.514,0.909,-30.677,-26.39,-4.357
32131100,0.419,-0.391,0.843,-18.095,-25.077,-0.507
32131100,0.296,-0.235,0.914,-0.332,-13.72,3.202
32131120,0.219,-0.387,0.859,-10.115,-4.025,0.927
32131120,0.184,-0.325,0.914,-4.095,0.77,5.022
32131140,0.119,-0.267,0.965,-0.105,1.872,7.787
32131140,0.094,-0.203,1.002,-6.72,-1.225,4.287
32131160,0.167,-0.297,0.913,-13.755,-5.495,4.007
32131160,0.133,-0.374,0.899,-12.355,-3.57,2.152
32131170,0.106,-0.328,0.937,-8.067,-2.73,-1.295
32131180,0.165,-0.322,0.911,-7.175,-3.307,-4.06
32131190,0.142,-0.299,0.937,-6.475,-2.625,-6.3
32131200,0.151,-0.283,0.949,-7.472,-2.87,-7.192
32131210,0.169,-0.325,0.912,-8.732,-4.007,-8.365
32131220,0.177,-0.327,0.906,-8.312,-2.362,-10.307
32131230,0.231,-0.321,0.891,-5.932,0.577,-12.215
32131240,0.294,-0.338,0.874,-3.377,6.195,-13.282
32131250,0.268,-0.292,0.901,-0.42,12.792,-12.285
32131260,0.231,-0.306,0.923,1.225,17.15,-9.607
32131270,0.113,-0.316,0.964,1.557,17.92,-8.295
32131280,0.106,-0.297,0.986,-1.085,14.84,-10.22
32131290,0.141,-0.287,0.997,-6.212,11.497,-12.74
32131300,0.125,-0.3,1.04,-14.945,8.26,-15.522
32131310,0.095,-0.306,1.104,-28.682,3.92,-19.757
32131320,0.035,-0.296,1.228,-47.04,-3.045,-27.37
32131330,0.087,-0.305,1.35,-73.307,-11.147,-39.007
32131340,0.29,-0.238,1.421,-103.81,-12.495,-50.925
32131350,0.545,-0.115,1.403,-137.182,2.187,-56.507
32131360,-0.187,-0.093,1.511,-159.967,17.727,-53.882
32131370,0.357,-0.506,1.233,-196.385,-12.897,-57.68
32131380,0.564,-0.964,0.996,-192.395,-28.997,-37.957
32131390,0.135,-1.06,0.774,-163.397,-35.192,-17.78
32131400,0.351,-1.206,0.467,-136.43,-29.907,-14.577
32131410,0.369,-1.8,-0.02,-116.97,10.64,-25.865
32131420,1.639,-1.998,-0.437,-128.45,80.937,-84.42
32131430,0.436,-1.602,0.021,-61.775,129.885,-136.202
32131440,-0.773,0.03,0.478,-3.78,136.325,-161.945
32131450,-0.897,0.292,0.579,-39.97,98.385,-105.875
32131460,-0.673,0.659,0.387,0.945,50.12,-28.997
32131470,-0.475,1.413,0.193,78.785,18.9,57.837
32131480,-0.048,1.683,-0.123,110.757,0.665,111.002
32131490,0.264,1.622,-1.095,122.255,6.72,120.015
32131500,0.04,1.488,-1.362,135.397,14.84,99.977
32131510,-0.332,0.947,-1.145,103.46,-19.215,118.562
32131510,1.406,-0.23,0.797,33.757,-55.755,43.837
32131530,-0.955,-1.998,-0.142,53.497,-34.3,-141.312
32131530,0.823,-1.331,1.052,477.487,43.365,14.42
32131550,0.372,1.997,1.998,509.39,282.03,83.037
32131550,-1.938,0.78,1.803,13.387,161.402,36.225
32131570,-0.11,-1.503,0.561,-194.25,-59.832,23.502
32131570,-0.506,0.672,1.256,15.19,-113.802,25.97
32131580,1.134,-1.217,0.622,-72.747,-110.442,-1.522
32131590,0.23,-0.037,0.963,-37.8,-75.39,-8.365
32131600,0.42,-0.493,0.869,-41.387,-57.82,5.477
32131610,0.567,-0.475,0.711,-30.082,-41.947,3.587
32131620,0.4,-0.338,0.824,-10.272,-20.02,5.6
32131630,0.286,-0.423,0.873,-19.792,-1.085,3.29
32131640,0.322,-0.271,0.926,-5.705,8.242,3.885
32131650,0.304,-0.286,0.919,-9.73,14.822,6.562
32131660,-0.006,-0.277,0.995,-11.13,18.165,10.92
32131670,-0.126,-0.34,1.012,-13.282,11.795,8.697
32131680,-0.037,-0.284,1.012,-14.945,0.21,1.015
32131690,0.096,-0.337,0.939,-18.935,-7.892,-4.497
32131700,0.136,-0.386,0.9,-18.55,-10.307,-6.982
32131710,0.231,-0.32,0.916,-14.105,-9.135,-6.807
32131720,0.219,-0.282,0.964,-14.7,-6.16,-4.795
32131730,0.115,-0.289,0.991,-17.745,-5.372,-2.397
32131740,0.134,-0.351,0.952,-21.017,-7.945,-3.115
32131750,0.207,-0.353,0.928,-22.032,-7.787,-4.357
32131760,0.252,-0.306,0.981,-22.82,-5.355,-3.395
32131770,0.293,-0.274,1.039,-28.367,-1.995,-0.315
32131780,0.268,-0.249,1.09,-38.43,2.765,3.535
32131790,0.286,-0.257,1.152,-51.835,10.885,6.615
32131800,0.315,-0.27,1.218,-69.405,21,7.962
32131810,0.174,-0.325,1.277,-88.235,28.507,11.987
32131820,0.262,-0.416,1.212,-108.832,10.797,17.92
32131830,0.298,-0.396,1.176,-116.987,-4.497,30.31
32131830,0.28,-0.266,1.194,-126.717,-14.297,40.565
32131850,0.292,-0.407,1.112,-151.987,-23.607,42.857
32131850,0.678,-0.629,1.083,-158.27,-28.717,46.55
32131870,0.513,-0.56,0.929,-143.08,-14.77,61.215
32131870,0.646,-0.564,0.717,-114.537,4.795,60.882
32131890,0.216,-0.518,0.695,-95.865,15.68,49.77
32131890,0.22,-0.617,0.608,-77.665,19.74,35.56
32131910,0.399,-0.713,0.624,-46.865,15.417,12.075
32131910,0.854,-0.682,0.568,0.822,12.635,-31.272
32131920,1.415,-0.479,0.486,62.965,46.322,-102.742
32131930,-0.655,0.286,-0.149,107.17,61.215,-201.512
32131940,-1.363,0.053,-0.004,99.277,30.765,-237.125
32131950,-1.3,-0.143,-0.666,79.187,-3.64,-161.507
32131960,-1.028,0.395,-0.766,111.93,-23.24,-109.235
32131970,-0.747,0.179,-0.787,64.207,-24.692,-83.072
32131980,-0.52,-0.316,-0.707,31.15,-19.985,-71.277
32131990,-0.021,-0.383,-0.808,31.885,-8.557,-104.737
32132000,0.428,-1.696,1.508,-24.08,43.89,-151.165
32132010,-0.562,-1.99,-0.51,228.952,68.582,-128.765
32132020,1.998,1.657,1.998,549.71,189.595,-51.222
32132030,-0.682,1.997,1.998,209.177,329.507,23.747
32132040,-0.422,-0.482,1.348,-64.942,111.755,49.245
32132050,-0.596,0.214,1.268,-15.085,-36.75,36.522
32132060,0.323,-0.502,0.837,-43.015,-74.095,3.517
32132070,0.564,-0.496,0.897,-29.645,-67.655,11.427
32132080,0.232,-0.313,0.931,-29.172,-48.002,18.375
32132090,0.076,-0.46,0.928,-39.077,-41.335,13.405
32132100,0.394,-0.364,0.843,-33.302,-37.117,5.652
32132110,0.358,-0.531,0.75,-25.41,-24.29,6.352
32132120,0.27,-0.356,0.88,-13.72,-8.855,2.642
32132130,0.332,-0.276,0.941,-9.065,-0.472,1.382
32132140,0.161,-0.212,0.963,-12.53,1.837,6.93
32132150,-0.055,-0.417,0.931,-18.497,1.312,8.907
32132160,-0.057,-0.332,1.01,-15.68,-6.02,2.082
32132170,0.018,-0.23,1.025,-18.865,-17.22,-3.097
32132180,0.145,-0.307,0.96,-26.005,-24.745,-3.867
32132190,0.232,-0.341,0.907,-27.37,-28.157,-2.537
32132200,0.271,-0.323,0.906,-26.897,-28.07,-0.647
32132210,0.205,-0.317,0.929,-26.757,-25.147,2.135
32132220,0.234,-0.354,0.883,-25.882,-24.255,3.78
32132230,0.291,-0.393,0.826,-24.027,-19.88,3.85
32132240,0.339,-0.385,0.795,-18.725,-12.425,4.042
32132250,0.395,-0.41,0.755,-10.99,-0.752,6.667
32132260,0.349,-0.418,0.825,-1.032,12.005,9.747
32132260,0.22,-0.338,0.958,3.972,20.667,11.445
32132280,0.105,-0.292,1.031,0.56,20.702,10.307
32132280,0.103,-0.319,1.058,-9.012,16.117,6.912
32132300,0.08,-0.27,1.156,-21.84,9.397,2.31
32132300,0.117,-0.18,1.253,-38.78,2.03,-0.84
32132320,0.151,-0.205,1.273,-63.367,-4.322,-2.485
32132320,0.06,-0.316,1.184,-88.567,-8.855,-5.162
32132330,0.106,-0.49,1.122,-103.075,-17.062,-12.46
32132340,0.138,-0.413,1.134,-109.707,-33.25,-18.83
32132350,0.079,-0.295,1.164,-118.422,-46.777,-22.995
32132360,0.121,-0.403,1.062,-141.575,-52.465,-29.225
32132370,0.322,-0.665,0.939,-152.127,-56.315,-34.912
32132380,0.274,-0.807,0.99,-143.395,-54.792,-31.255
32132390,0.285,-0.79,0.784,-123.672,-43.4,-27.615
32132400,0.08,-1.037,0.657,-101.412,-31.01,-29.382
32132410,0.006,-1.124,0.74,-66.08,-16.677,-30.502
32132420,0.215,-1.679,0.45,-22.05,20.755,-27.632
32132430,-0.496,-1.524,0.085,59.99,56.297,-25.655
32132440,-1.308,0.015,0.326,146.107,27.947,-17.185
32132450,0.103,0.192,0.197,134.785,15.54,54.022
32132460,-0.057,0.013,-0.236,114.642,41.65,89.495
32132470,-0.369,0.531,-0.509,129.097,73.325,85.4
32132480,-0.543,0.616,-0.56,91.367,74.9,85.522
32132490,-0.212,0.071,-0.869,18.2,55.93,58.835
32132500,-0.282,-0.093,-0.965,-18.62,44.485,38.657
32132510,-1.364,-1.067,1.188,-49.787,-15.977,28.98
32132520,1.893,-1.991,-0.575,110.81,-90.772,-150.01
32132530,0.889,-0.594,1.478,407.96,30.677,-105.105
32132540,1.998,-0.136,1.866,333.322,209.335,-25.41
32132550,-1.347,1.996,1.998,232.995,266.875,77.157
32132560,-0.978,0.266,1.487,20.492,102.112,91.175
32132570,-1.016,0.316,1.473,-42.927,-30.59,21.98
32132580,0.785,-0.504,0.84,-70.787,-78.907,21.577
32132580,-0.348,-0.594,0.986,-71.435,-63.542,19.6
32132600,0.114,-0.498,0.849,-62.457,-65.047,2.975
32132600,0.426,-0.507,0.684,-58.607,-57.172,-11.742
32132620,0.645,-0.608,0.627,-41.055,-34.86,-9.852
32132620,0.4,-0.434,0.75,-19.372,-12.092,1.662
32132640,0.286,-0.397,0.846,-6.282,2.747,6.755
32132640,0.203,-0.343,0.957,-3.08,10.675,6.615
32132660,0.139,-0.2,1.042,-4.672,10.272,8.907
32132660,-0.016,-0.267,0.993,-15.697,4.672,10.272
32132670,-0.008,-0.431,0.914,-20.562,-2.73,6.072
32132680,0.088,-0.398,0.917,-17.22,-7.49,-0.892
32132690,0.228,-0.349,0.918,-15.102,-8.907,-5.425
32132700,0.236,-0.341,0.917,-15.82,-6.702,-5.827
32132710,0.216,-0.357,0.913,-17.447,-3.675,-4.812
32132720,0.183,-0.344,0.954,-17.99,-1.032,-4.375
32132730,0.153,-0.295,1.039,-22.05,-0.507,-6.002
32132740,0.242,-0.279,1.018,-30.747,-0.84,-8.347
32132750,0.266,-0.329,1.02,-39.952,3.062,-9.082
32132760,0.278,-0.274,1.096,-48.475,9.187,-7.962
32132770,0.279,-0.263,1.182,-63.7,16.747,-6.65
32132780,0.115,-0.272,1.258,-82.267,17.36,-3.395
32132790,0.381,-0.332,1.243,-106.19,-1.977,0.385
32132800,0.203,-0.239,1.358,-119.665,-13.037,12.442
32132810,0.263,-0.273,1.449,-147.437,-34.562,25.182
32132820,0.234,-0.28,1.436,-174.807,-60.06,45.57
32132830,0.241,-0.111,1.481,-201.25,-92.54,72.205
32132840,0.162,-0.071,1.466,-239.837,-130.777,97.02
32132850,0.344,-0.316,1.61,-285.477,-160.247,110.022
32132860,0.76,-1.069,1.603,-300.317,-172.357,104.93
32132870,0.6,-0.627,1.312,-228.847,-143.115,94.64
32132880,-0.005,0.684,0.839,-134.855,-95.935,91.017
32132890,-0.703,1.312,1.391,-74.865,-80.08,56.21
32132900,-1.078,1.997,1.881,14.77,-109.357,10.902
32132910,0.272,1.547,1.688,158.865,-39.462,102.287
32132920,0.683,1.915,0.763,288.155,23.52,83.142
32132930,-0.155,1.58,0.526,382.357,83.23,-100.257
32132940,-0.221,1.095,-0.056,301.28,75.932,-205.065
32132950,-0.299,0.329,-0.085,186.305,88.777,-210.805
32132960,-0.67,-1.195,-0.52,72.31,86.17,-201.285
32132970,-0.205,-1.747,-0.375,111.685,93.782,-246.295
32132980,0.012,-1.998,-0.33,91.175,120.05,-225.645
32132990,1.889,-1.998,-1.997,68.11,281.155,-264.425
32133000,-1.135,-1.303,0.233,391.212,182.927,-252.787
32133010,1.998,1.997,1.789,536.287,170.642,-145.547
32133010,-0.658,-1.02,1.73,-2.31,267.592,80.29
32133030,-0.599,0.306,1.603,-22.102,99.505,76.58
32133030,-0.776,-0.24,1.185,-20.632,-14.577,23.905
32133050,0.624,-0.503,0.777,-55.352,-44.695,-9.17
32133050,0.313,-0.282,0.922,-35.507,-36.277,-2.38
32133070,0.104,-0.428,0.924,-36.837,-29.382,8.872
32133070,0.201,-0.227,0.938,-35.49,-30.047,6.265
32133080,0.337,-0.458,0.78,-37.415,-23.275,5.985
32133090,0.305,-0.474,0.77,-22.715,-11.007,8.295
32133100,0.251,-0.356,0.879,-7.787,0.227,6.09
32133110,0.228,-0.261,0.946,-6.107,5.39,4.585
32133120,0.179,-0.305,0.944,-10.395,7.052,7.577
32133130,0.089,-0.28,0.951,-7.455,5.775,12.04
32133140,0.125,-0.339,0.931,-7.612,3.517,9.362
32133150,0.077,-0.317,0.966,-6.615,1.557,7.28
32133160,0.109,-0.33,0.932,-9.362,-2.537,3.097
32133170,0.154,-0.327,0.922,-9.467,-3.78,0.507
32133180,0.139,-0.315,0.953,-10.447,-4.13,-1.627
32133190,0.093,-0.299,0.99,-14.28,-5.39,-4.76
32133200,0.217,-0.314,0.951,-20.492,-7.927,-10.237
32133210,0.288,-0.313,0.919,-23.817,-5.355,-11.445
32133220,0.205,-0.356,0.914,-24.465,-0.665,-9.432
32133230,0.112,-0.37,0.962,-23.782,3.202,-11.392
32133240,0.116,-0.358,1.078,-25.76,3.85,-18.795
32133250,0.083,-0.317,1.253,-39.83,2.1,-31.22
32133260,0.221,-0.392,1.283,-65.012,-0.84,-44.467
32133270,0.095,-0.214,1.382,-88.34,3.342,-54.022
32133280,-0.168,-0.254,1.355,-124.915,6.772,-73.745
32133290,-0.127,-0.685,1.152,-151.252,3.237,-94.552
32133300,-0.649,-0.86,1.277,-138.915,-26.81,-106.435
32133310,-0.512,-0.954,0.955,-118.51,-66.972,-111.247
32133320,0.423,-1.638,0.182,-97.335,-54.827,-132.457
32133330,1.047,-1.998,-0.067,-73.027,65.905,-187.88
32133330,-1.617,-1.998,-0.53,-35.647,189.805,-272.335
32133350,-1.522,-1.522,-0.817,68.425,182.332,-275.24
32133350,-1.415,-0.507,-0.015,65.1,151.235,-185.552
32133370,-0.697,-1.337,-0.023,-38.377,122.15,-141.82
32133370,-0.576,-1.205,-0.156,-23.012,116.095,-95.55
32133390,-0.591,0.084,-0.1,11.76,112.297,-57.155
32133390,-0.222,0.457,-0.175,-52.78,99.575,-53.497
32133410,-0.224,0.216,1.208,-120.662,70.157,-74.725
32133410,1.259,0.769,1.412,-56.28,-2.047,-153.51
32133420,1.492,1.997,1.531,219.765,36.172,-199.377
32133430,1.596,1.526,1.199,284.602,-23.73,-251.79
32133440,1.977,-1.832,1.119,139.09,216.86,-51.94
32133450,-1.291,1.431,1.919,161.035,284.952,7.332
32133460,-0.746,0.437,1.472,72.345,134.085,69.667
32133470,-1.393,-0.035,1.268,-41.86,-1.015,33.74
32133480,0.344,-0.277,1.042,-32.812,-74.007,14.612
32133490,0.385,-0.487,0.918,-51.52,-77.367,29.085
32133500,0.29,-0.436,0.864,-37.887,-63.035,34.335
32133510,0.052,-0.641,0.762,-35.595,-48.09,25.48
32133520,0.436,-0.615,0.694,-19.652,-30.765,3.5
32133530,0.588,-0.29,0.813,0.052,-7.035,-2.59
32133540,0.243,-0.315,0.913,-0.542,12.162,6.195
32133550,0.118,-0.313,0.955,2.992,17.482,8.172
32133560,0.08,-0.197,0.997,3.412,15.925,7.595
32133570,0.045,-0.274,0.979,-4.602,12.407,6.177
32133580,-0.009,-0.264,0.983,-7.245,6.632,5.127
32133590,0.018,-0.337,0.959,-11.602,1.085,0.49
32133600,0.103,-0.301,0.949,-11.27,-3.937,-3.885
32133610,0.121,-0.295,0.95,-11.9,-5.74,-4.585
32133620,0.084,-0.283,0.961,-12.687,-8.137,-3.605
32133630,0.093,-0.3,0.965,-15.19,-10.605,-4.007
32133640,0.084,-0.289,0.975,-17.36,-14.035,-5.057
32133650,0.11,-0.295,0.971,-20.457,-16.485,-6.72
32133660,0.204,-0.352,0.919,-23.187,-17.902,-9.117
32133670,0.294,-0.33,0.898,-22.102,-14.122,-8.522
32133680,0.264,-0.317,0.966,-21.472,-9.257,-5.04
32133690,0.254,-0.283,0.995,-22.732,-6.37,-1.12
32133700,0.192,-0.291,1.051,-29.75,-4.025,-0.437
32133710,0.234,-0.256,1.104,-39.585,-1.505,-2.047
32133720,0.261,-0.223,1.165,-53.9,4.62,-3.43
32133730,0.267,-0.277,1.164,-70.577,14.875,-2.187
32133740,0.152,-0.268,1.213,-86.467,19.337,-0.035
32133750,-0.184,-0.222,1.27,-107.31,-1.312,4.235
32133750,-0.13,-0.528,1.001,-127.365,-37.292,-2.31
32133760,0.013,-0.785,0.91,-115.902,-54.985,-11.672
32133770,0.126,-0.686,0.817,-91.367,-56.035,-7.577
32133780,-0.021,-0.796,0.801,-73.202,-51.292,-13.177
32133790,-0.146,-0.975,0.745,-53.707,-54.057,-28.297
32133800,-0.065,-1.199,0.826,-21.77,-62.912,-44.677
32133810,0.453,-1.287,0.588,39.445,-43.102,-66.64
32133820,-0.068,-0.908,0.195,104.912,18.112,-74.532
32133830,-0.955,-0.086,-0.133,129.78,44.397,-63.612
32133840,-1.153,-0.187,0.041,93.362,46.742,-11.165
32133850,-0.573,-0.532,-0.905,69.702,59.622,51.03
32133860,-0.674,0.679,-0.575,93.047,62.475,99.33
32133870,-0.219,0.699,-0.441,4.357,31.062,102.76
32133880,0.199,-0.149,1.396,-59.29,-48.982,10.64
32133890,1.998,-1.25,-0.701,113.977,-48.545,-128.38
32133900,1.702,-0.914,1.707,299.512,143.15,-101.185
32133910,0.355,0.274,1.769,154.77,267.61,-37.992
32133920,-1.507,0.955,1.74,147.175,169.102,64.715
32133930,-0.216,-1.159,0.894,-64.47,40.215,35.297
32133940,-0.625,0.431,1.247,-0.227,-14.577,0.262
32133950,0.364,-0.79,0.805,-34.79,-34.545,16.73
32133960,-0.17,-0.381,0.997,-11.497,-29.452,7.42
32133970,0.194,-0.249,0.977,-12.075,-36.33,3.185
32133980,0.302,-0.269,0.927,-16.1,-33.967,-1.155
32133990,0.345,-0.421,0.853,-19.005,-25.847,3.43
32134000,0.247,-0.272,0.931,-13.685,-15.767,6.737
32134010,0.167,-0.208,0.975,-15.19,-10.43,6.72
32134020,0.317,-0.35,0.875,-19.355,-7.717,6.265
32134030,0.252,-0.387,0.865,-14,1.592,7.42
32134040,0.158,-0.39,0.888,-8.487,9.047,6.37
32134050,0.095,-0.319,0.943,-4.112,12.53,3.937
32134060,0.039,-0.256,0.988,-3.972,9.59,2.625
32134070,0.025,-0.303,0.969,-7.7,4.095,1.417
32134080,0.056,-0.292,0.972,-8.662,-2.047,-0.857
32134080,0.089,-0.244,1,-11.165,-6.65,-2.87
32134100,0.145,-0.234,0.999,-16.537,-10.797,-2.957
32134100,0.125,-0.271,0.995,-22.82,-12.74,-1.767
32134120,0.12,-0.322,0.971,-28.245,-14.98,-2.275
32134120,0.099,-0.31,1.028,-31.517,-15.102,-4.007
32134140,0.109,-0.308,1.053,-37.957,-20.02,-7.245
32134140,0.143,-0.274,1.105,-48.055,-25.2,-9.94
32134160,0.188,-0.262,1.153,-61.285,-28.332,-10.762
32134160,0.105,-0.246,1.214,-79.59,-27.842,-11.69
32134170,0.075,-0.26,1.206,-100.747,-29.802,-15.89
32134180,0.04,-0.314,1.205,-119.42,-36.12,-20.545
32134190,0.047,-0.344,1.136,-134.277,-51.012,-25.427
32134200,0.127,-0.397,1.07,-147.927,-66.482,-28.84
32134210,0.084,-0.322,1.078,-152.18,-87.885,-24.062
32134220,0.002,-0.314,1.022,-161.052,-103.792,-20.667
32134230,0.232,-0.667,0.774,-165.602,-109.392,-30.747
32134240,0.503,-0.848,0.614,-144.042,-94.902,-20.492
32134250,0.416,-0.656,0.585,-111.282,-61.355,-11.182
32134260,0.194,-0.631,0.523,-90.912,-31.762,-24.552
32134270,0.358,-0.992,0.567,-76.037,-3.447,-39.935
32134280,0.814,-1.309,0.52,-45.08,46.987,-47.04
32134290,0.354,-0.573,0.43,13.982,103.547,-67.165
32134300,-0.594,0.416,0.285,59.587,118.965,-87.937
32134310,-0.727,0.649,0.357,53.655,82.092,-90.072
32134320,-0.302,0.462,0.169,65.047,80.29,-37.94
32134330,-0.531,0.904,0.021,114.922,96.635,-11.847
32134340,-0.659,1.154,-0.316,146.755,100.012,5.425
32134350,-0.787,1.085,-0.441,152.95,71.26,10.57
32134360,0.551,-0.992,0.862,121.327,5.04,-38.08
32134370,1.998,-1.998,-1.84,138.862,110.267,-138.687
32134380,-1.097,-0.439,1.103,385.735,229.862,-109.13
32134390,1.359,1.997,1.998,471.135,293.667,-26.337
32134400,-1.998,0.889,1.842,41.86,226.572,65.642
32134410,-0.045,-0.919,0.884,-61.232,30.66,52.955
32134420,-1.004,0.548,1.431,-8.33,-42.49,4.515
32134420,0.548,-1.095,0.671,-70.437,-65.975,8.89
32134440,0.015,-0.136,1.038,-23.45,-58.345,14.367
32134440,0.268,-0.575,0.85,-40.932,-56.7,8.155
32134460,0.336,-0.114,0.927,-14.7,-46.672,6.562
32134460,0.375,-0.563,0.761,-29.522,-31.745,1.4
32134480,0.323,-0.394,0.848,-17.447,-16.782,5.075
32134480,0.416,-0.313,0.851,-6.86,-2.257,5.32
32134500,0.35,-0.329,0.873,-3.797,11.2,6.79
32134500,0.111,-0.317,0.94,1.61,19.512,12.512
32134510,-0.055,-0.281,1.001,2.327,17.937,10.482
32134520,0.046,-0.262,0.998,-2.012,10.202,2.362
32134530,0.09,-0.323,0.946,-6.44,3.307,-1.295
32134540,0.157,-0.319,0.935,-5.792,1.505,-3.325
32134550,0.114,-0.253,0.985,-4.987,0.962,-4.2
32134560,0.136,-0.249,0.995,-9.415,-1.662,-4.9
32134570,0.143,-0.262,0.998,-15.522,-3.937,-5.635
32134580,0.135,-0.275,0.993,-21.997,-5.565,-6.912
32134590,0.155,-0.324,0.985,-28.385,-5.862,-8.68
32134600,0.083,-0.326,1.012,-33.67,-7.84,-10.92
32134610,0.054,-0.284,1.107,-40.425,-13.667,-14.262
32134620,0.058,-0.285,1.199,-53.427,-21.052,-17.955
32134630,0.064,-0.235,1.274,-74.025,-28.315,-22.365
32134640,0.023,-0.226,1.336,-99.277,-33.442,-25.952
32134650,-0.082,-0.225,1.329,-127.575,-42.297,-31.5
32134660,-0.225,-0.375,1.211,-150.902,-64.33,-38.43
32134670,-0.439,-0.393,1.224,-161.472,-101.36,-41.037
32134680,-0.472,-0.362,1.181,-168.245,-148.557,-45.36
32134690,-0.514,-0.613,1.087,-181.842,-183.557,-67.83
32134700,-0.244,-0.969,0.932,-172.567,-205.31,-94.255
32134710,0.038,-1.525,0.765,-142.677,-198.572,-112.227
32134720,0.456,-1.831,0.634,-96.547,-135.17,-124.46
32134730,0.311,-1.998,0.251,-34.842,19.057,-100.467
32134740,-1.736,-1.835,0.175,54.267,118.142,-53.795
32134750,-1.424,-1.371,-0.072,86.52,92.33,-37.24
32134760,0.034,-1.129,-0.205,83.16,102.62,37.8
32134770,-0.276,-0.877,-0.158,64.995,159.565,65.432
32134780,-0.479,-0.109,-0.239,61.04,189.297,53.235
32134790,-0.72,0.807,-0.638,59.412,187.127,37.992
32134800,-0.317,1.871,-0.885,27.982,181.72,-6.072
32134810,-0.151,1.794,-0.417,-71.557,177.222,-44.747
32134820,1.209,0.357,0.805,-144.62,146.807,-123.462
32134830,1.802,-0.168,0.711,31.99,25.917,-361.392
32134830,1.206,-1.131,0.5,392.84,196.455,-445.235
32134850,1.571,-0.433,1.519,308.56,247.765,-185.762
32134850,-0.278,1.181,1.998,283.237,327.302,26.302
32134870,-0.747,1.16,1.735,82.687,156.52,81.077
32134870,-0.795,-1.02,0.986,-92.767,-12.827,37.012
32134890,0.765,0.203,1.06,-20.772,-67.392,21.472
32134890,0.31,-1.013,0.699,-60.252,-52.535,32.2
32134910,0.053,-0.218,0.989,-20.335,-32.392,37.31
32134910,0.036,-0.619,0.847,-30.625,-28.665,16.642
32134920,0.503,-0.386,0.774,-13.615,-22.522,4.025
32134930,0.24,-0.566,0.821,-14.07,-1.557,3.045
32134940,0.226,-0.126,1.001,0.525,8.872,-0.962
32134950,0.371,-0.34,0.881,-4.095,12.897,1.732
32134960,0.17,-0.37,0.909,0.07,21.297,6.79
32134970,-0.027,-0.331,0.976,4.532,23.695,6.09
32134980,0.039,-0.317,0.96,3.902,18.13,-1.277
32134990,0.075,-0.302,0.964,2.275,13.492,-6.23
32135000,0.108,-0.25,0.99,1.715,9.345,-8.417
32135010,0.165,-0.23,0.995,-1.33,6.492,-7.77
32135020,0.046,-0.26,1.023,-8.347,4.217,-6.702
32135030,0.033,-0.236,1.064,-16.45,-0.927,-9.222
32135040,0.071,-0.211,1.116,-29.575,-8.015,-14.385
32135050,0.107,-0.221,1.18,-47.215,-13.475,-17.85
32135060,0.098,-0.176,1.313,-67.48,-20.702,-20.562
32135070,0.099,-0.199,1.399,-96.04,-23.047,-22.085
32135080,-0.012,-0.203,1.366,-123.235,-27.195,-23.222
32135090,-0.209,-0.182,1.382,-145.022,-49.98,-21.875
32135100,-0.455,-0.161,1.303,-165.095,-98.98,-17.832
32135110,-0.528,-0.448,1.347,-190.085,-152.215,-18.935
32135120,-0.729,-0.65,1.423,-195.72,-212.432,-35.332
32135130,-0.438,-1.085,1.204,-180.197,-262.447,-64.715
32135140,0.028,-1.154,1.076,-143.937,-274.907,-76.37
32135150,0.432,-1.276,0.527,-110.127,-230.037,-60.637
32135160,0.221,-1.492,0.224,-52.692,-115.115,-18.847
32135170,-1.712,-1.689,0.728,23.852,-33.32,43.522
32135170,-1.585,-1.722,-0.019,102.077,4.83,160.93
32135190,-0.015,-0.561,-0.417,218.855,79.362,308.297
32135190,0.079,0.464,-0.711,236.11,155.522,282.537
32135210,-0.001,0.986,-1.458,192.885,202.195,172.147
32135210,-0.414,1.642,-1.38,132.265,198.852,73.78
32135230,-0.18,1.19,-0.957,3.22,139.212,-18.165
32135230,0.11,-0.504,-0.783,-94.78,93.065,-111.247
32135250,0.321,-1.841,1.262,1.837,-17.64,-229.88
32135250,0.429,-1.695,-0.023,364.997,205.257,-444.5
32135260,0.909,1.637,1.997,488.722,251.107,-179.742
32135270,-1.095,1.308,1.998,194.162,321.842,36.242
32135280,-0.84,0.433,1.55,16.222,109.235,70.665
32135290,-0.955,-0.253,1.285,-63.595,-50.19,11.637
32135300,1.065,-0.417,0.789,-41.457,-89.81,2.625
32135310,0.293,-0.704,0.801,-55.667,-65.38,2.572
32135320,0.135,-0.296,0.916,-34.282,-45.587,9.957
32135330,0.325,-0.558,0.765,-33.197,-34.895,0.98
32135340,0.514,-0.377,0.713,-18.462,-17.815,-4.655
32135350,0.558,-0.48,0.709,-7.507,7.787,3.29
32135360,0.266,-0.339,0.906,6.405,28.77,11.882
32135370,0.156,-0.256,0.983,8.767,35.98,14.595
32135380,0.028,-0.245,1.005,5.337,34.002,16.432
32135390,-0.068,-0.243,1.036,-0.175,26.46,15.54
32135400,-0.108,-0.273,1.032,-4.165,13.737,13.282
32135410,-0.145,-0.32,1,-7.28,-0.052,9.502
32135420,-0.03,-0.341,0.971,-9.257,-11.97,0.367
32135430,0.203,-0.275,0.943,-10.115,-17.605,-5.18
32135440,0.227,-0.247,0.969,-11.795,-16.73,-1.662
32135450,0.189,-0.238,1.001,-15.977,-14.42,3.097
32135460,0.194,-0.311,0.957,-21.35,-13.037,5.075
32135470,0.204,-0.324,0.971,-24.045,-9.415,4.917
32135480,0.215,-0.253,1.041,-27.685,-5.477,4.06
32135490,0.294,-0.262,1.091,-36.522,-0.122,3.92
32135500,0.46,-0.195,1.158,-49.997,10.675,5.705
32135510,0.615,-0.15,1.236,-67.322,33.372,14.945
32135520,0.427,-0.249,1.329,-88.917,55.58,28.962
32135530,0.574,-0.41,1.272,-115.78,36.942,45.99
32135540,0.775,-0.429,1.349,-141.137,12.32,72.782
32135550,0.625,-0.452,1.334,-167.475,-19.967,112.227
32135560,0.55,-0.399,1.486,-190.96,-54.302,149.065
32135570,0.893,-0.281,1.311,-211.662,-70.035,172.41
32135580,1.67,-1.207,1.305,-225.557,-79.38,188.51
32135580,1.005,-1.058,0.823,-188.44,-82.46,188.527
32135600,1.796,-0.193,1.009,-125.667,-112.98,190.417
32135600,1.351,0.041,0.628,-68.425,-106.662,186.48
32135620,1.807,-0.049,0.536,-18.287,-83.807,116.112
32135620,1.706,0.969,0.116,-15.732,-88.252,-42.927
32135640,-0.57,1.811,0.759,67.655,-46.602,-285.6
32135640,-1.426,0.046,0.427,18.935,-66.447,-245.752
32135660,-1.247,-0.295,-0.324,85.207,-99.592,-126.385
32135660,-0.662,0.317,-0.343,152.845,-99.732,-48.107
32135670,-0.31,-0.402,-0.712,86.555,-91.927,-65.887
32135680,-0.271,-0.9,-0.949,50.207,-79.222,-137.252
32135690,-0.633,-0.768,-0.922,20.755,-76.527,-197.347
32135700,-0.908,-1.129,-1.049,-27.597,-77.787,-226.887
32135710,-1.176,-1.46,-0.854,-42.717,-98,-239.557
32135720,1.292,-1.992,0.81,-58.117,101.78,-103.495
32135730,-1.998,-1.998,-0.39,96.04,414.365,244.265
32135740,1.575,0.005,0.898,535.027,294.122,133.56
32135750,-0.77,1.899,1.876,530.372,376.565,22.417
32135760,-0.435,0.385,1.671,160.947,324.187,15.802
32135770,-1.32,1.271,1.837,51.747,75.932,42.14
32135780,-0.587,-1.819,0.725,-155.085,-89.6,12.67
32135790,0.764,-0.536,0.734,-20.527,-108.955,-16.52
32135800,0.357,-0.474,0.86,-33.267,-81.532,-22.68
32135810,0.619,-0.385,0.817,-35.735,-59.85,-11.217
32135820,0.427,-0.365,0.842,-24.465,-39.585,-2.327
32135830,0.622,-0.452,0.737,-19.32,-18.217,0.595
32135840,0.286,-0.319,0.907,-4.655,4.97,10.097
32135850,0.162,-0.295,0.942,-1.732,14.945,5.687
32135860,0.408,-0.361,0.848,-1.785,20.93,1.82
32135870,0.213,-0.286,0.928,5.32,31.535,7.56
32135880,-0.095,-0.263,1.012,5.845,33.232,7.84
32135890,-0.069,-0.294,0.995,2.957,25.97,0.14
32135900,-0.029,-0.302,0.98,1.75,16.695,-8.242
32135910,0.057,-0.234,0.986,0.297,9.975,-12.372
32135920,0.088,-0.243,0.984,-4.305,4.095,-11.34
32135920,0.109,-0.299,0.947,-8.645,0.822,-8.242
32135940,0.073,-0.357,0.922,-8.96,-1.435,-6.125
32135940,0.106,-0.337,0.926,-6.807,-3.22,-5.477
32135960,0.179,-0.33,0.911,-6.825,-4.585,-2.8
32135960,0.198,-0.296,0.955,-6.545,-3.57,4.077
32135980,0.061,-0.279,1.036,-9.8,-5.267,10.465
32135980,0.098,-0.244,1.11,-15.26,-14,17.255
32136000,0.206,-0.188,1.223,-27.702,-25.55,24.937
32136000,0.226,-0.078,1.572,-56.77,-42.385,34.615
32136010,0.203,-0.188,1.82,-105.822,-66.29,47.285
32136020,-0.376,-0.841,1.551,-136.517,-94.867,61.022
32136030,0.551,-1.463,0.83,-134.365,-207.13,82.985
32136040,0.068,-1.916,1.101,-101.745,-205.957,171.78
32136050,-1.336,-1.606,-1.1,-3.15,-274.032,221.672
32136060,1.116,-1.998,-0.15,39.305,-197.225,383.215
32136070,0.05,-1.998,-0.442,34.177,-58.065,532.157
32136080,1.759,-1.14,-0.754,228.637,-21.717,496.877
32136090,1.998,-0.192,0.1,158.812,-3.027,399.367
32136100,1.998,-0.394,0.367,-51.817,21.717,180.932
32136110,1.735,-0.692,0.303,-100.555,73.797,-63.367
32136120,0.19,0.084,0.282,-52.272,93.205,-200.865
32136130,-1.38,1.291,0.106,-35.962,43.925,-300.702
32136140,-1.804,1.4,-0.16,-63.105,-22.4,-351.96
32136150,-1.838,1.223,-0.304,-49.805,-57.592,-313.67
32136160,-1.225,0.803,-0.342,-18.025,-62.527,-202.562
32136170,1.148,0.834,1.263,-42.14,36.592,-90.615
32136180,-1.903,-1.404,-0.147,177.065,183.47,27.177
32136190,1.219,-1.16,1.898,453.32,124.74,31.132
32136200,1.351,-1.247,1.998,291.06,318.482,12.512
32136210,-1.998,1.997,1.998,240.782,242.882,7.7
32136220,0.167,-1.009,1.096,-67.357,6.877,51.31
32136230,-1.538,0.201,1.459,-74.567,-94.185,4.13
32136240,1.329,-0.841,0.618,-61.932,-130.76,-1.277
32136250,0.241,-0.597,0.764,-57.872,-88.147,-7.157
32136260,0.76,-0.611,0.651,-29.19,-61.11,-4.602
32136270,0.767,-0.388,0.704,-20.282,-29.12,-2.187
32136280,0.408,-0.443,0.793,-4.55,0.63,10.482
32136290,0.291,-0.324,0.886,6.545,19.32,15.47
32136300,0.217,-0.303,0.946,8.26,28.035,10.08
32136310,0.297,-0.271,0.923,5.145,32.795,8.837
32136320,0.035,-0.305,0.964,6.405,35.875,11.34
32136330,-0.096,-0.29,1.027,2.31,32.305,8.802
32136330,-0.072,-0.235,1.019,-0.875,20.492,3.132
32136350,0.074,-0.4,0.908,-4.252,12.372,-2.607
32136350,0.085,-0.281,0.96,0.84,10.447,-6.755
32136370,0.051,-0.261,0.976,1.645,8.242,-6.51
32136370,0.058,-0.319,0.963,0.56,4.777,-6.93
32136390,0.166,-0.226,0.977,0.822,3.08,-9.065
32136390,0.207,-0.329,0.912,-3.85,4.655,-9.24
32136410,0.284,-0.378,0.863,-1.977,10.377,-7.595
32136410,0.285,-0.339,0.906,2.187,16.887,-1.785
32136420,0.233,-0.294,0.93,4.83,22.277,5.915
32136430,0.189,-0.275,0.979,4.27,25.427,14.805
32136440,0.207,-0.211,1.056,-0.367,25.602,24.237
32136450,0.232,-0.199,1.139,-9.45,25.515,36.155
32136460,0.192,-0.132,1.285,-24.675,28.472,48.457
32136470,0.062,-0.105,1.466,-47.617,27.667,65.38
32136480,-0.025,-0.096,1.435,-73.762,-46.025,98.367
32136490,1.317,-0.357,1.352,-119.035,-136.71,156.45
32136500,0.556,-0.977,0.99,-138.547,-162.575,200.165
32136510,1.134,-1.455,0.749,-151.935,-176.225,237.107
32136520,1.218,-1.007,0.554,-105.63,-169.907,305.952
32136530,1.219,-0.805,0.626,-77.892,-149.17,340.48
32136540,0.55,-0.698,0.701,-64.505,-144.812,340.095
32136550,1.027,-1.093,0.577,-39.637,-148.995,327.442
32136560,1.944,-1.266,0.473,-20.37,-123.987,286.282
32136570,1.998,-0.382,0.366,33.425,-56.122,190.347
32136580,1.658,1.141,0.341,71.26,-17.22,-21.035
32136590,0.39,1.218,0.264,37.712,-5.862,-269.517
32136600,-1.109,0.665,-0.273,28.087,-14.105,-391.965
32136610,-1.976,1.226,-0.585,75.635,-43.575,-378.945
32136620,-1.888,1.625,-0.249,71.505,-82.897,-308.385
32136630,-1.023,0.503,-0.091,13.072,-86.31,-202.09
32136640,-0.034,-0.157,-0.542,19.95,-44.152,-120.295
32136650,0.674,-1.079,1.241,42.84,187.32,19.53
32136660,-1.696,-1.998,1.591,70.647,329.07,229.915
32136670,1.307,-0.24,1.886,441.525,299.722,127.942
32136670,-1.998,1.997,1.998,384.335,265.912,-38.867
32136690,0.295,-1.348,0.617,-178.797,38.64,32.987
32136690,-1.412,0.635,1.528,-31.465,-73.272,4.112
32136710,1.072,-0.544,0.758,-46.69,-126.49,-1.732
32136710,0.143,-0.744,0.766,-73.605,-99.732,-17.08
32136730,0.756,-0.233,0.817,-23.905,-80.43,-9.817
32136730,0.619,-0.443,0.746,-39.987,-55.002,-6.965
32136750,0.613,-0.547,0.619,-15.767,-28.437,9.292
32136750,0.562,-0.505,0.735,0.77,2.887,12.652
32136760,0.236,-0.179,0.952,29.067,24.15,18.2
32136770,0.196,-0.213,0.995,20.317,28.402,14.42
32136780,0.064,-0.351,0.965,6.387,28.122,12.477
32136790,0.027,-0.263,1.002,6.947,24.465,7.962
32136800,-0.034,-0.312,0.991,1.085,17.92,1.54
32136810,0.057,-0.303,0.961,-2.047,10.43,-5.792
32136820,0.118,-0.275,0.975,-3.71,6.475,-10.202
32136830,0.106,-0.253,0.984,-6.527,4.007,-11.987
32136840,0.116,-0.287,0.972,-11.2,1.995,-14.192
32136850,0.061,-0.277,1.007,-15.155,0.175,-18.305
32136860,0.071,-0.284,0.99,-21.192,-3.342,-23.852
32136870,0.109,-0.364,0.971,-27.737,-5.547,-31.237
32136880,0.205,-0.336,1.017,-33.04,-6.457,-37.887
32136890,0.102,-0.327,1.113,-43.645,-9.73,-41.44
32136900,0.04,-0.352,1.245,-61.407,-19.722,-45.412
32136910,-0.09,-0.184,1.462,-85.715,-40.652,-49.21
32136920,-0.182,-0.11,1.526,-129.08,-78.785,-46.812
32136930,-0.341,-0.423,1.383,-171.36,-119.087,-50.312
32136940,-0.485,-0.541,1.283,-167.72,-152.985,-63.98
32136950,-1.009,-0.986,1.125,-159.337,-184.327,-77.682
32136960,-0.754,-1.608,0.769,-143.622,-232.802,-112.507
32136970,-0.296,-1.422,0.455,-84.035,-223.912,-138.495
32136980,-0.019,-1.81,0.285,-70.367,-142.432,-149.642
32136990,-0.237,-1.982,-0.279,-38.815,-29.732,-100.222
32137000,-1.673,-1.958,0.543,-24.902,79.397,10.605
32137010,-1.082,-1.389,0.233,26.442,93.572,83.58
32137020,0.131,-0.49,0.26,69.212,96.722,144.935
32137030,0.198,-0.382,0.225,38.097,119.63,148.557
32137040,0.049,-0.159,0.145,27.282,142.625,108.57
32137050,-0.223,0.363,-0.214,31.885,164.815,71.365
32137060,-0.5,0.83,-0.735,20.93,171.92,22.312
32137070,-1.481,1.523,0.321,-20.072,130.917,-21.245
32137070,1.54,0.425,0.606,10.08,3.15,-245.07
32137080,1.349,1.906,0.65,250.897,163.257,-436.135
32137090,-0.628,-1.073,1.906,114.712,280.962,-480.48
32137100,1.429,-0.039,0.336,232.347,277.41,-93.572
32137110,-1.998,1.617,1.986,227.272,269.185,63.42
32137120,-0.227,-0.796,0.989,-44.852,91.805,73.097
32137130,-1.011,0.454,1.489,-3.395,-14.087,23.852
32137140,0.612,-0.243,0.863,-43.067,-56.997,28.91
32137150,-0.1,-0.657,0.944,-40.407,-55.317,34.125
32137160,-0.005,-0.475,0.907,-40.915,-53.007,21.192
32137170,0.246,-0.484,0.859,-36.837,-47.39,-2.065
32137180,0.685,-0.325,0.738,-30.8,-33.88,-9.222
32137190,0.557,-0.426,0.743,-22.225,-9.292,6.475
32137200,0.225,-0.373,0.892,-9.31,9.31,16.817
32137210,0.124,-0.269,0.958,-6.475,14.63,16.975
32137220,0.079,-0.335,0.936,-8.802,13.405,15.61
32137230,0.129,-0.382,0.904,-7.56,11.742,13.335
32137240,0.053,-0.268,1.012,-4.165,10.132,12.39
32137250,-0.004,-0.31,0.993,-7.682,2.625,12.092
32137260,0.08,-0.347,0.954,-10.937,-4.987,8.207
32137270,0.093,-0.263,0.988,-11.742,-9.817,6.09
32137280,0.157,-0.272,0.996,-18.2,-13.615,6.597
32137290,0.175,-0.308,0.94,-21.42,-17.22,9.467
32137300,0.16,-0.387,0.896,-21.297,-17.64,9.905
32137310,0.243,-0.399,0.882,-18.812,-14.14,7.297
32137320,0.321,-0.341,0.898,-15.697,-8.155,6.72
32137330,0.356,-0.329,0.919,-16.397,1.155,9.292
32137340,0.399,-0.307,0.989,-19.617,12.232,13.527
32137350,0.418,-0.257,1.134,-27.772,25.567,20.177
32137360,0.399,-0.18,1.269,-45.167,37.887,27.16
32137370,0.281,-0.302,1.38,-75.6,26.022,34.317
32137380,0.839,-0.307,1.314,-107.747,2.817,49.332
32137390,0.236,-0.274,1.39,-119.945,-6.387,70.157
32137400,0.237,-0.371,1.323,-148.26,-39.585,91.035
32137410,-0.008,-0.268,1.249,-164.325,-67.375,115.255
32137420,0.337,-0.476,1.232,-202.212,-100.432,128.555
32137420,0.682,-0.542,1.269,-230.842,-111.702,140.98
32137440,0.839,-0.772,1.036,-212.572,-110.985,148.4
32137440,0.653,-1.193,0.854,-188.282,-113.662,146.37
32137460,1.292,-0.675,0.913,-136.972,-133.84,132.58
32137460,0.721,0.161,0.523,-67.602,-118.755,148.155
32137480,0.921,-0.159,0.825,-26.145,-82.88,124.267
32137480,1.86,0.329,0.406,25.007,-65.555,26.215
32137500,0.299,1.46,0.328,81.375,-30.135,-117.705
32137500,-0.913,0.844,0.622,63.91,-20.352,-229.442
32137510,-0.708,0.05,0.305,74.287,-26.425,-198.642
32137520,-0.777,0.439,-0.072,164.605,8.592,-140
32137530,-1.125,0.509,-0.642,206.57,39.55,-101.447
32137540,-1.094,0.327,-1.274,205.66,40.862,-54.04
32137550,-0.978,-0.08,-1.36,162.592,13.317,-9.187
32137560,-0.64,-0.978,-1.026,83.527,-30.222,19.932
32137570,-0.011,-1.955,-0.791,16.275,-55.685,35.332
32137580,0.775,-1.998,0.644,33.897,134.697,98.7
32137590,-0.244,-1.23,-0.049,393.592,191.38,60.935
32137600,1.366,1.997,1.998,553.63,255.202,-62.667
32137610,-0.569,0.418,1.567,122.272,288.225,2.327
32137620,-1.29,1.682,1.73,-6.842,76.282,44.31
32137630,-0.547,-0.577,1.221,-73.71,-86.362,16.52
32137640,0.424,-0.707,0.817,-83.37,-117.092,-12.25
32137650,0.394,-0.574,0.772,-61.285,-94.78,-14.192
32137660,1.023,-0.616,0.624,-54.355,-66.132,-16.31
32137670,0.814,-0.557,0.542,-26.722,-28.437,-0.595
32137680,0.634,-0.383,0.779,4.585,9.362,17.237
32137690,0.222,-0.423,0.92,-6.527,35.717,14.98
32137700,0.106,-0.142,1.032,10.237,41.37,13.737
32137710,0.149,-0.316,0.962,-4.672,39.672,5.6
32137720,0.057,-0.267,0.984,-2.66,37.59,5.67
32137730,-0.064,-0.311,0.983,-4.917,33.617,3.482
32137740,-0.165,-0.377,0.967,-5.25,24.605,-2.205
32137750,-0.057,-0.324,0.985,-4.532,14.087,-12.127
32137760,0.104,-0.232,1.001,-5.442,4.9,-17.202
32137760,0.039,-0.266,1.009,-11.375,-0.717,-13.895
32137780,-0.006,-0.275,1.027,-18.83,-7.945,-13.562
32137780,-0.036,-0.264,1.041,-26.985,-15.785,-16.677
32137800,-0.048,-0.285,1.064,-37.73,-25.375,-22.487
32137800,0.069,-0.34,1.043,-47.477,-34.457,-28.367
32137820,0.079,-0.285,1.115,-55.475,-39.165,-33.722
32137820,0.101,-0.25,1.175,-66.867,-42.647,-39.165
32137830,0.223,-0.234,1.19,-89.792,-38.78,-47.932
32137840,-0.067,-0.1,1.333,-110.11,-0.595,-60.795
32137850,0.127,-0.495,1.265,-147.28,-4.287,-70.84
32137860,0.253,-0.321,1.215,-153.492,-25.62,-62.387
32137870,0.303,-0.173,1.241,-160.86,-58.17,-43.277
32137880,0.24,-0.181,1.208,-181.23,-87.412,-19.88
32137890,0.121,-0.468,1.06,-200.865,-109.935,-11.83
32137900,0.289,-0.949,0.978,-186.48,-127.592,-5.442
32137910,0.451,-1.089,0.599,-143.832,-113.522,10.727
32137920,0.783,-0.862,0.571,-98.175,-60.882,19.792
32137930,0.95,-1.381,0.66,-76.685,28.14,33.705
32137940,-0.443,-1.522,0.496,-14.84,102.97,40.25
32137950,-0.735,-0.487,-0.038,80.885,94.29,64.26
32137960,0.615,0.086,0.087,103.565,76.877,102.252
32137970,0.839,0,-0.231,71.312,88.427,49.262
32137980,0.037,0.234,-0.523,92.75,106.662,-27.247
32137990,-0.504,0.847,-0.604,140.63,99.26,-70.35
32138000,-0.694,1.007,-0.683,98.437,67.41,-85.155
32138010,-0.562,0.493,-0.641,45.29,43.225,-70.402
32138020,-0.39,0.401,-0.552,12.372,22.61,-54.46
32138030,-0.661,-0.04,0.887,17.377,-6.527,-49.087
32138040,1.304,-1.998,0.259,66.395,-35.262,-110.6
32138050,1.045,-1.993,0.049,371.192,45.045,-96.25
32138060,1.996,1.435,1.998,529.952,133.682,-88.322
32138070,0.492,1.81,1.963,307.667,280.21,-27.632
32138080,-1.772,1.823,1.937,54.6,178.395,30.502
32138090,-0.213,-1.1,1.008,-82.197,-23.362,43.12
32138100,-0.375,-0.127,1.17,-56.42,-79.31,-13.51
32138110,1.096,-0.874,0.621,-66.797,-77.717,-13.037
32138120,0.39,-0.432,0.73,-31.815,-43.645,-1.522
32138130,0.499,-0.386,0.863,-15.33,-20.457,16.38
32138140,0.359,-0.42,0.835,-20.755,-2.31,21.98
32138150,-0.032,-0.509,0.893,-4.935,9.415,22.05
32138160,0.154,-0.277,0.959,-3.692,10.395,8.19
32138170,0.154,-0.121,1.032,-2.537,8.68,7.542
32138170,0.015,-0.279,1.001,-10.867,1.365,12.88
32138190,-0.067,-0.237,1.031,-14.577,-7.717,13.212
32138190,-0.04,-0.239,1.012,-20.335,-18.392,8.4
32138210,0.02,-0.396,0.937,-26.582,-25.777,0.84
32138210,0.128,-0.328,0.939,-25.077,-30.117,-5.162
32138230,0.292,-0.305,0.891,-25.095,-29.627,-7.612
32138230,0.33,-0.359,0.838,-23.31,-23.345,-5.197
32138250,0.297,-0.368,0.891,-17.815,-11.427,-0.227
32138250,0.209,-0.318,0.935,-14.262,-7.21,2.187
32138260,0.159,-0.359,0.929,-15.75,-6.37,0.77
32138270,0.192,-0.354,0.925,-15.4,-5.897,-0.682
32138280,0.14,-0.335,0.967,-16.31,-5.005,-1.277
32138290,0.109,-0.316,1.009,-19.285,-7.402,-2.555
32138300,0.088,-0.289,1.083,-26.355,-11.9,-5.005
32138310,0.063,-0.268,1.179,-39.375,-18.882,-9.152
32138320,0.067,-0.233,1.264,-59.15,-26.11,-14.087
32138330,0.065,-0.243,1.321,-84.035,-31.5,-19.04
32138340,0.056,-0.252,1.336,-111.195,-37.03,-24.342
32138350,-0.002,-0.272,1.33,-139.527,-50.102,-29.697
32138360,-0.132,-0.281,1.308,-163.555,-80.08,-29.837
32138370,-0.214,-0.326,1.213,-183.225,-125.51,-27.877
32138380,-0.299,-0.602,1.094,-191.082,-164.255,-34.177
32138390,-0.397,-0.975,0.997,-171.552,-203.98,-41.23
32138400,-0.293,-1.009,0.86,-131.687,-234.675,-39.917
32138410,0.03,-1.288,0.541,-92.47,-230.317,-36.68
32138420,0.849,-1.737,0.61,-46.375,-156.695,-19.092
32138430,-0.545,-1.944,0.796,14.035,9.782,54.897
32138440,-1.998,-1.227,0.892,123.147,79.432,191.905
32138450,-0.469,-0.46,0.025,232.96,2.695,275.275
32138460,0.721,-0.276,0.178,196.525,13.947,309.592
32138470,0.082,-0.301,0.058,146.545,53.882,240.03
32138480,-0.335,-0.124,0.076,141.942,71.417,184.817
32138490,-0.286,0.087,-0.405,131.11,75.127,178.325
32138500,-0.176,0.793,-0.867,121.642,90.387,158.305
32138510,-0.531,1.491,-0.646,69.912,100.047,121.432
32138510,-0.08,0.798,-0.561,-11.795,83.72,48.702
32138530,-1.079,0.079,0.929,10.43,33.267,-27.772
32138530,1.998,-1.998,-0.843,91.437,52.972,-444.045
32138550,-1.798,-1.963,1.005,254.24,233.292,-508.462
32138550,1.873,1.827,0.849,450.1,128.572,-227.027
32138570,-1.83,1.724,1.967,176.767,275.747,84.56
32138570,-0.988,-0.765,1.361,-62.86,96.722,126.945
32138580,-0.807,0.061,1.219,-12.285,-40.932,47.722
32138590,0.64,-0.834,0.682,-52.622,-60.655,5.74
32138600,0.312,-0.122,1.005,-22.505,-44.677,3.5
32138610,0.078,-0.452,0.943,-30.012,-41.002,12.775
32138620,0.314,-0.198,0.917,-21.087,-38.29,6.825
32138630,0.377,-0.439,0.811,-30.817,-28.787,2.397
32138640,0.257,-0.343,0.879,-20.667,-15.995,7.087
32138650,0.31,-0.297,0.885,-18.917,-6.72,5.932
32138660,0.419,-0.334,0.832,-15.522,3.867,8.732
32138670,0.276,-0.406,0.845,-8.33,16.905,16.065
32138680,0.013,-0.403,0.912,-0.787,23.905,16.922
32138690,0.033,-0.339,0.956,0.525,22.505,8.172
32138700,0.042,-0.328,0.965,0.262,17.832,2.362
32138710,0.078,-0.295,0.973,-1.785,12.547,-2.152
32138720,0.083,-0.26,0.978,-4.13,8.067,-4.025
32138730,0.121,-0.274,0.973,-8.855,4.025,-4.917
32138740,0.108,-0.274,0.983,-12.075,1.295,-4.27
32138750,0.161,-0.299,0.951,-16.152,-0.35,-4.847
32138760,0.206,-0.31,0.929,-18.182,1.75,-5.425
32138770,0.199,-0.357,0.921,-18.672,5.057,-5.215
32138780,0.232,-0.305,0.953,-16.765,7.402,-3.552
32138790,0.243,-0.296,0.998,-21.052,11.48,-2.502
32138800,0.248,-0.268,1.056,-27.352,15.837,1.05
32138810,0.204,-0.264,1.123,-38.307,21.98,3.797
32138820,0.201,-0.272,1.206,-54.372,27.877,5.88
32138830,0.071,-0.26,1.331,-73.202,28.91,7.525
32138840,-0.072,-0.334,1.43,-102.672,-7.122,8.347
32138850,0.299,-0.29,1.348,-127.872,-35.105,17.062
32138860,0.169,-0.192,1.327,-139.842,-29.697,19.215
32138870,0.264,-0.295,1.191,-168.49,-23.397,12.425
32138880,0.184,-0.304,1.123,-181.947,-21.245,19.057
32138890,0.146,-0.366,1.165,-191.625,-13.422,13.317
32138900,0.146,-0.477,1.098,-197.837,4.812,-4.462
32138910,-0.079,-0.815,1.014,-183.802,20.807,-15.435
32138920,0.128,-1.085,0.763,-149.607,23.712,-17.5
32138920,0.386,-0.612,0.49,-99.715,31.185,-10.307
32138940,-0.159,-0.104,0.402,-58.887,44.782,-13.51
32138940,0.841,-0.329,0.524,-31.78,53.27,-37.992
32138960,0.013,-0.3,0.357,3.85,70.962,-99.067
32138960,-0.167,0.523,0.058,79.362,94.762,-103.32
32138980,-0.816,0.485,-0.076,88.025,75.215,-60.515
32138980,0.123,0.486,-0.798,118.545,42.122,-25.97
32139000,0.088,0.758,-0.632,130.462,16.747,-4.952
32139000,0.513,0.291,-0.726,69.457,-19.932,-28.595
32139010,0.625,-0.129,-0.834,58.292,-37.31,-54.11
32139020,-0.246,-1.309,1.088,35.945,-48.737,-61.25
32139030,-1.496,-1.998,-1.403,74.9,-50.802,-135.835
32139040,1.602,-0.879,0.797,384.055,22.032,20.247
32139050,0.697,1.997,1.181,554.855,12.495,42.07
32139060,1.998,-0.566,1.908,291.392,140.262,2.502
32139070,-0.529,0.247,1.956,153.457,249.235,5.075
32139080,-1.765,1.169,1.843,128.765,98.14,66.797
32139090,-1.075,-1.524,0.848,-155.417,-48.58,10.185
32139100,-0.039,0.174,1.134,-29.732,-110.372,-7.507
32139110,0.908,-0.887,0.48,-59.815,-99.032,-5.39
32139120,0.199,-0.383,0.889,-17.832,-63.787,-9.17
32139130,0.768,-0.585,0.736,-31.797,-45.867,-5.337
32139140,0.335,-0.246,0.883,-2.065,-22.102,10.255
32139150,0.217,-0.447,0.854,-4.182,-7.28,10.745
32139160,0.393,-0.197,0.935,2.222,1.155,6.912
32139170,0.107,-0.095,1.039,-2.66,6.055,7.752
32139180,0.115,-0.29,0.941,-10.307,1.697,12.197
32139190,0.049,-0.308,0.967,-10.552,-0.175,11.41
32139200,-0.04,-0.29,1.003,-11.427,-5.32,7.945
32139210,0.055,-0.373,0.925,-14.315,-12.617,2.66
32139220,0.188,-0.379,0.886,-12.425,-14.402,-3.045
32139230,0.25,-0.318,0.895,-7.735,-10.377,-3.955
32139240,0.194,-0.276,0.941,-6.055,-5.897,-2.52
32139250,0.183,-0.279,0.943,-7.227,-3.675,-0.787
32139260,0.163,-0.318,0.927,-8.872,-2.992,-0.875
32139260,0.178,-0.348,0.908,-8.26,-0.98,-1.47
32139280,0.193,-0.301,0.94,-6.44,1.05,-2.31
32139280,0.194,-0.281,0.941,-7.665,3.325,-2.677
32139300,0.213,-0.328,0.927,-8.435,5.355,-1.802
32139300,0.2,-0.302,0.931,-7.787,8.802,-0.857
32139320,0.075,-0.304,0.998,-8.697,10.902,-1.522
32139320,0.145,-0.265,1.034,-13.072,7.892,-5.792
32139330,0.147,-0.189,1.132,-21.35,4.795,-8.61
32139340,0.105,-0.17,1.244,-37.642,1.855,-9.835
32139350,0.087,-0.165,1.353,-62.545,-2.572,-13.86
32139360,0.18,-0.122,1.456,-93.38,-0.612,-18.865
32139370,0.156,-0.134,1.474,-126.735,2.94,-23.24
32139380,-0.05,-0.23,1.327,-153.842,-5.547,-26.617
32139390,-0.051,-0.369,1.289,-173.407,-32.095,-27.282
32139400,0.089,-0.323,1.22,-192.08,-51.327,-23.152
32139410,-0.103,-0.292,1.152,-202.177,-66.57,-19.005
32139420,-0.232,-0.319,1.143,-217.997,-86.712,-26.775
32139430,-0.077,-0.997,0.967,-214.69,-106.575,-40.95
32139440,-0.068,-1.355,0.8,-157.447,-114.467,-53.97
32139450,0.057,-1.298,0.375,-83.335,-83.615,-56.595
32139460,0.167,-1.351,0.158,-5.25,-17.062,-49.805
32139470,-0.609,-1.304,-0.104,64.277,51.66,-34.142
32139480,-0.893,-1.15,-0.306,92.015,73.202,3.5
32139490,-0.353,-1.28,-0.59,104.195,78.715,60.252
32139500,-0.057,-0.897,-0.788,122.237,83.335,65.275
32139510,-0.22,-0.559,-0.941,121.292,89.11,60.13
32139520,-0.212,-0.271,-1.252,109.095,83.807,53.182
32139530,-0.137,0.4,-1.432,91.927,75.232,52.71
32139540,-0.174,0.858,-0.991,33.967,46.637,46.34
32139550,0.205,0.146,0.331,-53.917,7.875,17.447
32139560,1.515,-1.215,1.004,35.07,-76.405,-80.727
32139570,-0.196,1.268,0.413,472.535,74.515,-120.47
32139580,1.817,-1.512,1.851,358.855,157.727,-71.522
32139590,-0.435,0.604,1.975,255.395,318.465,-13.58
32139600,-1.24,1.844,1.719,154.91,140.577,45.535
32139610,0.294,-1.722,0.716,-119.7,-29.365,46.305
32139620,-0.555,0.023,1.174,-28.98,-57.732,-7.402
32139630,0.651,-1.108,0.672,-45.01,-60.41,14.892
32139640,0.091,-0.31,0.925,-14.472,-37.8,2.397
32139650,0.415,-0.458,0.864,-15.207,-26.722,2.607
32139660,0.242,-0.36,0.931,-8.715,-13.982,4.025
32139670,0.131,-0.277,0.941,-1.575,-5.687,6.58
32139670,0.106,-0.224,0.97,-4.742,-3.902,0.595
32139690,0.257,-0.207,0.948,-8.452,-2.94,0.017
32139690,0.092,-0.199,0.985,-10.482,-0.98,4.2
32139710,0.035,-0.278,0.976,-13.755,-2.817,9.432
32139710,-0.036,-0.315,0.961,-14.315,-7.752,10.027
32139730,0.069,-0.485,0.868,-14.087,-10.657,4.007
32139730,0.122,-0.34,0.918,-7.262,-9.467,-2.817
32139740,0.129,-0.276,0.95,-3.85,-7.962,-4.97
32139750,0.208,-0.296,0.911,-3.167,-7.21,-3.727
32139760,0.137,-0.266,0.952,-3.22,-3.517,-3.272
32139770,0.095,-0.276,0.951,-4.69,-3.587,-2.66
32139780,0.121,-0.353,0.898,-5.407,-3.99,-3.272
32139790,0.177,-0.328,0.903,-1.785,-2.292,-4.672
32139800,0.198,-0.311,0.912,0.105,1.61,-5.372
32139810,0.196,-0.304,0.929,2.345,5.005,-3.657
32139820,0.163,-0.278,0.936,3.815,7.735,-0.49
32139830,0.07,-0.302,0.963,2.94,8.68,0.21
32139840,0.094,-0.269,0.966,1.89,6.142,-1.067
32139850,0.081,-0.271,0.973,-0.14,3.132,-1.627
32139860,0.076,-0.266,0.971,-1.242,-0.14,-1.015
32139870,0.086,-0.283,0.968,-4.602,-3.045,-1.715
32139880,0.067,-0.286,0.993,-7.49,-6.317,-3.097
32139890,0.125,-0.237,1.013,-10.745,-10.062,-4.217
32139900,0.152,-0.258,1.04,-18.812,-12.74,-5.162
32139910,0.151,-0.24,1.094,-28.665,-15.015,-6.23
32139920,0.235,-0.231,1.125,-43.19,-18.06,-7.245
32139930,0.303,-0.222,1.225,-60.025,-17.5,-4.252
32139940,0.357,-0.198,1.315,-81.812,-14.945,3.552
32139950,0.221,-0.112,1.422,-108.395,-12.04,14
32139960,-0.678,-0.169,1.562,-145.267,-49.49,18.375
32139970,0.557,-0.639,1.183,-178.132,-119.857,18.357
32139980,0.079,-0.729,1.063,-149.747,-141.837,52.08
32139990,0.302,-0.696,0.835,-121.572,-166.985,69.352
32140000,0.026,-1.038,0.453,-105.157,-188.72,84.787
32140010,0.145,-1.714,0.223,-85.207,-211.697,94.57
32140010,-0.891,-1.998,0.041,-45.867,-187.652,138.267
32140030,0.823,-1.995,-0.662,63.805,-79.747,258.79
32140030,0.762,-0.687,-0.469,141.785,-24.867,287.682
32140050,1.762,-0.454,-0.195,8.155,2.94,114.222
32140050,1.035,-1.096,-0.231,-102.095,78.995,-58.187
32140070,-0.25,-0.295,-0.12,-78.365,117.32,-201.127
32140070,-0.754,0.418,-0.215,-70.402,125.055,-263.83
32140080,-1.257,1.212,-0.373,-63.455,124.022,-278.897
32140090,-1.324,1.78,-0.472,-33.967,115.325,-273.157
32140100,-0.669,1.955,0.069,-43.312,112.63,-224.857
32140110,0.131,-0.589,1.559,-8.627,198.607,-161.07
32140120,-0.004,-1.656,-0.048,336.367,239.085,-162.54
32140130,1.998,-1.91,0.846,417.007,207.462,-96.845
32140140,1.855,1.515,1.998,440.44,314.72,-50.347
32140150,-1.956,1.762,1.858,181.685,303.94,22.032
32140160,-0.63,0.833,1.581,13.737,74.812,20.405
32140170,-1.225,-0.841,1.053,-94.815,-53.585,3.307
32140180,0.179,-0.57,0.86,-41.02,-90.422,12.827
32140190,0.179,-0.838,0.798,-47.95,-85.68,1.977
32140200,0.752,-0.274,0.857,-21.21,-71.732,-9.345
32140210,0.445,-0.472,0.832,-28.315,-47.18,-3.447
32140220,0.374,-0.274,0.85,-5.127,-28.875,6.65
32140230,0.564,-0.468,0.759,-5.897,-10.955,5.232
32140240,0.384,-0.282,0.906,1.12,12.337,8.592
32140250,0.141,-0.248,0.972,6.405,23.415,15.925
32140260,0.009,-0.335,0.981,2.572,23.765,14.332
32140270,-0.011,-0.135,1.054,0.42,17.587,8.82
32140280,0.067,-0.455,0.906,-4.007,9.222,7.49
32140290,-0.074,-0.308,0.995,-0.192,6.23,2.765
32140300,0.056,-0.209,1.007,-0.577,-1.592,-3.202
32140310,0.178,-0.28,0.969,-6.317,-5.512,-4.777
32140320,0.123,-0.267,0.992,-9.555,-6.142,-1.82
32140330,0.051,-0.243,1.027,-14.017,-8.12,-1.505
32140340,0.18,-0.306,1.004,-21.122,-11.672,-4.077
32140350,0.291,-0.278,1.024,-27.527,-10.972,-3.92
32140360,0.22,-0.227,1.161,-35.945,-8.557,-0.63
32140370,0.313,-0.155,1.28,-53.742,-11.76,5.18
32140380,0.233,-0.166,1.334,-81.235,-16.065,17.132
32140390,-0.011,-0.351,1.411,-99.207,-24.255,23.992
32140400,-0.794,-0.671,1.433,-103.775,-73.325,32.13
32140410,-0.14,-1.08,0.847,-101.902,-198.187,39.252
32140410,-0.525,-1.353,0.993,-58.485,-223.195,72.24
32140420,-0.628,-1.618,0.88,-14.56,-254.17,68.372
32140430,0.068,-1.875,0.654,61.32,-253.715,74.217
32140440,0.172,-1.899,-0.646,156.17,-109.165,167.335
32140450,-1.979,-0.996,-0.315,206.622,-18.147,277.095
32140460,-0.066,-1.049,-0.702,170.817,-81.445,219.117
32140470,1.713,-1.235,-1.02,80.797,-30.852,138.845
32140480,0.262,-0.77,-0.782,15.802,47.092,18.497
32140490,-0.433,-0.257,-0.671,-65.275,52.045,-119.385
32140500,0.118,0.029,0.893,-149.572,23.012,-199.325
32140510,1.906,-0.005,1.657,-128.45,166.67,-216.002
32140520,0.25,1.792,1.104,184.205,217.805,-309.242
32140530,1.997,0.88,1.274,294.332,218.015,-245.455
32140540,-0.189,-1.768,1.361,-76.422,385.07,80.657
32140550,-1.399,1.491,1.94,107.712,218.54,44.975
32140560,1.544,0.416,0.781,14.717,42.787,63.63
32140570,-1.45,-0.398,1.291,-31.867,23.625,15.82
32140580,-0.125,-0.379,1.057,-14.63,-38.867,28.717
32140590,0.022,-0.578,0.929,-19.022,-57.662,21.385
32140600,0.209,-0.25,0.988,-7.997,-57.225,1.487
32140610,0.698,-0.52,0.773,-18.27,-45.167,2.607
32140620,0.467,-0.365,0.848,-8.4,-19.74,6.16
32140630,0.185,-0.305,0.926,-6.142,-3.342,12.547
32140640,0.233,-0.377,0.901,-5.897,3.78,8.067
32140650,0.224,-0.301,0.929,-3.202,10.622,2.397
32140660,0.11,-0.24,0.976,-1.872,13.93,3.85
32140670,0.008,-0.286,0.982,-4.497,12.092,3.342
32140680,0.03,-0.284,0.972,-6.422,6.51,-0.997
32140690,0.078,-0.325,0.949,-7.472,2.852,-5.215
32140700,0.165,-0.324,0.93,-5.757,1.592,-9.59
32140710,0.147,-0.312,0.939,-3.675,3.535,-10.99
32140720,0.144,-0.319,0.94,-1.4,4.672,-12.25
32140730,0.166,-0.31,0.93,-0.227,6.615,-13.93
32140740,0.153,-0.341,0.922,0.945,8.435,-14.192
32140750,0.123,-0.332,0.931,2.327,10.15,-13.44
32140760,0.081,-0.315,0.945,2.712,9.117,-11.707
32140760,0.015,-0.293,0.973,2.887,6.16,-9.677
32140780,0.034,-0.294,0.973,1.19,-0.21,-9.397
32140780,0.057,-0.304,0.965,-1.19,-5.6,-10.132
32140800,0.037,-0.285,0.977,-2.537,-11.252,-10.447
32140800,0.013,-0.278,0.983,-4.62,-17.465,-10.43
32140820,0.013,-0.285,0.977,-6.475,-25.462,-11.095
32140820,0.055,-0.291,0.96,-7.455,-32.217,-12.267
32140830,0.175,-0.306,0.914,-6.895,-36.627,-13.58
32140840,0.283,-0.292,0.872,-4.707,-34.3,-13.475
32140850,0.363,-0.303,0.839,-1.382,-26.39,-10.867
32140860,0.387,-0.291,0.835,2.957,-13.79,-6.212
32140870,0.329,-0.281,0.862,6.807,-1.12,-1.05
32140880,0.247,-0.27,0.896,9.065,8.662,3.167
32140890,0.186,-0.252,0.924,9.537,13.527,4.515
32140900,0.191,-0.233,0.927,8.68,15.47,4.462
32140910,0.186,-0.221,0.925,7.07,15.977,4.637
32140920,0.197,-0.236,0.916,5.617,16.432,6.142
32140930,0.122,-0.151,0.969,6.912,14.77,8.767
32140940,0.096,-0.212,0.987,-0.245,10.062,10.745
32140950,0.059,-0.218,1.031,-5.092,1.942,12.81
32140960,0.081,-0.105,1.114,-11.06,-9.887,15.102
32140970,0.078,-0.004,1.253,-26.442,-25.235,19.372
32140980,0.071,0.05,1.461,-54.197,-44.257,25.48
32140990,0.202,0.061,1.603,-94.045,-61.722,30.222
32141000,-0.033,-0.086,1.644,-149.59,-64.05,31.92
32141010,0.153,-0.07,1.784,-215.477,-56.455,15.855
32141020,0,-0.053,1.661,-263.655,-63.542,-4.497
32141030,0.026,-0.186,1.496,-309.33,-90.055,-1.767
32141040,-0.173,-0.198,1.465,-335.44,-127.487,16.047
32141050,0,-0.261,1.181,-353.447,-176.015,23.572
32141060,0.125,-0.256,0.881,-338.8,-216.755,19.46
32141070,0.416,-0.653,0.861,-321.562,-220.867,16.887
32141080,0.941,-1.047,0.816,-304.552,-192.01,18.585
32141080,1.26,-1.501,0.838,-262.097,-118.755,22.102
32141100,0.774,-0.766,0.46,-171.815,-25.952,12.127
32141100,-0.187,-0.426,0.517,-79.52,43.33,-12.477
32141120,-0.204,-0.703,0.643,-14.157,36.172,-15.487
32141120,0.19,-0.382,-0.015,83.527,40.355,27.282
32141140,0.393,-0.046,-0.029,135.52,68.862,67.585
32141140,0.075,-0.067,-0.159,132.002,91.577,72.817
32141160,-0.109,-0.206,-0.002,123.147,90.72,57.837
32141160,0.018,-0.425,0.098,118.737,74.042,48.195
32141170,0.127,-0.429,0.168,128.817,58.887,36.855
32141180,0.175,-0.319,0.247,137.06,49.805,19.25
32141190,0.136,-0.299,0.337,134.89,43.382,3.797
32141200,0.143,-0.439,0.373,137.13,36.977,-5.705
32141210,0.241,-0.407,0.419,146.457,31.727,-7.402
32141220,0.242,-0.492,0.444,137.515,29.627,0.035
32141230,0.28,-0.72,0.364,126.367,26.162,-4.847
32141240,0.288,-0.851,0.234,121.31,23.362,-7.525
32141250,0.2,-0.964,0.08,115.955,20.615,-7.98
32141260,0.047,-1.042,-0.064,107.922,13.982,-14.122
32141270,-0.125,-1.047,-0.161,90.282,0.122,-19.775
32141280,-0.122,-1.061,-0.287,67.637,-12.932,-26.127
32141290,-0.179,-0.986,-0.373,49.77,-13.615,-28.945
32141300,-0.409,-0.772,-0.353,31.885,-7.315,-32.445
32141310,-0.436,-0.655,-0.354,6.51,2.275,-43.452
32141320,-0.291,-0.511,-0.041,-13.492,26.005,-60.655
32141330,1.07,-1.305,1.951,-20.44,58.502,-92.172
32141340,1.967,-1.637,-1.089,242.935,161.735,-154.542
32141350,0.83,1.734,1.358,516.04,196.262,-135.992
32141360,1.998,-0.654,1.876,294.84,355.355,-43.872
32141370,-1.316,0.928,1.954,152.512,347.952,7.665
32141380,-0.359,0.222,1.502,75.845,92.715,52.22
32141390,-0.633,-0.664,1.024,-91.612,-30.397,20.807
32141400,0.083,-0.625,0.911,-39.882,-63.245,-11.252
32141410,0.331,-0.594,0.853,-38.185,-59.657,15.925
32141420,0.345,-0.437,0.852,-20.912,-43.207,3.08
32141430,0.494,-0.501,0.791,-22.19,-25.112,-0.315
32141440,0.292,-0.229,0.943,-2.135,-7.175,5.337
32141450,-0.055,-0.288,0.998,-9.625,-0.805,9.677
32141460,0.075,-0.322,0.953,-8.61,-5.407,3.605
32141470,0.216,-0.323,0.925,-12.39,-5.302,-4.392
32141480,0.09,-0.214,0.985,-8.26,-4.935,1.872
32141490,-0.027,-0.336,0.963,-10.92,-8.225,4.62
32141500,-0.01,-0.262,1.011,-10.535,-14.84,-0.805
32141510,0.1,-0.259,0.974,-12.302,-21.98,-2.957
32141510,0.203,-0.326,0.931,-16.467,-24.29,-4.69
32141530,0.26,-0.249,0.947,-14.455,-21.787,-1.505
32141530,0.195,-0.248,0.977,-16.765,-19.197,3.08
32141550,0.162,-0.274,0.983,-20.79,-18.147,6.317
32141550,0.143,-0.302,0.981,-25.147,-18.812,6.16
32141570,0.198,-0.29,0.956,-29.26,-18.83,4.742
32141570,0.237,-0.313,0.985,-33.215,-15.155,4.935
32141580,0.283,-0.287,1.016,-35.577,-13.282,6.982
32141590,0.341,-0.205,1.083,-40.81,-9.467,10.99
32141600,0.47,-0.228,1.163,-51.905,0.175,17.815
32141610,0.593,-0.117,1.355,-65.887,14.315,31.797
32141620,0.039,0.001,1.594,-99.207,8.155,56.98
32141630,0.372,-0.549,1.21,-150.675,-84.787,72.87
32141640,0.379,-0.9,1.093,-139.755,-121.31,108.115
32141650,0.366,-0.617,0.828,-105.052,-150.342,140.91
32141660,0.389,-0.406,0.712,-77.805,-170.992,170.082
32141670,0.324,-0.6,0.523,-53.375,-179.97,187.162
32141680,0.909,-0.853,0.381,-33.617,-186.252,181.615
32141690,0.473,-0.717,0.505,4.882,-155.207,184.572
32141700,-0.412,-0.287,0.625,64.47,-127.207,190.557
32141710,0.417,-0.113,0.159,127.557,-91.402,209.247
32141720,0.633,0.355,-0.029,170.695,-54.53,155.33
32141730,0.011,0.442,0.099,159.652,-28.437,11.83
32141740,-0.791,0.428,-0.095,121.222,2.17,-116.935
32141750,-1.492,-0.016,-0.52,95.235,18.48,-152.337
32141760,-1.551,-0.143,-0.831,99.557,6.79,-125.475
32141770,-1.01,-1.12,0.969,85.995,-2.59,-59.342
32141780,1.58,-1.998,1.44,103.337,109.777,7.84
32141790,1.88,-0.264,1.762,311.815,332.605,4.882
32141800,-1.997,1.997,1.998,275.712,300.702,16.24
32141810,0.993,-1.056,0.713,-138.477,38.342,36.47
32141820,-0.335,0.028,0.979,-30.117,-53.445,44.905
32141830,-0.485,0.476,1.225,19.687,-77.14,8.137
32141830,1.301,-1.018,0.663,-50.715,-79.292,20.545
32141850,-0.107,-0.064,1.046,-13.51,-55.055,5.652
32141850,0.636,-0.424,0.848,-27.387,-49.805,7.28
32141870,0.566,-0.189,0.817,-21.49,-31.745,7.822
32141870,0.575,-0.59,0.659,-19.495,-7.595,17.395
32141890,0.358,-0.519,0.781,-0.262,19.687,17.57
32141890,0.297,-0.273,0.911,16.135,35,16.292
32141910,0.246,-0.287,0.946,14.7,42.07,16.485
32141910,0.019,-0.299,1.009,9.765,41.125,16.695
32141920,-0.072,-0.222,1.043,5.932,31.29,15.4
32141930,0.029,-0.179,0.993,-2.852,18.13,9.782
32141940,0.023,-0.358,0.931,-7.192,12.495,7.227
32141950,0.074,-0.333,0.949,-4.077,9.17,1.172
32141960,0.217,-0.302,0.912,-1.75,7.21,-1.592
32141970,0.228,-0.34,0.898,-0.507,10.01,-1.802
32141980,0.162,-0.291,0.941,2.537,13.72,-0.927
32141990,0.129,-0.293,0.94,3.622,13.877,-0.402
32142000,0.127,-0.34,0.936,3.272,14.035,-2.397
32142010,0.146,-0.3,0.945,5.932,13.65,-3.255
32142020,0.15,-0.28,0.953,6.177,13.037,-2.992
32142030,0.139,-0.299,0.947,5.477,12.74,-2.537
32142040,0.067,-0.29,0.978,5.547,12.005,-2.362
32142050,-0.012,-0.234,1.031,2.047,6.422,-3.885
32142060,0.056,-0.267,1.004,-4.077,-2.625,-5.547
32142070,0.078,-0.275,1.008,-9.24,-9.642,-6.667
32142080,0.103,-0.262,1.037,-14.892,-16.135,-7.157
32142090,0.149,-0.231,1.119,-22.242,-23.922,-6.195
32142100,0.096,-0.112,1.263,-39.41,-38.115,-2.52
32142110,0.117,-0.221,1.353,-68.897,-59.412,-1.417
32142120,0.089,-0.411,1.354,-94.587,-78.487,-6.492
32142130,0.303,-0.665,1.179,-108.272,-78.557,-16.485
32142140,0.451,-1.149,1.092,-109.76,-56.192,-21.122
32142150,-0.022,-1.241,0.897,-83.405,-45.675,-27.195
32142160,1.096,-1.213,0.702,-52.272,-69.02,-28.91
32142170,-0.035,-1.967,-0.332,-12.302,-23.345,-18.217
32142180,1.655,-1.998,-0.546,-48.475,-2.432,-38.78
32142190,0.106,-1.835,0.113,-42.262,56.49,-17.342
32142200,-0.079,-1.012,0.065,-23.205,75.74,-35.455
32142210,0.317,-0.796,0.193,-62.79,71.505,-30.572
32142220,0.374,-0.49,-0.087,-75.04,84.262,-34.317
32142230,-0.061,0.502,-0.498,-33.617,93.555,-40.687
32142240,-0.525,1.77,-0.635,-10.377,78.487,-45.395
32142250,-0.62,1.541,-0.66,-44.397,41.51,-62.335
32142260,1.134,1.818,0.603,-23.467,42.892,-63.332
32142260,-1.667,0.994,-0.593,247.432,132.737,-77.087
32142280,1.349,-0.708,1.299,400.102,174.877,57.505
32142280,-0.727,0.44,1.093,192.167,297.517,27.615
32142300,-0.581,0.467,1.811,244.58,118.317,50.942
32142300,-0.414,-1.739,0.205,-266.157,-27.195,-0.595
32142320,-0.304,1.127,1.392,49.91,-79.957,-3.552
32142320,0.33,-1.432,0.709,-67.252,-92.487,17.29
32142330,-0.229,-0.186,1.007,-15.627,-85.75,1.592
32142340,1.036,-0.531,0.728,-16.065,-79.712,-0.822
32142350,0.311,-0.244,0.895,-5.302,-49.49,-0.297
32142360,0.26,-0.294,0.924,-5.057,-35.262,8.102
32142370,0.529,-0.46,0.813,-3.832,-25.742,4.707
32142380,0.38,-0.194,0.94,0.14,-7.647,4.112
32142390,0.175,-0.201,0.93,0.035,2.362,12.267
32142400,0.212,-0.411,0.854,-1.942,7.91,12.127
32142410,0.043,-0.27,0.975,2.52,13.037,7.297
32142420,-0.021,-0.269,0.996,3.902,8.907,7.437
32142430,-0.162,-0.342,1.006,-1.732,0.157,-0.997
32142440,0.141,-0.242,0.963,-6.632,-11.672,-11.567
32142450,0.477,-0.286,0.85,-6.44,-11.55,-6.562
32142460,0.159,-0.253,0.93,-2.1,-0.14,4.41
32142470,0.075,-0.311,0.934,-3.377,3.43,4.917
32142480,0.164,-0.295,0.938,-1.767,2.432,1.522
32142490,0.197,-0.297,0.913,-2.17,3.85,0.157
32142500,0.25,-0.343,0.895,-0.735,8.085,0.402
32142510,0.208,-0.289,0.924,2.73,14.332,0.962
32142520,0.132,-0.295,0.953,4.025,17.78,1.662
32142530,0.045,-0.29,0.986,3.867,17.745,1.662
32142540,-0.017,-0.27,1.013,1.452,12.32,-0.735
32142550,0.058,-0.287,1,-3.797,5.32,-4.305
32142560,0.042,-0.271,1.017,-8.505,-1.452,-5.512
32142570,0.033,-0.275,1.036,-14.682,-7.927,-6.335
32142580,0.073,-0.257,1.071,-21.385,-15.785,-8.015
32142580,0.142,-0.238,1.112,-31.255,-22.452,-9.695
32142600,0.238,-0.23,1.18,-45.167,-28.805,-10.062
32142600,0.352,-0.155,1.307,-65.082,-32.917,-6.702
32142620,0.307,-0.103,1.251,-96.285,-29.715,0.017
32142620,0.128,-0.279,1.122,-128.73,-16.817,-4.095
32142640,0.229,-0.662,1.107,-134.61,-14.437,-4.952
32142640,0.049,-0.787,0.973,-114.327,-60.252,5.215
32142660,0.585,-0.754,0.865,-87.307,-72.362,16.205
32142660,-0.16,-0.418,0.775,-58.45,-68.722,19.897
32142670,0.127,-0.766,0.352,-58.065,-93.292,8.785
32142680,1.202,-1.56,0.113,-64.89,-73.43,6.457
32142690,0.684,-1.135,-0.049,-33.092,-1.75,5.075
32142700,-0.703,-0.666,0.12,-12.915,23.187,3.902
32142710,0.412,-0.769,-0.148,-25.305,12.092,4.83
32142720,0.317,-0.141,-0.119,6.65,28.122,-5.827
32142730,-0.193,0.425,-0.184,27.947,46.427,-32.637
32142740,-0.332,0.843,-0.088,52.902,46.287,-52.955
32142750,-0.561,0.644,0.914,103.04,76.877,-35.945
32142760,-0.677,-0.545,-0.038,194.792,108.325,5.197
32142770,1.826,-1.927,1.01,268.03,110.46,36.522
32142780,1.467,-0.991,1.998,312.287,291.182,6.79
32142790,-1.998,1.997,1.729,288.452,240.677,7.315
32142800,0.475,-0.955,0.892,-94.237,40.932,37.415
32142810,-1.384,0.197,1.168,-66.57,-38.062,4.427
32142820,0.365,-0.047,1.057,3.587,-78.26,15.54
32142830,0.063,-1.022,0.733,-56.857,-67.76,12.442
32142840,0.156,-0.282,0.984,2.94,-59.045,6.947
32142850,0.633,-0.299,0.887,-15.067,-48.212,-5.88
32142860,0.363,-0.326,0.897,-8.855,-28.77,3.29
32142870,0.148,-0.35,0.927,-8.365,-16.1,7.42
32142880,0.252,-0.289,0.938,-6.755,-10.885,1.785
32142890,0.247,-0.263,0.936,-6.177,-5.512,1.68
32142900,0.153,-0.298,0.936,-5.512,-0.49,4.97
32142910,0.024,-0.297,0.965,-4.725,1.382,5.355
32142920,0.066,-0.256,0.975,-6.02,-2.082,3.832
32142930,0.031,-0.3,0.957,-8.365,-5.267,3.99
32142940,0.053,-0.351,0.944,-8.225,-8.575,1.54
32142950,0.137,-0.259,0.954,-6.37,-10.36,-0.56
32142960,0.138,-0.284,0.948,-7.052,-11.48,0.77
32142970,0.175,-0.318,0.926,-7.367,-10.657,2.572
32142980,0.139,-0.273,0.965,-5.302,-9.327,4.322
32142990,0.155,-0.275,0.958,-7.122,-9.135,5.057
32143000,0.218,-0.332,0.919,-8.172,-8.47,5.932
32143010,0.235,-0.322,0.925,-5.652,-3.832,7.122
32143010,0.244,-0.268,0.958,-4.987,0.472,7.962
32143030,0.281,-0.263,0.967,-7.56,5.495,10.29
32143030,0.276,-0.27,0.993,-11.882,10.745,13.545
32143050,0.313,-0.24,1.048,-18.322,16.887,17.045
32143050,0.392,-0.2,1.153,-30.012,24.412,20.527
32143060,0.524,-0.215,1.325,-49.385,39.445,25.55
32143070,0.536,-0.24,1.375,-73.01,62.912,37.065
32143080,0.17,-0.316,1.42,-102.427,33.372,62.527
32143090,0.651,-0.362,1.285,-130.847,-7.087,105.63
32143100,-0.133,-0.433,1.226,-141.382,-54.127,131.39
32143110,1.106,-0.939,0.935,-167.51,-93.362,150.797
32143120,0.927,-0.945,0.751,-142.94,-101.867,188.685
32143130,0.533,-0.494,0.56,-84.84,-102.41,219.502
32143140,0.506,-0.265,0.54,-53.042,-120.662,233.327
32143150,0.677,-0.644,0.241,-21.507,-132.002,220.377
32143160,1.5,-0.923,0.08,7.017,-123.795,161.332
32143170,1.287,-0.757,-0.365,60.637,-72.1,57.102
32143180,0.887,-0.243,-0.305,60.882,-18.235,-87.762
32143190,-0.425,-0.238,-0.555,26.88,-2.642,-283.762
32143200,-1.282,-0.711,-0.839,7.297,3.395,-358.767
32143210,-1.447,-0.256,-1.056,26.425,-18.515,-341.075
32143220,0.397,0,-0.541,26.285,0.07,-280.385
32143230,-0.734,-1.555,1.357,23.38,246.12,-106.75
32143240,-0.865,-0.959,0.83,346.342,166.25,37.835
32143250,1.867,-1.359,1.998,402.482,241.622,104.737
32143260,-0.745,1.1,1.593,214.445,318.85,-22.575
32143270,-1.133,0.225,1.571,68.705,98.612,5.617
32143280,-0.399,-0.655,0.912,-113.837,-57.207,13.37
32143290,-0.306,0.232,1.195,-12.652,-112.612,4.13
32143300,0.549,-1.335,0.663,-71.54,-117.757,3.57
32143310,0.605,-0.194,0.892,-9.03,-93.467,-4.06
32143320,0.829,-0.467,0.754,-21.227,-64.19,-4.795
32143330,0.504,-0.533,0.793,-6.632,-31.132,2.467
32143330,0.577,-0.348,0.806,5.53,-5.67,0.49
32143350,0.417,-0.247,0.929,17.29,17.517,4.007
32143350,0.302,-0.283,0.936,8.312,31.097,3.517
32143370,0.257,-0.272,0.952,11.97,39.095,5.477
32143370,0.067,-0.287,0.979,7.577,43.067,4.777
32143390,-0.172,-0.208,1.042,6.23,38.36,2.432
32143390,-0.181,-0.188,1.059,0.297,23.1,-1.557
32143410,-0.107,-0.23,1.027,-8.505,6.597,-4.13
32143410,-0.067,-0.274,0.994,-16.275,-5.722,-5.757
32143420,-0.096,-0.276,0.994,-21.56,-15.19,-6.23
32143430,-0.098,-0.273,0.994,-25.725,-25.497,-6.965
32143440,-0.012,-0.283,0.988,-28.945,-35.42,-7.892
32143450,0.128,-0.281,0.962,-31.15,-42.455,-7.297
32143460,0.229,-0.322,0.899,-33.425,-43.347,-5.6
32143470,0.303,-0.35,0.837,-31.325,-37.852,-2.765
32143480,0.355,-0.358,0.824,-24.78,-27.037,1.89
32143490,0.308,-0.386,0.805,-17.71,-13.457,4.83
32143500,0.28,-0.393,0.792,-9.905,0.315,5.425
32143510,0.272,-0.46,0.813,2.31,13.195,8.33
32143520,0.32,-0.25,0.895,16.905,23.012,16.362
32143530,0.278,-0.128,1.043,15.575,30.782,22.662
32143540,0.196,-0.144,1.102,4.707,32.2,27.51
32143550,0.211,-0.04,1.178,-9.135,30.45,32.357
32143560,0.182,-0.021,1.288,-31.517,28.56,35.735
32143570,0.123,-0.163,1.419,-62.09,29.365,37.59
32143580,-0.159,-0.277,1.47,-95.445,17.815,41.597
32143590,0.439,-0.303,1.372,-132.807,-26.39,47.757
32143600,0.405,-0.564,1.283,-159.53,-30.012,70.49
32143610,0.581,-0.635,1.093,-181.93,-36.242,75.547
32143620,0.55,-0.225,1.094,-169.277,-42.21,91.087
32143630,0.594,-0.22,1.065,-161.49,-30.642,115.535
32143640,0.706,-0.552,0.981,-168.787,-16.677,127.942
32143650,0.294,-0.661,1.016,-156.8,-6.37,133.577
32143660,0.057,-0.435,1.083,-131.162,-32.48,137.9
32143670,1.104,0.036,0.938,-97.737,-96.372,123.077
32143680,0.462,0.475,1.336,-47.67,-131.057,91
32143690,1.144,0.463,0.982,-28.962,-145.232,50.75
32143700,0.714,0.356,0.885,-21.175,-121.59,33.127
32143710,0.05,0.427,0.901,-9.275,-119.315,-0.017
32143720,0.111,0.339,0.799,-8.575,-141.032,-23.677
32143730,0.301,0.093,0.677,-10.745,-146.93,-30.117
32143730,0.265,-0.023,0.666,-2.03,-135.87,-32.077
32143750,0.19,-0.22,0.727,4.077,-113.697,-39.287
32143750,-0.118,-0.617,0.915,8.96,-104.282,-55.265
32143760,-0.105,-1.223,0.893,29.277,-112.07,-88.27
32143770,0.236,-1.389,0.562,82.005,-103.512,-109.532
32143780,0.065,-1.115,0.236,153.37,-64.365,-104.37
32143790,-0.48,-0.968,-0.003,171.57,-32.165,-93.117
32143800,-0.832,-0.996,-0.135,136.692,-32.602,-68.005
32143810,-0.511,-1.131,-0.262,92.05,-45.132,-47.145
32143820,-0.343,-1.47,-0.332,56.455,-45.605,-20.16
32143830,-0.244,-1.515,-0.432,49.315,-35.927,-8.557
32143840,-0.378,-1.215,-0.512,38.255,-32.917,-11.48
32143850,-0.537,-1.053,-0.432,12.32,-48.632,-27.072
32143860,-0.535,-1.199,-0.442,-19.32,-75.285,-48.877
32143870,-0.291,-0.945,-0.323,-32.812,-90.807,-62.125
32143880,1.756,-0.849,1.449,-51.607,67.2,-26.355
32143890,0.295,-1.545,0.742,65.257,412.545,57.067
32143900,-1.129,0.313,1.249,345.327,284.795,-103.075
32143910,1.998,-0.374,1.312,362.302,369.6,-26.39
32143920,1.352,-0.991,1.908,275.03,491.47,52.185
32143930,-1.998,1.992,1.998,161.14,320.075,25.865
32143940,1.381,-0.812,0.932,-24.57,22.645,71.435
32143950,-1.487,-0.266,1.255,-68.197,-32.882,-1.645
32143960,0.09,-0.412,1.062,-27.93,-71.89,0.122
32143970,0.333,-0.542,0.835,-50.032,-72.24,3.097
32143980,0.616,-0.612,0.736,-32.165,-54.95,-3.902
32143990,0.684,-0.326,0.758,-21.315,-28.21,2.03
32144000,0.245,-0.436,0.853,-10.867,-5.845,15.47
32144010,0.052,-0.314,0.963,-7.822,2.765,17.097
32144020,0.191,-0.34,0.917,-7.927,2.065,10.64
32144030,0.326,-0.327,0.887,-8.207,6.632,6.545
32144040,0.152,-0.244,0.968,-4.217,10.885,12.775
32144050,0.009,-0.275,0.993,-6.492,9.362,15.697
32144060,-0.018,-0.294,1.004,-9.415,2.835,11.62
32144070,0.038,-0.29,0.991,-13.055,-4.655,6.457
32144080,0.148,-0.329,0.955,-16.607,-9.555,2.467
32144080,0.166,-0.283,0.976,-18.235,-9.957,0.98
32144100,0.182,-0.254,1.021,-23.87,-11.095,0.927
32144100,0.167,-0.228,1.071,-33.022,-11.427,0.647
32144120,0.075,-0.188,1.204,-49.21,-13.65,-3.745
32144120,0.151,-0.219,1.286,-71.89,-16.397,-11.13
32144140,0.289,-0.206,1.32,-97.65,-10.062,-22.067
32144140,0.549,-0.099,1.226,-123.725,24.762,-32.865
32144160,-0.249,-0.16,1.305,-142.135,69.72,-43.907
32144160,0.089,-0.459,1.124,-178.307,40.635,-43.977
32144170,0.163,-0.327,1.188,-178.29,17.99,-40.32
32144180,0.365,-0.447,1.059,-175.822,7.507,-39.077
32144190,0.432,-0.624,0.787,-161.77,3.692,-17.01
32144200,0.21,-0.629,0.588,-129.447,-4.97,9.887
32144210,0.151,-0.513,0.49,-94.482,-18.06,30.327
32144220,0.309,-0.671,0.337,-77.665,-32.602,44.59
32144230,0.473,-0.793,0.312,-47.005,-47.53,59.972
32144240,0.515,-0.466,0.219,5.932,-52.097,70.017
32144250,0.268,-0.176,0.119,44.66,-61.74,74.865
32144260,0.317,0.422,0.147,102.357,-88.2,86.835
32144270,0.586,0.608,-0.415,163.082,-84.402,116.55
32144280,0.248,0.388,-0.66,148.96,-106.382,84.665
32144290,0.505,-0.144,-0.135,158.13,-85.085,52.657
32144300,-1.97,-1.969,-0.334,152.705,-22.312,75.81
32144310,0.718,-1.998,0.122,243.74,8.365,107.87
32144320,1.008,0.956,1.152,456.19,54.092,118.422
32144330,1.203,0.54,1.998,378.297,178.762,41.212
32144340,-1.6,1.518,1.845,104.16,161.052,2.065
32144350,-0.601,-0.62,1.301,-8.417,35.087,51.222
32144360,-1.531,0.05,1.271,-50.995,-40.215,6.842
32144370,0.903,-0.967,0.669,-62.842,-78.872,-13.37
32144380,0.269,0.089,0.97,-19.53,-58.642,-1.557
32144390,0.179,-0.659,0.802,-41.877,-44.835,-0.262
32144400,0.217,-0.302,0.91,-24.605,-40.145,3.675
32144410,0.393,-0.337,0.858,-20.387,-32.742,4.9
32144420,0.219,-0.382,0.888,-18.41,-22.575,7.175
32144420,0.248,-0.375,0.883,-12.232,-15.382,7.665
32144440,0.207,-0.371,0.898,-9.187,-9.572,5.39
32144440,0.171,-0.32,0.927,-7.14,-5.39,4.882
32144460,0.173,-0.348,0.91,-6.982,-3.955,4.515
32144460,0.173,-0.307,0.943,-6.055,-2.03,4.375
32144480,0.084,-0.351,0.938,-8.417,-1.47,3.762
32144480,0.084,-0.364,0.932,-8.312,-3.185,0.157
32144500,0.166,-0.333,0.918,-6.912,-5.845,-2.905
32144500,0.207,-0.321,0.924,-7.105,-5.18,-2.94
32144510,0.168,-0.304,0.957,-7.262,-4.252,-0.542
32144520,0.143,-0.276,0.974,-10.377,-4.865,0.35
32144530,0.149,-0.336,0.945,-15.627,-6.335,-0.332
32144540,0.189,-0.338,0.915,-16.8,-6.37,-0.507
32144550,0.207,-0.351,0.902,-16.922,-4.287,-0.105
32144560,0.218,-0.351,0.898,-15.54,-1.26,1.33
32144570,0.191,-0.346,0.897,-14.21,2.327,2.73
32144580,0.177,-0.373,0.881,-12.705,4.987,2.817
32144590,0.178,-0.36,0.883,-10.08,7.507,2.275
32144600,0.192,-0.349,0.896,-7.7,9.432,2.38
32144610,0.176,-0.341,0.915,-6.492,11.2,2.94
32144620,0.178,-0.351,0.898,-6.16,11.882,3.85
32144630,0.187,-0.376,0.873,-5.232,12.355,5.827
32144640,0.19,-0.354,0.871,-2.485,12.005,8.75
32144650,0.24,-0.359,0.908,-2.87,6.86,13.387
32144660,0.111,-0.352,0.945,-2.38,3.5,20.965
32144670,0.15,-0.352,0.985,-3.587,-5.635,30.572
32144680,0.149,-0.292,1.025,-9.87,-13.475,36.312
32144690,0.1,-0.283,1.056,-19.005,-20.335,41.107
32144700,0.126,-0.313,1.064,-29.767,-29.645,45.01
32144710,0.173,-0.311,1.014,-38.64,-36.452,48.422
32144720,0.243,-0.32,1.051,-45.885,-44.117,55.807
32144730,0.204,-0.298,1.133,-56.087,-54.792,66.797
32144740,0.24,-0.248,1.178,-74.672,-71.137,78.365
32144750,0.263,-0.316,1.18,-100.94,-93.52,92.032
32144760,0.299,-0.362,1.169,-121.8,-120.26,110.232
32144770,0.295,-0.31,1.191,-137.9,-148.627,131.197
32144780,0.255,-0.297,1.212,-156.992,-180.145,151.13
32144790,0.106,-0.302,1.169,-179.34,-214.55,168.91
32144800,0.132,-0.515,1.027,-207.725,-243.582,176.715
32144810,0.406,-0.83,0.877,-216.72,-250.985,169.75
32144820,0.226,-1.142,0.699,-192.692,-244.23,168.175
32144830,0.272,-1.041,0.741,-134.067,-234.412,171.5
32144830,0.881,-0.732,0.86,-69.755,-214.847,168.245
32144850,-0.093,-0.665,0.919,-14.315,-141.82,200.62
32144850,-1.312,-0.904,0.892,99.347,-88.707,283.237
32144870,-0.307,-0.173,0.579,156.8,-70.21,329.525
32144870,0.059,-0.46,0.449,136.097,-63.42,288.802
32144890,0.173,-0.176,0.46,136.237,-28.472,221.567
32144890,0.351,0.059,0.365,94.815,7.682,121.31
32144910,0.107,-0.605,0.418,40.477,40.635,41.825
32144910,0.192,-0.27,0.387,35.682,59.15,-51.205
32144920,-0.062,0.02,0.448,34.037,69.335,-158.147
32144930,-0.261,-0.221,0.429,4.392,86.38,-209.51
32144940,-0.305,-0.593,0.402,-4.865,98.49,-220.447
32144950,-0.43,-0.736,0.385,23.66,111.72,-173.862
32144960,-0.368,-0.434,0.434,64.452,121.03,-133.997
32144970,-0.262,-0.399,0.374,67.375,125.492,-119.087
32144980,-0.188,-0.566,0.264,58.94,131.25,-112.35
32144990,-0.175,-0.482,0.134,50.365,135.852,-109.375
32145000,-0.122,-0.293,0,33.005,139.842,-117.967
32145010,-0.198,-0.583,-0.293,15.067,144.62,-118.422
32145020,-0.182,0.269,-0.279,55.3,145.18,-100.52
32145030,-0.605,-0.171,1.187,20.702,102.97,-177.607
32145040,1.187,-1.998,0.155,0.28,-11.742,-353.167
32145050,1.002,-1.942,-0.584,243.32,214.62,-348.74
32145060,-1.512,0.38,1.177,322.682,180.162,-190.662
32145070,1.931,1.737,1.126,352.922,47.355,-123.497
32145080,1.546,-0.677,1.844,290.71,136.622,6.615
32145090,-0.082,0.109,1.977,222.897,229.495,57.82
32145100,-1.998,1.731,1.958,133.63,152.845,57.487
32145110,-1.076,-0.211,1.236,-22.417,20.16,0.91
32145120,-0.2,0.226,1.274,-28.175,-61.407,-14.7
32145130,0.337,-0.463,0.846,-60.2,-79.905,-5.74
32145140,0.058,-0.493,0.855,-56.577,-71.05,-1.942
32145150,0.405,-0.576,0.758,-45.517,-62.107,-9.135
32145160,0.577,-0.361,0.773,-30.642,-45.972,-10.325
32145170,0.493,-0.449,0.729,-20.737,-24.71,3.57
32145170,0.227,-0.463,0.803,-5.46,-4.847,10.237
32145190,0.268,-0.368,0.868,5.057,8.4,5.565
32145190,0.317,-0.338,0.886,10.29,16.835,5.67
32145210,0.167,-0.267,0.97,14.21,22.592,12.722
32145210,-0.075,-0.222,1.05,12.022,19.477,15.68
32145230,-0.048,-0.277,0.991,4.217,9.66,9.957
32145230,0.009,-0.344,0.949,-0.367,2.415,2.135
32145250,0.143,-0.317,0.944,-0.91,-0.787,-2.607
32145250,0.151,-0.269,0.976,-0.63,-1.925,-0.7
32145260,0.147,-0.224,1.021,-3.92,-4.725,3.062
32145270,0.167,-0.23,1.029,-12.215,-8.592,6.055
32145280,0.235,-0.235,1.032,-21.525,-11.252,9.957
32145290,0.316,-0.245,1.095,-31.517,-11.445,15.82
32145300,0.459,-0.211,1.198,-43.47,-7.49,24.955
32145310,0.624,-0.083,1.345,-66.762,0.805,41.72
32145320,0.327,-0.303,1.298,-105.84,-30.625,75.757
32145330,1.131,-0.642,1.176,-138.617,-78.785,112.07
32145340,0.267,-0.436,1.073,-125.667,-107.047,143.762
32145350,0.139,-0.555,0.909,-126.42,-144.182,172.077
32145360,0.324,-0.552,0.933,-111.02,-163.31,199.412
32145370,0.123,-0.489,0.635,-87.727,-168,206.465
32145380,0.212,-0.805,0.462,-85.435,-160.422,191.695
32145390,-0.011,-0.778,0.509,-52.657,-136.097,182.857
32145400,0.141,-0.768,0.477,-20.702,-105.595,166.215
32145410,0.191,-0.481,0.497,18.13,-58.695,140.017
32145420,0.098,-0.099,0.342,45.185,-13.982,96.25
32145430,0.669,0.348,0.116,27.72,18.305,51.485
32145440,0.519,1.052,-0.117,61.652,34.02,-12.512
32145450,-0.039,1.82,0.149,74.83,28.42,-108.692
32145460,-1.072,0.294,1.001,12.495,13.632,-191.555
32145470,-1.974,-1.985,-0.532,-4.305,7.682,-190.82
32145480,1.328,-1.998,-0.373,101.412,40.967,-0.857
32145490,0.189,0.144,0.251,353.71,41.492,19.04
32145500,0.664,1.637,1.592,390.302,43.977,-3.36
32145510,1.992,-1.634,1.988,237.895,229.617,9.257
32145520,-1.403,1.39,1.998,196.875,246.085,40.18
32145530,-0.533,0.052,1.405,47.862,78.697,52.062
32145540,-1.293,0.21,1.321,-41.895,-28.63,6.02
32145550,0.206,-0.485,0.986,-35.945,-90.842,7
32145560,0.179,-0.404,0.93,-51.117,-94.815,-2.45
32145570,0.473,-0.576,0.792,-35.56,-83.422,-12.18
32145580,0.759,-0.34,0.729,-29.68,-61.722,-17.062
32145580,0.608,-0.588,0.646,-22.435,-28.612,-4.987
32145600,0.532,-0.434,0.751,-0.227,2.502,1.715
32145600,0.355,-0.332,0.877,11.952,23.642,7.157
32145620,0.261,-0.284,0.943,15.277,34.125,9.642
32145620,0.229,-0.269,0.965,14.91,37.642,12.092
32145640,0.079,-0.256,1.006,11.9,37.152,15.295
32145640,-0.134,-0.23,1.066,3.745,29.68,13.807
32145660,-0.178,-0.209,1.09,-7.735,13.807,7.332
32145660,0.002,-0.232,1.043,-19.915,-3.587,1.627
32145670,-0.019,-0.279,1.005,-28.805,-14.56,0.017
32145680,-0.154,-0.319,0.995,-32.427,-24.78,-2.135
32145690,-0.082,-0.371,0.933,-31.972,-37.52,-8.295
32145700,0.056,-0.395,0.87,-26.967,-47.075,-14.315
32145710,0.207,-0.396,0.802,-19.04,-48.422,-17.71
32145720,0.345,-0.413,0.739,-8.645,-41.51,-18.077
32145730,0.442,-0.407,0.691,4.725,-25.847,-14.752
32145740,0.499,-0.383,0.696,19.477,-4.76,-8.662
32145750,0.394,-0.358,0.79,33.11,17.622,-1.172
32145760,0.272,-0.354,0.878,41.65,33.04,4.042
32145770,0.256,-0.296,0.954,45.535,41.737,6.702
32145780,0.209,-0.248,1.014,42.595,45.202,8.942
32145790,0.039,-0.193,1.053,34.685,42.472,10.832
32145800,-0.078,-0.173,1.08,22.68,30.992,9.8
32145810,-0.017,-0.256,1.009,10.465,15.575,6.002
32145820,0.016,-0.266,0.984,5.617,3.097,2.345
32145830,0.079,-0.247,0.968,2.975,-5.827,-0.857
32145840,0.132,-0.271,0.945,0.542,-11.585,-2.922
32145850,0.145,-0.273,0.945,-0.35,-13.93,-4.217
32145860,0.152,-0.271,0.943,-1.452,-15.802,-6.02
32145870,0.157,-0.284,0.94,-2.695,-16.8,-7.56
32145880,0.169,-0.276,0.932,-3.255,-17.902,-9.03
32145890,0.189,-0.26,0.923,-3.465,-17.71,-9.922
32145900,0.217,-0.259,0.914,-4.06,-16.922,-10.36
32145910,0.287,-0.255,0.887,-3.867,-13.212,-9.345
32145920,0.31,-0.235,0.879,-2.327,-6.65,-5.915
32145920,0.327,-0.24,0.869,-1.085,1.82,-0.805
32145940,0.295,-0.224,0.898,0.28,9.87,3.78
32145940,0.212,-0.265,0.93,-0.56,15.26,7.245
32145960,0.168,-0.26,0.95,-1.627,16.24,8.295
32145960,0.138,-0.275,0.956,-3.605,14.437,7.875
32145980,0.063,-0.293,0.984,-5.862,10.587,5.407
32145980,0.033,-0.264,0.998,-8.872,3.22,0.612
32146000,0.1,-0.245,0.987,-12.757,-4.83,-2.712
32146000,0.142,-0.225,0.995,-17.972,-10.22,-5.267
32146010,0.134,-0.216,1.018,-24.885,-13.912,-6.405
32146020,0.128,-0.226,1.044,-33.18,-18.165,-6.405
32146030,0.128,-0.237,1.077,-43.19,-23.1,-5.862
32146040,0.133,-0.244,1.117,-54.285,-29.172,-5.337
32146050,0.19,-0.263,1.099,-68.092,-33.862,-4.83
32146060,0.145,-0.243,1.243,-83.877,-33.32,-4.305
32146070,0.189,-0.211,1.264,-104.335,-32.742,-6.72
32146080,0.121,-0.208,1.277,-128.817,-30.992,-12.372
32146090,0.05,-0.298,1.279,-159.127,-33.005,-24.08
32146100,-0.156,-0.344,1.28,-187.32,-41.422,-37.135
32146110,-0.248,-0.26,1.228,-201.652,-63.367,-50.225
32146120,-0.216,-0.37,1.141,-213.675,-85.26,-57.61
32146130,-0.164,-0.47,1.058,-221.095,-104.912,-62.807
32146140,-0.189,-0.433,0.959,-219.835,-128.817,-74.2
32146150,-0.117,-0.393,0.897,-222.617,-156.765,-91.437
32146160,0.093,-0.602,0.705,-235.462,-175.7,-111.51
32146170,0.354,-0.987,0.734,-241.832,-170.415,-112.822
32146180,0.526,-1.197,0.592,-220.097,-135.765,-92.785
32146190,0.657,-1.244,0.496,-188.737,-49.612,-65.415
32146200,-0.48,-1.077,0.931,-140.822,32.445,-18.917
32146210,-0.39,-1.162,0.501,-66.027,68.862,20.44
32146220,-0.751,-0.744,0.418,13.492,65.1,76.527
32146230,-0.199,-0.834,0.497,76.475,71.067,151.077
32146240,0.562,-0.687,0.214,97.562,103.705,189.892
32146250,0.782,-0.552,0.15,103.757,162.295,189.682
32146260,0.458,-0.486,0.174,98.612,207.287,159.32
32146270,0.439,-0.288,0.206,82.845,216.265,80.727
32146280,0.3,-0.401,0.218,54.845,200.55,23.677
32146290,0.389,-0.436,0.237,36.295,179.06,-14.28
32146300,0.449,-0.404,0.29,21.157,162.137,-45.85
32146310,0.474,-0.456,0.332,11.217,155.697,-79.432
32146320,0.513,-0.465,0.357,8.032,158.112,-107.677
32146330,0.383,-0.443,0.398,6.685,164.535,-121.817
32146330,0.228,-0.507,0.402,5.705,165.532,-124.075
32146350,0.243,-0.481,0.413,8.19,158.672,-126.052
32146350,0.241,-0.512,0.405,3.325,151.025,-126.875
32146370,0.249,-0.547,0.394,-1.4,146.44,-130.637
32146370,0.193,-0.536,0.393,-3.01,142.747,-134.12
32146380,-0.168,-0.679,1.031,-0.42,121.415,-142.642
32146390,-0.075,-0.545,1.093,37.695,61.95,-161.7
32146400,0.144,-0.04,1.254,99.26,15.662,-148.942
32146410,0.577,0.158,0.988,135.467,-7.42,-132.037
32146420,0.97,-0.541,0.853,152.722,12.04,-122.762
32146430,1.07,-1.455,0.511,145.95,59.832,-107.537
32146440,0.878,-1.117,0.627,182.84,70.875,-77.367
32146450,0.788,-0.167,0.799,224.997,57.225,-25.375
32146460,0.478,-0.051,0.94,233.415,45.01,30.187
32146470,0.526,-0.579,0.979,226.187,34.475,69.352
32146480,0.513,-0.329,1.573,246.242,46.235,96.11
32146490,-0.258,-0.101,1.911,223.44,96.862,86.065
32146500,-0.974,0.82,1.883,143.185,84.49,38.22
32146510,-0.651,0.417,1.38,52.622,26.792,4.48
32146520,-0.149,-0.047,1.131,-3.342,-20.282,-13.125
32146530,0,-0.096,1.074,-18.112,-41.387,-7.787
32146540,-0.018,-0.247,0.993,-31.447,-49.962,-4.532
32146550,0.107,-0.41,0.896,-34.965,-52.272,-5.862
32146560,0.238,-0.467,0.835,-26.897,-47.775,-8.172
32146570,0.385,-0.409,0.824,-15.925,-35.875,-9.135
32146580,0.388,-0.38,0.84,-8.067,-20.632,-6.212
32146590,0.3,-0.343,0.881,-0.945,-5.932,-0.367
32146600,0.178,-0.312,0.929,3.535,3.482,2.292
32146610,0.16,-0.286,0.951,4.252,8.435,1.19
32146620,0.131,-0.273,0.964,4.55,10.272,0.682
32146630,0.122,-0.261,0.964,2.695,11.182,0.14
32146640,0.116,-0.287,0.958,-0.77,11.34,-1.277
32146650,0.086,-0.272,0.97,-2.38,11.375,-1.557
32146660,0.07,-0.28,0.969,-5.145,10.097,-3.167
32146670,0.069,-0.285,0.968,-7.472,8.365,-4.777
32146670,0.08,-0.286,0.963,-9.31,6.195,-5.652
32146690,0.091,-0.292,0.957,-11.2,4.567,-5.897
32146690,0.067,-0.288,0.961,-12.635,2.94,-5.337
32146710,0.053,-0.288,0.962,-14.437,0.245,-5.18
32146710,0.06,-0.304,0.947,-16.432,-2.712,-5.687
32146730,0.073,-0.321,0.928,-16.94,-5.442,-5.985
32146730,0.072,-0.332,0.924,-16.765,-7.385,-6.86
32146750,0.058,-0.327,0.938,-16.905,-9.87,-8.155
32146750,0.05,-0.299,0.964,-18.165,-12.792,-9.852
32146760,0.093,-0.27,0.986,-21.507,-16.45,-11.637
32146770,0.156,-0.246,1.027,-27.37,-16.905,-12.687
32146780,0.197,-0.194,1.046,-35.787,-17.237,-13.037
32146790,0.284,-0.195,1.085,-46.357,-14.297,-9.677
32146800,0.31,-0.126,1.19,-60.637,-7.91,-4.83
32146810,0.224,-0.161,1.311,-84,-0.105,-0.105
32146820,0.089,-0.133,1.449,-113.417,-8.855,3.237
32146830,0.268,-0.137,1.565,-152.705,-29.137,9.24
32146840,0.12,-0.026,1.708,-191.257,-46.585,19.057
32146850,0.113,-0.113,1.727,-244.387,-71.995,24.01
32146860,-0.008,-0.113,1.693,-290.027,-95.742,28.402
32146870,-0.155,-0.148,1.529,-321.86,-112.332,33.005
32146880,-0.026,-0.186,1.327,-338.642,-111.265,29.435
32146890,-0.014,-0.461,1.202,-350.21,-94.92,-0.402
32146900,-0.114,-0.736,1.128,-355.25,-78.155,-37.905
32146910,0.194,-1.276,0.981,-333.725,-42.682,-67.637
32146920,0.405,-1.272,0.909,-265.737,15.435,-79.082
32146930,-0.245,-0.84,0.831,-171.045,85.365,-82.635
32146940,-0.498,-0.498,0.846,-89.547,113.802,-99.435
32146950,-0.606,-0.424,0.307,-16.607,90.842,-90.09
32146960,-0.419,-0.136,0.009,46.217,77.035,-39.34
32146970,-0.601,0.096,-0.065,90.335,67.567,24.657
32146980,-0.143,-0.236,-0.096,103.355,63.542,69.545
32146990,0.174,-0.516,-0.229,136.115,71.54,97.09
32147000,0.225,-0.36,-0.185,198.082,88.567,110.32
32147010,0.212,-0.285,-0.11,196.735,91.962,83.65
32147020,0.143,-0.504,-0.133,172.025,77.595,44.765
32147030,0.248,-0.739,-0.132,156.555,58.24,7.665
32147040,0.369,-0.782,-0.14,146.282,45.727,-18.27
32147050,0.336,-0.825,-0.096,125.195,42.122,-34.3
32147050,0.249,-1.03,-0.051,91.07,39.305,-48.142
32147070,0.15,-1.311,0.001,61.092,30.047,-61.635
32147070,0.228,-1.546,-0.025,44.38,23.1,-71.977
32147080,0.331,-1.648,-0.051,36.505,29.592,-72.572
32147090,0.209,-1.586,-0.034,25.27,43.505,-70.927
32147100,0.077,-1.49,-0.006,4.34,50.855,-76.055
32147110,0.078,-1.43,-0.001,-20.09,49.087,-88.532
32147120,0.231,-1.381,0.01,-34.247,49.35,-104.23
32147130,0.035,-0.987,-0.216,-24.517,56.035,-106.47
32147140,0.32,-0.363,0.874,-0.28,48.51,-160.597
32147150,-0.781,-1.43,1.851,-0.35,-16.695,-186.217
32147160,1.633,1.199,1.295,298.585,23.625,-176.067
32147170,0.207,1.997,1.38,401.415,85.172,-34.895
32147180,1.893,-1.021,1.283,285.145,79.082,-59.045
32147190,0.694,-1.799,0.729,215.582,85.855,-61.81
32147200,1.815,0.676,1.873,375.007,136.22,21.892
32147210,-0.083,0.713,1.998,242.27,205.012,18.585
32147220,-1.911,1.674,1.785,71.872,119.297,3.587
32147230,-0.698,-0.197,1.227,-20.3,-6.37,5.495
32147240,-0.335,0.232,1.246,-46.235,-69.23,-18.795
32147250,0.361,-0.387,0.919,-69.965,-88.41,-13.23
32147260,0.304,-0.71,0.696,-62.457,-77.927,-5.565
32147270,0.475,-0.58,0.739,-33.547,-60.83,-9.432
32147280,0.592,-0.512,0.682,-27.86,-37.94,-11.847
32147290,0.512,-0.451,0.738,-4.182,-12.145,1.855
32147300,0.298,-0.367,0.887,7.595,8.33,9.205
32147310,0.164,-0.258,0.976,13.527,17.622,11.69
32147320,0.201,-0.274,0.961,9.625,20.422,7.245
32147330,0.131,-0.235,0.991,7.805,21.717,6.597
32147340,0.158,-0.269,0.971,3.867,20.877,6.125
32147350,0.021,-0.224,1.018,1.452,19.495,6.737
32147360,0.003,-0.283,0.996,-5.145,14.035,2.555
32147370,0.099,-0.295,0.971,-10.045,9.45,-2.922
32147380,0.124,-0.259,0.987,-12.582,6.772,-4.34
32147390,0.125,-0.262,1.011,-18.83,4.917,-4.182
32147400,0.095,-0.244,1.057,-25.077,1.925,-2.73
32147410,0.08,-0.243,1.105,-35.63,-2.345,-3.22
32147420,0.106,-0.263,1.145,-49.017,-6.58,-4.83
32147420,0.172,-0.277,1.178,-63.035,-6.545,-6.965
32147440,0.279,-0.27,1.19,-78.715,0.595,-8.067
32147440,0.287,-0.185,1.23,-96.565,5.722,-1.33
32147460,0.17,-0.339,1.085,-118.09,-6.055,10.867
32147460,0.241,-0.637,1.025,-130.655,-24.097,5.88
32147480,0.524,-0.725,0.935,-120.312,-27.37,5.845
32147480,0.761,-0.792,0.781,-95.62,-14.367,32.882
32147500,0.629,-0.809,0.592,-70.472,-15.225,67.55
32147500,0.368,-0.426,0.827,-46.375,-37.537,95.427
32147510,0.099,-0.621,0.289,-20.965,-77.122,121.975
32147520,1.093,-1.826,-0.094,-21.28,-89.547,134.015
32147530,0.635,-1.651,-0.36,18.62,-89.88,125.44
32147540,1.006,-0.942,-0.213,31.045,-91.472,109.112
32147550,0.191,-0.276,-0.07,31.027,-81.095,50.802
32147560,-0.565,0.201,-0.055,56.35,-75.547,-6.317
32147570,-0.995,0.808,-0.168,68.722,-87.657,-32.865
32147580,-0.616,1.202,-0.013,92.33,-81.497,-21.192
32147590,-1.686,1.312,1.58,167.86,9.975,50.802
32147600,-0.75,-0.846,0.866,265.58,-21.84,58.31
32147610,1.998,-1.998,1.517,264.985,147.945,67.707
32147620,-0.55,1.402,1.998,337.032,305.165,-3.937
32147630,-0.507,0.676,1.673,85.627,68.442,13.72
32147640,0.472,-1.419,0.112,-185.972,-79.992,50.662
32147650,-0.743,1.403,1.546,43.907,-92.837,2.397
32147660,1.359,-1.432,0.396,-58.152,-100.1,24.885
32147670,0.053,-0.175,0.976,-17.447,-59.15,6.982
32147680,0.567,-0.535,0.784,-19.477,-43.435,11.637
32147690,0.475,-0.348,0.782,-5.67,-21.962,9.59
32147700,0.389,-0.492,0.788,-0.507,-1.172,11.795
32147710,0.292,-0.343,0.877,12.617,16.187,12.477
32147720,0.37,-0.238,0.905,14.735,26.897,9.677
32147730,0.255,-0.293,0.923,13.93,35.402,14.665
32147740,-0.005,-0.257,1.003,13.457,37.817,16.765
32147750,-0.124,-0.219,1.046,8.365,28.805,10.045
32147760,-0.007,-0.281,0.987,0.665,14.472,2.677
32147760,0.057,-0.315,0.954,-2.852,6.02,-1.925
32147780,0.13,-0.249,0.95,-2.73,1.925,-4.217
32147780,0.175,-0.279,0.938,-3.115,0.7,-1.925
32147800,0.116,-0.294,0.953,-3.972,0.63,0.017
32147800,0.128,-0.277,0.958,-4.252,-1.382,1.295
32147820,0.186,-0.355,0.92,-5.18,-2.45,1.977
32147820,0.175,-0.304,0.953,-3.237,-1.89,3.885
32147830,0.11,-0.24,1.013,-4.322,-3.202,6.562
32147840,0.14,-0.216,1.063,-11.742,-7.997,7.087
32147850,0.196,-0.18,1.151,-24.727,-14.07,8.085
32147860,0.264,-0.127,1.229,-46.637,-20.527,9.852
32147870,0.282,-0.111,1.506,-80.552,-23.485,12.32
32147880,0.238,-0.155,1.574,-118.405,-27.842,19.792
32147890,-0.545,-0.685,1.384,-147.385,-61.547,30.59
32147900,1.293,-0.814,1.016,-159.53,-127.627,43.767
32147910,-0.278,-0.485,0.813,-119.245,-146.492,87.535
32147920,0.125,-0.766,0.629,-114.52,-177.345,108.71
32147930,-1.011,-1.215,0.562,-52.237,-209.422,185.815
32147940,0.255,-1.269,-0.205,50.715,-229.04,292.757
32147950,0.415,-1.947,0.099,21.805,-133.682,373.677
32147960,-0.655,-1.927,-0.139,59.395,-46.97,411.88
32147970,1.985,-0.615,-0.585,113.417,-1.207,353.22
32147980,1.998,-0.226,-0.342,-7.665,66.5,209.037
32147990,1.529,-0.943,-0.429,-79.817,115.955,-52.465
32148000,1.019,0.579,-0.004,-2.17,136.167,-300.142
32148010,-0.434,0.292,-0.202,-89.845,130.095,-416.167
32148020,-1.109,-0.342,-0.249,-93.852,100.87,-376.897
32148030,0.227,0.718,1.295,0.875,113.207,-251.912
32148040,-1.998,0.356,0.764,154.507,186.795,-68.53
32148050,-0.357,0.992,0.656,382.55,46.322,75.127
32148060,1.987,-1.932,0.815,287.49,17.22,153.212
32148070,1.043,-0.626,1.998,365.05,210.577,33.145
32148080,-1.671,1.997,1.99,283.062,232.785,41.685
32148090,-0.785,-0.426,1.288,-34.212,20.247,36.557
32148100,-1.506,0.338,1.372,-69.317,-108.587,26.565
32148110,0.747,-0.455,0.903,-52.762,-167.755,23.835
32148120,0.736,-0.854,0.691,-74.445,-139.825,12.075
32148130,0.513,-0.666,0.705,-45.832,-101.902,1.785
32148140,0.819,-0.398,0.67,-31.342,-70.857,-7.017
32148150,0.711,-0.582,0.611,-12.74,-32.97,0.7
32148160,0.667,-0.396,0.758,6.265,3.657,4.305
32148170,0.264,-0.165,0.982,16.362,26.722,15.487
32148170,0.16,-0.247,0.99,10.255,32.27,19.477
32148190,0.053,-0.276,0.983,5.74,28.752,15.575
32148190,0.093,-0.314,0.973,2.1,24.78,11.9
32148210,-0.135,-0.209,1.073,-0.245,17.517,8.68
32148210,0.013,-0.304,0.992,-8.54,4.97,0.577
32148230,0.204,-0.338,0.914,-11.375,0.332,-5.18
32148230,0.252,-0.318,0.92,-9.345,3.78,-3.062
32148250,0.203,-0.302,0.955,-9.047,7.35,1.347
32148250,0.126,-0.247,1.026,-12.355,8.067,5.057
32148260,0.127,-0.222,1.069,-22.085,4.707,5.792
32148270,0.208,-0.216,1.103,-35.332,0.752,7.227
32148280,0.419,-0.236,1.147,-46.305,0.42,13.895
32148290,0.522,-0.221,1.215,-59.115,11.445,25.462
32148300,0.039,-0.302,1.327,-71.19,14.122,44.747
32148310,1.005,-0.439,1.13,-90.3,-45.465,69.982
32148320,0.295,-0.25,1.097,-83.09,-54.215,111.107
32148330,-0.007,-0.349,1.04,-95.532,-103.355,129.167
32148340,0.651,-0.585,0.854,-114.327,-142.852,149.275
32148350,0.692,-0.655,0.808,-113.347,-164.395,172.41
32148360,0.911,-0.907,0.521,-101.692,-189.787,184.922
32148370,1,-1.053,0.363,-61.407,-199.36,217.787
32148380,0.654,-0.765,0.289,-2.66,-203.717,248.78
32148390,0.629,-0.492,0.289,39.182,-223.125,252.91
32148400,0.18,-0.628,0.167,72.31,-213.832,224.91
32148410,-0.053,-0.889,0.032,91.525,-158.62,196.595
32148420,0.2,-0.679,-0.23,125.142,-89.075,148.452
32148430,0.325,-0.273,-0.687,141.82,-19.215,55.86
32148440,-0.066,0.126,-0.493,118.475,21.945,-65.38
32148450,-0.706,0.699,-0.429,97.002,20.072,-201.687
32148460,-0.425,0.799,0.717,71.12,86.8,-211.732
32148470,-1.998,-0.6,1.273,134.242,151.182,-49.525
32148480,1.577,-1.487,1.564,320.687,173.862,65.047
32148490,1.271,-0.351,1.776,292.25,317.397,54.075
32148500,-1.914,1.812,1.998,185.15,233.712,28.525
32148510,1.03,-1.828,0.493,-114.555,19.162,44.205
32148510,-1.654,1.486,1.702,8.417,-35.752,-12.39
32148530,0.975,-1.198,0.713,-67.585,-92.207,3.657
32148530,-0.177,-0.221,1.08,-44.887,-77.892,-10.762
32148550,0.382,-0.546,0.816,-37.905,-77,-9.415
32148550,0.775,-0.478,0.767,-38.85,-61.775,-16.817
32148570,0.47,-0.367,0.816,-26.057,-38.552,-3.745
32148570,0.296,-0.426,0.858,-18.322,-22.715,7.21
32148580,0.354,-0.424,0.841,-11.41,-13.317,6.755
32148590,0.31,-0.337,0.918,-7.595,-2.555,3.85
32148600,0.041,-0.199,1.131,-11.41,-1.032,2.432
32148610,-0.019,-0.272,1.126,-24.517,-13.422,-0.332
32148620,-0.051,-0.258,1.206,-35.437,-27.755,-7.35
32148630,-0.072,-0.238,1.303,-50.12,-43.295,-15.82
32148640,0.047,-0.313,1.217,-72.625,-59.552,-27.265
32148650,0.093,-0.383,1.154,-92.592,-65.59,-37.59
32148660,-0.042,-0.38,1.172,-107.38,-74.007,-49.63
32148670,-0.235,-0.377,1.197,-126.84,-92.505,-65.607
32148680,-0.126,-0.529,1.106,-139.597,-91.297,-83.667
32148690,-0.564,-0.777,1.142,-143.167,-104.772,-109.83
32148700,-0.23,-0.984,1.041,-137.55,-133.017,-132.265
32148710,0.065,-1.477,0.533,-122.43,-133.122,-153.737
32148720,0.582,-1.979,0.514,-123.55,-84.682,-169.487
32148730,-0.096,-1.998,0.04,-85.855,6.527,-121.625
32148740,-1.677,-1.998,0.582,16.94,104.002,5.04
32148750,-1.407,-1.998,0.145,81.182,112.437,121.327
32148760,-0.13,-1.883,-0.119,99.837,91.192,173.827
32148770,0.851,-1.689,-0.111,59.517,129.937,172.69
32148780,0.819,-1.588,-0.04,-1.382,182.927,131.162
32148790,0.606,-1.139,-0.159,-54.232,209.265,62.247
32148800,0.634,-0.426,-0.027,-99.015,206.675,-14.612
32148810,0.514,0.211,0.052,-160.247,183.067,-84.472
32148820,0.608,0.379,0.177,-231.332,157.552,-152.827
32148830,0.247,0.574,0.351,-268.555,128.835,-199.797
32148840,-0.364,0.757,0.475,-254.59,88.952,-214.025
32148850,-0.769,1.714,0.322,-196.84,46.952,-178.482
32148860,-0.608,1.997,0.853,-89.845,12.897,-181.947
32148870,-0.683,1.362,1.998,-66.167,-56.087,-142.1
32148880,1.925,1.399,-0.593,316.645,-16.275,-146.3
32148890,1.998,0.694,1.049,495.04,172.077,-96.565
32148900,-0.738,-1.998,0.638,235.322,213.937,-145.915
32148910,1.141,0.578,1.207,441.35,123.69,6.492
32148920,0.775,-0.046,1.998,402.01,290.132,79.835
32148920,-1.867,1.64,1.998,114.817,233.362,62.772
32148940,-0.835,-0.09,1.212,9.45,32.935,43.697
32148940,-0.657,0.48,1.514,-45.237,-65.222,-16.852
32148960,0.528,-0.724,0.728,-82.057,-94.797,-3.955
32148960,0.222,-0.806,0.695,-62.842,-72.03,0.647
32148980,0.414,-0.53,0.751,-36.155,-54.127,-6.282
32148980,0.61,-0.456,0.724,-24.78,-33.04,-7.542
32149000,0.363,-0.475,0.784,-7.787,-9.502,2.817
32149000,0.301,-0.446,0.831,5.075,6.58,4.427
32149010,0.302,-0.281,0.935,12.845,18.392,2.45
32149020,0.095,-0.152,1.045,12.495,22.312,7.577
32149030,0.022,-0.326,0.979,4.76,18.375,8.697
32149040,0.049,-0.121,1.096,2.222,11.795,3.412
32149050,-0.034,-0.293,1.01,-9.607,3.22,4.375
32149060,-0.057,-0.373,0.974,-16.747,-5.355,-1.767
32149070,0.163,-0.272,0.993,-19.285,-11.392,-10.08
32149080,0.274,-0.26,1.025,-25.76,-12.162,-9.03
32149090,0.213,-0.213,1.107,-33.652,-11.952,-1.277
32149100,0.161,-0.199,1.244,-49.542,-14.542,2.852
32149110,0.213,-0.096,1.392,-71.347,-17.797,7.682
32149120,-0.046,-0.063,1.401,-107.257,-29.977,22.242
32149130,-0.318,-0.553,1.262,-150.727,-89.162,23.555
32149140,-0.038,-0.821,1.179,-150.692,-123.62,17.255
32149150,-0.259,-0.579,0.988,-121.03,-139.002,22.417
32149160,-0.064,-0.938,0.806,-113.802,-146.247,21.157
32149170,0.258,-0.773,0.602,-80.57,-134.82,14.49
32149180,0.146,-0.349,0.591,-42.927,-115.01,15.382
32149190,-1.512,-1.546,0.309,-40.985,-76.195,53.777
32149200,-1.998,-1.998,0.535,-55.3,-16.24,342.177
32149210,0.504,-1.768,-0.922,244.982,-41.352,549.202
32149220,1.998,-0.512,-0.762,253.102,-2.835,508.795
32149230,1.976,-0.055,-0.565,81.742,52.412,303.66
32149240,1.396,0.077,-0.738,-23.03,92.68,9.66
32149250,-0.078,0.106,-0.513,-46.97,89.25,-139.562
32149260,-1.126,1.203,1.099,57.505,24.237,-136.99
32149260,0.032,1.997,-0.055,294.175,-51.817,-184.135
32149280,1.55,-0.632,1.335,315.542,-45.815,-63.262
32149280,1.998,-1.093,1.73,248.255,192.237,-66.937
32149300,-1.709,1.997,1.982,385.98,296.94,20.51
32149300,0.22,-0.698,1.097,-36.365,61.95,91.14
32149320,-1.418,-0.286,1.086,-103.022,-64.645,23.642
32149320,0.822,-0.33,0.98,-14.892,-107.222,14.717
32149330,0.4,-0.718,0.782,-52.447,-77.507,26.582
32149340,0.426,-0.528,0.836,-18.252,-47.687,18.34
32149350,0.392,-0.448,0.827,-18.27,-25.602,9.905
32149360,0.304,-0.433,0.849,-8.19,-6.16,6.667
32149370,0.132,-0.377,0.924,-1.96,7.367,5.53
32149380,0.262,-0.265,0.94,1.487,11.865,1.75
32149390,0.227,-0.254,0.947,0.157,17.99,4.322
32149400,-0.018,-0.264,0.993,-0.962,20.405,8.102
32149410,-0.084,-0.261,1.01,-2.52,14.42,6.79
32149420,-0.083,-0.217,1.036,-7.402,3.412,2.975
32149430,-0.007,-0.374,0.942,-11.672,-6.51,0.822
32149440,0.022,-0.36,0.931,-11.357,-11.007,-2.922
32149450,0.049,-0.314,0.953,-10.062,-13.51,-5.897
32149460,0.121,-0.302,0.949,-8.995,-16.117,-6.545
32149470,0.133,-0.287,0.95,-8.855,-15.802,-5.11
32149480,0.143,-0.329,0.925,-10.115,-14.892,-4.515
32149490,0.174,-0.331,0.906,-8.592,-12.145,-4.042
32149500,0.161,-0.345,0.897,-6.352,-8.697,-2.94
32149510,0.2,-0.333,0.89,-3.01,-4.322,-1.26
32149520,0.183,-0.343,0.885,-0.052,0.332,1.137
32149530,0.181,-0.345,0.872,3.587,5.197,3.185
32149540,0.169,-0.353,0.868,7.945,9.695,4.112
32149550,0.152,-0.336,0.901,12.687,13.825,3.955
32149560,0.146,-0.277,0.934,15.715,16.187,3.78
32149570,0.15,-0.286,0.932,15.417,18.042,4.48
32149580,0.126,-0.308,0.931,15.207,19.757,5.372
32149590,0.117,-0.3,0.933,15.89,21.28,6.51
32149600,0.095,-0.294,0.937,16.117,22.225,7.227
32149610,0.055,-0.272,0.949,16.152,21.7,7.315
32149620,0.022,-0.277,0.951,15.067,19.285,5.775
32149630,0.038,-0.291,0.944,13.545,15.785,2.59
32149640,0.051,-0.268,0.951,13.16,13.072,0.297
