time[ms],accX[g],accY[g],accZ[g],Value 1,Value 2,Value 3
36908530,-0.174,-0.145,0.961,1.89,-6.37,-0.98
36908540,-0.171,-0.142,0.96,2.082,-5.95,-0.91
36908550,-0.169,-0.139,0.959,2.257,-5.355,-0.647
36908560,-0.178,-0.138,0.959,2.485,-5.092,-0.437
36908570,-0.183,-0.138,0.959,2.572,-5.075,-0.245
36908580,-0.191,-0.139,0.958,2.52,-5.512,-0.227
36908590,-0.187,-0.143,0.959,2.345,-6.072,-0.332
36908600,-0.186,-0.141,0.963,2.31,-6.37,-0.49
36908610,-0.191,-0.139,0.963,2.082,-6.72,-0.595
36908620,-0.185,-0.142,0.962,1.645,-7.052,-0.717
36908630,-0.18,-0.146,0.961,1.54,-7.385,-0.875
36908640,-0.176,-0.144,0.961,1.592,-7.105,-0.892
36908650,-0.172,-0.146,0.962,1.767,-7.035,-0.857
36908660,-0.174,-0.145,0.961,1.96,-6.405,-0.717
36908670,-0.172,-0.143,0.961,2.222,-6.247,-0.612
36908680,-0.177,-0.142,0.962,2.327,-5.582,-0.507
36908690,-0.178,-0.141,0.962,2.467,-5.74,-0.542
36908700,-0.179,-0.142,0.962,2.362,-5.337,-0.385
36908710,-0.182,-0.141,0.961,2.45,-5.635,-0.402
36908720,-0.184,-0.141,0.961,2.292,-5.425,-0.385
36908730,-0.181,-0.141,0.961,2.275,-6.002,-0.507
36908740,-0.182,-0.139,0.962,2.1,-5.705,-0.42
36908750,-0.183,-0.139,0.962,2.047,-6.177,-0.525
36908760,-0.183,-0.141,0.962,1.802,-5.845,-0.437
36908770,-0.18,-0.141,0.961,1.802,-6.335,-0.542
36908780,-0.178,-0.141,0.961,1.662,-5.95,-0.367
36908790,-0.178,-0.141,0.959,1.785,-6.212,-0.367
36908800,-0.178,-0.14,0.96,1.82,-5.81,-0.245
36908810,-0.177,-0.139,0.96,1.977,-6.195,-0.245
36908820,-0.18,-0.139,0.96,1.942,-5.862,-0.087
36908830,-0.182,-0.14,0.961,2.012,-6.265,-0.087
36908830,-0.181,-0.141,0.961,1.907,-6.055,-0.087
36908850,-0.18,-0.142,0.961,1.942,-6.422,-0.175
36908850,-0.18,-0.143,0.962,1.907,-6.02,-0.105
36908870,-0.175,-0.143,0.96,2.012,-6.16,-0.227
36908870,-0.175,-0.142,0.961,2.1,-5.652,-0.175
36908890,-0.178,-0.141,0.961,2.257,-5.652,-0.14
36908890,-0.179,-0.141,0.961,2.257,-5.372,-0.105
36908910,-0.18,-0.14,0.962,2.292,-5.565,-0.157
36908910,-0.181,-0.142,0.961,2.24,-5.442,-0.192
36908920,-0.179,-0.141,0.96,2.24,-5.565,-0.245
36908930,-0.18,-0.142,0.961,2.205,-5.425,-0.21
36908940,-0.18,-0.142,0.961,2.275,-5.372,-0.227
36908950,-0.179,-0.143,0.961,2.292,-5.285,-0.245
36908960,-0.18,-0.142,0.961,2.362,-5.197,-0.28
36908970,-0.178,-0.143,0.961,2.415,-5.11,-0.332
36908980,-0.177,-0.142,0.96,2.52,-4.882,-0.402
36908990,-0.18,-0.139,0.96,2.66,-4.795,-0.367
36909000,-0.18,-0.14,0.96,2.712,-4.637,-0.35
36909010,-0.182,-0.14,0.96,2.747,-4.777,-0.402
36909020,-0.18,-0.14,0.961,2.73,-4.532,-0.437
36909030,-0.18,-0.14,0.96,2.73,-4.655,-0.542
36909040,-0.179,-0.142,0.96,2.782,-4.287,-0.525
36909050,-0.182,-0.142,0.96,3.08,-4.375,-0.752
36909060,-0.184,-0.144,0.958,3.185,-4.13,-1.015
36909070,-0.17,-0.151,0.959,3.587,-4.252,-1.452
36909080,-0.167,-0.145,0.964,4.13,-3.062,-1.592
36909090,-0.19,-0.14,0.97,4.252,-2.432,-1.855
36909100,-0.199,-0.143,0.983,2.94,-1.61,-2.222
36909110,-0.237,-0.147,1.013,-0.245,-2.257,-2.887
36909120,-0.201,-0.202,1.012,-5.582,-4.515,-3.482
36909130,-0.134,-0.235,0.981,-4.935,-5.32,-4.322
36909140,-0.071,-0.186,0.97,-0.315,-0.42,-4.235
36909150,-0.117,-0.112,0.949,4.392,5.757,-3.08
36909160,-0.177,-0.081,0.931,6.335,10.972,-1.68
36909170,-0.206,-0.079,0.937,6.055,11.672,-2.642
36909170,-0.298,-0.058,0.928,4.34,10.342,-3.57
36909190,-0.383,-0.003,0.93,0.21,3.202,-4.182
36909190,-0.289,0.004,0.939,-7.49,-7.157,-4.445
36909210,-0.135,-0.016,0.912,-13.562,-14.437,-3.202
36909210,-0.19,-0.078,0.92,-15.295,-15.032,-0.542
36909230,-0.314,-0.184,0.846,-13.58,-16.957,2.8
36909230,-0.126,-0.327,0.915,-7.087,-20.247,6.16
36909250,-0.171,-0.444,0.944,2.205,-17.78,4.112
36909250,-0.127,-0.253,0.946,11.27,-13.755,-0.455
36909260,-0.043,-0.069,1.001,14.997,-9.905,0
36909270,-0.181,0.007,1,13.685,-5.95,3.097
36909280,-0.281,-0.074,0.976,9.17,-9.432,4.69
36909290,-0.239,-0.113,0.976,5.652,-15.662,3.727
36909300,-0.188,-0.129,0.976,3.377,-19.565,1.347
36909310,-0.133,-0.15,0.976,1.732,-20.02,0.7
36909320,-0.134,-0.146,0.978,1.47,-17.482,1.137
36909330,-0.122,-0.139,0.981,1.225,-14.437,1.312
36909340,-0.1,-0.159,0.972,1.277,-10.377,0.927
36909350,-0.122,-0.205,0.966,3.307,-5.337,-0.245
36909360,-0.141,-0.18,0.966,5.11,-0.647,-1.26
36909370,-0.168,-0.167,0.967,5.88,2.45,-1.505
36909380,-0.216,-0.132,0.973,5.495,4.112,-1.085
36909390,-0.259,-0.103,0.978,2.782,2.852,-0.962
36909400,-0.264,-0.082,0.986,-2.205,-0.315,-1.732
36909410,-0.247,-0.121,0.982,-8.12,-3.832,-3.307
36909420,-0.237,-0.116,0.988,-13.527,-5.635,-4.97
36909430,-0.196,-0.131,0.993,-18.777,-7.035,-6.492
36909440,-0.192,-0.118,0.999,-23.31,-6.457,-7.437
36909450,-0.187,-0.117,1.027,-28.84,-7.087,-8.172
36909460,-0.195,-0.102,1.051,-37.537,-6.65,-8.75
36909470,-0.205,-0.121,1.062,-48.86,-7.315,-10.115
36909480,-0.238,-0.1,1.069,-61.932,-6.265,-12.95
36909490,-0.239,-0.119,1.054,-75.197,-8.225,-15.575
36909500,-0.247,-0.163,1.033,-86.712,-9.117,-18.025
36909510,-0.249,-0.179,1.02,-96.005,-12.495,-19.04
36909520,-0.249,-0.211,0.986,-102.69,-19.215,-18.147
36909530,-0.218,-0.252,0.944,-104.597,-23.1,-18.882
36909540,-0.25,-0.296,0.929,-99.82,-23.94,-22.4
36909550,-0.173,-0.404,0.895,-91.507,-22.855,-27.825
36909560,-0.091,-0.448,0.892,-78.995,-11.27,-29.89
36909570,-0.047,-0.498,0.767,-61.495,3.517,-30.205
36909580,0.041,-0.524,0.665,-39.252,15.242,-28.63
36909580,-0.002,-0.547,0.682,-13.09,26.845,-29.732
36909600,-0.036,-0.538,0.518,20.02,37.59,-31.885
36909600,-0.122,-0.291,0.457,50.225,40.32,-32.567
36909620,-0.18,-0.282,0.513,65.38,29.662,-33.512
36909620,-0.239,-0.265,0.563,82.005,9.362,-29.697
36909640,-0.446,-0.337,0.598,101.342,-14.77,-22.557
36909640,-0.388,-0.484,0.478,124.775,-43.645,-12.652
36909660,-0.055,-0.501,0.737,150.482,-61.6,4.62
36909660,0.717,-0.69,1.333,174.335,-37.152,26.197
36909670,0.512,-0.069,1.753,191.66,30.257,33.757
36909680,-0.185,0.872,1.623,143.885,66.955,33.81
36909690,-1.257,1.035,1.196,60.462,51.31,36.225
36909700,-0.469,0,1.074,-5.512,-8.75,22.015
36909710,-0.554,-0.137,0.971,-26.932,-30.397,6.405
36909720,-0.386,-0.304,0.921,-35.385,-42.647,-9.152
36909730,0.129,-0.37,0.916,-32.847,-45.762,-15.575
36909740,0.028,-0.295,0.912,-20.37,-32.165,-9.082
36909750,0.032,-0.293,0.903,-7.682,-21.892,1.61
36909760,-0.121,-0.351,0.877,5.757,-13.335,9.415
36909770,-0.213,-0.224,0.953,16.975,-10.605,9.45
36909780,-0.195,-0.1,1.011,17.675,-10.815,5.092
36909790,-0.183,-0.106,1.001,11.742,-11.882,2.712
36909800,-0.169,-0.131,0.991,6.545,-11.567,2.817
36909810,-0.166,-0.118,0.999,2.415,-11.042,3.972
36909820,-0.168,-0.122,1,-2.957,-9.8,5.197
36909830,-0.189,-0.116,1.002,-8.977,-9.065,5.11
36909840,-0.126,-0.091,1.031,-15.82,-8.05,4.392
36909850,-0.12,-0.085,1.059,-24.062,-6.177,3.955
36909860,-0.138,-0.11,1.076,-35.595,-2.03,1.802
36909870,-0.247,-0.067,1.13,-49.682,1.942,-4.497
36909880,-0.209,-0.014,1.229,-71.347,5.757,-14.822
36909890,-0.153,0.024,1.329,-101.955,11.637,-24.972
36909900,-0.133,0.04,1.377,-139.86,19.6,-31.587
36909910,-0.195,-0.005,1.339,-176.697,27.807,-34.107
36909920,-0.277,-0.115,1.243,-209.527,29.102,-29.575
36909920,-0.325,-0.12,1.177,-237.405,19.32,-18.252
36909940,-0.562,-0.168,1.166,-261.66,-10.5,-9.187
36909940,-0.512,-0.59,1.114,-277.795,-54.057,-2.485
36909960,-0.609,-0.34,1.153,-275.345,-73.325,17.902
36909960,-0.995,-1.507,1.315,-235.287,-109.9,0.997
36909980,-0.451,-1.949,1.129,-131.005,-131.81,2.8
36909980,-0.31,-1.014,0.375,-15.26,-88.795,29.4
36910000,0.167,-1.195,0.302,6.912,5.635,38.447
36910000,-0.274,-0.859,-0.124,38.552,47.057,4.987
36910010,-0.185,0.258,-0.302,41.685,72.782,14.262
36910020,-0.244,-0.226,0.026,-9.31,36.907,-17.307
36910030,0.074,0.041,0.052,-16.52,22.452,-22.82
36910040,-0.211,0.416,-0.067,-15.802,31.15,-19.092
36910050,-0.189,0.506,-0.139,-31.71,24.08,-16.415
36910060,-0.103,0.563,-0.149,-45.797,22.89,-3.57
36910070,-0.134,0.565,-0.143,-55.65,31.412,11.27
36910080,-0.284,0.585,-0.172,-67.865,29.26,24.325
36910090,-0.43,-0.164,0.572,-91.245,-3.08,28.14
36910100,0.869,-1.845,1.227,-60.007,-34.37,14.682
36910110,1.049,-1.998,0.815,86.887,-14.227,-43.89
36910120,-1.721,-1.6,0.961,263.322,-30.782,-159.232
36910130,0.679,0.36,1.347,265.807,-55.982,-83.772
36910140,1.524,0.679,1.344,268.747,-31.867,-48.212
36910150,-0.244,-0.95,1.314,264.39,-5.442,-45.71
36910160,0.61,-0.079,1.273,252.49,-7.56,35.052
36910170,-0.09,-0.216,1.062,229.74,-7.07,81.847
36910180,0.011,-0.359,0.956,219.275,-14.315,101.885
36910190,-0.203,-0.284,0.935,231.122,7.122,108.64
36910200,-0.099,-0.328,0.99,251.702,49.175,93.38
36910210,0.025,-0.301,1.506,258.282,82.932,71.907
36910220,-0.351,0.681,1.736,190.505,104.825,54.477
36910230,-1.133,1.695,1.085,76.44,84.595,37.625
36910240,-0.498,-0.107,1.04,-1.89,9.922,9.31
36910250,-0.532,0.209,0.97,-22.155,-19.39,-9.047
36910260,-0.363,-0.472,0.815,-31.062,-32.97,-22.295
36910270,0.037,-0.62,0.811,-13.125,-34.685,-22.96
36910280,0.164,-0.359,0.947,8.277,-19.705,-8.96
36910290,-0.112,-0.065,0.994,18.235,-2.152,8.312
36910300,-0.376,-0.013,0.992,16.66,2.345,15.347
36910310,-0.553,0.005,0.973,7.595,-9.257,9.047
36910320,-0.244,-0.127,0.976,-2.887,-25.112,-0.56
36910330,-0.139,-0.106,0.992,-5.722,-27.737,-3.57
36910330,-0.047,-0.142,0.996,-6.492,-21.822,-0.087
36910350,-0.103,-0.12,0.998,-6.125,-13.002,4.375
36910350,-0.153,-0.091,1.011,-9.047,-5.845,5.337
36910370,-0.134,-0.07,1.047,-15.032,-1.295,2.03
36910370,-0.05,-0.074,1.115,-25.445,7.332,-4.007
36910390,-0.018,-0.032,1.233,-39.13,23.782,-11.042
36910390,0.014,-0.053,1.377,-61.075,49.262,-17.307
36910410,-0.217,0.06,1.431,-94.272,77.122,-17.027
36910410,0.14,-0.069,1.452,-152.705,71.68,-2.187
36910420,-0.069,-0.085,1.4,-199.045,69.825,14.28
36910430,-0.096,-0.19,1.373,-229.075,53.97,28.21
36910440,0.05,-0.41,1.18,-236.547,36.75,39.27
36910450,0.249,-0.69,0.993,-234.517,41.93,47.95
36910460,-0.279,-0.903,1.168,-217.437,49.805,67.69
36910470,-0.986,-1.725,1.85,-150.167,-7.962,67.13
36910480,0.982,-1.624,0.736,-38.692,-120.715,-0.77
36910490,0.876,-0.376,0.284,32.76,-62.02,-43.365
36910500,-0.78,-0.069,-0.169,38.867,-67.987,-155.382
36910510,-0.364,0.332,-0.402,-13.912,-163.415,-195.527
36910520,-0.892,0.615,-0.367,-57.802,-218.295,-190.295
36910530,-0.588,0.438,-0.23,-89.88,-239.26,-163.397
36910540,-0.44,0.492,-0.11,-93.17,-220.92,-126.752
36910550,-0.439,0.593,-0.274,-77.91,-186.987,-99.312
36910560,-0.38,0.561,-0.403,-75.985,-160.877,-87.132
36910570,-0.236,-0.138,-0.146,-92.207,-158.952,-91.087
36910580,-0.034,-1.98,1.832,-72.957,-53.515,-63.525
36910590,-0.236,-1.998,-0.078,178.15,306.232,32.182
36910600,0.236,-1.212,0.585,307.86,253.067,25.742
36910610,-1.385,1.091,1.262,333.077,142.17,-10.395
36910620,0.593,0.493,1.087,379.4,68.967,56.91
36910630,0.514,-0.673,1.677,393.33,67.48,66.097
36910640,0.942,0.022,1.998,382.725,131.862,63.595
36910650,-1.277,1.453,1.743,240.852,180.39,51.712
36910660,-1.613,0.831,1.053,69.387,91.21,23.31
36910670,-1.109,0.214,0.973,-17.885,-45.762,-14.962
36910670,-0.169,-0.224,0.961,-42.42,-93.397,-30.712
36910690,-0.024,-0.214,0.963,-44.52,-92.435,-23.257
36910690,0.154,-0.475,0.905,-38.062,-78.277,-16.222
36910710,0.306,-0.327,0.941,-24.237,-59.15,-9.38
36910710,0.099,-0.199,0.964,-12.705,-36.295,4.62
36910730,-0.092,-0.11,0.99,-7.507,-24.92,11.672
36910730,-0.139,-0.12,0.99,-9.222,-22.242,10.517
36910750,0.003,-0.277,0.935,-11.882,-21.297,8.89
36910750,-0.074,-0.236,0.949,-7.315,-15.102,13.072
36910760,-0.268,-0.05,1.016,-6.177,-13.737,16.73
36910770,-0.349,-0.025,1.032,-16.345,-20.545,14.437
36910780,-0.186,-0.226,0.953,-25.007,-31.587,7.332
36910790,0.008,-0.291,0.935,-23.992,-33.547,1.54
36910800,0.088,-0.204,0.962,-19.04,-26.635,1.61
36910810,0.041,-0.169,0.976,-16.205,-16.782,5.53
36910820,0.021,-0.181,0.974,-15.417,-8.575,8.995
36910830,-0.01,-0.182,0.985,-15.435,-0.98,10.972
36910840,-0.029,-0.186,1.001,-17.745,5.862,11.06
36910850,-0.009,-0.18,1.03,-21.997,12.46,10.517
36910860,-0.028,-0.166,1.066,-28.84,20.317,10.412
36910870,-0.033,-0.141,1.113,-38.902,29.032,9.695
36910880,-0.015,-0.101,1.18,-53.06,40.285,8.61
36910890,-0.088,-0.076,1.263,-74.182,47.022,10.815
36910900,0.434,-0.11,1.302,-104.177,45.5,24.185
36910910,0.014,-0.157,1.337,-129.622,64.942,44.362
36910920,0.053,-0.377,1.267,-162.942,62.877,68.687
36910930,0.024,-0.665,1.243,-168.315,51.537,85.82
36910940,0.262,-0.714,1.215,-156.292,64.015,103.967
36910950,-0.052,-0.808,0.885,-146.107,70.857,110.547
36910960,-0.003,-1.409,1.388,-143.465,64.225,111.475
36910970,-0.031,-1.993,1.484,-69.212,42.367,123.742
36910980,0.608,-1.674,0.023,35.612,-37.887,65.082
36910990,1.324,-0.462,-0.659,87.605,11.375,0.892
36911000,-1.42,-0.505,-0.446,32.917,34.527,-126.297
36911010,-1.099,-0.286,-0.678,-0.052,-30.537,-161.017
36911020,-1.495,0.564,-0.948,-7.49,-29.89,-119.542
36911030,-1.808,0.566,-0.772,-47.985,-42.735,-107.03
36911040,-0.971,0.376,-0.664,-60.917,-69.405,-89.022
36911050,-0.403,0.469,-0.827,-44.905,-67.777,-91.157
36911060,-0.896,0.341,1.203,-12.967,-80.395,-91.472
36911070,-1.129,-1.053,0.984,228.41,-178.255,-77.822
36911080,1.764,-0.837,1.109,389.025,-107.502,-20.247
36911080,-0.527,-0.594,1.839,433.317,-51.012,-22.505
36911100,1.998,-0.026,1.998,401.905,25.655,20.685
36911100,-0.837,1.254,1.489,224,214.917,56.07
36911120,-0.856,0.416,1.025,55.965,79.642,33.005
36911120,-0.822,-0.01,0.985,-42.28,-85.225,-18.235
36911130,0.259,-0.479,0.934,-44.625,-105.49,-21.787
36911140,0.245,-0.406,0.924,-35.77,-82.407,-25.217
36911150,0.33,-0.392,0.926,-21.525,-51.502,-13.79
36911160,0.205,-0.255,0.945,-8.347,-26.232,-3.605
36911170,0.033,-0.305,0.931,0.647,-7.437,6.16
36911180,-0.002,-0.254,0.936,8.75,2.94,8.785
36911190,-0.043,-0.195,0.963,14.717,9.485,5.67
36911200,-0.053,-0.114,0.991,16.1,14.7,5.67
36911210,-0.194,-0.078,0.992,13.142,17.43,9.975
36911220,-0.357,-0.078,0.986,8.645,12.775,10.465
36911230,-0.287,-0.123,0.978,3.08,2.275,5.792
36911240,-0.253,-0.117,0.981,-2.17,-6.02,2.362
36911250,-0.198,-0.172,0.96,-6.947,-12.11,0.332
36911260,-0.118,-0.177,0.961,-8.4,-14.945,-1.347
36911270,-0.045,-0.145,0.981,-8.365,-14.017,1.085
36911280,-0.118,-0.132,0.981,-9.415,-10.465,6.755
36911290,-0.172,-0.169,0.977,-11.69,-8.907,9.082
36911300,-0.163,-0.168,0.987,-13.16,-9.87,6.632
36911310,-0.104,-0.143,1.012,-17.762,-9.555,3.185
36911320,-0.084,-0.134,1.039,-24.605,-5.407,1.592
36911330,-0.092,-0.122,1.077,-33.425,-2.765,-0.595
36911340,-0.06,-0.087,1.149,-47.547,3.22,-3.885
36911350,-0.038,-0.044,1.25,-67.742,12.705,-6.545
36911360,-0.016,-0.02,1.338,-97.3,29.382,-9.047
36911370,-0.017,-0.04,1.33,-133.315,48.947,-9.31
36911380,-0.331,-0.089,1.324,-172.55,51.31,2.082
36911390,-0.045,-0.058,1.331,-220.01,20.405,27.86
36911400,-0.279,-0.215,1.253,-254.835,0.402,51.572
36911410,-0.461,-0.5,1.292,-262.552,-25.812,69.23
36911420,-0.377,-1.107,1.17,-244.142,-56.052,102.375
36911420,0.021,-1.67,0.848,-196.56,-95.427,129.517
36911440,-0.145,-1.998,0.644,-158.235,-101.867,126.63
36911440,-0.67,-1.856,0.215,-45.465,-54.302,171.447
36911460,-0.45,-1.057,-0.544,18.41,-4.042,273.7
36911460,0.207,-0.998,-0.609,-40.81,15.452,293.44
36911480,0.413,-0.242,-0.419,-61.302,-3.22,236.215
36911480,0.835,0.518,-0.238,-78.26,4.847,182.35
36911500,0.648,1.48,-0.414,-45.727,13.632,95.917
36911500,0.088,1.691,-0.482,-28.402,6.72,12.372
36911510,-0.213,1.489,-0.482,-19.32,-7.927,-30.852
36911520,-0.573,1.244,0.019,-7.367,-23.117,-39.987
36911530,-1.516,-1.139,1.737,33.285,-74.182,-72.24
36911540,-0.901,-1.998,0.261,271.705,-191.292,-133.402
36911550,0.355,0.726,0.942,481.372,-114.52,-108.15
36911560,0.141,1.231,1.727,421.032,-106.89,-77
36911570,1.741,-0.575,1.835,395.64,-129.797,-19.46
36911580,1.908,-0.393,1.998,366.975,-3.85,22.96
36911590,-0.785,1.4,1.689,220.202,153.79,50.872
36911600,-1.489,0.553,1.051,53.182,86.73,27.86
36911610,-0.899,0.227,1.005,-32.672,-62.72,-14.28
36911620,0.137,-0.433,0.925,-49.35,-93.327,-27.86
36911630,0.284,-0.419,0.919,-41.685,-71.312,-19.635
36911640,0.107,-0.465,0.914,-25.952,-44.257,-5.775
36911650,-0.013,-0.313,0.91,-13.492,-27.65,2.887
36911660,0.14,-0.27,0.937,-1.977,-16.94,2.485
36911670,0.048,-0.153,0.975,6.142,-4.655,2.467
36911680,-0.032,-0.213,0.955,8.54,4.76,7.752
36911690,-0.135,-0.131,0.981,11.235,9.765,10.657
36911700,-0.25,-0.078,1.003,9.17,9.065,11.357
36911710,-0.223,-0.036,1.022,2.362,2.17,10.797
36911720,-0.272,-0.091,0.996,-6.772,-3.762,12.215
36911730,-0.389,-0.178,0.952,-14.175,-12.39,9.38
36911740,-0.213,-0.199,0.948,-18.095,-22.82,0.017
36911750,-0.031,-0.172,0.98,-19.127,-25.935,-5.425
36911760,0.028,-0.231,0.958,-15.697,-21.665,-2.31
36911770,-0.055,-0.16,0.98,-11.62,-15.242,2.012
36911780,-0.081,-0.167,0.988,-11.41,-10.727,3.675
36911790,-0.018,-0.187,0.985,-12.425,-7.857,3.902
36911800,-0.032,-0.18,0.99,-13.3,-2.03,6.317
36911800,-0.102,-0.175,1.019,-15.715,2.695,8.4
36911820,-0.228,-0.112,1.064,-23.73,5.547,6.37
36911820,-0.291,-0.03,1.151,-39.672,2.765,-1.4
36911830,-0.219,0.017,1.256,-65.59,0.157,-12.547
36911840,-0.131,0.04,1.357,-99.102,2.747,-22.995
36911850,-0.172,0.068,1.425,-139.615,13.877,-32.392
36911860,-0.278,0.088,1.412,-189.84,5.547,-36.855
36911870,-0.396,0.082,1.328,-237.685,-5.057,-33.11
36911880,-0.745,0.019,1.292,-282.03,-23.555,-31.08
36911890,-0.845,-0.392,1.413,-319.095,-70.927,-31.902
36911900,-1.249,0.038,1.654,-306.88,-148.925,-41.107
36911910,-0.684,-0.989,1.532,-253.295,-225.435,-70.962
36911920,-0.475,-0.681,1.157,-185.08,-189.35,-55.615
36911930,-0.347,-0.663,1.264,-118.125,-93.922,-44.94
36911940,-1.59,0.212,1.382,22.137,-2.222,1.487
36911950,-1.813,1.891,0.304,175.192,64.855,118.772
36911960,-0.298,1.534,0.207,200.305,101.377,236.827
36911970,0.214,1.375,-0.223,247.222,101.885,217.735
36911980,0.747,1.139,-0.629,259.682,103.775,156.03
36911990,0.64,0.761,-0.775,227.692,89.652,64.855
36912000,0.704,-0.318,-0.686,158.725,60.812,-29.662
36912010,0.384,-1.067,-0.477,110.25,63.052,-91.857
36912020,-0.233,-1.282,-0.617,89.407,50.225,-132.93
36912030,-0.98,-1.659,-0.371,63.245,28.437,-152.95
36912040,1.153,-1.998,-0.191,52.412,-217.997,-382.987
36912050,-0.956,0.562,1.643,435.435,87.587,-255.815
36912060,1.998,1.657,1.998,360.08,35.752,-100.835
36912070,-0.437,-0.009,1.623,175.227,176.575,39.48
36912080,-0.793,0.132,1.075,56.717,103.897,86.73
36912090,-1.052,0.113,0.995,-21.752,-34.195,21.612
36912100,0.459,-0.748,0.868,-24.57,-60.235,1.085
36912110,-0.135,-0.254,0.976,-8.207,-37.625,-5.565
36912120,-0.153,-0.204,0.973,-5.985,-29.365,-1.435
36912130,-0.053,-0.131,0.978,-8.592,-26.547,0.612
36912140,0.009,-0.321,0.927,-7.017,-19.67,1.417
36912150,-0.101,-0.294,0.931,0.91,-10.937,1.522
36912160,-0.131,-0.123,0.981,6.912,-5.81,0.105
36912170,-0.083,-0.12,0.992,5.74,-5.337,-1.085
36912170,-0.058,-0.099,0.995,2.327,-2.607,1.855
36912190,-0.24,-0.151,0.966,-0.245,-0.997,6.842
36912190,-0.252,-0.153,0.97,-1.75,-5.04,4.655
36912210,-0.22,-0.125,0.981,-4.69,-11.497,-0.665
36912210,-0.152,-0.141,0.972,-8.767,-15.382,-3.71
36912230,-0.088,-0.178,0.96,-9.45,-16.73,-4.182
36912230,-0.059,-0.175,0.966,-7.087,-14.052,-2.922
36912250,-0.043,-0.13,0.98,-5.197,-10.762,-0.56
36912250,-0.072,-0.177,0.954,-4.287,-6.737,3.22
36912260,-0.125,-0.254,0.931,0.28,-4.095,6.317
36912270,-0.232,-0.194,0.968,4.637,-2.782,5.897
36912280,-0.2,-0.126,0.998,2.537,-6.492,1.207
36912290,-0.123,-0.123,1.01,-3.22,-9.065,-2.135
36912300,-0.115,-0.104,1.029,-9.87,-8.242,-1.575
36912310,-0.122,-0.045,1.077,-19.442,-6.667,0.157
36912320,-0.123,-0.031,1.151,-35.717,-5.495,1.522
36912330,-0.131,-0.005,1.251,-59.815,-3.185,2.047
36912340,-0.082,-0.012,1.321,-89.88,1.137,1.295
36912350,-0.101,-0.029,1.356,-125.405,9.695,-1.102
36912360,-0.367,0.032,1.426,-165.62,4.812,3.027
36912370,-0.463,-0.091,1.345,-210.052,-49.122,19.985
36912380,-0.237,-0.472,1.208,-233.38,-83.072,34.37
36912390,-0.627,-0.799,1.244,-227.062,-89.267,48.247
36912400,-0.224,-1.226,1.192,-205.625,-99.855,55.825
36912410,0.665,-1.338,1.151,-157.377,-81.532,67.112
36912420,0.048,-1.936,0.545,-77.892,-17.29,56.437
36912430,-0.493,-1.969,0.43,0.472,60.935,71.697
36912440,0.551,-0.849,0.099,77.052,83.597,95.427
36912450,0.866,-0.205,-0.263,85.102,104.947,47.285
36912460,0.229,-0.08,-0.389,83.65,109.76,-39.83
36912470,0.185,-0.219,-0.629,76.632,78.522,-108.36
36912480,0.109,-0.178,-1.076,75.32,61.88,-153.265
36912490,-0.297,-0.089,-1.254,44.257,46.48,-174.282
36912500,-0.356,-0.524,-0.891,-26.915,15.697,-185.097
36912510,-0.052,-1.222,-0.65,-68.04,-6.072,-171.832
36912510,0.4,-0.711,-0.909,-55.16,-1.522,-154.525
36912530,-0.773,0.164,1.556,-18.742,-16.852,-103.932
36912530,-0.541,1.218,1.131,315.927,-4.585,56.717
36912550,0.975,0.476,1.276,513.205,27.912,117.67
36912550,0.323,-0.922,1.998,486.115,34.125,59.955
36912570,-0.53,1.307,1.476,342.352,243.827,110.722
36912570,-1.692,0.151,0.729,72.73,112.577,46.375
36912580,-1.483,0.505,0.992,-71.627,-117.005,-31.972
36912590,-0.192,-1.037,0.885,-77.245,-164.99,-51.747
36912600,0.626,-0.615,0.891,-61.897,-136.832,-54.757
36912610,0.705,-0.547,0.901,-39.392,-84.7,-38.185
36912620,0.297,-0.318,0.95,-16.065,-41.632,-10.43
36912630,-0.109,-0.18,0.954,-3.5,-19.302,3.377
36912640,-0.061,-0.256,0.949,2.17,-16.275,2.8
36912650,0.114,-0.182,0.977,6.3,-10.325,3.272
36912660,-0.086,-0.122,0.997,8.207,-0.42,10.272
36912670,-0.273,-0.066,0.996,4.795,1.295,12.932
36912680,-0.243,-0.145,0.977,-0.297,-5.145,9.537
36912690,-0.145,-0.121,0.981,-2.8,-9.782,6.685
36912700,-0.15,-0.268,0.932,-3.15,-11.375,6.475
36912710,-0.075,-0.256,0.94,1.802,-10.727,4.165
36912720,-0.004,-0.182,0.966,6.405,-7.227,4.13
36912730,-0.095,-0.135,0.982,8.4,-1.382,8.61
36912740,-0.185,-0.108,0.989,7.052,1.032,11.707
36912750,-0.21,-0.141,0.976,3.727,-1.032,10.185
36912760,-0.103,-0.175,0.968,1.557,-3.307,7.105
36912770,-0.078,-0.17,0.973,1.54,-1.487,7.997
36912780,-0.113,-0.172,0.973,1.61,1.82,9.747
36912790,-0.11,-0.174,0.978,1.242,3.727,9.625
36912800,-0.054,-0.163,1.002,-0.647,6.877,7.98
36912810,-0.009,-0.123,1.05,-5.372,13.16,5.565
36912820,0.063,-0.087,1.132,-15.575,24.027,4.007
36912830,0.145,-0.064,1.278,-32.585,41.422,3.395
36912840,0.172,-0.036,1.459,-58.012,70.14,6.352
36912850,-0.338,0.023,1.495,-98.595,98.577,19.232
36912860,0.011,0.141,1.499,-170.8,62.947,51.905
36912870,-0.629,-0.025,1.333,-220.062,14.245,70.525
36912880,-0.212,-0.681,1.186,-252.857,-38.167,78.19
36912890,-0.207,-0.761,0.99,-250.495,-35.77,109.987
36912900,-0.266,-0.957,0.838,-225.715,-29.645,124.355
36912910,-1.078,-1.815,0.854,-187.512,-43.96,108.57
36912920,0.753,-1.949,0.564,-120.802,-71.505,60.69
36912920,0.407,-1.518,0.278,-32.2,8.015,72.117
36912940,0.141,-0.682,0.275,10.99,52.395,37.835
36912940,0.268,-0.31,0.235,25.042,38.482,-30.257
36912960,0.1,0.235,-0.033,51.59,33.897,-88.34
36912960,-0.241,0.845,-0.346,67.847,24.272,-136.692
36912980,-0.418,0.758,-0.308,43.732,-7.105,-176.522
36912980,-0.359,0.484,-0.432,30.922,-24.465,-208.372
36913000,-0.494,0.581,-0.653,36.505,-14.735,-217.122
36913000,-0.661,0.45,-0.767,19.565,-12.302,-217.612
36913010,-0.247,0.438,-0.778,-1.68,-21.752,-202.09
36913020,-1.483,-1.338,1.777,38.64,-68.6,-163.38
36913030,0.376,-1.315,0.274,406.77,-118.335,-97.545
36913040,1.841,-0.966,1.282,447.58,-59.202,36.837
36913050,1.517,0.211,1.998,458.675,102.637,40.88
36913060,-0.397,0.665,1.181,282.17,320.775,97.527
36913070,-0.493,0.309,0.764,84.315,103.757,34.335
36913080,-0.176,-0.593,1.012,-91.157,-104.895,-12.95
36913090,-1.128,-0.14,0.915,-26.11,-107.467,-13.807
36913100,0.879,-0.564,0.968,-49.735,-125.527,-24.045
36913110,-0.056,-0.392,0.944,-25.392,-78.172,-16.905
36913120,0.231,-0.2,0.96,-18.812,-58.817,-11.707
36913130,0.365,-0.389,0.909,-10.08,-35.455,-4.952
36913140,0.083,-0.279,0.934,3.342,-10.797,3.465
36913150,-0.089,-0.196,0.971,10.447,1.96,3.762
36913160,-0.062,-0.106,0.998,11.112,6.177,2.73
36913170,-0.255,-0.059,1.003,6.877,6.405,6.527
36913180,-0.288,-0.125,0.992,-0.157,-0.157,5.81
36913190,-0.238,-0.046,1.013,-6.422,-8.207,1.715
36913200,-0.175,-0.23,0.956,-12.985,-13.597,-1.732
36913210,-0.035,-0.273,0.93,-11.76,-14.49,-4.9
36913220,0.009,-0.221,0.953,-5.95,-9.59,-3.692
36913230,-0.026,-0.187,0.965,-1.54,-4.06,0.665
36913240,-0.077,-0.167,0.979,-0.14,1.242,4.69
36913250,-0.104,-0.167,0.982,-1.662,4.182,5.862
36913260,-0.098,-0.204,0.968,-2.695,6.492,5.6
36913260,-0.025,-0.182,0.977,-2.327,8.785,5.617
36913280,-0.013,-0.152,0.999,-3.272,15.33,8.505
36913280,-0.065,-0.138,1.019,-6.615,22.575,12.092
36913300,-0.121,-0.136,1.028,-11.585,29.19,13.825
36913300,-0.092,-0.146,1.049,-15.907,34.037,13.755
36913320,-0.01,-0.124,1.118,-21.595,43.54,14.35
36913320,0.099,-0.061,1.224,-32.69,60.567,16.94
36913330,0.195,-0.142,1.319,-50.312,86.642,24.552
36913340,0.027,-0.29,1.327,-72.205,87.955,41.825
36913350,0.688,-0.56,1.393,-94.08,85.96,83.282
36913360,-0.062,-0.397,1.372,-90.895,106.417,125.65
36913370,-0.468,-0.43,1.377,-116.865,40.162,146.667
36913380,1.397,-1.423,1.512,-131.215,-53.2,158.025
36913390,-0.396,-1.179,1.469,-81.725,-66.22,192.132
36913400,1.111,-1.958,1.011,-45.937,-127.732,171.237
36913410,1.998,-1.746,0.756,6.562,-126.525,122.85
36913420,1.026,-0.5,0.232,56.735,-84.21,6.475
36913430,0.458,0.015,-0.086,47.53,-127.19,-118.51
36913440,-0.174,0.618,-0.578,36.785,-173.337,-201.617
36913450,-0.587,1.384,-0.972,36.89,-165.55,-212.432
36913460,-0.985,1.369,-0.697,3.255,-136.955,-187.145
36913470,-0.312,0.635,-0.677,-2.03,-96.337,-175.735
36913480,-0.407,0.336,-0.759,31.745,-29.645,-182.63
36913490,0.993,-0.954,0.165,56.682,160.72,-161.525
36913500,-1.66,-1.998,1.998,210.507,376.687,-37.222
36913510,1.849,0.764,1.204,336.577,199.395,159.757
36913520,-1.964,1.09,0.022,185.797,248.15,22.732
36913530,-0.164,-1.406,1.067,-107.625,-72.502,-50.015
36913540,-0.652,0.392,0.985,-23.677,-121.905,-18.287
36913550,0.302,-1.034,1.006,-47.285,-130.97,-24.937
36913560,0.426,-0.253,0.975,-24.5,-90.912,-13.405
36913570,-0.117,-0.135,1.014,-17.15,-54.845,-4.392
36913580,-0.039,-0.327,0.956,-15.715,-47.652,-1.417
36913590,0.118,-0.209,0.968,-9.747,-38.412,-2.922
36913600,0.097,-0.208,0.967,-2.642,-23.327,-0.192
36913610,0.009,-0.18,0.968,2.852,-10.395,2.292
36913620,-0.089,-0.169,0.968,5.967,-2.012,3.062
36913630,-0.206,-0.136,0.975,6.597,0.105,2.66
36913640,-0.178,-0.157,0.97,4.567,-2.362,0.122
36913650,-0.153,-0.167,0.967,3.675,-5.11,-3.097
36913660,-0.139,-0.191,0.96,3.43,-5.267,-5.67
36913670,-0.116,-0.176,0.966,3.377,-5.355,-7.35
36913670,-0.075,-0.163,0.969,3.097,-3.29,-7.735
36913690,-0.118,-0.117,0.986,2.747,-0.665,-6.265
36913690,-0.195,-0.13,0.985,-0.455,0.787,-5.127
36913710,-0.2,-0.127,0.989,-5.372,-1.365,-7.14
36913710,-0.191,-0.139,0.987,-11.112,-2.817,-9.712
36913730,-0.174,-0.131,1.002,-17.22,-4.532,-11.97
36913730,-0.16,-0.139,1.012,-22.925,-5.495,-12.582
36913750,-0.178,-0.12,1.037,-29.96,-6.475,-13.055
36913750,-0.179,-0.118,1.069,-39.935,-7,-13.685
36913760,-0.222,-0.121,1.117,-53.305,-8.592,-16.03
36913770,-0.252,-0.08,1.189,-72.572,-9.03,-20.387
36913780,-0.233,-0.007,1.246,-98.052,-10.01,-25.97
36913790,-0.278,-0.029,1.288,-127.26,-12.617,-28.035
36913800,-0.303,-0.061,1.335,-160.947,-29.295,-22.872
36913810,-0.49,-0.33,1.248,-182.49,-61.127,-17.377
36913820,-0.643,-0.573,1.171,-181.492,-89.512,-14.542
36913830,-0.461,-0.975,1.135,-167.615,-106.82,8.032
36913840,-0.254,-0.941,0.968,-127.417,-113.505,32.147
36913850,-0.165,-1.431,0.98,-79.712,-136.552,52.727
36913860,-1.278,-1.976,0.197,0.875,-98.77,108.692
36913870,-0.446,-0.735,-0.195,74.987,19.862,275.537
36913880,0.109,-0.812,-0.098,53.725,16.817,325.237
36913890,1.179,-1.303,-0.039,24.71,-1.995,273.7
36913900,0.876,-0.83,-0.42,50.085,29.435,235.375
36913910,0.589,-0.237,-0.993,38.675,48.492,168.28
36913920,0.269,-0.05,-1.171,-26.337,42.612,87.99
36913930,0.186,-0.239,-0.824,-95.357,19.075,13.387
36913940,0.631,0.032,-0.225,-114.537,36.82,-31.692
36913950,-0.671,0.118,1.937,-8.312,-32.847,-44.432
36913960,0.856,1.923,0.428,394.555,-61.18,-49.542
36913970,0.358,-1.306,1.941,349.947,-142.03,-91.647
36913980,1.862,0.667,1.998,411.442,-27.317,3.395
36913990,0.128,1.144,1.796,273.105,150.412,55.93
36914000,-1.787,1.689,1.047,113.767,174.335,71.47
36914010,-0.581,0.217,1.152,-19.302,-16.747,5.267
36914010,-0.488,0.052,1.068,-46.182,-62.055,-22.89
36914030,-0.207,-0.488,0.928,-65.905,-60.725,-23.537
36914030,-0.203,-0.538,0.826,-59.5,-47.95,-30.257
36914050,0.286,-0.543,0.836,-42.245,-44.87,-34.23
36914050,0.363,-0.462,0.835,-15.942,-27.02,-21.21
36914070,0.148,-0.449,0.85,10.307,-7.717,3.622
36914070,-0.037,-0.339,0.924,30.415,4.392,16.205
36914080,-0.133,-0.086,1.035,36.645,8.662,19.145
36914090,-0.265,0.079,1.056,27.685,10.762,20.982
36914100,-0.432,-0.043,0.997,13.51,4.462,18.812
36914110,-0.308,-0.071,0.994,3.202,-7.227,12.6
36914120,-0.293,-0.079,1,-4.2,-16.24,7.735
36914130,-0.29,-0.126,0.984,-11.34,-23.38,2.905
36914140,-0.124,-0.177,0.973,-16.362,-29.277,-1.977
36914150,-0.041,-0.19,0.973,-16.94,-27.825,-1.977
36914160,-0.032,-0.165,0.984,-15.942,-23.03,-0.63
36914170,-0.007,-0.186,0.981,-15.75,-16.712,-0.472
36914180,0.021,-0.195,0.982,-14.507,-9.065,-0.997
36914190,0.042,-0.181,1.001,-13.195,0.647,-0.822
36914200,0.057,-0.165,1.026,-13.44,12.145,0.315
36914210,0.035,-0.14,1.074,-16.292,26.092,2.117
36914220,0.009,-0.12,1.123,-23.537,41.562,2.817
36914230,0.03,-0.079,1.196,-34.947,59.815,3.08
36914240,0.112,-0.038,1.353,-52.5,82.652,5.477
36914250,-0.009,-0.048,1.459,-84.805,106.225,14.472
36914260,0.369,-0.093,1.492,-138.74,111.807,36.382
36914270,0.093,0.086,1.564,-188.825,126.07,56.665
36914280,-0.266,0.072,1.516,-251.212,83.982,74.235
36914290,0.865,-0.774,1.742,-304.15,49.385,77.91
36914300,0.083,-0.259,1.699,-293.842,84.227,116.042
36914310,-1.26,-1.341,1.651,-317.572,18.602,124.32
36914320,1.782,-0.59,1.755,-306.197,-132.86,51.835
36914330,0.918,0.496,0.844,-172.62,-95.812,74.112
36914340,1.702,0.242,1.66,-118.947,-137.357,-24.85
36914350,-0.42,1.59,0.196,77.14,-167.772,-229.057
36914360,-1.989,1.997,-0.098,128.362,-194.88,-234.062
36914370,-1.991,1.717,-0.648,130.987,-196.28,-83.44
36914380,-1.442,1.267,-1.024,159.057,-131.057,59.395
36914390,-1,0.475,-1.152,160.177,-46.69,91.297
36914400,-0.766,-0.651,-0.837,137.112,-3.062,9.117
36914410,-0.828,-1.772,-0.7,125.492,9.817,-101.027
36914420,-1.064,-1.915,-0.728,155.417,18.655,-189.28
36914420,-1.833,-1.998,0.209,182.56,-41.982,-282.572
36914430,1.529,-0.496,0.476,427.525,-29.61,-229.337
36914440,1.157,1.986,1.998,437.85,75.967,-107.415
36914450,-0.096,1.176,1.641,208.477,188.492,11.76
36914460,-0.934,0.901,1.081,60.427,119.332,57.365
36914470,-0.574,-0.419,0.966,-35.472,-49.157,14.682
36914480,0.148,-0.319,0.91,-26.967,-72.782,-7.56
36914490,0.18,-0.332,0.962,-24.832,-59.78,-9.397
36914500,-0.111,-0.193,0.973,-18.76,-41.142,2.747
36914510,0.035,-0.172,0.977,-22.47,-37.135,7.367
36914520,0.152,-0.404,0.896,-16.852,-29.732,9.87
36914530,0.076,-0.336,0.921,-4.83,-14.665,9.817
36914540,-0.017,-0.196,0.967,5.635,-3.675,10.36
36914550,-0.077,-0.148,0.989,8.61,0.857,10.605
36914560,-0.135,-0.119,0.995,7.7,1.907,9.817
36914570,-0.199,-0.088,1.008,4.007,-0.682,9.152
36914580,-0.167,-0.118,0.993,-1.435,-6.125,7.7
36914590,-0.184,-0.207,0.963,-5.057,-10.465,4.935
36914600,-0.174,-0.182,0.974,-6.737,-14.07,-0.91
36914610,-0.061,-0.166,0.982,-9.52,-16.747,-6.3
36914620,-0.049,-0.154,0.993,-12.075,-15.155,-7.682
36914630,-0.06,-0.127,1.012,-16.327,-12.495,-8.295
36914640,-0.089,-0.154,1.01,-22.802,-9.835,-9.66
36914650,-0.122,-0.153,1.017,-29.295,-8.732,-12.022
36914660,-0.155,-0.13,1.049,-36.627,-8.89,-15.207
36914670,-0.15,-0.097,1.108,-46.742,-10.412,-19.722
36914680,-0.137,-0.093,1.126,-61.232,-10.377,-24.552
36914690,-0.132,-0.08,1.186,-79.66,-7.787,-30.205
36914700,-0.117,-0.051,1.258,-104.387,-1.837,-36.172
36914710,-0.161,-0.026,1.324,-135.117,4.147,-41.58
36914720,-0.464,0.011,1.319,-168.997,19.092,-48.72
36914730,-0.568,-0.037,1.321,-207.445,-5.88,-56.612
36914740,-0.789,-0.326,1.304,-228.777,-51.1,-66.202
36914750,-1.037,-0.821,1.364,-222.95,-97.772,-76.51
36914760,-0.79,-0.654,1.172,-170.047,-126.472,-64.645
36914760,0.192,-1.615,1.167,-135.047,-94.727,-50.225
36914780,-1.391,-1.739,0.392,-36.452,14.525,-4.025
36914780,-1.998,-1.07,0.375,54.635,47.04,92.802
36914800,-0.745,-1.086,-0.139,67.462,64.47,249.217
36914800,0.741,-1.096,0,84.77,75.372,278.425
36914820,0.378,-0.697,-0.471,124.39,71.347,205.87
36914820,0.716,-0.23,-1.052,138.46,80.15,151.55
36914830,-0.001,-0.041,-1.255,96.25,75.18,77.437
36914840,-0.055,-0.179,-1.209,38.482,56.805,18.567
36914850,-0.144,-0.495,-0.874,-7.822,44.887,-8.89
36914860,0.034,-0.701,-0.942,-17.36,46.462,-20.212
36914870,0.203,-0.102,-0.185,-22.172,49.77,-29.995
36914880,0.031,-1.562,1.021,43.155,-203.84,-146.405
36914890,-0.232,1.776,1.244,493.412,-93.555,-229.495
36914900,0.927,-1.766,1.998,420.682,-66.045,-198.485
36914910,1.035,0.901,1.971,349.895,129.622,-17.605
36914920,-1.998,1.952,0.55,173.652,250.88,47.88
36914930,0.066,-1.175,1.143,-49.752,-25.235,23.835
36914940,-0.896,0.22,1.046,-30.59,-75.81,-8.12
36914950,0.797,-0.926,0.918,-42.927,-80.22,-11.637
36914960,0.05,-0.289,0.941,-13.597,-34.93,-6.335
36914970,-0.082,-0.259,0.962,-6.335,-14.735,6.16
36914980,-0.093,-0.259,0.945,0.787,-6.492,5.635
36914990,-0.149,-0.237,0.957,6.177,-2.485,1.872
36915000,-0.168,-0.056,0.996,6.842,-2.17,-2.012
36915010,-0.032,-0.153,0.985,3.027,-2.765,-1.627
36915020,-0.095,-0.096,0.993,2.747,2.1,4.077
36915030,-0.277,-0.12,0.972,-0.157,2.765,11.147
36915040,-0.409,-0.069,0.985,-4.112,-4.62,10.36
36915050,-0.33,-0.128,0.972,-11.987,-18.112,3.78
36915060,-0.212,-0.132,0.979,-17.342,-27.195,-1.557
36915070,-0.11,-0.099,1.002,-21.07,-31.045,-2.852
36915080,-0.044,-0.103,1.015,-25.795,-28.857,-0.455
36915080,-0.06,-0.112,1.025,-30.922,-23.362,2.275
36915100,-0.021,-0.176,1.022,-35.087,-17.377,2.905
36915100,-0.011,-0.126,1.054,-39.532,-9.957,2.362
36915120,0.021,-0.127,1.095,-46.935,0.857,2.047
36915120,0.051,-0.086,1.153,-58.362,15.277,0.192
36915140,0.118,-0.079,1.219,-75.232,36.102,-1.855
36915140,0.079,-0.08,1.268,-96.39,60.76,-2.152
36915160,0.108,-0.092,1.375,-128.677,69.807,6.072
36915160,0.127,-0.077,1.349,-164.937,81.27,20.685
36915170,0.052,-0.077,1.318,-199.22,94.71,35.332
36915180,-0.029,-0.113,1.296,-232.89,97.492,49.017
36915190,-0.084,-0.251,1.313,-264.915,93.537,59.15
36915200,0.094,-0.146,1.288,-285.162,81.567,56.612
36915210,0.102,-0.619,1.142,-267.382,104.247,75.547
36915220,-0.871,-0.465,1.184,-220.57,107.345,83.09
36915230,-0.622,-1.072,1.126,-177.59,9.87,51.73
36915240,1.284,0.813,0.863,-92.347,-99.907,6.86
36915250,1.292,1.613,1.881,8.4,-108.517,15.085
36915260,-0.755,1.139,0.932,118.737,-92.417,-55.877
36915270,-0.977,1.936,-0.064,243.88,-93.8,-29.4
36915280,-1.336,1.258,-0.687,212.642,-68.845,80.797
36915290,-1.102,0.579,-1.1,168.927,-84.017,129.535
36915300,-0.811,-0.334,-0.807,93.082,-82.425,147.682
36915310,-0.618,-1.208,-0.65,56.84,-73.465,129.01
36915320,-1.038,-1.656,0.536,58.572,-91.49,74.235
36915330,-1.718,-1.998,-0.92,101.78,-306.932,-88.287
36915340,-0.695,-1.861,-0.001,339.01,-232.96,-202.737
36915350,0.964,1.614,1.565,374.447,-123.585,-85.19
36915360,1.968,1.276,1.998,346.482,-44.03,-93.642
36915370,0.252,0.166,1.558,211.172,159.285,13.685
36915380,-1.025,0.352,0.987,76.3,134.575,69.562
36915390,0.002,0.098,0.977,-35.7,-48.335,34.195
36915400,-0.486,-0.476,0.971,-21.927,-75.005,2.677
36915410,0.42,-0.459,0.954,-23.642,-74.042,6.212
36915420,-0.083,-0.222,0.967,-13.895,-46.445,4.69
36915430,0.172,-0.255,0.961,-15.382,-39.007,7.612
36915440,0.111,-0.288,0.933,-9.485,-21.787,15.19
36915450,-0.088,-0.289,0.93,-1.487,-10.22,14.945
36915460,-0.061,-0.204,0.955,5.005,-4.9,8.715
36915470,-0.025,-0.143,0.983,8.54,-2.012,3.99
36915480,-0.071,-0.114,0.987,7.332,1.575,5.075
36915490,-0.182,-0.119,0.981,5.127,1.907,6.615
36915500,-0.216,-0.131,0.985,2.8,-1.4,3.71
36915510,-0.164,-0.169,0.971,-0.455,-7.052,-1.172
36915510,-0.096,-0.137,0.983,-2.047,-8.785,-4.76
36915530,-0.05,-0.13,0.989,-3.745,-8.61,-5.862
36915530,-0.046,-0.141,0.986,-5.757,-5.215,-5.11
36915550,-0.088,-0.118,1.006,-7.28,-1.19,-4.69
36915550,-0.099,-0.144,1.005,-9.59,1.085,-5.95
36915570,-0.107,-0.144,1.005,-12.32,2.222,-8.172
36915570,-0.079,-0.143,1.02,-15.697,4.742,-9.782
36915580,-0.086,-0.137,1.035,-20.23,7.56,-10.447
36915590,-0.041,-0.132,1.065,-25.987,12.425,-9.852
36915600,-0.013,-0.122,1.106,-33.757,20.597,-9.397
36915610,0.009,-0.124,1.147,-45.01,34.457,-9.012
36915620,0.054,-0.137,1.19,-58.642,52.78,-8.75
36915630,0.186,-0.231,1.195,-73.867,77.752,-4.795
36915640,0.082,-0.305,1.159,-85.75,101.622,6.72
36915650,-0.076,-0.189,1.243,-101.937,98.087,24.272
36915660,0.035,-0.444,1.202,-123.165,88.305,37.047
36915670,-0.11,-0.667,1.036,-126.647,86.257,67.095
36915680,-0.263,-0.517,0.939,-120.925,75.057,86.187
36915690,-0.214,-1.03,0.885,-119.385,41.142,91.98
36915700,-0.143,-1.396,1.107,-87.5,40.075,110.022
36915710,-1.713,-1.506,1.564,-8.557,-12.25,107.24
36915720,1.005,-1.367,-0.326,37.642,-120.522,56.822
36915730,1.166,-0.783,-0.144,78.855,-61.512,67.182
36915740,-0.435,-0.361,-0.528,78.872,-21.927,-26.32
36915750,-0.726,0.054,-0.69,61.53,-40.04,-75.127
36915760,-0.683,0.013,-0.613,14.35,-74.725,-107.607
36915770,-0.462,0.121,-0.785,-2.257,-78.26,-127.977
36915780,-0.496,0.577,-0.984,-2.922,-63.07,-141.452
36915790,0.208,1.314,0.081,-26.337,-36.645,-144.935
36915800,-1.998,-0.139,0.284,127.522,-80.762,-126.612
36915810,0.437,0.435,1.637,406.63,-218.645,-71.767
36915820,1.713,-0.562,1.955,280.28,11.042,-20.947
36915830,-1.987,1.845,0.592,230.16,270.532,66.237
36915830,0.696,-1.219,1.2,-27.86,19.67,22.592
36915850,-1.677,0.867,0.949,-2.432,-32.952,-5.232
36915850,0.807,-0.714,1.018,-45.85,-94.867,-12.617
36915870,-0.478,-0.235,0.93,-27.02,-67.427,-8.417
36915870,-0.061,-0.294,0.98,-26.687,-64.54,-8.207
36915890,0.162,-0.198,0.974,-24.08,-58.8,-10.5
36915890,0.304,-0.378,0.927,-17.115,-40.302,-2.52
36915910,0.061,-0.29,0.936,-4.287,-19.145,4.392
36915910,0.073,-0.162,0.973,3.657,-6.632,6.597
36915920,-0.004,-0.178,0.975,7.997,1.435,8.435
36915930,-0.15,-0.133,0.979,8.277,7.822,9.975
36915940,-0.193,-0.137,0.977,6.842,6.107,8.242
36915950,-0.23,-0.067,0.996,4.83,1.942,4.76
36915960,-0.162,-0.145,0.984,0.787,-4.41,1.557
36915970,-0.071,-0.139,0.989,-1.627,-6.44,-0.875
36915980,-0.073,-0.12,0.994,-3.902,-4.707,-0.63
36915990,-0.11,-0.153,0.987,-6.895,-2.17,-0.437
36916000,-0.142,-0.095,1.013,-10.535,-1.277,-2.257
36916010,-0.15,-0.089,1.012,-17.955,-1.435,-4.27
36916020,-0.189,-0.11,1.033,-26.232,-1.697,-6.737
36916030,-0.149,-0.149,1.037,-31.78,-3.972,-8.995
36916040,-0.152,-0.078,1.095,-41.265,-4.375,-11.287
36916050,-0.139,-0.042,1.186,-57.015,-4.532,-11.987
36916060,-0.129,0.03,1.27,-81.392,-3.552,-10.377
36916070,-0.164,0.087,1.355,-116.13,-0.49,-6.265
36916080,-0.353,0.038,1.367,-160.632,-5.915,0.805
36916090,-0.604,0.067,1.428,-209.282,-67.077,20.195
36916100,-0.811,0.005,1.33,-244.16,-120.435,39.637
36916110,-1.404,-0.489,1.461,-252.735,-187.39,35.7
36916120,-1.36,-0.116,1.253,-208.285,-281.645,19.372
36916130,-1.201,-0.654,1.166,-200.9,-359.135,-4.777
36916140,-0.749,-0.834,0.988,-156.082,-399.84,-12.145
36916150,-0.044,-0.851,0.696,-111.93,-358.61,-0.752
36916160,1.175,-1.001,0.641,-74.06,-202.615,12.022
36916170,-1.3,-0.583,1.263,7.367,-27.02,34.965
36916180,-1.642,0.277,0.775,129.535,77.192,140.98
36916190,-0.514,1.045,-0.107,230.895,128.642,258.002
36916200,-0.068,1.052,-0.22,233.38,174.755,229.67
36916210,0.192,0.6,-0.903,243.232,225.75,158.602
36916220,-0.155,0.658,-1.317,233.502,251.247,101.587
36916230,-0.342,0.131,-1.182,143.85,201.95,31.36
36916240,0.211,-0.785,-0.833,53.252,131.442,-42.542
36916250,-0.961,-0.727,-0.342,21.017,75.145,-113.89
36916260,1.301,-1.817,0.188,-6.265,-131.705,-348.092
36916260,-1.205,1.229,1.307,415.38,223.02,-494.182
36916280,1.275,1.863,1.743,335.912,101.447,-247.975
36916280,-1.13,1.61,1.414,123.987,184.817,105.542
36916300,-0.125,0.227,1.094,14.28,78.522,104.895
36916300,-0.87,-0.624,0.996,-15.382,-21.437,36.767
36916320,-0.033,-0.423,0.902,-16.397,-32.112,8.645
36916320,-0.14,0.113,1.044,-7.752,-27.825,-9.257
36916330,-0.03,-0.196,0.991,-16.782,-29.312,-0.98
36916340,-0.009,-0.29,0.941,-16.817,-22.575,6.65
36916350,-0.09,-0.379,0.903,-8.452,-13.86,6.982
36916360,-0.092,-0.297,0.931,2.695,-8.977,0.332
36916370,0.056,-0.149,0.981,9.537,-4.112,-4.462
36916380,-0.023,-0.105,0.997,10.535,3.412,0.227
36916390,-0.24,-0.112,0.984,7.787,6.825,5.425
36916400,-0.256,-0.102,0.985,3.815,1.032,2.45
36916410,-0.168,-0.116,0.988,-0.28,-5.88,-1.802
36916420,-0.203,-0.098,0.994,-4.462,-9.485,-2.17
36916430,-0.168,-0.126,0.985,-9.642,-13.772,-4.375
36916440,-0.066,-0.156,0.977,-12.88,-15.767,-6.195
36916450,-0.015,-0.123,1.002,-13.37,-13.247,-5.477
36916460,-0.032,-0.119,1.006,-16.502,-8.067,-2.397
36916470,-0.079,-0.148,0.997,-20.44,-3.5,-0.315
36916480,-0.142,-0.143,1.022,-23.817,-0.49,-1.452
36916490,-0.108,-0.11,1.074,-30.012,-0.472,-3.15
36916500,-0.091,-0.055,1.116,-43.365,1.47,-3.167
36916510,-0.05,-0.094,1.157,-59.797,4.445,-2.292
36916520,-0.012,-0.09,1.186,-80.22,12.145,-0.945
36916530,-0.016,-0.083,1.199,-103.792,21.052,-0.157
36916540,-0.084,-0.126,1.229,-129.237,25.777,3.027
36916550,-0.542,-0.066,1.284,-161.14,-4.497,15.575
36916560,-0.026,-0.343,1.214,-191.24,-60.305,29.417
36916570,-0.376,-0.46,1.111,-191.152,-66.78,51.887
36916580,-0.575,-0.766,1.07,-173.355,-72.222,72.152
36916580,-0.64,-1.186,1.092,-151.06,-106.417,87.465
36916600,-0.059,-1.275,1.267,-85.592,-136.465,100.292
36916600,-0.055,-1.998,0.126,-14.507,-159.127,80.57
36916620,0.108,-1.935,0.111,23.94,-55.772,75.547
36916620,-0.473,-1.132,-0.196,86.642,0.735,70.315
36916640,-0.261,-0.877,-0.347,55.177,6.002,14.14
36916640,-0.151,-0.574,-0.355,33.162,30.905,-25.707
36916660,-0.236,0.117,-0.772,37.607,56.682,-66.64
36916660,-0.335,1.015,-1.213,30.625,69.877,-120.26
36916670,-0.419,1.246,-1.129,-20.755,73.867,-175.717
36916680,-0.232,1.07,-0.899,-61.792,76.125,-216.142
36916690,-0.067,1.384,0.904,-55.055,78.26,-253.942
36916700,0.24,-1.683,0.064,151.725,63.7,-301.857
36916710,0.474,0.325,1.722,522.987,25.97,-193.025
36916720,1.998,-0.621,1.998,412.195,74.55,-115.325
36916730,-0.313,1.313,1.705,286.755,226.905,3.657
36916740,-1.49,1.214,0.867,100.537,175.21,40.652
36916750,-0.443,0.066,1.077,-31.465,-31.535,7.332
36916760,-0.221,-0.178,1.053,-31.535,-74.025,-5.25
36916770,0.083,-0.587,0.949,-40.197,-72.187,-2.467
36916780,-0.085,-0.519,0.891,-26.967,-52.64,-2.047
36916790,-0.042,-0.195,0.962,-18.235,-43.96,-6.265
36916800,0.281,-0.395,0.911,-11.305,-34.107,-4.2
36916810,0.072,-0.216,0.961,1.68,-16.642,2.205
36916820,-0.049,-0.13,0.991,6.807,-5.687,5.722
36916830,0.074,-0.145,0.986,6.545,-0.157,6.545
36916840,-0.129,-0.123,0.981,7.07,6.842,12.337
36916850,-0.287,-0.135,0.987,6.405,5.687,11.847
36916860,-0.285,0.027,1.034,1.89,-2.275,4.62
36916870,-0.161,-0.197,0.971,-7.385,-12.127,-0.507
36916880,-0.096,-0.218,0.965,-8.312,-13.212,-4.042
36916890,-0.093,-0.127,0.992,-7.77,-12.215,-5.792
36916900,-0.067,-0.111,1.01,-11.077,-10.902,-5.372
36916910,-0.113,-0.075,1.028,-17.465,-9.712,-3.325
36916920,-0.182,-0.105,1.032,-27.055,-8.295,-3.902
36916930,-0.122,-0.164,1.039,-33.967,-11.06,-7.455
36916940,-0.129,-0.106,1.092,-43.575,-10.885,-10.447
36916950,-0.144,-0.081,1.167,-58.94,-11.13,-13.037
36916960,-0.222,-0.028,1.224,-81.62,-9.415,-18.112
36916970,-0.204,0.004,1.299,-109.847,-8.662,-25.165
36916980,-0.316,0.043,1.331,-146.107,-12.722,-30.082
36916990,-0.497,-0.02,1.32,-182.962,-37.03,-31.972
36917000,-0.658,-0.409,1.194,-204.032,-67.462,-39.025
36917010,-0.399,-0.11,1.178,-199.115,-70.542,-41.895
36917010,-1.024,-1.338,1.535,-195.65,-71.032,-65.747
36917030,-0.746,-1.719,1.077,-141.435,-114.362,-102.847
36917030,0.821,-1.952,1.058,-76.282,-81.777,-112.595
36917050,-0.495,-1.773,0.32,58.502,98.525,-77.175
36917050,-1.998,0.307,-0.62,170.31,152.162,-32.252
36917060,-0.787,0.256,-0.304,79.695,61.162,42.227
36917070,0.23,-0.87,-0.238,16.957,79.607,108.255
36917080,-0.22,0.26,-0.527,73.815,126.437,128.45
36917090,0.243,0.634,-0.714,39.235,120.505,124.722
36917100,1.022,-0.135,-0.402,-38.832,80.727,76.51
36917110,1.324,-0.677,-0.23,-56.752,82.495,-1.33
36917120,0.63,-0.464,-0.415,-36.82,96.775,-90.44
36917130,0.956,0.157,0.245,-43.662,74.55,-168.612
36917140,-0.32,-1.261,0.837,76.755,-107.187,-239.417
36917150,-0.653,1.95,1.013,470.487,-71.942,-204.75
36917160,1.944,-1.744,1.89,340.06,-111.265,-148.47
36917170,1.998,0.746,1.998,431.375,25.9,-44.1
36917180,-0.19,0.867,1.681,254.502,182.262,30.345
36917190,-1.792,1.344,0.884,94.675,131.232,38.605
36917200,-0.821,-0.011,1.06,-47.197,-70.367,-5.022
36917210,-0.168,-0.16,1.007,-51.712,-120.925,-16.572
36917220,0.418,-0.618,0.92,-57.417,-110.39,-14.315
36917230,0.271,-0.596,0.889,-33.39,-75.075,-5.092
36917240,0.277,-0.248,0.947,-18.042,-50.085,0.682
36917250,0.155,-0.254,0.952,-7.577,-29.977,12.302
36917260,-0.049,-0.161,0.972,0.035,-15.89,16.152
36917270,0.053,-0.18,0.969,2.362,-10.867,9.887
36917280,0.093,-0.187,0.968,5.827,-1.82,10.255
36917290,-0.094,-0.107,0.99,9.03,6.58,16.625
36917300,-0.218,-0.081,0.995,7.612,7.21,16.87
36917310,-0.177,-0.135,0.982,4.48,0.997,9.992
36917320,-0.087,-0.182,0.972,3.202,-2.152,3.972
36917330,-0.083,-0.141,0.981,3.552,-1.872,1.33
36917330,-0.077,-0.121,0.984,2.555,-0.245,0.525
36917350,-0.065,-0.126,0.987,1.347,0.84,0.455
36917350,-0.095,-0.093,1.003,-0.91,2.905,1.452
36917370,-0.112,-0.085,1.011,-5.652,3.15,1.47
36917370,-0.048,-0.116,1.014,-11.987,4.007,1.54
36917390,-0.05,-0.111,1.032,-18.742,7.682,2.38
36917390,-0.061,-0.083,1.089,-28.49,13.3,4.007
36917410,-0.043,-0.051,1.148,-41.3,17.255,6.912
36917410,-0.054,0.002,1.245,-62.405,24.307,10.01
36917420,-0.083,0.021,1.291,-92.995,32.55,12.635
36917430,-0.204,-0.016,1.315,-131.25,36.242,14.647
36917440,-0.35,-0.008,1.344,-180.792,-13.685,28.227
36917450,-0.263,-0.387,1.266,-214.095,-47.075,47.232
36917460,-0.186,-0.562,1.188,-214.042,-53.83,68.145
36917470,-0.434,-0.766,1.298,-198.87,-57.487,95.007
36917480,-0.238,-0.907,1.386,-148.295,-71.155,107.222
36917490,-0.322,-1.801,1.111,-70.787,-146.3,93.625
36917500,1.747,-1.998,0.002,-6.457,-107.432,52.552
36917510,0.109,-0.963,-0.468,125.895,48.667,88.462
36917520,-0.743,-0.511,-0.419,84.595,33.757,25.795
36917530,-0.045,-1.073,-0.262,8.015,4.217,-26.442
36917540,-0.524,-0.203,-0.602,41.895,43.767,-23.485
36917550,-0.853,0.715,-0.94,36.592,66.622,-19.827
36917560,-0.535,0.832,-0.764,-37.905,42.7,-13.125
36917570,0.286,0.579,-0.573,-76.247,8.102,-19.565
36917580,0.507,0.707,-0.503,-65.117,11.672,-46.357
36917590,0.451,0.954,1.269,-55.195,21.665,-87.01
36917600,-1.24,-1.206,-0.339,230.107,7.577,-83.58
36917610,0.305,0.314,1.655,480.06,-73.185,-17.85
36917620,1.619,-0.701,1.998,383.897,-54.302,1.522
36917630,0.73,1.569,1.886,337.067,127.067,46.235
36917640,-1.972,1.749,0.715,121.292,174.387,43.837
36917650,-0.506,-0.209,1.098,-36.417,-36.4,14.105
36917660,-0.852,0.083,1.035,-48.912,-104.58,-10.587
36917670,0.594,-0.7,0.959,-67.025,-115.622,-3.482
36917680,-0.061,-0.399,0.912,-44.765,-75.792,-3.255
36917690,0.236,-0.39,0.916,-34.737,-58.782,-7.437
36917700,0.402,-0.4,0.9,-17.745,-36.75,-4.672
36917710,0.089,-0.31,0.934,0.875,-12.617,5.232
36917710,-0.078,-0.151,0.983,10.5,0.542,7.017
36917730,-0.002,-0.075,1.012,10.78,3.745,3.01
36917730,-0.038,-0.103,1.002,7.84,8.067,6.702
36917750,-0.234,-0.126,0.993,5.81,9.677,10.745
36917750,-0.325,-0.056,1.02,1.575,3.902,7.21
36917760,-0.268,-0.084,1.014,-8.225,-6.475,0.14
36917770,-0.082,-0.145,0.998,-16.8,-11.567,-5.442
36917780,-0.042,-0.133,1.011,-20.947,-9.572,-6.002
36917790,-0.063,-0.112,1.04,-25.112,-4.725,-4.69
36917800,-0.088,-0.071,1.085,-31.797,-1.172,-2.432
36917810,-0.129,-0.038,1.136,-45.885,1.592,-1.137
36917820,-0.128,-0.043,1.187,-65.362,3.745,-0.507
36917830,-0.082,-0.017,1.266,-91.157,8.137,-0.437
36917840,-0.057,-0.013,1.3,-124.04,17.237,1.435
36917850,-0.079,-0.105,1.324,-164.395,13.965,13.09
36917860,0.071,-0.027,1.257,-205.257,-3.36,35.49
36917870,-0.138,0.057,1.184,-227.36,-9.38,53.812
36917880,-0.331,0.04,1.223,-246.837,-29.855,60.76
36917890,-0.111,-0.265,1.104,-270.847,-65.87,70.665
36917900,-0.003,-0.722,1.499,-299.46,-83.667,77.472
36917910,0.058,-0.829,1.591,-246.627,-88.812,82.74
36917920,0.327,-0.797,1.109,-162.697,-78.505,74.655
36917930,-0.1,0.005,0.935,-91.14,-49.017,60.287
36917940,-0.103,1.18,1.158,-23.152,-58.852,57.4
36917950,0.408,1.736,0.985,82.617,-33.495,102.707
36917960,1.145,1.395,0.963,146.195,23.59,95.707
36917970,0.54,1.484,0.312,241.64,19.845,1.645
36917980,0.211,0.992,0.147,264.162,10.377,-42.507
36917990,0.204,0.489,-0.582,271.565,-0.77,-68.967
36918000,-0.046,0.647,-0.791,254.537,5.6,-72.292
36918010,-0.265,-0.17,-0.473,161.175,-14.717,-76.405
36918020,0.197,-0.874,-0.706,112.21,-30.047,-92.697
36918030,-1.191,-1.784,1.73,84.087,-34.282,-127.015
36918040,0.061,-1.998,0.094,226.257,-85.785,-176.032
36918050,1.166,1.592,1.926,396.567,122.132,1.032
36918060,-1.767,1.973,1.322,226.852,226.467,6.3
36918070,-1.665,0.02,1.036,38.815,97.037,36.277
36918080,-0.926,0.641,1.001,-0.227,-23.012,8.295
36918080,-0.183,-0.512,1.023,-33.18,-88.742,-8.662
36918100,-0.213,-0.086,1.02,-38.727,-92.032,-6.51
36918100,0.22,-0.42,0.972,-41.965,-82.302,-8.435
36918120,0.079,-0.167,0.968,-42.892,-61.967,-7.49
36918120,0.152,-0.414,0.9,-34.37,-46.532,-6.317
36918140,0.195,-0.379,0.889,-17.955,-30.817,-2.502
36918140,0.096,-0.185,0.969,-1.767,-15.242,4.06
36918160,-0.068,-0.098,1.015,2.94,-5.53,9.205
36918160,-0.126,-0.068,1.029,-1.295,-3.797,9.555
36918170,-0.144,-0.102,0.998,-9.922,-5.075,8.925
36918180,-0.243,-0.115,1.012,-16.52,-7.262,5.267
36918190,-0.091,-0.261,0.925,-17.587,-12.95,-0.035
36918200,0.014,-0.284,0.918,-10.78,-12.425,-2.397
36918210,0.005,-0.194,0.963,-3.745,-7.822,0.087
36918220,-0.058,-0.147,0.986,-1.96,-3.535,2.555
36918230,-0.025,-0.17,0.981,-3.272,-1.75,2.835
36918240,-0.031,-0.191,0.977,-3.71,1.522,3.692
36918250,-0.094,-0.16,0.995,-4.095,4.27,4.147
36918260,-0.094,-0.149,1.015,-7.087,5.495,2.467
36918270,-0.039,-0.127,1.055,-12.827,7.245,-0.385
36918280,0.028,-0.119,1.113,-23.065,13.912,-1.68
36918290,0.017,-0.094,1.193,-39.34,26.897,-2.502
36918300,0.044,-0.031,1.26,-61.32,42.787,-1.785
36918310,0.05,-0.041,1.309,-88.795,63.56,-1.977
36918320,-0.025,-0.181,1.286,-122.43,78.137,3.412
36918330,-0.073,-0.005,1.289,-156.45,82.88,19.11
36918340,-0.158,0.037,1.269,-185.115,77.542,28.77
36918350,-0.189,-0.125,1.321,-217.787,60.41,28.822
36918360,0.076,-0.533,1.289,-227.745,47.425,30.625
36918370,0.02,-0.923,1.397,-208.197,31.377,39.655
36918380,0.388,-0.697,1.122,-149.065,1.015,45.727
36918390,-0.459,-1.096,1.151,-112.192,-24.902,26.565
36918400,1.163,-1.055,0.78,-80.43,-73.955,13.387
36918410,0.858,-1.125,0.464,-2.747,-69.632,-11.252
36918420,1.187,-0.876,0.879,20.86,-79.765,-129.36
36918420,-0.599,0.395,-0.404,121.205,-89.04,-201.88
36918440,-1.706,1.344,-0.319,104.86,-123.62,-193.655
36918440,-0.836,0.602,-0.633,59.237,-137.462,-115.29
36918460,-0.568,0.862,-0.898,84.227,-103.862,-68.722
36918460,-0.651,0.661,-0.871,73.045,-70.332,-57.872
36918480,-0.478,-0.023,-0.867,47.005,-69.142,-64.505
36918480,-0.249,-0.437,-1.187,30.695,-67.672,-78.61
36918500,0.586,-1.708,1.965,-10.115,26.687,-84.122
36918500,-0.229,-1.814,-0.22,308.367,160.615,-102.165
36918510,1.253,1.941,1.79,517.16,137.865,-23.712
36918520,1.718,-0.236,1.998,355.635,169.33,10.01
36918530,-1.83,1.369,1.448,208.967,241.885,60.637
36918540,-0.775,0.429,1.183,36.995,65.38,34.072
36918550,-1.498,0.466,1.056,-40.32,-61.652,-10.902
36918560,0.383,-0.651,0.978,-67.935,-103.162,-7.157
36918570,-0.368,-0.249,0.945,-60.2,-81.235,-4.9
36918580,0.251,-0.586,0.879,-58.835,-75.442,-18.112
36918590,0.508,-0.365,0.881,-39.97,-53.27,-18.935
36918600,0.348,-0.392,0.87,-16.485,-24.237,-0.262
36918610,0.056,-0.347,0.914,3.78,-2.607,9.292
36918620,0.035,-0.181,0.985,14.14,7.035,5.757
36918630,0.003,-0.052,1.026,14.927,13.72,5.67
36918640,-0.12,-0.194,0.977,10.797,18.497,9.292
36918650,-0.153,-0.163,0.993,10.78,17.99,8.225
36918660,-0.214,-0.034,1.057,7.367,16.187,6.247
36918670,-0.181,-0.122,1.039,-4.042,11.585,1.592
36918680,-0.094,-0.091,1.062,-16.1,10.517,-3.15
36918690,-0.106,-0.066,1.11,-29.592,12.145,-6.212
36918700,-0.145,-0.027,1.176,-45.797,15.995,-9.362
36918710,-0.138,-0.018,1.238,-67.707,21.857,-14.507
36918720,-0.124,-0.013,1.265,-95.725,33.792,-22.12
36918730,-0.151,-0.064,1.259,-126.035,44.345,-27.667
36918740,-0.286,-0.018,1.203,-156.135,44.38,-26.897
36918750,-0.346,-0.057,1.135,-184.94,30.152,-24.85
36918760,-0.382,-0.125,1.082,-208.495,13.737,-23.712
36918770,-0.546,-0.042,1.07,-217.77,-5.687,-22.96
36918780,-0.544,-0.237,1.034,-224.927,-34.702,-22.452
36918790,-0.881,-0.619,1.225,-234.045,-75.39,-32.935
36918800,-0.97,-0.742,0.962,-180.53,-116.637,-39.287
36918810,-0.26,-0.762,0.725,-131.425,-114.677,-32.287
36918820,-0.152,-0.95,0.736,-84.752,-85.085,-27.142
36918830,-1.095,-0.633,0.998,-14.7,-10.29,3.465
36918830,-1.998,0.265,0.247,91.962,12.495,92.575
36918850,-1.017,0.164,0.3,121.467,12.932,274.032
36918850,1.272,-1.211,0.309,65.415,74.532,359.835
36918870,1.557,0.047,-0.305,162.4,82.897,246.242
36918870,1.383,1.039,-1.228,174.65,90.247,125.58
36918890,0.758,1.701,-1.134,116.182,51.572,-1.61
36918890,0.291,1.231,-0.552,38.167,-25.48,-113.382
36918910,-0.646,-0.642,1.468,18.62,-102.83,-170.415
36918910,1.182,-1.998,-0.808,197.68,-258.807,-438.27
36918920,-1.481,0.538,1.014,436.415,20.947,-271.04
36918930,1.971,1.857,1.859,374.325,-79.485,-134.4
36918940,1.524,-0.86,1.998,299.355,43.26,-41.65
36918950,-1.822,1.917,1.431,178.99,198.975,107.8
36918960,-1.212,0.41,1.126,19.285,63.157,70.157
36918970,-1.135,0.303,1.119,-31.92,-57.417,1.54
36918980,0.628,-0.55,0.956,-66.062,-88.655,-4.462
36918990,-0.045,-0.117,0.976,-57.225,-52.675,12.757
36919000,-0.145,-0.443,0.912,-52.885,-42.927,15.96
36919010,-0.007,-0.514,0.823,-37.45,-40.897,5.53
36919020,0.149,-0.407,0.868,-17.272,-31.202,-0.49
36919030,0.057,-0.259,0.944,-0.262,-18.76,1.662
36919040,0.01,-0.178,0.985,7.07,-9.047,4.357
36919050,-0.054,-0.086,1.028,7.21,-3.115,5.915
36919060,-0.063,-0.109,1.017,1.067,-0.21,6.545
36919070,-0.06,-0.139,0.996,-3.325,0.787,8.487
36919080,-0.093,-0.118,1.006,-5.127,2.852,11.41
36919090,-0.195,-0.231,0.973,-8.487,2.362,10.64
36919100,-0.095,-0.226,0.958,-10.255,1.172,4.585
36919110,0.048,-0.214,0.97,-8.33,2.87,3.255
36919120,0.02,-0.204,0.992,-5.512,10.465,9.222
36919130,0.005,-0.155,1.031,-5.565,17.342,15.172
36919140,0.036,-0.151,1.062,-11.042,25.182,18.83
36919150,0.072,-0.147,1.078,-19.81,33.565,24.955
36919160,0.302,-0.115,1.205,-37.205,33.757,41.702
36919170,0.23,-0.112,1.245,-58.922,36.067,68.932
36919170,0.155,-0.22,1.281,-88.41,39.34,97.475
36919190,0.115,-0.247,1.267,-123.287,42.332,127.102
36919190,0.079,-0.183,1.203,-157.622,46.042,158.147
36919210,0.17,-0.218,1.254,-190.295,38.15,174.807
36919210,0.216,-0.426,1.317,-212.59,30.922,185.78
36919230,0.527,-0.91,1.447,-227.692,31.727,191.117
36919230,0.345,-0.743,1.46,-205.835,33.425,218.662
36919250,0.224,-0.33,1.416,-173.757,-3.43,239.75
36919250,0.264,-1.393,1.168,-170.485,-80.797,204.19
36919260,1.288,-0.923,1.245,-137.795,-121.712,138.127
36919270,1.319,-1.197,0.839,-85.68,-76.405,62.912
36919280,1.519,-1.356,1.216,-75.005,-92.942,-125.265
36919290,-0.367,1.295,-0.102,100.695,-130.83,-355.145
36919300,-1.792,1.997,-0.789,118.44,-181.195,-341.53
36919310,-1.873,1.997,-0.887,80.692,-208.512,-208.162
36919320,-0.787,1.585,-0.608,49.665,-165.952,-65.817
36919330,0.028,0.86,-0.495,89.635,-87.78,-43.697
36919340,0.179,-0.046,-0.744,129.517,-13.755,-133.367
36919350,0.606,-1.183,-0.03,130.077,51.205,-235.322
36919360,-1.996,-1.998,1.382,164.307,213.587,-232.242
36919370,1.408,-0.465,0.34,486.692,99.382,-23.047
36919380,-1.399,1.997,1.968,517.912,271.145,-8.732
36919390,0.128,0.153,1.588,207.567,214.672,36.522
36919400,-1.343,1.094,0.828,76.825,118.37,34.86
36919410,-1.354,-0.027,1.009,-34.632,-54.775,-6.125
36919420,0.15,-0.331,0.995,-47.687,-112.227,-17.062
36919430,-0.001,-0.258,0.981,-49.787,-100.887,-14.437
36919440,0.084,-0.32,0.992,-45.605,-82.67,-9.555
36919450,0.161,-0.171,0.949,-44.712,-68.005,-7.63
36919460,0.3,-0.544,0.841,-35.892,-50.96,-3.71
36919470,0.341,-0.449,0.87,-9.922,-29.155,0.997
36919480,0.186,-0.178,0.973,8.925,-5.407,7.07
36919490,-0.022,-0.097,1.008,15.907,8.172,14.315
36919500,-0.231,-0.1,1.011,14.35,11.725,15.995
36919510,-0.275,-0.079,1.01,7.682,4.847,11.077
36919520,-0.196,-0.133,0.995,0.21,-3.762,3.99
36919530,-0.202,-0.169,0.981,-4.13,-9.905,-2.38
36919540,-0.083,-0.14,0.996,-7.472,-13.597,-9.537
36919550,-0.013,-0.118,0.998,-10.412,-13.02,-11.76
36919560,-0.043,-0.188,0.97,-12.092,-8.925,-9.87
36919570,-0.112,-0.163,0.999,-11.55,-6.545,-9.852
36919580,-0.104,-0.127,1.029,-16.03,-6.335,-12.18
36919580,-0.084,-0.132,1.051,-23.712,-6.09,-13.947
36919600,-0.127,-0.128,1.092,-34.282,-4.655,-15.26
36919600,-0.153,-0.098,1.152,-50.837,-3.027,-19.11
36919620,-0.111,-0.036,1.231,-74.305,0.49,-24.377
36919620,-0.092,-0.045,1.249,-103.39,9.012,-30.082
36919640,-0.132,-0.035,1.275,-134.382,22.347,-34.072
36919640,-0.237,-0.076,1.247,-161.472,33.267,-28.647
36919660,-0.385,-0.08,1.32,-189.787,17.045,-15.89
36919660,-0.381,-0.171,1.281,-211.347,-13.685,-7.542
36919670,-0.422,-0.646,1.292,-217.052,-42.822,1.837
36919680,-0.107,-0.837,1.001,-185.08,-56.087,15.032
36919690,0.236,-0.545,0.874,-127.225,-48.335,35.91
36919700,0.326,-1.101,1.11,-114.572,-41.09,36.05
36919710,-0.215,-1.589,0.896,-49.437,-12.88,54.442
36919720,-1.386,0.117,-0.169,71.225,19.95,129.325
36919730,0.321,0.635,-0.027,51.187,5.95,217.63
36919740,1.284,-0.343,-0.083,12.197,-21.14,170.747
36919750,0.413,0.622,-0.355,75.39,-8.067,91.315
36919760,0.09,1.003,-0.763,79.957,-7.665,28.332
36919770,-0.112,0.641,-0.656,38.902,-26.092,-36.207
36919780,-0.16,-0.03,-0.734,20.93,-26.302,-79.17
36919790,-1.136,-0.635,0.969,22.102,-25.847,-100.52
36919800,0.085,-1.998,-0.03,122.255,-113.347,-202.667
36919810,0.158,-0.2,0.885,407.802,-36.82,-143.552
36919820,0.959,1.971,1.922,370.335,-26.145,-41.3
36919830,1.729,-0.559,1.998,317.432,36.697,-8.47
36919840,-0.616,1.386,1.832,240.082,154.7,61.145
36919850,-1.872,1.234,1.228,99.872,127.557,64.312
36919860,-0.998,0.394,1.094,-0.647,-4.637,7.787
36919870,-0.121,-0.35,0.98,-36.365,-59.447,-19.04
36919880,-0.134,-0.193,0.971,-42.42,-56.28,-11.55
36919890,-0.085,-0.308,0.931,-41.825,-52.115,-13.807
36919900,0.364,-0.448,0.87,-31.99,-45.412,-14.892
36919910,0.301,-0.341,0.9,-10.342,-24.22,-1.925
36919920,-0.052,-0.223,0.959,4.217,-6.492,10.71
36919920,-0.062,-0.168,0.981,8.067,-1.925,10.01
36919940,-0.051,-0.109,1,7.822,0.507,7.175
36919940,-0.099,-0.144,0.988,5.722,1.61,6.562
36919960,-0.049,-0.143,0.987,4.182,2.327,5.652
36919960,-0.071,-0.089,1.016,3.255,4.252,7.595
36919980,-0.154,-0.146,0.991,-0.927,5.005,9.485
36919980,-0.161,-0.126,1.009,-4.917,3.255,7.105
36920000,-0.13,-0.114,1.024,-11.2,1.627,3.167
36920000,-0.072,-0.103,1.05,-18.865,1.54,0.875
36920010,-0.105,-0.021,1.128,-29.312,4.252,1.19
36920020,-0.176,0.027,1.198,-48.107,6.597,0.857
36920030,-0.17,0.076,1.254,-75.845,7,-0.385
36920040,-0.246,0.019,1.267,-111.317,4.095,-1.26
36920050,-0.455,0.004,1.283,-150.29,-14.35,-3.027
36920060,-0.486,-0.029,1.269,-189.035,-64.837,0.542
36920070,-0.639,-0.2,1.136,-217.21,-103.915,0
36920080,-0.47,-0.341,1.042,-227.815,-120.33,-4.445
36920090,-0.734,-0.515,1.13,-215.67,-131.162,-2.117
36920100,-0.968,-0.614,1.17,-173.722,-156.135,-8.785
36920110,-0.636,-1.158,0.997,-146.807,-202.65,-14.262
36920120,0.117,-1.42,0.739,-70.84,-187.355,-19.145
36920130,0.363,-1.873,0.843,-6.037,-69.195,-20.685
36920140,-1.962,-0.592,-0.057,111.23,168.42,114.012
36920150,-1.72,-0.406,-0.416,173.792,182.91,260.102
36920160,0.549,-1.736,-0.4,67.427,132.825,275.695
36920170,0.128,-1.858,-0.7,69.562,204.662,214.252
36920180,-0.298,-0.748,-1.214,91.84,244.195,136.745
36920190,0.015,0.03,-1.153,-1.54,221.13,37.52
36920200,0.28,-0.146,-0.864,-74.182,193.62,-86.327
36920210,-0.549,0.392,0.403,-68.967,187.267,-177.677
36920220,-0.14,-0.575,1.432,16.03,-93.677,-294.227
36920230,1.49,1.817,1.133,430.552,-87.325,-354.06
36920240,-1.435,0.112,1.669,539.612,-76.982,-435.54
36920250,1.998,-0.378,1.998,422.327,-177.205,-251.632
36920260,0.432,1.265,1.932,332.15,101.5,-20.457
36920270,-1.628,1.288,0.943,109.48,185.71,81.235
36920280,-0.868,0.039,1.03,-23.695,0.84,44.975
36920290,-0.395,-0.189,1.02,-36.225,-62.947,-0.787
36920300,-0.161,-0.592,0.887,-49.157,-69.107,-11.987
36920310,0.163,-0.382,0.923,-31.955,-53.952,-11.305
36920320,-0.03,-0.266,0.921,-20.807,-39.427,-7.875
36920330,0.017,-0.333,0.922,-10.255,-31.587,-6.737
36920330,-0.017,-0.168,0.96,-0.28,-23.467,-6.807
36920350,0.055,-0.159,0.985,4.27,-17.01,-5.057
36920350,0.021,-0.079,1.017,6.317,-7.245,-0.332
36920360,-0.167,-0.04,1.008,2.957,-1.015,5.512
36920370,-0.246,-0.133,0.977,-2.66,-3.587,4.217
36920380,-0.119,-0.096,0.999,-5.46,-8.295,-1.172
36920390,-0.081,-0.22,0.951,-8.085,-8.767,-1.977
36920400,-0.09,-0.24,0.942,-4.322,-5.81,-1.785
36920410,-0.062,-0.137,0.979,0.367,-3.15,-2.03
36920420,-0.05,-0.11,0.996,0.507,-0.402,0.14
36920430,-0.132,-0.073,1.006,-1.925,2.45,3.657
36920440,-0.122,-0.114,1.001,-6.807,3.01,5.512
36920450,-0.147,-0.084,1.027,-11.672,3.15,6.825
36920460,-0.125,-0.063,1.071,-20.37,3.955,8.435
36920470,-0.066,-0.026,1.127,-33.705,6.947,10.622
36920480,0.012,-0.023,1.191,-50.802,15.645,13.335
36920490,0.083,-0.042,1.249,-73.08,30.362,15.645
36920500,0.013,-0.091,1.259,-99.872,47.022,19.687
36920510,0.109,-0.116,1.298,-135.502,45.57,31.307
36920520,0.111,-0.144,1.263,-167.002,46.287,49.455
36920530,-0.122,-0.148,1.293,-190.715,44.117,67.165
36920540,-0.25,-0.365,1.242,-205.887,25.252,73.517
36920550,0.08,-0.52,1.084,-203.962,13.02,82.355
36920560,-0.036,-0.429,1,-178.5,18.9,90.982
36920570,-0.249,-0.969,1.073,-150.307,-8.942,87.605
36920580,-0.534,-1.232,0.764,-83.895,-43.067,79.1
36920590,0.082,-1.666,1.003,-30.537,-100.45,54.705
36920600,1.378,-0.87,0.047,38.08,-94.29,-4.882
36920610,-0.642,0.452,-0.26,112.42,-40.372,-74.742
36920620,-1.16,0.422,-0.379,87.64,-48.562,-119.42
36920630,-0.745,0.753,-1.01,80.832,-48.422,-88.322
36920640,-0.889,1.326,-0.894,67.515,-8.977,-46.27
36920650,-0.823,0.705,-0.593,13.265,1.837,-27.037
36920660,-0.125,0.453,-0.407,7.21,8.505,-9.292
36920670,-1.321,-0.941,1.777,-4.06,-62.387,-56.017
36920670,1.242,-1.998,-0.067,251.72,-154.752,-165.532
36920690,0.042,-0.124,1.377,437.01,-55.965,-57.732
36920690,1.998,1.772,1.998,348.53,6.895,-26.215
36920710,-0.061,0.767,1.82,238.49,133.245,34.79
36920710,-1.67,1.062,1.026,92.26,132.335,55.86
36920730,-0.772,0.415,1.074,-6.317,-12.495,14.42
36920730,-0.222,-0.114,1.028,-33.302,-66.955,-4.392
36920750,0.006,-0.493,0.918,-41.107,-66.937,5.81
36920750,-0.151,-0.399,0.918,-28.682,-51.87,1.19
36920760,0.021,-0.245,0.95,-22.47,-47.32,-5.915
36920770,0.271,-0.323,0.929,-13.965,-36.995,-3.99
36920780,0.078,-0.231,0.958,-1.61,-19.442,4.83
36920790,-0.054,-0.136,0.985,3.78,-9.432,8.067
36920800,-0.009,-0.142,0.982,3.85,-5.792,6.002
36920810,0.029,-0.132,0.987,3.902,-1.277,5.18
36920820,0.001,-0.178,0.974,4.322,5.39,7.945
36920830,-0.156,-0.108,0.995,5.862,10.01,9.362
36920840,-0.181,-0.121,0.994,2.537,8.61,6.79
36920850,-0.108,-0.153,0.983,-0.98,5.705,1.68
36920860,-0.084,-0.139,0.994,-3.167,6.37,-0.822
36920870,-0.088,-0.107,1.015,-5.722,7.98,-2.117
36920880,-0.045,-0.074,1.053,-10.99,10.71,-2.485
36920890,-0.077,-0.021,1.103,-20.422,14.84,-0.752
36920900,-0.104,-0.011,1.159,-35.577,19.827,0.857
36920910,-0.099,-0.018,1.21,-55.72,25.27,1.172
36920920,-0.076,-0.012,1.28,-83.807,33.932,1.365
36920930,-0.14,-0.024,1.317,-121.187,39.935,5.302
36920940,-0.183,-0.044,1.29,-168.595,28.717,18.917
36920950,-0.026,-0.121,1.231,-207.34,8.05,34.877
36920960,-0.313,-0.204,1.241,-232.785,-4.637,48.755
36920970,-0.448,-0.385,1.342,-243.232,-30.17,54.512
36920980,-0.337,-0.841,1.482,-218.295,-66.815,65.852
36920990,0.142,-0.973,1.204,-147.507,-110.915,66.395
36921000,0.427,-1.344,0.862,-124.39,-119.98,60.025
36921010,-0.458,-1.074,0.814,-71.592,-84.14,69.632
36921010,0.196,-1.258,0.311,-26.407,-54.407,74.987
36921030,0.028,-0.887,0.503,-2.677,-3.57,51.432
36921030,-0.298,-0.101,0.26,35.017,14.805,4.55
36921050,-0.605,0.582,-0.031,54.267,25.077,-15.102
36921050,-0.786,1.072,-0.381,55.247,17.185,-22.032
36921070,-0.507,1.669,-0.974,64.085,8.242,-5.862
36921070,-0.25,1.964,-1.014,49.98,-3.5,-3.622
36921080,0.13,1.615,-0.854,25.742,-15.942,-36.732
36921090,0.422,1.661,-0.89,46.62,-5.757,-83.72
36921100,-0.555,0.78,0.13,64.715,3.447,-147.262
36921110,-0.235,-1.998,-0.349,127.207,-138.6,-360.937
36921120,-0.658,0.341,1.161,499.17,46.27,-229.53
36921130,1.948,0.981,1.998,440.685,26.442,-97.965
36921140,-0.705,0.754,1.441,221.602,251.877,25.042
36921150,-0.597,0.081,1.016,58.905,127.96,73.395
36921160,-1.423,0.441,1.026,-44.572,-71.942,4.357
36921170,0.834,-0.761,0.955,-49.42,-117.967,-12.495
36921180,-0.094,-0.198,0.973,-38.832,-81.515,-9.17
36921190,0.093,-0.501,0.925,-33.687,-63.087,-7.98
36921200,0.373,-0.276,0.923,-24.36,-45.937,-11.287
36921210,0.084,-0.301,0.92,-11.935,-24.517,-3.01
36921220,0.075,-0.324,0.926,0.42,-11.182,-0.332
36921230,0.101,-0.164,0.973,9.572,-1.767,-0.105
36921240,0.051,-0.077,1.009,12.95,7.945,6.247
36921250,-0.153,-0.173,0.975,11.427,12.81,12.88
36921260,-0.213,-0.04,1.03,11.06,11.427,10.815
36921270,-0.33,-0.016,1.038,1.4,3.762,7.577
36921280,-0.217,-0.161,0.988,-10.552,-6.195,-0.385
36921290,-0.125,-0.122,1.002,-15.942,-11.847,-7.472
36921300,-0.023,-0.101,1.028,-21.297,-11.515,-9.66
36921310,0.021,-0.135,1.032,-25.847,-7.84,-7.437
36921320,-0.029,-0.107,1.065,-31.412,-0.595,-3.622
36921330,-0.066,-0.133,1.072,-39.095,5.512,-2.275
36921340,-0.008,-0.133,1.077,-47.18,13.51,-1.522
36921350,0.062,-0.16,1.109,-56.595,23.432,1.907
36921360,0.002,-0.137,1.114,-68.11,36.365,6.51
36921370,0.023,-0.162,1.117,-82.547,44.94,12.022
36921380,-0.058,-0.182,1.143,-101.657,41.545,25.357
36921390,-0.123,-0.281,1.262,-130.725,17.85,50.645
36921400,0.094,-0.538,1.152,-146.457,-12.162,76.177
36921410,0.051,-0.59,1.102,-143.605,-7.42,112.472
36921420,0.016,-0.741,1.013,-136.185,-0.56,143.815
36921420,0.04,-1.043,1.09,-121.45,-15.155,149.415
36921440,-0.452,-1.327,1.113,-88.532,-63.227,141.697
36921440,0.144,-1.998,0.987,-40.845,-92.19,119.437
36921460,1.282,-1.597,-0.191,15.207,-89.617,29.855
36921460,0.336,-1.065,-0.008,29.05,-45.622,-15.487
36921480,-0.743,-0.881,0.013,-26.792,-51.432,-134.785
36921480,-0.998,0.114,-0.287,-23.852,-60.182,-158.077
36921500,-1.159,1.369,-0.741,-13.615,-56.997,-132.405
36921500,-0.814,1.888,-1.16,-21.507,-34.685,-90.405
36921510,-0.61,1.982,-1.03,-45.15,0.962,-56.385
36921520,-0.31,1.786,-0.128,-51.222,19.477,-63.84
36921530,-0.199,-1.215,0.979,17.447,-13.562,-129.255
36921540,0.567,-1.547,0.137,443.992,13.895,-149.52
36921550,1.631,0.498,1.895,473.97,42.962,-57.575
36921560,1.349,1.487,1.97,373.432,147.98,-5.145
36921570,-1.998,1.886,1.157,166.407,241.132,56.14
36921580,-0.275,-0.027,1.119,5.267,30.502,24.762
36921590,-1.16,0.34,1.059,-16.94,-56.367,-11.2
36921600,0.501,-0.713,0.932,-43.382,-81.602,2.625
36921610,-0.215,-0.343,0.912,-24.22,-51.747,8.19
36921620,0.116,-0.42,0.93,-17.535,-43.452,-0.245
36921630,0.165,-0.298,0.936,-6.037,-30.432,-3.692
36921640,0.051,-0.244,0.956,3.29,-14.315,0.805
36921650,-0.065,-0.152,0.982,8.12,-6.545,0.455
36921660,0.05,-0.123,0.99,7.332,-3.29,-0.385
36921670,-0.074,-0.071,1,7.787,2.275,3.482
36921680,-0.17,-0.128,0.986,5.652,3.29,6.58
36921690,-0.226,-0.092,0.993,3.342,-1.697,5.197
36921700,-0.209,-0.105,0.992,-0.857,-8.417,3.482
36921710,-0.078,-0.186,0.975,-3.867,-14.122,1.662
36921720,-0.063,-0.134,0.988,-4.497,-13.457,2.275
36921730,-0.059,-0.091,1.002,-6.317,-12.495,4.795
36921740,-0.069,-0.078,1.016,-10.29,-10.727,10.045
36921750,-0.133,-0.07,1.029,-16.712,-11.007,14.14
36921760,-0.141,-0.079,1.048,-26.74,-12.81,14.612
36921760,-0.079,-0.074,1.1,-40.547,-14.157,13.282
36921780,-0.074,-0.032,1.163,-56.7,-14.262,14.052
36921780,-0.08,-0.135,1.218,-79.695,-15.977,15.172
36921800,-0.175,-0.038,1.284,-109.392,-17.202,13.125
36921800,-0.324,-0.037,1.308,-145.25,-27.457,15.12
36921820,-0.414,-0.095,1.461,-190.645,-70.665,29.837
36921820,-0.574,-0.234,1.372,-215.18,-121.292,48.51
36921830,-1.054,-0.671,1.441,-204.785,-177.222,58.432
36921840,-0.904,-0.865,1.163,-151.865,-235.462,75.897
36921850,-0.139,-1.718,1.152,-101.132,-251.947,80.867
36921860,0.316,-1.834,0.213,6.177,-198.817,97.492
36921870,-1.301,-1.612,0.01,53.41,-9.31,154.21
36921880,-0.963,-1.205,-0.104,95.427,108.447,237.737
36921890,0.727,-0.896,-0.004,78.102,60.532,194.547
36921900,1.451,-1.223,0.047,27.615,91.455,117.88
36921910,0.563,-0.445,-0.109,63.612,125.545,21.77
36921920,0.111,0.275,-0.615,54.687,120.732,-78.05
36921930,0.13,0.823,-0.984,14.017,109.41,-149.38
36921940,-0.434,1.103,-0.626,-54.127,99.627,-187.11
36921950,-0.329,0.955,-0.351,-93.992,73.412,-205.222
36921960,-0.234,1.493,1.04,-74.287,53.935,-210.035
36921970,0.683,-1.918,0.308,92.61,-11.567,-245.875
36921980,1.434,-0.826,0.786,506.555,42.437,-186.567
36921990,0.578,-0.751,1.997,415.607,46.952,-100.992
36922000,0.715,0.976,1.99,332.237,144.445,31.657
36922010,-1.902,1.876,1.072,141.942,208.512,53.112
36922020,-0.44,0.139,1.072,-7.192,21.472,21.997
36922030,-0.835,0.364,1.076,-29.925,-55.44,6.667
36922040,0.206,-0.808,0.939,-50.365,-75.967,23.975
36922050,-0.418,-0.381,0.899,-28.157,-55.037,14.42
36922060,0.176,-0.487,0.913,-21.7,-55.492,-8.627
36922070,0.398,-0.345,0.934,-4.147,-35.892,-5.95
36922080,-0.042,-0.157,0.976,7.822,-10.885,5.46
36922090,-0.005,-0.205,0.975,10.657,-4.76,4.725
36922100,0.036,-0.028,1.006,11.882,0.787,3.657
36922110,-0.084,-0.1,0.989,9.345,5.267,7.927
36922120,-0.067,-0.21,0.97,8.732,7.175,8.032
36922130,-0.143,-0.027,1.009,10.535,8.19,5.932
36922140,-0.188,-0.103,0.993,5.565,5.18,4.672
36922150,-0.125,-0.182,0.973,2.782,0.612,-0.122
36922160,-0.092,-0.105,0.992,2.695,0.35,-3.552
36922170,-0.025,-0.099,1.003,0.612,1.715,-4.095
36922170,-0.084,-0.081,1.015,-3.097,6.65,-2.537
36922190,-0.121,-0.027,1.044,-9.957,9.065,-2.485
36922190,-0.058,-0.048,1.069,-22.242,11.987,-3.29
36922210,0.008,-0.086,1.12,-35.507,18.812,-2.747
36922210,0.012,-0.028,1.202,-49.84,30.887,1.015
36922230,0.008,-0.02,1.253,-70.56,44.712,6.142
36922230,-0.114,-0.067,1.187,-96.617,56.717,13.632
36922250,-0.086,-0.091,1.268,-134.452,35.14,30.695
36922250,-0.127,-0.144,1.174,-165.462,18.007,53.305
36922260,-0.298,-0.176,1.182,-185.36,7.49,64.732
36922270,-0.379,-0.234,1.179,-202.65,-7.717,70.262
36922280,-0.196,-0.365,1.19,-205.45,-15.277,74.795
36922290,-0.383,-0.585,1.092,-190.47,-10.377,81.077
36922300,-0.484,-0.893,0.92,-151.445,-36.977,81.777
36922310,0.337,-1.483,0.917,-102.97,-54.81,78.785
36922320,-0.263,-1.58,0.821,-42.455,-39.13,74.725
36922330,0.78,-0.905,0.498,26.792,-43.855,45.955
36922340,0.907,-0.217,0.052,64.942,-25.532,22.82
36922350,0.654,0.326,-0.109,72.17,-36.015,-64.242
36922360,0.52,0.472,-0.548,68.355,-65.677,-170.765
36922370,0.033,0.816,-0.923,64.225,-64.032,-262.412
36922380,-0.667,0.934,-0.993,33.442,-54.477,-320.652
36922390,-0.656,0.199,-0.857,-20.86,-48.195,-331.275
36922400,-0.196,-1.196,0.886,-36.417,58.205,-289.38
36922410,-1.221,-1.998,0.142,182.91,129.36,-228.182
36922420,1.681,0.545,1.145,458.85,56.245,-111.825
36922430,1.274,1.291,1.998,388.325,48.51,-80.01
36922440,1.201,-0.679,1.99,284.462,138.512,-6.632
36922450,-1.924,1.92,1.217,168.525,217.822,54.355
36922460,-1.201,0.116,1.07,14.28,56.28,11.445
36922470,-1.138,0.14,0.977,-17.185,-43.207,-20.685
36922480,0.04,-0.435,0.972,-37.957,-81.48,-27.685
36922490,0.04,-0.319,0.951,-29.855,-72.852,-19.355
36922500,0.15,-0.313,0.952,-25.34,-58.082,-8.68
36922510,0.176,-0.327,0.936,-16.415,-42.647,0.052
36922510,-0.02,-0.268,0.95,-7.297,-28.875,3.657
36922530,0.022,-0.168,0.98,-2.555,-22.102,4.987
36922530,-0.017,-0.131,0.996,-0.735,-15.96,6.352
36922550,-0.108,-0.04,1.02,-1.505,-13.037,5.95
36922550,-0.087,-0.138,0.991,-6.072,-12.792,4.497
36922570,-0.114,-0.156,0.985,-7.105,-12.547,0.612
36922570,-0.09,-0.133,0.996,-8.75,-11.917,-2.922
36922580,-0.07,-0.135,1.002,-11.97,-10.902,-5.32
36922590,-0.065,-0.118,1.013,-16.59,-8.505,-7.21
36922600,-0.058,-0.09,1.039,-24.132,-5.985,-7.665
36922610,-0.124,-0.067,1.095,-34.195,-3.64,-7.595
36922620,-0.146,-0.044,1.171,-49.892,-3.815,-9.607
36922630,-0.183,-0.018,1.239,-72.555,-2.625,-13.212
36922640,-0.132,-0.003,1.295,-98.245,3.552,-18.007
36922650,-0.098,-0.038,1.248,-126.035,13.965,-21.507
36922660,-0.148,-0.084,1.199,-150.517,23.257,-21
36922670,-0.082,-0.117,1.177,-171.622,18.672,-13.58
36922680,-0.364,-0.211,1.155,-190.382,6.23,-5.057
36922690,-0.132,-0.87,1.158,-196.962,-17.727,-3.85
36922700,-0.171,-0.299,1.186,-169.417,-23.1,5.915
36922710,-0.116,-1.136,0.979,-134.942,-26.582,26.232
36922720,0.049,-1.163,0.949,-96.145,-37.835,27.86
36922730,0.129,-1.582,0.961,-32.077,-45.78,24.255
36922740,0.484,-1.859,0.162,49.42,-49.945,21.945
36922750,0.24,-0.345,-0.307,108.167,-51.31,25.637
36922760,-0.781,0.095,-0.423,65.38,-98.21,12.635
36922770,-0.27,-0.077,-0.875,41.212,-75.845,76.457
36922780,-0.741,0.786,-0.875,38.15,-27.422,144.515
36922790,-0.356,0.379,-0.913,-2.327,2.677,189.105
36922800,0.165,0.405,-1.306,2.065,16.345,193.69
36922810,0.45,-0.13,1.123,-28.945,-4.217,125.65
36922820,1.431,-1.998,0.665,119.7,-69.195,-69.667
36922830,-1.406,0.202,1.329,493.097,-14.752,-77.857
36922840,1.929,0.087,1.984,396.427,-11.742,1.452
36922850,1.16,0.821,1.988,338.03,116.97,13.877
36922860,-1.998,1.926,1.151,153.317,202.86,55.79
36922870,-0.726,-0.297,1.119,-12.25,10.657,18.042
36922880,-0.769,0.253,1.037,-32.287,-61.215,-16.94
36922890,0.301,-0.511,0.948,-52.412,-73.99,-15.452
36922900,-0.203,-0.432,0.885,-37.975,-51.52,-10.412
36922910,0.246,-0.384,0.917,-27.457,-44.24,-9.17
36922920,0.283,-0.361,0.911,-11.55,-26.88,-4.812
36922920,0.135,-0.323,0.936,3.657,-9.065,4.165
36922940,-0.045,-0.165,0.978,13.387,4.077,8.47
36922940,-0.083,-0.158,0.988,14.892,7.962,8.067
36922960,-0.138,-0.052,1.019,13.247,9.205,6.352
36922960,-0.229,-0.037,1.019,5.915,6.492,5.862
36922980,-0.276,-0.051,1.018,-2.467,0.122,4.042
36922980,-0.224,-0.123,0.998,-11.462,-8.225,-0.857
36922990,-0.153,-0.137,0.993,-17.447,-12.862,-4.847
36923000,-0.127,-0.123,1.022,-23.345,-13.37,-7.787
36923010,-0.119,-0.078,1.056,-28.63,-13.475,-9.31
36923020,-0.201,-0.005,1.116,-41.142,-13.982,-11.217
36923030,-0.288,0.002,1.153,-61.145,-17.797,-15.697
36923040,-0.241,-0.037,1.173,-82.565,-24.517,-21.227
36923050,-0.134,-0.091,1.187,-104.265,-27.597,-25.165
36923060,-0.173,-0.015,1.223,-127.785,-25.9,-23.31
36923070,-0.332,-0.022,1.232,-154.315,-33.722,-14.787
36923080,-0.517,-0.127,1.201,-179.287,-58.38,-4.795
36923090,-0.6,-0.602,1.277,-198.152,-99.802,-2.52
36923100,-0.701,0.377,1.196,-192.745,-149.677,-10.902
36923110,-0.592,-0.693,1.348,-204.802,-199.237,-16.327
36923120,-0.213,-0.617,1.053,-186.375,-244.615,-10.22
36923130,0.467,-0.688,0.955,-147.945,-251.562,8.785
36923140,-0.256,-0.888,1.041,-103.075,-198.677,25.9
36923150,0.225,-1.411,0.775,-37.17,-85.382,90.475
36923160,-1.875,-0.104,1.44,43.592,121.992,238.035
36923170,-0.199,0.248,-0.094,156.362,102.637,324.887
36923180,1.998,0.232,0.032,106.225,118.93,341.267
36923190,1.766,0.687,-0.434,128.38,99.54,146.177
36923200,1.016,0.957,-0.815,138.915,94.342,-51.59
36923210,-0.521,0.605,-0.888,103.18,89.512,-144.06
36923220,-1.162,0.272,-0.722,63.157,82.232,-150.955
36923230,-1.41,-0.416,-0.77,37.73,81.97,-86.03
36923240,-0.959,-0.96,0.746,30.187,2.887,-65.38
36923250,1.463,-1.998,-0.829,91.14,-32.497,-237.842
36923260,-1.845,1.519,1.84,500.325,128.327,-205.835
36923260,1.944,0.574,1.998,350.787,10.85,-8.855
36923280,-0.377,-0.022,1.961,262.727,165.637,48.23
36923280,-1.818,1.325,1.131,136.342,178.395,75.932
36923300,-0.676,0.033,1.052,-10.762,-0.017,6.947
36923300,-0.346,-0.047,1.017,-21.49,-55.597,-13.387
36923320,0.042,-0.26,0.996,-33.81,-62.23,-5.88
36923320,-0.204,-0.322,0.94,-29.977,-51.87,3.01
36923330,0.031,-0.304,0.937,-26.652,-49.7,2.467
36923340,0.163,-0.3,0.936,-17.867,-39.987,1.242
36923350,0.042,-0.325,0.934,-7.822,-25.952,5.302
36923360,-0.046,-0.183,0.972,0.07,-16.957,5.6
36923370,0.001,-0.147,0.987,1.662,-13.195,3.78
36923380,-0.023,-0.118,0.992,1.085,-9.52,5.057
36923390,-0.083,-0.139,0.982,-0.77,-7.35,8.26
36923400,-0.127,-0.11,0.996,-2.03,-7.227,7.997
36923410,-0.109,-0.162,0.982,-5.477,-9.117,5.022
36923420,-0.084,-0.192,0.97,-7.77,-9.45,0.752
36923430,-0.035,-0.151,0.986,-8.4,-7.997,-3.395
36923440,0.005,-0.114,1.002,-11.812,-4.672,-5.705
36923450,-0.031,-0.109,1.028,-18.725,1.085,-5.88
36923460,-0.094,-0.07,1.057,-26.267,4.322,-7.052
36923470,-0.122,-0.081,1.099,-39.042,4.76,-10.57
36923480,-0.159,-0.032,1.18,-56.192,6.002,-15.225
36923490,-0.211,0,1.259,-78.225,6.457,-21.28
36923500,-0.25,-0.024,1.276,-107.24,6.685,-29.295
36923510,-0.373,-0.072,1.259,-138.827,2.135,-37.17
36923520,-0.581,-0.074,1.25,-167.667,-17.832,-43.12
36923530,-0.698,-0.09,1.302,-190.347,-53.305,-49.787
36923540,-0.816,-0.402,1.312,-210.262,-101.185,-62.02
36923550,-0.991,-0.382,1.446,-200.672,-144.76,-81.83
36923560,-0.632,-0.785,1.18,-171.08,-186.497,-93.852
36923570,-0.139,-1.325,1.189,-157.937,-165.217,-109.392
36923580,-0.275,-1.717,0.684,-106.942,-2.537,-80.71
36923590,-1.998,-0.384,0.897,-1.557,77.84,1.925
36923600,-1.747,-0.275,0.422,33.32,30.17,67.445
36923610,-0.294,0.152,0.116,38.517,64.68,200.34
36923620,-0.027,1.578,-0.298,122.272,106.347,257.355
36923630,0.678,1.997,-0.959,157.167,112.192,235.165
36923640,0.948,1.997,-1.313,165.76,116.042,177.66
36923640,0.381,1.681,-1.051,128.24,88.305,89.792
36923660,0.587,0.595,-0.798,97.877,59.71,4.41
36923660,-1.074,-1.105,0.897,73.832,-57.802,-107.765
36923670,0.831,-1.998,-0.681,191.065,-214.287,-452.06
36923680,-0.178,1.771,1.998,500.657,72.012,-207.69
36923690,1.077,-0.247,1.982,260.155,68.81,-62.86
36923700,-1.946,1.622,1.085,108.412,206.552,93.117
36923710,-0.181,-0.68,1.03,-34.755,-6.142,61.6
36923720,-0.523,0.006,1.025,-27.842,-64.522,1.137
36923730,0.334,-0.649,0.913,-37.31,-69.79,-5.232
36923740,0.021,-0.275,0.939,-13.842,-36.977,3.64
36923750,-0.061,-0.192,0.967,-7.7,-25.987,1.732
36923760,0.05,-0.36,0.922,-3.36,-22.102,-3.797
36923770,0.053,-0.232,0.956,7.437,-11.567,-4.305
36923780,-0.037,-0.092,0.994,12.652,-3.587,-3.692
36923790,0.043,-0.135,0.985,11.375,0.717,-3.22
36923800,-0.03,-0.076,1.001,11.602,7.7,1.977
36923810,-0.26,-0.047,1.005,7.962,9.485,6.982
36923820,-0.29,-0.102,0.992,1.785,1.82,3.867
36923830,-0.213,-0.08,0.999,-3.657,-7.612,-1.557
36923840,-0.095,-0.113,0.993,-9.135,-12.862,-4.69
36923850,-0.058,-0.148,0.98,-11.847,-12.355,-4.48
36923860,-0.003,-0.147,0.99,-12.407,-8.627,-2.87
36923870,0.041,-0.119,1.005,-12.95,-2.712,0.577
36923880,0.013,-0.118,1.014,-14.665,6.142,6.562
36923890,0.039,-0.107,1.05,-17.622,14.77,13.02
36923900,0.08,-0.04,1.114,-24.272,26.95,20.125
36923910,0.163,-0.042,1.185,-35.402,42.822,29.925
36923920,0.217,-0.076,1.26,-51.415,62.212,46.165
36923930,0.147,-0.147,1.298,-82.74,49.787,80.972
36923940,0.548,-0.22,1.373,-133.735,24.692,131.757
36923950,0.189,-0.285,1.311,-158.375,26.215,181.405
36923960,0.039,-0.781,1.24,-186.007,7.63,224.017
36923970,0.764,-0.993,1.055,-197.032,-8.417,259.035
36923980,0.648,-1.23,0.826,-183.137,-9.152,303.03
36923990,0.682,-1.13,1.123,-162.207,-23.94,338.485
36924000,0.001,-1.571,0.835,-114.397,-67.322,366.327
36924010,1.965,-1.586,0.863,-91.595,-133.857,269.622
36924010,1.998,-1.997,0.73,-62.842,-81.777,182.385
36924030,1.928,-1.435,0.872,-19.232,-61.775,-17.797
36924030,0.813,-0.337,0.281,39.777,-62.352,-220.78
36924050,-1.165,0.38,-0.132,56.875,-96.442,-356.825
36924050,-1.998,1,-0.807,69.965,-165.637,-385.735
36924070,-1.998,1.907,-1.39,66.622,-186.375,-308.542
36924070,-1.788,1.755,-1.196,18.97,-146.23,-221.865
36924080,0.416,0.389,-0.748,-19.005,-54.862,-199.71
36924090,-1.105,-1.285,1.995,78.767,332.972,-49.91
36924100,-0.037,-1.478,1.152,441.91,141.452,12.355
36924110,1.851,1.008,1.992,433.982,178.657,59.692
36924120,-1.945,1.988,0.006,237.737,333.025,51.625
36924130,0.232,-1.329,1.242,-54.442,-28.892,-6.527
36924140,-1.711,1.195,0.988,-52.867,-121.607,-18.182
36924150,0.706,-1.156,1.039,-88.48,-182.875,-23.8
36924160,0.299,-0.421,0.898,-56.98,-131.057,-28.332
36924170,0.526,-0.469,0.916,-42.787,-88.252,-16.59
36924180,0.502,-0.318,0.894,-25.2,-54.512,-6.93
36924190,0.374,-0.561,0.828,-7.315,-23.94,3.202
36924200,0.369,-0.279,0.926,16.975,3.29,8.33
36924210,0.14,-0.146,0.997,27.492,24.64,15.75
36924220,-0.227,-0.004,1.033,27.685,35.315,21.507
36924230,-0.351,-0.11,1.007,19.95,29.592,18.952
36924240,-0.328,-0.006,1.026,11.865,17.22,9.835
36924250,-0.357,-0.112,0.997,0.962,3.692,1.312
36924260,-0.114,-0.178,0.986,-7.122,-6.002,-7.892
36924270,-0.056,-0.138,0.997,-10.902,-6.405,-10.885
36924280,-0.109,-0.135,1.009,-15.995,-3.202,-11.34
36924290,-0.133,-0.09,1.048,-23.66,-1.47,-13.405
36924300,-0.155,-0.106,1.071,-33.67,-0.07,-17.237
36924310,-0.133,-0.196,1.049,-46.2,1.487,-24.342
36924320,-0.152,-0.076,1.136,-58.957,8.347,-35.122
36924330,0.112,-0.029,1.246,-70.315,23.817,-45.57
36924330,0.038,-0.084,1.213,-83.352,59.64,-50.242
36924350,0.235,-0.037,1.354,-109.725,77.98,-44.992
36924350,0.224,-0.07,1.363,-140.49,90.492,-26.232
36924370,0.189,-0.123,1.338,-175.21,88.165,-0.595
36924370,0.258,-0.211,1.352,-206.675,86.187,28.455
36924390,-0.019,-0.31,1.578,-234.78,72.257,51.222
36924390,0.421,-0.832,1.661,-242.9,47.95,63.682
36924410,0.361,-0.668,1.316,-201.407,36.732,80.08
36924410,0.205,-0.666,1.326,-185.01,8.837,72.502
36924420,1.707,0.227,1.161,-153.51,-22.032,77.997
36924430,0.85,1.419,0.793,-76.527,-30.38,87.727
36924440,1.429,1.656,0.439,-33.075,-82.477,76.877
36924450,1.934,1.599,0.862,-22.732,-139.685,12.32
36924460,0.299,1.997,-0.055,151.427,-164.01,-199.167
36924470,-1.479,1.994,-0.26,171.167,-190.592,-166.617
36924480,-0.997,1.574,-0.569,179.742,-207.847,-34.317
36924490,-0.57,0.496,0,176.417,-158.83,71.767
36924500,-1.9,-1.998,0.927,197.505,-40.32,39.497
36924510,-1.979,-1.998,-1.79,475.055,71.47,85.4
36924520,0.384,0.872,1.568,451.64,132.002,149.047
36924530,-0.062,1.148,1.998,415.905,142.782,83.51
36924540,-1.272,0.421,1.359,183.435,166.512,-6.877
36924550,-1.045,-0.121,0.893,50.487,61.74,-2.537
36924560,-1.377,0.865,0.905,-25.305,-42.962,-5.81
36924570,-0.349,-0.801,0.955,-49.35,-105.542,-20.685
36924580,-0.095,-0.216,0.951,-48.51,-107.87,-18.515
36924590,-0.009,-0.111,1.015,-47.197,-94.727,-16.887
36924600,0.108,-0.244,0.983,-48.055,-82.967,-14.612
36924610,0.403,-0.36,0.951,-40.022,-63.595,-11.2
36924620,0.285,-0.284,0.962,-26.355,-36.522,-3.255
36924630,0.181,-0.204,0.985,-16.852,-15.277,2.502
36924640,0.047,-0.133,1.039,-12.652,0.945,3.657
36924650,-0.014,-0.072,1.1,-16.38,11.882,1.592
36924660,-0.029,-0.084,1.158,-28.262,22.627,-3.167
36924670,-0.032,-0.08,1.25,-43.907,38.22,-8.855
36924680,-0.034,0.018,1.337,-67.585,63.892,-15.89
36924690,-0.072,-0.187,1.255,-100.922,91.297,-22.82
36924700,-0.206,-0.106,1.28,-134.295,98.56,-21.752
36924710,-0.22,0.085,1.324,-166.565,73.062,-2.747
36924720,-0.177,-0.315,1.321,-193.13,48.772,10.657
36924730,-0.298,-0.574,1.288,-199.115,34.23,30.782
36924740,-0.512,-0.712,1.308,-191.065,21.542,46.497
36924750,-1.063,-1.083,1.456,-168.052,-24.972,42.892
36924760,-0.745,-1.758,1.643,-93.397,-63.42,43.995
36924760,-0.549,-1.416,0.432,25.252,-72.432,55.405
36924780,-0.727,0.11,-0.33,109.725,-19.95,89.075
36924780,-0.818,-0.231,-0.157,23.362,2.537,93.467
36924800,-0.404,-0.929,0.058,-15.61,-16.66,75.827
36924800,0.202,-0.563,0.064,6.037,-7,81.83
36924820,0.219,-0.246,0.03,8.277,17.115,72.975
36924820,0.13,-0.196,0.112,-15.925,24.797,51.59
36924830,0.106,-0.153,0.243,-41.02,11.112,36.19
36924840,0.233,-0.099,0.287,-52.937,-4.97,24.535
36924850,0.186,0.022,0.244,-56.717,-7.91,15.907
36924860,0.008,0.165,0.181,-60.48,-7.752,9.047
36924870,-0.16,0.258,0.123,-68.407,-12.285,9.537
36924880,-0.259,0.353,0.095,-77.42,-21.367,19.04
36924890,-0.263,0.494,0.106,-86.73,-26.18,39.882
36924900,-0.213,0.521,0.105,-94.675,-18.882,68.635
36924910,-1.201,-0.615,1.996,-119.77,-79.362,50.242
36924920,0.953,-1.995,0.417,67.427,-318.64,-79.187
36924930,0.2,-0.387,1.023,372.452,-18.637,-29.645
36924940,-1.592,0.209,1.492,262.395,15.015,-12.81
36924950,0.667,0.387,1.893,134.54,-59.92,2.397
36924960,0.957,0.703,1.565,120.977,-26.635,37.677
36924970,-0.046,-0.232,1.731,53.725,2.275,15.085
36924980,0.08,0.162,1.74,-18.375,22.645,44.765
36924990,-0.128,0.377,1.654,-93.712,29.855,56.63
36925000,-0.233,0.157,1.511,-172.585,24.342,47.617
36925010,-0.237,-0.067,1.357,-221.445,20.86,38.902
36925020,-0.102,-0.171,1.24,-246.715,27.982,31.412
36925030,-0.047,-0.566,1.158,-255.115,45.552,24.605
36925040,-0.162,-0.629,1.035,-227.762,64.172,28.822
36925050,-0.137,-0.798,1.122,-193.532,66.29,19.792
36925060,-0.649,-1.076,1.18,-154.28,43.557,12.95
36925070,0.226,-0.411,0.743,-112.542,-7.857,-18.427
36925080,-0.09,-0.335,0.494,-69.072,-0.367,-0.805
36925080,-0.679,-0.557,0.622,-40.6,-2.887,-10.902
36925100,-0.251,-0.745,0.907,-28.385,-42.402,-19.372
36925100,0.175,-0.842,0.602,32.322,-71.82,-42.805
36925120,-0.134,-0.365,0.107,99.172,-48.79,-61.442
36925120,-0.639,-0.034,-0.027,97.877,-19.022,-66.605
36925140,-0.506,-0.229,-0.117,71.872,-6.755,-76.457
36925140,-0.312,-0.099,-0.249,70.437,17.115,-70.017
36925160,-0.438,0.118,-0.182,64.487,46.077,-70.63
36925160,-0.363,-0.061,-0.178,46.077,59.272,-71.155
36925170,0.121,-0.025,-0.411,49.175,70.857,-56.315
36925180,0.359,0.131,-0.587,43.26,90.247,-41.317
36925190,0.388,0.014,-0.725,10.185,90.002,-50.47
36925200,0.833,-0.396,-0.881,-22.26,64.172,-78.522
36925210,-1.475,-1.353,1.998,-62.982,-47.04,-122.57
36925220,-0.044,-1.987,-1.064,326.515,-336.892,-205.362
36925230,0.373,1.51,-0.001,454.37,44.135,40.057
36925240,-0.959,1.563,1.156,413.07,-40.862,-66.377
36925250,0.619,-1.222,1.314,410.147,-97.877,-103.6
36925260,1.558,-0.302,1.919,462.56,-82.39,-7.945
36925270,1.764,0.8,1.992,342.702,40.04,-1.295
36925280,-1.773,1.985,1.349,155.785,143.657,38.342
36925290,-1.418,0.606,1.043,13.352,36.907,31.622
36925300,-1.107,0.217,1.025,-42.665,-67.427,-6.947
36925310,0.474,-0.504,0.953,-65.152,-100.502,-4.707
36925320,-0.253,-0.325,0.954,-50.487,-76.23,2.047
36925330,0.252,-0.461,0.915,-45.29,-68.582,-7.472
36925340,0.353,-0.392,0.898,-31.062,-49.21,-6.737
36925350,0.223,-0.232,0.938,-14.087,-26.582,4.83
36925360,0.132,-0.265,0.945,-2.922,-9.012,10.797
36925370,0.094,-0.144,0.994,5.267,3.955,12.565
36925380,0.046,-0.032,1.032,6.107,14.892,14.49
36925390,0.013,-0.118,1.023,1.82,23.082,16.345
36925400,-0.02,0.089,1.134,-3.867,31.5,18.76
36925410,-0.082,0.072,1.171,-21.77,37.31,21.962
36925420,-0.103,-0.06,1.191,-43.137,42.84,23.24
36925430,-0.242,-0.035,1.266,-68.46,45.657,21.787
36925440,0.169,0.012,1.333,-111.387,23.257,35.052
36925450,-0.151,-0.157,1.252,-148.82,25.322,49.997
36925460,-0.311,-0.034,1.284,-190.172,17.36,68.39
36925470,-0.602,0.006,1.248,-224.157,-13.055,77.192
36925480,-0.535,-0.433,1.073,-244.055,-47.512,70.21
36925490,0.142,-0.492,1.116,-243.635,-35.682,79.327
36925500,-0.084,-0.808,0.961,-221.095,-8.907,91.105
36925510,-0.323,-0.546,0.952,-186.165,-12.127,87.097
36925510,-0.055,-1.365,1.001,-139.58,-32.69,70.35
36925530,0.011,-1.546,1.169,-100.397,-29.4,68.232
36925530,0.875,-0.54,0.169,-11.2,-16.205,40.985
36925550,0.713,0.086,0.139,11.917,9.73,2.677
36925550,0.708,0.476,-0.001,32.917,2.257,-89.162
36925570,0.076,0.911,-0.307,71.645,-15.032,-158.042
36925570,-0.229,0.811,-0.837,101.657,-18.62,-173.46
36925580,-0.523,1.217,-1.387,112.455,-14.35,-154.35
36925590,-0.439,0.273,-1.34,67.707,-14.647,-98.157
36925600,-0.584,-1.024,0.915,31.937,-12.967,-63.665
36925610,-1.266,-1.998,-0.333,230.475,-103.512,-117.512
36925620,1.385,0.22,0.787,509.407,-8.33,-12.652
36925630,0.247,1.997,1.885,485.047,18.252,33.285
36925640,1.515,-0.843,1.985,350.892,91.315,26.32
36925650,-1.99,1.98,0.903,181.86,200.252,55.037
36925660,-0.238,-0.762,1.211,-27.492,-19.985,21.945
36925670,-1.394,0.546,0.993,-41.37,-97.632,-2.362
36925680,0.845,-0.83,0.952,-70.682,-123.62,-4.742
36925690,-0.095,-0.299,0.963,-48.23,-82.547,-11.27
36925700,0.284,-0.413,0.91,-47.547,-64.872,-11.567
36925710,0.458,-0.507,0.843,-29.435,-42.525,-8.575
36925720,0.296,-0.428,0.877,-4.217,-16.152,0.927
36925730,0.121,-0.113,0.995,14.805,3.955,10.377
36925740,-0.032,-0.056,1.019,16.712,13.912,14.63
36925750,-0.12,-0.117,0.993,13.002,15.435,13.387
36925760,-0.114,-0.157,0.991,10.885,14.472,10.027
36925770,-0.121,-0.037,1.021,8.487,13.037,7.437
36925780,-0.24,-0.126,0.993,1.715,10.08,4.322
36925790,-0.124,-0.146,0.991,-3.255,4.427,-2.887
36925800,-0.067,-0.126,1.007,-6.44,3.622,-6.877
36925810,-0.07,-0.104,1.029,-9.992,4.865,-8.102
36925820,-0.157,-0.048,1.066,-17.342,6.79,-9.047
36925830,-0.21,-0.058,1.085,-29.977,4.602,-12.197
36925830,-0.233,-0.078,1.101,-45.447,1.837,-17.587
36925850,-0.215,-0.072,1.139,-63.822,-2.187,-24.15
36925850,-0.215,-0.024,1.19,-88.41,-6.615,-29.032
36925870,-0.204,-0.064,1.227,-116.795,-14.647,-34.055
36925870,-0.289,-0.095,1.204,-146.982,-24.937,-38.955
36925890,-0.337,-0.125,1.109,-168.42,-32.602,-47.932
36925890,-0.246,-0.203,1.072,-176.05,-34.492,-52.395
36925910,-0.244,-0.424,0.99,-174.772,-29.347,-51.082
36925910,-0.378,-0.574,1.035,-158.707,-31.412,-46.69
36925920,-0.519,-1.006,0.967,-133.945,-43.54,-52.517
36925930,-0.398,-1.163,0.884,-119.822,-72.992,-75.897
36925940,-0.388,-0.846,0.787,-46.252,-67.112,-60.06
36925950,-0.592,-1.438,0.106,22.837,8.855,-7.035
36925960,-1.998,-0.174,0.187,69.51,86.852,115.272
36925970,-0.935,-0.133,-0.449,89.285,29.977,227.377
36925980,0.292,-0.673,-0.191,32.06,44.082,283.237
36925990,0.243,-0.419,-0.334,62.125,86.555,246.715
36926000,0.481,0.241,-0.676,85.697,117.355,198.38
36926010,-0.041,0.465,0.302,63.192,114.187,125.615
36926020,1.079,-1.277,0.944,64.627,-117.04,-45.657
36926030,0.776,0.09,0.041,332.605,-46.112,-238.035
36926040,-1.258,-0.908,1.63,471.642,-101.5,-342.632
36926050,1.998,-0.533,1.862,285.6,-49.91,-93.24
36926060,-1.584,1.711,0.641,232.82,294.997,0.087
36926070,-0.363,-0.631,1.113,-24.465,64.155,45.815
36926080,-1.128,-0.049,0.918,-17.185,-39.777,11.445
36926090,0.079,-0.516,0.97,-30.257,-77.035,-19.547
36926100,-0.12,-0.168,0.989,-16.887,-66.167,-12.985
36926110,0.003,-0.17,0.991,-16.8,-55.702,4.532
36926120,-0.156,-0.169,0.974,-15.697,-48.755,4.2
36926130,0.212,-0.251,0.977,-13.825,-42.122,3.552
36926140,0.052,-0.146,0.979,-6.947,-25.357,7.577
36926150,0,-0.211,0.971,-3.045,-14.822,7.805
36926160,0.024,-0.148,0.982,0.822,-6.212,5.722
36926170,-0.06,-0.166,0.977,3.185,0.262,6.212
36926180,-0.142,-0.106,0.985,4.48,4.042,5.932
36926190,-0.252,-0.089,0.99,2.992,1.907,4.987
36926200,-0.293,-0.11,0.981,-1.505,-4.777,0.455
36926210,-0.161,-0.101,0.991,-6.58,-13.23,-7.157
36926220,-0.041,-0.094,1.008,-11.165,-14.84,-10.465
36926230,-0.032,-0.105,1.018,-15.925,-11.48,-8.96
36926240,-0.136,-0.071,1.034,-22.68,-6.58,-7.647
36926250,-0.213,-0.054,1.074,-33.197,-6.422,-11.357
36926260,-0.217,-0.03,1.129,-47.897,-8.89,-16.537
36926260,-0.212,-0.042,1.173,-67.935,-11.147,-22.837
36926280,-0.248,-0.024,1.246,-92.557,-9.345,-30.467
36926280,-0.299,0.027,1.266,-122.255,-9.082,-37.24
36926290,-0.379,-0.006,1.267,-156.66,-15.295,-42.787
36926300,-0.487,0.078,1.269,-188.492,-35.805,-43.312
36926310,-0.586,-0.441,1.279,-215.757,-65.1,-41.44
36926320,-0.957,0.177,1.206,-219.66,-103.215,-45.517
36926330,-0.768,-0.881,1.372,-235.235,-147.665,-71.452
36926340,-1,-1.007,1.274,-216.475,-186.357,-75.74
36926350,-0.311,-1.592,1.057,-161,-169.837,-69.265
36926360,-0.408,-1.998,0.641,-107.66,-34.072,-34.317
36926370,-1.998,-0.864,0.287,27.807,78.172,60.497
36926380,-1.524,0.584,-0.584,66.237,67.112,174.282
36926390,0.443,0.781,-0.466,47.565,67.742,265.422
36926400,0.505,0.989,-0.596,93.957,112.245,185.255
36926410,0.219,1.266,-1.242,148.75,127.627,83.597
36926420,-0.147,0.941,-1.473,125.125,114.59,11.217
36926430,-0.041,-0.04,-1.213,63.892,96.372,-44.065
36926440,-1.212,-1.297,1.621,-3.885,-19.337,-110.495
36926450,1.481,-1.613,-0.845,169.627,-214.865,-411.285
36926460,-1.534,1.799,1.929,502.565,111.405,-412.772
36926470,1.998,1.238,1.998,372.68,25.06,-84.595
36926480,-0.649,0.065,1.977,280.98,168.385,74.34
36926490,-1.991,1.742,1.166,144.375,180.617,127.89
36926500,-1.1,0.33,1.087,3.482,10.045,17.71
36926510,-0.119,-0.057,1.046,-36.96,-63.472,-24.465
36926520,0.22,-0.341,0.968,-44.485,-60.322,-5.792
36926530,-0.193,-0.403,0.918,-33.197,-42.927,13.457
36926540,-0.007,-0.362,0.895,-25.287,-37.887,5.775
36926550,0.188,-0.382,0.904,-11.182,-28.84,-1.067
36926560,-0.015,-0.241,0.943,2.555,-14.822,4.095
36926570,-0.05,-0.15,0.973,7.752,-9.397,6.422
36926580,-0.013,-0.089,1.006,7.332,-5.46,7.14
36926580,-0.067,0.008,1.034,2.73,-2.572,12.722
36926600,-0.139,0.019,1.04,-5.32,-3.412,22.05
36926600,-0.143,-0.065,1.028,-14.647,-6.65,26.442
36926620,-0.093,-0.109,1.011,-24.027,-6.93,27.58
36926620,-0.07,-0.128,1.02,-32.27,-5.25,26.67
36926640,0.038,-0.247,0.993,-34.282,-2.205,27.23
36926640,0.058,-0.161,1.028,-35.21,5.407,29.89
36926660,0.103,-0.132,1.064,-40.547,13.79,36.207
36926660,0.238,-0.165,1.122,-54.075,13.895,48.58
36926670,0.149,-0.124,1.179,-74.497,6.072,66.675
36926680,0.04,-0.228,1.222,-99.732,-1.907,85.522
36926690,-0.048,-0.165,1.237,-127.75,-4.795,105.56
36926700,-0.339,-0.138,1.229,-157.167,-12.005,122.587
36926710,-0.339,-0.282,1.14,-176.277,-32.077,132.825
36926720,-0.03,-0.269,1.101,-178.92,-42.507,137.077
36926730,-0.355,-0.391,0.915,-167.667,-35.297,144.007
36926740,-0.069,-0.779,0.931,-155.802,-44.38,139.422
36926750,-0.458,-0.856,0.943,-147.21,-44.8,131.11
36926760,-0.217,-0.898,0.827,-101.237,-48.65,107.292
36926770,-0.571,-0.736,0.667,-59.78,-31.972,70.927
36926780,-0.308,-1.019,0.223,-36.207,-26.425,-1.26
36926790,-0.008,-0.904,0.06,-16.537,14.507,-80.64
36926800,-0.344,-0.775,-0.549,-7.927,72.555,-170.537
36926810,-0.721,0.408,-0.592,-12.495,82.635,-252.962
36926820,-1.153,1.625,-0.709,7.56,56.84,-296.135
36926830,-1.916,1.711,0.16,50.855,46.147,-263.567
36926840,-0.957,0.091,1.739,139.352,-12.95,-272.317
36926850,1.969,-1.998,-0.125,258.685,8.067,-345.642
36926860,0.069,-0.409,0.734,425.827,90.65,-308.455
36926870,1.032,1.696,1.804,415.45,27.142,-153.65
36926880,1.826,-0.611,1.998,365.96,59.92,-22.505
36926890,-0.659,1.294,1.864,258.93,193.427,74.095
36926900,-1.863,1.34,1.123,95.13,136.115,55.545
36926910,-1.169,0.383,1.071,-17.675,-36.732,-17.622
36926920,0.233,-0.336,1.001,-48.037,-91.682,-27.317
36926930,-0.01,-0.23,0.968,-49.595,-76.545,-8.487
36926940,-0.082,-0.375,0.924,-45.885,-65.065,-2.397
36926940,0.295,-0.443,0.875,-36.33,-57.925,-10.062
36926960,0.297,-0.337,0.897,-17.395,-37.607,-4.235
36926960,0.138,-0.276,0.93,-1.47,-18.917,6.545
36926980,-0.041,-0.163,0.967,7.647,-7.42,11.427
36926980,-0.032,-0.121,0.994,10.815,-3.395,10.342
36927000,-0.113,-0.055,1.014,8.75,-0.717,10.132
36927000,-0.11,-0.052,1.019,3.307,-1.715,9.765
36927010,-0.109,-0.088,1.005,-2.66,-2.73,9.537
36927020,-0.053,-0.165,0.983,-6.965,-3.132,8.015
36927030,-0.056,-0.155,0.99,-8.4,-0.087,5.88
36927040,0.059,-0.138,1.011,-10.797,4.48,3.955
36927050,0.101,-0.1,1.045,-14.105,14.367,8.4
36927060,0.079,-0.065,1.091,-21.665,27.702,15.68
36927070,0.099,-0.076,1.135,-31.36,44.45,21.665
36927080,0.17,-0.068,1.219,-42.455,65.45,26.932
36927090,0.188,-0.088,1.264,-61.95,87.797,35.175
36927100,0.489,-0.151,1.428,-99.242,82.145,58.94
36927110,0.245,-0.337,1.311,-134.102,91.402,93.152
36927120,-0.084,-0.367,1.294,-160.895,94.727,129.57
36927130,-0.09,-0.483,1.216,-176.75,70.805,158.287
36927140,0.276,-0.289,1.228,-173.057,48.212,171.657
36927150,-0.028,-0.261,1.161,-156.047,37.66,180.267
36927160,-0.231,-0.912,1.178,-140.717,11.917,184.87
36927170,-0.956,-1.321,1.417,-103.932,-57.627,183.067
36927180,1.964,-1.811,1.084,-75.11,-154.49,78.137
36927190,1.998,-1.287,0.629,45.85,-85.347,25.882
36927200,1.223,-0.742,-0.022,107.572,-38.622,-122.815
36927210,-0.442,-0.101,-0.704,123.97,-137.235,-231.227
36927220,-1.745,0.57,-1.433,106.715,-279.212,-279.09
36927230,-1.49,0.786,-1.63,38.167,-295.907,-240.625
36927240,-1.887,0.041,-1.096,-58.1,-222.512,-190.225
36927250,-0.952,-1.124,-1.138,-71.645,-149.135,-198.24
36927260,0.977,-1.161,1.063,-35.052,155.68,-157.85
36927270,-1.998,-1.782,0.463,259.735,310.45,-77.595
36927280,1.826,1.376,1.998,501.602,96.232,-0.997
36927290,0.595,-0.255,1.399,249.252,307.667,43.05
36927300,-1.782,1.703,0.11,204.68,267.33,35.91
36927310,0.778,-1.301,1.125,-106.767,-82.512,-8.75
36927320,-1.254,0.495,0.99,-24.045,-99.032,-34.107
36927330,0.572,-0.712,1.038,-47.897,-128.975,-27.177
36927330,-0.033,-0.244,0.942,-32.655,-96.46,-19.232
36927350,0.606,-0.522,0.955,-22.942,-71.96,-9.467
36927350,0.173,-0.335,0.918,-6.877,-37.397,0.962
36927370,0.352,-0.395,0.943,3.237,-15.435,6.405
36927370,0.068,-0.116,0.98,15.05,6.93,9.31
36927390,-0.006,-0.18,0.977,17.115,17.22,10.57
36927390,-0.245,-0.046,1,18.48,21.7,9.275
36927410,-0.284,-0.087,0.992,13.702,14.192,6.737
36927410,-0.336,-0.058,0.99,7.857,3.675,2.66
36927420,-0.235,-0.125,0.981,2.135,-8.54,-3.482
36927430,-0.089,-0.124,0.983,-1.4,-14.507,-7.28
36927440,-0.053,-0.123,0.989,-4.025,-13.737,-5.95
36927450,-0.098,-0.119,0.993,-6.527,-11.287,-4.252
36927460,-0.055,-0.104,1.006,-9.642,-9.257,-3.902
36927470,-0.002,-0.123,1.016,-13.895,-5.32,-3.185
36927480,0.006,-0.143,1.017,-19.407,1.137,-2.66
36927490,0.027,-0.155,1.03,-25.27,9.17,-1.96
36927500,0.013,-0.15,1.045,-30.835,17.5,-0.052
36927510,0.006,-0.169,1.047,-35.805,25.532,3.01
36927520,-0.037,-0.164,1.038,-40.32,34.335,7.35
36927530,-0.124,-0.161,1.008,-44.73,40.267,14.682
36927540,-0.227,-0.138,0.965,-49.35,39.882,22.47
36927550,-0.307,-0.112,0.92,-53.69,30.45,27.195
36927560,-0.409,-0.192,0.844,-57.557,9.065,31.29
36927570,-0.131,-0.311,0.858,-63.21,-22.592,39.235
36927580,-0.103,-0.257,0.794,-51.397,-36.19,47.162
36927590,-0.089,-0.336,0.753,-34.965,-43.05,51.1
36927600,0.025,-0.417,0.707,-9.537,-42.385,54.425
36927610,0.046,-0.468,0.674,23.73,-30.817,55.282
36927620,-0.042,-0.483,0.701,60.707,-13.352,52.64
36927630,-0.142,-0.437,0.758,95.585,-1.715,44.257
36927640,-0.207,-0.279,0.953,122.412,-1.225,35.157
36927650,-0.141,-0.095,1.181,129.447,-4.83,24.57
36927660,0.103,0.1,1.266,112.455,6.44,19.092
36927670,-0.106,0.238,1.181,78.452,24.447,17.622
36927670,-0.394,0.169,1.055,41.405,23.835,16.537
36927690,-0.503,0.129,1.022,16.135,2.852,8.05
36927690,-0.415,0.059,1.037,-5.897,-22.592,-4.165
36927710,-0.242,-0.029,1.05,-25.69,-38.85,-13.527
36927710,-0.235,-0.041,1.082,-43.277,-41.037,-19.145
36927730,-0.198,0.031,1.161,-63.332,-41.177,-25.427
36927730,-0.162,0.053,1.285,-90.527,-38.132,-33.04
36927750,-0.031,0.057,1.372,-127.452,-29.277,-41.387
36927750,0.077,0.106,1.387,-168.787,-6.58,-47.635
36927760,-0.038,0.022,1.325,-209.93,16.292,-48.895
36927770,-0.337,0.04,1.273,-251.667,8.82,-38.482
36927780,-0.031,-0.671,1.197,-296.187,-29.452,-19.145
36927790,-0.057,0.446,1.085,-295.347,-49.962,4.69
36927800,0.187,-0.505,0.812,-281.802,-65.082,25.34
36927810,0.151,-1.047,0.965,-286.912,-67.865,45.92
36927820,0.167,-1.211,0.912,-208.915,-70.63,60.007
36927830,-0.049,-1.162,0.867,-128.152,-78.855,46.112
36927840,-0.142,-1.219,0.591,-53.375,-85.452,31.307
36927850,0.231,-0.805,0.352,2.695,-72.537,37.345
36927860,-0.294,-0.709,0.303,61.407,-54.215,81.235
36927870,-0.197,-0.706,-0.053,81.69,-42.437,107.555
36927880,-0.116,-0.777,0.095,63.63,-19.46,127.365
36927890,-0.194,-1.05,0.018,60.13,-31.762,111.65
36927900,-0.039,-1.034,0.116,66.29,-41.317,92.505
36927910,0.002,-1.051,0.136,54.477,-38.85,70.192
36927920,-0.207,-0.991,0.117,45.325,-29.435,46.742
36927930,-0.392,-0.828,0.099,35.84,-25.41,34.93
36927940,-0.421,-0.756,0.068,19.495,-24.885,31.342
36927950,-0.333,-0.632,-0.043,11.217,-13.37,35.595
36927960,-0.396,-0.269,0.048,6.23,15.417,48.895
36927970,-0.62,-0.172,0.219,-5.88,42.892,66.062
36927980,-0.665,0.002,0.366,2.905,51.467,77.42
36927990,-0.373,0.363,0.33,22.767,51.327,86.922
36928000,-0.585,0.792,1.494,33.04,36.26,87.447
36928010,0.597,0.194,1.642,97.807,-141.365,2.555
36928020,1.391,1.105,0.514,359.782,-149.327,-78.347
36928030,-0.141,-0.578,1.284,335.755,-78.557,-102.952
36928040,0.89,-1.555,1.256,311.22,-49.647,-92.382
36928050,1.167,1.363,1.768,384.912,-2.345,-13.93
36928060,1.226,-0.221,1.99,275.047,60.865,-7.857
36928070,-0.943,1.57,1.582,182,123.672,36.365
36928080,-1.517,0.865,1.11,65.59,79.485,29.19
36928080,-0.753,0.382,1.06,-2.852,-19.81,-2.94
36928100,-0.461,0.154,1.058,-33.757,-65.695,-17.29
36928100,0.104,-0.269,0.966,-48.492,-80.115,-11.83
36928120,0.089,-0.512,0.892,-40.425,-65.31,-9.397
36928120,0.295,-0.492,0.881,-24.5,-49.98,-9.485
36928140,0.227,-0.289,0.928,-6.965,-29.68,-2.152
36928140,0.237,-0.221,0.951,5.18,-12.915,10.29
36928160,-0.047,-0.188,0.974,11.987,1.522,18.532
36928160,-0.163,-0.099,1.001,13.475,5.827,15.12
36928170,-0.118,-0.019,1.015,9.327,3.64,7.385
36928180,-0.02,-0.094,0.996,3.57,1.347,4.9
36928190,-0.044,-0.145,0.98,1.417,3.832,6.877
36928200,-0.101,-0.091,1.003,1.085,5.775,6.002
36928210,-0.09,-0.091,1.008,-2.992,5.792,3.5
36928220,-0.049,-0.138,1.006,-7.98,6.877,0.49
36928230,-0.018,-0.099,1.031,-13.055,10.57,-1.032
36928240,-0.056,-0.061,1.086,-22.12,16.345,-1.05
36928250,-0.091,-0.025,1.137,-34.247,19.547,-1.505
36928260,-0.103,-0.016,1.21,-53.217,23.187,-3.237
36928270,-0.114,0.004,1.248,-78.592,29.47,-6.422
36928280,-0.164,-0.04,1.257,-109.795,35.822,-10.745
36928290,-0.475,0.049,1.298,-147.962,18.917,-9.992
36928300,-0.179,-0.194,1.262,-192.92,-11.672,-4.27
36928310,-0.431,-0.434,1.109,-201.127,-18.165,-5.862
36928320,-0.442,-0.458,0.974,-192.412,-16.485,-0.612
36928330,-0.777,-0.439,0.985,-171.237,-21.84,-7.665
36928340,-1.004,-0.494,1.085,-134.347,-51.485,-33.722
36928350,-0.395,-0.672,0.692,-80.08,-79.205,-60.76
36928360,-1.014,-1.251,0.575,-66.045,-62.545,-100.747
36928370,-1.459,-1.514,0.362,-18.427,24.5,-69.002
36928380,-1.981,0.274,0.152,40.075,71.732,23.887
36928390,-0.89,0.072,0.133,10.482,52.99,96.04
36928400,-0.07,-0.012,0.169,2.012,75.25,135.502
36928410,0.345,0.969,-0.498,64.155,90.912,122.062
36928420,0.406,1.558,-0.774,47.687,85.4,78.207
36928420,0.127,0.926,-0.329,-8.05,46.2,2.73
36928440,1.459,-1.031,1.667,-48.825,-89.547,-140.455
36928440,1.236,-1.998,-0.408,213.185,-226.327,-433.615
36928460,-0.191,-1.668,1.014,380.52,-53.76,-352.94
36928460,1.998,1.925,1.552,412.195,-41.912,-92.417
36928480,1.887,-0.98,1.998,372.505,66.29,7.752
36928480,-1.644,1.737,1.609,242.182,214.987,110.652
36928500,-0.835,0.539,1.062,50.837,70.77,54.18
36928500,-0.704,0.178,1.074,-21.315,-47.617,-8.015
36928510,0.29,-0.521,0.974,-36.015,-65.677,-3.57
36928520,-0.322,-0.03,0.969,-28.787,-47.197,1.96
36928530,-0.036,-0.387,0.94,-30.642,-46.97,-5.04
36928540,0.208,-0.318,0.935,-20.405,-37.8,-8.33
36928550,0.152,-0.288,0.933,-8.785,-20.877,-0.857
36928560,-0.026,-0.229,0.954,2.555,-7.717,4.077
36928570,0.012,-0.136,0.985,8.032,-1.312,2.922
36928580,0.004,-0.053,1.016,8.715,3.902,4.182
36928590,-0.102,-0.123,0.998,4.707,7.84,7.962
36928600,-0.117,-0.038,1.025,1.54,7.962,8.242
36928610,-0.083,-0.018,1.034,-5.635,6.947,9.012
36928620,-0.059,-0.156,1,-13.65,8.4,9.8
36928630,-0.042,-0.113,1.021,-15.995,12.39,9.52
36928640,0.018,-0.081,1.055,-18.55,17.71,10.57
36928650,0.002,-0.044,1.106,-24.972,26.075,14.402
36928660,-0.02,-0.043,1.174,-38.185,36.05,16.782
36928670,-0.302,0.033,1.218,-61.845,38.29,17.43
36928680,0.262,-0.017,1.289,-103.127,15.4,28.455
36928690,-0.195,-0.153,1.191,-129.237,21.56,37.502
36928700,-0.335,-0.186,1.15,-160.912,17.36,47.775
36928710,-0.413,-0.068,1.143,-182.927,6.58,51.135
36928720,-0.327,-0.315,1.106,-196.91,-7.507,41.825
36928730,0.097,-0.623,1.086,-189.21,-8.067,38.937
36928740,0.213,-0.854,1.095,-161.367,9.467,41.86
36928750,-0.094,-0.578,1.005,-115.71,14.122,42.227
36928760,0.41,-0.84,0.902,-82.285,1.435,40.635
36928770,0.558,-0.966,0.921,-58.975,2.257,43.19
36928780,0.462,-1.125,0.618,-6.037,15.785,39.777
36928790,1.16,-1.159,0.414,21.017,-8.382,-6.58
36928800,1.384,-0.576,0.099,35.49,-10.85,-65.047
36928810,0.409,-0.076,-0.102,59.342,-20.125,-123.287
36928820,-0.605,0.535,-0.412,79.887,-35.717,-131.04
36928830,-0.534,0.938,-0.863,77.21,-69.842,-84.822
36928830,-0.254,0.991,-1.24,64.102,-80.587,-42
36928850,0.417,0.924,-0.887,36.312,-70.07,-25.882
36928850,-1.383,-1.452,1.406,45.535,-11.025,-3.062
36928870,0.099,-1.91,0.045,424.655,-68.74,38.045
36928870,0.545,1.309,1.717,467.057,15.557,105.507
36928890,1.373,1.117,1.93,377.23,122.727,5.95
36928890,-1.98,1.931,0.607,153.072,197.19,41.282
36928910,-0.362,-0.591,1.142,-30.695,-18.567,27.737
36928910,-1.521,0.562,0.927,-40.757,-104.93,-6.37
36928920,0.726,-0.97,0.962,-74.392,-147.717,-10.71
36928930,0.054,-0.262,0.941,-40.512,-104.107,-17.447
36928940,0.46,-0.355,0.964,-34.335,-77.647,-11.287
36928950,0.358,-0.324,0.923,-18.777,-48.842,-1.33
36928960,0.338,-0.454,0.905,-2.817,-22.977,3.99
36928970,0.114,-0.116,0.996,13.002,0.612,7.665
36928980,0.009,-0.102,0.995,15.505,11.392,7.332
36928990,0.028,-0.168,0.985,16.817,17.185,2.817
36929000,0.037,-0.155,0.992,19.932,24.955,0.945
36929010,-0.161,-0.022,1.013,21.472,31.727,0.84
36929020,-0.247,-0.081,0.999,17.78,30.1,-3.097
36929030,-0.093,-0.113,0.999,14.77,26.197,-11.007
36929040,-0.082,-0.085,1.011,13.317,28.052,-13.615
36929050,-0.09,-0.08,1.022,9.905,31.08,-12.442
36929060,-0.187,-0.026,1.05,3.832,34.51,-11.305
36929070,-0.24,-0.029,1.066,-6.807,34.545,-11.34
36929080,-0.233,-0.079,1.076,-19.057,34.142,-12.53
36929090,-0.166,-0.069,1.144,-32.147,36.05,-12.022
36929100,-0.088,-0.032,1.22,-49.945,45.342,-10.15
36929110,-0.056,-0.082,1.282,-74.952,64.347,-9.887
36929120,-0.089,0.038,1.187,-101.622,78.47,-4.917
36929130,-0.162,-0.251,1.141,-130.375,64.995,6.51
36929140,-0.153,-0.453,1.148,-146.597,41.457,28.7
36929150,-0.411,-0.506,1.134,-147.175,16.432,56.49
36929160,-0.179,-0.689,1.076,-137.97,-23.677,70.84
36929170,-0.314,-1.206,1.099,-112.402,-53.025,84.175
36929170,-0.017,-1.668,1.004,-53.865,-65.31,94.622
36929190,-0.889,-1.818,0.288,17.325,-81.935,90.877
36929190,1.53,-0.937,-0.643,67.322,-91.157,49.49
36929210,-0.098,-0.544,-0.842,42.157,-51.327,65.082
36929210,-0.069,-0.308,-0.738,-1.19,-81.41,-0.665
36929230,0.236,-0.177,-0.782,-33.005,-92.855,-11.497
36929230,0.071,0.06,-0.774,-28.542,-81.06,-44.992
36929250,0.862,0.792,0.414,-18.357,-29.767,-61.687
36929250,-1.654,1.355,0.61,175.14,65.817,-17.307
36929260,0.362,1.116,1.088,457.975,-86.765,14.98
36929270,1.953,-1.567,1.93,230.23,75.075,5.6
36929280,-1.741,1.997,-0.78,331.257,383.915,88.025
36929290,-1.065,-0.978,1.039,-11.725,54.337,-30.397
36929300,-1.501,0.401,0.871,-65.852,-76.177,-15.085
36929310,0.422,-0.892,1.103,-46.725,-132.755,-34.632
36929320,-0.396,-0.022,0.965,-33.197,-102.007,-26.46
36929330,0.195,-0.398,1.028,-32.235,-92.557,-8.382
36929340,0.087,-0.134,0.994,-19.337,-68.18,-7.21
36929350,0.155,-0.325,0.981,-15.802,-49.822,0.367
36929360,0.037,-0.122,0.988,-7.892,-32.27,4.847
36929370,0.069,-0.128,0.99,-5.372,-21.227,4.48
36929380,0.003,-0.146,0.989,-1.26,-10.027,3.57
36929390,-0.074,-0.082,0.991,0.822,-3.097,2.17
36929400,-0.142,-0.058,0.997,0.052,-0.315,1.19
36929410,-0.272,-0.034,1.001,-2.957,-2.765,-0.892
36929420,-0.171,-0.099,1.005,-8.89,-9.135,-6.037
36929430,-0.142,-0.068,1.027,-14.42,-11.147,-9.205
36929440,-0.101,-0.036,1.073,-23.467,-9.712,-9.957
36929450,-0.176,0.005,1.138,-37.957,-7.402,-9.8
36929460,-0.285,0.063,1.25,-60.007,-6.317,-11.97
36929470,-0.304,0.056,1.329,-93.31,-10.587,-16.922
36929480,-0.335,0.075,1.318,-136.92,-13.895,-23.66
36929490,-0.478,0.013,1.285,-178.465,-25.672,-28.14
36929500,-0.678,-0.07,1.267,-210.017,-56.157,-31.727
36929510,-0.801,-0.104,1.262,-225.82,-94.972,-34.475
36929520,-0.939,-0.736,1.343,-230.282,-136.447,-39.025
36929530,-0.802,-0.386,1.169,-187.897,-187.985,-50.697
36929540,-0.261,-1.066,0.871,-150.517,-202.002,-62.44
36929550,0.07,-1.998,0.833,-146.055,-144.235,-64.522
36929560,-1.833,-0.961,1,-12.757,11.48,39.97
36929570,-1.974,-0.035,0.417,26.967,71.19,159.32
36929570,-0.236,-0.558,0.31,2.117,21.28,261.047
36929580,0.424,-0.218,0.196,14.84,59.36,273.437
36929590,0.34,1.135,-0.413,92.137,105.77,252.56
36929600,0.424,1.946,-1.18,126.245,113.977,219.117
36929610,0.591,1.997,-1.556,116.672,97.527,172.865
36929620,0.415,1.646,-1.536,88.357,59.727,129.255
36929630,0.652,0.876,-1.151,84.507,23.03,103.81
36929640,-0.654,-1.32,0.904,43.4,-204.382,-57.312
36929650,-0.16,-1.101,0.105,376.722,-104.212,-361.165
36929660,1.261,1.997,1.958,480.252,109.637,-94.447
36929670,-1.271,1.886,1.09,172.025,219.17,45.657
36929680,-0.437,0.026,1.002,3.605,60.252,94.325
36929690,-0.996,-0.276,0.92,-42.07,-67.69,44.712
36929700,0.472,-0.664,0.946,-36.085,-84.91,-8.12
36929710,0.158,-0.003,1.042,-17.5,-55.965,-13.947
36929720,-0.133,-0.202,0.989,-16.677,-37.87,3.517
36929730,0.148,-0.286,0.949,-13.685,-30.537,3.657
36929740,0.015,-0.299,0.945,-3.22,-15.032,4.812
36929750,-0.155,-0.122,0.982,4.567,-5.705,3.605
36929760,0.026,-0.123,0.988,4.305,-4.987,-2.327
36929770,-0.02,-0.084,0.997,4.095,0.07,0.07
36929780,-0.221,-0.046,1.008,2.1,3.64,5.127
36929790,-0.249,-0.04,1.009,-4.305,-2.03,4.077
36929800,-0.102,-0.078,1.015,-12.775,-7.962,1.33
36929810,-0.164,-0.026,1.035,-19.862,-8.645,3.447
36929820,-0.075,-0.089,1.046,-29.627,-8.592,3.447
36929830,0.113,-0.051,1.112,-37.975,-2.922,3.85
36929840,0.191,-0.034,1.21,-50.627,13.02,9.957
36929850,0.095,-0.196,1.26,-73.605,31.535,18.305
36929860,0.41,0.021,1.402,-113.172,41.072,37.432
36929870,0.199,-0.009,1.415,-149.257,61.757,60.392
36929880,0.003,-0.194,1.348,-194.792,67.515,82.547
36929890,0.189,-0.374,1.392,-224.315,64.295,107.747
36929900,0.354,-0.417,1.441,-234.762,68.862,126.595
36929910,0.398,-0.317,1.504,-220.412,71.242,122.377
36929920,0.14,-0.602,1.817,-209.632,58.642,107.887
36929920,0.276,-0.44,1.682,-171.832,25.987,115.675
36929940,0.671,-0.671,1.425,-137.13,-16.082,90.352
36929940,1.998,-0.382,1.342,-92.662,-42.612,32.777
36929960,1.419,1.504,0.704,12.442,-53.357,-134.96
36929960,-0.726,1.997,-0.397,121.467,-92.75,-254.607
36929980,-1.992,1.997,-0.518,121.31,-150.867,-193.007
36929980,-1.597,1.908,-0.929,128.957,-153.265,-37.905
36930000,-1.032,1.206,-1.153,142.642,-92.26,59.097
36930000,-1.326,0.145,-0.789,127.172,-42.472,32.042
36930010,-1.149,-0.903,-0.959,132.685,-34.107,-31.185
36930020,-1.663,-1.658,0.815,105,-35,-111.527
36930030,0.303,-1.989,-1.012,257.722,-125.422,-313.67
36930040,1.339,1.876,1.961,523.547,29.785,-111.405
36930050,1.589,1.42,1.648,257.092,95.917,-113.75
36930060,-1.975,1.454,0.943,95.322,183.925,46.76
36930070,0.398,-0.233,1.135,-38.482,-28.752,43.207
36930080,-0.901,-0.371,0.992,-30.485,-80.15,3.535
36930090,0.703,-0.474,0.952,-38.57,-90.912,-1.82
36930100,0.233,-0.171,0.967,-22.277,-54.04,0.647
36930110,0.078,-0.264,0.961,-18.445,-34.86,12.862
36930120,0.104,-0.338,0.939,-9.555,-20.72,12.897
36930130,0.102,-0.27,0.946,0.332,-8.82,8.102
36930140,0.023,-0.141,0.982,7.84,1.645,4.357
36930150,0.04,-0.116,0.99,9.24,7.752,4.147
36930160,-0.117,-0.066,1.009,9.24,12.442,5.757
36930170,-0.242,-0.09,1.005,4.795,10.115,5.075
36930180,-0.146,-0.074,1.009,-1.015,3.972,-1.032
36930190,-0.094,-0.093,1.004,-7.42,1.417,-4.305
36930200,-0.104,-0.12,1.009,-13.492,2.712,-4.76
36930210,-0.052,-0.122,1.015,-17.885,4.025,-5.652
36930220,-0.001,-0.106,1.041,-21.035,7.91,-5.617
36930230,0,-0.044,1.124,-27.825,15.085,-3.132
36930240,0.015,-0.067,1.199,-42.14,27.667,-1.732
36930250,0.042,-0.138,1.312,-64.557,54.057,-7.84
36930260,0.131,0.107,1.359,-97.965,85.855,-9.485
36930260,0.179,-0.122,1.38,-138.302,100.117,-1.137
36930280,0.343,-0.31,1.317,-162.925,107.765,26.617
36930280,0.323,-0.312,1.239,-169.452,119.945,70.822
36930300,0.274,-0.305,1.23,-177.292,119.49,103.407
36930300,0.167,-0.341,1.275,-184.66,92.54,114.905
36930320,0.581,-0.545,1.643,-180.285,51.17,128.152
36930320,0.474,-0.314,1.145,-144.06,14.875,136.535
36930330,0.167,-0.875,1.398,-108.832,-49.192,112.507
36930340,1.998,0.001,1.209,-75.022,-96.53,65.03
36930350,1.718,1.41,1.118,32.2,-95.742,-77.402
36930360,0.007,1.931,-0.223,159.775,-109.865,-242.392
36930370,-1.547,1.997,-0.626,199.937,-160.667,-230.072
36930380,-1.129,1.997,-0.94,191.362,-170.485,-98.56
36930390,-0.514,1.702,-0.626,181.3,-134.837,-3.867
36930400,0.175,0.528,-0.608,179.41,-91.42,-23.957
36930410,-0.137,-1.134,1.058,188.93,-1.855,-143.64
36930420,-0.88,-1.998,1.605,271.88,28.77,-268.292
36930430,0.49,1.364,1.085,306.722,279.982,108.78
36930440,-1.817,0.833,-0.183,243.442,182.595,-81.567
36930450,-1.388,-1.633,1.475,-192.99,-99.085,-36.102
36930460,0.459,1.459,0.857,15.155,-109.567,6.562
36930470,0.086,-1.293,1.073,-53.655,-112.997,-29.575
36930480,0.158,0.062,0.965,-18.077,-78.995,-2.047
36930490,0.215,-0.293,0.98,-20.02,-56.455,0.682
36930500,0,-0.232,0.986,-13.107,-41.107,1.102
36930510,0.165,-0.251,0.962,-9.065,-29.697,0.997
36930520,0.179,-0.246,0.962,-1.382,-14.91,1.155
36930530,0.085,-0.167,0.983,7.525,0.437,2.467
36930540,-0.016,-0.101,0.992,11.812,10.202,2.852
36930550,-0.129,-0.129,0.99,12.372,13.597,3.01
36930560,-0.163,-0.097,0.994,10.5,12.775,0.717
36930570,-0.185,-0.097,0.992,7.297,8.767,-2.415
36930580,-0.163,-0.112,0.99,3.272,4.812,-5.127
36930590,-0.147,-0.098,0.995,-0.385,1.19,-6.51
36930600,-0.112,-0.102,0.996,-4.707,-0.647,-6.282
36930610,-0.107,-0.099,0.996,-8.12,-1.715,-5.337
36930620,-0.116,-0.119,0.988,-11.182,-1.872,-4.375
36930630,-0.11,-0.16,0.966,-12.565,-3.465,-3.902
36930640,-0.128,-0.18,0.95,-11.007,-4.707,-3.377
36930650,-0.098,-0.187,0.945,-7.525,-7.63,-3.36
36930660,-0.049,-0.205,0.94,-3.307,-8.4,-2.887
36930670,-0.003,-0.205,0.945,3.237,-7.297,-1.907
36930670,0.014,-0.181,0.959,9.537,-3.22,0.122
36930690,-0.04,-0.161,0.972,13.947,0.927,2.292
36930690,-0.097,-0.128,0.985,15.872,3.78,4.322
36930710,-0.161,-0.106,0.987,15.47,3.097,5.337
36930710,-0.217,-0.084,0.987,12.792,0.665,6.002
36930730,-0.254,-0.081,0.983,8.89,-5.845,5.04
36930730,-0.223,-0.087,0.978,4.83,-13.947,3.15
36930750,-0.156,-0.089,0.976,1.995,-21.472,1.295
36930750,-0.086,-0.087,0.976,0.157,-25.76,0.997
36930760,-0.072,-0.113,0.98,-1.522,-27.86,-0.035
36930770,-0.051,-0.116,0.974,-2.047,-28.035,-0.892
36930780,-0.036,-0.114,0.973,-2.345,-27.737,-1.855
36930790,-0.073,-0.124,0.981,-2.607,-26.39,-3.01
36930800,0.001,-0.149,0.968,-2.52,-26.057,-3.71
36930810,0.034,-0.134,0.96,-0.857,-21.787,-3.57
36930820,0.041,-0.126,0.957,0.665,-15.697,-2.432
36930830,0.057,-0.139,0.956,2.047,-8.732,-0.7
36930840,0.018,-0.132,0.962,3.92,-2.03,0.385
36930850,0.01,-0.133,0.962,5.267,2.957,1.05
36930860,-0.022,-0.123,0.967,6.597,6.702,1.33
36930870,-0.053,-0.123,0.969,7.402,8.977,1.697
36930880,-0.069,-0.108,0.972,7.962,10.027,2.38
36930890,-0.101,-0.115,0.978,7.752,9.87,2.8
36930900,-0.118,-0.114,0.979,7.42,8.82,3.027
36930910,-0.099,-0.114,0.974,7,7.052,3.01
36930920,-0.088,-0.108,0.969,6.825,6.265,3.342
36930930,-0.078,-0.104,0.966,6.667,5.39,3.937
36930940,-0.085,-0.106,0.966,6.492,5.407,4.97
36930950,-0.101,-0.128,0.966,6.282,4.865,5.635
36930960,-0.13,-0.114,0.967,6.44,4.392,5.95
36930970,-0.131,-0.099,0.967,5.81,2.047,6.457
36930980,-0.109,-0.108,0.972,4.532,0.35,7.787
36930990,-0.106,-0.104,0.971,3.832,-1.365,8.802
36931000,-0.117,-0.085,0.981,2.362,-2.59,9.117
36931010,-0.092,-0.083,0.993,-0.315,-5.145,8.82
36931010,-0.088,-0.057,1.005,-4.305,-5.635,9.1
36931030,-0.085,-0.008,1.037,-10.447,-6.562,10.465
36931030,-0.088,0.038,1.078,-20.912,-6.632,12.285
36931050,0.089,-0.13,1.172,-38.377,-6.247,12.197
36931050,-0.224,0.079,1.274,-59.867,4.077,11.865
36931070,0.142,-0.577,1.447,-110.267,-1.155,9.922
36931070,0.021,0.715,1.678,-169.505,28.892,36.015
36931080,-0.125,0.444,1.699,-242.182,37.17,49.49
36931090,-0.302,-0.229,1.571,-340.27,13.667,61.267
36931100,-0.055,0.596,1.513,-391.755,-10.692,88.182
36931110,0.359,-0.087,1.153,-428.365,-17.29,90.615
36931120,0.124,-1.063,1.278,-471.485,2.887,112.77
36931130,0.098,-1.034,1.518,-436.397,33.337,146.825
36931140,-0.363,-1.393,1.218,-361.41,4.637,135.922
36931150,1.18,-1.288,1.399,-273.647,-34.247,100.467
36931160,-0.39,-0.939,0.889,-164.955,-23.222,109.532
36931170,0.087,-0.678,0.705,-84.455,-14.577,89.215
36931180,0.269,-0.894,0.338,-43.662,-30.047,82.197
36931190,0.513,-0.614,-0.094,-2.362,-36.68,33.057
36931200,0.409,-0.515,-0.273,12.145,-23.222,-9.957
36931210,0.053,-0.484,-0.243,15.89,-20.842,-56.122
36931220,-0.162,-0.377,-0.235,22.242,-38.15,-89.232
36931230,-0.25,-0.22,-0.259,28.21,-55.037,-100.187
36931240,-0.341,-0.116,-0.236,29.995,-64.295,-98.105
36931250,-0.398,-0.06,-0.189,30.66,-68.512,-86.187
36931260,-0.455,-0.014,-0.054,34.247,-63.822,-62.895
36931270,-0.259,-0.02,0.075,39.795,-51.66,-38.517
36931280,-0.186,-0.008,0.258,41.72,-34.562,-29.067
36931290,-0.139,-0.114,0.433,50.207,-15.067,-27.492
36931300,-0.033,-0.264,0.556,62.965,11.637,-34.545
36931310,-0.023,-0.309,0.613,86.327,41.3,-47.915
36931320,-0.149,-0.238,0.575,115.972,66.99,-60.165
36931330,-0.236,-0.134,0.477,140.35,78.487,-70.035
36931340,-0.144,-0.013,0.316,149.24,77.595,-79.8
36931350,0.105,0.22,0.211,153.86,76.982,-85.382
36931360,0.378,0.383,0.225,147.927,77.49,-94.167
36931370,0.694,0.274,0.455,134.855,69.037,-118.877
36931380,-1.203,-1.762,1.785,109.41,18.655,-181.265
36931390,0.517,-1.897,-1.775,438.13,-20.317,-234.517
36931400,-1.325,1.748,-0.256,534.292,122.185,62.597
36931410,-1.199,0.921,1.204,399.227,-83.632,-51.345
36931420,1.558,0.028,1.959,410.48,-139.055,-16.59
36931420,1.217,-0.829,1.998,377.265,87.132,9.94
36931440,-1.998,1.885,0.619,198.992,240.94,42.14
36931440,-1.185,-0.131,1.069,-26.547,7.227,9.292
36931460,-1.571,0.657,1.081,-48.247,-109.2,-15.697
36931460,0.661,-0.401,1.057,-88.515,-157.15,-12.862
36931480,0.398,-0.678,0.905,-72.187,-114.257,-7.595
36931480,0.483,-0.59,0.881,-56.14,-72.712,-2.782
36931500,0.378,-0.34,0.878,-35.612,-40.495,6.107
36931500,0.274,-0.578,0.823,-10.972,-18.515,14.927
36931510,0.244,-0.354,0.916,17.027,1.592,16.205
36931520,0.137,-0.056,1.043,31.272,19.092,19.302
36931530,-0.085,0.037,1.05,26.845,30.555,26.775
36931540,-0.264,-0.039,1.024,17.605,29.715,24.972
36931550,-0.156,0.117,1.093,7.717,23.747,19.18
36931560,-0.122,0.036,1.114,-12.092,21.927,16.572
36931570,-0.201,0.057,1.145,-33.04,23.082,13.44
36931580,0.045,-0.011,1.248,-55.265,25.235,9.345
36931590,0.097,0.04,1.35,-82.705,40.197,11.445
36931600,0.31,-0.016,1.404,-127.435,50.382,27.72
36931610,-0.084,-0.13,1.242,-168.63,55.387,53.287
36931620,-0.028,-0.115,1.311,-216.37,41.142,80.902
36931630,-0.128,-0.145,1.314,-242.952,18.602,105.822
36931640,0.01,-0.374,1.328,-258.825,1.05,116.042
36931650,0.225,-0.967,1.402,-248.43,-1.382,121.922
36931660,0.398,-0.808,1.316,-193.357,-3.482,141.05
36931670,0.566,-0.226,0.81,-118.422,-24.57,158.392
36931680,1.195,0.114,0.871,-102.935,-68.337,150.57
36931690,1.174,0.454,0.762,-39.357,-79.327,149.047
36931700,0.979,0.233,0.161,23.555,-81.147,128.607
36931710,1.893,-0.284,0.537,42.892,-79.047,64.557
36931720,0.45,0.237,-0.082,96.075,-132.58,-179.305
36931730,-0.851,0.03,-0.053,143.675,-130.007,-233.922
36931740,-1.385,-0.102,-0.603,173.547,-133.087,-176.067
36931750,-1.165,-0.249,-1.134,185.15,-104.545,-90.09
36931760,-0.537,-0.521,-1.484,165.952,-77.175,-34.002
36931760,-0.307,-1.538,1.203,102.62,94.045,20.037
36931780,-1.002,-1.998,1.409,293.527,123.305,43.54
36931780,1.3,1.446,1.998,511.647,163.03,103.617
36931800,-1.588,1.997,0.483,271.687,279.807,16.8
36931800,0.158,-0.984,1.192,-19.915,24.43,8.12
36931820,-1.732,1.204,0.813,-27.457,-68.285,2.992
36931820,0.75,-0.994,1.077,-64.295,-148.855,-23.17
36931830,-0.179,-0.068,0.965,-44.205,-114.362,-15.61
36931840,0.456,-0.541,0.981,-41.44,-92.522,-7.735
36931850,0.27,-0.203,0.953,-25.48,-60.935,-3.395
36931860,0.207,-0.438,0.902,-14.035,-38.15,2.817
36931870,0.235,-0.211,0.97,0.997,-17.692,5.582
36931880,0.066,-0.143,0.971,9.1,-2.31,9.695
36931890,0.046,-0.185,0.979,13.562,7.315,10.255
36931900,-0.128,-0.06,1.001,16.905,14.402,11.76
36931910,-0.217,-0.089,0.995,13.195,12.967,10.885
36931920,-0.196,-0.076,0.995,8.487,6.86,5.25
36931930,-0.126,-0.135,0.984,3.71,1.837,-0.192
36931940,-0.089,-0.118,0.986,1.155,0.087,-4.375
36931950,-0.071,-0.096,1.006,-2.642,0.892,-5.582
36931960,-0.12,-0.051,1.023,-8.085,2.625,-5.39
36931970,-0.113,-0.099,1.029,-16.922,2.94,-6.02
36931980,-0.162,-0.098,1.051,-25.305,4.077,-7.7
36931990,-0.135,-0.087,1.095,-34.72,3.902,-10.5
36932000,-0.093,-0.039,1.185,-49.385,6.212,-13.335
36932010,-0.028,-0.079,1.219,-72.152,15.487,-14.052
