time[ms],accX[g],accY[g],accZ[g],Value 1,Value 2,Value 3
40596710,-0.111,-0.243,0.963,-4.077,-4.095,-1.645
40596710,-0.114,-0.208,0.96,-4.27,-4.567,-2.117
40596720,-0.123,-0.235,0.963,-5.88,-4.655,-1.435
40596730,-0.119,-0.238,0.962,-6.422,-5.6,-1.732
40596740,-0.119,-0.218,0.959,-6.947,-6.335,-2.152
40596750,-0.121,-0.251,0.965,-7.84,-6.895,-2.117
40596760,-0.112,-0.225,0.961,-8.137,-7.805,-3.412
40596770,-0.106,-0.236,0.965,-9.222,-7.945,-3.43
40596780,-0.115,-0.242,0.962,-10.08,-8.312,-3.815
40596790,-0.113,-0.249,0.96,-10.43,-8.855,-4.48
40596800,-0.097,-0.234,0.955,-10.762,-9.012,-5.18
40596810,-0.094,-0.26,0.956,-11.27,-7.98,-5.197
40596820,-0.068,-0.252,0.953,-11.077,-6.352,-6.3
40596830,-0.093,-0.258,0.94,-10.972,-3.08,-6.825
40596830,-0.057,-0.274,0.942,-10.622,1.767,-7.787
40596850,-0.136,-0.265,0.937,-10.15,7.56,-9.8
40596850,-0.163,-0.265,0.944,-9.537,4.497,-11.2
40596870,-0.084,-0.265,0.931,-7.857,1.435,-9.712
40596870,-0.067,-0.28,0.948,-7.14,1.627,-9.135
40596890,-0.087,-0.287,0.943,-6.387,1.347,-9.327
40596890,-0.079,-0.277,0.938,-5.285,0.56,-8.907
40596910,-0.075,-0.271,0.94,-5.092,0.507,-7.35
40596910,-0.093,-0.277,0.942,-4.882,0.087,-5.88
40596920,-0.094,-0.285,0.941,-4.095,-1.032,-4.287
40596930,-0.086,-0.271,0.941,-3.132,-2.03,-3.255
40596940,-0.097,-0.266,0.936,-3.027,-2.59,-1.872
40596950,-0.097,-0.281,0.939,-2.957,-3.255,-0.647
40596960,-0.093,-0.291,0.941,-2.152,-4.445,-0.367
40596970,-0.089,-0.275,0.942,-1.085,-5.582,-0.892
40596980,-0.101,-0.269,0.94,-0.997,-6.02,-0.98
40596990,-0.095,-0.247,0.938,-1.26,-6.177,-0.805
40597000,-0.091,-0.257,0.941,-2.03,-5.53,1.137
40597010,-0.105,-0.319,0.952,-2.362,-5.442,1.137
40597020,-0.111,-0.282,0.944,-0.595,-7.105,-1.767
40597030,-0.11,-0.276,0.941,0.21,-8.12,-2.345
40597040,-0.098,-0.28,0.943,0.227,-8.33,-3.22
40597050,-0.096,-0.27,0.942,0.665,-8.26,-3.377
40597060,-0.089,-0.236,0.934,0.402,-7.455,-3.08
40597070,-0.096,-0.29,0.949,-0.577,-5.687,-0.962
40597080,-0.125,-0.317,0.952,-0.14,-6.755,-3.535
40597090,-0.106,-0.277,0.945,1.925,-9.1,-6.335
40597100,-0.084,-0.269,0.949,2.1,-9.485,-6.545
40597110,-0.099,-0.276,0.946,1.295,-8.802,-7.752
40597120,-0.096,-0.23,0.942,1.015,-8.225,-7.945
40597130,-0.093,-0.251,0.943,-0.385,-7.017,-5.512
40597140,-0.088,-0.312,0.962,-1.557,-6.037,-4.917
40597150,-0.078,-0.313,0.956,0,-7.385,-8.382
40597160,-0.067,-0.264,0.948,1.242,-7.787,-10.517
40597170,-0.071,-0.225,0.946,-0.315,-6.51,-10.5
40597180,-0.083,-0.263,0.948,-2.52,-5.355,-7.857
40597190,-0.069,-0.315,0.961,-3.045,-5.372,-6.195
40597200,-0.045,-0.296,0.965,-1.697,-6.632,-8.68
40597210,-0.061,-0.263,0.948,-1.575,-6.895,-9.52
40597220,-0.062,-0.217,0.945,-3.465,-6.3,-8.89
40597230,-0.067,-0.268,0.951,-5.705,-5.407,-4.847
40597240,-0.072,-0.303,0.956,-6.947,-5.39,-2.94
40597250,-0.049,-0.285,0.951,-6.457,-6.422,-3.587
40597260,-0.014,-0.274,0.942,-6.037,-6.037,-3.657
40597260,-0.035,-0.283,0.94,-7.087,-3.762,-3.972
40597280,-0.043,-0.271,0.935,-7.612,-2.555,-4.252
40597280,-0.046,-0.276,0.91,-7.717,-2.537,-2.572
40597300,-0.005,-0.268,0.917,-7.717,-2.73,0
40597300,0.029,-0.266,0.901,-8.12,-1.277,2.625
40597320,0.025,-0.273,0.925,-9.362,0.962,4.917
40597320,0.05,-0.271,0.967,-11.182,4.777,5.407
40597330,-0.071,-0.312,0.925,-12.985,7.927,8.067
40597340,-0.084,-0.348,0.92,-12.232,7.752,10.255
40597350,-0.048,-0.34,0.929,-8.995,6.002,12.285
40597360,-0.044,-0.303,0.92,-6.772,6.212,12.372
40597370,-0.077,-0.301,0.927,-5.617,7.28,12.932
40597380,-0.1,-0.309,0.93,-4.392,7.525,13.37
40597390,-0.114,-0.314,0.925,-2.59,6.457,13.58
40597400,-0.112,-0.319,0.924,-1.05,5.495,13.527
40597410,-0.115,-0.316,0.927,0.262,5.092,13.895
40597420,-0.121,-0.322,0.931,1.137,4.707,14.157
40597430,-0.129,-0.328,0.932,2.275,4.095,14.315
40597440,-0.136,-0.36,0.96,3.902,3.5,14.56
40597450,-0.149,-0.401,0.988,7.612,2.415,12.897
40597460,-0.239,-0.369,1.015,12.915,0.682,12.897
40597470,-0.401,-0.41,0.991,16.082,-2.45,14.297
40597480,-0.424,-0.465,1.002,18.48,-13.527,7.402
40597490,-0.289,-0.508,1.034,24.167,-26.582,2.52
40597500,0.025,-0.517,1.159,38.395,-29.05,8.662
40597510,-0.165,-0.482,1.224,60.917,-10.727,29.855
40597520,0.081,-0.803,0.973,81.76,-5.687,55.965
40597530,-1.151,-0.122,0.559,82.617,14.122,112.402
40597540,-1.301,0.216,0.454,61.495,-8.26,112.49
40597550,-0.257,-0.502,0.743,18.952,-19.985,173.25
40597560,-0.355,-0.654,0.799,10.727,-18.095,216.212
40597570,-0.36,-0.417,0.746,7.28,-10.64,214.76
40597580,-0.242,-0.336,0.714,-2.87,-12.442,221.077
40597580,0.035,-0.401,0.939,-24.762,-11.112,209.93
40597600,-0.111,-0.519,1.067,-36.68,-9.327,187.722
40597600,-0.155,-0.449,1.095,-32.322,-15.015,166.005
40597620,-0.105,-0.315,1.063,-28.052,-19.897,147.542
40597620,-0.106,-0.281,1.04,-31.01,-15.767,130.76
40597640,-0.208,-0.333,1.024,-35.577,-7.665,113.627
40597640,-0.269,-0.301,0.981,-35.122,-4.707,97.72
40597660,-0.229,-0.362,0.994,-34.177,-2.012,86.117
40597660,-0.232,-0.139,0.936,-34.807,3.902,76.947
40597670,-0.31,-0.302,0.963,-30.345,8.68,76.72
40597680,-0.281,-0.256,0.927,-32.935,12.057,74.725
40597690,-0.241,-0.18,0.904,-29.347,12.442,79.275
40597700,-0.202,-0.239,0.924,-32.182,18.357,86.695
40597710,-0.225,-0.258,0.866,-31.377,21.14,97.335
40597720,-0.096,-0.2,0.83,-28.157,20.037,107.992
40597730,0.003,-0.228,0.803,-30.1,22.855,116.287
40597740,0.05,-0.276,0.775,-31.885,26.792,118.842
40597750,0.075,-0.273,0.732,-31.99,28.49,117.39
40597760,0.039,-0.269,0.623,-33.617,25.987,114.065
40597770,0.035,-0.208,0.486,-40.32,18.042,108.465
40597780,0.058,-0.161,0.432,-54.145,12.442,107.047
40597790,0.044,-0.283,0.379,-75.635,16.24,109.777
40597800,-0.026,-0.265,0.158,-89.705,17.902,114.975
40597810,0.461,-0.068,0.012,-102.462,22.487,122.587
40597820,1.2,-0.085,1.038,-123.707,36.137,134.802
40597830,-0.76,-0.306,1.998,-160.702,-71.872,89.775
40597840,1.366,-1.971,1.318,-51.607,-237.632,25.322
40597850,-0.262,0.315,0.552,152.617,-113.19,115.29
40597860,-1.001,-0.009,0.988,99.312,-48.527,72.975
40597870,-0.713,-1.163,1.057,95.077,-44.66,45.815
40597880,-0.821,0.356,0.859,146.72,-71.225,7.822
40597890,-0.52,-0.073,1.151,133.77,-100.117,-18.13
40597900,0.215,-0.339,1.425,117.775,-105.577,-28.017
40597910,0.407,0.217,1.28,101.465,-89.617,-24.5
40597920,0.318,0.001,1.246,62.825,-50.032,-4.725
40597930,-0.009,0.113,1.166,34.912,-21.875,3.29
40597940,-0.07,-0.038,1.088,10.465,-6.86,-0.647
40597950,-0.008,-0.098,1.002,-3.885,2.047,-5.127
40597960,-0.111,-0.236,0.958,-9.712,10.482,-4.847
40597970,-0.275,-0.224,0.916,-7.437,11.69,-3.237
40597980,-0.304,-0.269,0.917,-3.115,5.722,-5.022
40597990,-0.255,-0.235,0.941,1.855,-2.677,-8.102
40598000,-0.189,-0.205,0.966,3.727,-8.155,-9.432
40598010,-0.121,-0.184,0.995,2.712,-9.397,-8.785
40598010,-0.147,-0.142,1.002,-0.77,-7.98,-5.915
40598030,-0.17,-0.153,1.013,-6.212,-7.21,-4.427
40598030,-0.139,-0.132,1.028,-12.477,-7.507,-3.482
40598050,-0.116,-0.109,1.067,-21.472,-5.792,-2.502
40598050,-0.125,-0.098,1.102,-33.897,-3.5,-1.942
40598070,-0.115,-0.102,1.155,-48.702,-0.962,-2.257
40598070,-0.122,-0.044,1.227,-65.205,2.152,-4.427
40598080,-0.196,-0.028,1.272,-83.912,5.355,-9.555
40598090,-0.167,-0.066,1.193,-95.165,2.905,-22.505
40598100,0.095,-0.226,1.246,-117.302,16.642,-19.67
40598110,0.257,-0.102,1.158,-132.387,43.47,-17.482
40598120,0.05,-0.277,1.117,-153.352,72.555,-15.085
40598130,-0.006,-0.368,1.136,-166.512,85.155,-21.647
40598140,-0.038,-0.41,0.724,-162.767,86.38,-29.47
40598150,0.036,-0.557,0.888,-145.792,92.977,-26.25
40598160,-0.291,-0.648,0.755,-134.19,88.637,-28.262
40598170,-0.618,-0.515,0.737,-112.245,67.637,-33.81
40598180,-0.641,-0.38,0.734,-77.472,41.772,-34.86
40598190,-0.081,-0.557,0.713,-18.655,-8.435,-45.622
40598200,1.982,-0.489,1.202,125.72,-95.812,-112.035
40598210,0.556,1.661,0.139,218.575,-80.412,-248.902
40598220,-1.768,1.541,-0.539,27.44,65.1,-446.722
40598230,-1.998,-0.107,-0.691,-24.342,112.122,-271.88
40598240,-0.355,-0.773,0.122,124.32,45.167,80.045
40598250,0.416,-1.998,-0.553,200.357,49.7,381.08
40598260,-1.441,-1.766,1.047,168.367,-38.36,99.102
40598270,1.023,1.842,-0.025,355.407,-112.542,-93.205
40598280,-1.141,1.052,0.955,276.377,17.815,63.822
40598290,-1.859,-1.791,1.998,194.197,-40.81,102.97
40598300,0.948,1.782,1.828,228.322,-202.09,-44.73
40598310,1.582,0.569,1.504,59.535,-103.88,-46.427
40598320,0.483,0.403,1.089,-3.99,-0.857,-5.092
40598330,-0.007,-0.484,1.022,-34.597,48.16,0.28
40598330,0.003,-0.016,1.068,-31.447,56.595,-4.742
40598350,-0.447,0.003,0.965,-41.685,63.647,-0.035
40598350,-0.68,-0.461,0.779,-45.692,49.91,-4.41
40598370,-0.543,-0.499,0.783,-26.267,19.337,-11.112
40598370,-0.298,-0.357,0.842,-4.847,-4.27,-16.345
40598390,-0.293,-0.29,0.911,6.982,-15.662,-13.72
40598390,-0.306,-0.185,0.941,13.737,-24.972,-13.265
40598410,-0.213,-0.205,0.969,13.965,-31.5,-14.752
40598410,-0.065,-0.148,0.993,13.527,-33.53,-15.33
40598420,-0.078,-0.121,1.005,10.132,-28.945,-12.162
40598430,-0.073,-0.089,1.039,4.27,-23.135,-8.155
40598440,-0.127,-0.097,1.003,-4.637,-17.395,-5.757
40598450,-0.163,-0.156,1.006,-11.112,-14.892,-5.337
40598460,-0.095,-0.133,1.018,-15.907,-14.42,-4.97
40598470,-0.078,-0.138,1.034,-22.977,-10.675,-3.85
40598480,-0.042,-0.102,1.072,-31.167,-4.532,-1.592
40598490,-0.063,-0.124,1.11,-42.297,2.415,0.385
40598500,0.007,-0.089,1.202,-54.162,9.607,2.415
40598510,-0.046,0,1.318,-71.312,19.092,2.327
40598520,-0.132,-0.021,1.283,-90.72,24.727,-3.657
40598530,0,-0.157,1.371,-122.587,35.07,-1.68
40598540,0.138,-0.045,1.322,-147.437,47.407,-2.59
40598550,0.226,0.003,1.361,-175.262,80.167,-0.927
40598560,0.245,-0.204,1.216,-207.147,108.517,0.035
40598570,0.207,-0.422,1.225,-221.357,127.82,11.427
40598580,0.433,-0.511,1.279,-225.207,146.597,13.002
40598590,0.001,-0.585,0.917,-205.782,181.195,28.402
40598600,0.095,-0.604,1.094,-179.567,161.087,35.577
40598610,-0.448,-0.978,0.984,-143.482,111.16,61.075
40598620,0.06,-0.902,1.617,-76.125,-2.922,51.8
40598630,1.998,-0.632,1.535,76.597,-121.397,17.64
40598640,1.349,1.153,1.13,188.422,-175.542,-66.482
40598650,-0.172,1.386,0.588,150.657,-123.305,-215.057
40598660,-1.118,0.694,0.376,143.885,-100.905,-178.22
40598670,-1.253,0.695,-0.009,214.76,-148.995,-46.287
40598680,-0.808,0.601,-1.121,272.965,-198.87,99.575
40598690,0.222,0.826,-1.155,172.077,-152.215,197.207
40598700,-0.167,-0.801,-0.848,57.242,-63.367,273.157
40598710,-0.841,-1.807,-1.031,-9.712,-64.645,267.4
40598720,0.536,-1.883,-0.67,-23.59,-93.502,218.96
40598730,1.039,-1.988,1.274,-35.35,10.64,236.425
40598730,-1.997,-1.996,-1.435,84.857,35.385,378.42
40598750,0.446,1.277,1.872,472.622,-182.577,297.517
40598750,-1.093,1.316,1.354,281.225,-280.28,32.287
40598760,1.938,0.444,1.757,47.355,-189.507,-41.387
40598770,0.243,1.202,0.571,-22.05,-58.467,-33.705
40598780,0.198,-1.461,1.259,-77.175,36.68,30.327
40598790,-0.464,0.267,0.853,-26.46,19.337,8.102
40598800,-0.459,-0.746,0.928,-31.622,11.672,-0.717
40598810,-0.071,-0.191,0.963,-8.47,-9.52,-16.87
40598820,-0.081,-0.411,0.969,-2.362,-12.617,-5.932
40598830,-0.055,-0.205,1.016,5.565,-12.617,-0.35
40598840,-0.217,0.035,1.029,6.37,-11.725,0
40598850,-0.151,-0.104,1.002,-6.947,-13.055,-3.955
40598860,-0.143,-0.099,0.944,-12.95,-15.977,-11.585
40598870,-0.07,-0.307,0.917,-12.477,-18.462,-13.055
40598880,0.148,-0.241,0.993,-3.85,-17.517,-10.097
40598890,-0.001,-0.09,1.001,-1.662,-8.837,-4.13
40598900,-0.12,-0.193,0.976,-6.177,-3.43,-1.592
40598910,-0.015,-0.17,0.994,-5.582,-3.727,-3.85
40598920,0.109,-0.123,1.017,-7.612,0.962,-5.232
40598930,0.055,-0.174,1.003,-12.355,10.937,-3.605
40598940,-0.066,-0.167,0.991,-14.175,17.937,-1.032
40598950,-0.187,-0.172,0.955,-15.26,19.005,-1.365
40598960,-0.216,-0.286,0.926,-13.72,14.175,-3.692
40598970,-0.07,-0.216,0.971,-8.417,8.295,-4.62
40598980,-0.09,-0.179,0.984,-7.647,8.032,-2.17
40598990,-0.136,-0.143,1.002,-9.345,8.12,0.262
40599000,-0.102,-0.15,1.029,-13.86,6.93,-0.472
40599010,-0.102,-0.131,1.048,-20.177,6.16,-2.205
40599020,-0.124,-0.134,1.067,-28.875,5.372,-3.15
40599030,-0.171,-0.136,1.134,-39.445,3.64,-4.987
40599040,-0.176,-0.044,1.238,-54.232,0.98,-9.52
40599050,-0.234,-0.033,1.305,-76.457,-0.42,-14.735
40599060,-0.398,-0.098,1.248,-96.932,-5.6,-16.397
40599070,-0.313,-0.161,1.22,-112.157,-16.817,-18.165
40599080,-0.071,-0.188,1.229,-128.677,11.2,-32.462
40599080,-0.26,-0.319,1.193,-161.77,33.145,-57.68
40599100,0.06,-0.622,1.392,-186.777,61.722,-80.272
40599100,0.355,-0.829,1.719,-188.86,118.457,-95.76
40599120,-0.841,-1.707,1.66,-167.422,162.855,-86.24
40599120,-1.927,-1.998,0.821,-83.685,118.772,-3.762
40599140,-1.135,-0.987,-0.67,16.94,-72.817,-32.445
40599140,1.935,1.269,0.504,53.987,-66.307,-32.777
40599160,0.621,0.716,0.366,-51.782,67.147,4.13
40599160,-0.663,0.301,-0.045,-98.525,113.575,-92.68
40599170,0.066,0.816,0.116,-41.807,115.605,-113.802
40599180,0.045,1.112,-0.202,-6.335,151.357,-71.627
40599190,-0.48,0.935,-0.478,-17.71,202.825,-3.745
40599200,-0.416,0.233,-0.586,-46.357,236.88,86.467
40599210,0.095,-0.425,-0.763,-56.402,259.647,172.182
40599220,0.801,0.177,-0.761,-57.347,287.402,183.575
40599230,0.664,1.388,-0.292,-79.59,310.065,157.937
40599240,-0.481,1.103,0.009,-139.072,237.51,111.912
40599250,-1.772,-1.446,1.801,-154.805,-28.7,65.135
40599260,-1.239,-1.998,-1.273,120.365,-452.882,117.092
40599270,-1.25,0.497,1.129,339.64,-533.82,-15.225
40599280,1.8,1.997,0.357,473.077,-440.632,75.215
40599290,-0.276,-0.061,1.378,318.325,-238.087,101.185
40599300,-0.765,-1.472,1.749,256.952,-264.18,27.527
40599310,1.973,1.962,1.998,334.88,-353.062,-24.902
40599320,1.32,1.488,1.546,65.205,-128.012,-7.665
40599330,1.156,-0.151,1.391,-70.367,26.022,10.85
40599340,-0.117,-0.348,0.89,-86.747,80.885,12.95
40599350,-0.355,-0.541,0.895,-76.79,88.76,2.205
40599360,-0.321,-0.374,0.985,-60.777,80.325,-0.437
40599370,-0.662,-0.169,0.977,-59.045,67.375,-4.41
40599380,-0.245,-0.193,1.04,-63.56,48.912,-19.757
40599390,-0.157,-0.429,0.525,-62.177,41.09,-22.96
40599400,-1.465,-0.729,0.107,-24.902,18.007,-20.44
40599410,-0.511,-0.948,0.614,26.74,-32.2,-17.027
40599420,-0.251,0.003,0.954,73.15,-73.797,-23.572
40599420,0.19,-0.165,1.256,65.187,-71.89,-16.975
40599440,0.257,0.112,1.167,46.287,-56,-9.677
40599440,-0.013,-0.198,1.081,20.755,-31.132,-1.627
40599460,0.04,-0.006,1.14,9.345,-19.827,-0.752
40599460,0.1,-0.013,1.159,-10.167,-7,-1.207
40599480,-0.033,-0.061,1.094,-32.042,6.772,-0.385
40599480,-0.253,-0.247,0.885,-45.482,13.02,-0.262
40599500,-0.415,-0.473,0.742,-38.815,6.02,-0.315
40599500,-0.316,-0.385,0.829,-17.325,-9.327,-1.032
40599510,-0.216,-0.24,0.895,-3.99,-20.282,-0.875
40599520,-0.201,-0.268,0.891,0.525,-25.025,2.047
40599530,-0.161,-0.263,0.938,5.285,-28.297,5.04
40599540,-0.106,-0.21,1.04,6.807,-29.942,6.877
40599550,-0.051,-0.14,1.096,0.717,-28.665,7.892
40599560,-0.039,-0.123,1.135,-12.11,-24.325,6.772
40599570,0.031,-0.053,1.175,-29.697,-16.485,5.075
40599580,-0.009,-0.124,1.206,-49.647,-4.987,5.67
40599590,-0.037,-0.064,1.282,-66.867,4.602,5.757
40599600,-0.039,-0.04,1.294,-86.38,7.63,7.227
40599610,0.048,-0.046,1.294,-107.31,17.78,7.927
40599620,-0.203,-0.146,1.233,-140.98,29.452,-0.875
40599630,0.116,-0.165,1.321,-163.362,41.002,-18.042
40599640,0.219,-0.079,1.36,-181.055,61.512,-23.292
40599650,0.197,-0.314,1.537,-187.897,82.267,-20.107
40599660,0.287,-0.9,1.5,-157.867,136.482,-18.2
40599670,-0.823,-0.633,0.88,-105.28,115.36,-10.692
40599680,0.054,-0.035,0.672,-50.575,98.927,-27.685
40599690,0.228,-0.114,0.972,-23.905,121.17,-30.292
40599700,0.688,-0.425,1.164,34.895,109.987,-77
40599710,-0.063,0.509,1.122,129.552,37.625,-168.857
40599720,-0.678,0.676,0.05,170.205,23.642,-232.102
40599730,-0.844,1.246,-0.404,187.39,17.412,-176.855
40599740,-0.352,0.934,-0.526,171.325,59.71,-71.54
40599750,-0.294,0.318,-0.775,139.195,83.387,26.617
40599760,-0.002,-0.241,-0.579,95.375,101.762,63.087
40599770,-0.198,-0.965,-0.721,45.342,110.565,66.01
40599780,0.173,-1.255,-0.74,17.937,92.977,36.662
40599790,0.201,-1.746,0.002,5.25,90.615,20.86
40599800,-1.982,-1.998,0.698,-51.135,-49.262,-51.467
40599810,-1.542,-1.785,0.619,182.157,-247.537,18.812
40599820,1.821,1.727,0.996,525.052,-367.29,4.41
40599830,-1.487,0.288,1.519,289.992,-298.375,21.07
40599830,1.811,-0.711,1.756,61.337,-182.455,0.7
40599850,1.502,1.803,0.617,75.407,-138.845,-40.897
40599850,0.074,-1.746,1.299,-102.13,34.475,42.525
40599870,-0.118,0.156,0.837,-31.675,10.395,3.412
40599870,0.075,-0.293,1.001,-32.9,21.35,-1.942
40599890,-0.508,-0.491,0.872,-26.582,20.02,-5.81
40599890,-0.381,-0.242,0.928,-10.465,3.465,-15.032
40599910,0.027,-0.091,1.02,-9.187,-5.897,-23.345
40599910,-0.033,-0.17,0.949,-15.505,-0.332,-20.422
40599920,-0.363,-0.318,0.903,-14.945,0.787,-12.617
40599930,-0.337,-0.245,0.928,-6.335,-12.162,-15.242
40599940,-0.017,-0.134,1.012,-3.78,-22.505,-21.332
40599950,0.084,-0.182,0.972,-7.42,-19.197,-20.51
40599960,-0.013,-0.251,0.968,-8.592,-10.01,-13.072
40599970,-0.058,-0.176,0.99,-6.422,-5.04,-9.152
40599980,-0.195,-0.224,0.974,-7.752,-4.06,-8.732
40599990,-0.092,-0.199,1,-7.595,-8.207,-13.405
40600000,-0.005,-0.136,1.01,-10.045,-8.715,-15.802
40600010,-0.069,-0.212,0.998,-15.54,-4.41,-15.015
40600020,-0.127,-0.191,0.99,-16.852,-3.535,-13.79
40600030,-0.209,-0.206,0.985,-18.392,-6.002,-15.05
40600040,-0.191,-0.205,0.997,-18.777,-11.602,-19.495
40600050,-0.195,-0.174,1.014,-19.075,-16.572,-25.2
40600060,-0.249,-0.192,1.084,-23.17,-18.287,-30.065
40600070,-0.503,-0.126,1.149,-30.555,-22.155,-40.337
40600080,-0.248,-0.061,1.242,-44.03,-17.675,-58.782
40600090,-0.722,-0.097,1.233,-69.685,14.105,-85.12
40600100,-0.436,-0.287,1.262,-95.9,46.112,-119.7
40600110,-0.316,-0.345,1.266,-118.65,85.89,-155.925
40600120,-0.249,-0.391,1.215,-136.797,130.322,-186.865
40600130,-0.541,-0.877,1.156,-145.197,191.747,-207.987
40600140,-1.305,-1.727,0.837,-142.1,236.39,-210.997
40600150,-1.506,-1.998,1.151,-130.06,240.03,-202.737
40600160,-1.656,-1.98,0.551,-76.702,167.667,-184.695
40600170,-1.998,-1.82,0.948,-94.937,103.337,-94.237
40600170,-1.532,-0.461,0.173,-52.552,25.41,50.942
40600190,0.948,1.323,0.138,11.48,-8.802,137.392
40600190,1.959,1.995,-0.107,46.375,43.855,188.055
40600210,1.332,1.997,-0.884,50.732,80.237,192.29
40600210,1.405,1.88,-0.488,0.892,116.812,157.517
40600230,0.769,0.46,-0.518,-54.827,150.885,184.362
40600230,0.086,-0.316,-0.963,-54.302,121.45,235.095
40600250,1.064,-0.516,-0.646,-54.932,103.635,286.737
40600250,-1.471,-1.64,1.573,-114.467,1.05,282.677
40600260,1.539,-1.998,1.18,7.787,-386.995,178.5
40600270,-0.494,0.145,0.812,330.522,-364.805,150.675
40600280,0.169,1.986,1.129,407.82,-297.832,203.857
40600290,-1.676,-0.577,1.695,199.622,-292.407,96.845
40600300,1.706,0.414,1.998,123.567,-299.67,-73.115
40600310,1.046,1.319,1.274,37.135,-125.982,-18.882
40600320,0.18,-1.231,1.194,-79.24,28.157,25.41
40600330,-0.561,-0.059,0.768,-38.85,27.195,9.292
40600340,-0.218,-0.537,0.927,-35.21,21.84,-2.467
40600350,-0.525,-0.271,0.864,-21.122,9.38,-14.192
40600360,-0.354,-0.233,0.907,-15.855,-4.725,-21.052
40600370,-0.168,-0.322,0.901,-12.285,-14,-22.697
40600380,-0.174,-0.288,0.908,-5.285,-16.397,-15.82
40600390,-0.257,-0.286,0.909,1.767,-18.935,-9.257
40600400,-0.293,-0.172,0.948,6.37,-24.097,-7.805
40600410,-0.096,-0.202,0.974,6.02,-28.192,-11.41
40600420,-0.008,-0.229,0.988,5.425,-25.252,-9.187
40600430,0.007,-0.156,1.007,4.532,-18.077,-5.757
40600440,-0.064,-0.166,0.992,0.455,-9.45,-2.17
40600450,-0.14,-0.19,0.974,-2.957,-4.287,-0.945
40600460,-0.154,-0.205,0.963,-4.34,-3.167,-2.38
40600470,-0.106,-0.223,0.961,-4.2,-2.817,-3.57
40600480,-0.166,-0.213,0.943,-3.097,-1.837,-1.75
40600490,-0.236,-0.274,0.92,-0.84,-3.36,-0.42
40600500,-0.198,-0.255,0.939,4.06,-7.805,-0.665
40600510,-0.198,-0.207,0.963,6.807,-11.357,0.245
40600520,-0.13,-0.184,0.991,6.335,-13.772,0.735
40600530,-0.072,-0.14,1.031,2.94,-12.53,2.345
40600540,-0.081,-0.13,1.046,-4.077,-9.047,4.41
40600550,-0.062,-0.117,1.067,-12.985,-5.705,6.072
40600560,-0.001,-0.108,1.146,-24.902,0.122,7.91
40600570,-0.049,-0.03,1.265,-42.525,9.152,9.082
40600580,-0.076,-0.023,1.452,-69.09,21.77,5.267
40600580,-0.094,-0.019,1.438,-101.622,40.425,-3.482
40600600,-0.155,-0.218,1.376,-130.672,64.645,-8.89
40600600,0.006,-0.172,1.374,-149.345,83.212,-25.322
40600620,0.448,-0.389,1.29,-167.212,110.302,-35.315
40600620,0.632,-0.832,1.499,-166.757,170.432,-35.402
40600640,0.033,-0.867,1.193,-147.77,192.587,-49.192
40600640,0.197,-1.735,0.43,-113.802,190.155,-45.045
40600660,-0.353,-1.998,0.751,-83.685,156.345,-4.865
40600660,-0.474,-1.785,0.102,39.865,-57.522,-138.005
40600670,0.384,0.215,-0.184,49.367,-125.632,-264.32
40600680,-0.746,0.237,0.059,-38.167,-42.07,-201.687
40600690,-1.208,-0.04,-0.06,-55.545,-18.532,-124.355
40600700,0.049,0.796,-0.14,-4.217,-43.312,-67.427
40600710,0.845,1.081,-0.34,13.947,-42.997,-10.797
40600720,0.938,0.647,-0.3,-10.57,-25.2,13.86
40600730,0.845,0.245,-0.24,-15.942,-19.722,-3.885
40600740,0.719,0.68,-0.466,3.342,-45.325,-49.42
40600750,0.6,1.182,-0.634,3.325,-53.742,-79.135
40600760,0.116,0.926,-0.581,-35.7,-33.845,-72.782
40600770,0.165,-0.536,1.712,-56.49,87.552,3.692
40600780,-1.998,-1.998,-1.116,176.557,11.042,377.405
40600790,1.305,-1.467,0.901,497.105,-237.702,369.162
40600800,-0.368,1.814,0.867,416.412,-74.83,189.7
40600810,-1.546,0.156,1.915,300.842,-112.49,106.89
40600820,1.15,0.612,1.971,203.28,-245.297,-48.422
40600830,1.758,1.611,1.437,70.49,-140,-48.335
40600840,0.275,-0.82,1.105,-54.145,13.282,33.005
40600850,-0.277,-0.121,0.922,-37.975,42.63,26.512
40600860,-0.436,-0.537,0.84,-37.625,37.975,2.66
40600870,-0.252,-0.398,0.896,-14.735,20.37,-12.267
40600880,-0.15,-0.211,0.997,-6.842,14.787,-16.327
40600890,0,-0.062,1.029,-9.45,15.137,-19.285
40600900,-0.158,-0.29,0.928,-16.012,20.947,-16.765
40600910,-0.234,-0.315,0.92,-10.185,18.882,-16.922
40600920,-0.298,-0.168,0.941,-3.36,11.585,-16.992
40600920,-0.164,-0.123,0.99,-3.447,5.267,-19.32
40600940,-0.173,-0.145,0.998,-6.842,3.01,-20.947
40600940,-0.069,-0.048,1.007,-10.85,3.675,-25.095
40600960,-0.154,-0.321,0.88,-15.68,7.192,-24.657
40600960,-0.132,-0.414,0.882,-7.07,5.32,-18.97
40600980,-0.179,-0.271,0.911,3.185,2.905,-10.377
40600980,-0.277,-0.275,0.94,8.487,-1.295,-6.825
40601000,-0.108,-0.199,0.977,11.917,-7.525,-9.852
40601000,-0.182,-0.254,0.95,11.252,-8.487,-6.72
40601010,-0.195,-0.215,0.947,13.055,-11.287,-4.112
40601020,-0.211,-0.234,0.954,14.227,-14.665,-3.325
40601030,-0.192,-0.166,0.973,14.945,-19.075,-1.557
40601040,-0.187,-0.165,0.988,12.635,-22.662,0.962
40601050,-0.116,-0.116,1.009,8.837,-24.552,3.325
40601060,-0.113,-0.118,1.029,1.872,-23.73,7.21
40601070,-0.082,-0.125,1.059,-6.667,-21.35,10.43
40601080,0.026,-0.138,1.123,-17.657,-14.91,11.34
40601090,0.155,-0.206,1.232,-32.427,4.042,9.625
40601100,0.269,-0.217,1.363,-47.442,31.885,6.947
40601110,0.559,-0.304,1.444,-59.587,80.237,3.045
40601120,0.423,-0.518,1.61,-69.317,140.542,-4.515
40601130,0.724,-0.989,1.495,-67.707,209.247,-16.135
40601140,0.049,-1.641,1.01,-47.092,253.977,26.442
40601150,-0.699,-1.998,0.911,-35.875,255.097,50.085
40601160,-1.189,-1.998,-0.115,-13.422,172.917,52.115
40601170,-1.385,-1.998,0.21,-30.485,25.007,-7.052
40601180,0.885,-1.998,0.54,-4.55,-103.197,-104.58
40601190,0.777,-1.249,0.626,-8.487,-134.977,-147.035
40601200,-0.718,-0.747,0.258,-76.282,-124.355,-162.872
40601210,-1.039,-0.28,0.019,-87.955,-158.952,-122.377
40601220,-0.395,0.691,-0.324,-77.227,-199.972,-38.535
40601230,0.15,1.435,-0.658,-91.087,-194.477,44.555
40601240,0.202,1.876,-1.053,-98.997,-167.23,118.755
40601250,-0.195,1.997,-1.609,-102.935,-162.05,166.635
40601260,0.023,1.997,-1.386,-112.245,-144.952,171.745
40601270,-0.862,1.514,0.497,-108.64,-78.785,184.17
40601280,1.079,-0.789,0.151,280.245,34.195,280.192
40601290,-1.557,-0.653,1.044,550.672,-136.692,413.14
40601300,-1.296,-0.161,1.316,441.665,-223.265,123.042
40601310,1.998,1.997,0.919,322.087,-338.362,52.675
40601320,-0.438,-0.885,0.532,-170.047,8.697,80.22
40601330,1.255,-1.152,1.143,-125.055,85.697,34.737
40601330,-0.753,0.881,0.823,-16.065,85.75,13.002
40601350,-0.672,-0.967,0.951,-45.955,83.282,4.865
40601350,-0.018,-0.014,0.964,-7.525,46.077,-25.34
40601370,-0.008,-0.505,0.932,-16.205,50.557,-12.005
40601370,-0.338,-0.103,0.963,-2.572,49.805,-4.357
40601380,-0.514,-0.15,0.93,-2.677,38.185,-0.997
40601390,-0.494,-0.276,0.905,-1.137,16.275,-3.43
40601400,-0.081,-0.226,0.954,8.75,-2.835,-5.6
40601410,-0.021,0.017,1.031,11.76,-4.847,0.227
40601420,-0.068,-0.098,0.981,2.712,0.752,5.092
40601430,-0.098,-0.253,0.964,-1.015,4.007,7.647
40601440,-0.047,-0.07,0.985,1.977,5.092,7.192
40601450,-0.096,-0.184,0.966,-2.082,9.1,8.4
40601460,-0.157,-0.16,0.958,-1.925,10.185,7.315
40601470,-0.22,-0.178,0.957,-1.89,7.77,6.055
40601480,-0.305,-0.213,0.927,-0.385,1.207,5.302
40601490,-0.292,-0.238,0.939,3.64,-9.012,2.31
40601500,-0.083,-0.139,0.99,7.262,-16.782,-1.61
40601510,0.03,-0.156,0.996,5.11,-14.542,-1.697
40601520,-0.013,-0.104,1,3.307,-7.577,0.77
40601530,-0.029,-0.099,1,-1.697,-0.77,2.03
40601540,-0.009,-0.146,1.006,-6.702,5.337,2.187
40601550,-0.013,-0.115,1.009,-9.712,12.145,3.885
40601560,-0.058,-0.113,1.025,-13.86,18.462,6.317
40601570,-0.101,-0.114,1.036,-18.9,22.575,8.61
40601580,-0.114,-0.135,1.065,-25.357,26.022,13.002
40601590,-0.129,-0.116,1.132,-34.055,30.065,15.225
40601600,-0.11,-0.091,1.238,-48.86,38.115,15.12
40601610,-0.115,-0.013,1.395,-72.082,50.417,8.487
40601620,-0.061,0.079,1.484,-111.352,62.352,-2.992
40601630,-0.105,0.047,1.296,-154.56,70.717,-14.367
40601640,0.125,-0.259,1.402,-178.447,69.982,-22.487
40601650,0.224,-0.495,1.36,-177.537,94.692,-26.827
40601660,0.181,-0.657,1.207,-176.89,124.74,-34.965
40601670,0.135,-0.839,0.943,-169.54,146.055,-35.455
40601670,-0.474,-1.18,0.864,-143.867,139.632,-14.91
40601690,-0.799,-1.893,0.711,-117.512,77.07,-14.682
40601690,0.336,-1.961,1.17,-36.942,-33.057,-42.28
40601710,0.906,-0.3,0.606,59.797,-114.135,-116.515
40601710,-0.291,1.416,0.315,49.332,-79.03,-192.36
40601730,-1.198,1.229,0.271,-2.502,-11.042,-202.597
40601730,-1.263,1.339,-0.037,26.232,-6.51,-134.505
40601750,-0.461,1.908,-0.116,79.957,-0.402,-57.697
40601750,-0.175,1.659,-0.731,93.87,21.315,24.447
40601760,0.148,0.909,-0.763,69.737,59.395,70.122
40601770,0.056,-0.308,-0.662,30.747,104.3,70.455
40601780,-0.476,-0.978,-0.997,18.235,107.992,23.992
40601790,-1.272,-1.567,0.561,1.662,80.622,-31.937
40601800,-1.998,-1.998,0.5,34.895,-29.067,-10.867
40601810,-1.407,-1.171,0.139,363.037,-237.037,33.617
40601820,1.467,1.994,1.182,538.947,-312.287,-82.127
40601830,-0.544,0.467,1.92,323.89,-245.052,36.715
40601840,1.372,-0.268,1.516,88.095,-171.36,-18.69
40601850,1.351,1.52,0.635,47.792,-98.98,-24.78
40601860,0.703,-1.882,1.367,-132.667,74.095,48.65
40601870,-0.251,0.195,0.78,-37.817,54.67,21.42
40601880,-0.381,-0.398,0.913,-38.535,63.07,16.467
40601890,-0.782,-0.603,0.849,-26.67,44.66,7.752
40601900,-0.185,-0.176,0.983,-7.157,16.205,-9.835
40601910,-0.061,-0.158,0.976,-10.692,11.06,-10.36
40601920,-0.111,-0.267,0.954,-11.672,14.42,-5.652
40601930,-0.408,-0.212,0.903,-8.155,12.302,-2.065
40601940,-0.431,-0.186,0.926,-3.535,-1.732,-7.752
40601950,-0.104,-0.152,0.987,-2.065,-15.015,-16.432
40601960,0.045,-0.173,0.997,-4.41,-14.647,-16.66
40601970,0.021,-0.163,0.979,-6.615,-6.16,-12.32
40601980,-0.043,-0.218,0.991,-7.367,2.485,-7.472
40601990,-0.146,-0.155,0.988,-7.035,6.282,-4.2
40602000,-0.19,-0.163,0.988,-9.205,5.46,-4.742
40602010,-0.133,-0.178,0.984,-11.042,2.45,-7.07
40602020,-0.068,-0.233,0.97,-12.88,2.415,-6.982
40602030,-0.165,-0.218,0.95,-12.687,4.305,-3.202
40602030,-0.275,-0.25,0.944,-11.532,1.61,-1.19
40602050,-0.248,-0.22,0.955,-9.817,-6.265,-2.45
40602050,-0.2,-0.227,0.982,-9.852,-13.247,-2.415
40602070,-0.207,-0.127,1.07,-12.757,-18.217,-0.84
40602070,-0.228,-0.045,1.144,-24.307,-23.45,-1.645
40602080,-0.181,-0.06,1.245,-44.747,-27.772,-6.405
40602090,-0.131,0,1.387,-70.42,-31.027,-13.475
40602100,-0.174,-0.012,1.306,-102.655,-31.185,-17.937
40602110,-0.098,-0.071,1.365,-125.562,-23.047,-17.062
40602120,-0.02,-0.027,1.321,-145.652,-4.095,-30.765
40602130,0.012,-0.049,1.289,-182.805,14.21,-40.092
40602140,0.117,-0.089,1.305,-224.857,46.707,-46.585
40602150,-0.101,-0.204,1.283,-255.08,66.815,-50.802
40602160,0.125,-0.489,1.19,-253.837,75.022,-68.302
40602170,0.033,-0.898,1.272,-222.722,107.24,-46.585
40602180,-0.028,-1.105,1.107,-177.397,112.595,-33.635
40602190,-0.36,-0.861,0.873,-109.515,129.342,-28.787
40602200,-0.574,-0.936,0.86,-63.98,93.607,-44.362
40602210,-0.439,-1.071,1.022,-5.302,56.595,-64.347
40602220,-0.429,0.337,0.166,74.602,5.915,-77.595
40602230,-0.073,1.526,0.105,101.01,12.862,-61.285
40602240,-0.228,1.074,-0.008,77.752,87.727,6.58
40602250,-0.208,0.74,-0.439,87.465,116.9,55.37
40602260,0.358,0.779,-0.465,113.33,141.312,101.325
40602270,0.473,0.229,-0.388,92.767,186.515,112.175
40602280,0.339,-0.711,-0.612,77.49,209.317,75.425
40602290,0.324,-0.984,-0.712,78.102,216.247,35.28
40602300,0.027,-0.966,-0.997,58.695,206.762,13.86
40602310,-0.821,-1.27,-0.105,-1.977,182.28,10.027
40602320,-1.998,-1.998,0.572,-93.905,-41.44,-18.917
40602330,-1.94,-1.86,0.331,176.837,-392.07,70.07
40602340,1.424,1.595,0.389,467.652,-421.382,26.337
40602350,0.928,1.995,1.199,473.62,-319.515,83.37
40602360,-1.873,-1.217,1.553,133.49,-167.947,42.805
40602370,1,-0.366,1.998,240.537,-376.582,-58.415
40602380,1.978,1.997,1.686,190.207,-270.532,-59.01
40602390,0.263,-0.418,1.131,-55.3,-12.04,22.557
40602400,0.416,-0.388,1.108,-68.897,50.575,24.395
40602410,-0.093,-0.113,0.905,-57.33,62.125,5.967
40602420,-0.54,-0.723,0.788,-51.345,61.022,8.662
40602420,-0.49,-0.453,0.849,-22.452,39.847,4.217
40602440,-0.545,-0.246,0.902,-8.96,17.797,-0.525
40602440,-0.169,-0.254,0.925,-4.777,-0.577,-10.78
40602460,-0.079,-0.227,0.922,-0.227,-4.83,-10.552
40602460,-0.303,-0.272,0.946,3.395,-4.41,-2.905
40602480,-0.291,-0.119,0.955,6.79,-12.74,-5.267
40602480,-0.103,-0.216,0.975,4.392,-18.83,-9.45
40602500,0.039,-0.157,1.013,3.43,-16.607,-8.295
40602500,-0.007,-0.117,1.004,-0.245,-7.525,-3.167
40602510,-0.175,-0.218,0.969,-5.337,-0.385,0.787
40602520,-0.208,-0.189,0.972,-6.02,-2.1,-0.262
40602530,-0.138,-0.178,0.985,-7.7,-5.617,-4.935
40602540,-0.067,-0.183,0.988,-10.29,-5.32,-6.93
40602550,-0.115,-0.206,0.99,-12.372,-3.01,-6.685
40602560,-0.197,-0.209,0.958,-13.965,-3.115,-6.422
40602570,-0.248,-0.271,0.926,-13.737,-7.105,-7.507
40602580,-0.185,-0.242,0.966,-10.255,-13.527,-10.22
40602590,-0.104,-0.177,1.002,-10.22,-16.8,-11.76
40602600,-0.115,-0.168,1.041,-14.98,-16.117,-10.885
40602610,-0.136,-0.137,1.094,-22.522,-15.732,-11.147
40602620,-0.155,-0.064,1.152,-34.667,-16.887,-14.612
40602630,-0.137,-0.055,1.24,-52.272,-17.255,-19.582
40602640,-0.248,0.002,1.201,-66.307,-19.915,-26.25
40602650,-0.297,-0.146,1.338,-86.205,-19.897,-28.437
40602660,-0.231,-0.155,1.261,-104.51,-13.335,-34.037
40602670,-0.227,-0.144,1.299,-131.145,5.775,-46.655
40602680,-0.224,-0.075,1.346,-161.805,25.987,-67.83
40602690,-0.132,-0.081,1.421,-196.052,49.717,-83.09
40602700,-0.373,-0.196,1.289,-223.16,73.832,-90.317
40602710,0.063,-0.666,1.739,-223.982,114.8,-109.007
40602720,-0.499,-1.314,1.438,-187.25,178.027,-92.557
40602730,-1.145,-1.267,0.937,-122.027,188.16,-82.075
40602740,-1.518,-0.752,0.844,-64.697,176.767,-86.747
40602750,-1.17,-0.646,1,-6.51,121.31,-106.96
40602760,-0.236,0.21,0.353,68.6,68.932,-83.09
40602760,0.771,1.096,0.153,130.165,73.15,-53.375
40602780,0.592,1.117,-0.182,109.882,112.437,-57.12
40602780,0.485,0.967,-0.536,81.83,134.347,-80.745
40602800,0.448,0.695,-0.423,63.192,159.355,-43.995
40602800,-0.003,0.108,-0.353,31.762,185.64,21.297
40602820,-0.499,-0.31,-0.492,10.29,148.102,88.322
40602820,0.208,-0.654,-0.587,-1.592,70.682,150.57
40602830,1.214,-0.902,-0.694,-9.537,-2.397,193.602
40602840,1.652,-1.436,-0.541,-43.312,-9.485,182.595
40602850,0.183,-1.886,0.185,-84.332,-8.627,139.877
40602860,-1.926,-1.998,0.947,-76.16,-161.612,79.782
40602870,-1.976,-1.627,0.029,265.02,-422.17,149.275
40602880,1.21,1.754,0.221,507.57,-355.95,112.612
40602890,-0.171,1.949,1.79,481.127,-278.372,169.452
40602900,-0.977,-1.561,1.818,141.977,-243.372,28.035
40602910,1.998,1.019,1.59,211.645,-301.315,-84.805
40602920,0.176,0.538,0.625,-4.2,-52.622,7.28
40602930,0.195,-1.574,1.319,-123.147,78.19,33.757
40602940,0.103,0.994,0.86,-26.145,37.502,-12.32
40602950,-0.798,-1.103,0.853,-61.635,63.997,-1.05
40602960,-0.379,-0.262,0.819,-21.822,28.91,-20.142
40602970,-0.283,-0.434,0.929,-10.027,12.722,-19.302
40602980,-0.131,-0.271,0.891,1.89,3.36,-20.982
40602990,-0.273,-0.236,0.911,9.957,0.717,-15.557
40603000,-0.177,-0.028,1.013,11.392,-3.64,-6.142
40603010,-0.187,-0.063,1.033,0.525,-3.815,-3.465
40603020,-0.172,-0.174,0.964,-8.855,-3.92,-7.07
40603030,-0.022,-0.185,0.975,-9.677,-2.747,-6.282
40603040,-0.062,-0.132,1.018,-11.217,3.78,-0.857
40603050,-0.199,-0.138,0.976,-16.712,8.277,2.59
40603060,-0.239,-0.222,0.954,-19.512,6.282,0.752
40603070,-0.169,-0.214,0.955,-18.165,2.117,-2.607
40603080,-0.146,-0.227,0.955,-17.342,0.945,-3.045
40603090,-0.175,-0.222,0.984,-16.887,0.682,-1.102
40603100,-0.214,-0.171,0.962,-18.305,-0.735,0.175
40603110,-0.268,-0.294,0.917,-19.897,-4.27,-0.962
40603120,-0.14,-0.27,0.964,-15.085,-9.712,-1.487
40603130,-0.105,-0.17,1.011,-13.72,-9.87,1.312
40603140,-0.068,-0.16,1.073,-18.97,-5.705,3.99
40603150,-0.053,-0.134,1.117,-27.597,0.402,4.13
40603160,-0.055,-0.101,1.174,-37.38,8.452,1.925
40603170,-0.102,-0.151,1.203,-51.1,15.645,-2.45
40603170,0.015,-0.164,1.21,-70.262,27.212,-5.67
40603190,0.061,-0.164,1.245,-84,47.267,-6.545
40603190,0.012,-0.12,1.207,-98.577,69.177,-9.38
40603210,0.163,-0.163,1.18,-120.365,100.712,-21.14
40603210,0.033,-0.25,1.161,-142.887,135.17,-32.007
40603230,0.086,-0.351,1.192,-154.98,164.815,-47.022
40603230,0.479,-0.531,1.346,-143.885,205.782,-53.567
40603250,0.113,-0.806,1.181,-113.347,256.865,-45.307
40603250,-0.267,-0.842,0.803,-82.267,271.6,-62.737
40603260,-0.641,-1.003,0.782,-54.197,266.385,-84.525
40603270,-1.502,-1.334,0.463,-16.66,188.492,-117.39
40603280,0.583,-1.945,0.977,78.295,40.845,-186.2
40603290,1.705,-1.846,1.617,231.56,-67.357,-298.27
40603300,-1.571,0.3,-0.395,235.602,-133.7,-479.937
40603310,-1.998,1.399,-1.103,133.805,-86.747,-483.98
40603320,-1.88,1.842,-1.08,59.342,-70.437,-251.772
40603330,-0.153,1.735,-0.371,4.672,-71.89,17.517
40603340,0.873,0.975,-0.257,-37.887,-43.645,276.412
40603350,0.822,0.21,-0.612,-11.165,-57.312,426.667
40603360,1.628,-0.781,-0.05,25.27,-83.982,383.512
40603370,1.987,-1.129,0.344,24.535,-83.387,211.05
40603380,0.553,-1.382,1.584,-17.412,-19.6,36.435
40603390,-1.998,-1.998,-1.45,-76.947,-106.855,110.355
40603400,1.203,-1.62,1.23,351.995,-280.997,254.765
40603410,0.609,1.948,1.7,528.867,-210.175,170.187
40603420,-1.766,0.159,0.827,187.565,-178.202,63.035
40603430,1.978,-0.694,1.845,83.09,-246.54,-64.557
40603440,1.22,1.761,0.796,88.147,-163.94,-68.495
40603450,0.586,-1.772,1.393,-84.507,26.18,38.815
40603460,-0.226,0.611,0.925,-31.675,25.76,2.555
40603470,0.149,-0.505,1.121,-59.657,46.672,-0.052
40603480,-0.268,-0.158,0.926,-55.737,49.297,-6.772
40603490,-0.234,-0.398,0.937,-53.76,47.197,-6.457
40603500,-0.266,-0.304,0.936,-46.847,41.492,-6.055
40603510,-0.477,-0.322,0.757,-38.57,30.747,-7.962
40603510,-0.492,-0.472,0.698,-21.91,10.937,-11.62
40603530,-0.361,-0.409,0.76,1.575,-9.59,-12.932
40603530,-0.304,-0.347,0.905,18.48,-24.622,-10.727
40603550,-0.159,-0.199,0.98,27.387,-35.455,-10.64
40603550,-0.112,-0.205,1.021,26.127,-37.66,-9.642
40603570,0.002,-0.088,1.065,20.93,-35.035,-9.135
40603570,-0.007,-0.148,1.049,9.1,-26.425,-7.105
40603580,-0.032,-0.16,1.024,0.98,-19.18,-5.32
40603590,-0.039,-0.166,0.99,-5.302,-12.722,-4.042
40603600,-0.029,-0.226,0.984,-9.187,-6.615,-1.627
40603610,0,-0.184,0.999,-10.342,-0.525,2.327
40603620,-0.118,-0.184,1,-13.93,5.88,8.067
40603630,-0.132,-0.198,1.011,-17.692,7.892,11.06
40603640,-0.028,-0.184,1.054,-21.7,9.485,12.74
40603650,0.015,-0.137,1.132,-28.385,15.995,16.397
40603660,0.012,-0.104,1.243,-41.002,26.705,20.107
40603670,-0.024,-0.104,1.318,-60.83,38.43,21.437
40603680,0.011,-0.095,1.316,-85.662,50.33,20.72
40603690,0.136,-0.059,1.3,-111.16,67.707,20.702
40603700,0.24,-0.075,1.215,-139.632,87.727,24.937
40603710,0.144,-0.238,1.313,-173.495,111.492,23.327
40603720,0.174,-0.284,1.141,-187.32,121.345,21.735
40603730,0.289,-0.504,1.099,-190.89,137.41,34.755
40603740,0.306,-0.647,1.141,-188.545,155.785,47.53
40603750,0.237,-0.853,1.021,-182.857,168.647,54.355
40603760,-0.068,-1.08,0.815,-146.142,149.782,67.585
40603770,-0.313,-1.391,0.734,-103.512,52.727,70.367
40603780,1.636,-1.398,1.519,-19.232,-60.742,33.075
40603790,1.546,-1.199,0.931,80.255,-124.757,-12.722
40603800,0.694,-0.27,0.591,99.067,-132.58,-130.41
40603810,-0.753,0.24,0.136,85.592,-125.23,-203.857
40603820,-0.674,0.204,-0.113,85.015,-118.58,-156.222
40603830,-0.341,0.517,-0.81,119.385,-140.035,-50.12
40603840,0.348,1.284,-0.905,99.837,-152.53,22.382
40603850,0.615,0.641,-0.233,-5.617,-61.652,97.895
40603860,-0.463,-0.343,-0.32,-66.5,-21.91,142.415
40603870,0.553,0.047,0.621,-27.895,-63.77,138.145
40603880,-1.308,-1.662,0.126,-6.317,61.932,286.352
40603890,-0.821,-1.998,-0.55,154.577,-181.912,500.71
40603900,1.974,-0.231,1.743,387.642,-191.572,302.015
40603910,-1.64,1.997,0.371,351.225,-112.017,191.45
40603920,-1.402,-0.603,1.964,185.692,-189.052,34.405
40603920,1.562,-0.056,1.876,113.452,-318.815,-104.807
40603940,1.925,1.583,1.199,57.715,-181.965,-90.772
40603940,0.606,-1.021,1.15,-52.972,11.97,24.377
40603960,-0.588,0.137,0.926,-27.492,45.237,29.33
40603960,0.085,-0.445,1.022,-33.74,37.467,16.852
40603980,-0.324,-0.373,0.843,-25.41,33.705,8.505
40603980,-0.476,-0.491,0.805,-8.925,21.385,7.192
40604000,-0.38,-0.06,0.973,8.487,-1.89,0.665
40604000,-0.09,-0.191,0.992,2.747,-13.457,-6.965
40604010,-0.148,-0.263,0.934,1.032,-15.505,-7.192
40604020,-0.117,-0.231,0.961,5.495,-17.64,-7.805
40604030,-0.058,-0.181,0.994,7.35,-18.655,-9.362
40604040,-0.041,-0.138,1.013,5.407,-16.205,-9.66
40604050,-0.078,-0.12,1,0.367,-13.02,-10.43
40604060,-0.031,-0.203,0.988,-4.392,-10.325,-11.882
40604070,-0.084,-0.18,0.985,-5.337,-7.77,-10.762
40604080,-0.15,-0.189,0.982,-6.65,-8.207,-9.677
40604090,-0.113,-0.18,0.989,-7.437,-12.145,-11.532
40604100,-0.083,-0.16,0.992,-9.765,-14.035,-12.547
40604110,-0.137,-0.215,0.975,-12.722,-14.91,-12.39
40604120,-0.144,-0.211,0.986,-13.072,-18.9,-12.547
40604130,-0.141,-0.171,1.017,-14.647,-23.712,-13.755
40604140,-0.145,-0.119,1.062,-20.562,-28.28,-16.73
40604150,-0.184,-0.077,1.139,-31.552,-34.125,-21.98
40604160,-0.258,-0.06,1.212,-48.37,-43.26,-30.152
40604170,-0.254,0.039,1.245,-65.747,-52.99,-41.492
40604180,-0.511,0.194,1.215,-65.537,-42.892,-61.827
40604190,-0.916,-0.423,1.177,-91.84,-27.457,-85.592
40604200,-0.574,-0.529,1.201,-101.027,-16.17,-108.412
40604210,-0.087,-0.179,1.266,-113.732,23.765,-137.9
40604220,-0.198,-0.266,1.272,-137.252,76.597,-154.63
40604230,-0.541,-0.478,0.973,-167.475,97.79,-206.85
40604240,0.094,-0.97,1.016,-171.5,178.482,-257.022
40604250,-0.753,-1.867,0.781,-136.92,305.41,-220.885
40604260,-1.998,-1.932,0.429,-103.53,301.822,-179.847
40604260,-1.998,-1.774,0.261,-26.95,225.872,-167.982
40604280,-1.898,-1.114,-0.272,-57.365,167.422,-46.69
40604280,1.062,-0.013,0.258,13.79,192.325,125.947
40604300,1.985,0.409,1.396,46.077,230.055,202.597
40604300,1.258,0.751,0.671,29.68,196.98,72.222
40604320,0.927,1.57,0.515,36.47,175.07,-86.922
40604320,0.096,1.69,0.056,31.867,159.18,-117.162
40604330,-0.42,1.469,-0.16,-13.545,140.14,-73.832
40604340,-0.109,0.484,-0.213,-54.39,137.655,61.95
40604350,0.147,-0.21,-0.306,-53.917,121.747,231.735
40604360,0.791,-0.71,-0.369,-55.982,88.567,317.922
40604370,-0.984,-1.287,0.883,-77.962,-20.405,317.187
40604380,1.372,-1.998,1.946,-34.877,-346.185,143.482
40604390,0.537,-1.558,1.353,200.812,-425.11,90.72
40604400,-1.599,1.767,-0.413,269.832,-351.452,60.62
40604410,0.39,0.808,1.989,386.172,-348.162,113.067
40604420,-0.397,-0.879,1.987,261.205,-429.502,51.222
40604430,1.998,1.486,1.753,171.955,-291.585,-53.742
40604440,0.817,0.646,0.956,-5.477,-57.032,8.995
40604450,0.23,-1.27,1.272,-93.065,62.475,31.92
40604460,-0.065,0.357,0.853,-50.89,54.057,-9.992
40604470,-0.119,-0.732,0.998,-65.012,74.812,-4.637
40604480,-0.409,-0.253,0.881,-47.232,69.965,-10.727
40604490,-0.583,-0.254,0.909,-42.962,59.675,-7.507
40604500,-0.463,-0.232,0.811,-37.17,38.36,-15.697
40604510,-0.488,-0.488,0.785,-26.775,18.707,-20.58
40604520,-0.226,-0.326,0.896,-9.345,0.7,-18.235
40604530,-0.324,-0.206,0.87,-3.167,-6.895,-11.445
40604540,-0.38,-0.371,0.864,1.172,-16.152,-10.71
40604550,-0.17,-0.236,0.963,10.552,-28.175,-14.962
40604560,0.037,-0.166,1.016,9.957,-27.002,-14.035
40604570,-0.03,-0.193,1.008,3.43,-15.54,-6.877
40604580,-0.203,-0.192,0.986,-1.505,-8.312,-2.152
40604590,-0.145,-0.17,1.013,-5.67,-7.297,-3.727
40604600,-0.121,-0.181,0.983,-11.865,-4.497,-3.972
40604610,-0.251,-0.267,0.917,-14.84,-3.255,-2.275
40604620,-0.304,-0.318,0.88,-11.445,-8.155,-2.345
40604630,-0.319,-0.298,0.857,-4.357,-17.097,-3.465
40604640,-0.271,-0.315,0.875,4.007,-26.337,-4.095
40604650,-0.143,-0.237,0.963,10.307,-31.605,-3.325
40604660,-0.118,-0.192,1.016,9.625,-31.465,-1.61
40604670,-0.074,-0.183,1.05,4.322,-28.787,-0.332
40604670,-0.066,-0.119,1.073,-4.375,-24.412,0.612
40604680,-0.087,-0.126,1.126,-17.167,-18.777,1.19
40604690,-0.084,-0.107,1.199,-32.9,-14.56,-0.822
40604700,-0.122,-0.05,1.282,-52.15,-10.342,-4.637
40604710,-0.223,-0.075,1.231,-70.875,-8.732,-10.202
40604720,-0.148,-0.217,1.184,-92.732,-2.59,-15.382
40604730,-0.096,-0.184,1.259,-110.267,18.042,-25.025
40604740,-0.099,-0.128,1.245,-134.225,33.88,-37.94
40604750,-0.044,-0.109,1.177,-156.17,51.905,-45.15
40604760,-0.172,-0.297,1.241,-173.775,71.225,-55.44
40604770,-0.305,-0.561,1.174,-187.897,82.635,-83.79
40604780,-0.123,-0.807,1.084,-180.74,80.517,-99.347
40604790,-0.098,-1.06,0.923,-151.672,108.867,-82.687
40604800,-0.488,-1.728,0.857,-115.85,136.517,-72.135
40604810,-0.673,-1.998,0.541,-64.085,97.65,-100.992
40604820,1.056,-1.998,0.616,12.372,70.262,-156.415
40604830,0.872,-1.533,0.137,95.637,63.682,-192.727
40604840,-1.369,-0.29,-0.426,70.542,93.292,-265.947
40604850,-1.801,0.429,-0.63,3.937,73.832,-253.505
40604860,-0.862,0.887,0.019,-16.59,58.065,-114.502
40604870,-0.11,0.985,-0.04,-0.7,32.2,80.342
40604880,0.65,1.517,-0.439,44.677,15.487,222.932
40604890,1.383,1.997,-0.275,57.995,23.59,303.397
40604900,1.583,1.657,0.034,-2.835,79.45,325.377
40604910,0.741,0.497,-0.071,-63.052,103.652,288.33
40604920,0.517,0.051,-0.264,-73.167,59.587,226.957
40604930,0.013,-0.716,1.248,-88.147,27.737,220.587
40604940,-1.998,-1.998,-0.806,-51.345,-195.877,333.847
40604950,-1.044,-0.941,0.791,306.81,-386.82,237.282
40604960,1.981,1.997,0.325,551.617,-390.757,86.555
40604970,-1.345,1.221,1.443,304.412,-201.74,229.407
40604980,-0.609,-1.994,1.49,16.03,-251.825,-14.56
40604990,1.998,1.698,1.83,259.385,-384.667,-108.412
40605000,0.523,0.106,1.113,7.455,-75.897,10.85
40605010,0.403,-0.798,1.247,-69.545,40.53,25.952
40605010,-0.106,0.49,0.985,-46.83,49.472,8.487
40605030,-0.145,-0.591,0.982,-75.32,64.417,-6.755
40605030,-0.352,-0.311,0.861,-56.49,57.4,-10.605
40605050,-0.58,-0.458,0.816,-47.372,45.097,-8.837
40605050,-0.444,-0.337,0.797,-29.61,21.542,-14.122
40605070,-0.399,-0.453,0.736,-14.962,1.82,-15.907
40605070,-0.278,-0.53,0.814,8.19,-16.397,-9.73
40605080,-0.316,-0.199,0.96,25.602,-30.012,-2.152
40605090,-0.092,-0.08,1.044,23.257,-35.63,-3.727
40605100,0.078,-0.136,1.05,12.582,-29.855,-5.67
40605110,0.059,-0.159,1.016,3.535,-16.45,-1.015
40605120,-0.117,-0.198,0.999,-1.627,-5.127,5.075
40605130,-0.129,-0.164,1.014,-4.497,-2.187,5.53
40605140,-0.13,-0.128,1.012,-10.762,-1.032,3.377
40605150,-0.214,-0.264,0.943,-17.377,-1.365,1.68
40605160,-0.19,-0.29,0.938,-15.12,-5.652,1.26
40605170,-0.262,-0.249,0.935,-11.585,-10.727,1.33
40605180,-0.22,-0.269,0.953,-10.43,-16.905,-0.262
40605190,-0.124,-0.196,1.046,-10.762,-20.65,-2.712
40605200,-0.063,-0.058,1.159,-19.495,-19.355,-4.602
40605210,-0.094,-0.048,1.304,-40.512,-14.105,-7.332
40605220,-0.138,-0.021,1.391,-69.142,-10.36,-13.737
40605230,-0.101,-0.049,1.419,-98.052,-6.65,-18.655
40605240,0.032,0.007,1.455,-119.857,26.197,-28.455
40605250,-0.151,-0.025,1.361,-164.482,59.99,-39.812
40605260,0.08,-0.091,1.284,-205.012,90.247,-48.65
40605270,0.061,-0.02,1.285,-234.325,109.375,-60.777
40605280,0.007,-0.041,1.202,-259.595,105.98,-79.257
40605290,-0.009,-0.243,1.111,-278.617,94.132,-78.942
40605300,0.177,-0.676,1.124,-280.035,97.597,-63.945
40605310,-0.322,-1.023,1.046,-245.577,91.455,-34.335
40605320,-0.86,-1.199,0.605,-199.465,72.485,-41.352
40605330,-0.484,-0.957,0.552,-134.015,7.962,-54.897
40605340,0.253,-0.8,0.803,-64.715,-4.077,-56.262
40605350,0.615,-0.312,0.891,-2.222,47.337,-72.852
40605350,-0.213,0.316,0.946,110.46,41.597,-93.555
40605370,-0.746,1.771,0.182,153.947,-23.03,-218.085
40605370,-0.842,1.847,-0.018,113.295,17.062,-184.205
40605390,-1.054,1.031,-0.303,98.735,39.235,-18.847
40605390,-0.42,0.887,-0.259,108.622,3.885,101.15
40605410,0.583,0.144,-0.204,109.637,-16.03,176.907
40605410,0.973,-0.707,-0.293,95.34,-15.19,178.535
40605420,1.011,-0.863,-0.485,84.297,-19.845,106.802
40605430,0.674,-0.981,-0.389,46.567,-12.862,35.49
40605440,-0.269,-1.821,0.477,-15.767,27.842,18.602
40605450,-1.656,-1.998,-1.172,40.932,27.16,256.27
40605460,-0.14,-1.588,1.47,326.042,-164.745,289.572
40605470,0.981,1.953,-0.71,541.17,-235.497,-38.132
40605480,-1.76,1.873,0.899,395.605,-116.252,124.442
40605490,-1.846,-1.894,1.534,182.857,-94.5,222.46
40605500,0.243,0.682,1.998,320.372,-344.312,-51.047
40605510,1.868,1.825,1.497,147.542,-212.677,-61.845
40605520,0.438,-0.853,1.17,-75.25,7.892,30.607
40605530,-0.053,-0.05,0.976,-64.225,55.912,20.335
40605540,-0.011,-0.377,1.076,-67.375,65.747,2.117
40605550,-0.331,-0.221,0.861,-60.427,62.352,-7.35
40605560,-0.471,-0.719,0.807,-51.502,51.887,-4.2
40605570,-0.378,-0.287,0.844,-24.605,29.627,-5.355
40605580,-0.362,-0.372,0.858,-13.545,15.662,-2.432
40605590,-0.346,-0.177,0.892,-1.627,-0.507,-3.78
40605600,-0.192,-0.361,0.905,3.01,-10.92,-2.66
40605610,-0.293,-0.223,0.937,11.69,-19.127,1.155
40605620,-0.248,-0.169,0.967,13.755,-27.737,1.05
40605630,-0.089,-0.159,1.009,11.637,-32.602,-1.435
40605640,0.037,-0.125,1.016,6.23,-29.522,-2.415
40605650,-0.026,-0.203,0.991,1.4,-21.665,1.837
40605660,-0.109,-0.167,0.993,-0.472,-16.8,4.69
40605670,-0.078,-0.161,1.012,-4.13,-15.155,4.077
40605680,-0.052,-0.174,1.001,-9.135,-12.967,3.36
40605690,-0.126,-0.207,0.995,-13.125,-11.025,3.465
40605700,-0.218,-0.21,0.958,-15.96,-12.582,2.467
40605710,-0.196,-0.285,0.94,-16.275,-17.762,-0.35
40605720,-0.062,-0.214,1.019,-14.35,-21.315,-3.762
40605730,0.065,-0.115,1.079,-19.215,-18.322,-3.482
40605740,0.108,-0.125,1.152,-31.307,-7.805,0.227
40605750,-0.044,-0.005,1.248,-48.317,2.957,1.365
40605760,0.032,0.012,1.353,-67.357,2.205,0.63
40605760,0.197,-0.037,1.323,-87.815,5.075,4.48
40605780,-0.029,-0.17,1.405,-122.202,31.29,10.115
40605780,-0.062,-0.034,1.344,-153.772,51.467,-3.185
40605800,-0.048,-0.08,1.285,-187.197,70.665,-16.765
40605800,-0.204,-0.128,1.212,-216.737,81.917,-18.217
40605820,-0.172,-0.098,1.077,-234.272,85.4,-30.52
40605820,-0.043,-0.215,1.067,-238.297,95.76,-44.24
40605830,0.101,-0.577,1.148,-223.965,117.162,-50.75
40605840,-0.214,-1.049,0.888,-187.215,148.277,-46.165
40605850,-0.555,-0.993,0.554,-123.13,157.237,-45.202
40605860,-0.539,-0.6,0.64,-56.805,154.035,-34.912
40605870,-0.46,0.013,0.469,16.835,133.577,-22.855
40605880,-0.785,0.024,0.931,38.71,120.435,-27.807
40605890,-1.327,0.045,0.163,77.857,72.275,-14.927
40605900,0.406,0.726,-0.227,153.475,54.022,43.102
40605910,0.701,0.871,-0.097,168.822,77.472,112.227
40605920,0.54,0.258,-0.581,123.025,70.595,87.99
40605930,1.126,-0.153,-0.331,96.74,37.327,52.762
40605940,1.213,-1.012,-0.131,73.255,36.75,23.572
40605950,0.322,-1.363,-0.591,54.915,14.735,-36.312
40605960,-0.841,-1.913,1.035,6.93,-30.17,-73.167
40605970,-1.998,-1.998,-0.892,-4.865,-150.5,47.53
40605980,0.078,-1.438,1.196,288.435,-287.087,128.45
40605990,1.561,1.973,1.148,533.382,-359.38,92.05
40606000,-1.753,0.939,0.296,242.077,-144.742,103.32
40606010,-1.754,-1.998,1.939,123.847,-158.812,43.172
40606020,1.9,1.361,1.922,281.68,-348.652,-86.432
40606030,1.388,1.393,1.44,78.172,-144.987,-28.21
40606040,0.613,-0.372,1.287,-56.787,15.26,21.752
40606050,-0.079,-0.033,0.965,-67.147,53.795,11.025
40606060,-0.084,-0.454,0.978,-68.092,66.255,-1.347
40606070,-0.414,-0.462,0.813,-52.972,61.547,-5.565
40606080,-0.606,-0.519,0.808,-35.735,46.777,-2.975
40606080,-0.427,-0.252,0.886,-16.135,20.597,-10.22
40606100,-0.263,-0.37,0.774,-7.087,3.727,-15.102
40606100,-0.464,-0.529,0.802,13.527,-11.375,-9.922
40606120,-0.15,0.048,1.07,31.5,-28.682,-7.717
40606120,-0.105,-0.121,1.035,16.152,-29.312,-9.065
40606140,-0.007,-0.206,0.974,7.717,-25.76,-10.867
40606140,0.003,-0.152,1.01,6.44,-17.99,-5.215
40606160,-0.053,-0.147,0.997,1.855,-9.45,-1.155
40606160,-0.18,-0.245,0.946,-1.12,-5.302,0.297
40606170,-0.126,-0.193,0.98,0.892,-6.807,-1.75
40606180,-0.093,-0.167,0.973,-0.437,-6.352,-1.89
40606190,-0.178,-0.234,0.943,-1.802,-5.092,-0.245
40606200,-0.197,-0.206,0.96,0.735,-8.05,0.455
40606210,-0.208,-0.203,0.948,1.452,-12.285,0.07
40606220,-0.178,-0.223,0.952,2.345,-16.66,0.21
40606230,-0.147,-0.208,0.98,3.675,-20.072,0.682
40606240,-0.103,-0.161,0.994,2.397,-21.192,1.837
40606250,-0.045,-0.172,1.013,-1.592,-19.04,3.08
40606260,-0.008,-0.152,1.047,-7.035,-14,4.182
40606270,-0.017,-0.136,1.061,-15.032,-7.332,4.655
40606280,0.01,-0.138,1.115,-25.41,0.735,3.01
40606290,0.011,-0.092,1.211,-40.11,10.92,-0.14
40606300,-0.04,-0.039,1.319,-61.46,23.362,-6.982
40606310,-0.018,-0.027,1.341,-83.16,39.882,-20.212
40606320,0.196,-0.224,1.202,-92.505,68.407,-33.477
40606330,0.122,-0.237,1.302,-92.347,116.795,-31.045
40606340,0.415,-0.429,1.379,-91.63,160.755,-30.065
40606350,0.317,-0.747,1.466,-72.835,217.035,-29.697
40606360,-0.403,-0.866,1.089,-46.147,230.055,-43.015
40606370,-0.853,-0.832,1.072,-26.915,210.455,-58.275
40606380,-0.964,-1.714,0.36,4.725,163.135,-35.84
40606390,-0.887,-1.998,0.193,14.42,89.932,-14.752
40606400,0.882,-1.922,0.328,89.18,-19.215,-59.22
40606410,0.492,-0.633,0.109,109.357,-65.485,-124.075
40606420,-0.323,-0.926,0.121,28.735,-29.137,-156.222
40606430,-0.5,-1.321,0.237,6.055,-39.812,-150.43
40606440,-0.104,-0.414,0.106,40.162,-85.207,-136.01
40606450,0.454,0.846,-0.21,65.572,-105.14,-123.2
40606460,0.949,1.746,-0.414,84.787,-95.165,-100.345
40606470,0.531,1.997,-0.758,101.045,-103.075,-76.405
40606480,0.747,1.997,-0.942,121.695,-100.397,-62.737
40606490,0.84,1.997,-1.32,131.95,-70.665,-17.99
40606500,0.933,1.967,-1.301,117.215,-23.555,50.032
40606510,-1.391,-0.971,0.33,14.892,200.27,290.342
40606510,-0.602,-0.016,-0.457,140.945,-259.332,117.197
40606530,1.978,1.997,1.217,502.547,-431.025,-70.157
40606530,-0.725,1.402,0.004,-200.935,145.442,52.85
40606550,-1.998,-1.998,1.791,-407.54,279.772,-39.077
40606550,1.154,0.782,0.372,118.317,-69.44,1.837
40606570,-0.337,1.209,0.518,32.217,3.202,-31.062
40606570,-0.7,-1.961,1.433,-103.862,82.617,10.99
40606580,0.023,1.431,0.752,32.83,-1.015,-17.29
40606590,-0.412,-0.697,0.994,-19.25,22.662,-1.785
40606600,-0.485,-0.26,0.901,-7.14,5.547,-8.942
40606610,-0.176,-0.072,0.979,3.937,-10.85,-12.897
40606620,-0.103,-0.172,0.98,-0.192,-13.475,-14.402
40606630,-0.088,-0.212,0.962,0.735,-13.037,-12.722
40606640,-0.112,-0.129,0.996,2.397,-12.81,-8.627
40606650,-0.09,-0.192,0.967,1.295,-11.077,-6.912
40606660,-0.027,-0.252,1.005,1.225,-8.785,-2.66
40606670,-0.087,-0.077,0.991,3.377,-6.527,-2.275
40606680,-0.047,-0.213,1.003,-0.647,-2.31,-1.33
40606690,-0.095,-0.172,0.992,0.507,-0.175,-2.38
40606700,-0.121,-0.186,0.997,-0.035,3.08,-0.42
40606710,-0.238,-0.282,0.995,1.417,3.535,0.402
40606720,-0.106,-0.287,1.048,6.982,0.315,-0.017
40606730,-0.148,-0.282,1.11,12.092,2.642,3.5
40606740,-0.279,-0.37,1.204,18.952,9.292,5.74
40606750,-0.361,-0.467,1.433,24.255,24.272,-0.105
40606760,-0.549,-0.598,1.821,10.377,62.23,-23.362
40606770,-0.942,-0.943,1.823,-11.795,79.835,-38.587
40606780,-1.95,-1.114,1.192,-8.61,-62.457,2.87
40606790,0.433,-1.855,0.386,71.505,-81.987,83.125
40606800,-1.862,-1.998,-1.686,29.977,-15.102,188.982
40606810,0.101,-1.275,0.774,-77.63,138.897,32.445
40606820,0.11,-1.697,0.844,-166.32,215.915,-4.025
40606830,-1.493,-0.723,-0.046,-144.62,180.04,-16.38
40606830,0.113,1.453,0.1,-110.11,115.167,-102.987
40606850,0.695,1.997,0.329,-132.107,154.367,-70.717
40606850,-0.425,1.997,-0.634,-163.555,171.517,34.457
40606870,-0.834,1.996,0.415,-184.1,149.082,122.587
40606870,-0.85,1.16,1.907,-168.49,-151.305,134.977
40606890,1.998,-1.803,1.429,106.417,-333.497,172.235
40606890,-0.233,-1.501,1.316,238.385,-195.335,191.782
40606910,-1.659,-1.561,0.957,247.257,-270.672,46.392
40606910,1.409,1.324,1.341,298.69,-356.335,-5.39
40606920,1.832,1.728,1.116,127.05,-183.925,26.635
40606930,-0.907,-1.698,1.145,-130.462,73.272,10.325
40606940,0.66,0.092,1.132,-29.242,54.845,1.032
40606950,-0.576,0.32,0.745,-33.232,68.915,0.63
40606960,-0.735,-0.991,0.98,-46.882,69.667,0.297
40606970,-0.569,0.036,0.87,-8.855,26.512,-10.307
40606980,-0.492,-0.206,0.947,-15.855,13.352,-12.407
40606990,-0.455,-0.286,0.839,-12.46,-6.667,-22.015
40607000,-0.258,-0.334,0.94,-5.232,-21.7,-14.84
40607010,-0.317,-0.112,0.968,0.805,-32.147,-9.38
40607020,-0.234,-0.109,0.96,-2.975,-37.222,-6.947
40607030,-0.132,-0.299,0.89,-3.132,-41.877,-8.575
40607040,0.096,-0.418,0.947,7.7,-41.86,-5.442
40607050,0.035,-0.188,0.999,19.145,-35.577,-1.697
40607060,-0.015,-0.033,1.008,18.252,-24.675,2.975
40607070,-0.027,0.042,1.033,8.295,-14.822,6.475
40607080,0.056,-0.078,1.011,-5.197,-3.412,7.84
40607090,-0.095,-0.184,0.988,-12.705,5.39,8.505
40607100,-0.007,-0.072,1.011,-15.925,9.607,5.355
40607110,-0.062,-0.132,1.001,-22.75,16.152,5.95
40607120,-0.212,-0.18,1.005,-27.492,18.9,5.162
40607130,-0.179,-0.13,1.008,-30.52,16.852,0.507
40607140,-0.138,-0.145,1.02,-36.417,16.835,-4.27
40607150,-0.132,-0.169,1.022,-42.297,19.635,-7.892
40607160,-0.042,-0.158,1.041,-46.952,25.007,-9.082
40607170,0.027,-0.236,1.087,-51.222,36.19,-5.652
40607180,-0.089,-0.314,1.125,-53.777,44.397,-0.857
40607190,-0.071,-0.243,1.136,-53.235,49.122,4.025
40607200,-0.045,-0.207,1.116,-58.677,55.562,8.312
40607210,-0.1,-0.181,1.152,-69.142,65.642,3.99
40607220,-0.046,-0.389,1.051,-66.972,85.662,-10.85
40607230,0.007,-0.423,1.205,-75.915,94.797,-15.715
40607240,0.116,-0.59,1.215,-69.142,121.992,-15.592
40607250,-0.153,-0.703,1.301,-51.45,136.29,-5.46
40607260,0.194,-1.096,1.707,-16.642,136.745,-6.807
40607260,0.189,-0.96,1.239,44.345,113.015,-29.645
40607280,-1.543,-0.459,0.774,28.262,2.695,-88.585
40607280,0.743,-0.958,1.155,0.612,-67.095,-151.287
40607300,0.596,-0.826,0.964,4.077,-65.905,-140.787
40607300,-0.253,-0.308,0.545,-3.272,-59.097,-165.515
40607320,0.003,-0.163,0.32,-13.282,-59.062,-157.937
40607320,0.155,-0.082,0.251,-20.23,-60.13,-124.302
40607330,0.013,0.045,0.104,-30.607,-61.162,-96.442
40607340,-0.129,0.193,-0.054,-44.905,-66.815,-69.387
40607350,-0.147,0.38,-0.213,-67.725,-75.39,-42.105
40607360,-0.004,0.404,-0.205,-99.995,-65.03,-4.41
40607370,0.07,0.341,-0.244,-129.57,-35.595,46.025
40607380,0.101,0.255,-0.296,-145.215,-9.135,90.405
40607390,0.106,0.258,-0.357,-143.5,1.137,122.657
40607400,0.302,0.21,0.171,-129.255,0.84,139.107
40607410,1.298,-1.397,1.998,-95.322,203.997,219.292
40607420,-1.807,-1.998,-0.815,140.28,102.392,424.865
40607430,-1.941,-1.167,-1.438,281.4,-316.085,282.957
40607440,1.507,1.532,1.03,353.5,-240.712,78.855
40607450,0.114,1.997,1.91,450.607,-191.712,230.387
40607460,-0.762,-0.893,1.62,199.097,-225.61,66.885
40607470,1.998,0.92,1.639,177.94,-284.41,-113.732
40607480,0.657,1.076,0.922,33.617,-80.657,-17.132
40607490,0.229,-1.669,1.185,-84.14,48.51,48.912
40607500,-0.521,0.459,0.807,-12.74,26.25,15.645
40607510,0.132,-0.775,0.972,-26.39,27.65,10.937
40607520,-0.444,-0.148,0.878,-3.5,23.257,12.652
40607530,-0.428,-0.349,0.949,-0.315,11.97,8.75
40607540,-0.131,-0.165,0.955,5.39,-2.677,-6.615
40607550,-0.155,-0.281,0.931,5.25,-5.617,-6.16
40607560,-0.231,-0.168,0.962,9.852,-9.362,-2.24
40607570,-0.188,-0.103,0.986,9.31,-14.175,-2.642
40607580,-0.057,-0.173,0.984,5.372,-15.855,-4.445
40607580,-0.089,-0.11,1.003,3.535,-14.245,-3.045
40607600,-0.019,-0.134,0.996,-0.752,-11.165,-3.64
40607600,-0.022,-0.179,0.983,-4.445,-5.915,-0.542
40607620,-0.15,-0.197,0.975,-5.46,-2.887,2.205
40607620,-0.118,-0.146,0.992,-5.932,-3.587,2.047
40607640,0.032,-0.13,1.022,-9.695,-1.575,0.367
40607640,0.013,-0.121,1.029,-15.802,5.845,3.15
40607660,-0.084,-0.181,1.032,-22.592,12.985,6.86
40607660,-0.076,-0.137,1.076,-28.752,16.485,6.545
40607670,-0.012,-0.101,1.174,-40.407,22.4,3.815
40607680,-0.057,-0.075,1.274,-59.132,34.387,-1.347
40607690,-0.08,-0.146,1.318,-82.302,54.355,-12.39
40607700,-0.293,-0.176,1.407,-102.497,65.467,-18.9
40607710,-0.002,-0.196,1.392,-119.84,66.727,-27.597
40607720,0.431,-0.376,1.04,-127.767,133.07,-45.622
40607730,0.479,-0.574,1.22,-130.06,212.012,-68.67
40607740,-0.402,-1.087,1.201,-134.365,265.895,-104.282
40607750,-0.365,-1.619,0.467,-95.27,275.835,-118.195
40607760,-0.037,-1.998,0.324,-39.095,226.327,-81.987
40607770,-0.007,-1.998,0.788,-5.775,80.92,-150.22
40607780,-0.13,-1.491,0.381,23.765,-14.647,-264.25
40607790,-1.164,0.288,0.063,13.475,-88.602,-253.68
40607800,-1.265,0.698,0.365,-64.207,-96.127,-188.142
40607810,-1.048,0.572,0.333,-89.04,-105.42,-55.492
40607820,-0.462,1.155,0.198,-51.922,-133.385,59.15
40607830,0.24,1.855,0.223,-35.77,-119.63,122.622
40607840,0.372,1.839,0.035,-40.215,-89.372,178.92
40607850,0.476,1.431,-0.005,-54.04,-57.942,191.852
40607860,0.321,0.896,-0.046,-62.755,-33.285,180.88
40607870,-0.102,0.435,-0.308,-55.632,-37.327,174.58
40607880,0.042,0.54,-0.073,-39.725,-44.572,165.725
40607890,0.819,-1.231,1.71,-22.645,-0.91,214.62
40607900,-1.657,-1.998,-0.452,142.485,-92.855,343.787
40607910,-1.256,-0.423,-0.109,314.86,-223.86,106.802
40607920,1.617,1.997,0.714,527.345,-219.117,21.017
40607930,-1.949,0.097,1.683,291.217,-202.772,167.877
40607940,0.619,-0.56,1.859,186.445,-307.545,-33.827
40607950,1.822,1.997,1.134,180.18,-202.702,-53.025
40607960,0.096,-1.412,1.107,-95.165,30.957,49.612
40607970,-0.209,-0.04,0.978,-60.62,60.147,11.217
40607980,-0.129,-0.322,0.979,-58.817,56.367,-7.227
40607980,-0.45,-0.707,0.765,-52.57,45.36,-15.085
40608000,-0.311,-0.444,0.883,-20.737,27.492,-14.665
40608000,-0.409,-0.227,0.907,-7.262,11.27,-8.085
40608010,-0.229,-0.267,0.906,-0.962,-3.185,-11.725
40608020,-0.045,-0.242,0.976,5.81,-10.272,-8.015
40608030,-0.08,-0.16,0.995,6.51,-8.452,-1.102
40608040,-0.421,-0.114,0.973,3.045,-8.767,1.085
40608050,-0.149,-0.215,0.982,-1.225,-19.197,-9.747
40608060,0.22,-0.201,0.982,-2.642,-19.687,-14.77
40608070,0.097,-0.175,0.982,-3.272,-5.425,-5.74
40608080,-0.17,-0.185,0.977,-5.775,4.567,-0.49
40608090,-0.138,-0.197,0.989,-8.102,2.817,-5.897
40608100,-0.057,-0.153,1.006,-10.395,2.695,-9.065
40608110,-0.061,-0.171,1.008,-15.417,6.055,-9.31
40608120,-0.131,-0.167,1.002,-20.247,8.505,-8.925
40608130,-0.205,-0.191,0.993,-24.482,7.735,-9.712
40608140,-0.181,-0.183,1.016,-27.615,4.2,-11.935
40608150,-0.183,-0.156,1.039,-32.217,1.26,-14.717
40608160,-0.145,-0.161,1.113,-39.865,0.245,-17.36
40608170,-0.079,-0.044,1.205,-48.405,3.412,-23.765
40608180,-0.373,-0.05,1.143,-56.087,5.512,-34.772
40608190,0.184,-0.32,1.192,-76.352,22.522,-42.332
40608200,-0.496,-0.106,1.132,-92.295,71.05,-59.937
40608210,-0.064,-0.151,1.168,-111.65,86.38,-80.745
40608220,0.203,-0.14,1.308,-134.872,114.187,-88.252
40608230,0.109,-0.096,1.282,-159.372,126.105,-89.512
40608240,-0.006,-0.172,1.282,-183.365,136.062,-84.612
40608250,-0.08,-0.305,1.45,-200.952,144.305,-88.235
40608260,0.084,-0.841,1.467,-208.092,168.542,-91.77
40608270,-0.132,-1.207,1.285,-172.095,167.37,-61.302
40608280,-0.715,-1.075,1.002,-113.837,113.872,-27.23
40608290,-0.565,-0.845,1.257,-55.142,29.942,-24.867
40608300,0.211,0.067,1.025,6.58,-61.88,-56.35
40608310,0.46,1.333,0.874,46.69,-103.915,-82.162
40608320,-0.084,1.992,0.555,60.9,-76.44,-80.762
40608330,-0.282,1.997,0.243,65.38,-40.967,-55.3
40608330,-0.036,1.997,-0.249,107.17,-35.682,-2.485
40608350,0.033,1.849,-0.142,107.765,-13.667,52.185
40608350,-0.757,0.423,-0.386,56.175,22.627,84.542
40608370,-0.9,-0.626,-0.644,44.03,11.777,95.497
40608370,-0.264,-1.187,-0.643,47.285,18.812,127.242
40608390,-0.294,-1.661,-1.188,53.042,27.982,171.657
40608390,0.803,-1.998,0.849,39.987,34.615,189.297
40608410,-1.566,-1.998,0.687,109.427,-94.815,220.675
40608410,-0.926,0.348,-1.26,387.572,-299.565,-54.11
40608420,1.797,1.997,0.938,563.552,-296.817,-81.13
40608430,-1.385,-0.083,1.145,192.815,-177.992,200.847
40608440,0.699,-0.755,1.638,46.567,-195.055,2.502
40608450,1.95,1.997,0.578,165.392,-192.412,-54.46
40608460,0.545,-1.317,1.122,-147.245,83.58,54.145
40608470,-1.025,-0.381,0.827,-51.047,69.37,8.82
40608480,0.382,0.794,1.005,-5.495,46.882,-15.365
40608490,-0.926,-0.949,0.864,-47.267,61.792,-1.085
40608500,-0.376,-0.208,0.878,-7.787,21.56,-14.717
40608510,-0.181,-0.35,0.954,-4.742,7.087,-10.43
40608520,-0.249,-0.038,0.978,-0.017,-0.682,-4.48
40608530,-0.209,-0.188,0.986,-4.742,-4.97,-1.75
40608540,-0.218,-0.184,0.958,-5.915,-10.955,-1.627
40608550,-0.127,-0.197,0.945,-3.972,-16.73,-2.782
40608560,-0.044,-0.23,0.975,-3.675,-16.957,-1.872
40608570,-0.007,-0.139,1,-1.067,-14.682,2.625
40608580,-0.032,-0.133,1.018,-3.692,-9.31,5.792
40608590,-0.129,-0.129,0.985,-8.732,-5.355,6.51
40608600,-0.159,-0.226,0.971,-11.637,-6.02,5.53
40608610,-0.104,-0.19,0.985,-10.972,-9.082,2.8
40608620,-0.111,-0.165,1.001,-12.635,-10.29,2.31
40608630,-0.158,-0.209,0.993,-15.19,-12.53,3.622
40608640,-0.185,-0.201,0.995,-17.045,-16.747,3.71
40608650,-0.159,-0.177,1.027,-20.142,-22.102,3.815
40608660,-0.064,-0.148,1.071,-26.547,-25.655,4.112
40608670,-0.061,-0.084,1.136,-36.19,-26.25,6.072
40608670,-0.042,-0.073,1.211,-51.467,-25.2,9.222
40608690,-0.023,-0.012,1.348,-69.58,-26.477,14.332
40608690,-0.328,0.047,1.224,-101.78,-68.442,20.457
40608710,0.556,0.052,1.407,-124.127,-78.417,37.992
40608710,-0.487,-0.209,1.363,-164.325,-47.757,58.17
40608730,-0.148,-0.027,1.26,-187.512,-44.205,24.08
40608730,0.05,-0.144,1.299,-210.157,-15.592,29.067
40608750,-0.257,-0.47,1.249,-247.94,7.245,20.702
40608750,-0.183,-0.514,1.358,-237.335,1.732,-9.03
40608760,-0.392,-0.483,1.351,-196.385,-0.42,5.477
40608770,-0.281,-0.721,0.967,-146.755,-5.442,34.58
40608780,-1.028,-0.824,0.881,-114.275,-17.185,78.33
40608790,-1.888,-0.167,0.216,-178.045,25.427,90.79
40608800,1.43,1.002,0.507,54.67,-18.795,235.48
40608810,1.993,1.682,1.059,171.027,-11.83,304.307
40608820,0.829,1.213,0.177,165.585,55.562,118.982
40608830,-0.759,0.713,-0.363,115.85,107.59,-94.727
40608840,-1.474,0.555,-0.622,88.34,123.305,-102.865
40608850,-0.979,-0.124,-0.715,59.185,135.537,-37.502
40608860,-0.338,-0.749,-0.851,34.352,142.73,43.54
40608870,0.391,-0.87,-1.012,35.682,138.582,139.527
40608880,0.169,-1.19,0.326,37.537,94.64,177.432
40608890,1.965,-1.998,1.721,88.602,-92.645,147.892
40608900,-1.371,-1.709,-0.552,226.432,-210.455,87.517
40608910,0.387,1.943,-0.281,432.407,-250.512,7.472
40608920,0.42,1.717,1.437,471.17,-260.295,193.952
40608930,-0.796,-1.425,1.989,137.9,-203.14,104.457
40608940,1.977,1.997,1.212,133.595,-179.445,-41.23
40608950,0.075,-0.967,0.94,-85.47,14.945,35.175
40608960,0.041,-0.787,0.895,-64.767,57.785,14.822
40608970,-0.21,0,0.99,-21.105,53.427,14.455
40608980,-0.542,-0.268,0.928,-30.275,50.802,6.702
40608990,-0.427,-0.364,0.919,-24.062,33.617,-11.707
40609000,-0.208,-0.193,0.955,-16.432,16.747,-16.1
40609010,-0.163,-0.179,0.949,-14.875,12.11,-10.377
40609020,-0.321,-0.287,0.901,-12.862,7.542,-5.6
40609030,-0.339,-0.23,0.921,-4.585,-4.235,-6.16
40609040,-0.245,-0.2,0.952,0.227,-15.662,-9.852
40609050,-0.079,-0.194,0.975,1.557,-21.315,-11.007
40609060,-0.031,-0.139,1.023,0.455,-19.565,-8.172
40609070,-0.068,-0.121,1.02,-5.495,-14.157,-5.215
40609080,-0.064,-0.149,1.018,-12.232,-9.24,-4.305
40609080,-0.077,-0.119,1.003,-17.675,-5.25,-5.39
40609100,-0.12,-0.19,0.946,-21.787,-2.485,-5.477
40609100,-0.145,-0.269,0.938,-19.46,-2.922,-4.252
40609120,-0.191,-0.24,0.935,-14.682,-6.107,-2.257
40609120,-0.19,-0.269,0.911,-10.185,-10.937,-0.332
40609140,-0.201,-0.269,0.926,-4.427,-15.942,0.245
40609140,-0.136,-0.209,0.972,-0.805,-20.072,0.367
40609160,-0.125,-0.201,0.987,-1.347,-21.717,0.927
40609160,-0.08,-0.185,0.997,-3.447,-22.33,1.277
40609170,-0.06,-0.199,1.002,-6.51,-20.475,1.855
40609180,-0.005,-0.172,1.048,-10.36,-16.52,2.012
40609190,0.005,-0.149,1.079,-17.482,-10.447,3.062
40609200,-0.027,-0.12,1.115,-27.58,-3.447,4.007
40609210,-0.013,-0.127,1.187,-42.595,4.042,0.175
40609220,-0.158,-0.189,1.195,-58.992,10.587,-1.4
40609230,-0.194,-0.209,1.193,-73.027,14.507,-8.26
40609240,-0.071,-0.204,1.126,-85.505,22.155,-21.14
40609250,0.106,-0.421,1.06,-88.602,38.01,-20.125
40609260,-0.229,-0.61,1.082,-86.082,56.892,-17.955
40609270,-0.186,-0.701,1.008,-89.04,62.457,-42.752
40609280,0.089,-0.918,0.919,-78.435,82.25,-69.352
40609290,0.49,-1.522,1.361,-53.55,122.955,-82.407
40609300,0.265,-1.998,1.445,10.272,139.317,-65.275
40609310,-0.36,-1.998,-0.012,122.062,34.142,-104.125
40609320,1.464,-1.389,-0.285,191.24,-76.352,-253.68
40609330,1.398,-0.855,0.173,134.907,-8.907,-333.707
40609340,-0.554,-1.661,-0.244,15.365,72.835,-425.215
40609350,-1.108,-1.869,-0.388,-10.955,66.675,-488.075
40609360,-0.803,-0.984,-0.379,-4.182,35.7,-476.525
40609370,-0.861,-0.152,-0.724,-43.312,18.742,-449.137
40609380,-1.069,1.047,-0.63,-95.882,4.112,-379.365
40609390,-0.685,1.594,-0.669,-125.02,34.685,-238.857
40609400,-0.557,1.934,1.664,-95.725,97.667,-114.292
40609410,-0.97,1.996,0.418,175.665,194.705,44.712
40609420,0.267,1.03,0.648,472.64,57.207,369.355
40609420,-1.998,-1.998,1.998,319.2,53.515,344.33
40609440,1.148,1.702,0.077,413.332,-334.512,-98.787
40609440,0.154,1.422,0.479,44.082,-134.977,-102.322
40609460,0.193,-1.998,1.551,-287.105,88.305,41.825
40609460,-0.092,0.493,0.476,1.05,-27.772,-28.017
40609480,0.299,0.098,0.973,1.96,2.52,-12.355
40609480,-0.574,-0.562,1.013,-8.802,17.272,15.522
40609500,-0.011,0.207,0.977,9.065,-1.487,-8.417
40609500,-0.058,-0.525,0.995,-8.977,4.27,-2.975
40609510,0.005,0.085,1,-1.102,4.427,-9.712
40609520,-0.209,-0.236,0.973,-10.482,8.522,-2.327
40609530,-0.334,-0.266,0.912,-7.385,0.682,-4.917
40609540,-0.16,-0.239,0.942,-0.49,-10.115,-9.222
40609550,0.041,-0.191,0.977,3.675,-13.702,-10.062
40609560,0.005,-0.198,0.965,4.322,-9.327,-6.685
40609570,-0.031,-0.118,1.006,4.095,-4.182,-2.817
40609580,-0.091,-0.186,0.971,0.297,-1.225,-0.735
40609590,-0.038,-0.177,0.991,-0.07,-0.735,-0.875
40609600,-0.044,-0.142,0.983,-1.085,1.172,-1.172
40609610,-0.071,-0.151,0.984,-3.832,3.832,-1.172
40609620,-0.111,-0.14,0.972,-5.407,4.882,-1.872
40609630,-0.137,-0.247,0.934,-6.282,4.095,-1.68
40609640,-0.134,-0.258,0.957,-1.452,0.525,0.28
40609650,-0.205,-0.152,0.969,1.54,-3.57,2.87
40609660,-0.141,-0.226,0.974,0.595,-9.082,1.645
40609670,0.026,-0.144,1.002,1.067,-11.06,0.682
40609680,-0.066,-0.166,0.998,-2.607,-7.455,3.5
40609690,-0.051,-0.097,1.033,-6.23,-5.425,3.027
40609700,0.016,-0.089,1.066,-14.385,-2.135,1.19
40609710,0.054,-0.046,1.131,-25.83,3.972,0.28
40609720,0.017,0,1.218,-44.905,12.32,-1.242
40609730,-0.034,0.006,1.366,-72.625,23.275,-5.25
40609740,-0.098,0.092,1.457,-106.347,38.535,-13.3
40609750,-0.442,-0.21,1.352,-137.602,44.94,-11.97
40609760,-0.44,-0.163,1.332,-148.347,33.267,-17.657
40609770,0.157,-0.104,1.246,-166.915,66.482,-46.795
40609780,-0.452,-0.239,1.294,-195.807,101.815,-59.412
40609790,-0.488,-0.977,1.349,-195.037,144.882,-90.282
40609800,-0.691,-1.078,1.082,-146.737,161.577,-86.397
40609810,-0.817,-1.041,0.623,-105.945,154.525,-75.057
40609820,-1.757,-1.545,-0.032,-96.18,113.295,-56.577
40609830,-1.511,-1.933,0.018,-90.317,71.347,-29.575
40609830,-1.506,-1.363,0.062,-92.627,32.672,46.165
40609850,0.851,-0.611,-0.095,-32.567,-25.585,95.375
40609850,1.735,-0.274,0.245,-20.737,-20.125,105.21
40609870,0.8,-0.064,0.042,-37.922,-3.517,50.942
40609870,0.252,0.42,-0.193,-15.68,-8.715,3.657
40609890,0.092,0.851,-0.531,14.315,-24.377,16.24
40609890,0.08,1.302,-0.793,23.187,-24.272,58.765
40609910,0.199,1.41,-1.189,25.707,-12.372,139.667
40609910,0.222,1.281,-1.051,10.587,-6.422,245.91
40609920,-0.303,-0.679,0.961,-64.33,-65.555,260.61
40609930,0.617,-1.998,1.752,3.395,-249.06,174.387
40609940,-1.731,-1.544,0.516,368.655,-290.15,195.877
40609950,0.489,1.972,0.103,559.16,-281.697,24.307
40609960,-0.377,0.493,1.779,359.677,-204.137,86.66
40609970,0.027,-0.671,1.856,148.715,-213.115,40.862
40609980,1.749,1.938,1.268,143.552,-165.532,-33.757
40609990,-0.34,-1.706,1.176,-120.015,41.422,55.142
40610000,0.077,-0.078,0.83,-67.182,42.91,2.59
40610010,0.123,-0.701,0.886,-58.345,54.232,-4.392
40610020,-0.331,-0.345,0.891,-38.745,58.8,-1.995
40610030,-0.684,-0.28,0.882,-26.162,45.71,-3.552
40610040,-0.401,-0.339,0.852,-20.405,21.14,-17.15
40610050,-0.113,-0.391,0.812,-6.002,5.775,-20.72
40610060,-0.325,-0.415,0.877,10.062,-2.45,-8.627
40610070,-0.378,-0.087,1.023,22.925,-16.677,-3.71
40610080,-0.189,-0.131,1.023,15.242,-26.67,-8.12
40610090,-0.015,-0.135,1.02,8.82,-29.487,-8.925
40610100,0.044,-0.157,1.008,3.377,-24.167,-5.757
40610110,0.014,-0.196,0.985,-0.875,-15.155,-0.14
40610120,-0.071,-0.184,0.984,-2.52,-8.575,2.52
40610130,-0.048,-0.149,0.983,-5.302,-4.707,2.065
40610140,0.013,-0.236,0.982,-9.187,0.245,1.347
40610150,-0.018,-0.165,0.983,-9.765,6.737,3.027
40610160,-0.117,-0.235,0.964,-12.11,11.777,4.392
40610170,-0.185,-0.27,0.942,-11.025,11.095,2.765
40610170,-0.079,-0.195,0.982,-8.435,9.012,0.35
40610190,-0.091,-0.191,1.02,-10.78,10.36,0.227
40610190,-0.115,-0.111,1.062,-16.222,12.547,0.14
40610210,-0.092,-0.108,1.096,-27.457,15.277,-1.715
40610210,-0.108,-0.108,1.133,-39.725,18.917,-3.902
40610230,-0.096,-0.102,1.225,-53.62,24.045,-6.457
40610230,-0.189,-0.125,1.225,-70.297,26.057,-8.89
40610250,-0.15,-0.076,1.303,-86.397,24.552,-14
40610250,-0.061,-0.108,1.136,-104.422,38.535,-28.175
40610260,0.265,-0.159,1.212,-130.725,75.197,-35.682
40610270,-0.197,-0.148,1.233,-155.907,130.83,-43.47
40610280,-0.1,-0.135,1.142,-182.56,145.582,-67.112
40610290,0.352,-0.22,1.223,-190.19,177.135,-79.572
40610300,0.521,-0.595,1.336,-186.865,216.825,-72.45
40610310,0.265,-0.95,1.15,-165.655,258.335,-62.405
40610320,-0.202,-0.867,0.941,-123.462,245.42,-50.785
40610330,-0.443,-1.187,1.247,-81.06,201.39,-39.567
40610340,-0.518,-1.184,0.786,-3.482,85.277,-52.762
40610350,-0.462,-0.189,0.933,28.822,-43.085,-123.48
40610360,1.143,0.282,0.374,82.232,-83.44,-128.397
40610370,-0.197,1.506,0.443,97.65,-62.125,-123.515
40610380,-1.196,1.255,0.012,37.992,-13.265,-133.595
40610390,-0.767,1.301,-0.17,66.867,-27.09,-39.357
40610400,0.16,1.525,-0.157,100.485,-35.367,59.955
40610410,0.188,1.044,-0.307,102.445,-21.857,133.577
40610420,0.148,0.113,-0.309,86.485,7.49,128.87
40610430,-0.133,-0.4,-0.53,86.975,19.11,85.067
40610440,0.251,-1.241,0.344,87.867,34.352,40.46
40610450,-1.815,-1.998,-1.177,52.01,-39.9,113.715
40610460,-1.186,-1.995,0.965,190.382,-219.817,142.695
40610470,1.989,1.467,-0.288,533.4,-357.857,-150.272
40610480,-1.67,1.649,1.637,427.63,-343.262,47.075
40610490,0.381,-1.775,1.996,65.607,-240.695,14.7
40610500,1.716,1.949,0.535,120.417,-201.652,-67.672
40610510,0.182,-0.61,0.83,-109.305,35.91,7.07
40610520,-0.332,-0.818,1.075,-73.027,78.435,33.46
40610530,0.024,0.988,0.987,-13.72,54.215,-10.062
40610540,-0.86,-0.945,0.972,-60.497,68.88,-0.402
40610550,-0.1,0.047,0.936,-30.852,36.26,-24.132
40610560,-0.27,-0.45,0.891,-36.592,31.5,-15.295
40610570,-0.271,-0.242,0.961,-25.13,22.225,-11.095
40610580,-0.209,-0.096,0.95,-22.767,15.26,-10.692
40610580,-0.345,-0.325,0.914,-26.81,11.48,-7.192
40610600,-0.289,-0.274,0.853,-17.955,-0.35,-11.62
40610600,-0.167,-0.354,0.907,-8.592,-9.677,-11.147
40610620,-0.108,-0.201,0.971,-0.717,-14.052,-7.997
40610620,-0.084,-0.159,0.987,-0.927,-12.722,-5.215
40610630,-0.156,-0.205,0.997,-4.987,-9.572,-1.925
40610640,-0.125,-0.179,0.99,-8.015,-9.38,-3.36
40610650,-0.057,-0.195,1.029,-11.952,-7.56,-3.255
40610660,-0.086,-0.11,1.079,-18.392,-3.517,-1.96
40610670,-0.235,-0.152,1.056,-30.17,-2.1,-0.735
40610680,-0.325,-0.236,0.97,-37.642,-8.715,-4.077
40610690,-0.273,-0.246,1.008,-37.292,-18.83,-9.17
40610700,-0.186,-0.191,1.036,-38.027,-27.142,-13.125
40610710,-0.186,-0.199,1.044,-42.087,-31.377,-14.577
40610720,-0.156,-0.188,1.084,-48.492,-35.525,-15.137
40610730,-0.087,-0.201,1.126,-59.202,-33.687,-16.415
40610740,-0.025,-0.155,1.133,-73.605,-22.995,-19.162
40610750,0.05,-0.139,1.155,-92.4,1.767,-22.382
40610760,-0.167,-0.167,1.256,-113.207,30.957,-27.737
40610770,-0.158,-0.176,1.171,-136.062,29.627,-39.69
40610780,0.182,-0.077,1.204,-157.57,41.807,-42.105
40610790,0.196,-0.111,1.163,-186.637,59.57,-36.365
40610800,0.029,-0.304,1.142,-208.11,70.07,-35.63
40610810,0.146,-0.458,1.22,-202.632,69.317,-29.435
40610820,0.079,-0.713,1.229,-186.987,76.895,-6.702
40610830,-0.209,-0.875,1.088,-159.932,78.977,11.812
40610840,-0.325,-0.528,0.824,-111.947,55.685,20.93
40610850,-0.109,-0.035,0.697,-67.287,32.62,23.082
40610860,-0.171,-0.013,0.823,-41.615,26.197,27.982
40610870,-0.183,0.022,0.477,-5.285,4.602,26.337
40610880,0.354,0.365,1.282,49.56,2.782,29.015
40610890,-0.105,0.945,0.526,134.032,-48.58,0.105
40610900,0.185,1.252,0.294,160.212,-23.992,-12.232
40610910,-0.371,0.837,-0.016,168.017,5.022,34.79
40610920,-0.305,0.903,-0.494,179.217,-8.837,63.542
40610920,0.177,0.907,-0.382,153.737,-9.047,102.2
40610940,0.004,0.168,-0.231,92.452,5.915,119.28
40610940,0.442,-0.932,0.432,57.277,1.015,98.997
40610960,-0.391,-1.998,-0.414,55.685,14.175,189.892
40610960,-1.837,-1.998,1.616,86.292,-96.967,277.97
40610980,1.7,0.997,-1.382,441.892,-305.235,-142.1
40610980,-0.77,1.997,1.836,459.62,-160.982,4.742
40611000,-1.913,-1.258,1.976,81.182,-125.685,141.05
40611000,1.633,0.601,1.263,112.717,-212.87,-70.28
40611010,1.456,0.795,1.026,31.115,-94.972,-49.437
40611020,0.082,-1.683,1.147,-83.72,39.497,43.452
40611030,0.093,0.732,0.974,-19.967,32.83,-1.89
40611040,0.025,-0.399,1.239,-55.457,56.787,21.822
40611050,-0.276,0.202,1.029,-66.307,58.835,4.497
40611060,-0.479,-0.442,0.711,-78.33,52.675,-0.997
40611070,-0.401,-0.892,0.619,-53.165,31.5,-6.387
40611080,-0.284,-0.405,0.726,-7.245,10.115,-8.89
40611090,-0.308,-0.319,0.917,11.48,-0.822,-0.612
40611100,-0.362,-0.144,0.945,18.795,-13.545,-2.975
40611110,-0.073,-0.279,0.992,17.01,-21.507,-7.017
40611120,0.105,-0.105,1.076,16.047,-19.39,-7.857
40611130,0.042,-0.063,1.081,5.145,-6.212,-2.835
40611140,-0.063,-0.116,1.077,-8.575,5.18,0.07
40611150,-0.062,-0.106,1.071,-19.985,11.095,-1.47
40611160,-0.136,-0.181,1.002,-30.065,15.627,-1.575
40611170,-0.159,-0.243,0.96,-33.302,16.485,-2.152
40611180,-0.26,-0.258,0.931,-30.38,12.67,-2.835
40611190,-0.269,-0.279,0.914,-26.862,5.285,-4.042
40611200,-0.29,-0.308,0.858,-21.017,-4.602,-5.897
40611210,-0.206,-0.336,0.885,-13.842,-13.545,-6.545
40611220,-0.198,-0.28,0.943,-7.822,-19.827,-5.005
40611230,-0.153,-0.21,1.028,-7.262,-23.485,-4.305
40611240,-0.197,-0.159,1.09,-13.65,-25.497,-4.462
40611250,-0.213,-0.146,1.141,-24.482,-28.017,-8.382
40611260,-0.139,-0.1,1.182,-38.115,-28.927,-14.297
40611270,0.08,-0.132,1.203,-54.985,-16.292,-19.18
40611280,-0.203,-0.097,1.234,-75.04,18.69,-27.352
40611280,-0.058,-0.121,1.245,-100.415,42.875,-45.815
40611300,0.023,-0.126,1.267,-127.277,74.165,-61.162
40611300,0.002,-0.153,1.226,-157.745,100.485,-74.935
40611320,0.044,-0.15,1.215,-186.41,127.61,-83.947
40611320,0.132,-0.068,1.271,-202.405,145.862,-97.282
40611330,0.426,-0.25,1.508,-214.112,172.06,-99.417
40611340,0.281,-1.121,1.58,-211.452,239.067,-74.025
40611350,-0.911,-1.433,1.131,-159.302,278.967,-42.56
40611360,-0.455,-0.471,0.719,-49.962,210.682,-50.785
40611370,0.229,0.707,0.367,39.567,152.267,-60.322
40611380,1.245,0.344,1.105,70.927,118.107,-81.62
40611390,-0.065,-0.273,0.75,118.772,33.617,-114.59
40611400,0.045,0.548,-0.062,165.585,-33.757,-153.947
40611410,0.001,0.793,-0.251,157.185,-46.427,-76.44
40611420,-0.062,0.165,-0.884,125.667,-67.27,29.12
40611430,0.716,-0.17,-0.599,92.557,-75.145,89.232
40611440,0.269,-0.915,-0.486,34.195,-45.552,119.595
40611450,-0.106,-1.222,-0.641,-3.465,-65.1,93.31
40611460,0.892,-1.349,0.451,-8.75,-62.667,91.77
40611470,-1.639,-1.998,0.175,-23.992,-34.562,169.365
40611480,-1.778,-1.998,0.892,149.082,-235.06,319.83
40611490,1.71,0.851,0.145,378.56,-295.96,75.39
40611500,0.346,1.996,1.178,383.915,-182.122,34.755
40611510,-1.991,-1.328,1.481,127.032,-92.505,68.25
40611520,1.49,0.08,1.988,208.635,-301.087,-77.192
40611530,1.964,1.652,1.461,123.725,-203.595,-82.915
40611540,0.53,-0.761,1.235,-43.33,-10.99,32.602
40611550,-0.073,0.084,0.958,-39.445,29.435,23.485
40611560,-0.153,-0.686,0.926,-44.765,34.352,13.492
40611570,-0.158,-0.198,0.882,-24.727,29.312,-1.697
40611580,-0.349,-0.478,0.87,-17.167,25.952,1.68
40611590,-0.125,-0.22,0.954,-2.047,13.65,-3.727
40611600,-0.118,-0.166,0.989,-0.63,11.322,-3.062
40611610,-0.251,-0.245,0.933,-1.925,9.765,-1.732
40611620,-0.259,-0.228,0.971,1.347,2.38,-4.182
40611630,-0.054,-0.101,1.022,1.347,-3.692,-8.137
40611640,-0.086,-0.206,0.99,-5.127,-1.067,-5.075
40611650,-0.159,-0.233,0.961,-6.107,0,-1.977
40611660,-0.086,-0.2,0.993,-5.022,-1.715,-1.68
40611670,-0.124,-0.166,0.99,-6.947,-0.927,1.05
40611670,-0.246,-0.234,0.963,-9.345,-2.8,2.905
40611690,-0.207,-0.235,0.968,-8.382,-10.027,0.157
40611690,-0.118,-0.176,1.008,-8.61,-15.207,-2.467
40611710,-0.121,-0.195,1.014,-13.002,-16.257,-3.027
40611710,-0.144,-0.192,1.034,-17.762,-17.202,-5.81
40611730,-0.092,-0.125,1.119,-25.025,-18.13,-12.005
40611730,0,-0.055,1.203,-37.922,-15.522,-19.88
40611750,-0.121,0.03,1.321,-52.01,-6.44,-28.857
40611750,-0.278,-0.079,1.233,-66.622,2.695,-46.112
40611760,0.114,-0.251,1.102,-80.71,57.155,-62.352
40611770,-0.518,-0.242,1.08,-98.857,105.98,-84.332
40611780,-0.169,-0.432,1.091,-120.102,142.222,-120.837
40611790,0.212,-0.471,1.074,-117.81,186.602,-150.01
40611800,0.677,-0.852,1.085,-105.892,241.01,-176.505
40611810,0.524,-1.593,0.845,-72.52,324.852,-172.83
40611820,0.185,-1.995,0.072,-14.07,382.655,-165.025
40611830,-1.72,-1.998,0.267,15.47,354.602,-148.365
40611840,-1.171,-1.998,-0.248,137.392,133.105,-215.425
40611850,-0.418,-1.014,-0.58,180.477,-27.247,-288.365
40611860,-0.903,-0.366,-0.549,52.097,27.877,-212.52
40611870,-1.92,-0.807,-0.462,-65.59,39.48,-61.652
40611880,-0.696,-0.931,-0.278,-98.892,20.282,73.255
40611890,0.412,-0.407,-0.315,-103.005,16.52,175.892
40611900,0.499,0.409,-0.322,-144.742,16.362,195.405
40611910,1.028,0.749,0.474,-203.612,50.592,128.467
40611920,0.719,0.741,0.533,-225.732,71.05,86.975
40611930,0.369,1.469,0.38,-182.7,21.997,51.345
40611940,-1.345,1.747,1.942,-147,-79.975,10.535
40611950,-0.712,1.97,0.751,38.745,-379.487,80.832
40611960,1.145,0.202,1.21,439.617,-430.412,366.712
40611970,-1.756,-1.998,1.148,230.877,-222.442,275.152
40611980,-1.893,-0.062,0.361,383.617,-262.692,75.425
40611990,-0.621,1.553,1.869,456.592,-421.382,28.052
40612000,1.608,-1.079,1.998,198.362,-340.532,-3.237
40612010,1.635,1.978,1.081,128.187,-183.925,-32.007
40612010,0.611,-1.361,1.245,-68.722,11.322,43.085
40612030,0.154,0.256,0.927,-44.66,38.465,15.172
40612030,-0.109,-0.649,0.894,-50.855,58.205,20.79
40612050,-0.117,-0.222,0.911,-33.775,56.42,14.035
40612050,-0.602,-0.56,0.879,-23.1,49.717,19.075
40612070,-0.346,-0.106,0.992,-9.222,27.807,2.52
40612070,-0.057,-0.121,1.004,-15.977,19.32,-8.19
40612080,-0.27,-0.335,0.826,-18.55,20.212,-5.775
40612090,-0.466,-0.387,0.858,-6.037,10.255,-3.307
40612100,-0.335,-0.127,0.982,5.915,-8.295,-7.647
40612110,-0.204,-0.235,0.922,1.61,-16.975,-12.442
40612120,-0.089,-0.2,0.983,4.725,-21.192,-11.97
40612130,0.096,-0.149,1.014,3.517,-17.885,-9.642
40612140,-0.056,-0.166,1.002,-2.415,-6.772,-2.082
40612150,-0.098,-0.118,1.027,-7.035,-0.542,1.155
40612160,-0.118,-0.096,1.073,-15.032,2.152,1.067
40612170,-0.024,-0.07,1.061,-28.175,5.88,-3.57
40612180,-0.105,-0.21,0.954,-39.725,12.32,-3.955
40612190,-0.303,-0.351,0.811,-38.71,11.795,-4.707
40612200,-0.322,-0.412,0.806,-24.797,2.135,-5.25
40612210,-0.253,-0.307,0.844,-10.01,-9.117,-7.157
40612220,-0.194,-0.301,0.86,0.402,-16.485,-6.282
40612230,-0.142,-0.299,0.951,8.365,-20.457,-3.762
40612240,-0.103,-0.149,1.049,10.29,-21.91,-2.485
40612250,-0.119,-0.146,1.068,1.977,-20.247,-1.015
40612260,-0.062,-0.131,1.074,-8.557,-18.672,-2.292
40612270,0.034,-0.119,1.144,-20.615,-13.335,-2.415
40612280,0.066,-0.042,1.239,-37.345,-3.465,-0.192
40612290,0.004,-0.059,1.318,-60.06,8.382,4.077
40612300,-0.092,-0.055,1.373,-85.522,15.522,8.715
40612310,-0.025,0.01,1.351,-113.4,23.135,9.992
40612320,-0.105,-0.107,1.323,-144.69,33.215,11.917
40612330,0.18,-0.141,1.262,-172.952,43.505,8.645
40612340,-0.034,-0.088,1.244,-206.062,65.415,5.337
40612350,-0.211,-0.1,1.169,-237.965,66.307,-3.342
40612360,0.045,-0.202,1.262,-252.07,70.875,-16.922
40612370,0.201,-0.51,1.389,-250.932,84.787,-10.01
40612380,-0.22,-1.114,1.48,-219.887,102.655,13.282
40612390,-0.625,-1.213,1.08,-158.06,90.615,10.832
40612400,-0.642,-0.403,0.901,-81.935,41.965,2.852
40612410,-0.099,0.194,0.712,-19.95,1.207,-6.877
40612420,0.237,0.658,0.921,16.135,-0.542,-15.015
40612420,-0.169,0.974,0.72,75.81,-3.64,-34.387
40612440,-0.135,1.792,0.24,118.422,-12.582,-66.22
40612440,-0.366,1.729,0.237,122.552,30.957,-17.132
40612460,-0.639,1.03,0.097,130.147,53.952,67.445
40612460,-0.255,0.581,-0.526,175.332,27.09,142.205
40612480,0.642,0.666,-0.78,187.915,3.307,187.757
40612480,0.878,-0.292,-0.402,103.897,48.825,183.855
40612500,-0.192,-1.565,-0.532,35.367,54.547,129.447
40612500,0.664,-1.984,0.229,28.63,26.862,53.095
40612510,-1.49,-1.998,-0.704,2.432,-43.085,160.93
40612520,-0.974,-1.775,1.216,207.865,-267.977,183.05
40612530,1.925,1.903,-0.262,533.662,-366.555,-162.155
40612540,-1.626,1.878,1.899,404.477,-287.052,81.217
40612550,-1.025,-1.96,1.398,-60.515,-168.49,61.39
40612560,1.998,1.333,0.904,182.56,-271.425,-137.357
40612570,0.923,0.152,1.02,-24.307,-24.5,0.682
40612580,-0.585,-1.334,1.155,-110.722,79.03,45.325
40612590,0.586,1.209,1.054,-22.505,40.372,-20.86
40612600,-0.428,-0.764,1.186,-85.015,78.907,6.947
40612610,-0.284,0.278,1.096,-75.722,68.88,-13.265
40612620,-0.512,-0.18,0.877,-91.647,66.535,-22.942
40612630,-0.783,-0.72,0.54,-74.445,38.727,-32.725
40612640,-0.202,-0.755,0.575,-38.395,6.842,-36.907
40612650,-0.134,-0.438,0.627,-4.27,-8.872,-23.397
40612660,-0.336,-0.475,0.768,16.187,-16.047,-6.545
40612670,-0.375,-0.318,0.928,33.25,-30.537,-4.34
40612680,-0.006,-0.113,1.141,37.362,-40.565,-7.875
40612690,0.132,-0.001,1.167,21.542,-33.88,-4.865
40612700,-0.004,-0.17,1.107,1.015,-19.092,0.752
40612710,-0.033,-0.08,1.136,-12.442,-9.817,1.225
40612720,0.009,-0.095,1.134,-29.435,-1.505,1.627
40612730,-0.018,-0.199,1.019,-44.1,7.77,3.237
40612740,-0.097,-0.286,0.915,-48.23,14.49,5.442
40612750,-0.193,-0.322,0.815,-43.277,15.19,5.775
40612760,-0.247,-0.378,0.779,-30.73,11.882,3.5
40612760,-0.233,-0.434,0.753,-16.152,6.912,2.135
40612780,-0.196,-0.378,0.81,-0.052,1.417,0.91
40612780,-0.165,-0.291,0.93,8.522,-1.452,1.592
40612800,-0.272,-0.238,0.93,10.99,-5.495,1.015
40612800,-0.189,-0.315,0.954,11.76,-11.112,-1.172
40612820,-0.18,-0.261,0.982,12.46,-15.802,-2.03
40612820,-0.164,-0.228,1.013,10.517,-20.107,-0.927
40612830,-0.213,-0.23,0.993,5.53,-23.642,-2.012
40612840,-0.155,-0.236,1.018,1.487,-26.495,-5.565
40612850,-0.084,-0.222,1.103,-5.092,-26.092,-6.895
40612860,-0.086,-0.153,1.184,-16.082,-23.012,-6.912
40612870,-0.041,-0.1,1.25,-32.497,-15.19,-7.56
40612880,-0.104,-0.091,1.25,-53.34,3.885,-10.447
40612890,-0.094,-0.19,1.265,-78.767,14.367,-13.912
40612900,0.182,-0.123,1.259,-100.975,33.74,-18.34
40612910,0.176,-0.27,1.167,-117.267,54.127,-7.21
40612920,0.21,-0.572,1.16,-128.257,76.86,-10.185
40612930,0.39,-0.818,1.163,-118.247,105.542,-14.542
40612940,0.254,-1.021,1.011,-93.992,132.212,-7.647
40612950,-0.032,-1.329,1.043,-68.687,155.295,-1.802
40612960,-0.856,-1.813,0.749,-29.225,118.51,5.092
40612970,-1.031,-1.998,-0.096,16.012,14.49,7.367
40612980,1.264,-1.958,-0.481,77.297,-39.182,-14.927
40612990,0.48,-0.932,-0.373,76.912,-35.105,-59.132
40613000,-0.399,-1.175,-0.604,-0.35,26.11,-91
40613010,-0.293,-1.478,-0.434,-16.397,46.935,-95.917
40613020,0.143,-0.765,-0.451,16.397,37.257,-110.757
40613030,0.283,0.095,-0.732,31.202,41.667,-117.285
40613040,0.079,0.479,-0.833,2.45,68.652,-100.1
40613050,-0.325,0.356,-1.276,-36.575,75.127,-60.217
40613060,-0.975,1.372,0.255,-61.425,53.532,-22.855
40613070,-1.719,1.96,1.245,34.86,53.952,12.075
40613080,-0.646,1.799,-0.24,456.75,-232.172,332.185
40613090,-1.333,-1.813,1.838,404.04,-158.112,411.652
40613100,-0.821,0.035,1.968,321.317,-383.775,72.835
40613110,1.998,1.997,1.807,237.457,-342.947,-81.445
40613120,-0.32,0.039,0.758,-63.577,-32.182,13.23
40613130,-0.092,-1.157,1.196,-96.687,58.572,36.12
40613140,-0.068,0.39,0.923,-46.55,30.397,0.175
40613150,0.015,-0.984,0.839,-57.26,36.295,3.885
40613160,-0.267,-0.3,0.848,-11.515,27.965,7.525
40613170,-0.731,-0.43,0.901,1.102,15.33,17.062
40613170,-0.071,-0.046,1.028,7.84,-6.195,-3.342
40613190,0.025,-0.189,0.987,-2.345,-4.112,-7.28
40613190,-0.245,-0.259,0.952,-2.275,0.192,-2.607
40613210,-0.363,-0.099,0.946,0.332,-5.775,-7.052
40613210,-0.034,-0.261,0.978,-2.572,-14.245,-15.767
40613230,0.136,-0.041,1.035,-1.557,-10.832,-15.155
40613230,0.876,-0.018,1.086,-9.415,9.695,-4.235
40613250,-0.747,-0.327,0.876,-18.462,46.322,18.375
40613250,-0.788,-0.401,0.826,-15.172,4.112,-13.842
40613260,0.721,-0.061,1.044,-0.525,-31.57,-37.817
40613270,-0.064,-0.169,1.011,-7.612,-2.695,-3.832
40613280,-0.267,-0.073,1.017,-12.075,6.93,3.885
40613290,-0.29,-0.226,0.987,-20.947,0.542,-2.66
40613300,-0.166,-0.171,1.03,-24.465,-7.28,-6.282
40613310,-0.169,-0.134,1.088,-33.197,-9.222,-6.3
40613320,-0.138,-0.067,1.189,-46.812,-9.205,-7.647
40613330,-0.11,0.023,1.319,-68.092,-5.477,-11.917
40613340,-0.151,-0.047,1.347,-94.167,1.295,-16.047
40613350,-0.195,-0.11,1.369,-114.555,3.255,-17.692
40613360,-0.036,-0.06,1.312,-131.617,16.362,-26.845
40613370,0.125,-0.113,1.274,-164.78,42.14,-25.287
40613380,0.141,-0.057,1.412,-193.515,88.042,-20.912
40613390,0.003,0.11,1.266,-230.895,97.982,-28.595
40613400,0.295,-0.093,1.269,-267.942,119.315,-42.927
40613410,-0.078,-0.557,1.398,-285.162,117.075,-28.997
40613420,-0.124,-1.027,1.458,-254.345,100.187,-24.22
40613430,-0.176,-0.922,1.102,-175.857,67.41,6.877
40613440,-0.433,-0.583,1.512,-85.347,56.297,50.942
40613450,-0.917,0.524,0.488,13.02,-15.697,63.665
40613460,0.517,1.113,0.73,53.322,-71.68,58.327
40613470,0.754,0.591,0.323,66.605,-47.127,80.797
40613480,0.245,0.271,0.041,98.787,-28.525,50.015
40613490,-0.254,0.272,-0.677,110.11,-27.93,-17.412
40613500,-0.4,0.342,-1.218,107.082,-32.322,-6.947
40613510,-0.463,-0.062,-1.163,67.55,-17.255,41.615
40613510,-0.573,-1.161,-1.258,19.215,3.307,72.502
40613530,-0.316,-1.441,-1.451,12.792,-5.092,84.21
40613530,0.258,-1.534,-1.251,5.88,2.38,83.912
40613550,-0.297,-1.955,1.416,-13.737,41.79,72.082
40613550,-1.354,-1.998,-0.194,201.582,-37.502,179.725
40613570,-1.667,0.004,0.027,452.462,-256.812,94.027
40613570,1.467,1.997,0.96,542.465,-235.532,-10.29
40613580,-1.898,-0.393,1.855,286.142,-241.71,123.375
40613590,1.126,-0.066,1.801,178.745,-275.187,-67.62
40613600,1.508,1.767,0.859,97.317,-129.307,-53.445
40613610,-0.226,-1.869,1.254,-130.515,80.955,42.315
40613620,-0.188,0.566,0.857,-42.945,59.797,-11.13
40613630,-0.072,-0.586,0.894,-53.672,67.83,0.332
40613640,-0.906,-0.75,0.753,-36.61,54.267,1.785
40613650,-0.501,-0.254,0.904,-7.647,18.235,-9.695
40613660,-0.07,-0.249,0.943,-4.55,-1.925,-18.62
40613670,-0.206,-0.337,0.835,1.872,-6.177,-15.137
40613680,-0.343,-0.373,0.933,14.525,-13.562,-9.852
40613690,-0.051,0.089,1.063,20.755,-22.785,-10.605
40613700,-0.017,-0.172,1.006,4.515,-16.625,-9.047
40613710,0.56,-0.172,1.028,0.927,-4.952,-4.847
40613720,-0.449,0.013,1.052,-5.145,22.137,12.687
40613730,-0.424,-0.266,0.939,-16.835,15.522,3.552
40613740,0.066,-0.303,0.954,-13.562,0.402,-10.185
40613750,-0.158,-0.136,1.011,-9.59,2.397,-1.837
40613760,-0.226,-0.13,1.014,-15.225,1.452,-2.572
40613770,-0.163,-0.202,0.964,-21.612,-2.485,-8.26
40613780,-0.268,-0.305,0.932,-22.4,-6.737,-7.875
40613790,-0.33,-0.244,0.97,-18.812,-16.625,-10.937
40613800,-0.223,-0.185,1.009,-18.55,-27.58,-18.41
40613810,-0.172,-0.14,1.073,-21.7,-34.02,-23.782
40613820,-0.248,-0.042,1.189,-29.662,-38.622,-28.7
40613830,-0.33,0.04,1.256,-46.795,-44.17,-37.397
40613840,-0.329,-0.079,1.273,-67.427,-42.227,-50.085
40613850,-1.011,-0.114,1.177,-84.752,-9.73,-77.717
40613860,-0.89,-0.305,1.276,-109.48,-8.47,-116.9
40613870,-0.493,-0.394,1.313,-133.665,20.002,-148.54
40613880,-0.125,-0.473,1.255,-168.315,67.795,-184.887
40613890,-1.182,-0.846,1.195,-210.717,145.722,-221.235
40613900,-1.577,-0.907,1.048,-179.445,165.252,-259.052
40613910,-0.597,-1.436,1.098,-120.47,196.402,-227.727
40613920,-1.998,-1.133,-0.134,-97.982,200.935,-146.405
40613920,-1.998,-0.703,0.659,-147.665,145.407,-99.33
40613930,-0.595,-0.869,0.205,-89.95,144.882,134.4
40613940,1.96,-0.351,0.286,77.875,106.592,284.602
40613950,1.998,0.533,0.256,108.08,122.762,217.805
40613960,1.802,1.121,-0.215,49.717,135.415,110.337
40613970,0.992,1.158,-0.402,-18.41,103.862,19.46
40613980,0.639,0.695,-0.509,-46.112,40.232,39.847
40613990,0.494,-0.036,-0.563,-41.02,-5.46,134.837
40614000,0.85,-0.775,-0.775,-36.347,-14.98,238.402
40614010,-0.792,-1.578,0.469,-56.192,-56.612,293.177
40614020,1.09,-1.998,1.66,4.287,-271.04,218.4
40614030,-0.249,-0.514,0.456,338.467,-320.285,212.747
40614040,-1.687,1.997,1.052,461.65,-259.595,212.275
40614050,-1.416,-0.279,1.964,303.642,-323.26,167.3
40614060,0.662,-0.043,1.98,171.815,-354.077,-24.22
40614070,1.585,1.842,1.354,101.937,-192.465,3.307
40614080,0.252,-1.53,1.176,-92.312,12.337,38.377
40614090,-0.491,-0.044,0.815,-45.587,28.857,20.177
40614100,-0.047,-0.413,0.93,-36.662,27.527,5.267
40614110,-0.417,-0.55,0.834,-27.51,19.197,-7.472
40614120,-0.116,-0.278,0.928,-9.397,10.097,-10.08
40614130,-0.225,-0.238,0.933,-4.445,7.297,-4.13
40614140,-0.302,-0.271,0.876,0.087,1.522,-3.062
40614150,0.576,-0.457,0.909,9.292,2.467,4.83
40614160,-0.868,-0.066,1.04,22.61,16.992,29.68
40614170,-1.182,0.11,0.954,9.222,-12.18,-3.937
40614180,0.373,-0.396,1.01,-6.142,-44.17,-46.322
40614190,0.424,-0.084,0.965,-0.665,-30.817,-32.917
40614200,-0.018,-0.212,0.987,-2.24,-3.132,-0.542
40614210,-0.326,-0.203,0.935,-1.767,2.94,6.44
40614220,-0.306,-0.295,0.919,0.315,-5.967,1.627
40614230,-0.114,-0.178,0.964,5.635,-14.315,-0.332
40614240,-0.145,-0.159,0.98,5.512,-15.277,4.567
40614250,-0.127,-0.137,1,3.29,-15.487,8.785
40614260,-0.148,-0.12,1.012,-1.067,-14.927,12.32
40614260,-0.123,-0.133,1.013,-6.65,-14.542,14.595
40614280,-0.115,-0.143,1.045,-12.302,-13.737,16.187
40614280,-0.023,-0.049,1.117,-21.647,-10.5,15.242
40614300,-0.002,-0.106,1.187,-39.567,-1.435,13.72
40614300,0.085,-0.061,1.305,-60.095,11.865,9.835
40614320,0.08,-0.071,1.448,-87.237,33.67,3.622
40614320,0.027,-0.105,1.414,-117.792,55.352,-3.377
40614330,-0.029,-0.093,1.362,-153.37,64.487,-8.907
40614340,0.399,0.011,1.333,-184.327,66.57,1.732
40614350,-0.045,-0.464,1.184,-197.96,88.06,23.782
40614360,-0.017,-0.616,1.339,-196.665,115.675,0.822
40614370,-0.242,-0.893,0.937,-179.672,127.645,-6.247
40614380,-0.33,-1.043,0.726,-142.835,99.925,7.035
40614390,-0.636,-1.799,0.265,-112.052,59.115,48.65
40614400,-1.912,-1.998,-0.021,-99.592,-24.01,86.957
40614410,-0.455,-1.292,-0.356,-40.565,-88.41,87.202
40614420,0.964,0.16,0.472,-2.362,-70.822,116.515
40614430,0.371,-0.067,0.374,-35.805,4.41,104.352
40614440,-0.153,-0.051,0.27,-32.305,55.247,47.127
40614450,-0.017,0.562,0.217,17.64,60.305,-2.782
40614460,0.199,1.23,-0.107,67.515,58.345,-39.532
40614470,0.218,1.56,-0.335,81.707,59.412,-69.72
40614480,0.132,1.245,-0.405,53.865,57.172,-83.842
40614490,0.274,0.643,-0.377,30.31,53.532,-81.532
40614500,0.22,0.33,-0.145,19.6,41.405,-75.022
40614510,-0.874,-1.405,1.83,-0.437,53.69,-18.217
40614520,-1.998,-1.998,-0.683,147.35,-126.542,182.63
40614530,0.312,-0.865,0.805,361.602,-259.507,90.895
40614540,1.073,1.997,1.059,504.42,-210.157,67.935
40614550,-1.998,0.397,1.456,285.582,-187.967,159.285
40614560,0.295,-0.731,1.942,119.052,-273.91,-33.635
40614570,1.952,1.996,1.395,142.957,-230.772,-96.862
40614580,0.152,-1.088,1.167,-75.127,10.132,25.305
40614580,-0.127,-0.066,0.935,-58.607,50.085,18.147
40614600,-0.107,-0.516,0.914,-49.77,48.405,4.392
40614600,-0.314,-0.411,0.845,-34.895,42.315,-0.7
40614620,-0.548,-0.403,0.917,-19.477,29.697,0.455
40614620,-0.231,-0.112,1.007,-14.28,12.162,-8.645
40614640,-0.09,-0.115,1.001,-22.75,10.832,-14.42
40614640,-0.202,-0.275,0.883,-25.392,13.247,-14.28
40614660,-0.354,-0.388,0.797,-16.222,7.402,-15.032
40614660,-0.255,-0.424,0.865,1.33,-6.422,-16.59
40614670,-0.015,-0.194,1.006,12.88,-13.195,-15.05
40614680,-0.127,-0.13,1.017,9.345,-8.697,-8.977
40614690,-0.157,-0.184,0.976,3.307,-5.827,-7.385
40614700,-0.198,-0.249,0.942,1.05,-5.722,-5.81
40614710,-0.174,-0.21,0.979,1.75,-8.015,-4.287
40614720,-0.13,-0.172,0.983,0.927,-9.257,-2.397
40614730,-0.154,-0.209,0.959,-2.327,-8.137,0.122
40614740,-0.182,-0.224,0.97,-2.922,-8.96,3.185
40614750,-0.201,-0.199,0.962,-3.08,-11.497,5.635
40614760,-0.196,-0.221,0.97,-4.445,-14.56,7.857
40614770,-0.167,-0.189,1.004,-5.757,-17.832,8.977
40614780,-0.083,-0.13,1.059,-10.745,-17.902,10.447
40614790,-0.026,-0.063,1.161,-21.7,-13.16,12.845
40614800,0.21,0.079,1.328,-39.322,-2.66,14.892
40614810,0.477,0.062,1.48,-65.397,24.15,18.987
40614820,-0.591,-0.292,1.256,-102.235,50.085,17.01
40614830,-0.513,-0.278,1.237,-128.59,44.222,-14.07
40614840,0.551,0.036,1.311,-145.88,60.9,-46.06
40614850,0.7,-0.156,1.23,-169.925,102.97,-19.705
40614860,0.538,-0.451,1.239,-194.512,167.737,11.2
40614870,0.185,-0.387,1.147,-194.845,201.617,17.43
40614880,0.52,-0.582,1.147,-175.437,233.502,23.502
40614890,0.298,-1.063,0.942,-158.392,264.705,43.085
40614900,-0.253,-1.262,0.725,-131.81,253.382,44.625
40614910,-1.065,-1.287,0.729,-92.645,176.015,39.34
40614920,-1.494,-1.084,-0.004,-48.16,29.592,15.435
40614930,1.575,-1.202,1.555,32.165,-74.357,-32.952
40614940,1.546,-0.856,0.47,130.112,-86.52,-62.895
40614950,-1.086,0.646,0.117,111.09,-56.735,-192.64
40614960,-1.2,0.258,-0.07,46.812,-12.372,-271.582
40614970,-1.095,0.017,-0.168,90.44,-28.612,-146.895
40614980,-0.137,0.491,-0.668,151.27,-59.535,-73.22
40614990,0.477,1.045,-0.841,160.37,-59.325,-26.39
40615000,0.607,0.526,-0.522,87.867,-4.672,-12.74
40615010,0.048,-0.673,-0.473,30.362,23.607,-30.082
40615010,0.517,-0.819,-0.462,40.495,-3.535,-70.42
40615030,-0.736,-1.585,1.265,41.492,64.102,-31.972
40615030,-1.943,-1.998,-0.569,133.875,-209.65,203.017
40615050,1.9,-0.82,0.869,460.46,-272.58,120.837
40615050,-0.541,1.997,1.427,494.742,-287.105,79.467
40615070,-0.198,-1.267,1.374,181.107,-328.895,-18.357
40615070,1.998,0.986,0.623,162.802,-282.345,-71.907
40615080,-0.461,0.873,0.605,-22.47,-60.725,-44.712
40615090,0.922,-1.953,1.405,-137.777,62.212,72.24
40615100,0.017,1.039,0.828,-5.67,16.555,-12.53
40615110,0.109,-0.992,1.049,-33.075,49.91,11.392
40615120,-0.617,0.038,0.929,-11.76,42.997,-1.417
40615130,-0.312,-0.357,0.982,-13.44,27.177,-5.337
40615140,-0.086,-0.152,0.964,-10.22,16.572,-12.792
40615150,-0.224,-0.255,0.927,-8.627,14.087,-6.842
40615160,-0.383,-0.252,0.942,-2.957,6.265,-2.625
40615170,-0.134,-0.148,0.978,0.997,-4.655,-7.297
40615180,-0.013,-0.137,1.002,-1.067,-6.247,-6.912
40615190,-0.025,-0.176,0.985,-4.042,-0.945,-2.45
40615200,-0.089,-0.139,0.983,-5.565,4.2,2.887
40615210,-0.234,-0.188,0.973,-7.472,5.127,6.597
40615220,-0.167,-0.179,0.98,-7.857,0.56,5.687
40615230,-0.065,-0.165,0.984,-9.222,-1.33,5.915
40615240,-0.135,-0.217,0.973,-10.675,0.07,10.5
40615250,-0.174,-0.173,0.982,-10.99,-0.717,13.142
40615260,-0.167,-0.205,0.984,-13.195,-2.467,13.335
40615270,-0.085,-0.204,1.01,-14.63,-3.71,12.407
40615280,-0.034,-0.185,1.037,-17.64,-1.102,12.897
40615290,0.014,-0.135,1.11,-23.747,6.37,13.545
40615300,0.014,-0.162,1.194,-35.542,20.317,10.185
40615310,0.145,-0.167,1.329,-49.402,47.425,-1.155
40615320,0.207,-0.19,1.327,-69.667,76.772,-7.157
40615330,0.173,-0.315,1.253,-92.855,98.035,-6.387
40615330,0.377,-0.439,1.293,-95.69,131.74,-18.077
40615350,0.331,-0.542,1.273,-79.117,160.58,-28.857
40615350,0.445,-0.963,1.111,-59.185,230.265,-27.09
40615370,-0.502,-1.279,1.128,-31.395,256.585,-7.647
40615370,-0.65,-1.873,0.743,20.65,235.025,-22.907
40615390,-0.377,-1.998,0.476,97.51,44.187,-95.97
40615390,1.997,-1.998,0.918,155.767,-52.797,-285.495
40615410,0.526,-1.22,0.112,146.282,21.98,-334.022
40615410,-1.988,-0.687,-0.567,21.297,12.407,-371.752
40615420,-1.981,-1.124,-0.339,-64.785,-8.347,-288.977
40615430,-0.846,-0.887,-0.03,-53.795,-71.557,-102.462
40615440,0.136,-0.29,-0.238,-45.447,-117.617,32.165
40615450,0.767,0.52,-0.665,-52.71,-117.355,93.03
40615460,0.937,1.161,-0.957,-21.332,-126.367,136.447
40615470,1.118,1.867,-1.196,-24.78,-130.865,101.867
40615480,1.136,1.997,0.764,-60.165,-41.16,40.11
40615490,-1.998,-0.104,-0.884,-16.187,20.702,136.902
40615500,-0.035,-1.329,0.164,441.49,-277.935,416.832
40615510,-1.704,-0.106,1.362,461.825,-312.725,240.327
40615520,1.982,1.997,0.823,254.135,-288.347,-118.247
40615530,-1.355,-0.498,0.291,-114.187,-32.34,11.165
40615540,1.243,-1.593,1.392,-109.147,24.115,33.722
40615550,-0.21,1.462,0.861,29.347,-12.6,-4.847
40615560,0.219,-0.741,1.094,-31.342,26.442,12.915
40615570,-0.283,-0.154,0.902,-17.78,23.572,-10.237
40615580,0.099,-0.235,0.993,-11.077,23.31,-5.215
40615590,-0.151,-0.181,0.978,-7.682,27.632,2.065
40615600,-0.373,-0.296,0.944,-7.805,25.2,2.625
40615610,-0.284,-0.25,0.96,-4.585,13.457,-2.572
40615620,-0.256,-0.147,0.943,2.45,1.137,-4.882
40615630,-0.142,-0.228,0.953,4.025,-7.087,-4.97
40615640,-0.033,-0.145,0.978,7.315,-10.29,-1.837
40615650,-0.082,-0.119,0.976,6.597,-7.63,2.467
40615660,-0.109,-0.166,0.968,2.852,-5.022,3.062
40615670,-0.121,-0.155,0.968,2.397,-5.092,3.115
40615680,-0.082,-0.126,0.975,2.152,-5.022,3.097
40615690,-0.113,-0.177,0.964,0.035,-3.447,2.187
40615700,-0.157,-0.134,0.96,0.122,-4.2,0.822
40615710,-0.185,-0.159,0.955,-0.682,-6.807,0.332
40615720,-0.21,-0.119,0.959,-0.42,-11.427,-0.612
40615730,-0.174,-0.134,0.972,-2.012,-16.345,-2.38
40615740,-0.044,-0.168,0.989,-3.08,-19.547,-5.075
40615750,0.044,-0.112,1.001,-4.095,-17.202,-5.11
40615760,0.07,-0.118,1.011,-8.767,-9.257,-3.15
40615760,0.076,-0.113,1.032,-13.912,0.682,-0.822
40615780,0.065,-0.115,1.06,-21.315,11.865,-1.33
40615780,0.046,-0.147,1.094,-29.645,22.522,-1.032
40615800,-0.034,-0.18,1.153,-38.85,31.342,-2.572
40615800,-0.112,-0.104,1.278,-53.812,42.052,-9.047
40615820,-0.024,-0.022,1.4,-80.132,60.637,-16.87
40615820,0.002,-0.236,1.049,-111.912,93.082,-16.31
40615830,-0.045,-0.191,1.388,-120.347,94.71,-15.015
40615840,0.46,-0.179,1.511,-129.062,107.467,-22.295
40615850,0.437,-0.73,0.78,-125.947,184.345,-38.972
40615860,-0.338,-0.714,1.047,-134.05,197.172,-63.612
40615870,-1.14,-0.975,0.718,-118.965,184.485,-70.752
40615880,-0.701,-1.256,0.331,-76.177,94.29,-44.1
40615890,-1.164,-1.95,-0.089,-54.67,-18.357,-9.31
40615900,0.093,-1.946,0.472,-75.022,-48.842,-24.535
40615910,-0.83,-0.822,0.378,-77.192,-62.195,-5.04
40615920,-0.631,-0.289,0.456,-114.782,-74.602,10.062
40615930,0.161,-0.654,0.687,-126.332,-73.71,99.61
40615940,0.45,-0.301,0.625,-102.095,-101.867,162.837
40615950,1.075,0.741,0.169,-50.715,-129.307,169.12
40615960,1.747,1.783,-0.119,18.41,-130.952,156.082
40615970,1.348,1.997,-0.298,59.815,-122.815,125.475
40615980,0.357,1.928,-0.558,58.887,-117.057,82.477
40615990,-0.57,1.684,-0.513,83.23,-132.475,72.73
40616000,-1.302,-0.915,1.002,103.897,-106.05,175.49
40616010,-1.287,-1.998,-0.81,236.267,-208.915,447.58
40616020,0.065,0.579,1.147,545.265,-305.077,90.037
40616030,0.558,1.997,-0.079,412.44,-409.762,-124.215
40616040,0.55,0.358,0.649,-44.765,-48.492,78.225
40616050,0.043,-1.998,1.537,-207.497,64.26,34.755
40616060,0.626,-0.057,0.803,-16.275,10.465,-1.802
40616070,-0.078,0.015,1.039,-22.312,41.335,-1.4
40616080,-0.592,-0.505,0.915,-23.117,44.327,11.287
40616080,-0.008,0.079,1.04,-6.58,23.887,-5.53
40616100,-0.203,-0.355,0.924,-17.01,19.39,-3.325
40616100,-0.404,-0.259,0.948,-9.905,10.22,-3.64
40616120,-0.234,-0.135,0.972,-2.537,-4.97,-6.37
40616120,-0.149,-0.267,0.977,-2.537,-15.067,-5.915
40616140,-0.101,-0.148,0.977,1.242,-22.19,-5.442
40616140,-0.005,-0.11,1.023,0.192,-23.957,-2.397
40616160,0.012,-0.096,0.997,-5.74,-21.682,-1.505
40616160,-0.126,-0.271,0.972,-9.747,-19.565,3.71
40616170,-0.106,-0.125,1.007,-6.317,-24.062,1.662
40616180,-0.051,-0.076,1.023,-10.587,-27.387,-0.192
40616190,-0.055,-0.127,1.063,-18.392,-28.875,-1.295
40616200,-0.044,0.002,1.144,-29.225,-30.642,-5.215
40616210,-0.148,-0.033,1.207,-49.665,-33.827,-9.362
40616220,-0.208,-0.076,1.23,-70.805,-43.172,-15.855
40616230,-0.019,-0.18,1.169,-87.342,-47.477,-23.292
40616240,-0.198,-0.278,1.308,-96.792,-32.602,-29.75
40616250,0.194,-0.064,1.1,-115.745,-3.342,-58.012
40616260,0.753,0.126,1.342,-145.862,67.287,-63.98
40616270,-0.306,-0.304,0.984,-183.627,187.127,-73.657
40616280,-1.036,-0.372,1.011,-215.32,145.092,-138.127
40616290,-0.148,-0.779,1.265,-204.382,142.257,-179.637
40616300,-1.326,-1.257,0.991,-178.535,147.49,-148.085
40616310,-0.363,-1.7,1.493,-106.435,129.797,-156.17
40616320,-1.573,-1.525,0.71,-30.677,130.025,-87.517
40616330,-1.998,0.051,-0.156,10.115,38.15,-108.255
40616340,-0.773,0.934,0.375,12.11,56.682,-73.395
40616350,-0.743,0.698,0.258,33.092,95.427,96.32
40616360,-0.694,0.693,0.025,48.09,115.377,130.025
40616370,0.046,0.833,-0.033,68.635,123.76,118.282
40616380,0.439,0.748,-0.216,82.005,125.125,133.98
40616390,0.559,0.591,-0.583,80.885,107.24,152.162
40616400,0.616,0.507,-0.707,46.375,74.427,174.667
40616410,0.703,-0.005,-0.741,-16.922,53.13,222.057
40616420,0.508,-0.717,-0.842,-64.802,15.4,294.437
40616430,-1.248,-1.577,0.948,-97.072,-128.45,322.857
40616440,1.926,-1.998,1.998,69.737,-439.495,253.277
40616450,-0.301,-0.468,1.43,444.447,-295.697,251.51
40616460,0.425,1.997,0.655,482.842,-466.847,80.482
40616470,1.998,1.357,1.329,180.25,-241.395,120.4
40616480,-1.066,-1.048,0.493,-149.782,32.252,17.902
40616490,0.652,-1.281,1.357,-102.112,80.885,-0.105
40616500,-1.054,0.136,0.783,-44.59,62.02,8.592
40616510,-0.494,-0.53,0.867,-44.677,46.602,-11.655
40616510,-0.283,-0.399,0.951,-29.172,24.657,-32.112
40616530,-0.471,-0.195,0.814,-19.285,13.23,-21.245
40616530,-0.395,-0.545,0.898,-11.917,-0.717,-17.395
40616550,-0.156,-0.11,0.934,5.46,-18.357,-11.9
40616550,-0.264,-0.211,1.004,4.76,-20.72,-0.997
40616560,-0.097,-0.044,0.97,4.427,-25.69,-5.39
40616570,-0.032,-0.264,0.99,-0.98,-22.522,-5.18
40616580,0.055,-0.112,0.989,-0.752,-17.342,-3.132
40616590,-0.064,-0.198,0.965,-3.57,-9.222,1.067
40616600,-0.062,-0.178,0.986,-2.607,-5.197,2.87
40616610,-0.049,-0.134,1.002,-3.885,-0.945,3.167
40616620,-0.084,-0.184,0.965,-7.892,4.007,3.377
40616630,-0.217,-0.247,0.924,-7.175,4.48,3.307
40616640,-0.254,-0.231,0.941,-2.747,-0.49,1.015
40616650,-0.308,-0.194,0.922,-0.665,-8.26,-3.43
40616660,-0.339,-0.257,0.908,2.59,-18.777,-6.23
40616670,-0.176,-0.21,0.976,8.365,-29.242,-8.452
40616680,-0.084,-0.095,1.015,7.682,-32.55,-7.192
40616690,-0.085,-0.104,1.026,1.382,-30.765,-4.095
40616700,-0.074,-0.141,1.052,-6.16,-28.21,-3.587
40616710,-0.081,-0.094,1.068,-15.137,-26.197,-5.915
40616720,-0.111,-0.115,1.151,-27.545,-24.185,-10.027
40616730,-0.155,0.018,1.292,-46.777,-23.747,-17.605
40616740,-0.315,0.027,1.376,-80.43,-22.102,-29.557
40616750,-0.272,-0.286,1.09,-113.767,-11.567,-51.432
40616760,-0.469,-0.512,1.209,-120.89,3.027,-71.942
40616770,0.207,-0.188,1.121,-99.61,35.525,-94.377
40616780,0.964,-0.252,1.498,-93.8,120.505,-99.505
40616790,-0.009,-1.36,1.634,-116.742,280.262,-91.402
40616800,-1.968,-1.811,-0.115,-87.465,297.36,-99.925
40616810,-1.752,-1.998,0.09,-23.17,213.185,-109.847
40616820,-1.129,-1.998,-0.267,9.345,187.232,-116.077
40616830,-1.595,-1.712,-0.363,4.847,139.247,-128.065
40616830,-0.985,-0.592,-0.433,-8.732,150.412,-121.642
40616850,-0.694,-0.282,-0.407,-47.722,191.047,-64.137
40616850,-0.256,0.183,-0.795,-53.147,195.93,-21.087
40616870,0.955,1.201,-0.595,-19.565,192.99,-9.03
40616870,1.476,1.656,-0.492,-15.155,197.19,0.7
40616890,1.183,1.301,-0.739,-44.66,169.102,16.047
40616890,0.019,0.931,0.674,-63.525,85.697,18.637
40616910,-0.383,0.157,1.895,-21.542,-266.665,-70.682
40616910,0.713,-0.046,0.277,307.965,-440.055,109.095
40616920,-1.998,-0.503,1.951,399.612,-395.237,284.847
40616930,-1.61,0.218,1.998,330.417,-457.765,99.645
40616940,1.923,1.905,1.998,274.732,-448.612,-1.47
40616950,0.426,1.498,0.997,39.515,-108.955,49.787
40616960,0.328,-1.563,1.516,-115.552,80.657,32.532
40616970,-0.054,0.703,0.897,-59.552,68.932,11.777
40616980,-0.578,-0.727,0.871,-84.507,85.4,-5.687
40616990,-0.699,-0.874,0.59,-58.607,59.675,-25.427
40617000,-0.482,-0.513,0.772,-15.575,25.567,-10.745
40617010,-0.508,-0.245,0.89,1.96,1.312,-6.562
40617020,-0.165,-0.216,0.899,5.197,-13.895,-8.942
40617030,-0.469,-0.381,0.909,8.015,-21.105,-0.49
40617040,-0.226,-0.071,0.966,16.695,-36.977,-3.552
40617050,0.096,-0.236,1.031,12.232,-35.07,-2.327
40617060,-0.079,-0.182,0.985,4.392,-21.892,8.61
40617070,0.016,-0.122,1.022,2.52,-14.822,11.847
40617080,0.05,-0.187,1.019,-4.97,-2.572,17.342
40617090,0.047,-0.191,1.02,-9.187,10.132,22.662
40617100,0.062,-0.236,1.025,-13.055,24.29,27.352
40617110,0.003,-0.292,1.004,-14.07,39.497,34.037
40617120,-0.199,-0.226,1.029,-13.632,50.365,37.397
40617130,-0.309,-0.121,1.016,-18.41,52.237,32.2
40617140,-0.267,-0.152,1.027,-33.897,52.78,16.59
40617150,-0.21,-0.18,1.044,-39.042,48.475,14.227
40617160,-0.102,-0.16,1.011,-46.917,46.322,8.925
40617170,-0.165,-0.203,0.94,-53.917,45.587,8.855
40617180,-0.178,-0.244,0.965,-54.53,43.242,10.115
40617190,-0.251,-0.142,1.034,-58.922,43.732,5.547
40617200,-0.337,-0.071,1.066,-65.222,45.727,-1.942
40617210,-0.268,-0.126,1.096,-74.567,47.81,-9.205
40617210,-0.219,-0.223,1.146,-91.402,55.982,-15.435
40617230,-0.085,-0.315,1.206,-107.59,69.125,-20.23
40617230,0.097,-0.272,1.192,-116.76,86.87,-17.062
40617250,0.052,-0.279,1.23,-124.687,111.457,-3.5
40617250,0.044,-0.316,1.06,-133.122,128.502,2.625
40617260,0.175,-0.338,1.185,-130.882,177.677,4.497
40617270,-0.329,-0.375,0.887,-129.675,194.355,0.35
40617280,-0.091,-0.511,0.901,-118.475,208.32,-7.105
40617290,-0.063,-0.777,0.858,-96.862,221.672,6.772
40617300,-0.263,-1.005,0.842,-68.74,217.315,9.66
40617310,-0.763,-1.075,0.854,-40.88,184.275,-0.472
40617320,-1.068,-1.315,1.344,-5.46,112.07,-33.687
40617330,1.392,-1.284,1.489,84.07,-39.637,-101.64
40617340,1.156,-0.577,0.898,145.46,-51.607,-134.365
40617350,-0.832,-0.278,0.688,97.86,-19.74,-180.792
40617360,-0.994,-0.522,0.502,72.835,-46.182,-170.8
40617370,-0.175,-0.329,0.59,101.57,-85.382,-89.162
40617380,0.18,-0.014,0.565,113.155,-97.23,-43.977
40617390,-0.146,-0.116,0.492,106.33,-97.65,-24.71
40617400,-0.196,-0.216,0.505,95.567,-112.665,-43.732
40617410,-0.163,-0.235,0.428,95.025,-134.225,-66.482
40617420,-0.151,-0.137,0.349,92.487,-147.245,-83.387
40617430,-0.186,-0.134,0.284,75.39,-149.537,-103.11
40617440,-0.216,-0.325,0.246,58.397,-140.437,-101.43
40617450,-0.255,-0.523,0.17,48.3,-126.927,-83.037
40617460,-0.291,-0.601,0.027,36.015,-115.027,-66.937
40617470,-0.423,-0.581,-0.11,4.917,-101.972,-48.492
40617480,-0.753,-0.678,-0.321,-48.65,-91.28,-13.912
40617490,-0.932,-0.769,-0.456,-107.625,-91.805,37.117
40617500,-0.687,-0.903,-0.559,-146.055,-94.325,97.632
40617510,-0.08,-0.693,-0.797,-141.697,-91.665,146.72
40617520,0.777,-0.242,0.797,-112.455,-26.215,147.91
40617530,0.964,-1.865,1.143,78.032,265.317,235.987
40617540,-1.998,0.548,-1.754,344.872,-204.662,365.575
40617550,0.28,-1.079,0.404,329.787,-242.515,117.022
40617560,-0.277,0.223,1.91,426.055,-227.797,136.08
40617570,0.214,0.715,1.699,295.225,-341.372,-11.882
40617580,1.967,1.599,1.409,121.275,-206.867,-86.8
40617580,0.593,0.008,1.049,-38.64,-6.965,29.872
40617600,-0.711,-0.769,0.937,-67.27,48.615,47.32
40617600,0.243,-0.2,0.956,-30.712,24.412,11.13
40617620,-0.318,-0.553,0.874,-31.762,27.632,11.69
40617620,-0.43,-0.246,0.928,-12.005,17.465,15.19
40617640,-0.228,-0.348,0.909,-8.89,1.33,0.84
40617640,0.062,-0.238,0.938,-0.98,-5.18,-6.405
40617660,-0.138,-0.335,0.941,3.342,-0.962,3.342
40617660,-0.29,-0.136,1.008,8.19,-4.76,2.24
40617670,0.079,-0.139,1.025,1.522,-9.03,-8.522
40617680,0.183,-0.144,1.012,-5.722,0,-7.472
40617690,-0.024,-0.125,1.03,-10.99,13.387,1.19
40617700,-0.163,-0.154,1.016,-17.955,18.095,2.537
40617710,-0.174,-0.222,1.006,-23.275,15.89,-1.015
40617720,-0.075,-0.161,1.037,-27.195,13.3,-4.322
40617730,-0.097,-0.152,1.049,-35.7,15.33,-3.692
40617740,-0.167,-0.186,1.084,-45.727,18.2,-2.555
40617750,-0.207,-0.144,1.135,-55.02,18.235,-5.092
40617760,-0.257,-0.158,1.217,-66.885,18.287,-9.73
40617770,-0.274,-0.179,1.246,-84.087,14.56,-16.187
40617780,0.053,-0.078,1.263,-101.832,28.157,-30.31
40617790,0.08,-0.058,1.163,-127.557,58.082,-38.447
40617800,0.4,-0.245,1.386,-145.25,99.19,-36.085
40617810,0.195,-0.284,1.238,-155.54,144.392,-20.912
40617820,-0.068,-0.314,1.265,-171.447,157.71,-31.885
40617830,0.266,-0.643,1.288,-159.897,166.302,-45.342
40617840,0.013,-0.717,1.081,-125.562,163.432,-31.867
40617850,-0.302,-0.45,0.963,-76.125,139.37,-27.037
40617860,-0.682,-0.404,0.699,-23.187,80.5,-33.057
40617870,0.854,-0.35,1.439,61.687,-7.28,-78.837
40617880,1.896,0.439,0.658,197.067,-77.945,-150.237
40617890,-0.24,1.706,0.426,201.075,-50.347,-243.057
40617900,-1.602,0.7,-0.047,97.65,34.545,-319.585
40617910,-1.888,0.055,-0.497,120.855,17.325,-186.077
40617920,-0.467,0.775,-0.944,187.005,-18.97,-50.33
40617920,0.655,1.024,-0.775,168.612,4.025,54.915
40617940,0.521,-0.217,-0.567,81.147,59.097,106.645
40617940,0.544,-1.298,-0.929,46.165,60.462,88.235
40617960,-0.386,-1.983,1.394,30.397,63.035,75.652
40617960,-1.998,-1.998,-0.19,127.277,-97.58,166.635
40617980,0.459,0.88,1.861,488.372,-386.662,-47.407
40617980,1.53,1.997,1.108,319.077,-371.28,-169.82
40618000,0.715,-0.655,1.177,-106.645,-45.36,25.497
40618000,0.221,-1.036,1.082,-84.752,5.722,-10.29
40618010,0.229,0.291,0.919,-18.742,16.257,-13.387
40618020,-0.401,-0.574,1.035,-37.082,42.35,-1.172
40618030,-0.29,0.028,0.943,-19.127,24.657,-20.86
40618040,-0.177,-0.403,0.989,-25.042,21.385,-22.102
40618050,-0.153,-0.255,0.915,-16.852,13.037,-24.535
40618060,-0.152,-0.339,0.963,-11.69,8.61,-18.672
40618070,-0.196,-0.129,0.945,-6.16,3.78,-17.272
40618080,-0.243,-0.313,0.956,-5.932,-0.84,-14.717
40618090,-0.092,-0.111,0.976,-0.612,-7.962,-17.482
40618100,-0.131,-0.231,0.969,-1.837,-8.522,-15.732
40618110,0.012,-0.174,0.991,-1.137,-7.91,-16.835
40618120,-0.015,-0.143,0.993,-2.327,-2.765,-14.245
40618130,-0.079,-0.14,1,-4.9,2.87,-11.235
40618140,-0.1,-0.151,0.991,-8.137,5.862,-12.197
40618150,-0.047,-0.157,0.99,-10.185,7.805,-12.25
40618160,-0.113,-0.199,0.983,-12.057,10.097,-9.555
40618170,-0.115,-0.17,0.993,-13.23,10.465,-7.507
40618180,-0.107,-0.165,1,-16.275,10.937,-4.392
40618190,-0.175,-0.188,1.017,-20.58,11.252,-1.05
40618200,-0.183,-0.151,1.06,-25.392,9.8,-0.437
40618210,-0.155,-0.13,1.126,-34.51,11.182,-1.907
40618220,-0.159,-0.105,1.225,-47.127,17.255,-4.515
40618230,-0.266,-0.023,1.36,-64.155,25.532,-15.26
40618240,-0.108,-0.043,1.381,-97.055,34.037,-31.815
40618250,0.347,-0.108,1.254,-130.06,78.067,-47.827
40618260,0.106,-0.228,1.196,-160.142,133.192,-55.982
40618270,-0.099,-0.27,1.197,-171.85,170.8,-69.37
40618280,0.484,-0.575,1.229,-163.887,193.62,-91.787
40618290,0.308,-0.926,0.958,-139.545,227.01,-73.115
40618300,-0.135,-1.231,1.083,-94.237,217.297,-54.495
40618310,-0.822,-1.183,0.645,-33.18,148.155,-56.997
40618320,-0.771,-1.455,0.353,-3.867,37.24,-64.067
40618330,0.891,-1.708,0.753,28.752,-34.947,-105.262
40618330,-0.762,-0.115,0.11,36.137,-62.09,-149.485
40618350,-1.567,0.802,-0.378,-7.14,-59.307,-141.592
40618350,-0.918,0.881,-0.185,-44.082,-51.975,-48.86
40618370,0.277,0.911,-0.1,-31.885,-45.447,65.782
40618370,0.666,1.043,-0.178,21.42,-61.915,155.102
40618390,0.725,0.901,-0.545,43.505,-66.115,185.237
40618390,0.621,0.571,-0.761,22.872,-48.982,158.865
40618410,-0.122,-0.731,0.788,-46.165,-43.067,103.302
40618410,-1.673,-1.998,0.203,-54.407,-70.787,138.547
40618420,-1.607,-1.998,1.353,238.822,-230.195,293.195
40618430,1.976,1.267,0.352,525.507,-296.572,-0.507
40618440,-1.542,1.33,1.783,390.302,-245.122,38.605
40618450,0.761,-1.612,1.99,102.48,-169.925,12.565
40618460,1.836,1.992,0.744,139.667,-173.775,-79.555
40618470,0.414,-0.894,1.332,-67.217,41.965,30.555
40618480,-0.108,-0.257,0.966,-67.637,67.025,15.33
40618490,0.263,-0.089,1.111,-58.59,78.085,9.677
40618500,-0.649,-0.253,0.92,-66.622,86.502,22.68
40618510,-1.04,-0.453,0.665,-55.93,55.79,4.987
40618520,-0.454,-0.8,0.661,-32.637,13.93,-18.917
40618530,-0.079,-0.358,0.837,4.812,-13.632,-16.747
40618540,-0.352,-0.298,0.92,16.747,-18.987,-1.715
40618550,-0.34,-0.155,1.029,22.977,-31.395,-2.117
40618560,0.072,-0.079,1.065,14.875,-36.925,-14.367
40618570,0.193,-0.1,1.082,4.497,-25.882,-11.322
40618580,0.007,-0.105,1.041,-5.722,-10.797,-4.322
40618590,-0.077,-0.19,1.021,-14.402,-2.03,-1.312
40618600,-0.125,-0.177,1.034,-19.757,0.315,-0.875
40618610,-0.173,-0.132,1.049,-26.337,-0.28,-2.117
40618620,-0.219,-0.168,1.062,-36.347,-2.765,-6.195
40618630,-0.213,-0.146,1.088,-44.922,-8.207,-13.055
40618640,-0.247,-0.172,1.114,-55.58,-13.667,-20.247
40618650,-0.279,-0.113,1.215,-62.037,-20.492,-25.41
40618660,-0.524,-0.092,1.194,-67.76,-37.572,-35.857
40618670,-0.364,-0.233,1.226,-92.732,-43.767,-41.65
40618670,-0.264,-0.206,1.225,-107.415,-34.125,-45.535
40618690,-0.393,-0.366,1.19,-126.927,9.957,-54.617
40618690,-1.037,-0.552,1.163,-158.392,33.092,-81.252
40618710,-0.756,-0.647,1.198,-171.762,31.097,-127.627
40618710,-0.053,-0.633,1.123,-154.7,38.64,-125.807
40618730,-0.58,-1.727,0.234,-156.817,149.782,-13.545
40618730,-1.998,-1.998,-0.889,-225.382,135.24,204.155
40618750,-1.473,-1.998,-0.62,-219.537,34.72,290.815
40618750,1.895,-1.998,0.504,-77.857,21.63,368.34
40618760,1.998,-1.297,1.334,7.822,59.885,381.727
40618770,1.743,0.926,0.714,-45.097,121.415,231.507
40618780,0.395,1.975,0.246,-66.412,122.412,32.147
40618790,-0.014,1.993,-0.165,-37.205,74.83,-59.342
40618800,0.278,1.996,-0.446,56.542,59.622,17.15
40618810,0.221,1.997,-0.602,153.457,31.36,153.072
40618820,0.814,1.931,-0.322,113.82,30.817,155.592
40618830,0.2,0.094,0.27,7.787,12.092,142.152
40618840,-0.582,-1.998,1.553,-24.85,-155.102,107.537
40618850,-1.998,-1.993,0.951,150.902,-377.405,11.812
40618860,1.268,1.193,-0.727,477.137,-374.482,-37.747
40618870,1.403,1.997,1.847,537.757,-341.845,154.245
40618880,-1.81,-1.263,1.374,99.33,-147.997,206.99
40618890,1.605,0.76,1.27,148.522,-262.727,-73.535
40618900,1.341,1.061,0.969,42.945,-103.617,9.537
40618910,0.57,-1.835,1.376,-147.787,90.422,28.472
40618920,-0.032,0.763,0.854,-44.065,74.987,9.082
40618930,-0.469,-0.572,0.966,-72.415,103.092,21.612
40618940,-1.111,-0.417,0.694,-56.507,75.74,-1.365
40618950,-0.855,-0.505,0.737,-33.267,26.967,-16.432
40618960,-0.15,-0.461,0.814,-12.215,-9.992,-25.76
40618970,-0.273,-0.394,0.819,5.932,-20.982,-12.442
40618980,-0.478,-0.312,0.916,21.542,-32.41,-1.505
40618990,-0.26,-0.086,1.017,26.722,-47.67,-5.04
40619000,-0.019,-0.09,1.049,19.39,-51.66,-8.277
40619010,0.13,-0.131,1.032,10.517,-42.962,-7.35
40619020,0.217,-0.14,1.051,3.762,-26.127,-2.03
40619030,-0.005,-0.125,1.02,-2.852,-8.872,4.112
40619040,0.019,-0.149,1.028,-9.117,1.697,5.6
40619050,0.068,-0.119,1.039,-15.68,11.777,4.637
40619060,-0.069,-0.173,0.994,-23.555,23.047,5.722
40619070,-0.235,-0.256,0.941,-26.372,26.635,5.915
40619080,-0.363,-0.247,0.908,-24.185,20.492,2.082
40619080,-0.306,-0.288,0.924,-21.227,10.097,-3.43
40619100,-0.178,-0.231,0.975,-17.5,2.082,-7.665
40619100,-0.133,-0.176,1.052,-18.287,0.735,-7.525
40619120,-0.15,-0.102,1.161,-27.317,2.835,-9.8
40619120,-0.14,-0.072,1.202,-44.222,5.635,-16.187
40619140,-0.149,-0.117,1.212,-63.227,7.192,-21.595
40619140,-0.124,-0.129,1.257,-77.682,11.935,-30.905
40619160,-0.308,-0.131,1.193,-96.53,19.145,-42.42
40619160,-0.146,-0.201,1.2,-119.035,36.802,-61.81
40619170,0.163,-0.132,1.207,-135.537,77.14,-74.357
40619180,-0.413,-0.169,1.125,-156.852,131.075,-84.77
40619190,-0.414,-0.384,1.222,-175.245,134.662,-132.3
40619200,-0.204,-0.674,1.409,-171.762,164.937,-157.22
40619210,-0.524,-0.929,1.075,-141.015,189.857,-153.842
40619220,-1.431,-0.928,0.677,-105.42,211.242,-149.8
40619230,-1.532,-0.671,0.746,-58.415,171.08,-172.182
40619240,-0.724,-0.147,0.52,12.775,137.48,-190.382
40619250,-0.78,0.198,0.502,48.545,115.902,-194.075
40619260,-1.532,0.73,0.032,54.495,89.11,-178.01
40619270,-0.778,1.425,0.004,77.665,103.722,-140.227
40619280,0.03,1.512,0.145,108.832,147.262,-59.412
40619290,0.362,0.837,-0.078,144.55,163.047,10.272
40619300,1.017,0.285,-0.304,188.195,140.14,19.232
40619310,1.818,-0.088,-0.667,215.407,101.937,-3.027
40619320,1.798,-0.487,-0.775,183.592,63.455,-17.71
40619330,1.075,-1.689,0.243,96.232,48.667,-31.657
40619340,-1.423,-1.998,0.911,11.917,-111.65,-23.415
40619350,-1.852,-1.919,0.185,241.972,-327.862,123.445
40619360,1.444,1.706,1.998,545.562,-397.95,120.645
40619370,-1.653,1.289,1.011,348.635,-454.545,82.932
40619380,1.962,-0.161,1.917,-41.055,-168.332,-83.177
40619390,-0.581,1.241,0.254,-15.365,-65.59,5.372
40619400,0.6,-1.466,1.457,-87.85,61.092,36.837
40619410,-0.711,0.322,0.838,-44.59,47.372,14.122
40619420,0.032,-0.265,1.099,-48.825,50.172,3.745
40619420,-0.922,-0.413,0.776,-55.86,42.612,-15.382
40619440,-0.358,-0.561,0.801,-35.157,10.832,-29.032
40619440,-0.137,-0.377,0.922,-13.387,-7.14,-22.645
40619460,-0.274,-0.29,0.873,-2.887,-11.847,-13.982
40619460,-0.275,-0.233,1.003,4.042,-17.64,-9.205
40619480,0.031,0.01,1.036,2.537,-19.285,-13.597
40619480,0,-0.151,1.022,-8.715,-8.312,-11.515
40619500,0.002,-0.142,1.01,-13.807,2.432,-8.207
40619500,-0.082,-0.218,0.982,-18.13,11.9,-3.832
40619510,-0.163,-0.215,0.975,-18.41,15.225,-0.892
40619520,-0.228,-0.231,0.933,-18.13,14.542,-0.262
40619530,-0.211,-0.272,0.929,-15.995,11.567,-0.35
40619540,-0.296,-0.26,0.922,-12.372,6.877,0.927
40619550,-0.237,-0.272,0.898,-9.065,0.14,1.085
40619560,-0.278,-0.302,0.906,-4.34,-5.687,3.29
40619570,-0.175,-0.231,0.966,-0.542,-10.71,3.99
40619580,-0.149,-0.175,1.002,-0.595,-11.445,6.877
40619590,-0.06,-0.159,1.07,-4.567,-7.752,10.307
40619600,0.066,-0.095,1.176,-13.352,2.467,14.14
40619610,0.216,0.022,1.311,-30.275,24.692,22.61
40619620,0.134,-0.052,1.418,-59.447,56.787,33.075
40619630,-0.029,-0.019,1.417,-96.46,73.552,39.042
40619640,0.287,-0.058,1.426,-141.942,81.007,35.525
40619650,0.404,-0.131,1.417,-179.025,103.39,39.2
40619660,0.621,-0.394,1.473,-198.957,124.495,58.432
40619670,0.932,-0.815,1.431,-208.67,161.385,80.885
40619680,0.508,-0.753,1.082,-195.335,195.65,104.65
40619690,0.165,-0.638,1.033,-195.09,178.447,125.667
40619700,-0.037,-1.187,1.241,-195.965,122.307,144.305
40619710,-0.238,-1.463,1.347,-155.785,-38.377,151.602
40619720,1.993,-1.535,1.791,-7.717,-207.06,87.29
40619730,1.661,0.261,0.889,97.335,-241.587,36.522
40619740,-0.313,1.567,0.561,17.535,-157.517,-137.672
40619750,-1.417,0.898,0.389,-74.497,-84.805,-195.755
40619760,-1.565,0.907,0.259,-19.145,-115.535,-70.367
40619770,-0.15,1.526,0.07,90.562,-152.81,38.185
40619780,0.398,1.408,-0.185,146.44,-144.9,123.497
40619790,0.225,0.575,-0.275,140.28,-103.845,110.477
40619800,-0.314,-0.292,-0.821,123.2,-73.85,52.867
40619810,-0.72,-0.368,-1.709,112.682,-80.342,27.772
40619820,1.009,-1.357,0.692,45.657,66.675,69.23
40619830,-1.998,-1.998,-0.963,-6.142,96.092,388.307
40619830,0.739,-0.933,1.682,357.175,-247.432,282.205
40619850,-0.485,1.997,1.168,498.172,-438.69,3.535
40619850,0.54,-0.274,1.011,-8.487,-277.935,-182.122
40619860,-0.137,-0.832,0.922,-46.567,-71.032,-5.74
40619870,1.248,1.155,0.919,-14.892,-11.532,-44.52
40619880,-1.087,-1.092,1.099,-55.58,54.652,37.345
40619890,0.26,0.441,1.087,-25.515,33.355,-11.532
40619900,-0.446,-0.489,0.95,-57.785,37.87,-17.43
40619910,-0.146,-0.314,0.853,-45.29,24.202,-22.855
40619920,-0.218,-0.581,0.83,-29.557,15.505,-8.435
40619930,-0.399,-0.393,0.886,-5.757,0.962,1.732
40619940,-0.299,-0.162,0.918,7.962,-15.435,-0.455
40619950,-0.222,-0.363,0.948,9.537,-25.322,-0.455
40619960,-0.046,-0.054,1.014,16.59,-32.007,-1.96
40619970,0.084,-0.17,1.009,7.455,-25.41,-0.035
40619980,0.018,-0.14,1.007,3.64,-16.747,3.027
40619990,0.094,-0.089,1.044,-1.085,-7.402,5.425
40620000,0.017,-0.1,1.022,-10.99,4.165,8.347
40620010,-0.113,-0.181,0.997,-17.885,11.27,12.582
40620020,-0.13,-0.187,1.002,-20.86,11.48,12.897
40620030,-0.146,-0.147,1.028,-23.835,9.712,13.125
