time[ms],accX[g],accY[g],accZ[g],Value 1,Value 2,Value 3
60389390,0.657,-0.609,1.355,-162.732,31.972,96.425
60389390,0.181,-0.37,1.337,-132.58,25.655,94.185
60389410,0.39,0.06,0.928,-94.5,-28.507,80.622
60389410,0.803,0.694,0.527,-46.305,-64.977,62.86
60389420,1.68,1.122,0.192,10.43,-62.72,35.087
60389430,1.621,1.963,-0.023,95.48,-38.465,-15.207
60389440,1.769,1.997,0.358,139.265,-63.77,-112.927
60389450,0.817,1.89,0.152,182.332,-92.277,-171.5
60389460,-0.444,1.16,-0.23,228.865,-101.727,-199.5
60389470,-0.49,0.426,-0.533,231.105,-15.225,-101.85
60389480,-1.971,-1.647,0.618,94.15,251.895,224.315
60389490,0.412,-1.998,0.408,323.977,48.142,334.897
60389500,-1.878,0.182,1.911,357.227,-4.707,34.737
60389510,-0.236,1.45,1.826,221.112,-89.46,-46.97
60389520,1.369,0.135,1.316,-9.765,-148.26,-79.275
60389530,0.921,-0.206,0.831,-36.872,-93.695,-86.1
60389540,1.28,-0.395,0.667,-33.582,-37.73,-25.025
60389550,0.209,-0.305,0.948,-13.912,11.305,17.535
60389560,0.259,-0.104,0.982,-10.325,8.697,16.205
60389570,0.302,-0.14,0.966,-19.092,7.542,6.317
60389580,0.349,-0.166,0.94,-25.077,6.702,0.385
60389590,0.272,-0.325,0.912,-23.87,8.4,-1.872
60389600,0.298,-0.383,0.894,-14.367,3.465,-1.085
60389610,0.282,-0.258,0.924,-3.885,0.612,0.227
60389620,0.232,-0.19,0.954,1.067,-4.48,0.595
60389630,0.284,-0.197,0.94,0.367,-8.19,-1.225
60389640,0.329,-0.213,0.924,-0.035,-11.007,-3.237
60389650,0.376,-0.205,0.91,0.525,-8.54,-2.467
60389660,0.377,-0.186,0.916,1.452,-4.917,-0.385
60389670,0.35,-0.185,0.924,1.015,0.49,1.47
60389680,0.342,-0.189,0.925,0.595,2.905,2.082
60389690,0.31,-0.189,0.93,0.472,5.495,2.922
60389690,0.288,-0.21,0.928,0.875,5.057,2.537
60389710,0.278,-0.214,0.925,1.872,4.165,1.225
60389710,0.269,-0.216,0.926,3.377,1.785,-0.402
60389730,0.263,-0.21,0.929,5.32,-0.507,-1.907
60389730,0.257,-0.22,0.927,7.612,-3.832,-3.64
60389750,0.272,-0.222,0.93,10.622,-7.35,-5.337
60389750,0.284,-0.211,0.932,13.562,-10.43,-6.737
60389760,0.308,-0.187,0.934,15.225,-12.775,-7.28
60389770,0.334,-0.175,0.933,15.225,-12.775,-6.597
60389780,0.353,-0.155,0.932,14.14,-11.725,-6.107
60389790,0.374,-0.15,0.923,12.267,-8.26,-5.197
60389800,0.369,-0.157,0.924,10.64,-4.532,-3.797
60389810,0.354,-0.15,0.924,9.152,0.647,-2.485
60389820,0.343,-0.153,0.924,7.857,3.552,-1.47
60389830,0.317,-0.145,0.929,6.51,7.402,-0.175
60389840,0.278,-0.135,0.937,4.97,7.927,0.857
60389850,0.251,-0.14,0.945,2.485,8.067,2.03
60389860,0.242,-0.158,0.944,0.367,4.007,1.767
60389870,0.268,-0.172,0.938,-0.962,1.295,1.067
60389880,0.299,-0.181,0.931,-0.7,-2.31,0.385
60389890,0.308,-0.182,0.931,0.21,-1.627,1.137
60389900,0.308,-0.186,0.937,1.907,-3.01,1.82
60389910,0.318,-0.191,0.952,3.377,-2.1,2.922
60389920,0.336,-0.213,0.976,5.337,-3.727,3.412
60389930,0.307,-0.213,0.986,7.542,-4.112,3.395
60389940,0.258,-0.197,1.003,9.327,-9.1,2.03
60389950,0.231,-0.193,1.014,9.747,-14.752,0.28
60389960,0.203,-0.149,0.978,10.027,-25.007,-4.322
60389970,0.31,-0.167,1.016,7.927,-31.78,-7.227
60389980,0.036,-0.135,1.003,6.72,-42.192,-8.767
60389990,0.131,-0.058,1.056,3.255,-57.155,-7.14
60390000,0.157,-0.071,1.041,-5.757,-77.122,-5.057
60390010,0.151,-0.017,1.094,-15.015,-92.452,-3.027
60390020,0.027,-0.039,1.118,-25.97,-114.625,1.085
60390030,0.013,0.03,1.152,-34.3,-141.54,4.917
60390040,0.472,0.075,0.947,-45.57,-162.942,5.337
60390050,1.505,-0.428,1.253,-70.49,-99.872,-10.71
60390060,0.212,-1.311,1.758,-100.59,26.092,-20.16
60390070,-0.616,-0.97,1.464,-38.85,45.377,-53.445
60390080,-1.409,-0.094,1.306,1.452,32.112,-57.26
60390080,-0.517,-0.312,1.055,-17.64,1.137,2.73
60390100,-0.258,-0.814,1.058,-24.972,20.387,60.882
60390100,-0.259,-0.605,0.998,0.945,48.79,74.55
60390120,-0.223,-0.302,0.849,15.96,56.017,79.467
60390120,-0.057,-0.314,0.823,8.295,58.852,87.202
60390140,0.208,-0.409,0.613,3.43,66.797,84.367
60390140,0.696,-0.197,0.373,4.9,93.607,69.545
60390160,0.662,-0.198,0.283,-11.83,111.247,40.407
60390160,0.519,-0.204,0.224,-27.422,95.392,12.88
60390170,0.472,-0.165,0.169,-42.28,63.21,3.57
60390180,0.531,-0.196,0.087,-58.31,41.037,14.472
60390190,0.373,-0.159,-0.072,-70.087,39.497,38.78
60390200,0.169,0.039,-0.363,-84.717,38.22,71.102
60390210,0.162,0.133,-0.485,-118.912,43.592,113.715
60390220,-1.077,0.211,-0.45,-153.982,32.007,147.577
60390230,1.046,-0.061,1.908,-136.937,-212.415,69.37
60390240,1.239,-0.703,-1.33,101.85,-32.06,-48.79
60390250,-1.998,1.189,1.165,154.805,189.647,-148.575
60390260,-0.906,-1.867,1.127,72.327,69.02,-2.275
60390270,1.61,-0.618,0.799,160.02,-21.752,-5.145
60390280,-1.029,0.384,1.536,162.54,3.132,-40.005
60390290,0.096,-0.009,1.541,128.66,-48.177,-37.835
60390300,0.379,0.365,1.335,76.895,-65.607,-68.022
60390310,1.018,0.201,0.988,21.542,-58.502,-66.657
60390320,0.858,-0.044,0.873,-5.215,-25.97,-39.637
60390330,0.53,-0.13,0.912,-10.92,10.797,-6.177
60390340,0.282,-0.15,0.961,-15.015,25.095,4.707
60390350,0.275,-0.19,0.953,-20.597,27.545,1.557
60390360,0.244,-0.229,0.942,-22.82,25.69,-0.28
60390370,0.207,-0.278,0.937,-21.437,23.87,1.172
60390380,0.171,-0.232,0.943,-17.832,17.377,1.4
60390390,0.152,-0.28,0.931,-14.42,11.112,-1.382
60390400,0.188,-0.308,0.921,-8.487,2.065,-4.97
60390410,0.213,-0.265,0.935,-2.887,-3.5,-5.687
60390420,0.226,-0.23,0.94,0.21,-9.24,-6.265
60390420,0.217,-0.259,0.927,2.065,-12.635,-7.892
60390440,0.266,-0.265,0.921,5.407,-16.8,-11.042
60390440,0.319,-0.21,0.932,8.225,-17.01,-11.97
60390460,0.306,-0.181,0.942,7.892,-15.802,-10.412
60390460,0.323,-0.186,0.938,6.16,-14.017,-8.645
60390480,0.333,-0.172,0.938,4.427,-11.9,-6.877
60390480,0.301,-0.188,0.94,2.677,-9.537,-4.725
60390500,0.305,-0.206,0.941,1.802,-9.012,-3.36
60390500,0.296,-0.188,0.947,0.875,-8.855,-2.257
60390510,0.318,-0.186,0.945,-1.155,-8.592,-0.84
60390520,0.332,-0.17,0.953,-3.955,-8.102,1.102
60390530,0.377,-0.13,0.971,-9.66,-5.425,3.832
60390540,0.422,-0.082,1.011,-20.282,-1.295,7.437
60390550,0.461,-0.018,1.098,-38.185,8.172,12.005
60390560,0.253,-0.03,1.253,-64.365,18.217,13.37
60390570,0.198,-0.099,1.311,-96.477,18.795,6.685
60390580,0.349,-0.019,1.329,-127.435,12.722,-11.06
60390590,0.793,0.038,1.228,-166.04,25.567,-20.58
60390600,0.478,-0.18,1.313,-206.972,70.752,-29.452
60390610,1.257,-0.43,1.312,-226.555,101.045,-39.41
60390620,0.981,-1.209,1.043,-213.43,179.077,-49.402
60390630,-0.653,-1.535,0.284,-185.255,253.032,-86.292
60390640,-1.693,-1.938,0.079,-191.012,246.575,-101.167
60390650,-0.988,-1.998,0.098,-185.377,168.035,-101.745
60390660,0.306,-1.603,0.083,-146.265,84.752,-133.542
60390670,-0.329,-1.184,0.732,-138.827,19.285,-157.815
60390680,-1.155,-0.19,1.092,-109.27,-34.492,-123.445
60390690,-1.084,1.139,1.026,-65.887,-86.765,-46.777
60390700,-0.65,1.856,1.035,-25.462,-101.675,54.617
60390710,-0.14,1.504,1.117,36.872,-72.1,134.487
60390720,0.351,1.976,0.723,124.46,-47.197,150.5
60390730,0.828,1.919,-0.185,169.015,-21.7,171.482
60390740,0.858,1.699,-1.08,179.077,3.832,148.75
60390750,1.549,-1.267,0.442,41.965,42.052,114.695
60390760,-0.345,-1.998,-0.341,22.172,-79.572,129.937
60390770,0.075,0.354,1.087,332.815,-112,-114.432
60390780,0.535,1.601,0.882,351.435,-100.73,-86.8
60390790,-0.155,-1.423,1.584,235.55,-89.32,21.07
60390800,-0.733,0.146,1.709,300.335,-123.13,-95.585
60390810,-0.315,-0.404,1.998,239.347,-201.39,-131.39
60390820,1.966,1.582,1,156.17,-245.542,-124.862
60390830,0.943,0.555,0.748,21.42,-113.925,-26.687
60390830,1.453,-0.052,0.606,-33.74,-15.172,26.302
60390850,0.747,-0.234,0.856,-37.642,51.397,37.222
60390850,0.596,-0.023,0.963,-40.512,82.407,35.91
60390870,0.046,-0.366,1.047,-50.33,89.74,33.6
60390870,-0.066,-0.375,0.963,-48.352,69.755,24.902
60390890,0.008,-0.411,0.928,-39.235,46.882,17.832
60390890,-0.058,-0.433,0.896,-26.005,29.872,10.185
60390910,0.049,-0.309,0.932,-13.02,11.27,0.175
60390910,0.109,-0.235,0.928,-6.177,-2.135,-6.177
60390920,0.075,-0.349,0.909,0.052,-14.157,-13.79
60390930,0.236,-0.321,0.935,9.415,-24.08,-22.82
60390940,0.537,-0.082,0.954,12.46,-25.777,-22.33
60390950,0.583,-0.086,0.931,3.342,-9.677,-10.202
60390960,0.374,-0.185,0.941,-4.042,7.192,2.817
60390970,0.266,-0.179,0.961,-7.892,15.295,7.595
60390980,0.244,-0.191,0.963,-11.795,14.14,6.93
60390990,0.229,-0.2,0.954,-15.26,13.667,6.265
60391000,0.199,-0.255,0.959,-17.062,9.502,6.265
60391010,0.193,-0.235,0.951,-18.515,6.125,5.39
60391020,0.184,-0.254,0.952,-18.865,-0.49,3.657
60391030,0.216,-0.233,0.967,-19.757,-5.022,2.695
60391040,0.228,-0.208,0.993,-22.68,-10.22,1.557
60391050,0.273,-0.161,1.034,-28.997,-11.865,1.295
60391060,0.368,-0.13,1.121,-41.405,-13.44,3.57
60391070,0.405,-0.064,1.257,-63.805,-9.1,10.64
60391080,0.329,-0.005,1.353,-96.232,-11.585,17.167
60391090,0.33,0.053,1.396,-137.287,-22.645,19.127
60391100,0.365,0,1.29,-188.877,-29.662,11.917
60391110,0.172,-0.154,1.181,-228.637,-21.455,0.927
60391120,0.282,-0.197,1.158,-244.23,-15.785,-7.717
60391130,0.115,-0.085,1.135,-257.407,-25.812,-16.87
60391140,0.214,-0.122,0.899,-279.037,-54.95,-22.855
60391150,0.775,-0.576,0.671,-281.977,-63.542,-9.432
60391160,1.013,-0.819,1.141,-253.277,-23.362,-1.312
60391170,1.711,-0.584,1.923,-192.15,36.015,-14.507
60391170,0.487,0.833,1.975,-26.11,126.84,-101.657
60391190,-0.397,1.482,1.4,93.03,108.29,-144.41
60391190,-0.533,1.732,0.889,185.535,64.802,-95.392
60391210,-0.087,0.549,0.795,172.252,94.097,-22.312
60391210,0.175,0.173,-0.692,249.882,112.647,38.902
60391230,0.268,0.364,-1.135,214.392,130.06,45.885
60391230,0.35,-0.963,-0.722,106.225,127.995,56.7
60391250,0.103,-1.722,-0.929,76.72,89.705,52.692
60391250,0.001,-1.37,-1.289,73.552,69.195,59.657
60391260,-0.048,-1.779,-1.264,34.142,72.03,112.297
60391270,0.945,-1.998,-0.689,-6.002,97.965,155.802
60391280,-1.888,-1.998,0.686,-111.405,-38.535,182.21
60391290,-1.433,-1.383,-0.175,306.285,-211.837,196.262
60391300,1.764,1.997,1.778,494.287,-146.282,60.882
60391310,-1.538,0.689,1.731,363.597,-166.775,40.495
60391320,-0.89,-1.026,1.981,253.942,-236.827,-92.347
60391330,1.496,0.508,1.137,184.485,-327.302,-154.21
60391340,0.801,1.182,0.274,72.362,-169.837,-47.827
60391350,0.458,-0.908,1,-66.64,-45.342,18.9
60391360,1.058,-0.526,0.684,-24.097,-24.255,8.872
60391370,0.852,0.085,0.782,-18.725,32.9,7.14
60391380,0.165,-0.253,1.008,-26.145,63.945,12.635
60391390,0.226,-0.321,0.962,-25.532,61.372,8.785
60391400,0.306,-0.162,0.974,-23.362,52.885,7.14
60391410,0.193,0.028,1.038,-27.842,52.832,10.115
60391420,-0.045,-0.314,0.966,-38.115,41.37,7.577
60391430,-0.037,-0.502,0.909,-29.505,20.405,-1.697
60391440,0.206,-0.34,0.913,-12.81,0.805,-8.207
60391450,0.296,-0.23,0.934,-3.482,-4.217,-5.967
60391460,0.372,-0.152,0.941,-0.455,-4.2,-0.42
60391470,0.285,-0.166,0.951,-2.66,1.802,4.41
60391480,0.228,-0.217,0.946,-4.882,1.575,5.215
60391490,0.254,-0.2,0.949,-4.812,0.28,4.935
60391500,0.265,-0.188,0.95,-5.162,-2.03,5.53
60391510,0.245,-0.206,0.949,-6.545,-2.24,6.895
60391520,0.23,-0.182,0.96,-6.825,-5.512,7.717
60391530,0.244,-0.196,0.958,-9.327,-7.297,9.205
60391540,0.256,-0.197,0.962,-12.005,-10.237,10.272
60391550,0.28,-0.161,0.962,-14,-11.235,10.465
60391560,0.35,-0.213,0.985,-19.267,-11.27,14.35
60391570,0.411,-0.146,1.022,-25.882,-6.457,18.725
60391580,0.463,-0.125,1.072,-39.042,2.992,25.427
60391580,0.499,-0.151,1.104,-55.545,18.217,32.305
60391600,0.507,-0.195,1.135,-73.307,37.607,39.392
60391600,0.499,-0.169,1.185,-95.025,53.882,47.687
60391620,0.501,-0.097,1.112,-114.257,62.982,54.81
60391620,0.583,-0.23,1.119,-139.335,66.342,61.425
60391640,0.69,-0.244,1.15,-153.247,78.872,65.38
60391640,0.666,-0.325,0.996,-156.222,92.242,74.375
60391660,0.777,-0.693,1.039,-151.217,113.697,89.092
60391660,0.72,-0.864,0.936,-124.197,133.98,100.275
60391670,-0.013,-0.873,0.731,-87.885,131.495,108.815
60391680,-0.421,-1.127,0.822,-69.667,72.012,100.94
60391690,-0.546,-1.27,0.659,-40.862,-47.267,72.835
60391700,1.541,-0.538,0.356,-8.592,-171.5,-15.05
60391710,1.402,-0.887,-0.156,-5.617,-143.762,-52.29
60391720,-0.648,0.095,0.065,19.897,-79.205,-113.662
60391730,-1.073,0.557,0.035,8.312,-95.392,-107.52
60391740,-0.827,0.3,0.139,-8.697,-75.81,-21.035
60391750,-0.709,0.491,0.021,6.475,-56.7,36.12
60391760,-0.212,0.378,-0.194,23.292,-44.572,69.982
60391770,0.345,0.988,-0.395,34.807,-18.13,79.187
60391780,0.642,-0.278,0.724,-15.75,87.587,108.64
60391790,-1.998,-1.998,-0.243,-8.207,17.272,164.342
60391800,0.996,-0.118,1.44,305.252,-57.47,89.46
60391810,-0.266,1.876,1.252,286.947,-41.545,-32.76
60391820,-0.825,-0.415,1.209,213.692,-83.597,-22.487
60391830,-0.193,0.049,1.345,224.542,-115.185,-88.445
60391840,0.056,0.176,1.473,192.027,-171.465,-157.5
60391850,1.267,-0.4,1.559,144.41,-201.967,-157.5
60391860,1.766,0.568,1.086,111.545,-148.365,-100.992
60391870,1.141,0.46,0.958,45.902,-57.207,-20.912
60391880,0.78,0.008,0.907,-2.817,3.78,17.43
60391890,0.597,-0.075,0.961,-25.27,37.362,29.102
60391900,0.317,-0.063,1.027,-44.117,53.305,33.652
60391910,0.017,-0.506,0.964,-55.79,52.657,30.835
60391920,0.045,-0.374,0.848,-44.747,37.677,17.622
60391920,0.11,-0.313,0.9,-28.7,24.15,8.872
60391940,0.108,-0.288,0.888,-19.6,13.632,1.785
60391940,0.079,-0.354,0.897,-11.41,3.657,-4.865
60391960,0.229,-0.267,0.904,-3.045,-6.422,-9.275
60391960,0.187,-0.266,0.902,3.325,-11.812,-9.432
60391980,0.217,-0.292,0.92,10.062,-17.307,-11.935
60391980,0.324,-0.199,0.955,13.107,-21.297,-14.49
60392000,0.407,-0.168,0.951,9.502,-18.287,-11.217
60392000,0.387,-0.178,0.939,4.305,-11.585,-4.935
60392010,0.3,-0.217,0.931,1.05,-5.092,-0.017
60392020,0.308,-0.22,0.937,0.052,-4.235,0.892
60392030,0.333,-0.188,0.948,-1.995,-1.89,2.135
60392040,0.304,-0.212,0.94,-5.197,-0.49,4.322
60392050,0.252,-0.24,0.933,-6.737,1.032,5.722
60392060,0.241,-0.24,0.936,-6.247,-2.135,4.375
60392070,0.238,-0.256,0.931,-5.775,-4.567,2.922
60392080,0.218,-0.255,0.935,-3.99,-9.852,0.927
60392090,0.212,-0.243,0.944,-2.887,-13.65,-1.4
60392100,0.231,-0.234,0.947,-2.607,-20.282,-4.637
60392110,0.261,-0.235,0.942,-3.325,-23.747,-6.825
60392120,0.281,-0.218,0.956,-3.867,-28.262,-8.452
60392130,0.281,-0.186,0.986,-6.527,-29.61,-9.45
60392140,0.29,-0.122,1.029,-11.305,-34.422,-12.18
60392150,0.236,-0.171,1.088,-20.965,-39.322,-13.947
60392160,0.207,-0.129,1.139,-33.057,-53.322,-15.05
60392170,0.115,-0.142,1.228,-48.772,-70.84,-17.307
60392180,0.065,-0.149,1.32,-66.972,-99.032,-23.782
60392190,-0.1,-0.234,1.361,-95.497,-110.705,-36.785
60392200,-0.232,-0.321,1.332,-118.93,-143.552,-60.515
60392210,-0.222,-0.446,1.362,-130.182,-163.765,-85.277
60392220,0.542,-0.206,0.935,-135.432,-153.685,-114.8
60392230,-0.829,-0.645,1.162,-174.457,-52.062,-110.197
60392240,0.317,-0.392,1.249,-189.332,-44.695,-146.09
60392250,0.584,-1.42,1.351,-204.61,39.2,-147.7
60392260,-1.821,-1.782,1.681,-153.597,181.545,-116.27
60392270,-1.998,-1.07,1.466,-66.43,204.995,-89.075
60392280,-1.249,-1.165,1.257,-42.175,215.722,25.112
60392290,0.551,-0.309,-0.166,40.722,278.81,77.28
60392300,0.956,0.627,-0.637,-17.447,365.382,-23.747
60392310,1.56,0.621,-0.493,-123.952,363.247,-138.46
60392320,1.617,0.653,0.007,-176.172,307.265,-259.595
60392330,0.367,1.292,0.404,-147.175,190.155,-347.795
60392330,0.19,1.604,1.24,-63.875,-25.235,-409.99
60392350,1.998,1.261,0.341,40.512,-196.997,-364.647
60392350,0.94,-1.961,0.173,89.477,-27.02,-226.31
60392370,0.854,-0.646,0.562,202.947,-7.595,-231.577
60392370,1.472,0.479,0.468,291.025,3.99,-126.577
60392390,-0.464,-1.181,1.965,270.27,56.63,-25.06
60392390,-1.473,0.602,1.85,230.982,-53.357,-42
60392410,1.852,1.536,-0.293,79.87,-147.892,-48.02
60392410,0.496,-1.042,1.338,-95.252,5.005,24.062
60392420,0.688,0.382,0.75,-51.765,29.907,-5.512
60392430,0.628,-0.726,0.772,-63.787,49.595,11.62
60392440,-0.071,-0.713,0.923,-39.41,58.362,3.64
60392450,0.036,-0.54,0.873,-17.43,36.54,-1.102
60392460,-0.147,-0.52,0.978,-0.612,12.442,-22.487
60392470,0.259,-0.202,0.986,11.427,-14.962,-38.622
60392480,0.575,-0.058,0.91,10.535,-25.672,-39.06
60392490,0.55,-0.084,0.897,4.69,-11.882,-25.34
60392500,0.514,-0.014,0.92,-0.297,1.785,-13.947
60392510,0.364,-0.132,0.935,-8.207,14.665,-6.125
60392520,0.283,-0.177,0.948,-11.48,15.435,-5.53
60392530,0.372,-0.106,0.95,-13.23,14.402,-5.95
60392540,0.296,-0.19,0.95,-15.54,14.525,-1.277
60392550,0.26,-0.174,0.962,-15.33,13.265,4.655
60392560,0.328,-0.144,0.959,-17.64,8.155,7.945
60392570,0.37,-0.135,0.969,-23.1,8.82,12.652
60392580,0.435,-0.11,1.003,-30.94,9.835,19.46
60392590,0.495,-0.158,1.011,-42.665,16.712,30.397
60392600,0.428,-0.242,1.044,-52.115,25.392,42.892
60392610,0.346,-0.274,1.087,-60.427,31.237,53.112
60392620,0.29,-0.177,1.13,-73.15,26.11,61.057
60392630,0.258,-0.244,1.098,-86.66,14.542,63.875
60392640,0.235,-0.122,1.043,-97.335,-3.797,66.325
60392650,0.421,-0.253,1.029,-107.38,-12.862,73.885
60392660,0.342,-0.434,1.049,-108.255,-23.975,78.522
60392670,0.402,-0.505,1.062,-100.677,-37.73,85.242
60392670,0.417,-0.597,1.234,-83.895,-42.227,96.127
60392690,0.103,-0.863,1.271,-60.865,-46.357,113.05
60392690,0.195,-1.314,1.476,-23.94,-74.55,125.195
60392710,-0.645,-1.998,1.709,21.892,-84.455,181.93
60392710,-1.854,-1.708,0.768,176.925,-111.685,252.175
60392730,0.61,-0.101,-0.861,282.257,-162.61,302.347
60392730,1.342,-0.119,-0.623,193.567,-67.917,334.635
60392750,0.98,-0.314,-0.863,135.537,7.455,294.385
60392750,0.959,0.678,-1.046,108.412,8.295,202.86
60392760,0.799,1.34,-1.074,31.605,-29.907,114.345
60392770,0.619,1.37,-0.447,-36.207,-38.815,52.22
60392780,-0.33,1.064,-0.189,-44.135,-42.245,16.537
60392790,0.445,0.558,-0.04,-27.965,-0.087,38.815
60392800,0.272,-1.923,0.962,19.145,114.625,120.785
60392810,-1.557,-1.353,0.973,403.095,-4.252,91.91
60392820,-0.829,1.617,1.982,359.03,-106.505,-56.455
60392830,-0.551,0.358,1.998,227.71,-203.7,-86.852
60392840,1.879,1.681,0.576,85.295,-246.4,-113.697
60392850,1.176,-0.039,0.766,-14.997,-85.627,-23.257
60392860,1.168,-0.186,0.717,-33.127,17.36,15.662
60392870,0.275,-0.282,0.927,-36.925,64.907,15.592
60392880,0.458,-0.2,0.921,-34.142,68.845,6.142
60392890,-0.051,-0.298,1.012,-33.95,69.037,2.397
60392900,0.043,-0.307,0.972,-29.312,47.022,-3.57
60392910,0.144,-0.264,0.953,-24.885,30.257,-12.04
60392920,0.142,-0.28,0.946,-19.285,17.692,-13.16
60392930,0.088,-0.31,0.943,-12.075,7.455,-8.172
60392940,0.085,-0.262,0.948,-5.267,-8.242,-9.8
60392950,0.203,-0.249,0.943,-0.91,-21.087,-14.542
60392960,0.34,-0.206,0.929,2.082,-28.892,-14.752
60392970,0.388,-0.189,0.926,3.167,-26.04,-9.1
60392980,0.339,-0.191,0.933,3.447,-21.577,-2.677
60392990,0.318,-0.194,0.934,2.747,-18.672,-0.087
60393000,0.376,-0.175,0.925,1.907,-17.692,1.05
60393010,0.377,-0.175,0.924,0.227,-12.897,3.657
60393020,0.374,-0.178,0.922,-1.715,-8.382,6.597
60393030,0.375,-0.185,0.923,-3.307,-3.447,9.537
60393040,0.362,-0.199,0.922,-4.812,1.12,12.145
60393050,0.407,-0.205,0.917,-5.897,5.565,14.49
60393060,0.346,-0.155,0.958,-7.717,12.512,18.042
60393070,0.277,-0.154,0.986,-14.612,15.522,17.78
60393080,0.353,-0.14,0.986,-25.287,16.275,13.93
60393080,0.411,-0.222,1.002,-35.367,20.51,13.107
60393100,0.434,-0.113,1.017,-43.75,30.887,14.717
60393100,0.428,-0.205,1.074,-55.212,43.347,17.377
60393120,0.384,-0.215,1.112,-64.277,56.577,14.56
60393120,0.373,-0.165,1.141,-75.337,61.67,7.997
60393130,0.191,-0.287,1.136,-90.195,55.685,1.085
60393140,0.599,-0.445,1.217,-92.837,42.507,-9.117
60393150,0.648,-0.51,1.114,-79.03,57.575,-31.237
60393160,0.383,-0.61,0.964,-65.8,105.98,-60.182
60393170,-0.527,-0.91,1.168,-58.887,132.86,-76.195
60393180,0.178,-0.566,0.978,-18.83,101.097,-92.365
60393190,0.277,-0.566,0.605,2.887,94.482,-114.922
60393200,-0.888,-1.132,0.503,-33.355,94.237,-125.615
60393210,-0.984,-0.913,0.698,-10.5,20.965,-132.422
60393220,-0.281,0.006,0.3,38.657,-33.285,-104.212
60393230,-0.405,0.43,-0.239,52.132,-36.942,-42.175
60393240,-0.358,0.671,-0.422,50.452,-28.577,28.42
60393250,-0.4,0.748,-0.691,51.555,-16.642,100.012
60393260,-0.789,0.993,-0.805,57.295,-56.805,126.052
60393270,1.779,-0.155,1.453,-27.982,-144.182,137.445
60393280,-0.363,-1.998,1.912,76.65,-201.985,183.487
60393290,-0.166,0.73,1.962,399.525,-165.777,7.612
60393300,-0.213,0.72,1.957,216.562,-228.917,-73.027
60393310,1.998,1.402,0.064,31.36,-235.095,-74.445
60393320,0.746,-0.085,0.891,-26.39,-50.067,-9.607
60393330,1.041,-0.268,0.763,-33.022,34.702,23.782
60393340,0.205,-0.181,0.972,-34.79,63.717,18.952
60393350,0.284,-0.349,0.937,-34.317,60.112,13.37
60393360,0.014,-0.311,0.994,-28.857,52.675,3.85
60393370,0.189,-0.198,0.95,-25.567,36.137,-4.707
60393380,0.164,-0.298,0.945,-23.887,26.985,-10.78
60393390,0.224,-0.252,0.936,-18.06,19.582,-11.375
60393400,0.077,-0.261,0.958,-12.67,11.357,-8.68
60393410,0.17,-0.168,0.964,-9.572,-1.522,-13.457
60393420,0.27,-0.219,0.934,-10.447,-10.377,-18.865
60393420,0.37,-0.245,0.916,-7.892,-13.72,-18.34
60393440,0.419,-0.171,0.921,-5.267,-10.255,-12.355
60393440,0.364,-0.213,0.922,-5.337,-4.497,-4.41
60393460,0.338,-0.185,0.932,-5.687,-0.052,-0.962
60393460,0.322,-0.17,0.938,-7.245,1.75,0.017
60393480,0.303,-0.21,0.931,-8.925,3.395,0.63
60393480,0.257,-0.22,0.94,-8.54,2.327,1.487
60393500,0.223,-0.226,0.94,-7.892,0.315,2.852
60393500,0.161,-0.256,0.944,-5.845,-6.755,2.887
60393510,0.184,-0.236,0.948,-3.272,-14.997,1.47
60393520,0.242,-0.232,0.944,-1.627,-24.43,-0.14
60393530,0.322,-0.21,0.949,-1.715,-28.192,0.21
60393540,0.382,-0.141,0.969,-4.83,-29.627,1.977
60393550,0.445,-0.146,0.966,-13.492,-25.182,6.09
60393560,0.495,-0.131,0.991,-23.625,-18.532,10.675
60393570,0.414,-0.129,1.067,-37.59,-6.807,15.837
60393580,0.345,-0.15,1.14,-53.672,-2.45,17.78
60393590,0.236,-0.184,1.243,-70.717,-5.162,15.382
60393600,0.102,-0.225,1.259,-86.887,-28.927,5.722
60393610,0.08,-0.375,1.176,-95.847,-67.322,-6.982
60393620,0.448,-0.544,1.196,-91.07,-102.06,-25.445
60393630,0.824,-0.954,1.003,-88.672,-54.232,-43.172
60393640,0.384,-0.977,1.085,-72.222,-1.242,-57.47
60393650,0.625,-0.899,1.16,-44.012,70.962,-56.822
60393660,-1.356,-1.966,0.947,-36.12,129.43,4.882
60393670,-1.314,-0.71,0.561,66.5,7.122,-6.912
60393680,0.52,0.053,-0.005,109.462,-31.832,50.312
60393690,0.238,-0.116,-0.175,73.675,48.457,97.352
60393700,-0.164,0.1,-0.222,72.992,115.657,111.405
60393710,-0.243,0.593,-0.532,80.202,135.852,132.037
60393720,-0.385,0.994,-1.054,63.962,138.197,151.34
60393730,-0.68,1.661,1.027,45.762,-14.332,110.11
60393740,1.998,-0.776,0.888,-10.64,-167.387,73.5
60393750,-0.526,-1.998,1.998,78.26,-6.65,-0.07
60393760,-1.793,0.332,1.916,278.022,-68.145,-93.625
60393770,1.868,1.035,1.444,206.062,-306.547,-104.072
60393780,1.704,1.313,0.036,48.09,-189.35,-78.015
60393790,0.713,-0.385,0.938,-50.085,-7.787,12.862
60393800,1.129,0.036,0.801,-42.875,54.215,28.315
60393800,0.263,-0.255,1,-57.855,92.137,32.62
60393820,0.327,-0.305,0.949,-52.255,83.545,29.925
60393820,0.072,-0.397,0.994,-50.697,73.972,27.667
60393830,0.109,-0.242,0.958,-46.13,57.19,28.07
60393840,-0.225,-0.4,0.899,-39.077,39.077,19.565
60393850,-0.219,-0.597,0.827,-18.182,10.99,-2.292
60393860,-0.099,-0.549,0.904,11.725,-19.197,-22.942
60393870,0.142,-0.147,1.031,27.912,-41.405,-33.11
60393880,0.499,0.006,0.974,19.915,-53.025,-34.51
60393890,0.673,-0.139,0.876,7.297,-43.242,-23.397
60393900,0.542,-0.125,0.899,3.71,-23.012,-7.77
60393910,0.376,-0.129,0.936,0,-6.562,1.942
60393920,0.308,-0.201,0.928,-3.85,-3.587,4.672
60393930,0.306,-0.215,0.922,-4.69,-2.59,4.392
60393940,0.293,-0.216,0.924,-4.182,-4.69,3.272
60393950,0.329,-0.212,0.922,-4.34,-4.445,2.45
60393960,0.362,-0.193,0.92,-4.41,-4.865,2.677
60393970,0.298,-0.218,0.922,-4.865,-1.452,4.865
60393980,0.233,-0.224,0.935,-4.06,-3.902,3.867
60393990,0.273,-0.207,0.934,-3.762,-7.175,0.717
60394000,0.333,-0.177,0.933,-4.445,-11.462,-0.717
60394010,0.306,-0.182,0.935,-6.457,-10.832,0.787
60394020,0.3,-0.196,0.941,-8.067,-13.527,1.382
60394030,0.3,-0.196,0.943,-10.43,-14.84,2.012
60394040,0.343,-0.202,0.931,-12.95,-17.78,2.782
60394050,0.379,-0.206,0.927,-15.557,-16.047,4.9
60394060,0.381,-0.182,0.945,-19.145,-13.702,7.28
60394070,0.391,-0.171,0.96,-25.322,-9.275,9.695
60394080,0.429,-0.17,0.988,-33.687,-5.442,11.637
60394090,0.441,-0.145,1.023,-44.992,1.067,14.63
60394100,0.429,-0.142,1.062,-58.73,7.42,16.957
60394110,0.37,-0.155,1.1,-75.862,12.565,18.637
60394120,0.369,-0.138,1.091,-96.355,11.812,17.692
60394130,0.387,-0.146,1.051,-116.48,11.9,13.387
60394140,0.345,-0.195,1.035,-135.782,26.775,5.565
60394150,0.309,-0.152,0.967,-149.992,27.317,-2.117
60394160,0.51,-0.233,0.873,-162.067,34.107,-5.162
60394170,0.412,-0.344,0.853,-171.78,54.652,-9.852
60394170,0.531,-0.484,0.887,-176.47,65.607,-18.567
60394190,0.752,-0.747,0.934,-157.885,86.432,-26.302
60394190,0.524,-0.823,0.912,-125.282,122.185,-47.285
60394210,0.197,-0.752,0.757,-90.44,143.57,-76.912
60394210,0.08,-0.581,0.788,-60.672,145.46,-111.51
60394230,0.463,-0.39,0.189,-17.867,132.142,-167.3
60394230,1.668,-0.378,0.176,-16.747,28.997,-312.375
60394250,1.429,-0.485,-0.787,-35.157,-4.847,-420.087
60394250,-1.461,0.105,-1.101,-56.455,13.877,-488.337
60394260,-1.983,0.051,0.454,-99.417,80.535,-375.532
60394270,-1.998,-1.243,1.965,-64.242,89.267,-146.51
60394280,1.038,-1.697,0.509,88.812,-50.855,30.765
60394290,1.515,-1.998,-0.303,192.92,-17.43,30.45
60394300,-1.414,-0.394,1.117,220.5,90.982,-105.297
60394310,0.664,1.377,1.11,264.687,44.257,-66.71
60394320,0.285,-0.932,1.213,216.072,24.167,-13.737
60394330,-0.495,-0.625,1.934,238.665,-6.615,-76.755
60394340,-0.445,-0.431,1.997,224.262,-87.762,-102.235
60394350,1.263,1.955,0.221,154.735,-174.317,-92.802
60394360,1.276,0.455,0.707,-49,-61.197,-3.027
60394370,0.429,-0.355,1.367,-109.602,23.432,41.685
60394380,0.768,0.125,1.162,-102.2,7.21,32.812
60394390,0.568,-0.475,1.279,-131.267,9.817,56.455
60394400,-0.064,-0.533,1.137,-137.602,3.622,50.837
60394410,0.75,-0.317,1.015,-134.785,-13.527,54.005
60394420,0.568,0.1,0.838,-138.46,-3.272,63.017
60394430,0.346,-0.258,0.827,-160.737,8.312,70.192
60394440,0.224,-0.464,0.734,-146.615,5.092,64.225
60394450,0.284,-0.519,0.714,-126.315,1.89,53.025
60394460,0.341,-0.502,0.708,-105.577,1.417,45.605
60394470,0.326,-0.52,0.661,-84.542,5.862,44.17
60394480,0.283,-0.592,0.634,-64.487,13.212,42.21
60394490,0.196,-0.586,0.65,-41.37,20.72,34.825
60394500,0.203,-0.513,0.606,-21.122,24.237,23.695
60394510,0.295,-0.434,0.555,-11.392,31.797,18.515
60394510,0.106,-0.754,0.75,-13.982,41.947,7.752
60394530,-0.068,-0.628,0.841,-2.135,35.14,-20.44
60394530,0.007,-0.409,0.845,9.012,22.907,-34.772
60394550,0.174,-0.388,0.894,10.202,13.982,-34.44
60394550,0.501,-0.27,0.881,9.555,13.702,-36.207
60394570,0.494,-0.35,1.005,0.56,21.875,-41.877
60394570,-0.183,-0.536,1.078,-4.69,26.757,-41.807
60394580,0.148,-0.386,1.063,-0.7,13.072,-33.162
60394590,0.436,-0.594,1.018,-8.417,9.187,-17.972
60394600,0.465,-0.835,1.085,-9.817,9.31,-16.607
60394610,0.313,-0.773,0.943,5.285,8.277,-23.835
60394620,0.38,-0.562,0.69,14.332,2.485,-30.187
60394630,0.195,-0.346,0.598,7.332,8.137,-35.822
60394640,0.317,-0.108,0.519,-4.637,12.215,-42.63
60394650,0.237,0.081,0.429,-19.845,19.337,-50.89
60394660,0.037,0.173,0.551,-38.675,22.19,-48.615
60394670,-0.232,0.056,0.762,-53.2,8.102,-32.007
60394680,-0.174,-0.129,1.004,-51.257,-10.552,0.42
60394690,0.062,-0.637,1.137,-26.337,-15.12,38.132
60394700,-0.011,-0.12,1.08,43.662,-29.732,68.005
60394710,0.117,-0.366,0.742,55.51,-48.51,117.722
60394720,0.467,-0.538,0.54,76.3,-61.985,143.307
60394730,0.564,-0.603,0.295,87.097,-59.587,152.197
60394740,0.803,-0.684,0.004,82.757,-69.545,133.805
60394750,1.837,-0.969,0.482,56.805,-31.657,115.78
60394760,1.115,-1.325,0.651,73.552,51.38,97.142
60394770,-0.485,-0.645,0.637,142.537,119.087,81.34
60394780,-0.935,-0.012,0.896,189.455,73.342,82.67
60394790,-0.477,-0.395,0.83,211.487,-28.297,96.6
60394800,-0.672,-0.394,1.008,240.537,-76.755,60.462
60394810,-1.011,0.259,1.561,249.235,-108.867,-22.312
60394820,-0.14,-0.428,1.998,195.09,-163.485,-100.52
60394830,1.62,0.78,1.311,132.755,-208.687,-123.077
60394840,1.394,0.91,0.609,52.482,-130.62,-38.115
60394850,0.69,-0.016,0.815,-17.01,-42.175,9.555
60394860,0.821,-0.212,0.803,-23.17,-3.902,18.182
60394870,0.677,-0.237,0.833,-26.81,27.842,10.99
60394880,0.318,-0.277,0.919,-22.54,48.86,11.9
60394890,0.089,-0.327,0.971,-16.817,46.287,7.525
60394900,0.149,-0.256,0.962,-9.432,30.205,3.15
60394910,0.254,-0.215,0.944,-6.282,17.325,-1.855
60394920,0.243,-0.172,0.949,-5.932,12.477,-3.99
60394920,0.221,-0.194,0.95,-6.09,6.02,-3.745
60394940,0.288,-0.155,0.941,-6.265,1.19,-3.762
60394940,0.279,-0.159,0.943,-7.752,-2.292,-4.06
60394960,0.341,-0.142,0.934,-9.502,-3.132,-3.272
60394960,0.373,-0.149,0.929,-11.112,-2.8,-1.557
60394980,0.361,-0.181,0.928,-13.125,2.117,1.907
60394980,0.317,-0.189,0.939,-13.562,3.57,5.792
60395000,0.311,-0.171,0.95,-15.855,5.32,8.365
60395000,0.346,-0.161,0.954,-20.422,4.165,9.082
60395010,0.389,-0.149,0.965,-27.387,7.647,11.41
60395020,0.429,-0.115,0.976,-35.07,12.232,13.702
60395030,0.465,-0.194,1.013,-46.55,23.187,19.67
60395040,0.432,-0.138,1.058,-57.277,34.667,22.732
60395050,0.363,-0.186,1.08,-69.807,48.335,24.482
60395060,0.349,-0.153,1.061,-82.81,55.212,24.43
60395070,0.233,-0.197,1.044,-96.18,58.135,23.502
60395080,0.249,-0.216,0.996,-105.875,51.047,19.215
60395090,0.279,-0.268,0.941,-111.037,46.777,16.537
60395100,0.291,-0.328,0.897,-110.302,43.715,16.695
60395110,0.355,-0.432,0.865,-105.875,49.035,21.315
60395120,0.313,-0.507,0.835,-95.48,50.627,29.417
60395130,0.383,-0.529,0.823,-80.342,51.152,40.792
60395140,0.392,-0.625,0.802,-63.017,55.475,51.117
60395150,0.25,-0.71,0.763,-38.237,56.77,57.085
60395160,0.096,-0.658,0.699,-9.012,50.19,55.195
60395170,-0.034,-0.533,0.598,18.987,31.85,55.632
60395180,-0.096,-0.612,0.477,38.622,3.85,62.912
60395190,-0.263,-0.544,0.301,66.342,-22.96,66.797
60395200,-0.49,-0.475,0.109,93.52,-62.772,68.565
60395210,-0.762,-0.24,0.123,113.452,-118.352,66.78
60395220,-0.418,-0.216,0.806,128.572,-149.677,59.745
60395230,0.003,-0.609,0.707,170.205,-133.297,44.275
60395240,-0.963,-0.256,0.699,226.625,-120.925,-12.932
60395250,-0.649,-0.044,1.569,223.93,-158.147,-73.395
60395260,1.166,-1.092,1.976,190.487,-206.115,-128.782
60395260,1.998,1.336,0.813,154.35,-203.42,-107.922
60395280,0.574,-0.37,0.859,15.155,-74.917,-11.847
60395280,1.142,0.355,0.628,-20.895,-15.907,8.662
60395300,0.586,-0.282,0.899,-31.78,31.64,12.652
60395300,0.659,-0.225,0.876,-29.347,56.315,10.815
60395320,0.104,-0.295,0.987,-26.425,69.177,14.297
60395320,0.036,-0.215,0.998,-22.032,53.13,8.33
60395330,0.081,-0.284,0.97,-20.737,34.352,-1.277
60395340,0.193,-0.313,0.935,-16.607,17.902,-8.89
60395350,0.187,-0.265,0.942,-9.695,9.432,-8.295
60395360,0.213,-0.192,0.955,-4.445,-0.332,-6.265
60395370,0.287,-0.214,0.934,-4.532,-4.987,-6.527
60395380,0.313,-0.182,0.936,-3.22,-8.4,-6.142
60395390,0.387,-0.137,0.931,-3.64,-6.16,-3.675
60395400,0.358,-0.18,0.927,-5.495,-2.94,0.175
60395410,0.282,-0.197,0.94,-6.072,1.155,4.655
60395420,0.269,-0.166,0.952,-6.475,-1.487,6.615
60395430,0.307,-0.17,0.945,-9.31,-2.537,8.365
60395440,0.302,-0.173,0.953,-12.022,-4.69,10.815
60395450,0.306,-0.15,0.969,-16.765,-4.41,13.615
60395460,0.332,-0.153,0.981,-23.94,-6.65,15.627
60395470,0.354,-0.159,1.008,-32.882,-5.495,18.567
60395480,0.374,-0.148,1.052,-43.137,-4.637,21.56
60395490,0.363,-0.116,1.118,-53.952,0.332,24.517
60395500,0.356,-0.162,1.202,-73.255,-0.822,30.432
60395510,0.238,-0.037,1.242,-94.447,-5.18,32.095
60395520,0.205,-0.088,1.242,-120.557,-22.522,32.41
60395530,0.224,-0.099,1.146,-143.062,-41.895,29.26
60395540,0.216,-0.209,1.127,-162.277,-47.88,22.855
60395550,0.234,-0.31,1.067,-170.922,-58.572,19.512
60395560,0.376,-0.479,1.178,-170.73,-65.817,19.495
60395570,0.278,-0.622,1.174,-154.525,-63.367,18.445
60395580,0.31,-0.536,1.082,-129.797,-53.34,15.085
60395590,0.42,-0.492,1.127,-110.775,-23.59,20.387
60395600,0.002,-0.901,1.181,-86.45,10.325,45.85
60395610,-1.11,-0.206,1.049,-9.8,4.602,52.167
60395620,-0.094,0.887,0.321,87.255,-67.06,43.295
60395630,-0.299,1.769,0.689,135.135,-44.152,92.505
60395640,1.123,1.742,-0.37,198.485,-74.34,95.042
60395650,0.554,1.958,-0.232,234.22,-48.597,44.24
60395660,0.143,1.439,-0.143,211.995,-37.187,7.367
60395670,-0.291,0.551,-0.307,225.767,-26.372,23.87
60395670,-0.153,-0.165,-0.137,208.932,39.847,90.65
60395690,1.504,-1.964,0.535,66.727,121.66,244.072
60395690,-1.925,-0.851,0.513,404.792,36.575,-21.245
60395710,-1.086,1.997,1.885,382.34,-99.68,-200.725
60395710,1.998,0.765,-0.718,62.195,-219.257,-68.407
60395730,-0.634,-0.472,1.263,-77.735,17.22,9.292
60395730,1.607,-0.664,0.542,-31.5,31.832,19.792
60395750,-0.375,-0.262,1.106,-26.075,73.675,17.622
60395750,0.347,-0.215,0.93,-16.012,52.395,17.062
60395760,0.137,-0.298,0.982,-15.295,40.25,1.662
60395770,0.31,-0.154,0.959,-13.457,28.087,-8.085
60395780,0.375,-0.193,0.919,-13.562,25.165,-5.985
60395790,0.145,-0.316,0.945,-10.92,26.915,-1.365
60395800,0.101,-0.219,0.976,-4.322,14.49,-1.785
60395810,0.243,-0.152,0.958,-3.937,2.485,-7.017
60395820,0.311,-0.181,0.934,-5.81,-3.85,-8.732
60395830,0.337,-0.178,0.929,-5.6,-3.395,-6.597
60395840,0.299,-0.197,0.934,-4.462,-3.85,-3.937
60395850,0.304,-0.204,0.93,-3.132,-4.2,-1.627
60395860,0.354,-0.179,0.924,-2.205,-5.075,-1.085
60395870,0.324,-0.176,0.932,-1.82,-2.205,1.977
60395880,0.319,-0.176,0.934,-2.38,-1.487,3.675
60395890,0.315,-0.183,0.933,-3.552,-0.21,4.917
60395900,0.296,-0.188,0.937,-4.147,-0.175,6.685
60395910,0.257,-0.205,0.939,-4.357,-0.805,8.312
60395920,0.276,-0.203,0.936,-3.745,-3.657,7.822
60395930,0.308,-0.194,0.933,-3.22,-5.372,6.825
60395940,0.32,-0.187,0.933,-3.36,-5.215,6.527
60395950,0.331,-0.184,0.932,-3.64,-4.287,6.982
60395960,0.316,-0.189,0.936,-4.165,-2.345,7.875
60395970,0.295,-0.181,0.943,-4.69,-2.327,7.577
60395980,0.293,-0.185,0.938,-6.02,-2.292,6.072
60395990,0.299,-0.191,0.927,-6.545,-3.517,3.622
60396000,0.295,-0.207,0.914,-6.755,-2.415,1.225
60396010,0.288,-0.216,0.902,-5.407,-2.765,-2.065
60396010,0.314,-0.223,0.89,-2.782,-1.417,-4.62
60396030,0.329,-0.218,0.904,1.05,-0.84,-5.652
60396030,0.362,-0.219,0.932,4.13,2.327,-3.78
60396050,0.29,-0.232,0.937,6.737,2.905,-1.995
60396050,0.29,-0.157,0.957,8.207,2.747,-1.54
60396070,0.313,-0.158,0.984,5.617,0.315,-0.49
60396070,0.295,-0.173,0.984,1.12,0.157,0.35
60396080,0.326,-0.194,0.984,-2.502,-3.01,-0.017
60396090,0.319,-0.187,0.976,-4.9,-3.08,-0.42
60396100,0.317,-0.172,0.981,-6.685,-5.302,-0.892
60396110,0.325,-0.141,0.981,-9.975,-3.972,0
60396120,0.323,-0.138,0.967,-14.63,-3.64,1.522
60396130,0.325,-0.137,0.967,-20.405,0.385,2.975
60396140,0.313,-0.143,0.988,-26.705,1.925,2.345
60396150,0.248,-0.18,0.975,-33.74,3.185,0.14
60396160,0.338,-0.185,0.965,-36.855,-0.21,-2.502
60396170,0.391,-0.267,0.919,-38.535,3.57,-6.58
60396180,0.429,-0.393,0.891,-34.3,7.98,-11.865
60396190,0.591,-0.416,0.994,-25.865,20.79,-22.26
60396200,0.651,-0.345,0.845,-11.235,41.492,-38.867
60396210,0.151,-0.248,0.719,-11.007,76.965,-50.89
60396220,-0.023,-0.221,0.919,-20.072,69.51,-51.52
60396230,0.894,0.043,0.889,-14.052,51.24,-56.542
60396240,0.525,-0.12,0.666,-22.627,64.82,-70.49
60396250,0.319,0.003,0.472,-31.027,25.287,-117.267
60396260,1.126,-0.03,0.82,-62.86,-24.08,-149.695
60396270,0.833,-0.451,0.777,-76.685,-19.162,-162.557
60396280,0.39,-0.219,0.893,-66.657,-2.24,-177.677
60396290,0.194,-0.191,0.91,-68.53,-11.41,-171.29
60396300,0.37,-0.312,0.959,-70.98,-20.527,-149.905
60396310,0.341,-0.388,1.017,-62.702,-14.962,-126.857
60396320,0.202,-0.343,0.987,-46.952,-14.472,-104.51
60396330,0.206,-0.272,0.931,-35.682,-23.817,-78.085
60396340,0.229,-0.319,0.949,-31.605,-28.682,-47.512
60396350,0.163,-0.347,0.978,-26.18,-32.48,-18.672
60396360,0.165,-0.303,0.966,-17.657,-37.135,7.402
60396370,0.166,-0.266,0.995,-13.072,-42.892,31.727
60396380,0.152,-0.28,1.038,-10.937,-48.685,54.915
60396390,0.16,-0.273,1.05,-4.462,-57.61,77.28
60396400,0.141,-0.266,1.045,2.082,-62.44,99.592
60396410,0.109,-0.289,1.044,8.942,-68.932,120.242
60396420,0.119,-0.296,1.016,16.905,-70.245,139.632
60396420,0.148,-0.26,1.003,24.185,-68.81,156.397
60396440,0.123,-0.275,1.015,26.985,-65.257,171.517
60396440,0.166,-0.255,1.015,28.385,-69.16,179.567
60396460,0.285,-0.231,1.003,25.952,-66.71,181.072
60396460,0.413,-0.205,1.001,20.895,-58.45,170.432
60396480,0.477,-0.141,0.996,13.282,-46.497,145.145
60396480,0.502,-0.094,0.957,3.92,-44.467,107.73
60396500,0.494,-0.091,0.937,-4.497,-41.177,69.58
60396500,0.405,-0.069,0.905,-8.767,-41.212,38.167
60396510,0.365,-0.057,0.856,-11.252,-37.625,18.952
60396520,0.384,-0.066,0.755,-11.27,-33.04,5.337
60396530,0.432,-0.055,0.626,-10.097,-21.42,-6.632
60396540,0.43,-0.044,0.441,-8.977,-12.022,-18.97
60396550,0.476,0.058,0.397,-8.68,-6.492,-29.067
60396560,0.398,-0.045,0.391,-14.997,-12.635,-32.025
60396570,0.428,-0.143,0.428,-21.227,-19.95,-36.557
60396580,0.386,-0.222,0.456,-22.715,-25.987,-36.907
60396590,0.289,-0.282,0.407,-19.932,-27.982,-28.63
60396600,0.136,-0.474,0.252,-12.127,-30.677,-10.745
60396610,0.166,-0.044,0.312,10.78,-28.857,10.815
60396620,0.079,-0.306,-0.01,16.257,-21.682,52.675
60396630,0.135,-0.266,-0.043,6.492,-5.127,83.422
60396640,0.91,-1.022,1.477,-18.847,66.5,140.472
60396650,1.382,-1.998,0.968,56.385,340.042,243.845
60396660,-1.895,-1.628,0.454,223.86,258.072,122.255
60396670,-1.524,0.615,1.263,206.867,67.602,8.102
60396680,0.406,0.467,1.292,201.267,-38.185,100.66
60396690,-0.803,0.897,1.496,209.247,-29.785,19.932
60396700,-0.397,-0.891,1.896,166.757,-83.072,-53.917
60396710,0.664,0.474,1.554,124.722,-122.92,-120.89
60396720,1.575,0.821,0.807,47.792,-115.955,-97.002
60396730,1.291,0.178,0.694,-1.925,-41.265,-24.85
60396740,0.506,-0.237,0.888,-15.19,28.455,23.17
60396750,0.057,-0.321,0.988,-15.382,39.025,21.21
60396760,0.363,-0.214,0.918,-15.592,28.49,2.082
60396760,0.303,-0.265,0.921,-14.7,27.265,-3.99
60396780,0.275,-0.24,0.932,-11.2,27.737,-2.905
60396780,0.206,-0.217,0.954,-8.592,22.75,-3.36
60396800,0.196,-0.212,0.956,-8.907,16.922,-6.317
60396800,0.234,-0.237,0.942,-8.575,7.665,-8.61
60396820,0.224,-0.197,0.955,-7.875,2.782,-8.942
60396820,0.237,-0.185,0.954,-8.61,-4.707,-10.167
60396830,0.269,-0.183,0.941,-9.327,-8.015,-10.552
60396840,0.272,-0.193,0.944,-9.87,-12.355,-8.995
60396850,0.258,-0.176,0.954,-10.92,-14.175,-6.912
60396860,0.249,-0.158,0.962,-13.002,-19.897,-5.985
60396870,0.263,-0.174,0.981,-16.485,-24.132,-5.617
60396880,0.261,-0.109,1.013,-20.44,-31.255,-8.12
60396890,0.258,-0.013,1.075,-27.002,-35.892,-13.37
60396900,0.219,0.07,1.154,-36.452,-41.3,-25.06
60396910,0.143,-0.124,1.206,-53.655,-44.52,-40.232
60396920,0.331,-0.356,1.128,-79.135,-54.442,-52.605
60396930,0.392,-0.23,1.171,-106.225,-19.197,-61.355
60396940,0.38,-0.223,1.147,-130.672,-9.957,-64.645
60396950,0.366,-0.402,1.011,-150.867,-16.012,-66.745
60396960,0.423,-0.355,0.966,-158.287,-9.222,-79.555
60396970,0.701,-0.684,1.138,-169.557,40.302,-84.122
60396980,0.236,-1.149,1.227,-168.14,133.455,-79.852
60396990,-0.009,-1.084,0.961,-136.745,175.962,-92.242
60397000,0.02,-1.52,0.792,-119.665,167.51,-91.927
60397010,-0.689,-1.872,0.745,-83.825,153.002,-50.277
60397020,-0.975,-1.274,-0.164,-7.227,117.635,14.525
60397030,-0.049,-1.063,-0.09,12.197,96.705,120.067
60397040,0.437,-0.394,-0.332,53.515,86.537,202.51
60397050,1.362,0.273,-0.774,81.06,72.922,232.12
60397060,1.608,0.823,-1.165,82.845,54.827,213.342
60397070,1.434,1.543,-1.236,78.802,7.052,155.137
60397080,1.374,1.506,0.895,66.5,-13.545,116.865
60397090,-1.998,-1.231,1.36,90.807,-151.2,142.275
60397100,0.804,-1.073,1.064,365.347,-245.945,136.36
60397110,-0.76,0.518,1.998,377.982,-223.125,-18.375
60397120,0.435,0.557,1.793,222.39,-281.89,-149.257
60397130,1.566,1.528,0.275,76.615,-229.617,-98.875
60397140,0.786,0.075,0.819,-24.832,-46.795,-9.8
60397150,0.733,-0.026,0.861,-40.477,22.452,14.962
60397160,0.652,-0.306,0.884,-53.55,60.725,3.097
60397170,0.231,-0.362,0.966,-48.3,71.522,-3.815
60397170,0.055,-0.366,0.926,-38.972,67.83,-3.29
60397190,-0.028,-0.471,0.93,-24.255,47.792,-4.147
60397190,0.064,-0.382,0.936,-9.66,26.39,-10.097
60397210,0.174,-0.241,0.957,-0.035,8.575,-13.055
60397210,0.124,-0.206,0.977,3.255,-0.35,-8.732
60397230,0.226,-0.212,0.951,2.467,-12.74,-12.355
60397230,0.325,-0.145,0.948,2.45,-16.817,-11.847
60397240,0.34,-0.165,0.942,0.822,-16.485,-6.667
60397250,0.31,-0.197,0.939,-0.962,-11.9,-1.19
60397260,0.237,-0.154,0.975,-1.172,-12.46,2.922
60397270,0.317,-0.126,0.972,-6.457,-14.595,4.637
60397280,0.399,-0.117,0.977,-14.665,-14.577,7.682
60397290,0.455,-0.094,1.016,-26.075,-7.647,13.475
60397300,0.26,0.008,1.173,-45.727,0.367,15.82
60397310,0.402,-0.13,1.24,-73.902,2.712,14.105
60397320,0.298,-0.109,1.255,-96.355,8.032,5.495
60397330,0.544,-0.077,1.204,-122.71,12.39,-6.65
60397340,1.03,-0.106,1.003,-151.252,42.735,-16.59
60397350,0.184,-0.357,1.375,-176.505,107.66,-23.31
60397360,1.171,-0.196,1.001,-171.867,101.255,-27.93
60397370,0.946,-0.741,0.897,-154.892,138.46,-22.067
60397380,-0.002,-0.691,0.69,-116.112,141.435,-25.655
60397390,-0.243,-0.397,0.645,-84.98,115.85,-16.852
60397400,0.077,-0.805,0.697,-85.33,98.91,4.182
60397410,0.107,-1.443,0.775,-79.082,68.005,-0.052
60397420,1.126,-0.783,0.364,-19.11,-15.085,-68.005
60397430,0.68,0.394,0.226,35.14,-62.755,-136.692
60397440,-1.187,0.997,0.319,34.667,-87.587,-145.635
60397450,-1.012,1.417,0.278,77.192,-66.762,-35.052
60397460,-1.038,1.291,0.248,127.085,-43.837,88.48
60397470,-0.494,1.35,-0.387,220.132,-31.885,194.442
60397480,0.146,0.871,-0.672,223.037,-7.157,277.34
60397490,-0.138,-1.799,1.353,27.09,-106.295,308.682
60397500,-1.24,-1.875,0.798,275.94,-155.75,203.91
60397510,-0.476,1.952,1.995,508.865,-166.845,-63.402
60397510,-0.186,0.396,1.517,156.712,-304.675,-67.69
60397530,1.615,1.017,-0.368,35.822,-283.342,-72.992
60397530,0.016,0.068,0.852,-20.457,-33.95,-1.207
60397550,1.056,0.032,0.593,-30.677,48.09,30.555
60397550,0.611,-0.138,0.963,-49.577,121.87,29.61
60397570,-0.195,-0.505,1.082,-46.917,124.407,24.22
60397570,-0.225,-0.273,0.985,-36.522,90.072,13.842
60397580,-0.164,-0.37,0.968,-29.435,48.527,3.64
60397590,-0.114,-0.44,0.96,-16.695,17.815,-10.57
60397600,0.2,-0.178,0.967,-3.517,-9.87,-15.785
60397610,0.174,-0.246,0.957,-0.49,-19.845,-13.3
60397620,0.304,-0.162,0.956,2.065,-28.857,-13.405
60397630,0.473,-0.116,0.939,-0.63,-26.967,-11.76
60397640,0.486,-0.163,0.916,-4.287,-17.395,-3.535
60397650,0.42,-0.148,0.929,-7.717,-4.252,4.322
60397660,0.42,-0.202,0.943,-11.917,4.13,8.802
60397670,0.325,-0.095,0.961,-16.957,12.11,12.25
60397680,0.303,-0.173,0.972,-24.43,13.44,14.91
60397690,0.28,-0.215,0.979,-30.03,13.177,16.905
60397700,0.246,-0.187,1.007,-34.527,10.727,18.62
60397710,0.242,-0.177,1.042,-41.685,7.787,18.795
60397720,0.265,-0.159,1.087,-51.905,5.547,16.502
60397730,0.25,-0.124,1.185,-67.007,3.955,12.11
60397740,0.138,-0.082,1.31,-91.175,-8.33,5.652
60397750,0.079,-0.067,1.33,-119.962,-36.015,-4.76
60397760,0.554,-0.093,1.088,-154.805,-48.23,-21.822
60397770,0.003,-0.233,1.383,-201.565,-13.352,-37.415
60397780,0.39,0.049,1.209,-218.697,-17.5,-40.862
60397790,0.81,-0.192,1.326,-240.8,1.277,-33.442
60397800,0.868,-1.015,1.755,-263.077,80.412,-12.932
60397810,-0.089,-1.113,1.628,-230.037,134.347,-1.452
60397820,0.493,-0.751,1.188,-189.035,107.695,-11.182
60397830,-0.052,-0.442,1.152,-161.367,105.175,16.292
60397840,0.293,0.243,0.164,-74.847,36.295,9.887
60397850,0.585,1.403,-0.725,42.962,-5.757,21.77
60397860,0.396,1.99,-0.689,143.132,13.247,61.897
60397870,0.699,1.878,-1.107,222.337,13.527,121.082
60397880,0.592,1.359,-1.596,288.855,-16.59,153.79
60397890,0.054,0.591,-1.997,311.237,-82.022,165.147
60397900,0.631,-0.914,-0.907,209.317,-86.222,201.337
60397910,-1.932,-1.998,0.101,-7.14,-130.007,374.237
60397920,0.953,-0.103,0.718,491.102,-243.302,193.795
60397920,-1.423,1.855,1.998,498.12,-149.152,7.787
60397930,0.755,-0.648,1.722,124.075,-271.46,-21.402
60397940,1.847,0.737,-0.108,33.477,-245.157,-103.775
60397950,1.104,0.034,0.714,-45.955,-44.712,-0.122
60397960,0.597,-0.398,0.859,-39.795,33.355,27.002
60397970,0.874,-0.269,0.796,-35.472,62.142,16.625
60397980,0.185,-0.276,0.978,-31.15,84.84,16.45
60397990,-0.126,-0.357,1.063,-28.875,78.225,11.13
60398000,-0.025,-0.332,0.91,-22.61,47.705,-0.402
60398010,0.05,-0.298,0.954,-14.42,27.037,-4.55
60398020,0.123,-0.27,0.949,-6.072,9.607,-4.9
60398030,0.074,-0.238,0.967,-2.1,-3.867,-4.2
60398040,0.206,-0.185,0.959,-2.275,-17.692,-8.067
60398050,0.336,-0.172,0.946,-3.605,-23.537,-8.102
60398060,0.356,-0.157,0.943,-5.005,-23.572,-3.045
60398070,0.65,-0.266,0.86,-6.51,-18.935,3.832
60398080,0.297,-0.106,0.977,-0.787,-1.295,21.28
60398090,-0.099,-0.033,1.077,-10.902,-3.36,17.552
60398100,0.345,-0.18,0.991,-33.862,-23.327,-0.315
60398110,0.571,-0.206,0.957,-41.072,-24.307,3.867
60398120,0.413,-0.176,1.031,-43.522,-11.795,16.345
60398130,0.364,-0.157,1.095,-52.15,-4.41,21.735
60398140,0.273,-0.155,1.155,-65.975,-2.03,23.677
60398150,0.271,-0.093,1.178,-81.672,-8.085,20.527
60398160,0.238,-0.172,1.146,-102.83,-18.742,17.605
60398170,0.388,-0.161,1.08,-119.63,-31.902,15.47
60398180,0.477,-0.24,1.076,-138.355,-20.737,12.022
60398190,0.376,-0.173,1.129,-153.037,-16.24,9.66
60398200,0.472,-0.341,1.165,-164.92,-20.16,14.35
60398210,0.59,-0.627,1.24,-165.987,-22.925,15.242
60398220,0.706,-0.837,1.037,-147.595,-3.325,16.292
60398230,0.644,-0.769,0.629,-110.285,26.67,17.027
60398240,0.363,-0.679,0.476,-75.127,40.512,18.13
60398250,0.467,-0.507,0.195,-33.32,2.747,5.792
60398260,0.863,0.384,-0.141,39.777,-42.77,-19.267
60398260,1.017,1.087,-0.577,91.262,-64.417,-38.885
60398280,0.561,1.433,-0.638,113.837,-81.48,-63.525
60398280,0.215,1.182,-0.786,138.985,-99.662,-59.972
60398300,-0.482,1.147,-1.014,171.325,-111.317,-56.315
60398300,0.586,0.106,0.787,144.532,-50.785,25.865
60398320,-1.171,-1.998,0.584,140.332,232.855,296.397
60398320,1.711,-0.443,0.661,516.88,-7.315,138.792
60398330,-1.672,1.997,1.998,464.835,51.502,-50.977
60398340,1.264,1.893,0.263,117.95,-239.032,-32.235
60398350,0.19,-0.281,0.73,-47.757,-125.16,-51.695
60398360,1.564,-0.124,0.306,-46.2,-20.23,1.12
60398370,0.056,-0.357,0.994,-36.26,59.447,20.965
60398380,0.748,-0.224,0.843,-22.977,66.727,14.297
60398390,0.167,-0.188,1.011,-23.817,74.427,5.302
60398400,0.077,-0.283,0.987,-25.392,63.997,2.275
60398410,-0.002,-0.386,0.964,-19.495,43.942,-2.747
60398420,0.213,-0.189,0.971,-11.812,21.84,-5.652
60398430,0.117,-0.247,0.973,-11.252,10.342,-3.447
60398440,0.211,-0.181,0.969,-10.675,-2.695,-5.337
60398450,0.337,-0.168,0.957,-13.65,-10.097,-6.02
60398460,0.368,-0.12,0.952,-17.587,-11.655,-2.835
60398470,0.404,-0.102,0.966,-25.532,-10.622,-0.7
60398480,0.393,-0.252,0.918,-31.395,-6.895,3.36
60398490,0.375,-0.257,0.934,-30.695,-3.062,6.457
60398500,0.343,-0.183,0.992,-31.85,0.735,8.575
60398510,0.314,-0.16,1.04,-38.605,0.892,7.367
60398520,0.298,-0.16,1.081,-49.472,0.577,3.447
60398530,0.304,-0.172,1.087,-61.162,-5.302,-0.805
60398540,0.179,-0.221,1.101,-74.725,-12.162,-5.512
60398550,0.142,-0.221,1.071,-87.622,-25.182,-17.867
60398560,0.252,-0.363,1.095,-101.08,-13.702,-37.625
60398570,-0.012,-0.286,1.096,-110.687,-10.272,-61.18
60398580,0.21,-0.46,1.051,-116.637,-25.112,-75.792
60398590,0.302,-0.581,1.064,-122.71,-33.145,-93.327
60398600,0.659,-0.832,1.091,-119.752,-16.765,-108.255
60398610,0.53,-1.45,1.165,-118.93,75.6,-106.085
60398620,-0.389,-1.966,1.305,-106.12,153.002,-102.462
60398620,-0.24,-1.998,0.939,-65.887,99.207,-112.945
60398640,-1.422,-1.991,-0.237,32.182,63.542,-95.655
60398640,-1.251,-1.24,-0.193,92.172,54.582,-27.037
60398660,-0.023,-1.487,-0.542,82.197,34.492,138.495
60398660,0.609,-1.016,-1.603,125.055,45.937,262.71
60398670,1.287,1.37,-1.996,158.34,89.617,327.285
60398680,1.991,1.997,-1.545,51.485,126.7,356.195
60398690,0.661,1.997,0.147,-46.987,65.345,330.417
60398700,1.371,0.838,1.781,50.347,-209.562,253.435
60398710,-1.131,-1.466,1.219,328.142,-147.367,181.72
60398720,-1.016,-1.56,1.734,412.212,-236.425,37.327
60398730,0.929,1.997,1.302,291.707,-303.66,-101.465
60398740,0.963,0.446,0.308,29.085,-229.162,-63.717
60398750,0.519,0.243,0.753,-48.072,-62.737,-14.822
60398760,1.191,-0.517,0.637,-38.43,1.855,30.817
60398770,0.516,-0.39,0.873,-34.615,69.44,12.53
60398780,0.191,-0.225,0.965,-24.605,77.805,13.667
60398790,0.076,-0.307,0.985,-22.487,65.852,5.442
60398800,0.005,-0.324,0.986,-15.872,46.602,4.235
60398810,0.118,-0.25,0.963,-11.34,27.457,-1.277
60398820,-0.022,-0.313,0.981,-7.892,11.392,-5.775
60398830,0.164,-0.199,0.968,-2.222,-6.702,-4.655
60398840,0.277,-0.199,0.939,-1.207,-16.24,-3.867
60398850,0.341,-0.219,0.92,-0.157,-18.357,-1.575
60398860,0.431,-0.117,0.926,0.997,-14.21,1.505
60398870,0.369,-0.203,0.914,-1.837,-6.842,6.09
60398880,0.329,-0.246,0.912,-1.382,-1.067,8.627
60398890,0.33,-0.167,0.934,0.525,1.172,9.1
60398900,0.33,-0.169,0.933,-0.997,4.532,9.905
60398910,0.315,-0.213,0.93,-2.975,5.81,9.24
60398920,0.314,-0.2,0.923,-3.657,8.382,7.822
60398930,0.28,-0.221,0.923,-3.202,8.26,6.755
60398940,0.236,-0.251,0.919,-1.61,8.312,5.687
60398950,0.217,-0.255,0.917,2.152,3.745,2.782
60398960,0.254,-0.229,0.923,5.145,1.19,0.017
60398970,0.268,-0.199,0.933,7.367,-1.942,-1.855
60398980,0.273,-0.175,0.945,7.402,-1.522,-1.19
60398990,0.277,-0.165,0.95,6.072,-3.535,-0.525
60399000,0.284,-0.163,0.942,3.657,-2.852,0.717
60399010,0.305,-0.184,0.932,1.82,-4.112,1.155
60399010,0.29,-0.21,0.923,0.822,-1.557,1.33
60399030,0.29,-0.198,0.925,1.872,-1.96,1.295
60399030,0.28,-0.19,0.929,2.135,-0.122,1.032
60399050,0.278,-0.19,0.925,2.047,-1.225,0.28
60399050,0.273,-0.186,0.931,1.82,0.227,0.455
60399070,0.271,-0.184,0.935,1.592,-0.822,0.717
60399070,0.274,-0.168,0.939,0.7,0.42,1.925
60399080,0.285,-0.162,0.94,-0.577,-0.455,3.255
60399090,0.299,-0.171,0.943,-2.73,1.592,5.057
60399100,0.318,-0.201,0.944,-4.34,1.977,6.195
60399110,0.282,-0.196,0.936,-4.69,4.567,6.895
60399120,0.277,-0.112,0.958,-5.845,4.76,7.822
60399130,0.34,-0.162,0.974,-12.022,6.632,10.307
60399140,0.387,-0.157,1.003,-17.605,9.625,11.567
60399150,0.511,-0.154,1.064,-25.217,16.957,14.07
60399160,0.573,-0.149,1.126,-37.1,30.31,17.412
60399170,0.489,-0.146,1.167,-49.665,47.915,23.432
60399180,0.376,-0.26,1.101,-61.407,62.457,28.385
60399190,0.367,-0.316,0.836,-60.235,60.76,31.5
60399200,0.719,-0.088,1.247,-68.18,49,35.437
60399210,0.371,-0.389,1.095,-74.847,60.462,45.272
60399220,0.454,-0.358,1.133,-67.567,69.65,51.922
60399230,0.503,-0.48,1.088,-52.062,93.467,70.192
60399240,0.373,-0.405,0.984,-25.375,93.152,87.92
60399250,0.355,-0.387,1.055,-5.39,76.65,89.337
60399260,0.155,-0.369,1.043,17.99,36.015,81.445
60399270,0.11,-0.15,0.945,51.94,-52.377,52.867
60399280,1.843,0.473,0.62,76.702,-105.805,28.28
60399290,1.595,0.062,0.334,59.167,-66.237,13.51
60399300,0.503,0.125,0.486,49.245,-42.087,-38.587
60399310,0.062,0.218,0.619,42.91,-82.057,-66.622
60399320,0.27,0.072,0.629,37.38,-119.595,-64.33
60399330,0.239,0.018,0.647,41.212,-113.365,-55.58
60399330,-0.013,0.041,0.654,45.237,-88.655,-45.01
60399350,-0.04,0.01,0.673,42.437,-76.912,-34.545
60399350,0.097,-0.109,0.648,34.685,-70.49,-30.502
60399370,0.177,-0.162,0.547,29.435,-64.96,-36.802
60399370,0.212,-0.135,0.447,17.202,-56.42,-48.16
60399390,0.337,-0.231,0.455,-4.427,-52.692,-56.315
60399390,0.509,-0.378,0.511,-28.752,-44.59,-67.252
60399410,0.438,-0.434,0.55,-41.842,-36.872,-79.467
60399410,0.284,-0.367,0.565,-50.89,-36.96,-88.83
60399420,0.184,-0.383,0.57,-65.38,-51.555,-91.7
60399430,0.09,-0.369,0.506,-77.577,-73.85,-87.885
60399440,0.512,-0.584,0.261,-86.765,-95.497,-73.99
60399450,1.266,-0.795,1.422,-108.01,150.36,49.7
60399460,-1.998,-1.777,0.623,49.962,240.695,198.502
60399470,0.384,0.519,1.387,266.035,-93.362,195.72
60399480,1.656,-0.983,1.373,199.132,-101.675,220.167
60399490,-1.941,1.046,1.768,177.87,-0.14,40.967
60399500,0.012,1.064,1.159,51.38,-112.017,-39.357
60399510,1.488,-0.325,0.866,-27.86,-135.415,-18.042
60399520,0.494,0.052,0.87,-22.277,-90.352,-16.397
60399530,0.898,-0.408,0.768,-22.697,-68.792,9.572
60399540,0.906,-0.334,0.74,-5.6,-35.577,20.037
60399550,0.446,-0.17,0.894,-1.627,-2.695,17.762
60399560,0.521,-0.155,0.874,-4.602,6.86,12.932
60399570,0.502,-0.199,0.864,-9.397,16.835,7.752
60399580,0.469,-0.18,0.878,-9.59,27.02,5.757
60399590,0.407,-0.181,0.903,-10.202,34.002,5.267
60399600,0.378,-0.175,0.916,-11.095,37.432,4.795
60399610,0.324,-0.181,0.93,-11.322,36.942,4.2
60399620,0.258,-0.189,0.947,-11.865,34.055,2.1
60399630,0.269,-0.187,0.937,-11.672,26.477,-1.505
60399640,0.316,-0.217,0.93,-10.815,21.752,-4.042
60399650,0.321,-0.197,0.923,-9.677,18.427,-5.04
60399660,0.326,-0.202,0.925,-8.277,18.165,-3.447
60399670,0.314,-0.179,0.933,-7.105,16.03,-2.152
60399680,0.312,-0.17,0.936,-7.875,15.715,-1.522
60399690,0.31,-0.176,0.935,-8.715,13.09,-1.172
60399700,0.289,-0.195,0.934,-9.432,12.775,-0.42
60399710,0.286,-0.197,0.932,-9.047,9.082,-0.752
60399720,0.286,-0.202,0.93,-9.187,7.892,-0.997
60399730,0.284,-0.202,0.929,-8.697,4.34,-1.96
60399740,0.278,-0.204,0.927,-8.575,3.447,-2.327
60399750,0.28,-0.21,0.927,-7.7,-0.402,-3.027
60399760,0.288,-0.214,0.922,-6.86,-1.715,-3.482
60399760,0.292,-0.212,0.922,-5.495,-5.145,-4.497
60399780,0.299,-0.204,0.922,-4.357,-5.355,-4.62
60399780,0.301,-0.206,0.922,-3.605,-7.595,-5.162
60399800,0.305,-0.197,0.922,-3.412,-7.227,-5.53
60399800,0.315,-0.203,0.918,-3.01,-8.837,-5.932
60399820,0.321,-0.203,0.915,-2.66,-7.595,-5.967
60399820,0.318,-0.199,0.917,-2.03,-8.155,-6.002
60399830,0.314,-0.204,0.917,-2.117,-6.912,-5.652
60399840,0.31,-0.205,0.915,-1.505,-7.857,-6.107
60399850,0.314,-0.207,0.914,-1.05,-7.262,-6.65
60399860,0.315,-0.211,0.912,-0.315,-8.085,-7.577
60399870,0.313,-0.213,0.916,0.665,-7.717,-8.067
60399880,0.307,-0.222,0.92,2.17,-9.117,-8.645
60399890,0.288,-0.199,0.922,3.867,-10.465,-9.187
60399900,0.298,-0.172,0.935,4.112,-12.897,-9.625
60399910,0.281,-0.191,0.939,2.047,-15.05,-10.15
60399920,0.285,-0.212,0.944,0.297,-19.092,-13.317
60399930,0.287,-0.242,0.931,-0.437,-24.115,-17.955
60399940,0.306,-0.224,0.904,1.12,-28.77,-22.907
60399950,0.38,-0.168,0.882,2.887,-30.345,-24.885
60399960,0.388,-0.075,0.897,1.522,-25.707,-23.257
60399970,0.403,0,0.953,-6.457,-19.32,-19.075
60399980,0.323,0.019,1.028,-23.135,-15.487,-16.642
60399990,0.302,-0.02,1.094,-45.535,-21.507,-20.685
60400000,0.234,-0.049,1.176,-72.467,-25.55,-33.197
60400010,0.198,-0.335,1.341,-110.337,-14.455,-57.89
60400020,0.015,0.289,1.437,-153.65,1.26,-82.74
60400030,0.413,0,1.239,-204.732,-7.875,-86.555
60400040,0.252,-0.176,1.276,-250.162,5.932,-89.827
60400050,0.305,-0.231,1.162,-277.322,9.485,-82.985
60400060,0.159,-0.516,1.09,-306.95,4.62,-79.992
60400070,0.092,-0.336,1.256,-322.927,-19.705,-98.787
60400080,0.076,-0.186,1.046,-319.34,-55.685,-122.027
60400080,0.344,-0.597,0.983,-327.74,-67.655,-113.05
60400100,0.481,-0.828,1.054,-308.542,-39.007,-106.977
60400100,-0.002,-0.452,1.137,-259.262,9.415,-109.812
60400120,0.189,-0.194,0.859,-214.917,27.58,-122.465
60400120,0.386,-0.267,0.904,-190.172,30.205,-121.537
60400140,0.424,-0.501,1.123,-153.545,54.757,-113.697
60400140,-0.295,-0.51,1.174,-85.277,82.46,-98.91
60400160,-0.543,-0.091,1.06,-6.51,94.167,-57.33
60400160,0.141,-0.164,0.598,43.89,63.35,-3.412
60400170,0.205,-0.207,0.501,73.937,76.247,29.277
60400180,0.568,-0.17,0.376,105.962,87.412,50.575
60400190,0.716,-0.096,0.28,129.797,94.395,54.11
60400200,0.766,-0.082,0.327,141.085,93.572,50.89
60400210,0.731,-0.183,0.452,143.885,82.792,43.785
60400220,0.681,-0.284,0.561,143.972,67.252,39.55
60400230,0.732,-0.396,0.615,147.455,60.095,49.28
60400240,0.871,-0.515,0.597,151.34,57.12,64.225
60400250,0.955,-0.662,0.529,152.67,59.902,78.347
60400260,0.947,-0.72,0.414,150.237,59.587,86.975
60400270,0.844,-0.737,0.261,135.397,50.207,91.682
60400280,0.753,-0.764,0.101,109.147,33.932,95.357
60400290,0.685,-0.78,-0.011,75.757,20.37,99.75
60400300,0.627,-0.827,-0.035,35.42,16.1,105.192
60400310,0.365,-1.02,-0.041,-3.36,16.852,112.315
60400320,0.027,-1.159,-0.108,-31.99,8.032,115.937
60400330,0.069,-1.139,-0.313,-52.57,2.695,124.337
60400340,0.214,-1.066,-0.466,-77.455,20.177,140.997
60400350,0.071,-0.571,-0.287,-87.937,55.965,161.21
60400360,1.67,-1.593,1.957,-32.287,32.462,154.35
60400370,0.964,-0.793,-0.813,196.42,74.585,157.657
60400380,-1.788,1.902,1.14,262.762,67.375,99.627
60400390,-0.916,-1.41,0.951,118.597,-53.042,134.855
60400400,-0.405,-0.623,0.954,203.227,-112.665,86.782
60400410,-0.686,0.298,1.025,227.465,-110.162,-8.557
60400420,-0.629,-0.188,1.304,190.75,-132.405,-75.862
60400430,-0.071,-0.258,1.698,158.252,-185.167,-139.405
60400440,1.301,-0.312,1.376,124.25,-221.375,-158.777
60400450,1.902,0.77,0.931,83.93,-167.002,-95.83
60400460,1.082,0.421,0.904,25.06,-50.872,-16.135
60400470,0.9,0.052,0.861,-18.27,16.292,12.215
60400480,0.539,-0.17,0.918,-34.142,59.29,25.637
60400490,0.183,-0.278,0.976,-37.695,71.452,30.502
60400500,-0.009,-0.348,0.956,-36.505,63.962,28.49
60400510,-0.1,-0.413,0.92,-28.752,43.12,18.06
60400510,0.008,-0.384,0.906,-16.362,21.787,1.05
60400530,0.168,-0.322,0.917,-4.305,3.955,-10.605
60400530,0.193,-0.244,0.949,2.87,-3.605,-11.147
60400550,0.172,-0.211,0.964,4.147,-10.902,-10.517
60400550,0.253,-0.194,0.96,1.26,-15.82,-12.145
60400570,0.345,-0.161,0.962,-2.38,-18.147,-11.462
60400570,0.376,-0.142,0.964,-8.47,-12.81,-5.775
60400580,0.342,-0.153,0.973,-16.24,-7.612,0.945
60400590,0.287,-0.16,0.997,-25.112,-2.607,5.547
60400600,0.277,-0.105,1.036,-35.14,-1.085,4.55
60400610,0.242,0.063,1.121,-45.745,3.902,-4.27
60400620,0.203,-0.332,1.095,-61.81,3.29,-16.45
60400630,0.339,-0.139,1.109,-79.677,0.595,-23.817
60400640,0.386,-0.216,1.078,-97.002,4.322,-25.585
60400650,0.41,-0.193,1.115,-114.712,21.367,-25.865
60400660,0.232,-0.102,1.125,-133.07,36.907,-25.795
60400670,0.216,-0.195,1.122,-152.565,28.77,-23.065
60400680,0.146,-0.263,1.107,-167.387,20.615,-25.865
60400690,0.185,-0.318,1.071,-177.082,10.202,-34.212
60400700,0.179,-0.547,1.083,-181.405,4.847,-52.622
60400710,0.3,-0.815,1.193,-164.482,5.495,-76.44
60400720,0.437,-0.979,0.931,-138.53,38.885,-98.63
60400730,-0.404,-1.475,0.828,-127.295,107.817,-108.08
60400740,-0.496,-1.51,0.84,-97.667,97.492,-141.085
60400750,-0.392,-1.108,0.603,-51.537,60.865,-170.047
60400760,-0.745,-0.434,0.233,4.952,37.31,-187.39
60400770,-1.382,0.345,-0.058,39.165,20.37,-153.422
60400780,-1.362,0.475,-0.134,47.46,43.032,-33.617
60400790,-0.736,0.272,-0.455,91.962,47.232,106.837
60400800,0.231,0.231,-0.782,132.405,75.81,197.942
60400810,-1.147,0.111,-1.444,167.51,66.745,235.795
60400820,1.596,-0.012,0.941,67.742,-147.91,146.37
60400830,0.281,-1.998,1.806,96.565,-43.68,112.787
60400830,-1.106,0.479,0.802,428.522,-37.94,-19.792
60400850,0.565,0.98,1.968,399.367,-171.377,-22.925
60400850,-0.787,-0.407,1.998,252.315,-234.885,-97.895
60400870,1.998,1.888,0.553,126.945,-256.9,-139.107
60400870,1.008,0.477,0.746,-4.112,-78.137,-31.885
60400890,1.349,0.05,0.745,-46.777,33.355,18.97
60400890,0.371,-0.203,0.975,-60.095,85.627,14.665
60400910,0.243,-0.413,0.943,-58.1,88.812,7.91
60400910,-0.306,-0.431,0.998,-47.46,78.085,5.88
60400920,-0.207,-0.537,0.907,-33.25,40.67,-8.855
60400930,0.035,-0.513,0.892,-14.262,9.572,-20.3
60400940,0.261,-0.265,0.937,2.467,-10.657,-16.187
60400950,0.032,-0.206,0.996,7.735,-19.652,-7.402
60400960,0.238,-0.188,0.969,3.255,-35,-13.86
60400970,0.654,-0.124,0.916,-1.505,-37.905,-14.63
60400980,0.543,-0.074,0.943,-2.205,-28.665,-4.322
60400990,0.334,-0.064,0.969,-17.762,-6.09,7.087
60401000,0.489,-0.073,1.018,-34.212,0.385,17.01
60401010,0.497,-0.089,1.073,-51.1,7.857,21.472
60401020,0.344,-0.067,1.131,-68.32,20.895,16.625
60401030,0.273,-0.232,1.16,-86.817,23.31,14.017
60401040,0.19,-0.135,1.201,-106.645,15.767,11.987
60401050,0.117,-0.141,1.191,-127.557,-5.407,8.295
60401060,0.21,-0.171,1.083,-148.067,-23.887,-5.32
60401070,-0.002,-0.218,1.18,-168.98,-13.895,-27.755
60401080,0.179,-0.075,1.071,-187.582,-22.102,-47.39
60401090,0.541,-0.131,1.168,-213.78,-17.622,-58.887
60401100,0.428,-0.879,1.398,-241.342,47.302,-58.572
60401110,0.055,-1.114,1.688,-235.182,116.357,-67.742
60401120,-0.151,-0.926,1.525,-210.49,160.457,-97.317
60401130,-0.441,-0.561,1.457,-180.302,177.345,-132.667
60401140,-0.484,0.557,1.057,-116.34,174.09,-193.235
60401150,0.63,1.418,1.009,-57.907,150.57,-230.58
60401160,-0.711,1.992,0.51,42.56,124.53,-259.682
60401170,-1.088,1.997,0.353,95.025,85.557,-187.075
60401180,-0.471,1.431,0.019,164.43,78.977,4.357
60401190,0.085,0.465,-0.774,246.19,47.827,145.372
60401200,0.834,-0.246,-1.689,286.282,55.615,235.83
60401210,0.585,-1.096,-0.759,208.932,95.182,246.26
60401220,1.772,-1.96,0.815,-65.87,-148.435,175.945
60401230,-1.382,-1.615,-0.15,205.887,-202.685,55.842
60401240,0.961,1.997,1.613,515.06,-187.95,-168.262
60401250,-0.823,-0.927,1.998,208.967,-222.81,-23.747
60401260,1.555,1.712,0.248,85.26,-257.985,-117.337
60401260,0.331,-0.114,0.946,-24.517,-88.707,-32.672
60401280,1.394,-0.3,0.643,-37.257,5.845,11.41
60401280,0.142,-0.492,0.919,-35.542,44.747,10.78
60401300,0.629,-0.223,0.848,-22.715,51.117,12.53
60401300,0.033,-0.22,1.008,-22.732,61.687,11.672
60401320,0.066,-0.346,0.947,-24.395,44.012,-3.815
60401320,0.244,-0.326,0.917,-17.675,28.42,-10.22
60401330,0.133,-0.301,0.941,-11.147,20.44,-8.575
60401340,0.219,-0.263,0.939,-4.83,7.875,-7.157
60401350,0.322,-0.185,0.938,-3.22,2.065,-6.265
60401360,0.319,-0.199,0.938,-4.847,1.645,-3.57
60401370,0.347,-0.179,0.94,-5.932,3.027,0.682
60401380,0.361,-0.192,0.935,-8.82,5.74,3.342
60401390,0.349,-0.192,0.94,-11.252,9.887,6.352
60401400,0.341,-0.186,0.949,-14.192,13.737,9.415
60401410,0.349,-0.183,0.957,-18.427,17.5,11.497
60401420,0.35,-0.192,0.957,-23.415,22.802,12.775
60401430,0.311,-0.232,0.948,-26.582,27.002,13.755
60401440,0.275,-0.267,0.931,-26.547,30.362,14.542
60401450,0.216,-0.284,0.914,-23.135,29.785,14.332
60401460,0.175,-0.287,0.905,-18.322,27.142,13.142
60401470,0.151,-0.279,0.895,-12.617,20.475,10.552
60401480,0.138,-0.262,0.888,-7.577,14.087,7.665
60401490,0.161,-0.27,0.89,-3.342,4.952,4.182
60401500,0.184,-0.324,0.88,2.38,-0.595,1.907
60401510,0.091,-0.28,0.886,10.605,-8.592,-2.38
60401520,0.182,-0.262,0.906,16.31,-16.485,-4.742
60401530,0.215,-0.26,0.926,20.002,-23.31,-5.985
60401540,0.223,-0.192,0.947,21.56,-25.287,-6.632
60401550,0.275,-0.159,0.976,17.937,-28.962,-6.86
60401560,0.277,-0.146,0.971,10.745,-29.365,-6.895
60401570,0.342,-0.162,0.97,3.22,-30.555,-5.635
60401580,0.377,-0.173,0.996,-4.375,-25.392,-2.94
60401580,0.391,-0.116,1.035,-13.037,-20.772,0.892
60401600,0.386,-0.133,1.076,-27.002,-13.58,7.455
60401600,0.366,-0.194,1.076,-39.987,-9.852,12.705
60401620,0.345,-0.231,1.043,-49.455,-7.77,17.692
60401620,0.381,-0.243,1.017,-55.93,-10.115,22.767
60401640,0.433,-0.268,1.003,-61.722,-9.485,27.265
60401640,0.418,-0.296,0.969,-65.257,-9.222,30.537
60401660,0.403,-0.342,0.964,-67.725,-5.022,33.355
60401660,0.485,-0.45,0.915,-69.79,0.752,35.962
60401670,0.575,-0.544,0.961,-71.347,16.222,37.03
60401680,0.542,-0.683,0.899,-62.562,34.825,35.402
60401690,0.464,-0.876,0.959,-40.792,59.185,35.612
60401700,0.438,-1.052,0.815,-18.777,65.887,34.737
60401710,0.724,-1,0.58,-6.825,64.54,16.397
60401720,0.438,-1.361,0.429,-34.807,73.902,-13.615
60401730,0.412,-1.447,0.6,-47.862,46.287,-54.197
60401740,0.345,-1.307,0.617,-53.007,23.187,-86.747
60401750,0.238,-1.184,0.609,-56.525,19.232,-101.605
60401760,0.171,-1.104,0.576,-61.46,28.122,-103.775
60401770,0.008,-0.962,0.492,-66.202,42.647,-98.175
60401780,-0.17,-0.742,0.395,-72.485,51.957,-84.997
60401790,-0.22,-0.484,0.341,-82.652,53.882,-66.22
60401800,-0.247,-0.308,0.341,-94.937,55.072,-42.297
60401810,-0.379,-0.104,0.356,-102.042,52.15,-18.777
60401820,-0.294,0.233,0.282,-101.517,45.552,-1.487
60401830,-0.284,0.744,0.261,-106.067,55.405,20.002
60401840,-0.406,0.857,0.197,-136.517,62.09,43.627
60401850,-0.334,0.668,0.324,-175.787,63.49,66.535
60401860,-0.894,0.58,1.394,-186.515,50.085,67.305
60401870,0.658,0.059,1.996,-97.93,-33.617,58.205
60401880,1.708,-0.6,0.429,94.605,-44.065,116.83
60401890,0.875,-0.129,-0.094,144.427,110.687,66.29
60401900,-0.949,-1.435,1.639,54.162,64.697,20.37
60401910,-1.36,-1.027,0.494,129.325,7.472,31.657
60401920,-0.162,1.031,0.837,172.392,-55.23,15.277
60401930,-0.206,-0.824,0.909,112,-103.845,32.497
60401940,-0.441,-0.29,0.784,150.465,-118.947,-9.87
60401950,-0.048,-0.347,0.891,162.662,-123.042,-39.077
60401960,-0.065,-0.395,0.93,173.32,-118.58,-74.165
60401970,0.169,-0.298,0.937,188.685,-132.055,-112.402
60401980,0.493,-0.41,1.052,187.67,-142.397,-129.237
60401990,0.62,-0.264,1.396,175.472,-149.257,-120.837
60402000,0.834,0.181,1.428,144.025,-132.667,-92.837
60402010,1.21,0.608,1.124,82.512,-94.08,-62.09
60402010,1.187,0.361,0.928,13.282,-38.657,-26.792
60402030,0.837,-0.02,0.891,-23.345,15.032,9.03
60402030,0.382,-0.333,0.92,-35.385,48.107,30.607
60402040,0.132,-0.332,0.927,-33.792,52.797,32.707
60402050,0.063,-0.317,0.944,-29.19,44.625,25.812
60402060,0.093,-0.332,0.927,-24.92,31.167,15.96
60402070,0.122,-0.319,0.915,-19.582,19.757,6.527
60402080,0.192,-0.277,0.933,-13.475,9.45,0.77
60402090,0.231,-0.255,0.95,-10.955,3.482,0.192
60402100,0.258,-0.209,0.98,-12.337,-0.437,1.067
60402110,0.29,-0.14,1.016,-18.147,-1.365,1.592
60402120,0.332,-0.166,1.031,-29.19,-0.367,2.275
60402130,0.359,-0.174,1.041,-42.07,3.395,4.48
60402140,0.345,-0.186,1.048,-55.265,9.117,8.015
60402150,0.323,-0.214,1.044,-68.705,11.795,11.025
60402160,0.302,-0.225,1.051,-81.725,12.617,12.022
60402170,0.301,-0.216,1.056,-94.64,11.27,12.81
60402180,0.392,-0.229,1.05,-108.64,13.16,13.93
60402190,0.193,-0.166,1.093,-124.197,25.637,11.095
60402200,0.329,-0.18,0.97,-147,22.61,7.56
60402210,0.201,-0.474,0.976,-153.825,23.782,2.957
60402220,0.031,-0.515,0.986,-145.04,17.307,-5.145
60402230,0.136,-0.479,0.889,-137.777,-3.92,-16.345
60402240,0.258,-0.525,0.752,-119.157,-13.335,-25.725
60402250,0.223,-0.45,0.567,-93.485,-7.367,-37.502
60402260,0.187,-0.329,0.344,-73.22,10.08,-42.437
60402270,0.26,-0.42,0.174,-58.135,30.082,-41.37
60402280,0.278,-0.661,0.1,-36.382,52.342,-33.81
60402290,0.371,-0.888,0.114,-3.552,66.15,-16.117
60402300,0.55,-1.153,0.137,36.802,91.14,13.16
60402310,0.536,-1.187,0.417,88.112,119.42,35.997
60402320,-0.433,-0.916,0.579,152.985,102.83,50.085
60402330,-0.968,-0.448,0.632,212.432,13.667,59.727
60402330,-0.518,-0.457,0.887,244.37,-58.24,54.985
60402350,-0.699,-0.1,1.044,267.907,-90.387,0.28
60402350,-0.469,0.278,1.378,262.062,-123.287,-75.932
60402370,0.035,-0.123,1.827,209.492,-180.127,-133.822
60402370,1.298,0.375,1.434,155.837,-191.432,-139.72
60402390,1.773,0.743,0.936,76.65,-133.735,-80.185
60402390,1.173,0.331,0.878,9.275,-39.707,-16.677
60402410,0.837,-0.005,0.88,-22.907,23.205,15.557
60402410,0.542,-0.243,0.917,-35.402,58.73,30.8
60402420,0.142,-0.334,0.981,-37.712,68.372,41.597
60402430,-0.07,-0.3,0.992,-38.797,59.115,39.392
60402440,-0.039,-0.363,0.956,-38.167,38.92,24.465
60402450,0.004,-0.351,0.898,-31.972,20.755,8.085
60402460,0.088,-0.35,0.9,-20.3,4.392,-2.38
60402470,0.172,-0.315,0.915,-9.957,-7.77,-4.567
60402480,0.199,-0.262,0.961,-5.057,-15.697,-4.06
60402490,0.266,-0.134,1.014,-7.577,-20.055,-4.13
60402500,0.33,-0.151,1.007,-17.692,-19.39,-4.445
60402510,0.44,-0.21,0.987,-28.157,-14.507,-1.907
60402520,0.466,-0.189,0.998,-38.29,-3.22,5.11
60402530,0.448,-0.182,1.013,-49.735,9.187,13.79
60402540,0.416,-0.191,1.011,-63.192,20.352,20.335
60402550,0.399,-0.212,0.986,-74.777,27.965,23.432
60402560,0.351,-0.249,0.955,-82.845,35.997,24.727
60402570,0.282,-0.275,0.928,-86.117,39.672,24.255
60402580,0.201,-0.363,0.896,-87.622,41.055,23.625
60402590,0.181,-0.382,0.873,-84.49,37.327,21.472
60402600,0.16,-0.386,0.877,-79.782,38.517,17.832
60402610,0.099,-0.367,0.891,-75.057,34.212,12.425
60402620,0.095,-0.417,0.853,-71.207,28.752,9.292
60402630,0.047,-0.396,0.899,-66.5,21.542,3.43
60402640,0.093,-0.378,0.91,-63.07,16.065,-2.187
60402650,0.08,-0.436,0.894,-61.11,8.697,-7.752
60402660,0.069,-0.455,0.847,-55.055,3.185,-14.262
60402670,0.1,-0.466,0.819,-47.425,-4.83,-20.597
60402680,0.12,-0.464,0.809,-41.002,-10.622,-24.447
60402690,0.127,-0.405,0.779,-32.62,-19.635,-26.267
60402700,0.165,-0.394,0.705,-23.782,-25.48,-25.41
60402710,0.19,-0.569,0.652,-14.297,-30.082,-25.025
60402720,0.178,-0.666,0.686,-1.295,-28.542,-27.527
60402730,0.168,-0.526,0.882,11.445,-30.45,-31.395
60402730,0.121,-0.426,0.941,14.63,-35.14,-33.285
60402750,0.12,-0.547,0.815,14.63,-48.23,-30.537
60402750,0.224,-0.58,0.7,21.717,-55.107,-30.38
60402760,0.267,-0.547,0.694,33.022,-54.022,-33.95
60402770,0.27,-0.484,0.748,44.677,-47.022,-36.277
60402780,0.255,-0.431,0.788,54.407,-46.2,-37.03
60402790,0.318,-0.425,0.797,60.637,-45.64,-36.365
60402800,0.31,-0.393,0.842,65.415,-43.662,-37.922
60402810,0.329,-0.343,0.864,68.302,-40.652,-39.725
60402820,0.324,-0.311,0.905,67.497,-38.062,-42.21
60402830,0.308,-0.277,0.963,64.33,-36.417,-44.292
60402840,0.347,-0.265,0.953,59.832,-40.407,-44.24
60402850,0.391,-0.258,0.968,53.007,-42.402,-41.037
60402860,0.387,-0.255,1.005,44.765,-44.45,-36.452
60402870,0.419,-0.218,1.02,35.21,-48.737,-30.52
60402880,0.458,-0.195,1.047,21.507,-50.102,-24.185
60402890,0.32,-0.235,1.029,8.155,-53.917,-18.567
60402900,0.563,-0.241,0.94,-3.885,-56.805,-16.852
60402910,0.618,-0.305,0.882,-20.965,-30.905,-15.33
60402920,0.377,-0.426,1.021,-32.34,2.957,-11.952
60402930,0.596,-0.523,1.053,-30.1,23.415,-7.017
60402940,0.939,-0.703,1.011,-18.217,55.737,-0.822
60402950,0.673,-0.807,0.969,9.345,84.315,7.35
60402960,0.298,-1.078,1.065,37.415,84.84,35.245
60402970,-0.486,-0.592,0.828,85.032,59.307,80.92
60402980,0.344,-0.484,0.5,86.625,-18.392,134.26
60402990,0.537,-0.928,0.489,60.725,-54.687,177.257
60403000,0.339,-0.848,0.43,62.597,-60.48,192.92
60403010,-0.154,-0.498,0.279,60.287,-75.6,202.65
60403020,-0.261,-0.359,0.233,29.33,-92.347,220.5
60403030,0.052,-0.434,0.293,-4.795,-85.085,238
60403040,-0.074,-0.284,0.257,-26.862,-53.2,238.262
60403050,-0.132,-0.013,0.157,-55.422,-33.915,219.555
60403060,0.029,0.073,0.071,-97.16,-13.23,198.73
60403070,-0.177,0.671,1.001,-114.537,-1.54,149.03
60403080,1.998,0.069,1.636,-28.157,-5.74,57.26
60403080,-0.264,1.832,-0.044,118.107,78.12,-97.142
60403100,-0.789,-0.474,1.493,16.765,120.05,-60.077
60403100,0.196,-1.763,1.025,43.767,36.172,-45.99
60403120,0.524,-0.223,0.769,97.195,-0.122,-98.14
60403120,0.462,-0.234,0.961,81.532,3.132,-75.932
60403140,0.677,-0.204,0.83,83.86,6.877,-55.387
60403140,0.442,-0.388,0.926,81.987,21.91,-30.467
60403160,0.39,-0.243,0.92,86.362,29.067,-13.107
60403160,0.139,-0.289,1.02,84.262,28.822,-6.632
60403170,0.019,-0.246,1.073,80.29,14.122,-12.32
60403180,-0.026,-0.158,1.098,73.675,-8.855,-25.917
60403190,0.092,-0.198,1.099,62.51,-28.91,-42.122
60403200,0.332,-0.157,1.043,52.185,-41.79,-53.532
60403210,0.473,-0.148,0.974,42.665,-40.81,-52.15
60403220,0.479,-0.198,0.948,34.475,-31.342,-43.277
60403230,0.457,-0.131,0.954,27.58,-23.082,-34.09
60403240,0.488,-0.045,0.945,17.517,-15.102,-26.582
60403250,0.505,-0.107,0.911,6.37,-5.267,-19.512
60403260,0.457,-0.136,0.91,-0.052,8.137,-11.392
60403270,0.359,-0.158,0.932,-3.132,16.817,-4.252
60403280,0.304,-0.177,0.943,-5.845,20.72,-0.577
60403290,0.282,-0.182,0.949,-7.77,19.215,1.592
60403300,0.227,-0.174,0.968,-9.922,17.57,5.057
60403310,0.205,-0.164,0.988,-13.475,10.885,6.79
60403320,0.22,-0.149,1.006,-20.212,4.655,7.175
60403330,0.273,-0.115,1.033,-30.257,-2.625,6.86
60403340,0.291,-0.085,1.095,-45.167,-3.972,6.702
60403350,0.305,-0.046,1.163,-61.88,-4.06,1.505
60403360,0.378,-0.093,1.153,-79.31,2.922,-7.84
60403370,0.491,-0.208,1.159,-106.452,11.147,-10.85
60403380,0.915,0.031,1.053,-129.5,35.175,-11.97
60403390,0.35,-0.119,1.276,-156.45,88.83,-14.962
60403400,0.866,-0.17,1.138,-172.935,91.77,-16.222
60403410,1.149,-0.773,1.138,-164.99,117.425,-11.235
60403420,0.5,-0.573,0.839,-128.135,140.84,-13.44
60403420,-0.093,-0.622,0.694,-107.205,134.312,-2.695
60403440,0.263,-0.715,0.733,-92.207,116.952,16.31
60403440,-0.14,-1.21,0.614,-94.027,102.305,25.165
60403460,1.19,-1.649,0.254,-95.812,11.025,-21.42
60403460,1.471,-0.708,0.234,-78.645,-82.092,-163.59
60403480,-1.389,0.46,0.572,-81.427,-98.297,-231.035
60403480,-1.813,1.801,0.394,-26.932,-65.677,-149.957
60403500,-1.46,1.997,0.483,36.295,-34.282,1.557
60403500,-0.228,1.995,-0.045,120.75,-31.027,133.77
60403510,0.76,1.908,-1.391,206.64,-25.83,181.912
60403520,-0.283,-0.702,1.073,54.477,51.835,187.687
60403530,-1.584,-1.998,-0.42,177.59,-129.15,255.255
60403540,1.127,0.729,0.892,481.407,-100.555,-75.075
60403550,-1.391,1.067,1.993,412.755,-134.242,-59.85
60403560,0.553,-0.204,1.88,207.007,-251.702,-97.265
60403570,1.908,1.721,0.119,94.92,-244.44,-126.157
60403580,0.874,0.031,0.822,-29.155,-46.48,-11.095
60403590,0.765,-0.092,0.837,-48.02,38.517,25.812
60403600,0.587,-0.259,0.888,-53.41,67.672,19.022
60403610,0.34,-0.382,0.912,-41.965,78.995,22.4
60403620,-0.166,-0.426,0.999,-30.415,73.132,22.365
60403630,-0.18,-0.35,0.983,-20.58,38.745,8.242
60403640,0.136,-0.412,0.909,-12.932,10.15,-9.1
60403650,0.179,-0.254,0.943,-2.66,-5.127,-14.122
60403660,0.236,-0.227,0.946,2.467,-14.28,-12.145
60403670,0.252,-0.17,0.958,3.062,-21.227,-11.392
60403680,0.353,-0.149,0.942,-0.367,-24.08,-11.76
60403690,0.436,-0.075,0.94,-4.27,-22.452,-8.207
60403700,0.375,-0.149,0.942,-11.427,-14.07,-0.525
60403710,0.344,-0.168,0.953,-16.502,-11.147,3.955
60403720,0.35,-0.144,0.969,-22.767,-8.68,6.492
60403730,0.355,-0.175,0.989,-30.992,-9.205,8.295
60403740,0.382,-0.109,1.04,-41.93,-6.282,8.855
60403750,0.405,-0.086,1.084,-57.102,-3.447,7.787
60403760,0.375,-0.173,1.113,-74.392,6.09,4.62
60403770,0.435,-0.269,1.048,-90.965,12.407,-1.207
60403780,1.118,-0.103,0.82,-106.785,36.977,-4.147
60403790,0.512,-0.307,0.967,-113.942,77.875,30.397
60403800,-0.301,-0.778,1.156,-124.477,62.3,63.892
60403810,0.464,0.147,1.211,-129.377,57.102,33.232
60403820,0.275,0.089,1.113,-155.137,53.252,20.282
60403830,0.594,-0.572,1.218,-176.837,50.312,28.945
60403830,0.645,-0.644,1.279,-155.75,61.092,31.097
60403850,0.319,-0.483,1.178,-131.232,74.217,28.595
60403850,0.061,-0.427,1.174,-123.97,78.645,29.61
60403870,0.137,-0.552,1.171,-119.892,81.882,46.427
60403870,0.2,0.101,1.12,-78.172,54.04,43.12
60403890,0.896,1.779,0.571,22.557,0.14,5.95
60403890,1.22,1.997,0.226,121.537,-30.275,-29.785
60403910,0.464,1.997,-0.156,159.862,-52.605,-25.882
60403910,0.309,1.997,-0.53,215.81,-41.842,7.262
60403920,0.232,1.676,-1.244,252.245,-27.65,63.84
60403930,-1.484,-1.327,0.459,74.882,-59.99,189.665
60403940,-0.163,-1.998,0.209,250.88,-306.442,343.927
60403950,0.102,-0.553,0.367,484.592,-163.1,78.697
60403960,-1.053,1.79,1.998,396.025,-145.53,-74.445
60403970,1.634,0,1.254,68.88,-235.357,-76.632
60403980,1.16,-0.259,0.655,-12.985,-137.182,-72.362
60403990,1.548,0.161,0.596,-23.765,-25.76,-0.98
60404000,0.068,-0.173,0.996,-29.872,38.64,26.67
60404010,0.46,-0.264,0.899,-30.257,37.73,12.67
60404020,0.198,-0.375,0.944,-29.295,41.142,6.037
60404030,0.039,-0.301,0.957,-26.11,29.487,2.607
60404040,0.034,-0.448,0.903,-17.36,10.692,-8.312
60404050,0.267,-0.383,0.912,-3.727,-6.685,-13.93
60404060,0.149,-0.251,0.967,5.6,-13.615,-9.047
60404070,0.281,-0.153,0.956,6.492,-25.462,-12.25
60404080,0.486,-0.133,0.907,1.89,-27.387,-14.42
60404090,0.531,-0.132,0.893,-1.137,-19.18,-7.875
60404100,0.788,-0.114,0.836,-3.64,-4.795,2.292
60404110,0.096,-0.29,0.994,1.12,22.05,28.035
60404120,-0.037,-0.075,1.032,-6.65,13.702,27.772
60404130,0.388,-0.162,0.963,-27.422,-14.07,-3.885
60404140,0.662,-0.163,0.931,-32.585,-10.99,5.18
60404150,0.387,-0.28,1.029,-33.67,1.487,27.772
60404160,0.236,-0.097,1.097,-40.775,5.425,36.12
60404170,0.256,-0.194,1.132,-58.275,-1.977,35.63
60404170,0.29,-0.256,1.146,-75.6,-11.497,36.225
60404190,0.324,-0.262,1.147,-92.12,-30.59,40.775
60404190,0.304,-0.228,1.141,-101.447,-44.275,43.312
60404210,0.243,-0.38,1.106,-110.862,-57.662,44.572
60404210,0.23,-0.441,1.099,-114.835,-70.49,38.867
60404230,0.371,-0.494,1.037,-108.395,-78.662,36.225
60404230,0.288,-0.697,1.004,-95.69,-78.242,34.51
60404250,0.034,-0.869,0.96,-72.765,-66.937,34.282
60404250,-0.425,-1.86,0.99,-60.69,-17.202,98.595
60404260,-1.736,-1.976,0.587,-25.62,75.355,187.197
60404270,-0.352,-0.43,0.189,126.402,70.542,191.642
60404280,1.247,0.135,-0.465,166.792,67.83,219.1
60404290,1.155,0.252,-0.587,118.492,131.232,157.937
60404300,0.371,0.623,-1.026,97.615,152.635,55.72
60404310,-0.7,1.626,-1.786,87.027,128.607,-26.355
60404320,-0.884,1.983,0.939,29.242,35.595,-58.187
60404330,1.58,-1.354,1.734,-38.29,-119.192,1.05
60404340,-0.746,-1.709,0.839,287.49,-98.385,-82.197
60404350,-0.148,0.829,1.982,352.082,-208.11,-202.545
60404360,1.711,1.388,1.478,248.22,-289.537,-145.6
60404370,1.33,1.245,0.447,73.972,-183.907,-69.457
60404380,1.319,0.058,0.596,-32.847,-46.112,14.84
60404390,0.746,-0.134,0.822,-47.302,37.17,37.292
60404400,0.77,-0.47,0.767,-50.557,73.64,26.722
60404410,0.396,-0.376,0.895,-36.207,92.785,21.56
60404420,-0.053,-0.388,0.996,-25.742,92.015,28.56
60404430,-0.141,-0.41,0.986,-15.067,62.02,17.482
60404440,0.13,-0.182,0.981,-8.802,34.405,-0.822
60404450,0.144,-0.266,0.957,-8.015,17.955,-6.562
60404460,0.164,-0.253,0.954,-4.585,6.842,-6.3
60404470,0.289,-0.147,0.951,-3.727,-4.025,-8.96
60404480,0.37,-0.222,0.913,-6.685,-4.935,-9.415
60404490,0.449,-0.152,0.92,-5.425,-2.345,-4.76
60404500,0.407,-0.116,0.946,-8.662,6.667,3.325
60404510,0.31,-0.233,0.934,-13.527,10.08,10.167
60404520,0.24,-0.211,0.956,-15.085,10.64,12.845
60404530,0.308,-0.193,0.955,-18.34,5.565,12.547
60404540,0.25,-0.229,0.97,-22.837,6.825,15.855
60404550,0.322,-0.195,0.979,-26.827,3.325,19.792
60404560,0.191,-0.227,1.005,-32.567,1.4,21.262
60404570,0.239,-0.211,1.018,-38.482,-4.847,19.897
60404580,0.302,-0.21,1.039,-47.057,-6.877,19.11
60404580,0.347,-0.168,1.075,-57.505,-8.925,19.442
60404600,0.372,-0.174,1.072,-70.42,-8.207,23.45
60404600,0.405,-0.16,1.079,-85.417,-10.01,28.595
60404620,0.5,-0.16,1.047,-101.255,-7.017,35.63
60404620,0.55,-0.23,1.013,-115.605,1.4,44.38
60404640,0.623,-0.327,1.018,-124.792,15.977,51.31
60404640,0.659,-0.445,1.121,-121.975,32.41,55.457
60404660,0.763,-0.631,1.211,-108.132,57.295,56.052
60404660,0.445,-0.763,1.176,-80.08,89.127,57.732
60404670,0.203,-0.717,1.012,-54.32,95.707,56.49
60404680,0.119,-0.725,1.072,-41.457,85.662,58.152
60404690,0.124,-1.018,1.102,-29.33,65.852,58.327
60404700,-0.673,-1.052,0.87,-2.87,53.742,66.85
60404710,-0.643,-0.703,0.596,40.442,0.14,66.22
60404720,0.197,0.054,-0.478,69.842,-27.702,76.457
60404730,1.242,1.228,-1.01,64.452,18.182,62.877
60404740,0.769,1.966,-1.347,32.235,29.05,-24.622
60404750,0.223,1.997,-0.949,0.245,25.375,-90.79
60404760,-0.569,1.72,-0.577,9.975,-9.012,-111.72
60404770,0.158,0.4,0.554,-11.025,50.155,-64.907
60404780,-0.554,-1.998,0.042,11.9,-297.71,65.835
60404790,1.767,-0.721,0.38,421.312,-228.935,-44.31
60404800,-1.381,1.991,1.986,350.735,-118.02,-199.57
60404810,1.593,-0.08,1.983,207.497,-175.717,-107.782
60404820,1.025,0.806,1.644,128.992,-154.35,-125.335
60404830,1.682,0.876,0.816,31.902,-103.232,-49.805
60404840,0.813,-0.038,0.991,-29.855,-17.85,22.925
60404850,0.606,-0.379,0.937,-43.802,10.937,56.752
60404860,0.39,-0.355,0.997,-50.102,24.64,63.822
60404870,0.365,-0.185,1.026,-56.962,22.942,62.632
60404880,0.208,-0.181,1.054,-75.827,20.562,61.775
60404890,0.209,-0.208,0.936,-83.72,9.38,51.082
60404900,0.216,-0.315,0.881,-83.387,6.475,32.83
60404910,0.254,-0.357,0.847,-77.892,4.392,16.957
60404920,0.244,-0.427,0.843,-71.295,12.845,6.265
60404920,0.294,-0.418,0.82,-60.637,13.125,-1.015
60404940,0.338,-0.459,0.788,-48.177,12.95,-2.642
60404940,0.353,-0.477,0.792,-34.772,13.737,-5.722
60404960,0.338,-0.463,0.823,-19.39,16.887,-10.307
60404960,0.359,-0.513,0.773,-7.175,15.767,-20.632
60404980,0.325,-0.618,0.747,9.695,17.08,-31.377
60404980,0.336,-0.663,0.761,27.177,16.87,-47.985
60405000,0.438,-0.64,0.778,41.65,28.385,-65.66
60405000,0.44,-0.542,0.88,56.56,53.2,-79.065
60405010,0.478,-0.425,0.897,65.957,75.477,-93.257
60405020,-0.119,-0.306,0.82,72.415,84.7,-102.462
60405030,0.441,-0.774,0.405,51.38,74.9,-93.537
60405040,1.109,-1.083,0.536,15.82,45.797,-132.545
60405050,0.324,-0.938,0.756,2.065,30.59,-178.535
60405060,0.352,-0.955,0.81,-7.157,24.045,-192.22
60405070,0.277,-0.936,0.716,-14.367,10.185,-200.777
60405080,0.181,-0.737,0.637,-29.207,6.807,-205.555
60405090,0.189,-0.693,0.711,-58.327,12.145,-195.125
60405100,0.181,-0.759,0.864,-86.415,19.197,-178.15
60405110,0.17,-0.679,0.953,-102.252,16.275,-160.93
60405120,0.174,-0.547,1.002,-114.747,9.66,-139.195
60405130,0.214,-0.482,1.091,-129.237,2.572,-114.275
60405140,0.211,-0.432,1.182,-140.367,-2.87,-89.81
60405150,0.246,-0.314,1.252,-145.057,-10.797,-68.18
60405160,0.27,-0.236,1.359,-150.045,-13.09,-45.85
60405170,0.257,-0.203,1.495,-151.462,-18.147,-25.952
60405180,0.158,-0.139,1.547,-143.115,-25.217,-11.777
60405190,0.087,-0.005,1.422,-123.585,-36.82,-4.077
60405200,0.183,0.181,1.234,-102.935,-30.117,7.822
60405210,0.065,0.269,1.107,-87.727,-15.697,19.74
60405220,0.045,0.392,0.976,-70.752,-5.145,25.935
60405230,0.197,0.532,0.864,-52.027,1.75,28.437
60405240,0.234,0.573,0.793,-38.85,12.355,25.585
60405250,0.214,0.611,0.765,-25.27,11.585,13.825
60405260,0.266,0.662,0.752,-9.03,6.282,-3.045
60405270,0.236,0.644,0.76,7.595,2.222,-16.45
60405280,0.15,0.608,0.842,21.052,3.937,-27.002
60405290,0.024,0.591,0.894,40.67,0.017,-32.987
60405300,-0.089,0.483,0.942,55.825,-5.442,-29.05
60405310,-0.069,0.277,0.879,69.877,-14.052,-17.57
60405320,-0.17,0.17,0.807,84.017,-16.047,-4.392
60405330,-0.102,0.044,0.786,86.117,-14.245,16.992
60405330,0.026,-0.422,0.741,79.187,2.73,53.305
60405350,-0.096,-0.78,0.572,80.097,23.065,85.295
60405350,-0.335,-0.89,0.084,85.96,17.815,107.275
60405370,0.24,-1.047,0.285,48.895,-15.855,114.66
60405370,1.998,-1.993,1.223,-67.935,21.28,159.425
60405390,-0.147,-1.814,0.16,133.227,158.812,78.102
60405390,-1.992,1.552,0.961,236.092,107.257,-52.885
60405410,0.003,0.593,1.45,175.892,2.45,66.062
60405410,0.119,-0.045,1.561,174.055,-44.467,27.737
60405420,-1.052,-0.4,1.714,152.162,-97.947,-51.66
60405430,0.826,0.177,1.372,111.772,-148.925,-102.2
60405440,1.888,0.7,0.796,50.382,-130.077,-91.857
60405450,0.997,0.148,0.824,6.317,-39.34,-24.325
60405460,0.557,-0.112,0.899,-12.337,19.827,8.365
60405470,0.332,-0.12,0.937,-20.807,35.052,2.992
60405480,0.373,-0.211,0.913,-25.602,38.762,-5.635
60405490,0.16,-0.331,0.941,-22.715,38.657,-8.207
60405500,0.187,-0.248,0.948,-16.712,30.992,-9.992
60405510,0.22,-0.211,0.949,-14.052,22.015,-12.53
60405520,0.205,-0.19,0.957,-12.95,17.22,-12.705
60405530,0.216,-0.222,0.95,-12.355,10.307,-11.9
60405540,0.219,-0.207,0.952,-11.41,5.81,-10.237
60405550,0.225,-0.171,0.963,-11.62,-0.525,-10.027
60405560,0.271,-0.132,0.968,-14.805,-3.57,-9.065
60405570,0.253,-0.124,0.98,-19.652,-6.79,-9.712
60405580,0.263,-0.088,0.998,-27.02,-7.402,-12.092
60405590,0.274,-0.024,1.029,-36.54,-9.52,-17.43
60405600,0.253,-0.143,1.082,-49.927,-8.155,-22.382
60405610,0.238,-0.171,1.124,-65.642,-9.765,-28.717
60405620,0.254,-0.261,1.138,-85.347,-9.852,-34.65
60405630,0.536,-0.227,1.12,-110.215,-4.917,-42.472
60405640,0.161,-0.093,1.256,-139.44,27.02,-50.365
60405650,0.446,0.033,1.117,-166.477,29.312,-46.602
60405660,0.448,-0.145,1.086,-193.112,37.222,-35.42
60405670,0.415,-0.172,1.046,-210.927,37.31,-25.497
60405670,0.364,-0.315,1.064,-225.697,39.217,-17.762
60405690,0.526,-0.701,1.274,-223.947,42.105,-12.74
60405690,0.582,-0.792,1.302,-193.987,77.105,-13.177
60405710,0.245,-0.762,1.059,-167.86,124.39,-15.4
60405710,-0.149,-0.65,0.955,-140.682,144.375,-13.545
60405730,-0.49,0.67,1.141,-73.885,119.017,-21.822
60405730,1.087,1.919,0.723,12.127,34.405,-46.497
60405750,0.507,1.997,0.441,70.437,4.375,-42.805
60405750,0.519,1.997,0.684,120.522,-21.665,-31.255
60405760,0.474,1.974,0.475,186.025,-44.747,-0.455
60405770,0.242,1.312,-0.035,238,-47.232,32.725
60405780,0.739,0.532,-1.007,250.67,-29.697,58.257
60405790,-1.091,-1.697,0.553,76.79,-40.127,133.577
60405800,-0.891,-1.998,-0.371,235.392,-136.465,192.745
60405810,-0.625,-0.344,0.498,418.547,-108.675,-37.8
60405820,-0.881,1.895,1.998,352.537,-123.515,-78.75
60405830,1.344,0.35,1.425,106.207,-196.402,-68.145
60405840,1.483,0.386,0.543,-6.597,-132.807,-70.98
60405850,1.555,0.109,0.607,-38.517,-13.93,-9.765
60405860,0.039,-0.408,1,-38.745,60.585,18.357
60405870,0.57,-0.321,0.875,-32.287,60.515,9.957
60405880,0.163,-0.301,0.958,-26.617,64.995,14.28
60405890,-0.076,-0.254,0.997,-23.485,52.657,12.495
60405900,0.043,-0.361,0.934,-21.612,30.59,-1.172
60405910,0.187,-0.336,0.922,-13.457,11.9,-8.855
60405920,0.18,-0.23,0.957,-5.81,2.345,-4.952
60405930,0.188,-0.166,0.98,-4.602,-7.927,-4.025
60405940,0.286,-0.165,0.965,-10.622,-13.072,-5.915
60405950,0.374,-0.173,0.955,-15.942,-15.697,-3.465
60405960,0.37,-0.152,0.976,-22.032,-11.41,2.695
60405970,0.398,-0.16,0.985,-30.222,-8.382,7.945
60405980,0.407,-0.176,1.014,-39.182,-0.227,13.545
60405990,0.393,-0.168,1.068,-49.315,5.81,17.43
60406000,0.361,-0.229,1.096,-63.577,13.09,19.74
60406010,0.298,-0.123,1.083,-78.942,13.475,19.88
60406020,0.313,-0.219,1.035,-97.055,9.45,19.32
60406030,0.456,-0.192,0.918,-106.172,7.997,15.627
60406040,0.305,-0.404,0.914,-117.145,28.612,16.327
60406050,0.356,-0.242,0.87,-113.767,27.737,15.435
60406060,0.366,-0.344,0.823,-107.555,30.24,20.107
60406070,0.303,-0.446,0.823,-102.095,31.832,25.9
60406080,0.274,-0.395,0.822,-93.065,33.32,28.612
60406080,0.219,-0.371,0.847,-85.89,32.112,28.682
60406100,0.214,-0.413,0.832,-80.85,31.342,26.285
60406100,0.199,-0.467,0.832,-74.182,29.505,20.457
60406120,0.236,-0.475,0.819,-64.242,30.047,12.915
60406120,0.265,-0.501,0.754,-53.497,32.69,5.687
60406140,0.224,-0.538,0.799,-41.597,40.827,0.682
60406140,0.052,-0.533,0.713,-26.862,39.9,-3.307
60406150,0.024,-0.505,0.738,-15.925,33.757,-5.425
60406160,0.111,-0.534,0.816,-7.525,28.14,-6.527
60406170,-0.019,-0.497,0.848,0.35,20.317,-11.13
60406180,0.11,-0.432,0.853,5.057,14.91,-16.607
60406190,0.189,-0.414,0.867,6.072,15.54,-22.575
60406200,0.186,-0.408,0.895,5.145,19.897,-30.695
60406210,0.456,-0.374,1.032,3.85,22.75,-42.525
60406220,0.044,-0.448,0.878,1.505,33.407,-58.502
60406230,-0.306,-0.192,1.039,-7.875,26.95,-67.585
60406240,0.286,-0.425,0.947,-19.127,9.292,-55.965
60406250,0.148,-0.472,0.943,-21.28,8.137,-57.277
60406260,0.205,-0.466,0.95,-17.605,10.202,-57.592
60406270,0.199,-0.568,0.861,-11.97,7.542,-55.825
60406280,0.209,-0.554,0.757,-2.572,7.857,-56.805
60406290,0.251,-0.504,0.621,4.182,2.52,-61.565
60406300,0.275,-0.597,0.759,2.782,0.98,-72.362
60406310,-0.258,-0.769,0.536,10.22,-23.572,-83.457
60406320,0.476,-0.563,0.8,12.442,-69.527,-108.587
60406330,0.198,-0.857,0.726,9.45,-73.307,-101.622
60406340,-0.142,-0.737,0.897,20.685,-36.575,-87.29
60406350,-0.269,-0.648,0.948,26.95,-22.295,-58.275
60406360,-0.117,-0.658,1.019,26.092,-16.45,-19.547
60406370,0.311,-0.683,1.061,22.05,-2.66,13.947
60406380,0.373,-0.725,1.048,17.535,25.812,34.79
60406390,0.305,-0.676,0.997,8.645,32.637,36.102
60406400,0.363,-0.645,0.913,-7.77,18.9,26.092
60406410,0.435,-0.532,0.8,-26.25,-3.867,7.805
60406420,0.492,-0.342,0.677,-46.917,-18.69,-11.217
60406420,0.618,-0.267,0.697,-70.07,-26.127,-25.27
60406440,0.546,-0.277,0.72,-84.962,-35.455,-35.612
60406440,0.467,-0.074,0.696,-82.355,-60.9,-42.927
60406460,0.532,0.156,0.704,-75.81,-87.902,-39.025
60406460,0.474,0.158,0.679,-67.585,-105.822,-25.357
60406480,0.477,0.284,0.632,-45.027,-96.932,-10.08
60406480,0.352,0.511,0.501,-13.702,-61.582,15.452
60406500,-0.025,0.299,0.178,15.225,-20.842,51.957
60406500,-0.243,1.041,0.041,47.862,2.502,85.89
60406510,-0.267,0.74,0.024,12.11,26.302,155.277
60406520,0.047,-0.105,0.623,-13.72,41.562,209.09
60406530,1.861,-1.814,1.713,-0.105,114.31,244.387
60406540,0.632,-1.998,-0.297,89.32,218.54,186.76
60406550,-1.857,-0.165,-0.208,250.057,111.825,21.525
60406560,0.035,1.077,1.3,204.575,33.285,45.92
60406570,-0.906,-0.34,1.296,185.78,-47.232,99.05
60406580,-0.674,0.377,0.978,238.07,-81.427,16.38
60406590,-0.456,-0.441,1.134,218.522,-87.465,-42.472
60406600,-0.465,0.156,1.307,219.047,-110.81,-135.905
60406610,0.443,-0.494,1.769,175.525,-175.507,-179.9
60406620,1.619,0.231,1.39,142.1,-192.587,-156.292
60406630,1.589,0.825,0.952,74.69,-122.605,-90.072
60406640,1.176,0.436,0.823,8.382,-29.732,-25.147
60406650,0.757,-0.036,0.869,-23.817,36.907,10.43
60406660,0.342,-0.297,0.929,-30.765,69.982,23.992
60406670,0.137,-0.391,0.943,-25.042,68.565,26.355
60406680,-0.01,-0.3,0.985,-19.67,56.052,24.115
60406690,-0.024,-0.299,0.971,-18.917,33.88,13.195
60406700,0.13,-0.272,0.954,-16.38,13.982,1.977
60406710,0.17,-0.235,0.959,-13.842,0.175,-1.172
60406720,0.162,-0.197,0.994,-15.067,-8.225,-1.872
60406730,0.189,-0.123,1.041,-22.487,-18.952,-5.46
60406740,0.299,-0.076,1.083,-36.54,-24.342,-8.557
60406750,0.299,0.044,1.187,-51.782,-24.377,-14.962
60406760,0.171,-0.238,1.217,-74.095,-21.017,-25.532
60406770,0.501,-0.089,1.151,-102.34,-19.6,-37.94
60406780,0.09,-0.022,1.324,-137.235,13.3,-44.257
60406790,0.424,-0.078,1.118,-166.18,9.45,-37.957
60406800,0.411,-0.209,1.076,-190.697,10.412,-31.587
60406810,0.445,-0.219,1.067,-206.587,5.25,-27.02
60406820,0.311,-0.316,1.136,-223.055,-5.827,-22.312
60406830,0.526,-0.543,1.39,-220.552,-19.792,-22.26
60406830,0.163,-0.995,1.582,-206.727,17.885,-16.432
60406840,0.055,-0.691,1.387,-171.482,26.477,-31.307
60406850,0.086,-0.289,1.104,-143.062,26.827,-46.725
60406860,-0.55,0.093,1.26,-121.835,40.617,-53.41
60406870,-0.536,0.571,0.91,-69.912,27.545,-70.297
60406880,-0.61,0.5,0.737,-28.752,30.485,-57.995
60406890,-1.444,1.202,0.773,47.915,62.405,-39.987
60406900,-1.66,1.16,0.43,125.877,51.555,48.72
60406910,0.128,0.783,-0.674,220.832,74.497,208.547
60406920,0.625,0.296,-1.494,253.225,95.392,250.722
60406930,0.386,-0.264,-1.56,229.845,129.465,275.975
60406940,0.305,-1.771,-0.271,128.257,82.495,233.94
60406950,1.456,-1.998,0.199,-35.857,-243.565,160.282
60406960,-0.871,0.024,0.753,408.817,-172.812,-52.71
60406970,1.386,1.703,1.655,449.207,-180.232,-138.88
60406980,-1.803,-1.727,1.98,226.432,-198.152,-16.502
60406990,1.508,1.752,1.43,172.445,-255.867,-140.577
60407000,1.719,1.066,0.557,23.905,-168.787,-82.407
60407010,1.473,0.039,0.705,-38.762,-8.19,9.415
60407020,0.312,-0.508,0.863,-51.8,64.855,26.53
60407030,0.688,-0.184,0.858,-42.42,74.532,16.31
60407040,-0.01,-0.42,0.98,-38.482,87.395,21.105
60407050,-0.287,-0.343,0.988,-32.917,65.8,8.907
60407060,0.031,-0.447,0.897,-23.975,34.107,-12.565
60407070,0.225,-0.314,0.922,-12.687,13.965,-17.517
60407080,0.177,-0.284,0.929,-5.862,5.127,-7.332
60407090,0.178,-0.217,0.966,-2.835,-5.565,-4.235
60407100,0.353,-0.169,0.947,-7.122,-11.042,-5.74
60407110,0.466,-0.215,0.918,-10.5,-10.132,-1.19
60407120,0.436,-0.162,0.946,-12.757,-0.105,8.015
60407130,0.417,-0.168,0.963,-18.147,7.087,15.575
60407140,0.379,-0.203,0.981,-25.41,15.837,21.822
60407150,0.344,-0.213,0.995,-31.325,20.3,25.532
60407160,0.35,-0.215,1.006,-38.622,26.162,29.312
60407170,0.272,-0.239,0.99,-46.025,29.4,32.69
60407170,0.217,-0.249,0.978,-52.535,30.082,34.335
60407190,0.208,-0.257,0.954,-56.77,24.15,32.585
60407190,0.183,-0.282,0.933,-57.837,19.687,29.417
60407210,0.204,-0.286,0.917,-57.417,12.057,24.517
60407210,0.222,-0.32,0.904,-56.822,7.402,21.262
60407230,0.243,-0.328,0.893,-54.407,2.957,18.497
60407230,0.238,-0.358,0.868,-51.572,2.1,16.047
60407250,0.226,-0.405,0.833,-46.007,-0.472,13.895
60407250,0.289,-0.418,0.799,-38.272,-0.105,14.315
60407260,0.262,-0.451,0.731,-28.927,1.995,15.312
60407270,0.242,-0.455,0.672,-16.747,5.302,16.047
60407280,0.158,-0.498,0.632,0.052,11.182,13.177
60407290,0.035,-0.454,0.652,21.332,17.71,7.21
60407300,-0.041,-0.474,0.695,41.282,17.01,0.07
60407310,-0.066,-0.395,0.763,63.98,13.51,-8.522
60407320,-0.136,-0.283,0.844,84.682,2.047,-19.022
60407330,-0.194,-0.366,0.819,99.12,-20.947,-34.632
60407340,-0.223,-0.39,0.863,111.142,-54.6,-56.402
60407350,-0.165,-0.439,1.061,124.442,-93.082,-70.752
60407360,0.04,-0.276,1.449,129.482,-121.625,-84.402
60407370,1.012,0.297,1.22,99.96,-132.51,-85.75
60407380,1.271,0.417,0.923,43.47,-102.025,-52.815
60407390,0.9,0.013,0.856,5.267,-47.11,-13.755
60407400,0.719,-0.162,0.837,-9.292,-3.062,9.257
60407410,0.57,-0.2,0.876,-13.16,24.762,19.722
60407420,0.365,-0.199,0.933,-15.12,41.3,25.515
60407430,0.152,-0.28,0.955,-16.642,40.145,26.582
60407440,0.094,-0.279,0.955,-15.54,29.82,21.507
60407450,0.121,-0.263,0.952,-13.877,14.997,13.475
60407460,0.178,-0.241,0.945,-13.23,4.742,7.577
60407470,0.218,-0.251,0.937,-12.057,-5.04,4.235
60407480,0.241,-0.242,0.938,-11.567,-9.17,1.977
60407490,0.306,-0.224,0.932,-11.515,-13.93,0.262
60407500,0.36,-0.217,0.927,-12.652,-12.267,1.487
60407510,0.377,-0.207,0.929,-14.035,-9.975,2.957
60407520,0.386,-0.2,0.932,-16.957,-3.272,5.355
60407530,0.394,-0.209,0.935,-20.545,1.767,7.385
60407530,0.404,-0.208,0.93,-24.482,10.255,9.747
60407550,0.398,-0.222,0.925,-27.527,17.097,12.057
60407550,0.362,-0.248,0.922,-29.557,25.935,15.277
60407570,0.29,-0.249,0.932,-29.75,28.84,18.34
60407570,0.197,-0.261,0.895,-28.945,29.592,20.352
60407580,0.141,-0.307,0.877,-26.635,22.697,19.495
60407590,0.096,-0.288,0.853,-20.282,14.612,14.717
60407600,0.073,-0.343,0.83,-13.265,2.73,7.927
60407610,0.132,-0.367,0.803,-2.747,-7.595,-0.332
60407620,0.162,-0.402,0.786,10.955,-16.187,-7.525
60407630,0.178,-0.331,0.831,25.917,-21.087,-13.51
60407640,0.211,-0.329,0.884,35.752,-27.615,-17.657
60407650,0.257,-0.267,0.934,41.86,-31.675,-20.212
60407660,0.3,-0.232,0.979,43.155,-34.055,-22.12
60407670,0.351,-0.211,1.002,39.865,-33.162,-23.1
60407680,0.393,-0.174,0.99,32.865,-31.062,-21.56
60407690,0.459,-0.163,0.976,23.327,-26.39,-16.957
60407700,0.487,-0.149,0.976,12.967,-18.742,-10.395
60407710,0.457,-0.171,0.971,2.975,-10.29,-3.43
60407720,0.442,-0.172,0.963,-5.355,-2.45,0.962
60407730,0.446,-0.166,0.973,-13.405,4.707,3.097
60407740,0.473,-0.184,0.99,-22.4,13.667,4.742
60407750,0.516,-0.185,1.018,-31.062,22.47,6.02
60407760,0.546,-0.216,1.043,-40.495,32.357,6.055
60407770,0.575,-0.271,1.096,-44.275,36.522,3.272
60407780,0.579,-0.282,1.122,-45.902,40.547,-0.332
60407790,0.623,-0.463,1.111,-46.06,60.34,-0.192
60407800,0.449,-0.534,1.006,-33.057,92.137,-0.157
60407810,0.5,-0.553,1.084,-15.645,108.29,-4.462
60407820,1.451,-0.918,1.285,12.302,135.275,-13.037
60407830,1.192,-0.804,0.563,75.547,178.377,-37.222
60407840,0.363,-0.83,0.206,82.127,124.547,-118.072
60407850,1.757,-0.357,0.333,33.162,-26.145,-249.725
60407860,1.551,-1.352,0.783,-35.577,11.287,-251.037
60407870,0.263,-1.498,0.67,-16.87,50.382,-256.305
60407880,-0.041,-0.608,0.672,3.202,30.835,-259.035
60407890,0.053,-0.969,0.749,-33.337,-6.562,-204.365
60407900,0.141,-1.267,0.743,-35.875,-22.627,-150.115
60407910,-0.128,-1.055,0.736,-13.037,-33.845,-111.3
60407920,-0.298,-0.876,0.679,-3.272,-48.177,-60.2
60407920,-0.259,-0.828,0.647,-6.51,-63.42,-2.712
60407940,-0.154,-0.83,0.636,-10.762,-62.405,51.485
60407940,-0.305,-0.746,0.571,-16.817,-60.655,90.615
60407960,-0.121,-0.586,0.499,-26.495,-67.97,120.365
60407960,0.13,-0.537,0.417,-40.827,-73.727,147.892
60407980,0.259,-0.525,0.383,-53.532,-67.077,168.49
60407980,0.385,-0.442,0.351,-60.305,-61.46,175.542
60408000,0.473,-0.327,0.275,-67.742,-52.955,172.042
60408000,0.491,-0.187,0.196,-79.642,-45.552,158.707
60408010,0.398,-0.101,0.054,-97.597,-41.405,139.527
60408020,0.276,0.084,-0.143,-119.455,-43.417,115.517
60408030,0.088,0.358,-0.219,-146.492,-43.732,95.55
60408040,0.086,0.419,-0.209,-180.582,-38.657,88.917
60408050,0.211,0.601,-0.569,-200.987,-7.192,93.047
60408060,0.731,0.248,1.981,-102.865,211.855,116.095
60408070,-1.959,1.453,-1.024,375.9,197.82,233.87
60408080,-0.477,0.509,1.793,291.917,-25.637,122.78
60408090,-0.945,-1.718,1.467,208.215,-125.79,141.242
60408100,-0.575,1.396,1.479,302.242,-129.587,-79.31
60408110,-0.367,-0.311,1.798,183.452,-177.065,-158.112
60408120,1.027,-0.293,1.567,127.645,-226.765,-187.022
60408130,1.945,0.865,0.792,90.23,-175.822,-116.235
60408140,0.903,0.423,0.881,28.245,-54.005,-24.552
60408150,0.646,-0.062,0.875,-5.88,4.375,12.075
60408160,0.589,-0.175,0.862,-16.73,28.525,11.777
60408170,0.381,-0.274,0.904,-14.157,43.295,17.57
60408180,0.015,-0.289,0.995,-8.435,45.675,21.315
60408190,0.076,-0.176,0.993,-8.487,25.882,7.665
60408200,0.263,-0.256,0.927,-11.76,11.742,-3.85
60408210,0.254,-0.254,0.937,-8.487,5.337,-4.41
60408220,0.28,-0.179,0.946,-6.195,2.572,-2.117
60408230,0.272,-0.144,0.965,-7.752,-1.015,-0.052
60408240,0.324,-0.152,0.962,-13.58,-1.61,-0.402
60408250,0.382,-0.116,0.978,-20.352,-1.575,0.297
60408260,0.432,-0.051,1.028,-32.97,4.76,3.15
60408260,0.47,0.151,1.158,-51.24,15.225,0.91
60408280,0.138,0.156,1.274,-73.342,34.685,-17.237
60408280,0.202,-0.407,1.252,-105.105,29.802,-38.202
60408300,0.523,-0.091,1.209,-131.075,28.98,-55.352
60408300,0.619,-0.008,1.189,-161.997,72.922,-60.672
60408320,0.525,-0.201,1.159,-183.295,115.15,-63.455
60408320,0.634,-0.36,1.13,-182.402,122.99,-67.462
60408330,0.782,-0.684,1.053,-170.835,144.672,-66.237
60408340,0.658,-0.683,0.749,-143.762,166.687,-76.475
60408350,-0.086,-0.722,0.648,-113.085,165.935,-78.977
60408360,-0.274,-0.724,0.822,-79.485,130.742,-72.782
60408370,0.352,-0.782,0.683,-44.152,106.137,-64.26
60408380,-1.953,-0.509,0.591,-15.767,60.252,-62.527
60408390,-0.938,0.103,0.497,14.105,-47.442,-15.785
60408400,-0.09,0.015,0.561,22.225,-74.392,59.465
60408410,-0.647,0.369,0.697,57.207,-50.312,105.735
60408420,-1.254,0.664,0.371,104.16,-56.507,169.487
60408430,-0.465,0.864,0.128,136.027,-63.175,248.517
60408440,-0.08,0.224,-0.781,144.707,-73.517,295.277
60408450,1.474,0.189,0.028,89.757,-85.19,231.77
60408460,1.998,-1.911,0.052,-3.937,-202.037,207.375
60408470,-1.133,-1.998,1.057,105.367,-202.982,106.575
60408480,-0.062,0.331,0.676,344.837,-130.025,14.437
60408490,0.243,1.252,1.986,330.347,-164.132,5.092
60408500,-1.043,-0.286,1.998,227.22,-207.007,-55.387
60408510,1.576,1.29,1.132,123.375,-259.367,-128.572
60408520,1.286,0.538,0.567,13.492,-127.995,-51.642
60408530,1.238,-0.159,0.672,-32.007,1.015,6.982
60408540,0.333,-0.215,0.939,-30.152,59.797,14.017
60408550,0.509,0.022,0.96,-33.127,73.08,5.477
60408560,-0.101,-0.257,1.021,-41.702,73.552,-3.185
60408570,-0.006,-0.474,0.939,-37.467,49.665,-14.315
60408580,0.079,-0.393,0.934,-23.45,28.472,-17.255
60408590,0.186,-0.276,0.944,-11.672,11.725,-14.945
60408600,0.111,-0.304,0.948,-4.042,1.925,-6.982
60408610,0.139,-0.214,0.969,1.872,-12.74,-6.457
60408620,0.252,-0.172,0.961,1.907,-22.82,-8.942
60408630,0.309,-0.189,0.946,0.875,-29.225,-7.77
60408640,0.38,-0.183,0.931,0.49,-28.892,-4.742
60408650,0.373,-0.155,0.934,0.595,-27.09,-1.33
60408660,0.427,-0.198,0.929,-2.047,-22.732,1.785
60408670,0.473,-0.098,0.945,-6.212,-17.605,4.287
60408670,0.494,-0.097,0.992,-17.43,-8.12,8.417
60408690,0.591,-0.03,1.099,-35.21,-1.067,11.742
60408690,0.396,-0.044,1.212,-64.137,10.955,11.427
60408710,0.467,-0.254,1.287,-87.342,9.222,2.065
60408710,0.334,-0.426,1.304,-92.312,-0.385,-15.155
60408730,0.34,-0.972,1.32,-98.157,-32.06,-53.812
60408730,1.381,-1.886,0.915,-98.122,24.167,-109.725
60408750,0.904,-1.998,0.858,-81.585,149.065,-151.06
60408750,0.503,-1.998,-1.008,-101.045,29.977,-223.667
60408760,1.436,-1.998,-0.68,-190.4,-23.677,-330.4
60408770,-1.765,-1.998,-0.014,-142.135,24.832,-331.765
60408780,-1.998,-1.998,0.843,-161.997,-9.485,-267.295
60408790,-1.874,-1.857,0.73,-163.625,-56.507,-131.25
60408800,-1.452,-0.616,0.561,-132.02,-33.127,-14.28
60408810,-1.22,0.638,0.089,-94.622,43.522,124.145
60408820,-0.275,1.853,-0.266,-44.765,130.322,238.455
60408830,0.201,1.997,-0.694,-22.522,202.895,304.29
60408840,0.364,1.997,1.587,28.665,83.422,250.302
60408850,1.998,1.462,1.138,204.207,-69.457,150.027
60408860,-1.242,-0.867,1.224,389.847,99.907,42.017
60408870,-0.672,-1.007,1.998,369.425,-157.57,17.797
60408880,-0.087,1.405,1.998,345.222,-244.23,-120.05
60408890,1.746,1.505,0.224,106.295,-268.135,-112.332
60408900,1.236,0.26,0.626,-10.482,-77.717,-26.25
60408910,1.409,0.088,0.722,-52.535,62.265,25.007
60408920,0.195,-0.077,1.043,-70.42,117.127,20.195
60408930,-0.029,-0.474,0.981,-65.905,103.04,9.345
60408940,-0.398,-0.689,0.96,-48.615,72.38,-0.455
60408950,-0.088,-0.557,0.874,-25.375,34.16,-13.002
60408960,-0.099,-0.579,0.908,-2.292,7.752,-24.57
60408970,0.18,-0.224,0.983,17.762,-17.342,-27.877
60408980,0.271,0.017,1.013,18.13,-26.932,-21.595
60408990,0.45,-0.088,0.94,4.305,-30.047,-20.457
60409000,0.482,-0.072,0.932,-3.045,-19.985,-11.987
60409010,0.441,-0.107,0.934,-8.785,-9.03,-0.542
60409010,0.481,-0.202,0.909,-14.91,2.38,6.16
60409030,0.39,-0.141,0.957,-17.57,11.83,12.162
60409030,0.283,-0.141,0.995,-25.042,18.725,16.59
60409050,0.232,-0.135,1.016,-36.487,17.535,13.632
60409050,0.272,-0.125,1.046,-48.772,17.692,5.232
60409070,0.277,-0.11,1.078,-60.9,17.57,-4.27
60409070,0.197,-0.168,1.065,-68.267,20.51,-18.882
60409080,0.145,-0.297,1.001,-76.247,14.63,-32.025
60409090,0.161,-0.3,0.971,-84.21,10.622,-45.657
60409100,0.314,-0.219,0.784,-85.067,8.697,-59.937
60409110,-0.101,-0.332,1.057,-87.867,30.782,-69.737
60409120,0.289,-0.174,0.86,-84.577,16.555,-78.4
60409130,0.128,-0.435,0.854,-84.332,20.177,-85.592
60409140,0.1,-0.38,0.805,-76.3,14.122,-96.215
60409150,0.262,-0.442,0.767,-68.582,13.142,-102.007
60409160,0.065,-0.52,0.735,-59.465,13.877,-115.115
60409170,0.032,-0.521,0.739,-45.377,11.97,-129.237
60409180,0.16,-0.461,0.753,-27.825,5.687,-139.58
60409190,0.353,-0.369,0.691,-7,-0.175,-145.775
60409200,0.05,-0.377,0.765,13.405,-5.302,-146.545
60409210,0.519,-0.321,0.692,37.695,-20.3,-135.082
60409220,0.37,-0.311,0.679,59.902,-34.895,-116.34
60409230,0.589,-0.327,0.649,83.072,-51.152,-86.152
60409240,0.553,-0.328,0.8,101.08,-46.707,-49.332
60409250,0.596,-0.04,1.141,106.295,-31.097,-23.45
60409260,0.359,0.132,1.338,83.457,-16.327,-10.342
60409270,0.56,0.314,1.207,38.535,-23.012,-3.167
60409280,0.796,0.191,1.12,-10.15,-21.42,5.915
60409290,0.875,0.009,1.292,-56.332,-6.51,37.695
60409300,1.05,0.306,1.571,-125.51,0.7,98.262
60409310,0.682,0.512,1.714,-208.075,-1.067,166.057
60409320,0.607,0.498,1.695,-294.21,-17.045,224.087
60409330,0.609,0.764,1.458,-337.522,-13.772,228.48
60409340,0.15,0.412,1.052,-374.815,-19.687,241.202
60409350,0.148,-0.488,0.9,-406.91,-44.082,226.082
60409360,0.279,-0.443,0.624,-366.205,-86.275,176.102
60409370,0.249,-0.405,0.571,-318.045,-99.172,139.807
60409380,0.233,-0.801,0.695,-300.562,-77.577,124.232
60409390,0.534,-1.011,1.197,-273.332,-30.17,116.287
60409400,0.855,-1.385,1.281,-214.007,-4.585,88.585
60409410,0.645,-1.382,1.297,-131.46,-24.15,26.915
60409420,1.881,-1.134,1.075,-2.45,37.887,-58.415
60409420,0.034,-0.777,0.003,117.285,125.912,-113.032
60409440,-1.093,-0.677,-0.212,93.292,134.33,-138.337
60409440,-0.78,-0.726,-0.124,79.975,107.292,-98.367
60409460,-1.246,-0.789,-0.734,105.28,59.902,-36.54
60409460,-1.236,-0.497,-0.484,88.322,17.447,16.45
60409480,-0.609,-0.857,-0.043,44.467,0.262,87.342
60409480,-0.287,-1.203,0.081,43.207,-6.615,136.657
60409500,-0.102,-0.983,0.237,57.645,9.187,151.357
60409500,-0.019,-0.888,0.343,50.505,34.16,152.757
60409510,-0.048,-0.812,0.412,32.882,59.85,131.932
60409520,-0.111,-0.683,0.382,26.11,76.51,97.79
60409530,0.061,-0.469,0.458,20.702,100.31,63.997
60409540,-0.147,-0.441,0.413,23.117,119.49,50.592
60409550,-0.11,-0.353,0.449,36.4,126.717,40.67
60409560,-0.083,-0.22,0.472,59.57,112.087,40.67
60409570,0.087,-0.21,0.481,82.53,87.465,47.162
60409580,0.382,-0.234,0.412,102.182,60.445,52.71
60409590,0.627,-0.26,0.354,121.712,41.44,58.275
60409600,0.732,-0.252,0.214,139.632,20.895,57.382
60409610,0.655,-0.242,-0.019,143.517,-5.862,48.615
60409620,0.672,-0.278,-0.441,129.272,-41.982,37.38
60409630,0.685,-0.159,-0.704,95.882,-78.995,17.71
60409640,0.711,-0.427,-0.85,37.345,-122.08,-13.37
60409650,-0.051,-0.741,0.673,12.652,-124.495,-8.75
60409660,-1.176,-1.998,0.798,-60.095,-226.327,106.505
60409670,0.329,-0.915,-1.419,438.357,-134.75,127.837
60409680,-0.721,1.997,1.794,479.272,-203.63,-68.477
60409690,1.109,-0.125,1.174,261.905,-155.977,97.142
60409700,-0.659,-0.786,1.007,313.652,-163.432,23.03
60409710,-1.041,0.729,1.306,361.795,-178.5,-99.277
60409720,-0.063,-0.545,1.942,266.91,-257.39,-160.58
60409730,1.86,0.529,1.449,191.642,-295.977,-184.03
60409740,1.206,1.432,0.674,71.977,-148.137,-63.35
60409750,1.153,-0.296,0.762,-38.605,-29.54,17.78
60409760,0.474,-0.425,0.813,-40.372,20.527,22.417
60409760,0.579,-0.459,0.818,-28.402,40.635,14.56
60409780,0.061,-0.327,0.987,-13.3,53.34,14.927
60409780,0.208,-0.197,0.964,-11.497,37.905,4.812
60409800,0.215,-0.239,0.95,-12.005,29.277,-0.77
60409800,0.255,-0.206,0.95,-9.712,21.927,-2.257
60409820,0.197,-0.245,0.952,-8.627,17.885,-1.96
60409820,0.195,-0.225,0.952,-5.88,9.31,-0.77
60409830,0.259,-0.187,0.951,-5.687,3.517,-0.735
60409840,0.244,-0.223,0.942,-6.51,-2.065,-0.052
60409850,0.293,-0.206,0.939,-5.705,-4.2,1.977
60409860,0.319,-0.17,0.945,-5.022,-6.457,6.072
60409870,0.246,-0.194,0.957,-6.562,-5.635,11.532
60409880,0.297,-0.186,0.953,-8.4,-9.957,13.597
60409890,0.346,-0.175,0.957,-12.022,-9.38,17.272
60409900,0.394,-0.159,0.968,-17.797,-7.595,21.682
60409910,0.475,-0.138,1,-27.3,0.927,27.702
60409920,0.531,-0.143,1.058,-41.37,13.352,34.632
60409930,0.597,-0.223,1.11,-59.395,35.227,43.26
60409940,0.617,-0.413,1.095,-75.775,58.065,50.487
60409950,0.861,-0.33,1.128,-85.977,79.502,53.97
60409960,1.084,-0.326,1.219,-89.582,90.072,56.542
60409970,1.159,-0.552,1.099,-83.422,111.02,60.987
60409980,0.298,-0.499,0.732,-59.727,152.057,75.372
60409990,-0.058,-1.26,0.445,-80.71,135.012,146.37
60410000,0.082,-1.998,0.093,-59.657,46.357,198.835
60410010,1.008,-1.811,-0.802,-11.427,-28.665,131.565
60410020,1.998,-1.636,0.233,-103.285,-167.475,-42.595
60410030,0.547,-1.662,0.242,-109.97,-164.622,-126.665
60410040,-1.341,0.347,0.241,-37.31,-148.697,-151.69
60410050,-1.262,1.355,0.027,-22.347,-160.632,-71.54
60410060,-0.646,1.903,-0.248,34.615,-135.135,47.46
60410070,0.491,1.997,-0.403,120.365,-72.31,131.512
60410080,-1.113,0.299,1.904,152.302,156.24,259.91
60410090,-1.187,-1.744,-0.081,384.405,-129.22,261.835
60410100,-0.158,0.493,1.95,485.52,-102.76,114.957
60410110,-0.326,1.223,1.981,307.44,-180.092,-88.392
60410120,1.739,1.824,0.284,87.132,-222.967,-117.11
60410130,0.154,-0.332,0.998,-29.89,-68.04,-20.002
60410140,0.967,-0.014,0.756,-29.172,-19.197,17.202
60410150,0.529,-0.26,0.881,-39.06,14.962,9.975
60410160,0.394,-0.37,0.891,-33.827,26.775,4.532
60410170,0.24,-0.257,0.955,-23.065,28.752,0.052
60410170,0.211,-0.348,0.937,-15.347,22.032,1.26
60410190,0.26,-0.266,0.941,-7.035,12.337,-0.752
60410190,0.244,-0.158,0.954,-2.712,8.557,2.065
60410210,0.166,-0.239,0.96,-2.695,-0.437,3.237
60410210,0.32,-0.147,0.937,-2.957,-7.752,0.875
60410230,0.311,-0.162,0.94,-4.9,-10.885,2.205
60410230,0.389,-0.105,0.94,-7.28,-9.817,5.705
60410250,0.358,-0.151,0.942,-12.897,-8.54,8.96
60410250,0.352,-0.16,0.945,-18.042,-5.337,12.722
60410260,0.363,-0.143,0.958,-24.045,-5.635,15.452
60410270,0.419,-0.116,0.984,-33.845,-2.73,18.532
60410280,0.485,-0.082,1.036,-47.215,1.68,23.047
60410290,0.512,-0.099,1.09,-64.697,14.647,30.905
60410300,0.442,-0.237,1.125,-81.795,27.615,40.792
60410310,0.418,-0.41,1.133,-97.02,31.815,48.387
60410320,0.479,0.111,1.113,-108.64,27.422,51.362
60410330,0.53,-0.281,1.134,-133.577,17.867,63.857
60410340,0.636,-0.244,1.101,-140.07,6.072,66.465
60410350,0.629,-0.359,1.078,-140.472,-2.485,78.47
60410360,0.587,-0.601,1.102,-137.672,-7.84,93.975
60410370,0.182,-0.788,1.048,-117.67,-11.742,106.26
60410380,-0.377,-1.301,0.929,-102.375,-61.81,110.53
60410390,0.832,-1.558,0.529,-59.097,-146.09,77.927
60410400,1.607,0.667,-0.515,54.04,-129.867,-4.165
60410410,-0.996,1.956,-0.813,96.425,-46.13,-60.742
60410420,-1.914,1.179,-0.747,75.53,-9.782,-24.692
60410430,-1.798,1.211,-1.593,160.632,-17.675,73.027
60410440,0.836,0.519,0.401,129.132,85.522,177.94
60410450,0.138,-1.998,0.253,125.65,95.742,257.547
60410460,-0.449,0.994,1.527,533.767,-16.94,-123.812
60410470,-1.251,-0.033,1.998,359.555,-178.325,-111.492
60410480,1.933,1.536,0.421,135.922,-263.462,-122.062
60410490,0.997,-0.331,0.633,-21.402,-73.675,-26.092
60410500,0.955,-0.115,0.747,-32.62,48.23,33.022
60410510,-0.134,-0.146,1.071,-34.947,67.655,24.272
60410510,0.383,-0.431,0.865,-38.762,48.842,1.312
60410530,0.16,-0.367,0.942,-27.457,44.817,-0.052
60410530,0.078,-0.274,0.96,-18.707,32.865,-1.085
60410550,0.199,-0.481,0.883,-13.037,16.31,-9.87
60410550,0.245,-0.197,0.949,1.575,8.015,-7.437
60410570,0.128,-0.177,0.978,4.445,-1.505,-3.22
60410570,0.3,-0.209,0.935,0.437,-11.147,-8.942
60410580,0.411,-0.182,0.913,-0.49,-15.067,-10.675
60410590,0.392,-0.154,0.924,-0.822,-9.467,-4.62
60410600,0.32,-0.169,0.934,-3.027,-7.665,-0.735
60410610,0.341,-0.199,0.922,-5.705,-6.632,0.07
60410620,0.342,-0.179,0.931,-6.632,-7.595,0.455
60410630,0.306,-0.186,0.943,-9.467,-6.387,1.33
60410640,0.331,-0.159,0.957,-13.335,-9.467,1.085
60410650,0.268,-0.123,1.001,-20.562,-9.677,1.977
60410660,0.207,-0.167,1.044,-30.94,-16.52,-0.63
60410670,0.198,-0.165,1.09,-41.002,-27.177,-8.137
60410680,0.119,-0.187,1.132,-49.262,-42.752,-19.232
60410690,0.059,-0.225,1.135,-55.79,-61.862,-36.767
60410700,0.124,-0.363,0.97,-60.55,-82.547,-66.867
60410710,0.538,-0.481,0.793,-63.787,-64.75,-106.75
60410720,-0.175,-0.564,1.256,-73.22,-25.55,-139.982
60410730,0.264,-0.519,0.982,-68.127,-41.982,-160.177
60410740,0.398,-0.546,0.901,-75.6,-0.035,-176.96
60410750,0.2,-0.734,0.874,-86.1,67.13,-191.852
60410760,-0.62,-1.142,0.814,-102.34,128.835,-197.785
60410770,0.016,-1.702,0.636,-103.25,149.082,-200.76
60410780,-1.998,-1.915,0.504,-69.125,170.677,-163.362
60410790,-0.687,-0.882,0.566,-23.292,149.712,-122.237
60410800,0.836,-0.206,-0.2,4.725,94.097,-73.657
60410810,1.742,1.228,-0.3,35.297,32.497,-76.545
60410820,1.998,1.997,0.892,91.49,-27.177,-106.137
60410830,1.198,1.546,1.398,132.667,-1.575,-95.917
60410840,-1.178,-1.206,1.383,-4.637,-39.69,-5.442
60410850,1.581,1.12,-0.361,52.482,-100.555,-33.355
60410860,-0.764,-1.107,1.434,-90.002,43.942,20.125
60410870,1.245,0.018,0.664,-18.935,29.54,12.845
60410880,-0.361,-0.048,1.14,-27.632,55.37,21.822
60410890,0.362,-0.315,0.957,-28.402,23.87,11.742
60410900,0.183,-0.381,0.95,-24.692,11.707,-1.575
60410910,0.273,-0.261,0.936,-16.17,2.012,-4.655
60410920,0.323,-0.245,0.926,-13.107,-1.347,-5.897
60410920,0.411,-0.185,0.913,-11.217,-2.24,-5.04
60410940,0.305,-0.22,0.927,-11.165,3.955,-0.262
60410940,0.252,-0.235,0.946,-12.88,2.012,-0.84
60410950,0.305,-0.157,0.926,-8.592,-1.12,-3.377
60410960,0.343,-0.283,0.931,-8.977,-3.325,-0.437
60410970,0.325,-0.142,0.92,-9.362,-2.065,-0.875
60410980,0.351,-0.186,0.927,-10.535,-3.57,3.185
60410990,0.326,-0.226,0.915,-11.462,-0.892,5.792
60411000,0.28,-0.253,0.923,-9.24,-2.327,7.525
60411010,0.348,-0.215,0.914,-7.612,-3.15,6.58
60411020,0.367,-0.208,0.91,-7.262,-2.677,7.507
60411030,0.326,-0.266,0.908,-7.105,1.347,10.027
60411040,0.311,-0.206,0.916,-4.707,1.645,9.975
60411050,0.284,-0.261,0.908,-3.325,2.415,11.322
60411060,0.285,-0.256,0.916,0.332,0.175,10.22
60411070,0.268,-0.244,0.924,2.852,-0.927,10.045
60411080,0.268,-0.248,0.922,5.04,-4.41,9.065
60411090,0.28,-0.258,0.917,7.507,-6.685,7.752
60411100,0.299,-0.252,0.919,10.325,-9.012,5.74
60411110,0.325,-0.244,0.916,12.267,-9.31,3.92
60411120,0.332,-0.243,0.914,13.615,-8.732,2.572
60411130,0.338,-0.24,0.914,14.875,-6.965,1.54
60411140,0.336,-0.236,0.912,16.187,-5.232,0.087
60411150,0.336,-0.225,0.908,17.412,-3.937,-1.855
60411160,0.323,-0.21,0.913,18.41,-2.152,-3.797
60411170,0.295,-0.191,0.924,18.917,-2.397,-5.53
60411180,0.265,-0.176,0.928,18.095,-3.71,-6.93
60411190,0.198,-0.198,0.925,17.255,-8.312,-8.382
60411200,0.21,-0.235,0.931,18.375,-14.717,-10.587
60411210,0.256,-0.212,0.937,20.842,-22.54,-13.457
60411220,0.277,-0.141,0.936,21.752,-26.967,-13.877
60411230,0.33,-0.106,0.918,18.69,-31.115,-12.705
60411240,0.412,-0.113,0.89,13.702,-28.717,-10.027
60411250,0.417,-0.099,0.884,9.52,-22.61,-7.315
60411260,0.433,-0.112,0.885,4.777,-12.74,-3.482
60411260,0.437,-0.149,0.885,1.505,-5.39,-0.98
60411280,0.431,-0.154,0.886,0.052,4.217,0.91
60411280,0.418,-0.167,0.897,-0.245,10.325,2.205
60411300,0.356,-0.147,0.912,-0.577,17.692,3.57
60411300,0.327,-0.17,0.924,-1.242,19.075,4.795
60411320,0.262,-0.186,0.937,-1.277,19.687,5.162
60411320,0.255,-0.171,0.938,-0.28,14.157,4.27
60411330,0.247,-0.191,0.941,-0.017,10.5,4.147
60411340,0.28,-0.169,0.932,1.277,3.92,2.94
60411350,0.328,-0.165,0.923,1.067,2.432,2.59
60411360,0.345,-0.156,0.918,0.805,1.487,2.257
60411370,0.377,-0.14,0.913,-0.297,5.442,3.185
60411380,0.38,-0.161,0.915,-1.715,9.275,4.795
60411390,0.337,-0.167,0.923,-2.362,15.067,6.562
60411400,0.331,-0.156,0.923,-2.432,16.047,6.877
60411410,0.306,-0.156,0.929,-3.482,18.305,7.507
60411420,0.256,-0.184,0.938,-4.042,16.59,7.367
60411430,0.225,-0.183,0.942,-3.5,13.352,6.23
60411440,0.225,-0.178,0.942,-2.887,6.93,4.217
60411450,0.23,-0.177,0.941,-2.66,1.872,2.66
60411460,0.251,-0.18,0.94,-2.432,-3.64,1.085
60411470,0.274,-0.196,0.933,-1.89,-7.245,0.035
60411480,0.28,-0.164,0.929,-0.682,-10.045,-1.155
60411490,0.285,-0.156,0.93,-1.277,-11.077,-1.382
60411500,0.313,-0.174,0.927,-2.222,-11.672,-0.63
60411510,0.342,-0.148,0.927,-2.45,-10.675,0.332
60411520,0.367,-0.136,0.937,-4.637,-7.402,2.257
60411530,0.367,-0.136,0.953,-8.312,-3.867,4.76
60411540,0.365,-0.127,0.972,-13.457,-0.245,7.28
60411550,0.36,-0.097,0.996,-20.72,1.54,9.73
60411560,0.357,-0.089,1.027,-31.832,4.112,12.915
60411570,0.344,-0.079,1.045,-44.1,3.115,15.505
60411580,0.348,-0.071,1.054,-57.732,3.5,18.165
60411590,0.363,-0.127,1.03,-71.4,3.815,20.51
60411600,0.356,-0.17,1.02,-80.99,7.717,21.28
60411610,0.313,-0.256,0.974,-83.912,4.935,21.052
60411620,0.449,-0.197,1.008,-89.617,4.427,23.397
60411630,0.255,-0.322,0.942,-92.137,1.365,24.57
60411640,0.428,-0.121,1.005,-83.317,5.162,23.047
60411640,0.374,-0.224,0.828,-90.72,7.927,26.705
60411660,0.459,-0.357,0.923,-96.582,25.585,28.07
60411660,0.3,-0.389,0.91,-87.867,38.045,25.742
60411670,0.26,-0.361,0.856,-79.555,44.852,22.802
60411680,0.319,-0.318,0.848,-74.62,46.9,22.96
60411690,0.239,-0.46,0.874,-69.877,47.547,27.107
60411700,0.307,-0.458,0.866,-59.202,43.155,26.495
60411710,0.251,-0.398,0.842,-48.125,42.42,26.075
60411720,0.71,-0.258,1.018,-37.24,38.255,18.672
60411730,0.31,-0.146,1.161,-19.81,37.222,-1.365
60411740,0.318,0.095,0.589,-2.012,-83.125,-65.187
60411750,1.92,0.553,0.892,-15.015,-149.1,-102.69
60411760,1.046,-0.086,0.626,-27.107,-90.72,-95.077
60411770,0.357,-0.048,0.935,-17.99,-36.592,-112.052
60411780,-0.25,0.092,1.028,-3.955,-65.065,-123.532
60411790,-0.147,0.079,1.006,3.832,-110.005,-103.162
60411800,0.211,-0.078,0.983,13.457,-105.122,-68.915
60411810,0.051,-0.118,0.961,33.967,-66.237,-32.725
60411820,-0.155,-0.02,0.994,52.64,-42.98,-0.42
60411830,-0.194,-0.145,1.073,60.165,-47.547,32.462
60411840,-0.018,-0.232,1.112,74.165,-60.025,62.842
60411850,-0.074,-0.264,1.108,98,-61.617,95.112
60411860,-0.234,-0.266,1.05,119.595,-61.565,127.837
60411870,-0.309,-0.23,0.955,138.337,-64.977,163.695
60411880,-0.323,-0.287,0.82,151.987,-63,208.372
60411890,-0.457,-0.27,0.435,162.82,-59.097,253.505
60411900,-0.139,0.103,-0.14,163.642,-49.035,299.337
60411910,0.362,0.198,-0.029,118.72,-23.047,326.83
60411920,0.559,-0.257,0.064,64.592,-2.135,316.802
60411930,0.932,-0.557,-0.44,58.187,19.11,276.622
60411940,1.783,-0.765,1.91,-57.452,142.275,268.135
60411950,-0.876,-1.998,-0.286,80.937,190.137,248.85
60411960,-0.183,1.083,1.211,188.685,24.587,21.822
60411970,0.646,0.679,1.16,103.425,-15.575,74.725
60411980,-1.189,0.39,1.24,118.702,-2.625,24.202
60411990,-0.243,-0.845,1.168,120.33,-67.13,-51.152
60412000,-0.171,-0.131,1.404,111.912,-112.752,-111.16
60412010,0.894,-0.026,1.225,88.795,-143.132,-117.005
60412010,1.515,0.437,0.878,60.182,-105.402,-74.672
60412030,0.863,0.116,0.908,26.25,-34.755,-18.2
60412030,0.499,-0.016,0.935,3.36,10.727,6.37
60412050,0.324,-0.209,0.924,-10.272,22.382,4.655
60412050,0.363,-0.26,0.903,-12.565,26.075,-2.03
60412070,0.284,-0.266,0.926,-9.52,27.58,-1.995
60412070,0.218,-0.221,0.953,-7.017,26.582,0.542
60412080,0.186,-0.197,0.965,-7.087,18.217,0
60412090,0.223,-0.217,0.95,-9.03,11.025,-2.642
60412100,0.268,-0.199,0.948,-9.082,3.902,-2.625
60412110,0.238,-0.157,0.972,-11.305,1.505,-0.192
60412120,0.283,-0.148,0.969,-17.22,-4.112,-0.472
60412130,0.336,-0.134,0.977,-25.742,-5.04,-0.07
60412140,0.347,-0.201,1.014,-35.017,-4.252,1.785
60412150,0.322,-0.057,1.069,-46.235,0.297,3.307
60412160,0.249,0.079,1.206,-61.792,5.18,-1.68
60412170,0.128,-0.276,1.19,-82.005,6.755,-17.85
60412180,0.443,-0.181,1.075,-111.667,-1.032,-36.575
60412190,0.11,-0.143,1.269,-142.957,33.372,-52.64
60412200,0.505,-0.012,1.119,-169.137,27.352,-51.292
60412210,0.604,-0.151,1.038,-191.117,31.29,-40.705
60412220,0.623,-0.143,0.999,-208.862,44.047,-26.337
60412230,0.67,-0.22,1.111,-223.562,56.175,-13.737
60412240,0.747,-0.503,1.281,-228.375,76.65,-5.18
60412250,0.487,-0.547,1.491,-205.31,109.97,-1.382
60412260,-0.208,-0.447,1.361,-177.047,130.427,-1.102
60412270,-0.234,0.216,1.457,-137.165,92.977,-19.67
60412280,-0.334,0.959,0.757,-85.522,56.332,-23.24
60412290,0.495,0.924,0.709,-47.705,23.292,-17.43
60412300,1.678,1.702,0.548,30.677,33.845,-47.04
60412310,-0.571,1.978,0.807,85.085,13.982,-147.367
60412320,-0.612,1.997,0.603,127.382,-2.922,-120.452
60412330,-0.391,1.468,0.57,194.075,-0.717,-17.377
60412330,-0.405,-0.022,-0.152,215.477,-3.395,47.582
60412350,1.033,-1.45,-1.19,213.832,-42.105,50.627
60412350,0.177,-1.998,0.322,73.71,-96.32,62.877
60412370,-0.421,-1.998,-0.874,260.697,-87.202,107.537
60412370,0.458,0.449,0.89,383.757,-28.14,-78.89
60412390,-1.326,1.9,1.987,360.57,-49.472,-39.795
60412390,-0.45,-1.074,1.998,160.37,-147.192,-23.012
60412410,1.916,1.729,0.639,69.457,-185.692,-93.345
60412410,0.944,-0.483,0.865,-40.617,-66.325,-33.53
60412420,0.932,-0.224,0.734,-30.87,13.037,6.51
60412430,0.209,-0.427,0.92,-25.48,47.022,13.947
60412440,0.437,-0.045,0.938,-16.852,45.64,9.887
60412450,0.122,-0.337,0.961,-21.297,50.067,8.592
60412460,0.032,-0.327,0.958,-15.067,35.787,3.412
60412470,0.164,-0.288,0.946,-8.47,19.197,-1.767
60412480,0.194,-0.261,0.939,-2.275,7.035,-1.575
60412490,0.129,-0.226,0.969,2.642,-1.592,-0.787
60412500,0.264,-0.164,0.963,2.957,-12.985,-4.182
60412510,0.281,-0.165,0.958,0.017,-17.727,-4.935
60412520,0.305,-0.18,0.952,-1.732,-21.087,-3.255
60412530,0.308,-0.155,0.962,-3.622,-22.067,-0.577
60412540,0.376,-0.152,0.963,-6.842,-23.712,3.99
60412550,0.362,-0.15,0.993,-11.305,-21.98,11.077
60412560,0.367,-0.125,1.053,-19.442,-21.927,18.06
60412570,0.383,-0.117,1.153,-33.162,-22.295,27.09
60412580,0.392,-0.043,1.289,-53.602,-24.342,39.585
60412590,0.292,-0.068,1.371,-86.17,-37.782,51.467
60412600,0.378,0.012,1.436,-123.515,-70.052,64.837
60412610,0.164,-0.317,1.29,-147.7,-111.072,67.06
60412620,0.554,-0.379,1.18,-157.885,-132.002,69.527
60412630,0.516,-0.717,1.214,-168.7,-111.667,73.762
60412640,0.485,-0.203,1.245,-145.722,-71.785,60.252
60412650,-0.586,-0.343,1.436,-125.335,-34.93,69.37
60412660,0.048,0.252,1.169,-77.402,-55.3,52.92
60412670,-1.033,0.656,1.217,-5.057,-8.085,60.777
60412680,-1.179,0.417,0.995,44.24,15.33,58.17
60412690,-1.23,0.796,1.181,102.83,59.15,93.712
60412700,-0.562,0.379,0.209,201.652,74.83,164.097
60412710,-0.274,0.422,-0.207,227.36,126.052,150.762
60412720,0.023,0.128,-0.919,257.232,139.58,149.59
60412730,0.045,-0.246,-1.855,261.135,148.767,157.745
60412740,-1.173,-0.757,-0.827,193.182,140,155.89
60412750,1.606,-1.67,0.872,-76.282,-163.747,64.662
60412760,-0.874,-1.097,1.93,145.285,-197.575,-80.885
60412760,1.686,1.92,1.666,418.547,-339.377,-275.957
60412780,1.823,0.673,-0.41,13.282,-248.325,-27.965
60412780,0.252,0.044,0.703,-54.967,25.952,7.297
60412800,0.325,-0.318,0.958,-53.112,106.417,45.92
60412800,-0.106,-0.623,0.991,-44.292,114.03,35.297
60412820,-0.19,-0.49,0.982,-28.07,74.935,15.54
60412820,0.034,-0.268,0.976,-13.125,41.09,1.732
60412830,-0.016,-0.355,0.962,-9.73,19.372,-9.765
60412840,0.326,-0.194,0.949,-2.1,-0.017,-14.962
60412850,0.161,-0.243,0.962,0.595,-5.46,-7.455
60412860,0.255,-0.161,0.957,1.645,-15.295,-6.912
60412870,0.393,-0.162,0.929,-0.77,-18.76,-6.475
60412880,0.454,-0.156,0.915,-2.17,-14.77,-0.472
60412890,0.378,-0.162,0.933,-4.06,-6.475,7.455
60412900,0.366,-0.166,0.937,-7.157,-2.205,11.987
60412910,0.413,-0.15,0.959,-10.57,1.715,15.942
60412920,0.425,-0.172,0.971,-18.812,7.49,21.087
60412930,0.39,-0.184,0.997,-27.02,14.56,25.935
60412940,0.375,-0.172,1.027,-37.695,22.575,28.262
60412950,0.454,-0.196,1.035,-49.402,30.765,28.98
60412960,0.528,-0.284,1.078,-59.57,45.517,30.467
60412970,0.725,-0.311,1.098,-64.26,62.282,29.82
60412980,0.657,-0.48,0.981,-61.897,80.71,28.787
60412990,0.993,-0.82,1.128,-51.502,91.682,29.872
60413000,0.822,-0.969,1.017,-19.512,115.517,33.88
60413010,0.186,-0.722,0.694,17.692,133.315,34.055
60413020,0.108,-1.017,0.208,29.452,131.722,52.395
60413030,0.656,-1.602,0.415,17.325,84.367,50.977
60413040,0.452,-1.835,-0.623,9.345,22.715,-5.827
60413050,1.478,-1.352,0.369,-25.007,-32.532,-91.14
60413060,0.514,-1.748,0.432,-89.32,-73.92,-156.992
60413070,0.12,-0.987,0.635,-100.38,-99.592,-204.435
