time[ms],accX[g],accY[g],accZ[g],Value 1,Value 2,Value 3
51984120,-0.7,0.069,0.565,-93.992,46.2,-13.86
51984130,-0.69,0.064,0.571,-93.817,38.605,-11.2
51984140,-0.684,0.048,0.57,-92.365,32.48,-6.265
51984150,-0.683,0.041,0.606,-89.6,28.665,-5.915
51984160,-0.708,0.054,0.601,-95.62,26.355,-4.637
51984170,-0.784,-0.032,0.608,-94.29,21.245,-7.805
51984180,-0.805,-0.039,0.639,-93.135,15.732,-18.742
51984190,-0.826,-0.067,0.671,-93.992,7.595,-29.715
51984200,-0.809,-0.044,0.647,-92.907,-2.03,-36.907
51984210,-1.037,-0.391,0.484,-45.657,-31.867,-37.905
51984220,-0.647,0.13,0.947,-20.072,-48.335,-74.095
51984230,-0.64,0.127,0.742,-73.447,-50.75,-70.892
51984240,-0.665,-0.136,0.649,-80.202,-54.775,-63.507
51984250,-0.598,-0.186,0.662,-65.52,-58.1,-63.717
51984260,-0.586,-0.16,0.791,-59.78,-55.247,-51.345
51984270,-0.749,-0.366,0.758,-61.6,-53.427,-34.545
51984280,-0.714,-0.401,0.825,-30.992,-61.337,-30.975
51984290,-0.556,-0.28,0.941,-9.922,-62.212,-13.772
51984300,-0.509,-0.137,0.997,-7.98,-42.577,0.84
51984310,-0.676,-0.139,1.012,-22.225,-24.622,-0.472
51984320,-0.611,-0.246,0.973,-41.86,-2.782,-11.97
51984330,-0.599,-0.346,1.001,-54.915,23.905,-22.872
51984330,-0.762,-0.413,0.952,-64.155,44.24,-25.077
51984350,-0.776,-0.389,0.982,-60.48,49.087,-37.065
51984350,-0.83,-0.366,0.991,-64.732,42.665,-45.272
51984370,-0.902,-0.428,0.974,-77.525,22.295,-52.377
51984370,-0.849,-0.46,0.884,-84.717,-5.162,-61.88
51984390,-0.604,-0.508,0.805,-79.485,-18.9,-62.195
51984390,-0.697,-0.497,0.81,-72.205,-27.72,-60.97
51984410,-0.687,-0.429,0.783,-70.717,-41.457,-67.025
51984410,-0.56,-0.458,0.654,-74.672,-54.967,-68.18
51984420,-0.413,-0.544,0.603,-60.287,-62.912,-65.205
51984430,-0.393,-0.568,0.593,-37.782,-63.052,-57.295
51984440,-0.389,-0.547,0.625,-18.76,-65.38,-49.385
51984450,-0.363,-0.49,0.623,-7.28,-62.947,-45.64
51984460,-0.29,-0.469,0.654,4.217,-57.277,-47.425
51984470,-0.325,-0.447,0.695,8.505,-49.402,-48.02
51984480,-0.4,-0.432,0.699,7.507,-45.465,-50.645
51984490,-0.409,-0.437,0.694,8.785,-45.552,-56.472
51984500,-0.376,-0.437,0.687,13.842,-46.13,-61.39
51984510,-0.305,-0.413,0.704,19.442,-43.89,-62.002
51984520,-0.278,-0.355,0.789,21.997,-35.717,-57.225
51984530,-0.272,-0.27,0.652,17.92,-25.007,-48.982
51984540,-0.271,-0.329,0.687,14.63,-13.807,-36.68
51984550,-0.319,-0.341,0.632,9.327,5.162,-31.622
51984560,-0.437,-0.299,0.672,6.527,20.79,-33.827
51984570,-0.583,-0.306,0.63,-4.97,26.407,-39.97
51984580,-0.618,-0.296,0.63,-14.28,23.432,-49.122
51984590,-0.711,-0.319,0.607,-20.16,11.025,-46.97
51984600,-0.743,-0.391,0.552,-20.125,-10.202,-39.48
51984610,-0.636,-0.462,0.505,-7.525,-28.735,-28.647
51984620,-0.622,-0.527,0.467,14.49,-39.217,-13.667
51984630,-0.525,-0.49,0.457,39.27,-40.425,-4.077
51984640,-0.547,-0.471,0.499,65.485,-32.13,7.367
51984650,-0.574,-0.415,0.566,86.905,-23.782,11.795
51984660,-0.449,-0.367,0.615,102.585,-11.55,10.29
51984670,-0.323,-0.335,0.697,114.8,10.955,11.707
51984680,-0.267,-0.29,0.789,117.985,43.82,22.435
51984690,-0.264,-0.243,0.856,115.43,83.142,40.442
51984700,-0.326,-0.14,0.915,105.507,127.05,60.97
51984710,-0.452,-0.039,0.969,84.14,172.06,77.105
51984720,-0.635,-0.013,0.928,49.35,210.315,88.042
51984730,-0.73,-0.062,0.798,14.175,237.16,94.85
51984740,-0.776,-0.08,0.671,-9.065,256.077,101.22
51984750,-0.823,-0.058,0.551,-24.57,267.05,109.515
51984760,-0.837,-0.04,0.432,-34.177,268.905,118.387
51984760,-0.833,-0.065,0.301,-39.497,264.985,127.47
51984780,-0.81,-0.076,0.189,-37.082,261.975,133.227
51984780,-0.83,-0.05,0.168,-28.892,260.032,133.245
51984800,-0.837,0.002,0.16,-25.217,255.465,127.155
51984800,-0.899,0.107,0.166,-24.342,249.655,119.857
51984820,-1.064,0.042,0.151,-34.895,224.665,109.462
51984820,-0.928,-0.024,0.089,-37.782,196.105,99.487
51984830,-0.847,-0.028,0.081,-29.627,169.067,97.632
51984840,-0.812,-0.009,0.057,-28.42,149.012,100.082
51984850,-0.842,-0.015,0.06,-27.51,136.255,102.025
51984860,-0.888,-0.031,0.095,-27.79,127.295,93.94
51984870,-0.792,0.08,0.105,-39.235,120.26,78.732
51984880,-1.061,-0.21,0.02,-39.935,102.515,105.787
51984890,-0.981,-0.091,0.003,-44.415,85.82,82.145
51984900,-0.787,-0.075,0.067,-37.292,78.487,67.462
51984910,-0.989,-0.14,0.022,-33.057,72.31,100.607
51984920,-1.489,-0.247,-0.089,-33.39,49.595,129.832
51984930,-1.74,-0.494,0.002,20.545,23.485,150.377
51984940,-1.411,-0.064,0.167,38.955,14.647,154.595
51984950,-1.14,0.156,0.159,29.347,19.932,148.4
51984960,-1.238,0.269,0.287,28.315,35.507,129.867
51984970,-1.416,0.3,0.316,5.705,37.59,112.052
51984980,-1.336,0.263,0.284,-16.905,33.617,88.777
51984990,-1.291,0.223,0.291,-18.182,38.587,58.047
51985000,-1.198,0.204,0.276,-21.63,49.682,35.56
51985010,-1.079,0.165,0.247,-28.227,58.607,20.877
51985020,-1.013,0.099,0.182,-25.322,67.707,10.447
51985030,-0.982,0.045,0.141,-17.097,73.132,7.052
51985040,-0.871,0.006,0.093,-9.94,77.525,11.637
51985050,-0.788,-0.005,0.061,1.05,86.502,23.31
51985060,-0.795,0.023,0.057,11.725,94.447,39.935
51985070,-0.84,0.055,0.013,16.45,100.152,56.665
51985080,-0.958,0.057,-0.041,18.917,100.94,69.492
51985080,-1.075,0.082,-0.079,23.065,91.647,75.827
51985100,-1.112,0.146,-0.07,27.825,73.395,75.967
51985100,-1.125,0.258,-0.082,23.677,48.895,73.622
51985120,-1.15,0.317,-0.108,16.345,24.027,60.462
51985120,-1.117,0.316,-0.107,11.445,2.537,41.912
51985140,-1.062,0.317,-0.09,5.197,-14.822,29.347
51985140,-1.05,0.306,-0.14,1.295,-23.187,23.712
51985160,-1.097,0.33,-0.147,0.63,-25.41,19.145
51985160,-1.137,0.356,-0.122,-1.207,-26.95,10.92
51985170,-1.171,0.33,-0.1,-5.145,-28.052,0.332
51985180,-1.16,0.324,-0.16,-7.455,-25.077,-10.342
51985190,-1.205,0.365,-0.067,-6.58,-26.197,-23.625
51985200,-1.153,0.333,-0.121,-14.402,-33.232,-39.41
51985210,-1.016,0.272,-0.138,-20.317,-40.372,-49.892
51985220,-0.891,0.226,-0.133,-19.88,-39.375,-52.045
51985230,-0.812,0.224,-0.11,-16.887,-32.322,-47.6
51985240,-0.766,0.23,-0.102,-17.745,-22.662,-37.52
51985250,-0.751,0.213,-0.07,-19.967,-12.215,-25.795
51985260,-0.797,0.2,-0.044,-21.735,-4.515,-15.54
51985270,-0.854,0.204,-0.008,-23.642,-1.067,-9.047
51985280,-0.92,0.208,0.026,-27.335,-3.185,-6.912
51985290,-0.947,0.198,0.036,-33.355,-10.15,-9.485
51985300,-0.952,0.172,0.056,-38.447,-18.9,-14.052
51985310,-0.98,0.148,0.079,-40.897,-28.752,-17.797
51985320,-0.999,0.154,0.085,-42.42,-38.395,-21.402
51985330,-1.163,0.113,0.257,-44.677,-46.865,-25.655
51985340,-1.569,0.025,0.295,-48.545,-66.5,-34.772
51985350,-1.442,0.058,0.18,-40.95,-79.59,-48.667
51985360,-0.906,0.133,0.27,-15.26,-57.312,-58.432
51985370,-0.537,0.004,0.216,-2.467,-13.877,-44.765
51985380,-0.374,-0.013,0.151,-0.49,39.427,-3.675
51985390,-0.664,0.103,0.168,-0.595,84.752,39.112
51985400,-1.012,0.166,0.189,-15.365,99.137,55.177
51985410,-1.16,0.127,0.089,-33.127,82.232,45.115
51985420,-1.057,0.176,0.033,-37.677,60.322,36.54
51985430,-1.357,0.288,-0.075,-31.71,46.952,29.102
51985440,-1.149,0.266,-0.081,-29.645,28.157,9.047
51985450,-1.068,0.183,-0.106,-29.347,14.35,-3.377
51985460,-1.137,0.14,-0.142,-24.097,12.005,-7.91
51985470,-1.035,0.191,-0.108,-16.327,-2.03,-11.322
51985480,-0.977,0.153,-0.077,-17.5,-13.177,-14.192
51985490,-1.011,0.13,-0.042,-15.697,-15.697,-12.39
51985500,-1.044,0.175,-0.006,-8.89,-17.167,-11.112
51985510,-1.061,0.194,-0.005,-8.417,-21.945,-14.997
51985510,-1.096,0.175,-0.036,-8.05,-27.422,-21.875
51985530,-1.042,0.146,-0.035,-5.337,-33.722,-27.405
51985530,-0.993,0.127,-0.015,-3.832,-37.677,-26.95
51985550,-1.019,0.128,0.007,-2.94,-39.165,-23.45
51985550,-0.997,0.135,0.039,-1.54,-39.602,-21.805
51985560,-0.982,0.125,0.055,-0.875,-37.782,-21.612
51985570,-0.976,0.109,0.06,-0.63,-35.7,-19.775
51985580,-0.964,0.118,0.071,0.892,-32.182,-15.557
51985590,-0.974,0.127,0.074,2.555,-26.967,-11.48
51985600,-0.996,0.133,0.069,3.08,-22.855,-9.642
51985610,-1,0.138,0.068,2.695,-21.087,-10.22
51985620,-1.011,0.134,0.061,1.505,-20.23,-11.41
51985630,-1.015,0.133,0.071,0.437,-20.737,-11.9
51985640,-1.018,0.141,0.077,-0.595,-20.667,-12.425
51985650,-1.027,0.151,0.064,-2.065,-22.715,-14.14
51985660,-1.032,0.15,0.081,-5.145,-31.43,-18.445
51985670,-0.991,0.08,0.111,-8.435,-27.282,-21.437
51985680,-1,0.104,0.094,0.805,-19.74,-18.007
51985690,-0.974,0.118,0.097,-3.745,-22.995,-15.54
51985700,-0.966,0.083,0.108,-5.18,-20.737,-15.715
51985710,-1.004,0.084,0.109,-6.002,-18.34,-12.53
51985720,-1.019,0.101,0.098,-5.862,-17.43,-9.94
51985730,-1.001,0.104,0.118,-6.282,-18.252,-10.447
51985740,-0.984,0.09,0.137,-8.505,-17.027,-10.745
51985750,-0.971,0.091,0.152,-7.945,-15.26,-9.135
51985760,-0.916,0.088,0.187,-7.787,-8.732,-6.107
51985770,-0.94,0.074,0.147,-10.605,-0.21,-1.33
51985780,-0.964,0.073,0.126,-12.005,4.392,3.132
51985790,-1.001,0.079,0.104,-12.827,7.122,6.44
51985800,-1.05,0.08,0.044,-11.305,8.872,7.21
51985810,-1.03,0.086,0.036,-8.295,7.245,5.53
51985820,-1.059,0.095,0.035,-5.915,4.62,3.552
51985830,-1.064,0.091,0.051,-4.077,0.752,0.385
51985830,-1.039,0.083,0.078,-2.625,-4.025,-2.712
51985850,-0.996,0.071,0.102,-0.997,-5.32,-3.972
51985850,-0.991,0.068,0.096,-0.245,-5.267,-1.977
51985870,-1,0.082,0.083,1.015,-4.427,0.35
51985870,-1.024,0.1,0.086,1.995,-6.072,0.7
51985890,-1.033,0.107,0.094,3.43,-7.14,-1.347
51985890,-1.005,0.105,0.124,3.587,-6.387,-3.692
51985910,-1.004,0.1,0.15,1.54,-4.095,-4.322
51985910,-1.01,0.085,0.121,-1.662,-2.082,-4.06
51985920,-0.967,0.089,0.152,-1.645,-1.137,-3.412
51985930,-0.972,0.095,0.161,-3.342,0.7,-2.45
51985940,-1.011,0.097,0.178,-4.06,3.465,-2.1
51985950,-0.976,0.121,0.138,-4.13,3.237,-3.22
51985960,-0.96,0.119,0.089,-5.46,5.302,-4.427
51985970,-1.019,0.092,0.05,-7.402,7.577,-4.497
51985980,-1.048,0.087,0.04,-6.457,6.195,-4.9
51985990,-1.071,0.087,0.025,-5.617,1.645,-7
51986000,-1.024,0.081,0.062,-4.655,-1.365,-9.45
51986010,-1.015,0.059,0.083,-5.11,-2.24,-9.327
51986020,-0.99,0.046,0.078,-4.235,-1.785,-7.227
51986030,-0.982,0.047,0.079,-5.705,-3.727,-3.57
51986040,-0.993,0.042,0.088,-6.527,-4.375,-0.105
51986050,-1.005,0.063,0.09,-5.635,-4.182,2.94
51986060,-1.008,0.085,0.118,-4.812,-3.027,4.042
51986070,-1.025,0.078,0.072,-4.62,-1.47,3.15
51986080,-1.02,0.069,0.061,-4.48,-3.955,2.135
51986090,-1.044,0.073,0.066,-1.977,-6.685,1.61
51986100,-1.039,0.083,0.09,0.787,-9.082,-0.28
51986110,-0.998,0.07,0.098,0.595,-10.692,-2.17
51986120,-0.993,0.053,0.087,0.402,-10.885,-1.295
51986130,-1,0.057,0.085,0.945,-12.617,1.575
51986140,-1.051,0.082,0.035,2.38,-16.292,2.922
51986150,-1.092,0.116,0.088,3.762,-26.827,-0.175
51986160,-1.009,0.111,0.157,3.43,-29.19,-6.002
51986170,-0.963,0.086,0.161,1.785,-22.452,-9.135
51986180,-0.928,0.064,0.167,-2.852,-16.642,-7.28
51986190,-0.927,0.052,0.159,-3.307,-9.012,-2.485
51986200,-0.965,0.068,0.15,-4.112,-3.237,2.712
51986210,-0.991,0.089,0.138,-4.742,0.63,4.48
51986220,-1.015,0.096,0.121,-5.6,3.745,3.885
51986230,-1.04,0.1,0.11,-6.51,4.13,1.68
51986230,-1.049,0.102,0.106,-7.21,2.747,-2.205
51986250,-1.027,0.09,0.116,-8.015,0.315,-6.475
51986250,-0.998,0.08,0.153,-8.19,-0.245,-8.382
51986260,-0.952,0.056,0.169,-8.312,2.555,-6.877
51986270,-0.944,0.026,0.113,-9.642,8.4,-2.327
51986280,-0.964,0.025,0.108,-11.795,7.98,4.515
51986290,-1.018,0.049,0.082,-9.695,9.415,9.765
51986300,-1.075,0.079,0.081,-8.452,7.14,10.325
51986310,-1.071,0.084,0.076,-7.017,3.22,5.74
51986320,-1.048,0.308,0.221,-6.212,-1.942,5.407
51986330,-1.168,0.01,-0.013,-36.645,-16.537,29.365
51986340,-0.863,-0.07,0.032,-24.517,-18.287,4.83
51986350,-0.98,0.02,0.139,2.66,-3.482,-8.942
51986360,-0.952,0.033,0.109,-0.892,-2.52,1.82
51986370,-1.02,0.088,0.091,6.142,-0.175,5.477
51986380,-1.086,0.11,0.082,2.17,-6.16,4.34
51986390,-1.037,0.094,0.11,3.15,-10.622,-2.135
51986400,-0.995,0.08,0.133,3.15,-10.272,-4.795
51986410,-1.002,0.072,0.121,1.172,-9.065,-4.13
51986420,-0.989,0.073,0.127,0.105,-8.557,-3.22
51986430,-0.975,0.069,0.14,0.612,-6.352,-2.502
51986440,-0.973,0.063,0.136,-0.28,-3.167,-0.595
51986450,-0.988,0.069,0.125,-0.7,-0.367,2.1
51986460,-1.017,0.084,0.111,-0.647,1.522,3.85
51986470,-1.044,0.097,0.101,-1.312,-0.315,2.765
51986480,-1.058,0.091,0.095,-2.362,-4.165,-1.015
51986490,-1.047,0.081,0.094,-2.205,-8.82,-4.847
51986500,-1.019,0.087,0.118,-1.33,-12.232,-7.297
51986510,-0.988,0.082,0.142,-2.117,-12.915,-9.012
51986520,-0.942,0.05,0.16,-3.517,-8.47,-8.102
51986530,-0.937,0.033,0.142,-3.132,-2.205,-3.447
51986540,-0.972,0.049,0.129,-3.867,0.14,2.415
51986550,-1.014,0.059,0.115,-4.025,0.385,5.46
51986560,-1.032,0.073,0.098,-3.167,-0.122,6.02
51986570,-1.042,0.084,0.104,-2.1,-1.995,4.165
51986580,-1.047,0.081,0.094,-1.785,-4.76,1.085
51986580,-1.035,0.075,0.111,-0.682,-8.417,-1.575
51986600,-1.031,0.072,0.124,0.507,-10.22,-3.64
51986600,-0.989,0.063,0.143,0.665,-10.832,-5.32
51986620,-0.96,0.043,0.146,1.487,-7.525,-4.48
51986620,-0.937,0.044,0.152,3.132,-2.275,-0.297
51986640,-0.959,0.059,0.132,4.025,2.59,4.777
51986640,-1.024,0.078,0.098,3.902,3.062,7.175
51986660,-1.058,0.087,0.106,4.235,-0.91,5.582
51986660,-1.044,0.093,0.114,5.162,-3.902,1.75
51986670,-1.022,0.085,0.133,3.517,-5.967,-1.802
51986680,-1.014,0.073,0.126,1.715,-6.02,-3.692
51986690,-1.001,0.066,0.125,0.49,-7.14,-3.622
51986700,-0.98,0.058,0.139,0.717,-6.597,-2.642
51986710,-0.975,0.06,0.135,0.087,-4.707,-0.682
51986720,-0.97,0.066,0.157,-1.032,-2.887,1.785
51986730,-0.986,0.062,0.139,-2.1,1.155,3.885
51986740,-1.011,0.077,0.128,-2.8,2.73,5.582
51986750,-1.033,0.091,0.114,-3.447,1.47,4.97
51986760,-1.043,0.087,0.103,-3.71,-1.242,2.065
51986770,-1.043,0.091,0.106,-3.307,-4.812,-1.33
51986780,-1.048,0.096,0.117,-3.71,-7.542,-4.935
51986790,-1.018,0.082,0.152,-5.127,-9.327,-8.575
51986800,-0.952,0.038,0.166,-5.967,-4.567,-9.502
51986810,-0.93,0.025,0.147,-4.165,1.505,-4.935
51986820,-0.961,0.041,0.142,-4.725,2.94,1.837
51986830,-1.003,0.058,0.108,-5.18,3.167,6.3
51986840,-1.05,0.083,0.104,-5.495,0.98,7.192
51986850,-1.049,0.088,0.096,-6.352,-2.432,3.605
51986860,-1.046,0.082,0.102,-6.335,-5.46,-0.297
51986870,-1.031,0.065,0.107,-6.3,-9.047,-3.027
51986880,-0.999,0.058,0.124,-4.882,-11.217,-4.357
51986890,-0.975,0.057,0.144,-4.147,-11.602,-4.182
51986900,-0.97,0.048,0.143,-4.112,-9.117,-2.222
51986910,-0.964,0.04,0.149,-2.59,-4.9,0.735
51986920,-0.95,0.05,0.166,-0.927,0.122,4.182
51986920,-0.97,0.062,0.172,-1.26,4.865,7.717
51986940,-1.012,0.076,0.142,-2.31,7.805,9.432
51986940,-1.057,0.101,0.11,-3.08,5.775,7.472
51986960,-1.073,0.087,0.095,-4.2,3.01,2.467
51986960,-1.024,0.074,0.12,-2.677,0.77,-2.012
51986980,-1.004,0.077,0.13,-2.537,0.927,-3.552
51986980,-1.029,0.064,0.118,-4.742,-0.157,-4.252
51987000,-1.012,0.056,0.118,-6.002,-2.117,-4.567
51987000,-0.991,0.057,0.141,-5.862,-2.73,-4.077
51987010,-0.983,0.058,0.145,-6.352,-1.172,-3.115
51987020,-0.983,0.055,0.132,-7.297,-0.052,-1.172
51987030,-0.987,0.068,0.11,-7.7,0.595,1.172
51987040,-1.017,0.081,0.1,-7.717,0.63,1.872
51987050,-1.052,0.084,0.103,-8.242,-1.347,-0.21
51987060,-1.048,0.089,0.113,-7.315,-3.535,-4.2
51987070,-1.042,0.085,0.113,-7.28,-5.477,-8.557
51987080,-0.994,0.056,0.152,-7.595,-6.212,-11.427
51987090,-0.948,0.014,0.128,-5.582,-2.38,-10.307
51987100,-0.941,0.021,0.142,-4.007,-0.28,-4.83
51987110,-0.962,0.039,0.131,-2.835,2.047,0.542
51987120,-1.011,0.045,0.107,-3.36,2.852,4.13
51987130,-1.026,0.053,0.1,-2.887,2.135,5.04
51987140,-1.042,0.063,0.094,-3.255,0.507,4.532
51987150,-1.046,0.059,0.112,-3.412,-2.8,2.52
51987160,-1.008,0.048,0.126,-3.587,-3.867,1.067
51987170,-1.012,0.061,0.124,-1.837,-3.22,0.717
51987180,-0.99,0.051,0.12,-2.03,-3.465,-0.35
51987190,-0.976,0.042,0.118,-0.875,-3.045,0.647
51987200,-0.981,0.049,0.128,1.715,-0.525,3.36
51987210,-0.986,0.047,0.13,2.432,1.54,5.372
51987220,-0.996,0.044,0.117,2.66,3.587,6.93
51987230,-1.025,0.06,0.101,3.36,3.097,8.242
51987240,-1.055,0.074,0.105,2.957,-0.227,7.262
51987250,-1.031,0.069,0.103,2.152,-2.835,4.55
51987260,-1.027,0.075,0.118,1.872,-4.27,2.922
51987270,-1.025,0.068,0.115,0.175,-5.092,1.452
51987280,-1.012,0.056,0.128,-0.14,-5.495,0.122
51987290,-1.001,0.057,0.119,0.385,-4.83,0.052
51987300,-1.005,0.072,0.13,0.525,-5.232,0.332
51987310,-0.994,0.073,0.133,-0.49,-4.2,-0.07
51987320,-1.007,0.062,0.113,-0.735,-1.942,-0.122
51987330,-1.007,0.063,0.109,-0.525,-2.73,0.192
51987330,-1.02,0.061,0.114,-0.07,-4.13,0.07
51987350,-1.017,0.059,0.117,0.542,-5.145,-0.577
51987350,-1.011,0.065,0.123,1.102,-5.267,-1.33
51987370,-1.008,0.064,0.12,0.91,-5.092,-2.03
51987370,-1.009,0.065,0.117,0.542,-5.39,-2.012
51987390,-1.019,0.064,0.116,0.052,-6.265,-2.205
51987390,-1.016,0.063,0.12,-0.052,-7.297,-3.237
51987410,-1.008,0.059,0.124,-0.542,-8.19,-4.182
51987410,-1,0.058,0.127,-0.805,-8.347,-4.322
51987420,-1.012,0.063,0.124,-1.242,-8.435,-4.2
51987430,-1.011,0.063,0.132,-1.82,-8.715,-4.602
51987440,-0.99,0.05,0.15,-2.152,-7.315,-4.655
51987450,-0.968,0.036,0.143,-1.96,-3.832,-3.29
51987460,-0.968,0.045,0.144,-1.872,-1.575,-0.402
51987470,-0.998,0.049,0.125,-2.87,-0.227,2.222
51987480,-1.017,0.054,0.114,-3.202,-0.49,3.255
51987490,-1.028,0.066,0.119,-2.642,-1.732,2.747
51987500,-1.034,0.065,0.118,-2.747,-2.887,1.085
51987510,-1.015,0.06,0.129,-2.852,-4.567,-0.682
51987520,-1.01,0.051,0.12,-2.817,-4.952,-1.627
51987530,-1.004,0.052,0.125,-2.362,-6.16,-2.065
51987540,-1.002,0.053,0.13,-1.977,-6.352,-2.065
51987550,-1.006,0.046,0.123,-1.295,-5.512,-1.75
51987560,-1.009,0.046,0.118,-0.087,-5.337,-1.12
51987570,-1.009,0.044,0.127,0.77,-6.597,-0.752
51987580,-1.004,0.035,0.131,1.277,-6.16,-0.175
51987590,-0.983,0.035,0.141,2.257,-4.795,1.05
51987600,-0.969,0.039,0.143,2.677,-2.082,3.045
51987610,-0.985,0.042,0.127,2.765,-0.227,5.757
51987620,-1.025,0.061,0.096,3.535,-1.505,7.805
51987630,-1.049,0.086,0.129,3.972,-6.912,6.352
51987640,-1.046,0.079,0.142,2.975,-7.577,1.977
51987650,-1.016,0.064,0.147,1.487,-6.702,-1.855
51987660,-0.995,0.052,0.132,0.717,-5.11,-3.027
51987670,-0.981,0.053,0.151,0.805,-5.11,-2.047
51987670,-0.969,0.049,0.154,0.892,-2.572,-0.017
51987690,-0.984,0.056,0.136,0.612,-0.28,2.047
51987690,-0.993,0.069,0.143,0.14,-0.017,2.852
51987710,-0.994,0.054,0.133,-0.997,0.962,2.905
51987710,-1,0.051,0.128,-0.752,1.715,3.832
51987730,-1.022,0.061,0.122,-0.7,0.472,4.41
51987730,-1.052,0.065,0.113,-1.085,-1.995,3.482
51987750,-1.053,0.074,0.115,-0.945,-5.46,0.735
51987750,-1.055,0.076,0.116,-1.697,-8.977,-3.255
51987760,-1.031,0.068,0.118,-2.31,-12.04,-7.262
51987770,-0.992,0.059,0.136,-2.485,-13.265,-8.977
51987780,-0.978,0.048,0.165,-3.045,-12.337,-8.417
51987790,-0.925,0.024,0.202,-3.675,-7.857,-6.09
51987800,-0.914,0.011,0.166,-4.165,0.822,-0.262
51987810,-0.968,0.037,0.148,-4.112,4.707,6.807
51987820,-1.043,0.058,0.112,-4.987,4.182,10.027
51987830,-1.077,0.066,0.094,-5.022,0.665,8.295
51987840,-1.074,0.073,0.094,-3.64,-4.287,3.78
51987850,-1.066,0.073,0.108,-2.415,-9.555,-1.75
51987860,-1.033,0.067,0.133,-1.54,-13.597,-6.282
51987870,-0.981,0.057,0.171,-1.347,-14.105,-8.4
51987880,-0.954,0.038,0.166,-2.327,-10.307,-8.032
51987890,-0.925,0.018,0.17,-1.872,-5.775,-4.952
51987900,-0.91,0.014,0.18,0.052,1.207,1.312
51987910,-0.945,0.026,0.161,1.33,7.875,8.4
51987920,-1.003,0.054,0.12,2.257,11.042,12.827
51987930,-1.062,0.07,0.105,2.415,8.487,12.582
51987940,-1.09,0.067,0.101,2.152,4.007,8.977
51987950,-1.085,0.078,0.096,3.465,-1.435,3.797
51987960,-1.054,0.074,0.121,2.73,-7.35,-1.295
51987970,-1.023,0.047,0.117,2.345,-9.8,-5.232
51987980,-0.989,0.041,0.134,3.115,-11.007,-5.67
51987990,-0.967,0.038,0.147,4.007,-10.185,-4.147
51988000,-0.989,0.053,0.155,3.832,-9.152,-1.382
51988010,-0.982,0.054,0.162,2.292,-7.7,0.595
51988020,-1.007,0.053,0.136,1.89,-4.795,1.54
51988030,-0.991,0.057,0.138,1.05,-6.492,2.082
51988040,-1.011,0.064,0.134,0.892,-7.857,2.415
51988050,-1.028,0.093,0.161,-0.14,-10.517,0.962
51988060,-1.01,0.104,0.208,-3.5,-9.502,-3.395
51988070,-1.004,0.076,0.175,-7.612,-2.835,-7.787
51988080,-1.003,0.063,0.162,-7.14,0.717,-9.87
51988080,-0.975,0.054,0.154,-5.232,1.067,-10.85
51988100,-0.982,0.038,0.137,-4.655,1.277,-9.905
51988100,-0.99,0.034,0.128,-3.465,1.067,-7.997
51988120,-1.007,0.033,0.118,-3.167,0.595,-6.562
51988120,-1.018,0.02,0.107,-2.887,-1.295,-5.705
51988140,-1.026,0.016,0.113,-2.03,-4.182,-4.235
51988140,-1.032,0.023,0.121,-0.945,-7.542,-2.642
51988160,-1.025,0.037,0.131,-0.262,-10.342,-2.275
51988160,-1.021,0.042,0.138,-0.507,-11.83,-2.905
51988170,-1.018,0.044,0.138,-0.77,-12.442,-3.937
51988180,-1.003,0.047,0.152,-1.155,-12.792,-4.76
51988190,-0.972,0.039,0.211,-1.907,-11.917,-4.69
51988200,-0.923,-0.002,0.192,-3.587,-5.057,-2.537
51988210,-0.935,0.008,0.169,-2.922,0.787,3.272
51988220,-0.987,0.046,0.171,-3.797,1.505,8.68
51988230,-1.029,0.048,0.136,-4.357,2.607,9.31
51988240,-1.03,0.06,0.136,-3.78,2.135,7.052
51988250,-1.039,0.063,0.138,-3.307,0.735,3.605
51988260,-1.039,0.046,0.119,-3.325,-0.945,0.455
51988270,-1.022,0.042,0.135,-1.977,-4.445,-1.68
51988280,-1.011,0.038,0.145,-1.137,-6.387,-3.255
51988290,-0.98,0.025,0.147,-0.28,-6.51,-3.902
51988300,-0.968,0.013,0.149,0.612,-4.777,-1.557
51988310,-0.965,0.02,0.163,2.117,-2.642,2.152
51988320,-0.978,0.028,0.151,2.87,0.262,5.425
51988330,-1.01,0.038,0.13,3.325,0.367,7.315
51988340,-1.055,0.058,0.127,4.077,-3.202,6.72
51988350,-1.05,0.059,0.145,3.36,-7.017,3.202
51988360,-1.028,0.055,0.154,2.712,-7.875,0.035
51988370,-0.983,0.052,0.184,0.98,-7.595,-1.365
51988380,-0.98,0.04,0.172,-0.927,-3.465,-1.26
51988390,-0.957,0.047,0.187,-2.135,-0.875,0.122
51988400,-0.972,0.04,0.157,-3.447,2.87,1.662
51988410,-0.995,0.049,0.146,-3.5,3.832,3.167
51988420,-1.035,0.062,0.142,-3.202,3.395,3.097
51988420,-1.045,0.057,0.137,-2.66,1.977,0.385
51988440,-1.03,0.049,0.143,-2.03,0.122,-2.94
51988440,-1.012,0.044,0.146,-1.347,-1.417,-5.232
51988460,-0.993,0.035,0.149,-1.487,-1.75,-5.862
51988460,-0.982,0.026,0.147,-1.557,-1.155,-4.567
51988480,-0.977,0.029,0.155,-1.732,-0.28,-2.292
51988480,-0.993,0.033,0.151,-2.432,0.332,-0.472
51988500,-0.994,0.042,0.136,-2.555,0,0.525
51988500,-1.037,0.032,0.132,-2.047,-1.277,1.312
51988510,-1.067,0.039,0.112,-2.502,-2.87,-0.14
51988520,-1.058,0.049,0.11,-0.91,-6.667,-3.342
51988530,-1.025,0.05,0.121,-0.035,-10.185,-6.545
51988540,-0.994,0.034,0.165,0,-11.392,-8.155
51988550,-0.95,0.001,0.177,-0.122,-8.05,-7.122
51988560,-0.932,0.011,0.192,0.35,-4.112,-2.835
51988570,-0.957,0.012,0.166,-1.417,-0.98,2.275
51988580,-0.986,0.024,0.155,-1.452,1.767,6.247
51988590,-1.021,0.047,0.147,-1.33,2.66,7.91
51988600,-1.041,0.054,0.14,-2.24,2.17,6.282
51988610,-1.033,0.047,0.128,-2.292,0.805,3.29
51988620,-1.02,0.045,0.142,-1.925,-1.417,0.717
51988630,-1.016,0.037,0.144,-2.082,-3.377,-1.102
51988640,-0.999,0.027,0.141,-1.697,-3.815,-1.837
51988650,-0.988,0.023,0.14,-0.98,-3.867,-0.91
51988660,-0.99,0.022,0.147,-0.28,-3.377,0.612
51988670,-0.963,0.018,0.161,-0.017,-2.24,2.555
51988680,-0.963,0.018,0.152,0.875,0.787,5.652
51988690,-1.001,0.034,0.137,2.17,1.942,8.487
51988700,-1.069,0.056,0.108,2.957,-0.035,8.382
51988710,-1.047,0.053,0.152,2.852,-4.865,4.812
51988720,-1.01,0.04,0.133,3.255,-3.815,1.942
51988730,-1.002,0.052,0.171,3.202,-4.445,1.19
51988740,-0.985,0.032,0.155,1.242,-1.61,0.892
51988750,-1,0.05,0.164,1.12,-1.12,2.24
51988760,-0.988,0.049,0.165,-1.015,-0.297,2.135
51988770,-1.005,0.038,0.141,-2.292,1.662,1.995
51988780,-1,0.043,0.142,-1.61,2.135,2.642
51988790,-1.004,0.042,0.145,-1.19,2.292,2.887
51988800,-1.023,0.042,0.129,-0.892,2.397,2.397
51988810,-1.026,0.043,0.128,-0.63,-0.157,1.312
51988820,-1.018,0.048,0.138,-0.262,-2.45,0.227
51988830,-1.022,0.054,0.135,-0.577,-3.5,-0.892
51988830,-1.033,0.056,0.125,-0.98,-4.9,-2.66
51988850,-1.042,0.048,0.121,-1.085,-7.945,-5.005
51988850,-1.007,0.039,0.13,-0.455,-10.517,-7.052
51988870,-0.941,0,0.182,0.07,-8.697,-6.545
51988870,-0.918,0.002,0.159,2.485,-2.327,-1.155
51988890,-0.977,0.05,0.174,2.205,-1.085,5.285
51988890,-1.042,0.039,0.132,-2.012,-0.822,6.772
51988910,-1.04,0.042,0.135,-1.785,-2.135,5.46
51988910,-1.026,0.055,0.144,-0.595,-3.01,3.097
51988920,-1.024,0.047,0.136,-1.417,-4.182,0.612
51988930,-1.011,0.044,0.143,-1.33,-5.915,-0.735
51988940,-0.987,0.04,0.162,-1.452,-6.51,-1.295
51988950,-0.977,0.03,0.157,-1.715,-4.567,-1.05
51988960,-0.991,0.034,0.144,-1.68,-2.45,0.822
51988970,-1.021,0.039,0.131,-1.032,-2.415,2.187
51988980,-1.007,0.038,0.146,-0.052,-3.692,1.61
51988990,-0.966,0.029,0.174,0.77,-2.8,1.382
51989000,-0.958,0.022,0.177,0.245,1.417,3.902
51989010,-0.987,0.037,0.155,-0.787,3.727,7.262
51989020,-1.044,0.065,0.109,-1.4,2.782,8.295
51989030,-1.07,0.057,0.118,-2.082,-2.117,5.53
51989040,-1.032,0.052,0.132,-1.015,-4.742,1.995
51989050,-1.017,0.058,0.177,-1.242,-6.107,-0.297
51989060,-0.995,0.042,0.167,-3.727,-3.85,-2.17
51989070,-0.98,0.047,0.172,-4.69,-2.327,-2.03
51989080,-0.99,0.048,0.156,-5.722,-0.857,-1.505
51989090,-0.987,0.036,0.149,-5.425,-0.017,-1.207
51989100,-0.995,0.035,0.123,-3.272,2.222,0.332
51989110,-1.041,0.046,0.101,-1.662,1.102,1.47
51989120,-1.048,0.034,0.104,-0.805,-2.607,-0.315
51989130,-1.026,0.033,0.122,1.47,-6.755,-2.24
51989140,-1.022,0.032,0.127,2.992,-9.432,-3.08
51989150,-1.014,0.033,0.12,3.325,-11.445,-3.517
51989160,-1.006,0.042,0.13,4.34,-12.53,-2.975
51989170,-1.004,0.055,0.145,4.182,-13.772,-2.485
51989170,-0.99,0.054,0.156,3.237,-13.265,-3.325
51989190,-0.974,0.037,0.191,2.397,-10.92,-3.972
51989190,-0.932,0.019,0.206,2.45,-6.212,-2.397
51989210,-0.935,0.024,0.197,2.485,-1.085,2.012
51989210,-0.983,0.048,0.177,0.945,1.627,6.177
51989230,-1.028,0.046,0.16,-1.697,2.187,6.965
51989230,-0.989,0.052,0.163,-1.61,3.885,5.495
51989250,-1.005,0.057,0.162,-1.82,5.162,4.532
51989250,-1.024,0.05,0.135,-3.5,3.78,3.447
51989260,-1.047,0.051,0.133,-3.552,0.647,2.52
51989270,-1.046,0.036,0.129,-4.742,-2.607,0.49
51989280,-1.012,0.026,0.136,-4.007,-4.375,-1.785
51989290,-0.998,0.024,0.14,-3.237,-5.425,-1.522
51989300,-1.008,0.025,0.128,-2.52,-5.897,0.087
51989310,-1.009,0.031,0.138,-1.522,-7.98,0.857
51989320,-0.977,0.026,0.162,0.262,-7.98,1.015
51989330,-0.926,0.016,0.185,1.662,-4.2,3.307
51989340,-0.94,0.011,0.171,2.31,1.977,8.557
51989350,-0.998,0.032,0.139,2.94,4.83,13.825
51989360,-1.079,0.066,0.103,4.69,2.555,14.91
51989370,-1.129,0.08,0.106,4.62,-5.127,10.027
51989380,-1.09,0.069,0.116,4.725,-11.847,1.872
51989390,-1.018,0.055,0.143,3.675,-16.537,-4.27
51989400,-0.961,0.036,0.207,2.432,-16.467,-4.9
51989410,-0.887,0.029,0.2,2.03,-8.05,-0.805
51989420,-0.933,0.06,0.186,2.012,-1.26,5.862
51989430,-1.007,0.053,0.156,-1.347,-0.297,7.91
51989440,-1.039,0.057,0.138,-0.105,-0.612,5.88
51989450,-1.028,0.068,0.153,0.822,-3.342,4.182
51989460,-1.028,0.057,0.16,0.367,-4.497,2.572
51989470,-0.991,0.053,0.171,-0.14,-5.46,0.717
51989480,-0.962,0.049,0.17,-0.91,-4.235,0.262
51989490,-0.991,0.053,0.154,-2.047,-3.027,2.17
51989500,-1.033,0.07,0.144,-2.695,-3.552,2.625
51989510,-1.065,0.079,0.131,-3.325,-6.3,-0.647
51989520,-1.058,0.076,0.13,-3.64,-10.587,-5.337
51989530,-1.037,0.06,0.174,-4.042,-14.805,-9.222
51989540,-0.958,0.015,0.185,-4.322,-12.495,-11.462
51989550,-0.892,0.027,0.207,-1.575,-6.667,-8.242
51989560,-0.942,0.034,0.192,-3.132,-1.417,-2.012
51989570,-1.002,0.032,0.159,-4.777,1.977,2.45
51989580,-0.999,0.052,0.167,-3.605,2.677,3.447
51989580,-1.008,0.045,0.156,-5.005,2.415,3.08
51989590,-1.029,0.043,0.149,-4.97,1.89,2.87
51989600,-1.028,0.057,0.175,-4.462,0.297,1.942
51989610,-0.997,0.057,0.17,-4.445,1.032,-0.612
51989620,-0.963,0.052,0.187,-4.585,2.275,-1.575
51989630,-0.962,0.038,0.183,-4.41,5.6,-0.367
51989640,-0.949,0.037,0.192,-3.43,8.715,2.065
51989650,-0.955,0.037,0.197,-3.255,13.335,4.917
51989660,-0.961,0.03,0.177,-3.587,18.217,7.577
51989670,-0.979,0.033,0.136,-3.15,21.157,10.15
51989680,-1.025,0.045,0.104,-2.205,21.105,11.777
51989690,-1.089,0.055,0.043,-1.33,16.992,10.972
51989700,-1.114,0.056,0.075,-0.262,8.592,7.437
51989710,-1.085,0.066,0.1,2.117,2.117,2.695
51989720,-1.068,0.067,0.119,1.662,-3.342,-2.012
51989730,-1.022,0.047,0.123,0.7,-7.385,-6.457
51989740,-0.955,0.04,0.184,1.12,-8.715,-6.685
51989750,-0.894,0.023,0.187,0.262,-2.03,-2.73
51989760,-0.932,0.041,0.173,-0.472,5.827,4.2
51989770,-1.01,0.054,0.133,-2.817,8.925,8.995
51989780,-1.044,0.072,0.121,-2.345,7.91,8.767
51989790,-1.051,0.073,0.11,-2.835,5.337,5.005
51989800,-1.047,0.065,0.106,-2.695,2.59,0.805
51989810,-1.04,0.061,0.105,-2.012,-0.787,-1.872
51989820,-1.053,0.058,0.105,-1.662,-4.235,-3.902
51989830,-1.047,0.06,0.111,-1.382,-9.012,-6.755
51989840,-1.032,0.059,0.121,-1.382,-12.81,-9.66
51989850,-1.015,0.058,0.143,-2.135,-15.172,-11.602
51989860,-0.975,0.031,0.151,-2.52,-13.142,-11.987
51989870,-0.926,0.018,0.159,-1.68,-9.677,-9.45
51989880,-0.954,0.023,0.157,-1.627,-6.877,-3.99
51989890,-1.008,0.034,0.14,-2.467,-5.617,0.052
51989900,-1.021,0.047,0.144,-2.957,-5.74,0.98
51989910,-1.018,0.048,0.131,-3.43,-5.442,-0.122
51989920,-1.032,0.044,0.105,-3.832,-7.297,-1.277
51989920,-1.008,0.041,0.122,-3.15,-11.287,-2.047
51989940,-1.01,0.035,0.137,-2.327,-13.93,-1.767
51989940,-1,0.03,0.152,-1.715,-14.63,-1.575
51989960,-0.973,0.029,0.171,-0.997,-12.775,-1.172
51989960,-0.953,0.023,0.18,-0.21,-8.207,0.647
51989980,-0.926,0.023,0.188,0.56,-1.505,4.165
51989980,-0.93,0.026,0.185,1.05,5.985,8.82
51990000,-0.973,0.034,0.154,0.752,11.497,13.387
51990000,-1.065,0.068,0.082,1.592,11.252,14.682
51990010,-1.097,0.084,0.137,1.592,3.307,10.255
51990020,-1.066,0.057,0.108,1.61,0.507,3.377
51990030,-1.015,0.05,0.12,2.03,-4.322,0.122
51990040,-1.037,0.037,0.113,1.662,-8.207,-0.577
51990050,-1.019,0.039,0.136,1.645,-13.317,-0.42
51990060,-0.942,0.026,0.199,1.47,-12.74,0.402
51990070,-0.926,0.013,0.173,0.612,-4.637,4.55
51990080,-0.992,0.057,0.141,-0.105,-1.575,10.692
51990090,-1.041,0.081,0.165,-2.065,-2.957,11.637
51990100,-1.023,0.073,0.151,-2.345,-0.245,8.12
51990110,-1.004,0.077,0.155,-2.572,0.297,4.48
51990120,-1.005,0.061,0.15,-3.535,0.962,1.907
51990130,-0.998,0.057,0.143,-2.712,1.662,1.54
51990140,-1.014,0.069,0.139,-2.485,1.4,1.435
51990150,-1.043,0.068,0.123,-3.255,-0.892,-0.787
51990160,-1.041,0.069,0.121,-3.185,-4.392,-3.587
51990170,-1.046,0.065,0.12,-3.01,-8.4,-6.527
51990180,-1.04,0.056,0.128,-2.782,-12.18,-9.537
51990190,-1.006,0.054,0.164,-1.89,-14.647,-11.83
51990200,-0.93,0.014,0.195,-3.185,-10.85,-10.972
51990210,-0.938,-0.004,0.145,-2.712,-4.462,-5.495
51990220,-0.984,0.028,0.142,-1.995,-4.795,1.032
51990230,-1.031,0.054,0.147,-1.365,-6.3,3.325
51990240,-1.033,0.06,0.147,-2.135,-6.51,2.205
51990250,-1.007,0.055,0.155,-2.52,-6.492,-0.595
51990260,-0.993,0.043,0.154,-3.395,-6.685,-1.592
51990260,-1.005,0.041,0.158,-3.64,-7.21,-0.612
51990280,-1.007,0.048,0.166,-3.167,-6.825,-0.385
51990280,-0.994,0.048,0.164,-3.097,-5.477,-1.592
51990300,-0.986,0.044,0.156,-3.255,-4.147,-1.767
51990300,-1.01,0.043,0.142,-3.395,-3.692,-0.735
51990320,-1.009,0.047,0.159,-2.8,-4.585,-0.717
51990320,-1.011,0.041,0.15,-2.31,-4.725,-1.732
51990330,-1.017,0.038,0.15,-1.977,-5.845,-2.432
51990340,-1.017,0.037,0.152,-0.98,-6.702,-2.905
51990350,-0.995,0.032,0.154,0.105,-6.842,-3.29
51990360,-0.966,0.02,0.164,1.207,-5.74,-2.292
51990370,-0.965,0.016,0.17,2.537,-3.202,0.822
51990380,-0.958,0.025,0.178,3.307,0.122,4.672
51990390,-0.967,0.028,0.175,3.412,3.43,7.875
51990400,-1.011,0.049,0.141,3.552,5.057,9.817
51990410,-1.049,0.073,0.143,3.745,2.52,8.872
51990420,-1.048,0.066,0.154,2.905,0.175,5.302
51990430,-1.014,0.048,0.137,2.082,-0.91,2.082
51990440,-1.025,0.045,0.136,2.065,-4.007,0.945
51990450,-1.023,0.044,0.146,1.89,-7.98,0.14
51990460,-1.005,0.049,0.164,2.432,-9.31,-0.875
51990470,-0.97,0.049,0.181,1.522,-8.54,-1.277
51990480,-0.983,0.039,0.154,0.227,-5.81,0.297
51990490,-1.008,0.046,0.159,0.052,-6.335,2.695
51990500,-1.011,0.053,0.164,0.017,-6.37,3.062
51990510,-1.024,0.06,0.154,-0.472,-6.755,1.312
51990520,-1.038,0.063,0.149,-1.26,-8.382,-1.207
51990530,-1.045,0.066,0.151,-1.12,-10.885,-4.375
51990540,-1.041,0.073,0.156,-1.627,-13.177,-7.962
51990550,-1.014,0.062,0.197,-3.185,-14.56,-11.392
51990560,-0.931,0.008,0.187,-4.147,-8.872,-12.355
51990570,-0.917,-0.001,0.186,-2.537,-4.077,-7.822
51990580,-0.943,0.02,0.184,-2.03,-3.307,-1.05
51990590,-1.017,0.025,0.151,-3.78,-3.08,3.412
51990600,-1.02,0.042,0.152,-2.975,-3.85,4.497
51990610,-1.028,0.056,0.158,-2.537,-5.635,2.94
51990620,-1.032,0.052,0.154,-3.797,-7.892,0.332
51990630,-1.017,0.047,0.177,-3.027,-9.905,-1.715
51990640,-0.987,0.04,0.189,-3.272,-10.377,-3.202
51990650,-0.958,0.034,0.187,-2.975,-8.19,-3.867
51990660,-0.958,0.027,0.179,-2.677,-5.285,-2.17
51990670,-0.968,0.025,0.168,-0.822,-2.94,0.735
51990670,-0.975,0.031,0.178,2.257,-0.805,2.747
51990690,-0.976,0.025,0.182,4.55,1.837,4.042
51990690,-0.994,0.024,0.174,6.09,4.06,5.67
51990710,-0.996,0.031,0.185,6.3,5.215,7.175
51990710,-1.002,0.026,0.16,5.757,6.72,8.295
51990730,-1.002,0.023,0.154,5.915,6.247,10.395
51990730,-1.053,0.039,0.092,7.07,3.482,11.83
51990750,-1.1,0.084,0.159,8.155,-6.72,9.222
51990750,-1.091,0.068,0.152,5.687,-11.252,2.257
51990760,-1.018,0.026,0.134,5.127,-12.18,-4.112
51990770,-0.95,0.026,0.179,6.51,-12.81,-4.2
51990780,-0.991,0.048,0.176,8.155,-11.025,-0.28
51990790,-0.972,0.074,0.234,6.737,-10.64,1.557
51990800,-0.971,0.057,0.198,4.235,-3.867,0.49
51990810,-0.953,0.052,0.191,1.225,-1.715,0.717
51990820,-0.969,0.063,0.198,1.505,-0.07,2.485
51990830,-1.014,0.073,0.188,-0.105,0.91,3.22
51990840,-1.013,0.075,0.185,-1.557,1.032,0.665
51990850,-1.013,0.064,0.171,-3.167,0.612,-2.485
51990860,-1.009,0.056,0.161,-3.64,-0.017,-4.462
51990870,-0.993,0.058,0.156,-3.185,-0.42,-5.687
51990880,-0.967,0.051,0.233,-3.43,0.437,-6.002
51990890,-0.946,0.008,0.191,-5.705,7.437,-4.2
51990900,-0.967,0.003,0.165,-6.3,9.275,0.455
51990910,-0.958,0.039,0.179,-7.14,6.72,5.827
51990920,-1.039,0.052,0.164,-6.107,8.977,8.347
51990930,-1.033,0.058,0.143,-6.335,8.067,6.685
51990940,-1.024,0.055,0.145,-5.11,5.775,2.887
51990950,-1.024,0.037,0.139,-5.25,3.22,1.137
51990960,-1.026,0.023,0.133,-3.01,1.347,0.507
51990970,-0.99,0.027,0.159,-0.805,-1.295,0.525
51990980,-0.978,0.019,0.16,1.33,0.035,1.925
51990990,-0.979,0.018,0.148,2.17,1.207,5.617
51991000,-1.009,0.032,0.136,3.762,1.522,9.17
51991010,-1.063,0.045,0.093,4.795,-1.592,10.01
51991010,-1.126,0.077,0.08,6.93,-12.635,6.685
51991030,-1.074,0.088,0.191,6.545,-23.887,-0.595
51991030,-1.017,0.058,0.167,4.987,-21.157,-7.42
51991050,-0.941,0.04,0.195,2.362,-20.93,-8.26
51991050,-0.907,0.037,0.218,2.012,-15.557,-4.2
51991070,-0.954,0.043,0.203,0.77,-9.152,1.435
51991070,-0.956,0.066,0.209,-0.122,-5.355,4.025
51991080,-1.009,0.07,0.178,-1.907,-1.172,3.797
51991090,-1.03,0.069,0.16,-3.272,-0.805,1.855
51991100,-1.022,0.076,0.173,-2.712,-1.96,-1.295
51991110,-1.006,0.066,0.183,-3.727,-2.765,-4.41
51991120,-0.963,0.039,0.212,-4.235,-0.997,-5.985
51991130,-0.915,0.02,0.21,-4.637,5.04,-3.78
51991140,-0.947,0.025,0.174,-5.32,11.025,1.785
51991150,-0.984,0.042,0.17,-6.597,11.935,6.65
51991160,-1.011,0.052,0.161,-6.44,13.492,8.382
51991170,-1.036,0.06,0.145,-6.125,13.3,7.42
51991180,-1.071,0.054,0.128,-6.405,9.555,4.865
51991190,-1.034,0.039,0.126,-5.11,3.972,1.347
51991200,-0.99,0.034,0.15,-2.275,1.225,-0.227
51991210,-0.98,0.035,0.16,-0.105,1.295,0.507
51991220,-0.975,0.028,0.147,0.735,2.677,2.677
51991230,-0.996,0.024,0.132,1.33,2.082,6.107
51991240,-1.037,0.035,0.119,2.1,-0.892,8.732
51991250,-1.072,0.05,0.115,2.975,-6.527,8.487
51991260,-1.105,0.054,0.077,3.43,-14.105,5.6
51991270,-1.12,0.067,0.11,5.232,-27.02,-0.017
51991280,-1.032,0.068,0.161,6.072,-33.477,-6.09
51991290,-0.98,0.058,0.172,5.985,-32.287,-9.327
51991300,-0.934,0.041,0.195,3.5,-29.085,-8.347
51991310,-0.942,0.041,0.222,4.672,-22.627,-5.232
51991320,-0.93,0.062,0.242,3.972,-16.747,-1.365
51991330,-0.953,0.071,0.233,2.362,-10.08,0.612
51991340,-0.989,0.07,0.202,-0.385,-4.707,0.752
51991350,-0.989,0.07,0.195,-1.207,-2.59,-0.192
51991360,-0.999,0.065,0.19,-2.222,-1.225,-1.417
51991370,-1.005,0.055,0.19,-3.15,-0.647,-2.922
51991380,-0.978,0.055,0.199,-2.537,0.77,-4.06
51991390,-0.961,0.042,0.209,-3.447,3.43,-3.85
51991400,-0.939,0.029,0.207,-3.955,7.56,-1.417
51991410,-0.946,0.04,0.208,-4.637,12.005,3.115
51991420,-0.985,0.048,0.188,-7.122,15.907,6.632
51991420,-1.03,0.057,0.158,-8.487,16.66,7.455
51991440,-1.025,0.055,0.157,-8.977,13.09,5.547
51991440,-0.983,0.061,0.193,-7.665,11.48,3.552
51991460,-1.039,0.053,0.152,-7.805,12.53,2.975
51991460,-1.029,0.024,0.118,-8.295,8.75,1.242
51991480,-0.97,0.017,0.143,-4.567,5.337,1.33
51991480,-0.99,0.027,0.145,-1.312,6.3,4.305
51991500,-1.035,0.032,0.115,0.105,5.775,5.862
51991500,-1.064,0.026,0.085,2.1,1.155,5.827
51991510,-1.098,0.027,0.064,5.88,-8.137,5.512
51991520,-1.132,0.039,0.053,10.237,-21.07,3.15
51991530,-1.068,0.044,0.102,13.79,-34.107,-2.502
51991540,-0.982,0.039,0.146,15.96,-35.175,-6.02
51991550,-0.95,0.06,0.202,17.605,-29.19,-4.55
51991560,-0.901,0.071,0.232,16.572,-17.815,-2.012
51991570,-0.902,0.067,0.254,13.44,-8.085,1.785
51991580,-0.921,0.091,0.268,12.092,1.242,5.617
51991590,-0.981,0.113,0.26,7.525,8.645,6.335
51991600,-1.016,0.108,0.218,1.417,10.78,2.66
51991610,-0.968,0.082,0.213,-1.487,11.9,-2.17
51991620,-0.931,0.054,0.215,-2.537,16.905,-3.027
51991630,-0.967,0.045,0.195,-3.097,21.892,-0.227
51991640,-1.021,0.049,0.16,-5.285,22.085,2.625
51991650,-1.019,0.055,0.172,-6.335,17.832,2.747
51991660,-1.005,0.054,0.184,-7.297,16.152,1.592
51991670,-1.031,0.04,0.123,-9.537,15.347,0.98
51991680,-0.998,0.024,0.117,-10.36,10.657,1.19
51991690,-0.992,0.035,0.135,-8.435,8.627,3.797
51991700,-1.034,0.056,0.146,-7.472,9.1,5.985
51991710,-1.045,0.048,0.127,-8.662,6.527,4.357
51991720,-0.998,0.04,0.111,-8.207,4.2,2.887
51991730,-1.02,0.033,0.098,-6.405,2.345,4.007
51991740,-0.981,0.034,0.103,-4.392,-0.14,5.757
51991750,-1.014,0.046,0.114,-0.77,-0.717,7.91
51991760,-1.052,0.054,0.106,-0.017,-3.605,8.435
51991760,-1.046,0.057,0.115,0.91,-8.487,6.965
51991780,-1.05,0.049,0.109,0.997,-13.3,5.337
51991780,-1.051,0.054,0.109,1.575,-18.252,3.885
51991800,-1.05,0.071,0.108,1.662,-22.89,1.715
51991800,-1.04,0.077,0.121,2.1,-27.265,-1.767
51991820,-1.01,0.071,0.139,3.43,-30.03,-5.442
51991820,-0.927,0.082,0.224,5.267,-28.647,-7.035
51991830,-0.966,0.072,0.21,4.357,-19.39,-5.74
51991840,-0.998,0.053,0.185,0.77,-16.135,-4.375
51991850,-0.932,0.058,0.218,1.75,-15.225,-3.22
51991860,-0.974,0.064,0.21,1.347,-9.94,-0.77
51991870,-0.977,0.072,0.196,-0.927,-5.39,0.122
51991880,-0.986,0.07,0.185,-2.065,-1.662,-0.297
51991890,-0.994,0.051,0.176,-3.587,-0.28,-0.507
51991900,-0.965,0.049,0.186,-3.062,1.47,0.682
51991910,-0.981,0.059,0.186,-3.237,3.605,2.73
51991920,-0.986,0.054,0.181,-5.39,5.39,3.517
51991930,-0.986,0.054,0.174,-5.74,7.28,4.217
51991940,-1.016,0.06,0.149,-6.422,8.557,5.495
51991950,-1.049,0.049,0.12,-6.545,5.302,4.707
51991960,-0.988,0.052,0.157,-5.425,0.07,3.727
51991970,-1.013,0.064,0.16,-3.202,-0.07,4.13
51991980,-1.049,0.056,0.137,-4.9,-1.855,3.447
51991990,-0.995,0.046,0.158,-4.445,-5.425,1.505
51992000,-0.959,0.048,0.179,-2.485,-4.585,2.52
51992010,-0.986,0.055,0.167,-2.45,-2.292,5.075
51992020,-1.02,0.06,0.153,-2.66,-1.732,6.16
51992030,-1.021,0.06,0.153,-2.415,-3.535,5.582
51992040,-0.998,0.058,0.167,-2.187,-4.69,5.075
51992050,-0.989,0.065,0.169,-1.925,-4.13,5.215
51992060,-1.009,0.069,0.151,-2.135,-3.92,5.32
51992070,-1.04,0.071,0.131,-2.327,-7.105,4.375
51992080,-1.025,0.076,0.16,-0.91,-11.357,1.872
51992090,-1.023,0.068,0.15,0.035,-12.705,-0.7
51992100,-1.006,0.076,0.173,1.26,-14.595,-2.66
51992110,-0.977,0.069,0.198,0.595,-13.965,-3.832
51992120,-0.97,0.054,0.193,-0.367,-9.905,-3.185
51992130,-0.963,0.056,0.19,-0.507,-6.86,-1.067
51992140,-0.984,0.063,0.181,-0.927,-4.637,1.032
51992150,-1.013,0.073,0.168,-1.26,-3.937,1.82
51992160,-1.002,0.081,0.182,-2.1,-5.04,0.735
51992170,-0.968,0.063,0.201,-4.252,-4.445,-0.647
51992170,-0.916,0.044,0.214,-4.97,0.035,0.595
51992190,-0.938,0.062,0.229,-3.902,7.157,5.775
51992190,-0.99,0.064,0.189,-6.317,13.317,9.065
51992210,-1.005,0.059,0.159,-6.09,15.61,9.59
51992210,-1.022,0.065,0.145,-4.865,14.577,9.327
51992230,-1.036,0.082,0.142,-4.34,11.97,8.417
51992230,-1.047,0.077,0.135,-5.25,7.84,5.827
51992250,-1.006,0.065,0.153,-4.462,5.092,2.887
51992250,-0.977,0.058,0.172,-3.605,4.375,2.415
51992260,-0.975,0.049,0.165,-2.975,6.702,3.955
51992270,-0.996,0.059,0.151,-2.292,8.347,6.457
51992280,-1.028,0.071,0.135,-2.485,7.962,7.945
51992290,-1.044,0.073,0.124,-3.045,4.847,6.93
51992300,-1.043,0.083,0.125,-2.537,1.207,5.232
51992310,-1.052,0.086,0.134,-3.202,-3.377,2.835
51992320,-0.976,0.067,0.158,-3.535,-5.775,0.035
51992330,-0.974,0.077,0.17,-1.925,-4.042,0.77
51992340,-1.031,0.083,0.144,-3.202,-3.01,1.645
51992350,-1.006,0.076,0.144,-2.87,-4.357,-0.35
51992360,-0.995,0.071,0.161,-1.312,-4.2,-1.452
51992370,-0.974,0.056,0.16,-1.277,-2.677,-1.19
51992380,-0.98,0.058,0.154,0.245,-0.087,0.857
51992390,-1.031,0.066,0.132,0.892,-0.122,2.817
51992400,-1.046,0.08,0.131,2.1,-2.922,2.065
51992410,-1.032,0.081,0.137,2.677,-6.597,-0.665
51992420,-1.014,0.078,0.144,2.922,-9.31,-3.255
51992430,-0.989,0.076,0.167,2.817,-10.377,-4.34
51992440,-0.984,0.072,0.165,2.397,-8.907,-4.182
51992450,-0.997,0.069,0.158,1.4,-8.697,-3.622
51992460,-1.019,0.069,0.15,1.715,-9.502,-3.64
51992470,-0.978,0.084,0.183,1.505,-10.535,-4.13
51992480,-1.019,0.073,0.151,0.192,-8.102,-4.602
51992490,-1.002,0.062,0.154,-0.7,-9.52,-5.18
51992500,-0.955,0.071,0.2,0.455,-8.732,-4.987
51992510,-0.961,0.059,0.192,-1.697,-4.112,-3.097
51992510,-0.959,0.054,0.185,-2.45,0.192,-0.717
51992530,-0.965,0.064,0.196,-2.59,4.322,1.995
51992530,-0.954,0.05,0.167,-3.902,9.047,4.672
51992550,-0.988,0.063,0.161,-3.22,11.147,7.927
51992550,-1.041,0.083,0.139,-3.867,10.92,8.802
51992570,-1.051,0.078,0.124,-4.165,8.102,5.81
51992570,-1.034,0.073,0.134,-3.815,3.29,2.45
51992580,-1.019,0.062,0.129,-3.15,-0.21,0.437
51992590,-0.985,0.062,0.159,-2.012,-2.012,0.262
51992600,-0.994,0.059,0.155,-0.98,-0.07,1.382
51992610,-1.006,0.057,0.144,-0.735,0.122,2.555
51992620,-1.025,0.06,0.135,0.017,-0.437,3.08
51992630,-1.011,0.062,0.134,1.155,-2.065,3.115
51992640,-1.071,0.089,0.102,2.87,-4.777,2.817
51992650,-1.136,0.092,0.101,1.697,-14.525,-2.047
51992660,-0.964,0.061,0.17,2.817,-20.842,-8.907
51992670,-0.904,0.04,0.195,4.322,-16.957,-7.525
51992680,-0.97,0.049,0.178,3.237,-11.935,-1.575
51992690,-0.992,0.066,0.168,2.852,-9.765,1.75
51992700,-1.012,0.082,0.164,2.502,-8.837,2.555
51992710,-1.016,0.092,0.171,1.12,-9.537,0.822
51992720,-0.978,0.079,0.182,-0.437,-7.42,-1.785
51992730,-0.951,0.067,0.196,-0.962,-3.745,-1.4
51992740,-0.961,0.068,0.193,-2.415,0.087,0.927
51992750,-0.986,0.073,0.183,-3.237,3.097,2.065
51992760,-1.003,0.079,0.164,-4.147,4.952,2.03
51992770,-1.021,0.082,0.148,-4.655,4.497,0.945
51992780,-1.032,0.092,0.142,-4.882,2.362,-1.207
51992790,-1.027,0.091,0.156,-5.005,-0.35,-4.532
51992800,-0.973,0.061,0.188,-5.67,-0.63,-7.437
51992810,-0.906,0.027,0.208,-5.442,4.462,-6.247
51992820,-0.922,0.039,0.196,-4.917,12.145,0.315
51992830,-0.999,0.063,0.154,-6.317,16.397,6.597
51992840,-1.063,0.097,0.171,-7.262,15.032,7.84
51992850,-1.018,0.087,0.133,-6.212,10.255,4.007
51992860,-1.018,0.063,0.131,-9.065,9.52,-0.105
51992870,-1.028,0.048,0.111,-8.4,7.805,-1.067
51992880,-1.026,0.06,0.121,-5.932,4.375,-1.19
51992890,-1.021,0.055,0.118,-5.285,2.047,-2.117
51992900,-0.995,0.041,0.123,-3.167,0.77,-2.555
51992910,-0.967,0.034,0.141,-1.575,1.557,-0.35
51992920,-0.977,0.034,0.153,-0.385,3.71,3.71
51992920,-0.997,0.052,0.126,0.157,4.427,7.297
51992940,-1.069,0.081,0.087,0.122,2.695,8.155
51992940,-1.133,0.092,0.083,-0.262,-4.655,3.955
51992950,-1.05,0.077,0.115,0.997,-12.407,-3.36
51992960,-0.98,0.062,0.154,2.38,-14.927,-7.017
51992970,-0.972,0.05,0.145,1.89,-13.632,-5.775
51992980,-0.983,0.057,0.163,1.872,-12.722,-2.992
51992990,-0.986,0.059,0.157,1.452,-10.92,-1.802
51993000,-0.978,0.063,0.17,0.735,-9.327,-1.225
51993010,-0.97,0.063,0.165,0.227,-6.09,0.035
51993020,-0.993,0.07,0.157,-0.507,-3.412,2.17
51993030,-1.019,0.067,0.145,-1.225,-3.08,2.52
51993040,-0.993,0.072,0.166,-1.225,-3.377,1.015
51993050,-0.983,0.068,0.163,-2.45,-2.1,0.052
51993060,-1.004,0.063,0.143,-3.132,-0.647,0.052
51993070,-1.011,0.077,0.143,-2.677,-1.435,-0.035
51993080,-1.037,0.087,0.135,-3.29,-2.835,-1.382
51993090,-1.042,0.078,0.147,-3.832,-5.337,-4.55
51993100,-0.953,0.031,0.184,-4.095,-4.112,-7.262
51993110,-0.877,0.018,0.186,-1.452,3.01,-3.587
51993120,-0.997,0.044,0.144,-1.785,7.7,4.917
51993130,-1.054,0.06,0.109,-3.517,5.985,7.682
51993140,-1.05,0.074,0.125,-2.222,1.61,5.652
51993150,-1.033,0.069,0.125,-2.327,-1.557,2.135
51993160,-1.01,0.065,0.143,-1.977,-3.307,-0.35
51993170,-1.008,0.056,0.142,-2.17,-4.427,-0.98
51993180,-0.984,0.052,0.155,-2.135,-4.987,-0.84
51993190,-0.983,0.051,0.155,-1.645,-3.517,0
51993200,-0.967,0.052,0.16,-1.155,-0.822,1.96
51993210,-0.98,0.05,0.157,-0.735,2.432,4.742
51993220,-1.005,0.055,0.136,-0.77,4.392,6.79
51993230,-1.06,0.077,0.117,-0.315,3.097,6.877
51993240,-1.086,0.075,0.098,-0.857,-2.047,3.307
51993250,-1.042,0.067,0.11,0.787,-8.137,-1.522
51993260,-1.011,0.059,0.142,2.187,-12.04,-4.252
51993260,-0.992,0.052,0.138,2.87,-12.67,-4.182
51993280,-1.018,0.064,0.143,2.817,-13.93,-2.747
51993280,-1.017,0.057,0.152,1.75,-15.207,-3.5
51993300,-0.961,0.047,0.166,1.662,-14.315,-4.077
51993300,-0.979,0.059,0.159,2.205,-11.917,-1.557
51993320,-1.021,0.071,0.149,1.242,-12.092,0.122
51993320,-1.005,0.07,0.168,1.19,-12.39,-1.015
51993330,-0.976,0.065,0.182,0.962,-10.552,-2.047
51993340,-0.971,0.061,0.183,-0.385,-7.49,-1.82
51993350,-0.963,0.059,0.184,-1.12,-4.252,-0.805
51993360,-0.978,0.063,0.174,-1.68,-0.98,0.84
51993370,-1.012,0.071,0.158,-2.38,0.297,1.452
51993380,-1.029,0.08,0.152,-2.87,-0.052,-0.017
51993390,-1.034,0.078,0.144,-3.762,-2.047,-2.94
51993400,-1.03,0.069,0.154,-4.235,-4.41,-6.212
51993410,-0.962,0.051,0.205,-4.27,-4.83,-8.4
51993420,-0.856,-0.012,0.192,-4.935,3.832,-5.425
51993430,-0.898,0.022,0.191,-2.03,11.69,5.582
51993440,-1.065,0.07,0.135,-4.655,13.667,13.545
51993450,-1.077,0.076,0.113,-5.355,10.517,10.57
51993460,-1.056,0.077,0.126,-3.867,5.582,4.987
51993470,-1.059,0.066,0.117,-3.15,1.697,-0.035
51993480,-1.024,0.058,0.131,-2.257,-2.257,-2.817
51993490,-1.007,0.047,0.144,-1.802,-5.18,-3.36
51993500,-0.99,0.041,0.153,-1.312,-5.792,-3.15
51993510,-0.987,0.042,0.153,-0.945,-5.425,-2.047
51993520,-1.004,0.044,0.137,-0.665,-4.48,0.105
51993530,-1.015,0.055,0.143,0.665,-5.25,1.435
51993540,-0.998,0.059,0.159,1.085,-5.425,1.015
51993550,-0.987,0.044,0.159,1.032,-4.147,0.91
51993560,-0.983,0.038,0.158,1.347,-2.537,2.625
51993570,-0.989,0.046,0.16,1.907,-1.312,4.777
51993580,-1.024,0.062,0.113,2.345,-0.787,6.02
51993590,-1.122,0.102,0.111,2.957,-8.032,4.217
51993600,-1.078,0.073,0.121,0.525,-15.942,-3.605
51993610,-0.957,0.048,0.175,2.52,-17.762,-8.68
51993620,-0.951,0.04,0.172,1.925,-15.417,-6.685
51993620,-0.987,0.043,0.173,1.505,-13.492,-3.01
51993640,-0.988,0.055,0.178,1.382,-12.18,-0.542
51993640,-0.966,0.051,0.192,0.665,-9.992,0.385
51993660,-0.96,0.054,0.176,0.35,-5.582,1.82
51993660,-1.005,0.07,0.172,-0.122,-3.43,3.605
51993670,-1.006,0.065,0.171,-1.33,-2.695,2.87
51993680,-0.995,0.06,0.174,-1.295,-1.89,1.312
51993690,-0.998,0.056,0.17,-1.732,-1.592,0.735
51993700,-1.007,0.057,0.16,-1.715,-1.155,0.84
51993710,-1.006,0.065,0.163,-1.4,-1.907,0.647
51993720,-0.999,0.067,0.168,-2.012,-2.24,-0.385
51993730,-0.991,0.063,0.169,-2.887,-1.995,-1.4
51993740,-1.004,0.059,0.164,-3.43,-1.242,-1.732
51993750,-1.013,0.058,0.158,-3.185,-1.715,-2.59
51993760,-1.008,0.059,0.157,-2.817,-2.642,-3.535
51993770,-1.012,0.052,0.15,-2.52,-4.007,-4.165
51993780,-1.012,0.045,0.15,-1.837,-5.285,-4.497
51993790,-0.977,0.031,0.191,-1.05,-6.107,-4.287
51993800,-0.885,-0.009,0.194,-1.277,-0.367,-1.172
51993810,-0.936,0.035,0.19,1.592,6.545,7.787
51993820,-1.101,0.077,0.134,-1.382,7,12.425
51993830,-1.091,0.077,0.123,-2.082,1.697,7.175
51993840,-1.032,0.071,0.14,-0.787,-3.272,0.945
51993850,-1.02,0.054,0.145,-0.227,-6.44,-2.502
51993860,-1.002,0.047,0.156,0.7,-7.857,-3.622
51993870,-0.969,0.04,0.181,1.347,-7.997,-2.992
51993880,-0.968,0.04,0.184,1.015,-5.6,-0.945
51993890,-0.986,0.05,0.173,0.472,-3.22,1.312
51993900,-1.007,0.061,0.161,-0.21,-1.977,2.922
51993910,-1.018,0.067,0.157,-0.63,-2.502,2.625
51993920,-1.017,0.068,0.16,-0.875,-3.395,0.49
51993930,-0.997,0.059,0.17,-1.172,-4.165,-1.872
51993940,-0.991,0.044,0.167,-1.522,-3.64,-2.485
51993950,-0.997,0.042,0.161,-0.98,-3.272,-1.715
51993960,-0.993,0.05,0.164,-0.315,-3.272,-0.455
51993970,-0.995,0.051,0.164,-0.245,-3.202,0.49
51993980,-0.99,0.048,0.169,-0.227,-2.677,1.102
51993990,-0.99,0.05,0.171,-0.035,-1.767,1.54
51994000,-0.988,0.049,0.176,-0.192,-0.56,2.24
51994010,-0.971,0.05,0.188,-0.49,1.487,3.22
51994010,-0.951,0.048,0.19,-0.595,5.6,5.145
51994030,-0.958,0.05,0.189,-0.612,10.517,8.312
51994030,-0.954,0.054,0.188,-0.787,15.732,11.182
51994050,-0.957,0.054,0.179,-1.05,21.402,13.457
51994050,-0.96,0.051,0.164,-1.575,26.39,15.627
51994070,-0.988,0.063,0.148,-1.225,29.715,17.92
51994070,-1.028,0.07,0.124,-1.68,30.38,18.48
51994080,-1.03,0.07,0.111,-1.575,28.56,17.22
51994090,-1.011,0.073,0.122,-0.297,26.792,15.942
51994100,-1.028,0.078,0.108,-0.857,25.585,15.347
51994110,-1.059,0.089,0.092,-1.61,21.805,13.615
51994120,-1.053,0.089,0.088,-2.31,16.537,10.185
51994130,-1.043,0.083,0.09,-2.695,11.375,7.192
51994140,-1.027,0.078,0.098,-1.96,8.225,5.477
51994150,-1.005,0.077,0.107,-1.61,6.37,4.865
51994160,-0.997,0.072,0.116,-1.68,6.177,5.337
51994170,-0.977,0.073,0.126,-1.365,7.857,6.562
51994180,-0.968,0.08,0.133,-1.487,11.777,8.715
51994190,-0.962,0.076,0.124,-2.485,16.45,10.937
51994200,-0.985,0.074,0.099,-2.432,21,13.72
51994210,-1.005,0.09,0.09,-1.925,22.207,15.855
51994220,-1.04,0.109,0.076,-1.732,21.437,15.697
51994230,-1.062,0.119,0.068,-1.977,18.637,12.39
51994240,-1.057,0.112,0.057,-2.38,14.717,7.56
51994250,-1.05,0.1,0.05,-2.152,10.237,3.85
51994260,-1.029,0.106,0.071,-1.19,5.512,1.54
51994270,-1.013,0.096,0.07,-1.592,3.29,-0.14
51994280,-1.016,0.089,0.067,-2.047,1.96,-0.42
51994290,-1.009,0.086,0.073,-1.645,0.385,-0.122
51994300,-1.003,0.084,0.073,-1.75,0.595,0.665
51994310,-1,0.09,0.074,-1.75,0.962,1.96
51994320,-1,0.094,0.074,-1.61,1.645,3.115
51994330,-1.013,0.094,0.069,-1.785,1.75,3.727
51994330,-1.009,0.098,0.076,-1.505,1.592,3.745
51994350,-1.015,0.1,0.076,-1.592,1.785,3.622
51994350,-1.01,0.102,0.073,-1.19,2.17,2.975
51994370,-1.016,0.098,0.064,-1.242,1.365,2.24
51994370,-1.011,0.094,0.061,-0.927,1.277,1.767
51994390,-1.014,0.098,0.064,-0.542,0.63,2.17
51994390,-1.006,0.104,0.075,-0.402,0.42,1.995
51994410,-1.01,0.098,0.067,-1.557,0.805,1.645
51994410,-1.02,0.095,0.059,-1.627,0.437,1.54
51994420,-1.015,0.099,0.064,-1.207,-0.822,1.505
51994430,-1.016,0.1,0.064,-0.892,-1.4,1.067
51994440,-1.014,0.098,0.062,-0.647,-1.575,0.647
51994450,-1.008,0.097,0.064,-0.437,-2.065,0.56
51994460,-1.011,0.098,0.069,-0.682,-2.415,0.735
51994470,-1.01,0.1,0.07,-1.155,-2.555,0.91
51994480,-1.011,0.097,0.067,-1.627,-2.065,0.945
51994490,-1.005,0.095,0.065,-1.505,-2.135,1.067
51994500,-1.002,0.099,0.073,-1.557,-2.1,1.645
51994510,-1.003,0.1,0.071,-1.662,-1.155,2.065
51994520,-1.01,0.1,0.067,-2.117,-0.472,2.345
51994530,-1.008,0.1,0.068,-2.152,-0.367,2.31
51994540,-1.012,0.1,0.064,-2.1,0.07,2.362
51994550,-1.024,0.109,0.068,-1.855,-0.28,2.187
51994560,-0.999,0.109,0.067,-1.592,-0.892,1.137
51994570,-1.011,0.087,0.057,-3.185,-0.525,0.56
51994580,-1.013,0.091,0.054,-2.467,-1.05,1.837
51994590,-1.023,0.105,0.058,-1.82,-2.502,2.24
51994600,-1.025,0.103,0.053,-1.995,-3.465,1.137
51994610,-1.021,0.104,0.054,-1.662,-5.302,-0.192
51994620,-1.011,0.099,0.06,-1.575,-6.807,-0.962
51994630,-1.001,0.092,0.066,-1.417,-7.647,-0.752
51994640,-0.988,0.091,0.075,-0.665,-6.965,0.49
51994650,-0.986,0.09,0.078,-0.192,-5.442,2.205
51994660,-0.996,0.092,0.073,0.227,-3.167,4.357
51994670,-1.012,0.098,0.06,0.805,-2.187,5.635
51994680,-1.002,0.1,0.055,0.49,-3.64,6.055
51994690,-1.027,0.112,0.069,1.382,-4.952,5.88
51994700,-1.036,0.119,0.068,1.382,-5.302,4.13
51994710,-1.029,0.116,0.066,0.49,-6.142,1.365
51994720,-1.01,0.106,0.071,-0.262,-6.825,-0.525
51994730,-1.004,0.102,0.073,-0.647,-6.842,-0.822
51994740,-0.993,0.099,0.076,-0.77,-6.02,-0.332
51994750,-0.994,0.096,0.081,-0.822,-4.637,0.752
51994760,-0.996,0.099,0.081,-0.56,-2.957,2.135
51994760,-0.999,0.104,0.082,-0.7,-1.365,3.185
51994780,-1.003,0.104,0.076,-1.067,0.21,3.815
51994780,-1.006,0.105,0.07,-1.155,1.102,4.287
51994800,-1.009,0.107,0.07,-0.857,1.277,4.462
51994800,-1.017,0.108,0.062,-0.752,1.4,4.06
51994820,-1.013,0.11,0.067,-0.665,0.472,3.185
51994820,-1.02,0.108,0.063,-0.927,-0.157,2.45
51994830,-1.011,0.109,0.069,-1.067,-1.067,1.89
51994840,-1.008,0.105,0.067,-1.505,-1.015,1.767
51994850,-1.002,0.105,0.07,-1.382,-0.98,2.03
51994860,-1.002,0.106,0.071,-1.19,-0.227,2.555
51994870,-0.999,0.104,0.068,-1.12,0.28,2.992
51994880,-1.021,0.11,0.061,-1.015,0.822,3.465
51994890,-1.015,0.112,0.063,-0.84,0.35,2.94
51994900,-1.012,0.109,0.063,-0.962,-0.087,2.362
51994910,-1.009,0.109,0.065,-0.84,-0.367,2.082
51994920,-1.005,0.108,0.062,-0.91,-0.052,2.292
51994930,-1.006,0.107,0.068,-0.612,-0.087,2.747
51994940,-0.999,0.106,0.067,-0.507,0.805,3.132
51994950,-0.994,0.108,0.074,-0.595,1.942,3.692
51994960,-0.985,0.105,0.07,-0.525,4.13,4.76
51994970,-1.018,0.117,0.059,-0.56,5.442,5.792
51994980,-1,0.118,0.066,-0.7,6.037,5.6
51994990,-1.014,0.111,0.052,-1.102,6.405,5.372
51995000,-1.007,0.115,0.061,-0.63,6.737,5.477
51995010,-0.999,0.113,0.049,-0.63,7.157,5.547
51995020,-1.006,0.118,0.062,-0.577,7.525,5.95
51995030,-1.007,0.119,0.052,-0.612,8.365,6.09
51995040,-1.012,0.121,0.041,-0.787,8.33,5.53
51995050,-1.022,0.121,0.042,-0.857,7.192,4.707
51995060,-1.021,0.122,0.035,-0.875,6.002,4.06
51995070,-1.016,0.122,0.041,-0.77,4.357,3.272
51995080,-1.025,0.12,0.031,-0.892,3.535,2.59
51995080,-1.01,0.122,0.041,-0.787,2.065,1.995
51995100,-1.007,0.115,0.04,-1.067,1.715,1.872
51995100,-1,0.114,0.041,-0.805,1.487,2.485
51995120,-1.022,0.124,0.038,-0.665,1.592,2.975
51995120,-1.004,0.124,0.043,-0.84,1.435,2.555
51995140,-1.007,0.116,0.037,-0.997,1.557,2.73
51995140,-1.011,0.125,0.037,-0.577,1.802,3.027
51995160,-0.999,0.119,0.038,-0.525,1.54,3.097
51995160,-1.022,0.126,0.033,-0.892,1.627,3.097
51995170,-1.012,0.13,0.038,-0.962,1.225,2.345
51995180,-1.012,0.12,0.029,-1.312,1.207,1.907
51995190,-1.012,0.126,0.033,-0.997,0.542,1.732
51995200,-1.012,0.126,0.033,-1.207,0.245,1.487
51995210,-1.011,0.122,0.032,-1.452,-0.157,1.155
51995220,-1.012,0.122,0.03,-1.4,-0.455,1.172
51995230,-0.998,0.12,0.034,-1.102,-1.067,1.242
51995240,-1.024,0.126,0.027,-1.365,-0.962,1.592
51995250,-1.013,0.132,0.039,-1.452,-1.68,1.032
51995260,-1.008,0.123,0.032,-1.872,-1.47,0.385
51995270,-1.009,0.122,0.033,-1.907,-1.627,0.28
51995280,-1.006,0.125,0.035,-1.645,-1.242,0.507
51995290,-0.999,0.12,0.037,-1.907,-1.155,0.682
51995300,-1.001,0.12,0.037,-1.855,-0.175,1.347
51995310,-1.004,0.124,0.037,-1.75,0.805,2.082
51995320,-1.006,0.128,0.038,-2.117,1.96,2.52
51995330,-1.011,0.123,0.029,-2.747,2.642,2.415
51995340,-1.016,0.119,0.014,-3.255,1.977,2.502
51995350,-1.023,0.124,0.017,-2.712,-0.192,2.485
51995360,-1.023,0.128,0.018,-2.397,-2.1,1.837
51995370,-1.025,0.131,0.018,-2.52,-4.322,0.717
51995380,-1.019,0.131,0.024,-2.94,-6.247,-0.245
51995390,-1.016,0.129,0.027,-3.99,-8.12,-1.032
51995400,-1.014,0.128,0.032,-4.97,-8.995,-1.47
51995410,-0.991,0.122,0.041,-5.127,-9.1,-1.855
51995420,-0.996,0.111,0.039,-5.337,-7.507,-1.085
51995430,-0.996,0.112,0.039,-4.41,-5.705,0.49
51995440,-0.991,0.121,0.047,-3.36,-3.867,2.17
51995450,-0.999,0.123,0.047,-2.922,-1.225,2.992
51995460,-1.006,0.126,0.04,-2.712,1.067,3.412
51995470,-1.014,0.131,0.031,-3.01,1.68,3.587
51995480,-1.011,0.129,0.03,-3.255,1.452,2.87
51995490,-1.017,0.125,0.025,-3.675,0.665,2.17
51995500,-1.014,0.128,0.033,-3.36,-0.087,1.75
51995510,-1.001,0.129,0.04,-3.465,-0.332,1.47
51995510,-0.998,0.123,0.038,-4.025,0.367,1.557
51995530,-0.997,0.125,0.039,-4.095,1.61,2.362
51995530,-0.994,0.13,0.045,-4.795,2.975,3.29
51995550,-0.983,0.134,0.055,-5.705,5.04,4.165
51995550,-1.011,0.148,0.052,-8.137,7.997,4.725
51995570,-0.992,0.155,0.058,-10.99,9.537,4.462
51995570,-1,0.143,0.058,-14.857,12.11,3.92
51995580,-0.99,0.13,0.039,-17.692,15.26,4.27
51995590,-0.985,0.138,0.039,-18.34,18.06,5.092
51995600,-0.991,0.13,0.031,-19.407,21.49,5.74
51995610,-0.998,0.112,0.022,-20.282,23.835,6.44
51995620,-1.012,0.114,0.005,-19.127,25.287,7.91
51995630,-1.003,0.122,-0.01,-15.977,25.095,8.137
51995640,-0.998,0.107,-0.027,-14.437,24.097,9.59
51995650,-1.064,0.118,-0.072,-11.392,21.717,11.042
51995660,-1.047,0.134,-0.064,-6.562,16.905,8.592
51995670,-1.054,0.141,-0.073,-4.847,9.712,6.247
51995680,-1.07,0.159,-0.07,-2.327,1.662,4.217
51995690,-1.05,0.158,-0.047,-1.54,-7.717,-0.315
51995700,-1.05,0.133,-0.043,-2.38,-14.402,-4.375
51995710,-1.016,0.136,-0.016,-1.557,-19.25,-6.562
51995720,-1.023,0.129,-0.009,-1.015,-21.35,-7.14
51995730,-0.99,0.123,0.011,-0.14,-21.14,-6.58
51995740,-0.977,0.123,0.023,-0.315,-18.952,-4.077
51995750,-0.989,0.125,0.018,-0.35,-15.662,-1.592
51995760,-0.989,0.133,0.023,-0.455,-12.845,0.612
51995770,-1.012,0.146,0.01,-0.962,-10.482,1.505
51995780,-1.011,0.143,0.012,-1.277,-10.01,-0.087
51995790,-1.015,0.138,0.006,-1.522,-10.045,-1.557
51995800,-1.042,0.152,-0.005,-2.065,-11.725,-2.222
51995810,-1.055,0.153,-0.013,-2.152,-16.082,-5.81
51995820,-1.031,0.134,0,-2.765,-20.825,-10.08
51995830,-1.043,0.132,0,-2.485,-24.587,-12.005
51995830,-1.03,0.128,0.007,-2.327,-27.86,-13.667
51995850,-1.009,0.113,0.027,-1.96,-29.96,-14.402
51995850,-0.988,0.1,0.035,-0.77,-29.26,-13.072
51995870,-0.985,0.097,0.044,0.717,-27.475,-10.115
51995870,-0.988,0.112,0.057,1.837,-25.322,-7.14
51995890,-1.018,0.126,0.051,1.47,-23.397,-5.967
51995890,-1.037,0.134,0.05,0.7,-22.89,-7.525
51995910,-1.044,0.132,0.036,-0.927,-24.622,-10.412
51995910,-1.03,0.131,0.052,-2.415,-28.42,-13.667
51995920,-1.034,0.125,0.05,-4.13,-30.555,-16.45
51995930,-1.024,0.274,0.165,-5.075,-33.18,-15.085
51995940,-1.085,-0.002,-0.034,-29.102,-40.775,6.965
51995950,-0.857,0.016,0.068,-16.187,-39.725,-8.54
51995960,-0.977,0.086,0.134,4.392,-26.705,-18.042
51995970,-0.937,0.065,0.109,-1.662,-22.82,-10.237
51995980,-0.965,0.083,0.121,4.252,-14.735,-5.6
51995990,-0.995,0.093,0.096,1.855,-11.007,-1.505
51996000,-1.015,0.101,0.095,3.395,-9.082,-1.575
51996010,-1.01,0.1,0.094,3.255,-8.82,-2.082
51996020,-1.018,0.093,0.095,4.06,-7.787,-2.257
51996030,-1.013,0.099,0.085,4.795,-7.945,-2.24
51996040,-1.024,0.107,0.085,6.142,-8.487,-3.57
51996050,-1.013,0.103,0.095,6.772,-10.167,-6.002
51996060,-1.017,0.094,0.1,6.545,-10.745,-7.577
51996070,-1.021,0.086,0.086,6.895,-10.955,-8.137
51996080,-1.019,0.08,0.084,8.137,-12.232,-8.067
51996090,-1.004,0.077,0.094,9.187,-14.087,-7.315
51996100,-0.996,0.081,0.102,10.57,-14.28,-6.16
51996110,-1.002,0.088,0.106,10.535,-14.7,-5.092
51996120,-1,0.095,0.118,9.415,-14.805,-4.672
51996130,-1.013,0.099,0.115,7.857,-14.402,-4.725
51996140,-1.033,0.088,0.1,5.547,-14.892,-5.46
51996150,-1.01,0.085,0.12,4.812,-17.08,-5.74
51996160,-1.023,0.093,0.116,4.795,-17.15,-5.337
51996170,-1.019,0.091,0.093,2.835,-18.462,-6.3
51996180,-1.009,0.086,0.114,1.522,-19.547,-7.717
51996190,-1.03,0.077,0.112,2.117,-21.385,-8.33
51996200,-1.013,0.079,0.104,3.342,-23.065,-8.645
51996210,-1.009,0.078,0.117,3.605,-23.66,-9.24
51996220,-1.017,0.075,0.118,3.902,-23.555,-10.22
51996230,-1.013,0.072,0.123,4.34,-23.572,-10.955
51996240,-0.98,0.071,0.148,4.567,-21,-10.675
51996250,-0.97,0.076,0.157,3.692,-17.517,-8.96
51996260,-0.971,0.082,0.185,2.1,-13.947,-7.262
51996260,-0.975,0.084,0.216,-0.227,-10.272,-6.44
51996280,-0.954,0.076,0.212,-1.89,-7.07,-6.93
51996280,-0.938,0.064,0.209,-2.327,-2.887,-6.457
51996300,-0.96,0.059,0.183,-2.117,0.612,-3.902
51996300,-0.979,0.057,0.154,-2.24,3.43,-1.487
51996310,-1.011,0.057,0.131,-1.032,4.322,-0.052
51996320,-1.037,0.066,0.119,0.665,2.87,-0.245
51996330,-1.054,0.065,0.105,1.347,-1.207,-2.275
51996340,-1.033,0.055,0.116,1.995,-5.95,-4.62
51996350,-1.016,0.048,0.131,2.87,-9.502,-5.232
51996360,-0.99,0.052,0.154,3.535,-10.255,-4.165
51996370,-0.991,0.056,0.163,2.905,-10.167,-2.782
51996380,-0.985,0.063,0.173,1.452,-8.995,-1.61
51996390,-0.993,0.066,0.168,0.717,-7.595,-1.032
51996400,-0.996,0.065,0.159,-0.735,-6.737,-0.717
51996410,-1,0.064,0.157,-0.595,-6.37,-0.927
51996420,-1.002,0.065,0.156,-0.367,-5.932,-1.33
51996430,-1,0.064,0.157,-0.402,-5.652,-1.96
51996440,-1.003,0.059,0.152,-0.49,-5.075,-2.38
51996450,-1.001,0.053,0.152,-0.42,-5.617,-2.467
51996460,-0.999,0.051,0.154,-0.262,-5.915,-2.03
51996470,-0.987,0.05,0.163,0.017,-5.827,-1.33
51996480,-0.981,0.05,0.168,0.07,-4.532,0.07
51996490,-0.981,0.052,0.164,-0.472,-3.167,1.557
51996500,-1.011,0.059,0.145,-1.067,-2.66,2.642
51996510,-1.024,0.064,0.154,-1.715,-4.935,2.327
51996520,-1.013,0.059,0.153,-2.205,-5.757,1.155
51996530,-1.022,0.068,0.151,-2.835,-7.402,0.105
51996540,-1.028,0.066,0.158,-4.025,-9.362,-1.26
51996550,-0.992,0.044,0.164,-4.112,-9.695,-2.835
51996560,-0.972,0.051,0.155,-2.24,-8.032,-1.767
51996570,-1.022,0.073,0.164,-1.837,-8.96,-0.437
51996580,-1.005,0.062,0.167,-3.255,-9.432,-1.907
51996580,-0.954,0.052,0.197,-2.45,-7.28,-2.8
51996600,-0.956,0.045,0.187,-2.415,-2.38,-1.19
51996600,-1.008,0.043,0.152,-1.995,0.315,1.347
51996620,-1.025,0.049,0.14,-0.227,-0.997,2.52
51996620,-1.046,0.053,0.127,1.137,-4.637,1.645
51996640,-1.047,0.055,0.118,2.415,-10.08,-0.507
51996640,-1.054,0.053,0.126,3.535,-16.835,-2.87
51996660,-1.016,0.047,0.16,3.85,-22.085,-4.322
51996660,-0.983,0.042,0.191,4.445,-22.435,-4.095
51996670,-0.909,0.041,0.216,3.657,-18.025,-1.61
51996680,-0.938,0.05,0.221,3.255,-11.042,2.765
51996690,-0.969,0.071,0.22,2.135,-6.387,5.845
51996700,-0.966,0.07,0.204,-0.367,-2.467,6.142
51996710,-0.98,0.061,0.185,-1.785,0.7,6.177
51996720,-0.985,0.064,0.191,-1.662,2.24,6.265
51996730,-1.004,0.07,0.189,-2.73,3.622,6.107
51996740,-1.012,0.071,0.185,-3.797,4.637,4.725
51996750,-0.991,0.067,0.173,-4.462,5.407,2.852
51996760,-0.989,0.055,0.167,-3.815,6.037,1.977
51996770,-0.996,0.049,0.161,-2.835,5.67,2.642
51996780,-1.002,0.048,0.16,-1.19,5.442,3.587
51996790,-1.023,0.05,0.152,-0.822,3.727,3.955
51996800,-1.032,0.055,0.149,-1.225,0.857,3.745
51996810,-1.045,0.059,0.144,-1.435,-2.922,2.922
51996820,-1.029,0.061,0.146,-1.05,-6.265,1.662
51996830,-1.043,0.072,0.144,-0.35,-10.08,0.227
51996840,-1.06,0.079,0.148,-1.015,-15.295,-2.712
51996850,-1.005,0.058,0.185,-1.522,-19.075,-6.685
51996860,-0.934,0.039,0.2,-1.312,-16.852,-7.157
51996870,-0.955,0.051,0.201,-1.137,-13.335,-3.342
51996880,-0.993,0.065,0.196,-2.397,-10.85,-0.472
51996890,-0.979,0.06,0.203,-2.992,-9.1,-0.42
51996900,-0.951,0.047,0.199,-2.712,-5.302,0.017
51996910,-0.97,0.052,0.195,-1.767,-1.802,2.117
51996920,-1.002,0.056,0.177,-1.365,0.437,3.605
51996930,-1.02,0.062,0.171,-0.017,0.227,3.185
51996940,-1.023,0.07,0.176,1.365,-0.682,1.347
51996950,-1.014,0.068,0.174,1.382,-2.292,-0.997
51996960,-1.006,0.063,0.178,0.822,-3.902,-2.502
51996970,-0.999,0.064,0.185,0.63,-4.532,-3.482
51996980,-0.972,0.043,0.199,0.525,-3.272,-4.252
51996980,-0.907,0.039,0.218,1.977,1.33,-2.152
51997000,-0.959,0.061,0.212,2.8,8.26,2.8
51997000,-1.032,0.066,0.177,-1.015,10.622,5.057
51997010,-0.99,0.071,0.183,-2.152,9.31,3.447
51997020,-0.993,0.061,0.178,-3.727,10.115,2.572
51997030,-1.016,0.054,0.153,-4.532,10.552,2.345
51997040,-1.003,0.055,0.161,-3.587,8.347,1.872
51997050,-0.987,0.05,0.169,-3.797,6.965,1.907
51997060,-1.008,0.044,0.15,-4.007,6.632,2.625
51997070,-1.011,0.046,0.15,-2.992,4.76,3.255
51997080,-1.005,0.053,0.165,-1.295,3.78,3.92
51997090,-1.007,0.054,0.159,-1.33,3.885,3.902
51997100,-1.023,0.056,0.142,-1.785,3.115,3.85
51997110,-1.071,0.068,0.118,-1.522,-0.28,3.132
51997120,-1.065,0.066,0.127,-0.962,-6.597,-0.245
51997130,-0.998,0.049,0.154,0.525,-11.217,-3.5
51997140,-1.005,0.053,0.153,1.942,-12.372,-3.01
51997150,-1.045,0.058,0.153,1.015,-15.312,-2.485
51997160,-1.001,0.04,0.164,0.192,-17.377,-3.78
51997170,-0.966,0.036,0.163,1.575,-17.622,-2.642
51997180,-0.988,0.054,0.184,1.767,-18.392,0.472
51997190,-0.966,0.063,0.209,0.525,-17.377,2.012
51997200,-0.935,0.065,0.224,0.017,-11.357,3.29
51997210,-0.94,0.073,0.226,-1.347,-4.55,4.672
51997220,-0.975,0.082,0.211,-2.835,1.907,5.267
51997230,-1.015,0.082,0.182,-3.36,5.652,3.71
51997240,-1.018,0.082,0.175,-3.465,6.002,1.085
51997250,-1.033,0.084,0.172,-3.797,4.742,-2.327
51997260,-1.023,0.074,0.162,-4.427,3.412,-5.967
51997270,-1.003,0.064,0.172,-3.885,1.837,-8.505
51997280,-0.965,0.05,0.202,-3.29,2.502,-9.432
51997290,-0.899,0.006,0.206,-3.5,8.417,-7.175
51997300,-0.928,0.016,0.174,-1.137,15.505,0.63
51997310,-1.029,0.056,0.158,-1.82,15.785,7.367
51997320,-1.075,0.067,0.143,-3.675,13.72,7
51997330,-1.051,0.073,0.145,-4.007,10.01,2.677
51997330,-1.022,0.066,0.145,-3.955,5.967,-1.557
51997350,-1.014,0.051,0.145,-5.127,3.36,-3.727
51997350,-1.01,0.04,0.149,-5.407,0.84,-3.535
51997370,-0.995,0.039,0.149,-4.13,-0.892,-3.22
51997370,-0.996,0.035,0.157,-3.727,-1.732,-2.432
51997390,-0.999,0.033,0.171,-2.905,-1.697,-0.945
51997390,-0.985,0.037,0.174,-2.467,-0.875,0.822
51997410,-1.008,0.038,0.153,-2.73,0.245,2.415
51997410,-1.039,0.062,0.093,-2.187,-0.682,2.73
51997420,-1.091,0.063,0.11,-1.907,-5.897,0.612
51997430,-1.063,0.035,0.099,-2.327,-11.725,-3.867
51997440,-1.002,0.056,0.151,1.26,-16.327,-6.387
51997450,-0.978,0.039,0.151,-1.242,-17.132,-6.475
51997460,-0.999,0.038,0.154,-0.49,-16.24,-4.847
51997470,-0.978,0.038,0.18,-0.07,-17.325,-3.377
51997480,-0.934,0.035,0.187,1.12,-13.912,-1.715
51997490,-0.98,0.053,0.187,1.837,-10.885,1.662
51997500,-0.987,0.055,0.19,0.717,-9.31,3.132
51997510,-0.959,0.069,0.211,1.4,-6.37,2.817
51997520,-0.994,0.069,0.203,0.052,-2.52,2.572
51997530,-0.993,0.051,0.179,-2.1,-0.7,1.452
51997540,-0.989,0.052,0.175,-0.7,0.525,1.26
51997550,-1.004,0.06,0.168,-0.77,0.577,1.592
51997560,-1.017,0.065,0.162,-1.067,0.437,0.385
51997570,-1.018,0.064,0.156,-1.505,-0.84,-1.925
51997580,-1.012,0.051,0.158,-1.382,-2.205,-4.217
51997590,-0.996,0.045,0.163,-0.56,-3.097,-5.18
51997600,-0.993,0.044,0.174,0.192,-2.187,-4.742
51997610,-0.977,0.03,0.218,0.227,-0.315,-3.745
51997620,-0.911,-0.009,0.198,-0.175,6.335,-0.875
51997630,-0.937,0.037,0.184,2.222,10.482,6.405
51997640,-1.042,0.062,0.154,-0.77,8.977,10.482
51997650,-1.042,0.048,0.147,-2.257,6.667,8.417
51997660,-1.018,0.058,0.153,-0.122,5.285,5.687
51997670,-1.042,0.057,0.138,-1.312,3.167,3.552
51997670,-1.043,0.048,0.128,-1.277,0.42,1.54
51997690,-1.016,0.05,0.149,-0.35,-3.132,-0.087
51997690,-1.009,0.047,0.156,-0.35,-4.83,-1.627
51997710,-1.002,0.041,0.148,0.052,-5.302,-2.415
51997710,-1.002,0.037,0.146,0.91,-5.6,-1.557
51997730,-0.999,0.035,0.16,1.732,-6.335,-0.455
51997730,-0.974,0.033,0.18,2.047,-5.74,0.595
51997750,-0.966,0.028,0.181,1.505,-3.412,3.062
51997750,-1.002,0.039,0.144,1.61,-1.417,5.915
51997760,-1.057,0.076,0.137,2.222,-4.235,5.915
51997770,-1.082,0.073,0.127,1.242,-9.187,1.732
51997780,-1.038,0.057,0.125,1.015,-13.125,-3.36
51997790,-1.014,0.053,0.156,1.487,-15.697,-6.23
51997800,-0.98,0.031,0.172,0.315,-15.137,-6.86
51997810,-0.966,0.024,0.19,1.487,-13.177,-4.62
51997820,-0.941,0.032,0.204,1.645,-11.217,-1.015
51997830,-0.95,0.047,0.202,1.19,-7.892,2.59
51997840,-0.984,0.056,0.178,0.367,-5.285,5.25
51997850,-1.01,0.061,0.167,-0.07,-5.355,5.81
51997860,-1.013,0.062,0.181,-0.035,-6.475,4.41
51997870,-1,0.06,0.19,-0.14,-6.912,2.38
51997880,-0.979,0.056,0.196,-0.822,-5.845,1.417
51997890,-0.987,0.058,0.186,-1.68,-4.252,1.575
51997900,-0.997,0.066,0.182,-2.73,-2.905,1.505
51997910,-1.016,0.064,0.168,-3.71,-2.73,0.525
51997920,-1.022,0.064,0.164,-3.762,-3.727,-1.312
51997930,-1.008,0.065,0.178,-2.817,-4.62,-3.937
51997940,-0.973,0.048,0.224,-2.502,-3.027,-5.705
51997950,-0.877,-0.017,0.245,-2.66,5.127,-3.692
51997960,-0.874,0.005,0.207,0.542,14.892,5.95
51997970,-1.019,0.059,0.169,0.035,15.89,15.155
51997980,-1.078,0.072,0.134,-2.012,12.915,14.857
51997990,-1.065,0.082,0.156,-1.907,8.4,9.327
51998000,-1.035,0.062,0.142,-2.782,5.53,3.097
51998010,-1.044,0.053,0.124,-2.677,2.957,-0.105
51998020,-1.027,0.052,0.131,-1.715,-1.172,-0.997
51998030,-1.029,0.048,0.146,-1.435,-4.515,-2.257
51998040,-1.011,0.038,0.148,-0.945,-5.95,-3.815
51998050,-0.99,0.031,0.154,0.14,-6.72,-3.132
51998060,-0.983,0.029,0.162,0.962,-6.09,-0.787
51998070,-0.985,0.035,0.171,1.05,-5.302,1.592
51998080,-0.984,0.042,0.18,0.577,-4.287,3.57
51998080,-0.998,0.053,0.17,-0.087,-3.78,5.075
51998100,-1.042,0.073,0.135,-0.437,-4.935,4.777
51998100,-1.091,0.089,0.128,0.087,-10.29,1.207
51998120,-1.053,0.07,0.148,-0.315,-16.555,-4.935
51998120,-0.969,0.056,0.175,0.035,-17.535,-9.222
51998140,-0.958,0.043,0.202,-0.805,-15.75,-9.047
51998140,-0.922,0.023,0.219,-1.68,-12.005,-6.352
51998160,-0.892,0.017,0.229,-0.507,-5.477,-0.192
51998160,-0.933,0.035,0.204,-1.015,1.785,7.157
51998170,-1.018,0.062,0.165,-2.275,5.022,11.62
51998180,-1.097,0.079,0.133,-3.342,2.52,10.132
51998190,-1.076,0.085,0.142,-3.762,-3.5,3.517
51998200,-1.049,0.074,0.159,-4.322,-7.84,-3.307
51998210,-1.023,0.052,0.164,-4.462,-10.045,-7.927
51998220,-0.975,0.041,0.198,-3.797,-10.85,-9.012
51998230,-0.922,0.012,0.215,-4.217,-8.225,-6.702
51998240,-0.907,0.012,0.205,-2.152,-2.292,-0.595
51998250,-0.984,0.039,0.175,-1.697,0.612,6.072
51998260,-1.032,0.052,0.156,-2.852,-0.42,8.137
51998270,-1.039,0.063,0.152,-2.327,-3.447,6.177
51998280,-1.057,0.06,0.153,-1.96,-7.087,2.905
51998290,-1.044,0.049,0.154,-1.697,-11.725,-0.63
51998300,-1.009,0.053,0.186,-0.052,-14.927,-3.01
51998310,-1,0.049,0.194,-0.315,-15.277,-3.85
51998320,-0.966,0.051,0.216,-0.262,-13.212,-3.902
51998330,-0.92,0.045,0.227,-0.332,-7.315,-2.555
51998340,-0.919,0.043,0.226,-0.962,0.455,1.067
51998350,-0.953,0.042,0.198,-1.802,6.387,5.11
51998360,-1.001,0.048,0.173,-0.77,9.345,7.77
51998370,-1.046,0.057,0.165,0.087,7.63,7.507
51998380,-1.063,0.06,0.161,-0.105,4.515,4.462
51998390,-1.023,0.055,0.168,0.175,1.732,0.525
51998400,-1.001,0.05,0.17,-0.122,0.21,-1.26
51998410,-1.003,0.045,0.17,0,-1.12,-1.295
51998420,-1.011,0.044,0.17,0.437,-2.397,-0.91
51998420,-0.992,0.048,0.186,0.98,-3.482,-0.962
51998440,-0.998,0.047,0.178,1.172,-2.24,-0.752
51998440,-1.008,0.047,0.172,1.085,-2.362,-0.735
51998460,-0.992,0.052,0.174,1.802,-2.345,-0.822
51998460,-1.021,0.048,0.165,1.837,-2.677,-1.032
51998480,-0.982,0.038,0.173,2.45,-3.745,-1.942
51998480,-0.966,0.038,0.174,4.2,-3.29,-0.787
51998500,-0.979,0.042,0.171,4.62,-3.657,1.54
51998500,-0.993,0.045,0.169,4.34,-5.232,3.465
51998510,-1.008,0.054,0.165,4.322,-5.652,4.41
51998520,-1.037,0.056,0.171,3.867,-6.737,3.342
51998530,-0.995,0.049,0.188,3.745,-8.277,0.892
51998540,-0.978,0.045,0.194,5.022,-6.965,0.612
51998550,-0.998,0.048,0.186,4.392,-6.597,2.1
51998560,-1.003,0.056,0.187,4.462,-6.265,2.747
51998570,-1.002,0.062,0.189,3.482,-6.195,2.292
51998580,-0.989,0.061,0.192,2.52,-5.687,1.225
51998590,-0.985,0.056,0.19,1.662,-5.162,0.752
51998600,-1.006,0.051,0.18,0.945,-4.795,1.067
51998610,-0.998,0.05,0.186,1.365,-5.617,0.962
51998620,-0.995,0.05,0.185,1.907,-5.88,0.857
51998630,-0.989,0.053,0.181,2.03,-5.792,1.085
51998640,-1.013,0.055,0.178,1.54,-5.67,1.4
51998650,-0.992,0.057,0.185,1.05,-6.195,0.98
51998660,-0.991,0.059,0.201,0.875,-6.44,0.7
51998670,-0.984,0.057,0.205,-0.665,-7.175,0.682
51998680,-0.977,0.057,0.206,-1.89,-7.07,1.067
51998690,-0.969,0.061,0.21,-3.255,-6.037,1.785
51998700,-0.961,0.061,0.208,-4.497,-3.605,2.467
51998710,-0.957,0.061,0.211,-5.617,-1.015,3.587
51998720,-0.966,0.062,0.206,-5.95,2.677,5.022
51998730,-0.993,0.067,0.217,-7.14,4.952,5.67
51998740,-1.007,0.071,0.202,-9.012,8.61,5.337
51998750,-1.06,0.044,0.157,-10.08,8.347,3.29
51998760,-0.999,0.04,0.151,-8.942,3.815,2.205
51998770,-1.047,0.042,0.13,-5.967,-0.052,2.327
51998780,-1.049,0.028,0.117,-7.035,-7.542,2.397
51998790,-1.029,0.039,0.14,-1.767,-14.822,1.557
51998800,-1.053,0.05,0.141,-0.245,-21.735,1.155
51998810,-1.053,0.051,0.178,1.522,-28.49,-1.312
51998820,-0.983,0.052,0.22,2.345,-30.1,-2.992
51998830,-0.983,0.042,0.209,1.697,-27.405,-1.907
51998830,-0.993,0.045,0.188,2.117,-25.795,0.262
51998850,-1.001,0.047,0.204,3.815,-25.445,1.575
51998850,-1.009,0.052,0.194,5.005,-25.725,2.03
51998870,-0.994,0.061,0.226,7.157,-28.997,0.297
51998870,-0.918,0.061,0.257,9.415,-27.09,-0.577
51998890,-0.922,0.069,0.29,11.602,-19.81,0.21
51998890,-0.905,0.097,0.3,8.662,-10.797,2.205
51998910,-0.989,0.079,0.236,2.625,-2.957,2.695
51998910,-1.002,0.052,0.212,-1.995,-2.887,1.627
51998920,-0.937,0.061,0.252,0.035,-2.537,1.33
51998930,-0.961,0.078,0.258,-0.175,1.295,2.45
51998940,-0.987,0.071,0.237,-2.87,3.797,2.17
51998950,-0.959,0.063,0.246,-2.8,4.952,1.347
51998960,-0.942,0.063,0.25,-3.447,7.892,2.292
51998970,-0.943,0.068,0.252,-4.795,12.46,3.955
51998980,-0.96,0.065,0.229,-6.545,17.78,5.53
51998990,-1.007,0.053,0.194,-8.575,19.057,6.247
51999000,-1.016,0.049,0.2,-8.435,16.572,5.967
51999010,-1.015,0.062,0.196,-7.647,15.155,6.142
51999020,-1.071,0.063,0.171,-8.697,12.022,5.057
51999030,-1.016,0.058,0.177,-9.555,6.02,2.415
51999040,-1.01,0.057,0.191,-7.997,2.852,1.085
51999050,-0.999,0.066,0.19,-8.05,0.717,0.945
51999060,-1.037,0.033,0.171,-7.402,-1.207,-0.35
51999070,-0.934,0.025,0.206,-4.007,-3.657,-0.14
51999080,-0.977,0.062,0.216,1.487,-0.052,3.867
51999090,-1.059,0.077,0.177,0,0.192,4.55
51999100,-1.049,0.067,0.171,0.577,-3.482,0.472
51999110,-1.044,0.06,0.168,1.662,-8.26,-2.817
51999120,-1.04,0.057,0.178,2.555,-12.88,-5.39
51999130,-1.001,0.058,0.19,2.73,-16.537,-7.157
51999140,-1.006,0.045,0.18,2.292,-18.97,-7.367
51999150,-0.996,0.032,0.193,3.43,-23.677,-7.227
51999160,-0.931,0.043,0.234,6.982,-24.307,-5.565
51999170,-0.984,0.056,0.225,9.275,-20.58,-2.922
51999170,-0.993,0.059,0.184,7.927,-19.442,-2.397
51999190,-0.924,0.066,0.24,6.247,-14.542,-2.502
51999190,-1.006,0.061,0.244,3.447,-9.222,0.035
51999210,-0.973,0.06,0.252,1.155,-8.312,-0.42
51999210,-0.921,0.066,0.28,0.805,-5.005,0
51999230,-0.957,0.067,0.286,-1.452,-0.49,1.802
51999230,-0.951,0.063,0.27,-2.835,3.097,2.852
51999250,-0.955,0.069,0.248,-3.5,6.615,3.832
51999250,-0.962,0.063,0.235,-3.832,9.712,4.2
51999260,-0.97,0.063,0.226,-3.447,12.302,4.497
51999270,-0.994,0.059,0.208,-3.027,13.457,4.567
51999280,-1.018,0.056,0.198,-2.66,11.812,4.147
51999290,-1.023,0.058,0.191,-1.942,8.907,2.887
51999300,-1.038,0.06,0.182,-1.172,5.652,1.12
51999310,-1.024,0.059,0.186,-0.63,1.225,-1.015
51999320,-1.015,0.051,0.187,-0.052,-1.942,-2.59
51999330,-1.013,0.048,0.181,0.35,-5.757,-3.255
51999340,-1.004,0.051,0.202,0.857,-9.957,-3.272
51999350,-1.001,0.042,0.209,0.892,-11.375,-3.325
51999360,-0.977,0.041,0.204,-0.63,-10.15,-2.957
51999370,-0.963,0.049,0.2,-0.297,-8.347,-1.12
51999380,-0.982,0.057,0.221,-0.21,-4.13,0.91
51999390,-1.017,0.056,0.212,-0.157,-3.675,0.84
51999400,-0.983,0.061,0.223,1.417,-5.232,-0.682
51999410,-0.971,0.06,0.229,1.697,-5.407,-1.085
51999420,-0.974,0.057,0.238,1.995,-3.71,-0.385
51999430,-0.971,0.059,0.23,2.905,-3.307,-0.332
51999440,-0.94,0.075,0.245,3.885,-2.94,-0.262
51999450,-0.937,0.067,0.261,3.08,0.787,1.032
51999460,-0.96,0.059,0.239,0.997,5.845,2.922
51999470,-0.958,0.068,0.246,-1.26,8.907,4.445
51999480,-0.989,0.049,0.208,-2.94,13.387,5.057
51999490,-0.986,0.044,0.206,-2.73,13.912,6.072
51999500,-0.999,0.056,0.194,-1.68,14.017,6.965
51999510,-1.03,0.056,0.178,-1.662,11.76,6.615
51999520,-1.042,0.055,0.173,-0.892,7.98,5.425
51999530,-1.048,0.063,0.172,0.315,3.92,3.5
51999540,-1.023,0.061,0.184,0.717,0,0.98
51999550,-1.006,0.051,0.178,0.7,-3.062,-0.49
51999560,-1.011,0.053,0.179,1.767,-5.81,-0.63
51999570,-1.012,0.067,0.174,2.975,-9.205,-1.137
51999580,-1.036,0.079,0.159,3.237,-14.595,-3.22
51999580,-1.05,0.074,0.171,2.03,-21.927,-6.965
51999600,-1.022,0.058,0.201,1.032,-24.657,-10.5
51999600,-1.003,0.05,0.215,1.26,-23.065,-11.917
51999620,-0.981,0.055,0.201,0.805,-21.245,-11.567
51999620,-0.985,0.06,0.219,0.857,-20.755,-11.182
51999640,-0.925,0.04,0.272,-0.402,-18.182,-10.01
51999640,-0.912,0.019,0.282,-0.822,-10.92,-6.51
51999660,-0.923,0.034,0.276,-1.452,-7.192,-1.575
51999660,-0.918,0.044,0.255,-2.835,-3.535,2.835
51999670,-0.996,0.044,0.22,-4.007,-0.07,6.16
51999680,-0.998,0.06,0.225,-2.782,-0.017,6.212
51999690,-1.02,0.069,0.208,-2.887,-1.207,4.602
51999700,-1.034,0.063,0.199,-2.572,-3.57,1.89
51999710,-1.002,0.063,0.219,-1.522,-6.562,-1.26
51999720,-0.989,0.051,0.226,-2.152,-7.787,-3.377
51999730,-0.984,0.04,0.227,-2.467,-8.207,-3.832
51999740,-0.975,0.039,0.229,-1.47,-7.262,-3.115
51999750,-0.979,0.05,0.231,-0.735,-6.51,-2.1
51999760,-0.991,0.051,0.226,-1.242,-5.985,-1.697
51999770,-0.998,0.05,0.225,-1.242,-6.125,-2.065
51999780,-0.988,0.045,0.236,-1.26,-6.125,-2.695
51999790,-0.978,0.034,0.23,-1.487,-5.617,-2.8
51999800,-0.97,0.034,0.233,-0.752,-4.9,-1.592
51999810,-0.97,0.04,0.233,-0.682,-4.48,0.122
51999820,-0.986,0.045,0.228,-0.717,-3.622,1.365
51999830,-1.008,0.053,0.219,-0.875,-4.287,1.225
51999840,-1.018,0.052,0.224,-1.12,-6.002,-0.385
51999850,-1.005,0.045,0.227,-1.172,-7.665,-2.432
51999860,-0.977,0.042,0.238,-0.752,-8.12,-3.342
51999870,-0.956,0.037,0.244,-0.875,-7.437,-2.835
51999880,-0.963,0.034,0.239,-1.015,-5.652,-0.927
51999890,-0.981,0.041,0.238,-0.63,-4.532,0.77
51999900,-0.984,0.045,0.238,-0.682,-3.78,1.225
51999910,-0.98,0.041,0.238,-0.857,-3.29,0.997
51999920,-0.979,0.043,0.244,-0.63,-2.432,1.277
51999920,-0.973,0.043,0.25,-0.787,-1.067,1.575
51999940,-0.962,0.037,0.252,-0.822,1.662,2.187
51999940,-0.942,0.031,0.255,-0.7,5.092,3.955
51999960,-0.935,0.034,0.256,0.21,10.167,6.912
51999960,-0.961,0.042,0.248,1.155,15.417,9.887
51999980,-0.973,0.048,0.241,1.242,19.407,11.602
51999980,-0.987,0.052,0.215,0.052,21.472,12.512
52000000,-1.052,0.059,0.189,-2.38,19.162,12.25
52000000,-1.075,0.066,0.182,-4.06,13.527,9.432
52000010,-1.021,0.051,0.211,-4.392,7.84,5.46
52000020,-0.926,0.005,0.224,-4.077,7.892,4.97
52000030,-0.909,0.047,0.238,0.56,11.917,10.5
52000040,-0.986,0.092,0.236,-1.417,14.192,14.385
52000050,-1.049,0.077,0.22,-5.425,13.93,12.285
52000060,-1.002,0.088,0.223,-4.952,12.775,8.452
52000070,-0.957,0.091,0.225,-6.44,12.757,5.757
52000080,-0.937,0.077,0.214,-7.402,15.872,5.18
52000090,-0.967,0.081,0.199,-7.28,18.76,6.177
52000100,-0.991,0.088,0.203,-6.877,20.562,5.477
52000110,-1.01,0.08,0.177,-6.65,20.947,3.15
52000120,-1.031,0.071,0.159,-6.352,19.722,0.84
52000130,-1.066,0.056,0.122,-6.632,15.627,-1.365
52000140,-1.072,0.04,0.098,-5.215,9.572,-3.727
52000150,-1.05,0.03,0.101,-3.062,2.152,-5.267
52000160,-1.032,0.02,0.122,-0.822,-3.36,-5.215
52000170,-1.003,0.028,0.147,1.54,-7.455,-3.605
52000180,-0.986,0.037,0.161,2.835,-9.852,-1.085
52000190,-0.997,0.04,0.156,3.22,-11.585,1.242
52000200,-1.029,0.059,0.155,4.322,-14.175,2.397
52000210,-1.067,0.072,0.137,4.865,-18.585,0.525
52000220,-1.065,0.078,0.155,5.495,-24.185,-4.165
52000230,-1.007,0.05,0.178,4.357,-26.145,-8.382
52000240,-0.976,0.059,0.177,6.562,-23.502,-8.54
52000250,-1.009,0.079,0.184,5.775,-23.992,-7.787
52000260,-1.019,0.065,0.178,3.325,-24.815,-9.677
52000270,-1.015,0.051,0.177,3.657,-25.987,-11.427
52000280,-0.967,0.043,0.243,4.147,-26.652,-11.865
52000290,-0.906,0.027,0.241,4.637,-21.105,-9.17
52000300,-0.936,0.056,0.274,5.53,-15.995,-4.235
52000310,-0.966,0.048,0.268,1.26,-13.177,-1.592
52000320,-0.95,0.031,0.275,0,-9.537,-0.542
52000330,-0.903,0.049,0.264,1.015,-4.83,2.257
52000330,-0.928,0.08,0.25,0.175,0.962,5.722
52000340,-0.996,0.077,0.22,-3.01,4.777,6.195
52000350,-1.02,0.065,0.21,-3.552,5.442,3.955
52000360,-1.012,0.068,0.216,-2.502,5.267,1.295
52000370,-1,0.061,0.215,-2.905,4.602,-1.12
52000380,-0.978,0.052,0.215,-3.342,4.462,-2.222
52000390,-0.964,0.049,0.219,-3.64,4.917,-1.452
52000400,-0.955,0.021,0.251,-3.78,5.862,0.805
52000410,-0.899,-0.034,0.244,-3.727,11.305,5.53
52000420,-0.87,0.002,0.24,1.627,19.46,15.575
52000430,-0.956,0.072,0.195,2.03,23.607,24.027
52000440,-1.088,0.09,0.15,-2.59,23.345,24.272
52000450,-1.131,0.1,0.126,-1.627,17.185,17.43
52000460,-1.107,0.102,0.132,-1.05,8.575,8.207
52000470,-1.066,0.085,0.136,-0.665,1.242,-0.087
52000480,-1.047,0.055,0.15,-0.717,-4.777,-4.69
52000490,-1.011,0.038,0.171,1.015,-10.045,-6.632
52000500,-0.968,0.034,0.191,2.1,-12.197,-6.037
52000510,-0.96,0.033,0.189,2.257,-11.847,-2.625
52000520,-0.992,0.048,0.183,3.307,-10.85,1.452
52000530,-1.028,0.065,0.169,3.517,-11.935,2.537
52000540,-1.054,0.07,0.159,3.15,-15.977,0.542
52000550,-1.086,0.075,0.144,3.272,-22.767,-3.36
52000560,-1.106,0.085,0.083,3.675,-30.8,-9.905
52000570,-1.102,0.096,0.102,1.19,-38.29,-18.305
52000580,-1.1,0.049,0.128,-1.837,-47.197,-25.55
52000590,-0.918,0.041,0.186,4.235,-47.372,-28.945
52000600,-0.905,0.051,0.261,5.46,-39.585,-25.252
52000610,-0.926,0.038,0.315,1.89,-34.545,-22.172
52000620,-0.894,0.004,0.369,0.455,-29.785,-18.865
52000630,-0.856,-0.009,0.416,-0.175,-23.782,-11.76
52000640,-0.816,0.001,0.357,-0.192,-14.927,-2.327
52000650,-0.82,0.036,0.318,0.227,-1.505,9.1
52000660,-1.004,0.066,0.244,-3.115,7.017,16.17
52000670,-1.092,0.067,0.211,-4.462,5.477,13.405
52000670,-1.071,0.064,0.213,-2.73,0.665,5.932
52000690,-1.047,0.057,0.211,-2.887,-4.287,-0.245
52000690,-0.996,0.046,0.227,-2.887,-8.417,-4.34
52000710,-0.928,0.055,0.223,-4.06,-8.4,-5.057
52000710,-0.683,0.054,0.249,-2.345,11.322,1.137
52000730,-1.311,-0.039,0.249,-9.87,10.745,5.25
52000730,-0.823,-0.03,0.32,-1.067,-1.207,3.325
52000750,-0.824,0.06,0.324,7.437,9.94,10.762
52000750,-0.928,0.079,0.282,-0.805,18.112,18.322
52000760,-1.009,0.066,0.233,-3.657,22.032,17.657
52000770,-1.063,0.071,0.255,-3.727,20.457,14.98
52000780,-1.037,0.065,0.213,-3.937,17.727,9.905
52000790,-1.02,0.071,0.207,-2.957,14.367,5.897
52000800,-1,0.07,0.191,-3.797,11.55,2.817
52000810,-1.009,0.053,0.199,-4.077,8.942,0.297
52000820,-1.012,0.034,0.196,-4.287,6.685,-0.997
52000830,-1.003,0.036,0.193,-2.362,5.005,-0.77
52000840,-1.016,0.05,0.187,-1.295,3.36,-0.21
52000850,-1.027,0.048,0.172,-1.382,0.577,-1.505
52000860,-1.051,0.036,0.168,-0.7,-3.027,-3.29
52000870,-1.038,0.032,0.184,1.452,-8.365,-5.057
52000880,-1,0.032,0.197,2.607,-11.445,-6.457
52000890,-1.001,0.025,0.187,1.435,-12.932,-6.387
52000900,-1.008,0.026,0.197,1.067,-13.51,-5.057
52000910,-1.014,0.034,0.198,1.715,-14.507,-4.217
52000920,-1.011,0.04,0.169,2.677,-15.732,-5.04
52000930,-1.018,0.057,0.154,3.097,-18.165,-6.982
52000940,-1.021,0.055,0.154,3.64,-21.262,-9.362
52000950,-1.013,0.058,0.153,4.83,-23.327,-11.847
52000960,-0.985,0.061,0.174,4.795,-23.257,-14
52000970,-1.012,0.035,0.204,2.975,-20.965,-15.207
52000980,-1.025,0.013,0.249,3.552,-22.33,-15.732
52000990,-0.963,0.017,0.274,4.602,-23.275,-15.627
52001000,-0.964,0.027,0.298,4.41,-23.747,-14.175
52001010,-0.933,0.026,0.285,2.275,-24.097,-13.527
52001010,-0.866,0.02,0.315,2.502,-18.2,-9.922
52001030,-0.938,0.019,0.314,1.347,-14.507,-5.792
52001030,-0.937,0,0.368,1.085,-12.687,-1.942
52001050,-0.968,0.007,0.361,1.977,-13.335,0.717
52001050,-0.872,0.033,0.352,3.22,-10.64,3.797
52001070,-0.895,0.058,0.315,1.435,-2.817,7.665
52001070,-0.96,0.047,0.271,-1.592,1.4,8.96
52001080,-0.962,0.033,0.26,-0.787,3.167,8.4
52001090,-0.964,0.038,0.264,0.892,4.62,8.767
52001100,-0.973,0.04,0.263,1.732,5.722,8.977
52001110,-0.972,0.036,0.255,2.432,6.09,8.592
52001120,-0.996,0.027,0.232,2.747,6.3,8.277
52001130,-1.024,0.016,0.214,3.57,4.217,7.682
52001140,-1.035,0.02,0.216,4.637,1.085,6.79
52001150,-1.042,0.028,0.226,5.372,-2.24,5.197
52001160,-1.027,0.033,0.238,5.127,-4.76,2.957
52001170,-0.981,0.007,0.258,4.655,-6.317,1.12
52001180,-0.897,-0.028,0.262,5.617,-4.532,2.94
52001190,-0.832,0.015,0.292,11.812,2.887,11.55
52001200,-0.899,0.045,0.312,10.342,10.517,20.562
52001210,-0.945,0.04,0.272,5.635,17.85,24.972
52001220,-0.921,0.041,0.288,7.122,25.76,27.597
52001230,-0.904,0.05,0.286,7.892,35.927,31.552
52001240,-0.968,0.053,0.25,8.907,45.71,35.525
52001250,-1.008,0.038,0.147,10.045,51.415,36.417
52001260,-0.978,0.025,0.126,10.85,61.442,35.07
52001270,-1.029,-0.004,0.053,15.26,69.545,39.182
52001280,-1.052,0.058,0.003,30.205,73.552,45.395
52001290,-1.08,0.115,0.023,39.865,76.055,44.625
52001300,-1.068,0.074,-0.058,37.24,76.125,34.947
52001310,-1.076,0.021,-0.105,43.207,79.642,28.805
52001320,-1.058,0.021,-0.113,54.11,81.777,24.78
52001330,-1.026,0.052,-0.083,62.352,87.57,14.437
52001340,-1.082,0.119,-0.106,68.32,95.392,6.58
52001350,-1.217,0.089,-0.091,56.577,95.41,19.39
52001360,-1.317,0.047,-0.129,45.955,87.342,13.912
52001370,-1.384,0.016,-0.121,58.24,76.352,-0.56
52001380,-1.365,0.019,-0.123,66.325,56.472,-14.647
52001390,-1.346,-0.124,-0.14,79.975,37.835,-32.637
52001400,-1.193,0.05,-0.035,104.457,25.97,-62.58
52001410,-1.071,0.088,-0.03,105.262,13.177,-83.037
52001420,-0.87,0.072,0.011,103.635,6.405,-86.275
52001420,-0.788,0.108,0.037,94.57,6.475,-63.122
52001440,-0.798,0.139,0.063,75.897,12.477,-42.227
52001440,-0.733,0.113,0.057,65.082,25.392,-27.807
52001460,-0.68,0.045,0.096,57.102,41.667,-14.647
52001460,-0.772,0.082,0.114,48.247,50.365,-0.087
52001480,-0.879,0.102,0.11,39.55,45.43,12.95
52001480,-0.969,0.109,0.109,29.26,33.057,18.392
52001500,-1.065,0.124,0.125,22.155,12.932,17.412
52001500,-1.052,0.177,0.106,12.302,-15.137,13.632
52001510,-1.021,0.153,0.113,6.23,-43.452,9.747
52001520,-1.03,0.135,0.082,1.925,-69.107,8.54
52001530,-0.897,0.2,0.062,0.367,-91.315,4.2
52001540,-0.753,0.231,0.047,-2.975,-99.242,2.852
52001550,-0.654,0.193,0.02,-3.622,-92.802,6.072
52001560,-0.569,0.227,-0.01,5.022,-72.625,14.682
52001570,-0.878,0.199,0.087,22.96,-43.295,34.597
52001580,-1.083,0.193,0.106,22.907,-29.96,47.11
52001590,-1.309,0.248,0.151,19.425,-18.095,53.042
52001600,-1.558,0.289,0.183,17.902,-15.225,44.152
52001610,-1.501,0.238,0.126,19.512,-26.6,17.902
52001620,-1.058,0.121,0.096,22.312,-37.467,-9.275
52001630,-0.797,0.06,0.073,24.29,-35.297,-11.095
52001640,-0.839,0.056,0.082,23.485,-29.207,2.327
52001650,-0.916,0.052,0.082,20.3,-29.47,12.775
52001660,-1.012,0.044,0.079,18.042,-32.235,18.462
52001670,-1.094,0.062,0.093,17.727,-34.492,19.232
52001680,-1.14,0.089,0.075,18.55,-33.722,16.012
52001690,-1.107,0.093,0.069,21.875,-29.855,10.955
52001700,-1.049,0.078,0.046,24.115,-25.97,6.825
52001710,-1.005,0.01,-0.009,26.005,-23.485,4.637
52001720,-0.979,0.04,0.029,42.402,-21.332,-4.375
52001730,-1.014,0.173,0.1,58.59,-20.737,-18.637
52001740,-1.041,0.2,0.17,56.28,-23.852,-21.052
52001750,-1.003,0.191,0.177,40.075,-27.142,-10.447
52001760,-0.973,0.18,0.179,26.88,-24.342,-2.082
52001760,-0.968,0.17,0.183,19.32,-19.057,2.117
52001780,-0.95,0.169,0.197,17.832,-13.09,3.955
52001780,-0.952,0.185,0.213,18.812,-8.47,5.092
52001800,-0.952,0.212,0.211,15.365,-4.41,6.615
52001800,-0.933,0.195,0.18,10.867,1.977,8.015
52001820,-0.998,0.181,0.134,8.137,5.88,10.045
52001820,-1.046,0.156,0.096,8.4,3.692,9.52
52001830,-1.047,0.17,0.083,10.797,-2.87,6.545
52001840,-1.048,0.173,0.078,11.742,-7.927,2.467
52001850,-1.058,0.147,0.081,11.462,-12.302,-2.94
52001860,-1.032,0.127,0.1,9.992,-15.907,-8.312
52001870,-1.029,0.105,0.112,8.487,-19.022,-11.13
52001880,-1.012,0.075,0.113,6.51,-21.77,-12.897
52001890,-0.955,0.059,0.146,4.97,-22.627,-12.67
52001900,-0.938,0.059,0.175,4.655,-16.292,-7.35
52001910,-0.965,0.078,0.173,2.992,-10.657,-2.152
52001920,-0.962,0.092,0.151,0.175,-6.23,0.56
52001930,-1.017,0.094,0.116,-0.052,-4.06,3.482
52001940,-1.048,0.12,0.1,1.662,-5.565,4.182
52001950,-1.054,0.133,0.094,3.237,-10.272,1.767
52001960,-1.073,0.124,0.087,3.622,-16.817,-2.45
52001970,-1.039,0.132,0.113,4.812,-23.765,-6.545
52001980,-1.008,0.128,0.145,4.812,-26.915,-9.082
52001990,-0.969,0.122,0.178,3.482,-27.037,-9.87
52002000,-0.909,0.128,0.217,0.997,-22.295,-8.242
52002010,-0.932,0.113,0.194,-3.097,-13.982,-4.847
52002020,-0.957,0.095,0.177,-5.81,-7.262,-1.907
52002030,-0.973,0.098,0.169,-5.442,-2.642,0.91
52002040,-1.001,0.11,0.156,-4.69,0.087,2.642
52002050,-1.028,0.117,0.135,-3.885,0.717,2.537
52002060,-1.045,0.108,0.121,-3.08,-1.365,0.49
52002070,-1.02,0.109,0.137,-1.487,-5.477,-1.89
52002080,-0.997,0.112,0.148,-0.542,-7.21,-2.87
52002090,-0.986,0.108,0.154,-1.242,-7.787,-3.027
52002100,-0.999,0.112,0.156,-2.572,-7.822,-2.66
52002110,-0.994,0.123,0.164,-3.78,-7.157,-2.677
52002120,-1.005,0.111,0.156,-5.355,-5.46,-3.115
52002130,-1.006,0.108,0.152,-6.177,-4.567,-3.727
52002140,-0.984,0.094,0.174,-6.37,-3.85,-4.13
52002150,-0.937,0.096,0.202,-6.44,-0.385,-2.555
52002160,-0.921,0.106,0.213,-7.84,5.652,1.137
52002170,-0.936,0.078,0.212,-9.695,10.412,5.53
52002170,-0.991,0.115,0.187,-10.902,13.457,9.835
52002190,-1.061,0.107,0.122,-11.06,13.195,10.255
52002190,-1.055,0.086,0.054,-8.12,8.96,7.682
52002210,-1.056,0.086,0.048,-3.255,4.182,5.11
52002210,-1.063,0.115,0.101,0.98,-3.622,2.275
52002230,-1.007,0.126,0.149,2.992,-8.925,-1.085
52002230,-0.962,0.118,0.181,1.82,-8.715,-2.747
52002250,-0.944,0.11,0.196,-0.822,-4.06,-1.75
52002250,-0.93,0.061,0.191,-2.607,2.415,1.47
52002260,-0.9,0.058,0.19,-1.067,10.675,8.47
52002270,-0.963,0.136,0.158,0.507,17.622,16.187
52002280,-1.091,0.148,0.11,-1.82,17.062,15.82
52002290,-1.104,0.127,0.06,-0.28,6.947,10.342
52002300,-1.063,0.127,0.058,2.467,-0.665,4.305
52002310,-1.077,0.132,0.088,3.115,-8.837,-1.102
52002320,-1.038,0.123,0.119,5.04,-15.26,-5.6
52002330,-0.951,0.108,0.161,5.302,-17.675,-8.137
52002340,-0.924,0.101,0.18,3.587,-14.63,-5.547
52002350,-0.95,0.121,0.176,0.892,-10.115,-1.172
52002360,-0.993,0.13,0.152,-2.712,-6.755,0.91
52002370,-1.057,0.142,0.124,-5.32,-7.367,0.052
52002380,-1.106,0.171,0.105,-6.965,-12.915,-4.97
52002390,-1.121,0.169,0.102,-7.245,-20.982,-13.44
52002400,-1.033,0.126,0.135,-6.982,-28.402,-22.4
52002410,-0.912,0.051,0.216,-6.912,-30.835,-25.637
52002420,-0.826,0.048,0.235,-6.702,-20.142,-18.445
52002430,-0.866,0.017,0.226,-6.895,-6.02,-6.195
52002440,-0.865,0.027,0.214,-7,5.355,5.285
52002450,-0.988,0.101,0.167,-5.547,14.122,15.907
52002460,-1.101,0.107,0.101,-5.95,13.16,16.327
52002470,-1.137,0.106,0.067,-2.24,4.48,10.972
52002480,-1.099,0.122,0.096,3.657,-7.402,3.92
52002490,-1.035,0.112,0.139,6.457,-16.03,-3.132
52002500,-0.971,0.104,0.169,7.542,-17.132,-6.072
52002510,-0.964,0.092,0.182,6.685,-14.14,-5.407
52002510,-0.957,0.083,0.192,6.72,-10.412,-3.01
52002530,-0.917,0.071,0.212,7.735,-5.617,0.507
52002530,-0.863,0.08,0.237,8.242,1.942,6.58
52002550,-0.937,0.117,0.202,5.915,12.74,14.192
52002550,-1.03,0.122,0.142,2.38,17.36,16.205
52002570,-1.099,0.099,0.094,1.61,13.51,13.195
52002570,-1.037,0.093,0.148,5.215,2.45,8.785
52002580,-0.959,0.158,0.186,8.89,1.155,9.66
52002590,-1.012,0.197,0.16,3.657,5.232,9.047
52002600,-1.079,0.119,0.114,-4.41,3.535,2.852
52002610,-0.942,0.07,0.165,-3.482,-0.875,-0.052
52002620,-0.899,0.107,0.197,-1.557,3.342,5.687
52002630,-0.953,0.113,0.171,-4.585,9.012,10.587
52002640,-1.016,0.102,0.135,-6.195,11.217,11.917
52002650,-1.043,0.147,0.13,-4.27,11.602,11.725
52002660,-1.132,0.144,0.06,-3.692,8.662,7.945
52002670,-1.043,0.101,0.092,-1.435,-4.112,0.42
52002680,-1.027,0.174,0.142,1.855,-8.872,-1.452
52002690,-1.07,0.15,0.107,-1.19,-11.987,-6.492
52002700,-1.039,0.095,0.108,-2.117,-19.145,-12.565
52002710,-0.99,0.125,0.155,1.295,-23.905,-13.265
52002720,-0.97,0.116,0.185,0.91,-23.135,-13.107
52002730,-0.932,0.104,0.193,-0.227,-18.235,-11.655
52002740,-0.96,0.099,0.175,-2.117,-12.232,-8.295
52002750,-0.976,0.066,0.164,-2.887,-9.537,-5.862
52002760,-0.957,0.079,0.176,-0.56,-6.947,-2.275
52002770,-0.982,0.111,0.169,0.052,-3.815,0.997
52002780,-1.027,0.099,0.141,-0.857,-2.712,1.312
52002790,-1.031,0.098,0.138,0.752,-4.812,0.385
52002800,-1.01,0.113,0.156,2.677,-6.825,-0.682
52002810,-0.995,0.109,0.159,2.695,-7.367,-1.995
52002820,-0.986,0.103,0.164,2.31,-7.035,-2.432
52002830,-0.985,0.107,0.169,2.327,-5.652,-1.96
52002840,-0.959,0.091,0.161,2.065,-3.43,-1.417
52002850,-0.993,0.122,0.179,0.857,-0.332,-0.35
52002860,-1.013,0.127,0.178,1.347,-1.802,0.385
52002870,-0.972,0.089,0.175,1.347,-2.327,-0.647
52002880,-0.945,0.064,0.176,2.31,-2.205,1.715
52002890,-0.931,0.083,0.192,4.305,1.19,6.877
52002900,-0.996,0.099,0.164,4.287,5.512,11.042
52002910,-1.033,0.103,0.136,4.795,5.792,11.707
52002920,-1.027,0.116,0.14,6.597,2.537,10.377
52002920,-1.04,0.124,0.139,7.525,1.295,8.452
52002940,-1.02,0.115,0.157,7.822,-2.677,6.02
52002940,-0.96,0.146,0.166,8.435,-2.887,5.53
52002960,-1.019,0.194,0.159,3.727,-3.43,4.182
52002960,-1.056,0.127,0.129,-1.557,-6.09,-1.277
52002980,-0.982,0.107,0.155,-1.12,-9.817,-4.147
52002980,-0.983,0.118,0.162,-1.435,-10.622,-2.852
52003000,-1,0.122,0.17,-3.342,-11.777,-2.502
52003000,-1.009,0.14,0.157,-5.232,-12.022,-2.852
52003010,-1.045,0.187,0.141,-7.367,-13.72,-4.392
52003020,-1.038,0.157,0.124,-13.072,-19.722,-11.55
52003030,-1.033,0.107,0.105,-17.132,-26.985,-17.43
52003040,-1.082,0.058,0.118,-18.007,-34.37,-20.807
52003050,-1.006,0.002,0.188,-15.54,-42.472,-22.767
52003060,-0.877,0.024,0.257,-9.957,-41.947,-16.8
52003070,-0.857,0.046,0.286,-6.107,-28.752,-5.88
52003080,-0.856,0.082,0.276,-5.355,-14.35,3.412
52003090,-0.939,0.108,0.239,-5.302,-1.977,9.765
52003100,-1.051,0.103,0.183,-4.882,2.922,11.305
52003110,-1.054,0.126,0.173,-0.332,1.19,8.907
52003120,-1.026,0.139,0.183,3.272,-1.137,5.11
52003130,-0.999,0.125,0.194,4.06,-2.642,0.91
52003140,-0.959,0.102,0.206,3.535,-2.152,-1.12
52003150,-0.956,0.053,0.198,2.87,-0.63,0.07
52003160,-0.927,-0.013,0.25,4.34,-1.522,3.342
52003170,-0.846,0.142,0.285,10.745,6.405,12.845
52003180,-0.982,0.148,0.23,6.282,17.832,18.147
52003190,-1.051,0.098,0.166,1.172,19.162,16.712
52003200,-1.071,0.091,0.147,3.622,13.335,14.997
52003210,-1.027,0.134,0.168,5.967,5.705,12.057
52003220,-0.974,0.132,0.16,5.145,1.855,9.117
52003230,-0.981,0.17,0.16,3.71,4.112,8.365
52003240,-1.084,0.16,0.135,-0.175,4.165,5.215
52003250,-1.069,0.121,0.134,-1.417,-2.975,-1.137
52003260,-1.002,0.107,0.165,0.262,-9.52,-4.69
52003260,-0.969,0.104,0.19,0.77,-11.287,-5.18
52003280,-0.97,0.089,0.19,0.612,-10.412,-3.955
52003280,-0.978,0.098,0.189,1.085,-8.942,-1.977
52003300,-0.979,0.11,0.189,1.26,-8.155,-0.525
52003300,-1.015,0.114,0.172,0.875,-8.102,0.192
52003320,-1.002,0.131,0.19,1.225,-9.852,-0.805
52003320,-1.018,0.135,0.177,0.665,-9.537,-1.942
52003330,-1.015,0.098,0.184,-0.84,-13.422,-4.462
52003340,-0.986,0.131,0.199,0.577,-14.175,-4.672
52003350,-0.979,0.099,0.197,-0.7,-13.352,-5.6
52003360,-0.951,0.078,0.217,-0.63,-12.04,-4.375
52003370,-0.93,0.143,0.235,0.035,-6.93,-0.875
52003380,-0.999,0.134,0.198,-3.36,-0.927,-0.42
52003390,-1.031,0.089,0.167,-4.585,-1.435,-2.152
52003400,-1.022,0.094,0.168,-2.607,-5.092,-3.325
52003410,-1.005,0.081,0.185,-1.067,-9.782,-4.672
52003420,-0.983,0.092,0.196,1.207,-10.727,-3.797
52003430,-0.973,0.096,0.214,1.61,-11.27,-2.817
52003440,-0.972,0.114,0.212,1.925,-9.222,-1.435
52003450,-0.987,0.115,0.215,1.68,-8.19,-1.137
52003460,-0.98,0.114,0.213,1.75,-7.84,-1.382
52003470,-0.982,0.117,0.215,2.047,-8.207,-1.54
52003480,-0.976,0.124,0.223,2.082,-7.035,-1.697
52003490,-0.978,0.131,0.221,1.435,-4.357,-2.292
52003500,-0.986,0.114,0.21,0.262,-2.1,-3.307
52003510,-0.978,0.116,0.209,0.122,-0.717,-3.587
52003520,-0.979,0.11,0.209,0.122,0.665,-3.237
52003530,-0.967,0.052,0.215,0.332,0.367,-2.765
52003540,-0.878,0.075,0.266,2.467,2.94,1.452
52003550,-0.943,0.152,0.227,0.84,12.145,7.805
52003560,-1.075,0.078,0.15,-3.587,13.877,7.192
52003570,-1.059,0.077,0.149,-0.367,7.385,5.267
52003580,-1.022,0.121,0.173,1.82,0.245,2.765
52003590,-1.022,0.11,0.175,1.085,-3.92,-0.49
52003600,-0.997,0.089,0.188,0.805,-7.385,-2.59
52003610,-0.982,0.102,0.202,1.19,-8.767,-2.292
52003620,-0.976,0.1,0.212,0.612,-8.802,-2.17
52003630,-0.956,0.107,0.226,0.332,-6.405,-1.137
52003640,-0.964,0.108,0.216,-0.857,-2.835,0.56
52003650,-0.987,0.101,0.2,-1.872,-0.332,1.82
52003660,-0.999,0.106,0.192,-1.732,-0.315,2.1
52003670,-1.012,0.105,0.183,-1.505,-1.54,1.487
52003670,-1.009,0.104,0.185,-0.875,-4.34,0.122
52003690,-0.997,0.101,0.192,-0.437,-6.72,-1.015
52003690,-0.987,0.102,0.199,-0.367,-8.487,-1.365
52003710,-0.994,0.101,0.198,-0.84,-8.977,-1.19
52003710,-0.988,0.105,0.208,-1.295,-10.045,-1.505
52003720,-0.983,0.111,0.214,-2.362,-9.73,-1.662
52003730,-1.011,0.116,0.192,-3.937,-9.94,-2.152
52003740,-1.034,0.167,0.188,-5.95,-13.632,-4.9
52003750,-1.089,0.112,0.168,-9.642,-19.477,-11.392
52003760,-1.002,0.104,0.201,-7.752,-23.94,-16.292
52003770,-0.961,0.132,0.218,-7,-24.85,-17.447
52003780,-0.993,0.062,0.226,-11.672,-25.48,-19.792
52003790,-0.929,0.035,0.254,-9.992,-23.625,-18.095
52003800,-0.877,0.056,0.277,-6.685,-16.38,-11.725
52003810,-0.882,0.051,0.296,-6.527,-6.982,-4.847
52003820,-0.91,0.055,0.266,-6.457,3.727,2.59
52003830,-0.961,0.071,0.25,-5.88,10.325,8.155
52003840,-0.997,0.09,0.222,-4.27,14.77,11.007
52003850,-1.028,0.09,0.2,-2.59,14.805,10.447
52003860,-1.027,0.085,0.185,-1.715,11.62,7.682
52003870,-1.042,0.074,0.175,0.28,6.737,5.32
52003880,-1.03,0.09,0.194,2.887,1.47,3.097
52003890,-0.989,0.095,0.217,4.602,-1.732,0.927
52003900,-0.963,0.032,0.227,4.602,-2.957,0.21
52003910,-0.852,0.039,0.289,7.647,0.157,4.375
52003920,-0.87,0.103,0.288,9.66,12.355,14.455
52003930,-0.949,0.106,0.246,5.6,21.63,19.565
52003940,-1.02,0.116,0.189,4.007,26.232,20.982
52003950,-1.078,0.111,0.144,2.712,21.595,18.077
52003960,-1.094,0.136,0.123,2.205,12.635,12.39
52003970,-1.108,0.144,0.127,1.557,1.855,5.145
52003980,-1.061,0.118,0.148,1.382,-8.522,-2.782
52003990,-0.977,0.083,0.194,1.715,-15.575,-7.472
52004000,-0.912,0.094,0.243,2.1,-15.68,-6.212
52004010,-0.924,0.099,0.247,-0.455,-9.817,-2.117
52004010,-0.967,0.099,0.219,-2.887,-4.182,1.522
52004030,-1.023,0.118,0.192,-3.955,-2.835,2.73
52004030,-1.066,0.178,0.167,-4.9,-4.847,-0.175
52004050,-1.13,0.147,0.12,-7.752,-12.25,-8.627
52004050,-1.056,0.102,0.148,-8.12,-24.762,-18.725
52004070,-1.007,0.104,0.172,-5.95,-29.225,-22.61
52004070,-1.024,0.058,0.186,-6.615,-33.67,-25.147
52004080,-0.974,0.023,0.23,-5.337,-36.47,-25.445
52004090,-0.839,0.011,0.334,-1.032,-33.145,-20.667
52004100,-0.736,0.065,0.364,1.417,-15.155,-8.102
52004110,-0.849,0.05,0.317,-0.647,5.18,6.002
52004120,-0.987,0.08,0.244,-2.31,17.447,14.385
52004130,-1.058,0.101,0.203,-1.295,19.32,15.032
52004140,-1.079,0.101,0.166,0.507,15.907,11.235
52004150,-1.063,0.085,0.156,1.907,7.07,4.97
52004160,-1.034,0.054,0.151,3.447,-1.977,-0.525
52004170,-0.879,0.01,0.291,7.507,-12.687,-2.17
52004180,-0.802,0.141,0.336,12.162,2.1,8.225
52004190,-0.993,0.098,0.247,4.2,15.557,14.682
52004200,-1.028,0.068,0.19,1.19,16.677,14.052
52004210,-1.037,0.115,0.185,5.267,13.352,14.262
52004220,-1.006,0.119,0.203,3.692,8.33,9.782
52004230,-0.994,0.129,0.192,2.485,6.825,7.332
52004240,-1.049,0.125,0.157,0.175,4.112,5.372
52004250,-1.053,0.109,0.168,-1.032,-2.765,0.98
52004260,-1.001,0.098,0.204,-0.507,-9.012,-3.097
52004270,-0.955,0.095,0.223,-0.385,-9.835,-3.902
52004280,-0.955,0.094,0.23,-1.295,-7.262,-1.995
52004290,-0.977,0.096,0.221,-2.362,-4.655,-0.052
52004300,-0.992,0.11,0.213,-3.272,-3.71,0.28
52004310,-1.026,0.123,0.197,-5.355,-4.147,-0.997
52004320,-1.09,0.177,0.15,-8.26,-6.335,-4.812
52004330,-1.141,0.113,0.118,-11.27,-17.115,-14.647
52004340,-1.035,0.059,0.178,-10.202,-29.855,-24.535
52004350,-0.92,0.05,0.247,-7.07,-32.13,-25.672
52004360,-0.853,0.015,0.311,-6.265,-26.547,-19.88
52004370,-0.769,0.01,0.346,-4.602,-12.967,-8.19
52004380,-0.789,0.08,0.335,-2.642,8.242,7.77
52004390,-0.968,0.07,0.256,-7.07,23.275,17.867
52004390,-1.047,0.086,0.185,-6.807,27.44,20.3
52004410,-1.084,0.098,0.158,-2.975,23.59,17.902
52004410,-1.105,0.089,0.137,-0.227,14.315,11.392
52004420,-1.075,0.096,0.15,3.727,3.745,4.585
52004430,-1.033,0.098,0.176,6.352,-5.127,-0.892
52004440,-1.004,0.076,0.186,7.63,-9.782,-4.06
52004450,-0.969,0.005,0.215,9.695,-13.702,-5.127
52004460,-0.77,0.055,0.335,14.157,-11.742,-0.21
52004470,-0.866,0.155,0.314,14.035,7.385,14.122
52004480,-1.024,0.106,0.196,3.255,18.13,16.922
52004490,-1.059,0.083,0.156,4.34,15.242,14.752
52004500,-1.055,0.138,0.163,6.142,7.735,10.885
52004510,-1.056,0.154,0.167,4.007,1.592,5.127
52004520,-1.089,0.127,0.148,1.382,-3.99,-0.665
52004530,-1.017,0.084,0.187,0.717,-13.002,-6.807
52004540,-0.913,0.087,0.244,1.067,-15.732,-7.84
52004550,-0.892,0.085,0.258,-1.697,-10.937,-3.937
52004560,-0.94,0.085,0.237,-4.462,-3.552,1.61
52004570,-1.003,0.115,0.214,-5.565,0.017,4.672
52004580,-1.046,0.167,0.183,-6.947,0.7,2.975
52004590,-1.172,0.163,0.098,-9.257,-4.235,-3.64
52004600,-1.143,0.099,0.104,-10.867,-21.612,-17.85
52004610,-1.045,0.062,0.155,-7.717,-35.402,-27.51
52004620,-0.966,0.064,0.216,-4.812,-40.285,-29.452
52004630,-0.897,0.014,0.294,-4.392,-39.882,-26.81
52004640,-0.676,-0.014,0.289,-3.447,-24.097,-17.675
52004650,-0.924,0.115,0.388,-2.66,-1.89,-1.242
52004660,-1.018,0.11,0.274,-4.48,1.785,4.707
52004670,-0.931,0.02,0.26,-5.915,5.425,2.362
52004680,-0.906,0.086,0.259,-3.5,12.337,8.277
52004690,-1.038,0.087,0.214,-4.235,16.66,11.042
52004700,-1.047,0.076,0.175,-3.937,14.052,7.717
52004710,-1.06,0.069,0.161,-0.752,7.647,4.515
52004720,-1.082,0.063,0.154,2.362,-1.855,0.385
52004730,-1.007,0.074,0.154,7.105,-9.362,-3.955
52004740,-0.841,0.06,0.183,6.37,0.665,-6.265
52004750,-1.042,-0.003,0.229,6.737,0.647,-0.735
52004760,-0.884,0.071,0.365,14.875,-6.09,3.622
52004760,-0.861,0.187,0.368,14.21,4.707,11.935
52004780,-0.945,0.092,0.245,0.91,18.235,13.265
52004780,-1.05,0.053,0.173,-2.082,20.667,14.245
52004800,-1.029,0.099,0.189,2.467,14.84,13.685
52004800,-1.043,0.147,0.178,2.957,11.777,11.742
52004820,-1.084,0.135,0.157,-1.627,4.445,4.882
52004820,-1.04,0.087,0.167,-4.637,-4.287,-2.975
52004830,-0.967,0.057,0.204,-3.377,-9.835,-5.512
52004840,-0.914,0.089,0.249,-1.715,-8.452,-2.765
52004850,-0.951,0.101,0.245,-5.005,-3.902,0.437
52004860,-0.977,0.095,0.229,-8.33,0.63,1.977
52004870,-0.989,0.099,0.226,-8.785,3.097,3.062
52004880,-1.011,0.154,0.217,-10.622,4.795,2.537
52004890,-1.051,0.158,0.194,-16.17,5.145,-1.96
52004900,-1.025,0.097,0.195,-21.77,1.732,-8.172
52004910,-0.928,0.053,0.261,-24.622,-1.505,-10.412
52004920,-0.982,0.014,0.298,-28.122,-0.682,-6.492
52004930,-1.053,-0.036,0.188,-28.507,-2.31,-3.832
52004940,-0.996,0.001,0.168,-18.62,-0.017,-1.032
52004950,-0.951,0.061,0.181,-11.305,2.222,2.38
52004960,-0.968,0.087,0.171,-9.257,4.112,4.742
52004970,-0.978,0.094,0.17,-7.28,5.582,6.037
52004980,-0.976,0.09,0.165,-4.322,5.057,6.3
52004990,-0.971,0.105,0.211,0.402,6.282,7.84
52005000,-1.015,0.117,0.213,0.42,8.592,7.945
52005010,-1.007,0.106,0.202,-1.067,9.415,5.302
52005020,-0.998,0.082,0.18,-1.032,9.31,3.57
52005030,-0.986,0.074,0.15,0.437,8.242,3.307
52005040,-0.987,0.079,0.125,2.712,8.067,3.867
52005050,-1.078,0.043,0.121,5.67,0.402,2.695
52005060,-0.873,0.066,0.247,9.31,-12.897,-0.577
52005070,-0.962,0.118,0.26,10.097,-4.882,6.58
52005080,-1.04,0.111,0.224,5.145,-0.175,7.455
52005080,-0.967,0.084,0.223,4.742,1.312,5.582
52005100,-0.971,0.084,0.199,4.252,5.53,7.735
52005100,-1.025,0.097,0.176,1.75,6.457,8.697
52005120,-1.037,0.103,0.165,-0.122,3.43,5.757
52005120,-1.003,0.09,0.174,-2.275,1.015,1.96
52005140,-1.012,0.083,0.169,-3.552,-0.385,0.717
52005140,-0.96,0.093,0.2,-3.465,-2.45,0.7
52005160,-0.929,0.115,0.234,-5.057,-2.537,2.485
52005160,-0.953,0.127,0.264,-9.047,-1.54,5.495
52005170,-0.935,0.16,0.287,-14.525,1.207,7.612
52005180,-0.998,0.224,0.261,-23.975,13.352,9.117
52005190,-1.169,0.145,0.178,-36.05,10.43,2.782
52005200,-1.115,0.004,0.086,-38.29,-5.11,-9.012
52005210,-1.004,-0.044,0.07,-27.055,-11.007,-12.005
52005220,-0.936,0.013,0.156,-16.065,-9.1,-8.4
52005230,-0.964,0.071,0.171,-10.15,-6.947,-3.43
52005240,-0.913,0.043,0.204,-8.977,-4.812,-1.435
52005250,-0.959,0.081,0.183,-4.725,2.38,5.81
52005260,-1.045,0.097,0.153,-3.237,6.737,8.645
52005270,-1.108,0.078,0.098,-1.19,4.55,5.267
52005280,-1.083,0.083,0.117,3.797,-5.425,-1.05
52005290,-1.039,0.073,0.122,6.527,-15.347,-7.175
52005300,-0.996,0.045,0.146,8.085,-28.157,-12.075
52005310,-0.785,0.083,0.329,10.85,-30.152,-10.027
52005320,-0.909,0.154,0.313,8.505,-7.245,2.24
52005330,-1.002,0.094,0.216,0.332,4.445,5.635
52005340,-0.974,0.051,0.188,-0.98,5.547,5.232
52005350,-0.968,0.091,0.206,1.242,5.407,7.962
52005360,-1.033,0.112,0.189,0.822,6.825,8.61
52005370,-1.017,0.101,0.181,-0.332,4.795,4.602
52005380,-0.958,0.105,0.196,0.315,5.022,3.307
52005390,-1.03,0.099,0.18,-0.49,6.37,4.76
52005400,-1.027,0.109,0.179,-1.137,4.06,2.957
52005410,-1.008,0.099,0.186,-0.84,1.33,0.315
52005420,-0.965,0.073,0.183,-1.347,-0.612,-1.225
52005430,-0.961,0.074,0.193,-1.33,-0.437,0.892
52005440,-1,0.099,0.193,-2.345,-0.857,2.922
52005450,-1.006,0.097,0.197,-3.255,-1.575,2.712
52005460,-1,0.086,0.197,-3.692,-2.502,1.977
52005470,-0.98,0.088,0.212,-4.235,-2.677,2.1
52005480,-0.953,0.102,0.206,-5.845,3.097,3.902
52005490,-1.088,0.083,0.147,-9.222,5.792,4.777
52005500,-0.952,0.054,0.159,-9.625,-4.602,0.315
52005510,-0.969,0.103,0.182,-8.207,1.89,3.78
52005510,-1.076,0.11,0.168,-12.04,0.927,3.762
52005530,-1.015,0.068,0.173,-13.282,-3.902,-1.557
52005530,-0.993,0.047,0.165,-11.812,-5.232,-2.345
52005550,-0.983,0.062,0.171,-9.537,-4.357,-0.612
52005550,-1.002,0.076,0.155,-8.015,-4.445,0.367
52005570,-0.978,0.072,0.145,-6.58,-6.965,-0.052
52005570,-0.983,0.07,0.139,-1.785,-7.857,1.872
52005580,-1.035,0.066,0.133,2.555,-12.355,2.887
52005590,-1.058,0.082,0.136,7.525,-19.53,1.697
52005600,-1.09,0.094,0.139,10.675,-26.582,-2.205
52005610,-1.065,0.084,0.143,11.48,-34.072,-8.627
52005620,-1.031,0.056,0.167,13.335,-41.842,-13.212
52005630,-0.913,0.142,0.292,15.837,-41.842,-15.067
52005640,-0.879,0.156,0.328,13.422,-33.022,-12.267
52005650,-0.864,0.091,0.333,5.39,-19.722,-10.15
52005660,-0.897,0.07,0.278,0.77,-4.69,-3.132
52005670,-0.937,0.077,0.266,-0.98,5.057,4.27
52005680,-1.032,0.085,0.195,-2.625,10.675,8.067
52005690,-1.039,0.087,0.181,-3.395,6.842,4.882
52005700,-1.03,0.086,0.182,-2.887,2.8,1.015
52005710,-1.015,0.067,0.188,-2.222,-0.595,-1.435
52005720,-0.991,0.068,0.212,-0.735,-3.272,-1.872
52005730,-0.961,0.082,0.235,-0.7,-3.78,-1.487
52005740,-0.946,0.075,0.238,-2.082,-0.84,0.175
52005750,-0.951,0.073,0.232,-3.08,3.045,3.062
52005760,-0.963,0.088,0.221,-4.27,6.037,5.442
52005770,-0.991,0.095,0.21,-5.81,7.052,6.212
52005780,-0.996,0.101,0.22,-7.315,6.562,5.67
52005790,-1.005,0.1,0.217,-8.662,5.582,4.707
52005800,-0.98,0.101,0.239,-9.8,5.197,3.412
52005810,-1,0.12,0.211,-11.602,11.182,4.182
52005820,-1.064,0.088,0.162,-14.227,7.857,1.942
52005830,-0.96,0.05,0.197,-14.14,0.612,-1.872
52005830,-0.959,0.051,0.188,-10.675,0.857,1.942
52005850,-1.017,0.068,0.18,-11.375,1.365,3.832
52005850,-1.03,0.055,0.181,-9.065,-2.222,3.08
52005870,-0.958,0.061,0.216,-5.232,-1.872,2.17
52005870,-0.954,0.076,0.21,-2.012,1.977,5.11
52005890,-0.991,0.096,0.193,-1.242,6.09,7.385
52005890,-1.036,0.093,0.167,-0.805,6.317,6.37
52005910,-1.046,0.079,0.151,0.84,3.22,3.22
52005910,-1.053,0.072,0.145,4.042,-2.012,0.157
52005920,-1.052,0.077,0.149,7.14,-8.75,-3.255
52005930,-1.039,0.07,0.141,10.237,-15.505,-6.58
52005940,-1.054,0.041,0.108,12.722,-26.67,-11.025
52005950,-0.91,0.061,0.236,15.89,-36.662,-14.525
52005960,-0.915,0.124,0.293,19.18,-24.955,-8.417
52005970,-0.942,0.119,0.277,14.717,-10.727,-4.795
52005980,-0.952,0.088,0.247,9.712,-4.935,-3.115
52005990,-0.954,0.084,0.242,7.192,-2.327,-0.297
52006000,-0.994,0.08,0.231,4.812,0.385,2.327
52006010,-0.979,0.099,0.242,2.502,0.665,2.397
52006020,-0.98,0.103,0.216,-1.872,2.642,1.767
52006030,-0.969,0.057,0.207,-6.212,1.155,0.84
52006040,-0.927,0.064,0.23,-6.457,1.05,3.5
52006050,-0.989,0.091,0.228,-7.087,2.73,7.63
52006060,-1.008,0.107,0.223,-8.242,4.182,7.402
52006070,-0.973,0.107,0.24,-8.522,5.32,5.932
52006080,-0.932,0.118,0.297,-10.342,9.187,6.632
52006090,-1.072,0.163,0.205,-14,19.967,9.485
52006100,-1.106,0.082,0.156,-17.727,11.637,2.957
52006110,-0.96,-0.008,0.136,-17.272,0.7,-4.497
52006120,-0.945,0.016,0.172,-12.355,-0.28,-0.647
52006130,-1.05,0.08,0.156,-8.312,2.135,4.305
52006140,-1.086,0.065,0.132,-5.512,-4.305,0.437
52006150,-0.904,0.066,0.202,-1.365,-9.45,-4.182
52006160,-0.942,0.095,0.231,2.957,-3.29,1.837
52006170,-1.03,0.089,0.198,0.98,0.717,3.937
52006180,-1.037,0.078,0.169,2.152,0.56,1.995
52006190,-1.035,0.073,0.153,4.445,-3.57,-0.647
52006200,-1.02,0.051,0.12,6.545,-8.575,-3.552
52006210,-1.025,0.057,0.105,8.96,-11.865,-5.635
52006220,-1.103,0.049,0.106,12.162,-22.82,-9.082
52006230,-0.951,0.061,0.224,16.835,-37.555,-14.49
52006240,-0.866,0.11,0.303,20.825,-30.712,-10.71
52006250,-0.953,0.118,0.291,17.062,-15.015,-4.48
52006260,-0.994,0.088,0.251,12.512,-11.532,-3.307
52006260,-0.911,0.082,0.271,11.2,-8.47,-2.485
52006280,-0.978,0.089,0.244,9.362,-1.82,2.047
52006280,-0.97,0.119,0.263,5.985,2.712,3.115
52006300,-1.039,0.106,0.231,1.05,3.64,1.627
52006300,-0.947,0.058,0.216,-3.517,0.735,-1.995
52006320,-0.901,0.05,0.241,-4.165,0.752,1.4
52006320,-0.933,0.083,0.253,-6.405,4.235,7.42
52006330,-0.985,0.106,0.24,-9.012,7.297,10.447
52006340,-0.995,0.109,0.252,-10.587,7.332,10.36
52006350,-0.963,0.102,0.245,-11.795,6.177,10.062
52006360,-1.042,0.146,0.193,-14.91,17.255,11.357
52006370,-1.279,0.106,0.032,-17.832,8.68,4.077
52006380,-1.059,-0.014,0.054,-14,-16.94,-14.28
52006390,-0.944,0.002,0.194,-4.112,-29.995,-16.992
52006400,-0.956,0.09,0.236,1.89,-27.247,-10.727
52006410,-0.958,0.062,0.265,-0.402,-24.5,-9.152
52006420,-0.888,0.059,0.285,0.122,-15.575,-5.862
52006430,-0.921,0.07,0.276,1.26,-5.04,1.242
52006440,-0.998,0.072,0.213,1.26,4.06,5.95
52006450,-1.029,0.061,0.156,2.275,7.385,5.372
52006460,-1.043,0.063,0.114,2.712,6.457,1.207
52006470,-1.063,0.055,0.108,6.09,3.062,-3.045
52006480,-1.12,0.033,0.17,10.692,-13.002,-8.977
52006490,-0.876,0.089,0.305,16.292,-27.212,-12.075
52006500,-0.843,0.145,0.342,16.152,-14.91,-4.83
52006510,-1.004,0.089,0.261,6.842,-4.34,-0.84
52006520,-0.976,0.052,0.22,4.97,-3.272,-0.805
52006530,-0.964,0.061,0.245,7.175,-3.045,1.19
52006540,-0.94,0.08,0.274,7.42,-2.03,2.887
52006550,-0.929,0.116,0.278,6.107,5.897,5.757
52006560,-1.053,0.099,0.196,0.42,10.255,6.44
52006570,-1.037,0.061,0.191,-1.26,4.06,2.222
52006580,-0.963,0.083,0.222,1.26,-0.385,1.172
52006580,-0.967,0.085,0.225,-1.277,-1.4,1.522
52006600,-0.954,0.062,0.224,-4.252,-2.03,1.61
52006600,-0.939,0.068,0.241,-5.092,-1.172,4.06
52006620,-0.973,0.079,0.24,-6.667,-0.595,7.157
52006620,-0.977,0.108,0.28,-8.417,0.49,8.522
52006640,-0.989,0.149,0.287,-11.83,9.625,10.29
52006640,-1.143,0.113,0.129,-16.082,10.937,8.33
52006660,-1.034,0.004,0.094,-17.885,-6.545,-3.237
52006660,-1.018,-0.004,0.12,-12.337,-15.872,-6.282
52006670,-1.054,0.1,0.182,-3.972,-23.747,-4.795
52006680,-1.039,0.109,0.208,-4.34,-31.5,-8.225
52006690,-0.974,0.047,0.251,-7.105,-36.837,-12.757
52006700,-0.94,0.035,0.259,-2.887,-31.745,-7.892
52006710,-0.977,0.075,0.261,1.365,-25.322,-2.135
52006720,-0.998,0.061,0.228,2.205,-20.562,-2.485
52006730,-0.979,0.039,0.211,5.565,-16.852,-3.412
52006740,-0.965,0.047,0.23,10.29,-12.145,-3.482
52006750,-1.005,0.037,0.24,13.055,-13.387,-5.25
52006760,-0.885,0.032,0.282,17.377,-12.862,-5.495
52006770,-0.844,0.12,0.37,21.455,1.312,-0.052
52006780,-0.891,0.135,0.357,15.05,10.78,6.037
52006790,-0.968,0.069,0.252,5.81,15.032,9.695
52006800,-1.02,0.063,0.198,3.027,15.837,11.2
52006810,-1.07,0.093,0.191,5.04,11.41,10.307
52006820,-1.069,0.079,0.186,5.337,2.905,4.165
52006830,-0.998,0.078,0.224,7,-4.182,-0.77
52006840,-0.963,0.099,0.263,7.402,-5.775,-1.487
52006850,-0.995,0.091,0.239,4.357,-4.305,-1.505
52006860,-0.957,0.068,0.255,2.257,-4.322,-2.712
52006870,-0.917,0.084,0.271,2.082,-1.05,-0.542
52006880,-0.932,0.083,0.265,-0.997,3.412,2.607
52006890,-0.967,0.073,0.24,-3.955,6.37,4.847
52006900,-1.004,0.076,0.223,-4.742,6.002,5.74
52006910,-1.012,0.082,0.217,-4.322,3.447,4.847
52006920,-1.006,0.08,0.214,-4.217,-0.245,2.975
52006930,-0.99,0.082,0.223,-4.76,-3.552,1.47
52006940,-0.975,0.08,0.243,-5.477,-5.512,0.927
52006950,-0.977,0.092,0.26,-6.737,-3.675,1.645
52006960,-1.039,0.112,0.206,-8.837,-1.417,1.435
52006970,-1.049,0.091,0.197,-10.762,-7.227,-3.36
52006980,-1.002,0.064,0.205,-10.307,-13.65,-7.997
52006990,-0.974,0.042,0.24,-8.015,-15.855,-8.61
52007000,-0.943,0.075,0.248,-5.162,-12.075,-6.16
52007010,-0.983,0.069,0.241,-5.302,-8.785,-4.69
52007010,-0.976,0.014,0.257,-6.527,-11.305,-5.407
52007030,-0.91,0.039,0.271,-1.172,-8.61,-0.385
52007030,-0.954,0.081,0.269,3.167,-2.922,4.795
52007050,-1.014,0.087,0.248,3.85,1.295,5.425
52007050,-1.021,0.096,0.241,5.127,2.52,3.57
52007070,-1.035,0.073,0.208,5.127,1.89,0.42
52007070,-1.027,0.02,0.2,7.28,-4.147,-3.692
52007080,-0.885,0.047,0.273,12.775,-6.632,-3.902
52007090,-0.85,0.098,0.298,14.21,2.362,2.205
52007100,-0.972,0.078,0.274,10.36,11.62,7.735
52007110,-0.975,0.076,0.244,10.115,14.122,10.185
52007120,-1.008,0.092,0.226,14.91,14.577,14.315
52007130,-1.022,0.089,0.206,11.025,10.797,11.322
52007140,-1.052,0.092,0.18,8.662,7.367,7.787
52007150,-1.038,0.076,0.193,7.752,-1.172,2.782
52007160,-0.974,0.091,0.244,7.542,-6.387,-0.42
52007170,-0.961,0.116,0.255,4.165,-6.492,-0.595
52007180,-0.97,0.089,0.239,-1.522,-6.16,-1.137
52007190,-0.945,0.064,0.227,-3.885,-6.16,-0.997
52007200,-0.957,0.069,0.226,-3.15,-5.547,1.89
52007210,-0.998,0.087,0.226,-2.747,-6.037,3.535
52007220,-1.004,0.098,0.234,-2.922,-7.245,2.38
52007230,-0.98,0.095,0.24,-4.077,-8.54,0.647
52007240,-0.965,0.095,0.256,-5.635,-8.82,0.787
52007250,-0.993,0.14,0.259,-8.172,-6.912,1.54
52007260,-1.001,0.157,0.233,-13.842,-6.51,-1.697
52007270,-1.014,0.12,0.213,-20.79,-9.922,-6.947
52007280,-1.07,0.085,0.181,-23.03,-14.682,-11.025
52007290,-1.057,0.052,0.2,-20.247,-21.542,-15.837
52007300,-0.998,0.028,0.243,-15.067,-26.267,-16.782
52007310,-0.938,0.031,0.289,-10.377,-25.025,-13.72
52007320,-0.858,0.033,0.334,-8.172,-19.127,-9.537
52007330,-0.805,0.02,0.35,-6.65,-5.617,-2.31
52007330,-0.856,0.058,0.306,-5.53,11.83,7.875
52007350,-0.999,0.057,0.24,-7.49,21.77,14.332
52007350,-1.073,0.052,0.188,-5.757,21.857,14.262
52007370,-1.111,0.066,0.167,-0.805,14.227,10.255
52007370,-1.116,0.071,0.166,2.887,1.137,2.765
52007390,-1.062,0.066,0.178,6.877,-10.85,-4.882
52007390,-0.995,0.034,0.213,10.272,-19.792,-9.852
52007410,-0.9,0.025,0.278,12.792,-22.557,-9.712
52007410,-0.859,0.069,0.325,15.242,-15.697,-3.167
52007420,-0.851,0.113,0.349,12.565,-2.975,4.182
52007430,-0.982,0.084,0.247,6.37,8.925,10.15
52007440,-1.043,0.021,0.223,3.657,6.195,9.485
52007450,-0.94,0.091,0.273,9.222,4.007,9.782
52007460,-0.973,0.147,0.272,7.577,7.927,11.007
52007470,-1.041,0.127,0.224,-0.28,7.752,7
52007480,-1.045,0.088,0.212,-4.147,1.715,0.962
52007490,-0.984,0.079,0.233,-3.412,-3.692,-2.31
52007500,-0.954,0.094,0.248,-2.992,-4.97,-2.327
52007510,-0.946,0.093,0.277,0.017,-3.167,0.647
52007520,-0.96,0.062,0.26,-5.617,0.455,-1.137
52007530,-0.928,0.079,0.272,-7.525,4.217,0.402
52007540,-0.967,0.091,0.258,-5.775,4.637,5.162
52007550,-0.963,0.075,0.242,-8.977,6.86,4.742
52007560,-1.036,0.077,0.23,-12.652,6.632,3.64
52007570,-0.991,0.085,0.246,-9.502,3.202,2.852
52007580,-1.041,0.124,0.161,-12.075,10.115,1.242
52007590,-1.133,0.069,0.13,-16.17,-3.237,-5.862
52007600,-1.032,0.02,0.197,-12.565,-19.39,-14.402
52007610,-0.955,0.034,0.246,-5.425,-22.05,-13.72
52007620,-0.922,0.063,0.267,-2.1,-17.955,-9.66
52007630,-0.952,0.051,0.284,-2.817,-12.95,-5.775
52007640,-0.954,0.033,0.266,-3.885,-9.712,-2.87
52007650,-0.939,0.035,0.263,-1.295,-6.842,0.927
52007660,-0.951,0.079,0.265,1.645,-2.327,4.2
52007670,-0.986,0.09,0.245,1.277,1.732,4.83
52007680,-1.028,0.061,0.215,0.052,1.312,2.852
52007690,-1.014,0.058,0.21,2.835,-0.192,1.137
52007700,-0.976,0.07,0.217,6.177,-1.137,0.297
52007710,-0.978,0.065,0.237,7.805,1.68,0.42
52007720,-0.94,0.06,0.259,8.067,4.987,0.997
52007730,-0.844,0.045,0.263,9.03,13.422,4.795
52007740,-0.943,0.054,0.365,9.152,22.452,13.055
52007750,-0.928,0.108,0.346,7.035,25.935,18.655
52007750,-0.841,0.09,0.312,2.66,36.82,22.627
52007760,-0.911,0.059,0.254,-2.677,49.087,29.225
52007770,-0.953,0.066,0.229,-3.062,55.877,34.965
52007780,-0.956,0.093,0.213,-1.82,61.215,38.36
52007790,-0.923,0.118,0.161,-2.17,67.462,40.652
52007800,-0.933,0.124,0.154,2.677,79.45,47.582
52007810,-1.062,0.138,0.122,3.465,80.325,49
52007820,-1.071,0.164,0.123,2.782,74.777,42.595
52007830,-1.072,0.16,0.102,2.607,64.925,35.472
52007840,-1.069,0.161,0.078,1.067,53.777,28.087
52007850,-1.081,0.154,0.056,0.822,42.035,22.295
52007860,-1.093,0.15,0.05,2.17,30.887,16.73
52007870,-1.077,0.152,0.055,3.78,20.335,11.025
52007880,-1.054,0.15,0.058,4.252,10.797,5.95
52007890,-1.039,0.144,0.073,4.62,2.537,2.415
52007900,-1.031,0.142,0.073,3.92,-3.902,-0.682
52007910,-1.043,0.131,0.075,3.92,-9.835,-3.22
52007920,-1.031,0.137,0.082,3.955,-14.367,-6.002
52007930,-1.024,0.135,0.105,4.042,-17.202,-8.715
52007940,-0.977,0.137,0.116,3.167,-17.99,-10.5
52007950,-0.971,0.121,0.146,3.342,-15.137,-8.732
52007960,-0.954,0.126,0.162,1.207,-11.112,-6.142
52007970,-0.949,0.121,0.155,-1.155,-5.005,-2.607
52007980,-0.956,0.116,0.149,-2.117,1.732,1.732
52007990,-0.961,0.123,0.144,-2.572,8.015,6.195
52008000,-0.972,0.13,0.13,-3.22,12.95,9.625
52008010,-0.99,0.136,0.114,-3.5,16.17,11.935
52008020,-1.008,0.148,0.111,-2.975,17.08,13.142
52008030,-1.009,0.16,0.102,-3.675,16.502,12.057
52008040,-1.013,0.155,0.087,-4.077,14.735,10.552
52008050,-1.033,0.154,0.075,-3.832,12.057,8.925
52008060,-1.017,0.157,0.076,-3.342,8.225,6.737
52008070,-1.016,0.157,0.077,-3.115,5.057,5.197
52008080,-1.013,0.16,0.073,-3.482,2.327,3.377
52008080,-1.011,0.156,0.08,-4.077,0.56,1.557
52008100,-1.008,0.152,0.081,-4.305,-1.277,0.227
52008100,-1.01,0.148,0.083,-4.445,-2.485,-0.577
52008120,-0.997,0.148,0.092,-4.392,-3.132,-1.295
52008120,-0.988,0.149,0.105,-4.462,-2.117,-0.875
52008140,-0.992,0.146,0.108,-4.935,-0.945,0
52008140,-0.986,0.149,0.108,-5.547,0.857,0.98
52008160,-0.994,0.148,0.106,-5.932,1.802,2.152
52008160,-1.001,0.144,0.099,-6.702,2.31,2.52
52008170,-1.006,0.14,0.084,-6.737,1.872,2.467
52008180,-1.005,0.139,0.085,-6.02,2.1,2.485
52008190,-0.996,0.147,0.099,-5.11,2.502,2.922
52008200,-1.002,0.149,0.094,-5.215,3.377,3.377
52008210,-1.009,0.15,0.093,-5.372,3.167,3.412
52008220,-1.006,0.144,0.078,-5.407,2.135,3.097
52008230,-1.004,0.148,0.07,-4.882,1.33,2.852
52008240,-1.007,0.152,0.071,-4.2,0.77,2.467
52008250,-1.009,0.15,0.07,-3.727,-0.455,1.802
52008260,-1.01,0.147,0.069,-3.237,-1.68,1.417
52008270,-1.017,0.146,0.065,-2.345,-3.237,0.945
52008280,-1.002,0.15,0.06,-1.592,-4.445,0.122
52008290,-0.995,0.152,0.074,-1.557,-4.48,-0.822
52008300,-1.01,0.157,0.084,-1.715,-4.497,-1.207
52008310,-0.999,0.15,0.087,-2.03,-4.725,-2.03
52008320,-1,0.144,0.086,-1.925,-4.672,-1.802
52008330,-0.995,0.146,0.091,-1.645,-4.34,-1.207
52008340,-0.995,0.147,0.096,-1.767,-3.727,-0.682
52008350,-0.998,0.153,0.105,-2.082,-2.677,-0.122
52008360,-0.999,0.145,0.086,-2.117,-3.237,0.367
52008370,-0.99,0.137,0.086,-2.607,-1.96,0.542
52008380,-1,0.149,0.092,-2.677,-1.085,1.522
52008390,-1.009,0.15,0.094,-2.502,-1.032,2.012
52008400,-1.008,0.15,0.091,-2.677,-1.82,1.68
52008410,-1,0.147,0.088,-2.572,-2.292,1.575
52008420,-1.008,0.15,0.087,-2.817,-3.045,1.522
52008420,-1.006,0.147,0.08,-2.992,-3.972,1.102
52008440,-1.003,0.149,0.081,-3.01,-4.987,0.455
52008440,-1.002,0.146,0.071,-2.765,-5.092,0.315
52008460,-1.009,0.149,0.08,-2.327,-5.337,0.052
52008460,-1.011,0.149,0.082,-1.977,-5.775,-0.525
52008480,-0.998,0.148,0.087,-1.627,-6.3,-1.155
52008480,-0.995,0.146,0.09,-1.627,-5.39,-1.137
52008500,-1.001,0.144,0.092,-1.68,-5.355,-0.945
52008500,-1.001,0.145,0.094,-1.645,-5.145,-0.647
52008510,-0.995,0.146,0.097,-1.697,-5.215,-0.472
52008520,-0.996,0.149,0.101,-2.012,-4.182,-0.07
52008530,-0.998,0.147,0.102,-2.45,-3.255,0.262
52008540,-1.003,0.142,0.099,-2.835,-2.537,0.7
52008550,-1.001,0.141,0.091,-2.8,-2.852,0.945
52008560,-0.996,0.139,0.092,-2.695,-2.677,1.312
52008570,-0.996,0.143,0.098,-2.625,-2.397,1.767
52008580,-1.014,0.143,0.104,-2.887,-2.31,2.17
52008590,-1.008,0.137,0.11,-3.377,-3.36,1.837
52008600,-1.004,0.124,0.111,-4.55,-4.305,1.837
52008610,-1.011,0.111,0.12,-6.23,-5.442,2.257
52008620,-1.022,0.099,0.13,-8.067,-6.772,3.062
52008630,-1.008,0.086,0.133,-10.412,-8.102,3.867
52008640,-1.006,0.063,0.13,-13.545,-7.7,5.46
52008650,-1.016,0.052,0.129,-16.362,-7.105,8.137
52008660,-1.027,0.035,0.133,-18.077,-6.002,11.34
52008670,-1.054,0.01,0.099,-21.087,-6.09,12.39
52008680,-1.01,0.04,0.093,-20.23,-6.737,14
52008690,-1.016,0.106,0.09,-20.335,-5.862,14.297
52008700,-1.014,0.086,0.034,-23.205,-4.007,10.535
52008710,-1.032,0.094,0.036,-14.07,-3.745,11.27
52008720,-1.032,0.093,0.001,-7.07,-3.395,7.665
52008730,-0.923,0.09,-0.009,8.382,0.017,-7.997
52008740,-0.869,0.235,0.063,31.202,9.922,-28.367
52008750,-0.966,0.284,0.103,31.447,15.452,-27.405
52008760,-1,0.272,0.121,20.125,11.252,-17.64
52008770,-0.999,0.288,0.131,10.027,5.46,-7.525
52008780,-1.029,0.235,0.102,0.42,-0.105,-0.472
52008790,-1.036,0.195,0.073,-3.272,-4.375,0.052
52008800,-1.039,0.172,0.043,-1.347,-7.857,-1.312
52008810,-1.025,0.156,0.036,2.467,-9.38,-4.235
52008820,-1.022,0.138,0.035,5.687,-11.13,-6.352
52008830,-1.019,0.116,0.038,7.77,-12.302,-6.965
52008830,-1.036,0.094,0.034,10.657,-14.752,-7.297
52008850,-1.025,0.085,0.051,15.242,-16.607,-9.695
