time[ms],accX[g],accY[g],accZ[g],Value 1,Value 2,Value 3
41098560,0.331,-0.37,0.803,-23.17,-3.08,-40.582
41098570,0.386,-0.452,1.066,-28.367,13.02,-19.477
41098580,0.298,-0.301,1.193,-40.39,22.89,-16.765
41098590,0.425,-0.194,1.261,-64.977,38.587,-10.552
41098600,0.468,-0.088,1.426,-98.245,60.357,-2.712
41098610,0.537,-0.231,1.527,-148.942,87.745,4.322
41098620,0.563,-0.235,1.442,-203,114.957,1.627
41098630,0.228,-0.161,1.437,-253.925,143.815,2.782
41098640,-0.275,-0.208,1.304,-294.595,147.07,-9.45
41098650,-0.116,-0.502,1.07,-324.73,127.225,-33.635
41098660,0.378,-0.797,1.042,-335.895,141.347,-33.477
41098670,0.425,-1.046,1.097,-321.79,206.57,-2.695
41098680,0.632,-1.778,0.829,-294.14,281.487,23.572
41098690,1.498,-1.998,1.121,-266.227,326.112,-38.412
41098700,0.406,-1.998,0.838,-154.56,344.54,-167.877
41098710,1.492,-1.998,0.34,8.645,314.282,-242.48
41098720,0.457,-1.926,0.209,188.09,252.332,-290.237
41098730,-0.574,-1.337,0.095,296.73,178.762,-349.44
41098740,-0.835,-0.839,-0.06,328.755,75.792,-347.567
41098750,-0.692,-0.668,-0.487,334.635,-14.892,-309.907
41098760,-0.838,-0.531,-0.943,338.835,-76.352,-250.39
41098770,-1.213,-0.325,-1.27,327.512,-119.157,-217.052
41098780,-0.584,-0.011,-1.442,291.112,-104.352,-185.307
41098790,-0.118,0.272,-1.33,220.115,-24.955,-117.915
41098800,-0.657,0.096,-1.02,114.73,56.245,-40.6
41098810,-1.118,-0.257,-0.574,9.975,90.37,31.36
41098820,-1.147,-0.673,-0.19,-60.06,78.592,127.312
41098830,-0.861,-1.047,0.069,-77.752,32.217,226.047
41098830,-0.724,-1.213,0.203,-52.797,-33.582,304.745
41098850,-0.631,-1.146,0.114,-23.817,-102.69,351.155
41098850,-0.129,-0.86,-0.007,-22.697,-149.817,361.952
41098870,0.528,-0.639,-0.144,-52.045,-151.917,354.62
41098870,1.197,-0.588,-0.093,-83.72,-97.877,339.29
41098890,1.271,-0.661,0.12,-116.602,-7.227,306.547
41098890,0.756,-0.803,0.433,-132.317,70.717,242.97
41098910,0.055,-0.809,0.655,-127.172,99.907,168.21
41098910,-0.395,-0.479,0.513,-107.555,70.612,92.61
41098920,-0.013,0.333,0.238,-85.452,18.777,18.515
41098930,0.594,0.745,-0.351,-70.787,-2.87,-42.7
41098940,0.37,0.413,1.361,46.305,-37.065,-91.455
41098950,-1.395,-1.9,0.762,312.41,-79.485,32.585
41098960,-1.771,-1.326,0.525,502.967,-306.81,11.042
41098970,1.263,1.661,1.212,484.575,-273.542,-181.055
41098980,0.014,1.292,1.986,434.805,-242.655,-231.315
41098990,1.382,-0.4,1.998,264.687,-233.835,-179.602
41099000,1.883,1.91,1.987,101.377,-151.322,-125.72
41099010,0.701,-0.21,1.501,-128.695,-33.11,-4.515
41099020,-0.261,-0.862,0.453,-164.605,-16.52,44.52
41099030,-0.318,-0.974,0.131,-106.61,-26.285,10.622
41099040,-0.485,-0.709,0.463,-8.12,22.575,-2.047
41099050,0.417,-0.628,1.051,-9.502,8.032,-59.955
41099060,0.783,-0.025,1.114,-35.245,15.522,-54.337
41099070,0.685,-0.173,1.18,-58.887,28.63,-27.405
41099080,0.695,-0.253,1.214,-85.82,34.037,17.5
41099090,0.506,-0.128,1.453,-116.865,46.795,43.417
41099100,0.349,-0.016,1.714,-160.265,58.887,57.05
41099110,0.174,0.046,1.768,-224.822,70.07,64.155
41099120,0.014,-0.022,1.66,-290.937,76.615,63.297
41099130,-0.387,-0.034,1.762,-341.53,69.335,54.495
41099140,-0.919,-0.156,1.766,-379.172,25.637,36.382
41099150,-0.656,-0.794,1.698,-404.215,-21.7,24.255
41099160,-0.441,-1.681,1.595,-414.715,-4.41,49.087
41099170,-0.317,-1.998,1.249,-377.37,18.392,77.07
41099170,-0.438,-1.998,0.432,-283.902,21.525,54.617
41099190,-1.6,-1.998,-0.321,-191.03,-1.19,22.19
41099190,-1.588,-1.961,-0.088,-74.707,-86.467,6.387
41099210,-0.287,-1.149,-0.108,82.932,-146.055,48.282
41099210,0.121,-0.313,-0.048,182.542,-127.82,136.57
41099230,0.403,-0.153,-0.09,180.81,-79.205,156.065
41099230,0.27,-0.05,-0.095,164.377,-62.755,149.222
41099250,0.34,-0.04,-0.107,143.255,-62.965,139.212
41099250,0.67,-0.128,-0.045,119.735,-63.752,129.027
41099260,0.936,-0.114,0.014,92.155,-54.915,100.887
41099270,0.871,-0.044,0.004,64.75,-40.407,54.617
41099280,0.754,0.075,0.012,53.76,-27.457,10.465
41099290,0.634,0.245,0.051,55.492,-13.23,-26.127
41099300,0.475,0.339,0.085,53.322,3.395,-59.325
41099310,0.207,0.32,0.116,44.345,17.535,-78.54
41099320,-0.096,0.154,0.135,40.705,19.495,-76.912
41099330,-0.298,-0.042,0.17,50.207,5.635,-63.787
41099340,-0.599,-0.21,0.099,70.105,-23.17,-42.035
41099350,-0.76,-0.319,-0.074,100.292,-65.065,-17.85
41099360,-0.717,-0.307,-0.365,131.565,-106.26,12.862
41099370,-0.436,-0.128,-0.685,149.257,-127.207,47.285
41099380,-0.013,0.031,-0.989,141.557,-110.145,89.6
41099390,0.334,-0.118,-0.978,108.587,-60.812,135.695
41099400,0.59,-0.128,-1.066,29.487,27.195,181.195
41099410,0.642,-1.212,-0.736,24.237,107.31,222.442
41099420,0.493,-1.647,-0.771,38.92,156.327,211.05
41099430,-0.239,-0.933,-1.11,73.43,129.5,175.332
41099440,-0.235,0.36,-1.064,35.087,57.47,102.322
41099450,-1.42,-1.651,1.187,-77.717,-33.88,10.937
41099460,-1.998,-1.998,0.67,103.827,-372.61,48.16
41099470,0.972,0.739,0.179,551.442,-526.925,-60.025
41099480,-0.882,1.447,1.998,492.38,-296.397,-204.82
41099490,1.574,-1.213,1.963,238.332,-314.247,-130.06
41099500,1.998,1.993,1.994,209.79,-236.705,-171.15
41099510,0.894,-1.383,1.45,-258.912,-11.812,11.567
41099520,0.286,-0.247,0.544,-254.957,21.787,12.18
41099530,0.322,-1.263,0.026,-167.615,48.247,34.002
41099540,-0.337,-0.702,0.859,-52.22,34.457,11.69
41099550,0.542,-1.115,0.853,-117.687,32.987,-56.84
41099560,0.395,0.144,1.174,-99.487,75.652,-73.395
41099570,0.993,-0.043,1.415,-134.662,93.187,-37.467
41099580,1.033,-0.03,1.778,-187.337,105.507,10.01
41099580,0.553,0.317,1.691,-246.12,101.85,52.43
41099600,0.116,0.211,1.654,-318.43,94.29,85.12
41099600,-0.256,-0.024,1.73,-385.98,76.702,88.025
41099620,-0.177,-0.648,1.747,-431.55,69.72,81.865
41099620,-0.145,-1.766,1.443,-439.337,119.542,90.037
41099640,0.384,-1.998,1.098,-365.872,201.862,66.482
41099640,0.338,-1.998,0.387,-240.852,276.132,20.072
41099660,0.295,-1.998,0.161,-137.48,284.462,-82.04
41099660,0.101,-1.998,-0.012,-40.39,256.532,-167.965
41099670,0.317,-1.157,0.08,124.687,172.707,-187.547
41099680,-0.193,-0.404,0.281,200.147,123.025,-157.097
41099690,-0.332,-0.142,0.15,188.895,83.335,-125.002
41099700,-0.274,0.125,0.062,168.507,27.492,-111.545
41099710,-0.058,0.159,0.131,134.855,-1.085,-103.197
41099720,-0.022,0.039,0.114,111.51,-1.732,-91.892
41099730,-0.117,-0.071,0.123,107.73,-1.89,-93.467
41099740,-0.184,-0.115,0.132,114.012,-3.325,-92.382
41099750,-0.347,-0.109,0.096,128.642,-8.75,-73.745
41099760,-0.404,-0.071,0.03,137.48,-24.342,-51.415
41099770,-0.5,-0.112,0.046,147.682,-46.06,-20.3
41099780,-0.382,-0.086,-0.05,148.05,-69.702,2.975
41099790,-0.254,0.045,-0.13,143.43,-92.207,23.537
41099800,-0.069,0.14,-0.242,134.067,-102.777,42.56
41099810,0.141,0.168,-0.354,119.157,-99.015,56.437
41099820,0.222,0.123,-0.405,106.89,-84.14,73.43
41099830,0.26,0.121,-0.414,90.317,-64.487,90.072
41099840,0.212,0.113,-0.392,64.05,-47.74,98.525
41099850,0.06,-0.02,-0.365,32.182,-39.637,97.37
41099860,0,-0.157,-0.433,4.445,-40.022,86.607
41099870,0.103,-0.081,-0.484,-15.26,-35.91,81.532
41099880,0.134,0.063,-0.637,-41.877,-15.155,91.787
41099890,0.104,0.152,-0.907,-82.057,18.707,114.852
41099900,0.131,0.159,-1.049,-122.815,61.687,144.76
41099910,0.337,-0.207,-1.119,-190.347,103.145,144.112
41099920,0.198,-0.126,-0.551,-234.797,118.737,69.072
41099920,-1.934,-1.993,0.737,-28.77,-28.35,274.032
41099940,-1.998,-0.396,-0.312,447.212,-319.497,137.112
41099940,0.972,1.997,0.187,571.935,-364.105,-192.43
41099960,-1.189,-0.006,1.221,227.535,-276.255,-123.2
41099960,1.381,-0.352,1.722,145.897,-349.492,-171.85
41099980,1.969,1.568,1.72,200.935,-215.722,-197.102
41099980,0.362,-1.643,1.042,-204.645,33.53,60.847
41100000,-1.142,-0.741,0.558,-138.18,30.747,51.047
41100000,-0.282,-0.742,0.683,-84.56,-13.807,3.92
41100010,0.729,-0.593,0.824,-53.497,-23.922,-25.375
41100020,0.909,-0.13,1.224,-53.042,4.812,-7.98
41100030,1.023,-0.092,1.086,-73.64,53.235,15.47
41100040,-1.061,0.066,1.289,-81.515,53.077,52.5
41100050,0.691,-0.219,1.609,-157.64,42.105,22.312
41100060,0.699,-0.085,1.782,-224.052,115.605,38.43
41100070,0.208,0.199,1.881,-291.392,134.4,48.352
41100080,-0.249,0.443,1.854,-363.317,127.645,52.762
41100090,-0.725,0.052,1.805,-439.46,121.24,41.877
41100100,-0.633,-1.44,1.991,-497.42,132.632,21.28
41100110,-0.239,-1.998,1.198,-469.682,151.165,19.827
41100120,-0.114,-1.998,0.626,-323.487,117.425,4.987
41100130,-1.083,-1.998,-0.512,-212.572,99.89,-45.797
41100140,-1.566,-1.998,-0.641,-85.855,42.997,-95.655
41100150,-0.625,-1.182,-0.57,117.565,-58.222,-56.245
41100160,-0.151,-0.291,-0.27,200.095,-69.737,13.51
41100170,-0.214,-0.459,-0.255,160.632,-37.24,46.357
41100180,-0.265,-0.363,-0.323,113.627,-30.607,24.867
41100190,-0.326,-0.205,-0.271,95.287,-40.46,13.615
41100200,-0.021,-0.193,-0.232,73.972,-37.607,15.207
41100210,0.179,-0.291,-0.172,58.082,-15.837,19.425
41100220,0.161,-0.358,-0.168,65.817,8.942,27.212
41100230,0.233,-0.26,-0.13,80.482,26.897,35.122
41100240,0.194,-0.129,0.006,82.075,36.61,46.585
41100250,-0.287,-0.012,0.09,66.587,20.877,54.285
41100260,-0.582,0.203,0.093,54.425,-35.577,45.517
41100270,-0.241,0.351,0.042,44.817,-103.162,28.455
41100280,0.307,0.294,0.023,31.465,-143.64,15.645
41100290,0.7,0.124,-0.012,22.505,-145.25,3.797
41100300,0.722,0.017,-0.078,28.175,-119.052,-13.842
41100310,0.438,0.041,-0.137,46.637,-88.865,-38.587
41100320,0.065,0.16,-0.322,65.03,-75.215,-56.98
41100330,-0.111,0.353,-0.524,63.822,-75.127,-60.987
41100330,-0.052,0.334,-0.681,31.43,-70.052,-41.65
41100350,-0.028,-0.014,-0.763,-17.43,-49.717,3.745
41100350,-0.125,-0.371,-0.724,-54.512,-31.377,56.542
41100370,-0.314,-0.591,-0.869,-73.797,-30.1,105.49
41100370,-0.295,-0.27,-1.024,-77.98,-53.095,139.317
41100390,-0.057,-0.1,-1.137,-87.675,-76.755,164.762
41100390,0.405,-1.194,-1.227,-166.337,-68.005,161.28
41100410,1.183,-1.694,1.697,35.192,-96.162,117.635
41100410,0.485,-1.998,0.275,426.965,-173.057,-2.24
41100420,0.254,1.092,0.211,572.565,-224.945,-105.665
41100430,-0.897,1.945,1.456,541.59,-69.702,-96.267
41100440,-0.708,-1.142,1.998,257.18,-54.267,-35.472
41100450,-0.048,0.947,1.998,211.89,-137.882,-111.685
41100460,1.39,1.521,1.62,-67.515,-161.175,-134.662
41100470,1.084,-0.797,1.134,-272.702,-38.465,-60.567
41100480,-0.799,0.251,-0.095,-136.972,44.485,-68.232
41100490,0.679,-1.979,0.234,-190.627,26.915,-96.88
41100500,1.204,-0.145,0.528,-142.537,84.822,-105.805
41100510,1.299,-0.006,0.498,-118.667,95.812,-62.562
41100520,1.391,-0.686,0.936,-120.715,104.825,33.67
41100530,1.016,-0.19,1.168,-119.997,86.8,91.945
41100540,0.597,0.016,1.452,-147.035,75.985,142.695
41100550,-0.024,-0.272,1.569,-202.772,71.12,158.707
41100560,-0.523,-0.411,1.652,-260.452,51.38,156.345
41100570,-0.743,-0.233,1.898,-312.34,32.392,131.967
41100580,-0.463,-0.436,1.727,-350.875,57.26,104.667
41100590,-0.259,-1.516,1.235,-366.66,134.575,75.705
41100600,0.966,-1.998,0.882,-327.652,230.317,0.77
41100610,0.391,-1.998,-0.02,-242.2,347.235,-51.327
41100620,-0.496,-1.998,-0.714,-162.995,371.77,-188.125
41100630,0.502,-1.998,-0.645,-37.345,313.11,-253.435
41100640,-0.762,-1.532,-0.247,108.64,223.352,-233.31
41100650,-1.545,-0.411,-0.36,170.87,93.467,-175.105
41100660,-0.975,0.026,-0.434,164.307,-46.147,-64.872
41100670,-0.153,-0.169,-0.379,110.827,-117.232,49.245
41100670,-0.045,-0.418,-0.284,79.887,-149.082,121.887
41100690,0.029,-0.291,-0.226,77.297,-173.11,139.51
41100690,0.208,-0.028,-0.251,66.535,-189.542,130.252
41100710,0.375,0.062,-0.259,37.52,-191.45,124.302
41100710,0.376,0,-0.374,-0.612,-190.925,120.33
41100730,0.501,0.028,-0.458,-23.992,-200.655,107.905
41100730,0.824,0.113,-0.366,-48.51,-195.107,99.155
41100750,0.896,0.025,-0.175,-89.127,-166.74,90.72
41100750,0.717,-0.241,0.216,-122.377,-135.327,74.69
41100760,0.43,-0.747,0.55,-128.257,-114.747,57.662
41100770,-0.127,-0.921,0.816,-92.925,-128.992,35.28
41100780,-0.432,-0.782,0.798,-41.527,-171.92,9.065
41100790,-0.346,-0.509,0.539,12.425,-215.985,-5.67
41100800,-0.155,-0.132,0.195,61.215,-245.105,-12.53
41100810,-0.025,0.521,-0.214,96.075,-242.182,-16.747
41100820,-0.166,1.45,-0.607,105.49,-203.542,-11.725
41100830,-0.627,1.887,-0.597,50.242,-136.465,26.495
41100840,-1.408,1.215,-0.43,-66.972,-75.39,77.805
41100850,-1.654,0.122,0.051,-157.64,-51.082,76.755
41100860,-1.392,1.651,-0.527,-30.695,-89.407,32.97
41100870,0.308,-0.044,1.526,240.082,-277.9,155.645
41100880,0.606,-1.998,1.418,428.295,131.67,276.797
41100890,-1.872,0.677,-1.467,558.477,-144.707,-83.16
41100900,1.846,1.997,1.998,550.987,97.527,-7.14
41100910,-1.301,-0.799,1.113,203.14,23.695,154.682
41100920,1.112,-0.027,1.989,435.697,-20.23,47.39
41100930,-1.706,0.61,1.998,346.255,11.742,52.517
41100940,-1.024,1.185,1.959,23.642,15.137,30.38
41100950,0.8,0.281,1.663,-150.71,-39.235,-52.657
41100960,1.018,-0.543,0.711,-256.987,-4.235,-17.675
41100970,-0.406,-0.408,0.563,-199.15,36.627,20.125
41100980,0.099,-0.946,0.562,-190.925,30.712,19.985
41100990,-0.066,-0.635,0.786,-171.5,32.882,28.367
41101000,0.008,-0.328,1.064,-171.185,40.18,13.177
41101010,0.256,-0.301,1.221,-190.942,50.662,1.837
41101020,0.577,-0.157,1.261,-226.065,65.222,3.045
41101030,0.649,0.009,1.235,-262.57,68.582,18.935
41101040,0.806,-0.213,1.614,-310.38,72.205,51.747
41101050,0.712,-0.442,1.636,-364.735,82.547,95.602
41101060,1.226,-1.162,1.738,-396.305,92.137,121.835
41101070,0.327,-1.755,1.087,-390.775,137.375,151.69
41101080,1.526,-1.556,1.233,-351.155,133.77,112.385
41101080,0.687,-1.998,0.496,-290.762,196.682,100.975
41101100,-0.569,-1.993,-0.057,-221.725,118.142,-6.055
41101100,1.552,-1.979,0.295,-144.865,12.705,-132.037
41101120,0.574,-1.78,0.551,3.99,30.31,-157.115
41101120,-0.998,-0.874,0.252,107.222,6.79,-248.045
41101130,-1.272,0.064,0.237,147.14,-70.21,-236.687
41101140,-0.923,0.015,0.221,139.317,-110.442,-140.647
41101150,-0.605,-0.219,0.158,125.422,-128.012,-60.095
41101160,-0.405,-0.206,0.134,137.392,-127.96,-11.287
41101170,-0.493,-0.072,0.058,153.177,-113.26,35.087
41101180,-0.627,0.094,-0.075,157.045,-113.837,56.717
41101190,-0.514,0.366,-0.124,142.975,-127.645,45.78
41101200,-0.169,0.491,-0.122,113.032,-126.297,31.727
41101210,0.108,0.382,0.019,80.692,-96.39,29.242
41101220,0.22,0.179,0.181,63.07,-47.197,25.847
41101230,-0.027,0.038,0.286,68.6,-2.852,17.29
41101240,-0.369,0.024,0.297,92.015,14.192,4.112
41101250,-0.484,-0.004,0.211,121.625,8.417,-3.272
41101260,-0.424,-0.015,0.057,150.832,-6.335,1.627
41101270,-0.282,0.01,-0.114,170.87,-15.54,12.53
41101280,-0.171,0.075,-0.349,175.682,-10.237,22.382
41101290,-0.141,0.275,-0.454,158.55,7.087,30.152
41101300,-0.325,0.236,-0.435,110.547,28.542,44.922
41101310,-0.495,-0.067,-0.412,54.652,32.042,56.892
41101320,-0.395,-0.278,-0.393,19.197,15.54,60.042
41101330,0.008,-0.459,-0.493,3.062,0.157,47.25
41101340,0.537,-0.68,-0.803,11.392,1.26,30.502
41101350,-1.167,-1.983,1.756,61.862,-28.84,103.862
41101360,-1.55,-1.998,-0.042,254.502,-72.782,196.91
41101370,1.561,0.945,-0.017,549.587,-313.39,-150.045
41101380,-1.6,1.997,0.699,552.177,-51.87,-131.25
41101390,-0.206,-0.993,1.972,150.447,-62.02,-81.532
41101400,0.275,-0.303,1.95,202.965,-146.142,-38.22
41101410,1.913,1.686,1.898,126.56,-157.657,-194.25
41101420,0.668,-1.42,1.035,-220.307,-21.682,0.945
41101420,0.46,-0.33,0.667,-189.245,12.617,-21.367
41101440,-0.311,-0.816,0.154,-134.732,71.61,-3.657
41101440,-0.302,-1.252,0.909,-53.567,67.795,-38.027
41101460,0.236,-0.523,0.866,-57.592,48.772,-59.097
41101460,0.551,-0.09,1.038,-69.772,44.257,-61.32
41101480,0.717,-0.239,1.301,-86.275,42.997,-16.607
41101480,0.544,-0.114,1.433,-119.822,45.902,13.09
41101500,0.462,0.079,1.579,-159.6,51.397,36.627
41101500,0.271,-0.072,1.584,-223.492,62.23,50.137
41101510,0.046,-0.078,1.577,-281.68,68.705,52.272
41101520,-0.348,0.031,1.545,-328.16,64.085,44.625
41101530,-0.386,0.046,1.511,-372.365,44.835,19.74
41101540,-0.07,-1.024,1.392,-420.927,58.94,8.312
41101550,0.203,-1.975,1.51,-410.13,122.587,9.205
41101560,0.62,-1.928,0.691,-320.547,198.117,1.347
41101570,0.497,-1.751,0.893,-253.277,269.01,-11.322
41101580,-0.125,-1.758,0.38,-204.05,274.61,-97.212
41101590,-0.673,-1.965,0.19,-167.37,231.787,-163.59
41101600,-0.58,-1.865,0.324,-58.327,162.382,-166.355
41101610,-0.588,-1.168,0.386,77.035,86.555,-134.417
41101620,-0.466,-0.563,0.255,177.1,41.842,-72.082
41101630,-0.294,-0.169,0.054,213.605,6.737,-20.702
41101640,-0.468,0.046,-0.006,215.302,-33.565,18.532
41101650,-0.514,0.242,-0.093,188.492,-81.69,35.385
41101660,-0.375,0.354,-0.21,153.02,-125.335,34.352
41101670,-0.043,0.506,-0.313,114.03,-151.427,23.31
41101680,0.321,0.54,-0.341,71.067,-140.437,20.107
41101690,0.492,0.411,-0.255,27.265,-93.117,22.47
41101700,0.296,0.13,-0.06,-8.137,-33.18,26.565
41101710,-0.047,-0.216,0.139,-25.13,12.075,28.735
41101720,-0.321,-0.42,0.297,-16.047,21.665,29.925
41101730,-0.433,-0.388,0.281,11.042,-3.062,33.127
41101740,-0.295,-0.212,0.144,35.455,-40.145,38.535
41101750,-0.042,-0.123,0.016,43.032,-64.89,47.547
41101760,0.106,-0.193,-0.073,32.147,-70.21,56.052
41101770,0.154,-0.411,-0.168,14.77,-61.652,59.027
41101780,0.238,-0.416,-0.255,-5.827,-49.367,64.015
41101790,-0.005,-0.668,-0.311,-18.637,-33.46,83.072
41101800,0.111,-0.713,-0.365,-15.907,-30.117,88.76
41101800,-0.176,-0.522,-0.349,-30.38,-32.725,109.742
41101820,-0.41,-0.169,-0.431,-44.8,-66.465,99.312
41101820,0.378,0.058,-0.231,-61.757,-93.66,69.195
41101830,1.226,0.003,-0.463,-89.425,-58.747,43.26
41101840,0.56,0.42,-0.355,-31.167,-27.09,-7.245
41101850,-1.516,-1.599,1.998,15.715,-145.88,-76.562
41101860,-0.547,-1.998,-0.821,281.33,-119.927,-3.727
41101870,1.405,0.866,-0.301,570.15,-231.245,-214.917
41101880,-1.07,1.997,1.423,488.687,86.502,-153.685
41101890,-0.016,-0.49,1.647,208.6,-37.992,-173.267
41101900,1.16,-1.748,1.998,201.6,-18.06,-80.237
41101910,-0.378,1.639,1.971,98.682,-26.057,-140.577
41101920,1.017,0.35,1.371,-26.6,-26.355,-103.145
41101930,0.594,-1.163,0.836,-86.187,-12.512,-23.922
41101940,0.55,-0.313,0.653,-73.517,-4.777,-25.847
41101950,0.604,-0.452,0.948,-75.722,21.385,-5.162
41101960,0.662,-0.313,1.292,-90.632,47.215,7.665
41101970,0.706,-0.005,1.414,-126.857,65.712,28.332
41101980,0.59,0.004,1.421,-183.907,82.897,54.355
41101990,0.346,-0.171,1.435,-241.762,92.19,69.23
41102000,0.019,-0.096,1.627,-295.802,86.275,70.945
41102010,0.117,-0.269,1.721,-361.515,79.642,62.37
41102020,0.416,-0.751,1.444,-400.872,110.792,61.635
41102030,0.363,-1.849,1.491,-402.097,199.71,58.31
41102040,-0.048,-1.998,0.832,-345.747,287.962,51.485
41102050,0.238,-1.925,0.558,-245.28,301.14,8.242
41102060,-0.613,-1.664,0.246,-183.12,252.56,-154.91
41102070,0.624,-1.998,-0.198,-83.002,209.107,-200.515
41102080,-0.129,-1.751,0.108,93.887,140.017,-201.04
41102090,-1.469,-0.805,0.047,184.432,72.922,-242.06
41102100,-1.48,-0.277,-0.232,203.367,-35.21,-183.417
41102110,-0.762,-0.28,-0.517,183.872,-127.435,-112.56
41102120,-0.152,-0.284,-0.61,136.447,-156.695,-70.91
41102130,-0.038,-0.289,-0.566,103.705,-140.262,-49.752
41102140,-0.236,-0.152,-0.528,83.527,-115.29,-48.265
41102150,-0.315,0.021,-0.516,54.95,-95.06,-65.625
41102160,-0.29,0.126,-0.473,18.252,-70.805,-68.932
41102170,-0.258,0.083,-0.359,-17.727,-38.78,-48.405
41102170,-0.29,-0.136,-0.201,-38.832,-10.657,-18.462
41102190,-0.218,-0.392,-0.095,-37.362,4.217,1.96
41102190,0.078,-0.423,0.009,-15.872,7.087,10.85
41102210,0.312,-0.375,0.088,5.775,4.672,11.83
41102210,0.391,-0.506,0.062,10.937,6.37,1.557
41102230,0.489,-0.544,-0.025,20.195,5.39,-16.257
41102230,0.469,-0.382,-0.143,37.8,-1.225,-31.447
41102250,0.419,-0.045,-0.308,28.35,-6.247,-41.965
41102250,0.169,0.001,-0.25,16.345,-15.032,-30.8
41102260,0.107,-0.018,-0.196,-9.275,-27.44,-16.432
41102270,-0.03,-0.067,-0.169,-19.407,-47.985,8.715
41102280,-0.122,0.21,-0.27,-19.915,-76.282,32.287
41102290,-0.045,0.203,-0.335,-13.86,-106.295,57.995
41102300,0.395,0.646,-0.156,25.217,-151.182,53.602
41102310,1.988,-1.17,1.998,135.905,-31.132,88.445
41102320,-0.047,-1.998,-0.079,393.575,137.007,182.875
41102330,-0.056,0.008,-1.212,570.062,-168.945,95.76
41102340,0.067,1.997,1.352,561.89,36.137,-14
41102350,-1.213,-0.012,1.998,385.507,-8.75,7.77
41102360,1.442,-0.12,1.998,293.912,20.65,-17.167
41102370,-0.128,1.997,1.998,218.19,-29.032,-77.577
41102380,-0.312,0.21,1.884,-104.667,-96.425,-42.56
41102390,0.621,-0.538,0.334,-174.475,-72.572,-57.085
41102400,-0.021,-0.623,0.498,-104.597,12.722,-70.962
41102410,1.182,-1.45,0.484,-128.975,12.547,-63.315
41102420,0.703,0.042,0.82,-107.852,38.937,-54.407
41102430,0.841,-0.095,1.084,-124.81,60.375,-24.937
41102440,0.858,-0.29,1.341,-159.25,81.165,21.962
41102450,0.747,-0.158,1.302,-193.48,81.742,54.145
41102460,0.553,-0.144,1.414,-237.265,87.517,79.835
41102470,-0.089,-0.188,1.836,-293.265,85.47,88.077
41102480,-0.642,-0.292,1.821,-350.63,51.887,75.67
41102490,-0.028,-0.854,1.668,-388.552,40.845,54.04
41102500,0.434,-1.724,1.473,-382.252,124.145,40.057
41102510,0.767,-1.998,0.679,-335.825,253.015,28.437
41102510,0.898,-1.998,0.508,-286.93,348.95,-37.642
41102530,-0.287,-1.998,-0.746,-194.985,321.667,-221.165
41102530,0.409,-1.929,-0.357,-30.555,259,-301.665
41102550,-0.847,-1.535,-0.17,84.717,220.955,-300.842
41102550,-1.677,-0.955,-0.132,155.627,144.567,-242.13
41102570,-1.425,-0.446,-0.242,215.565,49.087,-156.397
41102570,-0.862,-0.292,-0.255,228.48,-6.65,-90.982
41102580,-0.593,-0.311,-0.235,202.002,-12.967,-35.717
41102590,-0.823,-0.36,-0.21,183.067,-12.057,-5.425
41102600,-0.942,-0.259,-0.2,173.477,-23.117,-3.097
41102610,-0.827,-0.013,-0.185,154.21,-36.33,-0.315
41102620,-0.637,0.164,-0.142,120.925,-37.642,18.9
41102630,-0.504,0.15,-0.021,78.662,-26.25,52.202
41102640,-0.465,-0.05,0.082,44.257,-6.212,94.535
41102650,-0.24,-0.178,-0.031,33.092,8.68,132.387
41102660,0.63,0.227,0.12,49.997,22.505,166.075
41102670,0.28,0.481,0.094,39.672,21.98,192.15
41102680,0.257,0.452,-0.009,15.032,-6.492,183.995
41102690,0.94,0.258,0.021,-7.577,-32.777,155.102
41102700,1.378,0.02,0.088,-19.565,-36.697,111.755
41102710,1.186,-0.107,0.077,-15.645,-28.245,53.025
41102720,0.737,-0.192,-0.014,-5.67,-21.98,-10.937
41102730,0.384,-0.216,-0.142,1.242,-32.357,-58.012
41102740,0.316,-0.159,-0.301,-3.937,-56.227,-77.577
41102750,0.423,-0.065,-0.491,-27.09,-74.445,-65.537
41102760,0.578,-0.105,-0.783,-65.59,-78.295,-31.465
41102770,0.828,0.108,-1.159,-96.355,-76.09,3.99
41102780,0.876,0.358,-0.929,-111.002,-81.27,18.042
41102790,1.894,0.843,-0.669,-136.517,-82.827,-82.95
41102800,0.453,-1.998,-0.036,266.35,170.152,85.312
41102810,-0.553,-0.953,0.143,537.127,-292.46,299.565
41102820,0.779,1.997,0.479,571.165,-240.345,-281.19
41102830,-1.419,-0.453,1.998,285.477,-69.597,-44.082
41102840,1.857,0.664,1.569,151.602,-252.91,-151.287
41102850,1.558,0.75,1.643,-4.672,-174.3,-211.767
41102860,1.241,-1.137,0.774,-274.925,-1.4,-20.545
41102870,-1.004,-0.281,0.044,-140.437,95.322,-18.777
41102880,0.059,-1.777,0.868,-82.985,52.342,-44.852
41102890,0.779,-0.34,0.921,-97.93,32.305,-71.277
41102900,1.008,0.101,0.91,-105.122,45.202,-47.827
41102910,1.043,-0.464,1.139,-132.16,60.987,16.03
41102920,0.857,-0.289,1.161,-156.362,61.775,65.642
41102920,0.756,-0.02,1.316,-181.545,67.55,99.872
41102940,0.322,-0.13,1.444,-235.602,81.532,117.652
41102940,-0.198,-0.109,1.681,-289.082,81.777,117.547
41102960,-0.742,0.182,1.634,-326.375,58.345,104.265
41102960,-0.709,0.148,1.421,-365.54,40.617,77.332
41102980,-0.353,-0.791,1.219,-403.672,59.657,57.732
41102980,0.604,-1.846,0.602,-397.757,121.397,26.932
41103000,0.627,-1.998,1.288,-359.887,213.08,-8.452
41103000,-0.996,-1.827,0.36,-246.697,284.865,-51.835
41103010,-1.114,-1.548,-0.041,-125.597,202.93,-170.625
41103020,0.345,-1.877,-0.198,-79.187,152.705,-210.84
41103030,-0.215,-1.501,0,26.635,128.607,-225.802
41103040,-1.015,-1.157,0.049,95.97,109.462,-242.585
41103050,-1.476,-0.56,0.1,129.657,64.767,-177.45
41103060,-1.182,-0.337,0.099,134.662,7.892,-112.997
41103070,-1.155,-0.183,0.044,125.247,-44.765,-45.027
41103080,-0.76,-0.025,-0.1,126.595,-85.05,20.457
41103090,-0.023,0.302,0.059,130.445,-100.257,75.932
41103100,0.12,0.718,0.391,117.267,-114.012,127.19
41103110,-0.138,0.703,0.352,79.975,-134.732,171.395
41103120,0.15,0.282,0.292,51.782,-142.257,196.122
41103130,0.622,0.004,0.386,50.785,-126.892,205.66
41103140,0.886,0.195,0.449,75.67,-101.01,189.35
41103150,0.72,0.357,0.399,93.852,-74.882,170.905
41103160,0.485,0.163,0.355,88.97,-57.452,153.807
41103170,0.378,-0.139,0.249,90.142,-61.705,129.99
41103180,0.534,-0.181,0.14,114.292,-75.18,100.152
41103190,0.63,0.091,-0.023,131.162,-75.302,77.105
41103200,0.493,0.18,-0.051,139.562,-66.045,54.74
41103210,0.28,0.059,-0.099,128.59,-55.65,33.582
41103220,0.139,-0.06,-0.174,120.26,-55.16,21.84
41103230,0.258,-0.066,-0.38,115.657,-53.795,16.397
41103240,0.497,0.191,-0.567,100.362,-42.07,17.57
41103250,0.664,0.224,-0.508,60.392,-10.552,23.607
41103260,0.628,-0.219,-0.485,15.137,21.752,13.51
41103260,0.925,-0.155,-1.029,7.017,23.432,-40.547
41103280,0.624,-1.919,1.701,54.757,74.375,-12.985
41103280,-1.822,-1.928,-0.836,335.965,-120.487,254.8
41103300,1.972,1.909,0.056,570.36,-367.71,-215.67
41103300,-1.766,1.734,1.995,374.255,-89.145,-48.107
41103320,0.049,-1.956,1.975,-96.845,-88.707,-81.812
41103320,1.492,1.396,1.875,61.845,-169.417,-166.477
41103330,0,0.159,0.679,-133.21,-6.597,-114.8
41103340,-0.837,-1.779,0.512,-125.422,46.55,-46.585
41103350,0.403,-1.634,-0.211,-81.987,18.935,-85.575
41103360,0.336,-0.338,0.525,-8.907,15.942,-96.372
41103370,0.914,-0.465,0.877,7.192,16.152,-72.695
41103380,0.949,-0.03,1.19,8.54,16.66,-30.222
41103390,0.717,-0.074,1.344,-18.847,31.657,15.96
41103400,0.212,-0.273,1.283,-55.702,49.437,52.097
41103410,0.204,-0.097,1.493,-81.532,54.46,54.442
41103420,0.268,-0.03,1.688,-129.57,66.15,52.78
41103430,0.393,0.114,1.728,-192.85,86.625,57.295
41103440,0.164,0.103,1.605,-262.255,105.297,65.555
41103450,-0.143,-0.029,1.522,-315.332,103.53,69.212
41103460,-0.276,-0.283,1.407,-346.605,80.937,65.747
41103470,-0.128,-0.737,1.348,-352.52,68.267,70.77
41103480,-0.076,-1.066,1.202,-335.23,80.185,86.17
41103490,0.029,-1.481,0.953,-302.942,112.91,87.115
41103500,-0.134,-1.901,0.58,-271.18,134.522,57.942
41103510,-0.568,-1.998,0.317,-209.842,141.47,20.755
41103520,-0.454,-1.998,0.218,-123.375,105.35,-6.86
41103530,0.488,-1.584,-0.078,22.645,31.937,-33.057
41103540,0.644,-0.797,0.058,138.32,6.422,-29.837
41103550,0.819,-0.65,-0.019,160.317,42.927,-9.292
41103560,0.408,-0.467,0.059,177.397,46.742,10.325
41103570,-0.013,-0.168,0.054,178.482,7,8.225
41103580,-0.048,-0.094,0.002,145.53,-54.32,-14.262
41103590,0.316,-0.314,0.095,98.682,-108.167,-47.407
41103600,0.748,-0.497,0.258,82.67,-130.865,-76.44
41103610,0.806,-0.349,0.219,97.685,-126.595,-104.072
41103620,0.562,0.322,0.03,121.065,-116.865,-127.61
41103630,-0.227,0.848,0.028,121.87,-113.925,-142.852
41103640,-0.694,0.964,-0.003,98.437,-128.695,-141.417
41103650,-0.569,0.858,0.044,77.192,-131.215,-101.465
41103660,-0.675,0.411,-0.099,69.825,-126.14,-24.64
41103670,-0.79,0.099,-0.303,77.735,-130.06,60.13
41103670,-0.296,-0.097,-0.656,67.375,-140.77,120.05
41103690,0.144,-0.494,-0.742,58.922,-135.03,182.577
41103690,0.609,-0.869,-0.704,31.255,-123.672,187.127
41103710,0.555,-1.145,-0.629,6.195,-116.2,152.127
41103710,0.441,-1.089,-0.556,-20.317,-110.547,90.212
41103730,0.129,-0.635,-0.328,-48.79,-102.55,43.715
41103730,0.062,-0.159,-0.416,-82.74,-88.357,10.517
41103750,0.239,-0.987,1.011,-24.062,-72.012,25.165
41103750,-1.447,-1.998,0.28,272.65,-14.332,164.517
41103760,0.395,-0.083,0.106,559.65,-215.95,180.617
41103770,-0.254,1.997,1.685,543.217,-78.627,-63.157
41103780,-1.015,0.866,1.915,398.632,15.855,-51.467
41103790,-0.336,0.021,1.998,214.007,-57.61,-79.152
41103800,1.522,1.84,1.957,-2.712,-122.587,-146.79
41103810,0.036,-1.11,1.098,-272.737,-55.807,-41.545
41103820,0.566,-0.956,-0.018,-235.812,-10.85,-57.242
41103830,-0.718,-1.145,0.354,-80.937,49.21,-93.712
41103840,0.292,-1.372,0.665,-80.727,73.045,-156.747
41103850,1.007,0.104,0.701,-72.467,94.657,-178.43
41103860,1.337,-0.245,1.087,-83.93,105.682,-116.305
41103870,1.123,-0.187,1.362,-104.457,99.277,-38.01
41103880,0.865,-0.001,1.525,-142.642,101.36,20.755
41103890,0.373,-0.028,1.791,-204.26,117.057,49.437
41103900,-0.322,-0.017,1.872,-278.512,128.047,50.662
41103910,-0.614,-0.22,1.623,-351.242,134.33,18.095
41103920,-0.168,-0.718,1.506,-399.35,170.03,-17.657
41103930,0.458,-1.807,1.008,-425.897,292.337,-26.022
41103940,0.501,-1.998,0.132,-401.94,474.722,-44.66
41103950,-0.205,-1.998,-1.458,-263.2,484.487,-165.445
41103960,0.691,-1.998,-1.378,-84.717,368.112,-290.132
41103970,-1.53,-1.85,-0.945,12.582,255.167,-295.68
41103980,-1.998,-0.842,-0.49,25.235,84.63,-217.087
41103990,-1.439,-0.21,-0.527,16.66,-71.102,-71.995
41104000,-0.298,-0.137,-0.498,-18.567,-127.382,81.83
41104010,0.129,-0.653,-0.236,-56.42,-106.032,203.857
41104010,0.463,-0.891,0.343,-49.945,-73.622,228.9
41104030,0.698,-0.463,0.758,-16.45,-67.69,181.982
41104030,0.564,0.036,0.936,-15.645,-48.877,145.582
41104050,0.259,-0.035,0.912,-42.735,-20.755,138.565
41104050,0.424,0.007,0.867,-21.63,-17.92,144.97
41104070,0.497,0.136,0.703,43.575,-25.655,166.232
41104070,0.713,0.321,0.539,101.78,-28.21,142.222
41104080,0.778,0.614,0.427,122.797,-19.32,84.472
41104090,0.553,0.667,0.333,115.99,1.697,23.047
41104100,0.205,0.379,0.294,112.122,15.487,-21.402
41104110,-0.223,0.069,0.178,122.972,6.545,-51.8
41104120,-0.604,0.043,0.027,142.835,-34.142,-79.082
41104130,-0.738,0.296,-0.121,142.8,-91.875,-98.245
41104140,-0.69,0.318,-0.307,113.452,-144.165,-108.622
41104150,-0.399,0.071,-0.436,76.212,-175.21,-107.432
41104160,-0.255,0.007,-0.696,53.9,-175.892,-88.427
41104170,-0.179,0.36,-0.929,38.01,-143.43,-55.247
41104180,-0.043,0.597,-0.953,-1.505,-73.937,4.76
41104190,-0.297,0.402,-0.931,-65.52,1.102,83.667
41104200,-0.412,-0.724,-0.859,-133.612,30.852,123.742
41104210,0.522,-1.037,-0.53,-100.52,-12.88,23.345
41104220,1.256,-1.998,1.998,106.89,-63.332,111.65
41104230,-1.474,-1.642,-1.173,439.495,-266.192,28.437
41104240,1.517,1.991,0.958,573.37,-232.382,-185.185
41104250,-0.675,0.912,1.996,454.912,-123.532,-184.415
41104260,0.04,-1.688,1.998,107.485,-142.572,-48.177
41104270,1.661,1.983,1.998,159.547,-170.257,-124.215
41104280,1.052,-0.069,1.79,-159.565,-80.657,-58.222
41104290,0.638,-0.222,0.788,-230.51,-26.285,1.225
41104300,-1.344,-1.044,-0.197,-127.785,39.27,-0.227
41104310,-0.013,-1.849,0.186,-108.15,-9.485,-81.34
41104320,0.328,-0.408,0.285,-63.017,-4.147,-118.055
41104330,0.865,-0.528,0.421,-30.397,0.665,-117.337
41104340,1.269,-0.366,0.947,-10.132,11.585,-58.52
41104350,1.077,-0.135,1.229,-20.545,16.152,3.71
41104360,0.852,-0.16,1.298,-51.625,21.77,58.537
41104370,0.441,-0.058,1.536,-88.252,34.002,91.245
41104380,0.197,0.251,1.614,-143.622,47.722,106.697
41104390,0.144,-0.008,1.575,-211.12,67.917,118.072
41104400,0.114,-0.274,1.413,-267.417,80.762,103.67
41104410,-0.102,-0.329,1.348,-297.78,80.937,87.097
41104420,-0.25,-0.192,1.317,-319.427,63.42,78.505
41104420,0,-0.584,1.241,-337.645,59.64,86.397
41104430,0.275,-1.221,1.191,-328.702,92.19,103.32
41104440,-0.016,-1.658,0.995,-294.227,130.147,118.002
41104450,-0.111,-1.779,0.657,-251.65,142.502,97.44
41104460,-0.35,-1.571,0.437,-199.727,103.372,76.212
41104470,-0.159,-1.753,0.074,-135.24,59.185,49.997
41104480,-0.091,-1.834,0.137,-51.187,25.567,41.72
41104490,0.447,-1.287,0.078,69.02,5.32,42.892
41104500,0.446,-0.827,0.066,170.817,15.015,54.372
41104510,0.427,-0.668,0.02,190.627,31.185,32.2
41104520,0.131,-0.636,0.044,200.112,28.035,11.76
41104530,-0.081,-0.524,0.042,215.845,1.347,-9.852
41104540,-0.206,-0.351,0.102,212.362,-41.982,-49.227
41104550,-0.643,-0.209,-0.035,187.355,-111.055,-90.982
41104560,-0.554,-0.17,-0.112,153.475,-185.622,-143.185
41104570,-0.15,-0.309,-0.04,128.59,-232.05,-182.297
41104580,0.076,-0.457,0.016,122.605,-236.757,-197.522
41104590,-0.044,-0.495,-0.041,140.245,-212.257,-196.665
41104600,-0.62,-0.22,-0.314,166.53,-183.89,-178.517
41104610,-0.876,0.385,-0.57,169.627,-165.427,-148.155
41104620,-0.699,0.734,-0.662,128.117,-139.632,-73.64
41104630,-0.629,0.475,-0.453,42.892,-104.177,38.43
41104640,-0.635,-0.367,-0.219,-44.065,-67.97,144.182
41104650,-0.373,-1.073,-0.069,-58.625,-69.947,195.037
41104660,0.124,-1.101,-0.247,-18.27,-91.7,182.192
41104670,0.444,-0.238,-0.752,18.077,-100.537,129.307
41104680,0.475,1.29,-1.247,25.795,-86.362,61.442
41104690,0.575,1.997,-1.176,-8.942,-24.797,2.992
41104700,-0.029,1.535,-0.987,-110.022,59.255,-30.975
41104710,1.362,-1.882,0.958,-169.855,200.357,-69.965
41104720,-1.563,-1.998,-0.483,401.327,77.98,276.955
41104730,1.614,1.569,-0.466,573.37,-94.955,-213.727
41104740,-1.943,0.875,1.953,475.002,60.182,-228.445
41104750,0.429,-0.461,1.492,79.047,-74.847,70.787
41104760,0.115,1.436,1.858,31.972,-113.54,-161.91
41104760,0.215,-0.99,0.69,-372.96,-52.115,-50.802
41104780,0.606,-1.563,0,-292.74,-55.615,-27.545
41104780,1.077,-1.846,-0.06,-171.902,55.247,-27.387
41104800,-0.139,-0.493,0.535,-50.347,104.492,-30.642
41104800,1.115,-0.509,0.316,-60.515,70.122,-34.405
41104820,0.695,-0.383,0.995,-29.155,87.797,15.715
41104820,0.721,-0.192,1.348,-43.977,91.84,55.597
41104830,0.238,-0.044,1.487,-86.362,109.427,73.99
41104840,0.288,-0.086,1.572,-140.402,126.455,69.23
41104850,0.163,-0.097,1.651,-199.517,153.72,56.49
41104860,-0.266,0.314,1.585,-256.97,154.822,41.37
41104870,0.168,0.158,1.51,-323.417,167.562,29.925
41104880,-0.187,-0.781,0.974,-366.642,234.027,43.172
41104890,0.761,-1.759,1.239,-397.81,306.442,16.345
41104900,0.375,-1.998,0.999,-371.35,463.102,-17.342
41104910,-0.118,-1.998,-0.605,-226.537,512.522,-119.385
41104920,-0.655,-1.998,-1.326,-33.162,436.537,-237.86
41104930,-0.14,-1.64,-0.798,44.205,309.137,-266.927
41104940,-1.452,-0.768,-0.027,61.495,122.745,-241.832
41104950,-1.639,-0.236,-0.041,32.83,-73.185,-159.425
41104960,-0.595,0.021,-0.081,5.617,-227.797,-33.442
41104970,-0.166,-0.481,0.102,-31.412,-284.9,76.667
41104980,-0.219,-0.848,0.236,-26.705,-307.055,144.952
41104990,-0.173,-0.771,0.362,21.052,-334.81,163.992
41105000,-0.012,-0.52,0.497,46.392,-343.07,167.107
41105010,0.194,-0.366,0.525,57.925,-325.675,179.427
41105020,0.267,-0.064,0.509,71.54,-295.837,196.28
41105030,0.272,0.496,0.394,92.382,-264.652,207.182
41105040,0.45,1.046,0.221,111.177,-228.672,203.245
41105050,0.777,1.29,0.161,112.297,-179.427,176.137
41105060,0.77,1.154,0.151,101.342,-129.657,133.577
41105070,0.392,0.853,0.151,97.195,-99.155,94.587
41105080,0.03,0.715,0.085,101.587,-101.045,64.61
41105080,-0.007,0.666,-0.102,104.09,-121.922,36.505
41105100,0.07,0.631,-0.159,88.532,-132.44,12.95
41105100,0.086,0.352,-0.15,58.765,-114.94,-1.522
41105120,-0.144,0.032,-0.097,33.022,-82.915,1.032
41105120,-0.551,-0.126,-0.1,19.442,-58.8,15.05
41105140,-0.76,-0.109,-0.229,11.165,-49.42,38.027
41105140,-0.681,-0.733,0.107,9.975,-52.412,69.457
41105160,0.134,0.507,-1.207,-37.992,-46.497,17.71
41105160,-0.021,0.716,0.883,139.16,-117.547,80.675
41105170,0.607,-1.998,0.596,127.557,175.472,315.717
41105180,-1.445,-0.115,-0.874,482.842,-263.305,11.06
41105190,0.57,1.997,0.582,561.417,-155.785,-293.842
41105200,-1.288,-1.189,1.791,183.925,-62.51,-24.71
41105210,0.408,0.16,1.998,248.937,-188.51,-79.59
41105220,1.853,1.109,1.76,114.17,-195.475,-180.075
41105230,0.832,-0.816,1.067,-177.065,-51.59,-43.067
41105240,0.218,-0.678,0.584,-148.522,8.102,-41.702
41105250,-0.114,-0.888,0.8,-83.23,41.685,-58.275
41105260,0.796,-0.448,1.147,-58.065,40.162,-64.785
41105270,0.218,-0.129,1.144,-77.997,62.947,-49.21
41105280,0.99,-0.356,1.157,-113.365,65.537,-23.537
41105290,0.701,-0.2,1.266,-142.572,81.882,15.032
41105300,0.65,-0.05,1.358,-186.637,96.425,39.935
41105310,0.47,-0.083,1.394,-233.992,114.397,53.917
41105320,0.072,0.188,1.556,-281.225,128.152,54.057
41105330,-0.018,0.222,1.54,-345.73,140.455,41.125
41105340,0.072,-0.595,1.044,-398.86,198.467,25.322
41105350,0.706,-1.411,0.933,-426.037,248.062,5.145
41105360,1.051,-1.923,0.504,-396.497,374.64,-5.145
41105370,0.556,-1.998,-0.475,-320.792,465.762,-21.945
41105380,-0.093,-1.998,-0.836,-187.267,340.112,-151.742
41105390,0.628,-1.808,-0.831,-95.97,176.522,-230.475
41105400,0.241,-1.339,0.163,-105.84,84.367,-236.127
41105410,-1.129,-1.045,0.437,-91.21,38.535,-274.242
41105420,-1.612,-0.801,0.626,-51.975,-48.86,-268.537
41105430,-1.709,-0.133,0.584,-24.29,-127.522,-215.46
41105440,-1.164,0.109,0.521,1.557,-157.797,-120.592
41105450,-0.541,0.22,0.574,38.885,-147.612,-16.292
41105460,-0.306,0.301,0.661,79.66,-111.772,83.09
41105470,-0.345,0.382,0.766,109.06,-81.987,139.072
41105480,-0.401,0.53,0.766,130.235,-75.95,157.062
41105490,-0.313,0.623,0.739,137.182,-88.182,146.842
41105500,-0.076,0.5,0.655,133.455,-103.075,127.592
41105510,0.12,0.218,0.552,139.107,-114.047,118.002
41105510,0.288,-0.049,0.389,161.665,-120.697,113.68
41105530,0.367,-0.154,0.23,198.485,-123.34,110.547
41105530,0.337,-0.061,0.008,233.87,-124.267,99.802
41105550,0.338,0.155,-0.251,248.115,-119.35,78.067
41105550,0.272,0.373,-0.574,237.475,-109.812,51.747
41105570,0.371,0.657,-0.573,201.11,-86.59,26.862
41105570,0.259,0.534,-0.543,131.407,-42.647,10.605
41105580,-0.025,0.058,-0.276,66.517,0.332,-1.662
41105590,-0.37,-0.459,-0.135,22.067,28.14,1.68
41105600,-0.562,-0.84,-0.086,10.062,30.52,14.647
41105610,-0.785,-0.083,0.035,44.467,9.66,50.382
41105620,0.58,-1.628,1.762,38.325,26.46,156.31
41105630,-1.301,-1.998,-1.251,304.745,-82.267,187.302
41105640,1.01,1.163,-0.457,564.97,-296.24,-155.452
41105650,0.674,1.997,1.537,494.182,-71.575,-85.365
41105660,0.621,-1.292,1.41,202.23,32.27,39.777
41105670,-0.669,-0.09,1.868,251.947,20.597,141.592
41105680,-1.001,1.127,1.805,31.745,-40.232,35.28
41105690,1.196,-0.652,1.33,-168.927,-68.355,-59.255
41105700,0.309,-0.789,0.602,-146.405,-75.967,-17.622
41105710,0.088,-0.869,0.351,-101.027,-67.725,-4.602
41105720,0.14,-0.898,0.619,-50.12,-45.78,-25.375
41105730,0.175,-0.474,0.807,-32.637,-27.737,-26.092
41105740,0.395,-0.262,0.933,-25.287,-8.592,-34.055
41105750,0.393,-0.371,1.016,-29.855,10.377,-21.175
41105760,0.468,-0.283,1.097,-41.93,25.025,-10.832
41105770,0.313,-0.231,1.295,-60.9,42.017,1.977
41105780,0.246,0.066,1.47,-89.985,58.082,4.34
41105790,0.066,0.005,1.491,-140.612,76.335,2.782
41105800,0.06,-0.019,1.426,-189.84,95.287,-11.252
41105810,0.136,-0.131,1.241,-236.232,108.465,-26.652
41105820,0.236,-0.309,1.106,-276.01,122.167,-34.125
41105830,0.059,-0.445,1.036,-301.42,127.277,-32.812
41105830,-0.069,-0.432,1.055,-317.362,108.342,-28.875
41105850,-0.025,-0.44,1.116,-327.215,88.602,-22.225
41105850,0.085,-0.708,1.085,-312.742,87.132,-20.825
41105870,0.16,-1.146,0.956,-281.89,109.27,-12.005
41105870,0.285,-1.535,0.824,-240.537,151.672,2.765
41105890,0.214,-1.68,0.734,-192.57,205.59,17.08
41105890,-0.183,-1.646,0.773,-148.68,212.695,-12.512
41105910,-0.621,-1.374,0.589,-79.345,146.597,-91.367
41105910,-0.996,-1.614,0.384,-0.875,83.107,-117.53
41105920,-0.282,-1.86,0.282,94.132,19.845,-98.315
41105930,-0.163,-1.28,0.152,209.37,-42.192,-111.527
41105940,-0.623,-0.739,0.085,271.687,-63.245,-115.132
41105950,-0.618,-0.37,-0.104,284.427,-83.09,-116.357
41105960,-0.537,-0.072,-0.209,280.595,-100.187,-97.405
41105970,-0.453,0.129,-0.388,260.26,-91.35,-64.33
41105980,-0.284,0.188,-0.556,218.33,-74.182,-39.935
41105990,-0.211,0.187,-0.722,177.782,-54.197,-11.847
41106000,-0.124,0.429,-0.697,137.357,-37.205,20.142
41106010,-0.134,0.5,-0.625,75.39,-20.527,65.257
41106020,-0.346,0.2,-0.338,-0.035,-20.037,117.617
41106030,-0.363,-0.416,-0.065,-60.462,-37.73,164.57
41106040,-0.138,-0.971,0.08,-72.415,-76.475,197.837
41106050,0.238,-0.998,0.034,-48.562,-118.772,215.39
41106060,0.489,-0.641,-0.172,-39.48,-146.09,222.565
41106070,0.606,-0.339,-0.256,-67.97,-162.522,206.78
41106080,0.774,-0.225,-0.264,-110.372,-170.922,166.652
41106090,1.073,0.121,-0.297,-132.125,-165.112,111.965
41106100,1.289,-0.157,-0.246,-143.937,-139.44,61.565
41106110,0.658,0.663,-0.277,-111.65,-127.645,7.962
41106120,1.445,-1.799,0.751,128.852,129.395,10.465
41106130,-1.998,-1.998,-0.014,444.902,-79.03,270.182
41106140,1.28,1.246,-0.657,559.492,-240.852,-166.39
41106150,-0.488,1.997,1.939,501.76,-46.795,-84.927
41106160,-0.757,-1.335,1.811,262.675,-49.472,-25.69
41106170,-0.03,0.018,1.998,273.542,-101.482,-116.847
41106180,1.491,1.557,1.987,160.317,-138.372,-137.865
41106190,1.271,0.317,1.527,-70.052,-82.985,-51.975
41106200,0.576,-0.373,0.826,-133.07,-29.417,-15.19
41106210,-0.475,-0.796,0.421,-101.71,31.902,-8.715
41106220,0.001,-0.861,0.965,-42.665,21.84,-47.705
41106230,0.541,-0.107,1.193,-55.265,14.98,-57.942
41106240,0.671,-0.27,1.082,-91.245,20.317,-32.322
41106250,0.728,-0.27,1.149,-111.65,29.505,5.442
41106260,0.578,-0.19,1.253,-134.155,37.852,38.377
41106260,0.442,-0.039,1.42,-167.02,49,59.587
41106280,0.274,0.037,1.519,-217.437,66.482,63.612
41106280,-0.049,-0.011,1.578,-278.25,83.685,56.577
41106300,-0.385,-0.001,1.58,-330.89,85.172,39.637
41106300,-0.435,-0.276,1.467,-375.672,59.71,27.107
41106320,-0.005,-0.649,1.419,-405.195,53.655,13.23
41106320,0.453,-1.69,1.42,-390.215,118.755,19.162
41106330,0.898,-1.998,0.908,-329.595,245.735,18.742
41106340,0.059,-1.998,-0.299,-210.367,325.605,-20.457
41106350,-0.824,-1.987,-0.919,-108.202,242.812,-164.692
41106360,-0.026,-1.382,-0.607,-37.31,133,-241.955
41106370,-0.087,-1.033,-0.051,7.385,82.32,-197.4
41106380,-1.08,-0.884,0.024,34.405,37.922,-158.235
41106390,-1.072,-0.465,-0.058,54.862,-44.59,-150.08
41106400,-0.723,-0.162,-0.027,62.037,-91.052,-117.617
41106410,-0.406,-0.112,-0.013,43.085,-80.465,-79.922
41106420,-0.487,-0.17,0.114,42.157,-53.357,-50.977
41106430,-0.601,-0.04,0.231,44.607,-22.225,-40.477
41106440,-0.595,0.104,0.436,52.955,6.02,-29.137
41106450,-0.415,0.087,0.693,59.377,43.767,-11.777
41106460,-0.384,-0.063,0.882,84.665,80.202,12.022
41106470,-0.5,-0.109,0.938,149.45,98.157,30.52
41106480,-0.638,0.115,0.696,235.515,91.367,44.8
41106490,-0.635,0.622,0.139,311.482,63.052,57.522
41106500,-0.306,1.22,-0.691,351.785,25.445,74.357
41106510,0.151,1.873,-1.001,308.927,5.617,97.562
41106520,0.681,1.638,-0.824,150.762,48.755,105.035
41106530,0.31,-0.139,-0.2,-4.165,110.53,109.882
41106540,-0.738,-1.862,0.173,-35.297,123.742,128.397
41106550,-1.302,-1.756,-0.19,27.055,43.19,141.697
41106560,0.037,-0.468,-0.636,51.485,-45.22,153.65
41106570,1.262,-0.545,-0.652,-17.237,-39.497,210.035
41106580,0.801,-1.358,-0.517,-88.812,3.657,258.475
41106580,0.24,-1.744,0.374,-122.675,3.867,241.185
41106600,-0.048,-1.998,1.349,-39.235,-246.05,120.382
41106600,1.153,-0.858,0.224,466.725,-467.442,-164.605
41106620,-1.079,1.997,1.156,545.895,-169.627,1.54
41106620,0.748,-0.241,1.836,313.18,-185.342,-67.165
41106640,-0.205,-0.379,1.998,248.902,-199.885,-96.25
41106640,1.835,1.872,1.827,147.752,-172.602,-103.127
41106660,1.201,0.078,1.408,-95.357,-65.94,-45.762
41106660,0.483,-0.873,0.595,-147,0.175,-19.022
41106670,-0.037,-0.988,0.483,-93.205,28.787,-12.215
41106680,-0.088,-0.553,0.962,-38.955,34.002,-31.92
41106690,0.378,-0.266,1.03,-34.702,34.93,-38.657
41106700,0.33,-0.182,1.229,-43.102,60.952,-35.892
41106710,0.5,-0.074,1.41,-72.047,74.97,-21.927
41106720,0.644,-0.08,1.572,-120.977,90.247,3.185
41106730,0.555,0.055,1.731,-176.277,115.22,24.78
41106740,0.361,0.048,1.552,-247.642,139.3,39.602
41106750,0.097,0.061,1.443,-309.155,148.05,47.635
41106760,-0.102,0.185,1.411,-349.352,141.067,51.887
41106770,-0.175,-0.044,1.375,-388.062,124.285,54.687
41106780,0.043,-0.653,1.437,-413.997,116.935,54.582
41106790,0.25,-1.538,1.498,-387.082,167.422,58.362
41106800,0.065,-1.998,0.716,-339.99,241.482,35.857
41106810,0.433,-1.998,0.84,-286.055,263.13,-23.047
41106820,0.304,-1.998,0.22,-190.4,227.815,-122.972
41106830,1.133,-1.998,0.007,-12.687,205.817,-213.57
41106840,0.411,-1.654,-0.167,152.6,186.445,-276.832
41106850,-0.516,-1.112,-0.16,221.305,149.992,-291.41
41106860,-1.016,-0.705,-0.148,251.667,77.472,-250.915
41106870,-0.935,-0.285,-0.369,250.145,-6.807,-235.812
41106880,-0.711,-0.057,-0.343,216.632,-63.7,-209.562
41106890,-0.692,0.03,-0.422,170.8,-83.685,-169.855
41106900,-0.788,0.036,-0.512,127.767,-87.535,-143.552
41106910,-0.657,0.093,-0.489,92.19,-85.137,-121.047
41106920,-0.388,0.215,-0.415,57.347,-65.52,-88.322
41106930,-0.407,0.288,-0.281,18.742,-41.632,-43.82
41106940,-0.682,0.21,-0.137,-24.377,-30.712,4.182
41106950,-0.828,0.004,0.058,-60.217,-39.935,50.82
41106960,-0.795,-0.205,0.22,-79.205,-64.277,95.777
41106970,-0.611,-0.387,0.354,-75.057,-95.007,133.245
41106980,-0.171,-0.424,0.513,-46.76,-118.352,159.67
41106990,-0.004,-0.41,0.601,-9.502,-130.795,181.912
41107000,0.035,-0.31,0.493,25.112,-137.182,190.47
41107010,0.604,-0.15,0.29,63.892,-123.27,193.795
41107010,1.188,0,0.202,90.352,-77.822,191.432
41107030,1.393,0.168,-0.073,92.12,-19.547,158.48
41107030,1.173,0.522,-0.288,82.565,27.352,89.495
41107050,0.909,0.957,-0.433,49.42,41.895,-26.512
41107050,0.843,0.856,-0.305,-1.54,40.705,-150.692
41107060,0.487,0.489,-0.581,-70.122,51.047,-232.907
41107070,0.584,1.751,-0.672,25.077,43.382,-337.68
41107080,1.159,-1.027,1.208,89.617,163.642,-117.757
41107090,-1.852,-1.998,0.312,288.715,152.162,392.017
41107100,1.441,1.286,-1.767,570.745,-408.905,-250.022
41107110,-0.892,1.801,1.766,451.78,-61.075,-189.105
41107120,-0.3,-1.987,1.998,68.302,23.327,88.97
41107130,-0.327,1.546,1.969,290.395,-172.48,-129.412
41107140,1.254,0.361,1.814,-28.297,-123.217,-120.715
41107150,1.358,-0.807,1.157,-211.19,-17.71,-12.18
41107160,-1.38,-0.321,0.205,-126.455,54.11,-23.117
41107170,0.19,-1.906,0.321,-93.957,13.055,-50.54
41107180,0.967,-0.288,0.722,-58.117,22.05,-82.162
41107190,0.861,-0.367,0.81,-51.345,30.695,-50.487
41107200,0.928,-0.321,1.028,-53.637,37.222,12.32
41107210,0.456,-0.272,1.115,-66.272,45.92,49.927
41107220,0.395,-0.268,1.18,-87.57,55.755,66.587
41107230,0.36,-0.204,1.327,-114.555,69.79,74.62
41107240,0.164,-0.259,1.468,-156.73,87.115,76.212
41107250,-0.068,-0.129,1.588,-204.032,103.285,71.715
41107260,-0.469,0.192,1.581,-241.64,107.03,70.315
41107270,-0.493,0.171,1.344,-287.385,94.605,52.85
41107280,0.145,-0.616,1.185,-330.26,103.022,39.147
41107290,0.863,-1.73,1.229,-343.822,183.382,42.892
41107300,0.971,-1.981,0.872,-307.825,304.465,38.797
41107310,0.587,-1.998,-0.358,-235.182,397.687,-15.802
41107320,-0.454,-1.998,-0.587,-94.797,301.052,-162.102
41107330,-0.106,-1.974,-0.584,68.67,169.715,-222.582
41107330,-0.171,-1.135,-0.369,170.117,13.685,-205.467
41107350,-0.315,-0.478,-0.286,163.345,-77.21,-172.952
41107350,-0.643,-0.363,-0.203,117.967,-131.88,-142.135
41107370,-0.509,-0.333,-0.234,72.975,-184.187,-133.997
41107370,-0.377,-0.284,-0.176,55.282,-195.982,-88.83
41107390,-0.301,-0.302,-0.094,37.625,-179.987,-37.362
41107390,-0.27,-0.413,0.085,24.43,-157.237,3.815
41107410,-0.206,-0.466,0.229,19.635,-136.605,38.167
41107410,-0.243,-0.388,0.339,23.17,-126.105,73.552
41107420,-0.323,-0.255,0.383,28.42,-129.832,108.692
41107430,-0.295,-0.083,0.425,30.31,-141.172,140.822
41107440,-0.149,0.085,0.36,29.89,-147.91,169.61
41107450,0.31,0.268,0.216,33.757,-137.567,187.022
41107460,0.85,0.363,-0.06,36.61,-98.21,191.905
41107470,1.02,0.676,-0.294,32.637,-38.622,183.172
41107480,0.644,1.339,-0.357,12.005,8.505,149.17
41107490,0.4,1.554,-0.132,-27.037,30.222,90.282
41107500,0.311,0.886,0.247,-67.462,37.922,39.585
41107510,0.154,0.165,0.368,-57.96,30.817,11.305
41107520,-0.084,0.272,0.079,-9.082,13.79,-0.35
41107530,-0.309,-0.24,0.02,17.937,0.42,-1.505
41107540,0.564,1.424,-0.784,51.537,-7.7,-97.142
41107550,0.836,-0.4,1.507,199.71,27.755,89.39
41107560,-1.437,-1.998,0.271,254.45,50.575,467.232
41107570,0.989,0.973,-0.757,562.817,-356.16,-79.17
41107580,0.047,1.593,1.637,518.315,-174.895,-232.277
41107590,-1.164,-1.989,1.806,171.692,-115.377,-46.917
41107600,0.365,0.715,1.998,280.49,-166.687,-171.937
41107610,1.991,1.45,1.93,96.635,-176.54,-206.692
41107620,1.472,-0.227,1.376,-110.512,-43.207,-48.037
41107630,-0.83,-0.124,0.917,-109.865,34.947,0.612
41107640,-0.52,-1.333,0.306,-105.087,-9.432,0.402
41107650,0.008,-0.863,0.408,-59.447,-16.31,-49.857
41107660,0.368,-0.338,0.961,-26.81,-3.622,-73.342
41107670,0.747,-0.362,1.014,-46.48,10.027,-59.867
41107680,0.964,-0.123,1.103,-60.392,24.202,-30.012
41107690,0.786,-0.146,1.143,-85.557,36.767,18.357
41107700,0.596,-0.209,1.244,-116.427,50.102,59.027
41107710,0.334,-0.068,1.456,-149.082,61.757,75.407
41107720,0.148,-0.038,1.505,-200.952,73.955,76.51
41107730,-0.026,-0.175,1.468,-253.697,84.875,69.755
41107730,-0.138,-0.237,1.39,-292.25,94.045,44.345
41107750,-0.486,-0.148,1.161,-313.687,90.16,25.252
41107750,-0.615,-0.522,1.186,-331.047,69.947,12.915
41107760,-0.465,-0.804,1.117,-331.59,48.195,-8.33
41107770,0.172,-1.366,0.986,-296.24,53.76,-9.152
41107780,0.424,-1.927,1.002,-253.487,101.587,8.277
41107790,0.08,-1.799,0.578,-204.382,149.03,20.982
41107800,-0.359,-1.774,0.433,-146.842,129.027,-2.45
41107810,-0.851,-1.994,0.091,-78.067,60.305,-60.935
41107820,-0.741,-1.911,-0.103,36.05,-22.907,-86.45
41107830,-0.407,-1.31,-0.329,157.325,-93.135,-87.797
41107840,-0.427,-0.838,-0.409,204.68,-119.157,-78.12
41107850,-0.127,-0.546,-0.469,193.13,-115.535,-84.542
41107860,0.161,-0.332,-0.456,171.447,-94.447,-94.36
41107870,0.122,-0.013,-0.504,148.365,-52.535,-86.24
41107880,0.072,0.31,-0.475,109.497,-9.45,-82.74
41107890,0.084,0.413,-0.366,50.837,36.137,-82.932
41107900,-0.077,0.203,-0.179,-4.375,78.452,-77.472
41107910,-0.211,-0.092,0.045,-38.115,105.455,-69.16
41107920,-0.261,-0.359,0.248,-45.5,118.475,-58.222
41107930,-0.298,-0.524,0.378,-25.515,118.772,-44.152
41107940,-0.342,-0.451,0.416,14.087,97.632,-22.82
41107950,-0.391,-0.203,0.351,49.087,61.32,17.36
41107960,-0.321,0.073,0.248,64.977,16.625,75.18
41107970,-0.251,0.398,0.091,61.775,-44.327,141.575
41107980,0.169,0.742,-0.238,47.337,-108.08,192.202
41107990,1.116,1.086,-0.728,23.012,-148.12,213.22
41108000,1.962,1.407,-0.92,-18.095,-137.06,202.597
41108010,1.998,1.682,-0.618,-74.095,-80.745,155.312
41108020,1.263,-0.425,-0.245,-155.032,-73.097,57.365
41108030,1.492,-1.998,0.843,-43.225,72.695,29.085
41108040,-1.998,-1.895,0.236,512.697,-110.757,411.337
41108050,1.626,1.889,-1.121,569.765,-312.97,-82.565
41108060,-1.247,1.993,1.727,494.83,-112.91,26.582
41108070,-1.532,-1.647,1.669,113.295,-87.535,42.84
41108080,-0.491,-0.001,1.698,249.497,-110.862,-181.755
41108080,1.223,1.502,1.99,179.217,-118.86,-271.757
41108100,1.327,-0.36,1.818,-69.825,-38.85,-156.345
41108100,0.816,0.21,1.267,-125.002,1.662,-99.645
41108120,0.543,-0.745,0.543,-180.18,-1.505,-43.68
41108120,0.713,-0.701,0.493,-156.38,15.82,-10.937
41108140,0.737,-0.532,1.005,-134.015,33.127,2.012
41108140,0.637,-0.129,1.103,-150.43,44.432,29.067
41108160,0.433,-0.157,1.104,-177.87,48.125,53.795
41108160,0.315,-0.284,1.133,-207.655,54.075,65.782
41108170,0.139,-0.445,1.072,-234.605,57.697,66.237
41108180,0.101,-0.45,1.175,-251.737,64.435,57.855
41108190,-0.31,-0.374,1.416,-275.415,59.815,53.515
41108200,-0.654,-0.333,1.4,-298.882,42.752,46.34
41108210,-0.068,-0.709,1.214,-320.565,49.892,23.73
41108220,0.44,-1.567,0.739,-316.277,92.977,12.495
41108230,1.628,-1.998,1.736,-305.13,147.577,-13.037
41108240,-0.559,-1.979,0.809,-198.065,235.462,-2.905
41108250,-1.879,-1.455,0.412,-54.967,77.42,-114.415
41108260,0.495,-1.915,0.184,25.2,-93.485,-176.54
41108270,0.072,-1.276,0.526,138.075,-163.327,-182.962
41108280,-1.712,-0.241,0.205,190.802,-185.167,-214.2
41108290,-1.998,0.187,0.028,163.712,-200.147,-150.377
41108300,-1.853,0.217,-0.003,109.812,-209.632,-46.602
41108310,-1.185,-0.028,0.21,103.705,-201.04,108.762
41108320,-0.927,-0.214,0.236,114.205,-182.84,239.697
41108330,-0.913,0.027,0.164,133.787,-172.585,309.277
41108340,-0.643,0.235,0.103,159.04,-161.105,329.262
41108350,0.623,0.456,-0.101,164.745,-118.475,316.47
41108360,1.921,0.544,0.046,166.32,-1.995,305.41
41108370,1.793,0.493,0.328,109.042,101.01,239.662
41108380,0.849,0.119,0.417,58.152,141.802,129.482
41108390,0.272,-0.151,0.44,52.57,108.482,22.085
41108400,0.461,-0.096,0.391,76.16,45.272,-64.155
41108410,0.68,0.008,0.247,94.325,7.14,-108.325
41108420,0.456,-0.017,0.02,98.07,2.625,-113.662
41108420,-0.064,-0.079,-0.18,98.945,-1.697,-95.392
41108440,-0.469,0.68,-0.77,73.605,-14.385,-53.76
41108440,-0.461,0.955,-0.763,60.322,-25.865,8.067
41108460,-0.046,0.95,-0.787,22.82,-18.917,67.41
41108460,0.341,1.141,-0.626,-1.89,-1.925,105.455
41108480,0.408,-0.719,-0.328,14.245,-20.895,130.532
41108480,-0.574,-1.998,0.414,126.49,9.712,163.485
41108500,1.078,0.748,-1.803,522.042,-301.997,-182.105
41108500,-1.328,1.997,0.813,546.542,-91.385,-213.062
41108510,-0.951,-0.879,1.847,69.195,-27.982,-11.252
41108520,0.019,0.165,1.905,233.205,-192.64,-76.86
41108530,1.786,1.056,1.723,153.072,-188.44,-173.53
41108540,1.072,-1.278,1.284,-192.657,-37.642,-16.992
41108550,0.13,0.11,0.749,-148.872,38.325,-45.167
41108560,-0.095,-0.749,0.927,-117.617,97.037,-42.875
41108570,0.588,-0.656,1.215,-104.02,89.145,-62.002
41108580,0.844,-0.222,1.086,-138.967,92.12,-41.65
41108590,0.949,0.031,1.094,-159.11,107.467,1.82
41108600,0.744,-0.387,1.044,-195.142,119.647,40.635
41108610,0.711,-0.346,1.221,-205.117,128.8,66.972
41108620,0.42,-0.165,1.348,-241.972,139.755,82.407
41108630,-0.228,0.105,1.401,-287.14,150.132,86.152
41108640,-0.656,0.102,1.303,-342.335,138.705,65.082
41108650,0.337,-0.741,1.232,-387.415,157.15,30.31
41108660,0.884,-1.286,1.053,-376.285,253.242,26.39
41108670,0.91,-1.825,0.339,-344.487,352.222,-2.222
41108680,1.58,-1.998,0.442,-332.482,396.112,-79.432
41108690,-1.063,-1.752,0.002,-232.12,404.372,-169.89
41108700,0.642,-1.995,0.316,-118.51,345.415,-234.937
41108710,0.334,-1.976,0.818,68.862,242.41,-248.272
41108720,-0.749,-1.686,0.487,222.915,117.18,-399.455
41108730,-1.816,-1.23,0.218,295.68,-1.295,-438.235
41108740,-1.998,-0.324,0.091,344.96,-124.67,-367.71
41108750,-1.694,0.062,-0.394,344.662,-200.69,-274.365
41108760,-1.29,-0.055,-0.561,287.857,-203.21,-164.815
41108770,-1.089,-0.073,-0.466,242.165,-187.372,-42.07
41108780,-1.363,-0.028,-0.345,219.345,-181.072,103.495
41108790,-1.825,0.027,-0.29,197.487,-219.03,216.107
41108800,-1.596,0.087,-0.383,169.767,-275.852,294.962
41108810,-0.815,0.01,-0.495,143.64,-300.86,376.04
41108820,0.027,-0.166,-0.5,117.355,-270.305,437.01
41108830,0.467,-0.272,-0.396,92.382,-213.325,454.37
41108830,1.332,-0.237,-0.361,79.52,-133.91,441.805
41108850,1.513,-0.065,-0.102,64.977,-61.775,408.117
41108850,1.039,0.032,-0.024,23.52,-29.96,327.88
41108870,1.153,-0.139,0.146,-10.71,-17.902,218.4
41108870,1.158,-0.453,0.273,-30.362,-6.615,123.567
41108890,0.688,-0.581,-0.006,-20.265,-9.38,42.49
41108890,0.241,-0.046,-0.488,0.56,-26.39,-17.027
41108910,0.028,0.746,-0.811,-13.825,-30.537,-46.777
41108910,-0.427,-0.143,-0.478,-64.295,-22.487,-53.13
41108920,-0.4,0.769,-0.424,-111.072,-11.952,-78.75
41108930,1.013,-1.998,0.547,169.767,171.342,53.83
41108940,-0.948,-1.29,0.672,462.752,-128.625,147.262
41108950,1.155,1.997,-0.291,573.212,-145.075,-238.105
41108960,-1.849,0.31,1.998,366.38,-26.18,-66.937
41108970,-0.696,-1.128,1.996,103.792,-103.11,-29.242
41108980,1.947,1.956,1.998,198.205,-155.435,-158.69
41108990,0.644,-1.138,1.568,-235.585,-4.725,-14.455
41109000,-0.094,-0.2,0.554,-219.467,48.825,-5.74
41109010,-0.903,-1.261,0.112,-150.255,32.13,-33.407
41109020,0.851,-1.56,0.452,-125.195,34.107,-51.607
41109030,0.463,-0.229,0.438,-76.527,43.995,-63.577
41109040,1.198,-0.393,0.776,-65.467,48.79,-18.34
41109050,0.975,-0.272,1.143,-64.05,54.967,37.327
41109060,0.674,-0.278,1.337,-86.835,58.38,84.49
41109070,0.483,-0.17,1.403,-119.332,66.692,105.542
41109080,0.103,-0.118,1.512,-163.555,90.545,110.547
41109090,-0.125,-0.201,1.596,-210.14,121.047,103.302
41109100,-0.351,0.046,1.513,-250.355,140.087,93.345
41109110,-0.458,0.189,1.313,-291.305,143.097,75.022
41109120,-0.063,-0.389,1.134,-321.457,154.857,36.61
41109130,0.442,-1.191,0.816,-324.852,196.385,18.9
41109140,0.896,-1.95,0.546,-308.052,241.78,7.017
41109150,1.26,-1.998,1.093,-285.495,254.66,-29.33
41109160,-0.679,-1.753,0.567,-173.092,235.147,-80.64
41109170,0.03,-1.985,0.444,-67.357,137.147,-120.47
41109170,0.514,-1.843,0.53,81.97,9.747,-156.73
41109190,0.094,-1.205,0.206,220.132,-63.332,-238.682
41109190,-0.915,-0.636,-0.139,260.662,-98.175,-255.325
41109210,-1.02,-0.312,-0.498,263.27,-138.722,-239.925
41109210,-0.576,-0.07,-0.921,246.435,-150.552,-196.367
41109230,-0.346,0.419,-1.175,204.645,-130.637,-132.562
41109230,-0.284,0.841,-1.077,118.177,-82.425,-53.515
41109250,-0.604,0.482,-0.701,3.01,-25.077,45.412
41109250,-0.815,-0.382,-0.183,-90.195,1.96,138.32
41109260,-0.56,-1.038,0.213,-115.57,-21.332,194.32
41109270,0.124,-1.177,0.318,-64.067,-76.93,211.522
41109280,0.75,-0.755,0.15,1.155,-120.312,210.962
41109290,0.983,-0.216,0.011,24.027,-133.612,196.665
41109300,1.176,-0.153,-0.007,0.367,-120.295,150.762
41109310,1.182,-0.34,0.07,-27.597,-99.715,85.82
41109320,1.004,-0.391,0.114,-38.43,-83.772,17.342
41109330,0.652,-0.319,0.097,-38.237,-75.11,-34.195
41109340,0.385,-0.169,-0.022,-42.017,-71.592,-64.015
41109350,0.181,-0.104,-0.084,-45.115,-66.745,-67.34
41109360,-0.162,0.08,-0.208,-30.275,-63.122,-35.227
41109370,-0.628,-0.016,1.712,-24.675,-76.562,29.61
41109380,-1.14,-1.953,1.056,121.712,124.285,287.297
41109390,-1.998,-1.998,-0.42,483.175,-142.03,480.042
41109400,1.088,0.621,0.762,491.085,-301.665,47.775
41109410,-1.386,1.997,1.603,470.277,-136.01,-35.42
41109420,-0.849,-0.657,1.787,293.72,-118.125,-181.405
41109430,-0.135,-0.092,1.998,233.45,-60.042,-318.657
41109440,1.648,1.688,1.998,164.972,-46.707,-362.18
41109450,1.985,0.285,1.902,-2.415,-12.04,-221.165
41109460,1.548,-0.046,1.136,-94.465,4.515,-72.817
41109470,0.507,-0.67,0.466,-123.69,-0.367,33.53
41109480,0.017,-0.743,0.422,-86.17,-4.48,64.715
41109490,-0.105,-0.707,0.787,-51.677,1.697,52.955
41109500,-0.018,-0.403,1.024,-42.63,9.835,32.305
41109510,0.038,-0.308,1.002,-51.362,18.217,22.19
41109520,0.074,-0.441,1.049,-62.387,27.44,14.857
41109530,0.181,-0.378,1.188,-74.095,35.21,8.05
41109540,0.196,-0.334,1.185,-99.102,45.972,2.345
41109550,0.265,-0.317,1.233,-127.925,62.93,-2.047
41109560,0.347,-0.243,1.281,-159.845,80.78,-1.82
41109570,0.101,-0.09,1.267,-184.24,90.65,7.332
41109580,-0.28,-0.182,1.146,-204.067,86.327,13.457
41109580,-0.348,-0.524,1.089,-220.465,70.087,4.042
41109600,-0.079,-0.908,1.026,-218.767,63.7,-3.115
41109600,0.227,-1.359,1.087,-194.32,80.622,-0.612
41109620,0.491,-1.47,0.912,-165.27,125.195,2.17
41109620,-0.179,-1.926,0.735,-125.177,184.712,13.737
41109640,-0.579,-1.998,0.172,-54.127,123.672,-24.517
41109640,0.683,-1.819,0.05,148.872,-42.7,-125.44
41109660,0.294,-0.364,-0.457,268.187,-86.782,-172.655
41109660,-0.608,0.131,-0.662,228.83,-58.887,-143.062
41109670,-0.639,-0.165,-0.45,156.922,-45.22,-91.49
41109680,-0.237,-0.506,-0.275,118.125,-47.81,-39.445
41109690,-0.124,-0.531,-0.213,117.337,-49.525,3.377
41109700,-0.183,-0.365,-0.223,130.742,-56.21,30.38
41109710,-0.053,-0.213,-0.222,135.187,-62.965,45.832
41109720,0.1,-0.191,-0.167,119.805,-64.785,58.66
41109730,0.096,-0.265,-0.19,89.757,-63.087,67.007
41109740,0.071,-0.248,-0.177,59.43,-62.93,72.485
41109750,0.176,-0.14,-0.069,24.132,-62.23,74.655
41109760,0.093,-0.248,0.078,-23.905,-59.027,79.8
41109770,-0.157,-0.495,0.145,-65.537,-65.835,85.365
41109780,-0.206,-0.474,0.064,-88.2,-81.532,92.155
41109790,0.087,-0.208,-0.007,-112.7,-83.702,106.487
41109800,0.13,-0.034,-0.044,-156.187,-62.335,128.73
41109810,0.855,-1.038,1.685,-174.667,38.115,140.682
41109820,-0.33,-0.849,-0.581,270.76,174.597,178.185
41109830,-1.814,1.997,0.742,499.345,-157.78,-74.042
41109840,-0.179,-1.294,1.364,221.672,-33.39,15.662
41109850,0.027,-0.961,1.634,211.767,-43.872,-6.597
41109860,-0.686,1.995,1.998,226.537,-64.697,-108.57
41109870,0.902,0.153,1.953,26.372,-60.865,-103.792
41109880,0.492,0.324,1.682,-38.622,-9.327,-101.255
41109890,0.194,-0.255,0.939,-79.992,15.96,-85.82
41109900,0.392,-1.215,0.453,-85.785,10.36,-45.307
41109910,0.128,-1.07,0.193,-51.415,-2.992,-31.202
41109920,0.302,-0.597,0.636,-6.947,-5.197,-26.495
41109920,0.438,-0.293,1.023,6.545,-3.78,-6.44
41109940,0.362,-0.244,1.171,-10.027,5.057,8.645
41109940,0.334,-0.188,1.362,-30.397,17.342,15.452
41109960,0.374,-0.084,1.364,-67.252,30.362,22.662
41109960,0.322,-0.027,1.416,-108.622,55.195,28.945
41109980,0.141,-0.216,1.512,-156.94,85.872,31.657
41109980,0.224,-0.116,1.469,-208.075,108.867,23.03
41110000,0.309,-0.044,1.356,-252.787,136.377,15.172
41110000,0.231,-0.024,1.191,-282.1,163.257,8.697
41110010,0.037,-0.225,0.923,-302.995,178.517,4.795
41110020,0.001,-0.83,0.964,-307.16,178.097,2.467
41110030,0.543,-1.369,1.093,-283.325,189.56,6.142
41110040,0.55,-1.756,1.024,-231.017,232.435,39.427
41110050,-0.036,-1.925,0.534,-167.23,255.36,64.085
41110060,-0.36,-1.56,0.363,-84.367,193.725,38.272
41110070,-0.435,-1.379,0.271,9.275,89.075,9.502
41110080,0.211,-1.433,0.159,65.45,8.505,21.822
41110090,0.192,-0.895,0.16,135.1,-77.035,33.04
41110100,0.003,-0.573,0.08,133.752,-132.842,21.367
41110110,0.069,-0.61,-0.045,112.857,-176.47,21.735
41110120,0.323,-0.579,-0.09,107.205,-214.445,18.182
41110130,0.516,-0.529,-0.059,98.752,-219.852,7.84
41110140,0.524,-0.546,-0.011,87.587,-204.82,-13.58
41110150,0.28,-0.541,0.051,82.495,-189.84,-36.995
41110160,0.05,-0.41,0.003,82.88,-181.877,-61.04
41110170,-0.055,-0.154,-0.107,81.06,-181.142,-81.655
41110180,-0.106,0.106,-0.197,66.727,-178.832,-94.797
41110190,-0.134,0.284,-0.195,34.877,-169.312,-101.29
41110200,-0.129,0.273,-0.072,-11.637,-148.627,-96.687
41110210,-0.21,0.027,0.083,-56.945,-116.287,-74.48
41110220,-0.412,-0.231,0.207,-79.432,-90.545,-44.065
41110230,-0.461,-0.285,0.219,-74.287,-78.995,-18.742
41110240,-0.298,-0.139,0.072,-61.705,-74.532,-2.03
41110250,-0.169,0.064,-0.016,-52.937,-68.46,5.25
41110260,-0.382,0.45,-0.459,-22.47,-60.322,26.337
41110270,0.625,-0.175,1.311,-9.607,-59.412,21.49
41110280,1.758,-1.998,0.718,114.485,229.74,113.767
41110290,-1.988,-1.998,0.871,473.322,166.582,352.187
41110300,0.957,0.937,-0.2,527.187,-106.19,-151.2
41110310,-0.688,1.997,1.953,480.112,31.832,-190.592
41110320,-0.453,-0.777,1.997,245.14,14.735,-7.682
41110330,-0.496,-0.326,1.998,165.952,-24.692,-82.705
41110330,0.856,1.83,1.998,102.83,-79.905,-142.642
41110350,1.252,-0.116,1.442,-86.45,-54.967,-52.92
41110350,-0.697,-0.463,0.738,-101.482,19.337,-27.282
41110360,-0.114,-1.052,0.346,-86.59,1.627,-50.61
41110370,0.435,-0.826,0.534,-56.507,-0.735,-64.575
41110380,0.686,-0.243,1.049,-35.717,10.675,-71.085
41110390,0.855,-0.082,1.13,-51.292,17.22,-31.832
41110400,0.706,-0.17,1.188,-76.58,25.112,13.527
41110410,0.334,-0.184,1.206,-103.32,28.875,46.165
41110420,0.125,-0.231,1.262,-131.53,32.69,57.085
41110430,0.004,-0.141,1.493,-161.7,37.555,50.942
41110440,-0.155,0.033,1.572,-213.675,48.58,37.835
41110450,-0.296,-0.166,1.482,-288.277,60.917,9.17
41110460,-0.394,-0.485,1.397,-337.137,68.74,-23.117
41110470,-0.293,-0.653,1.07,-366.012,67.025,-52.937
41110480,0.073,-0.651,1.289,-374.517,70.35,-67.462
41110490,0.424,-1.217,1.377,-360.045,103.477,-56.98
41110500,0.584,-1.969,0.804,-304.832,167.527,-22.33
41110510,-0.494,-1.686,0.55,-212.957,167.86,18.095
41110520,-0.367,-1.896,-0.015,-163.257,84.21,-1.19
41110530,-0.992,-1.846,-0.35,-123.69,-35.857,-2.677
41110540,-0.325,-1.418,-0.059,-73.885,-152.495,-9.222
41110550,0.177,-1.113,0.104,-26.092,-163.205,51.642
41110560,-0.025,-0.822,0.193,27.072,-160.772,92.015
41110570,0.122,-0.272,0.238,60.48,-172.672,81.62
41110580,0.181,0.058,0.125,36.767,-170.485,73.185
41110590,0.201,0.013,0.122,14.28,-168.717,66.115
41110600,0.185,-0.057,0.21,10.867,-154.542,76.912
41110610,0.205,0.065,0.371,4.235,-129.902,86.537
41110620,0.188,0.387,0.511,2.922,-104.195,78.662
41110630,0.305,0.689,0.586,8.662,-66.815,54.95
41110640,0.366,0.812,0.662,20.02,-16.695,29.207
41110650,0.143,0.723,0.704,37.327,25.935,4.532
41110660,-0.29,0.357,0.685,58.292,44.345,-8.137
41110670,-0.416,0.115,0.649,92.067,31.027,-14.472
41110670,-0.515,0.032,0.495,113.505,18.357,5.32
41110690,-0.326,-0.241,0.232,174.597,-6.072,17.465
41110690,-0.374,-0.096,-0.11,225.96,-20.912,48.177
41110710,-0.211,0.061,-0.461,266.28,-30.94,69.16
41110710,0.045,0.268,-0.742,256.042,-26.652,84.63
41110730,0.165,0.621,-0.934,201.302,-6.335,101.815
41110730,0.36,0.658,-0.986,110.652,26.25,107.292
41110750,0.599,0.597,-0.925,16.082,52.92,85.365
41110750,0.392,0.483,-0.831,-9.695,36.855,32.97
41110760,1.208,-1.998,0.679,49.105,145.915,19.18
41110770,-1.824,-0.852,-0.426,431.462,-140.087,-3.255
41110780,1.701,1.997,-0.526,573.3,-168.787,-327.635
41110790,-0.745,0.15,1.623,289.292,-26.302,-47.407
41110800,-0.904,-1.311,1.997,112.21,-82.18,14.945
41110810,1.628,1.997,1.998,338.677,-188.072,-160.912
41110820,1.151,-0.903,1.773,-171.517,-56.28,-42.77
41110830,0.989,0.705,1.442,-226.012,-4.165,-38.937
41110840,-1.04,-1.215,0.14,-198.152,66.885,19.81
41110850,0.63,-1.556,0.486,-159.372,17.01,-14.175
41110860,0.727,-0.308,0.881,-135.852,31.587,-16.8
41110870,0.529,0.002,1.002,-145.582,42.857,15.75
41110880,0.595,-0.306,1.191,-175.647,55.265,40.862
41110890,0.434,-0.271,1.225,-204.295,69.877,51.94
41110900,0.418,-0.235,1.288,-239.785,91.787,52.937
41110910,0.125,-0.006,1.454,-282.205,118.947,50.4
41110920,-0.167,-0.009,1.567,-339.185,131.39,39.97
41110930,-0.131,-0.417,1.392,-407.365,140.21,11.27
41110940,0.306,-1.064,1.22,-413.945,176.627,-6.51
41110950,0.788,-1.947,0.529,-389.112,246.067,-11.077
41110960,0.783,-1.998,0.868,-331.625,301.612,-23.38
41110970,-0.799,-1.689,0.204,-235.41,295.592,-78.575
41110980,-0.42,-1.565,-0.184,-130.935,192.062,-160.72
41110990,0.308,-1.079,0.264,-69.212,111.352,-182.595
41111000,-0.556,-0.822,0.522,-35.892,73.64,-227.482
41111010,-1.174,-0.938,0.618,-3.955,32.13,-239.592
41111010,-1.432,-0.158,0.603,67.637,-35.157,-178.482
41111030,-0.971,0.414,0.461,118.965,-76.825,-94.272
41111030,-0.525,0.666,0.47,120.732,-82.617,-29.872
41111050,-0.336,0.831,0.49,115.885,-67.27,21.892
41111050,-0.089,0.973,0.523,118.405,-36.75,48.895
41111070,0.118,0.998,0.606,120.032,7.367,57.627
41111070,0.147,0.843,0.745,111.877,55.142,53.532
41111080,-0.023,0.411,0.844,107.187,91.14,46.97
41111090,-0.235,-0.057,0.863,129.937,96.18,39.375
41111100,-0.368,-0.292,0.663,179.725,65.205,31.185
41111110,-0.361,-0.223,0.3,235.41,13.93,26.512
41111120,-0.237,0.01,-0.159,255.605,-30.555,23.275
41111130,0.047,0.155,-0.545,229.092,-51.975,21.28
41111140,0.387,-0.019,-0.692,172.917,-33.25,18.69
41111150,0.359,-0.567,-0.72,109.602,20.335,17.01
41111160,-0.069,-1.124,-0.732,67.2,70.035,15.995
41111170,-0.391,-1.182,-0.925,46.707,88.27,19.355
41111180,-0.418,-1.151,-1.032,13.282,81.427,40.565
41111190,0.175,-1.193,-1.348,-43.697,63.665,40.495
41111200,0.832,-1.968,0.85,-86.66,10.412,53.865
41111210,-0.741,-1.998,-0.839,127.382,-149.537,-62.965
41111220,0.261,0.694,0.42,545.615,-296.537,-207.007
41111230,-0.361,1.997,0.298,557.27,-147.735,-204.067
41111240,0.055,0.186,1.83,233.135,-87.902,-151.777
41111250,-0.996,-1.926,1.939,111.58,-127.82,-55.527
41111260,1.616,1.825,1.922,274.995,-202.895,-210
41111270,1.849,0.298,1.835,42.84,-107.257,-110.722
41111280,0.563,0.093,1.572,-88.865,-15.487,-3.92
41111290,0.014,-0.17,0.851,-132.195,52.867,7.472
41111300,-0.142,-0.484,1.175,-116.165,86.94,-23.555
41111310,0.624,-0.408,1.42,-148.05,107.275,-46.637
41111320,0.453,-0.028,1.339,-187.53,131.862,-42.192
41111330,0.506,0.049,1.209,-240.362,137.322,-29.82
41111340,0.424,-0.202,1.212,-289.852,149.205,-9.205
41111350,0.122,-0.18,1.331,-332.062,155.697,-1.61
41111360,0.026,-0.069,1.56,-390.932,164.552,-14.665
41111370,0.563,-0.592,1.426,-447.825,204.557,-47.547
41111380,0.924,-1.627,1.199,-461.545,317.362,-48.65
41111390,0.548,-1.998,1.243,-427.822,478.012,-14.542
41111400,-0.578,-1.937,-0.457,-298.445,502.11,-100.66
41111410,0.082,-1.955,-0.437,-151.672,355.32,-250.985
41111420,0.556,-1.937,-0.089,-62.58,254.432,-268.065
41111420,-1.77,-1.322,0.297,32.637,116.06,-315.087
41111440,-1.998,-0.935,0.406,78.365,-61.197,-339.762
41111440,-1.886,0.273,0.3,119.07,-193.672,-235.025
41111460,-0.596,1.015,0.009,117.827,-222.302,-126.367
41111460,-0.008,0.881,0.068,76.65,-145.687,-7.875
41111480,-0.034,0.514,0.179,43.75,-50.12,76.475
41111480,-0.329,0.422,0.38,41.562,2.887,122.727
41111500,-0.484,0.284,0.528,41.562,9.922,136.64
41111500,-0.347,0.042,0.63,51.082,-13.422,133.245
41111510,-0.246,-0.157,0.672,73.272,-44.257,130.515
41111520,-0.241,-0.31,0.661,105.157,-79.572,129.5
41111530,-0.236,-0.555,0.593,144.655,-116.655,133
41111540,-0.166,-0.635,0.458,187.722,-153.352,136.15
41111550,-0.171,-0.772,0.332,234.115,-186.095,141.68
41111560,-0.148,-0.679,0.077,271.705,-210.595,137.76
41111570,-0.14,-0.36,-0.331,297.237,-228.655,133.542
41111580,0.061,-0.014,-0.644,296.152,-227.797,127.032
41111590,0.156,0.417,-0.915,233.555,-197.33,131.565
41111600,0.047,0.557,-1.028,135.012,-148.872,145.985
41111610,-0.012,0.164,-0.887,15.54,-86.677,174.23
41111620,-0.096,-0.72,-0.761,-85.942,-24.412,224.437
41111630,-0.162,-1.311,-0.857,-130.392,12.005,257.04
41111640,0.082,-1.247,-0.948,-135.1,19.04,243.25
41111650,0.689,-1.059,-0.861,-143.937,27.562,196.857
41111660,0.926,-0.153,-1.232,-128.275,34.842,132.352
41111670,1.447,-1.178,1.565,-28.245,9.59,66.115
41111680,-1.437,-1.998,-0.767,305.742,-180.495,49.805
41111690,0.364,1.296,-0.146,569.065,-310.205,-95.62
41111700,0.402,1.562,1.992,503.072,-226.625,-158.34
41111710,0.159,-1.998,1.804,131.67,-233.59,-97.352
41111720,1.998,1.667,1.998,251.632,-214.97,-144.13
41111730,1.36,-0.004,1.854,-72.362,-68.477,-29.382
41111740,0.688,-0.378,1.161,-183.995,6.142,26.862
41111750,-1.015,-0.458,0.093,-134.242,48.965,3.272
41111760,0.237,-1.855,0.547,-101.657,19.337,-10.972
41111760,0.654,-0.17,0.951,-66.482,25.69,-29.592
41111780,0.714,0.101,0.997,-80.815,45.167,-7.245
41111780,0.641,-0.435,1.259,-108.955,61.652,40.25
41111800,0.4,-0.163,1.301,-132.387,67.042,57.417
41111800,0.374,-0.084,1.451,-172.06,82.145,65.31
41111820,0.255,-0.175,1.596,-228.095,104.58,63.35
41111820,-0.004,0.011,1.674,-284.812,118.317,61.757
41111830,-0.124,0.056,1.653,-335.755,118.702,67.952
41111840,-0.246,0.001,1.677,-375.252,118.247,69.195
41111850,-0.609,-0.894,1.916,-405.125,115.587,55.965
41111860,-0.047,-1.997,1.237,-393.627,150.867,36.767
41111870,1.088,-1.998,0.453,-303.065,193.585,16.992
41111880,0.733,-1.998,-0.169,-177.712,188.23,-89.215
41111890,0.844,-1.998,-0.492,-33.6,167.65,-229.11
41111900,-0.005,-1.58,-0.515,90.142,160.86,-271.32
41111910,-1.056,-0.846,-0.358,141.697,108.395,-261.502
41111920,-1.264,0.09,-0.623,155.977,14.927,-205.94
41111930,-0.873,0.515,-0.654,81.147,-55.58,-151.83
41111940,-0.491,0.149,-0.426,-1.627,-72.537,-61.95
41111950,-0.296,-0.256,-0.226,-38.097,-58.012,23.117
41111960,-0.165,-0.461,-0.091,-32.095,-54.827,53.97
41111970,-0.023,-0.458,-0.006,-5.495,-67.497,53.357
41111980,-0.059,-0.333,-0.003,20.772,-88.55,52.937
41111990,-0.06,-0.191,-0.026,29.82,-119.787,53.497
41112000,-0.042,-0.14,-0.041,27.86,-153.177,61.932
41112010,0.025,-0.089,-0.057,26.372,-183.05,75.915
41112020,0.181,-0.026,-0.029,25.077,-196.175,94.465
41112030,0.242,-0.021,0.062,21.105,-192.202,110.18
41112040,0.203,-0.095,0.117,19.197,-177.957,115.99
41112050,0.136,-0.066,0.073,28.385,-160.44,114.24
41112060,0.082,0.159,0.041,37.66,-143.972,109.427
41112070,0.001,0.328,0.056,32.637,-124.652,109.147
41112080,-0.052,0.245,0.16,17.377,-106.277,112.822
41112090,-0.222,0.168,0.031,-7.927,-89.722,122.43
41112100,-0.162,0.089,0.036,14.7,-91.577,121.73
41112110,-0.027,0.435,-0.116,19.407,-86.17,122.08
41112120,0.227,0.773,-0.076,49.892,-75.162,103.022
41112130,-0.065,0.682,-0.486,58.152,-71.802,90.72
41112140,1.098,-1.435,1.998,1.172,-28.595,112.91
41112150,-0.834,-1.998,-0.004,244.44,202.772,267.33
41112160,-0.266,0.93,-1.71,569.467,-323.767,-105.525
41112170,-0.406,1.979,1.436,537.967,-60.182,-109.602
41112170,-1.652,-1.047,1.176,284.322,-90.72,-30.275
41112190,0.021,-0.611,1.998,410.497,-103.477,-180.53
41112190,0.04,1.983,1.998,345.397,-134.785,-282.24
41112210,1.998,-0.381,1.97,52.815,-154.962,-193.515
41112210,1.464,1.087,1.6,-49.402,-51.135,-78.435
41112230,-0.349,-0.519,1.243,-111.37,23.345,19.232
41112230,-0.547,-0.479,0.76,-105.787,11.322,3.027
41112250,0.198,-0.702,0.795,-108.71,10.535,-38.797
41112250,0.728,-0.388,1.046,-107.975,27.895,-47.565
41112260,1.042,-0.136,1.054,-125.93,43.697,-16.66
41112270,0.89,-0.206,1.166,-148.837,57.4,35.542
41112280,0.671,-0.034,1.212,-177.59,64.155,72.24
41112290,0.594,-0.104,1.342,-220.727,81.357,90.107
41112300,0.313,-0.059,1.499,-270.532,100.922,91.665
41112310,-0.183,-0.103,1.649,-325.185,109.252,84.962
41112320,-0.442,-0.071,1.44,-378.735,99.732,71.645
41112330,-0.075,-0.396,1.482,-405.842,95.917,55.93
41112340,0.403,-1.64,1.65,-419.142,159.11,47.687
41112350,0.494,-1.998,1.544,-385.962,280.28,34.685
41112360,-0.179,-1.998,0.243,-260.82,371.42,8.82
41112370,-0.469,-1.998,-0.323,-108.675,300.177,-143.377
41112380,0.431,-1.998,-0.674,87.535,221.83,-242.62
41112390,0.381,-1.254,-0.541,269.36,154.525,-219.8
41112400,-0.489,-0.255,-0.474,298.55,104.685,-198.992
41112410,-1.304,0.095,-0.696,236.005,30.415,-157.832
41112420,-0.932,0.289,-0.772,124.67,-63.98,-147.84
41112430,-0.377,-0.014,-0.659,27.527,-95.165,-107.24
41112440,-0.226,-0.361,-0.523,-37.345,-72.327,-68.197
41112450,-0.259,-0.416,-0.285,-54.88,-47.565,-54.005
41112460,-0.327,-0.154,-0.006,-51.24,-36.05,-32.917
41112470,-0.386,0.134,0.194,-53.392,-46.655,-1.277
41112480,-0.266,0.278,0.31,-61.232,-72.747,31.587
41112490,-0.007,0.285,0.394,-66.045,-95.06,66.342
41112500,0.194,0.257,0.392,-59.097,-108.045,94.885
41112510,0.317,0.299,0.288,-39.48,-112.945,109.27
41112510,0.418,0.405,0.179,-17.92,-108.5,112.175
41112530,0.457,0.395,0.065,-7.017,-95.357,110.705
41112530,0.394,0.231,0.012,-4.655,-80.097,105.717
41112550,0.3,0.057,0.031,-1.242,-72.117,95.497
41112550,0.154,-0.047,0.077,6.037,-74.235,83.125
41112570,0.011,-0.01,0.078,17.395,-88.34,72.432
41112570,-0.081,-0.109,0.164,30.45,-106.26,68.25
41112580,0.027,0.367,-0.302,-0.175,-112.017,76.86
41112590,-0.2,-0.218,-0.278,13.44,-127.995,90.02
41112600,-0.24,0.386,-0.352,51.467,-156.065,86.362
41112610,-0.383,1.402,-0.826,121.117,-193.007,102.427
41112620,-1.094,0.029,0.588,46.427,-329.927,119.315
41112630,1.705,-1.998,1.011,-70.035,98.262,232.137
41112640,-1.998,-1.221,-1.158,453.967,-168.087,249.567
41112650,1.579,1.997,-0.201,573.37,-182.665,-252.192
41112660,-1.657,1.309,1.356,407.47,54.897,75.39
41112670,-0.62,-1.998,1.462,231.087,-104.807,7.402
41112680,-0.791,0.463,1.998,475.282,-83.195,-208.215
41112690,1.095,1.268,1.96,265.58,-146.755,-257.74
41112700,1.998,0.217,1.979,-18.742,-113.33,-125.877
41112710,1.096,0.743,1.403,-125.422,8.837,-23.835
41112720,-1.288,-0.215,1.273,-168.892,46.252,29.417
41112730,-0.103,-1.127,0.365,-185.447,21,-24.832
41112740,0.219,-0.763,0.529,-148.137,36.96,-62.527
41112750,0.772,-0.583,0.81,-136.605,47.46,-56.507
41112760,1.08,-0.329,0.751,-136.797,58.012,-21.7
41112770,1.062,-0.368,0.931,-139.702,67.462,28.262
41112780,0.901,-0.271,1.119,-149.607,70.717,75.512
41112790,0.549,-0.199,1.23,-176.802,73.762,106.4
41112800,0.07,-0.283,1.375,-214.007,79.205,114.73
41112810,-0.459,-0.14,1.369,-247.905,79.345,106.47
41112820,-0.638,0.006,1.275,-281.365,77.14,90.142
41112830,-0.437,-0.384,1.116,-323.505,83.737,62.737
41112840,-0.14,-1.273,0.937,-337.19,105.42,33.617
41112850,0.47,-1.941,1.022,-311.237,154.472,1.977
41112860,0.782,-1.998,0.887,-245.997,193.252,-22.225
41112870,0.433,-1.806,0.665,-162.19,239.592,-36.137
41112880,-1.067,-1.524,0.068,-78.242,217.665,-101.377
41112890,-0.645,-1.784,-0.22,-5.495,118.807,-128.852
41112900,0.302,-1.308,-0.03,102.41,25.987,-117.495
41112910,-0.093,-0.751,0.054,171.08,-23.59,-157.36
41112920,-1.009,-0.389,-0.018,182.49,-51.555,-166.127
41112920,-1.242,-0.025,-0.098,162.47,-92.855,-157.517
41112940,-1.153,0.124,-0.102,140.385,-121.8,-133.42
41112940,-1.157,0.23,-0.006,115.972,-130.707,-96.372
41112960,-1.035,0.338,0.182,88.48,-130.13,-69.702
41112960,-0.691,0.434,0.28,68.04,-120.102,-54.775
41112970,-0.256,0.554,0.449,58.922,-90.562,-37.205
41112980,0.087,0.611,0.453,61.88,-53.305,-16.362
41112990,0.093,0.682,0.486,69.195,-18.707,7.56
41113000,-0.193,0.663,0.521,63.752,-6.58,24.92
41113010,-0.22,0.511,0.53,58.45,-18.445,32.252
41113020,-0.017,0.201,0.606,71.435,-31.027,40.145
41113030,-0.037,0.303,0.52,86.59,-27.65,52.412
41113040,-0.406,0.493,0.084,101.675,-18.497,72.87
41113050,-0.449,0.867,-0.431,125.282,-22.75,96.635
41113060,-0.201,1.228,-0.784,113.417,-18.637,139.65
41113070,0.213,1.215,-0.987,81.742,-5.845,166.477
41113080,0.444,0.065,0.442,45.692,17.622,153.125
41113090,0.962,-1.998,0.028,149.205,218.75,55.142
41113100,-1.588,-0.853,-0.5,518.385,-243.775,-31.202
41113110,1.933,1.997,-0.641,571.865,-175.892,-195.58
41113120,-0.57,0.126,1.987,280.472,32.357,50.68
41113130,-0.079,-0.302,1.766,98.752,-104.23,53.725
41113140,1.59,1.662,1.873,207.602,-205.222,-166.232
41113150,1.598,-1.531,1.536,-227.185,-85.102,-43.207
41113160,0.598,0.113,0.649,-201.25,-47.302,-41.352
41113170,0.351,-1.19,0.481,-173.81,10.15,15.417
41113180,-0.454,-0.448,0.888,-71.382,12.88,11.112
41113190,0.385,-0.883,0.571,-111.16,-15.19,20.51
41113200,0.261,-0.256,0.744,-90.72,-3.71,16.59
41113210,0.495,-0.56,0.868,-94.797,8.907,32.585
41113220,0.45,-0.372,1.103,-97.947,22.015,42.21
41113230,0.462,-0.12,1.288,-114.205,35.192,50.452
41113240,0.294,-0.209,1.329,-150.115,49.28,62.02
41113250,0.068,-0.127,1.353,-184.887,56.14,63.402
41113260,-0.146,-0.096,1.297,-222.722,49.315,57.312
41113260,-0.303,-0.231,1.158,-251.632,29.75,48.335
41113280,-0.263,-0.447,1.023,-268.257,11.13,35.98
41113280,-0.198,-0.731,0.945,-263.025,5.162,27.667
41113300,-0.115,-0.913,0.805,-252.28,13.002,17.797
41113300,-0.169,-1.245,0.734,-226.94,36.155,-0.49
41113320,-0.091,-1.142,0.612,-177.695,50.785,-22.505
41113320,0.2,-1.082,0.602,-131.687,73.5,-39.06
41113330,-0.03,-1.147,0.39,-104.615,110.022,-50.995
41113340,-0.408,-0.978,0.452,-64.592,114.222,-73.675
41113350,-0.303,-1.294,0.568,-24.185,101.937,-97.807
41113360,0.229,-1.385,0.808,49.42,105.91,-111.895
41113370,-0.325,-0.706,0.21,145.792,105.612,-140.857
41113380,-0.563,-0.144,0.125,177.537,92.942,-154.035
41113390,-0.336,-0.221,-0.045,175.262,111.51,-112.087
41113400,-0.269,-0.149,-0.17,173.74,122.692,-69.387
41113410,-0.604,0.033,-0.293,165.655,125.317,-16.87
41113420,-0.884,0.126,-0.398,139.387,107.117,40.565
41113430,-0.566,0.265,-0.355,96.39,82.11,102.147
41113440,-0.182,0.123,-0.206,42.805,65.712,184.38
41113450,0.164,-0.273,-0.118,-19.005,58.24,241.972
41113460,0.29,-0.505,-0.245,-56.927,27.352,247.432
41113470,0.682,-0.291,-0.436,-83.86,-23.642,200.357
41113480,1.481,0.017,-0.714,-104.352,-65.117,123.217
41113490,1.933,0.528,-1.106,-114.135,-66.167,49.105
41113500,0.648,-0.485,1.141,-80.237,-96.915,-46.602
41113510,-1.032,-1.998,-0.377,87.797,-144.725,-46.9
41113520,-0.524,-1.142,0.738,501.217,-292.355,-24.255
41113530,1.311,1.997,0.376,547.225,-131.512,-159.582
41113540,-1.497,1.556,1.926,423.325,-84.262,-81.55
41113550,0.652,-1.995,1.8,126.56,-69.58,-116.69
41113560,1.087,0.763,1.998,213.08,-109.217,-162.295
41113570,1.388,0.996,1.983,69.3,-69.072,-106.82
41113580,0.605,-0.821,1.604,-84.122,-13.072,-24.972
41113590,0.269,0.131,1.046,-110.25,4.357,-13.842
41113600,0.124,-0.667,0.625,-133.315,15.12,5.81
41113610,0.314,-0.62,0.773,-117.635,32.252,-2.1
41113620,0.478,-0.409,0.998,-115.692,47.985,0.07
41113630,0.57,-0.234,1.052,-126.07,52.815,21.962
41113640,0.506,-0.293,1.08,-147.402,53.847,48.072
41113640,0.377,-0.346,1.103,-166.057,55.142,66.605
41113660,0.264,-0.44,1.173,-188.02,61.057,76.562
41113660,0.067,-0.387,1.298,-215.495,63.542,81.532
41113670,-0.134,-0.378,1.501,-245.262,51.695,82.285
41113680,-0.247,-0.31,1.54,-273.315,45.745,86.992
41113690,-0.135,-0.611,1.549,-287.7,60.217,85.767
41113700,-0.189,-1.388,1.712,-290.237,103.845,84.892
41113710,-0.279,-1.982,1.559,-283.832,142.73,59.115
41113720,-0.033,-1.998,0.908,-232.697,131.495,18.865
41113730,-0.313,-1.998,0.237,-120.4,104.09,-13.93
41113740,-0.191,-1.998,-0.181,60.935,53.077,-83.667
41113750,0.463,-1.758,-0.615,284.042,-10.465,-124.267
41113760,0.39,-1.07,-0.724,405.65,-1.242,-88.637
41113770,-0.077,-0.734,-0.826,400.802,-5.565,-44.432
41113780,-0.242,-0.249,-1.028,352.52,-41.125,-25.217
41113790,-0.2,0.079,-1.056,281.277,-88.532,-19.04
41113800,-0.046,0.2,-0.93,181.055,-120.61,-34.16
41113810,0.167,0.188,-0.783,77.787,-124.512,-56.175
41113820,0.163,-0.017,-0.539,10.535,-111.44,-77.77
41113830,0.008,-0.187,-0.25,-26.985,-92.382,-103.39
41113840,-0.172,-0.244,-0.03,-42.402,-75.95,-109.34
41113850,-0.333,-0.225,0.106,-52.097,-65.66,-89.32
41113860,-0.421,-0.181,0.182,-58.87,-66.57,-58.572
41113870,-0.427,-0.07,0.232,-62.72,-80.85,-27.37
41113880,-0.265,-0.029,0.315,-71.487,-92.837,2.607
41113890,-0.172,-0.142,0.402,-80.307,-95.2,32.322
41113900,-0.139,-0.141,0.421,-77.56,-97.037,51.677
41113910,-0.137,-0.003,0.368,-66.272,-98.28,66.815
41113920,-0.176,0.257,0.231,-57.802,-98,79.485
41113930,-0.182,0.669,0.057,-53.742,-96.722,93.047
41113940,-0.099,1.054,-0.099,-61.25,-86.94,110.932
41113950,0.053,0.847,0.094,-81.812,-69.51,128.1
41113960,0.039,0.286,-0.528,-145.81,-29.505,152.74
41113970,-0.176,1.706,-0.569,27.142,-63.98,115.745
41113980,1.76,-1.074,1.303,197.382,117.495,41.72
41113990,-1.797,-1.998,0.055,389.2,33.39,279.02
41114000,1.162,1.564,-1.177,573.317,-158.742,-210.682
41114010,-1.46,1.552,1.698,494.742,-56.175,-118.37
41114010,-1.17,-1.998,1.992,173.722,-53.235,22.295
41114030,0.619,1.566,1.998,358.977,-158.935,-193.165
41114030,1.818,1.011,1.998,57.767,-122.43,-99.942
41114050,0.667,0.071,1.721,-182.997,-30.555,-16.205
41114050,0.005,-0.77,0.336,-225.61,15.662,2.905
41114070,-0.385,-0.824,0.811,-118.562,20.492,-30.695
41114070,0.885,-1.084,0.756,-138.127,22.312,-58.975
41114080,0.741,0.01,0.999,-126.472,53.41,-54.425
41114090,1.18,-0.094,1.029,-154.122,76.475,-1.365
41114100,0.884,-0.258,1.24,-172.725,89.46,56.192
41114110,0.696,-0.108,1.252,-210.315,96.11,88.707
41114120,0.261,-0.013,1.366,-255.605,101.535,102.025
41114130,-0.191,-0.034,1.668,-307.632,110.757,100.1
41114140,-0.536,-0.172,1.571,-367.5,93.467,83.265
41114150,-0.251,-0.361,1.653,-412.685,74.427,56.665
41114160,0.351,-1.418,1.458,-421.207,126.315,46.042
41114170,0.687,-1.998,1.071,-379.697,216.282,26.495
41114180,1.102,-1.998,0.891,-281.715,256.095,-3.482
41114190,-0.837,-1.998,-0.47,-173.705,215.232,-103.372
41114200,-0.327,-1.973,-0.532,-46.497,87.202,-189.367
41114210,-0.253,-1.613,-0.247,77.84,-12.127,-186.392
41114220,-0.665,-0.955,-0.282,142.222,-68.845,-177.695
41114230,-1.17,-0.155,-0.435,166.32,-105.315,-115.605
41114240,-1.028,0.217,-0.401,118.72,-141.137,-71.4
41114250,-0.812,0.187,-0.215,45.027,-145.285,-10.78
41114260,-0.795,-0.006,0.033,-8.715,-135.59,36.137
41114270,-0.772,0.082,0.25,-37.782,-128.397,42.087
41114280,-0.511,0.37,0.403,-46.497,-114.17,30.065
41114290,-0.32,0.753,0.543,-48.825,-81.445,21.595
41114300,-0.17,1.121,0.628,-53.287,-32.252,4.882
41114310,0.052,1.328,0.686,-57.4,29.68,-16.677
41114320,-0.002,1.168,0.795,-49.227,92.452,-18.812
41114330,-0.302,0.828,0.865,-35.84,134.015,-13.877
41114330,-0.434,0.536,0.935,2.257,134.155,-10.5
41114350,-0.47,0.218,0.923,56.997,101.115,1.89
41114350,-0.627,0.088,0.796,113.242,48.737,35.122
41114370,-0.8,-0.007,0.564,164.482,-19.005,77.56
41114370,-0.877,-0.206,0.421,202.545,-96.32,116.06
41114390,-0.871,-0.564,0.106,217.997,-159.267,155.732
41114390,-0.954,-0.757,-0.216,231.682,-210.84,194.127
41114410,-0.585,-0.649,-0.431,219.502,-235.795,213.08
41114410,-0.359,-0.457,-0.61,180.477,-219.537,260.68
41114420,-0.21,-0.479,-0.847,144.935,-180.022,328.457
41114430,-0.052,-0.675,-1.208,154.945,-189.21,362.18
41114440,1.422,-1.998,-0.134,96.04,-24.272,141.54
41114450,-1.998,-0.115,-1.753,445.952,-126.98,-179.357
41114460,-1.638,1.997,-0.109,571.917,-27.055,-33.652
41114470,1.453,0.176,1.615,305.62,-85.75,55.702
41114480,-1.72,-1.291,1.998,229.88,-90.265,-40.827
41114490,1.809,1.997,1.998,336.157,-207.287,-145.705
41114500,1.075,0.126,1.646,-76.86,-96.215,-85.487
41114510,1.25,0.058,1.022,-186.76,-0.577,-67.637
41114520,-0.537,-1.015,0.375,-165.672,101.797,-19.39
41114530,-0.165,-1.054,0.904,-78.365,81.357,-60.62
41114540,0.572,-0.624,0.866,-68.337,53.497,-64.662
41114550,0.422,-0.166,0.992,-67.602,57.207,-33.25
41114560,0.621,-0.163,1.175,-82.11,64.137,-15.54
41114570,0.407,-0.334,1.24,-106.89,72.695,20.142
41114580,0.296,-0.109,1.333,-134.68,82.267,38.325
41114590,0.212,-0.023,1.455,-173.687,91.63,40.285
41114600,0.043,-0.049,1.493,-230.51,103.18,43.085
41114610,-0.187,0.045,1.434,-283.325,111.615,39.13
41114620,-0.197,-0.212,1.341,-327.687,117.075,32.235
41114630,-0.252,-0.507,1.057,-351.4,132.632,31.955
41114640,0.473,-0.935,1.368,-352.187,154.017,17.657
41114650,0.639,-1.857,1.393,-341.145,221.165,15.942
41114660,0.691,-1.998,1.089,-273.735,302.312,0.63
41114670,0.107,-1.998,0.218,-173.88,357.052,-14.49
41114680,-0.321,-1.998,0.162,-73.622,305.777,-84.63
41114690,-0.193,-1.937,0.046,57.12,222.092,-109.357
41114700,-0.385,-1.137,0.093,175.542,106.767,-97.317
41114710,-0.912,-0.457,-0.044,222.652,4.97,-59.15
41114720,-0.852,-0.355,-0.272,222.6,-85.382,-20.405
41114730,-0.323,-0.396,-0.383,205.992,-146.335,6.842
41114740,-0.308,-0.418,-0.373,187.81,-164.395,27.405
41114750,-0.455,-0.311,-0.386,162.032,-170.415,14.91
41114760,-0.474,-0.187,-0.46,140.612,-168.157,4.725
41114760,-0.409,-0.079,-0.494,117.302,-155.557,12.022
41114780,-0.352,0.026,-0.458,89.215,-139.265,17.78
41114780,-0.391,0.137,-0.409,54.74,-120.942,29.715
41114800,-0.368,0.158,-0.289,23.292,-104.37,49.42
41114800,-0.109,0.099,-0.147,-3.832,-85.82,67.427
41114820,0.271,-0.024,-0.04,-23.747,-56.105,80.85
41114820,0.606,-0.132,0.066,-33.687,-13.545,83.702
41114830,0.681,-0.079,0.1,-35.402,21.787,72.257
41114840,0.368,0.11,0.189,-42.315,24.062,47.967
41114850,0.074,0.103,0.09,-66.115,-10.78,14.14
41114860,0.437,0.141,0.04,-90.597,-55.405,-19.46
41114870,0.55,0.294,-0.101,-110.425,-79.87,-28.315
41114880,0.305,0.792,-0.354,-119.315,-93.607,-21.332
41114890,0.381,0.79,-0.496,-139.667,-102.112,-1.61
41114900,0.012,1.366,-1.254,-159.792,-109.97,44.327
41114910,1.028,0.03,1.764,31.185,-126.595,76.352
41114920,-0.835,-1.998,-0.074,172.2,104.055,336.892
41114930,0.584,0.456,-1.351,559.545,-390.582,-23.432
41114940,-0.537,1.997,1.49,554.015,-124.967,-15.522
41114950,-1.909,-0.445,1.351,152.582,-84.367,34.352
41114960,-0.543,-0.628,1.998,167.72,-128.135,-168.542
41114970,1.304,1.707,1.973,184.922,-154.63,-255.78
41114980,1.223,-0.37,1.589,-95.655,-18.06,-135.66
41114990,0.422,-0.306,1.069,-112.385,43.662,-98.437
41115000,0.973,-0.863,0.607,-141.382,29.82,-45.64
41115010,0.917,-0.398,0.906,-127.54,39.725,-10.71
41115020,1.053,0.008,1.341,-139.825,57.487,31.377
41115030,0.829,0.019,1.32,-186.742,74.97,74.095
41115040,0.715,-0.045,1.234,-230.632,82.197,105.56
41115050,0.431,-0.287,1.154,-272.422,91.735,123.777
41115060,-0.178,-0.24,1.388,-305.795,100.992,130.182
41115070,-0.936,-0.001,1.662,-347.742,98.91,123.165
41115080,-0.664,0.021,1.574,-411.32,77.63,86.52
41115080,0.688,-0.821,1.07,-432.372,122.622,44.38
41115100,1.721,-1.957,0.993,-430.937,219.345,-9.572
41115100,1.116,-1.998,0.437,-420.42,308.682,-114.467
41115120,-1.188,-1.659,-0.049,-248.762,371.7,-131.355
41115120,1.995,-1.998,0.513,-174.02,319.235,-223.335
41115140,1.018,-1.998,0.382,2.012,356.912,-372.452
41115140,-1.707,-1.979,-0.377,232.417,311.885,-560.822
41115160,-1.998,-1.046,-0.146,325.027,147.297,-524.895
41115160,-1.998,0.258,-0.244,339.815,-22.137,-385.175
41115170,-1.971,0.594,-0.776,281.645,-105.997,-221.06
41115180,-1.529,0.584,-0.601,191.712,-121.065,-72.852
41115190,-1.093,0.326,-0.498,110.092,-98.315,75.005
41115200,-0.841,-0.014,-0.498,84.875,-77.595,185.57
41115210,-0.517,-0.123,-0.361,101.78,-72.065,217.892
41115220,-0.301,-0.059,-0.244,104.807,-64.452,209.72
41115230,-0.194,-0.039,-0.176,80.5,-48.247,205.205
41115240,-0.001,-0.165,-0.055,51.8,-26.915,214.742
41115250,0.241,-0.3,0.085,35.245,-8.487,214.305
41115260,0.264,-0.373,0.157,33.25,6.755,211.155
41115270,0.149,-0.393,0.248,42.84,12.757,206.325
41115280,0.234,-0.396,0.276,52.622,8.33,190.277
41115290,0.476,-0.409,0.299,65.625,-2.135,165.497
41115300,0.514,-0.198,0.081,74.655,-16.52,140.297
41115310,0.543,-0.029,-0.028,74.007,-28.84,105.927
41115320,0.637,0.067,-0.098,52.377,-33.337,57.61
41115330,0.475,-0.12,-0.097,23.94,-31.08,14.42
41115340,0.345,-0.211,-0.088,0.437,-23.642,-21.717
41115350,-0.002,-0.353,-0.05,-11.147,-18.06,-26.425
41115360,-0.335,0.246,-0.28,-4.865,-29.26,-16.537
41115370,-0.743,0.41,-0.546,31.482,-67.112,16.397
41115380,-0.825,-1.81,1.867,-47.32,-166.547,43.627
41115390,-0.86,-1.998,-1.48,221.095,-263.445,59.412
41115400,1.816,1.482,-0.137,568.96,-238.717,-207.655
41115410,-1.924,1.997,0.95,534.257,-100.467,-45.325
41115420,0.978,-1.1,1.501,191.152,-104.492,-60.427
41115430,-0.615,0.058,1.985,256.812,-151.41,-134.295
41115440,1.908,1.613,1.855,181.44,-180.355,-188.912
41115450,1.323,-0.392,1.696,-93.922,-80.587,-42.192
41115460,0.555,-0.384,0.613,-147.507,1.435,-16.992
41115470,-0.775,-0.758,0.723,-94.762,41.825,-21.752
41115480,0.647,-0.627,1.036,-81.27,35.437,-66.342
41115490,0.848,0.022,1.337,-102.165,52.937,-55.755
41115500,0.956,0.005,1.263,-146.142,69.055,-8.365
41115510,0.789,-0.147,1.171,-180.95,87.202,38.692
41115510,0.468,-0.199,1.056,-203.962,99.645,66.045
41115530,0.47,-0.253,1.106,-227.5,109.217,74.112
41115530,0.161,-0.284,1.265,-260.347,118.492,77
41115550,-0.333,-0.035,1.277,-296.555,117.197,73.657
41115550,-0.46,0.05,1.196,-334.775,102.077,61.425
41115570,0.068,-0.488,1.11,-374.395,112.577,49.717
41115570,0.201,-1.123,0.911,-353.745,145.862,41.527
41115580,0.294,-1.517,0.898,-339.71,179.322,17.622
41115590,-0.077,-1.848,1.024,-297.57,226.957,16.747
41115600,-0.486,-1.945,0.623,-234.272,239.68,12.512
41115610,-0.247,-1.921,0.653,-151.182,173.862,-16.187
41115620,-0.854,-1.544,0.173,-50.732,83.142,-79.642
41115630,-0.115,-1.694,0.031,57.05,-2.817,-102.935
41115640,0.555,-1.006,0.019,183.19,-56.35,-88.9
41115650,0.194,-0.7,-0.1,245.822,-40.547,-82.25
41115660,-0.36,-0.649,-0.23,250.757,-34.527,-66.395
41115670,-0.46,-0.421,-0.269,240.747,-68.792,-57.365
41115680,-0.537,-0.252,-0.292,222.005,-90.23,-26.46
41115690,-0.494,-0.097,-0.317,191.047,-110.057,-3.447
41115700,-0.347,0.037,-0.288,149.065,-126.822,-0.7
41115710,-0.256,0.114,-0.294,108.395,-128.467,6.632
41115720,-0.026,0.134,-0.305,73.255,-111.772,13.177
41115730,0.306,0.055,-0.139,47.915,-68.985,24.325
41115740,0.484,-0.134,-0.011,35.017,-0.875,47.162
41115750,0.041,-0.151,0.073,44.537,50.067,73.867
41115760,-0.692,0.08,0.096,54.215,54.827,95.06
41115770,-0.914,0.19,0.158,33.635,14.035,109.13
41115780,-0.554,0.113,0.132,-5.635,-52.307,121.397
41115790,0.019,-0.015,0.041,-44.992,-110.652,124.757
41115800,0.588,0.075,-0.004,-64.452,-132.492,113.907
41115810,0.922,0.285,0.2,-76.142,-109.935,100.1
41115820,0.635,0.228,0.088,-89.145,-76.51,75.407
41115830,0.209,0.675,-0.226,-48.3,-76.772,30.677
41115830,-1.039,-0.283,1.124,20.212,-166.32,-3.465
41115850,0.289,-1.998,0.642,31.22,-158.112,39.095
41115850,-1.156,-1.827,-0.354,466.042,-314.177,202.212
41115870,1.587,1.933,-0.274,573.37,-184.432,-264.215
41115870,-1.998,1.609,1.367,494.427,0.437,-71.802
41115890,0.771,-1.709,1.732,250.705,-70.437,-56.28
41115890,0.063,0.611,1.998,315.717,-149.432,-184.59
41115910,1.87,1.643,1.996,117.232,-151.76,-144.497
41115910,0.772,-0.668,1.672,-160.457,-36.837,11.812
41115920,0.137,-0.508,0.601,-184.152,-8.785,26.792
41115930,-1.303,-1.125,-0.068,-77.367,19.757,16.082
41115940,0.17,-1.449,0.591,-30.31,-11.935,-54.005
41115950,0.322,-0.269,0.664,-17.797,-9.345,-89.775
41115960,1.084,-0.128,0.999,-10.797,10.43,-79.52
41115970,1.161,-0.13,1.223,-27.195,23.922,-25.917
41115980,1.014,0.005,1.344,-53.917,33.337,31.307
41115990,0.621,0.099,1.519,-97.965,48.002,79.835
41116000,0.32,0.029,1.605,-159.232,65.117,98.437
41116010,0.351,-0.037,1.531,-226.345,89.53,88.952
41116020,0.078,-0.002,1.657,-280.455,118.002,76.16
41116030,-0.491,0.062,1.407,-319.147,119.017,59.535
41116040,-0.493,-0.332,1.525,-351.925,98.245,39.34
41116050,0.441,-1.401,1.679,-354.165,118.51,33.932
41116060,1.226,-1.998,1.605,-283.622,231.385,47.53
41116070,0.759,-1.998,1.43,-195.825,297.377,-2.012
41116080,0.724,-1.998,0.367,19.232,125.702,-229.757
41116090,1.61,-1.462,-0.698,309.522,44.432,-339.22
41116100,-0.698,0.497,-1.1,341.285,54.95,-319.515
41116110,-1.675,0.462,-1.042,208.81,42.735,-306.442
41116120,-1.22,-0.413,-0.58,76.055,46.235,-203.017
41116130,-0.828,-0.871,-0.334,34.615,18.392,-95.602
41116140,-0.909,-0.662,-0.332,59.167,-23.8,-53.06
41116150,-1.012,-0.144,-0.396,64.697,-63.595,-25.585
41116160,-0.724,0.019,-0.389,44.362,-81.042,19.897
41116170,-0.31,-0.129,-0.274,9.257,-77.35,69.895
41116180,-0.202,-0.288,-0.146,-20.037,-71.61,113.12
41116190,-0.155,-0.309,-0.036,-34.125,-68.757,145.757
41116200,-0.012,-0.291,0.082,-44.17,-66.955,173.967
41116210,0.152,-0.278,0.144,-50.365,-68.285,198.257
41116220,0.317,-0.21,0.183,-52.675,-72.275,208.722
41116230,0.52,-0.076,0.256,-58.66,-73.902,201.477
41116240,0.753,-0.016,0.369,-72.957,-64.225,180.075
41116250,0.826,-0.135,0.438,-86.415,-49.665,143.5
41116250,0.837,-0.095,0.345,-80.64,-41.597,94.325
41116260,0.657,0.118,0.165,-66.5,-36.085,54.617
41116270,0.424,0.391,-0.026,-65.467,-35.35,19.162
41116280,0.322,0.563,-0.135,-79.8,-31.5,4.042
41116290,0.281,0.282,-0.153,-107.152,-21.98,14.857
41116300,0.037,0.601,-0.656,-116.375,-18.935,28.945
41116310,0.4,1.983,-0.273,38.71,-64.925,-23.817
41116320,1.354,-0.961,1.884,-4.427,46.357,69.597
41116330,-1.498,-1.998,-0.373,283.99,87.99,365.82
41116340,1.203,0.805,-0.367,572.792,-276.762,-94.832
41116350,-1.364,1.997,1.382,542.342,-58.555,-59.622
41116360,-0.672,-1.425,1.808,201.407,-64.312,-22.242
41116370,-0.47,-0.167,1.998,223.335,-98.052,-168.98
41116380,1.68,1.585,1.904,154.595,-100.852,-246.645
41116390,1.202,-0.552,1.961,-64.435,-5.792,-124.775
41116400,0.888,0.125,1.112,-131.162,15.872,-65.817
41116410,0.36,-0.756,0.415,-163.765,17.395,-2.467
41116420,0.381,-0.988,0.414,-128.397,19.005,19.985
41116430,0.497,-0.521,0.809,-92.627,29.802,22.89
41116440,0.526,-0.276,1.03,-95.55,45.01,37.555
41116450,0.537,-0.233,1.029,-113.697,58.782,59.395
41116460,0.42,-0.358,1.062,-134.75,71.925,77.647
41116470,0.381,-0.472,1.039,-155.557,83.877,87.062
41116480,0.241,-0.521,1.101,-176.872,98.717,90.667
41116490,-0.019,-0.375,1.324,-201.162,113.89,87.482
41116500,-0.101,-0.034,1.46,-220.465,122.395,86.905
41116510,-0.163,-0.087,1.36,-244.877,132.562,85.732
41116520,0.044,-0.89,1.312,-277.462,146.702,71.19
41116530,0.255,-1.832,1.172,-255.675,187.285,60.147
41116540,0.018,-1.998,0.622,-193.077,219.275,38.325
41116550,-0.14,-1.998,0.793,-144.025,184.222,-27.912
41116560,-1.555,-1.998,0.214,-35.752,69.72,-86.607
41116570,-0.557,-1.998,-0.221,138.67,-101.762,-107.327
41116580,-0.075,-1.197,-0.464,279.772,-223.457,-121.24
41116580,-0.375,-0.389,-0.895,273.315,-213.482,-104.02
41116600,-0.611,-0.198,-0.88,194.39,-191.712,-75.04
41116600,-0.471,-0.464,-0.595,126.56,-171.955,-39.76
41116620,-0.195,-0.685,-0.376,104.615,-149.117,-6.352
41116620,-0.311,-0.49,-0.233,92.732,-136.535,11.165
41116640,-0.666,-0.224,-0.184,79.257,-135.222,26.582
41116640,-0.68,-0.057,-0.27,56.77,-144.847,37.24
41116660,-0.357,0.08,-0.152,23.257,-147.297,47.092
41116660,-0.209,0.072,-0.009,-24.36,-127.19,60.83
41116670,-0.198,-0.064,0.236,-61.827,-94.745,72.275
41116680,-0.136,-0.222,0.379,-71.75,-57.715,83.702
41116690,-0.015,-0.126,0.373,-57.435,-26.25,93.73
41116700,0.198,0.174,0.282,-41.055,1.207,93.747
41116710,0.203,0.462,0.324,-46.025,23.625,81.935
41116720,-0.124,0.685,0.092,-66.395,24.43,51.275
41116730,-0.017,1.219,-0.286,-67.305,7.297,7.052
41116740,0.268,1.931,-0.512,-64.942,3.132,-17.902
41116750,0.173,1.841,-0.576,-92.645,20.79,-33.285
41116760,-0.137,0.539,-0.854,-148.085,62.02,-20.422
41116770,0.098,0.383,1.03,37.695,9.8,-59.92
41116780,0.037,-1.998,0.406,368.392,170.047,21.98
41116790,-0.257,0.082,-1.123,547.627,-313.005,-101.657
41116800,0.713,1.997,1.717,560.315,-94.99,-266
41116810,-0.414,-0.628,1.663,167.16,-11.812,24.99
41116820,-0.765,-0.321,1.998,214.707,-28.455,26.775
41116830,0.867,1.72,1.998,195.16,-105.682,-89.967
41116840,-0.081,-0.641,1.88,-216.352,-86.835,16.642
41116850,0.84,0.347,0.969,-240.747,-138.53,-30.222
41116860,-0.72,-1.217,-0.288,-216.405,-32.27,24.78
41116870,0.42,-1.654,-0.227,-166.285,-30.257,-19.547
41116880,0.65,-0.951,0.271,-110.477,-8.347,-35.087
41116890,0.707,-0.487,0.227,-67.27,0.035,-25.707
41116900,1.059,-0.532,0.577,-40.075,23.345,9.065
41116910,0.89,-0.286,1.075,-26.897,49.77,41.912
41116920,0.881,-0.318,1.182,-54.932,64.242,83.877
41116920,0.788,-0.225,1.227,-85.015,81.637,108.815
41116940,0.525,-0.012,1.379,-128.712,101.115,115.885
41116940,0.276,-0.012,1.579,-182.84,126.455,104.44
41116960,-0.272,-0.034,1.608,-242.655,145.197,80.43
41116960,-0.664,0.024,1.411,-293.44,129.622,60.462
41116980,-0.259,-0.096,1.206,-327.67,106.522,49.857
41116980,0.135,-0.554,1.056,-335.282,109.112,55.597
41117000,0.261,-1.155,0.816,-325.255,123.97,43.61
41117000,0.219,-1.809,0.639,-293.3,153.982,29.137
41117010,0.85,-1.998,1.032,-244.387,193.357,6.58
41117020,-1.046,-1.9,0.401,-144.672,209.352,-7.035
41117030,-1.068,-1.036,0.226,-57.697,126.49,-73.657
41117040,0.322,-1.842,0.402,-14.332,45.062,-88.83
41117050,1.635,-1.412,0.715,100.17,29.82,-99.242
41117060,-0.175,-0.522,0.179,205.677,23.047,-190.855
41117070,-1.659,0.134,0.167,203.087,-4.935,-175.07
41117080,-1.397,0.328,0.213,169.365,-61.092,-110.46
41117090,-0.37,0.206,0.165,155.225,-92.242,-42.332
41117100,-0.081,0.029,0.244,145.862,-72.292,34.772
41117110,-0.277,-0.167,0.293,143.307,-42.7,89.617
41117120,-0.239,-0.294,0.213,153.002,-34.177,108.482
41117130,-0.054,-0.179,0.084,163.677,-41.317,105.63
41117140,0.196,0.023,-0.078,153.72,-43.802,93.152
41117150,0.642,0.128,-0.199,124.88,-25.48,76.65
41117160,0.831,0.183,-0.137,85.575,10.325,54.967
41117170,0.558,0.109,-0.081,35.472,40.04,16.747
41117180,0.036,-0.168,-0.01,-2.222,45.15,-25.55
41117190,-0.446,-0.201,-0.117,-14.28,11.637,-59.797
41117200,-0.541,0.495,-0.69,-6.562,-47.46,-80.797
41117210,-0.071,1.643,-1.133,0.192,-80.412,-71.855
41117220,0.323,1.972,-1.163,-33.792,-53.742,-45.027
41117230,0.51,1.863,-0.922,-80.622,12.215,-51.73
41117240,-0.528,-0.453,-0.11,-15.802,7.017,-27.615
41117250,-1.567,-1.998,-0.828,154.245,-39.602,280.63
41117260,1.636,0.946,-1.182,542.937,-342.545,-256.007
41117270,-1.307,1.997,1.525,534.975,-54.985,-279.212
41117280,0.837,-0.619,1.996,118.895,-50.032,-124.512
41117290,0.09,-0.372,1.974,116.497,-134.067,-43.575
41117300,1.682,1.558,1.983,101.657,-131.565,-160.247
41117310,-0.276,-1.307,1.582,-207.935,25.235,28.962
41117320,-0.53,-0.15,0.724,-163.607,13.667,-23.922
41117330,0.221,-1.093,0.275,-186.392,15.382,-52.972
41117330,0.761,-0.743,0.799,-154.997,46.952,-69.23
41117350,0.988,-0.335,0.841,-152.705,61.775,-58.59
41117350,1.085,-0.101,0.866,-152.862,73.867,-5.67
41117370,0.928,-0.341,0.939,-171.29,82.32,40.162
41117370,0.677,-0.4,1.057,-184.73,91.315,73.692
41117390,0.498,-0.452,1.247,-216.3,102.62,83.09
41117390,-0.051,-0.095,1.429,-247.327,107.45,85.33
41117410,-0.198,-0.265,1.343,-300.912,107.747,78.382
41117410,0.166,-0.739,1.296,-329.717,134.925,70.84
41117420,-0.028,-1.311,1.151,-315.42,169.347,67.077
41117430,-0.265,-1.804,0.98,-297.29,216.912,53.987
41117440,-0.313,-1.998,0.567,-220.255,217.35,47.39
41117450,-0.159,-1.993,0.424,-173.74,137.76,-48.457
41117460,-0.746,-1.998,-0.274,-78.312,66.955,-102.112
41117470,-0.474,-1.862,-0.185,39.48,0.507,-101.237
41117480,-0.553,-1.275,-0.303,125.09,-52.5,-84.087
41117490,-0.393,-0.827,-0.197,187.757,-82.652,-23.625
41117500,-0.525,-0.442,-0.172,200.742,-94.71,42.017
41117510,-0.188,-0.295,-0.234,179.235,-104.177,80.08
41117520,0.069,-0.387,-0.212,160.037,-109.13,112.735
41117530,0.274,-0.375,-0.141,133.07,-104.597,113.61
41117540,0.415,-0.245,-0.062,116.777,-98.717,90.615
41117550,0.543,-0.045,0.04,100.117,-78.855,62.055
41117560,0.451,0.119,0.115,77.157,-50.855,29.732
41117570,0.281,0.196,0.214,58.677,-27.177,-7.385
41117580,0.045,0.235,0.27,45.465,-13.982,-46.585
41117590,-0.185,0.368,0.261,42.21,-19.74,-88.322
41117600,-0.214,0.552,0.209,40.897,-31.185,-118.685
41117610,-0.132,0.591,0.124,29.33,-32.217,-124.915
41117620,-0.096,0.487,0.091,8.47,-20.965,-109.445
41117630,-0.173,0.289,-0.027,-10.202,-1.942,-78.05
41117640,-0.334,0.248,-0.195,-19.145,12.32,-42.577
41117650,-0.484,0.455,-0.453,-25.48,14.122,-8.452
41117660,-0.593,0.907,-0.872,-37.047,1.732,21.822
41117670,-0.258,0.795,-0.997,-77.28,-22.785,24.307
41117670,0.877,1.076,-1.474,-107.345,-23.975,-82.67
41117690,1.353,-0.81,1.998,73.972,20.002,40.845
41117690,-1.481,-1.998,-0.049,252,46.515,391.177
41117710,1.354,1.183,-1.662,569.047,-290.465,-236.915
41117710,-1.192,1.997,1.791,514.5,-99.347,-277.025
41117730,-0.223,-1.785,1.618,-4.55,-54.915,5.582
41117730,0.006,0.11,1.998,129.902,-64.417,-23.502
41117750,1.285,1.659,1.998,27.685,-70.28,-156.555
41117750,0.36,-0.934,1.36,-180.32,-33.617,-17.342
41117760,0.089,-0.195,0.708,-177.205,-45.027,-6.982
41117770,0.032,-1.087,0.125,-187.827,-41.807,17.167
41117780,0.268,-1,0.569,-133.98,-19.985,6.912
41117790,0.604,-0.395,0.95,-119.875,8.872,-19.232
41117800,0.885,-0.01,1.056,-134.435,31.342,-4.305
41117810,0.988,-0.012,1.233,-166.145,55.93,34.492
41117820,0.792,-0.369,1.109,-216.212,73.587,66.5
41117830,0.808,-0.361,1.156,-250.757,89.425,81.812
41117840,0.515,-0.302,1.509,-289.59,121.38,98.297
41117850,-0.055,-0.199,1.593,-343.962,146.982,92.26
41117860,-0.121,-0.48,1.291,-390.985,153.405,65.765
41117870,-0.163,-1.61,1.084,-394.222,176.155,61.11
41117880,0.349,-1.634,0.907,-334.355,161.945,45.447
41117890,0.31,-1.653,1.036,-285.477,199.64,53.042
41117900,-1.025,-1.03,0.66,-203.35,170.52,-18.602
41117910,-0.851,-0.786,0.131,-138.862,58.275,-94.78
41117920,-0.017,-0.835,0.623,-102.742,15.032,-63.595
41117930,-0.602,-0.751,0.775,-57.225,9.222,-47.88
41117940,-0.803,-0.612,0.573,12.6,-44.467,-86.765
41117950,-1.106,-0.329,0.564,71.155,-74.287,-40.425
41117960,-0.82,-0.071,0.353,126.787,-98.157,37.957
41117970,-0.397,-0.038,0.219,176.732,-125.405,114.747
41117980,-0.122,-0.112,0.111,199.71,-130.077,184.555
41117990,0.046,-0.3,0.007,213.675,-125.58,218.75
41118000,0.383,-0.377,-0.058,226.397,-117.722,203.42
41118010,0.736,-0.137,-0.165,221.97,-97.562,152.495
41118020,0.948,0.168,-0.191,203.402,-56.227,99.032
41118030,0.846,0.316,-0.152,164.71,-1.68,55.51
41118040,0.498,0.219,-0.022,126.717,38.325,14.385
41118050,0.248,0.079,0.039,98.787,45.325,-39.55
41118060,0.08,0.006,0.167,88.9,30.205,-82.915
41118070,-0.015,-0.072,0.267,81.795,9.555,-109.462
41118080,0.035,-0.307,0.258,84.332,-4.147,-125.667
41118080,-0.02,-0.563,0.205,121.012,-16.1,-140.087
41118100,-0.199,0.056,-0.086,150.955,-30.17,-141.347
41118100,-0.757,0.487,-0.351,150.745,-42.157,-107.222
41118120,-0.675,0.943,-0.588,141.925,-69.842,-99.242
41118120,-0.151,0.706,-0.564,95.375,-58.607,-32.305
41118140,0.554,-1.995,0.284,40.705,95.182,123.095
41118140,-0.998,-1.463,-0.117,423.745,-273.7,200.445
41118160,1.983,1.997,0.131,569.52,-237.86,-359.485
41118160,-1.662,1.547,1.777,431.235,-71.4,-132.912
41118170,0.837,-1.861,1.983,86.205,-109.742,-81.62
41118180,1.798,1.943,1.917,168.017,-130.952,-67.445
41118190,0.838,-0.357,1.597,-120.33,-32.235,-42.017
41118200,-0.488,-0.309,1.234,-176.33,-0.052,9.082
41118210,-0.359,-0.411,0.331,-133.227,18.147,-21.735
41118220,-0.475,-1.087,0.941,-89.04,12.6,-61.425
41118230,0.681,-0.89,0.955,-112.087,15.207,-71.155
41118240,0.365,0.032,1.101,-114.275,39.427,-84.752
41118250,0.676,-0.097,1.094,-145.477,46.97,-53.795
41118260,0.607,-0.488,1.034,-175.472,58.502,-14.77
41118270,0.536,-0.46,1.11,-187.285,70.735,-3.832
41118280,0.445,-0.339,1.391,-217.07,93.17,2.66
41118290,0.019,-0.387,1.559,-263.655,111.317,3.237
41118300,-0.113,-0.231,1.35,-299.215,121.362,-8.295
41118310,-0.069,-0.774,1.312,-334.215,149.712,-23.38
41118320,0.16,-1.334,1.183,-340.34,211.522,-32.9
41118330,0.436,-1.986,0.489,-301.262,319.532,-9.012
41118340,0.703,-1.998,0.732,-253.295,334.897,-81.777
41118350,0.28,-1.998,-0.141,-149.415,268.957,-203.98
41118360,-0.444,-1.907,-0.261,10.832,178.325,-254.082
41118370,-1.073,-1.283,-0.222,119.717,76.212,-257.74
41118380,-1.072,-0.563,-0.206,168.98,-29.102,-203.962
41118390,-0.968,-0.11,-0.276,152.267,-88.48,-142.467
41118400,-0.855,-0.061,-0.302,119.822,-116.672,-70.595
41118410,-0.55,-0.074,-0.239,93.31,-122.57,0.157
41118420,-0.4,-0.205,-0.018,69.16,-105.735,59.937
41118420,-0.387,-0.488,0.11,59.447,-92.067,92.872
41118440,-0.372,-0.551,0.079,81.182,-96.25,105.945
41118440,-0.25,-0.209,0.022,107.152,-109.567,113.557
41118460,-0.131,0.15,-0.018,104.212,-120.557,132.562
41118460,-0.203,0.185,-0.067,68.302,-129.937,171.85
41118480,-0.079,0.038,-0.109,29.067,-141.907,213.482
41118480,0.238,-0.004,-0.121,7.28,-150.395,244.125
41118500,0.536,0.077,-0.108,-5.67,-146.632,253.82
41118500,0.619,0.253,-0.102,-16.59,-134.33,245.997
41118510,0.591,0.332,-0.066,-33.88,-118.737,223.44
41118520,0.565,0.278,-0.038,-52.692,-102.41,185.71
41118530,0.486,0.439,-0.101,-55.667,-92.19,140.665
41118540,0.442,0.323,-0.271,-49.472,-81.497,96.88
41118550,0.485,0.743,-0.616,-66.255,-66.762,51.8
41118560,0.243,1.596,-0.23,71.295,-107.572,-16.975
41118570,0.987,-1.34,1.96,76.422,-18.445,33.232
41118580,-0.843,-1.998,0.058,283.99,99.155,257.11
41118590,0.409,0.985,-1.628,572.477,-318.202,-108.22
41118600,-0.481,1.962,1.875,540.172,-90.335,-158.83
41118610,-1.473,-1.573,1.996,170.152,-39.9,74.707
41118620,-0.943,0.619,1.998,294.56,-119.822,-65.555
41118630,1.666,1.342,1.972,85.575,-153.02,-143.99
41118640,1.516,0.224,1.837,-226.992,-68.81,-51.152
41118650,-0.845,-0.236,0.541,-224.385,25.917,-35.717
41118660,0.382,-1.775,0.097,-222.775,0.21,-38.237
41118670,0.962,-0.945,0.502,-191.73,26.88,-49.017
41118680,0.65,-0.18,0.577,-162.82,41.737,-44.117
41118690,1.074,-0.548,0.615,-166.53,53.427,14.997
41118700,0.858,-0.438,0.989,-156.152,63.595,48.457
41118710,0.676,-0.32,1.138,-171.552,62.737,80.99
41118720,0.421,-0.359,1.343,-204.33,74.375,102.585
41118730,-0.522,-0.301,1.587,-240.782,67.655,97.545
41118740,-0.841,-0.042,1.534,-278.617,25.305,73.22
41118750,-0.539,-0.122,1.633,-309.977,-4.322,57.802
41118760,-0.013,-0.746,1.043,-333.55,7.822,46.48
41118770,1.193,-1.665,0.725,-349.562,39.357,20.195
41118780,1.139,-1.997,0.947,-331.607,128.695,6.667
41118790,-1.468,-1.721,0.203,-204.732,186.917,-39.48
41118800,-0.883,-1.195,-0.145,-93.607,88.235,-169.54
41118810,1.82,-1.68,-0.232,-34.177,96.372,-156.152
41118820,0.589,-1.783,-0.056,44.537,150.797,-219.572
41118830,-1.625,-0.89,-0.019,116.76,134.382,-299.652
41118830,-1.974,-0.051,-0.219,141.557,57.907,-236.075
41118850,-1.435,-0.007,-0.3,119.245,-27.265,-133.49
41118850,-0.782,-0.208,-0.158,87.57,-69.79,-17.797
41118870,-0.451,-0.563,-0.068,84.892,-85.732,71.382
41118870,-0.074,-0.584,-0.079,109.165,-99.855,84.455
41118880,0.422,-0.233,-0.068,133.612,-106.05,53.9
41118890,0.632,0.041,-0.031,124.39,-86.765,19.687
41118900,0.412,0.059,0.052,92.995,-59.657,-7.105
41118910,0.229,-0.01,0.145,69.072,-41.562,-28.892
41118920,0.194,0,0.209,58.292,-27.825,-45.482
41118930,0.064,0.08,0.25,62.72,-15.05,-48.142
41118940,-0.168,0.194,0.142,72.135,-5.39,-36.295
41118950,-0.385,0.369,-0.003,84.122,-3.832,-9.8
41118960,-0.364,0.612,-0.104,80.027,-2.887,27.247
41118970,-0.382,0.674,-0.1,48.737,0.63,75.67
41118980,-0.468,0.441,-0.09,0.63,-1.68,114.555
41118990,-0.327,-0.033,-0.146,-30.275,-16.362,131.88
41119000,0.04,0.282,-0.239,-10.92,-30.222,123.812
41119010,0.024,0.171,0.191,51.03,-54.6,115.727
41119020,1.678,-1.998,0.52,78.907,193.497,107.537
41119030,-1.998,-1.56,0.227,425.53,-74.007,78.26
41119040,1.129,1.994,-0.198,546.717,-105.052,-268.537
41119050,-0.508,0.672,1.782,444.202,-37.87,-66.71
41119060,-0.593,-1.998,1.596,230.422,-20.09,85.33
41119070,-0.84,1.519,1.998,407.662,-55.895,-115.99
41119080,0.942,1.024,1.959,140.175,-97.842,-87.92
41119090,0.767,1.065,1.86,-92.925,-75.162,-50.067
41119100,0.246,-0.168,1.393,-194.652,-57.085,-14.385
41119110,0.498,-1.189,0.42,-228.235,-37.607,10.78
41119120,-0.474,-0.44,0.802,-120.12,7.227,-3.167
41119130,0.714,-0.726,0.905,-163.975,0.612,-3.745
41119140,0.754,-0.012,1.035,-163.712,13.44,22.05
41119150,0.737,-0.106,1.034,-186.865,24.342,60.655
41119160,0.617,-0.393,1.075,-215.057,36.26,93.975
41119170,0.545,-0.329,1.165,-239.12,49.297,101.937
41119170,0.178,-0.251,1.339,-268.695,60.2,100.642
41119190,-0.107,-0.354,1.559,-313.337,58.695,92.347
41119190,-0.165,-0.504,1.37,-351.977,43.697,75.127
41119210,0.511,-1.046,1.474,-346.745,64.067,70.717
41119210,0.623,-1.9,0.938,-322.647,136.955,76.02
41119230,0.801,-1.988,0.581,-248.797,169.54,60.182
41119230,-0.179,-1.95,0.267,-195.562,129.5,2.222
41119250,-0.787,-1.668,-0.24,-134.26,16.187,-69.667
41119250,-0.003,-1.303,0.162,-68.932,-67.602,-78.942
41119260,-0.403,-1.317,0.249,-12.075,-87.43,-74.83
41119270,-0.946,-0.711,0.264,64.907,-114.66,-60.182
41119280,-0.778,-0.1,0.143,108.43,-134.575,-39.532
41119290,-0.718,0.106,0.138,102.97,-127.54,-9.677
41119300,-0.609,0.092,0.191,101.325,-114.17,23.502
41119310,-0.415,0.019,0.308,107.66,-90.23,44.117
41119320,-0.282,-0.049,0.436,110.232,-57.61,43.75
41119330,-0.355,-0.165,0.468,121.887,-23.205,39.165
41119340,-0.478,-0.295,0.293,150.657,7.63,39.707
41119350,-0.508,-0.222,-0.027,195.877,24.517,44.17
41119360,-0.421,0.236,-0.224,227.22,36.995,56.192
41119370,-0.571,0.677,-0.384,197.732,55.755,76.632
41119380,-0.717,0.549,-0.389,125.65,61.477,88.48
41119390,-0.326,0.103,-0.181,60.007,61.32,88.812
41119400,-0.061,-0.353,0.044,23.345,68.565,92.295
41119410,-0.127,-0.555,0.305,24.815,67.27,88.725
41119420,-0.444,-0.579,0.27,47.74,38.15,85.767
41119430,-0.382,-0.387,-0.11,74.095,-11.865,84.682
41119440,0.251,0.097,-0.503,84.612,-53.602,73.587
41119450,0.726,0.442,-0.681,43.802,-48.195,67.06
41119460,0.789,0.224,-0.65,-21.332,-1.05,59.01
41119470,0.264,-0.065,-1.053,-54.11,42.647,47.81
41119480,0.292,-1.764,1.685,-27.475,-56.892,-13.405
41119490,-0.672,-1.998,-1.132,263.532,-257.565,-109.69
41119500,1.622,1.051,-0.17,564.252,-267.435,-220.622
41119510,-1.063,1.997,1.334,536.427,-102.217,-96.215
41119520,-0.918,-1.64,1.956,168.665,-88.55,1.487
41119530,0.585,0.996,1.998,299.845,-185.675,-89.407
41119530,1.541,0.403,1.896,26.67,-131.25,-84.297
41119550,1.293,0.054,1.347,-191.992,-50.417,-55.23
41119550,0.782,-1.051,0.28,-214.742,21.367,-14.052
41119570,-0.76,-0.828,0.789,-99.592,40.967,-3.885
41119570,0.781,-0.934,0.95,-101.325,22.12,-17.465
41119580,0.386,0.046,1.142,-103.88,38.482,-1.855
41119590,0.576,-0.158,1.161,-138.372,54.95,31.255
41119600,0.305,-0.27,1.24,-166.775,60.515,55.405
41119610,0.378,-0.274,1.299,-200.917,69.825,61.617
41119620,0.342,-0.132,1.544,-239.872,89.547,60.445
41119630,-0.016,0.143,1.803,-296.765,108.377,57.802
41119640,-0.442,0.206,1.537,-362.32,102.585,54.862
41119650,-0.06,-0.268,1.461,-412.177,89.88,38.605
41119660,0.556,-1.425,1.289,-427.577,140.717,29.89
41119670,0.722,-1.998,0.979,-383.722,247.712,24.465
41119680,0.439,-1.998,0.944,-301.087,306.425,-4.392
41119690,-0.076,-1.83,0.599,-190.662,251.44,-120.4
41119700,-0.835,-1.998,0.126,-84.84,185.832,-182.735
41119710,0.297,-1.507,-0.065,60.9,110.477,-167.352
41119720,0.362,-0.63,-0.116,165.812,69.352,-183.452
41119730,-0.336,-0.287,-0.117,161.105,82.162,-150.255
41119740,-0.606,-0.071,-0.122,140.28,54.88,-117.915
41119750,-0.671,0.04,-0.155,113.102,5.285,-89.442
41119760,-0.631,0.051,-0.209,86.187,-34.247,-45.955
41119770,-0.376,0.042,-0.205,61.005,-63.437,-19.862
41119780,-0.188,0.008,-0.214,45.71,-71.837,-7.665
41119790,-0.178,0.038,-0.245,40.88,-63.525,2.047
41119800,-0.16,0.156,-0.264,34.16,-50.277,6.247
41119810,-0.191,0.22,-0.234,18.987,-35,12.372
41119820,-0.139,0.09,-0.119,0.857,-15.837,22.05
41119830,-0.15,-0.166,0.031,-6.23,2.625,33.757
41119840,-0.216,-0.359,0.183,6.44,12.162,42.805
41119850,-0.32,-0.49,0.224,35.017,8.365,51.17
41119860,-0.413,-0.518,0.145,66.902,-11.9,61.25
41119870,-0.479,-0.476,0.012,90.562,-44.66,77.175
41119880,-0.413,-0.395,-0.162,98.525,-83.877,92.977
41119890,-0.286,-0.128,-0.325,87.885,-123.375,104.72
41119900,-0.066,0.19,-0.611,56.595,-159.495,103.25
41119910,0.574,0.359,-0.652,3.517,-159.652,95.725
41119920,0.788,0.477,-0.72,-52.08,-137.602,92.4
41119920,0.794,0.493,-0.677,-94.762,-124.652,62.755
41119940,0.72,0.922,-0.896,-118.632,-115.395,21.612
41119940,0.597,-0.1,1.07,-42.49,-120.592,-33.337
41119960,-0.42,-1.998,-0.654,154.385,149.992,231.857
41119960,-0.337,-0.12,-0.935,559.737,-392.402,-33.705
41119980,0.321,1.997,1.954,551.792,10.43,-250.442
41119980,-1.791,0.168,1.234,199.377,8.172,5.25
41120000,0.173,-1.674,1.998,174.947,-48.58,-20.597
41120000,0.776,1.997,1.998,302.732,-172.97,-237.597
41120010,1.998,-0.252,1.789,-70.332,-102.585,-83.947
41120020,-0.748,0.196,1.45,-139.387,33.74,-27.702
41120030,0.04,-0.622,0.33,-160.37,13.37,-31.552
41120040,0.601,-1.552,0.316,-146.65,22.662,-20.405
41120050,0.663,-0.385,0.669,-98.35,38.745,-41.457
41120060,0.99,-0.252,0.818,-98.192,44.905,4.375
41120070,0.841,-0.376,1.024,-108.797,59.64,48.247
41120080,0.502,-0.263,1.15,-121.31,65.292,78.75
41120090,0.463,-0.286,1.171,-153.58,76.667,92.207
41120100,0.204,-0.301,1.329,-188.79,98.525,91.175
41120110,-0.004,-0.134,1.566,-230.352,116.34,78.645
41120120,-0.281,-0.044,1.477,-266.367,117.652,70.857
41120130,0.028,-0.216,1.127,-290.097,133.175,57.767
41120140,0.466,-0.886,1.108,-315.595,184.607,56.63
41120150,0.969,-1.365,1.07,-316.575,270.182,45.552
41120160,0.55,-1.819,0.278,-295.067,348.617,28.542
41120170,1.361,-1.998,0.807,-266.385,333.13,-34.265
41120180,0.706,-1.998,-0.074,-172.497,249.76,-152.792
41120190,1.253,-1.998,-0.201,19.652,173.617,-226.17
41120200,0.629,-1.765,-0.064,138.687,99.225,-309.452
41120210,-1.13,-1.125,-0.21,169.68,42.105,-368.34
41120220,-1.948,-0.48,-0.499,159.862,-51.642,-343.875
41120230,-1.514,0.014,-0.469,143.255,-142.152,-278.862
41120240,-0.918,0.191,-0.558,113.172,-152.232,-141.995
41120250,-0.833,0.218,-0.469,78.995,-119.857,9.607
41120260,-1.022,-0.044,-0.116,34.807,-98.962,113.75
41120260,-1.227,-0.404,0.048,16.87,-123.637,177.52
41120280,-0.951,-0.519,0.055,34.16,-182.822,207.62
41120280,-0.177,-0.395,0.01,54.81,-226.94,209.335
41120300,0.7,-0.202,0.052,61.985,-215.67,201.582
41120300,0.967,-0.118,0.135,56.595,-158.095,193.305
41120320,0.72,-0.119,0.078,54.53,-106.89,168
41120320,0.49,0.032,0.055,53.935,-77.402,134.785
41120330,0.145,0.237,-0.025,45.552,-86.345,99.19
41120340,0.168,0.258,-0.097,30.275,-110.425,67.165
41120350,0.408,0.075,-0.146,17.955,-116.795,47.81
41120360,0.437,0.112,-0.304,17.465,-101.815,26.932
41120370,0.109,0.41,-0.447,13.93,-76.44,6.947
41120380,-0.246,0.716,-0.63,-3.99,-55.457,-12.985
41120390,-0.303,1.146,-0.952,8.365,-63.402,-38.062
41120400,1.39,-1.175,1.918,47.967,58.03,44.117
41120410,-1.418,-1.998,0.066,328.632,92.627,364.087
41120420,0.825,0.422,-1.031,572.442,-311.885,-82.617
41120430,-0.737,1.997,1.543,554.417,-53.042,-200.69
41120440,-0.315,-0.585,1.983,249.602,-47.022,-3.622
41120450,-0.602,-0.388,1.958,171.045,-64.662,-109.55
41120460,1.652,1.946,1.998,114.695,-120.085,-216.86
41120470,-0.11,-0.33,1.716,-182.787,24.692,-26.285
41120480,-0.095,0.339,1.236,-224.367,31.605,-25.917
41120490,0.142,-1.163,0.038,-285.792,10.885,-0.91
41120500,0.2,-1.316,-0.292,-214.812,21.14,-12.285
41120510,0.574,-1.106,0.241,-140.805,29.277,-19.652
41120520,0.734,-0.755,0.472,-108.552,37.397,-9.135
41120530,0.731,-0.48,0.574,-80.237,32.34,15.89
41120540,0.593,-0.386,0.967,-61.792,35.297,50.26
41120550,0.247,-0.5,1.143,-78.207,34.3,71.05
41120560,0.142,-0.442,1.178,-100.712,42.122,69.405
41120570,-0.279,-0.47,1.361,-132.86,56.577,62.387
41120580,-0.548,-0.286,1.556,-169.015,53.812,39.76
41120590,-0.645,-0.115,1.51,-200.637,38.307,21.927
41120600,-0.233,-0.473,1.299,-239.627,35.91,-6.037
41120610,0.188,-1.089,1.09,-252.612,80.15,-24.937
41120620,0.237,-1.448,1.006,-236.425,135.8,-30.782
41120630,-0.022,-1.794,0.511,-205.852,180.355,-37.187
41120640,-0.135,-1.998,0.759,-161.822,161.542,-71.417
41120650,-0.674,-1.998,-0.039,-83.965,82.617,-137.935
41120660,0.009,-1.627,-0.186,45.675,18.672,-138.775
41120670,-0.089,-0.994,-0.097,129.78,-4.042,-144.077
41120670,-0.962,-0.673,-0.183,139.37,-3.71,-120.505
41120690,-1.215,-0.491,-0.242,128.502,-21.927,-58.362
41120690,-0.687,-0.41,-0.189,110.372,-57.137,-1.697
41120710,-0.3,-0.37,-0.09,92.242,-75.022,51.555
41120710,-0.218,-0.293,0.008,80.027,-95.812,84.787
41120730,-0.077,-0.291,0.082,68.267,-109.287,100.065
41120730,0.103,-0.327,0.142,60.637,-110.862,112.385
41120750,0.283,-0.341,0.152,59.535,-101.885,119
41120750,0.381,-0.331,0.086,60.322,-81.287,127.855
41120760,0.48,-0.203,-0.042,64.627,-56.577,138.407
41120770,0.569,0.04,-0.194,62.702,-35.717,145.075
41120780,0.591,0.253,-0.248,33.582,-22.085,140.927
41120790,0.617,0.261,-0.39,-19.46,-15.662,122.115
41120800,0.633,0.345,-0.503,-74.182,-18.602,82.897
41120810,0.555,0.588,-0.52,-113.977,-20.195,36.995
41120820,0.373,0.649,-0.512,-140.052,-18.917,-2.87
41120830,0.383,0.541,-0.7,-147.525,-8.522,-35.997
41120840,0.226,1.493,-0.555,9.327,-36.82,-105.052
41120850,1.312,-1.341,1.219,78.855,91.84,-47.425
41120860,-1.889,-1.998,-0.121,397.18,-8.085,274.592
41120870,1.839,1.521,-0.277,573.37,-202.842,-238.052
41120880,-1.8,1.923,1.596,514.377,-65.152,-120.767
41120890,0.863,-1.87,1.926,142.327,-28.28,62.982
41120900,-1.186,0.858,1.998,270.795,-74.235,-90.317
41120910,1.611,0.781,1.984,63.192,-106.347,-118.405
41120920,0.027,0.124,1.864,-117.11,-21.857,-43.61
41120930,0.333,-0.249,0.819,-172.882,-18.55,-66.08
41120940,0.519,-1.067,0.257,-191.065,-6.055,-22.102
41120950,0.648,-0.866,0.422,-149.712,16.117,-27.842
41120960,0.859,-0.472,0.874,-127.977,32.585,-1.277
41120970,0.687,-0.33,0.918,-141.4,41.037,35.56
41120980,0.506,-0.162,1.113,-152.337,55.037,60.06
41120990,0.454,-0.3,1.1,-189.21,77.595,68.32
41121000,0.29,-0.365,1.158,-222.547,102.095,64.19
41121010,0.017,-0.345,1.347,-255.027,122.972,50.26
41121010,-0.092,-0.211,1.399,-293.527,134.89,29.855
41121030,-0.003,-0.291,1.205,-328.055,147.875,11.252
41121030,0.298,-0.839,1.089,-336.175,193.812,14.77
41121050,0.894,-1.616,1.115,-344.085,290.027,3.36
41121050,0.162,-1.925,0.632,-310.1,385.717,10.657
41121070,0.496,-1.989,0.749,-237.877,375.742,-78.067
41121070,-0.401,-1.968,0.007,-137.532,280.647,-198.87
41121080,1.172,-1.998,-0.08,-3.605,226.905,-277.532
41121090,0.106,-1.964,-0.332,136.412,189.245,-370.09
41121100,-1.709,-1.333,-0.498,231.507,144.812,-445.9
41121110,-1.998,-0.294,-0.481,242.48,37.712,-390.25
41121120,-1.829,0.213,-0.78,200.287,-48.86,-276.71
41121130,-1.805,0.531,-0.679,122.325,-100.765,-128.957
41121140,-1.858,0.284,-0.31,24.64,-136.43,23.24
41121150,-1.563,-0.301,-0.111,-28.21,-177.117,166.075
41121160,-1.403,-0.487,0.131,-11.147,-236.565,265.737
41121170,-1.256,-0.377,0.261,25.375,-291.165,317.065
41121180,-0.625,-0.258,0.146,55.3,-315.84,340.585
41121190,1.149,0.133,0.214,101.622,-277.462,348.355
41121200,1.996,0.583,0.554,132.125,-167.947,356.702
41121210,1.572,0.641,0.539,112.612,-60.357,306.075
41121220,1.121,0.522,0.363,105.385,7.455,230.965
41121230,1.012,0.364,0.158,138.075,23.117,171.622
41121240,1.044,0.615,0.11,170.8,-1.47,94.797
41121250,0.75,0.906,-0.104,140.752,-26.46,8.505
41121260,0.536,0.717,-0.23,110.617,-46.515,-85.067
41121270,0.294,0.523,-0.369,88.077,-37.747,-130.27
41121280,-0.191,0.792,-0.499,89.407,-22.802,-144.182
41121290,-0.944,1.171,-0.619,98.717,-23.502,-137.585
41121300,0.804,-1.687,0.331,78.207,94.395,-14.77
41121310,-1.253,-1.529,-0.112,407.312,-165.812,117.705
41121320,1.568,1.997,-1.155,573.37,-256.83,-405.597
41121330,-1.877,0.877,1.847,362.705,-48.632,-159.985
41121340,0.774,-1.408,1.67,39.235,-122.815,27.44
41121350,1.903,1.997,1.827,349.387,-204.89,-185.185
41121360,1.019,-0.986,1.719,-198.677,-38.325,-13.475
41121370,0.409,0.478,1.422,-236.04,-7.227,-22.277
41121380,-0.166,-1.001,0.221,-246.627,41.562,-9.135
41121390,0.05,-1.111,1.044,-127.732,33.81,-27.107
41121400,0.922,-0.649,0.798,-175.14,37.555,-38.027
41121410,0.765,0.115,1.015,-172.112,63.665,6.545
41121420,0.882,-0.087,1.111,-184.03,72.695,52.377
41121420,0.637,-0.291,1.153,-224.612,85.732,88.777
41121440,0.387,-0.19,1.326,-262.36,100.31,88.602
41121440,0.037,-0.033,1.449,-308.472,112.472,84.507
41121460,-0.023,-0.214,1.413,-357.822,119.472,78.085
41121460,0.426,-0.793,1.427,-380.537,150.482,66.342
41121480,0.36,-1.562,1.228,-367.5,224.595,66.29
41121480,0.005,-1.949,0.378,-308.647,311.027,55.02
41121490,0.149,-1.998,0.125,-246.697,315.297,9.222
