time[ms],accX[g],accY[g],accZ[g],Value 1,Value 2,Value 3
41048050,-0.519,-1.153,1.095,-313.022,-88.095,-40.005
41048070,0.53,-1.609,0.754,-331.24,-85.715,-57.68
41048070,1.998,-1.942,1.209,-394.747,-43.907,-60.217
41048080,0.448,-1.998,0.853,-358.277,181.895,-24.955
41048090,-0.598,-1.93,0.709,-226.94,192.412,-117.565
41048100,1.383,-1.998,-0.158,-126.875,111.072,-170.047
41048110,1.087,-1.93,-0.296,63.84,159.442,-224.63
41048120,-1.505,-1.078,-0.187,192.92,151.9,-298.672
41048130,-1.998,-0.224,-0.445,229.285,78.172,-284.69
41048140,-1.747,0.12,-0.544,194.46,4.147,-210.385
41048150,-1.075,0.209,-0.474,109.287,-27.772,-137.637
41048160,-0.957,0.084,-0.636,46.567,-18.917,-74.83
41048170,-0.978,0.194,-0.597,56.297,20.65,-19.617
41048180,-0.864,0.432,-0.407,63.7,60.322,25.532
41048190,-0.742,0.424,-0.193,31.272,83.982,72.992
41048200,-0.548,0.133,0.017,-24.535,100.94,125.545
41048210,-0.214,-0.13,0.129,-63.945,111.282,171.36
41048220,0.154,-0.213,0.287,-63.927,124.11,208.792
41048230,0.154,-0.291,0.371,-42.612,127.032,232.242
41048240,-0.048,-0.42,0.363,-22.96,113.767,242.235
41048250,-0.18,-0.546,0.269,-12.302,77.892,241.395
41048260,0.006,-0.413,0.397,-17.097,6.702,216.597
41048270,0.506,-0.505,0.202,-33.005,-82.355,184.17
41048280,1.22,-0.404,0.145,-5.407,-119.28,159.827
41048290,1.734,-0.175,0.131,-41.807,-116.375,120.032
41048300,1.742,-0.193,0.159,-92.12,-87.605,77.56
41048310,1.383,-0.692,0.203,-126.21,-44.537,37.835
41048320,0.577,-1.908,1.188,-37.555,-52.255,-22.207
41048330,-1.674,-1.998,1.998,196.892,-169.697,-16.555
41048340,-1.008,-1.998,0.06,215.267,-139.44,85.697
41048350,-0.218,-0.919,-0.215,364.49,-91.262,172.217
41048360,-0.027,1.272,1.713,308.56,-114.45,99.172
41048370,-1.883,0.615,1.313,277.707,-74.917,15.557
41048380,-0.557,-0.867,1.294,200.462,-92.4,-87.22
41048390,-0.035,-0.5,1.375,184.327,-37.152,-166.967
41048400,-0.038,0.476,1.669,151.06,-4.55,-187.565
41048410,0.581,-0.225,1.422,41.09,1.067,-154.577
41048420,0.515,-0.185,1.231,-0.945,1.592,-107.415
41048420,0.462,-0.388,0.929,-31.062,-5.005,-54.617
41048440,0.256,-0.696,0.682,-36.225,-10.885,-18.935
41048440,0.1,-0.627,0.801,-18.83,-6.107,-4.305
41048450,0.091,-0.389,1.044,-16.625,2.31,-1.4
41048460,0.125,-0.309,1.144,-39.007,13.282,1.68
41048470,0.208,-0.354,1.172,-70.98,24.062,7
41048480,0.237,-0.346,1.212,-105,38.937,11.165
41048490,0.323,-0.332,1.227,-138.232,56.437,13.702
41048500,0.379,-0.394,1.261,-187.407,87.482,13.842
41048510,0.032,-0.227,1.357,-246.242,123.917,3.727
41048520,-0.426,0.169,1.388,-319.34,138.337,-12.547
41048530,0.061,-0.502,1.189,-412.632,133.192,-28.472
41048540,1.216,-1.941,1.001,-506.957,209.527,13.405
41048550,1.669,-1.998,1.467,-564.602,396.847,122.552
41048560,1.632,-1.998,0.753,-504.525,480.34,49.035
41048570,1.775,-1.998,0.421,-262.342,550.847,-94.167
41048580,0.475,-1.998,-0.698,0.175,427.647,-197.015
41048590,-1.998,-1.893,-1.338,359.31,145.512,-348.04
41048600,-1.998,-0.057,-1.671,541.905,-86.695,-479.01
41048610,-1.385,1.438,-1.791,460.845,-225.312,-520.922
41048620,-0.78,1.723,-1.643,297.832,-173.215,-392.035
41048630,-1.65,1.531,-1.04,115.99,-83.457,-197.12
41048640,-1.998,1.32,-0.028,-81.55,-29.4,-64.33
41048650,-1.906,1.03,0.612,-201.355,-24.885,64.61
41048660,-1.115,0.626,0.762,-235.025,-50.522,163.24
41048670,-0.326,-0.076,0.752,-202.457,-56.682,192.43
41048680,0.01,0.158,0.874,-134.47,-34.807,155.47
41048690,-0.221,0.121,0.89,-60.672,-12.127,168.42
41048700,-0.031,-0.162,0.824,-22.732,5.11,164.972
41048710,-0.012,-0.408,0.696,34.965,3.657,159.897
41048720,-0.034,-0.44,0.585,101.867,-5.232,153.475
41048730,0.016,-0.461,0.376,151.952,-22.487,150.815
41048740,0.13,-0.505,0.104,178.29,-45.78,143.43
41048750,0.236,-0.562,-0.136,186.235,-63.665,119.297
41048760,0.295,-0.641,-0.314,170.94,-78.032,73.517
41048760,0.406,-0.536,-0.554,141.767,-91.507,28.805
41048780,0.362,-0.335,-0.709,109.095,-85.802,-1.277
41048780,0.163,-0.251,-0.803,63.455,-93.135,-22.277
41048800,0.16,-0.289,-0.665,11.445,-108.272,-24.972
41048800,0.201,-0.443,-0.342,-53.375,-120.855,-15.89
41048820,-0.004,-1.028,-0.072,-109.532,-148.05,-0.56
41048820,0.431,-1.302,-0.359,-30.362,-172.672,-11.62
41048830,-0.225,-1.872,1.974,84.945,-182.752,58.887
41048840,-1.004,-1.998,0.449,34.09,32.27,177.73
41048850,-0.508,0.281,-1.588,484.715,-314.965,179.532
41048860,1.069,1.343,1.872,285.617,-21.42,138.302
41048870,-1.973,-1.162,0.748,145.39,-1.277,42.49
41048880,-1.708,-0.43,0.988,184.135,-20.842,-35.577
41048890,-0.064,-0.935,0.879,141.242,22.645,-138.6
41048900,-0.792,-0.925,1.077,126.315,83.177,-215.705
41048910,0.475,0.121,1.305,117.232,77.385,-218.977
41048920,0.732,-0.39,1.08,67.392,50.732,-163.415
41048930,0.716,-0.167,1.124,64.872,25.025,-109.812
41048940,0.61,-0.268,1.04,50.4,-0.105,-48.405
41048950,0.384,-0.403,1.02,36.802,-12.582,-1.26
41048960,0.031,-0.446,1.054,20.965,-12.092,21.98
41048970,-0.115,-0.473,1.065,1.137,-11.672,21.857
41048980,-0.147,-0.417,1.063,-20.912,-8.505,13.265
41048990,-0.086,-0.459,1.082,-45.36,-6.265,6.86
41049000,0.05,-0.399,1.117,-70.157,-3.587,-0.665
41049010,0.117,-0.44,1.134,-93.152,-2.905,0.455
41049020,0.126,-0.333,1.213,-116.287,-2.17,10.045
41049030,0.132,-0.523,1.157,-155.89,-2.345,13.44
41049040,-0.105,-0.579,1.073,-191.362,8.347,13.667
41049050,-0.404,-0.501,1.132,-228.795,9.607,1.242
41049060,-0.468,-0.607,1.121,-276.587,-2.065,-18.602
41049070,-0.412,-1.248,1.149,-327.967,-14.612,-38.132
41049080,-0.182,-1.905,1.296,-357.14,3.045,-26.845
41049090,0.108,-1.998,1.663,-365.312,93.187,29.19
41049100,-0.62,-1.998,0.71,-322.28,118.877,57.487
41049110,-0.75,-1.998,-1.032,-258.335,-21.017,11.742
41049120,-0.635,-1.981,-1.873,-91.84,-111.947,-53.76
41049120,-0.58,-1.093,-1.374,72.765,-113.085,-26.407
41049140,-0.788,-0.502,-1.152,67.462,-156.38,37.065
41049140,-0.489,-0.177,-0.925,2.852,-240.642,67.48
41049160,0.142,0.007,-0.778,-78.277,-287.437,104.195
41049160,0.581,-0.099,-0.284,-143.342,-277.847,142.135
41049170,0.546,-0.276,0.097,-173.53,-251.37,153.982
41049180,0.41,-0.165,0.384,-164.377,-240.502,137.025
41049190,0.487,-0.041,0.484,-148.522,-237.002,113.697
41049200,0.727,0.009,0.52,-134.96,-217.525,92.382
41049210,0.722,0.087,0.571,-108.622,-176.032,71.12
41049220,0.503,0.204,0.649,-77.752,-125.072,50.89
41049230,0.217,0.155,0.746,-54.25,-87.36,36.19
41049240,0.143,0.17,0.655,-54.722,-68.197,19.302
41049250,-0.112,-0.282,0.592,-12.442,-56.332,18.042
41049260,-0.126,-0.209,0.642,61.897,-44.45,8.697
41049270,-0.138,-0.29,0.586,93.257,-42.665,-2.345
41049280,-0.238,-0.42,0.444,119.227,-39.567,8.365
41049290,-0.218,-0.36,0.257,157.36,-26.407,24.832
41049300,-0.369,-0.298,0.139,205.397,-11.445,47.39
41049310,-0.651,-0.06,-0.036,241.78,-18.637,60.305
41049320,-0.794,0.363,-0.219,247.485,-62.037,57.015
41049330,-0.46,0.997,-0.316,195.352,-93.292,72.502
41049340,0.453,1.134,-0.606,102.147,-58.817,107.327
41049350,0.484,0.973,-0.771,124.302,52.482,126.665
41049360,0.127,-1.805,0.483,181.982,-14.7,-51.485
41049370,0.722,-1.623,-1.026,167.737,32.48,-113.767
41049380,-0.145,1.997,0.881,531.632,264.757,-65.765
41049390,-1.998,1.25,1.215,391.282,181.125,7.455
41049400,0.129,-1.894,0.866,305.795,-50.015,50.102
41049410,-0.013,-0.055,1.441,449.75,-30.835,-29.19
41049420,-1.054,1.669,1.998,427.472,-37.905,-51.747
41049430,0.609,-0.682,1.894,99.627,-69.09,-59.01
41049440,0.549,1.058,1.908,39.392,-26.512,-57.4
41049450,0.197,-0.43,1.17,-124.88,5.81,-29.89
41049460,0.123,-0.579,0.694,-140.647,18.13,-20.772
41049470,0.118,-0.868,0.574,-125.877,21.332,-15.767
41049480,0.213,-0.583,0.834,-92.435,22.837,-8.207
41049490,0.17,-0.466,0.991,-91.875,26.407,3.605
41049500,0.091,-0.383,1.118,-106.942,33.39,9.992
41049510,0.143,-0.438,1.123,-133.315,42.682,12.757
41049510,0.047,-0.378,1.08,-155.557,53.27,15.767
41049530,-0.097,-0.306,1.176,-189.77,61.88,12.302
41049530,-0.41,-0.3,1.017,-233.485,53.987,1.085
41049550,-0.487,-0.674,1.006,-295.19,35.402,-25.007
41049550,-0.265,-1.296,0.95,-356.055,23.292,-50.96
41049570,-0.213,-1.288,1.094,-359.415,44.94,-63.297
41049570,-0.345,-1.799,0.938,-345.03,119.35,-34.685
41049580,-0.053,-1.998,0.8,-313.722,168.455,-5.495
41049590,-0.025,-1.998,0.897,-269.57,195.212,-48.195
41049600,-0.37,-1.973,-0.211,-169.032,145.88,-69.737
41049610,-0.01,-1.788,-0.01,-78.785,90.23,-114.1
41049620,-1.484,-0.947,-0.078,25.217,35.752,-124.127
41049630,-1.439,-0.04,-0.331,79.712,-32.042,-66.307
41049640,-0.998,0.239,-0.458,59.185,-64.085,58.03
41049650,-0.544,0.04,-0.367,28.84,-54.565,183.75
41049660,-0.031,-0.058,-0.013,-12.18,-47.582,254.082
41049670,0.184,-0.057,0.281,-50.732,-52.552,280.385
41049680,0.251,-0.199,0.477,-85.697,-60.322,285.232
41049690,0.506,-0.319,0.564,-119.455,-81.69,269.867
41049700,0.697,-0.483,0.614,-136.92,-109.637,244.825
41049710,0.844,-0.622,0.619,-125.755,-145.267,199.412
41049720,1.054,-0.563,0.531,-85.54,-181.23,136.745
41049730,1.399,-0.427,0.451,-35.962,-203.612,63.98
41049740,1.489,-0.431,0.424,-1.732,-200.06,-16.747
41049750,1.313,-0.502,0.408,27.212,-176.347,-93.59
41049760,0.994,-0.379,0.306,41.877,-143.062,-146.807
41049770,0.413,-0.582,0.072,77.472,-120.4,-165.462
41049780,0.083,-0.458,-0.303,140.962,-103.88,-177.747
41049790,-0.145,0.117,-0.798,181.247,-101.727,-183.12
41049800,-0.345,0.76,-1.266,202.877,-105.63,-175.245
41049810,-0.647,1.451,-1.169,197.4,-121.537,-144.917
41049820,-0.969,1.868,-0.814,94.727,-166.04,-100.747
41049830,-1.46,1.008,-0.945,-44.065,-234.097,-30.415
41049830,0.703,-1.972,1.947,-88.095,-76.877,234.395
41049850,-0.508,-0.999,-1.978,346.745,5.932,289.555
41049850,0.242,1.997,1.604,559.44,45.255,170.467
41049870,-1.998,0.545,0.94,316.33,-20.142,115.622
41049870,0.219,-1.998,0.606,188.09,-109.76,12.407
41049890,-1.281,1.268,1.721,488.862,-26.985,-169.61
41049890,0.169,0.948,1.998,276.237,-16.257,-237.545
41049910,0.972,0.099,1.832,58.677,9.782,-225.26
41049910,0.997,0.44,1.621,5.687,24.535,-147.227
41049920,0.68,-0.366,1.078,-80.482,8.19,-51.31
41049930,0.489,-0.446,0.905,-94.762,-9.012,12.722
41049940,0.175,-0.507,0.887,-102.76,-5.355,46.725
41049950,-0.122,-0.526,0.978,-107.467,0.21,56.052
41049960,-0.226,-0.482,1.055,-112.577,4.48,48.247
41049970,-0.249,-0.546,1.001,-128.205,5.372,29.557
41049980,-0.08,-0.629,0.923,-142.905,9.38,11.095
41049990,0.155,-0.522,0.967,-151.48,20.492,1.662
41050000,0.083,-0.446,1.09,-179.917,57.89,-0.875
41050010,-0.415,-0.385,0.945,-207.777,69.597,-13.037
41050020,-0.359,-0.39,0.826,-234.955,56.105,-40.53
41050030,-0.189,-0.835,0.851,-272.335,39.462,-49.525
41050040,0.094,-1.059,0.765,-276.447,47.792,-44.957
41050050,0.221,-1.55,0.77,-275.572,83.667,-23.922
41050060,0.401,-1.589,0.519,-233.59,129.08,8.715
41050070,-0.092,-1.779,0.895,-157.465,138.425,39.672
41050080,0.203,-1.896,0.827,-119.945,89.6,29.75
41050090,0.085,-1.472,0.316,-14.612,-2.432,-33.46
41050100,0.044,-1.191,0.303,46.217,-62.405,-55.597
41050110,0.325,-0.962,0.136,109.865,-60.987,-38.587
41050120,0.399,-0.766,-0.036,141.19,-49.805,-44.887
41050130,0.42,-0.536,-0.354,161.49,-26.88,-49.192
41050140,0.369,-0.2,-0.557,179.847,6.107,-52.622
41050150,0.24,0.053,-0.549,167.667,8.662,-66.78
41050160,0.068,0.08,-0.384,126.157,-8.33,-81.637
41050170,-0.063,-0.052,-0.213,77,-20.492,-84.752
41050180,-0.288,-0.116,-0.13,47.897,-31.797,-70.735
41050190,-0.453,-0.017,-0.173,32.882,-48.545,-46.567
41050200,-0.491,0.15,-0.211,16.957,-57.575,-5.25
41050210,-0.467,0.229,-0.197,-12.39,-60.725,45.237
41050220,-0.323,0.169,-0.151,-55.702,-64.855,84.35
41050230,-0.185,0.136,-0.092,-94.815,-71.365,103.512
41050240,0.102,0.1,-0.328,-130.305,-94.622,86.502
41050250,0.928,0.193,0.682,-4.322,-89.845,33.005
41050260,0.952,-1.597,1.657,77.192,163.852,153.23
41050260,-1.82,-1.998,-1.997,192.517,-66.622,221.655
41050280,1.61,1.295,0.457,551.932,-17.902,27.23
41050280,-1.982,1.518,1.738,458.99,55.965,45.36
41050300,-0.252,-1.901,1.024,233.642,-51.59,-44.292
41050300,-0.539,0.38,1.712,344.505,-15.05,-143.43
41050320,0.11,1.091,1.964,236.617,-14.367,-189.875
41050320,0.525,0.188,1.891,40.127,-0.717,-166.932
41050330,0.407,0.446,1.784,-46.847,16.082,-120.925
41050340,0.228,-0.357,1.253,-146.09,11.27,-68.197
41050350,0.267,-0.392,1.082,-174.562,6.422,-47.022
41050360,0.338,-0.477,1.109,-200.217,22.522,-37.642
41050370,0.157,-0.654,1.145,-221.235,45.955,-36.925
41050380,-0.08,-0.363,1.009,-232.837,54.25,-46.917
41050390,0.084,-0.497,0.93,-277.725,47.74,-77.647
41050400,-0.042,-0.707,0.927,-308.98,43.365,-105.56
41050410,-0.244,-0.661,1.082,-328.037,28.735,-125.65
41050420,0.174,-1.035,1.073,-355.302,29.89,-130.725
41050430,0.88,-1.716,0.921,-374.78,118.51,-75.722
41050440,1.48,-1.998,0.763,-386.732,298.007,-7.175
41050450,1.212,-1.998,0.857,-337.487,357,-72.852
41050460,1.91,-1.971,0.576,-230.807,387.012,-145.827
41050470,0.81,-1.998,0.069,-74.322,347.375,-240.677
41050480,-1.788,-1.69,0.29,126,222.46,-329.35
41050490,-1.998,-0.731,0.346,237.177,62.002,-335.702
41050500,-1.998,-0.276,-0.129,263.077,-96.092,-269.22
41050510,-1.772,-0.01,-0.617,257.005,-181.667,-158.462
41050520,-1.131,0.157,-0.813,233.24,-196.56,-34.842
41050530,-0.981,0.096,-1.102,215.74,-175.875,81.602
41050540,-0.933,0.101,-1.329,218.19,-140.192,167.982
41050550,-0.843,0.322,-1.07,199.167,-115.99,220.885
41050560,-0.808,0.377,-0.606,116.847,-138.355,258.422
41050570,-0.814,0.011,-0.291,-5.722,-183.487,298.48
41050580,-0.728,-0.721,-0.178,-85.995,-220.587,346.167
41050580,-0.23,-1.144,-0.241,-74.865,-240.922,377.23
41050600,0.562,-0.723,-0.319,-8.855,-219.695,391.58
41050600,1.15,-0.111,-0.43,25.567,-170.765,406.77
41050620,1.725,0.075,-0.232,-16.642,-84.28,409.43
41050620,1.741,0.041,0.19,-86.695,-11.567,343.192
41050640,1.233,0.282,0.553,-129.202,-5.04,204.872
41050640,1.035,0.334,0.096,-194.075,-44.87,39.287
41050660,-0.47,0.424,-0.125,-4.585,-153.107,-148.592
41050660,0.617,-1.402,1.469,159.687,-248.185,-169.82
41050670,-0.564,-1.855,-1.997,98.665,144.602,207.165
41050680,1.335,1.96,0.335,567.402,-79.432,-118.265
41050690,-1.473,0.88,0.782,396.06,184.485,26.687
41050700,-0.544,-1.998,0.115,161.035,2.642,56.822
41050710,0.118,0.47,1.679,471.222,7.385,-43.155
41050720,-1.135,1.519,1.985,386.942,-19.442,-84.42
41050730,0.407,-0.84,1.764,92.557,-51.607,-77.525
41050740,0.162,0.782,1.977,66.762,-26.355,-80.045
41050750,0.236,-0.24,1.39,-71.4,-20.265,-42.332
41050760,0.258,-0.432,0.994,-127.837,-12.6,-26.232
41050770,0.298,-0.502,0.96,-142.695,3.587,-20.72
41050780,0.388,-0.35,1.182,-161.175,29.662,-17.692
41050790,0.264,-0.377,1.199,-192.675,45.885,-8.505
41050800,0.191,-0.437,1.015,-214.567,52.692,-4.06
41050810,-0.07,-0.441,0.973,-243.162,60.847,-17.412
41050820,-0.287,-0.482,1.005,-293.142,42.21,-51.852
41050830,-0.195,-0.605,1.053,-331.73,25.462,-81.252
41050840,0.63,-1.029,0.631,-374.815,46.375,-80.115
41050850,0.824,-1.662,0.96,-399.192,171.675,-14
41050860,0.832,-1.998,0.638,-397.232,288.557,0.262
41050870,0.916,-1.998,1.133,-365.33,252.157,-84.542
41050880,0.148,-1.986,0.317,-226.397,252.735,-125.352
41050890,1.243,-1.841,0.397,-82.582,184.782,-176.977
41050900,-0.702,-1.842,-0.304,51.992,78.172,-306.337
41050910,-1.998,-0.611,-0.08,181.685,-15.067,-347.567
41050920,-1.998,0.346,0.09,202.177,-88.69,-303.205
41050930,-1.994,0.679,-0.131,153.457,-152.845,-180.547
41050940,-1.649,0.828,-0.161,117.477,-163.38,-35.402
41050950,-1.098,0.806,-0.06,92.295,-133.105,71.33
41050960,-0.552,0.794,0.084,80.64,-91.07,133.402
41050970,-0.297,0.776,0.336,69.37,-47.18,162.785
41050980,-0.311,0.498,0.514,41.125,-18.777,179.795
41050990,-0.236,0.049,0.571,23.012,-2.082,201.845
41051000,-0.115,-0.279,0.442,40.145,3.657,223.125
41051010,-0.133,-0.28,0.252,88.375,-9.87,233.152
41051010,-0.069,-0.213,0.09,144.375,-40.635,239.995
41051030,0.062,-0.148,-0.1,150.22,-86.992,243.46
41051030,0.399,-0.117,-0.343,110.775,-155.47,222.355
41051050,0.994,-0.29,-0.412,47.302,-196.297,192.342
41051050,1.199,-0.767,-0.899,20.422,-183.032,155.82
41051070,1.839,-1.752,0.809,-7.507,-68.477,88.007
41051070,0.011,-1.998,-1.918,13.247,-27.265,90.002
41051080,0.415,1.516,0.05,556.972,-33.845,108.85
41051090,-1.921,1.778,1.18,392.875,98.595,203.105
41051100,-1.282,-1.505,0.69,47.53,-94.57,123.655
41051110,-0.387,-1.653,0.373,234.237,-89.005,28.122
41051120,-1.994,1.531,1.794,467.46,-64.137,-51.362
41051130,-0.163,0.041,1.82,277.532,-121.957,-133.157
41051140,1.314,0.008,1.601,173.005,-116.69,-142.957
41051150,1.419,0.944,1.603,95.252,-59.412,-63.087
41051160,0.368,-0.127,1.224,-36.995,-3.22,8.715
41051170,-0.238,-0.475,1.014,-79.572,15.435,25.952
41051180,-0.199,-0.55,0.901,-81.497,17.08,11.392
41051190,-0.17,-0.611,0.981,-77.21,25.602,-13.422
41051200,-0.215,-0.269,1.284,-93.012,42.647,-36.977
41051210,-0.011,-0.293,1.214,-127.155,50.925,-49.717
41051220,0.08,-0.415,1.115,-159.127,59.657,-54.11
41051230,0.125,-0.482,1.021,-177.905,65.8,-53.55
41051240,0.123,-0.533,0.99,-193.882,77,-52.202
41051250,-0.007,-0.464,0.97,-210.91,91.245,-57.907
41051260,-0.061,-0.595,0.771,-237.265,107.992,-65.555
41051270,-0.234,-0.753,0.691,-240.747,116.602,-70.595
41051280,-0.15,-0.892,1.157,-245.805,112.98,-81.042
41051290,0.124,-1.707,0.95,-265.58,120.977,-78.627
41051300,0.523,-1.998,1.029,-233.065,148.522,-71.12
41051310,1.126,-1.998,1.445,-166.67,118.877,-82.46
41051320,1.998,-1.998,0.826,-45.465,111.527,-140.91
41051330,1.027,-1.418,-0.122,184.747,110.512,-252.525
41051330,-0.856,-0.473,-0.376,251.3,31.08,-330.785
41051350,-1.357,-0.204,-0.688,187.88,-34.825,-299.845
41051350,-0.965,-0.234,-0.903,153.65,-61.285,-233.345
41051370,-0.401,-0.309,-0.767,138.162,-49.227,-179.287
41051370,-0.394,-0.31,-0.888,111.457,-13.335,-134.697
41051390,-0.771,-0.016,-0.914,100.852,35.945,-79.467
41051390,-0.922,0.389,-0.573,70.455,70.42,-24.167
41051410,-0.712,0.531,-0.144,-11.497,80.185,36.907
41051410,-0.569,0.141,0.153,-106.61,65.975,102.025
41051420,-0.486,-0.324,0.315,-156.31,39.952,139.772
41051430,-0.336,-0.284,0.437,-152.092,8.522,151.497
41051440,-0.071,0.084,0.508,-145.145,-24.535,153.072
41051450,0.485,-0.082,-0.069,-167.265,-49.7,140.647
41051460,1.219,-0.176,1.053,-70.787,-40.88,71.802
41051470,1.299,-1.61,1.998,45.202,171.675,114.327
41051480,-1.932,-1.998,-1.021,163.94,56.962,79.345
41051490,0.083,-0.764,-0.465,412.667,-176.12,21.245
41051500,1.151,-1.292,1.03,254.012,80.272,49.49
41051510,-1.898,0.405,1.07,383.267,-17.57,-62.475
41051520,-0.418,0.496,1.753,325.185,-24.272,-120.645
41051530,-0.089,-0.717,1.554,204.19,-36.802,-158.095
41051540,0.373,1.014,1.959,188.247,-35.542,-163.117
41051550,0.572,0.019,1.564,46.707,-28.21,-113.102
41051560,0.41,-0.024,1.338,-25.55,-3.255,-75.372
41051570,0.321,-0.271,1.176,-75.915,18.13,-53.83
41051580,0.352,-0.319,1.208,-110.337,38.325,-45.57
41051590,0.253,-0.262,1.283,-141.68,50.295,-36.68
41051600,0.237,-0.299,1.254,-181.615,58.397,-26.897
41051610,0.05,-0.448,1.026,-220.972,71.592,-23.747
41051620,0.034,-0.717,0.861,-247.642,95.427,-31.22
41051630,-0.579,-0.689,0.786,-243.46,104.982,-51.975
41051640,-0.751,-0.678,0.871,-255.797,57.085,-94.01
41051650,-0.377,-0.914,0.76,-272.545,12.127,-126.98
41051660,0.055,-0.998,0.536,-265.737,16.87,-126.595
41051670,0.244,-0.9,0.579,-250.495,52.045,-126.7
41051680,-0.334,-1.25,0.641,-231.717,85.277,-123.882
41051690,-0.246,-1.566,0.993,-215.53,81.48,-111.842
41051700,-0.098,-1.266,0.819,-159.075,45.727,-108.902
41051710,-0.332,-1.04,0.483,-73.167,19.827,-109.62
41051720,1.141,-1.224,0.154,-28.052,1.19,-101.78
41051730,0.979,-1.19,-0.054,75.722,23.835,-134.522
41051740,-1.359,-1.159,0.226,161.752,-47.897,-251.65
41051750,-1.998,-0.929,0.168,163.205,-96.197,-245.787
41051750,-1.809,-0.781,-0.21,176.837,-115.92,-126.927
41051760,-1.393,-0.619,-0.273,207.182,-129.92,1.785
41051770,-1.213,-0.543,-0.336,211.12,-168.052,92.032
41051780,-0.894,-0.397,-0.481,191.152,-203.017,145.232
41051790,-0.528,-0.164,-0.474,161.717,-206.92,209.142
41051800,-0.191,-0.161,-0.434,112.98,-186.375,284.357
41051810,0.133,-0.284,-0.23,49.752,-155.662,334.582
41051820,0.322,-0.438,-0.172,8.067,-140.77,354.515
41051830,0.601,-0.499,-0.195,-20.877,-134.487,347.497
41051840,1.119,-0.474,-0.431,-19.162,-133.332,295.452
41051850,1.186,-0.038,-0.567,16.66,-89.512,220.272
41051860,1.99,-1.405,1.997,0.525,1.33,64.627
41051870,1.476,-1.998,0.617,108.675,255.08,-67.9
41051880,-1.983,-1.434,-1.976,328.65,70.7,-194.932
41051890,-0.275,1.532,1.321,378.542,232.295,-58.957
41051900,1.617,0.76,0.43,347.06,123.935,2.502
41051910,-1.254,-0.832,1.926,319.935,79.52,2.747
41051920,1.585,1.392,1.998,286.947,57.627,35.822
41051930,-1.503,-0.701,1.659,107.012,30.065,107.257
41051940,-1.331,0.564,1.916,24.902,-7.91,40.915
41051950,-0.222,0.052,1.651,-61.74,-27.387,-58.975
41051960,0.374,-0.728,0.887,-124.967,-46.112,-74.725
41051970,0.569,-0.695,0.415,-115.972,-47.232,-48.877
41051980,0.518,-0.733,0.57,-89.425,-25.865,-19.075
41051990,0.247,-0.461,0.848,-72.59,-4.672,0.63
41052000,0.161,-0.5,0.891,-75.932,10.955,10.447
41052010,0.13,-0.515,0.973,-77.507,28.192,9.8
41052020,0.204,-0.494,1.003,-83.405,43.715,10.307
41052030,0.338,-0.481,0.998,-92.452,62.597,10.885
41052040,0.517,-0.551,1.046,-106.347,86.8,7.647
41052050,0.732,-0.678,1.114,-125.352,116.06,3.78
41052060,0.014,-0.623,1.051,-142.835,137.497,-3.08
41052070,-0.251,-0.408,0.832,-181.457,137.515,-38.395
41052080,0.682,-0.907,1.344,-241.675,163.047,-43.225
41052080,0.752,-1.49,1.1,-266.192,200.305,-7.752
41052100,0.715,-1.49,0.792,-241.552,259.665,7.262
41052100,1.982,-1.998,1.604,-284.952,242.165,-48.44
41052120,1.998,-1.998,1.008,-199.447,250.565,-152.617
41052120,0.069,-1.998,-0.197,109.357,213.115,-322.787
41052140,-1.94,-1.644,-0.85,253.925,78.47,-391.842
41052140,-1.998,-0.634,-1.038,309.82,-57.312,-412.947
41052160,-1.56,0.065,-0.683,303.73,-139.055,-415.607
41052160,-0.623,0.504,-0.971,222.337,-144.217,-353.29
41052170,-0.599,0.34,-0.986,129.675,-86.047,-227.045
41052180,-1.684,-0.117,-0.272,44.52,-68.722,-94.517
41052190,-1.998,-0.623,0.26,-8.557,-128.397,-4.812
41052200,-1.998,-0.619,0.453,-16.817,-214.97,85.067
41052210,-1.509,-0.361,0.591,-12.197,-291.025,207.357
41052220,-0.821,-0.498,0.372,-27.685,-317.292,329.98
41052230,-0.387,-0.693,-0.068,-31.937,-283.85,418.862
41052240,0.277,-0.444,-0.269,-9.362,-199.902,457.187
41052250,0.862,0.01,-0.001,-7.945,-113.89,452.97
41052260,1.473,0.488,-0.783,-74.217,-71.487,384.44
41052270,1.998,1.574,-0.34,-109.095,3.377,232.89
41052280,1.998,1.949,0.167,-181.335,51.047,-0.28
41052290,1.744,1.046,-0.036,-178.762,99.382,-204.82
41052300,-0.362,-1.645,1.846,32.025,290.902,-160.335
41052310,-1.283,-1.959,-1.958,124.722,69.492,249.952
41052320,1.998,1.796,0.772,552.055,20.912,82.267
41052330,-1.793,1.893,1.676,504.262,107.17,43.032
41052340,0.132,0.522,1.65,387.887,-26.005,-21.175
41052350,-0.509,-1.307,1.415,267.33,-37.8,-2.362
41052360,-0.034,1.804,1.998,324.677,-45.237,-106.242
41052370,0.878,0.012,1.77,21.35,-55.685,-78.925
41052380,0.132,0.492,1.697,-81.742,-5.635,-77.21
41052390,0.217,-0.673,0.926,-176.487,2.327,-50.225
41052400,0.389,-0.621,0.826,-171.482,13.527,-41.51
41052410,0.391,-0.426,0.978,-171.71,25.305,-35.997
41052420,0.447,-0.44,1.004,-188.055,31.29,-14.962
41052420,0.284,-0.579,0.908,-197.277,37.782,4.322
41052440,0.049,-0.56,0.848,-193.655,43.155,9.17
41052440,0.144,-0.553,0.79,-210.367,49.21,-0.665
41052460,-0.003,-0.722,0.708,-235.252,53.865,-15.435
41052460,-0.441,-0.703,0.92,-257.477,57.785,-33.81
41052480,-0.564,-0.892,1.044,-271.39,52.342,-53.2
41052480,-0.119,-0.987,0.89,-284.602,55.86,-59.832
41052500,0.137,-1.152,0.824,-286.212,83.632,-46.497
41052500,0.126,-1.798,0.802,-285.18,143.447,-23.502
41052510,1.108,-1.998,1.189,-265.247,163.152,-45.622
41052520,1.998,-1.998,1.648,-177.485,228.252,-104.23
41052530,0.307,-1.998,0.329,8.365,237.877,-245.122
41052540,-1.987,-1.554,-0.057,207.357,99.767,-334.495
41052550,-1.998,-0.264,0.08,298.532,-2.765,-333.462
41052560,-1.617,0.101,-0.259,284.025,-65.135,-223.93
41052570,-1.238,-0.026,-0.49,235.637,-80.15,-90.895
41052580,-1.214,-0.173,-0.515,216.58,-59.64,17.395
41052590,-1.286,-0.133,-0.531,223.002,-49.735,90.387
41052600,-1.239,0.089,-0.428,228.655,-49.262,146.037
41052610,-0.895,0.246,-0.432,194.285,-59.78,190.662
41052620,-0.322,0.252,-0.468,127.925,-54.337,228.042
41052630,0.174,0.144,-0.306,63.997,-26.005,253.4
41052640,0.476,0.014,-0.078,19.127,4.637,256.655
41052650,0.549,-0.069,0.196,-2.782,13.475,243.722
41052660,0.48,-0.182,0.296,-14.577,-15.155,210.227
41052670,0.73,-0.184,0.15,-18.62,-68.53,153.475
41052680,0.979,-0.012,-0.007,-18.987,-98.07,101.517
41052690,0.705,0.354,-0.312,-16.362,-104.86,59.36
41052700,0.184,1.071,-0.682,-17.815,-108.132,26.687
41052710,-0.068,0.785,-0.411,-65.992,-112.28,7.017
41052720,0.752,-1.147,1.306,-185.937,-23.52,-59.797
41052730,-0.643,-1.998,-1.435,57.26,-20.422,90.895
41052740,1.405,1.347,1.395,554.627,17.097,-25.305
41052750,-1.561,1.997,1.643,503.002,86.047,92.172
41052760,-1.214,-1.351,1.279,104.107,-38.92,73.027
41052770,-0.468,0.085,1.534,234.132,-41.107,14.682
41052780,-0.397,1.406,1.845,183.172,-29.82,-37.887
41052790,0.342,-0.396,1.291,-68.425,-21.945,-69.947
41052800,0.176,0.24,1.428,-87.132,14.962,-85.417
41052810,-0.01,-1.127,0.638,-142.17,31.15,-85.697
41052820,0.288,-0.678,0.835,-125.282,34.807,-84.42
41052830,0.28,-0.367,1.064,-119.945,38.045,-65.03
41052830,0.309,-0.411,1.089,-142.957,34.405,-36.382
41052850,0.181,-0.305,1.101,-159.67,35.525,-17.727
41052850,0.09,-0.472,1.007,-183.82,37.012,-10.115
41052870,0.39,-0.609,1.054,-211.137,56.052,-13.335
41052870,-0.121,-0.661,0.742,-241.885,93.607,-23.765
41052890,-0.534,-0.885,0.959,-274.312,83.877,-67.34
41052890,-0.495,-0.968,0.957,-299.337,81.06,-111.317
41052910,-0.015,-1.093,0.833,-313.197,104.72,-125.475
41052910,0.455,-1.675,0.824,-317.17,169.68,-127.4
41052920,0.204,-1.652,0.582,-286.702,257.81,-123.637
41052930,0.586,-1.831,0.661,-264.565,257.617,-167.912
41052940,1.956,-1.988,0.765,-241.097,286.947,-195.877
41052950,1.699,-1.998,0.245,-141.802,350.98,-248.692
41052960,-0.554,-1.907,0.296,33.372,291.165,-372.61
41052970,-1.925,-1.059,0.053,141.172,204.75,-416.01
41052980,-1.998,-0.399,-0.09,193.62,105.945,-381.92
41052990,-1.789,-0.018,-0.347,206.01,52.185,-269.727
41053000,-1.262,0.143,-0.485,184.852,43.697,-126.245
41053010,-1.239,0.22,-0.408,164.395,46.112,-6.072
41053020,-1.298,0.155,-0.257,150.727,23.555,83.842
41053030,-1.168,-0.011,-0.148,122.902,-26.88,133.682
41053040,-0.934,-0.145,-0.055,93.59,-85.942,170.712
41053050,-0.65,-0.169,0.017,68.022,-133.367,206.78
41053060,-0.427,-0.154,0.008,36.47,-165.97,247.03
41053070,-0.387,-0.264,-0.137,21.892,-196.017,286.93
41053080,-0.107,-0.218,-0.477,28.227,-219.852,310.642
41053090,0.438,-0.006,-0.69,35.542,-217.612,327.197
41053100,1.349,0.212,-0.596,10.255,-184.957,335.51
41053110,1.921,0.252,-0.448,-57.837,-132.807,285.092
41053120,1.998,0.351,-0.162,-126.332,-90.405,139.072
41053130,1.957,-0.866,-0.139,-167.737,-16.695,-36.995
41053140,0.888,-1.997,1.974,-20.247,161.7,-167.037
41053150,-1.976,-1.998,-0.84,103.215,153.807,13.475
41053160,1.029,0.777,0.271,521.08,-76.842,-85.137
41053170,-0.273,1.815,1.265,358.925,190.382,-54.985
41053170,-1.43,-0.319,1.153,208.162,1.645,-61.022
41053190,1.442,-1.57,1.392,246.977,15.19,-30.152
41053190,-0.752,0.264,1.671,268.31,5.425,-33.477
41053210,0.058,0.75,1.923,171.692,-12.022,-30.975
41053210,-0.143,-0.382,1.477,9.957,-29.365,-9.397
41053230,-0.376,-0.003,1.42,-32.707,-25.025,-14.192
41053230,-0.112,-0.622,0.94,-95.952,-27.545,-29.925
41053250,0.132,-0.537,0.775,-94.937,-18.76,-43.19
41053250,0.26,-0.714,0.676,-94.552,-12.6,-35.525
41053260,0.298,-0.444,0.929,-80.64,-4.375,-21.875
41053270,0.311,-0.394,1.016,-91.525,-5.145,-0.332
41053280,0.24,-0.45,0.987,-106.61,-7.385,23.135
41053290,0.173,-0.492,0.92,-113.487,-6.247,37.887
41053300,0.145,-0.488,0.899,-119.175,1.61,44.17
41053310,0.191,-0.496,0.929,-133.665,12.81,44.572
41053320,0.213,-0.462,0.967,-155.522,29.54,40.985
41053330,0.27,-0.493,1.065,-184.747,43.54,33.81
41053340,0.123,-0.283,1.183,-213.78,44.835,29.417
41053350,0.054,-0.381,1.183,-250.092,23.992,40.845
41053360,0.144,-0.757,1.147,-276.412,-0.892,69.125
41053370,0.32,-0.988,1.438,-277.742,-2.257,112.157
41053380,0.41,-1.269,1.424,-269.71,50.05,176.015
41053390,0.011,-1.556,1.588,-253.907,95.322,222.967
41053400,0.604,-1.998,1.674,-248.605,40.39,198.38
41053410,0.682,-1.998,0.935,-151.445,-59.85,105.577
41053420,1.232,-1.998,0.195,27.702,-124.845,2.607
41053430,1.292,-1.438,-0.11,234.045,-151.287,-87.185
41053440,1.147,-0.578,-0.878,296.24,-131.827,-161.56
41053450,1.017,0.063,-1.024,262.535,-128.747,-193.672
41053460,0.78,0.349,-0.93,190.697,-113.347,-196.542
41053470,0.507,0.251,-0.593,102.725,-100.397,-188.93
41053480,0.05,0.037,-0.13,16.502,-99.487,-162.802
41053490,-0.345,-0.19,0.161,-47.635,-105.577,-133.175
41053500,-0.482,-0.344,0.346,-72.782,-120.592,-105.227
41053510,-0.439,-0.34,0.439,-73.237,-137.917,-80.15
41053520,-0.362,-0.261,0.428,-62.212,-150.237,-56.7
41053530,-0.346,-0.206,0.35,-50.697,-157.447,-33.6
41053540,-0.408,-0.115,0.262,-40.705,-166.757,-15.242
41053550,-0.499,0.146,0.137,-27.965,-186.042,-4.847
41053560,-0.48,0.631,0.006,-18.637,-200.637,2.292
41053570,0.024,1.301,-0.185,-45.377,-190.365,-0.682
41053580,-0.4,1.535,-0.067,-27.755,-154.805,33.617
41053580,-1.158,1.67,-0.613,45.465,-126.42,74.217
41053600,-1.968,0.085,1.019,15.767,-359.642,-24.64
41053600,1.134,-1.998,-0.254,-165.48,28.455,314.09
41053620,-1.218,-0.645,-1.066,421.207,-130.847,527.87
41053620,1.994,1.997,0.782,503.317,2.922,399.63
41053640,-1.327,-0.504,0.705,213.167,233.17,295.96
41053640,-1.998,-1.975,-0.103,148.032,-25.147,97.877
41053660,0.185,0.958,1.471,401.047,-5.512,57.487
41053660,-1.561,0.326,1.879,270.55,-13.667,-71.767
41053670,-0.321,-0.833,1.509,99.102,-36.645,-165.76
41053680,-0.02,0.454,1.919,87.762,-14.63,-196.315
41053690,0.287,0.142,1.686,-26.6,-45.832,-184.327
41053700,0.583,-0.294,1.016,-96.022,-80.097,-131.46
41053710,0.362,-0.459,0.771,-112,-90.125,-87.535
41053720,0.611,-0.608,0.563,-113.645,-73.045,-70.787
41053730,0.557,-0.693,0.606,-111.405,-36.837,-57.995
41053740,0.603,-0.646,0.767,-106.522,-10.71,-45.955
41053750,0.532,-0.313,0.92,-95.182,2.345,-30.275
41053760,0.469,-0.398,1.022,-112.822,3.535,-8.96
41053770,0.711,-0.386,0.932,-133.157,-4.952,1.417
41053780,0.659,-0.526,0.767,-165.322,-1.067,-3.412
41053790,0.334,-0.571,0.866,-200.165,9.17,-13.352
41053800,-0.213,-0.875,1.123,-232.452,7.245,-25.707
41053810,-0.448,-1.196,0.959,-243.267,-6.072,-40.005
41053820,-0.027,-1.217,0.741,-232.627,-4.445,-27.51
41053830,0.591,-1.724,1.066,-236.792,-14.63,-15.96
41053840,0.249,-1.68,0.63,-213.272,33.81,-29.277
41053850,-1.123,-1.117,0.546,-145.617,49.682,-63.262
41053860,-1.672,-0.931,0.475,-106.592,8.067,-80.517
41053870,-1.442,-0.8,0.204,-77.787,-51.432,-100.345
41053880,-0.968,-0.907,0.015,-46.602,-82.215,-111.212
41053890,-0.41,-1.052,-0.448,10.062,-55.265,-99.925
41053900,-0.058,-0.888,-0.29,79.572,26.932,-118.492
41053910,-0.601,-0.738,-0.003,98.542,113.19,-145.547
41053920,-1.254,-0.769,-0.129,73.377,177.8,-139.317
41053920,-1.439,-0.637,-0.267,67.025,221.287,-99.592
41053940,-1.391,-0.415,-0.217,89.145,249.585,-38.482
41053940,-1.265,-0.194,-0.136,118.457,252.962,30.327
41053960,-1.035,-0.009,-0.143,124.81,226.31,90.58
41053960,-0.774,0.204,-0.094,96.582,190.855,140.682
41053980,-0.913,0.332,-0.119,37.432,135.432,175.542
41053980,-1.338,0.705,-0.85,-22.872,40.88,190.452
41054000,1.335,-0.357,1.82,-44.152,-7.787,139.562
41054000,1.998,-1.417,1.993,116.445,207.462,14.402
41054010,-0.069,-1.998,-1.376,118.335,-6.002,-397.88
41054020,-1.954,0.443,-1.209,411.092,42.21,-454.912
41054030,1.672,1.991,1.965,415.782,313.81,-127.96
41054040,1.859,-1.148,-0.299,256.235,3.832,135.835
41054050,0.328,-1.143,1.813,246.312,74.602,178.29
41054060,-0.078,1.671,1.987,274.715,56.717,169.435
41054070,-1.448,-0.262,1.886,75.652,10.482,206.185
41054080,-1.117,-0.339,1.82,3.675,-24.377,133.805
41054090,-0.763,-0.035,1.743,-57.12,-26.862,36.995
41054100,-0.231,-0.606,1.359,-145.88,-19.582,-32.305
41054110,0.029,-0.197,1.268,-155.82,-7.087,-61.285
41054120,0.506,-0.223,1.122,-203.017,11.217,-67.235
41054130,0.614,-0.373,0.987,-241.99,19.32,-53.41
41054140,0.605,-0.583,0.838,-250.635,12.25,-35.892
41054150,0.736,-0.492,0.974,-251.37,19.53,-7.315
41054160,0.545,-0.837,0.762,-285.197,-0.122,-20.825
41054170,0.158,-1.011,0.447,-277.007,-8.4,-9.537
41054180,0.284,-1.262,0.387,-258.125,-4.042,-10.167
41054190,0.85,-1.108,0.385,-228.41,18.62,-8.347
41054200,1.256,-1.438,1.079,-247.712,42.98,-22.925
41054210,-0.42,-1.519,0.684,-190.365,52.692,-69.807
41054220,-1.065,-0.663,0.604,-110.32,51.835,-76.685
41054230,-0.414,-1.287,0.586,-94.412,-19.827,-64.12
41054240,1.289,-1.325,0.003,-48.545,-8.872,-22.312
41054250,0.65,-1.018,0.207,86.765,8.295,-85.592
41054260,-0.505,-0.765,0.124,163.047,10.115,-191.905
41054270,-1.197,-0.585,0.05,178.885,-6.825,-186.357
41054280,-1.23,-0.465,-0.078,181.352,-22.732,-133.665
41054290,-1.052,-0.269,-0.268,197.47,-20.335,-55.527
41054300,-1.173,-0.214,-0.444,206.972,-32.952,6.825
41054310,-1.192,-0.056,-0.573,200.445,-47.075,55.072
41054320,-1.1,0.195,-0.595,180.232,-54.232,116.655
41054330,-1.159,0.342,-0.532,126.332,-69.282,197.242
41054330,-0.934,0.272,-0.557,38.535,-87.115,273.28
41054350,-0.451,0.02,-0.656,-31.15,-87.29,336.087
41054350,-0.116,-0.2,-0.676,-44.03,-67.69,371.14
41054370,-0.617,-0.117,-0.719,-23.59,-70.752,345.117
41054370,1.759,-1.702,1.998,-47.757,-37.24,159.197
41054390,0.148,-1.998,-0.645,52.08,101.867,-58.747
41054390,-1.839,0.455,-0.929,512.277,-108.762,-158.917
41054400,-0.748,1.955,1.676,452.55,282.642,-32.095
41054410,0.265,-1.178,1,203.542,35.402,-52.045
41054420,-0.196,-0.62,1.459,282.205,44.292,-112.157
41054430,-0.396,1.703,1.998,320.04,41.177,-113.032
41054440,0.383,-0.015,1.918,74.025,4.882,-86.205
41054450,0.065,0.31,1.979,-30.275,11.025,-67.095
41054460,-0.126,0.331,1.859,-149.275,2.625,-42.035
41054470,-0.04,-0.376,1.34,-255.237,-22.592,-22.925
41054480,-0.103,-0.641,1.064,-281.82,-24.482,-27.492
41054490,-0.52,-0.955,0.678,-292.687,-17.045,-50.33
41054500,-0.334,-0.686,0.804,-282.957,-26.425,-96.302
41054510,-0.132,-0.317,0.754,-275.187,-21.437,-126.052
41054520,0.377,-0.956,1.02,-324.992,-0.857,-141.417
41054530,0.678,-1.005,1.033,-322.297,32.865,-139.825
41054540,0.586,-1.224,0.851,-305.672,97.055,-102.41
41054550,0.55,-1.637,0.334,-294.577,187.792,-26.687
41054560,0.609,-1.029,0.658,-269.202,242.182,-8.942
41054570,0.265,-1.047,0.421,-225.75,231.577,-55.107
41054580,-0.684,-1.424,0.632,-186.847,144.935,-65.292
41054590,-1.625,-1.133,0.405,-107.572,-1.715,-74.007
41054600,-1.266,-0.86,0.545,-23.012,-139.807,-91.017
41054610,-1.517,-0.677,0.529,6.3,-228.165,-51.152
41054620,-1.608,-0.55,0.254,55.685,-287.56,12.267
41054630,-1.197,-0.199,0.106,129.955,-315.175,84.63
41054640,-0.591,0.034,0.1,182.367,-291.725,160.632
41054650,-0.08,0.125,0.15,212.1,-236.915,222.267
41054660,0.242,0.247,0.209,222.092,-171.027,233.73
41054670,0.401,0.5,0.133,205.712,-103.46,215.617
41054670,0.394,0.573,-0.05,190.312,-33.32,207.182
41054690,0.418,0.705,-0.162,167.405,28.735,198.677
41054690,0.369,0.721,-0.184,156.415,60.795,180.215
41054710,0.141,0.542,-0.048,129.552,61.25,146.93
41054710,-0.088,0.209,-0.063,89.6,16.467,99.015
41054730,0.058,0.151,-0.16,56.647,-45.185,48.317
41054730,0.19,-0.033,-0.945,50.627,-67.655,14.91
41054750,0.233,-1.388,0.995,115.57,-206.5,-29.505
41054750,-0.045,-1.998,-1.839,-60.095,-38.307,118.3
41054760,1.067,1.568,0.642,502.355,32.27,-126.402
41054770,-1.957,1.559,1.63,396.655,142.047,23.835
41054780,0.05,-1.939,0.069,-26.32,-40.915,141.75
41054790,0.613,-0.89,0.203,296.292,-3.465,40.162
41054800,-1.867,1.945,1.998,486.99,37.502,-28.875
41054810,-0.141,-1.307,1.35,140.367,-44.38,-22.242
41054820,0.019,0.694,1.823,146.265,-44.467,-66.412
41054830,0.475,0.368,1.641,35.91,-33.67,-48.615
41054840,0.166,-0.11,1.393,-75.232,-10.867,-28.455
41054850,-0.039,-0.372,1.16,-126.21,-5.285,-18.217
41054860,0.299,-0.586,0.921,-149.782,-5.32,-17.815
41054870,0.307,-0.466,0.994,-146.807,7.35,-14.017
41054880,0.328,-0.411,1.048,-154.525,20.072,1.225
41054890,0.246,-0.474,0.964,-166.057,29.155,18.935
41054900,0.202,-0.501,0.922,-171.22,35.332,25.2
41054910,0.117,-0.574,0.879,-176.837,42.21,25.83
41054920,-0.2,-0.7,1.097,-179.952,38.64,16.38
41054930,-0.392,-1.067,0.94,-183.242,4.445,-11.847
41054940,-0.119,-1.305,0.606,-177.992,-35.997,-37.03
41054950,0.205,-1.262,0.442,-164.605,-48.492,-50.19
41054960,0.627,-1.557,0.315,-136.937,-61.932,-75.39
41054970,1.998,-1.998,1.07,-174.527,-60.987,-144.165
41054980,1.96,-1.998,-0.325,-96.39,130.392,-246.47
41054990,-0.511,-1.654,-0.613,126.14,185.272,-361.637
41055000,-1.998,-0.629,-1.06,189.84,115.132,-352.695
41055010,-1.871,0.032,-0.815,146.615,51.257,-275.415
41055020,-0.909,0.092,-0.389,46.707,9.852,-150.01
41055030,-0.554,-0.528,-0.163,-50.225,-14.49,-41.265
41055040,-0.743,-1.011,0.25,-77.402,-22.225,12.652
41055050,-0.75,-0.94,0.595,-51.66,-43.662,30.625
41055050,-0.627,-0.52,0.71,-28.367,-73.92,50.435
41055070,-0.617,-0.209,0.609,-31.937,-107.065,78.382
41055070,-0.554,-0.046,0.391,-37.17,-127.12,118.282
41055080,-0.461,0.058,0.121,-45.15,-133.472,164.64
41055090,-0.334,0.525,-0.553,-65.765,-133.525,193.147
41055100,-0.479,1.643,-0.812,-75.757,-134.225,193.287
41055110,0.291,1.822,0.559,-120.732,-116.392,136.237
41055120,1.742,-1.673,1.737,-170.537,348.477,204.75
41055130,-1.997,-1.998,-1.981,310.31,88.742,212.502
41055140,0.785,-0.136,-0.851,357.157,32.41,-27.492
41055150,-0.531,1.977,1.579,430.5,216.23,31.85
41055160,-1.785,-0.369,1.527,284.322,32.2,-46.672
41055170,0.666,-0.801,1.523,234.517,21,-55.86
41055180,-0.757,1.023,1.998,242.55,22.977,-114.782
41055190,0.319,-0.053,1.725,44.362,5.81,-113.977
41055200,0.04,0.026,1.612,-48.317,6.527,-90.93
41055210,0.107,-0.238,1.286,-110.6,1.19,-66.587
41055220,0.289,-0.622,1.034,-159.39,6.545,-52.482
41055230,0.303,-0.594,1.001,-172.515,32.882,-48.86
41055240,-0.122,-0.802,0.778,-189.857,59.622,-52.255
41055250,-0.015,-0.666,0.773,-187.127,70.577,-72.502
41055260,0.054,-0.415,0.827,-188.352,69.895,-88.322
41055270,0.374,-0.761,0.747,-214.725,66.587,-109.375
41055280,0.236,-1.026,1.151,-217.805,60.532,-115.167
41055290,0.519,-1.22,1.01,-203.612,70.752,-99.75
41055300,0.74,-1.468,0.754,-184.975,122.22,-69.317
41055310,0.535,-1.904,0.614,-158.077,161.052,-61.845
41055320,1.449,-1.998,0.328,-101.342,125.72,-129.115
41055330,1.987,-1.935,0.519,32.847,182.77,-200.427
41055340,-0.14,-1.638,-0.521,165.76,158.97,-361.357
41055350,-1.883,-1.035,-0.682,205.59,85.61,-453.39
41055360,-1.998,-0.388,-0.74,198.975,45.15,-374.92
41055370,-1.997,-0.017,-0.636,153.335,-22.19,-247.87
41055380,-1.719,-0.054,-0.456,53.182,-111.51,-126.875
41055390,-1.636,-0.337,-0.608,-11.602,-173.215,29.54
41055400,-1.201,-0.432,-0.743,6.755,-202.23,199.185
41055410,-0.619,-0.152,-0.814,2.555,-221.532,318.325
41055420,-0.184,-0.566,-1.049,-15.715,-225.435,412.055
41055420,0.44,-0.661,-1.191,-57.47,-208.11,425.512
41055440,0.941,0.038,-1.206,-110.11,-209.44,380.047
41055440,1.216,0.288,-0.793,-186.182,-202.002,291.847
41055460,1.998,-1.873,1.998,-147.21,148.732,195.352
41055460,-1.455,-1.759,-1.406,285.285,168.28,147.07
41055480,-1.843,0.543,-1.693,444.027,-143.237,-75.18
41055480,0.776,-1.84,1.552,213.395,99.312,125.702
41055500,0.618,0.268,0.809,344.417,1.785,63.735
41055500,-1.496,0.785,1.971,332.675,11.567,-21.84
41055510,-0.154,-0.583,1.727,164.097,-14.455,-20.632
41055520,-0.241,0.548,1.974,128.747,-17.762,-64.032
41055530,-0.021,0.102,1.841,-5.547,-27.825,-76.65
41055540,0.277,0.042,1.687,-104.93,-20.072,-73.85
41055550,0.526,-0.229,1.545,-178.797,-3.377,-68.197
41055560,0.067,-0.432,1.146,-229.915,14.21,-48.352
41055570,0.256,-0.383,1.195,-244.055,-8.487,-49.245
41055580,0.056,-0.324,1.088,-255.185,-42.945,-31.237
41055590,0.029,-0.687,0.816,-269.097,-94.447,-33.495
41055600,0.134,-0.686,0.569,-245.105,-145.127,-44.24
41055610,-0.006,-0.652,0.647,-227.517,-163.66,-37.607
41055620,-0.106,-1.006,0.853,-224.28,-160.16,-20.247
41055630,-0.185,-1.428,0.799,-214.725,-150.272,-8.61
41055640,-0.355,-1.478,0.634,-169.47,-133.105,2.31
41055650,-0.287,-1.106,0.457,-117.757,-114.677,12.775
41055660,-0.227,-0.948,0.621,-80.815,-101.692,28.647
41055670,-0.562,-1.047,1.362,-56.875,-91.525,31.342
41055680,-0.775,-0.895,1.194,7.787,-71.925,15.155
41055690,-1.424,-0.027,0.509,156.187,-89.67,24.5
41055700,-0.854,0.792,0.418,255.01,-65.345,70.577
41055710,-0.481,0.897,0.265,274.75,-22.382,144.427
41055720,-0.477,0.745,0.207,264.897,17.377,181.685
41055730,-0.504,0.727,0.047,242.305,41.037,192.64
41055740,-0.357,0.657,-0.258,219.012,44.415,212.94
41055750,-0.125,0.367,-0.5,189.805,34.545,229.547
41055760,0.046,0.071,-0.741,152.005,7.542,224.14
41055760,0.042,-0.032,-0.796,92.627,-35.7,194.372
41055780,0.375,-1.246,0.882,-60.602,-96.407,128.59
41055780,0.812,-1.998,-1.411,-202.405,157.815,122.185
41055800,-0.901,0.059,-0.705,377.107,-11.532,-61.81
41055800,-1.281,1.997,1.998,475.09,206.15,34.947
41055820,-0.762,0.532,1.329,157.465,16.17,107.817
41055820,0.536,-1.998,0.49,-15.645,-30.555,42.525
41055830,-0.924,0.405,1.395,263.725,8.89,9.082
41055840,-0.667,0.832,1.728,196.49,-1.662,-11.515
41055850,-0.065,-1.047,1.24,28.017,-21.962,-34.72
41055860,0.281,0.654,1.796,42.052,-2.257,-60.025
41055870,0.157,-0.239,1.401,-83.895,1.487,-43.347
41055880,0.362,-0.199,1.334,-137.287,16.152,-32.06
41055890,0.162,-0.233,1.221,-179.217,26.862,-17.377
41055900,0.119,-0.37,1.099,-216.282,34.405,-8.102
41055910,-0.007,-0.494,1.011,-237.912,36.557,-6.912
41055920,-0.152,-0.578,0.941,-246.102,31.115,-13.142
41055930,-0.083,-0.853,0.534,-250.775,17.29,-40.267
41055940,0.114,-0.964,0.553,-269.902,9.607,-72.345
41055950,-0.367,-0.661,0.744,-250.862,18.025,-79.852
41055960,-0.364,-0.71,0.529,-235.305,15.767,-95.322
41055970,-0.092,-1.132,0.504,-224.525,25.445,-81.655
41055980,-0.169,-1.199,0.688,-192.727,43.12,-60.952
41055990,-0.333,-1.247,0.724,-145.617,46.077,-58.747
41056000,-0.485,-1.221,0.591,-103.617,29.085,-59.517
41056010,-0.298,-1.158,0.526,-70.542,2.782,-59.325
41056020,0.181,-1.388,0.984,-44.327,1.732,-61.985
41056030,0.774,-1.614,0.797,21.227,23.922,-70.735
41056040,-0.323,-1.162,0.474,124.985,12.74,-100.975
41056050,-0.899,-0.512,0.107,200.27,35.542,-117.355
41056060,-1.124,0.343,-0.78,257.827,79.572,-36.102
41056070,-1.187,1.256,-1.018,272.3,76.212,51.432
41056080,-0.974,1.611,-0.623,167.247,65.8,114.555
41056090,-1.221,1.146,-0.217,5.285,25.515,172.847
41056100,-1.172,0.744,-0.179,-59.885,-15.487,221.375
41056110,-0.302,1.393,-0.301,-47.81,-46.55,246.312
41056120,1.038,1.513,-0.489,-50.82,-32.9,238.07
41056130,0.715,-0.601,0.43,33.897,-33.04,100.17
41056140,0.367,-1.998,-1.073,-120.715,-132.212,-115.08
41056150,0.334,0.761,0.162,440.965,39.445,-78.435
41056160,-1.808,1.997,1.998,524.58,133.017,-63.192
41056170,-0.357,-0.831,1.156,99.26,-48.912,40.32
41056170,0.977,-1.308,0.772,169.382,-43.4,-25.182
41056190,-0.007,1.996,1.998,418.022,-1.855,-54.985
41056190,-0.355,-1.034,1.588,12.285,-16.485,14.017
41056210,-0.006,0.521,1.856,-28.385,-8.067,6.51
41056210,-0.335,0.037,1.526,-129.045,-0.787,-16.817
41056230,0.038,-0.514,1.148,-203.962,3.395,-34.737
41056230,0.072,-0.318,0.984,-220.675,17.815,-54.512
41056250,0.222,-0.67,0.818,-249.83,31.36,-54.565
41056250,0.166,-0.693,0.937,-238.665,41.282,-54.985
41056260,0.202,-0.511,0.677,-238.245,54.6,-51.887
41056270,0.105,-0.556,0.727,-272.825,53.427,-62.072
41056280,-0.021,-0.718,0.887,-304.115,44.712,-79.8
41056290,0.188,-0.932,0.754,-314.527,55.527,-86.555
41056300,0.471,-1.208,0.323,-304.552,109.217,-64.715
41056310,1.089,-1.798,0.559,-269.955,147.332,-32.742
41056320,0.655,-1.912,0.502,-272.51,251.002,-43.82
41056330,0.126,-1.383,1.122,-234.85,279.282,-96.95
41056340,0.542,-1.621,1.046,-168.927,246.435,-103.792
41056350,1.951,-1.723,0.914,-90.772,251.58,-80.342
41056360,1.269,-1.971,0.663,76.492,192.22,-252.875
41056370,-0.648,-1.476,0.239,236.005,122.71,-328.667
41056380,-1.815,-0.654,-0.311,328.247,18.69,-337.82
41056390,-1.998,0.002,-1.209,380.992,-87.885,-338.905
41056400,-1.991,1.011,-1.935,386.82,-149.73,-296.17
41056410,-1.73,1.853,-1.116,287.945,-134.89,-136.762
41056420,-1.998,1.321,0.088,-3.867,-143.815,113.137
41056430,-1.998,-1.054,0.441,-201.582,-219.52,324.31
41056440,-1.218,-1.972,-0.245,-133.875,-315.297,431.025
41056450,0.631,-0.937,-0.324,73.395,-314.667,472.307
41056460,1.814,0.339,-0.422,149.502,-260.417,498.907
41056470,1.998,0.351,-0.431,50.645,-181.475,469.105
41056480,1.949,-0.053,-0.386,-83.142,-129.937,316.68
41056490,1.576,-0.056,0.629,-28.63,-124.092,89.6
41056500,1.111,-1.998,1.002,-57.977,29.802,108.062
41056510,-1.715,-1.903,-1.973,193.427,63,167.212
41056510,-0.052,1.857,1.045,473.322,-6.737,39.795
41056530,-1.84,0.833,-0.574,332.71,65.205,42.052
41056530,-0.432,-1.998,0.907,170.012,30.17,20.492
41056550,-0.925,-0.776,0.49,367.237,1.067,-80.202
41056550,-0.935,1.842,1.95,446.285,7.175,-146.16
41056570,0.269,-0.133,1.661,232.4,-24.325,-170.065
41056570,0.442,0.012,1.711,170.747,-16.467,-158.742
41056580,0.473,0.591,1.875,114.1,-4.48,-118.545
41056590,0.462,0.129,1.657,-13.965,0.385,-66.097
41056600,0.277,-0.01,1.408,-94.412,10.08,-29.155
41056610,0.232,-0.32,1.147,-156.117,23.345,-13.212
41056620,0.153,-0.384,1.081,-185.395,44.275,-12.442
41056630,0.196,-0.414,1.074,-206.535,61.88,-13.457
41056640,0.198,-0.675,0.819,-229.337,86.45,-15.015
41056650,-0.072,-0.732,0.752,-222.145,111.982,-21
41056660,-0.198,-0.722,0.689,-230.965,124.652,-38.552
41056670,-0.334,-0.622,0.796,-244.912,118.422,-67.2
41056680,-0.436,-0.752,0.787,-250.722,106.82,-86.975
41056690,-0.153,-0.946,0.644,-253.522,101.92,-87.762
41056700,0.015,-1.042,0.72,-241.027,104.947,-70.402
41056710,0.155,-1.378,0.603,-219.887,121.415,-44.52
41056720,-0.126,-1.229,0.563,-167.3,130.427,-42.367
41056730,-0.284,-1.211,0.752,-126.857,126.98,-27.965
41056740,0.314,-1.274,0.868,-74.987,106.155,-15.032
41056750,1.323,-1.202,0.77,11.882,112.997,-23.205
41056760,0.611,-1.11,0.556,110.757,80.832,-84.35
41056770,-0.693,-0.863,0.344,171.237,-12.6,-156.625
41056780,-0.996,-0.385,0.421,192.955,-97.86,-183.347
41056790,-0.942,-0.138,0.243,215.232,-146.877,-140.525
41056800,-1.204,-0.111,-0.139,231.297,-200.602,-73.657
41056810,-1.219,-0.048,-0.842,237.825,-243.565,-25.095
41056820,-0.526,0.447,-1.32,234.885,-230.597,21.472
41056830,0.058,0.972,-1.184,185.902,-157.22,110.512
41056840,-0.401,0.813,-0.865,68.565,-76.212,212.992
41056850,-0.96,0.335,-0.513,-53.637,-40.81,267.242
41056860,-0.653,0.261,-0.292,-117.302,-40.897,289.537
41056870,-0.015,-0.902,0.413,-122.745,-75.32,229.6
41056880,1.917,-1.998,0.424,-73.57,166.512,146.702
41056890,-1.894,-1.139,-1.222,314.282,-63.595,38.097
41056900,-1.944,1.997,1.971,560.017,122.465,36.225
41056910,0.625,0.404,1.542,297.622,-2.45,63.017
41056920,-1.474,-1.866,0.372,158.41,-46.235,-40.162
41056920,-0.66,1.665,1.917,426.125,-26.092,-134.785
41056940,0.47,0.144,1.769,185.71,-53.882,-143.832
41056940,0.653,0.383,1.726,68.407,-28.42,-117.25
41056960,0.368,0.288,1.556,-26.075,1.137,-69.895
41056960,0.256,-0.291,1.191,-112.77,12.967,-25.357
41056980,0.177,-0.422,0.939,-137.917,13.317,-6.387
41056980,0.16,-0.639,0.804,-144.865,19.39,1.715
41057000,0.142,-0.498,0.968,-138.862,32.375,-1.68
41057000,0.218,-0.407,0.97,-143.902,47.985,-3.342
41057010,0.287,-0.513,0.879,-158.707,61.075,-0.595
41057020,0.35,-0.589,0.81,-165.497,80.937,3.097
41057030,0.289,-0.542,0.843,-165.847,105.682,10.08
41057040,0.021,-0.442,0.868,-169.855,130.935,19.162
41057050,-0.028,-0.575,0.821,-184.625,152.617,22.312
41057060,0.128,-0.79,0.809,-202.282,175.21,25.917
41057070,-0.063,-1.142,0.621,-209.265,199.657,43.96
41057080,0.064,-1.275,0.551,-188.422,207.025,28.297
41057090,0.264,-1.933,0.45,-175.49,192.5,27.09
41057100,1.592,-1.998,1.318,-153.947,151.987,13.44
41057110,1.778,-1.998,0.44,-19.687,36.4,-111.125
41057120,0.123,-1.74,-0.151,151.725,-87.395,-247.66
41057130,-1.501,-0.693,-0.534,228.2,-168.892,-288.242
41057140,-1.395,0.14,-0.766,227.062,-227.902,-258.545
41057150,-0.826,0.341,-0.491,167.527,-225.312,-155.365
41057160,-0.729,0.055,-0.353,88.55,-197.452,-30.992
41057170,-0.85,0.026,-0.627,67.567,-174.807,64.837
41057180,-0.763,0.506,-0.598,73.902,-169.487,134.697
41057190,-0.466,0.779,-0.527,22.68,-183.82,200.112
41057200,-0.13,0.53,-0.471,-81.182,-195.632,261.572
41057210,-0.078,0.375,-0.537,-150.01,-203.507,272.317
41057220,1.938,-0.753,1.997,-161.42,-46.287,229.39
41057230,-0.09,-1.622,0.908,88.917,347.655,356.195
41057240,-1.998,-0.768,-1.375,410.48,-155.522,88.882
41057250,-0.302,-1.998,0.283,156.905,-68.285,144.27
41057260,0.308,-0.612,0.801,266.822,-36.05,46.13
41057260,-1.674,1.224,1.464,376.582,-41.86,-106.697
41057280,0.169,-1.632,0.877,188.125,-44.957,-187.18
41057280,-0.284,0.533,1.689,257.092,-23.555,-251.842
41057300,0.989,0.377,1.691,166.74,-26.792,-221.795
41057300,1.044,0.497,1.542,72.73,-8.26,-160.93
41057320,0.85,0.153,1.35,-8.242,14.7,-84.262
41057320,0.642,0.003,1.333,-74.795,39.515,-28.927
41057330,0.414,-0.149,1.333,-127.33,58.887,5.81
41057340,0.135,-0.241,1.304,-172.707,74.952,23.45
41057350,-0.015,-0.314,1.192,-207.9,83.072,23.8
41057360,-0.156,-0.448,0.983,-236.845,90.212,15.33
41057370,-0.178,-0.586,0.877,-252.157,93.415,2.082
41057380,-0.185,-0.685,0.826,-251.65,104.72,-8.75
41057390,-0.329,-0.542,0.8,-242.987,112.28,-17.29
41057400,0.015,-0.785,0.961,-264.372,121.835,-34.58
41057410,0.183,-1.261,0.87,-277.34,164.167,-31.22
41057420,-0.017,-1.657,0.566,-267.102,216.457,-6.877
41057430,0.301,-1.998,0.828,-234.36,253.575,-6.405
41057440,1.502,-1.998,1.52,-132.125,199.255,-88.147
41057450,1.994,-1.998,0.587,61.635,200.83,-186.602
41057460,0.115,-1.438,-0.94,272.685,146.44,-334.11
41057470,-1.327,-0.219,-0.955,314.44,47.232,-399.857
41057480,-1.59,0.295,-1.091,266.087,5.425,-305.882
41057490,-0.97,0.378,-0.777,134.54,-59.062,-189.035
41057500,-0.321,-0.053,-0.372,-40.39,-107.922,-88.865
41057510,-0.599,-0.673,-0.096,-109.62,-117.005,21.367
41057520,-0.795,-0.794,0.218,-82.477,-137.637,84.175
41057530,-0.708,-0.462,0.456,-24.272,-194.46,104.912
41057540,-0.462,-0.06,0.514,-3.517,-250.547,133.437
41057550,-0.32,0.076,0.355,-27.632,-292.267,185.885
41057560,-0.249,0.236,0.059,-46.025,-314.492,232.032
41057570,0.045,1.009,-0.06,-26.495,-308.385,250.425
41057580,0.432,1.929,-0.004,-6.125,-264.565,253.032
41057590,0.939,1.941,-0.57,-38.867,-187.617,216.002
41057600,1.945,0,1.848,0.91,-49.91,133.577
41057610,-0.326,-1.998,-0.835,-74.987,401.52,438.672
41057620,-1.036,-0.5,-0.425,326.987,79.485,242.917
41057630,-1.859,1.997,0.243,526.557,31.202,68.932
41057640,-1.68,-0.147,1.412,248.447,-85.89,71.312
41057650,-0.628,-1.593,0.622,278.985,-143.15,-73.78
41057660,-0.884,1.771,1.996,487.182,-99.26,-217.28
41057670,0.917,0.292,1.854,219.485,-95.882,-232.207
41057670,1.047,0.942,1.891,112.49,-61.145,-193.497
41057690,0.94,0.559,1.639,-8.347,-26.495,-102.637
41057690,0.536,-0.18,1.256,-112.315,-11.252,-18.987
41057700,0.42,-0.345,0.926,-143.762,-2.187,17.272
41057710,0.355,-0.533,0.823,-156.747,15.277,29.907
41057720,0.379,-0.495,0.924,-155.33,39.532,32.007
41057730,0.392,-0.41,0.943,-158.9,60.882,38.937
41057740,0.424,-0.474,0.875,-171.22,83.65,48.912
41057750,0.377,-0.564,0.802,-177.695,107.712,58.047
41057760,0.236,-0.612,0.758,-177.327,139.335,68.88
41057770,0.103,-0.824,0.779,-171.202,180.162,80.5
41057780,-0.19,-0.931,1.091,-154.56,215.897,78.382
41057790,0.063,-1.05,0.788,-148.155,253.837,76.965
41057800,0.169,-1.639,1.193,-141.312,296.957,108.867
41057810,0.555,-1.997,0.976,-71.697,301.525,136.657
41057820,0.631,-1.998,1.255,10.412,221.83,46.042
41057830,0.55,-1.998,-0.375,91.542,-65.45,-149.362
41057840,-0.395,-1.341,-1.212,278.425,-112.577,-180.617
41057850,-0.887,-0.071,-1.045,294.892,-137.357,-160.02
41057860,-0.567,0.156,-0.802,136.535,-160.982,-144.112
41057870,-0.425,-0.306,-0.663,-32.637,-147.735,-73.622
41057880,-0.323,-0.791,-0.623,-100.572,-103.6,0.63
41057890,-0.241,-0.801,-0.405,-87.552,-65.362,28.7
41057900,-0.107,-0.465,-0.195,-66.272,-30.135,40.355
41057910,0.187,-0.195,-0.09,-86.205,-2.747,48.492
41057920,0.228,0.014,-0.144,-128.31,2.87,45.587
41057930,-0.076,0.681,-0.066,-141.645,-23.887,29.75
41057940,-0.223,1.634,0.043,-131.04,-58.572,24.412
41057950,0.554,1.643,0.017,-138.512,-68.932,-1.767
41057960,-1.897,-1.499,1.04,36.942,-16.012,118.265
41057970,-1.998,-1.818,-1.428,372.802,-102.235,213.167
41057980,0.423,-1.776,1.127,292.407,-246.855,98.892
41057990,-0.864,1.006,1.347,421.995,-168.087,-39.707
41058000,-0.854,0.726,1.888,362.74,-153.807,-155.015
41058010,0.076,-0.251,1.326,165.882,-118.527,-35.315
41058010,-0.006,1.065,1.776,71.207,-49.245,25.567
41058030,-0.751,-0.243,1.435,-39.567,-44.52,-3.395
41058030,0.17,-0.276,1.091,-107.695,-39.13,-21.385
41058050,-0.065,-0.712,0.69,-127.225,-26.932,-18.812
41058050,0.121,-0.809,0.6,-103.617,-25.252,-18.48
41058070,0.39,-0.655,0.767,-77.542,-11.375,-18.725
41058070,0.564,-0.49,0.88,-76.44,3.5,-2.012
41058080,0.563,-0.468,0.882,-86.625,27.002,22.855
41058090,0.311,-0.528,0.905,-94.325,49.385,44.1
41058100,0.344,-0.473,0.917,-101.027,72.555,59.43
41058110,0.303,-0.64,0.885,-111.632,100.467,68.46
41058120,0.059,-0.693,0.886,-110.635,134.172,62.142
41058130,-0.428,-0.558,1.021,-107.152,160.475,61.512
41058140,-0.561,-0.688,0.979,-124.267,161.402,58.415
41058150,-0.571,-0.891,0.875,-130.76,137.182,62.335
41058160,-0.704,-1.071,1.01,-121.87,97.685,57.627
41058170,-0.412,-1.627,1.389,-99.645,39.602,46.007
41058180,-0.873,-1.998,0.462,-47.092,-59.517,39.375
41058190,1.286,-1.7,0.788,24.71,-225.925,-82.932
41058200,1.902,-1.041,-0.203,111.65,-220.185,-163.415
41058210,-0.133,-0.709,-0.694,173.617,-122.815,-160.895
41058220,-1.575,-0.349,-0.533,162.802,-111.072,-174.09
41058230,-1.061,-0.11,-0.496,109.62,-108.885,-148.382
41058240,-0.463,0.027,-0.425,66.185,-95.637,-59.972
41058250,-0.352,-0.077,-0.542,26.18,-86.87,-0.962
41058260,-0.373,-0.102,-0.527,11.725,-71.085,25.76
41058270,-0.232,0.07,-0.289,-0.49,-57.89,50.207
41058280,-0.248,0.175,-0.393,-46.147,-59.552,69.335
41058290,-0.625,0.346,-0.543,-100.765,-87.097,70.42
41058300,1.354,-0.508,1.727,-180.442,20.772,52.307
41058310,-1.089,-1.457,0.1,104.02,235.812,202.072
41058320,-1.302,0.204,0.298,375.392,-58.765,75.985
41058330,-1.362,-1.988,0.614,126.787,-12.74,30.555
41058340,0.07,-0.589,0.704,262.78,-23.257,-9.817
41058350,-1.293,0.836,1.608,360.377,-16.292,-109.375
41058350,-0.06,-0.912,1.379,210.437,-46.077,-125.562
41058370,0.508,0.654,1.753,209.16,-49,-143.605
41058370,1.058,0.848,1.584,101.745,-37.992,-84.752
41058390,0.493,0.033,1.285,-22.75,-2.887,-4.462
41058390,-0.066,-0.178,1.233,-77.42,20.667,20.807
41058410,-0.375,-0.46,1.214,-123.83,33.11,6.982
41058410,-0.218,-0.357,1.186,-147.752,35.262,-14.087
41058420,-0.236,-0.425,1.162,-173.18,37.257,-27.3
41058430,-0.141,-0.459,1.173,-191.275,35.437,-42.28
41058440,-0.16,-0.486,1.107,-202.615,36.487,-49.297
41058450,-0.002,-0.401,0.898,-206.412,26.127,-52.762
41058460,0.143,-0.443,0.764,-217.245,24.325,-51.432
41058470,-0.16,-0.909,0.694,-226.275,14.122,-55.475
41058480,-0.394,-1.038,0.979,-205.975,-15.05,-72.817
41058490,-0.288,-0.856,0.867,-181.125,-53.042,-89.267
41058500,-0.161,-0.746,0.909,-156.502,-68.355,-94.5
41058510,0.009,-0.932,0.749,-149.17,-56.787,-77.28
41058520,-0.11,-1.012,0.351,-118.825,-50.382,-46.795
41058530,0.026,-0.953,0.332,-86.625,-57.82,-27.492
41058540,-0.153,-0.826,0.421,-59.482,-85.732,-12.005
41058550,-0.262,-0.81,0.408,-12.11,-116.935,-4.725
41058560,-0.228,-0.575,0.134,27.982,-137.305,15.452
41058570,-0.386,-0.183,-0.041,55.387,-156.73,39.655
41058580,-0.075,0.008,-0.192,49.035,-157.115,53.445
41058590,0.194,0.039,-0.438,22.137,-119.612,86.905
41058600,0.014,0.224,-0.648,12.53,-75.057,106.767
41058610,0.94,-0.132,0.411,-17.885,-28.927,98.665
41058620,1.832,-1.56,0.543,-51.345,55.037,92.312
41058630,0.852,-1.789,1.022,30.047,38.132,-6.86
41058640,0.095,-1.998,1.248,5.495,-13.597,-82.005
41058650,-0.821,-1.44,0.652,33.88,14.105,-47.197
41058660,0.218,0.352,1.423,43.645,33.04,-15.05
41058670,0.302,0.43,1.949,-16.345,35.84,-11.585
41058680,-0.487,-0.822,1.695,-87.185,-20.23,-26.057
41058690,-0.388,-0.841,1.68,-147.192,-58.362,-58.38
41058700,-0.136,-0.475,1.892,-206.78,-100.257,-81.707
41058710,-0.074,-0.923,1.911,-299.302,-128.66,-111.72
41058720,-0.348,-0.949,1.65,-330.102,-132.51,-129.64
41058730,-0.304,-0.754,1.301,-323.155,-137.497,-132.37
41058740,-0.063,-0.942,1.243,-323.96,-124.075,-109.987
41058750,-0.204,-0.937,1.24,-309.907,-77.087,-89.88
41058760,-0.429,-0.558,1.228,-260.207,-46.795,-95.217
41058760,-0.622,-0.871,1.09,-220.955,-22.767,-81.462
41058780,0,-0.812,1.492,-167.44,67.532,-34.93
41058780,-1.235,-0.292,1.41,-42.49,133.035,7.822
41058800,-1.699,-0.061,1.087,66.307,91.84,18.707
41058800,-0.983,0.134,0.295,154.49,46.077,89.582
41058820,-0.446,0.486,0.563,248.815,38.097,164.867
41058820,-0.23,0.133,0.762,271.11,35.927,228.182
41058830,0.12,-0.247,0.75,280.927,34.947,246.907
41058840,0.591,-0.044,0.974,287,52.412,227.01
41058850,0.786,0.033,1.06,257.775,52.937,202.247
41058860,0.94,-0.233,0.997,233.607,51.065,175.21
41058870,0.91,-0.486,0.976,244.23,49.385,132.825
41058880,0.744,-0.579,0.894,272.772,40.495,79.38
41058890,0.591,-0.625,0.868,285.897,33.88,40.092
41058900,0.498,-0.813,0.639,259.105,19.985,11.147
41058910,0.422,-0.956,0.285,227.377,0.7,2.957
41058920,0.032,-0.97,0.111,199.202,-7.612,24.587
41058930,-0.771,-1.094,-0.135,165.567,-43.015,62.79
41058940,-1.179,-1.058,-0.53,130.532,-87.99,125.282
41058950,-0.941,-0.938,-0.956,97.09,-120.487,214.462
41058960,-0.699,-0.961,-0.547,62.037,-168.28,282.555
41058970,1.998,-1.998,-0.239,-168.367,-15.767,396.69
41058980,0.612,-1.998,-1.997,15.085,-15.435,277.375
41058990,-1.712,0.44,1.21,443.117,37.327,191.555
41059000,-1.585,1.997,1.915,417.252,-12.285,193.515
41059010,-1.239,-1.246,0.354,0.525,-94.115,126.192
41059020,-1.477,-0.333,0.479,177.135,-80.587,-9.782
41059030,-0.649,0.328,1.809,328.352,-82.967,-106.82
41059040,1.33,0.268,1.384,172.095,-95.48,-101.01
41059050,0.894,0.751,1.332,84.122,-39.462,-49.035
41059060,0.194,-0.16,1.038,-24.657,3.325,0.385
41059070,0.129,-0.371,0.971,-46.952,25.147,-0.017
41059080,0.032,-0.463,0.921,-57.207,33.757,-1.207
41059080,-0.218,-0.497,0.927,-54.477,36.347,1.312
41059100,-0.265,-0.429,0.933,-50.995,32.025,-3.395
41059100,-0.185,-0.575,0.867,-48.282,24.64,-10.43
41059120,-0.138,-0.49,0.951,-39.707,17.412,-11.812
41059120,-0.084,-0.41,1.028,-47.687,15.067,-10.972
41059140,-0.193,-0.413,1.064,-68.407,18.532,-13.667
41059140,-0.18,-0.35,1.101,-87.08,22.137,-20.492
41059160,-0.12,-0.429,1.02,-109.952,23.292,-28.84
41059160,-0.026,-0.418,1,-125.177,29.05,-35.402
41059170,0.044,-0.463,0.953,-139.247,35.245,-37.222
41059180,-0.002,-0.49,0.935,-150.99,43.82,-36.522
41059190,-0.081,-0.408,0.91,-154.087,45.71,-36.417
41059200,-0.101,-0.447,0.893,-163.765,46.952,-36.68
41059210,-0.06,-0.656,0.761,-167.177,39.392,-40.722
41059220,-0.155,-0.643,0.834,-151.427,36.592,-36.785
41059230,-0.108,-0.806,0.852,-151.795,25.9,-40.95
41059240,-0.223,-0.98,0.923,-145.127,13.492,-46.007
41059250,-0.522,-0.967,0.867,-132.3,6.23,-43.47
41059260,-0.548,-0.995,0.787,-113.942,-7.385,-45.29
41059270,-0.365,-0.931,0.974,-97.825,-26.215,-66.57
41059280,-0.488,-0.726,0.896,-71.26,-45.15,-79.205
41059290,-0.119,-0.559,0.943,-63.7,-35.087,-72.292
41059300,-0.265,-0.243,0.676,-29.032,-12.88,-55.982
41059310,-0.307,0.852,0.337,50.172,9.905,-76.317
41059320,-0.127,1.877,-0.163,83.09,37.607,-96.775
41059330,0.062,1.997,-0.59,59.465,81.62,-88.812
41059340,-0.056,1.99,-0.582,39.742,137.83,-73.727
41059350,0.183,0.021,1.185,10.045,129.937,-113.82
41059360,-0.128,-1.998,-1.818,-238.787,116.322,184.695
41059370,1.511,-0.012,0.267,313.88,4.095,-66.57
41059380,-0.66,1.997,1.189,443.94,98.875,-160.58
41059390,-1.527,-0.512,1.038,139.562,-5.145,83.527
41059400,1.46,-1.826,0.75,180.932,-37.52,75.687
41059410,-1.642,1.671,1.947,399.805,9.397,-17.22
41059420,-0.23,-0.347,1.513,166.005,-33.792,-21.98
41059430,-0.018,-0.046,1.594,86.642,-39.34,-53.97
41059440,0.255,0.237,1.64,20.16,-23.45,-61.075
41059450,0.26,-0.271,1.347,-84.647,-16.222,-34.86
41059460,0.186,-0.271,1.233,-129.43,-13.125,-18.532
41059470,0.19,-0.444,1.133,-168.577,-7.682,-7.21
41059480,0.129,-0.454,1.122,-192.5,13.772,-7.63
41059490,0.069,-0.49,1.007,-222.127,42.245,-11.445
41059500,0.029,-0.595,0.782,-249.795,64.557,-30.502
41059510,-0.155,-0.707,1.078,-269.5,63.997,-62.527
41059510,-0.369,-0.93,1.078,-294.787,39.602,-97.317
41059530,-0.081,-1.404,0.893,-294.595,26.792,-102.41
41059530,0.699,-1.859,1.138,-292.81,52.115,-94.937
41059550,0.893,-1.844,0.969,-266.577,133.017,-70.42
41059550,1.21,-1.998,1.307,-246.907,126.385,-122.64
41059570,1.856,-1.998,0.686,-162.47,114.677,-190.12
41059570,1.446,-1.859,0.367,28.437,188.422,-225.785
41059580,-0.483,-1.355,0.146,149.467,160.37,-318.272
41059590,-1.917,-0.794,-0.317,196.962,58.257,-345.52
41059600,-1.998,-0.307,-0.451,209.825,-26.897,-307.44
41059610,-1.733,0.154,-0.612,189.77,-53.777,-204.365
41059620,-1.173,0.391,-0.427,134.942,-58.905,-86.205
41059630,-1.31,0.247,-0.209,73.675,-74.742,2.782
41059640,-1.55,-0.029,-0.166,37.625,-100.1,70.962
41059650,-1.349,-0.135,-0.11,30.415,-126.017,137.55
41059660,-1.117,-0.051,0.118,26.355,-153.632,194.092
41059670,-1.031,-0.052,0.296,17.36,-186.217,237.58
41059680,-0.957,-0.18,0.305,5.53,-208.845,288.767
41059690,-0.49,-0.168,0.238,-1.785,-207.427,331.292
41059700,0.058,0.07,0.569,15.277,-174.142,387.082
41059710,0.736,0.154,0.429,44.87,-126.735,433.475
41059720,1.849,0.443,0.543,80.815,-44.957,443.345
41059730,1.991,0.465,0.697,87.867,-32.095,356.86
41059740,1.915,0.824,0.422,80.272,-90.107,146.247
41059750,1.744,1.419,0.205,101.972,-91.98,-46.095
41059760,0.931,1.347,-0.207,127.032,-58.87,-157.64
41059770,0.264,-1.072,0.711,160.912,-122.57,-165.602
41059780,-0.916,-1.998,-1.997,-5.687,176.942,341.775
41059790,1.951,0.948,-0.269,454.702,-25.27,-149.957
41059800,-1.749,1.997,1.998,493.447,159.197,110.635
41059810,-0.007,-1.265,1.167,55.072,-44.275,85.295
41059820,-0.556,-0.371,0.979,224.787,-36.4,-1.26
41059830,-0.547,1.247,1.837,297.15,-37.012,-79.607
41059830,0.799,-0.554,1.07,-11.795,-63.91,-65.765
41059850,0.364,0.476,1.382,-27.965,-11.83,-76.3
41059850,0.182,-0.827,0.888,-114.327,16.835,-62.737
41059870,0.184,-0.358,1.069,-101.097,40.6,-73.552
41059870,0.42,-0.547,1.065,-126.175,47.39,-59.57
41059890,0.267,-0.183,1.228,-138.215,56.56,-49.122
41059890,0.282,-0.396,1.11,-175.735,62.23,-37.8
41059910,0.359,-0.66,0.959,-207.812,85.767,-38.202
41059910,-0.023,-0.759,0.736,-227.325,121.642,-53.655
41059920,-0.251,-0.738,0.903,-252.997,123.917,-96.267
41059930,-0.614,-0.805,0.908,-281.382,109.217,-134.732
41059940,-0.463,-0.978,0.789,-284.935,111.825,-154.805
41059950,0.541,-1.197,0.776,-295.015,158.515,-144.2
41059960,1.041,-1.792,0.636,-326.287,232.26,-142.467
41059970,0.678,-1.996,0.481,-319.2,283.412,-159.145
41059980,0.807,-1.978,1.176,-279.405,373.8,-139.737
41059990,1.919,-1.998,0.823,-215.95,438.41,-100.555
41060000,0.183,-1.998,0.336,-66.342,329.472,-207.69
41060010,-1.692,-1.759,0.212,127.68,200.55,-300.475
41060020,-1.998,-1.033,0.291,231.77,31.132,-310.38
41060030,-1.989,-0.709,-0.178,271.845,-134.802,-267.767
41060040,-1.206,-0.438,-0.787,280.507,-213.64,-178.395
41060050,-0.235,-0.187,-1.042,262.972,-211.785,-76.597
41060060,-0.169,0.036,-0.758,248.272,-156.905,5.372
41060070,-0.712,0.146,-0.49,226.695,-134.977,57.277
41060080,-1.011,0.238,-0.251,187.617,-150.64,105.245
41060090,-0.726,0.41,-0.066,115.465,-171.657,162.225
41060100,-0.239,0.355,-0.071,38.727,-183.102,238.857
41060110,0.675,0.209,-0.222,-17.937,-159.53,304.99
41060120,1.694,0.244,-0.081,-47.25,-84.472,329.647
41060130,1.998,0.305,0.273,-76.632,1.89,305.392
41060140,1.998,0.203,0.601,-125.055,62.072,209.247
41060150,1.945,-0.103,0.825,-162.085,93.24,58.887
41060160,1.557,-0.538,0.861,-152.46,110.18,-97.44
41060170,0.984,-0.645,0.67,-90.44,113.015,-210.682
41060180,0.362,-0.184,0.365,-8.767,90.895,-271.512
41060190,-0.169,0.487,0.055,46.917,45.342,-291.2
41060200,-0.387,1.143,-0.69,51.205,-8.785,-304.675
41060210,-1.379,1.364,-1.286,131.827,-67.672,-236.075
41060220,0.027,-1.317,1.875,-31.517,-101.01,-77.63
41060230,-1.925,-1.998,-1.71,-10.377,200.007,445.987
41060240,1.403,0.657,0.157,530.67,-89.88,298.602
41060250,-0.132,1.744,1.262,404.862,195.51,103.862
41060260,-1.976,-0.635,1.107,256.042,20.247,-11.917
41060260,1.037,-0.739,1.542,187.407,13.3,64.925
41060280,-1.886,-0.091,1.902,205.835,-6.562,-20.317
41060280,-0.63,0.54,1.696,115.955,-20.842,-134.697
41060300,0.045,-0.945,1.048,-28.682,-4.917,-169.242
41060300,0.505,0.359,1.5,-23.292,38.447,-201.285
41060320,1.167,-0.329,1.222,-100.87,42.875,-152.635
41060320,0.82,-0.429,1.225,-148.26,54.197,-90.265
41060330,0.31,-0.093,1.327,-173.722,52.657,-39.725
41060340,0.395,-0.163,1.215,-217.455,33.092,-21.157
41060350,0.24,-0.554,1.105,-251.055,27.265,-11.76
41060360,0.1,-0.529,1.122,-278.67,27.352,-15.417
41060370,-0.048,-0.548,1.294,-304.657,-4.025,-31.045
41060380,0.082,-0.796,1.242,-328.877,-25.97,-20.51
41060390,0.198,-1.378,1.57,-352.852,3.587,37.467
41060400,0.468,-1.799,0.968,-352.117,73.22,100.712
41060410,0.668,-1.826,1.214,-351.995,97.02,126.63
41060420,0.068,-1.998,0.579,-342.527,40.617,71.295
41060430,0.489,-1.961,-0.202,-192.657,-23.642,7.945
41060440,0.018,-1.569,-0.209,-3.815,-71.015,-45.185
41060450,-0.206,-0.715,0,79.992,-103.145,-86.905
41060460,-0.26,-0.422,-0.069,85.155,-116.34,-48.3
41060470,-0.297,-0.395,-0.253,78.54,-112.84,4.97
41060480,-0.154,-0.235,-0.294,82.88,-106.05,41.545
41060490,-0.078,-0.09,-0.195,68.932,-107.187,59.552
41060500,-0.127,-0.091,-0.162,47.932,-101.64,66.237
41060510,-0.136,-0.095,-0.175,41.877,-98.42,59.412
41060520,-0.111,-0.03,-0.181,44.607,-94.937,43.645
41060530,-0.098,0.023,-0.168,48.632,-89.32,28.21
41060540,-0.124,0.044,-0.158,51.415,-82.617,21.997
41060550,-0.098,0.067,-0.139,50.61,-74.882,21.577
41060560,-0.093,0.108,-0.094,39.672,-67.322,25.655
41060570,-0.028,0.068,-0.068,21.42,-57.172,31.15
41060580,0.099,-0.006,-0.07,6.265,-42.297,36.12
41060580,0.254,-0.064,-0.009,0.542,-21.752,37.555
41060600,0.312,-0.152,-0.014,0.875,3.22,33.32
41060600,0.285,-0.235,-0.044,6.44,28.717,21.77
41060620,0.147,-0.184,-0.104,15.557,44.222,-2.572
41060620,0.229,-0.256,-0.564,12.827,44.957,-51.625
41060640,-0.138,0.075,-0.291,95.13,50.312,-69.3
41060640,-0.327,-0.085,-1.124,98.367,2.187,-116.147
41060660,-0.271,-1.735,1.923,126.525,-59.465,-99.89
41060660,-0.713,-1.998,-0.337,85.19,291.007,177.73
41060670,0.111,0.236,-1.67,526.242,-277.147,52.535
41060680,1.078,1.953,1.984,486.71,256.83,67.707
41060690,-1.998,-1.264,1.197,213.972,65.345,14.262
41060700,0.407,-0.594,1.309,304.552,-17.272,-13.282
41060710,-0.745,0.623,1.998,325.71,11.83,-28.542
41060720,-0.509,0.796,1.998,179.69,-9.415,-109.532
41060730,0.209,-0.125,1.569,5.232,-11.602,-102.41
41060740,0.24,-0.215,1.106,-67.76,10.92,-105.787
41060750,0.411,-0.558,0.759,-91.997,25.935,-88.235
41060760,0.685,-0.589,0.866,-86.275,41.527,-67.165
41060770,0.675,-0.172,1.129,-87.062,45.255,-30.415
41060780,0.468,-0.241,1.093,-119.035,41.23,20.825
41060790,0.089,-0.47,0.97,-146.93,42.245,51.52
41060800,-0.107,-0.695,0.886,-147.175,47.32,51.537
41060810,-0.188,-0.52,0.902,-139.527,55.02,40.67
41060820,-0.222,-0.529,0.893,-157.552,66.64,21.385
41060830,-0.184,-0.352,1.062,-181.632,76.265,0.14
41060840,-0.401,-0.374,0.782,-220.01,80.64,-19.46
41060850,-0.368,-0.931,1.111,-278.302,65.187,-48.422
41060860,-0.287,-0.843,0.982,-298.83,21.017,-67.655
41060870,-0.036,-0.932,1.057,-294.455,7.472,-73.937
41060880,0.005,-1.399,1.04,-292.845,23.555,-50.277
41060890,-0.076,-1.484,1.179,-270.427,70.402,-1.312
41060900,-0.222,-1.567,0.871,-241.08,107.012,45.447
41060910,-0.411,-1.27,0.839,-190.452,89.18,65.765
41060920,-0.535,-0.966,0.631,-124.67,27.422,37.415
41060930,-0.355,-1.335,0.488,-67.445,-56.945,-2.152
41060940,0.272,-1.132,0.255,26.915,-84.21,1.12
41060950,0.185,-0.687,0.413,155.715,-67.865,2.082
41060960,0.051,-0.351,0.379,221.025,-37.31,-17.99
41060970,0.017,-0.077,0.225,250.32,-27.807,-11.41
41060980,0.146,0.234,-0.083,266.21,-13.02,9.275
41060990,0.307,0.596,-0.398,268.065,5.932,30.292
41061000,0.489,0.913,-0.499,230.685,19.425,34.965
41061000,0.589,0.973,-0.463,153.597,19.722,26.652
41061010,0.704,0.745,-0.277,59.57,22.925,10.255
41061020,0.63,0.282,-0.057,-19.442,39.445,-10.78
41061030,0.386,-0.149,0.241,-58.52,54.407,-32.112
41061040,0.103,-0.417,0.3,-57.645,63.997,-47.215
41061050,-0.016,-0.419,0.217,-35.262,58.677,-61.582
41061060,0.235,-0.678,-0.114,-17.92,60.322,-77.14
41061070,0.2,-1.169,-0.839,72.45,86.835,-99.505
41061080,-1.949,-1.848,0.75,133.297,110.337,4.375
41061090,-0.237,-1.998,-1.339,-15.942,134.015,144.147
41061100,0.72,0.415,0.595,499.992,-78.505,295.172
41061110,-1.995,1.997,1.591,564.322,-95.637,103.6
41061120,-0.45,1.738,1.93,341.967,-133.77,36.12
41061130,-1.382,-1.697,0.826,71.942,-171.447,-4.252
41061140,-0.769,-1.022,1.129,230.667,-158.882,-92.26
41061150,-0.041,0.346,1.677,289.187,-170.765,-131.127
41061160,1.299,0.157,1.184,133.175,-161.612,-75.635
41061170,1.479,0.868,1.205,56.7,-86.012,-21.927
41061180,0.518,-0.203,1.009,-38.762,-15.312,20.51
41061190,0.161,-0.659,0.819,-66.465,9.222,42.315
41061200,-0.501,-0.789,0.769,-41.492,13.125,40.722
41061210,-0.672,-0.9,0.738,-7.7,-3.815,24.465
41061220,-0.439,-0.576,0.921,40.285,-28.315,1.452
41061230,0.027,-0.547,0.916,52.08,-48.177,-11.217
41061240,0.498,-0.245,0.96,56.07,-42.595,-8.155
41061250,0.514,-0.12,0.909,39.55,-16.397,7.035
41061260,0.071,-0.146,0.962,20.09,10.92,19.355
41061270,-0.165,-0.242,0.935,6.807,20.632,17.657
41061280,-0.176,-0.402,0.918,-3.745,16.712,15.417
41061290,-0.004,-0.324,0.922,-0.647,13.44,13.335
41061300,-0.094,-0.363,0.921,-1.557,13.16,12.32
41061310,-0.073,-0.396,0.931,-5.722,9.695,13.65
41061320,-0.051,-0.425,0.903,-5.775,6.79,13.3
41061330,-0.108,-0.373,0.91,-1.89,3.762,13.492
41061330,-0.044,-0.285,0.917,-0.105,2.012,13.72
41061350,-0.056,-0.276,0.938,-3.132,3.01,10.36
41061350,-0.023,-0.325,0.925,-8.487,4.637,7.052
41061370,-0.04,-0.395,0.905,-11.165,6.545,4.48
41061370,-0.004,-0.382,0.908,-8.085,7.21,4.025
41061390,0.028,-0.373,0.902,-6.72,9.695,5.11
41061390,-0.03,-0.374,0.906,-4.672,11.742,6.16
41061410,-0.092,-0.348,0.909,-2.747,13.282,5.792
41061410,-0.073,-0.308,0.915,-3.902,12.337,4.952
41061420,-0.064,-0.319,0.93,-7.525,13.702,3.972
41061430,-0.022,-0.345,0.938,-11.62,14.91,2.94
41061440,-0.005,-0.344,0.932,-15.627,18.777,2.485
41061450,-0.058,-0.337,0.936,-19.967,21.455,2.327
41061460,-0.121,-0.387,0.915,-24.517,22.802,2.187
41061470,-0.181,-0.37,0.922,-21.665,18.9,1.942
41061480,-0.231,-0.437,0.91,-22.522,13.37,-2.59
41061490,-0.163,-0.418,0.92,-18.847,6.982,-7.857
41061500,-0.112,-0.364,0.933,-17.955,5.775,-10.272
41061510,-0.15,-0.431,0.925,-24.08,3.972,-9.922
41061520,-0.084,-0.366,0.935,-23.712,3.902,-10.272
41061530,-0.201,-0.35,0.946,-26.6,0.717,-11.707
41061540,-0.202,-0.36,0.967,-31.167,-3.342,-14.997
41061550,-0.169,-0.376,0.949,-37.677,-8.277,-17.43
41061560,-0.245,-0.398,0.891,-40.442,-12.46,-22.645
41061570,-0.312,-0.475,0.865,-35.7,-21.612,-31.867
41061580,-0.23,-0.584,0.829,-28.91,-33.302,-36.452
41061590,-0.16,-0.445,0.888,-19.88,-42.945,-35.507
41061600,-0.121,-0.479,0.913,-18.025,-47.25,-37.87
41061610,-0.068,-0.522,0.965,-23.03,-49.035,-39.007
41061620,-0.019,-0.352,1.059,-26.582,-49.35,-40.145
41061630,-0.004,-0.371,1.038,-40.985,-53.707,-36.75
41061640,0.063,-0.414,0.96,-51.817,-56.49,-30.992
41061650,0.132,-0.502,0.889,-55.51,-53.935,-26.495
41061660,0.193,-0.462,0.947,-56.857,-48.79,-21.7
41061670,0.16,-0.375,1.034,-64.522,-39.69,-14.035
41061670,0.219,-0.338,1.096,-83.457,-30.73,-3.727
41061690,0.195,-0.378,1.164,-106.907,-22.907,7.7
41061690,0.28,-0.401,1.165,-132.195,-11.882,18.34
41061710,0.295,-0.422,1.211,-166.635,6.335,26.425
41061710,0.29,-0.498,1.273,-212.485,22.015,18.322
41061730,0.112,-0.607,1.298,-266.21,38.657,-0.875
41061730,0.227,-0.648,1.462,-300.825,50.435,-12.267
41061750,0.523,-1.033,1.201,-359.345,93.782,2.782
41061750,1.096,-1.863,0.687,-405.457,206.132,24.955
41061760,1.195,-1.998,1.213,-438.41,320.845,39.567
41061770,1.722,-1.998,0.663,-443.17,346.937,2.765
41061780,1.249,-1.998,0.342,-286.807,339.657,-38.01
41061790,-1.118,-1.998,-0.196,-49.735,238.56,-153.457
41061800,-1.632,-1.627,0.03,161.455,103.075,-223.982
41061810,-1.152,-0.797,-0.274,275.117,-43.557,-221.392
41061820,-0.899,-0.351,-0.777,286.807,-128.467,-186.69
41061830,-0.495,0.084,-0.848,266.945,-137.62,-137.48
41061840,-0.259,0.376,-0.851,232.277,-109.27,-67.532
41061850,-0.252,0.601,-0.713,183.225,-72.607,1.277
41061860,-0.226,0.744,-0.464,123.987,-40.337,57.015
41061870,-0.278,0.764,-0.217,63.332,-32.462,105.017
41061880,-0.238,0.689,-0.016,-2.117,-44.135,145.005
41061890,-0.04,0.576,0.125,-68.372,-62.125,177.572
41061900,0.154,0.45,0.252,-120.487,-75.582,199.99
41061910,0.259,0.322,0.411,-146.877,-85.47,209.702
41061920,0.338,0.193,0.579,-149.415,-92.592,209.282
41061930,0.364,0.061,0.72,-139.422,-112.612,200.602
41061940,0.397,-0.215,0.71,-126.035,-147.752,174.475
41061950,0.8,-0.387,0.588,-102.585,-171.815,132.702
41061960,1.389,-0.338,0.288,-64.242,-159.145,79.1
41061970,1.777,-0.123,-0.112,-25.655,-99.785,8.47
41061980,1.642,0.106,-0.314,-10.902,-2.677,-75.145
41061990,1.034,0.161,-0.465,-24.99,79.8,-159.075
41062000,0.165,0.427,-0.24,-42.472,121.502,-218.977
41062010,-0.147,0.006,-0.524,-54.95,125.387,-259.595
41062020,-0.843,0.021,-1.089,106.522,139.055,-259.14
41062030,-1.379,-1.537,1.719,186.515,174.685,-42.175
41062040,-1.998,-1.998,-1.337,172.427,184.362,420.735
41062050,1.123,1.136,0.071,503.895,-213.377,259.892
41062060,-1.159,1.826,1.455,570.832,46.76,159.232
41062070,-1.998,-0.725,1.543,460.442,-116.06,-36.365
41062080,-0.437,-0.686,1.629,387.502,-181.422,-61.022
41062080,-0.098,0.228,1.998,374.657,-179.06,-176.155
41062100,1.982,1.749,1.828,182.542,-147.227,-185.115
41062100,1.295,1.365,1.67,-32.567,-26.39,-80.22
41062120,-0.053,-0.529,1.361,-187.092,34.807,-2.397
41062120,-0.529,-0.626,0.791,-205.572,10.447,7.962
41062140,-0.145,-0.946,0.266,-174.02,-19.67,6.44
41062140,0.03,-1.22,0.22,-106.89,-13.475,-14.945
41062160,0.082,-0.825,0.486,-40.967,-1.47,-32.13
41062160,0.111,-0.605,0.622,-4.812,3.482,-34.09
41062170,0.315,-0.618,0.645,19.162,-1.995,-21.472
41062180,0.285,-0.541,0.716,40.775,-3.412,-0.42
41062190,0.193,-0.621,0.714,51.292,-0.367,13.195
41062200,0.054,-0.51,0.829,63.927,6.387,21.017
41062210,-0.06,-0.466,0.948,64.61,8.82,24.027
41062220,-0.138,-0.385,1.025,57.33,9.625,18.917
41062230,-0.146,-0.281,1.091,44.397,7.105,11.48
41062240,-0.125,-0.23,1.117,23.467,5.057,6.3
41062250,-0.036,-0.318,1.041,-1.207,2.24,2.222
41062260,0.002,-0.411,0.96,-17.71,3.622,-0.42
41062270,0.007,-0.436,0.9,-24.587,3.377,-0.14
41062280,0.026,-0.503,0.842,-27.72,4.13,3.552
41062290,0.018,-0.531,0.825,-23.485,3.342,6.807
41062300,-0.011,-0.514,0.824,-16.327,3.202,9.38
41062310,-0.056,-0.513,0.825,-11.357,0.612,11.375
41062320,-0.02,-0.507,0.824,-6.965,-0.927,12.967
41062330,0.04,-0.525,0.828,-3.22,-2.537,14.245
41062340,-0.151,-0.518,0.872,2.432,-4.83,14.98
41062350,-0.137,-0.528,0.863,8.767,-13.702,11.602
41062360,-0.079,-0.499,0.884,12.477,-21.385,10.85
41062370,-0.023,-0.509,0.879,12.232,-28.42,15.767
41062380,0.077,-0.483,0.896,11.9,-32.585,22.242
41062390,0.065,-0.405,0.977,11.06,-34.51,31.85
41062400,0.01,-0.35,1.041,4.76,-39.357,40.11
41062410,-0.029,-0.322,1.067,-4.987,-47.915,48.09
41062420,-0.131,-0.348,1.08,-14.262,-61.092,53.165
41062420,-0.172,-0.353,1.036,-19.302,-78.417,52.605
41062440,-0.129,-0.311,0.933,-23.047,-93.047,52.202
41062440,0.015,-0.268,0.858,-29.05,-96.477,52.867
41062460,0.052,-0.351,0.807,-36.662,-91.122,52.57
41062460,0.016,-0.496,0.821,-41.597,-83.685,49.542
41062480,0.069,-0.545,0.594,-34.352,-83.685,43.662
41062480,0.188,-0.574,0.605,-21.98,-67.007,42.28
41062500,0.194,-0.734,0.575,-12.652,-48.195,39.427
41062500,0.088,-0.723,0.653,5.897,-28.07,28.857
41062510,-0.144,-0.73,0.595,21,-16.082,12.46
41062520,-0.314,-0.861,0.552,37.222,1.05,-10.342
41062530,-0.352,-0.964,0.667,61.11,11.602,-48.23
41062540,-0.127,-0.646,0.859,84.297,19.022,-103.092
41062550,0.016,-0.356,1.098,77.455,22.435,-131.652
41062560,0.229,-0.108,1.15,56.577,18.655,-132.632
41062570,0.48,-0.102,1.143,26.757,20.09,-113.855
41062580,0.505,-0.046,1.157,-4.602,28.28,-83.317
41062590,0.461,-0.102,1.2,-36.75,34.44,-47.267
41062600,0.316,-0.213,1.261,-69.79,35.332,-12.582
41062610,0.158,-0.252,1.35,-103.932,31.745,7
41062620,0.079,-0.332,1.37,-144.55,32.567,9.327
41062630,0.102,-0.364,1.383,-191.03,43.452,-1.277
41062640,0.015,-0.437,1.246,-245.997,64.662,-13.667
41062650,0.051,-0.463,1.362,-305.655,88.445,-27.317
41062660,-0.579,-0.911,1.218,-354.9,85.382,-67.952
41062670,-0.358,-0.672,1.207,-351.592,53.935,-145.512
41062680,0.619,-0.656,1.335,-401.87,94.972,-143.395
41062690,1.59,-1.719,1.425,-477.225,228.865,-51.117
41062700,1.872,-1.998,1.571,-513.94,404.88,21.595
41062710,1.998,-1.998,0.871,-543.445,517.457,-44.957
41062720,0.427,-1.998,-0.078,-319.462,553.227,-172.13
41062730,-1.983,-1.998,-0.435,70.595,476.087,-311.045
41062740,-1.998,-1.405,0.249,482.3,289.345,-356.107
41062750,-1.998,-0.824,-0.325,550.567,43.557,-395.937
41062760,-1.998,-0.695,-1.136,491.505,-109.725,-371.805
41062770,-1.627,-0.224,-1.744,439.302,-148.645,-301.017
41062780,-0.952,0.223,-1.771,421.977,-72.03,-166.652
41062790,-1.09,0.518,-1.858,408.66,-5.827,-34.055
41062800,-1.276,0.85,-1.535,359.38,18.042,46.287
41062810,-1.365,1.149,-1.026,245.735,16.31,120.015
41062820,-0.982,1.194,-0.542,50.05,-7.472,200.095
41062830,-0.535,0.856,-0.292,-159.897,-49.542,268.432
41062830,-0.311,0.172,-0.348,-321.212,-86.012,321.475
41062850,0.093,-0.543,-0.657,-374.867,-96.897,345.17
41062850,1.254,-0.361,-0.003,-295.645,-60.585,343.227
41062870,1.27,0.016,0.406,-263.515,-46.812,307.09
41062870,0.96,-0.097,0.321,-269.045,-51.66,284.55
41062890,1.148,-0.213,0.447,-282.537,-41.09,271.722
41062890,1.543,-0.302,0.632,-288.417,-25.655,248.815
41062910,1.437,-0.416,0.802,-265.615,-8.96,218.995
41062910,1.188,-0.342,0.931,-244.772,1.487,164.255
41062920,0.839,-0.184,1.075,-220.36,-0.927,120.19
41062930,0.386,-0.254,1.133,-188.16,-33.6,102.462
41062940,0.281,-0.31,1.144,-139.667,-86.1,48.352
41062950,0.289,-0.287,1.151,-87.29,-152.635,-12.687
41062960,0.932,-0.882,0.789,8.19,-184.922,-90.842
41062970,-1.895,0.208,0.123,267.312,-321.387,-157.062
41062980,-1.413,-1.998,-0.797,41.982,-425.25,-227.99
41062990,1.997,-1.998,1.012,391.422,-250.232,333.34
41063000,0.796,-1.921,-1.845,421.54,56.822,447.335
41063010,1.503,1.775,0.016,469.77,44.642,56.752
41063020,-1.988,0.44,1.629,409.99,292.635,97.982
41063030,-1.998,-1.986,0.628,262.447,62.492,152.127
41063040,-1.022,-0.097,1.189,433.632,-86.292,79.502
41063050,-1.936,0.141,1.375,422.082,-133.927,-130.445
41063060,0.052,0.103,1.198,285.407,-122.377,-243.18
41063070,0.761,0.062,1.573,195.597,-69.282,-271.687
41063080,0.802,0.379,1.877,90.527,-27.615,-244.44
41063090,0.811,0.383,1.69,-7.28,-27.527,-164.482
41063100,0.648,-0.138,1.378,-85.225,-27.755,-86.852
41063110,-0.055,-0.322,1.323,-129.727,-25.69,-52.675
41063120,-0.054,-0.215,1.283,-149.537,-46.392,-36.68
41063130,-0.137,-0.467,1.187,-169.522,-70.822,-24.132
41063140,-0.198,-0.596,1.105,-172.217,-86.87,-27.615
41063150,-0.201,-0.541,0.967,-160.58,-99.96,-37.625
41063160,-0.181,-0.638,0.898,-149.975,-109.515,-45.902
41063170,-0.216,-0.588,0.733,-130.515,-117.897,-45.01
41063170,-0.079,-0.391,0.763,-115.132,-128.712,-38.307
41063190,0.188,-0.308,0.804,-117.53,-150.797,-36.155
41063190,-0.08,-0.567,0.945,-127.137,-196.927,-40.582
41063210,-0.299,-0.708,1.1,-123.112,-265.527,-54.39
41063210,0.434,-0.791,1.244,-123.252,-237.632,-9.765
41063230,-0.987,-0.052,1.605,-70.542,-34.93,86.782
41063230,-1.802,-0.844,1.792,-11.357,59.85,215.285
41063250,-1.098,-1.127,0.874,106.47,63,333.497
41063250,-1.565,-0.595,0.377,281.68,-6.807,435.54
41063260,-1.076,-0.639,-0.137,321.317,-86.327,468.055
41063270,-0.165,-0.711,-1.219,268.747,-143.465,439.407
41063280,0.181,-0.5,-1.605,231.875,-146.58,417.2
41063290,0.139,-0.401,-1.192,143.465,-122.675,391.755
41063300,-0.166,-0.924,-0.703,16.205,-109.235,380.415
41063310,-0.405,-1.499,-0.619,-92.435,-109.2,374.885
41063320,-0.282,-1.896,-0.924,-127.19,-116.06,372.785
41063330,0.113,-1.83,-1.349,-108.132,-111.965,370.702
41063340,-1.106,-1.981,-0.565,-63.77,-150.482,311.045
41063350,1.97,-1.998,1.603,-91.297,-287.315,11.847
41063360,1.261,-1.641,-1.997,276.622,-42,-5.442
41063370,-1.984,1.738,1.067,521.185,57.032,-60.462
41063380,-1.318,1.477,1.521,251.125,16.555,-50.505
41063390,1.628,-1.709,0.756,80.395,-103.81,18.217
41063400,0.267,-1.106,0.833,164.552,-50.05,-68.792
41063410,-0.234,0.959,1.759,236.635,-15.33,-55.79
41063420,0.303,-0.286,1.375,74.112,-19.547,-24.325
41063430,0.024,0.179,1.382,23.135,0.332,-10.815
41063440,0.061,-0.117,1.194,-34.895,14.507,-2.607
41063450,-0.042,-0.481,0.935,-69.3,26.145,-4.707
41063460,-0.09,-0.625,0.788,-64.557,30.695,-8.505
41063470,-0.02,-0.661,0.784,-55.037,30.765,-10.29
41063480,-0.025,-0.55,0.855,-41.492,33.565,-9.117
41063490,0.026,-0.484,0.899,-35,38.675,-8.995
41063500,0.038,-0.476,0.945,-36.995,48.457,-12.582
41063510,-0.065,-0.443,0.986,-40.635,61.057,-15.225
41063520,-0.063,-0.437,0.987,-45.57,70.157,-16.905
41063530,0.014,-0.448,1.011,-51.012,84.402,-18.27
41063540,0.005,-0.501,1.062,-56.822,106.085,-20.125
41063550,-0.111,-0.635,1.087,-60.077,132.965,-23.695
41063560,-0.011,-0.721,1.091,-52.43,151.777,-30.765
41063570,0.291,-1.004,1.066,-58.537,182.455,-47.512
41063580,0.599,-1.741,0.962,-50.33,224.962,-60.27
41063580,1.784,-1.998,1.172,32.147,291.55,-45.237
41063600,0.407,-1.811,0.568,148.295,308.087,-125.965
41063600,-0.03,-1.204,0.257,181.457,75.985,-333.742
41063620,0.642,-0.822,-0.531,205.222,43.19,-341.075
41063620,0.07,-0.478,-0.528,173.547,5.495,-304.517
41063630,-0.979,-0.558,-1.055,92.75,-70.315,-290.675
41063640,-1.373,-0.36,-0.914,42.455,-118.44,-225.872
41063650,-0.839,-0.072,-0.375,-47.075,-127.382,-121.607
41063660,-0.791,-0.391,0.019,-164.045,-133.735,6.09
41063670,-0.886,-0.617,0.483,-213.692,-163.59,94.202
41063680,-0.628,-1.208,1.781,-209.177,-141.312,166.04
41063690,-0.336,0.967,0.071,82.425,-190.82,207.567
41063700,0.322,1.997,1.998,351.89,-71.627,225.89
41063710,-1.687,-0.202,1.584,-99.96,-117.617,233.205
41063720,-0.465,-1.998,-0.627,-180.442,-202.737,178.482
41063730,0.668,-0.605,0.489,103.057,-57.19,61.407
41063740,-1.885,0.462,1.164,101.552,-1.26,-14.437
41063750,-0.168,-1.305,0.57,28.507,-37.8,-72.485
41063760,-0.367,-0.569,0.88,82.127,-18.025,-137.287
41063770,0.024,-0.14,1.004,78.977,-12.267,-160.37
41063780,0.434,-0.437,0.862,58.59,-14.787,-143.937
41063790,0.64,-0.273,0.929,72.17,-16.8,-105.192
41063800,0.742,-0.105,1.114,69.282,-15.05,-54.127
41063810,0.555,0.025,1.227,42.997,-2.992,-3.937
41063820,0.093,-0.274,1.122,-4.182,9.572,31.78
41063830,-0.316,-0.358,1.072,-31.36,12.827,36.522
41063840,-0.353,-0.37,1.075,-47.67,7.017,22.155
41063850,-0.091,-0.299,1.14,-62.667,1.96,4.007
41063860,0.125,-0.283,1.152,-87.465,3.097,-1.802
41063870,0.25,-0.324,1.116,-114.922,10.325,3.99
41063880,0.279,-0.319,1.058,-137.217,23.94,12.792
41063890,0.152,-0.389,1.079,-157.395,39.655,20.195
41063900,0.042,-0.402,1.028,-171.185,48.422,24.237
41063910,-0.009,-0.429,1.046,-182.682,51.222,21.175
41063920,-0.113,-0.544,1.005,-194.565,47.967,9.572
41063920,-0.298,-0.429,0.99,-197.172,38.307,-1.522
41063940,-0.393,-0.418,0.955,-213.062,18.182,-16.625
41063940,-0.352,-0.601,1.005,-229.757,-10.517,-26.512
41063960,-0.211,-0.884,0.943,-231.612,-44.625,-27.527
41063960,-0.075,-0.913,0.87,-211.085,-65.327,-18.06
41063980,-0.05,-0.764,0.723,-180.25,-70.14,0.717
41063980,-0.046,-0.834,0.811,-165.462,-58.782,23.8
41064000,-0.193,-0.915,0.842,-146.755,-69.247,29.715
41064000,-0.137,-0.505,0.923,-112.262,-82.53,25.235
41064010,-0.17,-0.544,1.083,-88.445,-78.557,31.15
41064020,0.51,-0.513,1.613,-54.6,-50.085,29.032
41064030,0.165,-0.305,0.955,36.54,2.695,34.772
41064040,-0.357,0.28,0.45,145.635,7.962,-5.005
41064050,-0.172,0.858,-0.019,206.062,23.17,-26.04
41064060,-0.064,0.992,-0.253,192.167,48.72,-14.35
41064070,-0.116,0.758,-0.392,138.582,28.14,-35.367
41064080,0.129,0.586,-0.352,78.872,14.612,-51.765
41064090,0.015,0.374,-0.288,30.73,28.7,-29.347
41064100,-0.16,-0.272,-0.77,4.06,36.102,-20.895
41064110,0.178,-1.73,1.443,-36.365,-5.6,12.95
41064120,-0.415,-1.998,-1.866,-112.052,43.4,168.14
41064130,1.875,0.956,0.26,342.055,40.372,-53.777
41064140,-1.068,1.752,1.188,279.352,185.92,1.89
41064150,-1.998,-1.31,0.995,154.14,16.695,12.285
41064160,0.998,-1.94,0.598,233.555,-5.6,39.602
41064170,-0.873,-0.031,1.238,356.667,14.402,-45.202
41064180,-0.574,1.349,1.948,310.292,-6.16,-98.455
41064190,0.438,-0.976,1.353,133.192,-28.927,-94.517
41064200,0.392,0.667,1.823,124.932,-16.485,-86.852
41064210,0.508,-0.176,1.42,9.415,-13.037,-38.395
41064220,0.238,-0.072,1.33,-52.185,-4.182,-2.537
41064230,0.182,-0.372,1.12,-103.862,1.68,18.147
41064240,0.117,-0.354,1.136,-129.027,11.917,25.655
41064250,0.123,-0.302,1.154,-151.392,23.695,27.492
41064260,0.135,-0.37,1.115,-183.207,35.7,28.805
41064270,0.112,-0.383,1.025,-206.64,48.055,30.625
41064280,0.131,-0.51,0.875,-221.497,62.317,27.702
41064280,-0.12,-0.317,0.967,-221.48,73.5,23.31
41064300,-0.259,-0.476,0.763,-258.527,59.99,-2.835
41064300,-0.114,-0.946,0.797,-299.6,50.417,-26.372
41064320,0.141,-1,0.877,-317.905,47.39,-31.307
41064320,0.264,-0.837,0.902,-312.427,85.575,-27.93
41064330,0.151,-1.755,0.702,-324.275,153.457,10.43
41064340,0.606,-1.82,0.716,-291.445,200.882,15.61
41064350,1.134,-1.945,1.383,-267.102,154.997,-43.242
41064360,0.35,-1.867,1.055,-168.35,122.885,-89.81
41064370,1.467,-1.249,0.959,-25.27,147.035,-90.58
41064380,0.649,-1.646,0.569,86.432,102.497,-187.897
41064390,-1.352,-0.893,-0.066,207.795,18.217,-266.035
41064400,-1.874,0.135,-0.096,282.887,-50.872,-288.12
41064410,-1.667,0.644,-0.096,276.57,-95.042,-226.345
41064420,-1.302,0.798,-0.263,227.307,-106.54,-119.297
41064430,-1.181,0.873,-0.462,183.33,-94.535,-14.647
41064440,-1.08,0.903,-0.475,161.21,-68.862,64.662
41064450,-0.864,0.98,-0.364,145.827,-42.7,131.722
41064460,-0.692,0.946,-0.207,107.8,-30.187,198.52
41064470,-0.329,0.608,-0.081,48.352,-33.46,250.005
41064480,0.127,0.081,-0.033,1.015,-41.632,262.307
41064490,0.391,-0.247,-0.135,-10.412,-51.782,244.195
41064500,0.609,-0.803,-0.546,11.55,-46.007,229.145
41064510,0.831,-1.505,0.131,54.407,-39.322,167.3
41064520,1.697,-1.998,-0.604,-108.78,-14.997,147.857
41064530,-0.323,-0.619,-1.574,457.975,16.065,203.822
41064540,-1.998,1.997,1.998,556.255,-45.78,138.932
41064550,-1.401,1.732,1.774,309.505,-178.605,86.677
41064560,0.693,-1.722,1.39,186.637,-233.45,9.607
41064570,-1.313,-0.442,1.741,393.47,-210.577,-123.69
41064580,1.979,1.958,1.695,288.365,-191.625,-110.827
41064590,0.937,0.942,1.237,26.355,-71.61,-36.592
41064600,0.353,-0.014,1.301,-84.525,5.705,6.142
41064610,0.094,-0.514,1.133,-139.44,31.272,3.097
41064620,0.043,-0.286,1.182,-143.675,45.115,-4.147
41064630,0.006,-0.73,0.814,-143.902,55.842,-14.822
41064640,0.084,-0.917,0.754,-149.135,59.185,-10.517
41064650,0.325,-0.363,0.965,-117.302,82.11,-18.007
41064660,0.398,-0.371,0.985,-126.997,105.297,-10.815
41064670,0.475,-0.611,0.935,-141.155,132.3,6.685
41064670,0.442,-0.543,0.977,-133.525,166.617,21.402
41064690,0.03,-0.438,1.009,-125.965,201.32,31.972
41064690,-0.573,-0.499,0.816,-127.767,196.752,32.13
41064710,-0.78,-0.751,0.848,-127.68,163.957,31.097
41064710,-0.402,-1.09,0.99,-133.63,134.89,38.167
41064730,-0.008,-1.675,1.134,-130.48,116.812,62.58
41064730,0.229,-1.998,1.58,-103.932,49.297,70.875
41064750,0.977,-1.998,0.869,-38.797,-118.86,-44.257
41064750,0.201,-1.557,-0.973,118.3,-333.812,-192.36
41064760,-0.986,-0.175,-1.792,232.82,-385.14,-236.355
41064770,-1.514,0.741,-1.997,226.975,-356.37,-208.757
41064780,-1.095,1.813,-1.722,46.62,-224.962,-85.382
41064790,-1.576,1.165,-0.477,-297.815,-81.147,156.327
41064800,-0.899,-1.361,0.742,-464.17,-93.502,285.722
41064810,1.998,-1.389,1.998,-203.752,95.882,257.075
41064820,1.666,1.981,-0.794,409.955,-70.77,117.04
41064830,-1.628,0.452,1.759,183.592,-32.427,4.147
41064840,-0.842,-1.998,-1.735,-21.752,-134.925,123.935
41064850,1.542,-0.877,0.223,279.107,-43.907,148.785
41064860,-1.95,1.874,1.784,418.302,-13.527,55.615
41064870,-0.308,-1.484,0.691,204.837,-56.087,9.432
41064880,-0.602,0.019,1.541,317.747,-49.857,-69.947
41064890,0.807,0.453,1.736,267.172,-63.122,-58.397
41064900,0.22,0.772,1.447,118.545,-45.78,-0.892
41064910,0.057,0.094,1.092,18.392,-19.022,-7.105
41064920,0.608,0.3,1.205,-28.227,7.875,-30.765
41064930,0.007,-0.219,1.144,-83.282,31.237,-16.1
41064940,-0.256,-0.395,1.176,-115.587,33.845,-13.527
41064950,-0.223,-0.381,1.113,-133.927,32.2,-21.507
41064960,-0.426,-0.735,0.899,-145.355,39.06,-49.525
41064970,-0.065,-0.625,0.865,-140.787,32.497,-62.86
41064980,-0.059,-0.519,0.87,-129.762,27.895,-60.742
41064990,0.055,-0.602,0.843,-128.082,22.365,-50.907
41065000,0.102,-0.595,0.821,-119.017,19.757,-38.972
41065010,0.048,-0.614,0.823,-111.037,19.075,-27.335
41065010,0.046,-0.578,0.812,-103.127,18.007,-16.45
41065030,-0.039,-0.523,0.809,-94.115,15.225,-8.802
41065030,-0.151,-0.552,0.782,-86.922,4.392,-7.14
41065050,-0.114,-0.658,0.747,-79.537,-14.14,-9.31
41065050,-0.106,-0.736,0.718,-59.692,-32.287,-8.05
41065070,-0.21,-0.832,0.768,-33.25,-50.872,-6.422
41065070,-0.17,-0.867,0.603,-3.045,-77.07,-7.892
41065080,-0.056,-0.746,0.569,27.125,-91.875,-2.94
41065090,0.082,-0.675,0.678,41.44,-97.895,2.747
41065100,0.083,-0.701,0.576,50.872,-91.84,9.432
41065110,0.224,-0.677,0.51,71.995,-76.387,13.247
41065120,0.399,-0.499,0.515,79.415,-54.215,9.747
41065130,0.372,-0.364,0.55,75.652,-28.577,7.665
41065140,0.185,-0.192,0.839,66.5,-0.49,3.902
41065150,0.222,-0.009,1.137,32.147,29.382,-2.065
41065160,-0.005,-0.087,1.427,-11.252,50.592,-10.552
41065170,-0.506,-0.411,1.807,-61.95,46.777,-32.095
41065180,-0.842,-0.664,1.958,-105,14.945,-59.64
41065190,-0.656,-0.673,1.992,-111.51,-34.195,-87.885
41065200,-0.36,-0.532,1.91,-108.36,-63.945,-108.255
41065210,-0.672,-0.354,1.671,-94.867,-57.295,-111.807
41065220,-0.792,-0.275,1.424,-78.575,-37.625,-88.252
41065230,-0.965,-0.447,1.174,-49.507,-36.715,-49.14
41065240,-1.219,-0.302,0.646,-15.82,-40.827,-13.072
41065250,-1.029,0.037,0.272,22.89,-41.755,23.065
41065260,-0.512,0.12,0.189,22.085,-11.06,64.977
41065270,-0.531,-0.115,0.201,3.447,13.072,89.32
41065280,-0.751,-0.314,0.378,-0.91,23.59,84.892
41065290,-0.728,-0.437,0.587,10.85,37.152,87.622
41065300,-0.56,-0.551,0.6,36.085,50.942,97.335
41065310,-0.338,-0.608,0.495,71.995,73.71,109.235
41065320,-0.156,-0.599,0.469,99.697,102.707,115.237
41065330,-0.053,-0.553,0.456,105.717,126.857,108.377
41065340,0.032,-0.66,0.445,92.575,146.877,107.117
41065350,-0.009,-0.782,0.535,69.422,154.052,91.192
41065360,-0.219,-0.893,0.595,43.82,128.94,57.82
41065370,-0.233,-1.057,0.619,15.312,87.167,22.05
41065380,-0.04,-1.361,0.61,-13.807,50.137,0.787
41065390,0.083,-1.423,0.529,-31.377,13.562,-10.01
41065400,0.169,-1.562,0.349,-26.53,-35.752,-20.772
41065410,0.241,-1.523,0.175,-14.892,-79.047,-12.967
41065420,0.658,-1.247,0.245,0.577,-89.372,-33.39
41065420,0.56,-1.114,-0.22,7.07,-77.157,-44.782
41065440,0.194,-0.725,-0.935,24.062,-45.57,-35.227
41065440,0.067,0.009,-0.947,22.942,-7.14,-26.862
41065460,0.077,0.274,-0.848,-59.395,22.382,-14.752
41065460,0.043,-0.088,-0.926,-173.547,41.702,-4.34
41065480,-0.459,-0.825,0.626,-206.797,-15.54,-96.25
41065480,1.998,-1.979,0.694,-185.78,83.86,-189.875
41065500,-0.747,0.557,-0.09,445.777,204.802,-288.522
41065500,-1.45,0.109,1.092,322.49,117.495,-229.302
41065510,1.899,-1.38,0.9,241.255,-17.29,-97.055
41065520,-1.077,0.657,1.921,357.105,-41.422,-13.475
41065530,-0.863,-0.463,1.628,216.37,-67.567,33.862
41065540,-0.076,1.639,1.717,125.282,-53.76,-26.442
41065550,0.833,-0.152,0.976,-17.132,-21.665,-66.587
41065560,0.58,-0.292,0.91,-49.227,19.967,-52.71
41065570,0.421,-0.654,0.771,-57.96,34.772,-21.577
41065580,0.159,-0.428,0.909,-42.105,41.947,6.667
41065590,-0.444,-0.522,0.917,-41.965,40.792,22.89
41065600,-0.495,-0.577,0.898,-32.812,27.055,10.01
41065610,-0.065,-0.404,0.961,-19.95,11.76,-4.585
41065620,0.04,-0.339,1.016,-25.095,7.577,-1.242
41065630,0.078,-0.25,1.115,-38.762,8.54,8.907
41065640,-0.034,-0.291,1.165,-64.557,11.672,20.475
41065650,-0.072,-0.34,1.209,-91.892,10.937,27.492
41065660,-0.027,-0.349,1.195,-120.26,7.035,34.807
41065670,-0.084,-0.336,1.109,-148.225,-0.07,40.127
41065680,0.031,-0.374,1.025,-165.392,-5.512,41.352
41065690,0.009,-0.42,1.084,-171.99,-4.147,41.265
41065700,0.122,-0.548,1.084,-170.642,-8.26,44.1
41065710,0.367,-0.806,0.966,-162.697,-6.685,60.987
41065720,0.477,-0.883,0.978,-137.865,-3.692,90.317
41065730,0.305,-0.987,1,-117.477,-13.02,120.61
41065740,-0.023,-1.531,0.975,-90.93,-52.902,134.47
41065750,1.013,-1.998,0.669,-69.387,-110.81,128.922
41065760,1.41,-1.86,-1.244,-14.595,-136.325,140.805
41065760,1.721,-1.027,0.438,15.995,-101.5,96.092
41065780,0.637,-1.046,0.197,-31.605,-98.017,48.265
41065780,0.401,-0.926,0.36,-56.297,-88.637,13.317
41065800,0.448,-0.64,0.519,-52.57,-86.065,-11.34
41065800,0.398,-0.365,0.635,-53.532,-81.112,-36.365
41065820,0.249,-0.274,0.578,-66.255,-68.337,-50.697
41065820,0.243,-0.177,0.476,-70.227,-51.94,-64.4
41065830,0.252,-0.088,0.443,-71.172,-38.5,-83.265
41065840,0.184,-0.103,0.628,-85.452,-28.91,-103.46
41065850,-0.096,-0.188,0.777,-103.88,-33.11,-123.795
41065860,-0.597,0.056,0.678,-95.987,-66.517,-134.487
41065870,-1.118,0.972,0.048,-54.652,-130.252,-131.477
41065880,-1.207,1.98,-1.039,12.145,-169.925,-117.915
41065890,-1.069,1.989,-0.438,16.94,-142.17,-43.032
41065900,-1.283,-0.216,1.89,-151.287,-61.057,93.502
41065910,-1.679,-1.998,-0.494,-93.957,208.845,468.737
41065920,1.544,-0.072,-1.323,291.462,-27.965,216.93
41065930,-1.03,1.997,1.94,390.04,103.827,122.762
41065940,-1.587,-0.595,1.128,203.805,-22.715,136.92
41065950,0.625,-1.826,1.001,234.885,-27.527,60.147
41065960,-1.738,1.321,1.908,343.017,-28.735,-168.227
41065970,0.302,0.164,1.755,166.18,-46.2,-208.81
41065980,0.633,0.051,1.694,70.157,-32.83,-228.62
41065990,1.081,0.357,1.575,-13.86,-13.37,-192.307
41066000,0.88,-0.282,1.444,-127.732,14.822,-123.06
41066010,0.447,0.026,1.388,-177.52,42.192,-77.14
41066020,0.472,-0.011,1.336,-218.89,43.172,-50.68
41066030,0.527,-0.313,1.161,-267.137,36.137,-40.88
41066040,0.484,-0.717,1.12,-291.917,23.73,-57.68
41066050,0.326,-0.374,0.985,-272.177,4.06,-76.807
41066060,0.28,-0.48,1.003,-301.542,-0.98,-81.41
41066070,0.035,-1.014,0.871,-324.362,26.74,-70.157
41066080,0.253,-1.196,0.732,-313.005,77.472,-41.44
41066090,0.562,-1.265,0.408,-302.942,153.422,0.577
41066100,1.037,-1.683,0.609,-296.117,205.012,-14.315
41066110,0.895,-1.853,1.012,-274.557,213.097,-101.692
41066120,1.81,-1.741,0.78,-206.342,315.192,-101.08
41066130,1.148,-1.898,0.489,-64.855,345.817,-157.552
41066140,-0.608,-1.698,0.122,81.235,283.902,-282.1
41066150,-1.697,-1.018,0.063,172.217,211.295,-323.662
41066160,-1.998,-0.514,0.001,236.407,126.91,-299.075
41066170,-1.893,-0.333,-0.311,277.497,53.952,-234.255
41066170,-1.55,-0.265,-0.84,289.992,-2.782,-136.78
41066190,-1.186,-0.086,-1.418,290.587,-11.462,-26.845
41066190,-0.637,0.23,-1.552,274.487,22.102,79.642
41066210,-0.303,0.385,-1.061,219.152,49.192,186.497
41066210,-0.382,0.136,-0.453,108.675,26.512,276.097
41066230,-0.626,-0.529,-0.209,-2.117,-47.547,331.362
41066230,-0.17,-1.216,-0.282,-52.972,-129.5,364.647
41066250,0.802,-1.488,-0.437,-44.765,-174.177,387.59
41066250,1.624,-1.377,-0.579,-20.965,-179.602,386.767
41066260,1.881,-1.109,-0.526,-32.165,-150.062,356.282
41066270,1.446,-1.035,-0.045,-84.91,-126.245,288.557
41066280,0.813,-1.268,0.266,-148.82,-143.832,189.385
41066290,0.61,-0.995,0.186,-154.822,-179.287,97.107
41066300,0.521,0.293,-0.369,-119.595,-200.007,4.095
41066310,1.883,0.489,1.998,135.905,-115.57,-66.885
41066320,-0.53,-1.709,0.731,249.182,246.61,94.815
41066330,-0.473,-1.998,-1.324,409.815,-150.01,64.662
41066340,0.47,0.176,1.678,497.805,23.59,-15.312
41066350,-1.834,1.82,1.998,505.417,-23.975,-88.48
41066360,0.833,-1.527,1.596,235.357,-83.93,-79.485
41066370,-0.13,1.565,1.967,240.152,-58.852,-131.582
41066380,0.649,0.64,1.844,22.19,-45.097,-90.247
41066390,-0.106,0.21,1.519,-122.902,-10.92,-77.612
41066400,0.065,-0.916,0.69,-178.115,0.07,-77.227
41066410,0.437,-0.892,0.473,-152.705,12.302,-82.18
41066420,0.623,-0.333,0.923,-122.57,32.462,-72.52
41066430,0.666,-0.278,0.987,-135.625,41.177,-28.577
41066440,0.571,-0.316,0.88,-146.055,37.852,21.595
41066450,0.483,-0.451,0.888,-151.182,42.805,57.33
41066460,0.243,-0.596,0.99,-159.88,52.657,68.355
41066470,0.17,-0.727,0.965,-170.677,59.027,56.017
41066480,-0.224,-0.518,1.137,-171.535,67.007,40.39
41066490,-0.73,-0.328,1.169,-200.795,56.017,9.992
41066500,-0.856,-0.474,1.026,-234.78,28.315,-22.365
41066510,-0.294,-0.981,0.978,-272.23,17.15,-39.165
41066510,0.319,-1.339,0.91,-287.647,52.885,-34.982
41066530,0.195,-1.378,0.938,-287.35,127.47,-22.767
41066530,-0.259,-1.962,1.047,-280.717,209.02,-4.48
41066550,0,-1.975,1.202,-241.15,187.985,-46.025
41066550,0.683,-1.998,0.671,-159.32,151.882,-69.65
41066570,0.439,-1.995,0.196,-9.152,126.192,-90.195
41066570,-0.535,-1.682,-0.309,157.027,74.76,-156.887
41066580,-0.958,-0.718,-0.445,254.222,28.28,-155.137
41066590,-0.879,-0.197,-0.442,300.23,-23.625,-109.235
41066600,-0.507,-0.038,-0.491,296.257,-61.67,-32.27
41066610,-0.319,-0.029,-0.584,257.652,-88.48,47.6
41066620,-0.35,-0.056,-0.616,204.557,-107.222,96.425
41066630,-0.412,-0.015,-0.539,141.575,-129.99,118.125
41066640,-0.394,-0.071,-0.38,92.96,-140.735,145.687
41066650,-0.205,-0.154,-0.272,59.027,-135.17,179.69
41066660,-0.071,-0.187,-0.12,32.322,-131.337,204.172
41066670,0.023,-0.195,0.077,8.295,-137.217,208.022
41066680,0.306,-0.174,0.181,-16.03,-145.425,201.827
41066690,0.672,-0.129,0.244,-31.745,-148.26,185.832
41066700,0.956,-0.074,0.268,-43.137,-140.175,150.115
41066710,0.984,-0.02,0.205,-51.52,-121.082,101.097
41066720,0.639,0.059,0.031,-50.697,-106.82,37.415
41066730,0.227,0.243,-0.38,-39.357,-110.425,-29.33
41066740,0.038,0.945,-0.904,-22.207,-104.632,-69.702
41066750,0.15,1.311,-1.06,-38.99,-86.047,-100.205
41066760,1.433,-1.502,1.94,-32.882,78.837,-26.25
41066770,-1.892,-1.998,-1.437,140.192,105.822,323.032
41066780,1.757,1.036,0.121,552.055,-38.29,-110.092
41066790,-1.732,1.997,1.998,518.84,166.442,18.007
41066800,-0.18,-1.315,1.31,138.652,-46.83,10.027
41066810,-0.189,0.058,1.677,262.307,-45.622,-60.182
41066820,0.072,1.627,1.951,225.505,-34.457,-88.69
41066830,0.419,-0.155,1.571,-102.882,-23.082,-41.86
41066840,-0.278,0.036,1.462,-145.46,11.935,-60.48
41066850,-0.076,-1.32,0.38,-206.132,5.46,-64.662
41066860,0.348,-0.817,0.499,-133.77,11.882,-74.707
41066870,0.529,-0.371,0.856,-97.982,23.362,-57.96
41066880,0.587,-0.373,0.913,-110.495,30.485,-20.23
41066890,0.482,-0.332,0.943,-115.412,37.222,15.942
41066900,0.322,-0.389,0.997,-122.815,48.317,40.652
41066910,0.196,-0.5,1.018,-141.085,58.712,46.987
41066920,0.106,-0.594,0.991,-159.67,65.992,38.57
41066920,-0.144,-0.585,0.949,-176.452,75.25,21.105
41066930,-0.623,-0.571,0.948,-197.417,69.93,-3.15
41066940,-0.44,-0.575,0.995,-215.407,64.662,-24.78
41066950,0.055,-0.804,1.005,-244.387,83.055,-27.965
41066960,0.104,-0.984,0.865,-254.712,104.737,-34.265
41066970,0.294,-1.079,0.497,-248.115,141.26,-33.95
41066980,0.316,-1.188,0.564,-243.04,203.542,-29.505
41066990,-0.085,-1.424,0.732,-219.992,231.56,-22.75
41067000,0.445,-1.895,0.993,-215.022,202.002,-25.48
41067010,1.434,-1.773,0.956,-162.487,190.452,-37.852
41067020,1.214,-1.807,0.574,-52.657,199.43,-110.81
41067030,-0.064,-1.769,0.333,89.39,140.56,-227.902
41067040,-0.769,-1.2,0.258,184.555,70.507,-289.975
41067050,-0.82,-0.895,-0.113,242.532,19.232,-288.435
41067060,-1.127,-0.622,-0.429,293.23,-39.41,-260.015
41067070,-1.268,-0.249,-0.531,317.572,-86.362,-239.662
41067080,-0.826,0.026,-0.75,297.097,-86.362,-206.85
41067090,-0.388,0.355,-0.819,253.995,-58.17,-135.432
41067100,-0.529,0.552,-0.744,206.57,-30.31,-44.8
41067110,-0.701,0.561,-0.612,149.747,-10.097,32.095
41067120,-0.743,0.396,-0.408,81.952,-7.385,102.69
41067130,-0.576,0.181,-0.057,4.935,-19.162,167.002
41067140,-0.451,-0.207,0.149,-61.897,-31.15,221.602
41067150,-0.488,-0.546,0.165,-87.867,-40.39,262.377
41067160,-0.249,-0.533,0.142,-85.19,-47.88,290.622
41067170,0.487,-0.478,0.097,-100.73,-21.857,314.79
41067180,0.451,-1.016,-0.199,-141.505,-2.922,285.18
41067190,1.824,-1.998,1.959,-23.187,-7.525,160.037
41067200,0.066,-1.998,0.465,118.615,-25.252,52.5
41067210,-1.998,0.692,-1.201,470.102,-265.02,-28.28
41067220,0.358,-0.296,1.708,273.962,-5.827,27.877
41067230,-0.062,-1.584,0.562,175.77,-55.352,-29.295
41067240,-1.24,1.436,1.849,347.97,-41.982,-97.475
41067250,0.152,-0.594,1.614,201.67,-62.282,-112.612
41067260,0.398,0.447,1.774,144.602,-63.542,-114.45
41067260,0.5,0.541,1.674,59.797,-51.887,-76.387
41067280,0.449,-0.233,1.261,-44.677,-38.08,-33.722
41067280,0.261,-0.245,1.149,-80.465,-24.587,-10.92
41067300,0.313,-0.4,1.076,-103.582,-19.582,6.772
41067300,0.283,-0.415,1.114,-118.86,-8.82,16.03
41067320,0.202,-0.36,1.155,-132.895,2.922,20.492
41067320,0.377,-0.413,1.138,-154.49,20.51,21.14
41067330,0.54,-0.531,1,-180.407,53.095,22.522
41067340,0.602,-0.572,0.976,-199.675,95.795,24.377
41067350,0.317,-0.467,1.043,-212.03,124.32,20.527
41067360,-0.301,-0.396,0.758,-217.052,130.287,14.105
41067370,-0.602,-0.644,1.109,-233.992,127.54,0.595
41067380,-0.085,-1.446,1.211,-271.547,138.057,15.085
41067390,0.068,-1.896,1.258,-242.62,152.11,42.105
41067400,0.88,-1.998,1.593,-201.425,96.285,-22.89
41067410,1.741,-1.998,0.805,-70.035,13.86,-124.215
41067420,1.619,-1.677,0.117,150.552,37.135,-189.122
41067430,-0.181,-0.824,-0.258,286.02,37.607,-257.11
41067440,-1.12,-0.289,-0.355,277.095,-17.64,-300.02
41067450,-1.46,-0.149,-0.459,231.56,-84.647,-273.367
41067460,-1.5,-0.186,-0.641,200.55,-140.612,-211.067
41067470,-0.867,-0.048,-0.767,159.81,-136.272,-139.79
41067480,-0.217,-0.022,-0.492,123.165,-79.485,-37.957
41067490,-0.965,-0.334,-0.235,97.125,-50.54,59.622
41067500,-1.668,-0.677,-0.159,89.407,-68.792,103.67
41067510,-1.489,-0.607,-0.209,86.782,-103.127,149.187
41067520,-0.925,-0.325,-0.264,69.86,-119.612,222.477
41067530,-0.504,-0.202,-0.382,35.157,-104.597,296.152
41067540,-0.386,-0.207,-0.477,-3.937,-82.145,346.342
41067550,-0.32,-0.149,-0.395,-44.747,-62.755,368.672
41067560,-0.041,-0.1,-0.222,-89.285,-43.277,375.497
41067570,0.721,-0.11,-0.273,-136.762,-0.28,369.197
41067580,0.98,0.046,-0.453,-168.997,57.872,331.45
41067580,0.268,0.031,0.239,-189.665,67.725,218.697
41067600,1.77,-1.998,0.503,-225.155,37.24,-33.337
41067600,-1.91,-0.322,-0.269,414.137,-0.63,-104.93
41067620,0.007,1.236,1.574,404.862,-52.78,-77.56
41067620,0.9,-1.211,1.139,216.44,-106.715,-90.632
41067640,-0.583,1.105,1.955,312.742,-75.932,-136.517
41067640,1.285,0.148,1.645,143.552,-70.49,-84.052
41067660,0.359,0.904,1.667,60.06,-26.372,-38.622
41067660,0.15,-0.367,1.169,-57.872,3.342,-0.472
41067670,-0.073,-0.459,1.05,-88.445,27.247,-10.272
41067680,0.071,-0.455,1.039,-106.907,41.387,-27.72
41067690,0.181,-0.379,1.198,-120.295,58.205,-35.332
41067700,0.21,-0.219,1.294,-150.622,75.18,-34.702
41067710,0.315,-0.325,1.195,-194.582,90.755,-28.07
41067720,0.375,-0.428,1.01,-229.32,119.717,-23.257
41067730,0.332,-0.385,0.875,-254.117,156.03,-28.857
41067740,-0.51,-0.672,0.756,-279.16,166.425,-47.04
41067750,-0.739,-0.753,0.801,-272.265,132.79,-69.965
41067760,0.255,-0.764,0.915,-300.282,130.865,-69.44
41067770,0.833,-1.447,0.516,-324.8,171.045,-49.91
41067780,0.948,-1.721,0.318,-318.342,247.747,-46.182
41067790,0.876,-1.983,0.953,-330.592,273.752,-55.142
41067800,1.712,-1.998,0.849,-301.7,308.805,-37.712
41067810,1.576,-1.985,0.951,-157.797,330.907,-99.4
41067820,-0.364,-1.998,0.653,-2.257,217.875,-235.935
41067830,-1.845,-1.924,0.445,137.76,47.145,-304.36
41067840,-1.998,-1.362,-0.088,243.967,-101.027,-333.602
41067850,-1.945,-0.77,-0.55,305.48,-211.662,-343.647
41067860,-1.357,-0.16,-0.686,324.397,-257.075,-313.215
41067870,-0.545,0.265,-0.812,313.827,-214.585,-220.745
41067880,-0.442,0.411,-1.003,281.05,-117.022,-72.782
41067890,-0.957,0.422,-0.927,243.53,-43.872,55.947
41067900,-1.285,0.464,-0.688,193.48,-27.58,151.9
41067910,-1.317,0.424,-0.545,115.412,-63.262,235.41
41067920,-0.691,0.295,-0.514,25.882,-96.985,311.517
41067930,0.314,0.089,-0.397,-39.847,-89.897,367.202
41067940,1.087,0.02,-0.124,-77.98,-61.652,383.635
41067950,1.641,0.025,0.311,-117.95,-31.587,345.572
41067960,1.871,0.079,0.595,-154.28,-40.95,231.91
41067970,1.824,0.307,0.465,-146.842,-40.81,95.707
41067980,1.095,0.658,0.446,-100.59,-31.675,-26.407
41067990,0.947,0.557,-0.402,-59.587,-30.397,-154.857
41068000,-1.942,-1.555,1.843,153.195,40.355,-48.65
41068010,-1.31,-1.998,-1.626,79.572,-62.947,246.522
41068010,1.784,1.517,0.995,554.277,-58.1,118.912
41068030,-1.995,1.997,1.702,505.452,14.122,75.705
41068030,0.155,-0.713,1.416,225.995,-83.107,0.472
41068050,-0.893,-0.697,1.194,266.35,-73.412,-71.347
41068050,0.357,1.693,1.991,308.56,-74.077,-139.562
41068070,1.021,-0.296,1.532,4.742,-59.535,-83.947
41068070,0.285,0.806,1.804,-51.292,-10.412,-55.825
41068080,0.169,-0.444,1.216,-172.165,4.375,-23.52
41068090,0.171,-0.342,1.065,-190.557,15.505,-25.34
41068100,0.269,-0.469,1.022,-204.872,25.077,-22.33
41068110,0.257,-0.436,1.114,-216.282,33.512,-14.56
41068120,0.165,-0.385,1.071,-226.415,35.315,-5.18
41068130,0.243,-0.612,0.867,-233.625,31.482,3.36
41068140,0.161,-0.568,0.867,-236.057,37.292,9.625
41068150,-0.343,-0.529,0.95,-254.852,25.882,-3.552
41068160,-0.643,-0.649,0.996,-275.065,-8.872,-32.777
41068170,-0.292,-0.879,0.907,-294.735,-30.712,-55.51
41068180,0.442,-1.199,0.813,-303.555,1.995,-46.952
41068190,0.778,-1.453,0.521,-302.47,81.707,-20.807
41068200,1.297,-1.998,0.879,-309.627,124.04,-23.66
41068210,-0.681,-1.319,0.389,-225.12,114.17,-105.245
41068220,-0.778,-0.798,0.812,-116.567,99.96,-99.855
41068230,0.626,-1.478,0.367,-123.235,48.58,-33.022
41068240,0.719,-1.422,0.553,6.667,-19.635,-130.55
41068250,-1.039,-1.059,0.461,122.482,-66.727,-221.655
41068260,-1.986,-0.445,0.525,164.027,-113.995,-237.842
41068270,-1.768,-0.184,0.27,194.425,-135.59,-177.31
41068280,-1.497,0.023,-0.141,225.627,-135.782,-57.277
41068290,-1.391,0.185,-0.22,244.737,-121.012,57.732
41068300,-1.152,0.285,-0.448,238.542,-112.21,155.347
41068310,-0.798,0.347,-0.664,211.19,-96.985,236.197
41068320,-0.415,0.315,-0.596,148.067,-74.515,291.672
41068330,0.064,0.032,-0.425,69.895,-43.575,318.885
41068330,0.609,-0.28,-0.265,4.34,-3.307,309.767
41068350,1.04,-0.25,-0.223,-27.72,34.212,269.447
41068350,0.995,0.029,-0.226,-39.847,61.32,210.385
41068370,0.716,0.482,-0.073,-76.002,53.41,122.815
41068370,0.68,0.099,-0.29,-76.755,40.39,23.17
41068390,-0.265,-0.344,0.042,83.545,12.005,-77.752
41068390,1.344,-1.998,1.275,11.777,-65.712,-141.54
41068410,-0.148,-1.07,-1.602,138.705,7.42,-41.405
41068410,1.712,1.997,1.969,546.507,196.21,22.662
41068420,-1.975,0.558,1.393,209.265,44.87,229.11
41068430,0.822,-1.998,0.242,-93.327,-106.172,253.54
41068440,-1.487,0.983,1.75,229.39,-25.375,177.73
41068450,-1.163,0.223,1.798,53.095,-10.832,56.437
41068460,-0.724,-0.774,1.523,-94.237,11.655,-48.562
41068470,-0.52,-0.161,1.373,-104.475,29.365,-102.06
41068480,-0.151,-0.826,0.836,-170.8,35.157,-141.05
41068490,-0.165,-0.678,0.77,-186.497,53.83,-159.18
41068500,0.088,-0.187,1.076,-206.15,61.53,-161.017
41068510,0.727,0.023,0.479,-259.42,70.822,-157.027
41068520,0.162,-1.14,0.909,-324.765,72.87,-161.717
41068530,-0.218,-0.945,0.903,-337.557,88.777,-154.577
41068540,0.865,-1.382,0.844,-351.75,134.96,-135.17
41068550,1.169,-1.943,1.244,-357.805,234.062,-67.13
41068560,0.62,-1.967,0.813,-323.61,329.612,-6.002
41068570,-0.714,-1.432,0.469,-255.447,315.157,-3.36
41068580,-0.586,-0.941,1.012,-176.592,233.555,-56.175
41068590,-0.51,-1.48,0.928,-118.807,116.672,-72.397
41068600,0.155,-1.542,0.689,-11.34,13.755,-136.587
41068610,-0.104,-1.213,0.571,130.567,-46.637,-231
41068620,-0.955,-0.666,0.578,218.855,-69.177,-253.242
41068630,-1.437,-0.29,0.497,259.472,-91.105,-243.74
41068640,-1.559,-0.215,0.277,295.102,-114.432,-198.065
41068650,-1.387,-0.113,-0.038,329.402,-127.505,-128.59
41068660,-1.213,0.011,-0.29,361.112,-115.605,-46.847
41068670,-1.173,0.145,-0.624,383.967,-93.765,37.94
41068680,-1.077,0.473,-0.78,380.03,-81.305,117.46
41068690,-1.145,0.671,-0.937,331.625,-100.065,189.052
41068700,-1.088,0.652,-0.982,237.895,-133.105,253.312
41068710,-0.677,0.331,-0.815,109.637,-145.635,317.957
41068720,-0.086,-0.12,-0.576,9.187,-143.342,336.577
41068730,0.496,-0.368,-0.681,-25.515,-119.315,319.532
41068740,1.287,0.096,-0.726,-12.985,-51.817,272.702
41068750,1.557,0.615,-0.438,-29.277,12.775,185.132
41068760,1.165,-0.052,-0.56,-140.962,58.082,38.762
41068760,1.772,-1.974,1.47,-119.805,129.255,-133.63
41068780,-1.139,-1.743,-1.613,91.927,148.085,-42.35
41068780,1.17,1.997,1.36,557.06,201.775,-86.835
41068800,-1.773,1.034,1.826,306.635,35.665,160.51
41068800,1.56,-1.967,-0.005,-149.625,-98.35,146.055
41068820,-1.879,1.74,1.93,352.852,1.872,110.775
41068820,-0.57,-0.547,1.442,-8.907,-12.74,58.835
41068830,-0.295,1.484,1.928,-95.427,12.932,-44.922
41068840,0.235,-0.712,1.144,-258.037,12.74,-58.922
41068850,-0.006,-0.798,0.689,-260.33,16.87,-45.745
41068860,-0.095,-0.793,0.614,-238,17.465,-32.69
41068870,-0.155,-1.016,0.544,-227.885,16.975,-44.467
41068880,-0.084,-0.922,0.565,-195.317,27.405,-58.502
41068890,0.017,-0.548,0.676,-172.077,44.8,-69.247
41068900,-0.042,-0.383,0.854,-193.2,46.847,-78.207
41068910,0.051,-0.301,0.886,-238.857,41.86,-78.837
41068920,0.356,-0.831,0.737,-293.492,53.882,-84.542
41068930,0.113,-1.32,0.874,-315.07,81.655,-66.115
41068940,0.601,-1.426,0.654,-311.307,132.23,-45.745
41068950,0.422,-1.69,0.836,-305.637,220.412,-11.515
41068960,0.004,-1.549,0.596,-271.145,265.65,-2.082
41068970,-0.208,-1.201,0.329,-215.652,227.132,-30.1
41068980,-0.095,-0.978,0.903,-160.02,153.107,-62.247
41068990,0.787,-1.054,0.646,-102.34,93.817,-54.915
41069000,1.494,-1.355,1.033,-34.86,62.02,-113.12
41069010,-0.258,-1.244,1.187,56.105,24.115,-209.667
41069020,-1.165,-0.683,1.265,151.567,-51.362,-252.542
41069030,-1.395,-0.277,1.15,209.037,-127.19,-229.372
41069040,-1.224,-0.153,0.649,257.95,-157.622,-167.79
41069050,-1.07,0.087,-0.114,325.342,-147.472,-105.682
41069060,-1.017,0.65,-0.835,399.297,-96.022,-45.64
41069070,-1.178,1.3,-1.093,429.205,-47.302,28.227
41069080,-1.514,1.384,-0.665,362.477,-63.07,107.712
41069080,-1.83,0.813,-0.325,197.645,-147.402,196.927
41069100,-0.871,-0.025,-0.509,50.33,-215.635,307.685
41069100,0.557,-0.684,-0.818,18.865,-228.112,365.085
41069120,1.375,-0.608,-0.51,32.147,-207.865,331.065
41069120,1.098,-0.249,-0.368,24.902,-187.057,254.887
41069140,0.623,-0.543,0.155,20.772,-159.757,157.797
41069140,1.621,-1.998,0.562,-58.922,108.64,210.455
41069160,-1.379,-1.853,-0.319,201.39,-70.07,361.13
41069160,0.796,1.962,1.139,540.96,43.452,-61.425
41069170,-1.866,1.536,1.998,362.005,19.512,68.81
41069180,-0.193,-1.998,0.164,-6.107,-55.405,14.84
41069190,-0.505,0.689,1.682,329.105,-36.802,-109.2
41069200,0.445,0.775,1.632,186.2,-57.33,-126.822
41069210,0.737,0.566,1.417,9.747,-29.505,-81.235
41069220,0.01,-0.222,1.146,-55.755,14.472,-49.07
41069230,-0.17,-0.832,0.805,-91.647,32.357,-58.992
41069240,0.117,-0.468,0.967,-75.687,48.125,-89.075
41069250,0.303,-0.397,1.142,-91.927,59.535,-88.147
41069260,0.35,-0.198,1.264,-117.985,68.232,-75.967
41069270,0.394,-0.232,1.271,-156.45,72.222,-54.127
41069280,0.296,-0.324,1.141,-190.837,79.24,-30.87
41069290,0.207,-0.438,0.996,-222.075,89.6,-17.5
41069300,0.031,-0.401,1.099,-253.47,107.712,-22.102
41069310,-0.229,-0.51,1.055,-299.425,126.857,-44.45
41069320,-0.347,-0.849,0.968,-335.16,132.562,-76.545
41069330,-0.167,-1.306,1.032,-353.185,123.865,-98.28
41069340,0.24,-1.523,0.779,-339.955,149.625,-99.137
41069350,0.689,-1.953,0.796,-322.647,214.602,-77.577
41069360,1.347,-1.998,1.334,-305.147,232.575,-65.625
41069370,1.983,-1.998,0.559,-185.535,189.875,-133.56
41069380,0.684,-1.679,0.192,52.622,125.965,-263.305
41069390,-1.126,-0.578,-0.007,181.86,36.295,-323.907
41069400,-1.724,0.262,0.01,176.225,-61.145,-322.875
41069410,-1.304,0.631,0.087,114.415,-111.055,-252.717
41069420,-0.942,0.469,-0.021,44.222,-118.37,-137.147
41069430,-0.817,0.205,-0.159,10.412,-97.93,-31.867
41069440,-0.777,0.265,-0.244,20.317,-64.61,38.832
41069450,-0.725,0.506,-0.205,44.222,-44.432,77.98
41069460,-0.449,0.648,-0.132,36.312,-35.437,104.125
41069470,-0.162,0.649,0.023,0.315,-25.865,131.425
41069480,0.018,0.548,0.154,-36.995,-16.362,145.372
41069490,0.097,0.437,0.238,-55.685,-4.69,145.897
41069500,0.251,0.536,0.336,-55.597,6.422,130.41
41069510,0.212,0.743,0.429,-20.51,15.89,114.257
41069510,0.496,0.474,0.203,37.835,25.322,73.552
41069530,-1.547,0.638,-0.7,226.502,-119.542,14.56
41069530,1.621,-1.998,0.468,-113.312,-49.84,237.23
41069550,1.473,-0.965,-1.997,246.837,78.295,247.607
41069550,0.198,1.997,1.37,567.665,-20.405,94.587
41069560,-1.998,0.472,-0.126,348.67,58.695,56.98
41069570,-1.213,-1.998,0.371,20.877,-150.657,81.235
41069580,1.162,-0.038,1.06,467.897,-126.63,-34.51
41069590,-1.663,1.997,1.998,503.142,-103.81,-198.537
41069600,1.122,0.596,0.92,164.867,-133.017,-109.672
41069610,-0.364,-0.248,1.687,32.952,-46.252,13.877
41069620,-0.931,0.768,1.765,28.262,-38.08,-23.362
41069630,0.766,-0.524,1.24,-144.795,-37.257,-32.392
41069640,-0.081,-0.166,1.268,-157.272,5.162,-61.897
41069650,0.362,-0.504,0.967,-198.992,20.737,-55.562
41069660,0.359,-0.503,1.017,-205.047,53.427,-62.72
41069670,0.254,-0.515,0.949,-223.072,82.372,-72.432
41069680,0.327,-0.567,0.725,-244.142,116.427,-65.327
41069690,0.302,-0.492,0.748,-245.665,130.48,-61.967
41069700,0.539,-0.419,0.883,-270.147,136.027,-65.537
41069710,0.233,-0.951,0.891,-296.03,120.312,-70.227
41069720,-0.206,-1.028,1.091,-248.43,100.397,-62.422
41069730,-0.025,-1.014,1.043,-228.445,84.07,-45.605
41069740,0.189,-1.219,0.942,-223.23,105.087,-8.032
41069750,0.124,-1.286,1.039,-187.582,135.187,11.742
41069760,1.175,-1.7,1.369,-147.875,116.777,-20.23
41069770,1.898,-1.92,0.724,-26.705,141.505,-35.787
41069780,1.01,-1.46,0.541,144.182,181.09,-102.812
41069790,-0.145,-1.102,0.06,234.29,183.05,-181.982
41069800,-0.971,-0.787,-0.396,260.452,136.412,-193.637
41069810,-1.306,-0.355,-0.725,271.617,56.332,-166.81
41069820,-1.02,0.129,-1.041,268.8,-27.667,-129.395
41069830,-0.386,0.493,-1.202,219.485,-85.452,-78.995
41069830,-0.12,0.476,-1.191,129.482,-110.425,0.28
41069850,-0.338,0.227,-0.828,30.782,-117.547,108.587
41069850,-0.697,-0.139,-0.463,-75.862,-130.585,214.252
41069870,-0.824,-0.636,-0.244,-157.027,-167.352,295.925
41069870,-0.685,-1.161,-0.219,-184.765,-223.107,339.325
41069890,-0.349,-1.015,-0.378,-175.017,-274.365,344.522
41069890,0.216,-0.975,-0.559,-119.49,-287.07,353.57
41069910,1.135,-0.858,-0.183,-49.385,-247.397,308.175
41069910,1.998,-1.415,1.997,-2.765,1.855,263.637
41069920,-0.198,-1.998,0.366,161.472,325.237,220.132
41069930,-1.998,-0.441,-0.509,492.467,-119.507,-6.895
41069940,0.94,-0.438,1.153,302.54,-246.907,30.607
41069950,-0.003,-1.311,0.829,301.91,-163.66,-87.185
41069960,-1.309,1.002,1.838,389.007,-90.982,-232.277
41069970,0.831,-0.407,1.716,183.732,-78.802,-247.73
41069980,0.859,1.304,1.896,140.49,-37.135,-246.977
41069990,0.998,0.222,1.431,-3.412,-1.382,-172.655
41070000,0.703,-0.083,1.231,-76.44,25.882,-97.142
41070010,0.539,-0.292,1.077,-118.72,39.27,-51.905
41070020,0.541,-0.377,1.093,-143.552,54.285,-20.702
41070030,0.326,-0.337,1.141,-160.667,73.22,7.175
41070040,0.493,-0.317,1.122,-180.04,89.372,23.87
41070050,0.447,-0.346,1.049,-196.717,109.2,37.782
41070060,0.518,-0.425,1.006,-218.505,127.347,43.295
41070070,0.112,-0.69,1.085,-243.197,145.302,64.225
41070080,-0.502,-1.024,0.842,-244.335,119.017,61.617
41070090,-0.308,-1.26,0.223,-221.392,97.107,37.677
41070100,0.471,-1.763,0.447,-231.42,99.277,53.427
41070110,1.43,-1.998,1.148,-278.022,54.232,52.972
41070120,1.786,-1.998,0.544,-193.952,-0.98,-58.607
41070130,0.415,-1.972,0.073,47.95,-39.865,-221.042
41070140,-0.767,-1.499,-0.2,158.987,-53.952,-260.067
41070150,-1.637,-1.169,-0.567,152.81,-89.705,-227.272
41070160,-1.714,-0.731,-0.66,152.477,-155.855,-196.997
41070170,-1.51,-0.359,-0.509,145.757,-209.58,-152.425
41070180,-1.42,-0.122,-0.628,128.8,-231.332,-77.227
41070190,-1.305,0.175,-0.813,115.447,-239.557,30.922
41070200,-1.003,0.467,-0.903,85.522,-217.647,161.28
41070210,-0.74,0.565,-0.754,21.56,-183.505,294.892
41070210,-0.303,0.192,-0.741,-61.215,-159.407,389.795
41070230,0.21,-0.252,-0.82,-111.265,-134.382,420.84
41070230,0.978,0.002,-0.855,-114.17,-91.28,401.205
41070250,1.478,0.785,-0.693,-134.925,-17.85,358.487
41070250,1.266,0.999,-0.469,-233.117,12.145,239.032
41070260,1.458,0.162,0.711,-215.46,2.24,-6.002
41070270,0.649,-1.998,1.4,-9.222,380.905,58.747
41070280,-1.998,-1.722,-1.924,414.82,-46.76,-16.905
41070290,1.339,1.879,1.813,517.825,-52.78,-83.457
41070300,0.885,1.371,1.704,417.812,-1.067,-54.67
41070310,-1.389,-0.55,1.77,305.847,-57.96,-144.252
41070320,1.13,0.049,1.743,245.28,-40.372,-134.872
41070330,0.006,1.243,1.978,161.7,-28.91,-118.125
41070340,0.537,-0.064,1.609,-22.435,-23.292,-53.077
41070350,0.268,-0.18,1.322,-97.79,-10.99,-20.44
41070360,0.194,-0.301,1.054,-138.74,1.365,0.49
41070370,0.216,-0.642,0.951,-174.072,21.63,-1.347
41070380,0.076,-0.518,1.077,-180.862,50.19,-12.162
41070390,0.12,-0.583,0.883,-199.99,74.585,-21.262
41070400,0.077,-0.487,0.844,-202.51,96.53,-25.672
41070410,0.255,-0.447,0.854,-230.93,105.035,-45.902
41070420,-0.067,-0.57,0.903,-263.935,99.155,-63.332
41070430,-0.167,-0.831,0.771,-280.945,88.62,-66.937
41070440,0.138,-1.224,0.656,-286.125,105.42,-48.055
41070450,0.604,-1.877,0.631,-292.687,153.212,-24.412
41070460,0.512,-1.709,0.813,-254.992,229.95,-28.402
41070470,0.341,-1.998,1.097,-213.202,262.675,-51.922
41070480,1.921,-1.998,0.689,-140.577,257.827,-87.78
41070490,1.385,-1.998,0.102,62.615,257.477,-225.015
41070500,-0.646,-1.667,-0.008,226.292,201.057,-307.685
41070510,-1.417,-0.935,-0.269,287.77,105.84,-317.975
41070520,-1.61,-0.619,-0.621,295.435,6.632,-291.165
41070530,-1.303,-0.333,-0.895,279.3,-69.772,-240.1
41070540,-0.798,-0.045,-1.23,244.615,-100.327,-179.9
41070550,-0.292,0.182,-1.495,197.977,-63.105,-114.572
41070560,-0.119,0.395,-1.169,142.327,-1.82,-43.68
41070570,-0.443,0.294,-0.526,56.052,35.192,18.585
41070580,-0.822,-0.1,0.023,-51.835,26.862,67.847
41070580,-0.792,-0.453,0.278,-129.5,-11.375,112.91
41070600,-0.381,-0.541,0.293,-144.795,-54.652,149.94
41070600,0.126,-0.298,0.178,-130.2,-82.075,169.33
41070620,0.747,0.106,-0.113,-128.975,-84.227,173.705
41070620,0.873,0.22,-0.145,-102.217,-76.842,161.822
41070640,0.944,1.185,-0.242,-6.107,-96.6,88.97
41070640,1.998,-0.289,1.865,-10.29,-36.872,36.4
41070660,-0.337,-1.998,0.374,10.342,355.6,240.345
41070660,-1.117,-1.645,-1.997,380.432,-233.677,171.972
41070670,1.183,1.95,1.336,505.207,27.877,66.027
41070680,-1.998,0.944,1.912,326.97,-15.225,50.855
41070690,-0.551,-1.867,1.155,125.615,-72.047,-10.972
41070700,-0.043,0.068,1.798,220.08,-31.85,-93.205
41070710,-0.289,0.91,1.885,108.92,-19.425,-137.97
41070720,0.307,-0.428,1.498,-66.447,-17.412,-109.217
41070730,0.282,-0.09,1.283,-96.197,-12.88,-87.552
41070740,0.284,-0.47,0.971,-145.407,-9.345,-62.93
41070750,0.431,-0.752,0.854,-161.98,-0.105,-48.912
41070760,0.345,-0.524,1.066,-145.372,17.15,-32.217
41070770,0.185,-0.413,1.034,-155.872,6.877,-21.245
41070780,0.221,-0.469,0.958,-172.83,-12.145,-13.107
41070790,0.425,-0.606,0.782,-191.572,-18.13,-4.025
41070800,0.159,-0.613,0.829,-194.022,-21.857,3.202
41070810,-0.204,-0.611,0.813,-192.657,-30.03,10.657
41070820,-0.382,-0.916,0.861,-194.985,-36.785,17.867
41070830,-0.465,-1.282,1.113,-192.972,-55.72,21.262
41070840,-0.291,-1.362,1.141,-177.677,-78.872,25.62
41070850,-0.156,-1.279,1.417,-151.515,-111.177,30.59
41070860,0.822,-1.717,1.403,-153.86,-186.2,7.945
41070870,0.344,-1.921,0.677,-76.352,-235.952,-44.362
41070880,0.927,-1.786,0.576,80.78,-167.072,-44.835
41070890,-0.856,-1.099,0.063,247.712,-145.53,-36.347
41070900,-1.998,-0.572,-0.302,306.495,-234.132,-99.452
41070910,-1.925,-0.105,-0.397,290.5,-285.635,-82.845
41070920,-1.641,0.043,-0.735,263.69,-290.937,37.03
