time[ms],accX[g],accY[g],accZ[g],Value 1,Value 2,Value 3
43395870,0.4,-0.915,1.077,-189.437,-73.605,16.52
43395880,0.635,-0.673,0.663,-191.1,-56.49,41.387
43395890,0.086,-1.264,0.324,-144.585,-16.012,76.212
43395900,-0.057,-1.198,0.374,-66.447,-15.697,85.155
43395910,-0.395,-0.378,0.661,-18.182,-30.905,99.155
43395920,-0.585,-0.02,1.059,7.262,-33.687,73.36
43395930,-0.385,0.168,1.38,-7.052,-27.282,21.577
43395940,0.009,0.124,1.56,-52.377,-25.515,-18.742
43395950,0.453,0.246,1.689,-108.902,-17.01,-31.045
43395960,0.706,0.061,1.737,-179.095,9.975,-19.057
43395970,0.687,0.07,1.671,-238.052,34.387,6.055
43395980,0.585,0.057,1.455,-291.182,49.735,30.572
43395990,0.484,-0.106,1.23,-326.252,60.742,43.697
43396000,0.578,-0.47,1.12,-338.905,80.097,58.8
43396010,0.672,-0.503,1.105,-327.88,97.912,77.017
43396020,0.675,-0.9,1.165,-321.58,113.662,91.91
43396030,0.339,-1.292,1.434,-340.48,122.045,108.062
43396040,0.119,-1.904,1.726,-338.59,102.742,97.842
43396050,-0.066,-1.998,1.798,-297.797,41.965,80.202
43396060,-0.079,-1.996,1.103,-235.55,2.327,66.5
43396070,0.022,-1.987,0.256,-77.962,-20.667,58.782
43396080,-0.101,-1.237,-0.164,75.372,-69.405,46.305
43396080,0.15,-0.33,-0.704,149.31,-117.197,39.375
43396100,0.153,0.071,-0.618,96.337,-108.36,41.685
43396100,0.142,-0.083,-0.384,4.602,-95.9,10.465
43396120,0.105,-0.385,-0.102,-60.445,-75.477,-15.662
43396120,0.103,-0.411,0.056,-91.35,-47.372,-21.892
43396140,-0.063,-0.412,0.026,-72.712,-29.05,-23.712
43396140,-0.255,-0.167,-0.047,-25.392,-29.662,-31.535
43396160,-0.492,0.068,-0.12,-2.8,-31.657,-25.375
43396160,-0.647,0.117,-0.146,-0.017,-41.352,-13.352
43396170,-0.609,0.099,-0.146,0.7,-58.467,-6.912
43396180,-0.473,0.044,-0.15,2.397,-64.925,-2.852
43396190,-0.409,-0.021,-0.169,4.182,-54.687,3.517
43396200,-0.411,-0.059,-0.191,10.237,-40.355,4.077
43396210,-0.415,-0.078,-0.205,17.64,-25.917,-1.785
43396220,-0.407,-0.071,-0.186,23.012,-12.267,-10.15
43396230,-0.377,-0.056,-0.147,27.912,1.365,-19.67
43396240,-0.337,0.004,-0.159,35.857,12.005,-28.157
43396250,-0.354,0.1,-0.165,45.377,17.465,-36.907
43396260,-0.488,0.094,-0.147,45.272,16.502,-47.442
43396270,-0.51,0.084,-0.082,25.042,14.892,-43.54
43396280,-0.862,-0.188,-0.208,6.562,16.835,-9.695
43396290,-0.775,-0.007,-0.235,101.272,-35.805,-33.705
43396300,-0.243,0.125,-0.147,224.98,-89.53,-102.34
43396310,0.64,-0.41,-0.927,225.417,5.232,-116.515
43396320,-1.073,-1.88,1.151,-125.177,117.477,-207.217
43396330,0.482,-1.215,-1.689,242.042,87.902,-488.932
43396340,-0.425,1.997,-1.133,573.37,-265.055,-327.075
43396350,1.998,0.51,1.678,425.512,-9.397,-150.132
43396360,-0.601,-1.709,1.574,190.382,306.862,-128.607
43396370,1.85,1.965,1.86,486.045,132.16,8.435
43396380,-1.662,0.946,1.91,173.757,219.625,96.652
43396390,-0.97,1.573,1.859,25.06,45.535,103.425
43396400,-0.342,0.064,1.486,-146.807,-46.375,73.85
43396410,0.278,-0.124,0.983,-188.422,-63.91,48.212
43396420,-0.119,-0.624,0.675,-190.872,-40.145,34.86
43396430,-0.048,-0.821,0.599,-155.452,-22.207,13.072
43396440,0.029,-0.745,0.617,-117.425,-15.417,-6.912
43396450,0.272,-0.546,0.803,-85.347,-12.32,-16.03
43396460,0.209,-0.382,1.117,-77.717,-9.397,-12.11
43396470,0.29,-0.127,1.361,-96.075,-8.12,-8.155
43396480,0.41,-0.049,1.457,-134.82,-2.502,-5.95
43396480,0.381,-0.017,1.57,-185.5,0.857,6.947
43396500,0.477,0.057,1.518,-230.177,8.26,14.542
43396500,0.315,0.046,1.357,-279.755,18.34,22.207
43396510,0.305,-0.148,1.192,-321.107,17.797,28.245
43396520,0.518,-0.433,1.341,-346.675,15.785,35.927
43396530,0.292,-0.699,1.412,-377.09,41.877,61.215
43396540,0.391,-1.384,1.844,-369.81,60.882,63.595
43396550,0.835,-1.945,1.998,-343.437,114.047,52.08
43396560,0.441,-1.965,1.981,-286.195,205.66,50.155
43396570,-1.158,-1.734,1.205,-215.495,232.347,18.252
43396580,-1.998,-1.5,0.301,-104.737,159.932,1.207
43396590,-1.998,-0.801,-0.189,39.742,-55.545,70.07
43396600,-0.433,-0.374,-0.251,153.212,-216.965,196.402
43396610,0.956,-0.385,-0.221,165.935,-206.255,298.007
43396620,0.562,0.198,0.125,83.3,-162.89,261.747
43396630,0.518,-0.056,0.198,11.935,-125.947,185.062
43396640,0.264,-0.232,0.177,11.392,-116.235,141.645
43396650,0.121,0.12,0.215,51.52,-122.885,109.865
43396660,-0.118,0.329,0.042,35.945,-110.005,103.075
43396670,-0.128,0.167,-0.105,47.32,-114.782,95.742
43396680,-0.066,0.15,-0.144,70.752,-119.07,89.477
43396690,-0.063,0.091,-0.13,83.387,-109.55,76.702
43396700,-0.158,-0.058,-0.162,82.512,-89.425,48.457
43396710,-0.303,-0.217,-0.255,79.047,-63.245,14.945
43396720,-0.38,-0.286,-0.307,89.635,-41.562,-19.95
43396730,-0.596,-0.338,-0.474,88.497,-13.09,-34.685
43396740,-0.567,-0.391,-0.588,97.195,3.255,-64.872
43396750,-0.772,-0.504,-0.716,86.52,18.235,-82.53
43396760,-0.895,-0.6,-0.743,69.755,29.067,-90.335
43396770,-0.775,-0.752,-0.786,56.402,36.977,-107.677
43396780,-0.805,-1.057,-0.682,42.157,45.797,-119.98
43396790,-1.088,-1.123,-0.731,16.047,64.96,-96.372
43396800,-0.998,-1.027,-0.766,48.195,45.92,-112.175
43396810,-0.565,-1.156,-0.548,118.632,15.557,-168.84
43396820,-0.321,-1.107,1.974,38.885,-95.357,-263.602
43396830,1.435,-1.998,-0.992,-40.18,-254.555,-500.675
43396830,1.88,0.052,-1.685,512.942,-84.822,-491.96
43396850,1.998,1.893,1.406,550.48,9.502,-222.215
43396850,1.573,-1.498,1.604,423.64,207.235,-91.035
43396870,1.526,0.06,1.968,514.15,257.005,76.982
43396870,-1.997,1.925,1.891,325.097,242.602,166.67
43396890,-0.653,0.938,1.722,20.965,9.712,85.557
43396890,0.541,-1.064,1.044,-166.232,-68.495,40.005
43396910,0.861,-0.916,0.638,-145.932,-62.615,51.415
43396910,0.411,-1.204,0.393,-86.677,-34.44,70.542
43396920,0.19,-0.809,0.648,-33.215,-19.442,70.402
43396930,-0.483,-0.243,1.01,-5.407,-19.215,78.732
43396940,-0.457,0.137,1.291,-7.332,-15.19,40.512
43396950,-0.253,0.327,1.52,-44.905,-15.522,-1.522
43396960,0.309,0.209,1.635,-114.082,-22.4,-23.03
43396970,0.528,0.096,1.745,-184.73,-18.27,-15.487
43396980,0.549,0.028,1.722,-252.192,-7.14,8.452
43396990,0.422,-0.063,1.526,-315.682,-21.822,36.68
43397000,0.521,-0.043,1.642,-371.525,-48.195,61.915
43397010,0.612,0.006,1.624,-431.83,-71.067,83.23
43397020,0.969,-0.616,1.914,-486.762,-70.822,117.897
43397030,0.677,-1.959,1.998,-545.177,-39.655,144.235
43397040,-0.931,-1.998,1.018,-543.007,-11.865,93.205
43397050,-1.998,-1.998,-0.239,-308.402,55.002,79.467
43397060,-1.998,-1.997,-1.406,28.595,72.905,144.182
43397070,-1.123,-0.69,-1.997,320.407,-93.45,242.182
43397080,1.034,0.678,-1.678,260.872,-94.22,299.285
43397090,1.685,-0.156,-0.696,19.355,-6.492,278.582
43397100,1.873,-0.814,0.113,-178.097,92.032,185.85
43397110,1.468,-0.855,0.149,-209.702,139.58,129.78
43397120,1.315,-0.361,0.316,-122.815,121.257,74.392
43397130,1.138,0.192,0.394,-62.475,96.407,16.485
43397140,0.983,0.517,0.469,-40.652,71.295,-31.377
43397150,0.308,0.81,0.526,-24.377,30.572,-55.492
43397160,-0.263,1.125,0.562,-9.082,-41.755,-73.202
43397170,-0.138,0.889,0.579,-8.592,-101.115,-68.442
43397170,0.228,0.428,0.516,4.935,-122.85,-48.492
43397190,0.15,0.23,0.416,41.842,-119.49,-36.47
43397190,-0.065,0.161,0.189,76.947,-103.197,-29.767
43397210,-0.111,-0.006,-0.053,99.995,-86.73,-27.37
43397210,-0.144,-0.247,-0.332,110.145,-71.522,-33.757
43397230,-0.343,-0.368,-0.627,106.697,-55.125,-47.495
43397230,-0.608,-0.412,-0.864,85.295,-45.885,-69.352
43397250,-0.683,-0.597,-0.957,44.135,-40.267,-90.475
43397250,-0.634,-0.54,-0.947,-7.227,-26.74,-102.55
43397260,-0.524,-0.728,-0.75,-47.81,-5.092,-116.147
43397270,-0.697,-0.594,-0.606,-104.212,25.06,-131.075
43397280,-1.081,-0.608,-0.52,-159.057,44.835,-153.107
43397290,-1.611,-1.011,-0.378,-173.495,33.565,-162.032
43397300,-1.913,-1.057,-0.207,-80.622,-22.575,-130.602
43397310,-1.771,-1.154,-0.231,94.062,-92.592,-97.58
43397320,1.201,-0.681,1.998,118.667,17.622,-69.545
43397330,1.41,-1.998,-0.065,55.877,228.462,-235.357
43397340,-1.081,0.303,-0.149,494.445,16.1,-467.145
43397350,1.474,1.98,0.315,559.79,125.947,-174.947
43397360,1.952,-1.163,0.613,452.795,187.075,2.327
43397370,-0.24,-0.657,1.499,541.362,188.02,116.847
43397380,1.067,1.931,1.998,548.415,110.302,170.082
43397390,-1.763,1.993,1.998,347.252,141.522,173.285
43397400,-1.486,1.925,1.998,107.782,49.682,90.3
43397410,-0.38,0.539,1.672,-114.187,-14.455,0.927
43397420,0.669,-0.626,1.046,-212.712,-29.452,-32.375
43397430,0.422,-0.861,0.47,-191.012,-8.925,-11.952
43397440,0.249,-0.737,0.721,-122.045,-6.825,8.19
43397450,-0.091,-0.635,0.737,-114.327,-4.217,29.855
43397460,-0.162,-0.327,0.936,-91.507,-17.832,27.282
43397470,-0.123,-0.199,1.212,-104.16,-20.405,14.245
43397480,0.025,-0.017,1.402,-130.497,-22.872,1.12
43397490,0.23,-0.062,1.401,-172.042,-22.995,-4.987
43397500,0.356,-0.155,1.313,-211.942,-28.402,3.255
43397510,0.345,-0.136,1.272,-247.957,-40.722,23.362
43397520,0.292,-0.19,1.178,-284.917,-57.33,45.29
43397530,0.474,-0.364,1.107,-315.017,-69.02,66.745
43397540,0.965,-0.519,1.175,-335.09,-62.737,86.555
43397550,0.968,-0.838,1.272,-355.057,-25.812,121.66
43397560,0.505,-1.611,1.484,-355.46,5.04,141.767
43397570,0.135,-1.998,1.718,-355.022,-15.645,121.432
43397580,-0.062,-1.998,1.608,-334.495,-49.472,106.802
43397580,-0.467,-1.998,0.452,-242.182,-58.187,111.58
43397600,-0.954,-1.998,-0.328,-96.862,-46.812,113.312
43397600,-1.268,-1.924,-0.531,70.542,-73.062,124.81
43397620,-0.263,-1.581,-1.3,234.482,-135.205,198.047
43397620,0.848,-0.572,-1.275,289.607,-112.735,233.45
43397640,0.743,0.199,-1.184,224.455,-76.387,214.707
43397640,0.528,0.257,-0.895,74.147,-42.052,164.15
43397660,0.814,-0.026,-0.47,-58.537,-23.87,114.765
43397660,0.85,-0.09,-0.229,-135.397,-19.092,67.585
43397670,0.653,-0.07,-0.02,-146.912,-27.37,7.822
43397680,0.402,0.068,0.127,-124.67,-36.207,-42.752
43397690,0.1,0.206,0.246,-94.22,-46.252,-73.22
43397700,-0.149,0.216,0.303,-73.727,-58.922,-93.765
43397710,-0.299,0.121,0.288,-59.29,-67.13,-109.41
43397720,-0.328,0.024,0.254,-42.017,-60.917,-118.72
43397730,-0.353,-0.126,0.243,-22.207,-29.907,-114.432
43397740,-0.382,-0.108,0.208,-6.72,22.225,-85.942
43397750,-0.966,-0.338,-0.005,-11.025,81.34,-24.657
43397760,-0.953,-0.455,-0.075,76.72,61.985,-1.137
43397770,-0.751,-0.177,-0.166,119.735,46.095,21.665
43397780,-0.329,-0.057,-0.186,126.157,39.9,28.367
43397790,-0.09,-0.054,-0.212,102.27,58.152,36.942
43397800,-0.084,0.041,-0.313,74.41,81.567,42.227
43397810,-0.048,0.057,-0.274,79.275,77.962,25.865
43397820,0.131,0.129,-0.345,86.257,57.417,-20.545
43397830,-0.281,-0.569,-1.687,112.105,66.5,-69.79
43397840,0.301,-0.873,1.322,140.105,152.495,-142.187
43397850,-1.726,-1.949,1.56,-76.755,14.682,-214.55
43397860,1.684,-1.798,-1.997,321.352,62.51,-425.932
43397870,-1.943,1.886,-1.501,573.37,-173.775,-141.435
43397880,1.674,1.688,1.583,506.222,-351.452,-266.35
43397890,1.053,-1.96,1.618,232.995,127.645,-36.75
43397900,0.452,0.055,1.585,487.48,119.682,-29.4
43397910,1.187,1.153,1.998,498.557,174.387,44.467
43397920,-1.998,0.996,1.998,243.687,218.295,119.857
43397920,-0.815,1.414,1.803,99.12,34.912,106.785
43397940,-0.365,-0.249,1.262,-134.085,-39.777,76.352
43397940,0.418,-0.384,1.076,-172.62,-83.405,72.677
43397960,-0.14,-0.485,0.956,-189.595,-71.925,70.577
43397960,0.087,-0.159,1.297,-163.45,-70.437,46.042
43397980,-0.242,-0.226,1.162,-212.59,-49.367,37.59
43397980,-0.199,-0.043,1.301,-211.855,-52.71,12.565
43398000,0.163,-0.14,1.296,-242.13,-50.872,-8.592
43398000,0.37,-0.067,1.254,-268.782,-57.347,-0.157
43398010,0.348,-0.064,1.218,-302.365,-77.507,29.68
43398020,0.184,-0.063,1.088,-348.775,-111.475,64.417
43398030,0.38,-0.021,1.05,-392.105,-144.48,96.565
43398040,0.186,-0.299,1.168,-433.23,-160.23,127.96
43398050,0.004,-0.854,1.103,-467.215,-154.437,143.377
43398060,0.241,-1.616,1.776,-463.82,-147.245,140.087
43398070,-0.412,-1.998,1.998,-498.277,-143.377,123.865
43398080,0.465,-1.998,1.772,-455.42,-52.535,111.23
43398090,0.855,-1.856,0.982,-233.555,69.457,148.26
43398100,-0.954,-1.939,0.881,0.402,126.525,77.98
43398110,-1.802,-1.891,-0.054,243.267,24.01,60.69
43398120,-0.512,-1.564,-0.612,427.525,-99.295,163.835
43398130,0.136,-0.675,-1.139,449.522,-119.805,250.057
43398140,0.808,0.054,-1.389,417.585,-122.027,241.85
43398150,0.963,0.246,-1.042,297.43,-67.112,189.315
43398160,0.528,0.157,-0.822,151.497,-12.565,134.295
43398170,0.452,-0.075,-0.614,70.105,12.88,75.722
43398180,0.416,-0.103,-0.385,41.317,18.27,4.182
43398190,0.125,-0.026,-0.326,22.645,22.82,-35.507
43398200,0.32,0.07,-0.187,14.087,25.602,-65.87
43398210,0.552,-0.036,-0.073,1.47,43.89,-71.942
43398220,0.596,-0.038,0.002,-2.065,67.847,-70.28
43398230,0.445,-0.012,0.025,2.852,86.712,-68.25
43398240,0.396,-0.007,0.01,13.72,91.157,-79.537
43398250,0.548,0.013,0,32.795,86.747,-97.527
43398260,0.373,0.17,-0.133,45.465,91.455,-99.242
43398270,0.106,0.416,-0.256,59.867,81.532,-124.582
43398280,0.081,0.479,-0.272,51.24,75.967,-146.387
43398290,0.226,0.412,-0.313,20.702,83.492,-166.95
43398300,0.26,0.196,-0.284,-22.102,114.537,-189.175
43398310,-0.27,0.29,-0.477,-65.817,150.325,-200.305
43398320,-0.663,-0.532,-1.024,-48.65,161.105,-207.2
43398330,-0.007,-1.992,-0.06,76.387,277.287,-204.015
43398330,-1.821,-1.998,0.577,-17.815,399.945,-288.855
43398350,-0.315,-0.233,-1.997,377.055,113.61,-418.127
43398350,-0.519,1.997,1.23,567.577,-403.567,-317.135
43398370,1.998,0.565,0.73,299.74,-84.63,-72.817
43398370,-0.521,-1.998,1.262,85.82,173.932,-33.337
43398390,0.584,-0.399,1.348,441.857,-35.875,-16.1
43398390,1.67,1.74,1.998,476.42,16.555,103.967
43398410,-1.271,0.004,1.944,203.98,145.547,118.632
43398410,-0.842,1.685,1.932,121.03,43.627,102.567
43398420,-0.214,0.092,1.408,-61.232,-3.307,52.902
43398430,0.478,-0.415,1.033,-117.075,-16.695,28.542
43398440,0.085,-0.796,0.771,-114.66,5.81,26.337
43398450,0.114,-0.371,1.094,-78.155,5.022,31.972
43398460,-0.07,-0.057,1.283,-99.925,9.012,38.08
43398470,-0.121,0.017,1.39,-129.185,7.84,33.967
43398480,-0.042,0.024,1.44,-167.002,8.435,23.467
43398490,-0.017,0.01,1.486,-210.892,-0.017,18.182
43398500,0.124,-0.012,1.511,-259.28,-27.79,26.897
43398510,0.196,0.056,1.475,-307.51,-69.352,55.86
43398520,0.454,-0.156,1.484,-371.472,-101.307,87.22
43398530,0.414,-0.517,1.36,-424.707,-105.682,124.32
43398540,-0.546,-1.29,1.379,-454.772,-120.26,173.075
43398550,-0.73,-1.998,1.882,-471.887,-203.892,166.477
43398560,-1.599,-1.998,1.95,-471.17,-287.297,130.62
43398570,-1.663,-1.998,0.986,-460.25,-266.56,143.832
43398580,-0.271,-1.998,-0.559,-224.577,-270.602,171.167
43398590,0.134,-1.998,-0.933,155.347,-168.647,163.87
43398600,0.409,-1.955,-1.476,486.185,-37.292,229.862
43398610,0.3,-0.78,-1.955,570.815,100.152,332.57
43398620,0.244,0.75,-1.997,521.325,98.63,378.42
43398630,0.529,1.393,-1.924,332.937,18.707,311.692
43398640,1.459,0.977,-1.197,76.912,-21.77,188.037
43398650,1.998,-0.094,-0.479,-153.177,49.682,77.927
43398660,1.878,-0.591,-0.127,-234.22,121.082,-59.255
43398670,1.42,-0.619,0.189,-206.29,176.155,-181.807
43398670,1.102,-0.446,0.352,-161.647,219.975,-252.875
43398690,0.359,0.077,0.464,-122.307,231.087,-285.582
43398690,-0.824,0.85,0.306,-101.15,178.657,-302.487
43398710,-0.948,1.159,0.362,-100.992,81.252,-301
43398710,-0.424,0.907,0.601,-131.775,7.682,-274.872
43398730,-0.205,0.571,0.62,-148.557,-32.27,-236.827
43398730,-0.035,0.411,0.65,-137.445,-42.525,-197.82
43398750,0.08,0.284,0.602,-120.732,-26.845,-162.207
43398750,0.153,-0.229,0.662,-107.222,0.857,-140.717
43398760,0.159,-0.019,0.177,-162.872,60.9,-124.792
43398770,-0.279,-0.369,-0.031,-98.122,59.045,-97.685
43398780,-0.472,-0.37,-0.166,76.597,8.155,-109.707
43398790,-0.683,-0.303,-0.118,211.995,-81.392,-84.682
43398800,-0.174,0.17,-0.116,201.53,-117.18,-63.595
43398810,-0.124,0.008,-0.469,131.267,-100.975,-72.817
43398820,-1.338,-0.345,-1.398,137.27,-33.145,-49.14
43398830,-0.456,-1.998,0.798,-78.207,341.25,-87.15
43398840,-1.998,-0.576,-1.974,360.465,-40.967,-394.712
43398850,1.306,1.997,0.798,569.17,-84.595,-464.94
43398860,1.579,0.844,-0.606,342.842,173.88,3.22
43398870,0.307,-1.998,1.616,171.465,378.7,102.777
43398880,0.016,-0.066,0.462,450.625,116.2,82.74
43398890,0.561,1.956,1.959,477.312,70.822,114.782
43398900,-1.331,0.176,1.972,223.002,120.295,148.4
43398910,-0.854,1.651,1.963,126.332,37.31,78.802
43398920,-0.485,0.124,1.554,-30.502,2.31,-6.335
43398930,0.532,-0.254,1.063,-116.13,-16.467,-36.487
43398940,0.401,-0.785,0.766,-122.517,-2.8,-17.692
43398950,0.145,-0.488,0.967,-81.48,-3.377,9.117
43398960,-0.034,-0.174,1.168,-90.702,-6.545,21.577
43398970,-0.067,-0.16,1.306,-117.845,-14.49,20.352
43398980,-0.015,-0.139,1.305,-149.362,-19.355,15.295
43398990,0.129,-0.123,1.308,-175.035,-27.265,9.397
43399000,0.19,-0.136,1.236,-210.595,-35.682,13.125
43399010,0.216,-0.118,1.273,-243.845,-50.89,23.31
43399020,0.374,-0.186,1.287,-286.912,-70.49,31.552
43399030,0.739,-0.259,1.306,-324.992,-76.58,46.777
43399040,0.599,-0.732,1.184,-349.772,-57.715,75.11
43399050,0.175,-1.584,1.449,-366.362,-67.515,89.425
43399060,-0.031,-1.998,1.947,-368.935,-124.425,84.717
43399070,-0.574,-1.998,1.828,-342.615,-184.345,100.642
43399080,-0.39,-1.998,0.845,-244.422,-116.76,99.05
43399080,-1.656,-1.998,0.171,-28.35,-51.905,99.802
43399100,-1.75,-1.992,-1.213,328.177,-226.765,94.115
43399100,-0.466,-0.848,-1.997,496.965,-260.225,147.14
43399120,-0.281,0.669,-1.997,391.51,-159.705,147.42
43399120,-0.45,0.65,-1.779,143.22,-81.567,65.52
43399140,0.297,-0.731,-1.034,-100.747,16.135,9.642
43399140,0.415,-1.361,-0.747,-202.562,85.312,-8.96
43399160,0.094,-1.11,-0.538,-172.97,93.345,-42.122
43399160,-0.139,-0.751,-0.324,-122.727,67.007,-83.965
43399170,-0.283,-0.493,-0.191,-98.07,25.777,-109.182
43399180,-0.329,-0.316,-0.062,-99.785,-16.047,-108.097
43399190,-0.252,-0.19,0.096,-121.59,-42.595,-83.282
43399200,-0.152,-0.023,0.244,-146.825,-50.26,-47.705
43399210,-0.146,0.254,0.368,-157.412,-49.227,-11.305
43399220,-0.098,0.425,0.481,-153.247,-44.695,20.65
43399230,-0.026,0.357,0.541,-143.815,-23.485,48.772
43399240,-0.011,0.269,0.551,-126.122,9.012,69.265
43399250,-0.025,0.322,0.533,-103.6,45.22,83.177
43399260,0.066,0.204,0.564,-81.462,74.952,91.525
43399270,-0.646,0.221,0.025,-80.08,116.462,147.175
43399280,0.454,0.302,0.505,173.145,1.68,-4.322
43399290,0.822,1.209,0.395,213.15,-5.197,-100.677
43399300,-0.36,0.12,-1.05,119.56,123.025,-22.085
43399310,1.818,-0.889,1.323,134.61,212.695,-78.47
43399320,1.221,-1.947,1.246,48.562,130.34,-215.705
43399330,-1.608,-1.348,-1.892,280.14,182.087,-414.26
43399340,0.329,1.997,0.237,573.247,-50.05,-275.992
43399350,1.998,0.911,0.776,534.992,-29.172,7.157
43399360,0.152,-1.996,1.443,425.897,141.26,54.635
43399370,1.349,1.03,1.98,557.13,68.897,172.41
43399380,-0.707,1.538,1.998,457.73,85.487,214.165
43399390,-1.562,1.49,1.998,179.865,60.13,142.905
43399400,-0.842,1.488,1.984,-6.177,-13.702,51.135
43399410,0.168,0.237,1.563,-206.447,-42.332,-24.99
43399420,0.408,-0.448,0.612,-272.597,-50.382,-28.787
43399420,0.641,-0.877,0.957,-216.737,-54.057,-32.655
43399440,0.116,-0.825,0.751,-215.967,-28.087,8.592
43399440,0.137,-0.521,0.92,-183.977,-35.875,10.622
43399460,0.17,-0.441,0.981,-189.84,-37.73,23.397
43399460,0.195,-0.307,1.128,-200.952,-48.09,34.982
43399480,0.117,-0.266,1.107,-229.582,-61.005,52.85
43399480,0.134,-0.293,1.096,-260.855,-80.465,69.212
43399500,0.338,-0.302,1.088,-287.332,-104.632,76.685
43399500,0.408,-0.462,1.315,-316.277,-119.367,92.925
43399510,0.172,-1.246,1.713,-339.482,-143.412,101.237
43399520,0.471,-1.995,1.946,-348.162,-198.257,70.332
43399530,0.559,-1.998,1.936,-304.552,-174.895,63.035
43399540,-1.054,-1.998,1.997,-251.737,-2.012,26.162
43399550,-1.998,-1.998,1.102,-77.21,17.202,56.385
43399560,-0.413,-1.969,-1.142,399.385,-165.182,169.12
43399570,1.278,-0.726,-1.665,514.097,-33.18,286.65
43399580,0.312,0.069,-1.799,418.32,36.61,327.67
43399590,-0.136,0.066,-1.885,251.125,9.187,252.42
43399600,0.444,-0.181,-1.644,105.332,-44.03,188.51
43399610,0.97,-0.35,-1.173,15.802,-78.382,130.935
43399620,1.003,-0.407,-0.608,-59.307,-62.055,46.97
43399630,0.886,-0.654,-0.293,-106.435,-14.577,-50.47
43399640,0.655,-0.705,-0.158,-105.175,35.052,-122.342
43399650,0.437,-0.482,-0.078,-81.567,76.86,-161.577
43399660,0.155,-0.202,-0.035,-71.47,110.215,-172.987
43399670,-0.284,0.064,0.002,-77.577,119.84,-173.547
43399680,-0.6,0.246,0.076,-92.907,94.517,-175.07
43399690,-0.478,0.322,0.206,-98.035,53.445,-157.71
43399700,-0.298,0.534,0.433,-83.002,26.915,-106.925
43399710,-0.256,0.933,0.74,-59.01,15.015,-49.84
43399720,-0.217,1.065,0.876,-43.54,0.787,-11.847
43399730,-0.036,0.806,0.858,-33.547,-3.605,5.11
43399740,-0.003,0.658,0.751,-13.317,1.732,11.06
43399750,-0.138,0.56,0.474,11.76,2.625,5.88
43399760,-0.497,-0.378,-0.211,12.827,19.81,83.265
43399770,-0.987,0.414,-0.685,197.207,-50.312,180.565
43399780,0.824,0.332,0.556,365.837,-213.15,-162.47
43399790,0.03,-1.998,-1.223,-108.167,119.21,-493.937
43399800,-1.695,0.85,0.184,491.19,-89.442,-390.075
43399810,1.394,1.997,0.547,560.717,-80.22,-127.54
43399820,1.955,-0.692,1.419,288.19,71.365,-155.225
43399830,0.598,-0.847,1.768,317.292,230.597,-50.102
43399830,1.713,1.823,1.781,447.195,172.34,78.907
43399840,-1.555,0.437,1.998,190.96,202.527,138.215
43399850,-1.459,1.578,1.942,77.665,51.572,107.975
43399860,-0.412,-0.162,1.353,-90.475,-43.802,46.655
43399870,0.338,-0.48,0.926,-151.305,-76.002,11.917
43399880,0.095,-0.621,0.746,-139.177,-76.44,13.982
43399890,0.351,-0.685,0.946,-120.785,-75.425,-1.015
43399900,0.08,-0.295,1.121,-123.305,-78.085,13.545
43399910,0.147,-0.164,1.213,-137.34,-95.602,6.37
43399920,0.279,-0.291,1.092,-168.175,-105.07,0.49
43399930,0.433,-0.436,0.949,-182.175,-107.38,3.115
43399940,0.387,-0.448,0.969,-186.585,-111.772,16.625
43399950,0.441,-0.389,1.378,-192.15,-136.027,34.982
43399960,0.014,-0.709,1.241,-207.06,-195.002,37.835
43399970,0.305,-1.248,0.951,-193.655,-263.952,18.952
43399980,-0.285,-1.294,1.001,-208.897,-306.057,22.382
43399990,0.321,-1.99,0.718,-203.367,-295.12,15.75
43400000,-0.013,-1.998,0.812,-154.7,-138.81,72.852
43400010,-0.631,-1.894,-1.07,39.305,-21.98,154.752
43400020,-0.48,-0.332,-1.063,188.107,-37.922,152.862
43400030,0.902,-0.443,-0.714,92.4,34.422,141.89
43400040,0.628,-1.035,-0.675,-29.925,100.345,102.83
43400050,0.11,-0.742,-0.544,-48.44,119.875,43.872
43400060,0.013,-0.281,-0.305,-48.65,117.232,17.377
43400070,0.225,-0.192,0.015,-66.815,125.282,-7.63
43400080,0.152,-0.115,0.318,-77.77,149.345,-22.837
43400090,-0.229,0.222,0.459,-62.387,161.402,-24.85
43400100,-0.491,0.664,0.485,-35.297,141.785,-23.432
43400110,-0.57,0.826,0.512,-20.562,106.26,-10.745
43400120,-0.545,0.547,0.554,-17.307,67.235,15.68
43400130,-0.313,0.178,0.455,-1.05,36.837,49.087
43400140,-0.012,0.216,0.199,41.72,21.367,79.275
43400150,-0.001,0.53,-0.109,73.395,11.777,86.17
43400160,0.323,-0.346,-0.076,54.897,19.74,54.705
43400170,1.998,-1.09,1.618,173.145,-0.262,-120.242
43400170,0.099,-1.998,-0.489,128.45,212.415,-184.327
43400190,-0.725,-1.127,0.979,417.305,4.34,-248.622
43400190,1.998,1.959,1.006,528.465,-54.565,-117.127
43400210,1.277,-0.744,1.417,405.212,91.367,-30.677
43400210,0.396,-0.025,1.626,381.605,123.742,18.917
43400230,0.313,1.238,1.998,370.387,103.845,46.952
43400230,-0.694,0.721,1.907,179.567,91.735,29.907
43400250,-0.383,0.73,1.753,53.515,23.485,10.71
43400250,0.076,0.189,1.412,-62.002,-25.865,6.142
43400260,0.134,-0.197,1.186,-124.442,-50.61,16.1
43400270,0.282,-0.305,1.056,-152.46,-64.96,25.987
43400280,0.155,-0.373,1.02,-168.77,-69.475,28.175
43400290,0.088,-0.521,0.968,-183.085,-72.345,20.562
43400300,-0.109,-0.425,0.818,-167.86,-84.28,16.485
43400310,0.329,-0.384,0.859,-152.53,-98.297,-18.707
43400320,0.132,-0.707,0.755,-172.497,-89.582,-15.767
43400330,0.404,-0.547,0.738,-146.002,-103.162,-23.257
43400340,0.435,-0.607,0.684,-133.98,-105.91,-11.532
43400350,0.369,-0.691,0.75,-119.857,-115.622,-3.202
43400360,0.263,-0.801,0.808,-107.73,-134.155,0.28
43400370,0.144,-0.98,0.568,-92.855,-165.165,-4.287
43400380,0.444,-0.998,0.541,-81.41,-170.03,-15.19
43400390,0.205,-0.909,0.569,-70.857,-159.04,-16.012
43400400,-0.166,-0.779,0.104,-58.117,-156.747,-20.107
43400410,0.023,-0.562,0.141,-40.565,-153.09,-21.822
43400420,-0.341,-0.43,-0.086,-38.325,-149.38,-30.572
43400430,-0.361,-0.973,-0.151,-43.155,-165.147,-36.697
43400440,1.303,-1.44,0.602,-39.725,-66.78,-44.432
43400450,0.419,0.057,0.693,41.125,-6.195,-45.657
43400460,0.911,0.706,0.399,97.247,23.52,-57.295
43400470,1.295,-0.356,0.205,92.382,54.53,-48.457
43400480,1.081,-1.722,0.076,80.64,133.122,-45.517
43400490,0.924,-1.226,0.347,144.83,182.14,-55.545
43400500,0.793,0.126,0.686,214.41,197.715,-30.362
43400510,0.87,-0.355,0.891,220.552,198.38,16.047
43400510,1.139,-0.527,0.734,216.86,196.927,50.172
43400530,0.599,0.36,1.153,224.805,207.077,95.182
43400530,-0.162,0.01,1.337,159.95,192.027,125.755
43400550,-0.288,-0.59,1.373,97.3,150.43,116.427
43400550,-0.687,-0.046,1.451,63.262,81.847,82.285
43400570,-0.287,0.308,1.336,12.617,31.412,43.085
43400570,-0.204,0.019,1.088,-39.62,9.782,14.77
43400580,0.017,-0.549,0.868,-71.365,-6.545,-6.09
43400590,0.316,-0.573,0.73,-66.867,-13.912,-18.795
43400600,0.447,-0.514,0.627,-50.645,-6.772,-18.375
43400610,0.434,-0.781,0.456,-28.875,11.41,-13.002
43400620,0.428,-0.872,0.437,13.37,27.86,-8.732
43400630,0.542,-0.728,0.586,62.3,40.95,-1.767
43400640,0.459,-0.515,0.824,97.002,56.332,7.052
43400650,0.263,-0.175,1.098,104.422,64.662,12.075
43400660,-0.035,-0.067,1.221,75.39,61.197,14.28
43400670,-0.105,-0.064,1.223,37.747,40.845,5.932
43400680,0.062,-0.127,1.19,-0.21,18.847,-4.585
43400690,0.277,-0.173,1.15,-34.667,8.68,-12.04
43400700,0.416,-0.163,1.21,-66.815,16.345,-14.735
43400710,0.255,-0.197,1.157,-94.937,34.02,-16.485
43400720,0.28,-0.326,1.162,-120.19,43.925,-19.81
43400730,0.279,-0.172,1.149,-133.157,49.052,-22.12
43400740,0.292,-0.248,1.118,-152.565,60.62,-35.245
43400750,0.289,-0.34,1.092,-169.995,71.26,-36.26
43400760,0.348,-0.387,1.078,-182.385,71.12,-33.67
43400770,0.372,-0.505,1.034,-197.785,66.237,-19.967
43400780,0.413,-0.601,1.081,-206.867,54.705,-1.785
43400790,0.508,-0.749,1.16,-215.25,47.162,24.657
43400800,0.488,-0.76,1.256,-220.08,42.927,57.277
43400810,0.341,-0.85,1.165,-222.022,37.502,83.212
43400820,0.306,-1.134,0.995,-216.667,4.06,89.267
43400830,0.186,-1.56,1.251,-219.712,-39.357,76.492
43400840,0.526,-1.948,0.492,-206.955,-15.61,79.572
43400850,0.408,-1.496,0.51,-171.115,30.765,90.895
43400860,0.797,-1.41,-0.011,-152.705,69.265,57.207
43400870,0.692,-0.726,0.852,-107.59,66.92,4.567
43400880,-0.045,0.29,0.284,-63.7,4.462,-53.27
43400890,-0.094,0.838,0.201,-6.667,-23.625,-51.467
43400900,-0.02,1.071,0.272,10.412,-56.14,-16.485
43400910,0.126,0.986,0.304,8.855,-81.725,2.87
43400920,0.289,0.751,0.385,17.325,-95.287,17.01
43400920,0.224,0.611,0.412,33.022,-103.582,23.992
43400940,0.065,0.258,0.371,49.63,-118.615,15.172
43400940,-0.319,0.262,0.13,60.76,-137.812,26.25
43400960,-0.353,0.358,0.043,120.942,-190.347,6.667
43400960,-0.264,0.305,0.057,131.512,-236.512,-44.975
43400980,-0.593,0.108,-0.065,67.445,-228.427,-48.16
43400980,-0.655,-0.076,-0.096,44.187,-216.247,-44.275
43401000,-0.609,-0.351,-0.081,45.85,-192.045,-41.702
43401000,-0.65,-1.654,-1.545,70.612,-122.22,-37.45
43401010,0.164,-1.998,1.11,75.197,218.732,-20.02
43401020,-1.986,-1.923,-1.32,-73.815,264.477,-208.53
43401030,-0.93,1.771,-0.277,356.51,-9.397,-345.327
43401040,1.998,1.793,0.47,470.19,-103.88,-141.26
43401050,1.687,-1.755,1.083,256.252,83.037,-32.27
43401060,0.168,-1.814,0.639,280.91,142.415,-59.832
43401070,1.053,0.965,1.323,407.907,100.17,59.43
43401080,0.33,-0.049,0.568,286.317,99.33,62.895
43401090,-0.761,0.058,1.314,98.21,139.352,-0.875
43401100,-0.271,0.908,1.789,88.952,41.177,6.702
43401110,0.074,-0.094,1.462,-47.407,-0.332,-12.565
43401120,0.842,-0.352,1.134,-101.185,-23.87,-16.24
43401130,0.462,-0.337,1.011,-128.52,-10.342,11.725
43401140,0.505,-0.476,1.12,-144.585,-3.657,31.867
43401150,0.301,-0.281,1.194,-161.332,-3.745,53.69
43401160,0.217,-0.14,1.26,-189.227,-17.587,69.125
43401170,-0.066,-0.373,1.202,-221.34,-29.715,80.15
43401180,-0.112,-0.055,1.065,-238.892,-57.47,65.292
43401190,0.132,-0.256,1.121,-276.255,-85.207,53.532
43401200,0.173,-0.283,1.111,-315.42,-104.667,73.727
43401210,0.338,-0.328,1.172,-330.75,-125.58,79.887
43401220,0.209,-1.084,1.216,-364.822,-115.727,97.79
43401230,0.605,-1.694,1.758,-359.485,-106.592,76.597
43401240,0.499,-1.995,1.537,-353.43,-71.435,61.6
43401250,-0.045,-1.79,0.853,-298.935,32.217,60.83
43401260,0.004,-1.577,0.175,-191.047,108.622,46.76
43401260,-0.667,-1.747,0.38,-72.73,151.025,73.99
43401280,-1.358,-1.223,0.029,57.225,95.672,123.917
43401280,-0.082,-0.983,-0.317,214.935,-5.162,200.305
43401300,0.94,-0.299,-0.285,259.98,-8.155,246.47
43401300,1.156,0.501,-0.246,234.342,8.277,245.157
43401320,1.277,0.832,-0.185,169.032,29.4,211.995
43401320,1.162,0.824,-0.004,89.442,36.872,168.157
43401330,0.871,0.459,-0.016,29.155,20.947,137.55
43401340,0.977,0.412,0.168,34.282,-30.607,62.37
43401350,0.602,0.495,0.174,50.942,-78.505,15.557
43401360,0.472,0.511,0.269,51.747,-108.955,-45.132
43401370,0.397,0.365,0.361,51.765,-125.667,-107.992
43401380,0.236,0.159,0.402,51.625,-122.867,-167.58
43401390,0.223,0.084,0.467,58.467,-108.92,-236.407
43401400,-0.216,-0.252,0.285,50.207,-86.52,-265.895
43401410,-0.718,-0.718,0.077,55.177,-79.922,-254.065
43401420,-1.053,-0.897,-0.159,73.045,-80.71,-211.592
43401430,-1.435,-0.788,-0.427,95.095,-88.637,-155.435
43401440,-1.52,-0.88,-0.915,104.895,-98.822,-103.442
43401450,-0.481,-1.578,0.543,48.79,-105.315,-41.055
43401460,0.123,-1.998,-1.385,132.387,223.335,-119.927
43401470,-1.274,1.123,-0.143,505.172,64.102,-314.772
43401480,1.672,1.997,1.661,523.145,65.52,-102.445
43401490,1.998,-0.384,0.386,353.097,54.565,-10.517
43401500,0.319,-1.898,1.509,293.807,240.205,11.462
43401510,1.289,0.931,1.895,362.11,206.727,58.485
43401520,-1.205,0.972,1.949,236.337,185.272,100.082
43401530,-1.673,1.025,1.773,73.78,85.872,62.562
43401540,-0.211,0.176,1.319,-39.97,-18.777,12.95
43401550,0.641,-0.693,0.879,-101.972,-47.075,-2.327
43401560,0.649,-0.503,0.856,-85.242,-40.057,18.077
43401570,0.255,-0.611,0.818,-69.282,-25.672,38.307
43401580,0.116,-0.442,0.931,-59.5,-16.975,36.242
43401590,0.002,-0.204,1.136,-63.752,-15.47,24.92
43401600,0.138,-0.106,1.307,-91.052,-12.215,7.525
43401610,0.28,-0.086,1.369,-130.707,-6.86,-3.587
43401620,0.506,-0.144,1.352,-169.977,2.677,-3.517
43401630,0.522,-0.141,1.363,-204.557,16.397,5.862
43401640,0.41,-0.3,1.184,-240.695,16.362,15.487
43401650,0.277,-0.363,1.081,-272.947,-1.557,25.882
43401660,0.516,-0.34,1.19,-301.472,-23.152,39.41
43401670,0.753,-0.554,1.137,-310.572,-16.03,65.012
43401670,0.7,-0.749,1.284,-301.21,8.102,88.69
43401690,0.881,-1.518,1.699,-290.535,44.345,88.182
43401690,1.212,-1.998,1.687,-274.487,107.677,75.092
43401710,0.793,-1.998,0.69,-215.617,200.025,36.155
43401710,-0.06,-1.998,0.016,-110.46,280.717,-53.707
43401730,0.151,-1.918,-0.563,5.547,274.925,-100.03
43401730,-0.301,-0.922,-1.338,95.13,191.817,-86.747
43401750,-0.702,0.259,-1.23,100.905,88.76,-84.087
43401750,-0.497,0.725,-0.474,5.145,4.76,-61.757
43401760,-0.309,0.486,0.112,-101.762,-66.99,-26.915
43401770,-0.158,0.391,0.561,-153.037,-129.272,7
43401780,0.134,0.452,0.858,-145.215,-167.562,42.122
43401790,0.474,0.452,1.07,-95.48,-174.177,67.935
43401800,0.521,0.524,1.108,-31.605,-159.057,71.487
43401810,0.387,0.633,0.978,32.462,-140.28,51.415
43401820,0.192,0.64,0.803,77.595,-122.815,24.045
43401830,0.042,0.527,0.551,103.635,-108.5,0.577
43401840,0.075,0.177,0.374,126.087,-94.22,-20.352
43401850,-0.088,0.125,0.063,143.517,-66.832,-5.302
43401860,0.115,0.003,-0.159,173.005,-45.92,-42.437
43401870,-0.242,-0.201,-0.449,172.235,-27.055,-88.34
43401880,-0.912,-0.377,-0.709,139.737,-14.612,-102.532
43401890,-1.368,-0.428,-0.899,80.15,-32.532,-119.595
43401900,-1.584,-0.726,-0.894,0.875,-58.222,-120.225
43401910,-1.488,-1.048,-0.738,-60.042,-59.762,-101.325
43401920,-1.477,-1.719,-0.826,-53.602,-55.055,-108.692
43401930,0.782,-1.998,1.954,-15.155,138.932,-122.185
43401940,-0.553,-1.983,-1.176,184.677,201.74,-303.852
43401950,0.156,1.609,0.561,524.667,31.797,-391.387
43401960,1.998,0.998,0.531,474.582,116.427,-34.842
43401970,1.071,-1.998,1.298,275.345,278.407,12.267
43401980,1.405,0.536,1.35,460.477,232.75,152.687
43401990,-0.944,1.269,1.998,408.38,210.805,194.74
43402000,-1.961,1.47,1.921,199.552,148.645,109.287
43402010,-1.073,0.913,1.612,67.795,36.417,14.21
43402010,0.534,-0.227,1.135,-56.7,-19.372,-25.2
43402030,0.478,-0.433,0.997,-82.32,-19.582,-5.53
43402030,0.102,-0.348,1.056,-82.005,-8.802,9.502
43402050,0.302,-0.176,1.138,-78.872,-22.82,8.085
43402050,0.228,-0.244,1.207,-119.56,-22.172,9.345
43402070,0.313,-0.151,1.356,-145.425,-15.96,12.022
43402070,0.229,-0.071,1.42,-179.287,2.45,16.467
43402080,0.265,-0.069,1.438,-216.86,16.205,20.317
43402090,0.275,-0.08,1.43,-251.965,17.762,28.035
43402100,0.183,-0.1,1.287,-290.202,2.572,38.867
43402110,0.295,-0.131,1.343,-325.272,-35.175,51.205
43402120,0.682,-0.303,1.571,-364.315,-51.45,77.035
43402130,0.643,-0.492,1.791,-386.435,-37.187,115.325
43402140,0.796,-1.585,1.998,-392.91,-12.005,129.307
43402150,0.937,-1.998,1.998,-380.625,56.122,112.367
43402160,0.176,-1.998,1.815,-320.092,139.352,91.84
43402170,-0.655,-1.998,0.642,-176.067,185.885,42.665
43402180,-1.673,-1.713,-0.209,77.35,92.33,28.752
43402190,-0.271,-0.452,-1.801,284.917,-69.387,62.247
43402200,1.126,0.503,-1.35,284.567,-66.937,116.322
43402210,0.792,0.581,-0.531,104.212,-28.28,95.672
43402220,0.904,-0.462,0.063,-37.73,1.067,28.315
43402230,1.007,-0.883,0.205,-50.785,15.802,21.787
43402240,0.878,-0.376,0.197,30.66,-3.517,13.44
43402250,0.384,0.382,0.138,67.007,-27.772,-6.002
43402260,-0.476,0.828,0.112,67.567,-81.952,-22.365
43402270,-0.629,0.983,0.296,61.775,-149.152,-48.195
43402280,0.12,0.702,0.51,55.807,-159.985,-48.09
43402290,0.371,0.491,0.653,58.992,-108.99,-31.57
43402300,-0.019,0.509,0.593,82.25,-52.43,-35.07
43402310,-0.344,0.43,0.523,119.927,-28.717,-50.487
43402320,-0.329,0.284,0.308,147.507,-27.527,-56.472
43402330,-0.067,0.144,0.123,176.4,-33.162,-67.602
43402340,0.075,0.034,-0.026,191.257,-25.742,-75.915
43402350,0.19,-0.081,-0.127,187.617,-5.355,-82.442
43402360,0.148,-0.343,-0.105,169.032,14.91,-92.54
43402370,0.074,-0.656,-0.099,150.692,18.165,-113.015
43402380,-0.07,-0.895,-0.118,140.682,-0.542,-146.527
43402390,-0.119,-0.988,-0.226,138.757,-34.3,-203.245
43402400,-0.08,-0.925,-0.43,132.212,-58.887,-259.63
43402410,-0.157,-0.78,-0.602,110.757,-63.577,-308.297
43402420,-0.506,-0.397,-0.768,66.132,-51.905,-321.125
43402420,-0.842,-0.188,-0.939,11.217,-42.805,-325.885
43402440,-1.031,-0.22,-0.945,-60.445,-49.105,-323.54
43402440,-1.164,-0.915,-0.033,-146.93,-39.847,-269.657
43402460,1.044,-1.998,1.187,-52.272,263.935,-133.385
43402460,-0.07,0.454,-0.909,429.38,275.17,46.077
43402480,-0.913,1.997,0.882,469.245,-181.737,236.88
43402480,0.563,-0.892,-0.483,-359.747,280,100.59
43402500,-1.998,-1.29,0.531,-221.182,60.322,82.355
43402500,0.904,0.006,0.653,83.387,-130.69,22.522
43402510,0.662,-1.096,0.767,0.07,-11.725,1.225
43402520,0.49,-0.072,1.056,35.507,21,22.89
43402530,-0.587,-0.171,1.04,22.54,30.152,20.23
43402540,0.346,-0.12,1.024,16.887,11.917,2.922
43402550,0.15,-0.084,1.107,5.792,7.787,7.752
43402560,-0.171,0.105,1.143,-17.01,-3.307,11.952
43402570,0.149,-0.192,1.057,-45.64,-18.182,4.2
43402580,0.29,-0.384,1.039,-59.447,-21.297,1.102
43402590,0.152,-0.086,1.216,-66.36,-20.772,3.167
43402600,0.143,-0.027,1.387,-95.182,-20.685,1.61
43402610,0.321,-0.025,1.51,-137.007,-16.8,-2.397
43402620,0.531,-0.069,1.326,-165.725,5.67,-3.5
43402630,0.076,-0.169,1.186,-191.975,39.672,-3.167
43402640,-0.149,-0.22,1.232,-221.935,30.852,-7.192
43402650,0.096,-0.421,1.586,-252.612,-4.83,-13.492
43402660,0.153,-0.623,1.907,-274.277,-57.487,-22.137
43402670,0.269,-1.558,1.543,-259.962,-74.952,-39.112
43402680,-0.1,-1.998,1.998,-256.252,-29.172,-71.207
43402690,-0.319,-1.998,1.128,-188.825,56.7,-101.395
43402700,-1.551,-1.612,-1.623,162.522,35.192,4.235
43402710,-1.233,0.022,0.062,278.477,-90.037,111.667
43402720,1.47,-1.65,-0.51,119.962,-55.282,98.035
43402730,0.731,-1.802,-0.524,39.917,-19.46,68.617
43402740,-1.125,-0.862,-0.391,47.477,-21.927,70.28
43402750,-0.699,-0.5,-0.23,59.885,-34.02,50.19
43402760,-0.186,-0.384,-0.086,34.807,-26.617,49.192
43402760,-0.473,-0.323,-0.008,0.052,4.742,52.937
43402780,-0.447,-0.405,0.15,10.097,14,29.522
43402780,-0.393,-0.309,0.239,27.212,15.032,24.605
43402800,-0.275,-0.106,0.312,34.93,28.227,35.91
43402800,-0.349,0.061,0.273,29.47,45.587,51.922
43402820,-0.425,0.153,0.226,17.552,54.372,61.722
43402820,-0.376,0.187,0.187,8.312,52.832,66.57
43402830,-0.183,0.199,0.121,4.76,54.932,67.707
43402840,-0.053,0.374,0.008,4.9,65.205,61.302
43402850,-0.003,0.804,-0.06,8.067,73.027,45.797
43402860,0.2,1.057,-0.034,2.66,90.527,35.052
43402870,0.169,1.023,-0.061,-9.537,111.265,30.292
43402880,0.193,0.983,-0.104,-6.072,123.042,24.815
43402890,0.208,1.103,-0.204,21.98,118.702,30.677
43402900,0.364,1.279,-0.274,52.447,102.69,35.595
43402910,0.502,1.311,-0.303,61.757,83.09,32.13
43402920,0.552,1.138,-0.538,52.552,67.34,22.82
43402930,0.576,0.997,-0.497,47.582,52.377,13.755
43402940,-0.742,-0.798,1.975,-24.955,-111.597,-47.6
43402950,1.509,-1.998,0.832,58.205,-199.78,-452.812
43402960,-1.949,0.784,-0.883,555.905,-204.995,-252.682
43402970,1.479,1.51,1.013,395.71,-181.09,-124.652
43402980,-0.56,1.982,0.498,-12.162,168.542,91.997
43402990,-0.85,-0.715,1.298,-130.672,94.622,173.932
43403000,-1.669,-1.893,0.103,-150.29,13.65,144.34
43403010,0.788,-1.313,0.704,-52.272,-54.635,114.45
43403020,-1.229,-1.065,0.253,5.582,1.54,78.995
43403030,-0.37,0.628,1.344,77.7,-19.547,50.837
43403040,-0.034,0.261,1.316,35.927,-22.4,-9.992
43403050,0.707,-0.326,1.048,-8.347,-29.697,-28.455
43403060,0.737,0.047,1.244,-9.677,-8.977,-14.245
43403070,0.599,0.011,1.477,-31.517,19.425,3.465
43403080,-0.076,0.135,1.745,-83.352,61.897,-3.5
43403090,0.539,0.294,1.641,-154.087,84.525,-5.18
43403100,0.491,0.237,1.478,-209.457,105.717,2.275
43403110,0.307,-0.022,1.43,-252.262,120.575,11.2
43403120,0.103,0.003,1.41,-281.417,122.587,25.392
43403130,0.414,-0.121,1.422,-298.76,122.867,26.127
43403140,0.37,-0.317,1.177,-315.017,152.337,48.317
43403150,0.322,-0.458,1.322,-313.495,148.242,64.575
43403160,-0.078,-0.825,1.834,-325.325,121.957,75.215
43403170,-0.238,-1.828,1.998,-335.807,92.645,69.65
43403170,0.008,-1.998,1.831,-288.242,73.22,22.54
43403180,0.126,-1.998,1.361,-136.535,47.285,-13.58
43403190,0.072,-1.149,-0.299,112.28,-37.152,-6.09
43403200,-0.092,0.569,-0.936,200.2,-53.147,20.195
43403210,-0.207,0.578,0.144,86.257,-55.177,52.237
43403220,0.536,-1.06,0.337,-61.057,-29.47,35.927
43403230,0.814,-1.262,0.22,-49.892,-33.95,23.135
43403240,0.284,-0.042,0.059,30.642,-62.387,20.037
43403250,0.163,0.646,0.076,54.162,-84.525,4.83
43403260,0.326,0.515,0.145,32.672,-90.23,-19.845
43403270,0.199,0.292,0.219,30.835,-84.612,-39.392
43403280,0.015,0.48,0.242,60.847,-80.692,-56.927
43403290,-0.056,0.737,0.215,89.95,-76.545,-66.815
43403300,-0.031,0.765,0.156,104.982,-67.305,-73.867
43403310,-0.117,0.696,0.125,115.255,-59.482,-83.422
43403320,-0.229,0.64,0.112,126.787,-64.662,-98.98
43403330,-0.189,0.493,0.012,136.5,-67.34,-113.907
43403340,-0.151,0.382,-0.004,141.155,-66.85,-124.267
43403350,-0.257,0.211,-0.032,137.62,-62.527,-131.39
43403360,-0.272,0.082,-0.106,129.29,-58.135,-135.975
43403370,-0.245,-0.137,-0.173,126.35,-55.912,-136.762
43403380,-0.288,-0.133,-0.294,102.252,-50.872,-137.567
43403390,-0.301,-0.312,-0.462,62.842,-39.235,-143.482
43403400,-0.21,-0.589,-0.581,22.575,-15.575,-153.02
43403410,-0.27,-0.896,-0.632,-35.892,34.142,-165.13
43403420,-0.694,-1.358,-0.783,-94.272,75.687,-184.572
43403430,-1.2,-1.669,0.782,-130.55,129.167,-154.945
43403440,-1.328,-1.998,-0.533,166.827,25.865,-197.12
43403450,1.998,1.796,1.738,545.405,-118.492,-278.197
43403460,-1.556,1.997,0.495,262.902,221.445,111.965
43403470,-1.498,-1.558,0.931,-341.302,200.41,90.667
43403480,-1.541,-0.2,0.909,-72.695,-47.46,85.767
43403490,0.707,-1.036,0.855,-19.967,-87.22,6.44
43403500,1.18,-0.736,0.908,-30.817,-38.797,-19.53
43403510,0.252,-0.067,1,-1.032,-9.817,14.122
43403510,-0.04,-0.346,0.969,-14,2.87,10.342
43403530,0.374,-0.459,0.977,-8.505,0.192,-0.542
43403530,0.289,0.187,1.316,-11.252,-0.455,4.427
43403550,0.259,-0.054,1.664,-67.76,-0.28,14.122
43403550,0.401,0.442,1.833,-147.752,3.237,20.3
43403570,0.614,0.115,1.769,-230.422,44.257,24.027
43403570,0.192,-0.056,1.434,-277.095,62.58,29.645
43403580,-0.002,-0.346,1.273,-310.012,30.852,45.692
43403590,0.283,-0.405,1.493,-337.872,-10.99,71.89
43403600,1.026,-0.355,1.911,-346.64,-21.052,109.235
43403610,0.502,-0.976,1.998,-350.21,15.085,150.237
43403620,-0.563,-1.954,1.875,-348.197,-25.777,129.272
43403630,-1.001,-1.998,1.032,-300.825,-31.622,57.277
43403640,-1.52,-1.998,0.693,-153.545,-18.077,93.187
43403650,-1.262,-1.496,-1.474,158.795,-145.845,198.082
43403660,0.274,-0.037,-1.538,280.857,-217.472,263.497
43403670,0.786,-0.114,-0.789,127.942,-206.272,269.132
43403680,1.168,-1.21,-0.601,-46.585,-143.71,208.565
43403690,0.75,-1.148,-0.57,-62.405,-107.782,158.532
43403700,0.311,-0.17,-0.355,-18.042,-105.787,123.672
43403710,0.417,0.094,-0.195,-31.307,-81.252,88.27
43403720,0.557,-0.049,-0.007,-43.207,-62.772,27.65
43403730,0.253,-0.022,0.139,-39.305,-52.675,-16.327
43403740,0.014,0.121,0.214,-34.877,-49.857,-34.702
43403750,0.008,0.162,0.249,-33.302,-50.662,-35.437
43403760,0.061,0.143,0.29,-32.252,-50.697,-35
43403770,0.047,0.105,0.28,-33.53,-45.675,-35.892
43403780,0.005,0.095,0.244,-30.555,-38.657,-35.542
43403790,-0.04,0.123,0.194,-25.76,-31.552,-32.112
43403800,-0.035,0.168,0.176,-27.667,-23.17,-29.137
43403810,-0.056,0.257,0.106,-46.252,-9.415,-32.252
43403820,-0.1,0.207,0.048,-72.065,1.75,-44.87
43403830,-0.545,0.251,-0.146,-90.09,-1.085,-63.542
43403840,-0.81,0.429,-0.128,-60.637,-45.972,-82.81
43403850,-0.889,0.746,-0.217,-86.502,-64.785,-72.1
43403850,-0.84,0.687,-0.224,-118.58,-62.125,-60.392
43403870,-1.016,1.138,-0.349,-146.86,-21.735,-29.032
43403870,-1.402,0.898,-0.831,-29.907,-7.577,1.995
43403890,-0.189,-0.817,-0.195,126.42,39.497,-29.12
43403890,0.62,-1.998,-0.204,-67.165,357.665,-318.255
43403910,-1.294,0.734,0.5,423.342,4.06,-376.53
43403910,1.998,1.997,-0.164,569.73,-32.987,-245.262
43403920,1.164,-0.921,1.404,381.08,263.55,71.487
43403930,-0.652,-0.633,1.637,374.92,240.572,206.517
43403940,0.192,1.907,1.998,480.76,50.05,203.227
43403950,-1.843,0.626,1.947,108.08,86.275,163.187
43403960,-0.597,1.48,1.959,-15.312,8.382,46.935
43403970,0.228,-0.215,1.356,-192.885,22.33,-35.525
43403980,0.762,-0.64,0.885,-196.402,43.4,-45.395
43403990,0.154,-0.864,0.76,-184.905,68.582,-10.902
43404000,0.163,-0.341,1.178,-161.56,47.897,18.375
43404010,0.228,-0.063,1.258,-183.347,42.98,32.217
43404020,0.111,-0.074,1.247,-210.752,46.987,36.155
43404030,0.143,-0.251,1.199,-235.637,50.61,37.415
43404040,0.053,-0.254,1.082,-251.072,47.075,44.8
43404050,0.122,-0.409,1.184,-268.397,31.045,50.505
43404060,0.743,-0.726,1.542,-298.235,19.88,71.977
43404070,0.884,-1.38,1.92,-312.182,36.19,114.205
43404080,0.23,-1.994,1.796,-299.302,46.147,120.225
43404090,-0.014,-1.998,1.326,-263.042,38.255,60.97
43404100,0.9,-1.989,0.314,-180.11,73.535,15.61
43404110,1.054,-1.603,-0.085,-8.995,145.32,49.63
43404120,1.275,-1.027,-0.514,62.09,188.72,-3.517
43404130,1.32,0.052,-0.287,66.552,191.432,-84.175
43404140,0.648,1.205,-0.194,53.515,128.59,-137.41
43404150,-0.037,1.77,0.171,-28.507,43.61,-183.785
43404160,-0.084,1.241,0.599,-105.717,-35,-194.25
43404170,0.228,0.653,0.856,-144.497,-82.215,-178.937
43404180,0.119,0.229,0.892,-116.007,-88.305,-145.792
43404190,-0.47,0.112,0.775,-47.652,-93.887,-116.2
43404200,-1.082,0.025,0.549,18.672,-116.812,-71.067
43404210,-1.329,-0.075,0.322,83.335,-155.837,-9.625
43404220,-1.043,-0.186,0.111,122.5,-183.785,48.702
43404230,-0.698,-0.362,-0.037,147.367,-189.612,99.172
43404240,-0.342,-0.521,-0.131,159.827,-172.567,136.412
43404250,-0.136,-0.565,-0.291,155.242,-142.24,146.492
43404260,-0.083,-0.478,-0.491,139.37,-116.112,128.082
43404260,-0.056,-0.278,-0.632,105.35,-90.65,95.795
43404280,-0.11,-0.174,-0.668,58.362,-66.43,60.357
43404280,-0.327,0.109,-0.761,-5.215,-37.537,26.162
43404300,-0.621,0.001,-0.64,-4.305,-32.515,-2.642
43404300,-0.209,-0.8,-1.739,60.2,-20.3,-50.557
43404320,-0.268,-1.935,0.958,61.232,257.88,-57.225
43404320,-0.511,-1.998,-0.75,-150.815,279.282,-346.535
43404330,-1.077,0.905,-0.384,489.807,-51.152,-281.645
43404340,0.829,1.997,-0.444,534.31,-286.685,-288.802
43404350,1.952,-0.829,1.789,277.025,52.955,-163.38
43404360,-0.288,-1.679,1.271,292.722,149.292,-73.675
43404370,1.961,1.838,1.833,457.642,116.27,12.057
43404380,-1.228,0.275,1.997,215.337,209.107,115.36
43404390,-1.304,1.339,1.791,83.16,86.607,107.17
43404400,-0.666,0.439,1.538,-53.427,-12.74,63.735
43404410,-0.193,-0.196,1.184,-136.062,-48.072,30.082
43404420,-0.217,-0.344,1.097,-154.962,-61.74,10.482
43404430,-0.185,-0.261,1.176,-160.982,-74.707,-5.652
43404440,-0.018,-0.179,1.253,-179.795,-86.502,-18.707
43404450,0.163,-0.138,1.233,-206.062,-92.995,-21.98
43404460,0.21,-0.159,1.095,-229.827,-90.265,-15.662
43404470,0.178,-0.323,0.951,-253.89,-93.135,-8.452
43404480,0.328,-0.467,0.883,-270.83,-115.867,-3.027
43404490,0.521,-0.416,0.946,-290.78,-131.372,8.96
43404500,0.496,-0.286,1.019,-311.325,-134.505,32.357
43404510,0.383,-0.74,1.262,-325.972,-139.422,51.572
43404520,0.408,-1.75,1.584,-325.447,-146.142,48.702
43404530,0.971,-1.998,1.701,-259.84,-141.435,36.137
43404540,0.761,-1.998,0.751,-184.677,-19.74,51.817
43404550,-1.349,-1.988,1.767,-107.59,157.517,84.42
43404560,-1.998,-1.926,0.665,-34.125,78.89,110.74
43404570,-1.299,-1.496,-1.397,258.737,-171.71,191.362
43404580,0.393,-0.124,-0.967,366.625,-215.6,269.097
43404580,0.417,0.694,-0.686,226.992,-189.63,259.35
43404600,0.402,0.424,-0.112,59.587,-123.252,174.212
43404600,0.335,-0.217,0.093,-23.257,-61.232,91.437
43404620,-0.097,-0.091,0.193,-33.32,-22.102,54.705
43404620,-0.317,0.37,0.384,-18.322,-7.927,7.21
43404640,-0.705,0.304,0.428,-32.375,7.49,-4.427
43404640,-0.737,0.134,0.643,-10.202,-1.417,-25.725
43404660,-0.66,-0.061,0.733,20.895,-3.062,-23.765
43404660,-0.695,-0.14,0.65,54.547,8.417,2.275
43404670,-0.681,-0.117,0.425,91.402,26.635,27.685
43404680,-0.634,-0.033,0.276,122.325,39.445,40.547
43404690,-0.682,-0.132,0.143,130.322,47.635,54.512
43404700,-0.625,-0.152,0.015,139.107,46.725,60.27
43404710,-0.214,-0.097,-0.014,134.172,50.365,38.132
43404720,-0.239,-0.303,-0.203,102.497,73.307,52.062
43404730,-0.32,-0.315,-0.546,101.57,74.025,38.902
43404740,1.241,-0.767,-1.457,115.85,91.77,-43.872
43404750,1.998,-1.843,1.781,-3.29,-7.192,-208.39
43404760,1.42,-1.998,-1.766,28.035,-3.395,-539.787
43404770,-0.437,-0.592,0.502,431.987,29.102,-432.81
43404780,1.998,1.853,0.173,437.22,-35.192,-145.25
43404790,1.304,-1.408,1.321,415.607,157.097,54.075
43404800,1.033,0.197,1.617,452.182,201.495,230.405
43404810,-1.581,1.748,1.998,400.627,178.657,214.777
43404820,-1.804,1.994,1.61,156.397,69.982,87.675
43404830,0.261,-0.175,1.217,-72.257,-59.692,-37.59
43404840,1.228,-0.735,0.956,-135.887,-73.605,-40.862
43404850,0.555,-0.394,0.91,-116.042,-42.28,8.61
43404860,0.405,-0.713,0.771,-77.805,-30.03,22.33
43404870,0.221,-0.392,0.896,-65.992,-17.342,30.555
43404880,0.204,-0.477,0.978,-77.192,-1.785,21.997
43404890,0.331,-0.228,1.178,-70.227,7.367,12.635
43404900,0.408,-0.288,1.189,-94.167,32.515,9.135
43404910,0.521,-0.346,1.227,-110.845,55.615,11.655
43404920,0.612,-0.369,1.197,-130.777,74.637,25.497
43404930,0.706,-0.564,1.162,-152.46,84.962,44.345
43404940,0.52,-0.699,1.087,-166.967,79.607,77.84
43404950,0.837,-0.853,1.319,-166.792,61.53,108.097
43404960,1.124,-0.986,1.409,-154.262,81.042,141.382
43404970,0.504,-0.952,1.795,-136.377,108.36,169.68
43404980,-0.684,-1.137,1.031,-142.905,55.72,133.717
43404990,-1.454,-1.801,0.855,-136.395,-22.05,58.065
43405000,-0.86,-1.998,-0.178,-134.977,-61.46,-32.725
43405010,0.846,-1.522,-0.883,44.345,-109.305,-44.187
43405010,-0.367,-0.172,-0.685,127.295,-63.49,13.387
43405030,-0.843,-0.245,-0.294,14.192,-4.48,2.467
43405030,-0.21,-1.147,-0.218,-67.917,8.242,-3.832
43405050,0.269,-1.069,-0.198,-49.927,-2.537,11.06
43405050,0.324,-0.398,-0.091,-14.997,-2.59,18.602
43405070,0.332,-0.145,-0.048,-34.16,16.03,3.167
43405070,0.342,-0.277,0.045,-55.79,29.365,-22.487
43405080,0.263,-0.272,0.091,-71.855,27.405,-59.412
43405090,0.129,-0.156,0.08,-82.302,16.572,-95.9
43405100,0.037,-0.095,0.06,-91.42,4.095,-125.79
43405110,-0.109,-0.068,0.055,-102.62,-10.22,-148.855
43405120,-0.347,0.025,0.053,-116.182,-29.102,-160.02
43405130,-0.686,0.076,0.068,-129.412,-58.992,-154.087
43405140,-1.04,0.127,0.007,-149.17,-99.12,-131.442
43405150,-0.974,-0.001,0.128,-125.615,-151.077,-95.9
43405160,-0.665,-0.06,0.245,-68.215,-165.795,-48.877
43405170,-0.646,-0.004,1.887,-39.602,-92.505,-9.8
43405180,1.619,-1.597,1.998,66.85,163.187,49.105
43405190,0.833,-1.998,-1.544,351.102,241.132,15.015
43405200,-1.631,0.447,0.572,546.98,64.627,-162.837
43405210,0.541,0.63,-0.141,442.645,48.44,-78.365
43405220,1.917,0.471,1.799,498.925,36.19,14.227
43405230,0.092,-0.337,1.74,423.587,80.867,61.705
43405240,0.479,1.171,1.998,390.495,76.755,87.01
43405250,-0.742,1.622,1.979,237.597,85.242,69.037
43405260,-0.626,0.804,1.551,42.455,47.582,22.382
43405270,0.042,-0.191,1.16,-55.737,8.715,-5.617
43405280,0.249,-0.639,0.948,-85.89,5.967,-6.02
43405290,0.067,-0.409,1.039,-55.825,-6.527,14.577
43405300,0.209,0.012,1.405,-69.037,-19.617,24.64
43405310,0.093,-0.109,1.455,-126.35,-15.365,41.037
43405320,0.137,-0.141,1.402,-161,-16.59,42.822
43405330,0.064,-0.274,1.147,-192.692,-21,50.785
43405330,-0.069,-0.277,1.07,-201.092,-45.29,51.835
43405350,0.152,-0.346,1.194,-217.787,-69.58,56.98
43405350,0.492,-0.508,1.197,-239.75,-81.76,77.612
43405370,0.616,-0.855,1.363,-251.212,-83.072,107.87
43405370,0.001,-1.299,1.615,-270.427,-88.585,125.265
43405390,-0.732,-1.949,1.478,-291.025,-134.015,108.097
43405390,-0.554,-1.998,1.618,-260.645,-160.212,107.485
43405410,-1.747,-1.998,0.453,-43.592,-143.062,134.54
43405410,-0.828,-1.073,-1.867,302.697,-191.677,243.005
43405420,0.175,0.455,-1.476,331.747,-146.667,298.287
43405430,0.516,0.242,-1.122,123.9,-116.41,224.402
43405440,1.212,-1.042,-0.548,-59.675,-25.83,99.032
43405450,0.626,-1.378,-0.477,-100.362,34.72,8.61
43405460,-0.145,-0.704,-0.402,-54.53,42.875,-55.44
43405470,-0.277,-0.357,-0.246,-46.917,54.32,-96.582
43405480,-0.153,-0.345,-0.057,-62.597,63.437,-136.552
43405490,-0.23,-0.315,0.154,-82.582,82.075,-166.005
43405500,-0.597,-0.241,0.276,-106.207,104.947,-171.885
43405510,-0.712,-0.217,0.316,-123.06,119.087,-169.155
43405520,-0.732,-0.229,0.361,-132.597,125.72,-158.357
43405530,-0.879,-0.202,0.395,-140.857,122.115,-137.357
43405540,-0.895,-0.114,0.43,-140.945,106.925,-108.325
43405550,-0.744,-0.09,0.394,-144.707,89.442,-69.825
43405560,-0.906,-0.125,0.315,-128.292,73.885,-24.08
43405570,-0.687,-0.24,0.313,-28.122,26.302,26.53
43405580,-0.31,0.072,0.018,2.24,26.372,81.655
43405590,-0.048,1.014,1.204,24.972,38.01,122.395
43405600,1.196,1.021,1.983,-1.382,-102.462,91.07
43405610,1.998,-1.998,-0.23,124.407,-195.387,-156.52
43405620,0.389,-1.79,-1.854,525.7,302.575,-276.465
43405630,-1.638,0.935,0.789,481.547,-30.415,-100.082
43405640,1.998,0.162,1.328,509.897,-141.4,-109.795
43405650,0.012,0.528,1.865,503.982,7.77,38.447
43405660,1.348,0.429,1.998,426.125,82.197,97.79
43405670,-0.647,1.88,1.989,313.162,86.957,119.087
43405680,-0.826,1.527,1.902,46.795,40.232,83.3
43405690,0.071,0.396,1.643,-110.162,-25.305,45.08
43405700,0.529,-0.393,1.258,-192.395,-14.735,20.09
43405710,0.192,-0.516,1.005,-201.95,22.96,17.062
43405720,0.175,-0.682,1.026,-193.865,39.515,23.047
43405730,0.059,-0.193,0.82,-159.635,34.23,33.46
43405740,0.234,-0.456,1.012,-157.202,39.637,15.855
43405750,-0.083,-0.601,0.954,-173.39,51.887,33.057
43405760,-0.032,-0.551,1,-139.335,41.702,27.037
43405760,0.014,-0.531,0.93,-130.182,35.105,36.855
43405780,-0.066,-0.545,0.948,-125.072,22.207,43.977
43405780,-0.201,-0.564,1.171,-132.125,-1.925,42.367
43405800,-0.291,-0.612,1.368,-148.137,-32.41,35.262
43405800,-0.153,-1.121,1.93,-162.102,-47.88,33.495
43405820,-0.302,-1.977,1.996,-162.925,-67.917,22.242
43405820,-1.635,-1.998,0.953,-109.48,-102.147,-7.595
43405830,-0.969,-1.645,-0.652,109.795,-83.545,68.495
43405840,-0.383,-0.514,-0.222,198.73,-104.545,101.99
43405850,0.728,-0.79,-0.307,89.075,-63.63,20.947
43405860,0.267,-1.136,-0.573,1.435,-2.642,-21.857
43405870,-0.37,-0.832,-0.525,-15.767,6.352,-38.36
43405880,-0.174,-0.584,-0.332,-22.137,-7.175,-46.882
43405890,0.076,-0.545,-0.226,-37.835,-17.465,-57.137
43405900,-0.067,-0.435,-0.134,-44.327,-18.515,-65.905
43405910,-0.256,-0.26,-0.018,-47.792,-14.21,-65.642
43405920,-0.231,-0.134,0.112,-59.185,-9.782,-64.872
43405930,-0.179,-0.09,0.177,-72.817,0.245,-57.925
43405940,-0.299,-0.017,0.216,-78.12,8.505,-48.125
43405950,-0.428,0.07,0.263,-78.732,7.21,-38.762
43405960,-0.365,0.057,0.264,-79.537,6.282,-20.212
43405970,-0.28,0.03,0.207,-78.365,14.787,13.265
43405980,-0.324,0.162,0.123,-76.842,22.697,46.795
43405990,-0.383,0.295,0.039,-83.527,23.625,73.325
43406000,-0.365,0.357,-0.056,-93.73,20.895,98.455
43406010,-0.293,0.733,-0.237,-93.432,22.75,121.555
43406020,-0.131,1.582,-0.555,-69.09,29.47,143.85
43406030,-0.254,1.696,-0.644,-41.23,37.765,160.562
43406040,0.075,-0.433,1.955,-185.535,-106.05,128.52
43406050,1.998,-1.998,-1.765,60.655,-36.47,-426.177
43406060,-1.541,0.406,-0.879,554.417,32.235,-343.63
43406070,1.094,1.997,0.268,555.87,-202.492,-85.05
43406080,0.824,-1.098,1.599,348.197,36.68,-49.105
43406080,0.305,-0.373,1.727,313.617,81.987,39.427
43406100,0.715,1.782,1.998,384.037,37.887,153.16
43406100,-0.79,0.712,1.963,84.035,60.375,158.375
43406120,-0.449,0.863,1.766,-20.44,6.125,102.48
43406120,-0.303,-0.25,1.199,-133.735,21.98,30.485
43406140,-0.023,-0.271,1.022,-143.955,24.535,4.69
43406140,-0.049,-0.351,1.185,-161.542,22.82,0.35
43406160,0.054,-0.275,1.303,-187.74,12.32,14.175
43406160,0.197,0.156,1.418,-185.202,-8.96,23.24
43406170,0.274,-0.144,1.262,-237.737,-11.41,20.615
43406180,0.063,-0.394,0.911,-274.05,-10.972,40.495
43406190,0.213,-0.355,1.083,-277.095,-44.117,51.222
43406200,0.719,-0.484,1.204,-307.65,-53.497,85.382
43406210,0.686,-0.773,1.109,-319.392,-50.382,128.345
43406220,0.198,-1.044,1.143,-320.547,-56.175,155.12
43406230,-0.142,-1.692,1.448,-337.207,-104.772,154.157
43406240,0.154,-1.998,1.425,-322.98,-159.95,144.847
43406250,0.379,-1.998,0.866,-253.085,-181.895,88.2
43406260,-0.626,-1.724,0.645,-188.58,-70.805,102.935
43406270,-1.581,-1.071,0.077,-0.297,-94.552,99.365
43406280,0.024,-0.943,-0.693,195.09,-143.482,117.197
43406290,0.579,-0.05,-0.868,229.495,-81.445,163.642
43406300,0.272,0.652,-0.805,178.727,-37.187,140.315
43406310,0.224,0.645,-0.591,72.03,-10.5,70.63
43406320,0.248,0.176,-0.302,-30.31,22.015,19.582
43406330,0.292,-0.014,-0.132,-60.585,37.45,-35.682
43406340,0.12,0.068,0.068,-53.357,38.15,-109.13
43406350,-0.392,0.126,0.129,-53.707,44.065,-147.787
43406360,-0.733,0.136,0.131,-49.315,29.96,-180.022
43406370,-0.786,0.103,0.195,-45.062,2.047,-193.27
43406380,-0.722,-0.01,0.205,-43.295,-17.01,-180.582
43406390,-0.625,-0.079,0.212,-38.01,-24.097,-158.357
43406400,-0.523,-0.157,0.223,-32.777,-17.01,-128.17
43406410,-0.419,-0.315,0.188,-23.135,-1.767,-93.24
43406420,-0.306,-0.474,0.118,-11.41,22.382,-57.277
43406430,-0.332,-0.862,0.062,-1.522,52.972,-10.815
43406440,-0.863,-0.763,-0.165,49.717,59.605,60.69
43406450,-0.224,-0.354,-0.416,140.07,-10.307,-12.582
43406460,0.385,-0.714,-1.701,147.787,14.402,-44.817
43406470,1.833,-1.574,1.795,113.505,120.942,-59.937
43406480,-0.524,-1.998,0.199,-23.292,-37.1,-202.93
43406490,-1.652,-0.52,-0.563,420.07,30.257,-395.815
43406500,1.691,1.997,0.32,553.245,-110.232,-222.495
43406510,1.998,-0.211,1.008,482.335,8.085,-9.135
43406510,0.27,-1.927,0.819,376.81,173.512,49.07
43406520,1.285,0.981,1.801,477.732,106.907,120.33
43406530,-0.453,1.625,1.998,396.567,96.81,167.072
43406540,-1.269,1.017,1.998,164.5,74.322,111.65
43406550,-0.686,1.094,1.935,25.952,9.327,36.312
43406560,0.243,0.197,1.526,-132.667,-26.495,-19.81
43406570,0.61,-0.248,1.185,-206.552,-29.75,-23.45
43406580,0.533,-0.417,1.061,-229.862,-15.47,-4.9
43406590,0.535,-0.568,1.122,-240.625,-4.025,16.03
43406600,0.165,-0.052,1.041,-229.582,-7.315,42.507
43406610,0.667,-0.234,1.082,-231,-16.345,10.045
43406620,0.167,-0.617,0.902,-275.607,19.267,50.592
43406630,0.203,-0.525,0.867,-251.755,8.715,41.93
43406640,0.327,-0.448,0.95,-256.427,-5.635,56.647
43406650,0.75,-0.705,1.084,-267.592,-8.47,85.557
43406660,0.944,-1.154,1.36,-260.05,12.792,117.215
43406670,0.885,-1.672,1.441,-239.487,63.77,139.422
43406680,0.723,-1.919,1.352,-198.712,111.702,139.16
43406690,-0.038,-1.707,0.805,-169.295,118.142,110.075
43406700,-0.565,-1.353,0.404,-133.157,82.74,49.77
43406710,-0.78,-1.216,-0.033,-83.562,36.82,36.067
43406720,-0.904,-0.859,0.192,-28.787,-34.16,44.712
43406730,0.037,-0.582,-0.433,42.28,-116.76,58.887
43406740,0.607,-0.384,-0.414,97.667,-105.245,95.742
43406750,0.535,0.066,-0.297,88.672,-65.467,94.605
43406760,0.234,0.256,-0.209,48.195,-31.517,79.415
43406770,0.145,0.143,-0.118,7.822,-19.775,59.325
43406780,0.152,0.003,-0.058,-3.272,-29.19,37.012
43406790,0.131,-0.014,-0.023,11.742,-45.85,21.28
43406800,0.133,0.086,0.016,36.68,-60.637,4.007
43406810,0.122,0.212,0.048,51.24,-67.532,-11.165
43406820,0.114,0.306,0.069,55.93,-68.81,-22.785
43406830,0.064,0.357,0.082,55.107,-68.862,-33.232
43406830,-0.013,0.375,0.069,50.155,-71.382,-43.837
43406850,-0.145,0.036,0.027,34.86,-74.952,-33.635
43406850,-0.556,0.164,-0.098,67.182,-101.377,-1.82
43406870,0.168,0.291,-0.027,181.107,-196.017,-75.442
43406870,0.204,-0.269,-1.265,162.47,-173.547,-95.515
43406890,0.128,-0.973,0.372,117.302,63.402,-74.235
43406890,-1.272,-1.998,-0.093,-233.432,91.315,-173.232
43406910,1.06,-0.806,-1.652,373.345,31.307,-273.42
43406910,-1.222,1.997,0.688,571.2,-188.212,-151.41
43406920,1.998,1.696,0.244,534.607,-92.312,-72.537
43406930,0.237,-1.775,1.805,262.657,225.697,7.297
43406940,-0.799,-0.084,1.143,349.072,153.947,0.647
43406950,0.872,1.062,1.709,403.742,27.352,-48.02
43406960,-0.256,0.624,1.736,90.335,60.077,-82.95
43406970,0.216,0.843,1.867,0.927,8.155,10.587
43406980,0.331,0.23,1.436,-128.135,-15.785,37.94
43406990,0,-0.378,0.888,-183.417,-8.19,33.46
43407000,0.005,-0.671,0.917,-189.262,-6.282,30.572
43407010,-0.007,-0.493,1.02,-170.87,-26.687,37.45
43407020,0.561,-0.308,1.136,-172.777,-45.902,13.772
43407030,0.311,-0.582,1.03,-202.16,-46.2,35.77
43407040,0.446,-0.446,0.992,-193.76,-59.535,44.555
43407050,0.389,-0.495,0.934,-205.87,-54.092,53.532
43407060,0.339,-0.53,0.921,-210.122,-52.552,59.237
43407070,0.388,-0.451,0.907,-214.165,-56.035,67.742
43407080,0.44,-0.53,0.671,-227.36,-64.977,92.19
43407090,0.605,-0.966,1.06,-249.165,-40.897,126.595
43407100,0.7,-1.018,1.112,-226.852,-17.185,151.987
43407110,0.285,-0.917,1.021,-175.56,-22.19,179.305
43407120,0.273,-1.873,0.857,-176.505,-1.977,154.577
43407130,0.133,-1.827,0.854,-163.607,-7.542,75.757
43407140,-0.285,-1.217,0.031,-103.39,-18.287,10.08
43407150,-0.557,-0.701,0.149,-4.69,-9.065,19.635
43407160,-0.299,-0.584,-0.136,42.612,5.005,44.8
43407170,0.444,-0.312,-0.26,87.202,0.945,24.202
43407180,0.291,0.024,-0.305,95.235,21.77,-7.14
43407190,0.018,0.151,-0.143,49.297,63.017,-33.845
43407190,0.046,0.14,-0.041,4.2,92.312,-64.33
43407210,-0.063,0.035,0.048,-13.685,97.37,-98
43407210,-0.27,0.07,0.103,-28.962,90.247,-129.062
43407230,-0.447,0.02,0.149,-37.607,78.067,-142.24
43407230,-0.6,0.012,0.182,-31.15,55.545,-135.607
43407250,-0.59,0.073,0.219,-14.35,28,-115.815
43407250,-0.472,0.229,0.239,6.667,8.522,-85.312
43407260,-0.416,0.316,-0.012,28.227,4.375,-43.75
43407270,-0.264,-0.099,-0.844,83.37,28.227,-32.952
43407280,0.374,-0.225,1.026,109.217,88.13,-63.927
43407290,-0.898,-1.998,0.121,-187.162,75.897,-217.35
43407300,-1.416,-0.722,-0.408,297.115,-31.587,-375.935
43407310,1.28,1.997,-0.474,468.65,-85.207,-254.87
43407320,1.998,0.195,1.067,399.647,2.59,-142.415
43407330,0.998,-1.758,0.76,357.56,180.355,-13.895
43407340,1.446,0.146,1.725,442.75,166.635,104.335
43407350,-0.202,1.385,1.951,403.007,145.53,164.132
43407360,-1.195,1.049,1.987,214.882,109.427,131.687
43407370,-1.137,1.009,1.955,85.557,42.297,52.797
43407380,-0.107,0.525,1.738,-58.8,-18.602,-14.98
43407390,0.389,0.089,1.457,-166.04,-49.507,-25.2
43407400,0.35,-0.176,1.204,-226.642,-51.135,-13.02
43407410,0.328,-0.44,1.142,-256.375,-57.33,-1.522
43407420,0.23,-0.229,1.094,-264.442,-70.945,16.485
43407430,0.295,-0.234,1.068,-276.99,-81.847,26.6
43407440,0.185,-0.326,0.946,-287.857,-81.445,39.06
43407450,0.108,-0.426,0.773,-286.037,-87.815,44.677
43407460,0.31,-0.475,0.738,-286.562,-97.632,49.105
43407470,0.449,-0.467,0.771,-294.105,-105.35,61.67
43407480,0.711,-0.708,0.938,-295.137,-110.005,80.132
43407490,0.765,-1.238,1.23,-286.212,-84.192,110.932
43407500,0.655,-1.84,1.593,-272.212,-56.962,118.982
43407510,1.004,-1.998,1.128,-233.642,-18.427,91.297
43407520,0.349,-1.879,0.648,-174.65,66.57,78.645
43407530,-1.617,-0.922,1.586,-136.132,131.547,57.33
43407540,-1.783,-1.364,0.596,-77.507,25.48,76.387
43407550,0.526,-1.682,-0.55,177.345,-77.91,203.472
43407560,1.602,-0.407,-0.427,319.795,-6.632,313.652
43407570,1.504,0.64,-0.342,303.59,49.49,309.785
43407580,1.244,0.627,-0.328,207.725,54.757,223.107
43407580,1.042,0.489,-0.362,127.067,48.16,152.827
43407600,1.235,0.58,-0.194,113.47,-1.907,19.495
43407600,0.675,0.633,-0.134,84.07,-21.98,-56.892
43407620,0.355,0.653,-0.012,60.602,-28.472,-135.327
43407620,0.072,0.524,0.115,38.535,-26.04,-201.81
43407640,-0.275,0.272,0.183,8.032,-12.547,-230.72
43407640,-0.788,-0.039,0.084,-4.655,7.28,-215.127
43407660,-1.165,-0.085,0.026,16.222,18.865,-183.995
43407660,-1.311,-0.05,-0.011,44.432,13.912,-163.677
43407670,-1.451,-0.24,-0.067,47.67,10.605,-140.892
43407680,-1.055,-1.381,-1.481,59.5,31.745,-105.157
43407690,-0.745,-1.998,1.292,53.777,221.27,-88.62
43407700,-1.561,-1.989,-1.88,-91.525,186.41,-408.852
43407710,-0.75,1.633,0.704,525.332,-145.04,-363.562
43407720,1.998,1.997,-0.158,541.835,-146.632,-215.88
43407730,1.96,-0.804,1.462,252.122,104.912,-108.657
43407740,0.256,-1.773,0.869,199.57,229.757,-28.927
43407750,1.768,1.773,1.476,471.905,156.117,97.615
43407760,-1.184,0.691,1.99,288.627,193.847,128.607
43407770,-1.477,1.14,1.878,141.225,115.08,71.487
43407780,-0.716,0.569,1.547,29.907,25.2,5.775
43407790,0.173,-0.317,1.159,-69.265,-22.05,-22.102
43407800,-0.265,0.083,1.192,-92.26,-44.8,-12.687
43407810,0.681,-0.559,0.915,-126.017,-52.5,-20.125
43407820,0.379,-0.577,0.981,-123.83,-36.312,-0.297
43407830,0.162,-0.267,1.111,-122.062,-42.77,16.31
43407840,0.195,-0.24,1.183,-148.505,-48.107,15.68
43407850,0.384,-0.18,1.222,-168.087,-43.96,13.23
43407860,0.498,-0.172,1.215,-191.852,-34.702,19.512
43407870,0.531,-0.242,1.145,-215.687,-20.177,28.945
43407880,0.453,-0.306,1.068,-228.112,-9.852,37.467
43407890,0.44,-0.306,0.997,-242.76,-5.005,43.522
43407900,0.532,-0.415,1.073,-255.972,-3.43,53.532
43407910,0.597,-0.693,1.114,-271.565,10.622,69.772
43407920,0.607,-0.987,1.15,-257.022,29.942,83.16
43407920,0.711,-1.215,1.397,-233.205,61.32,85.61
43407940,0.499,-1.497,1.209,-213.08,118.265,73.832
43407940,-0.224,-1.654,0.738,-193.165,137.812,22.295
43407960,-0.34,-1.157,0.706,-190.067,132.842,-34.247
43407960,0.482,-0.829,0.061,-146.79,167.3,-30.922
43407980,0.254,0.039,1.252,-103.39,144.69,-21.875
43407980,-0.907,1.025,0.99,-117.81,27.107,-78.47
43408000,-0.644,1.309,1.32,-70.717,-43.12,-63.227
43408000,-0.022,0.849,1.128,23.887,-94.272,29.417
43408010,0.172,1.151,0.988,129.692,-149.52,61.18
43408020,0.152,1.298,0.671,186.952,-161.945,61.495
43408030,-0.195,0.821,0.307,199.955,-164.5,34.965
43408040,-0.658,0.395,-0.126,185.045,-169.505,0.7
43408050,-0.773,0.077,-0.552,182.227,-167.212,-26.337
43408060,-0.985,-0.194,-0.951,165.707,-136.64,-38.972
43408070,-1.19,-0.499,-1.041,134.4,-86.8,-26.005
43408080,-1.363,-0.91,-1.037,91.385,-34.597,-5.355
43408090,-0.878,-1.88,-1.642,75.95,6.545,-25.287
43408100,-0.192,-1.998,0.595,-119.245,147.472,-206.832
43408110,-1.861,-0.86,-0.415,125.895,-39.655,-510.632
43408120,1.067,1.997,-0.141,568.872,-110.302,-317.747
43408130,1.998,1.238,1.266,473.357,-72.852,-61.67
43408140,1.029,-1.998,0.808,127.417,284.025,-69.615
43408150,0.893,-0.054,0.963,310.52,243.862,78.662
43408160,0.022,1.364,1.99,383.862,202.982,136.307
43408170,-1.822,0.326,1.691,140.35,164.745,133.437
43408180,-1.23,0.952,1.735,77.525,42.297,53.095
43408190,-0.145,-0.017,1.212,-59.867,-8.697,-12.757
43408200,0.791,-0.184,1.276,-90.877,-44.695,-24.22
43408210,0.463,-0.517,0.992,-138.04,-24.395,3.377
43408220,0.357,-0.441,1.028,-136.342,-24.815,17.202
43408230,0.096,-0.336,1.15,-154.157,-22.277,29.015
43408240,0.18,-0.195,1.223,-171.115,-25.322,28.157
43408250,0.222,-0.181,1.221,-192.447,-27.072,29.015
43408260,0.213,-0.272,1.171,-214.497,-32.305,33.04
43408270,0.172,-0.408,1.05,-232.207,-47.267,40.512
43408280,0.107,-0.429,0.962,-248.062,-74.025,54.11
43408290,0.444,-0.42,1.032,-267.26,-104.597,66.57
43408300,0.76,-0.55,1.117,-278.425,-111.177,99.155
43408310,0.775,-1.031,1.164,-276.552,-82.687,131.495
43408320,0.839,-1.595,1.472,-249.41,-29.347,134.645
43408330,0.716,-1.966,1.398,-198.975,40.932,127.662
43408330,0.486,-1.898,0.723,-137.83,95.882,87.36
43408350,-0.36,-1.508,1.024,-57.82,148.942,27.195
43408350,-1.277,-1.232,-0.091,9.537,119.91,14.77
43408370,-0.007,-0.921,-1.049,148.12,43.54,50.067
43408370,0.35,-0.127,-0.796,200.952,12.075,93.485
43408390,0.38,0.367,-0.562,133.647,14.63,77.192
43408390,0.488,0.192,-0.259,60.865,22.382,35.297
43408410,0.512,0.024,0.043,15.435,32.165,-12.442
43408410,0.286,0.163,0.104,-16.905,50.942,-43.365
43408420,-0.139,0.317,0.09,-35.105,55.685,-66.535
43408430,-0.514,0.233,0.079,-32.515,35.822,-78.452
43408440,-0.607,0.122,0.091,-11.672,2.695,-82.442
43408450,-0.459,0.108,0.145,19.32,-23.905,-80.902
43408460,-0.321,0.149,0.179,32.27,-21.017,-64.592
43408470,-0.398,0.168,0.179,25.445,8.575,-35.805
43408480,-0.546,0.067,0.113,23.047,32.9,-15.837
43408490,-0.552,0.153,0.051,59.237,27.877,-12.967
43408500,-0.352,0.341,-0.224,100.695,18.305,-21.14
43408510,-1.244,-0.531,1.696,20.65,22.61,-35.507
43408520,1.016,-1.998,-0.7,-178.867,95.707,-360.062
43408530,-0.285,-0.311,-1.07,440.667,91.035,-340.252
43408540,-0.481,1.997,-0.462,524.422,-108.657,-134.085
43408550,1.998,0.632,1.621,370.317,-70.017,-116.55
43408560,0.273,-1.998,1.343,255.955,121.8,-28.245
43408570,1.108,0.291,1.539,402.115,66.57,62.947
43408580,0.323,1.26,1.94,376.862,89.425,126.315
43408590,-0.966,0.677,1.887,182.332,99.295,125.125
43408600,-0.802,1.322,1.84,71.575,28.525,75.985
43408610,-0.294,-0.072,1.458,-85.12,0.297,6.79
43408620,0.377,-0.06,1.115,-128.257,-15.925,-13.23
43408630,0.252,-0.477,1.044,-145.652,-3.5,-21.437
43408640,0.215,-0.487,1.128,-155.137,8.907,-6.002
43408650,0.189,-0.116,1.32,-160.492,8.435,4.515
43408660,0.085,-0.156,1.29,-197.312,10.902,12.985
43408670,0.095,-0.265,1.152,-218.715,6.492,8.662
43408670,-0.042,-0.277,0.992,-229.582,-9.66,7.805
43408690,0.01,-0.318,1.043,-245.612,-40.705,13.737
43408690,0.586,-0.391,1.231,-264.652,-67.655,30.012
43408710,0.669,-0.542,1.178,-283.115,-74.06,55.037
43408710,0.356,-0.88,1.196,-297.99,-70.56,71.662
43408730,0.107,-1.347,1.355,-306.827,-80.972,55.51
43408730,-0.056,-1.881,1.434,-305.655,-106.855,29.837
43408750,-0.506,-1.998,0.212,-259.56,-81.725,31.57
43408750,-0.602,-1.98,-0.385,-153.825,20.317,45.57
43408760,-0.39,-1.57,-0.807,-54.88,95.147,78.907
43408770,-0.208,-1.034,-0.573,47.985,108.272,77.875
43408780,-0.225,-0.545,-0.587,57.995,110.512,72.87
43408790,0.163,-0.389,-0.461,45.22,100.887,64.05
43408800,0.464,-0.329,-0.295,27.562,99.015,53.497
43408810,0.615,-0.127,-0.064,15.47,97.072,33.88
43408820,0.595,0.07,0.036,-21.962,101.972,7.63
43408830,0.33,0.172,0.071,-54.075,98.192,-21.07
43408840,-0.054,0.256,0.082,-64.627,76.475,-48.825
43408850,-0.21,0.306,0.177,-49.595,42.175,-74.532
43408860,-0.267,0.35,0.248,-33.967,18.62,-78.802
43408870,-0.303,0.429,0.301,-22.995,9.747,-65.047
43408880,-0.349,0.378,0.321,-20.16,14.42,-39.497
43408890,-0.499,0.322,0.312,-5.477,20.632,6.142
43408900,-0.467,0.353,0.149,1.05,23.205,34.93
43408910,-0.371,0.27,0.084,51.922,-10.01,19.25
43408920,-0.149,-0.321,-0.952,122.71,-32.025,-8.4
43408930,1.311,-0.86,0.261,172.392,92.627,-20.037
43408940,-1.329,-1.986,1.998,20.685,118.807,-84.665
43408950,-0.246,-1.998,-0.726,-25.27,-72.047,-452.112
43408960,-1.019,0.353,1.125,445.305,12.6,-285.495
43408970,0.85,1.997,-1.089,435.75,-183.452,-166.897
43408980,1.998,-0.033,1.762,321.545,-27.965,-130.987
43408990,-0.504,-1.998,1.045,90.3,133.472,-118.422
43409000,0.738,-0.012,0.884,305.532,-16.082,2.047
43409010,1.367,1.355,1.399,286.422,-14.21,84.315
43409020,-0.624,-0.572,1.909,131.495,33.88,121.135
43409030,-0.268,1.05,1.997,110.792,1.505,94.605
43409040,-0.469,0.238,1.814,-10.01,14.63,33.495
43409050,0.063,-0.147,1.424,-93.012,16.73,-14.227
43409060,0.36,-0.245,1.047,-127.435,19.53,-29.96
43409070,0.3,-0.556,0.919,-149.047,23.817,-23.52
43409080,0.242,-0.492,1.025,-156.73,12.11,-4.287
43409080,0.197,-0.367,1.126,-169.172,-0.875,14.875
43409100,0.046,-0.24,1.098,-189.752,-8.645,24.902
43409100,-0.065,-0.305,1.022,-208.547,-23.012,21.717
43409120,-0.063,-0.365,0.92,-231.577,-45.342,21.577
43409120,0.236,-0.485,1.044,-249.69,-67.83,26.075
43409140,0.376,-0.595,1.069,-259.35,-76.527,35.752
43409140,0.333,-0.919,1.144,-267.172,-68.267,45.692
43409160,0.518,-1.356,1.414,-266.875,-49.087,45.902
43409160,0.579,-1.683,1.609,-246.732,-6.265,43.61
43409170,0.743,-1.866,1.317,-207.322,63.735,36.067
43409180,-0.083,-1.649,0.976,-146.702,154.472,23.975
43409190,-1.072,-1.146,0.446,-102.165,176.82,-9.555
43409200,-1.655,-1.074,0.354,-20.772,110.302,-18.007
43409210,-1.672,-0.614,0.091,68.722,-61.46,-8.575
43409220,-0.146,-0.635,-0.429,150.92,-149.572,49.822
43409230,0.488,-0.155,-0.44,183.102,-133.7,104.37
43409240,0.355,0.35,-0.254,138.757,-90.265,105.735
43409250,0.135,0.12,-0.137,61.705,-45.08,94.587
43409260,-0.011,-0.177,-0.067,21.7,-30.782,87.762
43409270,0.008,-0.172,-0.013,21.577,-40.32,92.855
43409280,0.017,-0.134,-0.052,30.52,-53.97,99.33
43409290,0.051,-0.173,-0.116,60.217,-70.945,94.57
43409300,0.105,-0.097,-0.172,96.792,-83.335,78.942
43409310,0.096,0.008,-0.204,115.587,-83.825,62.965
43409320,0.055,0.001,-0.269,107.345,-66.535,59.482
43409330,0.042,-0.048,-0.349,91.822,-40.057,56.437
43409340,0.051,-0.13,-0.36,80.675,-12.285,33.425
43409350,-0.147,-0.145,-0.438,70.717,15.785,1.907
43409360,-0.255,-0.679,-1.484,92.225,36.435,-62.16
43409370,0.95,-0.945,-0.01,131.967,160.685,-117.617
43409380,-1.918,-1.994,1.444,-181.737,36.522,-241.85
43409390,0.674,-1.998,-0.93,36.82,63.402,-507.167
43409400,-1.726,1.391,-0.347,538.16,-52.832,-253.225
43409410,1.862,1.969,-0.501,513.905,-188.737,-159.005
43409420,1.847,-1.45,1.571,200.497,83.265,-78.68
43409420,-0.979,-1.856,0.603,195.562,101.797,-30.31
43409440,1.92,1.605,1.335,448.017,-22.942,120.33
43409440,-0.046,0.654,1.991,290.727,58.905,160.387
43409460,-0.856,0.912,1.988,160.65,56.875,136.412
43409460,-1.057,1.006,1.964,40.425,11.987,78.907
43409480,-0.517,0.591,1.802,-110.162,-8.207,-7.07
43409480,0.338,0.004,1.446,-204.05,-17.395,-61.162
43409500,0.735,-0.3,1.235,-246.4,-0.245,-58.887
43409500,0.64,-0.245,1.218,-258.282,4.795,-27.09
43409510,0.479,-0.272,1.119,-284.69,-3.99,15.452
43409520,0.27,-0.229,0.977,-298.305,-25.2,45.062
43409530,0.103,-0.333,0.867,-314.09,-47.197,68.005
43409540,0.322,-0.533,1.07,-316.242,-64.295,84.227
43409550,0.283,-0.854,1.256,-327.005,-52.762,98.962
43409560,0.469,-1.426,1.56,-317.852,-26.092,94.517
43409570,0.765,-1.978,1.49,-287.805,35.332,82.547
43409580,0.729,-1.731,0.978,-226.1,112.297,67.357
43409590,0.282,-1.108,0.671,-170.695,179.952,57.4
43409600,0.118,-0.909,0.186,-127.942,209.772,34.755
43409610,-0.196,-0.914,0.287,-81.077,160.16,-15.207
43409620,-0.304,-0.832,0.175,-48.79,104.685,-50.995
43409630,0.013,-0.666,0.143,8.26,31.535,-44.59
43409640,0.138,-0.158,-0.138,60.165,-18.287,-37.152
43409650,0.093,0.163,-0.131,68.162,-26.967,-34.002
43409660,0.046,0.152,0.005,55.825,-35.42,-58.677
43409670,-0.105,0.081,0.109,17.71,-25.165,-60.55
43409680,-0.188,0.025,0.152,-11.112,-17.972,-53.515
43409690,-0.229,0.025,0.201,-10.552,-20.44,-31.342
43409700,-0.223,0.175,0.274,21.157,-36.19,-9.87
43409710,-0.302,0.308,0.35,49.245,-54.705,14.035
43409720,-0.355,0.325,0.404,57.732,-72.537,32.06
43409730,-0.388,0.276,0.401,61.792,-91.507,46.55
43409740,-0.339,0.247,0.359,78.732,-111.212,53.27
43409750,-0.224,0.174,0.329,99.505,-122.745,49.945
43409760,-0.254,0.096,0.232,116.532,-120.662,48.982
43409770,-0.156,0.105,0.15,146.177,-118.982,29.872
43409780,-0.12,0.115,0.067,159.687,-107.292,0.14
43409790,0.584,-1.117,-1.825,188.195,-33.827,-41.79
43409800,0.33,-1.908,0.649,238.822,229.04,-48.72
43409810,-1.616,-1.998,-0.716,-258.772,112.822,-385.63
43409820,-1.316,0.19,0.588,294.875,52.71,-489.51
43409830,1.473,1.997,-0.71,530.985,-151.427,-266.07
43409830,1.998,-0.143,1.027,409.22,-65.047,-121.187
43409850,-0.155,-1.998,1.12,173.302,239.82,-100.257
43409850,1.677,-0.123,0.844,408.415,136.29,64.155
43409860,0.823,1.338,1.696,410.217,150.132,181.93
43409870,-0.991,0.472,1.998,239.575,143.517,173.792
43409880,-1.551,1.288,1.966,135.922,61.582,104.545
43409890,-0.911,0.619,1.708,-16.765,0.962,15.767
43409900,0.176,0.118,1.445,-134.907,-46.13,-37.835
43409910,0.448,-0.271,1.227,-196.332,-49.945,-43.855
43409920,0.534,-0.391,1.191,-215.722,-40.337,-27.107
43409930,0.493,-0.129,1.262,-231.91,-38.342,3.062
43409940,0.363,-0.146,1.107,-257.302,-38.622,24.325
43409950,0.337,-0.32,0.879,-273.7,-46.252,32.742
43409960,0.262,-0.395,0.701,-280.175,-58.852,40.075
43409970,0.462,-0.622,0.78,-280.56,-71.872,49.945
43409980,0.509,-0.693,0.845,-284.515,-71.312,67.987
43409990,0.595,-0.783,0.848,-276.885,-59.78,90.335
43410000,0.238,-1.235,0.746,-269.097,-46.725,110.005
43410010,0.259,-1.407,1.095,-252.157,-53.095,107.502
43410020,0.622,-1.71,1.18,-216.107,-32.13,110.635
43410030,0.373,-1.699,0.743,-163.66,2.257,88.602
43410040,-0.235,-1.628,-0.019,-103.127,86.975,67.2
43410050,0.082,-1.592,-0.242,-11.55,132.037,61.145
43410060,-0.345,-1.282,0.104,56.647,130.69,55.335
43410070,-0.959,-0.853,-0.091,83.58,66.885,43.697
43410080,-0.037,-1.143,-0.673,139.09,15.085,77.052
43410090,0.528,-0.827,-0.718,189.875,15.102,105.35
43410100,0.429,-0.218,-0.789,198.747,10.097,79.117
43410110,0.24,-0.01,-0.826,155.855,9.957,35.455
43410120,0.155,0.029,-0.711,84.875,13.142,2.275
43410130,0.134,0.083,-0.704,-2.24,17.64,-19.985
43410140,0.072,-0.005,-0.609,-68.862,14.227,-42.157
43410150,0.079,-0.139,-0.436,-99.872,1.907,-71.872
43410160,-0.17,-0.298,-0.305,-111.352,-5.32,-93.467
43410170,-0.154,-0.285,-0.057,-62.895,-35.42,-112.245
43410170,-0.208,0.022,0.05,-55.02,-36.767,-111.755
43410190,-0.228,0.179,-0.17,-34.16,-31.255,-111.965
43410190,-0.877,0.362,1.707,-17.045,15.382,-91.577
43410210,-1.663,-0.047,1.998,-28.455,46.06,-47.442
43410210,1.537,-1.998,0.932,-61.915,150.237,-29.277
43410230,1.664,-1.964,-1.997,324.572,339.36,-121.415
43410230,-1.72,1.49,-1.043,571.935,95.182,-97.895
43410250,-0.495,1.251,-0.368,451.797,-91.787,-209.965
43410250,1.998,-1.996,1.564,271.582,16.555,-81.357
43410260,-0.094,0.022,0.39,499.135,-8.085,-4.235
43410270,1.705,0.76,1.977,551.81,-38.115,41.877
43410280,0.167,1.163,1.998,457.625,97.457,101.955
43410290,-1.03,1.973,1.99,280.122,117.127,81.637
43410300,-0.759,1.435,1.654,36.907,32.9,40.81
43410310,0.531,-0.215,1.589,-144.48,-21.49,16.117
43410320,0.605,-0.427,1.059,-188.562,-7.525,24.465
43410330,0.021,-0.871,0.737,-180.53,20.895,42.157
43410340,-0.246,-0.5,0.603,-116.532,13.072,53.987
43410350,-0.25,-0.46,0.849,-91.84,-3.062,29.89
43410360,-0.362,-0.272,0.977,-96.967,-4.987,28.822
43410370,-0.264,0.024,1.201,-83.3,-14.63,-3.78
43410380,-0.145,-0.15,1.223,-117.425,-2.415,-34.702
43410390,0.156,-0.231,1.251,-130.725,1.417,-53.917
43410400,0.238,-0.35,1.18,-143.675,2.292,-52.395
43410410,0.322,-0.417,1.107,-155.522,-8.015,-38.797
43410420,0.44,-0.391,1.124,-161.927,-30.292,-15.995
43410430,0.622,-0.62,1.141,-176.172,-41.877,11.497
43410440,0.729,-0.901,1.304,-181.737,-21.717,36.645
43410450,0.325,-1.159,1.133,-173.25,0.052,59.465
43410460,0.216,-1.151,1.493,-146.685,24.955,65.117
43410470,0.011,-1.535,1.58,-129.29,62.947,69.79
43410480,-1.778,-1.972,1.222,-117.232,104.387,93.52
43410490,-1.887,-1.955,-0.747,33.32,21.315,152.582
43410500,-0.501,-0.73,-1.025,246.365,-133.665,173.53
43410510,1.062,-0.086,-1.177,211.12,-140.367,185.237
43410510,0.604,-0.059,-0.968,66.325,-112.857,147.35
43410530,0.379,-0.397,-0.623,-57.015,-100.327,50.242
43410530,0.387,-0.896,-0.413,-138.285,-65.222,-12.932
43410550,0.283,-0.916,-0.356,-159.057,-58.047,-67.462
43410550,0.26,-0.721,-0.261,-142.152,-62.562,-124.302
43410570,0.42,-0.647,-0.058,-138.512,-48.877,-165.13
43410570,0.296,-0.618,0.018,-154.28,-22.82,-192.517
43410580,0.123,-0.544,0.27,-145.512,-18.427,-222.53
43410590,-0.349,-0.308,0.401,-176.925,-7.752,-216.562
43410600,-0.881,-0.016,0.196,-209.72,-21.49,-199.272
43410610,-1.194,-0.176,0.498,-139.597,-103.285,-173.127
43410620,-0.981,0.517,0.538,-85.207,-175.927,-115.097
43410630,0.231,1.351,1.4,-39.305,-152.722,-34.072
43410640,1.992,-0.477,1.998,22.61,132.51,60.41
43410650,-0.112,-1.998,-1.225,129.71,215.88,15.312
43410660,-0.412,-1.998,-0.076,437.325,61.67,-231.332
43410670,1.126,0.593,0.167,434.42,160.912,-88.41
43410680,1.68,1.503,0.905,538.79,114.905,10.57
43410690,0.353,-0.816,1.852,456.172,201.705,111.632
43410700,0,0.926,1.979,427.857,158.217,137.917
43410710,-0.864,1.808,1.998,307.877,116.077,120.995
43410720,-0.995,1.138,1.913,105.647,65.887,62.825
43410730,-0.338,0.529,1.566,-36.452,11.287,11.06
43410740,0.158,-0.178,1.103,-137.112,-5.897,-21.647
43410750,0.308,-0.716,0.855,-162.417,-3.255,-25.445
43410760,0.263,-0.349,1.02,-108.115,-12.232,-5.722
43410770,0.048,-0.408,1.109,-131.6,-5.967,4.585
43410780,0.156,-0.207,1.227,-150.552,-14.98,17.535
43410790,0.137,-0.198,1.186,-170.275,-23.257,21.647
43410800,0.175,-0.351,1.037,-189.017,-21.805,20.282
43410810,0.211,-0.461,0.898,-191.502,-26.32,24.325
43410820,0.242,-0.611,0.983,-191.292,-40.897,34.212
43410830,0.357,-0.537,1.122,-192.342,-61.145,47.39
43410840,0.515,-0.548,1.143,-197.242,-68.512,67.165
43410850,0.802,-0.991,1.249,-205.905,-41.72,86.415
43410860,0.603,-1.491,1.139,-199.395,10.342,102.602
43410870,0.098,-1.447,1.152,-162.802,18.165,93.117
43410880,-0.211,-1.773,1.079,-127.207,11.917,62.597
43410890,-1.206,-1.998,1.056,-144.042,41.265,39.2
43410900,-1.655,-1.953,-0.204,-26.232,3.692,63.315
43410910,-0.608,-0.99,-0.954,214.392,-108.08,117.88
43410920,1.071,-0.215,-0.965,255.622,-81.375,156.905
43410920,0.676,0.173,-0.755,132.16,-27.405,147.752
43410940,0.306,-0.117,-0.658,20.475,-25.077,51.415
43410940,0.168,-0.451,-0.458,-43.505,-9.012,-16.922
43410960,-0.09,-0.372,-0.423,-79.572,2.695,-49.455
43410960,-0.324,-0.256,-0.288,-72.397,-0.805,-81.392
43410980,-0.459,-0.232,-0.059,-60.252,-0.962,-95.287
43410980,-0.647,-0.226,0.074,-60.882,-2.117,-89.687
43411000,-0.726,-0.216,0.249,-62.667,-10.062,-75.967
43411000,-0.773,-0.274,0.188,-66.78,-14.332,-52.272
43411010,-0.584,-0.446,0.247,-8.33,-43.522,-42.98
43411020,-0.567,-0.252,0.084,26.6,-48.475,-11.497
43411030,-0.462,0.044,-0.126,60.2,-51.012,15.82
43411040,-0.618,0.542,1.487,69.965,-59.622,23.362
43411050,1.723,-0.898,1.998,61.845,-147.752,-53.865
43411060,1.738,-1.998,-1.41,307.37,-17.902,-192.097
43411070,-1.127,-1.17,0.993,517.142,86.205,-212.45
43411080,1.46,0.723,0.749,492.817,53.112,-129.815
43411090,1.952,0.295,1.648,529.882,96.145,-54.057
43411100,1.821,-0.519,1.899,458.727,197.68,5.88
43411110,-0.92,1.702,1.998,375.865,215.442,62.055
43411120,-1.541,1.924,1.635,139.737,97.86,68.617
43411130,-0.371,0.022,1.292,-73.482,-10.535,29.767
43411140,0.418,-0.771,1.092,-125.177,-42.84,20.51
43411150,0.378,-0.28,1.022,-128.012,-39.182,34.265
43411160,0.293,-0.259,1.045,-141.4,-37.24,52.43
43411170,-0.036,-0.622,0.921,-152.267,-28.822,58.257
43411180,-0.06,-0.154,1.084,-114.17,-37.52,44.45
43411190,-0.26,-0.339,0.977,-135.887,-20.947,24.517
43411200,-0.115,-0.206,1.182,-131.407,-21.595,-4.06
43411210,0.183,-0.237,1.26,-151.445,-19.215,-22.225
43411220,0.368,-0.266,1.179,-169.89,-14.017,-25.987
43411230,0.434,-0.427,1.078,-180.915,-15.995,-18.585
43411240,0.462,-0.545,1.098,-192.132,-20.58,-1.347
43411250,0.698,-0.842,1.152,-193.462,-15.4,17.482
43411260,0.917,-1.017,1.422,-168.84,12.95,40.757
43411260,0.242,-1.33,1.118,-138.88,48.335,52.062
43411280,-0.002,-1.539,1.496,-107.432,53.34,20.702
43411280,-1.163,-1.994,1.202,-97.58,95.112,3.132
43411300,-1.998,-1.777,-1.049,-27.615,63.175,36.225
43411300,-1.331,-0.587,-0.749,124.127,-51.38,118.317
43411320,0.664,-0.691,-0.133,76.23,-92.207,146.93
43411320,0.87,-1.116,-0.154,-41.755,-31.377,122.22
43411330,-0.019,-0.84,-0.144,-70.437,11.287,92.242
43411340,-0.201,-0.478,0.075,-67.13,14.805,58.87
43411350,0.084,-0.435,0.185,-90.317,11.532,29.015
43411360,0.359,-0.543,0.263,-87.412,15.225,2.047
43411370,0.331,-0.461,0.262,-60.812,35.91,-1.242
43411380,0.14,-0.172,0.195,-41.23,50.732,3.447
43411390,0.201,0.079,0.133,-37.397,53.952,3.132
43411400,0.459,0.317,0.072,-33.652,59.08,2.52
43411410,0.387,0.703,0.008,-21.087,59.342,1.977
43411420,0.211,1.163,-0.088,-15.225,45.92,-7.035
43411430,0.291,1.146,-0.233,-18.13,35.245,-6.492
43411440,-0.471,1.242,0.091,22.435,34.09,35.227
43411450,-0.165,1.029,1.961,95.48,-91.84,-58.45
43411460,-0.487,-1.998,-0.062,-121.292,-154.157,-258.702
43411470,0.746,-1.752,0.904,277.725,104.527,-353.727
43411480,-1.763,1.888,-1.986,553.63,-109.585,-13.667
43411490,1.928,1.615,1.477,469.245,-189.84,-129.447
43411500,-0.05,-1.975,1.34,146.072,80.15,-101.99
43411510,0.931,0.174,1.586,330.627,5.635,0.98
43411520,1.093,1.377,1.934,306.46,16.065,89.74
43411530,-0.196,0.135,1.761,98.682,60.025,117.652
43411540,-0.289,0.988,1.609,35.105,22.26,119.735
43411550,-0.435,-0.059,1.293,-66.167,24.64,68.81
43411560,-0.364,-0.247,0.99,-95.147,27.475,23.117
43411570,-0.136,-0.409,0.929,-102.83,28.35,-9.397
43411580,0.084,-0.372,0.989,-100.73,29.592,-25.952
43411590,0.044,-0.49,0.95,-102.182,33.6,-27.282
43411600,0.338,-0.123,1.269,-77.14,23.975,-32.952
43411610,0.217,-0.347,1.225,-123.305,40.46,-29.137
43411620,0.268,-0.293,1.308,-138.215,43.557,-27.317
43411630,0.353,-0.281,1.345,-162.137,42.262,-20.282
43411640,0.488,-0.361,1.362,-189.175,41.177,-1.505
43411650,0.607,-0.493,1.269,-204.925,37.397,27.072
43411660,0.869,-0.657,1.231,-208.722,47.617,48.352
43411670,0.752,-0.805,1.282,-209.807,75.845,60.095
43411670,0.313,-0.909,1.432,-221.55,95.882,67.917
43411690,-0.3,-1.421,1.538,-218.837,81.182,56.91
43411690,-0.899,-1.998,0.931,-239.242,10.605,-19.67
43411710,1.324,-1.998,-0.046,-206.045,-2.625,-134.417
43411710,1.398,-1.489,-0.143,-31.885,35.577,-115.5
43411730,-0.62,0.504,-0.388,54.897,4.62,-86.327
43411730,-1.55,1.603,-0.203,4.55,-61.355,-89.617
43411750,-0.631,0.663,0.253,-96.845,-95.112,-47.46
43411750,0.688,-0.249,0.603,-125.16,-119.227,-3.132
43411760,0.858,-0.071,0.556,-79.677,-105.105,30.52
43411770,0.409,0.361,0.377,1.207,-87.185,47.127
43411780,0.195,0.474,0.229,46.847,-79.887,29.312
43411790,0.008,0.301,0.009,55.055,-85.137,2.362
43411800,-0.201,0.132,-0.219,59.675,-103.512,-16.8
43411810,-0.328,0.056,-0.4,63.525,-124.635,-21.105
43411820,-0.372,-0.018,-0.549,52.237,-139.02,-12.81
43411830,-0.325,-0.131,-0.548,22.697,-140.052,-1.802
43411840,-0.284,-0.341,-0.467,-26.827,-124.075,3.272
43411850,-0.317,-0.912,-0.318,-74.917,-105.052,-10.255
43411860,-0.579,-0.938,-0.43,-127.277,-67.077,0.42
43411870,-0.898,-1.342,-0.177,-26.337,-86.8,-15.295
43411880,-0.726,-1.099,-0.035,54.197,-134.05,-91.892
43411890,-0.723,-1.791,1.54,0.542,-21.805,-82.022
43411900,1.56,-1.998,1.941,37.012,277.655,-12.81
43411910,-1.513,-1.725,-1.887,293.65,128.065,-105.07
43411920,0.291,1.876,1.181,538.65,-34.982,-208.25
43411930,1.993,0.817,0.533,445.672,47.46,-55.72
43411940,1.008,-1.615,1.48,356.79,153.895,-15.382
43411950,0.95,0.069,1.67,417.287,132.44,62.142
43411960,-0.13,1.402,1.986,369.337,127.96,98.14
43411970,-0.878,0.957,1.998,181.37,105.402,75.145
43411980,-0.688,0.997,1.805,35.017,36.925,30.38
43411990,-0.054,0.044,1.425,-98.42,-8.75,-7.542
43412000,0.31,-0.206,1.096,-152.967,-26.53,-15.767
43412010,0.455,-0.546,1.072,-171.325,-21.735,-17.972
43412010,0.348,-0.396,1.145,-180.617,-13.825,5.075
43412030,0.229,-0.248,1.206,-196.525,-16.117,17.5
43412030,0.228,-0.274,1.161,-221.322,-21.805,25.147
43412050,0.206,-0.249,1.135,-231.052,-22.872,27.842
43412050,0.093,-0.311,1.063,-244.44,-24.377,32.585
43412070,0.237,-0.421,1.055,-255.622,-35.472,37.59
43412070,0.503,-0.373,1.135,-264.32,-50.907,50.172
43412080,0.692,-0.472,1.087,-277.987,-49.875,70.28
43412090,0.685,-1.05,1.505,-285.565,-36.26,89.092
43412100,0.775,-1.841,1.911,-278.18,-23.642,87.22
43412110,0.608,-1.985,1.416,-225.155,13.615,68.6
43412120,0.151,-1.958,0.32,-161.227,75.057,25.445
43412130,-0.014,-1.534,-0.057,-91.227,131.407,-30.082
43412140,-0.523,-1.156,-0.515,-14.245,129.062,-40.74
43412150,-0.47,-0.541,-0.481,29.242,72.485,-32.182
43412160,-0.069,-0.161,-0.442,24.955,26.932,-11.725
43412170,0.178,-0.2,-0.049,8.907,12.67,10.57
43412180,0.331,-0.169,0.263,-24.062,13.527,22.715
43412190,0.501,-0.178,0.294,-13.737,10.867,20.195
43412200,0.36,-0.013,0.22,15.522,4.287,26.6
43412210,0.154,0.222,0.114,34.282,-13.387,29.89
43412220,-0.183,0.405,0.012,37.17,-40.372,30.205
43412230,-0.153,0.441,-0.027,50.645,-77.35,25.147
43412240,0.105,0.379,0.009,70.56,-96.967,26.162
43412250,0.003,0.453,0.044,81.55,-100.555,28.157
43412260,-0.189,0.43,0.045,81.007,-105.105,24.15
43412270,-0.308,0.345,0.019,75.757,-112.28,28.717
43412280,-0.198,0.224,0.032,100.117,-130.427,20.16
43412290,-0.087,0.12,0.05,122.622,-134.557,8.137
43412300,-0.093,0.196,0.026,146.807,-124.81,-7.77
43412310,-0.051,0.187,-0.322,170.625,-110.88,-31.552
43412320,-0.909,-0.784,0.029,139.37,-50.75,-45.342
43412330,-0.524,-1.998,-0.558,-99.155,258.685,-249.777
43412340,-1.904,0.758,-1.014,442.96,-109.095,-305.375
43412350,1.742,1.997,0.942,556.447,-66.622,-141.19
43412360,1.54,-0.078,1.525,255.01,98.56,-126.105
43412370,1.738,-1.4,1.928,282.327,160.562,-93.957
43412380,1.42,1.836,1.738,368.707,156.257,48.51
43412390,-0.977,0.931,1.998,164.272,175.822,110.635
43412400,-1.247,1.215,1.808,16.135,69.037,96.11
43412410,-0.418,-0.045,1.293,-112.857,-19.425,39.812
43412420,-0.063,-0.893,0.545,-169.732,-36.067,0.56
43412420,0.509,-0.613,0.93,-112.122,-42.367,-24.797
43412440,0.371,-0.728,0.793,-115.045,-17.027,-7.945
43412440,0.22,-0.313,1.105,-90.44,-16.8,10.272
43412460,0.091,-0.205,1.219,-109.305,-22.767,24.57
43412460,0.004,-0.264,1.226,-136.92,-31.99,24.832
43412480,-0.012,-0.213,1.255,-158.042,-47.477,25.165
43412480,0.114,-0.19,1.304,-182.647,-71.68,28.84
43412500,0.237,-0.191,1.235,-213.727,-99.505,40.04
43412500,0.489,-0.061,1.238,-243.232,-129.307,60.462
43412510,0.634,-0.438,1.213,-274.155,-140.35,85.19
43412520,0.353,-1.15,1.482,-296.747,-151.112,93.432
43412530,0.467,-1.93,1.436,-267.627,-188.755,59.535
43412540,0.231,-1.998,1.346,-239.837,-159.827,46.13
43412550,-0.945,-1.998,1.482,-213.762,-75.425,43.19
43412560,-1.998,-1.998,0.083,-84.017,-28.682,150.255
43412570,-1.072,-1.366,-1.559,254.59,-175.875,266.402
43412580,0.483,0.06,-0.946,326.532,-184.817,302.505
43412590,0.678,0.093,-0.684,170.887,-120.732,300.3
43412600,0.642,-0.494,-0.325,29.137,-63.035,245.91
43412610,0.702,-0.792,-0.257,-19.827,-16.922,198.8
43412620,0.674,-0.255,-0.212,16.817,-5.18,134.925
43412630,0.698,0.195,-0.137,30.31,0.787,69.037
43412640,0.721,0.237,-0.035,3.745,15.872,9.555
43412650,0.598,0.208,0.032,-32.41,30.555,-42.087
43412660,0.404,0.312,0.107,-55.597,43.89,-74.952
43412670,0.067,0.622,0.176,-68.495,41.947,-98.577
43412680,-0.254,0.781,0.251,-83.737,16.94,-122.482
43412690,-0.688,0.797,0.2,-103.792,-13.177,-110.985
43412700,-0.678,0.738,0.235,-85.382,-68.985,-127.557
43412710,-0.733,0.596,0.233,-61.88,-118.527,-132.422
43412720,-0.711,0.551,0.291,-24.342,-148.33,-106.872
43412730,-0.496,0.495,0.325,12.302,-147.822,-63.682
43412740,-0.135,-1.493,-1.463,62.23,-54.757,-6.055
43412750,1.91,-1.998,1.202,106.942,245.98,-99.19
43412760,-1.228,-1.787,-1.423,41.702,326.795,-376.652
43412760,0.272,1.933,0.156,394.117,35.997,-283.5
43412780,1.998,1.624,0.219,533.68,56.262,-0.087
43412780,0.443,-1.841,1.462,323.207,290.202,82.477
43412800,-0.154,-0.305,1.588,374.01,165.077,231.192
43412800,-0.238,1.966,1.997,400.4,50.347,219.502
43412820,-1.451,0.749,1.998,92.172,68.792,161.63
43412820,-0.417,1.364,1.998,-63.63,42.227,48.125
43412830,-0.163,0.288,1.611,-228.987,58.467,-23.765
43412840,0.913,0.271,1.617,-274.085,51.572,-66.71
43412850,0.739,-0.257,0.833,-346.377,87.832,-27.842
43412860,0.515,-0.733,0.664,-309.015,90.737,-6.93
43412870,0.251,-0.84,0.61,-277.077,86.24,19.407
43412880,0.138,-0.773,0.613,-245.542,78.925,45.955
43412890,0.136,-0.853,0.651,-221.305,77.752,64.592
43412900,-0.159,-0.943,0.676,-206.202,72.94,68.932
43412910,-0.529,-0.916,0.72,-185.447,38.762,55.825
43412920,-0.412,-1.049,1.293,-187.32,-13.475,44.485
43412930,-0.214,-1.709,1.714,-212.012,-45.482,49.507
43412940,0.175,-1.998,1.655,-196.315,-52.622,28.84
43412950,0.332,-1.734,0.943,-145.897,-31.605,0.77
43412960,0.07,-1.164,0.409,-61.04,52.552,20.895
43412970,-0.747,-1.184,0.732,16.31,93.607,39.567
43412980,-0.883,-0.586,0.298,65.082,13.125,18.077
43412990,0.818,-0.411,-0.373,173.845,18.007,74.112
43413000,1.169,0.322,-0.19,216.527,60.602,111.86
43413010,0.693,0.99,-0.236,168.122,67.532,51.485
43413020,0.377,1.054,-0.134,85.47,65.292,-21.157
43413030,0.228,0.679,-0.032,-4.462,53.602,-71.207
43413040,0.166,0.396,0.04,-21.07,9.485,-115.727
43413050,0.121,0.314,0.099,2.327,-29.54,-140.805
43413060,0.076,0.235,0.171,24.727,-46.392,-139.23
43413070,-0.179,0.238,0.059,33.67,-51.905,-116.55
43413080,-0.319,0.184,0.033,58.747,-75.6,-114.257
43413090,-0.466,0.216,0,69.247,-103.075,-114.677
43413100,-0.467,0.154,-0.021,63.525,-126.122,-114.24
43413110,-0.519,-0.078,-0.075,41.895,-131.215,-91.087
43413120,-0.551,-0.171,-0.012,55.772,-138.337,-70.507
43413130,0.393,-1.6,-1.964,115.622,-92.855,-84.665
43413140,-0.077,-1.997,0.844,60.13,176.82,-119.525
43413150,-1.318,-1.998,-1.565,-192.447,192.307,-371.752
43413160,-1.365,1.41,0.492,467.32,-42.192,-326.602
43413170,1.998,1.98,-0.53,517.492,-138.302,-156.467
43413170,1.742,-1.195,1.755,320.582,98.735,-6.685
43413180,-0.567,-1.794,1.084,274.522,184.555,40.127
43413190,1.651,1.511,1.599,456.242,107.572,132.037
43413200,-1.165,1.076,1.995,305.147,137.235,153.58
43413210,-1.453,0.474,1.815,111.125,93.362,68.81
43413220,-0.382,0.654,1.674,43.837,12.46,-5.302
43413230,0.333,-0.189,1.141,-75.215,-20.51,-38.552
43413240,0.662,-0.423,1.058,-95.567,-27.667,-33.512
43413250,0.354,-0.386,1.138,-115.255,-8.295,-4.48
43413260,0.084,-0.041,1.359,-132.492,-5.232,11.147
43413270,0.142,-0.004,1.44,-178.587,-26.005,20.527
43413280,0.156,-0.062,1.356,-227.797,-44.135,21.192
43413290,0.235,-0.124,1.275,-262.71,-59.885,29.697
43413300,0.234,-0.145,1.119,-287.122,-81.357,46.55
43413310,0.427,-0.283,1.134,-316.977,-106.68,69.02
43413320,0.347,-0.293,0.985,-342.177,-129.937,98.315
43413330,0.214,-0.594,1.282,-361.952,-163.467,124.057
43413340,-0.173,-1.582,1.718,-391.86,-191.415,142.345
43413350,-0.478,-1.998,1.998,-393.417,-261.047,86.782
43413360,-0.47,-1.998,0.549,-354.147,-325.08,9.642
43413370,0.834,-1.766,-0.187,-241.972,-235.567,-39.882
43413380,0.316,-1.852,0.055,-117.915,-1.645,72.73
43413390,0.211,-1.477,-0.023,40.337,137.917,116.9
43413400,0.142,-0.397,-0.363,210.63,157.447,154.892
43413410,0.023,0.187,-0.586,241.29,151.742,188.772
43413420,0.367,0.401,-0.506,193.445,125.86,172.305
43413430,0.633,0.23,-0.378,119.945,101.727,136.167
43413440,0.784,0.152,-0.211,65.537,80.062,88.06
43413450,0.625,0.23,-0.131,30.31,65.345,56.647
43413460,0.527,0.237,-0.047,15.33,47.407,21.7
43413470,0.455,0.27,0.061,2.327,28.682,-18.007
43413480,0.224,0.202,0.117,1.172,7.157,-43.05
43413490,0.084,0.126,0.185,17.64,-18.69,-61.337
43413500,0.069,0.083,0.186,35.56,-34.16,-70.507
43413510,0.098,0.038,0.206,65.73,-48.947,-85.47
43413510,0.046,0.041,0.161,96.967,-59.972,-103.11
43413530,-0.025,0.032,0.033,109.112,-54.792,-118.125
43413530,-0.238,0.019,-0.161,118.107,-42.455,-119.035
43413550,-0.434,0.16,-0.348,139.79,-43.067,-118.195
43413550,-0.49,0.255,-0.618,142.31,-40.267,-120.785
43413570,-1.252,-0.129,-0.166,86.292,-2.1,-106.435
43413570,0.635,-1.973,0.9,-152.845,240.24,-140.437
43413580,-1.805,-0.576,-0.899,268.03,100.975,-317.555
43413590,0.966,1.997,0.281,572.652,-44.817,-182.542
43413600,1.998,0.361,1.174,387.817,28.42,19.915
43413610,-1.051,-1.998,0.97,79.905,220.36,-49.227
43413620,1.435,0.576,1.458,351.12,62.247,63.577
43413630,0.339,1.22,1.929,308.245,56.77,118.405
43413640,-0.648,0.001,1.748,93.135,76.265,86.24
43413650,-0.374,0.673,1.665,47.512,19.705,49.542
43413660,-0.178,0.019,1.39,-60.235,2.922,-3.272
43413670,0.332,-0.247,1.149,-119.21,-7.245,-25.217
43413680,0.326,-0.505,1.013,-134.75,-1.137,-21.717
43413690,0.245,-0.44,1.091,-140.245,1.75,-5.635
43413700,0.22,-0.242,1.231,-150.377,-4.567,10.237
43413710,0.132,-0.213,1.203,-175.595,-12.81,19.687
43413720,0.16,-0.231,1.113,-196.332,-27.615,21.542
43413730,-0.01,-0.254,0.954,-218.05,-48.58,27.51
43413740,0.136,-0.336,0.961,-239.75,-78.96,28.262
43413750,0.341,-0.439,0.957,-263.917,-97.912,40.32
43413760,0.372,-0.635,0.971,-269.605,-109.865,56.42
43413770,0.108,-1.072,1.421,-272.16,-136.867,65.887
43413780,-0.019,-1.841,1.362,-266.49,-189.7,53.585
43413790,0.617,-1.998,1.102,-206.15,-198.275,24.132
43413800,0.201,-1.998,0.822,-162.47,-71.89,20.807
43413810,-1.505,-1.998,1.012,-127.522,88.41,54.495
43413820,-1.754,-1.998,-0.813,55.37,67.9,125.737
43413830,-0.377,-1.192,-1.434,316.68,-26.215,231.49
43413840,0.412,-0.011,-1.306,307.842,-50.365,277.042
43413850,1.065,0.097,-0.874,143.762,-48.51,244.982
43413850,1.183,-0.447,-0.624,-6.79,-28.437,198.152
43413870,1.158,-0.559,-0.382,-40.967,-18.235,127.452
43413870,1.036,-0.305,-0.257,-34.317,-8.312,61.635
43413890,0.763,-0.207,-0.222,-42.122,8.54,5.985
43413890,0.38,-0.117,-0.194,-38.412,5.267,-53.48
43413910,0.194,0.14,-0.098,-31.342,-8.75,-104.545
43413910,0.111,0.34,-0.005,-50.12,-3.535,-120.312
43413920,-0.138,0.418,0.065,-77.035,8.645,-120.487
43413930,-0.387,0.509,0.08,-97.65,6.142,-142.852
43413940,-0.48,0.381,0.192,-94.99,-10.5,-166.197
43413950,-0.571,0.327,0.261,-86.502,-12.285,-169.942
43413960,-0.53,0.52,0.325,-43.89,-6.387,-163.257
43413970,-0.598,0.513,-0.182,-6.212,38.832,-135.695
43413980,-1.293,0.897,1.014,29.19,139.195,-107.817
43413990,1.004,-1.998,0.217,-180.617,356.597,-252.297
43414000,-1.33,-0.399,-1.847,350.612,27.212,-416.29
43414010,1.148,1.997,1.181,561.592,109.095,-248.902
43414020,1.61,-0.573,0.327,401.625,134.207,-56.857
43414030,0.036,-1.681,0.803,393.225,207.76,34.265
43414040,1.558,1.647,1.918,526.102,124.845,169.557
43414050,-0.899,1.338,1.998,394.082,135.922,193.217
43414060,-1.363,1.132,1.998,193.182,91.682,108.517
43414070,-0.63,1.097,1.955,50.89,27.65,26.88
43414080,0.203,0.271,1.664,-116.637,-7.332,-24.115
43414090,0.467,-0.049,1.162,-209.86,-15.417,-20.282
43414100,0.266,-0.58,1.089,-214.532,-23.66,-3.762
43414110,0.094,-0.348,1.018,-231.332,-33.687,13.212
43414120,0.137,-0.309,1.132,-243.512,-52.08,26.232
43414130,0.09,-0.198,1.077,-246.155,-61.845,29.627
43414140,0.125,-0.248,0.955,-256.952,-61.46,33.425
43414150,0.081,-0.343,0.723,-265.79,-72.03,39.917
43414160,0.273,-0.501,0.783,-269.272,-96.11,50.207
43414170,0.381,-0.595,0.788,-283.15,-108.447,72.905
43414180,0.447,-0.789,0.977,-277.427,-113.032,95.602
43414190,0.496,-1.274,1.503,-276.202,-114.852,102.62
43414200,0.785,-1.919,1.78,-263.182,-95.48,90.737
43414210,1.343,-1.998,1.203,-192.552,-12.897,77.875
43414220,0.839,-1.856,1.186,-93.187,142.467,38.832
43414230,-0.88,-0.747,1.366,-25.48,205.887,-45.22
43414240,-1.61,-1.229,-0.247,68.197,174.807,-38.342
43414250,-0.323,-1.27,-0.794,221.217,117.705,39.97
43414260,0.238,-0.677,-0.675,287.822,102.13,103.022
43414260,0.423,0.005,-0.916,273.875,79.992,78.995
43414280,0.633,0.463,-0.914,196.612,75.022,49.35
43414280,0.545,0.257,-0.608,100.065,76.195,27.475
43414300,0.519,0.103,-0.175,16.922,71.54,-11.165
43414300,0.469,0.025,0.103,-42.63,73.692,-50.995
43414320,0.073,0.05,0.064,-69.002,69.23,-80.762
43414320,-0.167,0.052,0.104,-32.83,41.842,-98.21
43414330,-0.388,0.297,0.016,-2.012,16.887,-78.085
43414340,-0.424,0.325,0.01,32.427,-18.147,-62.387
43414350,-0.321,0.23,-0.082,47.04,-46.952,-54.985
43414360,-0.261,0.137,-0.134,35.735,-51.52,-30.975
43414370,-0.008,-0.184,-0.152,37.555,-46.147,-17.062
43414380,0.044,-0.215,-0.529,74.235,-39.655,-12.862
43414390,-0.273,-0.457,0.693,96.827,23.66,-10.657
43414400,-1.563,-1.998,0.087,-204.627,92.487,-192.552
43414410,-0.272,-0.681,-0.437,314.527,-26.652,-325.342
43414420,-0.69,1.997,-1.353,573.3,-208.932,-110.057
43414430,1.998,0.867,1.859,442.155,-121.782,-124.617
43414440,0.217,-1.961,1.773,270.392,115.71,-62.825
43414450,1.819,1.249,1.787,462.192,103.652,28.927
43414460,-0.152,1.326,1.998,322.857,142.467,92.89
43414470,-1.294,1.074,1.956,91.805,82.337,96.075
43414480,-0.394,0.764,1.58,-46.217,-22.19,75.687
43414490,0.048,-0.508,1.134,-166.11,-59.587,43.452
43414500,0.172,-0.228,1.082,-149.992,-72.73,31.36
43414510,0.231,-0.363,1.196,-184.082,-59.045,16.257
43414520,0.222,-0.261,1.261,-204.015,-55.44,27.562
43414530,0.252,-0.139,1.207,-218.872,-63.385,36.522
43414540,0.246,-0.274,1.124,-251.3,-60.865,42.245
43414550,0.252,-0.336,1.035,-272.317,-70.332,52.482
43414560,0.503,-0.347,1.229,-297.535,-92.662,75.075
43414570,0.327,-0.25,1.321,-344.032,-133.472,113.015
43414580,-0.47,-0.606,1.22,-397.95,-199.99,151.707
43414580,-1.191,-1.745,1.402,-470.277,-309.715,152.022
43414600,-1.109,-1.998,1.433,-492.642,-472.185,40.005
43414600,0.203,-1.998,0.228,-446.285,-375.847,70.612
43414620,-0.904,-1.918,0.462,-199.202,-87.552,176.015
43414620,-0.737,-1.913,0.095,68.232,55.737,229.897
43414640,0.009,-0.936,-0.708,231,115.657,306.075
43414640,0.392,-0.082,-0.783,253.627,122.605,369.95
43414660,0.818,0.083,-0.653,192.99,53.2,336.402
43414660,1.499,-0.118,-0.473,103.057,23.8,257.407
43414670,1.771,0.021,-0.063,78.225,2.712,148.242
43414680,1.374,0.086,0.08,40.18,35.857,82.985
43414690,0.64,0.23,0.152,19.162,55.195,5.442
43414700,-0.288,0.691,0.289,33.057,24.78,-72.957
43414710,-0.383,0.922,0.427,40.127,-7.647,-108.027
43414720,-0.048,0.792,0.599,36.085,-14.665,-118.212
43414730,-0.084,0.55,0.515,29.54,7.455,-97.667
43414740,-0.306,0.551,0.354,49.192,32.655,-67.707
43414750,-0.263,0.668,0.27,82.792,51.135,-42.052
43414760,-0.2,0.57,0.217,98.647,67.13,-13.58
43414770,-0.232,0.377,0.097,101.272,79.45,18.2
43414780,0.111,0.114,-0.031,117.285,82.477,20.755
43414790,0.161,-0.06,-0.319,136.412,84.21,19.355
43414800,0.293,-0.087,-0.744,157.797,82.88,-7.192
43414810,0.324,-0.3,-0.971,168.367,63.962,-69.615
43414820,0.221,-0.479,-1.45,134.82,55.597,-145.53
43414830,-0.505,-0.808,0.655,24.482,114.905,-236.74
43414840,-0.4,-1.998,-0.121,-348.04,-22.592,-460.985
43414850,0.095,-0.298,-0.538,377.125,44.117,-397.162
43414860,0.386,1.997,-1.279,572.477,-353.64,-138.67
43414870,1.967,-0.133,1.817,248.797,-9.117,-81.987
43414880,-1.062,-1.955,0.122,91.367,230.527,-49.105
43414890,1.761,1.72,1.963,519.207,22.732,142.957
43414900,-1.11,1.535,1.998,308.455,110.88,191.835
43414910,-1.156,1.462,1.992,71.557,39.917,132.317
43414920,-0.056,0.571,1.652,-95.55,-24.762,71.435
43414930,0.099,-0.149,1.432,-192.85,-15.82,12.775
43414940,0.079,-0.443,1.105,-230.195,7.28,2.1
43414950,0.21,-0.234,1.299,-234.5,1.61,9.31
43414960,0.207,-0.088,1.345,-252.752,-8.19,25.217
43414970,0.078,-0.133,1.212,-277.69,-17.535,33.6
43414980,0.003,-0.163,1.059,-291.725,-30.38,40.53
43414990,-0.07,-0.206,1.013,-306.53,-60.952,55.772
43415000,0.255,-0.343,1.166,-341.022,-95.585,73.36
43415010,0.576,-0.8,1.083,-351.487,-95.06,103.18
43415010,0.402,-1.108,1.291,-329.052,-85.505,126.35
43415030,0.166,-1.651,1.379,-322.647,-105.035,115.57
43415030,0.542,-1.996,1.465,-299.477,-121.467,98.875
43415050,0.729,-1.922,0.868,-240.73,-88.532,91.962
43415050,0.976,-1.514,0.494,-160.755,43.855,76.51
43415070,0.474,-1.737,0.164,-40.442,151.182,72.625
43415070,0.22,-1.299,0.01,97.65,186.41,46.725
43415080,0.238,-0.803,-0.307,222.267,160.562,73.115
43415090,0.269,-0.336,-0.526,286.02,115.08,112.437
43415100,0.252,0.366,-0.922,278.967,69.755,129.202
43415110,0.573,0.596,-0.775,252.035,7.262,79.135
43415120,0.549,0.642,-0.719,152.74,-24.272,40.407
43415130,0.471,0.438,-0.609,45.902,-34.772,9.73
43415140,0.574,0.223,-0.402,-14.682,-52.867,-41.947
43415150,0.471,0.015,-0.193,-57.942,-60.13,-89.512
43415160,0.162,-0.084,-0.044,-93.362,-63.542,-130.357
43415170,-0.196,-0.112,-0.002,-111.562,-74.725,-158.165
43415180,-0.318,-0.162,0.047,-109.952,-89.915,-170.922
43415190,-0.418,-0.19,0.07,-104.895,-101.395,-176.207
43415200,-0.76,-0.264,0.033,-117.827,-102.83,-157.622
43415210,-1.24,-0.32,-0.033,-76.037,-118.352,-133.262
43415220,-0.856,-0.303,0.185,59.062,-204.365,-194.372
43415230,-0.848,0.452,0.074,50.907,-193.462,-184.677
43415240,-0.967,0.5,-0.658,0.28,-112.962,-154.087
43415250,-0.257,-0.444,0.47,-57.837,50.977,-127.067
43415260,-0.536,-1.998,-0.495,-166.74,405.107,-201.582
43415270,-0.948,0.816,-1.997,434.227,63.84,-455.595
43415280,1.972,1.997,1.076,549.64,109.13,-124.075
43415290,1.598,-1.522,0.764,266.98,352.1,-36.662
43415300,-0.337,-1.022,1.115,449.242,269.045,112.052
43415310,0.743,1.985,1.998,550.987,158.69,223.772
43415320,-1.52,1.238,1.038,313.932,155.487,188.842
43415330,-1.001,1.188,1.345,69.93,44.73,63.315
43415330,0.163,0.779,1.738,-58.852,-11.077,2.975
43415350,0.504,-0.426,1.092,-204.365,-10.325,-31.64
43415350,0.223,-0.741,0.597,-232.365,-1.89,-11.83
43415370,0.334,-0.515,1.194,-158.602,-24.377,-0.577
43415370,0.17,-0.318,1.121,-199.622,-19.39,31.097
43415390,0.099,-0.191,1.286,-197.155,-30.677,40.932
43415390,0.182,-0.169,1.11,-217.052,-32.987,41.09
43415410,0.103,-0.211,0.94,-229.88,-38.832,46.41
43415410,0.023,-0.408,0.89,-240.66,-63.35,48.912
43415420,0.447,-0.661,1.082,-255.622,-86.642,61.792
43415430,0.74,-0.703,1.132,-264.267,-83.527,95.287
43415440,0.672,-0.954,1.171,-261.957,-74.305,128.345
43415450,0.61,-1.616,1.775,-274.907,-55.545,155.662
43415460,0.24,-1.998,1.301,-261.17,-37.992,153.562
43415470,0.346,-1.998,1.213,-192.902,-69.615,81.27
43415480,0.182,-1.973,0.591,-163.24,-32.147,62.37
43415490,-0.787,-1.928,0.023,-13.177,-8.452,93.082
43415500,0.346,-1.217,-1.294,186.707,-56.157,87.027
43415510,0.679,-0.094,-1.759,276.15,-45.465,120.12
43415520,-0.214,0.733,-1.581,199.972,-36.277,106.452
43415530,0.091,0.459,-0.717,62.632,-55.51,27.352
43415540,0.518,-0.375,-0.246,-91.98,-23.712,-28.332
43415550,0.496,-0.562,-0.049,-170.065,18.182,-68.057
43415560,0.165,-0.461,0.011,-180.792,54.32,-99.505
43415570,-0.278,-0.465,-0.009,-157.115,76.825,-107.817
43415580,-0.478,-0.396,0.097,-89.932,58.117,-116.322
43415590,-0.539,-0.12,0.263,-34.877,21.262,-112.437
43415600,-0.521,0.108,0.332,-22.785,-8.802,-91.77
43415610,-0.427,0.174,0.403,-43.855,-24.71,-69.772
43415620,-0.347,0.039,0.396,-58.397,-33.355,-53.34
43415630,-0.298,0.051,0.435,-34.982,-43.75,-36.347
43415640,-0.16,0.35,0.371,10.92,-52.64,-13.877
43415650,-0.213,1.132,0.402,45.202,-44.957,27.195
43415660,-0.067,1.135,-0.128,24.377,-9.555,35.892
43415670,0.888,0.173,-0.61,68.6,96.355,-30.73
43415680,-1.153,-1.037,1.398,-36.19,283.01,-155.82
43415690,-1.741,-1.998,-1.478,-111.247,281.435,-410.305
43415700,0.483,0.979,-1.615,532.595,-48.825,-378.455
43415710,1.067,1.997,-0.53,549.29,-4.9,-109.62
43415720,1.941,-1.1,1.549,301.472,196.98,-51.415
43415730,0.597,-1.48,0.967,393.26,196.157,13.02
43415740,1.499,1.58,1.423,542.395,107.8,132.352
43415750,-0.888,1.746,1.931,360.692,122.045,196.525
43415760,-1.184,0.733,1.991,123.042,59.36,160.702
43415760,-0.53,1.567,1.971,-42.367,-10.867,81.48
43415780,-0.027,0.106,1.621,-208.075,6.615,-7.122
43415780,0.099,-0.54,0.623,-282.992,43.015,-35.542
43415800,0.28,-0.561,0.839,-185.01,33.372,-44.1
43415800,0.233,-0.622,0.759,-178.955,33.565,-48.912
43415820,0.006,-0.784,0.888,-190.295,26.74,-7.647
43415820,-0.148,-0.437,0.935,-160.667,-9.73,4.392
43415830,-0.496,-0.344,0.798,-166.005,-35.717,19.04
43415840,-0.435,-0.381,0.836,-160.72,-82.145,13.545
43415850,-0.194,-0.523,0.895,-185.605,-120.785,11.357
43415860,0.291,-0.581,0.996,-196.7,-149.31,21.35
43415870,0.562,-0.782,1.379,-187.565,-162.96,41.562
43415880,0.355,-1.196,1.4,-190.557,-169.785,42.297
43415890,0.334,-1.603,1.367,-168.577,-174.702,17.797
43415900,0.106,-1.714,1.466,-168.717,-136.167,1.47
43415910,-1.511,-1.84,1.159,-198.065,-6.492,4.62
43415920,-1.998,-1.909,1.282,-211.82,13.142,14.49
43415930,-1.464,-1.998,-0.424,3.867,-82.232,114.45
43415940,0.892,-1.246,-1.287,295.382,-64.995,229.145
43415950,1.763,0.203,-0.8,318.237,27.737,244.247
43415960,0.929,0.545,-0.997,177.537,97.895,220.815
43415970,0.302,0.289,-0.873,46.62,76.475,111.86
43415980,0.185,-0.05,-0.437,-34.982,19.985,-1.575
43415990,0.248,-0.189,-0.309,-93.03,-6.23,-54.145
43416000,0.358,-0.262,-0.162,-104.265,-19.862,-83.86
43416010,0.285,-0.459,-0.082,-81.567,-11.917,-98.122
43416020,0.177,-0.466,0.031,-36.942,10.482,-110.407
43416030,-0.037,-0.348,0.062,1.995,35.7,-112.49
43416040,-0.344,-0.24,-0.07,12.372,68.25,-97.825
43416050,-0.507,-0.185,-0.237,23.887,78.575,-89.95
43416060,-0.837,-0.312,0.455,31.972,73.202,-89.582
43416070,-0.31,0.101,1.789,-19.547,18.76,-120.365
43416080,1.789,-1.319,1.998,-27.702,-33.897,-131.285
43416080,1.994,-1.998,-0.472,79.975,62.457,-175.157
43416100,-0.669,-1.016,-0.716,354.672,119.14,-212.817
43416100,0.355,0.073,0,304.202,59.867,-116.952
43416120,1.874,-1.349,0.579,381.902,38.272,10.535
43416120,1.134,-0.271,0.894,424.025,37.38,75.652
43416140,0.992,0.331,1.476,418.88,39.27,148.837
43416140,-0.421,0.655,1.775,395.132,64.102,184.467
43416160,-0.998,1,1.702,331.87,73.535,139.457
43416160,-0.886,1.076,1.716,203.647,42.962,30.992
43416170,0.131,0.343,1.455,39.69,2.415,-40.302
43416180,0.574,0.085,1.498,-30.292,-23.73,-39.76
43416190,0.334,-0.093,1.296,-94.097,-16.047,-8.802
43416200,0.167,-0.101,1.318,-134.435,-9.992,1.33
43416210,0.118,-0.113,1.399,-169.277,-3.885,-1.942
43416220,0.123,0.005,1.399,-207.007,1.61,-0.507
43416230,0.163,-0.052,1.326,-243.985,4.217,-4.2
43416240,0.226,-0.148,1.131,-268.782,-3.115,-4.182
43416250,0.122,-0.241,1.033,-279.842,-18.252,2.292
43416260,0.111,-0.267,1.021,-289.695,-43.995,17.185
43416270,0.498,-0.408,1.152,-301.105,-64.435,36.75
43416280,0.602,-0.631,1.126,-310.905,-61.915,58.467
43416290,0.699,-1.069,1.238,-300.422,-46.637,71.977
43416300,0.743,-1.6,1.437,-287.157,-20.282,68.355
43416310,0.79,-1.874,1.286,-258.037,38.692,54.407
43416320,0.295,-1.818,0.447,-188.23,121.8,49.035
43416330,-0.116,-1.355,-0.073,-113.732,184.205,31.99
43416340,0.038,-1.076,-0.279,-58.922,198.555,7.035
43416350,0.187,-0.549,0.198,-44.607,160.265,-4.165
43416360,0.554,-0.222,0.372,-49.297,127.225,1.225
43416370,0.6,0.122,0.374,-32.095,105.595,22.277
43416380,0.405,0.486,0.594,4.707,59.955,27.335
43416390,0.35,0.782,0.762,32.445,3.71,-0.595
43416400,0.336,0.738,0.75,20.807,-15.4,-24.062
43416410,0.266,0.39,0.669,7.962,-14.822,-36.855
43416420,0.028,0.102,0.558,30.432,-15.295,-45.762
43416430,-0.186,-0.022,0.339,86.835,-14.385,-64.26
43416440,-0.429,0.011,-0.071,148.54,-18.585,-86.572
43416450,-0.495,0.176,-0.338,180.617,-43.715,-102.567
43416460,-0.321,0.233,-0.481,166.232,-42.927,-101.01
43416470,-0.133,0.056,-0.548,130.392,-21.56,-86.485
43416480,-0.135,-0.161,-0.566,96.25,2.397,-63.385
43416490,-0.101,-0.353,-0.512,98.245,1.295,-61.827
43416500,-0.123,-0.47,-0.477,107.625,-11.025,-85.452
43416510,1.101,-1.529,-1.81,141.505,78.767,-145.932
43416510,-1.707,-1.797,1.699,-137.97,263.532,-228.602
43416520,-1.253,-1.998,-1.978,-255.64,-110.88,-525.98
43416530,1.642,1.222,1.518,506.852,-261.345,-414.505
43416540,1.22,1.997,-0.914,571.34,-193.812,-104.965
43416550,1.859,0.381,1.729,353.5,126.752,-136.657
43416560,0.157,-1.968,1.489,117.95,306.46,-53.182
43416570,1.491,1.221,1.203,397.215,210.752,70.945
43416580,-0.862,1.489,1.833,292.127,200.235,140.472
43416590,-0.351,0.126,1.292,48.44,98.682,62.317
43416600,-0.41,0.804,1.091,-22.032,-17.937,-16.765
43416610,0.311,-0.581,1.097,-99.26,-39.34,-8.067
43416620,-0.024,0.011,1.051,-91.437,-64.925,10.29
43416630,0.716,-0.75,0.984,-134.557,-56.402,0.035
43416640,0.402,-0.387,1.006,-130.515,-51.1,6.002
43416650,0.286,-0.271,1.139,-135.555,-47.127,18.672
43416660,-0.014,-0.18,1.072,-166.442,-46.742,19.477
43416670,0.09,-0.157,1.178,-178.325,-60.375,12.985
43416680,0.155,-0.126,1.188,-202.09,-70.052,11.095
43416690,0.251,-0.128,1.262,-219.695,-88.165,11.392
43416700,0.312,-0.072,1.295,-242.41,-109.025,20.177
43416710,0.416,-0.166,1.11,-259.14,-123.182,40.932
43416720,0.427,-0.613,0.987,-266.682,-134.452,54.792
43416730,0.727,-0.994,1.13,-269.552,-129.815,60.97
43416740,0.941,-1.255,1.29,-253.785,-78.802,83.807
43416750,1.239,-1.393,1.53,-223.527,12.635,88.882
43416760,1.076,-1.652,1.05,-185.22,124.355,70.49
43416770,0.59,-1.392,0.381,-123.112,227.675,20.615
43416780,0.196,-0.853,0.537,-94.815,289.152,-24.797
43416790,-0.296,-0.312,0.339,-88.637,288.382,-22.592
43416800,-0.395,0.16,0.195,-48.037,176.68,-4.41
43416810,-0.079,0.51,0.135,0.157,86.415,22.277
43416820,0.3,0.528,0.297,35.612,43.26,49.682
43416830,0.554,0.538,0.456,47.687,13.335,47.11
43416830,0.366,0.323,0.34,23.572,21.227,42.157
43416850,0.105,0.077,0.171,8.837,27.23,33.617
43416850,-0.207,0.062,-0.006,41.842,-0.84,20.44
43416870,-0.352,0.08,-0.224,94.08,-51.1,-12.792
43416870,-0.411,-0.011,-0.319,118.055,-93.292,-32.287
43416890,-0.331,-0.129,-0.378,113.505,-109.935,-26.46
43416890,-0.287,-0.186,-0.421,107.275,-104.352,0.122
43416910,-0.349,-0.215,-0.392,132.177,-103.617,18.287
43416910,-0.422,-0.331,-0.741,177.082,-114.38,5.565
43416920,1.344,-0.891,-1.656,215.302,17.377,-41.352
43416930,-1.266,-1.682,1.609,-83.352,264.075,-113.452
43416940,-0.641,-1.998,-1.708,-272.58,272.16,-488.827
43416950,-1.193,0.751,0.354,487.2,-51.8,-372.417
43416960,0.523,1.997,-1.257,568.382,-154.402,-120.417
43416970,1.998,0.532,1.768,412.247,156.782,-116.287
43416980,-1.001,-1.838,1.119,280.63,310.362,-20.562
43416990,1.792,0.62,1.639,446.005,196.472,82.827
43417000,-0.396,1.623,1.952,373.45,171.062,171.657
43417010,-1.882,1.137,1.606,92.102,112.997,131.18
43417020,-0.498,1.129,1.547,-18.882,-18.847,63.052
43417030,0.349,-0.512,1.076,-137.48,-43.505,5.547
43417040,0.265,-0.949,0.592,-149.467,-29.505,8.347
43417050,0.213,-0.458,0.829,-59.762,-31.395,12.705
43417060,-0.055,-0.536,0.789,-65.852,-13.65,19.11
43417070,-0.238,-0.399,0.905,-44.94,-18.165,15.907
43417080,-0.194,-0.148,1.03,-22.085,-28.035,2.485
43417090,-0.038,-0.239,1.109,-39.322,-33.635,-15.26
43417100,0.289,-0.222,1.168,-54.547,-42.367,-25.235
43417110,0.381,-0.237,1.21,-74.112,-43.522,-19.215
43417120,0.497,-0.243,1.225,-96.6,-43.102,-7.7
43417130,0.482,-0.266,1.112,-117.057,-40.337,8.942
43417140,0.456,-0.351,1.118,-136.815,-40.337,27.51
43417150,0.481,-0.483,1.107,-154.91,-34.055,50.802
43417160,0.662,-0.672,1.13,-157.605,-28.665,74.392
43417170,0.694,-0.828,1.345,-143.01,-11.112,96.197
43417180,0.288,-0.979,1.13,-130.567,-8.925,94.237
43417190,0.208,-1.376,0.804,-108.815,-32.217,46.305
43417190,-0.071,-1.564,1.36,-110.705,-49.14,22.487
43417210,0.055,-1.99,0.607,-92.592,-42.77,-20.125
43417210,0.874,-1.908,-1.201,10.08,43.242,-52.85
43417230,-0.435,-0.832,-1.341,108.762,4.952,31.5
43417230,-1.342,-0.078,-0.203,76.685,-58.135,36.242
43417250,-0.25,-0.616,-0.181,-16.66,-32.497,-49.927
43417250,0.531,-1.064,-0.182,-75.145,8.47,-69.387
43417260,-0.127,-0.731,-0.209,-91.35,20.632,-53.742
43417270,-0.599,-0.501,-0.211,-93.502,22.715,-62.3
43417280,-0.309,-0.577,-0.002,-82.862,13.335,-86.59
43417290,-0.022,-0.556,0.221,-72.765,-1.575,-100.275
43417300,-0.131,-0.309,0.229,-84.84,0,-98.98
43417310,-0.361,-0.144,0.25,-79.66,-5.005,-104.475
43417320,-0.53,-0.001,0.197,-81.9,-22.33,-116.182
43417330,-0.887,0.065,0.183,-81.777,-60.462,-118.44
43417340,-0.998,0.654,0.589,-53.095,-109.62,-116.865
43417350,1.239,1.848,1.998,-31.447,107.327,-63.105
43417360,-0.056,-0.556,-1.126,116.655,195.65,35.157
43417370,1.321,-1.739,0.175,471.24,98.175,-192.202
43417380,-0.551,-1.298,0.302,329.612,272.492,-111.912
43417390,1.579,1.944,1.478,494.83,136.71,-17.132
43417400,0.771,0.544,1.955,397.88,197.977,73.832
43417410,-1.566,0.58,1.745,226.922,185.99,106.645
43417420,-1.148,1.839,1.84,168.262,48.195,85.522
43417430,-0.541,0.257,1.311,-32.025,2.327,18.812
43417440,0.223,-0.349,1,-101.92,-27.142,-14.192
43417450,0.614,-0.611,0.849,-107.765,-23.485,-12.145
43417460,0.341,-0.865,0.825,-95.322,-6.527,8.522
43417470,0.022,-0.487,0.878,-52.745,-22.592,43.68
43417480,0.003,-0.123,1.263,-43.575,-46.97,47.915
43417490,-0.296,-0.185,1.252,-100.432,-53.305,56.105
43417500,-0.072,-0.114,1.452,-113.242,-87.08,43.085
43417510,0.207,-0.103,1.333,-147.822,-103.232,42.227
43417520,0.412,-0.225,1.231,-169.365,-107.747,44.66
43417530,0.636,-0.488,1.261,-188.58,-92.785,59.08
43417540,0.549,-0.667,1.307,-210.997,-73.832,89.6
43417550,-0.023,-0.81,1.572,-237.755,-102.865,113.225
43417560,-1.148,-0.966,0.929,-269.15,-208.652,85.522
43417570,-1.666,-1.92,1.074,-297.395,-357.822,28.962
43417580,-1.998,-1.998,1.998,-415.012,-171.272,120.155
43417580,-1.791,-1.998,-1.436,-20.23,-161.105,392.647
43417600,1.362,-0.656,-1.64,501.165,-146.545,369.145
43417600,1.986,0.945,-1.455,470.54,-41.632,390.092
43417620,1.215,0.403,-1.276,230.825,4.585,426.282
43417620,0.621,-0.305,-1.091,9.73,-13.562,337.172
43417640,0.873,-0.87,-0.982,-82.092,-48.072,232.207
43417640,1.655,-1.103,-0.493,-56.28,-44.17,148.032
43417660,1.454,-0.912,-0.181,-20.667,-6.475,93.275
43417660,0.914,-0.474,-0.117,4.777,37.397,23.625
43417670,0.635,-0.118,0.038,23.24,61.722,-64.137
43417680,0.381,-0.095,0.113,-1.19,92.662,-113.942
43417690,0.156,-0.282,0.142,-45.517,115.132,-155.645
43417700,0.128,-0.229,0.304,-80.57,116.55,-212.152
43417710,-0.016,-0.067,0.315,-100.817,99.225,-266.735
43417720,-0.551,0.343,0.261,-131.985,59.797,-297.377
43417730,-1.727,0.955,0.158,-177.73,-25.637,-314.44
43417740,-1.998,1.296,-0.545,-259,-126.787,-320.302
43417750,-1.974,1.368,-0.619,-134.54,-183.277,-227.797
43417760,0.763,1.213,1.968,13.002,-42.787,-7.017
43417770,1.336,-1.998,-0.436,-234.902,235.13,-81.987
43417780,-0.972,-1.983,0.037,423.045,23.677,-418.127
43417790,1.799,1.181,0.926,468.965,128.082,-162.172
43417800,1.393,1.97,-0.153,525.28,109.077,20.107
43417810,1.05,-1.038,1.998,426.807,339.902,111.807
43417820,-1.196,-0.218,0.538,313.005,270.06,242.322
43417830,-1.568,1.997,1.882,390.285,47.547,222.757
43417840,-1.567,1.606,1.866,121.38,22.557,92.61
43417850,-0.198,-0.031,1.29,-96.11,-11.55,-36.137
43417860,0.662,-0.425,0.993,-145.232,-39.795,-46.427
43417870,0.41,-0.656,0.921,-148.802,-21.35,-15.312
43417880,0.071,-0.476,1.016,-140.507,-29.505,26.565
43417890,0.022,-0.153,1.237,-150.972,-61.355,53.55
43417900,0.047,-0.4,1.38,-178.587,-74.987,61.355
43417910,-0.237,-0.189,0.77,-178.132,-90.912,53.287
43417920,0.365,-0.3,1.193,-129.762,-120.47,49.612
43417920,0.324,-0.386,0.897,-198.922,-91.98,67.602
43417940,0.508,-0.53,0.992,-185.692,-99.872,81.462
43417940,0.629,-0.516,1.099,-190.032,-104.37,100.782
43417960,0.305,-0.872,1.572,-214.13,-110.985,133.105
43417960,-0.04,-1.628,1.098,-221.742,-143.237,141.837
43417980,-0.109,-1.85,1.051,-145.39,-193.742,128.52
43417980,0.058,-1.998,1.844,-149.59,-145.897,103.67
43418000,-1.003,-1.998,1.861,-225.277,-14.315,78.452
43418000,-1.115,-1.998,-1.633,54.915,59.902,250.652
43418010,0.122,-1.203,-1.695,376.11,-5.652,395.657
43418020,0.694,0.1,-1.404,387.047,-114.555,313.652
43418030,0.915,0.534,-1.204,239.277,-185.832,203.262
43418040,1.422,0.281,-0.085,59.22,-127.732,95.305
43418050,1.274,-0.275,-0.093,-131.302,4.532,14.192
43418060,0.739,-0.408,-0.144,-218.137,104.107,-72.87
43418070,0.186,-0.548,-0.205,-194.46,138.407,-151.742
43418080,-0.086,-0.701,-0.163,-123.182,138.285,-198.905
43418090,-0.011,-0.633,-0.005,-53.322,134.75,-211.382
43418100,0.053,-0.381,0.064,-14.087,137.147,-205.362
43418110,-0.048,-0.171,0.036,-11.602,145.547,-209.072
43418120,-0.277,-0.036,0.058,-34.632,143.272,-236.512
43418130,-1.069,0.186,0.042,-77.245,111.527,-275.327
43418140,-1.567,0.246,0.046,-120.137,38.99,-302.75
43418150,-1.377,0.107,0.225,-145.967,-17.482,-275.012
43418160,-0.855,-0.142,-0.007,-176.75,-18.725,-183.47
43418170,-1.762,-0.339,0.952,-24.92,-13.422,-23.537
43418180,0.72,-0.242,1.998,145.337,-25.602,13.65
43418190,1.998,-1.998,-0.696,84.402,246.26,-22.452
43418200,-0.76,-1.063,0.208,492.765,144.252,-150.675
43418210,-0.927,1.598,0.197,452.445,-9.765,-82.215
43418220,1.992,1.666,1.758,514.657,42.525,19.512
43418230,-0.039,0.402,1.903,367.43,171.482,88.357
43418240,-0.255,-0.227,0.871,247.852,157.272,106.382
43418250,-0.858,1.592,1.68,253.277,46.55,125.282
43418260,-0.686,0.977,1.585,64.627,9.222,60.287
43418270,-0.239,-0.308,1.178,-81.41,-11.497,-8.225
43418280,0.273,-0.181,1.202,-103.792,-39.462,-10.85
43418290,0.055,-0.035,1.215,-133.245,-46.672,4.34
43418300,0.159,-0.173,1.301,-180.337,-58.905,9.432
43418310,0.106,-0.5,1.212,-219.222,-74.48,28.087
43418320,0.248,0.099,1.354,-181.195,-124.792,38.71
43418330,0.614,0.03,1.206,-218.382,-139.37,27.93
43418330,0.289,-0.383,1.067,-307.667,-107.922,81.025
43418350,0.471,-0.44,1.364,-306.617,-147.892,90.755
43418350,0.429,-0.419,1.009,-311.22,-192.202,126.035
43418370,0.145,-0.848,1.415,-332.062,-248.15,162.575
43418370,-0.047,-1.948,1.776,-387.695,-239.067,184.765
43418390,-0.308,-1.998,1.423,-370.772,-294.577,103.39
43418390,0.161,-1.998,1.995,-363.387,-301.612,21.367
43418410,-0.955,-1.998,1.64,-402.185,-59.57,97.352
43418410,-1.632,-1.995,-0.498,-46.147,-73.237,219.205
43418420,1.109,-1.082,-1.481,308.98,-37.065,250.775
43418430,1.524,0.176,-1.07,322.49,121.292,309.05
43418440,0.866,0.441,-1.212,207.69,179.83,373.082
43418450,0.575,0.585,-0.95,124.232,150.885,327.022
43418460,0.711,0.543,-0.492,51.852,87.727,240.73
43418470,1.286,0.255,-0.347,-11.077,46.287,161.892
43418480,1.565,-0.127,-0.192,-5.372,10.71,87.745
43418490,1.27,-0.167,0.087,29.715,-15.96,25.847
43418500,0.642,0.155,0.486,49.21,-3.937,-25.235
43418510,0.098,0.283,0.469,39.882,61.355,-70.28
43418520,-0.385,0.176,-0.048,26.827,92.347,-104.825
43418530,-0.745,0.312,-0.101,48.212,16.817,-150.57
43418540,-0.461,0.408,0.298,54.442,-36.802,-195.667
43418550,-0.232,0.173,0.166,26.442,-29.4,-190.96
43418560,-0.24,0.023,0.224,5.372,-15.767,-161.07
43418570,-0.199,-0.361,0.117,2.327,10.71,-122.325
43418580,-0.288,-0.28,-0.013,-11.62,49.437,-37.852
43418590,-0.865,-0.216,-0.047,59.272,56.28,59.955
43418600,-0.361,-0.088,-0.178,240.257,-41.965,24.307
43418610,0.42,0.439,-0.002,312.76,-84.682,-13.16
43418620,0.618,0.968,-0.721,223.807,-29.68,-5.705
43418630,0.173,0.223,0.268,79.38,265.3,-23.415
43418640,-1.11,-1.998,-0.24,-352.45,461.527,-391.317
43418650,0.705,-0.712,-0.066,260.662,-100.905,-552.527
43418660,-0.788,1.997,-1.313,567.7,-185.482,-216.79
43418670,1.412,1.76,1.309,528.955,25.655,137.13
43418670,0.317,-1.39,0.949,246.732,243.722,-54.775
43418690,0.925,-1.024,1.523,303.362,216.877,40.582
43418690,-0.682,1.796,1.618,444.08,111.562,207.13
43418710,-0.997,1.745,1.459,206.675,56.717,180.127
43418710,-0.727,0.683,1.657,-21.402,4.882,60.025
43418730,-0.344,0.217,1.304,-151.34,-23.432,-15.067
43418730,0.178,-0.632,1.027,-219.73,-27.055,-49.735
43418750,0.225,-0.275,0.827,-211.155,-33.11,-23.397
43418750,0.589,0.198,1.624,-155.592,-65.205,-18.9
43418760,0.249,0.047,1.255,-253.19,-41.037,0.227
43418770,0.161,-0.287,1.21,-273.332,-41.107,5.687
43418780,0.197,-0.253,1.125,-254.677,-58.397,-4.042
43418790,0.159,-0.286,0.921,-264.162,-71.137,0.787
43418800,0.359,-0.403,1.151,-273.665,-106.54,20.597
43418810,1.126,-0.781,1.531,-274.12,-108.01,67.042
43418820,1.229,-1.032,1.722,-248.64,-44.222,130.287
43418830,1.132,-1.3,1.998,-233.94,78.172,144.462
43418840,0.719,-1.791,1.89,-248.71,176.155,121.537
43418850,-0.178,-1.502,1.987,-265.352,215.075,76.475
43418860,-0.918,-1.098,0.878,-322.612,240.642,57.015
43418870,-0.924,-1.172,-0.317,-229.897,70.612,131.407
43418880,-1.558,-0.819,-0.547,-64.47,-155.382,153.37
43418890,-0.102,0.042,-1.283,100.835,-123.06,134.452
43418900,1.477,0.167,-0.738,193.025,-47.057,147.35
